workerId,hitId,assignmentId,subject,studyid,exp_date,exp_start,exp_end,time_start,time_end,practice,encoding,memory,block,trial,event_order,event,stim,answer,context_type,label_left,label_right,left_image,left_event,right_image,right_event,condition,response,response_time,response_acc,order_response,order_response_time,order_acc,distance_response,distance_response_time
PQwvegSM,3o4vwc1gfzjxgki2d88xs18tr9fj3v,3aajc4i4fk50oxnpph88lm908mozjb,PQwvegSM,2020-0188,2021-10-14,09:55:42,12:07:24,NA,incomplete,true,true,NA,0,0,NA,brown,m_s_065.jpg,NA,NA,pleasant,unpleasant,NA,NA,NA,NA,NA,right,2058.90000009537,true,NA,NA,NA,NA,NA
PQwvegSM,3o4vwc1gfzjxgki2d88xs18tr9fj3v,3aajc4i4fk50oxnpph88lm908mozjb,PQwvegSM,2020-0188,2021-10-14,09:55:42,12:07:24,NA,incomplete,true,true,NA,0,1,NA,brown,m_l_012.jpg,NA,NA,pleasant,unpleasant,NA,NA,NA,NA,NA,right,1439.30000019073,true,NA,NA,NA,NA,NA
PQwvegSM,3o4vwc1gfzjxgki2d88xs18tr9fj3v,3aajc4i4fk50oxnpph88lm908mozjb,PQwvegSM,2020-0188,2021-10-14,09:55:42,12:07:24,NA,incomplete,true,true,NA,0,2,NA,brown,n_l_029.jpg,NA,NA,unpleasant,pleasant,NA,NA,NA,NA,NA,right,810.899999856949,true,NA,NA,NA,NA,NA
PQwvegSM,3o4vwc1gfzjxgki2d88xs18tr9fj3v,3aajc4i4fk50oxnpph88lm908mozjb,PQwvegSM,2020-0188,2021-10-14,09:55:42,12:07:24,NA,incomplete,true,true,NA,0,3,NA,brown,n_s_105.jpg,NA,NA,pleasant,unpleasant,NA,NA,NA,NA,NA,right,2971.29999995232,true,NA,NA,NA,NA,NA
PQwvegSM,3o4vwc1gfzjxgki2d88xs18tr9fj3v,3aajc4i4fk50oxnpph88lm908mozjb,PQwvegSM,2020-0188,2021-10-14,09:55:42,12:07:24,NA,incomplete,true,true,NA,0,4,NA,brown,m_l_060.jpg,NA,NA,pleasant,unpleasant,NA,NA,NA,NA,NA,right,1932.40000009537,true,NA,NA,NA,NA,NA
PQwvegSM,3o4vwc1gfzjxgki2d88xs18tr9fj3v,3aajc4i4fk50oxnpph88lm908mozjb,PQwvegSM,2020-0188,2021-10-14,09:55:42,12:07:24,NA,incomplete,true,true,NA,0,5,NA,brown,n_l_013.jpg,NA,NA,pleasant,unpleasant,NA,NA,NA,NA,NA,right,1065.69999980927,true,NA,NA,NA,NA,NA
PQwvegSM,3o4vwc1gfzjxgki2d88xs18tr9fj3v,3aajc4i4fk50oxnpph88lm908mozjb,PQwvegSM,2020-0188,2021-10-14,09:55:42,12:07:24,NA,incomplete,true,true,NA,0,6,NA,black,m_l_075.jpg,NA,NA,unpleasant,pleasant,NA,NA,NA,NA,NA,none,0,false,NA,NA,NA,NA,NA
PQwvegSM,3o4vwc1gfzjxgki2d88xs18tr9fj3v,3aajc4i4fk50oxnpph88lm908mozjb,PQwvegSM,2020-0188,2021-10-14,09:55:42,12:07:24,NA,incomplete,true,true,NA,0,7,NA,black,m_s_116.jpg,NA,NA,pleasant,unpleasant,NA,NA,NA,NA,NA,right,2219.70000004768,true,NA,NA,NA,NA,NA
PQwvegSM,3o4vwc1gfzjxgki2d88xs18tr9fj3v,3aajc4i4fk50oxnpph88lm908mozjb,PQwvegSM,2020-0188,2021-10-14,09:55:42,12:07:24,NA,incomplete,true,true,NA,0,8,NA,black,m_l_116.jpg,NA,NA,unpleasant,pleasant,NA,NA,NA,NA,NA,right,1419.40000009537,true,NA,NA,NA,NA,NA
PQwvegSM,3o4vwc1gfzjxgki2d88xs18tr9fj3v,3aajc4i4fk50oxnpph88lm908mozjb,PQwvegSM,2020-0188,2021-10-14,09:55:42,12:07:24,NA,incomplete,true,true,NA,0,9,NA,black,n_l_095.jpg,NA,NA,unpleasant,pleasant,NA,NA,NA,NA,NA,right,1688.69999980927,true,NA,NA,NA,NA,NA
PQwvegSM,3o4vwc1gfzjxgki2d88xs18tr9fj3v,3aajc4i4fk50oxnpph88lm908mozjb,PQwvegSM,2020-0188,2021-10-14,09:55:42,12:07:24,NA,incomplete,true,true,NA,0,10,NA,black,n_l_028.jpg,NA,NA,unpleasant,pleasant,NA,NA,NA,NA,NA,right,1236.20000004768,true,NA,NA,NA,NA,NA
PQwvegSM,3o4vwc1gfzjxgki2d88xs18tr9fj3v,3aajc4i4fk50oxnpph88lm908mozjb,PQwvegSM,2020-0188,2021-10-14,09:55:42,12:07:24,NA,incomplete,true,true,NA,0,11,NA,black,m_l_023.jpg,NA,NA,pleasant,unpleasant,NA,NA,NA,NA,NA,none,0,false,NA,NA,NA,NA,NA
PQwvegSM,3o4vwc1gfzjxgki2d88xs18tr9fj3v,3aajc4i4fk50oxnpph88lm908mozjb,PQwvegSM,2020-0188,2021-10-14,09:55:42,12:07:24,NA,incomplete,true,true,NA,0,12,NA,orange,m_s_092.jpg,NA,NA,unpleasant,pleasant,NA,NA,NA,NA,NA,none,0,false,NA,NA,NA,NA,NA
PQwvegSM,3o4vwc1gfzjxgki2d88xs18tr9fj3v,3aajc4i4fk50oxnpph88lm908mozjb,PQwvegSM,2020-0188,2021-10-14,09:55:42,12:07:24,NA,incomplete,true,true,NA,0,13,NA,orange,n_l_055.jpg,NA,NA,unpleasant,pleasant,NA,NA,NA,NA,NA,left,105.599999904633,true,NA,NA,NA,NA,NA
PQwvegSM,3o4vwc1gfzjxgki2d88xs18tr9fj3v,3aajc4i4fk50oxnpph88lm908mozjb,PQwvegSM,2020-0188,2021-10-14,09:55:42,12:07:24,NA,incomplete,true,true,NA,0,14,NA,orange,m_s_014.jpg,NA,NA,unpleasant,pleasant,NA,NA,NA,NA,NA,left,845.099999904633,true,NA,NA,NA,NA,NA
PQwvegSM,3o4vwc1gfzjxgki2d88xs18tr9fj3v,3aajc4i4fk50oxnpph88lm908mozjb,PQwvegSM,2020-0188,2021-10-14,09:55:42,12:07:24,NA,incomplete,true,true,NA,0,15,NA,orange,m_s_073.jpg,NA,NA,pleasant,unpleasant,NA,NA,NA,NA,NA,left,1032,true,NA,NA,NA,NA,NA
PQwvegSM,3o4vwc1gfzjxgki2d88xs18tr9fj3v,3aajc4i4fk50oxnpph88lm908mozjb,PQwvegSM,2020-0188,2021-10-14,09:55:42,12:07:24,NA,incomplete,true,true,NA,0,16,NA,orange,m_s_056.jpg,NA,NA,unpleasant,pleasant,NA,NA,NA,NA,NA,none,0,false,NA,NA,NA,NA,NA
PQwvegSM,3o4vwc1gfzjxgki2d88xs18tr9fj3v,3aajc4i4fk50oxnpph88lm908mozjb,PQwvegSM,2020-0188,2021-10-14,09:55:42,12:07:24,NA,incomplete,true,true,NA,0,17,NA,orange,n_l_066.jpg,NA,NA,pleasant,unpleasant,NA,NA,NA,NA,NA,none,0,false,NA,NA,NA,NA,NA
PQwvegSM,3o4vwc1gfzjxgki2d88xs18tr9fj3v,3aajc4i4fk50oxnpph88lm908mozjb,PQwvegSM,2020-0188,2021-10-14,09:55:42,12:07:24,NA,incomplete,true,true,NA,0,18,NA,blue,m_s_080.jpg,NA,NA,pleasant,unpleasant,NA,NA,NA,NA,NA,left,590.5,true,NA,NA,NA,NA,NA
PQwvegSM,3o4vwc1gfzjxgki2d88xs18tr9fj3v,3aajc4i4fk50oxnpph88lm908mozjb,PQwvegSM,2020-0188,2021-10-14,09:55:42,12:07:24,NA,incomplete,true,true,NA,0,19,NA,blue,n_l_030.jpg,NA,NA,pleasant,unpleasant,NA,NA,NA,NA,NA,none,0,false,NA,NA,NA,NA,NA
PQwvegSM,3o4vwc1gfzjxgki2d88xs18tr9fj3v,3aajc4i4fk50oxnpph88lm908mozjb,PQwvegSM,2020-0188,2021-10-14,09:55:42,12:07:24,NA,incomplete,true,true,NA,0,20,NA,blue,m_s_113.jpg,NA,NA,unpleasant,pleasant,NA,NA,NA,NA,NA,left,1276.39999985695,true,NA,NA,NA,NA,NA
PQwvegSM,3o4vwc1gfzjxgki2d88xs18tr9fj3v,3aajc4i4fk50oxnpph88lm908mozjb,PQwvegSM,2020-0188,2021-10-14,09:55:42,12:07:24,NA,incomplete,true,true,NA,0,21,NA,blue,m_s_107.jpg,NA,NA,pleasant,unpleasant,NA,NA,NA,NA,NA,left,1377.29999995232,true,NA,NA,NA,NA,NA
PQwvegSM,3o4vwc1gfzjxgki2d88xs18tr9fj3v,3aajc4i4fk50oxnpph88lm908mozjb,PQwvegSM,2020-0188,2021-10-14,09:55:42,12:07:24,NA,incomplete,true,true,NA,0,22,NA,blue,n_s_012.jpg,NA,NA,pleasant,unpleasant,NA,NA,NA,NA,NA,left,2037.90000009537,true,NA,NA,NA,NA,NA
PQwvegSM,3o4vwc1gfzjxgki2d88xs18tr9fj3v,3aajc4i4fk50oxnpph88lm908mozjb,PQwvegSM,2020-0188,2021-10-14,09:55:42,12:07:24,NA,incomplete,true,true,NA,0,23,NA,blue,n_l_112.jpg,NA,NA,unpleasant,pleasant,NA,NA,NA,NA,NA,left,1463.09999990463,true,NA,NA,NA,NA,NA
PQwvegSM,3o4vwc1gfzjxgki2d88xs18tr9fj3v,3aajc4i4fk50oxnpph88lm908mozjb,PQwvegSM,2020-0188,2021-10-14,09:55:42,12:07:24,NA,incomplete,true,true,NA,0,24,NA,yellow,m_l_099.jpg,NA,NA,pleasant,unpleasant,NA,NA,NA,NA,NA,left,593.5,true,NA,NA,NA,NA,NA
PQwvegSM,3o4vwc1gfzjxgki2d88xs18tr9fj3v,3aajc4i4fk50oxnpph88lm908mozjb,PQwvegSM,2020-0188,2021-10-14,09:55:42,12:07:24,NA,incomplete,true,true,NA,0,25,NA,yellow,n_s_037.jpg,NA,NA,unpleasant,pleasant,NA,NA,NA,NA,NA,left,1314.20000004768,true,NA,NA,NA,NA,NA
PQwvegSM,3o4vwc1gfzjxgki2d88xs18tr9fj3v,3aajc4i4fk50oxnpph88lm908mozjb,PQwvegSM,2020-0188,2021-10-14,09:55:42,12:07:24,NA,incomplete,true,true,NA,0,26,NA,yellow,m_s_037.jpg,NA,NA,pleasant,unpleasant,NA,NA,NA,NA,NA,left,144.400000095367,true,NA,NA,NA,NA,NA
PQwvegSM,3o4vwc1gfzjxgki2d88xs18tr9fj3v,3aajc4i4fk50oxnpph88lm908mozjb,PQwvegSM,2020-0188,2021-10-14,09:55:42,12:07:24,NA,incomplete,true,true,NA,0,27,NA,yellow,n_s_039.jpg,NA,NA,unpleasant,pleasant,NA,NA,NA,NA,NA,right,1884.20000004768,true,NA,NA,NA,NA,NA
PQwvegSM,3o4vwc1gfzjxgki2d88xs18tr9fj3v,3aajc4i4fk50oxnpph88lm908mozjb,PQwvegSM,2020-0188,2021-10-14,09:55:42,12:07:24,NA,incomplete,true,true,NA,0,28,NA,yellow,n_s_005.jpg,NA,NA,pleasant,unpleasant,NA,NA,NA,NA,NA,right,2371.79999995232,true,NA,NA,NA,NA,NA
PQwvegSM,3o4vwc1gfzjxgki2d88xs18tr9fj3v,3aajc4i4fk50oxnpph88lm908mozjb,PQwvegSM,2020-0188,2021-10-14,09:55:42,12:07:24,NA,incomplete,true,true,NA,0,29,NA,yellow,n_l_097.jpg,NA,NA,unpleasant,pleasant,NA,NA,NA,NA,NA,right,275.900000095367,true,NA,NA,NA,NA,NA
PQwvegSM,3o4vwc1gfzjxgki2d88xs18tr9fj3v,3aajc4i4fk50oxnpph88lm908mozjb,PQwvegSM,2020-0188,2021-10-14,09:55:42,12:07:24,NA,incomplete,true,true,NA,0,30,NA,white,n_s_003.jpg,NA,NA,unpleasant,pleasant,NA,NA,NA,NA,NA,right,2459.39999985695,true,NA,NA,NA,NA,NA
PQwvegSM,3o4vwc1gfzjxgki2d88xs18tr9fj3v,3aajc4i4fk50oxnpph88lm908mozjb,PQwvegSM,2020-0188,2021-10-14,09:55:42,12:07:24,NA,incomplete,true,true,NA,0,31,NA,white,n_s_106.jpg,NA,NA,unpleasant,pleasant,NA,NA,NA,NA,NA,right,719.100000143051,true,NA,NA,NA,NA,NA
PQwvegSM,3o4vwc1gfzjxgki2d88xs18tr9fj3v,3aajc4i4fk50oxnpph88lm908mozjb,PQwvegSM,2020-0188,2021-10-14,09:55:42,12:07:24,NA,incomplete,true,true,NA,0,32,NA,white,n_s_016.jpg,NA,NA,unpleasant,pleasant,NA,NA,NA,NA,NA,none,0,false,NA,NA,NA,NA,NA
PQwvegSM,3o4vwc1gfzjxgki2d88xs18tr9fj3v,3aajc4i4fk50oxnpph88lm908mozjb,PQwvegSM,2020-0188,2021-10-14,09:55:42,12:07:24,NA,incomplete,true,true,NA,0,33,NA,white,n_s_095.jpg,NA,NA,unpleasant,pleasant,NA,NA,NA,NA,NA,right,2587.60000014305,true,NA,NA,NA,NA,NA
PQwvegSM,3o4vwc1gfzjxgki2d88xs18tr9fj3v,3aajc4i4fk50oxnpph88lm908mozjb,PQwvegSM,2020-0188,2021-10-14,09:55:42,12:07:24,NA,incomplete,true,true,NA,0,34,NA,white,n_l_078.jpg,NA,NA,unpleasant,pleasant,NA,NA,NA,NA,NA,right,1543.40000009537,true,NA,NA,NA,NA,NA
PQwvegSM,3o4vwc1gfzjxgki2d88xs18tr9fj3v,3aajc4i4fk50oxnpph88lm908mozjb,PQwvegSM,2020-0188,2021-10-14,09:55:42,12:07:24,NA,incomplete,true,true,NA,0,35,NA,white,m_s_047.jpg,NA,NA,pleasant,unpleasant,NA,NA,NA,NA,NA,right,1546.70000004768,true,NA,NA,NA,NA,NA
PQwvegSM,3o4vwc1gfzjxgki2d88xs18tr9fj3v,3aajc4i4fk50oxnpph88lm908mozjb,PQwvegSM,2020-0188,2021-10-14,09:55:42,12:07:24,NA,incomplete,true,NA,true,0,0,NA,NA,NA,right,absent,NA,NA,m_s_113.jpg,blue,m_s_056.jpg,orange,between,NA,NaN,NA,left,2752.5,0,0,3727.699999809265
PQwvegSM,3o4vwc1gfzjxgki2d88xs18tr9fj3v,3aajc4i4fk50oxnpph88lm908mozjb,PQwvegSM,2020-0188,2021-10-14,09:55:42,12:07:24,NA,incomplete,true,NA,true,0,1,NA,NA,NA,right,absent,NA,NA,m_s_014.jpg,orange,n_l_028.jpg,black,between,NA,NaN,NA,right,11512.599999904633,1,0,13687.299999952316
PQwvegSM,3o4vwc1gfzjxgki2d88xs18tr9fj3v,3aajc4i4fk50oxnpph88lm908mozjb,PQwvegSM,2020-0188,2021-10-14,09:55:42,12:07:24,NA,incomplete,true,NA,true,0,2,NA,NA,NA,left,present,NA,NA,n_l_030.jpg,blue,n_l_112.jpg,blue,within,NA,NaN,NA,left,157948.29999995232,1,0,2217.4000000953674
PQwvegSM,3o4vwc1gfzjxgki2d88xs18tr9fj3v,3aajc4i4fk50oxnpph88lm908mozjb,PQwvegSM,2020-0188,2021-10-14,09:55:42,12:07:24,NA,incomplete,true,NA,true,0,3,NA,NA,NA,right,absent,NA,NA,n_l_013.jpg,brown,m_l_012.jpg,brown,within,NA,NaN,NA,left,1717.5,0,0,2157.600000143051
PQwvegSM,3o4vwc1gfzjxgki2d88xs18tr9fj3v,3aajc4i4fk50oxnpph88lm908mozjb,PQwvegSM,2020-0188,2021-10-14,09:55:42,12:07:24,NA,incomplete,true,NA,true,0,4,NA,NA,NA,right,absent,NA,NA,m_l_023.jpg,black,m_s_116.jpg,black,within,NA,NaN,NA,right,5587.900000095367,1,1,6817.299999952316
PQwvegSM,3o4vwc1gfzjxgki2d88xs18tr9fj3v,3aajc4i4fk50oxnpph88lm908mozjb,PQwvegSM,2020-0188,2021-10-14,09:55:42,12:07:24,NA,incomplete,true,NA,true,0,5,NA,NA,NA,right,present,NA,NA,m_s_037.jpg,yellow,n_s_012.jpg,blue,between,NA,NaN,NA,right,2237.5,1,1,4089.100000143051
PQwvegSM,3o4vwc1gfzjxgki2d88xs18tr9fj3v,3aajc4i4fk50oxnpph88lm908mozjb,PQwvegSM,2020-0188,2021-10-14,09:55:42,12:07:24,NA,incomplete,true,NA,true,0,6,NA,NA,NA,right,present,NA,NA,m_l_116.jpg,black,m_l_060.jpg,brown,between,NA,NaN,NA,right,2230.899999856949,1,3,2656.2000000476837
PQwvegSM,3o4vwc1gfzjxgki2d88xs18tr9fj3v,3aajc4i4fk50oxnpph88lm908mozjb,PQwvegSM,2020-0188,2021-10-14,09:55:42,12:07:24,NA,incomplete,true,NA,true,0,7,NA,NA,NA,right,absent,NA,NA,n_l_066.jpg,orange,n_l_055.jpg,orange,within,NA,NaN,NA,left,3206.9000000953674,0,2,3466.7000000476837
PQwvegSM,3o4vwc1gfzjxgki2d88xs18tr9fj3v,3aajc4i4fk50oxnpph88lm908mozjb,PQwvegSM,2020-0188,2021-10-14,09:55:42,12:07:24,NA,incomplete,true,NA,true,0,8,NA,NA,NA,left,present,NA,NA,n_s_005.jpg,yellow,n_s_016.jpg,white,between,NA,NaN,NA,left,2682.4000000953674,1,0,1927.5
PQwvegSM,3o4vwc1gfzjxgki2d88xs18tr9fj3v,3aajc4i4fk50oxnpph88lm908mozjb,PQwvegSM,2020-0188,2021-10-14,09:55:42,12:07:24,NA,incomplete,true,NA,true,0,9,NA,NA,NA,right,present,NA,NA,m_s_047.jpg,white,n_s_106.jpg,white,within,NA,NaN,NA,right,3247.5,1,1,2892.7000000476837
PQwvegSM,3o4vwc1gfzjxgki2d88xs18tr9fj3v,3aajc4i4fk50oxnpph88lm908mozjb,PQwvegSM,2020-0188,2021-10-14,09:55:42,12:07:24,NA,incomplete,true,NA,true,0,10,NA,NA,NA,right,absent,NA,NA,n_l_097.jpg,yellow,n_s_037.jpg,yellow,within,NA,NaN,NA,right,2977.4000000953674,1,1,3798.399999856949
PQwvegSM,3o4vwc1gfzjxgki2d88xs18tr9fj3v,3aajc4i4fk50oxnpph88lm908mozjb,PQwvegSM,2020-0188,2021-10-14,09:55:42,12:07:24,NA,incomplete,false,true,NA,1,0,NA,yellow,m_s_035.jpg,NA,NA,unpleasant,pleasant,NA,NA,NA,NA,NA,right,2722.5,true,NA,NA,NA,NA,NA
PQwvegSM,3o4vwc1gfzjxgki2d88xs18tr9fj3v,3aajc4i4fk50oxnpph88lm908mozjb,PQwvegSM,2020-0188,2021-10-14,09:55:42,12:07:24,NA,incomplete,false,true,NA,1,1,NA,yellow,m_l_034.jpg,NA,NA,unpleasant,pleasant,NA,NA,NA,NA,NA,right,914.900000095367,true,NA,NA,NA,NA,NA
PQwvegSM,3o4vwc1gfzjxgki2d88xs18tr9fj3v,3aajc4i4fk50oxnpph88lm908mozjb,PQwvegSM,2020-0188,2021-10-14,09:55:42,12:07:24,NA,incomplete,false,true,NA,1,2,NA,yellow,n_l_092.jpg,NA,NA,pleasant,unpleasant,NA,NA,NA,NA,NA,right,166.799999952316,true,NA,NA,NA,NA,NA
PQwvegSM,3o4vwc1gfzjxgki2d88xs18tr9fj3v,3aajc4i4fk50oxnpph88lm908mozjb,PQwvegSM,2020-0188,2021-10-14,09:55:42,12:07:24,NA,incomplete,false,true,NA,1,3,NA,yellow,n_s_081.jpg,NA,NA,pleasant,unpleasant,NA,NA,NA,NA,NA,right,1365.20000004768,true,NA,NA,NA,NA,NA
PQwvegSM,3o4vwc1gfzjxgki2d88xs18tr9fj3v,3aajc4i4fk50oxnpph88lm908mozjb,PQwvegSM,2020-0188,2021-10-14,09:55:42,12:07:24,NA,incomplete,false,true,NA,1,4,NA,yellow,m_l_022.jpg,NA,NA,pleasant,unpleasant,NA,NA,NA,NA,NA,right,71.5,true,NA,NA,NA,NA,NA
PQwvegSM,3o4vwc1gfzjxgki2d88xs18tr9fj3v,3aajc4i4fk50oxnpph88lm908mozjb,PQwvegSM,2020-0188,2021-10-14,09:55:42,12:07:24,NA,incomplete,false,true,NA,1,5,NA,yellow,m_l_042.jpg,NA,NA,unpleasant,pleasant,NA,NA,NA,NA,NA,right,1429.39999985695,true,NA,NA,NA,NA,NA
PQwvegSM,3o4vwc1gfzjxgki2d88xs18tr9fj3v,3aajc4i4fk50oxnpph88lm908mozjb,PQwvegSM,2020-0188,2021-10-14,09:55:42,12:07:24,NA,incomplete,false,true,NA,1,6,NA,gray,m_l_027.jpg,NA,NA,unpleasant,pleasant,NA,NA,NA,NA,NA,right,231.900000095367,true,NA,NA,NA,NA,NA
PQwvegSM,3o4vwc1gfzjxgki2d88xs18tr9fj3v,3aajc4i4fk50oxnpph88lm908mozjb,PQwvegSM,2020-0188,2021-10-14,09:55:42,12:07:24,NA,incomplete,false,true,NA,1,7,NA,gray,n_s_027.jpg,NA,NA,pleasant,unpleasant,NA,NA,NA,NA,NA,right,1921.5,true,NA,NA,NA,NA,NA
PQwvegSM,3o4vwc1gfzjxgki2d88xs18tr9fj3v,3aajc4i4fk50oxnpph88lm908mozjb,PQwvegSM,2020-0188,2021-10-14,09:55:42,12:07:24,NA,incomplete,false,true,NA,1,8,NA,gray,n_s_103.jpg,NA,NA,pleasant,unpleasant,NA,NA,NA,NA,NA,right,1496.90000009537,true,NA,NA,NA,NA,NA
PQwvegSM,3o4vwc1gfzjxgki2d88xs18tr9fj3v,3aajc4i4fk50oxnpph88lm908mozjb,PQwvegSM,2020-0188,2021-10-14,09:55:42,12:07:24,NA,incomplete,false,true,NA,1,9,NA,gray,n_l_008.jpg,NA,NA,pleasant,unpleasant,NA,NA,NA,NA,NA,right,710.700000047684,true,NA,NA,NA,NA,NA
PQwvegSM,3o4vwc1gfzjxgki2d88xs18tr9fj3v,3aajc4i4fk50oxnpph88lm908mozjb,PQwvegSM,2020-0188,2021-10-14,09:55:42,12:07:24,NA,incomplete,false,true,NA,1,10,NA,gray,n_l_087.jpg,NA,NA,pleasant,unpleasant,NA,NA,NA,NA,NA,right,1491.89999985695,true,NA,NA,NA,NA,NA
PQwvegSM,3o4vwc1gfzjxgki2d88xs18tr9fj3v,3aajc4i4fk50oxnpph88lm908mozjb,PQwvegSM,2020-0188,2021-10-14,09:55:42,12:07:24,NA,incomplete,false,true,NA,1,11,NA,gray,m_s_039.jpg,NA,NA,pleasant,unpleasant,NA,NA,NA,NA,NA,right,67.7999999523163,true,NA,NA,NA,NA,NA
PQwvegSM,3o4vwc1gfzjxgki2d88xs18tr9fj3v,3aajc4i4fk50oxnpph88lm908mozjb,PQwvegSM,2020-0188,2021-10-14,09:55:42,12:07:24,NA,incomplete,false,true,NA,1,12,NA,brown,n_s_090.jpg,NA,NA,pleasant,unpleasant,NA,NA,NA,NA,NA,right,1117,true,NA,NA,NA,NA,NA
PQwvegSM,3o4vwc1gfzjxgki2d88xs18tr9fj3v,3aajc4i4fk50oxnpph88lm908mozjb,PQwvegSM,2020-0188,2021-10-14,09:55:42,12:07:24,NA,incomplete,false,true,NA,1,13,NA,brown,m_l_106.jpg,NA,NA,unpleasant,pleasant,NA,NA,NA,NA,NA,right,615.5,true,NA,NA,NA,NA,NA
PQwvegSM,3o4vwc1gfzjxgki2d88xs18tr9fj3v,3aajc4i4fk50oxnpph88lm908mozjb,PQwvegSM,2020-0188,2021-10-14,09:55:42,12:07:24,NA,incomplete,false,true,NA,1,14,NA,brown,m_s_008.jpg,NA,NA,pleasant,unpleasant,NA,NA,NA,NA,NA,right,305.200000047684,true,NA,NA,NA,NA,NA
PQwvegSM,3o4vwc1gfzjxgki2d88xs18tr9fj3v,3aajc4i4fk50oxnpph88lm908mozjb,PQwvegSM,2020-0188,2021-10-14,09:55:42,12:07:24,NA,incomplete,false,true,NA,1,15,NA,brown,n_l_089.jpg,NA,NA,pleasant,unpleasant,NA,NA,NA,NA,NA,right,574.199999809265,true,NA,NA,NA,NA,NA
PQwvegSM,3o4vwc1gfzjxgki2d88xs18tr9fj3v,3aajc4i4fk50oxnpph88lm908mozjb,PQwvegSM,2020-0188,2021-10-14,09:55:42,12:07:24,NA,incomplete,false,true,NA,1,16,NA,brown,n_s_059.jpg,NA,NA,pleasant,unpleasant,NA,NA,NA,NA,NA,right,477.099999904633,true,NA,NA,NA,NA,NA
PQwvegSM,3o4vwc1gfzjxgki2d88xs18tr9fj3v,3aajc4i4fk50oxnpph88lm908mozjb,PQwvegSM,2020-0188,2021-10-14,09:55:42,12:07:24,NA,incomplete,false,true,NA,1,17,NA,brown,m_s_076.jpg,NA,NA,pleasant,unpleasant,NA,NA,NA,NA,NA,left,535.900000095367,true,NA,NA,NA,NA,NA
PQwvegSM,3o4vwc1gfzjxgki2d88xs18tr9fj3v,3aajc4i4fk50oxnpph88lm908mozjb,PQwvegSM,2020-0188,2021-10-14,09:55:42,12:07:24,NA,incomplete,false,true,NA,1,18,NA,green,m_l_082.jpg,NA,NA,unpleasant,pleasant,NA,NA,NA,NA,NA,left,562.799999952316,true,NA,NA,NA,NA,NA
PQwvegSM,3o4vwc1gfzjxgki2d88xs18tr9fj3v,3aajc4i4fk50oxnpph88lm908mozjb,PQwvegSM,2020-0188,2021-10-14,09:55:42,12:07:24,NA,incomplete,false,true,NA,1,19,NA,green,m_s_026.jpg,NA,NA,unpleasant,pleasant,NA,NA,NA,NA,NA,left,1248.29999995232,true,NA,NA,NA,NA,NA
PQwvegSM,3o4vwc1gfzjxgki2d88xs18tr9fj3v,3aajc4i4fk50oxnpph88lm908mozjb,PQwvegSM,2020-0188,2021-10-14,09:55:42,12:07:24,NA,incomplete,false,true,NA,1,20,NA,green,n_l_009.jpg,NA,NA,unpleasant,pleasant,NA,NA,NA,NA,NA,left,1314.40000009537,true,NA,NA,NA,NA,NA
PQwvegSM,3o4vwc1gfzjxgki2d88xs18tr9fj3v,3aajc4i4fk50oxnpph88lm908mozjb,PQwvegSM,2020-0188,2021-10-14,09:55:42,12:07:24,NA,incomplete,false,true,NA,1,21,NA,green,m_s_071.jpg,NA,NA,pleasant,unpleasant,NA,NA,NA,NA,NA,left,2647,true,NA,NA,NA,NA,NA
PQwvegSM,3o4vwc1gfzjxgki2d88xs18tr9fj3v,3aajc4i4fk50oxnpph88lm908mozjb,PQwvegSM,2020-0188,2021-10-14,09:55:42,12:07:24,NA,incomplete,false,true,NA,1,22,NA,green,m_l_045.jpg,NA,NA,pleasant,unpleasant,NA,NA,NA,NA,NA,left,1555.79999995232,true,NA,NA,NA,NA,NA
PQwvegSM,3o4vwc1gfzjxgki2d88xs18tr9fj3v,3aajc4i4fk50oxnpph88lm908mozjb,PQwvegSM,2020-0188,2021-10-14,09:55:42,12:07:24,NA,incomplete,false,true,NA,1,23,NA,green,n_s_074.jpg,NA,NA,pleasant,unpleasant,NA,NA,NA,NA,NA,left,1719.5,true,NA,NA,NA,NA,NA
PQwvegSM,3o4vwc1gfzjxgki2d88xs18tr9fj3v,3aajc4i4fk50oxnpph88lm908mozjb,PQwvegSM,2020-0188,2021-10-14,09:55:42,12:07:24,NA,incomplete,false,true,NA,1,24,NA,orange,m_l_073.jpg,NA,NA,pleasant,unpleasant,NA,NA,NA,NA,NA,left,475,true,NA,NA,NA,NA,NA
PQwvegSM,3o4vwc1gfzjxgki2d88xs18tr9fj3v,3aajc4i4fk50oxnpph88lm908mozjb,PQwvegSM,2020-0188,2021-10-14,09:55:42,12:07:24,NA,incomplete,false,true,NA,1,25,NA,orange,m_l_032.jpg,NA,NA,unpleasant,pleasant,NA,NA,NA,NA,NA,left,244.399999856949,true,NA,NA,NA,NA,NA
PQwvegSM,3o4vwc1gfzjxgki2d88xs18tr9fj3v,3aajc4i4fk50oxnpph88lm908mozjb,PQwvegSM,2020-0188,2021-10-14,09:55:42,12:07:24,NA,incomplete,false,true,NA,1,26,NA,orange,n_l_002.jpg,NA,NA,unpleasant,pleasant,NA,NA,NA,NA,NA,right,1307.40000009537,true,NA,NA,NA,NA,NA
PQwvegSM,3o4vwc1gfzjxgki2d88xs18tr9fj3v,3aajc4i4fk50oxnpph88lm908mozjb,PQwvegSM,2020-0188,2021-10-14,09:55:42,12:07:24,NA,incomplete,false,true,NA,1,27,NA,orange,n_l_108.jpg,NA,NA,unpleasant,pleasant,NA,NA,NA,NA,NA,right,1535,true,NA,NA,NA,NA,NA
PQwvegSM,3o4vwc1gfzjxgki2d88xs18tr9fj3v,3aajc4i4fk50oxnpph88lm908mozjb,PQwvegSM,2020-0188,2021-10-14,09:55:42,12:07:24,NA,incomplete,false,true,NA,1,28,NA,orange,m_l_015.jpg,NA,NA,unpleasant,pleasant,NA,NA,NA,NA,NA,right,608.599999904633,true,NA,NA,NA,NA,NA
PQwvegSM,3o4vwc1gfzjxgki2d88xs18tr9fj3v,3aajc4i4fk50oxnpph88lm908mozjb,PQwvegSM,2020-0188,2021-10-14,09:55:42,12:07:24,NA,incomplete,false,true,NA,1,29,NA,orange,n_l_054.jpg,NA,NA,unpleasant,pleasant,NA,NA,NA,NA,NA,right,599.200000047684,true,NA,NA,NA,NA,NA
PQwvegSM,3o4vwc1gfzjxgki2d88xs18tr9fj3v,3aajc4i4fk50oxnpph88lm908mozjb,PQwvegSM,2020-0188,2021-10-14,09:55:42,12:07:24,NA,incomplete,false,true,NA,1,30,NA,white,m_l_025.jpg,NA,NA,unpleasant,pleasant,NA,NA,NA,NA,NA,left,1505,true,NA,NA,NA,NA,NA
PQwvegSM,3o4vwc1gfzjxgki2d88xs18tr9fj3v,3aajc4i4fk50oxnpph88lm908mozjb,PQwvegSM,2020-0188,2021-10-14,09:55:42,12:07:24,NA,incomplete,false,true,NA,1,31,NA,white,n_l_025.jpg,NA,NA,pleasant,unpleasant,NA,NA,NA,NA,NA,right,995.899999856949,true,NA,NA,NA,NA,NA
PQwvegSM,3o4vwc1gfzjxgki2d88xs18tr9fj3v,3aajc4i4fk50oxnpph88lm908mozjb,PQwvegSM,2020-0188,2021-10-14,09:55:42,12:07:24,NA,incomplete,false,true,NA,1,32,NA,white,m_s_024.jpg,NA,NA,pleasant,unpleasant,NA,NA,NA,NA,NA,right,111.299999952316,true,NA,NA,NA,NA,NA
PQwvegSM,3o4vwc1gfzjxgki2d88xs18tr9fj3v,3aajc4i4fk50oxnpph88lm908mozjb,PQwvegSM,2020-0188,2021-10-14,09:55:42,12:07:24,NA,incomplete,false,true,NA,1,33,NA,white,m_l_018.jpg,NA,NA,pleasant,unpleasant,NA,NA,NA,NA,NA,right,865.299999952316,true,NA,NA,NA,NA,NA
PQwvegSM,3o4vwc1gfzjxgki2d88xs18tr9fj3v,3aajc4i4fk50oxnpph88lm908mozjb,PQwvegSM,2020-0188,2021-10-14,09:55:42,12:07:24,NA,incomplete,false,true,NA,1,34,NA,white,n_s_116.jpg,NA,NA,pleasant,unpleasant,NA,NA,NA,NA,NA,right,1472.80000019073,true,NA,NA,NA,NA,NA
PQwvegSM,3o4vwc1gfzjxgki2d88xs18tr9fj3v,3aajc4i4fk50oxnpph88lm908mozjb,PQwvegSM,2020-0188,2021-10-14,09:55:42,12:07:24,NA,incomplete,false,true,NA,1,35,NA,white,n_s_065.jpg,NA,NA,pleasant,unpleasant,NA,NA,NA,NA,NA,right,393.599999904633,true,NA,NA,NA,NA,NA
PQwvegSM,3o4vwc1gfzjxgki2d88xs18tr9fj3v,3aajc4i4fk50oxnpph88lm908mozjb,PQwvegSM,2020-0188,2021-10-14,09:55:42,12:07:24,NA,incomplete,false,NA,true,1,0,NA,NA,NA,right,present,NA,NA,m_s_008.jpg,brown,n_l_087.jpg,gray,between,NA,NaN,NA,right,3746.5999999046326,1,0,2215.5
PQwvegSM,3o4vwc1gfzjxgki2d88xs18tr9fj3v,3aajc4i4fk50oxnpph88lm908mozjb,PQwvegSM,2020-0188,2021-10-14,09:55:42,12:07:24,NA,incomplete,false,NA,true,1,1,NA,NA,NA,right,present,NA,NA,m_s_024.jpg,white,m_l_015.jpg,orange,between,NA,NaN,NA,left,4797.400000095367,0,1,2776.2999999523163
PQwvegSM,3o4vwc1gfzjxgki2d88xs18tr9fj3v,3aajc4i4fk50oxnpph88lm908mozjb,PQwvegSM,2020-0188,2021-10-14,09:55:42,12:07:24,NA,incomplete,false,NA,true,1,2,NA,NA,NA,left,present,NA,NA,n_s_027.jpg,gray,m_s_039.jpg,gray,within,NA,NaN,NA,left,2467.4000000953674,1,1,2275.7999999523163
PQwvegSM,3o4vwc1gfzjxgki2d88xs18tr9fj3v,3aajc4i4fk50oxnpph88lm908mozjb,PQwvegSM,2020-0188,2021-10-14,09:55:42,12:07:24,NA,incomplete,false,NA,true,1,3,NA,NA,NA,left,present,NA,NA,m_l_106.jpg,brown,m_s_076.jpg,brown,within,NA,NaN,NA,left,2480.5,1,0,3035.7000000476837
PQwvegSM,3o4vwc1gfzjxgki2d88xs18tr9fj3v,3aajc4i4fk50oxnpph88lm908mozjb,PQwvegSM,2020-0188,2021-10-14,09:55:42,12:07:24,NA,incomplete,false,NA,true,1,4,NA,NA,NA,left,present,NA,NA,m_l_045.jpg,green,n_l_002.jpg,orange,between,NA,NaN,NA,left,3927.399999856949,1,0,2016.8000001907349
PQwvegSM,3o4vwc1gfzjxgki2d88xs18tr9fj3v,3aajc4i4fk50oxnpph88lm908mozjb,PQwvegSM,2020-0188,2021-10-14,09:55:42,12:07:24,NA,incomplete,false,NA,true,1,5,NA,NA,NA,left,present,NA,NA,m_l_032.jpg,orange,n_l_054.jpg,orange,within,NA,NaN,NA,left,2587.9000000953674,1,0,1796.8999998569489
PQwvegSM,3o4vwc1gfzjxgki2d88xs18tr9fj3v,3aajc4i4fk50oxnpph88lm908mozjb,PQwvegSM,2020-0188,2021-10-14,09:55:42,12:07:24,NA,incomplete,false,NA,true,1,6,NA,NA,NA,right,present,NA,NA,n_l_009.jpg,green,n_s_059.jpg,brown,between,NA,NaN,NA,left,1886.9000000953674,0,0,1877
PQwvegSM,3o4vwc1gfzjxgki2d88xs18tr9fj3v,3aajc4i4fk50oxnpph88lm908mozjb,PQwvegSM,2020-0188,2021-10-14,09:55:42,12:07:24,NA,incomplete,false,NA,true,1,7,NA,NA,NA,right,present,NA,NA,n_s_065.jpg,white,n_l_025.jpg,white,within,NA,NaN,NA,left,3847.7000000476837,0,0,2357.399999856949
PQwvegSM,3o4vwc1gfzjxgki2d88xs18tr9fj3v,3aajc4i4fk50oxnpph88lm908mozjb,PQwvegSM,2020-0188,2021-10-14,09:55:42,12:07:24,NA,incomplete,false,NA,true,1,8,NA,NA,NA,left,present,NA,NA,m_l_034.jpg,yellow,m_l_042.jpg,yellow,within,NA,NaN,NA,right,5176.899999856949,0,1,4257
PQwvegSM,3o4vwc1gfzjxgki2d88xs18tr9fj3v,3aajc4i4fk50oxnpph88lm908mozjb,PQwvegSM,2020-0188,2021-10-14,09:55:42,12:07:24,NA,incomplete,false,NA,true,1,9,NA,NA,NA,left,present,NA,NA,m_l_022.jpg,yellow,n_s_103.jpg,gray,between,NA,NaN,NA,right,7037.199999809265,0,1,3008.5
PQwvegSM,3o4vwc1gfzjxgki2d88xs18tr9fj3v,3aajc4i4fk50oxnpph88lm908mozjb,PQwvegSM,2020-0188,2021-10-14,09:55:42,12:07:24,NA,incomplete,false,NA,true,1,10,NA,NA,NA,left,present,NA,NA,m_s_026.jpg,green,n_s_074.jpg,green,within,NA,NaN,NA,left,2649,1,0,2078.7999999523163
PQwvegSM,3o4vwc1gfzjxgki2d88xs18tr9fj3v,3aajc4i4fk50oxnpph88lm908mozjb,PQwvegSM,2020-0188,2021-10-14,09:55:42,12:07:24,NA,incomplete,false,true,NA,2,0,NA,green,m_l_072.jpg,NA,NA,pleasant,unpleasant,NA,NA,NA,NA,NA,right,1919.39999985695,true,NA,NA,NA,NA,NA
PQwvegSM,3o4vwc1gfzjxgki2d88xs18tr9fj3v,3aajc4i4fk50oxnpph88lm908mozjb,PQwvegSM,2020-0188,2021-10-14,09:55:42,12:07:24,NA,incomplete,false,true,NA,2,1,NA,green,m_l_098.jpg,NA,NA,unpleasant,pleasant,NA,NA,NA,NA,NA,right,247.799999952316,true,NA,NA,NA,NA,NA
PQwvegSM,3o4vwc1gfzjxgki2d88xs18tr9fj3v,3aajc4i4fk50oxnpph88lm908mozjb,PQwvegSM,2020-0188,2021-10-14,09:55:42,12:07:24,NA,incomplete,false,true,NA,2,2,NA,green,n_s_034.jpg,NA,NA,pleasant,unpleasant,NA,NA,NA,NA,NA,right,259.100000143051,true,NA,NA,NA,NA,NA
PQwvegSM,3o4vwc1gfzjxgki2d88xs18tr9fj3v,3aajc4i4fk50oxnpph88lm908mozjb,PQwvegSM,2020-0188,2021-10-14,09:55:42,12:07:24,NA,incomplete,false,true,NA,2,3,NA,green,n_s_036.jpg,NA,NA,pleasant,unpleasant,NA,NA,NA,NA,NA,right,969.400000095367,true,NA,NA,NA,NA,NA
PQwvegSM,3o4vwc1gfzjxgki2d88xs18tr9fj3v,3aajc4i4fk50oxnpph88lm908mozjb,PQwvegSM,2020-0188,2021-10-14,09:55:42,12:07:24,NA,incomplete,false,true,NA,2,4,NA,green,m_s_049.jpg,NA,NA,unpleasant,pleasant,NA,NA,NA,NA,NA,right,1046.39999985695,true,NA,NA,NA,NA,NA
PQwvegSM,3o4vwc1gfzjxgki2d88xs18tr9fj3v,3aajc4i4fk50oxnpph88lm908mozjb,PQwvegSM,2020-0188,2021-10-14,09:55:42,12:07:24,NA,incomplete,false,true,NA,2,5,NA,green,n_s_014.jpg,NA,NA,unpleasant,pleasant,NA,NA,NA,NA,NA,right,1697.89999985695,true,NA,NA,NA,NA,NA
PQwvegSM,3o4vwc1gfzjxgki2d88xs18tr9fj3v,3aajc4i4fk50oxnpph88lm908mozjb,PQwvegSM,2020-0188,2021-10-14,09:55:42,12:07:24,NA,incomplete,false,true,NA,2,6,NA,blue,n_l_069.jpg,NA,NA,pleasant,unpleasant,NA,NA,NA,NA,NA,right,41.8999998569489,true,NA,NA,NA,NA,NA
PQwvegSM,3o4vwc1gfzjxgki2d88xs18tr9fj3v,3aajc4i4fk50oxnpph88lm908mozjb,PQwvegSM,2020-0188,2021-10-14,09:55:42,12:07:24,NA,incomplete,false,true,NA,2,7,NA,blue,n_l_053.jpg,NA,NA,pleasant,unpleasant,NA,NA,NA,NA,NA,right,1096.20000004768,true,NA,NA,NA,NA,NA
PQwvegSM,3o4vwc1gfzjxgki2d88xs18tr9fj3v,3aajc4i4fk50oxnpph88lm908mozjb,PQwvegSM,2020-0188,2021-10-14,09:55:42,12:07:24,NA,incomplete,false,true,NA,2,8,NA,blue,n_s_083.jpg,NA,NA,pleasant,unpleasant,NA,NA,NA,NA,NA,right,1843.09999990463,true,NA,NA,NA,NA,NA
PQwvegSM,3o4vwc1gfzjxgki2d88xs18tr9fj3v,3aajc4i4fk50oxnpph88lm908mozjb,PQwvegSM,2020-0188,2021-10-14,09:55:42,12:07:24,NA,incomplete,false,true,NA,2,9,NA,blue,n_l_059.jpg,NA,NA,pleasant,unpleasant,NA,NA,NA,NA,NA,right,669.099999904633,true,NA,NA,NA,NA,NA
PQwvegSM,3o4vwc1gfzjxgki2d88xs18tr9fj3v,3aajc4i4fk50oxnpph88lm908mozjb,PQwvegSM,2020-0188,2021-10-14,09:55:42,12:07:24,NA,incomplete,false,true,NA,2,10,NA,blue,m_s_046.jpg,NA,NA,pleasant,unpleasant,NA,NA,NA,NA,NA,right,2606.60000014305,true,NA,NA,NA,NA,NA
PQwvegSM,3o4vwc1gfzjxgki2d88xs18tr9fj3v,3aajc4i4fk50oxnpph88lm908mozjb,PQwvegSM,2020-0188,2021-10-14,09:55:42,12:07:24,NA,incomplete,false,true,NA,2,11,NA,blue,n_s_028.jpg,NA,NA,unpleasant,pleasant,NA,NA,NA,NA,NA,right,891.299999952316,true,NA,NA,NA,NA,NA
PQwvegSM,3o4vwc1gfzjxgki2d88xs18tr9fj3v,3aajc4i4fk50oxnpph88lm908mozjb,PQwvegSM,2020-0188,2021-10-14,09:55:42,12:07:24,NA,incomplete,false,true,NA,2,12,NA,purple,m_s_050.jpg,NA,NA,unpleasant,pleasant,NA,NA,NA,NA,NA,none,0,false,NA,NA,NA,NA,NA
PQwvegSM,3o4vwc1gfzjxgki2d88xs18tr9fj3v,3aajc4i4fk50oxnpph88lm908mozjb,PQwvegSM,2020-0188,2021-10-14,09:55:42,12:07:24,NA,incomplete,false,true,NA,2,13,NA,purple,m_s_078.jpg,NA,NA,pleasant,unpleasant,NA,NA,NA,NA,NA,right,1699.5,true,NA,NA,NA,NA,NA
PQwvegSM,3o4vwc1gfzjxgki2d88xs18tr9fj3v,3aajc4i4fk50oxnpph88lm908mozjb,PQwvegSM,2020-0188,2021-10-14,09:55:42,12:07:24,NA,incomplete,false,true,NA,2,14,NA,purple,m_l_066.jpg,NA,NA,pleasant,unpleasant,NA,NA,NA,NA,NA,right,1997.90000009537,true,NA,NA,NA,NA,NA
PQwvegSM,3o4vwc1gfzjxgki2d88xs18tr9fj3v,3aajc4i4fk50oxnpph88lm908mozjb,PQwvegSM,2020-0188,2021-10-14,09:55:42,12:07:24,NA,incomplete,false,true,NA,2,15,NA,purple,n_s_072.jpg,NA,NA,pleasant,unpleasant,NA,NA,NA,NA,NA,right,1091.89999985695,true,NA,NA,NA,NA,NA
PQwvegSM,3o4vwc1gfzjxgki2d88xs18tr9fj3v,3aajc4i4fk50oxnpph88lm908mozjb,PQwvegSM,2020-0188,2021-10-14,09:55:42,12:07:24,NA,incomplete,false,true,NA,2,16,NA,purple,m_l_029.jpg,NA,NA,unpleasant,pleasant,NA,NA,NA,NA,NA,right,2343.30000019073,true,NA,NA,NA,NA,NA
PQwvegSM,3o4vwc1gfzjxgki2d88xs18tr9fj3v,3aajc4i4fk50oxnpph88lm908mozjb,PQwvegSM,2020-0188,2021-10-14,09:55:42,12:07:24,NA,incomplete,false,true,NA,2,17,NA,purple,n_l_117.jpg,NA,NA,unpleasant,pleasant,NA,NA,NA,NA,NA,right,241.5,true,NA,NA,NA,NA,NA
PQwvegSM,3o4vwc1gfzjxgki2d88xs18tr9fj3v,3aajc4i4fk50oxnpph88lm908mozjb,PQwvegSM,2020-0188,2021-10-14,09:55:42,12:07:24,NA,incomplete,false,true,NA,2,18,NA,black,n_l_082.jpg,NA,NA,pleasant,unpleasant,NA,NA,NA,NA,NA,left,861.600000143051,true,NA,NA,NA,NA,NA
PQwvegSM,3o4vwc1gfzjxgki2d88xs18tr9fj3v,3aajc4i4fk50oxnpph88lm908mozjb,PQwvegSM,2020-0188,2021-10-14,09:55:42,12:07:24,NA,incomplete,false,true,NA,2,19,NA,black,n_s_096.jpg,NA,NA,unpleasant,pleasant,NA,NA,NA,NA,NA,left,80.3000001907349,true,NA,NA,NA,NA,NA
PQwvegSM,3o4vwc1gfzjxgki2d88xs18tr9fj3v,3aajc4i4fk50oxnpph88lm908mozjb,PQwvegSM,2020-0188,2021-10-14,09:55:42,12:07:24,NA,incomplete,false,true,NA,2,20,NA,black,n_s_021.jpg,NA,NA,unpleasant,pleasant,NA,NA,NA,NA,NA,left,1199.89999985695,true,NA,NA,NA,NA,NA
PQwvegSM,3o4vwc1gfzjxgki2d88xs18tr9fj3v,3aajc4i4fk50oxnpph88lm908mozjb,PQwvegSM,2020-0188,2021-10-14,09:55:42,12:07:24,NA,incomplete,false,true,NA,2,21,NA,black,n_l_080.jpg,NA,NA,pleasant,unpleasant,NA,NA,NA,NA,NA,right,1070,true,NA,NA,NA,NA,NA
PQwvegSM,3o4vwc1gfzjxgki2d88xs18tr9fj3v,3aajc4i4fk50oxnpph88lm908mozjb,PQwvegSM,2020-0188,2021-10-14,09:55:42,12:07:24,NA,incomplete,false,true,NA,2,22,NA,black,m_l_095.jpg,NA,NA,pleasant,unpleasant,NA,NA,NA,NA,NA,right,1057.5,true,NA,NA,NA,NA,NA
PQwvegSM,3o4vwc1gfzjxgki2d88xs18tr9fj3v,3aajc4i4fk50oxnpph88lm908mozjb,PQwvegSM,2020-0188,2021-10-14,09:55:42,12:07:24,NA,incomplete,false,true,NA,2,23,NA,black,n_l_021.jpg,NA,NA,pleasant,unpleasant,NA,NA,NA,NA,NA,right,693.299999952316,true,NA,NA,NA,NA,NA
PQwvegSM,3o4vwc1gfzjxgki2d88xs18tr9fj3v,3aajc4i4fk50oxnpph88lm908mozjb,PQwvegSM,2020-0188,2021-10-14,09:55:42,12:07:24,NA,incomplete,false,true,NA,2,24,NA,brown,m_s_051.jpg,NA,NA,pleasant,unpleasant,NA,NA,NA,NA,NA,right,585.200000047684,true,NA,NA,NA,NA,NA
PQwvegSM,3o4vwc1gfzjxgki2d88xs18tr9fj3v,3aajc4i4fk50oxnpph88lm908mozjb,PQwvegSM,2020-0188,2021-10-14,09:55:42,12:07:24,NA,incomplete,false,true,NA,2,25,NA,brown,n_s_006.jpg,NA,NA,pleasant,unpleasant,NA,NA,NA,NA,NA,right,1587.70000004768,true,NA,NA,NA,NA,NA
PQwvegSM,3o4vwc1gfzjxgki2d88xs18tr9fj3v,3aajc4i4fk50oxnpph88lm908mozjb,PQwvegSM,2020-0188,2021-10-14,09:55:42,12:07:24,NA,incomplete,false,true,NA,2,26,NA,brown,m_s_096.jpg,NA,NA,pleasant,unpleasant,NA,NA,NA,NA,NA,right,648.5,true,NA,NA,NA,NA,NA
PQwvegSM,3o4vwc1gfzjxgki2d88xs18tr9fj3v,3aajc4i4fk50oxnpph88lm908mozjb,PQwvegSM,2020-0188,2021-10-14,09:55:42,12:07:24,NA,incomplete,false,true,NA,2,27,NA,brown,m_s_028.jpg,NA,NA,unpleasant,pleasant,NA,NA,NA,NA,NA,right,529.399999856949,true,NA,NA,NA,NA,NA
PQwvegSM,3o4vwc1gfzjxgki2d88xs18tr9fj3v,3aajc4i4fk50oxnpph88lm908mozjb,PQwvegSM,2020-0188,2021-10-14,09:55:42,12:07:24,NA,incomplete,false,true,NA,2,28,NA,brown,m_s_003.jpg,NA,NA,unpleasant,pleasant,NA,NA,NA,NA,NA,left,1641,true,NA,NA,NA,NA,NA
PQwvegSM,3o4vwc1gfzjxgki2d88xs18tr9fj3v,3aajc4i4fk50oxnpph88lm908mozjb,PQwvegSM,2020-0188,2021-10-14,09:55:42,12:07:24,NA,incomplete,false,true,NA,2,29,NA,brown,m_l_117.jpg,NA,NA,unpleasant,pleasant,NA,NA,NA,NA,NA,left,2120.5,true,NA,NA,NA,NA,NA
PQwvegSM,3o4vwc1gfzjxgki2d88xs18tr9fj3v,3aajc4i4fk50oxnpph88lm908mozjb,PQwvegSM,2020-0188,2021-10-14,09:55:42,12:07:24,NA,incomplete,false,true,NA,2,30,NA,red,m_s_007.jpg,NA,NA,pleasant,unpleasant,NA,NA,NA,NA,NA,left,514.299999952316,true,NA,NA,NA,NA,NA
PQwvegSM,3o4vwc1gfzjxgki2d88xs18tr9fj3v,3aajc4i4fk50oxnpph88lm908mozjb,PQwvegSM,2020-0188,2021-10-14,09:55:42,12:07:24,NA,incomplete,false,true,NA,2,31,NA,red,m_l_043.jpg,NA,NA,unpleasant,pleasant,NA,NA,NA,NA,NA,left,1394.90000009537,true,NA,NA,NA,NA,NA
PQwvegSM,3o4vwc1gfzjxgki2d88xs18tr9fj3v,3aajc4i4fk50oxnpph88lm908mozjb,PQwvegSM,2020-0188,2021-10-14,09:55:42,12:07:24,NA,incomplete,false,true,NA,2,32,NA,red,m_s_059.jpg,NA,NA,pleasant,unpleasant,NA,NA,NA,NA,NA,right,1219.40000009537,true,NA,NA,NA,NA,NA
PQwvegSM,3o4vwc1gfzjxgki2d88xs18tr9fj3v,3aajc4i4fk50oxnpph88lm908mozjb,PQwvegSM,2020-0188,2021-10-14,09:55:42,12:07:24,NA,incomplete,false,true,NA,2,33,NA,red,n_l_010.jpg,NA,NA,unpleasant,pleasant,NA,NA,NA,NA,NA,right,1120.69999980927,true,NA,NA,NA,NA,NA
PQwvegSM,3o4vwc1gfzjxgki2d88xs18tr9fj3v,3aajc4i4fk50oxnpph88lm908mozjb,PQwvegSM,2020-0188,2021-10-14,09:55:42,12:07:24,NA,incomplete,false,true,NA,2,34,NA,red,m_s_063.jpg,NA,NA,unpleasant,pleasant,NA,NA,NA,NA,NA,right,1292.40000009537,true,NA,NA,NA,NA,NA
PQwvegSM,3o4vwc1gfzjxgki2d88xs18tr9fj3v,3aajc4i4fk50oxnpph88lm908mozjb,PQwvegSM,2020-0188,2021-10-14,09:55:42,12:07:24,NA,incomplete,false,true,NA,2,35,NA,red,n_l_051.jpg,NA,NA,unpleasant,pleasant,NA,NA,NA,NA,NA,left,2789.5,true,NA,NA,NA,NA,NA
PQwvegSM,3o4vwc1gfzjxgki2d88xs18tr9fj3v,3aajc4i4fk50oxnpph88lm908mozjb,PQwvegSM,2020-0188,2021-10-14,09:55:42,12:07:24,NA,incomplete,false,NA,true,2,0,NA,NA,NA,left,present,NA,NA,n_s_006.jpg,brown,m_l_117.jpg,brown,within,NA,NaN,NA,left,3168,1,1,3247
PQwvegSM,3o4vwc1gfzjxgki2d88xs18tr9fj3v,3aajc4i4fk50oxnpph88lm908mozjb,PQwvegSM,2020-0188,2021-10-14,09:55:42,12:07:24,NA,incomplete,false,NA,true,2,1,NA,NA,NA,left,present,NA,NA,m_l_029.jpg,purple,n_s_021.jpg,black,between,NA,NaN,NA,right,3931.899999856949,0,1,1827
PQwvegSM,3o4vwc1gfzjxgki2d88xs18tr9fj3v,3aajc4i4fk50oxnpph88lm908mozjb,PQwvegSM,2020-0188,2021-10-14,09:55:42,12:07:24,NA,incomplete,false,NA,true,2,2,NA,NA,NA,right,present,NA,NA,n_s_014.jpg,green,m_l_098.jpg,green,within,NA,NaN,NA,right,2117.199999809265,1,1,5066
PQwvegSM,3o4vwc1gfzjxgki2d88xs18tr9fj3v,3aajc4i4fk50oxnpph88lm908mozjb,PQwvegSM,2020-0188,2021-10-14,09:55:42,12:07:24,NA,incomplete,false,NA,true,2,3,NA,NA,NA,left,present,NA,NA,n_s_096.jpg,black,n_l_021.jpg,black,within,NA,NaN,NA,right,1707.2000000476837,0,1,2052.2000000476837
PQwvegSM,3o4vwc1gfzjxgki2d88xs18tr9fj3v,3aajc4i4fk50oxnpph88lm908mozjb,PQwvegSM,2020-0188,2021-10-14,09:55:42,12:07:24,NA,incomplete,false,NA,true,2,4,NA,NA,NA,right,present,NA,NA,m_l_066.jpg,purple,m_s_046.jpg,blue,between,NA,NaN,NA,right,1546.8000001907349,1,0,1197
PQwvegSM,3o4vwc1gfzjxgki2d88xs18tr9fj3v,3aajc4i4fk50oxnpph88lm908mozjb,PQwvegSM,2020-0188,2021-10-14,09:55:42,12:07:24,NA,incomplete,false,NA,true,2,5,NA,NA,NA,right,present,NA,NA,m_s_059.jpg,red,m_s_003.jpg,brown,between,NA,NaN,NA,left,1976.8999998569489,0,1,1445.4000000953674
PQwvegSM,3o4vwc1gfzjxgki2d88xs18tr9fj3v,3aajc4i4fk50oxnpph88lm908mozjb,PQwvegSM,2020-0188,2021-10-14,09:55:42,12:07:24,NA,incomplete,false,NA,true,2,6,NA,NA,NA,left,present,NA,NA,m_l_043.jpg,red,n_l_051.jpg,red,within,NA,NaN,NA,right,1836.1000001430511,0,1,2632.2999999523163
PQwvegSM,3o4vwc1gfzjxgki2d88xs18tr9fj3v,3aajc4i4fk50oxnpph88lm908mozjb,PQwvegSM,2020-0188,2021-10-14,09:55:42,12:07:24,NA,incomplete,false,NA,true,2,7,NA,NA,NA,right,present,NA,NA,n_s_083.jpg,blue,m_s_049.jpg,green,between,NA,NaN,NA,right,2084.5,1,1,2488.9000000953674
PQwvegSM,3o4vwc1gfzjxgki2d88xs18tr9fj3v,3aajc4i4fk50oxnpph88lm908mozjb,PQwvegSM,2020-0188,2021-10-14,09:55:42,12:07:24,NA,incomplete,false,NA,true,2,8,NA,NA,NA,left,present,NA,NA,m_s_078.jpg,purple,n_l_117.jpg,purple,within,NA,NaN,NA,left,1598.2000000476837,1,1,2303.399999856949
PQwvegSM,3o4vwc1gfzjxgki2d88xs18tr9fj3v,3aajc4i4fk50oxnpph88lm908mozjb,PQwvegSM,2020-0188,2021-10-14,09:55:42,12:07:24,NA,incomplete,false,NA,true,2,9,NA,NA,NA,right,present,NA,NA,m_s_096.jpg,brown,m_l_095.jpg,black,between,NA,NaN,NA,right,3868.5,1,1,2299
PQwvegSM,3o4vwc1gfzjxgki2d88xs18tr9fj3v,3aajc4i4fk50oxnpph88lm908mozjb,PQwvegSM,2020-0188,2021-10-14,09:55:42,12:07:24,NA,incomplete,false,NA,true,2,10,NA,NA,NA,left,present,NA,NA,n_l_053.jpg,blue,n_s_028.jpg,blue,within,NA,NaN,NA,left,2928.7999999523163,1,1,1998.9000000953674
PQwvegSM,3o4vwc1gfzjxgki2d88xs18tr9fj3v,3aajc4i4fk50oxnpph88lm908mozjb,PQwvegSM,2020-0188,2021-10-14,09:55:42,12:07:24,NA,incomplete,false,true,NA,3,0,NA,purple,n_s_032.jpg,NA,NA,pleasant,unpleasant,NA,NA,NA,NA,NA,right,1699.20000004768,true,NA,NA,NA,NA,NA
PQwvegSM,3o4vwc1gfzjxgki2d88xs18tr9fj3v,3aajc4i4fk50oxnpph88lm908mozjb,PQwvegSM,2020-0188,2021-10-14,09:55:42,12:07:24,NA,incomplete,false,true,NA,3,1,NA,purple,n_s_061.jpg,NA,NA,pleasant,unpleasant,NA,NA,NA,NA,NA,right,984.099999904633,true,NA,NA,NA,NA,NA
PQwvegSM,3o4vwc1gfzjxgki2d88xs18tr9fj3v,3aajc4i4fk50oxnpph88lm908mozjb,PQwvegSM,2020-0188,2021-10-14,09:55:42,12:07:24,NA,incomplete,false,true,NA,3,2,NA,purple,n_s_084.jpg,NA,NA,pleasant,unpleasant,NA,NA,NA,NA,NA,right,624.200000047684,true,NA,NA,NA,NA,NA
PQwvegSM,3o4vwc1gfzjxgki2d88xs18tr9fj3v,3aajc4i4fk50oxnpph88lm908mozjb,PQwvegSM,2020-0188,2021-10-14,09:55:42,12:07:24,NA,incomplete,false,true,NA,3,3,NA,purple,m_s_095.jpg,NA,NA,unpleasant,pleasant,NA,NA,NA,NA,NA,right,999,true,NA,NA,NA,NA,NA
PQwvegSM,3o4vwc1gfzjxgki2d88xs18tr9fj3v,3aajc4i4fk50oxnpph88lm908mozjb,PQwvegSM,2020-0188,2021-10-14,09:55:42,12:07:24,NA,incomplete,false,true,NA,3,4,NA,purple,n_s_114.jpg,NA,NA,pleasant,unpleasant,NA,NA,NA,NA,NA,none,0,false,NA,NA,NA,NA,NA
PQwvegSM,3o4vwc1gfzjxgki2d88xs18tr9fj3v,3aajc4i4fk50oxnpph88lm908mozjb,PQwvegSM,2020-0188,2021-10-14,09:55:42,12:07:24,NA,incomplete,false,true,NA,3,5,NA,purple,m_l_059.jpg,NA,NA,unpleasant,pleasant,NA,NA,NA,NA,NA,none,0,false,NA,NA,NA,NA,NA
PQwvegSM,3o4vwc1gfzjxgki2d88xs18tr9fj3v,3aajc4i4fk50oxnpph88lm908mozjb,PQwvegSM,2020-0188,2021-10-14,09:55:42,12:07:24,NA,incomplete,false,true,NA,3,6,NA,blue,n_s_068.jpg,NA,NA,pleasant,unpleasant,NA,NA,NA,NA,NA,right,2676.5,true,NA,NA,NA,NA,NA
PQwvegSM,3o4vwc1gfzjxgki2d88xs18tr9fj3v,3aajc4i4fk50oxnpph88lm908mozjb,PQwvegSM,2020-0188,2021-10-14,09:55:42,12:07:24,NA,incomplete,false,true,NA,3,7,NA,blue,n_l_096.jpg,NA,NA,unpleasant,pleasant,NA,NA,NA,NA,NA,right,3347.39999985695,true,NA,NA,NA,NA,NA
PQwvegSM,3o4vwc1gfzjxgki2d88xs18tr9fj3v,3aajc4i4fk50oxnpph88lm908mozjb,PQwvegSM,2020-0188,2021-10-14,09:55:42,12:07:24,NA,incomplete,false,true,NA,3,8,NA,blue,m_s_002.jpg,NA,NA,unpleasant,pleasant,NA,NA,NA,NA,NA,right,1048.39999985695,true,NA,NA,NA,NA,NA
PQwvegSM,3o4vwc1gfzjxgki2d88xs18tr9fj3v,3aajc4i4fk50oxnpph88lm908mozjb,PQwvegSM,2020-0188,2021-10-14,09:55:42,12:07:24,NA,incomplete,false,true,NA,3,9,NA,blue,m_s_112.jpg,NA,NA,pleasant,unpleasant,NA,NA,NA,NA,NA,right,1502.29999995232,true,NA,NA,NA,NA,NA
PQwvegSM,3o4vwc1gfzjxgki2d88xs18tr9fj3v,3aajc4i4fk50oxnpph88lm908mozjb,PQwvegSM,2020-0188,2021-10-14,09:55:42,12:07:24,NA,incomplete,false,true,NA,3,10,NA,blue,n_l_086.jpg,NA,NA,pleasant,unpleasant,NA,NA,NA,NA,NA,right,1150.89999985695,true,NA,NA,NA,NA,NA
PQwvegSM,3o4vwc1gfzjxgki2d88xs18tr9fj3v,3aajc4i4fk50oxnpph88lm908mozjb,PQwvegSM,2020-0188,2021-10-14,09:55:42,12:07:24,NA,incomplete,false,true,NA,3,11,NA,blue,m_l_010.jpg,NA,NA,pleasant,unpleasant,NA,NA,NA,NA,NA,right,2005,true,NA,NA,NA,NA,NA
PQwvegSM,3o4vwc1gfzjxgki2d88xs18tr9fj3v,3aajc4i4fk50oxnpph88lm908mozjb,PQwvegSM,2020-0188,2021-10-14,09:55:42,12:07:24,NA,incomplete,false,true,NA,3,12,NA,gray,n_s_054.jpg,NA,NA,unpleasant,pleasant,NA,NA,NA,NA,NA,right,1238.79999995232,true,NA,NA,NA,NA,NA
PQwvegSM,3o4vwc1gfzjxgki2d88xs18tr9fj3v,3aajc4i4fk50oxnpph88lm908mozjb,PQwvegSM,2020-0188,2021-10-14,09:55:42,12:07:24,NA,incomplete,false,true,NA,3,13,NA,gray,m_s_017.jpg,NA,NA,pleasant,unpleasant,NA,NA,NA,NA,NA,right,3345.29999995232,true,NA,NA,NA,NA,NA
PQwvegSM,3o4vwc1gfzjxgki2d88xs18tr9fj3v,3aajc4i4fk50oxnpph88lm908mozjb,PQwvegSM,2020-0188,2021-10-14,09:55:42,12:07:24,NA,incomplete,false,true,NA,3,14,NA,gray,n_l_093.jpg,NA,NA,unpleasant,pleasant,NA,NA,NA,NA,NA,right,2040.70000004768,true,NA,NA,NA,NA,NA
PQwvegSM,3o4vwc1gfzjxgki2d88xs18tr9fj3v,3aajc4i4fk50oxnpph88lm908mozjb,PQwvegSM,2020-0188,2021-10-14,09:55:42,12:07:24,NA,incomplete,false,true,NA,3,15,NA,gray,m_l_002.jpg,NA,NA,pleasant,unpleasant,NA,NA,NA,NA,NA,right,168.099999904633,true,NA,NA,NA,NA,NA
PQwvegSM,3o4vwc1gfzjxgki2d88xs18tr9fj3v,3aajc4i4fk50oxnpph88lm908mozjb,PQwvegSM,2020-0188,2021-10-14,09:55:42,12:07:24,NA,incomplete,false,true,NA,3,16,NA,gray,n_s_041.jpg,NA,NA,pleasant,unpleasant,NA,NA,NA,NA,NA,right,1206.59999990463,true,NA,NA,NA,NA,NA
PQwvegSM,3o4vwc1gfzjxgki2d88xs18tr9fj3v,3aajc4i4fk50oxnpph88lm908mozjb,PQwvegSM,2020-0188,2021-10-14,09:55:42,12:07:24,NA,incomplete,false,true,NA,3,17,NA,gray,n_l_110.jpg,NA,NA,pleasant,unpleasant,NA,NA,NA,NA,NA,right,1195,true,NA,NA,NA,NA,NA
PQwvegSM,3o4vwc1gfzjxgki2d88xs18tr9fj3v,3aajc4i4fk50oxnpph88lm908mozjb,PQwvegSM,2020-0188,2021-10-14,09:55:42,12:07:24,NA,incomplete,false,true,NA,3,18,NA,black,n_s_009.jpg,NA,NA,unpleasant,pleasant,NA,NA,NA,NA,NA,right,235,true,NA,NA,NA,NA,NA
PQwvegSM,3o4vwc1gfzjxgki2d88xs18tr9fj3v,3aajc4i4fk50oxnpph88lm908mozjb,PQwvegSM,2020-0188,2021-10-14,09:55:42,12:07:24,NA,incomplete,false,true,NA,3,19,NA,black,m_l_058.jpg,NA,NA,pleasant,unpleasant,NA,NA,NA,NA,NA,right,1030.69999980927,true,NA,NA,NA,NA,NA
PQwvegSM,3o4vwc1gfzjxgki2d88xs18tr9fj3v,3aajc4i4fk50oxnpph88lm908mozjb,PQwvegSM,2020-0188,2021-10-14,09:55:42,12:07:24,NA,incomplete,false,true,NA,3,20,NA,black,m_s_099.jpg,NA,NA,unpleasant,pleasant,NA,NA,NA,NA,NA,right,1019.20000004768,true,NA,NA,NA,NA,NA
PQwvegSM,3o4vwc1gfzjxgki2d88xs18tr9fj3v,3aajc4i4fk50oxnpph88lm908mozjb,PQwvegSM,2020-0188,2021-10-14,09:55:42,12:07:24,NA,incomplete,false,true,NA,3,21,NA,black,m_l_107.jpg,NA,NA,unpleasant,pleasant,NA,NA,NA,NA,NA,right,926.200000047684,true,NA,NA,NA,NA,NA
PQwvegSM,3o4vwc1gfzjxgki2d88xs18tr9fj3v,3aajc4i4fk50oxnpph88lm908mozjb,PQwvegSM,2020-0188,2021-10-14,09:55:42,12:07:24,NA,incomplete,false,true,NA,3,22,NA,black,m_l_088.jpg,NA,NA,pleasant,unpleasant,NA,NA,NA,NA,NA,right,2008.09999990463,true,NA,NA,NA,NA,NA
PQwvegSM,3o4vwc1gfzjxgki2d88xs18tr9fj3v,3aajc4i4fk50oxnpph88lm908mozjb,PQwvegSM,2020-0188,2021-10-14,09:55:42,12:07:24,NA,incomplete,false,true,NA,3,23,NA,black,m_l_062.jpg,NA,NA,pleasant,unpleasant,NA,NA,NA,NA,NA,right,2205.39999985695,true,NA,NA,NA,NA,NA
PQwvegSM,3o4vwc1gfzjxgki2d88xs18tr9fj3v,3aajc4i4fk50oxnpph88lm908mozjb,PQwvegSM,2020-0188,2021-10-14,09:55:42,12:07:24,NA,incomplete,false,true,NA,3,24,NA,brown,n_l_057.jpg,NA,NA,unpleasant,pleasant,NA,NA,NA,NA,NA,right,1678,true,NA,NA,NA,NA,NA
PQwvegSM,3o4vwc1gfzjxgki2d88xs18tr9fj3v,3aajc4i4fk50oxnpph88lm908mozjb,PQwvegSM,2020-0188,2021-10-14,09:55:42,12:07:24,NA,incomplete,false,true,NA,3,25,NA,brown,n_l_102.jpg,NA,NA,unpleasant,pleasant,NA,NA,NA,NA,NA,right,2841.29999995232,true,NA,NA,NA,NA,NA
PQwvegSM,3o4vwc1gfzjxgki2d88xs18tr9fj3v,3aajc4i4fk50oxnpph88lm908mozjb,PQwvegSM,2020-0188,2021-10-14,09:55:42,12:07:24,NA,incomplete,false,true,NA,3,26,NA,brown,m_s_093.jpg,NA,NA,pleasant,unpleasant,NA,NA,NA,NA,NA,right,815.400000095367,true,NA,NA,NA,NA,NA
PQwvegSM,3o4vwc1gfzjxgki2d88xs18tr9fj3v,3aajc4i4fk50oxnpph88lm908mozjb,PQwvegSM,2020-0188,2021-10-14,09:55:42,12:07:24,NA,incomplete,false,true,NA,3,27,NA,brown,n_l_116.jpg,NA,NA,pleasant,unpleasant,NA,NA,NA,NA,NA,right,1114,true,NA,NA,NA,NA,NA
PQwvegSM,3o4vwc1gfzjxgki2d88xs18tr9fj3v,3aajc4i4fk50oxnpph88lm908mozjb,PQwvegSM,2020-0188,2021-10-14,09:55:42,12:07:24,NA,incomplete,false,true,NA,3,28,NA,brown,m_l_050.jpg,NA,NA,pleasant,unpleasant,NA,NA,NA,NA,NA,right,153.5,true,NA,NA,NA,NA,NA
PQwvegSM,3o4vwc1gfzjxgki2d88xs18tr9fj3v,3aajc4i4fk50oxnpph88lm908mozjb,PQwvegSM,2020-0188,2021-10-14,09:55:42,12:07:24,NA,incomplete,false,true,NA,3,29,NA,brown,m_l_020.jpg,NA,NA,unpleasant,pleasant,NA,NA,NA,NA,NA,right,1098.10000014305,true,NA,NA,NA,NA,NA
PQwvegSM,3o4vwc1gfzjxgki2d88xs18tr9fj3v,3aajc4i4fk50oxnpph88lm908mozjb,PQwvegSM,2020-0188,2021-10-14,09:55:42,12:07:24,NA,incomplete,false,true,NA,3,30,NA,orange,m_s_100.jpg,NA,NA,unpleasant,pleasant,NA,NA,NA,NA,NA,right,1470.5,true,NA,NA,NA,NA,NA
PQwvegSM,3o4vwc1gfzjxgki2d88xs18tr9fj3v,3aajc4i4fk50oxnpph88lm908mozjb,PQwvegSM,2020-0188,2021-10-14,09:55:42,12:07:24,NA,incomplete,false,true,NA,3,31,NA,orange,n_s_051.jpg,NA,NA,unpleasant,pleasant,NA,NA,NA,NA,NA,none,0,false,NA,NA,NA,NA,NA
PQwvegSM,3o4vwc1gfzjxgki2d88xs18tr9fj3v,3aajc4i4fk50oxnpph88lm908mozjb,PQwvegSM,2020-0188,2021-10-14,09:55:42,12:07:24,NA,incomplete,false,true,NA,3,32,NA,orange,m_s_108.jpg,NA,NA,pleasant,unpleasant,NA,NA,NA,NA,NA,none,0,false,NA,NA,NA,NA,NA
PQwvegSM,3o4vwc1gfzjxgki2d88xs18tr9fj3v,3aajc4i4fk50oxnpph88lm908mozjb,PQwvegSM,2020-0188,2021-10-14,09:55:42,12:07:24,NA,incomplete,false,true,NA,3,33,NA,orange,m_l_006.jpg,NA,NA,pleasant,unpleasant,NA,NA,NA,NA,NA,right,1314.70000004768,true,NA,NA,NA,NA,NA
PQwvegSM,3o4vwc1gfzjxgki2d88xs18tr9fj3v,3aajc4i4fk50oxnpph88lm908mozjb,PQwvegSM,2020-0188,2021-10-14,09:55:42,12:07:24,NA,incomplete,false,true,NA,3,34,NA,orange,n_s_087.jpg,NA,NA,unpleasant,pleasant,NA,NA,NA,NA,NA,right,932.299999952316,true,NA,NA,NA,NA,NA
PQwvegSM,3o4vwc1gfzjxgki2d88xs18tr9fj3v,3aajc4i4fk50oxnpph88lm908mozjb,PQwvegSM,2020-0188,2021-10-14,09:55:42,12:07:24,NA,incomplete,false,true,NA,3,35,NA,orange,n_s_004.jpg,NA,NA,pleasant,unpleasant,NA,NA,NA,NA,NA,right,666.199999809265,true,NA,NA,NA,NA,NA
PQwvegSM,3o4vwc1gfzjxgki2d88xs18tr9fj3v,3aajc4i4fk50oxnpph88lm908mozjb,PQwvegSM,2020-0188,2021-10-14,09:55:42,12:07:24,NA,incomplete,false,NA,true,3,0,NA,NA,NA,right,present,NA,NA,n_l_093.jpg,gray,n_l_086.jpg,blue,between,NA,NaN,NA,right,2576.5999999046326,1,1,2901.600000143051
PQwvegSM,3o4vwc1gfzjxgki2d88xs18tr9fj3v,3aajc4i4fk50oxnpph88lm908mozjb,PQwvegSM,2020-0188,2021-10-14,09:55:42,12:07:24,NA,incomplete,false,NA,true,3,1,NA,NA,NA,left,present,NA,NA,m_l_088.jpg,black,m_s_093.jpg,brown,between,NA,NaN,NA,left,5397.099999904633,1,1,3086.899999856949
PQwvegSM,3o4vwc1gfzjxgki2d88xs18tr9fj3v,3aajc4i4fk50oxnpph88lm908mozjb,PQwvegSM,2020-0188,2021-10-14,09:55:42,12:07:24,NA,incomplete,false,NA,true,3,2,NA,NA,NA,right,present,NA,NA,m_l_059.jpg,purple,n_s_061.jpg,purple,within,NA,NaN,NA,right,2477.0999999046326,1,1,2356.899999856949
PQwvegSM,3o4vwc1gfzjxgki2d88xs18tr9fj3v,3aajc4i4fk50oxnpph88lm908mozjb,PQwvegSM,2020-0188,2021-10-14,09:55:42,12:07:24,NA,incomplete,false,NA,true,3,3,NA,NA,NA,left,present,NA,NA,n_s_041.jpg,gray,m_s_099.jpg,black,between,NA,NaN,NA,left,5507,1,1,2602.0999999046326
PQwvegSM,3o4vwc1gfzjxgki2d88xs18tr9fj3v,3aajc4i4fk50oxnpph88lm908mozjb,PQwvegSM,2020-0188,2021-10-14,09:55:42,12:07:24,NA,incomplete,false,NA,true,3,4,NA,NA,NA,left,present,NA,NA,n_l_096.jpg,blue,m_l_010.jpg,blue,within,NA,NaN,NA,right,2437.0999999046326,0,1,4007.0999999046326
PQwvegSM,3o4vwc1gfzjxgki2d88xs18tr9fj3v,3aajc4i4fk50oxnpph88lm908mozjb,PQwvegSM,2020-0188,2021-10-14,09:55:42,12:07:24,NA,incomplete,false,NA,true,3,5,NA,NA,NA,left,present,NA,NA,m_l_050.jpg,brown,m_s_108.jpg,orange,between,NA,NaN,NA,left,2907.9000000953674,1,0,3319.2000000476837
PQwvegSM,3o4vwc1gfzjxgki2d88xs18tr9fj3v,3aajc4i4fk50oxnpph88lm908mozjb,PQwvegSM,2020-0188,2021-10-14,09:55:42,12:07:24,NA,incomplete,false,NA,true,3,6,NA,NA,NA,left,present,NA,NA,m_s_017.jpg,gray,n_l_110.jpg,gray,within,NA,NaN,NA,right,2963.4000000953674,0,1,3812
PQwvegSM,3o4vwc1gfzjxgki2d88xs18tr9fj3v,3aajc4i4fk50oxnpph88lm908mozjb,PQwvegSM,2020-0188,2021-10-14,09:55:42,12:07:24,NA,incomplete,false,NA,true,3,7,NA,NA,NA,right,present,NA,NA,n_s_004.jpg,orange,n_s_051.jpg,orange,within,NA,NaN,NA,left,4548.700000047684,0,1,2397.9000000953674
PQwvegSM,3o4vwc1gfzjxgki2d88xs18tr9fj3v,3aajc4i4fk50oxnpph88lm908mozjb,PQwvegSM,2020-0188,2021-10-14,09:55:42,12:07:24,NA,incomplete,false,NA,true,3,8,NA,NA,NA,right,present,NA,NA,m_l_020.jpg,brown,n_l_102.jpg,brown,within,NA,NaN,NA,right,2428.0999999046326,1,1,2006.7999999523163
PQwvegSM,3o4vwc1gfzjxgki2d88xs18tr9fj3v,3aajc4i4fk50oxnpph88lm908mozjb,PQwvegSM,2020-0188,2021-10-14,09:55:42,12:07:24,NA,incomplete,false,NA,true,3,9,NA,NA,NA,left,present,NA,NA,m_l_058.jpg,black,m_l_062.jpg,black,within,NA,NaN,NA,right,2068.5999999046326,0,1,3638.7999999523163
PQwvegSM,3o4vwc1gfzjxgki2d88xs18tr9fj3v,3aajc4i4fk50oxnpph88lm908mozjb,PQwvegSM,2020-0188,2021-10-14,09:55:42,12:07:24,NA,incomplete,false,NA,true,3,10,NA,NA,NA,right,present,NA,NA,m_s_002.jpg,blue,n_s_114.jpg,purple,between,NA,NaN,NA,left,5029.099999904633,0,1,7278.900000095367
PQwvegSM,3o4vwc1gfzjxgki2d88xs18tr9fj3v,3aajc4i4fk50oxnpph88lm908mozjb,PQwvegSM,2020-0188,2021-10-14,09:55:42,12:07:24,NA,incomplete,false,true,NA,4,0,NA,orange,n_l_061.jpg,NA,NA,unpleasant,pleasant,NA,NA,NA,NA,NA,right,1882.79999995232,true,NA,NA,NA,NA,NA
PQwvegSM,3o4vwc1gfzjxgki2d88xs18tr9fj3v,3aajc4i4fk50oxnpph88lm908mozjb,PQwvegSM,2020-0188,2021-10-14,09:55:42,12:07:24,NA,incomplete,false,true,NA,4,1,NA,orange,n_l_085.jpg,NA,NA,unpleasant,pleasant,NA,NA,NA,NA,NA,right,1955.29999995232,true,NA,NA,NA,NA,NA
PQwvegSM,3o4vwc1gfzjxgki2d88xs18tr9fj3v,3aajc4i4fk50oxnpph88lm908mozjb,PQwvegSM,2020-0188,2021-10-14,09:55:42,12:07:24,NA,incomplete,false,true,NA,4,2,NA,orange,m_s_044.jpg,NA,NA,unpleasant,pleasant,NA,NA,NA,NA,NA,right,18.5,true,NA,NA,NA,NA,NA
PQwvegSM,3o4vwc1gfzjxgki2d88xs18tr9fj3v,3aajc4i4fk50oxnpph88lm908mozjb,PQwvegSM,2020-0188,2021-10-14,09:55:42,12:07:24,NA,incomplete,false,true,NA,4,3,NA,orange,n_s_053.jpg,NA,NA,unpleasant,pleasant,NA,NA,NA,NA,NA,right,263.300000190735,true,NA,NA,NA,NA,NA
PQwvegSM,3o4vwc1gfzjxgki2d88xs18tr9fj3v,3aajc4i4fk50oxnpph88lm908mozjb,PQwvegSM,2020-0188,2021-10-14,09:55:42,12:07:24,NA,incomplete,false,true,NA,4,4,NA,orange,n_s_060.jpg,NA,NA,unpleasant,pleasant,NA,NA,NA,NA,NA,right,523.5,true,NA,NA,NA,NA,NA
PQwvegSM,3o4vwc1gfzjxgki2d88xs18tr9fj3v,3aajc4i4fk50oxnpph88lm908mozjb,PQwvegSM,2020-0188,2021-10-14,09:55:42,12:07:24,NA,incomplete,false,true,NA,4,5,NA,orange,m_l_054.jpg,NA,NA,pleasant,unpleasant,NA,NA,NA,NA,NA,right,1352.90000009537,true,NA,NA,NA,NA,NA
PQwvegSM,3o4vwc1gfzjxgki2d88xs18tr9fj3v,3aajc4i4fk50oxnpph88lm908mozjb,PQwvegSM,2020-0188,2021-10-14,09:55:42,12:07:24,NA,incomplete,false,true,NA,4,6,NA,green,n_s_079.jpg,NA,NA,unpleasant,pleasant,NA,NA,NA,NA,NA,right,1235.20000004768,true,NA,NA,NA,NA,NA
PQwvegSM,3o4vwc1gfzjxgki2d88xs18tr9fj3v,3aajc4i4fk50oxnpph88lm908mozjb,PQwvegSM,2020-0188,2021-10-14,09:55:42,12:07:24,NA,incomplete,false,true,NA,4,7,NA,green,n_s_102.jpg,NA,NA,pleasant,unpleasant,NA,NA,NA,NA,NA,right,728.299999952316,true,NA,NA,NA,NA,NA
PQwvegSM,3o4vwc1gfzjxgki2d88xs18tr9fj3v,3aajc4i4fk50oxnpph88lm908mozjb,PQwvegSM,2020-0188,2021-10-14,09:55:42,12:07:24,NA,incomplete,false,true,NA,4,8,NA,green,m_l_017.jpg,NA,NA,unpleasant,pleasant,NA,NA,NA,NA,NA,right,2159.39999985695,true,NA,NA,NA,NA,NA
PQwvegSM,3o4vwc1gfzjxgki2d88xs18tr9fj3v,3aajc4i4fk50oxnpph88lm908mozjb,PQwvegSM,2020-0188,2021-10-14,09:55:42,12:07:24,NA,incomplete,false,true,NA,4,9,NA,green,m_s_034.jpg,NA,NA,unpleasant,pleasant,NA,NA,NA,NA,NA,right,927.5,true,NA,NA,NA,NA,NA
PQwvegSM,3o4vwc1gfzjxgki2d88xs18tr9fj3v,3aajc4i4fk50oxnpph88lm908mozjb,PQwvegSM,2020-0188,2021-10-14,09:55:42,12:07:24,NA,incomplete,false,true,NA,4,10,NA,green,n_s_066.jpg,NA,NA,pleasant,unpleasant,NA,NA,NA,NA,NA,left,810.299999952316,true,NA,NA,NA,NA,NA
PQwvegSM,3o4vwc1gfzjxgki2d88xs18tr9fj3v,3aajc4i4fk50oxnpph88lm908mozjb,PQwvegSM,2020-0188,2021-10-14,09:55:42,12:07:24,NA,incomplete,false,true,NA,4,11,NA,green,m_s_114.jpg,NA,NA,unpleasant,pleasant,NA,NA,NA,NA,NA,left,1020.20000004768,true,NA,NA,NA,NA,NA
PQwvegSM,3o4vwc1gfzjxgki2d88xs18tr9fj3v,3aajc4i4fk50oxnpph88lm908mozjb,PQwvegSM,2020-0188,2021-10-14,09:55:42,12:07:24,NA,incomplete,false,true,NA,4,12,NA,blue,n_l_063.jpg,NA,NA,pleasant,unpleasant,NA,NA,NA,NA,NA,left,1462,true,NA,NA,NA,NA,NA
PQwvegSM,3o4vwc1gfzjxgki2d88xs18tr9fj3v,3aajc4i4fk50oxnpph88lm908mozjb,PQwvegSM,2020-0188,2021-10-14,09:55:42,12:07:24,NA,incomplete,false,true,NA,4,13,NA,blue,m_l_036.jpg,NA,NA,unpleasant,pleasant,NA,NA,NA,NA,NA,right,1686.09999990463,true,NA,NA,NA,NA,NA
PQwvegSM,3o4vwc1gfzjxgki2d88xs18tr9fj3v,3aajc4i4fk50oxnpph88lm908mozjb,PQwvegSM,2020-0188,2021-10-14,09:55:42,12:07:24,NA,incomplete,false,true,NA,4,14,NA,blue,n_l_090.jpg,NA,NA,pleasant,unpleasant,NA,NA,NA,NA,NA,right,1192.5,true,NA,NA,NA,NA,NA
PQwvegSM,3o4vwc1gfzjxgki2d88xs18tr9fj3v,3aajc4i4fk50oxnpph88lm908mozjb,PQwvegSM,2020-0188,2021-10-14,09:55:42,12:07:24,NA,incomplete,false,true,NA,4,15,NA,blue,n_s_104.jpg,NA,NA,pleasant,unpleasant,NA,NA,NA,NA,NA,right,997.299999952316,true,NA,NA,NA,NA,NA
PQwvegSM,3o4vwc1gfzjxgki2d88xs18tr9fj3v,3aajc4i4fk50oxnpph88lm908mozjb,PQwvegSM,2020-0188,2021-10-14,09:55:42,12:07:24,NA,incomplete,false,true,NA,4,16,NA,blue,n_l_098.jpg,NA,NA,pleasant,unpleasant,NA,NA,NA,NA,NA,right,1159.69999980927,true,NA,NA,NA,NA,NA
PQwvegSM,3o4vwc1gfzjxgki2d88xs18tr9fj3v,3aajc4i4fk50oxnpph88lm908mozjb,PQwvegSM,2020-0188,2021-10-14,09:55:42,12:07:24,NA,incomplete,false,true,NA,4,17,NA,blue,m_l_102.jpg,NA,NA,unpleasant,pleasant,NA,NA,NA,NA,NA,right,1224.09999990463,true,NA,NA,NA,NA,NA
PQwvegSM,3o4vwc1gfzjxgki2d88xs18tr9fj3v,3aajc4i4fk50oxnpph88lm908mozjb,PQwvegSM,2020-0188,2021-10-14,09:55:42,12:07:24,NA,incomplete,false,true,NA,4,18,NA,yellow,n_l_031.jpg,NA,NA,pleasant,unpleasant,NA,NA,NA,NA,NA,right,1542.70000004768,true,NA,NA,NA,NA,NA
PQwvegSM,3o4vwc1gfzjxgki2d88xs18tr9fj3v,3aajc4i4fk50oxnpph88lm908mozjb,PQwvegSM,2020-0188,2021-10-14,09:55:42,12:07:24,NA,incomplete,false,true,NA,4,19,NA,yellow,m_l_110.jpg,NA,NA,unpleasant,pleasant,NA,NA,NA,NA,NA,right,3141.79999995232,true,NA,NA,NA,NA,NA
PQwvegSM,3o4vwc1gfzjxgki2d88xs18tr9fj3v,3aajc4i4fk50oxnpph88lm908mozjb,PQwvegSM,2020-0188,2021-10-14,09:55:42,12:07:24,NA,incomplete,false,true,NA,4,20,NA,yellow,n_l_111.jpg,NA,NA,pleasant,unpleasant,NA,NA,NA,NA,NA,right,1595.39999985695,true,NA,NA,NA,NA,NA
PQwvegSM,3o4vwc1gfzjxgki2d88xs18tr9fj3v,3aajc4i4fk50oxnpph88lm908mozjb,PQwvegSM,2020-0188,2021-10-14,09:55:42,12:07:24,NA,incomplete,false,true,NA,4,21,NA,yellow,m_s_023.jpg,NA,NA,unpleasant,pleasant,NA,NA,NA,NA,NA,right,1959.09999990463,true,NA,NA,NA,NA,NA
PQwvegSM,3o4vwc1gfzjxgki2d88xs18tr9fj3v,3aajc4i4fk50oxnpph88lm908mozjb,PQwvegSM,2020-0188,2021-10-14,09:55:42,12:07:24,NA,incomplete,false,true,NA,4,22,NA,yellow,m_s_032.jpg,NA,NA,pleasant,unpleasant,NA,NA,NA,NA,NA,right,2910.20000004768,true,NA,NA,NA,NA,NA
PQwvegSM,3o4vwc1gfzjxgki2d88xs18tr9fj3v,3aajc4i4fk50oxnpph88lm908mozjb,PQwvegSM,2020-0188,2021-10-14,09:55:42,12:07:24,NA,incomplete,false,true,NA,4,23,NA,yellow,n_s_111.jpg,NA,NA,pleasant,unpleasant,NA,NA,NA,NA,NA,right,1195.90000009537,true,NA,NA,NA,NA,NA
PQwvegSM,3o4vwc1gfzjxgki2d88xs18tr9fj3v,3aajc4i4fk50oxnpph88lm908mozjb,PQwvegSM,2020-0188,2021-10-14,09:55:42,12:07:24,NA,incomplete,false,true,NA,4,24,NA,brown,n_l_022.jpg,NA,NA,pleasant,unpleasant,NA,NA,NA,NA,NA,right,1719.29999995232,true,NA,NA,NA,NA,NA
PQwvegSM,3o4vwc1gfzjxgki2d88xs18tr9fj3v,3aajc4i4fk50oxnpph88lm908mozjb,PQwvegSM,2020-0188,2021-10-14,09:55:42,12:07:24,NA,incomplete,false,true,NA,4,25,NA,brown,m_l_061.jpg,NA,NA,unpleasant,pleasant,NA,NA,NA,NA,NA,left,2332.79999995232,true,NA,NA,NA,NA,NA
PQwvegSM,3o4vwc1gfzjxgki2d88xs18tr9fj3v,3aajc4i4fk50oxnpph88lm908mozjb,PQwvegSM,2020-0188,2021-10-14,09:55:42,12:07:24,NA,incomplete,false,true,NA,4,26,NA,brown,n_s_044.jpg,NA,NA,unpleasant,pleasant,NA,NA,NA,NA,NA,right,1924.59999990463,true,NA,NA,NA,NA,NA
PQwvegSM,3o4vwc1gfzjxgki2d88xs18tr9fj3v,3aajc4i4fk50oxnpph88lm908mozjb,PQwvegSM,2020-0188,2021-10-14,09:55:42,12:07:24,NA,incomplete,false,true,NA,4,27,NA,brown,m_s_033.jpg,NA,NA,unpleasant,pleasant,NA,NA,NA,NA,NA,right,1819.29999995232,true,NA,NA,NA,NA,NA
PQwvegSM,3o4vwc1gfzjxgki2d88xs18tr9fj3v,3aajc4i4fk50oxnpph88lm908mozjb,PQwvegSM,2020-0188,2021-10-14,09:55:42,12:07:24,NA,incomplete,false,true,NA,4,28,NA,brown,n_l_065.jpg,NA,NA,pleasant,unpleasant,NA,NA,NA,NA,NA,right,2215.79999995232,true,NA,NA,NA,NA,NA
PQwvegSM,3o4vwc1gfzjxgki2d88xs18tr9fj3v,3aajc4i4fk50oxnpph88lm908mozjb,PQwvegSM,2020-0188,2021-10-14,09:55:42,12:07:24,NA,incomplete,false,true,NA,4,29,NA,brown,n_l_073.jpg,NA,NA,pleasant,unpleasant,NA,NA,NA,NA,NA,right,1173.79999995232,true,NA,NA,NA,NA,NA
PQwvegSM,3o4vwc1gfzjxgki2d88xs18tr9fj3v,3aajc4i4fk50oxnpph88lm908mozjb,PQwvegSM,2020-0188,2021-10-14,09:55:42,12:07:24,NA,incomplete,false,true,NA,4,30,NA,purple,n_s_086.jpg,NA,NA,pleasant,unpleasant,NA,NA,NA,NA,NA,right,118,true,NA,NA,NA,NA,NA
PQwvegSM,3o4vwc1gfzjxgki2d88xs18tr9fj3v,3aajc4i4fk50oxnpph88lm908mozjb,PQwvegSM,2020-0188,2021-10-14,09:55:42,12:07:24,NA,incomplete,false,true,NA,4,31,NA,purple,m_l_008.jpg,NA,NA,unpleasant,pleasant,NA,NA,NA,NA,NA,right,312.899999856949,true,NA,NA,NA,NA,NA
PQwvegSM,3o4vwc1gfzjxgki2d88xs18tr9fj3v,3aajc4i4fk50oxnpph88lm908mozjb,PQwvegSM,2020-0188,2021-10-14,09:55:42,12:07:24,NA,incomplete,false,true,NA,4,32,NA,purple,m_l_038.jpg,NA,NA,pleasant,unpleasant,NA,NA,NA,NA,NA,right,36.5,true,NA,NA,NA,NA,NA
PQwvegSM,3o4vwc1gfzjxgki2d88xs18tr9fj3v,3aajc4i4fk50oxnpph88lm908mozjb,PQwvegSM,2020-0188,2021-10-14,09:55:42,12:07:24,NA,incomplete,false,true,NA,4,33,NA,purple,n_l_070.jpg,NA,NA,unpleasant,pleasant,NA,NA,NA,NA,NA,right,48.7000000476837,true,NA,NA,NA,NA,NA
PQwvegSM,3o4vwc1gfzjxgki2d88xs18tr9fj3v,3aajc4i4fk50oxnpph88lm908mozjb,PQwvegSM,2020-0188,2021-10-14,09:55:42,12:07:24,NA,incomplete,false,true,NA,4,34,NA,purple,m_s_097.jpg,NA,NA,pleasant,unpleasant,NA,NA,NA,NA,NA,right,1070.09999990463,true,NA,NA,NA,NA,NA
PQwvegSM,3o4vwc1gfzjxgki2d88xs18tr9fj3v,3aajc4i4fk50oxnpph88lm908mozjb,PQwvegSM,2020-0188,2021-10-14,09:55:42,12:07:24,NA,incomplete,false,true,NA,4,35,NA,purple,n_l_033.jpg,NA,NA,unpleasant,pleasant,NA,NA,NA,NA,NA,right,1849.19999980927,true,NA,NA,NA,NA,NA
PQwvegSM,3o4vwc1gfzjxgki2d88xs18tr9fj3v,3aajc4i4fk50oxnpph88lm908mozjb,PQwvegSM,2020-0188,2021-10-14,09:55:42,12:07:24,NA,incomplete,false,NA,true,4,0,NA,NA,NA,right,absent,NA,NA,n_l_111.jpg,yellow,n_l_098.jpg,blue,between,NA,NaN,NA,left,9998.5,0,0,1988.7999999523163
PQwvegSM,3o4vwc1gfzjxgki2d88xs18tr9fj3v,3aajc4i4fk50oxnpph88lm908mozjb,PQwvegSM,2020-0188,2021-10-14,09:55:42,12:07:24,NA,incomplete,false,NA,true,4,1,NA,NA,NA,left,absent,NA,NA,m_s_032.jpg,yellow,n_s_044.jpg,brown,between,NA,NaN,NA,right,5123.300000190735,0,1,2884.5999999046326
PQwvegSM,3o4vwc1gfzjxgki2d88xs18tr9fj3v,3aajc4i4fk50oxnpph88lm908mozjb,PQwvegSM,2020-0188,2021-10-14,09:55:42,12:07:24,NA,incomplete,false,NA,true,4,2,NA,NA,NA,left,absent,NA,NA,n_l_065.jpg,brown,m_l_038.jpg,purple,between,NA,NaN,NA,right,4238.799999952316,0,1,3174.399999856949
PQwvegSM,3o4vwc1gfzjxgki2d88xs18tr9fj3v,3aajc4i4fk50oxnpph88lm908mozjb,PQwvegSM,2020-0188,2021-10-14,09:55:42,12:07:24,NA,incomplete,false,NA,true,4,3,NA,NA,NA,left,absent,NA,NA,n_s_060.jpg,orange,m_l_017.jpg,green,between,NA,NaN,NA,left,8003.800000190735,1,1,1689.7999999523163
PQwvegSM,3o4vwc1gfzjxgki2d88xs18tr9fj3v,3aajc4i4fk50oxnpph88lm908mozjb,PQwvegSM,2020-0188,2021-10-14,09:55:42,12:07:24,NA,incomplete,false,NA,true,4,4,NA,NA,NA,left,absent,NA,NA,n_l_085.jpg,orange,m_l_054.jpg,orange,within,NA,NaN,NA,right,5704.599999904633,0,1,5572
PQwvegSM,3o4vwc1gfzjxgki2d88xs18tr9fj3v,3aajc4i4fk50oxnpph88lm908mozjb,PQwvegSM,2020-0188,2021-10-14,09:55:42,12:07:24,NA,incomplete,false,NA,true,4,5,NA,NA,NA,right,absent,NA,NA,n_l_033.jpg,purple,m_l_008.jpg,purple,within,NA,NaN,NA,right,3474.100000143051,1,1,6686.100000143051
PQwvegSM,3o4vwc1gfzjxgki2d88xs18tr9fj3v,3aajc4i4fk50oxnpph88lm908mozjb,PQwvegSM,2020-0188,2021-10-14,09:55:42,12:07:24,NA,incomplete,false,NA,true,4,6,NA,NA,NA,right,absent,NA,NA,m_s_114.jpg,green,n_s_102.jpg,green,within,NA,NaN,NA,right,8185.799999952316,1,1,2728.5999999046326
PQwvegSM,3o4vwc1gfzjxgki2d88xs18tr9fj3v,3aajc4i4fk50oxnpph88lm908mozjb,PQwvegSM,2020-0188,2021-10-14,09:55:42,12:07:24,NA,incomplete,false,NA,true,4,7,NA,NA,NA,left,absent,NA,NA,n_s_066.jpg,green,n_l_090.jpg,blue,between,NA,NaN,NA,right,9899.5,0,1,3135.7999999523163
PQwvegSM,3o4vwc1gfzjxgki2d88xs18tr9fj3v,3aajc4i4fk50oxnpph88lm908mozjb,PQwvegSM,2020-0188,2021-10-14,09:55:42,12:07:24,NA,incomplete,false,NA,true,4,8,NA,NA,NA,left,absent,NA,NA,m_l_036.jpg,blue,m_l_102.jpg,blue,within,NA,NaN,NA,left,4186.700000047684,1,1,15058.899999856949
PQwvegSM,3o4vwc1gfzjxgki2d88xs18tr9fj3v,3aajc4i4fk50oxnpph88lm908mozjb,PQwvegSM,2020-0188,2021-10-14,09:55:42,12:07:24,NA,incomplete,false,NA,true,4,9,NA,NA,NA,left,absent,NA,NA,m_l_061.jpg,brown,n_l_073.jpg,brown,within,NA,NaN,NA,right,3393.5,0,1,2208.7000000476837
PQwvegSM,3o4vwc1gfzjxgki2d88xs18tr9fj3v,3aajc4i4fk50oxnpph88lm908mozjb,PQwvegSM,2020-0188,2021-10-14,09:55:42,12:07:24,NA,incomplete,false,NA,true,4,10,NA,NA,NA,left,absent,NA,NA,m_l_110.jpg,yellow,n_s_111.jpg,yellow,within,NA,NaN,NA,right,2009,0,1,1518.2000000476837
PQwvegSM,3o4vwc1gfzjxgki2d88xs18tr9fj3v,3aajc4i4fk50oxnpph88lm908mozjb,PQwvegSM,2020-0188,2021-10-14,09:55:42,12:07:24,NA,incomplete,false,true,NA,5,0,NA,orange,n_l_045.jpg,NA,NA,unpleasant,pleasant,NA,NA,NA,NA,NA,right,2447.70000004768,true,NA,NA,NA,NA,NA
PQwvegSM,3o4vwc1gfzjxgki2d88xs18tr9fj3v,3aajc4i4fk50oxnpph88lm908mozjb,PQwvegSM,2020-0188,2021-10-14,09:55:42,12:07:24,NA,incomplete,false,true,NA,5,1,NA,orange,m_l_049.jpg,NA,NA,unpleasant,pleasant,NA,NA,NA,NA,NA,right,3228.5,true,NA,NA,NA,NA,NA
PQwvegSM,3o4vwc1gfzjxgki2d88xs18tr9fj3v,3aajc4i4fk50oxnpph88lm908mozjb,PQwvegSM,2020-0188,2021-10-14,09:55:42,12:07:24,NA,incomplete,false,true,NA,5,2,NA,orange,n_s_093.jpg,NA,NA,unpleasant,pleasant,NA,NA,NA,NA,NA,right,221.399999856949,true,NA,NA,NA,NA,NA
PQwvegSM,3o4vwc1gfzjxgki2d88xs18tr9fj3v,3aajc4i4fk50oxnpph88lm908mozjb,PQwvegSM,2020-0188,2021-10-14,09:55:42,12:07:24,NA,incomplete,false,true,NA,5,3,NA,orange,n_l_035.jpg,NA,NA,pleasant,unpleasant,NA,NA,NA,NA,NA,right,2466,true,NA,NA,NA,NA,NA
PQwvegSM,3o4vwc1gfzjxgki2d88xs18tr9fj3v,3aajc4i4fk50oxnpph88lm908mozjb,PQwvegSM,2020-0188,2021-10-14,09:55:42,12:07:24,NA,incomplete,false,true,NA,5,4,NA,orange,n_s_100.jpg,NA,NA,unpleasant,pleasant,NA,NA,NA,NA,NA,right,35,true,NA,NA,NA,NA,NA
PQwvegSM,3o4vwc1gfzjxgki2d88xs18tr9fj3v,3aajc4i4fk50oxnpph88lm908mozjb,PQwvegSM,2020-0188,2021-10-14,09:55:42,12:07:24,NA,incomplete,false,true,NA,5,5,NA,orange,m_s_117.jpg,NA,NA,unpleasant,pleasant,NA,NA,NA,NA,NA,right,3251.70000004768,true,NA,NA,NA,NA,NA
PQwvegSM,3o4vwc1gfzjxgki2d88xs18tr9fj3v,3aajc4i4fk50oxnpph88lm908mozjb,PQwvegSM,2020-0188,2021-10-14,09:55:42,12:07:24,NA,incomplete,false,true,NA,5,6,NA,purple,m_s_055.jpg,NA,NA,pleasant,unpleasant,NA,NA,NA,NA,NA,none,0,false,NA,NA,NA,NA,NA
PQwvegSM,3o4vwc1gfzjxgki2d88xs18tr9fj3v,3aajc4i4fk50oxnpph88lm908mozjb,PQwvegSM,2020-0188,2021-10-14,09:55:42,12:07:24,NA,incomplete,false,true,NA,5,7,NA,purple,m_s_105.jpg,NA,NA,unpleasant,pleasant,NA,NA,NA,NA,NA,right,1165.69999980927,true,NA,NA,NA,NA,NA
PQwvegSM,3o4vwc1gfzjxgki2d88xs18tr9fj3v,3aajc4i4fk50oxnpph88lm908mozjb,PQwvegSM,2020-0188,2021-10-14,09:55:42,12:07:24,NA,incomplete,false,true,NA,5,8,NA,purple,m_l_083.jpg,NA,NA,pleasant,unpleasant,NA,NA,NA,NA,NA,right,2402,true,NA,NA,NA,NA,NA
PQwvegSM,3o4vwc1gfzjxgki2d88xs18tr9fj3v,3aajc4i4fk50oxnpph88lm908mozjb,PQwvegSM,2020-0188,2021-10-14,09:55:42,12:07:24,NA,incomplete,false,true,NA,5,9,NA,purple,n_s_077.jpg,NA,NA,pleasant,unpleasant,NA,NA,NA,NA,NA,right,1777.09999990463,true,NA,NA,NA,NA,NA
PQwvegSM,3o4vwc1gfzjxgki2d88xs18tr9fj3v,3aajc4i4fk50oxnpph88lm908mozjb,PQwvegSM,2020-0188,2021-10-14,09:55:42,12:07:24,NA,incomplete,false,true,NA,5,10,NA,purple,n_l_004.jpg,NA,NA,pleasant,unpleasant,NA,NA,NA,NA,NA,right,746.5,true,NA,NA,NA,NA,NA
PQwvegSM,3o4vwc1gfzjxgki2d88xs18tr9fj3v,3aajc4i4fk50oxnpph88lm908mozjb,PQwvegSM,2020-0188,2021-10-14,09:55:42,12:07:24,NA,incomplete,false,true,NA,5,11,NA,purple,n_l_109.jpg,NA,NA,pleasant,unpleasant,NA,NA,NA,NA,NA,right,219.599999904633,true,NA,NA,NA,NA,NA
PQwvegSM,3o4vwc1gfzjxgki2d88xs18tr9fj3v,3aajc4i4fk50oxnpph88lm908mozjb,PQwvegSM,2020-0188,2021-10-14,09:55:42,12:07:24,NA,incomplete,false,true,NA,5,12,NA,brown,m_s_027.jpg,NA,NA,pleasant,unpleasant,NA,NA,NA,NA,NA,right,73.7000000476837,true,NA,NA,NA,NA,NA
PQwvegSM,3o4vwc1gfzjxgki2d88xs18tr9fj3v,3aajc4i4fk50oxnpph88lm908mozjb,PQwvegSM,2020-0188,2021-10-14,09:55:42,12:07:24,NA,incomplete,false,true,NA,5,13,NA,brown,n_s_094.jpg,NA,NA,unpleasant,pleasant,NA,NA,NA,NA,NA,right,340.300000190735,true,NA,NA,NA,NA,NA
PQwvegSM,3o4vwc1gfzjxgki2d88xs18tr9fj3v,3aajc4i4fk50oxnpph88lm908mozjb,PQwvegSM,2020-0188,2021-10-14,09:55:42,12:07:24,NA,incomplete,false,true,NA,5,14,NA,brown,m_s_040.jpg,NA,NA,pleasant,unpleasant,NA,NA,NA,NA,NA,right,413.799999952316,true,NA,NA,NA,NA,NA
PQwvegSM,3o4vwc1gfzjxgki2d88xs18tr9fj3v,3aajc4i4fk50oxnpph88lm908mozjb,PQwvegSM,2020-0188,2021-10-14,09:55:42,12:07:24,NA,incomplete,false,true,NA,5,15,NA,brown,m_l_097.jpg,NA,NA,unpleasant,pleasant,NA,NA,NA,NA,NA,right,1124,true,NA,NA,NA,NA,NA
PQwvegSM,3o4vwc1gfzjxgki2d88xs18tr9fj3v,3aajc4i4fk50oxnpph88lm908mozjb,PQwvegSM,2020-0188,2021-10-14,09:55:42,12:07:24,NA,incomplete,false,true,NA,5,16,NA,brown,n_l_005.jpg,NA,NA,unpleasant,pleasant,NA,NA,NA,NA,NA,right,950.400000095367,true,NA,NA,NA,NA,NA
PQwvegSM,3o4vwc1gfzjxgki2d88xs18tr9fj3v,3aajc4i4fk50oxnpph88lm908mozjb,PQwvegSM,2020-0188,2021-10-14,09:55:42,12:07:24,NA,incomplete,false,true,NA,5,17,NA,brown,m_l_024.jpg,NA,NA,unpleasant,pleasant,NA,NA,NA,NA,NA,right,2104.09999990463,true,NA,NA,NA,NA,NA
PQwvegSM,3o4vwc1gfzjxgki2d88xs18tr9fj3v,3aajc4i4fk50oxnpph88lm908mozjb,PQwvegSM,2020-0188,2021-10-14,09:55:42,12:07:24,NA,incomplete,false,true,NA,5,18,NA,red,m_s_087.jpg,NA,NA,unpleasant,pleasant,NA,NA,NA,NA,NA,right,2265.20000004768,true,NA,NA,NA,NA,NA
PQwvegSM,3o4vwc1gfzjxgki2d88xs18tr9fj3v,3aajc4i4fk50oxnpph88lm908mozjb,PQwvegSM,2020-0188,2021-10-14,09:55:42,12:07:24,NA,incomplete,false,true,NA,5,19,NA,red,m_s_036.jpg,NA,NA,pleasant,unpleasant,NA,NA,NA,NA,NA,right,914.600000143051,true,NA,NA,NA,NA,NA
PQwvegSM,3o4vwc1gfzjxgki2d88xs18tr9fj3v,3aajc4i4fk50oxnpph88lm908mozjb,PQwvegSM,2020-0188,2021-10-14,09:55:42,12:07:24,NA,incomplete,false,true,NA,5,20,NA,red,m_l_056.jpg,NA,NA,unpleasant,pleasant,NA,NA,NA,NA,NA,right,828.699999809265,true,NA,NA,NA,NA,NA
PQwvegSM,3o4vwc1gfzjxgki2d88xs18tr9fj3v,3aajc4i4fk50oxnpph88lm908mozjb,PQwvegSM,2020-0188,2021-10-14,09:55:42,12:07:24,NA,incomplete,false,true,NA,5,21,NA,red,m_l_108.jpg,NA,NA,unpleasant,pleasant,NA,NA,NA,NA,NA,right,2223.30000019073,true,NA,NA,NA,NA,NA
PQwvegSM,3o4vwc1gfzjxgki2d88xs18tr9fj3v,3aajc4i4fk50oxnpph88lm908mozjb,PQwvegSM,2020-0188,2021-10-14,09:55:42,12:07:24,NA,incomplete,false,true,NA,5,22,NA,red,n_l_056.jpg,NA,NA,pleasant,unpleasant,NA,NA,NA,NA,NA,right,2351.5,true,NA,NA,NA,NA,NA
PQwvegSM,3o4vwc1gfzjxgki2d88xs18tr9fj3v,3aajc4i4fk50oxnpph88lm908mozjb,PQwvegSM,2020-0188,2021-10-14,09:55:42,12:07:24,NA,incomplete,false,true,NA,5,23,NA,red,m_s_091.jpg,NA,NA,unpleasant,pleasant,NA,NA,NA,NA,NA,right,267.600000143051,true,NA,NA,NA,NA,NA
PQwvegSM,3o4vwc1gfzjxgki2d88xs18tr9fj3v,3aajc4i4fk50oxnpph88lm908mozjb,PQwvegSM,2020-0188,2021-10-14,09:55:42,12:07:24,NA,incomplete,false,true,NA,5,24,NA,blue,n_s_052.jpg,NA,NA,unpleasant,pleasant,NA,NA,NA,NA,NA,right,359.700000047684,true,NA,NA,NA,NA,NA
PQwvegSM,3o4vwc1gfzjxgki2d88xs18tr9fj3v,3aajc4i4fk50oxnpph88lm908mozjb,PQwvegSM,2020-0188,2021-10-14,09:55:42,12:07:24,NA,incomplete,false,true,NA,5,25,NA,blue,n_l_003.jpg,NA,NA,unpleasant,pleasant,NA,NA,NA,NA,NA,right,129,true,NA,NA,NA,NA,NA
PQwvegSM,3o4vwc1gfzjxgki2d88xs18tr9fj3v,3aajc4i4fk50oxnpph88lm908mozjb,PQwvegSM,2020-0188,2021-10-14,09:55:42,12:07:24,NA,incomplete,false,true,NA,5,26,NA,blue,m_l_086.jpg,NA,NA,unpleasant,pleasant,NA,NA,NA,NA,NA,right,1893.29999995232,true,NA,NA,NA,NA,NA
PQwvegSM,3o4vwc1gfzjxgki2d88xs18tr9fj3v,3aajc4i4fk50oxnpph88lm908mozjb,PQwvegSM,2020-0188,2021-10-14,09:55:42,12:07:24,NA,incomplete,false,true,NA,5,27,NA,blue,n_s_015.jpg,NA,NA,pleasant,unpleasant,NA,NA,NA,NA,NA,right,1913.59999990463,true,NA,NA,NA,NA,NA
PQwvegSM,3o4vwc1gfzjxgki2d88xs18tr9fj3v,3aajc4i4fk50oxnpph88lm908mozjb,PQwvegSM,2020-0188,2021-10-14,09:55:42,12:07:24,NA,incomplete,false,true,NA,5,28,NA,blue,m_l_028.jpg,NA,NA,unpleasant,pleasant,NA,NA,NA,NA,NA,right,783.100000143051,true,NA,NA,NA,NA,NA
PQwvegSM,3o4vwc1gfzjxgki2d88xs18tr9fj3v,3aajc4i4fk50oxnpph88lm908mozjb,PQwvegSM,2020-0188,2021-10-14,09:55:42,12:07:24,NA,incomplete,false,true,NA,5,29,NA,blue,n_l_023.jpg,NA,NA,unpleasant,pleasant,NA,NA,NA,NA,NA,none,0,false,NA,NA,NA,NA,NA
PQwvegSM,3o4vwc1gfzjxgki2d88xs18tr9fj3v,3aajc4i4fk50oxnpph88lm908mozjb,PQwvegSM,2020-0188,2021-10-14,09:55:42,12:07:24,NA,incomplete,false,true,NA,5,30,NA,black,n_s_071.jpg,NA,NA,pleasant,unpleasant,NA,NA,NA,NA,NA,none,0,false,NA,NA,NA,NA,NA
PQwvegSM,3o4vwc1gfzjxgki2d88xs18tr9fj3v,3aajc4i4fk50oxnpph88lm908mozjb,PQwvegSM,2020-0188,2021-10-14,09:55:42,12:07:24,NA,incomplete,false,true,NA,5,31,NA,black,m_l_039.jpg,NA,NA,pleasant,unpleasant,NA,NA,NA,NA,NA,right,1407.39999985695,true,NA,NA,NA,NA,NA
PQwvegSM,3o4vwc1gfzjxgki2d88xs18tr9fj3v,3aajc4i4fk50oxnpph88lm908mozjb,PQwvegSM,2020-0188,2021-10-14,09:55:42,12:07:24,NA,incomplete,false,true,NA,5,32,NA,black,n_l_032.jpg,NA,NA,unpleasant,pleasant,NA,NA,NA,NA,NA,right,2708.5,true,NA,NA,NA,NA,NA
PQwvegSM,3o4vwc1gfzjxgki2d88xs18tr9fj3v,3aajc4i4fk50oxnpph88lm908mozjb,PQwvegSM,2020-0188,2021-10-14,09:55:42,12:07:24,NA,incomplete,false,true,NA,5,33,NA,black,n_s_085.jpg,NA,NA,unpleasant,pleasant,NA,NA,NA,NA,NA,right,2227.10000014305,true,NA,NA,NA,NA,NA
PQwvegSM,3o4vwc1gfzjxgki2d88xs18tr9fj3v,3aajc4i4fk50oxnpph88lm908mozjb,PQwvegSM,2020-0188,2021-10-14,09:55:42,12:07:24,NA,incomplete,false,true,NA,5,34,NA,black,m_l_112.jpg,NA,NA,pleasant,unpleasant,NA,NA,NA,NA,NA,right,1976.20000004768,true,NA,NA,NA,NA,NA
PQwvegSM,3o4vwc1gfzjxgki2d88xs18tr9fj3v,3aajc4i4fk50oxnpph88lm908mozjb,PQwvegSM,2020-0188,2021-10-14,09:55:42,12:07:24,NA,incomplete,false,true,NA,5,35,NA,black,m_l_014.jpg,NA,NA,pleasant,unpleasant,NA,NA,NA,NA,NA,right,1771.59999990463,true,NA,NA,NA,NA,NA
PQwvegSM,3o4vwc1gfzjxgki2d88xs18tr9fj3v,3aajc4i4fk50oxnpph88lm908mozjb,PQwvegSM,2020-0188,2021-10-14,09:55:42,12:07:24,NA,incomplete,false,NA,true,5,0,NA,NA,NA,left,absent,NA,NA,m_s_036.jpg,red,m_s_091.jpg,red,within,NA,NaN,NA,left,2948.100000143051,1,1,2646.9000000953674
PQwvegSM,3o4vwc1gfzjxgki2d88xs18tr9fj3v,3aajc4i4fk50oxnpph88lm908mozjb,PQwvegSM,2020-0188,2021-10-14,09:55:42,12:07:24,NA,incomplete,false,NA,true,5,1,NA,NA,NA,left,absent,NA,NA,m_s_105.jpg,purple,n_l_109.jpg,purple,within,NA,NaN,NA,right,4947.5,0,1,1997.2000000476837
PQwvegSM,3o4vwc1gfzjxgki2d88xs18tr9fj3v,3aajc4i4fk50oxnpph88lm908mozjb,PQwvegSM,2020-0188,2021-10-14,09:55:42,12:07:24,NA,incomplete,false,NA,true,5,2,NA,NA,NA,left,absent,NA,NA,n_l_004.jpg,purple,m_s_040.jpg,brown,between,NA,NaN,NA,left,5393.400000095367,1,1,1777.6999998092651
PQwvegSM,3o4vwc1gfzjxgki2d88xs18tr9fj3v,3aajc4i4fk50oxnpph88lm908mozjb,PQwvegSM,2020-0188,2021-10-14,09:55:42,12:07:24,NA,incomplete,false,NA,true,5,3,NA,NA,NA,right,absent,NA,NA,m_l_024.jpg,brown,n_s_094.jpg,brown,within,NA,NaN,NA,right,1827.8999998569489,1,1,1867.5
PQwvegSM,3o4vwc1gfzjxgki2d88xs18tr9fj3v,3aajc4i4fk50oxnpph88lm908mozjb,PQwvegSM,2020-0188,2021-10-14,09:55:42,12:07:24,NA,incomplete,false,NA,true,5,4,NA,NA,NA,right,absent,NA,NA,m_l_014.jpg,black,m_l_039.jpg,black,within,NA,NaN,NA,right,1771.5,1,1,1541.5999999046326
PQwvegSM,3o4vwc1gfzjxgki2d88xs18tr9fj3v,3aajc4i4fk50oxnpph88lm908mozjb,PQwvegSM,2020-0188,2021-10-14,09:55:42,12:07:24,NA,incomplete,false,NA,true,5,5,NA,NA,NA,left,absent,NA,NA,m_l_049.jpg,orange,m_s_117.jpg,orange,within,NA,NaN,NA,right,4753.400000095367,0,1,1991.8000001907349
PQwvegSM,3o4vwc1gfzjxgki2d88xs18tr9fj3v,3aajc4i4fk50oxnpph88lm908mozjb,PQwvegSM,2020-0188,2021-10-14,09:55:42,12:07:24,NA,incomplete,false,NA,true,5,6,NA,NA,NA,left,absent,NA,NA,n_l_005.jpg,brown,m_l_056.jpg,red,between,NA,NaN,NA,right,2217.7999999523163,0,1,2037.3000001907349
PQwvegSM,3o4vwc1gfzjxgki2d88xs18tr9fj3v,3aajc4i4fk50oxnpph88lm908mozjb,PQwvegSM,2020-0188,2021-10-14,09:55:42,12:07:24,NA,incomplete,false,NA,true,5,7,NA,NA,NA,right,absent,NA,NA,m_l_086.jpg,blue,n_l_056.jpg,red,between,NA,NaN,NA,right,2872.5999999046326,1,1,1986.2999999523163
PQwvegSM,3o4vwc1gfzjxgki2d88xs18tr9fj3v,3aajc4i4fk50oxnpph88lm908mozjb,PQwvegSM,2020-0188,2021-10-14,09:55:42,12:07:24,NA,incomplete,false,NA,true,5,8,NA,NA,NA,left,absent,NA,NA,n_s_100.jpg,orange,m_l_083.jpg,purple,between,NA,NaN,NA,right,1767.5,0,1,1937
PQwvegSM,3o4vwc1gfzjxgki2d88xs18tr9fj3v,3aajc4i4fk50oxnpph88lm908mozjb,PQwvegSM,2020-0188,2021-10-14,09:55:42,12:07:24,NA,incomplete,false,NA,true,5,9,NA,NA,NA,right,absent,NA,NA,n_l_032.jpg,black,m_l_028.jpg,blue,between,NA,NaN,NA,right,1577.5999999046326,1,1,1523
PQwvegSM,3o4vwc1gfzjxgki2d88xs18tr9fj3v,3aajc4i4fk50oxnpph88lm908mozjb,PQwvegSM,2020-0188,2021-10-14,09:55:42,12:07:24,NA,incomplete,false,NA,true,5,10,NA,NA,NA,left,absent,NA,NA,n_l_003.jpg,blue,n_l_023.jpg,blue,within,NA,NaN,NA,left,3889.300000190735,1,1,2040.5999999046326
PQwvegSM,3o4vwc1gfzjxgki2d88xs18tr9fj3v,3aajc4i4fk50oxnpph88lm908mozjb,PQwvegSM,2020-0188,2021-10-14,09:55:42,12:07:24,NA,incomplete,false,true,NA,6,0,NA,black,n_s_101.jpg,NA,NA,unpleasant,pleasant,NA,NA,NA,NA,NA,right,2180.20000004768,true,NA,NA,NA,NA,NA
PQwvegSM,3o4vwc1gfzjxgki2d88xs18tr9fj3v,3aajc4i4fk50oxnpph88lm908mozjb,PQwvegSM,2020-0188,2021-10-14,09:55:42,12:07:24,NA,incomplete,false,true,NA,6,1,NA,black,n_s_064.jpg,NA,NA,unpleasant,pleasant,NA,NA,NA,NA,NA,right,259.299999952316,true,NA,NA,NA,NA,NA
PQwvegSM,3o4vwc1gfzjxgki2d88xs18tr9fj3v,3aajc4i4fk50oxnpph88lm908mozjb,PQwvegSM,2020-0188,2021-10-14,09:55:42,12:07:24,NA,incomplete,false,true,NA,6,2,NA,black,m_s_083.jpg,NA,NA,pleasant,unpleasant,NA,NA,NA,NA,NA,right,964.100000143051,true,NA,NA,NA,NA,NA
PQwvegSM,3o4vwc1gfzjxgki2d88xs18tr9fj3v,3aajc4i4fk50oxnpph88lm908mozjb,PQwvegSM,2020-0188,2021-10-14,09:55:42,12:07:24,NA,incomplete,false,true,NA,6,3,NA,black,m_l_005.jpg,NA,NA,unpleasant,pleasant,NA,NA,NA,NA,NA,right,2766,true,NA,NA,NA,NA,NA
PQwvegSM,3o4vwc1gfzjxgki2d88xs18tr9fj3v,3aajc4i4fk50oxnpph88lm908mozjb,PQwvegSM,2020-0188,2021-10-14,09:55:42,12:07:24,NA,incomplete,false,true,NA,6,4,NA,black,m_l_011.jpg,NA,NA,pleasant,unpleasant,NA,NA,NA,NA,NA,right,1562.79999995232,true,NA,NA,NA,NA,NA
PQwvegSM,3o4vwc1gfzjxgki2d88xs18tr9fj3v,3aajc4i4fk50oxnpph88lm908mozjb,PQwvegSM,2020-0188,2021-10-14,09:55:42,12:07:24,NA,incomplete,false,true,NA,6,5,NA,black,m_l_076.jpg,NA,NA,pleasant,unpleasant,NA,NA,NA,NA,NA,right,461,true,NA,NA,NA,NA,NA
PQwvegSM,3o4vwc1gfzjxgki2d88xs18tr9fj3v,3aajc4i4fk50oxnpph88lm908mozjb,PQwvegSM,2020-0188,2021-10-14,09:55:42,12:07:24,NA,incomplete,false,true,NA,6,6,NA,green,n_l_103.jpg,NA,NA,pleasant,unpleasant,NA,NA,NA,NA,NA,right,3124.79999995232,true,NA,NA,NA,NA,NA
PQwvegSM,3o4vwc1gfzjxgki2d88xs18tr9fj3v,3aajc4i4fk50oxnpph88lm908mozjb,PQwvegSM,2020-0188,2021-10-14,09:55:42,12:07:24,NA,incomplete,false,true,NA,6,7,NA,green,m_s_111.jpg,NA,NA,pleasant,unpleasant,NA,NA,NA,NA,NA,none,0,false,NA,NA,NA,NA,NA
PQwvegSM,3o4vwc1gfzjxgki2d88xs18tr9fj3v,3aajc4i4fk50oxnpph88lm908mozjb,PQwvegSM,2020-0188,2021-10-14,09:55:42,12:07:24,NA,incomplete,false,true,NA,6,8,NA,green,n_l_037.jpg,NA,NA,pleasant,unpleasant,NA,NA,NA,NA,NA,right,2303.10000014305,true,NA,NA,NA,NA,NA
PQwvegSM,3o4vwc1gfzjxgki2d88xs18tr9fj3v,3aajc4i4fk50oxnpph88lm908mozjb,PQwvegSM,2020-0188,2021-10-14,09:55:42,12:07:24,NA,incomplete,false,true,NA,6,9,NA,green,m_s_106.jpg,NA,NA,unpleasant,pleasant,NA,NA,NA,NA,NA,right,2433.59999990463,true,NA,NA,NA,NA,NA
PQwvegSM,3o4vwc1gfzjxgki2d88xs18tr9fj3v,3aajc4i4fk50oxnpph88lm908mozjb,PQwvegSM,2020-0188,2021-10-14,09:55:42,12:07:24,NA,incomplete,false,true,NA,6,10,NA,green,n_l_060.jpg,NA,NA,pleasant,unpleasant,NA,NA,NA,NA,NA,right,1130.70000004768,true,NA,NA,NA,NA,NA
PQwvegSM,3o4vwc1gfzjxgki2d88xs18tr9fj3v,3aajc4i4fk50oxnpph88lm908mozjb,PQwvegSM,2020-0188,2021-10-14,09:55:42,12:07:24,NA,incomplete,false,true,NA,6,11,NA,green,m_s_062.jpg,NA,NA,unpleasant,pleasant,NA,NA,NA,NA,NA,right,165.299999952316,true,NA,NA,NA,NA,NA
PQwvegSM,3o4vwc1gfzjxgki2d88xs18tr9fj3v,3aajc4i4fk50oxnpph88lm908mozjb,PQwvegSM,2020-0188,2021-10-14,09:55:42,12:07:24,NA,incomplete,false,true,NA,6,12,NA,gray,m_l_077.jpg,NA,NA,unpleasant,pleasant,NA,NA,NA,NA,NA,right,306.100000143051,true,NA,NA,NA,NA,NA
PQwvegSM,3o4vwc1gfzjxgki2d88xs18tr9fj3v,3aajc4i4fk50oxnpph88lm908mozjb,PQwvegSM,2020-0188,2021-10-14,09:55:42,12:07:24,NA,incomplete,false,true,NA,6,13,NA,gray,n_s_046.jpg,NA,NA,unpleasant,pleasant,NA,NA,NA,NA,NA,right,1409.90000009537,true,NA,NA,NA,NA,NA
PQwvegSM,3o4vwc1gfzjxgki2d88xs18tr9fj3v,3aajc4i4fk50oxnpph88lm908mozjb,PQwvegSM,2020-0188,2021-10-14,09:55:42,12:07:24,NA,incomplete,false,true,NA,6,14,NA,gray,m_s_001.jpg,NA,NA,pleasant,unpleasant,NA,NA,NA,NA,NA,right,1537.39999985695,true,NA,NA,NA,NA,NA
PQwvegSM,3o4vwc1gfzjxgki2d88xs18tr9fj3v,3aajc4i4fk50oxnpph88lm908mozjb,PQwvegSM,2020-0188,2021-10-14,09:55:42,12:07:24,NA,incomplete,false,true,NA,6,15,NA,gray,m_l_094.jpg,NA,NA,pleasant,unpleasant,NA,NA,NA,NA,NA,right,49.7000000476837,true,NA,NA,NA,NA,NA
PQwvegSM,3o4vwc1gfzjxgki2d88xs18tr9fj3v,3aajc4i4fk50oxnpph88lm908mozjb,PQwvegSM,2020-0188,2021-10-14,09:55:42,12:07:24,NA,incomplete,false,true,NA,6,16,NA,gray,n_l_072.jpg,NA,NA,pleasant,unpleasant,NA,NA,NA,NA,NA,right,565.799999952316,true,NA,NA,NA,NA,NA
PQwvegSM,3o4vwc1gfzjxgki2d88xs18tr9fj3v,3aajc4i4fk50oxnpph88lm908mozjb,PQwvegSM,2020-0188,2021-10-14,09:55:42,12:07:24,NA,incomplete,false,true,NA,6,17,NA,gray,m_s_031.jpg,NA,NA,unpleasant,pleasant,NA,NA,NA,NA,NA,right,538.200000047684,true,NA,NA,NA,NA,NA
PQwvegSM,3o4vwc1gfzjxgki2d88xs18tr9fj3v,3aajc4i4fk50oxnpph88lm908mozjb,PQwvegSM,2020-0188,2021-10-14,09:55:42,12:07:24,NA,incomplete,false,true,NA,6,18,NA,white,n_l_074.jpg,NA,NA,pleasant,unpleasant,NA,NA,NA,NA,NA,right,1049,true,NA,NA,NA,NA,NA
PQwvegSM,3o4vwc1gfzjxgki2d88xs18tr9fj3v,3aajc4i4fk50oxnpph88lm908mozjb,PQwvegSM,2020-0188,2021-10-14,09:55:42,12:07:24,NA,incomplete,false,true,NA,6,19,NA,white,n_l_113.jpg,NA,NA,unpleasant,pleasant,NA,NA,NA,NA,NA,right,44,true,NA,NA,NA,NA,NA
PQwvegSM,3o4vwc1gfzjxgki2d88xs18tr9fj3v,3aajc4i4fk50oxnpph88lm908mozjb,PQwvegSM,2020-0188,2021-10-14,09:55:42,12:07:24,NA,incomplete,false,true,NA,6,20,NA,white,m_s_048.jpg,NA,NA,unpleasant,pleasant,NA,NA,NA,NA,NA,right,2934.29999995232,true,NA,NA,NA,NA,NA
PQwvegSM,3o4vwc1gfzjxgki2d88xs18tr9fj3v,3aajc4i4fk50oxnpph88lm908mozjb,PQwvegSM,2020-0188,2021-10-14,09:55:42,12:07:24,NA,incomplete,false,true,NA,6,21,NA,white,m_l_063.jpg,NA,NA,pleasant,unpleasant,NA,NA,NA,NA,NA,right,177.600000143051,true,NA,NA,NA,NA,NA
PQwvegSM,3o4vwc1gfzjxgki2d88xs18tr9fj3v,3aajc4i4fk50oxnpph88lm908mozjb,PQwvegSM,2020-0188,2021-10-14,09:55:42,12:07:24,NA,incomplete,false,true,NA,6,22,NA,white,m_l_092.jpg,NA,NA,pleasant,unpleasant,NA,NA,NA,NA,NA,right,2001.39999985695,true,NA,NA,NA,NA,NA
PQwvegSM,3o4vwc1gfzjxgki2d88xs18tr9fj3v,3aajc4i4fk50oxnpph88lm908mozjb,PQwvegSM,2020-0188,2021-10-14,09:55:42,12:07:24,NA,incomplete,false,true,NA,6,23,NA,white,n_l_027.jpg,NA,NA,pleasant,unpleasant,NA,NA,NA,NA,NA,right,166.100000143051,true,NA,NA,NA,NA,NA
PQwvegSM,3o4vwc1gfzjxgki2d88xs18tr9fj3v,3aajc4i4fk50oxnpph88lm908mozjb,PQwvegSM,2020-0188,2021-10-14,09:55:42,12:07:24,NA,incomplete,false,true,NA,6,24,NA,brown,m_s_030.jpg,NA,NA,unpleasant,pleasant,NA,NA,NA,NA,NA,right,1716.30000019073,true,NA,NA,NA,NA,NA
PQwvegSM,3o4vwc1gfzjxgki2d88xs18tr9fj3v,3aajc4i4fk50oxnpph88lm908mozjb,PQwvegSM,2020-0188,2021-10-14,09:55:42,12:07:24,NA,incomplete,false,true,NA,6,25,NA,brown,m_l_046.jpg,NA,NA,unpleasant,pleasant,NA,NA,NA,NA,NA,right,880.200000047684,true,NA,NA,NA,NA,NA
PQwvegSM,3o4vwc1gfzjxgki2d88xs18tr9fj3v,3aajc4i4fk50oxnpph88lm908mozjb,PQwvegSM,2020-0188,2021-10-14,09:55:42,12:07:24,NA,incomplete,false,true,NA,6,26,NA,brown,n_l_104.jpg,NA,NA,pleasant,unpleasant,NA,NA,NA,NA,NA,right,1926.5,true,NA,NA,NA,NA,NA
PQwvegSM,3o4vwc1gfzjxgki2d88xs18tr9fj3v,3aajc4i4fk50oxnpph88lm908mozjb,PQwvegSM,2020-0188,2021-10-14,09:55:42,12:07:24,NA,incomplete,false,true,NA,6,27,NA,brown,m_s_006.jpg,NA,NA,unpleasant,pleasant,NA,NA,NA,NA,NA,right,1561.79999995232,true,NA,NA,NA,NA,NA
PQwvegSM,3o4vwc1gfzjxgki2d88xs18tr9fj3v,3aajc4i4fk50oxnpph88lm908mozjb,PQwvegSM,2020-0188,2021-10-14,09:55:42,12:07:24,NA,incomplete,false,true,NA,6,28,NA,brown,n_l_042.jpg,NA,NA,pleasant,unpleasant,NA,NA,NA,NA,NA,right,1328.29999995232,true,NA,NA,NA,NA,NA
PQwvegSM,3o4vwc1gfzjxgki2d88xs18tr9fj3v,3aajc4i4fk50oxnpph88lm908mozjb,PQwvegSM,2020-0188,2021-10-14,09:55:42,12:07:24,NA,incomplete,false,true,NA,6,29,NA,brown,n_s_023.jpg,NA,NA,unpleasant,pleasant,NA,NA,NA,NA,NA,none,0,false,NA,NA,NA,NA,NA
PQwvegSM,3o4vwc1gfzjxgki2d88xs18tr9fj3v,3aajc4i4fk50oxnpph88lm908mozjb,PQwvegSM,2020-0188,2021-10-14,09:55:42,12:07:24,NA,incomplete,false,true,NA,6,30,NA,purple,n_s_097.jpg,NA,NA,unpleasant,pleasant,NA,NA,NA,NA,NA,right,3080.70000004768,true,NA,NA,NA,NA,NA
PQwvegSM,3o4vwc1gfzjxgki2d88xs18tr9fj3v,3aajc4i4fk50oxnpph88lm908mozjb,PQwvegSM,2020-0188,2021-10-14,09:55:42,12:07:24,NA,incomplete,false,true,NA,6,31,NA,purple,m_s_084.jpg,NA,NA,unpleasant,pleasant,NA,NA,NA,NA,NA,none,0,false,NA,NA,NA,NA,NA
PQwvegSM,3o4vwc1gfzjxgki2d88xs18tr9fj3v,3aajc4i4fk50oxnpph88lm908mozjb,PQwvegSM,2020-0188,2021-10-14,09:55:42,12:07:24,NA,incomplete,false,true,NA,6,32,NA,purple,m_s_090.jpg,NA,NA,unpleasant,pleasant,NA,NA,NA,NA,NA,none,0,false,NA,NA,NA,NA,NA
PQwvegSM,3o4vwc1gfzjxgki2d88xs18tr9fj3v,3aajc4i4fk50oxnpph88lm908mozjb,PQwvegSM,2020-0188,2021-10-14,09:55:42,12:07:24,NA,incomplete,false,true,NA,6,33,NA,purple,n_s_020.jpg,NA,NA,unpleasant,pleasant,NA,NA,NA,NA,NA,left,1959,true,NA,NA,NA,NA,NA
PQwvegSM,3o4vwc1gfzjxgki2d88xs18tr9fj3v,3aajc4i4fk50oxnpph88lm908mozjb,PQwvegSM,2020-0188,2021-10-14,09:55:42,12:07:24,NA,incomplete,false,true,NA,6,34,NA,purple,n_l_014.jpg,NA,NA,unpleasant,pleasant,NA,NA,NA,NA,NA,right,760.400000095367,true,NA,NA,NA,NA,NA
PQwvegSM,3o4vwc1gfzjxgki2d88xs18tr9fj3v,3aajc4i4fk50oxnpph88lm908mozjb,PQwvegSM,2020-0188,2021-10-14,09:55:42,12:07:24,NA,incomplete,false,true,NA,6,35,NA,purple,n_l_114.jpg,NA,NA,pleasant,unpleasant,NA,NA,NA,NA,NA,none,0,false,NA,NA,NA,NA,NA
PQwvegSM,3o4vwc1gfzjxgki2d88xs18tr9fj3v,3aajc4i4fk50oxnpph88lm908mozjb,PQwvegSM,2020-0188,2021-10-14,09:55:42,12:07:24,NA,incomplete,false,NA,true,6,0,NA,NA,NA,right,absent,NA,NA,n_l_114.jpg,purple,m_s_084.jpg,purple,within,NA,NaN,NA,left,3016,0,1,2233.5999999046326
PQwvegSM,3o4vwc1gfzjxgki2d88xs18tr9fj3v,3aajc4i4fk50oxnpph88lm908mozjb,PQwvegSM,2020-0188,2021-10-14,09:55:42,12:07:24,NA,incomplete,false,NA,true,6,1,NA,NA,NA,right,absent,NA,NA,m_s_048.jpg,white,n_l_072.jpg,gray,between,NA,NaN,NA,right,2712.7000000476837,1,1,2167
PQwvegSM,3o4vwc1gfzjxgki2d88xs18tr9fj3v,3aajc4i4fk50oxnpph88lm908mozjb,PQwvegSM,2020-0188,2021-10-14,09:55:42,12:07:24,NA,incomplete,false,NA,true,6,2,NA,NA,NA,right,absent,NA,NA,n_l_037.jpg,green,m_l_011.jpg,black,between,NA,NaN,NA,right,4967.200000047684,1,1,2332.7000000476837
PQwvegSM,3o4vwc1gfzjxgki2d88xs18tr9fj3v,3aajc4i4fk50oxnpph88lm908mozjb,PQwvegSM,2020-0188,2021-10-14,09:55:42,12:07:24,NA,incomplete,false,NA,true,6,3,NA,NA,NA,left,absent,NA,NA,m_l_046.jpg,brown,n_s_023.jpg,brown,within,NA,NaN,NA,right,2755.2999999523163,0,1,1657.7999999523163
PQwvegSM,3o4vwc1gfzjxgki2d88xs18tr9fj3v,3aajc4i4fk50oxnpph88lm908mozjb,PQwvegSM,2020-0188,2021-10-14,09:55:42,12:07:24,NA,incomplete,false,NA,true,6,4,NA,NA,NA,right,absent,NA,NA,m_s_001.jpg,gray,n_l_060.jpg,green,between,NA,NaN,NA,left,14529.700000047684,0,1,2255.5
PQwvegSM,3o4vwc1gfzjxgki2d88xs18tr9fj3v,3aajc4i4fk50oxnpph88lm908mozjb,PQwvegSM,2020-0188,2021-10-14,09:55:42,12:07:24,NA,incomplete,false,NA,true,6,5,NA,NA,NA,left,absent,NA,NA,n_l_113.jpg,white,n_l_027.jpg,white,within,NA,NaN,NA,left,3811.7999999523163,1,1,2258
PQwvegSM,3o4vwc1gfzjxgki2d88xs18tr9fj3v,3aajc4i4fk50oxnpph88lm908mozjb,PQwvegSM,2020-0188,2021-10-14,09:55:42,12:07:24,NA,incomplete,false,NA,true,6,6,NA,NA,NA,left,absent,NA,NA,m_l_092.jpg,white,n_l_104.jpg,brown,between,NA,NaN,NA,right,4090.4000000953674,0,1,2465.2999999523163
PQwvegSM,3o4vwc1gfzjxgki2d88xs18tr9fj3v,3aajc4i4fk50oxnpph88lm908mozjb,PQwvegSM,2020-0188,2021-10-14,09:55:42,12:07:24,NA,incomplete,false,NA,true,6,7,NA,NA,NA,left,absent,NA,NA,n_l_042.jpg,brown,m_s_090.jpg,purple,between,NA,NaN,NA,right,11746.300000190735,0,1,5752.5
PQwvegSM,3o4vwc1gfzjxgki2d88xs18tr9fj3v,3aajc4i4fk50oxnpph88lm908mozjb,PQwvegSM,2020-0188,2021-10-14,09:55:42,12:07:24,NA,incomplete,false,NA,true,6,8,NA,NA,NA,left,absent,NA,NA,m_s_111.jpg,green,m_s_062.jpg,green,within,NA,NaN,NA,right,2969.5999999046326,0,1,2348.699999809265
PQwvegSM,3o4vwc1gfzjxgki2d88xs18tr9fj3v,3aajc4i4fk50oxnpph88lm908mozjb,PQwvegSM,2020-0188,2021-10-14,09:55:42,12:07:24,NA,incomplete,false,NA,true,6,9,NA,NA,NA,right,absent,NA,NA,m_l_076.jpg,black,n_s_064.jpg,black,within,NA,NaN,NA,right,6528.900000095367,1,1,3402.7999999523163
PQwvegSM,3o4vwc1gfzjxgki2d88xs18tr9fj3v,3aajc4i4fk50oxnpph88lm908mozjb,PQwvegSM,2020-0188,2021-10-14,09:55:42,12:07:24,NA,incomplete,false,NA,true,6,10,NA,NA,NA,left,absent,NA,NA,n_s_046.jpg,gray,m_s_031.jpg,gray,within,NA,NaN,NA,left,4088.9000000953674,1,1,3095.5999999046326
PQwvegSM,3o4vwc1gfzjxgki2d88xs18tr9fj3v,3aajc4i4fk50oxnpph88lm908mozjb,PQwvegSM,2020-0188,2021-10-14,09:55:42,12:07:24,NA,incomplete,false,true,NA,7,0,NA,orange,m_l_021.jpg,NA,NA,pleasant,unpleasant,NA,NA,NA,NA,NA,right,3138.5,true,NA,NA,NA,NA,NA
PQwvegSM,3o4vwc1gfzjxgki2d88xs18tr9fj3v,3aajc4i4fk50oxnpph88lm908mozjb,PQwvegSM,2020-0188,2021-10-14,09:55:42,12:07:24,NA,incomplete,false,true,NA,7,1,NA,orange,n_l_039.jpg,NA,NA,pleasant,unpleasant,NA,NA,NA,NA,NA,right,321.5,true,NA,NA,NA,NA,NA
PQwvegSM,3o4vwc1gfzjxgki2d88xs18tr9fj3v,3aajc4i4fk50oxnpph88lm908mozjb,PQwvegSM,2020-0188,2021-10-14,09:55:42,12:07:24,NA,incomplete,false,true,NA,7,2,NA,orange,m_l_089.jpg,NA,NA,unpleasant,pleasant,NA,NA,NA,NA,NA,right,567.100000143051,true,NA,NA,NA,NA,NA
PQwvegSM,3o4vwc1gfzjxgki2d88xs18tr9fj3v,3aajc4i4fk50oxnpph88lm908mozjb,PQwvegSM,2020-0188,2021-10-14,09:55:42,12:07:24,NA,incomplete,false,true,NA,7,3,NA,orange,m_l_040.jpg,NA,NA,pleasant,unpleasant,NA,NA,NA,NA,NA,none,0,false,NA,NA,NA,NA,NA
PQwvegSM,3o4vwc1gfzjxgki2d88xs18tr9fj3v,3aajc4i4fk50oxnpph88lm908mozjb,PQwvegSM,2020-0188,2021-10-14,09:55:42,12:07:24,NA,incomplete,false,true,NA,7,4,NA,orange,n_l_049.jpg,NA,NA,pleasant,unpleasant,NA,NA,NA,NA,NA,right,1186.90000009537,true,NA,NA,NA,NA,NA
PQwvegSM,3o4vwc1gfzjxgki2d88xs18tr9fj3v,3aajc4i4fk50oxnpph88lm908mozjb,PQwvegSM,2020-0188,2021-10-14,09:55:42,12:07:24,NA,incomplete,false,true,NA,7,5,NA,orange,m_l_071.jpg,NA,NA,pleasant,unpleasant,NA,NA,NA,NA,NA,right,1671.5,true,NA,NA,NA,NA,NA
PQwvegSM,3o4vwc1gfzjxgki2d88xs18tr9fj3v,3aajc4i4fk50oxnpph88lm908mozjb,PQwvegSM,2020-0188,2021-10-14,09:55:42,12:07:24,NA,incomplete,false,true,NA,7,6,NA,purple,n_l_016.jpg,NA,NA,pleasant,unpleasant,NA,NA,NA,NA,NA,none,0,false,NA,NA,NA,NA,NA
PQwvegSM,3o4vwc1gfzjxgki2d88xs18tr9fj3v,3aajc4i4fk50oxnpph88lm908mozjb,PQwvegSM,2020-0188,2021-10-14,09:55:42,12:07:24,NA,incomplete,false,true,NA,7,7,NA,purple,n_s_019.jpg,NA,NA,pleasant,unpleasant,NA,NA,NA,NA,NA,none,0,false,NA,NA,NA,NA,NA
PQwvegSM,3o4vwc1gfzjxgki2d88xs18tr9fj3v,3aajc4i4fk50oxnpph88lm908mozjb,PQwvegSM,2020-0188,2021-10-14,09:55:42,12:07:24,NA,incomplete,false,true,NA,7,8,NA,purple,n_s_110.jpg,NA,NA,unpleasant,pleasant,NA,NA,NA,NA,NA,right,2443.70000004768,true,NA,NA,NA,NA,NA
PQwvegSM,3o4vwc1gfzjxgki2d88xs18tr9fj3v,3aajc4i4fk50oxnpph88lm908mozjb,PQwvegSM,2020-0188,2021-10-14,09:55:42,12:07:24,NA,incomplete,false,true,NA,7,9,NA,purple,n_s_011.jpg,NA,NA,unpleasant,pleasant,NA,NA,NA,NA,NA,right,1585.70000004768,true,NA,NA,NA,NA,NA
PQwvegSM,3o4vwc1gfzjxgki2d88xs18tr9fj3v,3aajc4i4fk50oxnpph88lm908mozjb,PQwvegSM,2020-0188,2021-10-14,09:55:42,12:07:24,NA,incomplete,false,true,NA,7,10,NA,purple,n_s_043.jpg,NA,NA,pleasant,unpleasant,NA,NA,NA,NA,NA,right,3483.29999995232,true,NA,NA,NA,NA,NA
PQwvegSM,3o4vwc1gfzjxgki2d88xs18tr9fj3v,3aajc4i4fk50oxnpph88lm908mozjb,PQwvegSM,2020-0188,2021-10-14,09:55:42,12:07:24,NA,incomplete,false,true,NA,7,11,NA,purple,m_s_020.jpg,NA,NA,unpleasant,pleasant,NA,NA,NA,NA,NA,right,1228.60000014305,true,NA,NA,NA,NA,NA
PQwvegSM,3o4vwc1gfzjxgki2d88xs18tr9fj3v,3aajc4i4fk50oxnpph88lm908mozjb,PQwvegSM,2020-0188,2021-10-14,09:55:42,12:07:24,NA,incomplete,false,true,NA,7,12,NA,white,m_s_102.jpg,NA,NA,pleasant,unpleasant,NA,NA,NA,NA,NA,right,2446.29999995232,true,NA,NA,NA,NA,NA
PQwvegSM,3o4vwc1gfzjxgki2d88xs18tr9fj3v,3aajc4i4fk50oxnpph88lm908mozjb,PQwvegSM,2020-0188,2021-10-14,09:55:42,12:07:24,NA,incomplete,false,true,NA,7,13,NA,white,n_s_067.jpg,NA,NA,pleasant,unpleasant,NA,NA,NA,NA,NA,right,2594.79999995232,true,NA,NA,NA,NA,NA
PQwvegSM,3o4vwc1gfzjxgki2d88xs18tr9fj3v,3aajc4i4fk50oxnpph88lm908mozjb,PQwvegSM,2020-0188,2021-10-14,09:55:42,12:07:24,NA,incomplete,false,true,NA,7,14,NA,white,m_s_064.jpg,NA,NA,pleasant,unpleasant,NA,NA,NA,NA,NA,right,2490.89999985695,true,NA,NA,NA,NA,NA
PQwvegSM,3o4vwc1gfzjxgki2d88xs18tr9fj3v,3aajc4i4fk50oxnpph88lm908mozjb,PQwvegSM,2020-0188,2021-10-14,09:55:42,12:07:24,NA,incomplete,false,true,NA,7,15,NA,white,n_s_092.jpg,NA,NA,pleasant,unpleasant,NA,NA,NA,NA,NA,right,1945.29999995232,true,NA,NA,NA,NA,NA
PQwvegSM,3o4vwc1gfzjxgki2d88xs18tr9fj3v,3aajc4i4fk50oxnpph88lm908mozjb,PQwvegSM,2020-0188,2021-10-14,09:55:42,12:07:24,NA,incomplete,false,true,NA,7,16,NA,white,m_s_110.jpg,NA,NA,pleasant,unpleasant,NA,NA,NA,NA,NA,right,630.799999952316,true,NA,NA,NA,NA,NA
PQwvegSM,3o4vwc1gfzjxgki2d88xs18tr9fj3v,3aajc4i4fk50oxnpph88lm908mozjb,PQwvegSM,2020-0188,2021-10-14,09:55:42,12:07:24,NA,incomplete,false,true,NA,7,17,NA,white,n_s_029.jpg,NA,NA,unpleasant,pleasant,NA,NA,NA,NA,NA,none,0,false,NA,NA,NA,NA,NA
PQwvegSM,3o4vwc1gfzjxgki2d88xs18tr9fj3v,3aajc4i4fk50oxnpph88lm908mozjb,PQwvegSM,2020-0188,2021-10-14,09:55:42,12:07:24,NA,incomplete,false,true,NA,7,18,NA,gray,m_l_003.jpg,NA,NA,unpleasant,pleasant,NA,NA,NA,NA,NA,right,1579.89999985695,true,NA,NA,NA,NA,NA
PQwvegSM,3o4vwc1gfzjxgki2d88xs18tr9fj3v,3aajc4i4fk50oxnpph88lm908mozjb,PQwvegSM,2020-0188,2021-10-14,09:55:42,12:07:24,NA,incomplete,false,true,NA,7,19,NA,gray,n_s_008.jpg,NA,NA,unpleasant,pleasant,NA,NA,NA,NA,NA,right,791,true,NA,NA,NA,NA,NA
PQwvegSM,3o4vwc1gfzjxgki2d88xs18tr9fj3v,3aajc4i4fk50oxnpph88lm908mozjb,PQwvegSM,2020-0188,2021-10-14,09:55:42,12:07:24,NA,incomplete,false,true,NA,7,20,NA,gray,n_s_025.jpg,NA,NA,unpleasant,pleasant,NA,NA,NA,NA,NA,right,135,true,NA,NA,NA,NA,NA
PQwvegSM,3o4vwc1gfzjxgki2d88xs18tr9fj3v,3aajc4i4fk50oxnpph88lm908mozjb,PQwvegSM,2020-0188,2021-10-14,09:55:42,12:07:24,NA,incomplete,false,true,NA,7,21,NA,gray,n_s_024.jpg,NA,NA,pleasant,unpleasant,NA,NA,NA,NA,NA,none,0,false,NA,NA,NA,NA,NA
PQwvegSM,3o4vwc1gfzjxgki2d88xs18tr9fj3v,3aajc4i4fk50oxnpph88lm908mozjb,PQwvegSM,2020-0188,2021-10-14,09:55:42,12:07:24,NA,incomplete,false,true,NA,7,22,NA,gray,m_l_079.jpg,NA,NA,unpleasant,pleasant,NA,NA,NA,NA,NA,right,1248.90000009537,true,NA,NA,NA,NA,NA
PQwvegSM,3o4vwc1gfzjxgki2d88xs18tr9fj3v,3aajc4i4fk50oxnpph88lm908mozjb,PQwvegSM,2020-0188,2021-10-14,09:55:42,12:07:24,NA,incomplete,false,true,NA,7,23,NA,gray,m_s_089.jpg,NA,NA,unpleasant,pleasant,NA,NA,NA,NA,NA,right,3229.39999985695,true,NA,NA,NA,NA,NA
PQwvegSM,3o4vwc1gfzjxgki2d88xs18tr9fj3v,3aajc4i4fk50oxnpph88lm908mozjb,PQwvegSM,2020-0188,2021-10-14,09:55:42,12:07:24,NA,incomplete,false,true,NA,7,24,NA,red,n_s_098.jpg,NA,NA,pleasant,unpleasant,NA,NA,NA,NA,NA,right,1139.79999995232,true,NA,NA,NA,NA,NA
PQwvegSM,3o4vwc1gfzjxgki2d88xs18tr9fj3v,3aajc4i4fk50oxnpph88lm908mozjb,PQwvegSM,2020-0188,2021-10-14,09:55:42,12:07:24,NA,incomplete,false,true,NA,7,25,NA,red,m_l_093.jpg,NA,NA,unpleasant,pleasant,NA,NA,NA,NA,NA,right,1565.29999995232,true,NA,NA,NA,NA,NA
PQwvegSM,3o4vwc1gfzjxgki2d88xs18tr9fj3v,3aajc4i4fk50oxnpph88lm908mozjb,PQwvegSM,2020-0188,2021-10-14,09:55:42,12:07:24,NA,incomplete,false,true,NA,7,26,NA,red,m_l_084.jpg,NA,NA,unpleasant,pleasant,NA,NA,NA,NA,NA,right,72.5999999046326,true,NA,NA,NA,NA,NA
PQwvegSM,3o4vwc1gfzjxgki2d88xs18tr9fj3v,3aajc4i4fk50oxnpph88lm908mozjb,PQwvegSM,2020-0188,2021-10-14,09:55:42,12:07:24,NA,incomplete,false,true,NA,7,27,NA,red,n_l_077.jpg,NA,NA,unpleasant,pleasant,NA,NA,NA,NA,NA,right,3431.59999990463,true,NA,NA,NA,NA,NA
PQwvegSM,3o4vwc1gfzjxgki2d88xs18tr9fj3v,3aajc4i4fk50oxnpph88lm908mozjb,PQwvegSM,2020-0188,2021-10-14,09:55:42,12:07:24,NA,incomplete,false,true,NA,7,28,NA,red,m_s_115.jpg,NA,NA,pleasant,unpleasant,NA,NA,NA,NA,NA,right,167.099999904633,true,NA,NA,NA,NA,NA
PQwvegSM,3o4vwc1gfzjxgki2d88xs18tr9fj3v,3aajc4i4fk50oxnpph88lm908mozjb,PQwvegSM,2020-0188,2021-10-14,09:55:42,12:07:24,NA,incomplete,false,true,NA,7,29,NA,red,n_s_057.jpg,NA,NA,unpleasant,pleasant,NA,NA,NA,NA,NA,none,0,false,NA,NA,NA,NA,NA
PQwvegSM,3o4vwc1gfzjxgki2d88xs18tr9fj3v,3aajc4i4fk50oxnpph88lm908mozjb,PQwvegSM,2020-0188,2021-10-14,09:55:42,12:07:24,NA,incomplete,false,true,NA,7,30,NA,brown,n_l_006.jpg,NA,NA,unpleasant,pleasant,NA,NA,NA,NA,NA,right,2861,true,NA,NA,NA,NA,NA
PQwvegSM,3o4vwc1gfzjxgki2d88xs18tr9fj3v,3aajc4i4fk50oxnpph88lm908mozjb,PQwvegSM,2020-0188,2021-10-14,09:55:42,12:07:24,NA,incomplete,false,true,NA,7,31,NA,brown,m_s_016.jpg,NA,NA,pleasant,unpleasant,NA,NA,NA,NA,NA,right,846.099999904633,true,NA,NA,NA,NA,NA
PQwvegSM,3o4vwc1gfzjxgki2d88xs18tr9fj3v,3aajc4i4fk50oxnpph88lm908mozjb,PQwvegSM,2020-0188,2021-10-14,09:55:42,12:07:24,NA,incomplete,false,true,NA,7,32,NA,brown,n_s_055.jpg,NA,NA,unpleasant,pleasant,NA,NA,NA,NA,NA,right,1867.5,true,NA,NA,NA,NA,NA
PQwvegSM,3o4vwc1gfzjxgki2d88xs18tr9fj3v,3aajc4i4fk50oxnpph88lm908mozjb,PQwvegSM,2020-0188,2021-10-14,09:55:42,12:07:24,NA,incomplete,false,true,NA,7,33,NA,brown,n_s_062.jpg,NA,NA,unpleasant,pleasant,NA,NA,NA,NA,NA,right,673.200000047684,true,NA,NA,NA,NA,NA
PQwvegSM,3o4vwc1gfzjxgki2d88xs18tr9fj3v,3aajc4i4fk50oxnpph88lm908mozjb,PQwvegSM,2020-0188,2021-10-14,09:55:42,12:07:24,NA,incomplete,false,true,NA,7,34,NA,brown,m_l_100.jpg,NA,NA,unpleasant,pleasant,NA,NA,NA,NA,NA,right,2629.5,true,NA,NA,NA,NA,NA
PQwvegSM,3o4vwc1gfzjxgki2d88xs18tr9fj3v,3aajc4i4fk50oxnpph88lm908mozjb,PQwvegSM,2020-0188,2021-10-14,09:55:42,12:07:24,NA,incomplete,false,true,NA,7,35,NA,brown,n_s_073.jpg,NA,NA,unpleasant,pleasant,NA,NA,NA,NA,NA,none,0,false,NA,NA,NA,NA,NA
PQwvegSM,3o4vwc1gfzjxgki2d88xs18tr9fj3v,3aajc4i4fk50oxnpph88lm908mozjb,PQwvegSM,2020-0188,2021-10-14,09:55:42,12:07:24,NA,incomplete,false,NA,true,7,0,NA,NA,NA,right,present,NA,NA,m_s_064.jpg,white,n_s_043.jpg,purple,between,NA,NaN,NA,right,6393.5,1,1,2471.100000143051
PQwvegSM,3o4vwc1gfzjxgki2d88xs18tr9fj3v,3aajc4i4fk50oxnpph88lm908mozjb,PQwvegSM,2020-0188,2021-10-14,09:55:42,12:07:24,NA,incomplete,false,NA,true,7,1,NA,NA,NA,right,present,NA,NA,n_s_025.jpg,gray,m_s_110.jpg,white,between,NA,NaN,NA,right,5200,1,1,5437.799999952316
PQwvegSM,3o4vwc1gfzjxgki2d88xs18tr9fj3v,3aajc4i4fk50oxnpph88lm908mozjb,PQwvegSM,2020-0188,2021-10-14,09:55:42,12:07:24,NA,incomplete,false,NA,true,7,2,NA,NA,NA,left,present,NA,NA,n_s_019.jpg,purple,m_s_020.jpg,purple,within,NA,NaN,NA,right,5796.200000047684,0,1,5675.599999904633
PQwvegSM,3o4vwc1gfzjxgki2d88xs18tr9fj3v,3aajc4i4fk50oxnpph88lm908mozjb,PQwvegSM,2020-0188,2021-10-14,09:55:42,12:07:24,NA,incomplete,false,NA,true,7,3,NA,NA,NA,left,present,NA,NA,n_l_039.jpg,orange,m_l_071.jpg,orange,within,NA,NaN,NA,right,2775,0,1,3827.2999999523163
PQwvegSM,3o4vwc1gfzjxgki2d88xs18tr9fj3v,3aajc4i4fk50oxnpph88lm908mozjb,PQwvegSM,2020-0188,2021-10-14,09:55:42,12:07:24,NA,incomplete,false,NA,true,7,4,NA,NA,NA,left,present,NA,NA,m_l_093.jpg,red,n_s_057.jpg,red,within,NA,NaN,NA,left,7224.399999856949,1,1,2707.5
PQwvegSM,3o4vwc1gfzjxgki2d88xs18tr9fj3v,3aajc4i4fk50oxnpph88lm908mozjb,PQwvegSM,2020-0188,2021-10-14,09:55:42,12:07:24,NA,incomplete,false,NA,true,7,5,NA,NA,NA,left,present,NA,NA,m_s_115.jpg,red,n_s_055.jpg,brown,between,NA,NaN,NA,right,4327,0,1,5522.5
PQwvegSM,3o4vwc1gfzjxgki2d88xs18tr9fj3v,3aajc4i4fk50oxnpph88lm908mozjb,PQwvegSM,2020-0188,2021-10-14,09:55:42,12:07:24,NA,incomplete,false,NA,true,7,6,NA,NA,NA,left,present,NA,NA,n_s_008.jpg,gray,m_s_089.jpg,gray,within,NA,NaN,NA,right,8648,0,1,1865.2999999523163
PQwvegSM,3o4vwc1gfzjxgki2d88xs18tr9fj3v,3aajc4i4fk50oxnpph88lm908mozjb,PQwvegSM,2020-0188,2021-10-14,09:55:42,12:07:24,NA,incomplete,false,NA,true,7,7,NA,NA,NA,right,present,NA,NA,n_s_073.jpg,brown,m_s_016.jpg,brown,within,NA,NaN,NA,right,2807.2000000476837,1,1,2995.7000000476837
PQwvegSM,3o4vwc1gfzjxgki2d88xs18tr9fj3v,3aajc4i4fk50oxnpph88lm908mozjb,PQwvegSM,2020-0188,2021-10-14,09:55:42,12:07:24,NA,incomplete,false,NA,true,7,8,NA,NA,NA,left,present,NA,NA,n_s_067.jpg,white,n_s_029.jpg,white,within,NA,NaN,NA,right,5536.100000143051,0,2,4940.599999904633
PQwvegSM,3o4vwc1gfzjxgki2d88xs18tr9fj3v,3aajc4i4fk50oxnpph88lm908mozjb,PQwvegSM,2020-0188,2021-10-14,09:55:42,12:07:24,NA,incomplete,false,NA,true,7,9,NA,NA,NA,right,present,NA,NA,n_s_110.jpg,purple,n_l_049.jpg,orange,between,NA,NaN,NA,left,7329.100000143051,0,1,3484.5
PQwvegSM,3o4vwc1gfzjxgki2d88xs18tr9fj3v,3aajc4i4fk50oxnpph88lm908mozjb,PQwvegSM,2020-0188,2021-10-14,09:55:42,12:07:24,NA,incomplete,false,NA,true,7,10,NA,NA,NA,right,present,NA,NA,m_l_084.jpg,red,m_l_079.jpg,gray,between,NA,NaN,NA,right,12358.5,1,1,3583.4000000953674
PQwvegSM,3o4vwc1gfzjxgki2d88xs18tr9fj3v,3aajc4i4fk50oxnpph88lm908mozjb,PQwvegSM,2020-0188,2021-10-14,09:55:42,12:07:24,NA,incomplete,false,true,NA,8,0,NA,purple,m_l_030.jpg,NA,NA,unpleasant,pleasant,NA,NA,NA,NA,NA,none,0,false,NA,NA,NA,NA,NA
PQwvegSM,3o4vwc1gfzjxgki2d88xs18tr9fj3v,3aajc4i4fk50oxnpph88lm908mozjb,PQwvegSM,2020-0188,2021-10-14,09:55:42,12:07:24,NA,incomplete,false,true,NA,8,1,NA,purple,n_s_007.jpg,NA,NA,pleasant,unpleasant,NA,NA,NA,NA,NA,none,0,false,NA,NA,NA,NA,NA
PQwvegSM,3o4vwc1gfzjxgki2d88xs18tr9fj3v,3aajc4i4fk50oxnpph88lm908mozjb,PQwvegSM,2020-0188,2021-10-14,09:55:42,12:07:24,NA,incomplete,false,true,NA,8,2,NA,purple,m_s_052.jpg,NA,NA,pleasant,unpleasant,NA,NA,NA,NA,NA,right,1894,true,NA,NA,NA,NA,NA
PQwvegSM,3o4vwc1gfzjxgki2d88xs18tr9fj3v,3aajc4i4fk50oxnpph88lm908mozjb,PQwvegSM,2020-0188,2021-10-14,09:55:42,12:07:24,NA,incomplete,false,true,NA,8,3,NA,purple,n_s_022.jpg,NA,NA,unpleasant,pleasant,NA,NA,NA,NA,NA,right,36.8999998569489,true,NA,NA,NA,NA,NA
PQwvegSM,3o4vwc1gfzjxgki2d88xs18tr9fj3v,3aajc4i4fk50oxnpph88lm908mozjb,PQwvegSM,2020-0188,2021-10-14,09:55:42,12:07:24,NA,incomplete,false,true,NA,8,4,NA,purple,m_s_045.jpg,NA,NA,unpleasant,pleasant,NA,NA,NA,NA,NA,none,0,false,NA,NA,NA,NA,NA
PQwvegSM,3o4vwc1gfzjxgki2d88xs18tr9fj3v,3aajc4i4fk50oxnpph88lm908mozjb,PQwvegSM,2020-0188,2021-10-14,09:55:42,12:07:24,NA,incomplete,false,true,NA,8,5,NA,purple,n_l_099.jpg,NA,NA,pleasant,unpleasant,NA,NA,NA,NA,NA,none,0,false,NA,NA,NA,NA,NA
PQwvegSM,3o4vwc1gfzjxgki2d88xs18tr9fj3v,3aajc4i4fk50oxnpph88lm908mozjb,PQwvegSM,2020-0188,2021-10-14,09:55:42,12:07:24,NA,incomplete,false,true,NA,8,6,NA,orange,n_l_067.jpg,NA,NA,unpleasant,pleasant,NA,NA,NA,NA,NA,none,0,false,NA,NA,NA,NA,NA
PQwvegSM,3o4vwc1gfzjxgki2d88xs18tr9fj3v,3aajc4i4fk50oxnpph88lm908mozjb,PQwvegSM,2020-0188,2021-10-14,09:55:42,12:07:24,NA,incomplete,false,true,NA,8,7,NA,orange,m_l_037.jpg,NA,NA,unpleasant,pleasant,NA,NA,NA,NA,NA,none,0,false,NA,NA,NA,NA,NA
PQwvegSM,3o4vwc1gfzjxgki2d88xs18tr9fj3v,3aajc4i4fk50oxnpph88lm908mozjb,PQwvegSM,2020-0188,2021-10-14,09:55:42,12:07:24,NA,incomplete,false,true,NA,8,8,NA,orange,n_s_088.jpg,NA,NA,pleasant,unpleasant,NA,NA,NA,NA,NA,none,0,false,NA,NA,NA,NA,NA
PQwvegSM,3o4vwc1gfzjxgki2d88xs18tr9fj3v,3aajc4i4fk50oxnpph88lm908mozjb,PQwvegSM,2020-0188,2021-10-14,09:55:42,12:07:24,NA,incomplete,false,true,NA,8,9,NA,orange,n_s_115.jpg,NA,NA,unpleasant,pleasant,NA,NA,NA,NA,NA,none,0,false,NA,NA,NA,NA,NA
PQwvegSM,3o4vwc1gfzjxgki2d88xs18tr9fj3v,3aajc4i4fk50oxnpph88lm908mozjb,PQwvegSM,2020-0188,2021-10-14,09:55:42,12:07:24,NA,incomplete,false,true,NA,8,10,NA,orange,m_l_087.jpg,NA,NA,pleasant,unpleasant,NA,NA,NA,NA,NA,none,0,false,NA,NA,NA,NA,NA
