workerId,hitId,assignmentId,subject,studyid,exp_date,exp_start,exp_end,time_start,time_end,practice,encoding,memory,block,trial,event_order,event,stim,answer,context_type,label_left,label_right,left_image,left_event,right_image,right_event,condition,response,response_time,response_acc,order_response,order_response_time,order_acc,distance_response,distance_response_time
PVSmeCb5,3odop6t3bvxisk3y617o3pei3yp24c,34q075jo11qwrv1vvypabnaswzz01c,PVSmeCb5,2020-0188,2021-10-14,14:53:31,16:33:57,NA,incomplete,true,true,NA,0,0,NA,purple,m_l_110.jpg,NA,NA,pleasant,unpleasant,NA,NA,NA,NA,NA,left,1528.39999997616,true,NA,NA,NA,NA,NA
PVSmeCb5,3odop6t3bvxisk3y617o3pei3yp24c,34q075jo11qwrv1vvypabnaswzz01c,PVSmeCb5,2020-0188,2021-10-14,14:53:31,16:33:57,NA,incomplete,true,true,NA,0,1,NA,purple,n_l_036.jpg,NA,NA,pleasant,unpleasant,NA,NA,NA,NA,NA,left,1433.39999997616,true,NA,NA,NA,NA,NA
PVSmeCb5,3odop6t3bvxisk3y617o3pei3yp24c,34q075jo11qwrv1vvypabnaswzz01c,PVSmeCb5,2020-0188,2021-10-14,14:53:31,16:33:57,NA,incomplete,true,true,NA,0,2,NA,purple,n_s_059.jpg,NA,NA,pleasant,unpleasant,NA,NA,NA,NA,NA,left,1853.70000004768,true,NA,NA,NA,NA,NA
PVSmeCb5,3odop6t3bvxisk3y617o3pei3yp24c,34q075jo11qwrv1vvypabnaswzz01c,PVSmeCb5,2020-0188,2021-10-14,14:53:31,16:33:57,NA,incomplete,true,true,NA,0,3,NA,purple,m_s_019.jpg,NA,NA,pleasant,unpleasant,NA,NA,NA,NA,NA,left,1460.70000004768,true,NA,NA,NA,NA,NA
PVSmeCb5,3odop6t3bvxisk3y617o3pei3yp24c,34q075jo11qwrv1vvypabnaswzz01c,PVSmeCb5,2020-0188,2021-10-14,14:53:31,16:33:57,NA,incomplete,true,true,NA,0,4,NA,purple,n_s_100.jpg,NA,NA,pleasant,unpleasant,NA,NA,NA,NA,NA,left,1076.59999990463,true,NA,NA,NA,NA,NA
PVSmeCb5,3odop6t3bvxisk3y617o3pei3yp24c,34q075jo11qwrv1vvypabnaswzz01c,PVSmeCb5,2020-0188,2021-10-14,14:53:31,16:33:57,NA,incomplete,true,true,NA,0,5,NA,purple,n_l_056.jpg,NA,NA,unpleasant,pleasant,NA,NA,NA,NA,NA,right,1824.19999992847,true,NA,NA,NA,NA,NA
PVSmeCb5,3odop6t3bvxisk3y617o3pei3yp24c,34q075jo11qwrv1vvypabnaswzz01c,PVSmeCb5,2020-0188,2021-10-14,14:53:31,16:33:57,NA,incomplete,true,true,NA,0,6,NA,white,n_s_053.jpg,NA,NA,unpleasant,pleasant,NA,NA,NA,NA,NA,right,2114.39999997616,true,NA,NA,NA,NA,NA
PVSmeCb5,3odop6t3bvxisk3y617o3pei3yp24c,34q075jo11qwrv1vvypabnaswzz01c,PVSmeCb5,2020-0188,2021-10-14,14:53:31,16:33:57,NA,incomplete,true,true,NA,0,7,NA,white,m_l_095.jpg,NA,NA,pleasant,unpleasant,NA,NA,NA,NA,NA,left,1337.5,true,NA,NA,NA,NA,NA
PVSmeCb5,3odop6t3bvxisk3y617o3pei3yp24c,34q075jo11qwrv1vvypabnaswzz01c,PVSmeCb5,2020-0188,2021-10-14,14:53:31,16:33:57,NA,incomplete,true,true,NA,0,8,NA,white,n_s_111.jpg,NA,NA,unpleasant,pleasant,NA,NA,NA,NA,NA,right,1487.29999995232,true,NA,NA,NA,NA,NA
PVSmeCb5,3odop6t3bvxisk3y617o3pei3yp24c,34q075jo11qwrv1vvypabnaswzz01c,PVSmeCb5,2020-0188,2021-10-14,14:53:31,16:33:57,NA,incomplete,true,true,NA,0,9,NA,white,n_l_055.jpg,NA,NA,unpleasant,pleasant,NA,NA,NA,NA,NA,right,1127.10000002384,true,NA,NA,NA,NA,NA
PVSmeCb5,3odop6t3bvxisk3y617o3pei3yp24c,34q075jo11qwrv1vvypabnaswzz01c,PVSmeCb5,2020-0188,2021-10-14,14:53:31,16:33:57,NA,incomplete,true,true,NA,0,10,NA,white,m_s_115.jpg,NA,NA,pleasant,unpleasant,NA,NA,NA,NA,NA,right,1694.80000007153,true,NA,NA,NA,NA,NA
PVSmeCb5,3odop6t3bvxisk3y617o3pei3yp24c,34q075jo11qwrv1vvypabnaswzz01c,PVSmeCb5,2020-0188,2021-10-14,14:53:31,16:33:57,NA,incomplete,true,true,NA,0,11,NA,white,n_l_076.jpg,NA,NA,unpleasant,pleasant,NA,NA,NA,NA,NA,left,1393.90000009537,true,NA,NA,NA,NA,NA
PVSmeCb5,3odop6t3bvxisk3y617o3pei3yp24c,34q075jo11qwrv1vvypabnaswzz01c,PVSmeCb5,2020-0188,2021-10-14,14:53:31,16:33:57,NA,incomplete,true,true,NA,0,12,NA,blue,m_l_080.jpg,NA,NA,pleasant,unpleasant,NA,NA,NA,NA,NA,left,1685.10000002384,true,NA,NA,NA,NA,NA
PVSmeCb5,3odop6t3bvxisk3y617o3pei3yp24c,34q075jo11qwrv1vvypabnaswzz01c,PVSmeCb5,2020-0188,2021-10-14,14:53:31,16:33:57,NA,incomplete,true,true,NA,0,13,NA,blue,m_l_020.jpg,NA,NA,pleasant,unpleasant,NA,NA,NA,NA,NA,right,1481.89999997616,true,NA,NA,NA,NA,NA
PVSmeCb5,3odop6t3bvxisk3y617o3pei3yp24c,34q075jo11qwrv1vvypabnaswzz01c,PVSmeCb5,2020-0188,2021-10-14,14:53:31,16:33:57,NA,incomplete,true,true,NA,0,14,NA,blue,n_s_093.jpg,NA,NA,unpleasant,pleasant,NA,NA,NA,NA,NA,left,1175.10000002384,true,NA,NA,NA,NA,NA
PVSmeCb5,3odop6t3bvxisk3y617o3pei3yp24c,34q075jo11qwrv1vvypabnaswzz01c,PVSmeCb5,2020-0188,2021-10-14,14:53:31,16:33:57,NA,incomplete,true,true,NA,0,15,NA,blue,m_s_053.jpg,NA,NA,pleasant,unpleasant,NA,NA,NA,NA,NA,left,1541.89999997616,true,NA,NA,NA,NA,NA
PVSmeCb5,3odop6t3bvxisk3y617o3pei3yp24c,34q075jo11qwrv1vvypabnaswzz01c,PVSmeCb5,2020-0188,2021-10-14,14:53:31,16:33:57,NA,incomplete,true,true,NA,0,16,NA,blue,n_l_070.jpg,NA,NA,pleasant,unpleasant,NA,NA,NA,NA,NA,left,1179.29999995232,true,NA,NA,NA,NA,NA
PVSmeCb5,3odop6t3bvxisk3y617o3pei3yp24c,34q075jo11qwrv1vvypabnaswzz01c,PVSmeCb5,2020-0188,2021-10-14,14:53:31,16:33:57,NA,incomplete,true,true,NA,0,17,NA,blue,n_l_050.jpg,NA,NA,unpleasant,pleasant,NA,NA,NA,NA,NA,right,1374.39999997616,true,NA,NA,NA,NA,NA
PVSmeCb5,3odop6t3bvxisk3y617o3pei3yp24c,34q075jo11qwrv1vvypabnaswzz01c,PVSmeCb5,2020-0188,2021-10-14,14:53:31,16:33:57,NA,incomplete,true,true,NA,0,18,NA,red,m_s_104.jpg,NA,NA,pleasant,unpleasant,NA,NA,NA,NA,NA,left,1330.80000007153,true,NA,NA,NA,NA,NA
PVSmeCb5,3odop6t3bvxisk3y617o3pei3yp24c,34q075jo11qwrv1vvypabnaswzz01c,PVSmeCb5,2020-0188,2021-10-14,14:53:31,16:33:57,NA,incomplete,true,true,NA,0,19,NA,red,n_l_043.jpg,NA,NA,pleasant,unpleasant,NA,NA,NA,NA,NA,left,1660.89999997616,true,NA,NA,NA,NA,NA
PVSmeCb5,3odop6t3bvxisk3y617o3pei3yp24c,34q075jo11qwrv1vvypabnaswzz01c,PVSmeCb5,2020-0188,2021-10-14,14:53:31,16:33:57,NA,incomplete,true,true,NA,0,20,NA,red,m_s_043.jpg,NA,NA,pleasant,unpleasant,NA,NA,NA,NA,NA,right,1285,true,NA,NA,NA,NA,NA
PVSmeCb5,3odop6t3bvxisk3y617o3pei3yp24c,34q075jo11qwrv1vvypabnaswzz01c,PVSmeCb5,2020-0188,2021-10-14,14:53:31,16:33:57,NA,incomplete,true,true,NA,0,21,NA,red,m_s_015.jpg,NA,NA,unpleasant,pleasant,NA,NA,NA,NA,NA,right,1319,true,NA,NA,NA,NA,NA
PVSmeCb5,3odop6t3bvxisk3y617o3pei3yp24c,34q075jo11qwrv1vvypabnaswzz01c,PVSmeCb5,2020-0188,2021-10-14,14:53:31,16:33:57,NA,incomplete,true,true,NA,0,22,NA,red,n_s_002.jpg,NA,NA,pleasant,unpleasant,NA,NA,NA,NA,NA,left,1174.39999997616,true,NA,NA,NA,NA,NA
PVSmeCb5,3odop6t3bvxisk3y617o3pei3yp24c,34q075jo11qwrv1vvypabnaswzz01c,PVSmeCb5,2020-0188,2021-10-14,14:53:31,16:33:57,NA,incomplete,true,true,NA,0,23,NA,red,n_l_051.jpg,NA,NA,pleasant,unpleasant,NA,NA,NA,NA,NA,left,1217,true,NA,NA,NA,NA,NA
PVSmeCb5,3odop6t3bvxisk3y617o3pei3yp24c,34q075jo11qwrv1vvypabnaswzz01c,PVSmeCb5,2020-0188,2021-10-14,14:53:31,16:33:57,NA,incomplete,true,true,NA,0,24,NA,black,n_s_074.jpg,NA,NA,pleasant,unpleasant,NA,NA,NA,NA,NA,left,1594.5,true,NA,NA,NA,NA,NA
PVSmeCb5,3odop6t3bvxisk3y617o3pei3yp24c,34q075jo11qwrv1vvypabnaswzz01c,PVSmeCb5,2020-0188,2021-10-14,14:53:31,16:33:57,NA,incomplete,true,true,NA,0,25,NA,black,n_s_037.jpg,NA,NA,pleasant,unpleasant,NA,NA,NA,NA,NA,left,1320,true,NA,NA,NA,NA,NA
PVSmeCb5,3odop6t3bvxisk3y617o3pei3yp24c,34q075jo11qwrv1vvypabnaswzz01c,PVSmeCb5,2020-0188,2021-10-14,14:53:31,16:33:57,NA,incomplete,true,true,NA,0,26,NA,black,m_s_067.jpg,NA,NA,unpleasant,pleasant,NA,NA,NA,NA,NA,right,1285.40000009537,true,NA,NA,NA,NA,NA
PVSmeCb5,3odop6t3bvxisk3y617o3pei3yp24c,34q075jo11qwrv1vvypabnaswzz01c,PVSmeCb5,2020-0188,2021-10-14,14:53:31,16:33:57,NA,incomplete,true,true,NA,0,27,NA,black,n_l_057.jpg,NA,NA,unpleasant,pleasant,NA,NA,NA,NA,NA,right,1327.79999995232,true,NA,NA,NA,NA,NA
PVSmeCb5,3odop6t3bvxisk3y617o3pei3yp24c,34q075jo11qwrv1vvypabnaswzz01c,PVSmeCb5,2020-0188,2021-10-14,14:53:31,16:33:57,NA,incomplete,true,true,NA,0,28,NA,black,m_s_108.jpg,NA,NA,pleasant,unpleasant,NA,NA,NA,NA,NA,left,1678.5,true,NA,NA,NA,NA,NA
PVSmeCb5,3odop6t3bvxisk3y617o3pei3yp24c,34q075jo11qwrv1vvypabnaswzz01c,PVSmeCb5,2020-0188,2021-10-14,14:53:31,16:33:57,NA,incomplete,true,true,NA,0,29,NA,black,n_l_101.jpg,NA,NA,unpleasant,pleasant,NA,NA,NA,NA,NA,right,1446.39999997616,true,NA,NA,NA,NA,NA
PVSmeCb5,3odop6t3bvxisk3y617o3pei3yp24c,34q075jo11qwrv1vvypabnaswzz01c,PVSmeCb5,2020-0188,2021-10-14,14:53:31,16:33:57,NA,incomplete,true,true,NA,0,30,NA,yellow,n_s_014.jpg,NA,NA,unpleasant,pleasant,NA,NA,NA,NA,NA,left,1619.10000002384,true,NA,NA,NA,NA,NA
PVSmeCb5,3odop6t3bvxisk3y617o3pei3yp24c,34q075jo11qwrv1vvypabnaswzz01c,PVSmeCb5,2020-0188,2021-10-14,14:53:31,16:33:57,NA,incomplete,true,true,NA,0,31,NA,yellow,n_l_060.jpg,NA,NA,unpleasant,pleasant,NA,NA,NA,NA,NA,right,1164.5,true,NA,NA,NA,NA,NA
PVSmeCb5,3odop6t3bvxisk3y617o3pei3yp24c,34q075jo11qwrv1vvypabnaswzz01c,PVSmeCb5,2020-0188,2021-10-14,14:53:31,16:33:57,NA,incomplete,true,true,NA,0,32,NA,yellow,m_l_112.jpg,NA,NA,pleasant,unpleasant,NA,NA,NA,NA,NA,left,1198.10000002384,true,NA,NA,NA,NA,NA
PVSmeCb5,3odop6t3bvxisk3y617o3pei3yp24c,34q075jo11qwrv1vvypabnaswzz01c,PVSmeCb5,2020-0188,2021-10-14,14:53:31,16:33:57,NA,incomplete,true,true,NA,0,33,NA,yellow,m_l_092.jpg,NA,NA,unpleasant,pleasant,NA,NA,NA,NA,NA,right,1225.30000007153,true,NA,NA,NA,NA,NA
PVSmeCb5,3odop6t3bvxisk3y617o3pei3yp24c,34q075jo11qwrv1vvypabnaswzz01c,PVSmeCb5,2020-0188,2021-10-14,14:53:31,16:33:57,NA,incomplete,true,true,NA,0,34,NA,yellow,n_l_115.jpg,NA,NA,unpleasant,pleasant,NA,NA,NA,NA,NA,right,1453.39999997616,true,NA,NA,NA,NA,NA
PVSmeCb5,3odop6t3bvxisk3y617o3pei3yp24c,34q075jo11qwrv1vvypabnaswzz01c,PVSmeCb5,2020-0188,2021-10-14,14:53:31,16:33:57,NA,incomplete,true,true,NA,0,35,NA,yellow,n_l_063.jpg,NA,NA,unpleasant,pleasant,NA,NA,NA,NA,NA,right,1374.09999990463,true,NA,NA,NA,NA,NA
PVSmeCb5,3odop6t3bvxisk3y617o3pei3yp24c,34q075jo11qwrv1vvypabnaswzz01c,PVSmeCb5,2020-0188,2021-10-14,14:53:31,16:33:57,NA,incomplete,true,NA,true,0,0,NA,NA,NA,left,present,NA,NA,n_l_043.jpg,red,n_l_051.jpg,red,within,NA,NaN,NA,left,6100.600000023842,1,2,14279.5
PVSmeCb5,3odop6t3bvxisk3y617o3pei3yp24c,34q075jo11qwrv1vvypabnaswzz01c,PVSmeCb5,2020-0188,2021-10-14,14:53:31,16:33:57,NA,incomplete,true,NA,true,0,1,NA,NA,NA,right,absent,NA,NA,m_s_067.jpg,black,n_s_002.jpg,red,between,NA,NaN,NA,right,4208.899999976158,1,2,10172.899999976158
PVSmeCb5,3odop6t3bvxisk3y617o3pei3yp24c,34q075jo11qwrv1vvypabnaswzz01c,PVSmeCb5,2020-0188,2021-10-14,14:53:31,16:33:57,NA,incomplete,true,NA,true,0,2,NA,NA,NA,left,present,NA,NA,m_s_115.jpg,white,n_s_093.jpg,blue,between,NA,NaN,NA,left,3966.2000000476837,1,0,6885.800000071526
PVSmeCb5,3odop6t3bvxisk3y617o3pei3yp24c,34q075jo11qwrv1vvypabnaswzz01c,PVSmeCb5,2020-0188,2021-10-14,14:53:31,16:33:57,NA,incomplete,true,NA,true,0,3,NA,NA,NA,left,present,NA,NA,m_s_108.jpg,black,m_l_112.jpg,yellow,between,NA,NaN,NA,right,5117.599999904633,0,1,7623.100000023842
PVSmeCb5,3odop6t3bvxisk3y617o3pei3yp24c,34q075jo11qwrv1vvypabnaswzz01c,PVSmeCb5,2020-0188,2021-10-14,14:53:31,16:33:57,NA,incomplete,true,NA,true,0,4,NA,NA,NA,right,present,NA,NA,n_l_101.jpg,black,n_s_037.jpg,black,within,NA,NaN,NA,right,3611,1,0,7563.299999952316
PVSmeCb5,3odop6t3bvxisk3y617o3pei3yp24c,34q075jo11qwrv1vvypabnaswzz01c,PVSmeCb5,2020-0188,2021-10-14,14:53:31,16:33:57,NA,incomplete,true,NA,true,0,5,NA,NA,NA,right,absent,NA,NA,n_l_076.jpg,white,m_l_095.jpg,white,within,NA,NaN,NA,right,4788.5,1,1,4644.399999976158
PVSmeCb5,3odop6t3bvxisk3y617o3pei3yp24c,34q075jo11qwrv1vvypabnaswzz01c,PVSmeCb5,2020-0188,2021-10-14,14:53:31,16:33:57,NA,incomplete,true,NA,true,0,6,NA,NA,NA,left,absent,NA,NA,m_l_020.jpg,blue,n_l_050.jpg,blue,within,NA,NaN,NA,right,6411.100000023842,0,0,3870.2000000476837
PVSmeCb5,3odop6t3bvxisk3y617o3pei3yp24c,34q075jo11qwrv1vvypabnaswzz01c,PVSmeCb5,2020-0188,2021-10-14,14:53:31,16:33:57,NA,incomplete,true,NA,true,0,7,NA,NA,NA,right,present,NA,NA,n_l_063.jpg,yellow,n_l_060.jpg,yellow,within,NA,NaN,NA,left,15560.100000023842,0,1,1129
PVSmeCb5,3odop6t3bvxisk3y617o3pei3yp24c,34q075jo11qwrv1vvypabnaswzz01c,PVSmeCb5,2020-0188,2021-10-14,14:53:31,16:33:57,NA,incomplete,true,NA,true,0,8,NA,NA,NA,left,present,NA,NA,n_l_070.jpg,blue,m_s_043.jpg,red,between,NA,NaN,NA,left,3740.399999976158,1,3,1264
PVSmeCb5,3odop6t3bvxisk3y617o3pei3yp24c,34q075jo11qwrv1vvypabnaswzz01c,PVSmeCb5,2020-0188,2021-10-14,14:53:31,16:33:57,NA,incomplete,true,NA,true,0,9,NA,NA,NA,left,absent,NA,NA,n_l_036.jpg,purple,n_l_056.jpg,purple,within,NA,NaN,NA,right,5447.100000023842,0,1,1370.1000000238419
PVSmeCb5,3odop6t3bvxisk3y617o3pei3yp24c,34q075jo11qwrv1vvypabnaswzz01c,PVSmeCb5,2020-0188,2021-10-14,14:53:31,16:33:57,NA,incomplete,true,NA,true,0,10,NA,NA,NA,left,present,NA,NA,n_s_100.jpg,purple,n_s_111.jpg,white,between,NA,NaN,NA,left,4104.100000023842,1,2,1517.5
PVSmeCb5,3odop6t3bvxisk3y617o3pei3yp24c,34q075jo11qwrv1vvypabnaswzz01c,PVSmeCb5,2020-0188,2021-10-14,14:53:31,16:33:57,NA,incomplete,false,true,NA,1,0,NA,white,n_s_045.jpg,NA,NA,unpleasant,pleasant,NA,NA,NA,NA,NA,right,1123.89999997616,true,NA,NA,NA,NA,NA
PVSmeCb5,3odop6t3bvxisk3y617o3pei3yp24c,34q075jo11qwrv1vvypabnaswzz01c,PVSmeCb5,2020-0188,2021-10-14,14:53:31,16:33:57,NA,incomplete,false,true,NA,1,1,NA,white,n_s_069.jpg,NA,NA,pleasant,unpleasant,NA,NA,NA,NA,NA,left,1144.80000007153,true,NA,NA,NA,NA,NA
PVSmeCb5,3odop6t3bvxisk3y617o3pei3yp24c,34q075jo11qwrv1vvypabnaswzz01c,PVSmeCb5,2020-0188,2021-10-14,14:53:31,16:33:57,NA,incomplete,false,true,NA,1,2,NA,white,n_s_102.jpg,NA,NA,unpleasant,pleasant,NA,NA,NA,NA,NA,right,1498.10000002384,true,NA,NA,NA,NA,NA
PVSmeCb5,3odop6t3bvxisk3y617o3pei3yp24c,34q075jo11qwrv1vvypabnaswzz01c,PVSmeCb5,2020-0188,2021-10-14,14:53:31,16:33:57,NA,incomplete,false,true,NA,1,3,NA,white,n_l_010.jpg,NA,NA,pleasant,unpleasant,NA,NA,NA,NA,NA,left,1770.19999992847,true,NA,NA,NA,NA,NA
PVSmeCb5,3odop6t3bvxisk3y617o3pei3yp24c,34q075jo11qwrv1vvypabnaswzz01c,PVSmeCb5,2020-0188,2021-10-14,14:53:31,16:33:57,NA,incomplete,false,true,NA,1,4,NA,white,n_l_080.jpg,NA,NA,pleasant,unpleasant,NA,NA,NA,NA,NA,left,1758.80000007153,true,NA,NA,NA,NA,NA
PVSmeCb5,3odop6t3bvxisk3y617o3pei3yp24c,34q075jo11qwrv1vvypabnaswzz01c,PVSmeCb5,2020-0188,2021-10-14,14:53:31,16:33:57,NA,incomplete,false,true,NA,1,5,NA,white,m_s_026.jpg,NA,NA,pleasant,unpleasant,NA,NA,NA,NA,NA,left,1557.10000002384,true,NA,NA,NA,NA,NA
PVSmeCb5,3odop6t3bvxisk3y617o3pei3yp24c,34q075jo11qwrv1vvypabnaswzz01c,PVSmeCb5,2020-0188,2021-10-14,14:53:31,16:33:57,NA,incomplete,false,true,NA,1,6,NA,gray,m_s_047.jpg,NA,NA,unpleasant,pleasant,NA,NA,NA,NA,NA,right,1764.89999997616,true,NA,NA,NA,NA,NA
PVSmeCb5,3odop6t3bvxisk3y617o3pei3yp24c,34q075jo11qwrv1vvypabnaswzz01c,PVSmeCb5,2020-0188,2021-10-14,14:53:31,16:33:57,NA,incomplete,false,true,NA,1,7,NA,gray,n_l_095.jpg,NA,NA,pleasant,unpleasant,NA,NA,NA,NA,NA,left,2220.39999997616,true,NA,NA,NA,NA,NA
PVSmeCb5,3odop6t3bvxisk3y617o3pei3yp24c,34q075jo11qwrv1vvypabnaswzz01c,PVSmeCb5,2020-0188,2021-10-14,14:53:31,16:33:57,NA,incomplete,false,true,NA,1,8,NA,gray,n_l_047.jpg,NA,NA,unpleasant,pleasant,NA,NA,NA,NA,NA,right,2137.5,true,NA,NA,NA,NA,NA
PVSmeCb5,3odop6t3bvxisk3y617o3pei3yp24c,34q075jo11qwrv1vvypabnaswzz01c,PVSmeCb5,2020-0188,2021-10-14,14:53:31,16:33:57,NA,incomplete,false,true,NA,1,9,NA,gray,m_s_059.jpg,NA,NA,pleasant,unpleasant,NA,NA,NA,NA,NA,left,1855.5,true,NA,NA,NA,NA,NA
PVSmeCb5,3odop6t3bvxisk3y617o3pei3yp24c,34q075jo11qwrv1vvypabnaswzz01c,PVSmeCb5,2020-0188,2021-10-14,14:53:31,16:33:57,NA,incomplete,false,true,NA,1,10,NA,gray,n_l_007.jpg,NA,NA,pleasant,unpleasant,NA,NA,NA,NA,NA,left,2105.30000007153,true,NA,NA,NA,NA,NA
PVSmeCb5,3odop6t3bvxisk3y617o3pei3yp24c,34q075jo11qwrv1vvypabnaswzz01c,PVSmeCb5,2020-0188,2021-10-14,14:53:31,16:33:57,NA,incomplete,false,true,NA,1,11,NA,gray,n_l_084.jpg,NA,NA,pleasant,unpleasant,NA,NA,NA,NA,NA,right,2437.59999990463,true,NA,NA,NA,NA,NA
PVSmeCb5,3odop6t3bvxisk3y617o3pei3yp24c,34q075jo11qwrv1vvypabnaswzz01c,PVSmeCb5,2020-0188,2021-10-14,14:53:31,16:33:57,NA,incomplete,false,true,NA,1,12,NA,green,n_l_104.jpg,NA,NA,pleasant,unpleasant,NA,NA,NA,NA,NA,left,1848.39999997616,true,NA,NA,NA,NA,NA
PVSmeCb5,3odop6t3bvxisk3y617o3pei3yp24c,34q075jo11qwrv1vvypabnaswzz01c,PVSmeCb5,2020-0188,2021-10-14,14:53:31,16:33:57,NA,incomplete,false,true,NA,1,13,NA,green,n_s_114.jpg,NA,NA,pleasant,unpleasant,NA,NA,NA,NA,NA,left,2030.70000004768,true,NA,NA,NA,NA,NA
PVSmeCb5,3odop6t3bvxisk3y617o3pei3yp24c,34q075jo11qwrv1vvypabnaswzz01c,PVSmeCb5,2020-0188,2021-10-14,14:53:31,16:33:57,NA,incomplete,false,true,NA,1,14,NA,green,n_l_113.jpg,NA,NA,pleasant,unpleasant,NA,NA,NA,NA,NA,right,1421,true,NA,NA,NA,NA,NA
PVSmeCb5,3odop6t3bvxisk3y617o3pei3yp24c,34q075jo11qwrv1vvypabnaswzz01c,PVSmeCb5,2020-0188,2021-10-14,14:53:31,16:33:57,NA,incomplete,false,true,NA,1,15,NA,green,n_s_051.jpg,NA,NA,unpleasant,pleasant,NA,NA,NA,NA,NA,right,1206.80000007153,true,NA,NA,NA,NA,NA
PVSmeCb5,3odop6t3bvxisk3y617o3pei3yp24c,34q075jo11qwrv1vvypabnaswzz01c,PVSmeCb5,2020-0188,2021-10-14,14:53:31,16:33:57,NA,incomplete,false,true,NA,1,16,NA,green,n_s_080.jpg,NA,NA,pleasant,unpleasant,NA,NA,NA,NA,NA,right,1406.60000002384,true,NA,NA,NA,NA,NA
PVSmeCb5,3odop6t3bvxisk3y617o3pei3yp24c,34q075jo11qwrv1vvypabnaswzz01c,PVSmeCb5,2020-0188,2021-10-14,14:53:31,16:33:57,NA,incomplete,false,true,NA,1,17,NA,green,n_s_060.jpg,NA,NA,pleasant,unpleasant,NA,NA,NA,NA,NA,left,1720.5,true,NA,NA,NA,NA,NA
PVSmeCb5,3odop6t3bvxisk3y617o3pei3yp24c,34q075jo11qwrv1vvypabnaswzz01c,PVSmeCb5,2020-0188,2021-10-14,14:53:31,16:33:57,NA,incomplete,false,true,NA,1,18,NA,brown,m_l_023.jpg,NA,NA,unpleasant,pleasant,NA,NA,NA,NA,NA,right,2171.59999990463,true,NA,NA,NA,NA,NA
PVSmeCb5,3odop6t3bvxisk3y617o3pei3yp24c,34q075jo11qwrv1vvypabnaswzz01c,PVSmeCb5,2020-0188,2021-10-14,14:53:31,16:33:57,NA,incomplete,false,true,NA,1,19,NA,brown,m_l_036.jpg,NA,NA,pleasant,unpleasant,NA,NA,NA,NA,NA,right,2044.59999990463,true,NA,NA,NA,NA,NA
PVSmeCb5,3odop6t3bvxisk3y617o3pei3yp24c,34q075jo11qwrv1vvypabnaswzz01c,PVSmeCb5,2020-0188,2021-10-14,14:53:31,16:33:57,NA,incomplete,false,true,NA,1,20,NA,brown,n_l_039.jpg,NA,NA,pleasant,unpleasant,NA,NA,NA,NA,NA,left,2267.79999995232,true,NA,NA,NA,NA,NA
PVSmeCb5,3odop6t3bvxisk3y617o3pei3yp24c,34q075jo11qwrv1vvypabnaswzz01c,PVSmeCb5,2020-0188,2021-10-14,14:53:31,16:33:57,NA,incomplete,false,true,NA,1,21,NA,brown,n_s_067.jpg,NA,NA,unpleasant,pleasant,NA,NA,NA,NA,NA,right,1573.39999997616,true,NA,NA,NA,NA,NA
PVSmeCb5,3odop6t3bvxisk3y617o3pei3yp24c,34q075jo11qwrv1vvypabnaswzz01c,PVSmeCb5,2020-0188,2021-10-14,14:53:31,16:33:57,NA,incomplete,false,true,NA,1,22,NA,brown,n_l_089.jpg,NA,NA,unpleasant,pleasant,NA,NA,NA,NA,NA,right,1210.89999997616,true,NA,NA,NA,NA,NA
PVSmeCb5,3odop6t3bvxisk3y617o3pei3yp24c,34q075jo11qwrv1vvypabnaswzz01c,PVSmeCb5,2020-0188,2021-10-14,14:53:31,16:33:57,NA,incomplete,false,true,NA,1,23,NA,brown,n_l_048.jpg,NA,NA,pleasant,unpleasant,NA,NA,NA,NA,NA,left,1956.09999990463,true,NA,NA,NA,NA,NA
PVSmeCb5,3odop6t3bvxisk3y617o3pei3yp24c,34q075jo11qwrv1vvypabnaswzz01c,PVSmeCb5,2020-0188,2021-10-14,14:53:31,16:33:57,NA,incomplete,false,true,NA,1,24,NA,red,n_s_061.jpg,NA,NA,pleasant,unpleasant,NA,NA,NA,NA,NA,left,2009.39999997616,true,NA,NA,NA,NA,NA
PVSmeCb5,3odop6t3bvxisk3y617o3pei3yp24c,34q075jo11qwrv1vvypabnaswzz01c,PVSmeCb5,2020-0188,2021-10-14,14:53:31,16:33:57,NA,incomplete,false,true,NA,1,25,NA,red,n_s_009.jpg,NA,NA,pleasant,unpleasant,NA,NA,NA,NA,NA,left,1572.60000002384,true,NA,NA,NA,NA,NA
PVSmeCb5,3odop6t3bvxisk3y617o3pei3yp24c,34q075jo11qwrv1vvypabnaswzz01c,PVSmeCb5,2020-0188,2021-10-14,14:53:31,16:33:57,NA,incomplete,false,true,NA,1,26,NA,red,n_l_053.jpg,NA,NA,unpleasant,pleasant,NA,NA,NA,NA,NA,right,1430.09999990463,true,NA,NA,NA,NA,NA
PVSmeCb5,3odop6t3bvxisk3y617o3pei3yp24c,34q075jo11qwrv1vvypabnaswzz01c,PVSmeCb5,2020-0188,2021-10-14,14:53:31,16:33:57,NA,incomplete,false,true,NA,1,27,NA,red,m_s_052.jpg,NA,NA,pleasant,unpleasant,NA,NA,NA,NA,NA,left,1621,true,NA,NA,NA,NA,NA
PVSmeCb5,3odop6t3bvxisk3y617o3pei3yp24c,34q075jo11qwrv1vvypabnaswzz01c,PVSmeCb5,2020-0188,2021-10-14,14:53:31,16:33:57,NA,incomplete,false,true,NA,1,28,NA,red,m_l_098.jpg,NA,NA,unpleasant,pleasant,NA,NA,NA,NA,NA,right,2652.59999990463,true,NA,NA,NA,NA,NA
PVSmeCb5,3odop6t3bvxisk3y617o3pei3yp24c,34q075jo11qwrv1vvypabnaswzz01c,PVSmeCb5,2020-0188,2021-10-14,14:53:31,16:33:57,NA,incomplete,false,true,NA,1,29,NA,red,m_s_102.jpg,NA,NA,unpleasant,pleasant,NA,NA,NA,NA,NA,right,2090.39999997616,true,NA,NA,NA,NA,NA
PVSmeCb5,3odop6t3bvxisk3y617o3pei3yp24c,34q075jo11qwrv1vvypabnaswzz01c,PVSmeCb5,2020-0188,2021-10-14,14:53:31,16:33:57,NA,incomplete,false,true,NA,1,30,NA,purple,m_s_032.jpg,NA,NA,unpleasant,pleasant,NA,NA,NA,NA,NA,right,2659.60000002384,true,NA,NA,NA,NA,NA
PVSmeCb5,3odop6t3bvxisk3y617o3pei3yp24c,34q075jo11qwrv1vvypabnaswzz01c,PVSmeCb5,2020-0188,2021-10-14,14:53:31,16:33:57,NA,incomplete,false,true,NA,1,31,NA,purple,m_s_048.jpg,NA,NA,unpleasant,pleasant,NA,NA,NA,NA,NA,right,1983.60000002384,true,NA,NA,NA,NA,NA
PVSmeCb5,3odop6t3bvxisk3y617o3pei3yp24c,34q075jo11qwrv1vvypabnaswzz01c,PVSmeCb5,2020-0188,2021-10-14,14:53:31,16:33:57,NA,incomplete,false,true,NA,1,32,NA,purple,m_s_050.jpg,NA,NA,unpleasant,pleasant,NA,NA,NA,NA,NA,right,2631,true,NA,NA,NA,NA,NA
PVSmeCb5,3odop6t3bvxisk3y617o3pei3yp24c,34q075jo11qwrv1vvypabnaswzz01c,PVSmeCb5,2020-0188,2021-10-14,14:53:31,16:33:57,NA,incomplete,false,true,NA,1,33,NA,purple,m_l_058.jpg,NA,NA,pleasant,unpleasant,NA,NA,NA,NA,NA,left,2042.60000002384,true,NA,NA,NA,NA,NA
PVSmeCb5,3odop6t3bvxisk3y617o3pei3yp24c,34q075jo11qwrv1vvypabnaswzz01c,PVSmeCb5,2020-0188,2021-10-14,14:53:31,16:33:57,NA,incomplete,false,true,NA,1,34,NA,purple,m_s_042.jpg,NA,NA,unpleasant,pleasant,NA,NA,NA,NA,NA,right,1398.30000007153,true,NA,NA,NA,NA,NA
PVSmeCb5,3odop6t3bvxisk3y617o3pei3yp24c,34q075jo11qwrv1vvypabnaswzz01c,PVSmeCb5,2020-0188,2021-10-14,14:53:31,16:33:57,NA,incomplete,false,true,NA,1,35,NA,purple,m_l_035.jpg,NA,NA,pleasant,unpleasant,NA,NA,NA,NA,NA,left,1822.89999997616,true,NA,NA,NA,NA,NA
PVSmeCb5,3odop6t3bvxisk3y617o3pei3yp24c,34q075jo11qwrv1vvypabnaswzz01c,PVSmeCb5,2020-0188,2021-10-14,14:53:31,16:33:57,NA,incomplete,false,NA,true,1,0,NA,NA,NA,left,absent,NA,NA,m_s_048.jpg,purple,m_l_035.jpg,purple,within,NA,NaN,NA,right,8266.200000047684,0,1,7651.599999904633
PVSmeCb5,3odop6t3bvxisk3y617o3pei3yp24c,34q075jo11qwrv1vvypabnaswzz01c,PVSmeCb5,2020-0188,2021-10-14,14:53:31,16:33:57,NA,incomplete,false,NA,true,1,1,NA,NA,NA,left,absent,NA,NA,m_l_036.jpg,brown,n_l_048.jpg,brown,within,NA,NaN,NA,right,10335.5,0,1,1732.6000000238419
PVSmeCb5,3odop6t3bvxisk3y617o3pei3yp24c,34q075jo11qwrv1vvypabnaswzz01c,PVSmeCb5,2020-0188,2021-10-14,14:53:31,16:33:57,NA,incomplete,false,NA,true,1,2,NA,NA,NA,right,absent,NA,NA,n_l_084.jpg,gray,n_l_095.jpg,gray,within,NA,NaN,NA,right,13896.700000047684,1,1,3827.600000023842
PVSmeCb5,3odop6t3bvxisk3y617o3pei3yp24c,34q075jo11qwrv1vvypabnaswzz01c,PVSmeCb5,2020-0188,2021-10-14,14:53:31,16:33:57,NA,incomplete,false,NA,true,1,3,NA,NA,NA,left,absent,NA,NA,n_s_114.jpg,green,n_s_060.jpg,green,within,NA,NaN,NA,right,32096.900000095367,0,2,1410.7000000476837
PVSmeCb5,3odop6t3bvxisk3y617o3pei3yp24c,34q075jo11qwrv1vvypabnaswzz01c,PVSmeCb5,2020-0188,2021-10-14,14:53:31,16:33:57,NA,incomplete,false,NA,true,1,4,NA,NA,NA,left,absent,NA,NA,n_s_080.jpg,green,n_l_039.jpg,brown,between,NA,NaN,NA,left,5516.600000023842,1,3,7321.100000023842
PVSmeCb5,3odop6t3bvxisk3y617o3pei3yp24c,34q075jo11qwrv1vvypabnaswzz01c,PVSmeCb5,2020-0188,2021-10-14,14:53:31,16:33:57,NA,incomplete,false,NA,true,1,5,NA,NA,NA,left,absent,NA,NA,n_l_007.jpg,gray,n_l_113.jpg,green,between,NA,NaN,NA,left,15999.399999976158,1,1,1068.5999999046326
PVSmeCb5,3odop6t3bvxisk3y617o3pei3yp24c,34q075jo11qwrv1vvypabnaswzz01c,PVSmeCb5,2020-0188,2021-10-14,14:53:31,16:33:57,NA,incomplete,false,NA,true,1,6,NA,NA,NA,left,absent,NA,NA,n_l_080.jpg,white,n_l_047.jpg,gray,between,NA,NaN,NA,left,2611.100000023842,1,2,2234.5999999046326
PVSmeCb5,3odop6t3bvxisk3y617o3pei3yp24c,34q075jo11qwrv1vvypabnaswzz01c,PVSmeCb5,2020-0188,2021-10-14,14:53:31,16:33:57,NA,incomplete,false,NA,true,1,7,NA,NA,NA,left,absent,NA,NA,m_l_098.jpg,red,m_s_050.jpg,purple,between,NA,NaN,NA,left,5516.900000095367,1,1,1285.5
PVSmeCb5,3odop6t3bvxisk3y617o3pei3yp24c,34q075jo11qwrv1vvypabnaswzz01c,PVSmeCb5,2020-0188,2021-10-14,14:53:31,16:33:57,NA,incomplete,false,NA,true,1,8,NA,NA,NA,right,absent,NA,NA,m_s_102.jpg,red,n_s_009.jpg,red,within,NA,NaN,NA,right,5317.900000095367,1,2,5900.099999904633
PVSmeCb5,3odop6t3bvxisk3y617o3pei3yp24c,34q075jo11qwrv1vvypabnaswzz01c,PVSmeCb5,2020-0188,2021-10-14,14:53:31,16:33:57,NA,incomplete,false,NA,true,1,9,NA,NA,NA,left,absent,NA,NA,n_s_069.jpg,white,m_s_026.jpg,white,within,NA,NaN,NA,right,2930.5999999046326,0,2,2121.3000000715256
PVSmeCb5,3odop6t3bvxisk3y617o3pei3yp24c,34q075jo11qwrv1vvypabnaswzz01c,PVSmeCb5,2020-0188,2021-10-14,14:53:31,16:33:57,NA,incomplete,false,NA,true,1,10,NA,NA,NA,right,absent,NA,NA,n_l_053.jpg,red,n_l_089.jpg,brown,between,NA,NaN,NA,right,4546.5,1,1,1222
PVSmeCb5,3odop6t3bvxisk3y617o3pei3yp24c,34q075jo11qwrv1vvypabnaswzz01c,PVSmeCb5,2020-0188,2021-10-14,14:53:31,16:33:57,NA,incomplete,false,true,NA,2,0,NA,red,n_s_086.jpg,NA,NA,pleasant,unpleasant,NA,NA,NA,NA,NA,left,1619.10000002384,true,NA,NA,NA,NA,NA
PVSmeCb5,3odop6t3bvxisk3y617o3pei3yp24c,34q075jo11qwrv1vvypabnaswzz01c,PVSmeCb5,2020-0188,2021-10-14,14:53:31,16:33:57,NA,incomplete,false,true,NA,2,1,NA,red,n_l_059.jpg,NA,NA,unpleasant,pleasant,NA,NA,NA,NA,NA,right,2328.30000007153,true,NA,NA,NA,NA,NA
PVSmeCb5,3odop6t3bvxisk3y617o3pei3yp24c,34q075jo11qwrv1vvypabnaswzz01c,PVSmeCb5,2020-0188,2021-10-14,14:53:31,16:33:57,NA,incomplete,false,true,NA,2,2,NA,red,m_l_075.jpg,NA,NA,pleasant,unpleasant,NA,NA,NA,NA,NA,left,1853.5,true,NA,NA,NA,NA,NA
PVSmeCb5,3odop6t3bvxisk3y617o3pei3yp24c,34q075jo11qwrv1vvypabnaswzz01c,PVSmeCb5,2020-0188,2021-10-14,14:53:31,16:33:57,NA,incomplete,false,true,NA,2,3,NA,red,m_l_109.jpg,NA,NA,pleasant,unpleasant,NA,NA,NA,NA,NA,left,1799.39999997616,true,NA,NA,NA,NA,NA
PVSmeCb5,3odop6t3bvxisk3y617o3pei3yp24c,34q075jo11qwrv1vvypabnaswzz01c,PVSmeCb5,2020-0188,2021-10-14,14:53:31,16:33:57,NA,incomplete,false,true,NA,2,4,NA,red,m_s_088.jpg,NA,NA,unpleasant,pleasant,NA,NA,NA,NA,NA,right,1725.79999995232,true,NA,NA,NA,NA,NA
PVSmeCb5,3odop6t3bvxisk3y617o3pei3yp24c,34q075jo11qwrv1vvypabnaswzz01c,PVSmeCb5,2020-0188,2021-10-14,14:53:31,16:33:57,NA,incomplete,false,true,NA,2,5,NA,red,m_l_084.jpg,NA,NA,pleasant,unpleasant,NA,NA,NA,NA,NA,left,1720,true,NA,NA,NA,NA,NA
PVSmeCb5,3odop6t3bvxisk3y617o3pei3yp24c,34q075jo11qwrv1vvypabnaswzz01c,PVSmeCb5,2020-0188,2021-10-14,14:53:31,16:33:57,NA,incomplete,false,true,NA,2,6,NA,blue,m_l_018.jpg,NA,NA,unpleasant,pleasant,NA,NA,NA,NA,NA,right,1764.89999997616,true,NA,NA,NA,NA,NA
PVSmeCb5,3odop6t3bvxisk3y617o3pei3yp24c,34q075jo11qwrv1vvypabnaswzz01c,PVSmeCb5,2020-0188,2021-10-14,14:53:31,16:33:57,NA,incomplete,false,true,NA,2,7,NA,blue,m_l_100.jpg,NA,NA,unpleasant,pleasant,NA,NA,NA,NA,NA,right,2016.89999997616,true,NA,NA,NA,NA,NA
PVSmeCb5,3odop6t3bvxisk3y617o3pei3yp24c,34q075jo11qwrv1vvypabnaswzz01c,PVSmeCb5,2020-0188,2021-10-14,14:53:31,16:33:57,NA,incomplete,false,true,NA,2,8,NA,blue,m_s_110.jpg,NA,NA,pleasant,unpleasant,NA,NA,NA,NA,NA,left,1883.39999997616,true,NA,NA,NA,NA,NA
PVSmeCb5,3odop6t3bvxisk3y617o3pei3yp24c,34q075jo11qwrv1vvypabnaswzz01c,PVSmeCb5,2020-0188,2021-10-14,14:53:31,16:33:57,NA,incomplete,false,true,NA,2,9,NA,blue,m_s_073.jpg,NA,NA,pleasant,unpleasant,NA,NA,NA,NA,NA,left,1084.5,true,NA,NA,NA,NA,NA
PVSmeCb5,3odop6t3bvxisk3y617o3pei3yp24c,34q075jo11qwrv1vvypabnaswzz01c,PVSmeCb5,2020-0188,2021-10-14,14:53:31,16:33:57,NA,incomplete,false,true,NA,2,10,NA,blue,n_l_065.jpg,NA,NA,unpleasant,pleasant,NA,NA,NA,NA,NA,right,1857.89999997616,true,NA,NA,NA,NA,NA
PVSmeCb5,3odop6t3bvxisk3y617o3pei3yp24c,34q075jo11qwrv1vvypabnaswzz01c,PVSmeCb5,2020-0188,2021-10-14,14:53:31,16:33:57,NA,incomplete,false,true,NA,2,11,NA,blue,m_s_049.jpg,NA,NA,unpleasant,pleasant,NA,NA,NA,NA,NA,right,1289.19999992847,true,NA,NA,NA,NA,NA
PVSmeCb5,3odop6t3bvxisk3y617o3pei3yp24c,34q075jo11qwrv1vvypabnaswzz01c,PVSmeCb5,2020-0188,2021-10-14,14:53:31,16:33:57,NA,incomplete,false,true,NA,2,12,NA,white,n_s_035.jpg,NA,NA,unpleasant,pleasant,NA,NA,NA,NA,NA,right,2131.59999990463,true,NA,NA,NA,NA,NA
PVSmeCb5,3odop6t3bvxisk3y617o3pei3yp24c,34q075jo11qwrv1vvypabnaswzz01c,PVSmeCb5,2020-0188,2021-10-14,14:53:31,16:33:57,NA,incomplete,false,true,NA,2,13,NA,white,m_l_002.jpg,NA,NA,unpleasant,pleasant,NA,NA,NA,NA,NA,right,1431.69999992847,true,NA,NA,NA,NA,NA
PVSmeCb5,3odop6t3bvxisk3y617o3pei3yp24c,34q075jo11qwrv1vvypabnaswzz01c,PVSmeCb5,2020-0188,2021-10-14,14:53:31,16:33:57,NA,incomplete,false,true,NA,2,14,NA,white,n_l_105.jpg,NA,NA,unpleasant,pleasant,NA,NA,NA,NA,NA,right,1657.89999997616,true,NA,NA,NA,NA,NA
PVSmeCb5,3odop6t3bvxisk3y617o3pei3yp24c,34q075jo11qwrv1vvypabnaswzz01c,PVSmeCb5,2020-0188,2021-10-14,14:53:31,16:33:57,NA,incomplete,false,true,NA,2,15,NA,white,n_l_038.jpg,NA,NA,pleasant,unpleasant,NA,NA,NA,NA,NA,left,2288.10000002384,true,NA,NA,NA,NA,NA
PVSmeCb5,3odop6t3bvxisk3y617o3pei3yp24c,34q075jo11qwrv1vvypabnaswzz01c,PVSmeCb5,2020-0188,2021-10-14,14:53:31,16:33:57,NA,incomplete,false,true,NA,2,16,NA,white,m_l_093.jpg,NA,NA,unpleasant,pleasant,NA,NA,NA,NA,NA,right,1880.10000002384,true,NA,NA,NA,NA,NA
PVSmeCb5,3odop6t3bvxisk3y617o3pei3yp24c,34q075jo11qwrv1vvypabnaswzz01c,PVSmeCb5,2020-0188,2021-10-14,14:53:31,16:33:57,NA,incomplete,false,true,NA,2,17,NA,white,m_s_062.jpg,NA,NA,unpleasant,pleasant,NA,NA,NA,NA,NA,right,1389.5,true,NA,NA,NA,NA,NA
PVSmeCb5,3odop6t3bvxisk3y617o3pei3yp24c,34q075jo11qwrv1vvypabnaswzz01c,PVSmeCb5,2020-0188,2021-10-14,14:53:31,16:33:57,NA,incomplete,false,true,NA,2,18,NA,purple,n_l_023.jpg,NA,NA,unpleasant,pleasant,NA,NA,NA,NA,NA,right,1409.20000004768,true,NA,NA,NA,NA,NA
PVSmeCb5,3odop6t3bvxisk3y617o3pei3yp24c,34q075jo11qwrv1vvypabnaswzz01c,PVSmeCb5,2020-0188,2021-10-14,14:53:31,16:33:57,NA,incomplete,false,true,NA,2,19,NA,purple,m_l_114.jpg,NA,NA,pleasant,unpleasant,NA,NA,NA,NA,NA,right,1956.60000002384,true,NA,NA,NA,NA,NA
PVSmeCb5,3odop6t3bvxisk3y617o3pei3yp24c,34q075jo11qwrv1vvypabnaswzz01c,PVSmeCb5,2020-0188,2021-10-14,14:53:31,16:33:57,NA,incomplete,false,true,NA,2,20,NA,purple,n_l_093.jpg,NA,NA,unpleasant,pleasant,NA,NA,NA,NA,NA,left,1365.19999992847,true,NA,NA,NA,NA,NA
PVSmeCb5,3odop6t3bvxisk3y617o3pei3yp24c,34q075jo11qwrv1vvypabnaswzz01c,PVSmeCb5,2020-0188,2021-10-14,14:53:31,16:33:57,NA,incomplete,false,true,NA,2,21,NA,purple,m_l_069.jpg,NA,NA,pleasant,unpleasant,NA,NA,NA,NA,NA,right,1364.89999997616,true,NA,NA,NA,NA,NA
PVSmeCb5,3odop6t3bvxisk3y617o3pei3yp24c,34q075jo11qwrv1vvypabnaswzz01c,PVSmeCb5,2020-0188,2021-10-14,14:53:31,16:33:57,NA,incomplete,false,true,NA,2,22,NA,purple,n_s_027.jpg,NA,NA,unpleasant,pleasant,NA,NA,NA,NA,NA,left,1205,true,NA,NA,NA,NA,NA
PVSmeCb5,3odop6t3bvxisk3y617o3pei3yp24c,34q075jo11qwrv1vvypabnaswzz01c,PVSmeCb5,2020-0188,2021-10-14,14:53:31,16:33:57,NA,incomplete,false,true,NA,2,23,NA,purple,m_s_022.jpg,NA,NA,pleasant,unpleasant,NA,NA,NA,NA,NA,left,1232.29999995232,true,NA,NA,NA,NA,NA
PVSmeCb5,3odop6t3bvxisk3y617o3pei3yp24c,34q075jo11qwrv1vvypabnaswzz01c,PVSmeCb5,2020-0188,2021-10-14,14:53:31,16:33:57,NA,incomplete,false,true,NA,2,24,NA,brown,m_s_077.jpg,NA,NA,unpleasant,pleasant,NA,NA,NA,NA,NA,right,2265.70000004768,true,NA,NA,NA,NA,NA
PVSmeCb5,3odop6t3bvxisk3y617o3pei3yp24c,34q075jo11qwrv1vvypabnaswzz01c,PVSmeCb5,2020-0188,2021-10-14,14:53:31,16:33:57,NA,incomplete,false,true,NA,2,25,NA,brown,m_s_090.jpg,NA,NA,pleasant,unpleasant,NA,NA,NA,NA,NA,left,1140.5,true,NA,NA,NA,NA,NA
PVSmeCb5,3odop6t3bvxisk3y617o3pei3yp24c,34q075jo11qwrv1vvypabnaswzz01c,PVSmeCb5,2020-0188,2021-10-14,14:53:31,16:33:57,NA,incomplete,false,true,NA,2,26,NA,brown,n_l_025.jpg,NA,NA,pleasant,unpleasant,NA,NA,NA,NA,NA,left,1889.09999990463,true,NA,NA,NA,NA,NA
PVSmeCb5,3odop6t3bvxisk3y617o3pei3yp24c,34q075jo11qwrv1vvypabnaswzz01c,PVSmeCb5,2020-0188,2021-10-14,14:53:31,16:33:57,NA,incomplete,false,true,NA,2,27,NA,brown,n_l_090.jpg,NA,NA,pleasant,unpleasant,NA,NA,NA,NA,NA,right,2143.69999992847,true,NA,NA,NA,NA,NA
PVSmeCb5,3odop6t3bvxisk3y617o3pei3yp24c,34q075jo11qwrv1vvypabnaswzz01c,PVSmeCb5,2020-0188,2021-10-14,14:53:31,16:33:57,NA,incomplete,false,true,NA,2,28,NA,brown,m_l_048.jpg,NA,NA,pleasant,unpleasant,NA,NA,NA,NA,NA,left,1048.29999995232,true,NA,NA,NA,NA,NA
PVSmeCb5,3odop6t3bvxisk3y617o3pei3yp24c,34q075jo11qwrv1vvypabnaswzz01c,PVSmeCb5,2020-0188,2021-10-14,14:53:31,16:33:57,NA,incomplete,false,true,NA,2,29,NA,brown,n_l_030.jpg,NA,NA,pleasant,unpleasant,NA,NA,NA,NA,NA,left,1086,true,NA,NA,NA,NA,NA
PVSmeCb5,3odop6t3bvxisk3y617o3pei3yp24c,34q075jo11qwrv1vvypabnaswzz01c,PVSmeCb5,2020-0188,2021-10-14,14:53:31,16:33:57,NA,incomplete,false,true,NA,2,30,NA,green,n_s_070.jpg,NA,NA,pleasant,unpleasant,NA,NA,NA,NA,NA,left,2136.29999995232,true,NA,NA,NA,NA,NA
PVSmeCb5,3odop6t3bvxisk3y617o3pei3yp24c,34q075jo11qwrv1vvypabnaswzz01c,PVSmeCb5,2020-0188,2021-10-14,14:53:31,16:33:57,NA,incomplete,false,true,NA,2,31,NA,green,m_s_097.jpg,NA,NA,unpleasant,pleasant,NA,NA,NA,NA,NA,left,1982.29999995232,true,NA,NA,NA,NA,NA
PVSmeCb5,3odop6t3bvxisk3y617o3pei3yp24c,34q075jo11qwrv1vvypabnaswzz01c,PVSmeCb5,2020-0188,2021-10-14,14:53:31,16:33:57,NA,incomplete,false,true,NA,2,32,NA,green,m_s_013.jpg,NA,NA,unpleasant,pleasant,NA,NA,NA,NA,NA,right,1558.30000007153,true,NA,NA,NA,NA,NA
PVSmeCb5,3odop6t3bvxisk3y617o3pei3yp24c,34q075jo11qwrv1vvypabnaswzz01c,PVSmeCb5,2020-0188,2021-10-14,14:53:31,16:33:57,NA,incomplete,false,true,NA,2,33,NA,green,m_l_001.jpg,NA,NA,pleasant,unpleasant,NA,NA,NA,NA,NA,right,1580.30000007153,true,NA,NA,NA,NA,NA
PVSmeCb5,3odop6t3bvxisk3y617o3pei3yp24c,34q075jo11qwrv1vvypabnaswzz01c,PVSmeCb5,2020-0188,2021-10-14,14:53:31,16:33:57,NA,incomplete,false,true,NA,2,34,NA,green,n_l_067.jpg,NA,NA,pleasant,unpleasant,NA,NA,NA,NA,NA,left,1105.5,true,NA,NA,NA,NA,NA
PVSmeCb5,3odop6t3bvxisk3y617o3pei3yp24c,34q075jo11qwrv1vvypabnaswzz01c,PVSmeCb5,2020-0188,2021-10-14,14:53:31,16:33:57,NA,incomplete,false,true,NA,2,35,NA,green,n_s_115.jpg,NA,NA,unpleasant,pleasant,NA,NA,NA,NA,NA,right,1338.89999997616,true,NA,NA,NA,NA,NA
PVSmeCb5,3odop6t3bvxisk3y617o3pei3yp24c,34q075jo11qwrv1vvypabnaswzz01c,PVSmeCb5,2020-0188,2021-10-14,14:53:31,16:33:57,NA,incomplete,false,NA,true,2,0,NA,NA,NA,left,absent,NA,NA,m_l_100.jpg,blue,m_s_049.jpg,blue,within,NA,NaN,NA,left,7073.5,1,2,2127.4000000953674
PVSmeCb5,3odop6t3bvxisk3y617o3pei3yp24c,34q075jo11qwrv1vvypabnaswzz01c,PVSmeCb5,2020-0188,2021-10-14,14:53:31,16:33:57,NA,incomplete,false,NA,true,2,1,NA,NA,NA,right,absent,NA,NA,n_l_093.jpg,purple,m_l_093.jpg,white,between,NA,NaN,NA,left,15829.600000023842,0,2,2665
PVSmeCb5,3odop6t3bvxisk3y617o3pei3yp24c,34q075jo11qwrv1vvypabnaswzz01c,PVSmeCb5,2020-0188,2021-10-14,14:53:31,16:33:57,NA,incomplete,false,NA,true,2,2,NA,NA,NA,left,absent,NA,NA,m_l_114.jpg,purple,m_s_022.jpg,purple,within,NA,NaN,NA,left,8747,1,2,2957.7999999523163
PVSmeCb5,3odop6t3bvxisk3y617o3pei3yp24c,34q075jo11qwrv1vvypabnaswzz01c,PVSmeCb5,2020-0188,2021-10-14,14:53:31,16:33:57,NA,incomplete,false,NA,true,2,3,NA,NA,NA,right,absent,NA,NA,n_l_030.jpg,brown,m_s_090.jpg,brown,within,NA,NaN,NA,right,9085,1,1,1661.6000000238419
PVSmeCb5,3odop6t3bvxisk3y617o3pei3yp24c,34q075jo11qwrv1vvypabnaswzz01c,PVSmeCb5,2020-0188,2021-10-14,14:53:31,16:33:57,NA,incomplete,false,NA,true,2,4,NA,NA,NA,left,absent,NA,NA,m_l_048.jpg,brown,m_s_013.jpg,green,between,NA,NaN,NA,right,4970,0,1,4670.100000023842
PVSmeCb5,3odop6t3bvxisk3y617o3pei3yp24c,34q075jo11qwrv1vvypabnaswzz01c,PVSmeCb5,2020-0188,2021-10-14,14:53:31,16:33:57,NA,incomplete,false,NA,true,2,5,NA,NA,NA,left,absent,NA,NA,m_s_088.jpg,red,m_s_110.jpg,blue,between,NA,NaN,NA,right,3022.8000000715256,0,1,10479.800000071526
PVSmeCb5,3odop6t3bvxisk3y617o3pei3yp24c,34q075jo11qwrv1vvypabnaswzz01c,PVSmeCb5,2020-0188,2021-10-14,14:53:31,16:33:57,NA,incomplete,false,NA,true,2,6,NA,NA,NA,left,absent,NA,NA,n_s_027.jpg,purple,n_l_025.jpg,brown,between,NA,NaN,NA,left,5828.5,1,3,5397.100000023842
PVSmeCb5,3odop6t3bvxisk3y617o3pei3yp24c,34q075jo11qwrv1vvypabnaswzz01c,PVSmeCb5,2020-0188,2021-10-14,14:53:31,16:33:57,NA,incomplete,false,NA,true,2,7,NA,NA,NA,left,absent,NA,NA,n_l_065.jpg,blue,n_l_105.jpg,white,between,NA,NaN,NA,right,7617.5,0,2,2664.399999976158
PVSmeCb5,3odop6t3bvxisk3y617o3pei3yp24c,34q075jo11qwrv1vvypabnaswzz01c,PVSmeCb5,2020-0188,2021-10-14,14:53:31,16:33:57,NA,incomplete,false,NA,true,2,8,NA,NA,NA,right,absent,NA,NA,n_s_115.jpg,green,m_s_097.jpg,green,within,NA,NaN,NA,right,6135.5,1,1,6444.699999928474
PVSmeCb5,3odop6t3bvxisk3y617o3pei3yp24c,34q075jo11qwrv1vvypabnaswzz01c,PVSmeCb5,2020-0188,2021-10-14,14:53:31,16:33:57,NA,incomplete,false,NA,true,2,9,NA,NA,NA,right,absent,NA,NA,m_l_084.jpg,red,n_l_059.jpg,red,within,NA,NaN,NA,right,6793.599999904633,1,2,10382.800000071526
PVSmeCb5,3odop6t3bvxisk3y617o3pei3yp24c,34q075jo11qwrv1vvypabnaswzz01c,PVSmeCb5,2020-0188,2021-10-14,14:53:31,16:33:57,NA,incomplete,false,NA,true,2,10,NA,NA,NA,right,absent,NA,NA,m_s_062.jpg,white,m_l_002.jpg,white,within,NA,NaN,NA,left,4072.8000000715256,0,1,1336
PVSmeCb5,3odop6t3bvxisk3y617o3pei3yp24c,34q075jo11qwrv1vvypabnaswzz01c,PVSmeCb5,2020-0188,2021-10-14,14:53:31,16:33:57,NA,incomplete,false,true,NA,3,0,NA,blue,m_s_099.jpg,NA,NA,pleasant,unpleasant,NA,NA,NA,NA,NA,left,1488.89999997616,true,NA,NA,NA,NA,NA
PVSmeCb5,3odop6t3bvxisk3y617o3pei3yp24c,34q075jo11qwrv1vvypabnaswzz01c,PVSmeCb5,2020-0188,2021-10-14,14:53:31,16:33:57,NA,incomplete,false,true,NA,3,1,NA,blue,m_s_014.jpg,NA,NA,unpleasant,pleasant,NA,NA,NA,NA,NA,right,1524.89999997616,true,NA,NA,NA,NA,NA
PVSmeCb5,3odop6t3bvxisk3y617o3pei3yp24c,34q075jo11qwrv1vvypabnaswzz01c,PVSmeCb5,2020-0188,2021-10-14,14:53:31,16:33:57,NA,incomplete,false,true,NA,3,2,NA,blue,m_l_005.jpg,NA,NA,unpleasant,pleasant,NA,NA,NA,NA,NA,right,2123.60000002384,true,NA,NA,NA,NA,NA
PVSmeCb5,3odop6t3bvxisk3y617o3pei3yp24c,34q075jo11qwrv1vvypabnaswzz01c,PVSmeCb5,2020-0188,2021-10-14,14:53:31,16:33:57,NA,incomplete,false,true,NA,3,3,NA,blue,n_l_087.jpg,NA,NA,unpleasant,pleasant,NA,NA,NA,NA,NA,right,1788.5,true,NA,NA,NA,NA,NA
PVSmeCb5,3odop6t3bvxisk3y617o3pei3yp24c,34q075jo11qwrv1vvypabnaswzz01c,PVSmeCb5,2020-0188,2021-10-14,14:53:31,16:33:57,NA,incomplete,false,true,NA,3,4,NA,blue,m_s_092.jpg,NA,NA,pleasant,unpleasant,NA,NA,NA,NA,NA,left,1811.39999997616,true,NA,NA,NA,NA,NA
PVSmeCb5,3odop6t3bvxisk3y617o3pei3yp24c,34q075jo11qwrv1vvypabnaswzz01c,PVSmeCb5,2020-0188,2021-10-14,14:53:31,16:33:57,NA,incomplete,false,true,NA,3,5,NA,blue,n_s_022.jpg,NA,NA,unpleasant,pleasant,NA,NA,NA,NA,NA,right,3135.5,true,NA,NA,NA,NA,NA
PVSmeCb5,3odop6t3bvxisk3y617o3pei3yp24c,34q075jo11qwrv1vvypabnaswzz01c,PVSmeCb5,2020-0188,2021-10-14,14:53:31,16:33:57,NA,incomplete,false,true,NA,3,6,NA,yellow,m_s_079.jpg,NA,NA,pleasant,unpleasant,NA,NA,NA,NA,NA,left,2040.39999997616,true,NA,NA,NA,NA,NA
PVSmeCb5,3odop6t3bvxisk3y617o3pei3yp24c,34q075jo11qwrv1vvypabnaswzz01c,PVSmeCb5,2020-0188,2021-10-14,14:53:31,16:33:57,NA,incomplete,false,true,NA,3,7,NA,yellow,m_l_025.jpg,NA,NA,unpleasant,pleasant,NA,NA,NA,NA,NA,right,2970.10000002384,true,NA,NA,NA,NA,NA
PVSmeCb5,3odop6t3bvxisk3y617o3pei3yp24c,34q075jo11qwrv1vvypabnaswzz01c,PVSmeCb5,2020-0188,2021-10-14,14:53:31,16:33:57,NA,incomplete,false,true,NA,3,8,NA,yellow,n_s_020.jpg,NA,NA,pleasant,unpleasant,NA,NA,NA,NA,NA,left,2471.79999995232,true,NA,NA,NA,NA,NA
PVSmeCb5,3odop6t3bvxisk3y617o3pei3yp24c,34q075jo11qwrv1vvypabnaswzz01c,PVSmeCb5,2020-0188,2021-10-14,14:53:31,16:33:57,NA,incomplete,false,true,NA,3,9,NA,yellow,m_l_065.jpg,NA,NA,unpleasant,pleasant,NA,NA,NA,NA,NA,right,1540.10000002384,true,NA,NA,NA,NA,NA
PVSmeCb5,3odop6t3bvxisk3y617o3pei3yp24c,34q075jo11qwrv1vvypabnaswzz01c,PVSmeCb5,2020-0188,2021-10-14,14:53:31,16:33:57,NA,incomplete,false,true,NA,3,10,NA,yellow,m_s_070.jpg,NA,NA,unpleasant,pleasant,NA,NA,NA,NA,NA,right,1211,true,NA,NA,NA,NA,NA
PVSmeCb5,3odop6t3bvxisk3y617o3pei3yp24c,34q075jo11qwrv1vvypabnaswzz01c,PVSmeCb5,2020-0188,2021-10-14,14:53:31,16:33:57,NA,incomplete,false,true,NA,3,11,NA,yellow,m_s_025.jpg,NA,NA,pleasant,unpleasant,NA,NA,NA,NA,NA,left,1864,true,NA,NA,NA,NA,NA
PVSmeCb5,3odop6t3bvxisk3y617o3pei3yp24c,34q075jo11qwrv1vvypabnaswzz01c,PVSmeCb5,2020-0188,2021-10-14,14:53:31,16:33:57,NA,incomplete,false,true,NA,3,12,NA,red,n_s_091.jpg,NA,NA,unpleasant,pleasant,NA,NA,NA,NA,NA,left,2406,true,NA,NA,NA,NA,NA
PVSmeCb5,3odop6t3bvxisk3y617o3pei3yp24c,34q075jo11qwrv1vvypabnaswzz01c,PVSmeCb5,2020-0188,2021-10-14,14:53:31,16:33:57,NA,incomplete,false,true,NA,3,13,NA,red,n_l_054.jpg,NA,NA,unpleasant,pleasant,NA,NA,NA,NA,NA,right,2073.10000002384,true,NA,NA,NA,NA,NA
PVSmeCb5,3odop6t3bvxisk3y617o3pei3yp24c,34q075jo11qwrv1vvypabnaswzz01c,PVSmeCb5,2020-0188,2021-10-14,14:53:31,16:33:57,NA,incomplete,false,true,NA,3,14,NA,red,m_s_030.jpg,NA,NA,pleasant,unpleasant,NA,NA,NA,NA,NA,left,2542.89999997616,true,NA,NA,NA,NA,NA
PVSmeCb5,3odop6t3bvxisk3y617o3pei3yp24c,34q075jo11qwrv1vvypabnaswzz01c,PVSmeCb5,2020-0188,2021-10-14,14:53:31,16:33:57,NA,incomplete,false,true,NA,3,15,NA,red,n_l_028.jpg,NA,NA,pleasant,unpleasant,NA,NA,NA,NA,NA,right,2790.70000004768,true,NA,NA,NA,NA,NA
PVSmeCb5,3odop6t3bvxisk3y617o3pei3yp24c,34q075jo11qwrv1vvypabnaswzz01c,PVSmeCb5,2020-0188,2021-10-14,14:53:31,16:33:57,NA,incomplete,false,true,NA,3,16,NA,red,n_s_112.jpg,NA,NA,pleasant,unpleasant,NA,NA,NA,NA,NA,left,2136.5,true,NA,NA,NA,NA,NA
PVSmeCb5,3odop6t3bvxisk3y617o3pei3yp24c,34q075jo11qwrv1vvypabnaswzz01c,PVSmeCb5,2020-0188,2021-10-14,14:53:31,16:33:57,NA,incomplete,false,true,NA,3,17,NA,red,m_l_055.jpg,NA,NA,pleasant,unpleasant,NA,NA,NA,NA,NA,left,2837.89999997616,true,NA,NA,NA,NA,NA
PVSmeCb5,3odop6t3bvxisk3y617o3pei3yp24c,34q075jo11qwrv1vvypabnaswzz01c,PVSmeCb5,2020-0188,2021-10-14,14:53:31,16:33:57,NA,incomplete,false,true,NA,3,18,NA,gray,m_s_116.jpg,NA,NA,unpleasant,pleasant,NA,NA,NA,NA,NA,right,1871.39999997616,true,NA,NA,NA,NA,NA
PVSmeCb5,3odop6t3bvxisk3y617o3pei3yp24c,34q075jo11qwrv1vvypabnaswzz01c,PVSmeCb5,2020-0188,2021-10-14,14:53:31,16:33:57,NA,incomplete,false,true,NA,3,19,NA,gray,n_s_017.jpg,NA,NA,unpleasant,pleasant,NA,NA,NA,NA,NA,left,1478.30000007153,true,NA,NA,NA,NA,NA
PVSmeCb5,3odop6t3bvxisk3y617o3pei3yp24c,34q075jo11qwrv1vvypabnaswzz01c,PVSmeCb5,2020-0188,2021-10-14,14:53:31,16:33:57,NA,incomplete,false,true,NA,3,20,NA,gray,m_l_059.jpg,NA,NA,unpleasant,pleasant,NA,NA,NA,NA,NA,left,1609.39999997616,true,NA,NA,NA,NA,NA
PVSmeCb5,3odop6t3bvxisk3y617o3pei3yp24c,34q075jo11qwrv1vvypabnaswzz01c,PVSmeCb5,2020-0188,2021-10-14,14:53:31,16:33:57,NA,incomplete,false,true,NA,3,21,NA,gray,n_l_097.jpg,NA,NA,unpleasant,pleasant,NA,NA,NA,NA,NA,right,3076.20000004768,true,NA,NA,NA,NA,NA
PVSmeCb5,3odop6t3bvxisk3y617o3pei3yp24c,34q075jo11qwrv1vvypabnaswzz01c,PVSmeCb5,2020-0188,2021-10-14,14:53:31,16:33:57,NA,incomplete,false,true,NA,3,22,NA,gray,n_s_042.jpg,NA,NA,unpleasant,pleasant,NA,NA,NA,NA,NA,right,1303.69999992847,true,NA,NA,NA,NA,NA
PVSmeCb5,3odop6t3bvxisk3y617o3pei3yp24c,34q075jo11qwrv1vvypabnaswzz01c,PVSmeCb5,2020-0188,2021-10-14,14:53:31,16:33:57,NA,incomplete,false,true,NA,3,23,NA,gray,n_l_075.jpg,NA,NA,pleasant,unpleasant,NA,NA,NA,NA,NA,right,2309.39999997616,true,NA,NA,NA,NA,NA
PVSmeCb5,3odop6t3bvxisk3y617o3pei3yp24c,34q075jo11qwrv1vvypabnaswzz01c,PVSmeCb5,2020-0188,2021-10-14,14:53:31,16:33:57,NA,incomplete,false,true,NA,3,24,NA,green,m_l_041.jpg,NA,NA,unpleasant,pleasant,NA,NA,NA,NA,NA,right,1295,true,NA,NA,NA,NA,NA
PVSmeCb5,3odop6t3bvxisk3y617o3pei3yp24c,34q075jo11qwrv1vvypabnaswzz01c,PVSmeCb5,2020-0188,2021-10-14,14:53:31,16:33:57,NA,incomplete,false,true,NA,3,25,NA,green,m_s_021.jpg,NA,NA,unpleasant,pleasant,NA,NA,NA,NA,NA,right,2294.59999990463,true,NA,NA,NA,NA,NA
PVSmeCb5,3odop6t3bvxisk3y617o3pei3yp24c,34q075jo11qwrv1vvypabnaswzz01c,PVSmeCb5,2020-0188,2021-10-14,14:53:31,16:33:57,NA,incomplete,false,true,NA,3,26,NA,green,n_s_081.jpg,NA,NA,pleasant,unpleasant,NA,NA,NA,NA,NA,left,1742.40000009537,true,NA,NA,NA,NA,NA
PVSmeCb5,3odop6t3bvxisk3y617o3pei3yp24c,34q075jo11qwrv1vvypabnaswzz01c,PVSmeCb5,2020-0188,2021-10-14,14:53:31,16:33:57,NA,incomplete,false,true,NA,3,27,NA,green,n_l_074.jpg,NA,NA,pleasant,unpleasant,NA,NA,NA,NA,NA,left,1336.60000002384,true,NA,NA,NA,NA,NA
PVSmeCb5,3odop6t3bvxisk3y617o3pei3yp24c,34q075jo11qwrv1vvypabnaswzz01c,PVSmeCb5,2020-0188,2021-10-14,14:53:31,16:33:57,NA,incomplete,false,true,NA,3,28,NA,green,n_l_019.jpg,NA,NA,pleasant,unpleasant,NA,NA,NA,NA,NA,left,1258.89999997616,true,NA,NA,NA,NA,NA
PVSmeCb5,3odop6t3bvxisk3y617o3pei3yp24c,34q075jo11qwrv1vvypabnaswzz01c,PVSmeCb5,2020-0188,2021-10-14,14:53:31,16:33:57,NA,incomplete,false,true,NA,3,29,NA,green,m_s_069.jpg,NA,NA,unpleasant,pleasant,NA,NA,NA,NA,NA,right,1074,true,NA,NA,NA,NA,NA
PVSmeCb5,3odop6t3bvxisk3y617o3pei3yp24c,34q075jo11qwrv1vvypabnaswzz01c,PVSmeCb5,2020-0188,2021-10-14,14:53:31,16:33:57,NA,incomplete,false,true,NA,3,30,NA,orange,m_s_081.jpg,NA,NA,unpleasant,pleasant,NA,NA,NA,NA,NA,right,2176.60000002384,true,NA,NA,NA,NA,NA
PVSmeCb5,3odop6t3bvxisk3y617o3pei3yp24c,34q075jo11qwrv1vvypabnaswzz01c,PVSmeCb5,2020-0188,2021-10-14,14:53:31,16:33:57,NA,incomplete,false,true,NA,3,31,NA,orange,n_l_033.jpg,NA,NA,pleasant,unpleasant,NA,NA,NA,NA,NA,right,1283.10000002384,true,NA,NA,NA,NA,NA
PVSmeCb5,3odop6t3bvxisk3y617o3pei3yp24c,34q075jo11qwrv1vvypabnaswzz01c,PVSmeCb5,2020-0188,2021-10-14,14:53:31,16:33:57,NA,incomplete,false,true,NA,3,32,NA,orange,n_l_006.jpg,NA,NA,unpleasant,pleasant,NA,NA,NA,NA,NA,right,1044.39999997616,true,NA,NA,NA,NA,NA
PVSmeCb5,3odop6t3bvxisk3y617o3pei3yp24c,34q075jo11qwrv1vvypabnaswzz01c,PVSmeCb5,2020-0188,2021-10-14,14:53:31,16:33:57,NA,incomplete,false,true,NA,3,33,NA,orange,n_s_026.jpg,NA,NA,unpleasant,pleasant,NA,NA,NA,NA,NA,left,1077.10000002384,true,NA,NA,NA,NA,NA
PVSmeCb5,3odop6t3bvxisk3y617o3pei3yp24c,34q075jo11qwrv1vvypabnaswzz01c,PVSmeCb5,2020-0188,2021-10-14,14:53:31,16:33:57,NA,incomplete,false,true,NA,3,34,NA,orange,m_l_068.jpg,NA,NA,unpleasant,pleasant,NA,NA,NA,NA,NA,right,1441.5,true,NA,NA,NA,NA,NA
PVSmeCb5,3odop6t3bvxisk3y617o3pei3yp24c,34q075jo11qwrv1vvypabnaswzz01c,PVSmeCb5,2020-0188,2021-10-14,14:53:31,16:33:57,NA,incomplete,false,true,NA,3,35,NA,orange,n_l_001.jpg,NA,NA,pleasant,unpleasant,NA,NA,NA,NA,NA,left,1565,true,NA,NA,NA,NA,NA
PVSmeCb5,3odop6t3bvxisk3y617o3pei3yp24c,34q075jo11qwrv1vvypabnaswzz01c,PVSmeCb5,2020-0188,2021-10-14,14:53:31,16:33:57,NA,incomplete,false,NA,true,3,0,NA,NA,NA,right,present,NA,NA,n_s_020.jpg,yellow,m_s_092.jpg,blue,between,NA,NaN,NA,right,10432.600000023842,1,1,2610.0999999046326
PVSmeCb5,3odop6t3bvxisk3y617o3pei3yp24c,34q075jo11qwrv1vvypabnaswzz01c,PVSmeCb5,2020-0188,2021-10-14,14:53:31,16:33:57,NA,incomplete,false,NA,true,3,1,NA,NA,NA,right,present,NA,NA,n_l_006.jpg,orange,n_l_019.jpg,green,between,NA,NaN,NA,right,9664.100000023842,1,1,3403
PVSmeCb5,3odop6t3bvxisk3y617o3pei3yp24c,34q075jo11qwrv1vvypabnaswzz01c,PVSmeCb5,2020-0188,2021-10-14,14:53:31,16:33:57,NA,incomplete,false,NA,true,3,2,NA,NA,NA,left,present,NA,NA,m_l_025.jpg,yellow,m_s_025.jpg,yellow,within,NA,NaN,NA,right,8050.100000023842,0,0,2798.5
PVSmeCb5,3odop6t3bvxisk3y617o3pei3yp24c,34q075jo11qwrv1vvypabnaswzz01c,PVSmeCb5,2020-0188,2021-10-14,14:53:31,16:33:57,NA,incomplete,false,NA,true,3,3,NA,NA,NA,right,present,NA,NA,n_s_081.jpg,green,n_s_042.jpg,gray,between,NA,NaN,NA,right,4555.5,1,2,1979.1999999284744
PVSmeCb5,3odop6t3bvxisk3y617o3pei3yp24c,34q075jo11qwrv1vvypabnaswzz01c,PVSmeCb5,2020-0188,2021-10-14,14:53:31,16:33:57,NA,incomplete,false,NA,true,3,4,NA,NA,NA,left,present,NA,NA,n_s_017.jpg,gray,n_l_075.jpg,gray,within,NA,NaN,NA,left,4893.5,1,0,1447.8999999761581
PVSmeCb5,3odop6t3bvxisk3y617o3pei3yp24c,34q075jo11qwrv1vvypabnaswzz01c,PVSmeCb5,2020-0188,2021-10-14,14:53:31,16:33:57,NA,incomplete,false,NA,true,3,5,NA,NA,NA,left,present,NA,NA,n_l_033.jpg,orange,n_l_001.jpg,orange,within,NA,NaN,NA,left,7175.200000047684,1,0,1355.1000000238419
PVSmeCb5,3odop6t3bvxisk3y617o3pei3yp24c,34q075jo11qwrv1vvypabnaswzz01c,PVSmeCb5,2020-0188,2021-10-14,14:53:31,16:33:57,NA,incomplete,false,NA,true,3,6,NA,NA,NA,right,present,NA,NA,m_l_055.jpg,red,n_l_054.jpg,red,within,NA,NaN,NA,right,3112.399999976158,1,0,1215.3999999761581
PVSmeCb5,3odop6t3bvxisk3y617o3pei3yp24c,34q075jo11qwrv1vvypabnaswzz01c,PVSmeCb5,2020-0188,2021-10-14,14:53:31,16:33:57,NA,incomplete,false,NA,true,3,7,NA,NA,NA,left,present,NA,NA,m_s_014.jpg,blue,n_s_022.jpg,blue,within,NA,NaN,NA,left,6357.400000095367,1,0,1269.1000000238419
PVSmeCb5,3odop6t3bvxisk3y617o3pei3yp24c,34q075jo11qwrv1vvypabnaswzz01c,PVSmeCb5,2020-0188,2021-10-14,14:53:31,16:33:57,NA,incomplete,false,NA,true,3,8,NA,NA,NA,left,present,NA,NA,m_s_070.jpg,yellow,m_s_030.jpg,red,between,NA,NaN,NA,left,6210.700000047684,1,2,5429
PVSmeCb5,3odop6t3bvxisk3y617o3pei3yp24c,34q075jo11qwrv1vvypabnaswzz01c,PVSmeCb5,2020-0188,2021-10-14,14:53:31,16:33:57,NA,incomplete,false,NA,true,3,9,NA,NA,NA,right,present,NA,NA,m_s_069.jpg,green,m_s_021.jpg,green,within,NA,NaN,NA,right,4324.299999952316,1,0,1127.7000000476837
PVSmeCb5,3odop6t3bvxisk3y617o3pei3yp24c,34q075jo11qwrv1vvypabnaswzz01c,PVSmeCb5,2020-0188,2021-10-14,14:53:31,16:33:57,NA,incomplete,false,NA,true,3,10,NA,NA,NA,right,present,NA,NA,m_l_059.jpg,gray,n_s_112.jpg,red,between,NA,NaN,NA,right,3834.600000023842,1,2,1515.1000000238419
PVSmeCb5,3odop6t3bvxisk3y617o3pei3yp24c,34q075jo11qwrv1vvypabnaswzz01c,PVSmeCb5,2020-0188,2021-10-14,14:53:31,16:33:57,NA,incomplete,false,true,NA,4,0,NA,white,m_l_031.jpg,NA,NA,unpleasant,pleasant,NA,NA,NA,NA,NA,right,1414.59999990463,true,NA,NA,NA,NA,NA
PVSmeCb5,3odop6t3bvxisk3y617o3pei3yp24c,34q075jo11qwrv1vvypabnaswzz01c,PVSmeCb5,2020-0188,2021-10-14,14:53:31,16:33:57,NA,incomplete,false,true,NA,4,1,NA,white,m_s_004.jpg,NA,NA,pleasant,unpleasant,NA,NA,NA,NA,NA,left,1529.89999997616,true,NA,NA,NA,NA,NA
PVSmeCb5,3odop6t3bvxisk3y617o3pei3yp24c,34q075jo11qwrv1vvypabnaswzz01c,PVSmeCb5,2020-0188,2021-10-14,14:53:31,16:33:57,NA,incomplete,false,true,NA,4,2,NA,white,m_l_038.jpg,NA,NA,unpleasant,pleasant,NA,NA,NA,NA,NA,left,1283.79999995232,true,NA,NA,NA,NA,NA
PVSmeCb5,3odop6t3bvxisk3y617o3pei3yp24c,34q075jo11qwrv1vvypabnaswzz01c,PVSmeCb5,2020-0188,2021-10-14,14:53:31,16:33:57,NA,incomplete,false,true,NA,4,3,NA,white,m_s_041.jpg,NA,NA,unpleasant,pleasant,NA,NA,NA,NA,NA,right,1166.60000002384,true,NA,NA,NA,NA,NA
PVSmeCb5,3odop6t3bvxisk3y617o3pei3yp24c,34q075jo11qwrv1vvypabnaswzz01c,PVSmeCb5,2020-0188,2021-10-14,14:53:31,16:33:57,NA,incomplete,false,true,NA,4,4,NA,white,m_s_105.jpg,NA,NA,unpleasant,pleasant,NA,NA,NA,NA,NA,right,1160.79999995232,true,NA,NA,NA,NA,NA
PVSmeCb5,3odop6t3bvxisk3y617o3pei3yp24c,34q075jo11qwrv1vvypabnaswzz01c,PVSmeCb5,2020-0188,2021-10-14,14:53:31,16:33:57,NA,incomplete,false,true,NA,4,5,NA,white,m_l_091.jpg,NA,NA,unpleasant,pleasant,NA,NA,NA,NA,NA,right,940.399999976158,true,NA,NA,NA,NA,NA
PVSmeCb5,3odop6t3bvxisk3y617o3pei3yp24c,34q075jo11qwrv1vvypabnaswzz01c,PVSmeCb5,2020-0188,2021-10-14,14:53:31,16:33:57,NA,incomplete,false,true,NA,4,6,NA,green,m_s_029.jpg,NA,NA,pleasant,unpleasant,NA,NA,NA,NA,NA,left,1391.5,true,NA,NA,NA,NA,NA
PVSmeCb5,3odop6t3bvxisk3y617o3pei3yp24c,34q075jo11qwrv1vvypabnaswzz01c,PVSmeCb5,2020-0188,2021-10-14,14:53:31,16:33:57,NA,incomplete,false,true,NA,4,7,NA,green,m_l_014.jpg,NA,NA,unpleasant,pleasant,NA,NA,NA,NA,NA,right,1269.5,true,NA,NA,NA,NA,NA
PVSmeCb5,3odop6t3bvxisk3y617o3pei3yp24c,34q075jo11qwrv1vvypabnaswzz01c,PVSmeCb5,2020-0188,2021-10-14,14:53:31,16:33:57,NA,incomplete,false,true,NA,4,8,NA,green,m_s_035.jpg,NA,NA,unpleasant,pleasant,NA,NA,NA,NA,NA,right,1228.39999997616,true,NA,NA,NA,NA,NA
PVSmeCb5,3odop6t3bvxisk3y617o3pei3yp24c,34q075jo11qwrv1vvypabnaswzz01c,PVSmeCb5,2020-0188,2021-10-14,14:53:31,16:33:57,NA,incomplete,false,true,NA,4,9,NA,green,m_s_020.jpg,NA,NA,pleasant,unpleasant,NA,NA,NA,NA,NA,left,1359.29999995232,true,NA,NA,NA,NA,NA
PVSmeCb5,3odop6t3bvxisk3y617o3pei3yp24c,34q075jo11qwrv1vvypabnaswzz01c,PVSmeCb5,2020-0188,2021-10-14,14:53:31,16:33:57,NA,incomplete,false,true,NA,4,10,NA,green,n_l_014.jpg,NA,NA,pleasant,unpleasant,NA,NA,NA,NA,NA,left,1298.29999995232,true,NA,NA,NA,NA,NA
PVSmeCb5,3odop6t3bvxisk3y617o3pei3yp24c,34q075jo11qwrv1vvypabnaswzz01c,PVSmeCb5,2020-0188,2021-10-14,14:53:31,16:33:57,NA,incomplete,false,true,NA,4,11,NA,green,n_l_078.jpg,NA,NA,unpleasant,pleasant,NA,NA,NA,NA,NA,right,1104.60000002384,true,NA,NA,NA,NA,NA
PVSmeCb5,3odop6t3bvxisk3y617o3pei3yp24c,34q075jo11qwrv1vvypabnaswzz01c,PVSmeCb5,2020-0188,2021-10-14,14:53:31,16:33:57,NA,incomplete,false,true,NA,4,12,NA,black,n_l_077.jpg,NA,NA,unpleasant,pleasant,NA,NA,NA,NA,NA,left,1661.79999995232,true,NA,NA,NA,NA,NA
PVSmeCb5,3odop6t3bvxisk3y617o3pei3yp24c,34q075jo11qwrv1vvypabnaswzz01c,PVSmeCb5,2020-0188,2021-10-14,14:53:31,16:33:57,NA,incomplete,false,true,NA,4,13,NA,black,m_s_094.jpg,NA,NA,unpleasant,pleasant,NA,NA,NA,NA,NA,right,1103.30000007153,true,NA,NA,NA,NA,NA
PVSmeCb5,3odop6t3bvxisk3y617o3pei3yp24c,34q075jo11qwrv1vvypabnaswzz01c,PVSmeCb5,2020-0188,2021-10-14,14:53:31,16:33:57,NA,incomplete,false,true,NA,4,14,NA,black,m_l_064.jpg,NA,NA,pleasant,unpleasant,NA,NA,NA,NA,NA,left,1542.10000002384,true,NA,NA,NA,NA,NA
PVSmeCb5,3odop6t3bvxisk3y617o3pei3yp24c,34q075jo11qwrv1vvypabnaswzz01c,PVSmeCb5,2020-0188,2021-10-14,14:53:31,16:33:57,NA,incomplete,false,true,NA,4,15,NA,black,n_s_090.jpg,NA,NA,pleasant,unpleasant,NA,NA,NA,NA,NA,left,1614.30000007153,true,NA,NA,NA,NA,NA
PVSmeCb5,3odop6t3bvxisk3y617o3pei3yp24c,34q075jo11qwrv1vvypabnaswzz01c,PVSmeCb5,2020-0188,2021-10-14,14:53:31,16:33:57,NA,incomplete,false,true,NA,4,16,NA,black,m_l_030.jpg,NA,NA,pleasant,unpleasant,NA,NA,NA,NA,NA,left,1449.5,true,NA,NA,NA,NA,NA
PVSmeCb5,3odop6t3bvxisk3y617o3pei3yp24c,34q075jo11qwrv1vvypabnaswzz01c,PVSmeCb5,2020-0188,2021-10-14,14:53:31,16:33:57,NA,incomplete,false,true,NA,4,17,NA,black,m_s_100.jpg,NA,NA,unpleasant,pleasant,NA,NA,NA,NA,NA,right,1339,true,NA,NA,NA,NA,NA
PVSmeCb5,3odop6t3bvxisk3y617o3pei3yp24c,34q075jo11qwrv1vvypabnaswzz01c,PVSmeCb5,2020-0188,2021-10-14,14:53:31,16:33:57,NA,incomplete,false,true,NA,4,18,NA,brown,n_s_055.jpg,NA,NA,unpleasant,pleasant,NA,NA,NA,NA,NA,right,1678.60000002384,true,NA,NA,NA,NA,NA
PVSmeCb5,3odop6t3bvxisk3y617o3pei3yp24c,34q075jo11qwrv1vvypabnaswzz01c,PVSmeCb5,2020-0188,2021-10-14,14:53:31,16:33:57,NA,incomplete,false,true,NA,4,19,NA,brown,m_l_010.jpg,NA,NA,pleasant,unpleasant,NA,NA,NA,NA,NA,left,1325.10000002384,true,NA,NA,NA,NA,NA
PVSmeCb5,3odop6t3bvxisk3y617o3pei3yp24c,34q075jo11qwrv1vvypabnaswzz01c,PVSmeCb5,2020-0188,2021-10-14,14:53:31,16:33:57,NA,incomplete,false,true,NA,4,20,NA,brown,m_l_083.jpg,NA,NA,pleasant,unpleasant,NA,NA,NA,NA,NA,left,1273.5,true,NA,NA,NA,NA,NA
PVSmeCb5,3odop6t3bvxisk3y617o3pei3yp24c,34q075jo11qwrv1vvypabnaswzz01c,PVSmeCb5,2020-0188,2021-10-14,14:53:31,16:33:57,NA,incomplete,false,true,NA,4,21,NA,brown,n_l_045.jpg,NA,NA,pleasant,unpleasant,NA,NA,NA,NA,NA,left,1882.60000002384,true,NA,NA,NA,NA,NA
PVSmeCb5,3odop6t3bvxisk3y617o3pei3yp24c,34q075jo11qwrv1vvypabnaswzz01c,PVSmeCb5,2020-0188,2021-10-14,14:53:31,16:33:57,NA,incomplete,false,true,NA,4,22,NA,brown,m_s_076.jpg,NA,NA,unpleasant,pleasant,NA,NA,NA,NA,NA,right,1301.69999992847,true,NA,NA,NA,NA,NA
PVSmeCb5,3odop6t3bvxisk3y617o3pei3yp24c,34q075jo11qwrv1vvypabnaswzz01c,PVSmeCb5,2020-0188,2021-10-14,14:53:31,16:33:57,NA,incomplete,false,true,NA,4,23,NA,brown,n_s_050.jpg,NA,NA,pleasant,unpleasant,NA,NA,NA,NA,NA,left,1504.70000004768,true,NA,NA,NA,NA,NA
PVSmeCb5,3odop6t3bvxisk3y617o3pei3yp24c,34q075jo11qwrv1vvypabnaswzz01c,PVSmeCb5,2020-0188,2021-10-14,14:53:31,16:33:57,NA,incomplete,false,true,NA,4,24,NA,yellow,n_l_071.jpg,NA,NA,unpleasant,pleasant,NA,NA,NA,NA,NA,right,1095.19999992847,true,NA,NA,NA,NA,NA
PVSmeCb5,3odop6t3bvxisk3y617o3pei3yp24c,34q075jo11qwrv1vvypabnaswzz01c,PVSmeCb5,2020-0188,2021-10-14,14:53:31,16:33:57,NA,incomplete,false,true,NA,4,25,NA,yellow,n_s_094.jpg,NA,NA,unpleasant,pleasant,NA,NA,NA,NA,NA,right,1161.79999995232,true,NA,NA,NA,NA,NA
PVSmeCb5,3odop6t3bvxisk3y617o3pei3yp24c,34q075jo11qwrv1vvypabnaswzz01c,PVSmeCb5,2020-0188,2021-10-14,14:53:31,16:33:57,NA,incomplete,false,true,NA,4,26,NA,yellow,m_l_045.jpg,NA,NA,unpleasant,pleasant,NA,NA,NA,NA,NA,right,1126.10000002384,true,NA,NA,NA,NA,NA
PVSmeCb5,3odop6t3bvxisk3y617o3pei3yp24c,34q075jo11qwrv1vvypabnaswzz01c,PVSmeCb5,2020-0188,2021-10-14,14:53:31,16:33:57,NA,incomplete,false,true,NA,4,27,NA,yellow,m_s_084.jpg,NA,NA,unpleasant,pleasant,NA,NA,NA,NA,NA,right,1282.5,true,NA,NA,NA,NA,NA
PVSmeCb5,3odop6t3bvxisk3y617o3pei3yp24c,34q075jo11qwrv1vvypabnaswzz01c,PVSmeCb5,2020-0188,2021-10-14,14:53:31,16:33:57,NA,incomplete,false,true,NA,4,28,NA,yellow,m_s_114.jpg,NA,NA,unpleasant,pleasant,NA,NA,NA,NA,NA,right,1173.5,true,NA,NA,NA,NA,NA
PVSmeCb5,3odop6t3bvxisk3y617o3pei3yp24c,34q075jo11qwrv1vvypabnaswzz01c,PVSmeCb5,2020-0188,2021-10-14,14:53:31,16:33:57,NA,incomplete,false,true,NA,4,29,NA,yellow,n_s_073.jpg,NA,NA,pleasant,unpleasant,NA,NA,NA,NA,NA,right,1652.89999997616,true,NA,NA,NA,NA,NA
PVSmeCb5,3odop6t3bvxisk3y617o3pei3yp24c,34q075jo11qwrv1vvypabnaswzz01c,PVSmeCb5,2020-0188,2021-10-14,14:53:31,16:33:57,NA,incomplete,false,true,NA,4,30,NA,orange,m_s_065.jpg,NA,NA,pleasant,unpleasant,NA,NA,NA,NA,NA,left,1771.10000002384,true,NA,NA,NA,NA,NA
PVSmeCb5,3odop6t3bvxisk3y617o3pei3yp24c,34q075jo11qwrv1vvypabnaswzz01c,PVSmeCb5,2020-0188,2021-10-14,14:53:31,16:33:57,NA,incomplete,false,true,NA,4,31,NA,orange,m_s_044.jpg,NA,NA,unpleasant,pleasant,NA,NA,NA,NA,NA,right,1222,true,NA,NA,NA,NA,NA
PVSmeCb5,3odop6t3bvxisk3y617o3pei3yp24c,34q075jo11qwrv1vvypabnaswzz01c,PVSmeCb5,2020-0188,2021-10-14,14:53:31,16:33:57,NA,incomplete,false,true,NA,4,32,NA,orange,m_l_052.jpg,NA,NA,unpleasant,pleasant,NA,NA,NA,NA,NA,right,1210.19999992847,true,NA,NA,NA,NA,NA
PVSmeCb5,3odop6t3bvxisk3y617o3pei3yp24c,34q075jo11qwrv1vvypabnaswzz01c,PVSmeCb5,2020-0188,2021-10-14,14:53:31,16:33:57,NA,incomplete,false,true,NA,4,33,NA,orange,m_s_089.jpg,NA,NA,unpleasant,pleasant,NA,NA,NA,NA,NA,right,1062.89999997616,true,NA,NA,NA,NA,NA
PVSmeCb5,3odop6t3bvxisk3y617o3pei3yp24c,34q075jo11qwrv1vvypabnaswzz01c,PVSmeCb5,2020-0188,2021-10-14,14:53:31,16:33:57,NA,incomplete,false,true,NA,4,34,NA,orange,m_l_016.jpg,NA,NA,unpleasant,pleasant,NA,NA,NA,NA,NA,right,945.5,true,NA,NA,NA,NA,NA
PVSmeCb5,3odop6t3bvxisk3y617o3pei3yp24c,34q075jo11qwrv1vvypabnaswzz01c,PVSmeCb5,2020-0188,2021-10-14,14:53:31,16:33:57,NA,incomplete,false,true,NA,4,35,NA,orange,n_s_099.jpg,NA,NA,unpleasant,pleasant,NA,NA,NA,NA,NA,right,979.5,true,NA,NA,NA,NA,NA
PVSmeCb5,3odop6t3bvxisk3y617o3pei3yp24c,34q075jo11qwrv1vvypabnaswzz01c,PVSmeCb5,2020-0188,2021-10-14,14:53:31,16:33:57,NA,incomplete,false,NA,true,4,0,NA,NA,NA,left,present,NA,NA,m_s_004.jpg,white,m_l_091.jpg,white,within,NA,NaN,NA,left,4960.300000071526,1,0,5327
PVSmeCb5,3odop6t3bvxisk3y617o3pei3yp24c,34q075jo11qwrv1vvypabnaswzz01c,PVSmeCb5,2020-0188,2021-10-14,14:53:31,16:33:57,NA,incomplete,false,NA,true,4,1,NA,NA,NA,left,present,NA,NA,m_s_114.jpg,yellow,m_l_052.jpg,orange,between,NA,NaN,NA,left,8201.400000095367,1,1,3087.2000000476837
PVSmeCb5,3odop6t3bvxisk3y617o3pei3yp24c,34q075jo11qwrv1vvypabnaswzz01c,PVSmeCb5,2020-0188,2021-10-14,14:53:31,16:33:57,NA,incomplete,false,NA,true,4,2,NA,NA,NA,left,present,NA,NA,n_s_094.jpg,yellow,n_s_073.jpg,yellow,within,NA,NaN,NA,left,3214,1,0,1170.5
PVSmeCb5,3odop6t3bvxisk3y617o3pei3yp24c,34q075jo11qwrv1vvypabnaswzz01c,PVSmeCb5,2020-0188,2021-10-14,14:53:31,16:33:57,NA,incomplete,false,NA,true,4,3,NA,NA,NA,right,present,NA,NA,n_s_050.jpg,brown,m_l_010.jpg,brown,within,NA,NaN,NA,right,3111.100000023842,1,0,1292
PVSmeCb5,3odop6t3bvxisk3y617o3pei3yp24c,34q075jo11qwrv1vvypabnaswzz01c,PVSmeCb5,2020-0188,2021-10-14,14:53:31,16:33:57,NA,incomplete,false,NA,true,4,4,NA,NA,NA,right,present,NA,NA,n_l_078.jpg,green,m_l_014.jpg,green,within,NA,NaN,NA,right,5379.800000071526,1,0,1165.2000000476837
PVSmeCb5,3odop6t3bvxisk3y617o3pei3yp24c,34q075jo11qwrv1vvypabnaswzz01c,PVSmeCb5,2020-0188,2021-10-14,14:53:31,16:33:57,NA,incomplete,false,NA,true,4,5,NA,NA,NA,right,present,NA,NA,m_l_064.jpg,black,n_l_014.jpg,green,between,NA,NaN,NA,right,3860.4000000953674,1,2,3904.1999999284744
PVSmeCb5,3odop6t3bvxisk3y617o3pei3yp24c,34q075jo11qwrv1vvypabnaswzz01c,PVSmeCb5,2020-0188,2021-10-14,14:53:31,16:33:57,NA,incomplete,false,NA,true,4,6,NA,NA,NA,left,present,NA,NA,m_s_094.jpg,black,m_s_100.jpg,black,within,NA,NaN,NA,left,4664.300000071526,1,0,2051.399999976158
PVSmeCb5,3odop6t3bvxisk3y617o3pei3yp24c,34q075jo11qwrv1vvypabnaswzz01c,PVSmeCb5,2020-0188,2021-10-14,14:53:31,16:33:57,NA,incomplete,false,NA,true,4,7,NA,NA,NA,left,present,NA,NA,m_s_105.jpg,white,m_s_035.jpg,green,between,NA,NaN,NA,left,2806,1,2,13607.300000071526
PVSmeCb5,3odop6t3bvxisk3y617o3pei3yp24c,34q075jo11qwrv1vvypabnaswzz01c,PVSmeCb5,2020-0188,2021-10-14,14:53:31,16:33:57,NA,incomplete,false,NA,true,4,8,NA,NA,NA,left,present,NA,NA,m_s_044.jpg,orange,n_s_099.jpg,orange,within,NA,NaN,NA,left,5501.899999976158,1,0,1144.8999999761581
PVSmeCb5,3odop6t3bvxisk3y617o3pei3yp24c,34q075jo11qwrv1vvypabnaswzz01c,PVSmeCb5,2020-0188,2021-10-14,14:53:31,16:33:57,NA,incomplete,false,NA,true,4,9,NA,NA,NA,left,present,NA,NA,m_l_030.jpg,black,m_l_083.jpg,brown,between,NA,NaN,NA,left,15839.900000095367,1,2,3989.899999976158
PVSmeCb5,3odop6t3bvxisk3y617o3pei3yp24c,34q075jo11qwrv1vvypabnaswzz01c,PVSmeCb5,2020-0188,2021-10-14,14:53:31,16:33:57,NA,incomplete,false,NA,true,4,10,NA,NA,NA,right,present,NA,NA,m_l_045.jpg,yellow,m_s_076.jpg,brown,between,NA,NaN,NA,right,17242.100000023842,1,2,3928.6999999284744
PVSmeCb5,3odop6t3bvxisk3y617o3pei3yp24c,34q075jo11qwrv1vvypabnaswzz01c,PVSmeCb5,2020-0188,2021-10-14,14:53:31,16:33:57,NA,incomplete,false,true,NA,5,0,NA,red,n_s_010.jpg,NA,NA,unpleasant,pleasant,NA,NA,NA,NA,NA,left,1340.30000007153,true,NA,NA,NA,NA,NA
PVSmeCb5,3odop6t3bvxisk3y617o3pei3yp24c,34q075jo11qwrv1vvypabnaswzz01c,PVSmeCb5,2020-0188,2021-10-14,14:53:31,16:33:57,NA,incomplete,false,true,NA,5,1,NA,red,n_l_031.jpg,NA,NA,pleasant,unpleasant,NA,NA,NA,NA,NA,left,1759.70000004768,true,NA,NA,NA,NA,NA
PVSmeCb5,3odop6t3bvxisk3y617o3pei3yp24c,34q075jo11qwrv1vvypabnaswzz01c,PVSmeCb5,2020-0188,2021-10-14,14:53:31,16:33:57,NA,incomplete,false,true,NA,5,2,NA,red,m_l_076.jpg,NA,NA,unpleasant,pleasant,NA,NA,NA,NA,NA,right,1398.29999995232,true,NA,NA,NA,NA,NA
PVSmeCb5,3odop6t3bvxisk3y617o3pei3yp24c,34q075jo11qwrv1vvypabnaswzz01c,PVSmeCb5,2020-0188,2021-10-14,14:53:31,16:33:57,NA,incomplete,false,true,NA,5,3,NA,red,m_l_096.jpg,NA,NA,pleasant,unpleasant,NA,NA,NA,NA,NA,left,1565.69999992847,true,NA,NA,NA,NA,NA
PVSmeCb5,3odop6t3bvxisk3y617o3pei3yp24c,34q075jo11qwrv1vvypabnaswzz01c,PVSmeCb5,2020-0188,2021-10-14,14:53:31,16:33:57,NA,incomplete,false,true,NA,5,4,NA,red,m_s_086.jpg,NA,NA,pleasant,unpleasant,NA,NA,NA,NA,NA,left,2063,true,NA,NA,NA,NA,NA
PVSmeCb5,3odop6t3bvxisk3y617o3pei3yp24c,34q075jo11qwrv1vvypabnaswzz01c,PVSmeCb5,2020-0188,2021-10-14,14:53:31,16:33:57,NA,incomplete,false,true,NA,5,5,NA,red,m_s_109.jpg,NA,NA,pleasant,unpleasant,NA,NA,NA,NA,NA,left,2057.70000004768,true,NA,NA,NA,NA,NA
PVSmeCb5,3odop6t3bvxisk3y617o3pei3yp24c,34q075jo11qwrv1vvypabnaswzz01c,PVSmeCb5,2020-0188,2021-10-14,14:53:31,16:33:57,NA,incomplete,false,true,NA,5,6,NA,purple,m_s_040.jpg,NA,NA,unpleasant,pleasant,NA,NA,NA,NA,NA,right,1491.60000002384,true,NA,NA,NA,NA,NA
PVSmeCb5,3odop6t3bvxisk3y617o3pei3yp24c,34q075jo11qwrv1vvypabnaswzz01c,PVSmeCb5,2020-0188,2021-10-14,14:53:31,16:33:57,NA,incomplete,false,true,NA,5,7,NA,purple,n_l_013.jpg,NA,NA,unpleasant,pleasant,NA,NA,NA,NA,NA,right,1153.5,true,NA,NA,NA,NA,NA
PVSmeCb5,3odop6t3bvxisk3y617o3pei3yp24c,34q075jo11qwrv1vvypabnaswzz01c,PVSmeCb5,2020-0188,2021-10-14,14:53:31,16:33:57,NA,incomplete,false,true,NA,5,8,NA,purple,n_l_114.jpg,NA,NA,unpleasant,pleasant,NA,NA,NA,NA,NA,right,999.699999928474,true,NA,NA,NA,NA,NA
PVSmeCb5,3odop6t3bvxisk3y617o3pei3yp24c,34q075jo11qwrv1vvypabnaswzz01c,PVSmeCb5,2020-0188,2021-10-14,14:53:31,16:33:57,NA,incomplete,false,true,NA,5,9,NA,purple,m_l_066.jpg,NA,NA,unpleasant,pleasant,NA,NA,NA,NA,NA,right,1602.69999992847,true,NA,NA,NA,NA,NA
PVSmeCb5,3odop6t3bvxisk3y617o3pei3yp24c,34q075jo11qwrv1vvypabnaswzz01c,PVSmeCb5,2020-0188,2021-10-14,14:53:31,16:33:57,NA,incomplete,false,true,NA,5,10,NA,purple,m_s_033.jpg,NA,NA,pleasant,unpleasant,NA,NA,NA,NA,NA,left,1712.09999990463,true,NA,NA,NA,NA,NA
PVSmeCb5,3odop6t3bvxisk3y617o3pei3yp24c,34q075jo11qwrv1vvypabnaswzz01c,PVSmeCb5,2020-0188,2021-10-14,14:53:31,16:33:57,NA,incomplete,false,true,NA,5,11,NA,purple,n_s_041.jpg,NA,NA,unpleasant,pleasant,NA,NA,NA,NA,NA,right,1685.10000002384,true,NA,NA,NA,NA,NA
PVSmeCb5,3odop6t3bvxisk3y617o3pei3yp24c,34q075jo11qwrv1vvypabnaswzz01c,PVSmeCb5,2020-0188,2021-10-14,14:53:31,16:33:57,NA,incomplete,false,true,NA,5,12,NA,brown,n_s_065.jpg,NA,NA,unpleasant,pleasant,NA,NA,NA,NA,NA,left,1257.60000002384,true,NA,NA,NA,NA,NA
PVSmeCb5,3odop6t3bvxisk3y617o3pei3yp24c,34q075jo11qwrv1vvypabnaswzz01c,PVSmeCb5,2020-0188,2021-10-14,14:53:31,16:33:57,NA,incomplete,false,true,NA,5,13,NA,brown,m_s_071.jpg,NA,NA,pleasant,unpleasant,NA,NA,NA,NA,NA,left,1932.39999997616,true,NA,NA,NA,NA,NA
PVSmeCb5,3odop6t3bvxisk3y617o3pei3yp24c,34q075jo11qwrv1vvypabnaswzz01c,PVSmeCb5,2020-0188,2021-10-14,14:53:31,16:33:57,NA,incomplete,false,true,NA,5,14,NA,brown,n_l_069.jpg,NA,NA,pleasant,unpleasant,NA,NA,NA,NA,NA,left,1855,true,NA,NA,NA,NA,NA
PVSmeCb5,3odop6t3bvxisk3y617o3pei3yp24c,34q075jo11qwrv1vvypabnaswzz01c,PVSmeCb5,2020-0188,2021-10-14,14:53:31,16:33:57,NA,incomplete,false,true,NA,5,15,NA,brown,n_l_066.jpg,NA,NA,unpleasant,pleasant,NA,NA,NA,NA,NA,left,1667.30000007153,true,NA,NA,NA,NA,NA
PVSmeCb5,3odop6t3bvxisk3y617o3pei3yp24c,34q075jo11qwrv1vvypabnaswzz01c,PVSmeCb5,2020-0188,2021-10-14,14:53:31,16:33:57,NA,incomplete,false,true,NA,5,16,NA,brown,n_s_028.jpg,NA,NA,pleasant,unpleasant,NA,NA,NA,NA,NA,left,1086.19999992847,true,NA,NA,NA,NA,NA
PVSmeCb5,3odop6t3bvxisk3y617o3pei3yp24c,34q075jo11qwrv1vvypabnaswzz01c,PVSmeCb5,2020-0188,2021-10-14,14:53:31,16:33:57,NA,incomplete,false,true,NA,5,17,NA,brown,n_s_056.jpg,NA,NA,unpleasant,pleasant,NA,NA,NA,NA,NA,right,1506.29999995232,true,NA,NA,NA,NA,NA
PVSmeCb5,3odop6t3bvxisk3y617o3pei3yp24c,34q075jo11qwrv1vvypabnaswzz01c,PVSmeCb5,2020-0188,2021-10-14,14:53:31,16:33:57,NA,incomplete,false,true,NA,5,18,NA,white,n_l_072.jpg,NA,NA,pleasant,unpleasant,NA,NA,NA,NA,NA,right,1218.60000002384,true,NA,NA,NA,NA,NA
PVSmeCb5,3odop6t3bvxisk3y617o3pei3yp24c,34q075jo11qwrv1vvypabnaswzz01c,PVSmeCb5,2020-0188,2021-10-14,14:53:31,16:33:57,NA,incomplete,false,true,NA,5,19,NA,white,n_s_082.jpg,NA,NA,pleasant,unpleasant,NA,NA,NA,NA,NA,left,2354.5,true,NA,NA,NA,NA,NA
PVSmeCb5,3odop6t3bvxisk3y617o3pei3yp24c,34q075jo11qwrv1vvypabnaswzz01c,PVSmeCb5,2020-0188,2021-10-14,14:53:31,16:33:57,NA,incomplete,false,true,NA,5,20,NA,white,n_s_095.jpg,NA,NA,pleasant,unpleasant,NA,NA,NA,NA,NA,left,1847.39999997616,true,NA,NA,NA,NA,NA
PVSmeCb5,3odop6t3bvxisk3y617o3pei3yp24c,34q075jo11qwrv1vvypabnaswzz01c,PVSmeCb5,2020-0188,2021-10-14,14:53:31,16:33:57,NA,incomplete,false,true,NA,5,21,NA,white,m_l_113.jpg,NA,NA,pleasant,unpleasant,NA,NA,NA,NA,NA,left,1331.80000007153,true,NA,NA,NA,NA,NA
PVSmeCb5,3odop6t3bvxisk3y617o3pei3yp24c,34q075jo11qwrv1vvypabnaswzz01c,PVSmeCb5,2020-0188,2021-10-14,14:53:31,16:33:57,NA,incomplete,false,true,NA,5,22,NA,white,n_l_044.jpg,NA,NA,unpleasant,pleasant,NA,NA,NA,NA,NA,right,1024.80000007153,true,NA,NA,NA,NA,NA
PVSmeCb5,3odop6t3bvxisk3y617o3pei3yp24c,34q075jo11qwrv1vvypabnaswzz01c,PVSmeCb5,2020-0188,2021-10-14,14:53:31,16:33:57,NA,incomplete,false,true,NA,5,23,NA,white,n_s_089.jpg,NA,NA,pleasant,unpleasant,NA,NA,NA,NA,NA,left,972.599999904633,true,NA,NA,NA,NA,NA
PVSmeCb5,3odop6t3bvxisk3y617o3pei3yp24c,34q075jo11qwrv1vvypabnaswzz01c,PVSmeCb5,2020-0188,2021-10-14,14:53:31,16:33:57,NA,incomplete,false,true,NA,5,24,NA,blue,m_l_049.jpg,NA,NA,pleasant,unpleasant,NA,NA,NA,NA,NA,left,1586.29999995232,true,NA,NA,NA,NA,NA
PVSmeCb5,3odop6t3bvxisk3y617o3pei3yp24c,34q075jo11qwrv1vvypabnaswzz01c,PVSmeCb5,2020-0188,2021-10-14,14:53:31,16:33:57,NA,incomplete,false,true,NA,5,25,NA,blue,m_l_054.jpg,NA,NA,pleasant,unpleasant,NA,NA,NA,NA,NA,left,1496.30000007153,true,NA,NA,NA,NA,NA
PVSmeCb5,3odop6t3bvxisk3y617o3pei3yp24c,34q075jo11qwrv1vvypabnaswzz01c,PVSmeCb5,2020-0188,2021-10-14,14:53:31,16:33:57,NA,incomplete,false,true,NA,5,26,NA,blue,m_l_056.jpg,NA,NA,pleasant,unpleasant,NA,NA,NA,NA,NA,left,1220.39999997616,true,NA,NA,NA,NA,NA
PVSmeCb5,3odop6t3bvxisk3y617o3pei3yp24c,34q075jo11qwrv1vvypabnaswzz01c,PVSmeCb5,2020-0188,2021-10-14,14:53:31,16:33:57,NA,incomplete,false,true,NA,5,27,NA,blue,m_s_096.jpg,NA,NA,pleasant,unpleasant,NA,NA,NA,NA,NA,right,1495.79999995232,true,NA,NA,NA,NA,NA
PVSmeCb5,3odop6t3bvxisk3y617o3pei3yp24c,34q075jo11qwrv1vvypabnaswzz01c,PVSmeCb5,2020-0188,2021-10-14,14:53:31,16:33:57,NA,incomplete,false,true,NA,5,28,NA,blue,m_l_037.jpg,NA,NA,unpleasant,pleasant,NA,NA,NA,NA,NA,right,1019.70000004768,true,NA,NA,NA,NA,NA
PVSmeCb5,3odop6t3bvxisk3y617o3pei3yp24c,34q075jo11qwrv1vvypabnaswzz01c,PVSmeCb5,2020-0188,2021-10-14,14:53:31,16:33:57,NA,incomplete,false,true,NA,5,29,NA,blue,m_l_078.jpg,NA,NA,unpleasant,pleasant,NA,NA,NA,NA,NA,right,1117.5,true,NA,NA,NA,NA,NA
PVSmeCb5,3odop6t3bvxisk3y617o3pei3yp24c,34q075jo11qwrv1vvypabnaswzz01c,PVSmeCb5,2020-0188,2021-10-14,14:53:31,16:33:57,NA,incomplete,false,true,NA,5,30,NA,orange,n_s_110.jpg,NA,NA,pleasant,unpleasant,NA,NA,NA,NA,NA,left,1581.39999997616,true,NA,NA,NA,NA,NA
PVSmeCb5,3odop6t3bvxisk3y617o3pei3yp24c,34q075jo11qwrv1vvypabnaswzz01c,PVSmeCb5,2020-0188,2021-10-14,14:53:31,16:33:57,NA,incomplete,false,true,NA,5,31,NA,orange,n_l_086.jpg,NA,NA,pleasant,unpleasant,NA,NA,NA,NA,NA,left,1185.30000007153,true,NA,NA,NA,NA,NA
PVSmeCb5,3odop6t3bvxisk3y617o3pei3yp24c,34q075jo11qwrv1vvypabnaswzz01c,PVSmeCb5,2020-0188,2021-10-14,14:53:31,16:33:57,NA,incomplete,false,true,NA,5,32,NA,orange,n_l_099.jpg,NA,NA,unpleasant,pleasant,NA,NA,NA,NA,NA,right,1276.60000002384,true,NA,NA,NA,NA,NA
PVSmeCb5,3odop6t3bvxisk3y617o3pei3yp24c,34q075jo11qwrv1vvypabnaswzz01c,PVSmeCb5,2020-0188,2021-10-14,14:53:31,16:33:57,NA,incomplete,false,true,NA,5,33,NA,orange,n_s_006.jpg,NA,NA,unpleasant,pleasant,NA,NA,NA,NA,NA,right,1350.5,true,NA,NA,NA,NA,NA
PVSmeCb5,3odop6t3bvxisk3y617o3pei3yp24c,34q075jo11qwrv1vvypabnaswzz01c,PVSmeCb5,2020-0188,2021-10-14,14:53:31,16:33:57,NA,incomplete,false,true,NA,5,34,NA,orange,m_l_067.jpg,NA,NA,unpleasant,pleasant,NA,NA,NA,NA,NA,right,889.100000023842,true,NA,NA,NA,NA,NA
PVSmeCb5,3odop6t3bvxisk3y617o3pei3yp24c,34q075jo11qwrv1vvypabnaswzz01c,PVSmeCb5,2020-0188,2021-10-14,14:53:31,16:33:57,NA,incomplete,false,true,NA,5,35,NA,orange,m_l_082.jpg,NA,NA,pleasant,unpleasant,NA,NA,NA,NA,NA,right,1935.5,true,NA,NA,NA,NA,NA
PVSmeCb5,3odop6t3bvxisk3y617o3pei3yp24c,34q075jo11qwrv1vvypabnaswzz01c,PVSmeCb5,2020-0188,2021-10-14,14:53:31,16:33:57,NA,incomplete,false,NA,true,5,0,NA,NA,NA,left,present,NA,NA,n_s_028.jpg,brown,n_s_095.jpg,white,between,NA,NaN,NA,right,4699,0,2,2915.2000000476837
PVSmeCb5,3odop6t3bvxisk3y617o3pei3yp24c,34q075jo11qwrv1vvypabnaswzz01c,PVSmeCb5,2020-0188,2021-10-14,14:53:31,16:33:57,NA,incomplete,false,NA,true,5,1,NA,NA,NA,left,present,NA,NA,n_s_082.jpg,white,n_s_089.jpg,white,within,NA,NaN,NA,left,4842.899999976158,1,0,1075.2999999523163
PVSmeCb5,3odop6t3bvxisk3y617o3pei3yp24c,34q075jo11qwrv1vvypabnaswzz01c,PVSmeCb5,2020-0188,2021-10-14,14:53:31,16:33:57,NA,incomplete,false,NA,true,5,2,NA,NA,NA,left,present,NA,NA,m_s_086.jpg,red,n_l_114.jpg,purple,between,NA,NaN,NA,right,10211.200000047684,0,1,1169.2000000476837
PVSmeCb5,3odop6t3bvxisk3y617o3pei3yp24c,34q075jo11qwrv1vvypabnaswzz01c,PVSmeCb5,2020-0188,2021-10-14,14:53:31,16:33:57,NA,incomplete,false,NA,true,5,3,NA,NA,NA,right,present,NA,NA,m_l_056.jpg,blue,n_l_044.jpg,white,between,NA,NaN,NA,right,3185.100000023842,1,1,7639.199999928474
PVSmeCb5,3odop6t3bvxisk3y617o3pei3yp24c,34q075jo11qwrv1vvypabnaswzz01c,PVSmeCb5,2020-0188,2021-10-14,14:53:31,16:33:57,NA,incomplete,false,NA,true,5,4,NA,NA,NA,right,present,NA,NA,m_l_078.jpg,blue,m_l_054.jpg,blue,within,NA,NaN,NA,right,3717.7999999523163,1,0,1379.8999999761581
PVSmeCb5,3odop6t3bvxisk3y617o3pei3yp24c,34q075jo11qwrv1vvypabnaswzz01c,PVSmeCb5,2020-0188,2021-10-14,14:53:31,16:33:57,NA,incomplete,false,NA,true,5,5,NA,NA,NA,right,present,NA,NA,n_s_041.jpg,purple,n_l_013.jpg,purple,within,NA,NaN,NA,right,3128.8000000715256,1,0,1310.8999999761581
PVSmeCb5,3odop6t3bvxisk3y617o3pei3yp24c,34q075jo11qwrv1vvypabnaswzz01c,PVSmeCb5,2020-0188,2021-10-14,14:53:31,16:33:57,NA,incomplete,false,NA,true,5,6,NA,NA,NA,left,present,NA,NA,m_s_033.jpg,purple,n_l_069.jpg,brown,between,NA,NaN,NA,left,4375.799999952316,1,2,1553
PVSmeCb5,3odop6t3bvxisk3y617o3pei3yp24c,34q075jo11qwrv1vvypabnaswzz01c,PVSmeCb5,2020-0188,2021-10-14,14:53:31,16:33:57,NA,incomplete,false,NA,true,5,7,NA,NA,NA,right,present,NA,NA,n_s_056.jpg,brown,m_s_071.jpg,brown,within,NA,NaN,NA,left,5317.299999952316,0,0,1403.2000000476837
PVSmeCb5,3odop6t3bvxisk3y617o3pei3yp24c,34q075jo11qwrv1vvypabnaswzz01c,PVSmeCb5,2020-0188,2021-10-14,14:53:31,16:33:57,NA,incomplete,false,NA,true,5,8,NA,NA,NA,right,present,NA,NA,n_l_099.jpg,orange,m_l_037.jpg,blue,between,NA,NaN,NA,right,8981.700000047684,1,1,2591
PVSmeCb5,3odop6t3bvxisk3y617o3pei3yp24c,34q075jo11qwrv1vvypabnaswzz01c,PVSmeCb5,2020-0188,2021-10-14,14:53:31,16:33:57,NA,incomplete,false,NA,true,5,9,NA,NA,NA,right,present,NA,NA,m_s_109.jpg,red,n_l_031.jpg,red,within,NA,NaN,NA,right,3556.5,1,0,1094.1000000238419
PVSmeCb5,3odop6t3bvxisk3y617o3pei3yp24c,34q075jo11qwrv1vvypabnaswzz01c,PVSmeCb5,2020-0188,2021-10-14,14:53:31,16:33:57,NA,incomplete,false,NA,true,5,10,NA,NA,NA,left,present,NA,NA,n_l_086.jpg,orange,m_l_082.jpg,orange,within,NA,NaN,NA,left,7852,1,0,1209.2999999523163
PVSmeCb5,3odop6t3bvxisk3y617o3pei3yp24c,34q075jo11qwrv1vvypabnaswzz01c,PVSmeCb5,2020-0188,2021-10-14,14:53:31,16:33:57,NA,incomplete,false,true,NA,6,0,NA,green,m_s_028.jpg,NA,NA,unpleasant,pleasant,NA,NA,NA,NA,NA,right,1576,true,NA,NA,NA,NA,NA
PVSmeCb5,3odop6t3bvxisk3y617o3pei3yp24c,34q075jo11qwrv1vvypabnaswzz01c,PVSmeCb5,2020-0188,2021-10-14,14:53:31,16:33:57,NA,incomplete,false,true,NA,6,1,NA,green,m_s_016.jpg,NA,NA,pleasant,unpleasant,NA,NA,NA,NA,NA,left,1162.10000002384,true,NA,NA,NA,NA,NA
PVSmeCb5,3odop6t3bvxisk3y617o3pei3yp24c,34q075jo11qwrv1vvypabnaswzz01c,PVSmeCb5,2020-0188,2021-10-14,14:53:31,16:33:57,NA,incomplete,false,true,NA,6,2,NA,green,m_l_006.jpg,NA,NA,unpleasant,pleasant,NA,NA,NA,NA,NA,right,1083.60000002384,true,NA,NA,NA,NA,NA
PVSmeCb5,3odop6t3bvxisk3y617o3pei3yp24c,34q075jo11qwrv1vvypabnaswzz01c,PVSmeCb5,2020-0188,2021-10-14,14:53:31,16:33:57,NA,incomplete,false,true,NA,6,3,NA,green,n_s_104.jpg,NA,NA,unpleasant,pleasant,NA,NA,NA,NA,NA,right,1655,true,NA,NA,NA,NA,NA
PVSmeCb5,3odop6t3bvxisk3y617o3pei3yp24c,34q075jo11qwrv1vvypabnaswzz01c,PVSmeCb5,2020-0188,2021-10-14,14:53:31,16:33:57,NA,incomplete,false,true,NA,6,4,NA,green,n_s_057.jpg,NA,NA,unpleasant,pleasant,NA,NA,NA,NA,NA,left,1350.70000004768,true,NA,NA,NA,NA,NA
PVSmeCb5,3odop6t3bvxisk3y617o3pei3yp24c,34q075jo11qwrv1vvypabnaswzz01c,PVSmeCb5,2020-0188,2021-10-14,14:53:31,16:33:57,NA,incomplete,false,true,NA,6,5,NA,green,n_s_098.jpg,NA,NA,unpleasant,pleasant,NA,NA,NA,NA,NA,left,1266.70000004768,true,NA,NA,NA,NA,NA
PVSmeCb5,3odop6t3bvxisk3y617o3pei3yp24c,34q075jo11qwrv1vvypabnaswzz01c,PVSmeCb5,2020-0188,2021-10-14,14:53:31,16:33:57,NA,incomplete,false,true,NA,6,6,NA,yellow,m_s_113.jpg,NA,NA,pleasant,unpleasant,NA,NA,NA,NA,NA,left,1230.30000007153,true,NA,NA,NA,NA,NA
PVSmeCb5,3odop6t3bvxisk3y617o3pei3yp24c,34q075jo11qwrv1vvypabnaswzz01c,PVSmeCb5,2020-0188,2021-10-14,14:53:31,16:33:57,NA,incomplete,false,true,NA,6,7,NA,yellow,n_s_023.jpg,NA,NA,unpleasant,pleasant,NA,NA,NA,NA,NA,right,1120.60000002384,true,NA,NA,NA,NA,NA
PVSmeCb5,3odop6t3bvxisk3y617o3pei3yp24c,34q075jo11qwrv1vvypabnaswzz01c,PVSmeCb5,2020-0188,2021-10-14,14:53:31,16:33:57,NA,incomplete,false,true,NA,6,8,NA,yellow,m_l_086.jpg,NA,NA,unpleasant,pleasant,NA,NA,NA,NA,NA,right,1485.39999997616,true,NA,NA,NA,NA,NA
PVSmeCb5,3odop6t3bvxisk3y617o3pei3yp24c,34q075jo11qwrv1vvypabnaswzz01c,PVSmeCb5,2020-0188,2021-10-14,14:53:31,16:33:57,NA,incomplete,false,true,NA,6,9,NA,yellow,n_l_092.jpg,NA,NA,unpleasant,pleasant,NA,NA,NA,NA,NA,right,2448.20000004768,true,NA,NA,NA,NA,NA
PVSmeCb5,3odop6t3bvxisk3y617o3pei3yp24c,34q075jo11qwrv1vvypabnaswzz01c,PVSmeCb5,2020-0188,2021-10-14,14:53:31,16:33:57,NA,incomplete,false,true,NA,6,10,NA,yellow,m_l_106.jpg,NA,NA,pleasant,unpleasant,NA,NA,NA,NA,NA,left,1217.5,true,NA,NA,NA,NA,NA
PVSmeCb5,3odop6t3bvxisk3y617o3pei3yp24c,34q075jo11qwrv1vvypabnaswzz01c,PVSmeCb5,2020-0188,2021-10-14,14:53:31,16:33:57,NA,incomplete,false,true,NA,6,11,NA,yellow,m_s_057.jpg,NA,NA,unpleasant,pleasant,NA,NA,NA,NA,NA,right,1906.60000002384,true,NA,NA,NA,NA,NA
PVSmeCb5,3odop6t3bvxisk3y617o3pei3yp24c,34q075jo11qwrv1vvypabnaswzz01c,PVSmeCb5,2020-0188,2021-10-14,14:53:31,16:33:57,NA,incomplete,false,true,NA,6,12,NA,purple,n_l_016.jpg,NA,NA,pleasant,unpleasant,NA,NA,NA,NA,NA,left,1661.79999995232,true,NA,NA,NA,NA,NA
PVSmeCb5,3odop6t3bvxisk3y617o3pei3yp24c,34q075jo11qwrv1vvypabnaswzz01c,PVSmeCb5,2020-0188,2021-10-14,14:53:31,16:33:57,NA,incomplete,false,true,NA,6,13,NA,purple,m_s_091.jpg,NA,NA,unpleasant,pleasant,NA,NA,NA,NA,NA,right,1084.30000007153,true,NA,NA,NA,NA,NA
PVSmeCb5,3odop6t3bvxisk3y617o3pei3yp24c,34q075jo11qwrv1vvypabnaswzz01c,PVSmeCb5,2020-0188,2021-10-14,14:53:31,16:33:57,NA,incomplete,false,true,NA,6,14,NA,purple,n_s_077.jpg,NA,NA,unpleasant,pleasant,NA,NA,NA,NA,NA,right,1370.19999992847,true,NA,NA,NA,NA,NA
PVSmeCb5,3odop6t3bvxisk3y617o3pei3yp24c,34q075jo11qwrv1vvypabnaswzz01c,PVSmeCb5,2020-0188,2021-10-14,14:53:31,16:33:57,NA,incomplete,false,true,NA,6,15,NA,purple,m_l_024.jpg,NA,NA,unpleasant,pleasant,NA,NA,NA,NA,NA,right,1135.19999992847,true,NA,NA,NA,NA,NA
PVSmeCb5,3odop6t3bvxisk3y617o3pei3yp24c,34q075jo11qwrv1vvypabnaswzz01c,PVSmeCb5,2020-0188,2021-10-14,14:53:31,16:33:57,NA,incomplete,false,true,NA,6,16,NA,purple,m_s_098.jpg,NA,NA,pleasant,unpleasant,NA,NA,NA,NA,NA,left,1398.90000009537,true,NA,NA,NA,NA,NA
PVSmeCb5,3odop6t3bvxisk3y617o3pei3yp24c,34q075jo11qwrv1vvypabnaswzz01c,PVSmeCb5,2020-0188,2021-10-14,14:53:31,16:33:57,NA,incomplete,false,true,NA,6,17,NA,purple,m_s_068.jpg,NA,NA,unpleasant,pleasant,NA,NA,NA,NA,NA,right,1388.70000004768,true,NA,NA,NA,NA,NA
PVSmeCb5,3odop6t3bvxisk3y617o3pei3yp24c,34q075jo11qwrv1vvypabnaswzz01c,PVSmeCb5,2020-0188,2021-10-14,14:53:31,16:33:57,NA,incomplete,false,true,NA,6,18,NA,brown,n_l_020.jpg,NA,NA,pleasant,unpleasant,NA,NA,NA,NA,NA,left,1089.69999992847,true,NA,NA,NA,NA,NA
PVSmeCb5,3odop6t3bvxisk3y617o3pei3yp24c,34q075jo11qwrv1vvypabnaswzz01c,PVSmeCb5,2020-0188,2021-10-14,14:53:31,16:33:57,NA,incomplete,false,true,NA,6,19,NA,brown,n_s_008.jpg,NA,NA,pleasant,unpleasant,NA,NA,NA,NA,NA,right,1248.5,true,NA,NA,NA,NA,NA
PVSmeCb5,3odop6t3bvxisk3y617o3pei3yp24c,34q075jo11qwrv1vvypabnaswzz01c,PVSmeCb5,2020-0188,2021-10-14,14:53:31,16:33:57,NA,incomplete,false,true,NA,6,20,NA,brown,n_l_011.jpg,NA,NA,pleasant,unpleasant,NA,NA,NA,NA,NA,left,1077,true,NA,NA,NA,NA,NA
PVSmeCb5,3odop6t3bvxisk3y617o3pei3yp24c,34q075jo11qwrv1vvypabnaswzz01c,PVSmeCb5,2020-0188,2021-10-14,14:53:31,16:33:57,NA,incomplete,false,true,NA,6,21,NA,brown,m_s_093.jpg,NA,NA,pleasant,unpleasant,NA,NA,NA,NA,NA,left,1072.60000002384,true,NA,NA,NA,NA,NA
PVSmeCb5,3odop6t3bvxisk3y617o3pei3yp24c,34q075jo11qwrv1vvypabnaswzz01c,PVSmeCb5,2020-0188,2021-10-14,14:53:31,16:33:57,NA,incomplete,false,true,NA,6,22,NA,brown,n_l_029.jpg,NA,NA,pleasant,unpleasant,NA,NA,NA,NA,NA,left,1343.60000002384,true,NA,NA,NA,NA,NA
PVSmeCb5,3odop6t3bvxisk3y617o3pei3yp24c,34q075jo11qwrv1vvypabnaswzz01c,PVSmeCb5,2020-0188,2021-10-14,14:53:31,16:33:57,NA,incomplete,false,true,NA,6,23,NA,brown,n_l_022.jpg,NA,NA,unpleasant,pleasant,NA,NA,NA,NA,NA,right,1357.69999992847,true,NA,NA,NA,NA,NA
PVSmeCb5,3odop6t3bvxisk3y617o3pei3yp24c,34q075jo11qwrv1vvypabnaswzz01c,PVSmeCb5,2020-0188,2021-10-14,14:53:31,16:33:57,NA,incomplete,false,true,NA,6,24,NA,black,n_l_003.jpg,NA,NA,unpleasant,pleasant,NA,NA,NA,NA,NA,right,1095.60000002384,true,NA,NA,NA,NA,NA
PVSmeCb5,3odop6t3bvxisk3y617o3pei3yp24c,34q075jo11qwrv1vvypabnaswzz01c,PVSmeCb5,2020-0188,2021-10-14,14:53:31,16:33:57,NA,incomplete,false,true,NA,6,25,NA,black,n_s_030.jpg,NA,NA,unpleasant,pleasant,NA,NA,NA,NA,NA,right,1093.60000002384,true,NA,NA,NA,NA,NA
PVSmeCb5,3odop6t3bvxisk3y617o3pei3yp24c,34q075jo11qwrv1vvypabnaswzz01c,PVSmeCb5,2020-0188,2021-10-14,14:53:31,16:33:57,NA,incomplete,false,true,NA,6,26,NA,black,n_l_008.jpg,NA,NA,pleasant,unpleasant,NA,NA,NA,NA,NA,left,1521.89999997616,true,NA,NA,NA,NA,NA
PVSmeCb5,3odop6t3bvxisk3y617o3pei3yp24c,34q075jo11qwrv1vvypabnaswzz01c,PVSmeCb5,2020-0188,2021-10-14,14:53:31,16:33:57,NA,incomplete,false,true,NA,6,27,NA,black,m_l_071.jpg,NA,NA,unpleasant,pleasant,NA,NA,NA,NA,NA,right,963.800000071526,true,NA,NA,NA,NA,NA
PVSmeCb5,3odop6t3bvxisk3y617o3pei3yp24c,34q075jo11qwrv1vvypabnaswzz01c,PVSmeCb5,2020-0188,2021-10-14,14:53:31,16:33:57,NA,incomplete,false,true,NA,6,28,NA,black,n_l_081.jpg,NA,NA,pleasant,unpleasant,NA,NA,NA,NA,NA,left,889,true,NA,NA,NA,NA,NA
PVSmeCb5,3odop6t3bvxisk3y617o3pei3yp24c,34q075jo11qwrv1vvypabnaswzz01c,PVSmeCb5,2020-0188,2021-10-14,14:53:31,16:33:57,NA,incomplete,false,true,NA,6,29,NA,black,n_s_039.jpg,NA,NA,unpleasant,pleasant,NA,NA,NA,NA,NA,right,1072.20000004768,true,NA,NA,NA,NA,NA
PVSmeCb5,3odop6t3bvxisk3y617o3pei3yp24c,34q075jo11qwrv1vvypabnaswzz01c,PVSmeCb5,2020-0188,2021-10-14,14:53:31,16:33:57,NA,incomplete,false,true,NA,6,30,NA,white,m_s_034.jpg,NA,NA,pleasant,unpleasant,NA,NA,NA,NA,NA,left,1332.5,true,NA,NA,NA,NA,NA
PVSmeCb5,3odop6t3bvxisk3y617o3pei3yp24c,34q075jo11qwrv1vvypabnaswzz01c,PVSmeCb5,2020-0188,2021-10-14,14:53:31,16:33:57,NA,incomplete,false,true,NA,6,31,NA,white,m_l_077.jpg,NA,NA,pleasant,unpleasant,NA,NA,NA,NA,NA,right,1221,true,NA,NA,NA,NA,NA
PVSmeCb5,3odop6t3bvxisk3y617o3pei3yp24c,34q075jo11qwrv1vvypabnaswzz01c,PVSmeCb5,2020-0188,2021-10-14,14:53:31,16:33:57,NA,incomplete,false,true,NA,6,32,NA,white,m_l_085.jpg,NA,NA,unpleasant,pleasant,NA,NA,NA,NA,NA,right,1748.5,true,NA,NA,NA,NA,NA
PVSmeCb5,3odop6t3bvxisk3y617o3pei3yp24c,34q075jo11qwrv1vvypabnaswzz01c,PVSmeCb5,2020-0188,2021-10-14,14:53:31,16:33:57,NA,incomplete,false,true,NA,6,33,NA,white,n_l_094.jpg,NA,NA,unpleasant,pleasant,NA,NA,NA,NA,NA,right,1201,true,NA,NA,NA,NA,NA
PVSmeCb5,3odop6t3bvxisk3y617o3pei3yp24c,34q075jo11qwrv1vvypabnaswzz01c,PVSmeCb5,2020-0188,2021-10-14,14:53:31,16:33:57,NA,incomplete,false,true,NA,6,34,NA,white,n_s_092.jpg,NA,NA,pleasant,unpleasant,NA,NA,NA,NA,NA,left,1124.29999995232,true,NA,NA,NA,NA,NA
PVSmeCb5,3odop6t3bvxisk3y617o3pei3yp24c,34q075jo11qwrv1vvypabnaswzz01c,PVSmeCb5,2020-0188,2021-10-14,14:53:31,16:33:57,NA,incomplete,false,true,NA,6,35,NA,white,n_s_015.jpg,NA,NA,unpleasant,pleasant,NA,NA,NA,NA,NA,right,893.100000023842,true,NA,NA,NA,NA,NA
PVSmeCb5,3odop6t3bvxisk3y617o3pei3yp24c,34q075jo11qwrv1vvypabnaswzz01c,PVSmeCb5,2020-0188,2021-10-14,14:53:31,16:33:57,NA,incomplete,false,NA,true,6,0,NA,NA,NA,left,absent,NA,NA,n_s_023.jpg,yellow,m_s_057.jpg,yellow,within,NA,NaN,NA,right,7004.100000023842,0,2,5529.399999976158
PVSmeCb5,3odop6t3bvxisk3y617o3pei3yp24c,34q075jo11qwrv1vvypabnaswzz01c,PVSmeCb5,2020-0188,2021-10-14,14:53:31,16:33:57,NA,incomplete,false,NA,true,6,1,NA,NA,NA,left,absent,NA,NA,n_l_081.jpg,black,m_l_085.jpg,white,between,NA,NaN,NA,left,4564.100000023842,1,1,1899.8999999761581
PVSmeCb5,3odop6t3bvxisk3y617o3pei3yp24c,34q075jo11qwrv1vvypabnaswzz01c,PVSmeCb5,2020-0188,2021-10-14,14:53:31,16:33:57,NA,incomplete,false,NA,true,6,2,NA,NA,NA,left,absent,NA,NA,m_s_091.jpg,purple,m_s_068.jpg,purple,within,NA,NaN,NA,left,3516.2000000476837,1,2,2879.5999999046326
PVSmeCb5,3odop6t3bvxisk3y617o3pei3yp24c,34q075jo11qwrv1vvypabnaswzz01c,PVSmeCb5,2020-0188,2021-10-14,14:53:31,16:33:57,NA,incomplete,false,NA,true,6,3,NA,NA,NA,left,absent,NA,NA,n_s_008.jpg,brown,n_l_022.jpg,brown,within,NA,NaN,NA,right,14103.900000095367,0,2,3860.399999976158
PVSmeCb5,3odop6t3bvxisk3y617o3pei3yp24c,34q075jo11qwrv1vvypabnaswzz01c,PVSmeCb5,2020-0188,2021-10-14,14:53:31,16:33:57,NA,incomplete,false,NA,true,6,4,NA,NA,NA,right,absent,NA,NA,n_s_015.jpg,white,m_l_077.jpg,white,within,NA,NaN,NA,right,3243.7000000476837,1,0,1561.3999999761581
PVSmeCb5,3odop6t3bvxisk3y617o3pei3yp24c,34q075jo11qwrv1vvypabnaswzz01c,PVSmeCb5,2020-0188,2021-10-14,14:53:31,16:33:57,NA,incomplete,false,NA,true,6,5,NA,NA,NA,right,absent,NA,NA,n_l_011.jpg,brown,m_s_098.jpg,purple,between,NA,NaN,NA,right,5079.5,1,1,1291.4000000953674
PVSmeCb5,3odop6t3bvxisk3y617o3pei3yp24c,34q075jo11qwrv1vvypabnaswzz01c,PVSmeCb5,2020-0188,2021-10-14,14:53:31,16:33:57,NA,incomplete,false,NA,true,6,6,NA,NA,NA,right,absent,NA,NA,n_s_039.jpg,black,n_s_030.jpg,black,within,NA,NaN,NA,right,4102.099999904633,1,1,1113.2999999523163
PVSmeCb5,3odop6t3bvxisk3y617o3pei3yp24c,34q075jo11qwrv1vvypabnaswzz01c,PVSmeCb5,2020-0188,2021-10-14,14:53:31,16:33:57,NA,incomplete,false,NA,true,6,7,NA,NA,NA,right,absent,NA,NA,m_l_086.jpg,yellow,n_s_057.jpg,green,between,NA,NaN,NA,right,10994.700000047684,1,2,1148.7000000476837
PVSmeCb5,3odop6t3bvxisk3y617o3pei3yp24c,34q075jo11qwrv1vvypabnaswzz01c,PVSmeCb5,2020-0188,2021-10-14,14:53:31,16:33:57,NA,incomplete,false,NA,true,6,8,NA,NA,NA,left,absent,NA,NA,m_l_106.jpg,yellow,n_s_077.jpg,purple,between,NA,NaN,NA,left,8830.300000071526,1,1,2656.399999976158
PVSmeCb5,3odop6t3bvxisk3y617o3pei3yp24c,34q075jo11qwrv1vvypabnaswzz01c,PVSmeCb5,2020-0188,2021-10-14,14:53:31,16:33:57,NA,incomplete,false,NA,true,6,9,NA,NA,NA,right,absent,NA,NA,n_s_098.jpg,green,m_s_016.jpg,green,within,NA,NaN,NA,right,2425,1,1,3795.100000023842
PVSmeCb5,3odop6t3bvxisk3y617o3pei3yp24c,34q075jo11qwrv1vvypabnaswzz01c,PVSmeCb5,2020-0188,2021-10-14,14:53:31,16:33:57,NA,incomplete,false,NA,true,6,10,NA,NA,NA,left,absent,NA,NA,n_l_029.jpg,brown,n_l_008.jpg,black,between,NA,NaN,NA,left,5483.5,1,2,2402
PVSmeCb5,3odop6t3bvxisk3y617o3pei3yp24c,34q075jo11qwrv1vvypabnaswzz01c,PVSmeCb5,2020-0188,2021-10-14,14:53:31,16:33:57,NA,incomplete,false,true,NA,7,0,NA,purple,m_l_103.jpg,NA,NA,unpleasant,pleasant,NA,NA,NA,NA,NA,right,1440.19999992847,true,NA,NA,NA,NA,NA
PVSmeCb5,3odop6t3bvxisk3y617o3pei3yp24c,34q075jo11qwrv1vvypabnaswzz01c,PVSmeCb5,2020-0188,2021-10-14,14:53:31,16:33:57,NA,incomplete,false,true,NA,7,1,NA,purple,m_s_055.jpg,NA,NA,pleasant,unpleasant,NA,NA,NA,NA,NA,right,2285.39999997616,true,NA,NA,NA,NA,NA
PVSmeCb5,3odop6t3bvxisk3y617o3pei3yp24c,34q075jo11qwrv1vvypabnaswzz01c,PVSmeCb5,2020-0188,2021-10-14,14:53:31,16:33:57,NA,incomplete,false,true,NA,7,2,NA,purple,m_l_070.jpg,NA,NA,pleasant,unpleasant,NA,NA,NA,NA,NA,right,1900.80000007153,true,NA,NA,NA,NA,NA
PVSmeCb5,3odop6t3bvxisk3y617o3pei3yp24c,34q075jo11qwrv1vvypabnaswzz01c,PVSmeCb5,2020-0188,2021-10-14,14:53:31,16:33:57,NA,incomplete,false,true,NA,7,3,NA,purple,m_s_001.jpg,NA,NA,pleasant,unpleasant,NA,NA,NA,NA,NA,left,1859.5,true,NA,NA,NA,NA,NA
PVSmeCb5,3odop6t3bvxisk3y617o3pei3yp24c,34q075jo11qwrv1vvypabnaswzz01c,PVSmeCb5,2020-0188,2021-10-14,14:53:31,16:33:57,NA,incomplete,false,true,NA,7,4,NA,purple,n_s_096.jpg,NA,NA,pleasant,unpleasant,NA,NA,NA,NA,NA,left,1156.40000009537,true,NA,NA,NA,NA,NA
PVSmeCb5,3odop6t3bvxisk3y617o3pei3yp24c,34q075jo11qwrv1vvypabnaswzz01c,PVSmeCb5,2020-0188,2021-10-14,14:53:31,16:33:57,NA,incomplete,false,true,NA,7,5,NA,purple,m_l_046.jpg,NA,NA,pleasant,unpleasant,NA,NA,NA,NA,NA,left,1045.20000004768,true,NA,NA,NA,NA,NA
PVSmeCb5,3odop6t3bvxisk3y617o3pei3yp24c,34q075jo11qwrv1vvypabnaswzz01c,PVSmeCb5,2020-0188,2021-10-14,14:53:31,16:33:57,NA,incomplete,false,true,NA,7,6,NA,black,m_s_060.jpg,NA,NA,pleasant,unpleasant,NA,NA,NA,NA,NA,left,1262.79999995232,true,NA,NA,NA,NA,NA
PVSmeCb5,3odop6t3bvxisk3y617o3pei3yp24c,34q075jo11qwrv1vvypabnaswzz01c,PVSmeCb5,2020-0188,2021-10-14,14:53:31,16:33:57,NA,incomplete,false,true,NA,7,7,NA,black,m_s_036.jpg,NA,NA,unpleasant,pleasant,NA,NA,NA,NA,NA,right,1284.10000002384,true,NA,NA,NA,NA,NA
PVSmeCb5,3odop6t3bvxisk3y617o3pei3yp24c,34q075jo11qwrv1vvypabnaswzz01c,PVSmeCb5,2020-0188,2021-10-14,14:53:31,16:33:57,NA,incomplete,false,true,NA,7,8,NA,black,m_l_088.jpg,NA,NA,unpleasant,pleasant,NA,NA,NA,NA,NA,right,1191.60000002384,true,NA,NA,NA,NA,NA
PVSmeCb5,3odop6t3bvxisk3y617o3pei3yp24c,34q075jo11qwrv1vvypabnaswzz01c,PVSmeCb5,2020-0188,2021-10-14,14:53:31,16:33:57,NA,incomplete,false,true,NA,7,9,NA,black,m_s_078.jpg,NA,NA,unpleasant,pleasant,NA,NA,NA,NA,NA,right,1193.60000002384,true,NA,NA,NA,NA,NA
PVSmeCb5,3odop6t3bvxisk3y617o3pei3yp24c,34q075jo11qwrv1vvypabnaswzz01c,PVSmeCb5,2020-0188,2021-10-14,14:53:31,16:33:57,NA,incomplete,false,true,NA,7,10,NA,black,m_l_013.jpg,NA,NA,pleasant,unpleasant,NA,NA,NA,NA,NA,left,1392.39999997616,true,NA,NA,NA,NA,NA
PVSmeCb5,3odop6t3bvxisk3y617o3pei3yp24c,34q075jo11qwrv1vvypabnaswzz01c,PVSmeCb5,2020-0188,2021-10-14,14:53:31,16:33:57,NA,incomplete,false,true,NA,7,11,NA,black,m_l_089.jpg,NA,NA,unpleasant,pleasant,NA,NA,NA,NA,NA,right,1121.10000002384,true,NA,NA,NA,NA,NA
PVSmeCb5,3odop6t3bvxisk3y617o3pei3yp24c,34q075jo11qwrv1vvypabnaswzz01c,PVSmeCb5,2020-0188,2021-10-14,14:53:31,16:33:57,NA,incomplete,false,true,NA,7,12,NA,red,m_l_116.jpg,NA,NA,pleasant,unpleasant,NA,NA,NA,NA,NA,left,1200.09999990463,true,NA,NA,NA,NA,NA
PVSmeCb5,3odop6t3bvxisk3y617o3pei3yp24c,34q075jo11qwrv1vvypabnaswzz01c,PVSmeCb5,2020-0188,2021-10-14,14:53:31,16:33:57,NA,incomplete,false,true,NA,7,13,NA,red,n_s_046.jpg,NA,NA,pleasant,unpleasant,NA,NA,NA,NA,NA,right,1248.59999990463,true,NA,NA,NA,NA,NA
PVSmeCb5,3odop6t3bvxisk3y617o3pei3yp24c,34q075jo11qwrv1vvypabnaswzz01c,PVSmeCb5,2020-0188,2021-10-14,14:53:31,16:33:57,NA,incomplete,false,true,NA,7,14,NA,red,n_s_076.jpg,NA,NA,unpleasant,pleasant,NA,NA,NA,NA,NA,right,1652.39999997616,true,NA,NA,NA,NA,NA
PVSmeCb5,3odop6t3bvxisk3y617o3pei3yp24c,34q075jo11qwrv1vvypabnaswzz01c,PVSmeCb5,2020-0188,2021-10-14,14:53:31,16:33:57,NA,incomplete,false,true,NA,7,15,NA,red,n_s_097.jpg,NA,NA,unpleasant,pleasant,NA,NA,NA,NA,NA,right,1019.89999997616,true,NA,NA,NA,NA,NA
PVSmeCb5,3odop6t3bvxisk3y617o3pei3yp24c,34q075jo11qwrv1vvypabnaswzz01c,PVSmeCb5,2020-0188,2021-10-14,14:53:31,16:33:57,NA,incomplete,false,true,NA,7,16,NA,red,m_l_019.jpg,NA,NA,pleasant,unpleasant,NA,NA,NA,NA,NA,left,1578.70000004768,true,NA,NA,NA,NA,NA
PVSmeCb5,3odop6t3bvxisk3y617o3pei3yp24c,34q075jo11qwrv1vvypabnaswzz01c,PVSmeCb5,2020-0188,2021-10-14,14:53:31,16:33:57,NA,incomplete,false,true,NA,7,17,NA,red,n_l_102.jpg,NA,NA,pleasant,unpleasant,NA,NA,NA,NA,NA,left,1187.89999997616,true,NA,NA,NA,NA,NA
PVSmeCb5,3odop6t3bvxisk3y617o3pei3yp24c,34q075jo11qwrv1vvypabnaswzz01c,PVSmeCb5,2020-0188,2021-10-14,14:53:31,16:33:57,NA,incomplete,false,true,NA,7,18,NA,white,m_l_115.jpg,NA,NA,pleasant,unpleasant,NA,NA,NA,NA,NA,left,1587.70000004768,true,NA,NA,NA,NA,NA
PVSmeCb5,3odop6t3bvxisk3y617o3pei3yp24c,34q075jo11qwrv1vvypabnaswzz01c,PVSmeCb5,2020-0188,2021-10-14,14:53:31,16:33:57,NA,incomplete,false,true,NA,7,19,NA,white,m_l_043.jpg,NA,NA,pleasant,unpleasant,NA,NA,NA,NA,NA,left,1055,true,NA,NA,NA,NA,NA
PVSmeCb5,3odop6t3bvxisk3y617o3pei3yp24c,34q075jo11qwrv1vvypabnaswzz01c,PVSmeCb5,2020-0188,2021-10-14,14:53:31,16:33:57,NA,incomplete,false,true,NA,7,20,NA,white,m_l_111.jpg,NA,NA,unpleasant,pleasant,NA,NA,NA,NA,NA,right,1138.90000009537,true,NA,NA,NA,NA,NA
PVSmeCb5,3odop6t3bvxisk3y617o3pei3yp24c,34q075jo11qwrv1vvypabnaswzz01c,PVSmeCb5,2020-0188,2021-10-14,14:53:31,16:33:57,NA,incomplete,false,true,NA,7,21,NA,white,m_s_106.jpg,NA,NA,pleasant,unpleasant,NA,NA,NA,NA,NA,left,1103.69999992847,true,NA,NA,NA,NA,NA
PVSmeCb5,3odop6t3bvxisk3y617o3pei3yp24c,34q075jo11qwrv1vvypabnaswzz01c,PVSmeCb5,2020-0188,2021-10-14,14:53:31,16:33:57,NA,incomplete,false,true,NA,7,22,NA,white,m_l_090.jpg,NA,NA,pleasant,unpleasant,NA,NA,NA,NA,NA,left,1191.10000002384,true,NA,NA,NA,NA,NA
PVSmeCb5,3odop6t3bvxisk3y617o3pei3yp24c,34q075jo11qwrv1vvypabnaswzz01c,PVSmeCb5,2020-0188,2021-10-14,14:53:31,16:33:57,NA,incomplete,false,true,NA,7,23,NA,white,m_l_079.jpg,NA,NA,unpleasant,pleasant,NA,NA,NA,NA,NA,right,1120.79999995232,true,NA,NA,NA,NA,NA
PVSmeCb5,3odop6t3bvxisk3y617o3pei3yp24c,34q075jo11qwrv1vvypabnaswzz01c,PVSmeCb5,2020-0188,2021-10-14,14:53:31,16:33:57,NA,incomplete,false,true,NA,7,24,NA,green,m_l_107.jpg,NA,NA,pleasant,unpleasant,NA,NA,NA,NA,NA,right,1609.5,true,NA,NA,NA,NA,NA
PVSmeCb5,3odop6t3bvxisk3y617o3pei3yp24c,34q075jo11qwrv1vvypabnaswzz01c,PVSmeCb5,2020-0188,2021-10-14,14:53:31,16:33:57,NA,incomplete,false,true,NA,7,25,NA,green,m_l_047.jpg,NA,NA,unpleasant,pleasant,NA,NA,NA,NA,NA,right,1204.30000007153,true,NA,NA,NA,NA,NA
PVSmeCb5,3odop6t3bvxisk3y617o3pei3yp24c,34q075jo11qwrv1vvypabnaswzz01c,PVSmeCb5,2020-0188,2021-10-14,14:53:31,16:33:57,NA,incomplete,false,true,NA,7,26,NA,green,n_l_046.jpg,NA,NA,pleasant,unpleasant,NA,NA,NA,NA,NA,left,1053.20000004768,true,NA,NA,NA,NA,NA
PVSmeCb5,3odop6t3bvxisk3y617o3pei3yp24c,34q075jo11qwrv1vvypabnaswzz01c,PVSmeCb5,2020-0188,2021-10-14,14:53:31,16:33:57,NA,incomplete,false,true,NA,7,27,NA,green,n_l_002.jpg,NA,NA,pleasant,unpleasant,NA,NA,NA,NA,NA,left,1347,true,NA,NA,NA,NA,NA
PVSmeCb5,3odop6t3bvxisk3y617o3pei3yp24c,34q075jo11qwrv1vvypabnaswzz01c,PVSmeCb5,2020-0188,2021-10-14,14:53:31,16:33:57,NA,incomplete,false,true,NA,7,28,NA,green,n_s_101.jpg,NA,NA,unpleasant,pleasant,NA,NA,NA,NA,NA,left,1224.5,true,NA,NA,NA,NA,NA
PVSmeCb5,3odop6t3bvxisk3y617o3pei3yp24c,34q075jo11qwrv1vvypabnaswzz01c,PVSmeCb5,2020-0188,2021-10-14,14:53:31,16:33:57,NA,incomplete,false,true,NA,7,29,NA,green,n_s_048.jpg,NA,NA,pleasant,unpleasant,NA,NA,NA,NA,NA,right,1089.5,true,NA,NA,NA,NA,NA
PVSmeCb5,3odop6t3bvxisk3y617o3pei3yp24c,34q075jo11qwrv1vvypabnaswzz01c,PVSmeCb5,2020-0188,2021-10-14,14:53:31,16:33:57,NA,incomplete,false,true,NA,7,30,NA,yellow,m_s_002.jpg,NA,NA,unpleasant,pleasant,NA,NA,NA,NA,NA,right,1348.10000002384,true,NA,NA,NA,NA,NA
PVSmeCb5,3odop6t3bvxisk3y617o3pei3yp24c,34q075jo11qwrv1vvypabnaswzz01c,PVSmeCb5,2020-0188,2021-10-14,14:53:31,16:33:57,NA,incomplete,false,true,NA,7,31,NA,yellow,n_l_106.jpg,NA,NA,pleasant,unpleasant,NA,NA,NA,NA,NA,left,1789.60000002384,true,NA,NA,NA,NA,NA
PVSmeCb5,3odop6t3bvxisk3y617o3pei3yp24c,34q075jo11qwrv1vvypabnaswzz01c,PVSmeCb5,2020-0188,2021-10-14,14:53:31,16:33:57,NA,incomplete,false,true,NA,7,32,NA,yellow,m_l_060.jpg,NA,NA,unpleasant,pleasant,NA,NA,NA,NA,NA,right,1116.5,true,NA,NA,NA,NA,NA
PVSmeCb5,3odop6t3bvxisk3y617o3pei3yp24c,34q075jo11qwrv1vvypabnaswzz01c,PVSmeCb5,2020-0188,2021-10-14,14:53:31,16:33:57,NA,incomplete,false,true,NA,7,33,NA,yellow,n_s_049.jpg,NA,NA,pleasant,unpleasant,NA,NA,NA,NA,NA,right,1106.39999997616,true,NA,NA,NA,NA,NA
PVSmeCb5,3odop6t3bvxisk3y617o3pei3yp24c,34q075jo11qwrv1vvypabnaswzz01c,PVSmeCb5,2020-0188,2021-10-14,14:53:31,16:33:57,NA,incomplete,false,true,NA,7,34,NA,yellow,n_s_005.jpg,NA,NA,pleasant,unpleasant,NA,NA,NA,NA,NA,left,938,true,NA,NA,NA,NA,NA
PVSmeCb5,3odop6t3bvxisk3y617o3pei3yp24c,34q075jo11qwrv1vvypabnaswzz01c,PVSmeCb5,2020-0188,2021-10-14,14:53:31,16:33:57,NA,incomplete,false,true,NA,7,35,NA,yellow,m_l_072.jpg,NA,NA,pleasant,unpleasant,NA,NA,NA,NA,NA,left,1150.40000009537,true,NA,NA,NA,NA,NA
PVSmeCb5,3odop6t3bvxisk3y617o3pei3yp24c,34q075jo11qwrv1vvypabnaswzz01c,PVSmeCb5,2020-0188,2021-10-14,14:53:31,16:33:57,NA,incomplete,false,NA,true,7,0,NA,NA,NA,right,present,NA,NA,m_l_111.jpg,white,m_l_019.jpg,red,between,NA,NaN,NA,right,2411.8000000715256,1,2,1101.6999999284744
PVSmeCb5,3odop6t3bvxisk3y617o3pei3yp24c,34q075jo11qwrv1vvypabnaswzz01c,PVSmeCb5,2020-0188,2021-10-14,14:53:31,16:33:57,NA,incomplete,false,NA,true,7,1,NA,NA,NA,left,present,NA,NA,m_l_043.jpg,white,m_l_079.jpg,white,within,NA,NaN,NA,left,4997.200000047684,1,0,1237
PVSmeCb5,3odop6t3bvxisk3y617o3pei3yp24c,34q075jo11qwrv1vvypabnaswzz01c,PVSmeCb5,2020-0188,2021-10-14,14:53:31,16:33:57,NA,incomplete,false,NA,true,7,2,NA,NA,NA,right,present,NA,NA,m_l_060.jpg,yellow,n_s_101.jpg,green,between,NA,NaN,NA,right,2882.3000000715256,1,1,1522.5
PVSmeCb5,3odop6t3bvxisk3y617o3pei3yp24c,34q075jo11qwrv1vvypabnaswzz01c,PVSmeCb5,2020-0188,2021-10-14,14:53:31,16:33:57,NA,incomplete,false,NA,true,7,3,NA,NA,NA,left,present,NA,NA,m_s_055.jpg,purple,m_l_046.jpg,purple,within,NA,NaN,NA,left,3758.899999976158,1,0,912.6999999284744
PVSmeCb5,3odop6t3bvxisk3y617o3pei3yp24c,34q075jo11qwrv1vvypabnaswzz01c,PVSmeCb5,2020-0188,2021-10-14,14:53:31,16:33:57,NA,incomplete,false,NA,true,7,4,NA,NA,NA,left,present,NA,NA,m_l_090.jpg,white,n_l_046.jpg,green,between,NA,NaN,NA,left,4811.799999952316,1,2,1722.2000000476837
PVSmeCb5,3odop6t3bvxisk3y617o3pei3yp24c,34q075jo11qwrv1vvypabnaswzz01c,PVSmeCb5,2020-0188,2021-10-14,14:53:31,16:33:57,NA,incomplete,false,NA,true,7,5,NA,NA,NA,right,present,NA,NA,n_s_076.jpg,red,m_l_013.jpg,black,between,NA,NaN,NA,left,9267.399999976158,0,2,2634.399999976158
PVSmeCb5,3odop6t3bvxisk3y617o3pei3yp24c,34q075jo11qwrv1vvypabnaswzz01c,PVSmeCb5,2020-0188,2021-10-14,14:53:31,16:33:57,NA,incomplete,false,NA,true,7,6,NA,NA,NA,right,present,NA,NA,m_l_089.jpg,black,m_s_036.jpg,black,within,NA,NaN,NA,right,3728.2000000476837,1,0,1326.8000000715256
PVSmeCb5,3odop6t3bvxisk3y617o3pei3yp24c,34q075jo11qwrv1vvypabnaswzz01c,PVSmeCb5,2020-0188,2021-10-14,14:53:31,16:33:57,NA,incomplete,false,NA,true,7,7,NA,NA,NA,left,present,NA,NA,m_l_047.jpg,green,n_s_048.jpg,green,within,NA,NaN,NA,left,4233.399999976158,1,0,1226.1000000238419
PVSmeCb5,3odop6t3bvxisk3y617o3pei3yp24c,34q075jo11qwrv1vvypabnaswzz01c,PVSmeCb5,2020-0188,2021-10-14,14:53:31,16:33:57,NA,incomplete,false,NA,true,7,8,NA,NA,NA,right,present,NA,NA,m_l_072.jpg,yellow,n_l_106.jpg,yellow,within,NA,NaN,NA,right,8177.100000023842,1,0,1755.5
PVSmeCb5,3odop6t3bvxisk3y617o3pei3yp24c,34q075jo11qwrv1vvypabnaswzz01c,PVSmeCb5,2020-0188,2021-10-14,14:53:31,16:33:57,NA,incomplete,false,NA,true,7,9,NA,NA,NA,left,present,NA,NA,n_s_096.jpg,purple,m_l_088.jpg,black,between,NA,NaN,NA,left,2831.2999999523163,1,1,2882
PVSmeCb5,3odop6t3bvxisk3y617o3pei3yp24c,34q075jo11qwrv1vvypabnaswzz01c,PVSmeCb5,2020-0188,2021-10-14,14:53:31,16:33:57,NA,incomplete,false,NA,true,7,10,NA,NA,NA,left,present,NA,NA,n_s_046.jpg,red,n_l_102.jpg,red,within,NA,NaN,NA,left,3801.2000000476837,1,0,1196
PVSmeCb5,3odop6t3bvxisk3y617o3pei3yp24c,34q075jo11qwrv1vvypabnaswzz01c,PVSmeCb5,2020-0188,2021-10-14,14:53:31,16:33:57,NA,incomplete,false,true,NA,8,0,NA,white,n_l_096.jpg,NA,NA,unpleasant,pleasant,NA,NA,NA,NA,NA,right,1497.79999995232,true,NA,NA,NA,NA,NA
PVSmeCb5,3odop6t3bvxisk3y617o3pei3yp24c,34q075jo11qwrv1vvypabnaswzz01c,PVSmeCb5,2020-0188,2021-10-14,14:53:31,16:33:57,NA,incomplete,false,true,NA,8,1,NA,white,m_s_037.jpg,NA,NA,pleasant,unpleasant,NA,NA,NA,NA,NA,left,1344.10000002384,true,NA,NA,NA,NA,NA
PVSmeCb5,3odop6t3bvxisk3y617o3pei3yp24c,34q075jo11qwrv1vvypabnaswzz01c,PVSmeCb5,2020-0188,2021-10-14,14:53:31,16:33:57,NA,incomplete,false,true,NA,8,2,NA,white,m_s_112.jpg,NA,NA,pleasant,unpleasant,NA,NA,NA,NA,NA,left,1481.80000007153,true,NA,NA,NA,NA,NA
PVSmeCb5,3odop6t3bvxisk3y617o3pei3yp24c,34q075jo11qwrv1vvypabnaswzz01c,PVSmeCb5,2020-0188,2021-10-14,14:53:31,16:33:57,NA,incomplete,false,true,NA,8,3,NA,white,n_s_064.jpg,NA,NA,unpleasant,pleasant,NA,NA,NA,NA,NA,left,1446.5,true,NA,NA,NA,NA,NA
PVSmeCb5,3odop6t3bvxisk3y617o3pei3yp24c,34q075jo11qwrv1vvypabnaswzz01c,PVSmeCb5,2020-0188,2021-10-14,14:53:31,16:33:57,NA,incomplete,false,true,NA,8,4,NA,white,n_l_073.jpg,NA,NA,unpleasant,pleasant,NA,NA,NA,NA,NA,right,1134.79999995232,true,NA,NA,NA,NA,NA
PVSmeCb5,3odop6t3bvxisk3y617o3pei3yp24c,34q075jo11qwrv1vvypabnaswzz01c,PVSmeCb5,2020-0188,2021-10-14,14:53:31,16:33:57,NA,incomplete,false,true,NA,8,5,NA,white,n_l_052.jpg,NA,NA,unpleasant,pleasant,NA,NA,NA,NA,NA,right,1055.69999992847,true,NA,NA,NA,NA,NA
PVSmeCb5,3odop6t3bvxisk3y617o3pei3yp24c,34q075jo11qwrv1vvypabnaswzz01c,PVSmeCb5,2020-0188,2021-10-14,14:53:31,16:33:57,NA,incomplete,false,true,NA,8,6,NA,brown,m_s_038.jpg,NA,NA,pleasant,unpleasant,NA,NA,NA,NA,NA,left,1319,true,NA,NA,NA,NA,NA
PVSmeCb5,3odop6t3bvxisk3y617o3pei3yp24c,34q075jo11qwrv1vvypabnaswzz01c,PVSmeCb5,2020-0188,2021-10-14,14:53:31,16:33:57,NA,incomplete,false,true,NA,8,7,NA,brown,m_s_027.jpg,NA,NA,pleasant,unpleasant,NA,NA,NA,NA,NA,left,1412.39999997616,true,NA,NA,NA,NA,NA
PVSmeCb5,3odop6t3bvxisk3y617o3pei3yp24c,34q075jo11qwrv1vvypabnaswzz01c,PVSmeCb5,2020-0188,2021-10-14,14:53:31,16:33:57,NA,incomplete,false,true,NA,8,8,NA,brown,m_l_003.jpg,NA,NA,pleasant,unpleasant,NA,NA,NA,NA,NA,left,1506.39999997616,true,NA,NA,NA,NA,NA
PVSmeCb5,3odop6t3bvxisk3y617o3pei3yp24c,34q075jo11qwrv1vvypabnaswzz01c,PVSmeCb5,2020-0188,2021-10-14,14:53:31,16:33:57,NA,incomplete,false,true,NA,8,9,NA,brown,n_s_044.jpg,NA,NA,pleasant,unpleasant,NA,NA,NA,NA,NA,left,1171.20000004768,true,NA,NA,NA,NA,NA
