workerId,hitId,assignmentId,subject,studyid,exp_date,exp_start,exp_end,time_start,time_end,practice,encoding,memory,block,trial,event_order,event,stim,answer,context_type,label_left,label_right,left_image,left_event,right_image,right_event,condition,response,response_time,response_acc,order_response,order_response_time,order_acc,distance_response,distance_response_time
Q3MEF11I,3uy4pis8ruyxp7v852m6xfad2fzn1g,3z2r0dq0jlr276ylm9o31vm1ihh2ex,Q3MEF11I,2020-0188,2021-10-17,09:01:08,10:32:37,NA,incomplete,true,true,NA,0,0,NA,yellow,m_l_053.jpg,NA,NA,unpleasant,pleasant,NA,NA,NA,NA,NA,right,2930,true,NA,NA,NA,NA,NA
Q3MEF11I,3uy4pis8ruyxp7v852m6xfad2fzn1g,3z2r0dq0jlr276ylm9o31vm1ihh2ex,Q3MEF11I,2020-0188,2021-10-17,09:01:08,10:32:37,NA,incomplete,true,true,NA,0,1,NA,yellow,n_s_110.jpg,NA,NA,pleasant,unpleasant,NA,NA,NA,NA,NA,left,2610.39999961853,true,NA,NA,NA,NA,NA
Q3MEF11I,3uy4pis8ruyxp7v852m6xfad2fzn1g,3z2r0dq0jlr276ylm9o31vm1ihh2ex,Q3MEF11I,2020-0188,2021-10-17,09:01:08,10:32:37,NA,incomplete,true,true,NA,0,2,NA,yellow,m_s_049.jpg,NA,NA,pleasant,unpleasant,NA,NA,NA,NA,NA,left,1519,true,NA,NA,NA,NA,NA
Q3MEF11I,3uy4pis8ruyxp7v852m6xfad2fzn1g,3z2r0dq0jlr276ylm9o31vm1ihh2ex,Q3MEF11I,2020-0188,2021-10-17,09:01:08,10:32:37,NA,incomplete,true,true,NA,0,3,NA,yellow,n_l_059.jpg,NA,NA,unpleasant,pleasant,NA,NA,NA,NA,NA,none,0,false,NA,NA,NA,NA,NA
Q3MEF11I,3uy4pis8ruyxp7v852m6xfad2fzn1g,3z2r0dq0jlr276ylm9o31vm1ihh2ex,Q3MEF11I,2020-0188,2021-10-17,09:01:08,10:32:37,NA,incomplete,true,true,NA,0,4,NA,yellow,n_s_002.jpg,NA,NA,pleasant,unpleasant,NA,NA,NA,NA,NA,left,2492,true,NA,NA,NA,NA,NA
Q3MEF11I,3uy4pis8ruyxp7v852m6xfad2fzn1g,3z2r0dq0jlr276ylm9o31vm1ihh2ex,Q3MEF11I,2020-0188,2021-10-17,09:01:08,10:32:37,NA,incomplete,true,true,NA,0,5,NA,yellow,m_s_040.jpg,NA,NA,pleasant,unpleasant,NA,NA,NA,NA,NA,left,2538.79999923706,true,NA,NA,NA,NA,NA
Q3MEF11I,3uy4pis8ruyxp7v852m6xfad2fzn1g,3z2r0dq0jlr276ylm9o31vm1ihh2ex,Q3MEF11I,2020-0188,2021-10-17,09:01:08,10:32:37,NA,incomplete,true,true,NA,0,6,NA,brown,m_s_105.jpg,NA,NA,pleasant,unpleasant,NA,NA,NA,NA,NA,left,1674.39999961853,true,NA,NA,NA,NA,NA
Q3MEF11I,3uy4pis8ruyxp7v852m6xfad2fzn1g,3z2r0dq0jlr276ylm9o31vm1ihh2ex,Q3MEF11I,2020-0188,2021-10-17,09:01:08,10:32:37,NA,incomplete,true,true,NA,0,7,NA,brown,n_s_055.jpg,NA,NA,pleasant,unpleasant,NA,NA,NA,NA,NA,left,2919.39999961853,true,NA,NA,NA,NA,NA
Q3MEF11I,3uy4pis8ruyxp7v852m6xfad2fzn1g,3z2r0dq0jlr276ylm9o31vm1ihh2ex,Q3MEF11I,2020-0188,2021-10-17,09:01:08,10:32:37,NA,incomplete,true,true,NA,0,8,NA,brown,m_s_088.jpg,NA,NA,unpleasant,pleasant,NA,NA,NA,NA,NA,right,2272.79999923706,true,NA,NA,NA,NA,NA
Q3MEF11I,3uy4pis8ruyxp7v852m6xfad2fzn1g,3z2r0dq0jlr276ylm9o31vm1ihh2ex,Q3MEF11I,2020-0188,2021-10-17,09:01:08,10:32:37,NA,incomplete,true,true,NA,0,9,NA,brown,n_l_027.jpg,NA,NA,unpleasant,pleasant,NA,NA,NA,NA,NA,right,1857.90000152588,true,NA,NA,NA,NA,NA
Q3MEF11I,3uy4pis8ruyxp7v852m6xfad2fzn1g,3z2r0dq0jlr276ylm9o31vm1ihh2ex,Q3MEF11I,2020-0188,2021-10-17,09:01:08,10:32:37,NA,incomplete,true,true,NA,0,10,NA,brown,n_l_064.jpg,NA,NA,pleasant,unpleasant,NA,NA,NA,NA,NA,left,2771.19999885559,true,NA,NA,NA,NA,NA
Q3MEF11I,3uy4pis8ruyxp7v852m6xfad2fzn1g,3z2r0dq0jlr276ylm9o31vm1ihh2ex,Q3MEF11I,2020-0188,2021-10-17,09:01:08,10:32:37,NA,incomplete,true,true,NA,0,11,NA,brown,n_s_063.jpg,NA,NA,unpleasant,pleasant,NA,NA,NA,NA,NA,right,1960.10000038147,true,NA,NA,NA,NA,NA
Q3MEF11I,3uy4pis8ruyxp7v852m6xfad2fzn1g,3z2r0dq0jlr276ylm9o31vm1ihh2ex,Q3MEF11I,2020-0188,2021-10-17,09:01:08,10:32:37,NA,incomplete,true,true,NA,0,12,NA,white,m_l_057.jpg,NA,NA,unpleasant,pleasant,NA,NA,NA,NA,NA,right,2070.69999885559,true,NA,NA,NA,NA,NA
Q3MEF11I,3uy4pis8ruyxp7v852m6xfad2fzn1g,3z2r0dq0jlr276ylm9o31vm1ihh2ex,Q3MEF11I,2020-0188,2021-10-17,09:01:08,10:32:37,NA,incomplete,true,true,NA,0,13,NA,white,n_s_078.jpg,NA,NA,unpleasant,pleasant,NA,NA,NA,NA,NA,right,2317.89999961853,true,NA,NA,NA,NA,NA
Q3MEF11I,3uy4pis8ruyxp7v852m6xfad2fzn1g,3z2r0dq0jlr276ylm9o31vm1ihh2ex,Q3MEF11I,2020-0188,2021-10-17,09:01:08,10:32:37,NA,incomplete,true,true,NA,0,14,NA,white,m_l_108.jpg,NA,NA,pleasant,unpleasant,NA,NA,NA,NA,NA,left,1820.39999961853,true,NA,NA,NA,NA,NA
Q3MEF11I,3uy4pis8ruyxp7v852m6xfad2fzn1g,3z2r0dq0jlr276ylm9o31vm1ihh2ex,Q3MEF11I,2020-0188,2021-10-17,09:01:08,10:32:37,NA,incomplete,true,true,NA,0,15,NA,white,m_s_082.jpg,NA,NA,unpleasant,pleasant,NA,NA,NA,NA,NA,right,2903.69999885559,true,NA,NA,NA,NA,NA
Q3MEF11I,3uy4pis8ruyxp7v852m6xfad2fzn1g,3z2r0dq0jlr276ylm9o31vm1ihh2ex,Q3MEF11I,2020-0188,2021-10-17,09:01:08,10:32:37,NA,incomplete,true,true,NA,0,16,NA,white,m_s_106.jpg,NA,NA,pleasant,unpleasant,NA,NA,NA,NA,NA,left,1967.70000076294,true,NA,NA,NA,NA,NA
Q3MEF11I,3uy4pis8ruyxp7v852m6xfad2fzn1g,3z2r0dq0jlr276ylm9o31vm1ihh2ex,Q3MEF11I,2020-0188,2021-10-17,09:01:08,10:32:37,NA,incomplete,true,true,NA,0,17,NA,white,n_s_028.jpg,NA,NA,unpleasant,pleasant,NA,NA,NA,NA,NA,right,1761.70000076294,true,NA,NA,NA,NA,NA
Q3MEF11I,3uy4pis8ruyxp7v852m6xfad2fzn1g,3z2r0dq0jlr276ylm9o31vm1ihh2ex,Q3MEF11I,2020-0188,2021-10-17,09:01:08,10:32:37,NA,incomplete,true,true,NA,0,18,NA,green,m_s_033.jpg,NA,NA,unpleasant,pleasant,NA,NA,NA,NA,NA,right,1670.89999961853,true,NA,NA,NA,NA,NA
Q3MEF11I,3uy4pis8ruyxp7v852m6xfad2fzn1g,3z2r0dq0jlr276ylm9o31vm1ihh2ex,Q3MEF11I,2020-0188,2021-10-17,09:01:08,10:32:37,NA,incomplete,true,true,NA,0,19,NA,green,m_s_076.jpg,NA,NA,unpleasant,pleasant,NA,NA,NA,NA,NA,right,1977.20000076294,true,NA,NA,NA,NA,NA
Q3MEF11I,3uy4pis8ruyxp7v852m6xfad2fzn1g,3z2r0dq0jlr276ylm9o31vm1ihh2ex,Q3MEF11I,2020-0188,2021-10-17,09:01:08,10:32:37,NA,incomplete,true,true,NA,0,20,NA,green,n_l_107.jpg,NA,NA,unpleasant,pleasant,NA,NA,NA,NA,NA,left,1984.39999961853,true,NA,NA,NA,NA,NA
Q3MEF11I,3uy4pis8ruyxp7v852m6xfad2fzn1g,3z2r0dq0jlr276ylm9o31vm1ihh2ex,Q3MEF11I,2020-0188,2021-10-17,09:01:08,10:32:37,NA,incomplete,true,true,NA,0,21,NA,green,n_l_004.jpg,NA,NA,pleasant,unpleasant,NA,NA,NA,NA,NA,left,2158.30000114441,true,NA,NA,NA,NA,NA
Q3MEF11I,3uy4pis8ruyxp7v852m6xfad2fzn1g,3z2r0dq0jlr276ylm9o31vm1ihh2ex,Q3MEF11I,2020-0188,2021-10-17,09:01:08,10:32:37,NA,incomplete,true,true,NA,0,22,NA,green,n_l_116.jpg,NA,NA,unpleasant,pleasant,NA,NA,NA,NA,NA,right,1890.10000038147,true,NA,NA,NA,NA,NA
Q3MEF11I,3uy4pis8ruyxp7v852m6xfad2fzn1g,3z2r0dq0jlr276ylm9o31vm1ihh2ex,Q3MEF11I,2020-0188,2021-10-17,09:01:08,10:32:37,NA,incomplete,true,true,NA,0,23,NA,green,n_s_100.jpg,NA,NA,pleasant,unpleasant,NA,NA,NA,NA,NA,left,1900.39999961853,true,NA,NA,NA,NA,NA
Q3MEF11I,3uy4pis8ruyxp7v852m6xfad2fzn1g,3z2r0dq0jlr276ylm9o31vm1ihh2ex,Q3MEF11I,2020-0188,2021-10-17,09:01:08,10:32:37,NA,incomplete,true,true,NA,0,24,NA,black,n_l_078.jpg,NA,NA,pleasant,unpleasant,NA,NA,NA,NA,NA,left,2200.69999885559,true,NA,NA,NA,NA,NA
Q3MEF11I,3uy4pis8ruyxp7v852m6xfad2fzn1g,3z2r0dq0jlr276ylm9o31vm1ihh2ex,Q3MEF11I,2020-0188,2021-10-17,09:01:08,10:32:37,NA,incomplete,true,true,NA,0,25,NA,black,n_s_096.jpg,NA,NA,unpleasant,pleasant,NA,NA,NA,NA,NA,right,1822.80000114441,true,NA,NA,NA,NA,NA
Q3MEF11I,3uy4pis8ruyxp7v852m6xfad2fzn1g,3z2r0dq0jlr276ylm9o31vm1ihh2ex,Q3MEF11I,2020-0188,2021-10-17,09:01:08,10:32:37,NA,incomplete,true,true,NA,0,26,NA,black,n_s_081.jpg,NA,NA,pleasant,unpleasant,NA,NA,NA,NA,NA,left,1788.5,true,NA,NA,NA,NA,NA
Q3MEF11I,3uy4pis8ruyxp7v852m6xfad2fzn1g,3z2r0dq0jlr276ylm9o31vm1ihh2ex,Q3MEF11I,2020-0188,2021-10-17,09:01:08,10:32:37,NA,incomplete,true,true,NA,0,27,NA,black,m_s_061.jpg,NA,NA,unpleasant,pleasant,NA,NA,NA,NA,NA,right,1917.09999847412,true,NA,NA,NA,NA,NA
Q3MEF11I,3uy4pis8ruyxp7v852m6xfad2fzn1g,3z2r0dq0jlr276ylm9o31vm1ihh2ex,Q3MEF11I,2020-0188,2021-10-17,09:01:08,10:32:37,NA,incomplete,true,true,NA,0,28,NA,black,n_l_030.jpg,NA,NA,pleasant,unpleasant,NA,NA,NA,NA,NA,left,2076.39999961853,true,NA,NA,NA,NA,NA
Q3MEF11I,3uy4pis8ruyxp7v852m6xfad2fzn1g,3z2r0dq0jlr276ylm9o31vm1ihh2ex,Q3MEF11I,2020-0188,2021-10-17,09:01:08,10:32:37,NA,incomplete,true,true,NA,0,29,NA,black,m_l_106.jpg,NA,NA,unpleasant,pleasant,NA,NA,NA,NA,NA,right,1794,true,NA,NA,NA,NA,NA
Q3MEF11I,3uy4pis8ruyxp7v852m6xfad2fzn1g,3z2r0dq0jlr276ylm9o31vm1ihh2ex,Q3MEF11I,2020-0188,2021-10-17,09:01:08,10:32:37,NA,incomplete,true,true,NA,0,30,NA,orange,n_s_042.jpg,NA,NA,pleasant,unpleasant,NA,NA,NA,NA,NA,right,2269.80000114441,true,NA,NA,NA,NA,NA
Q3MEF11I,3uy4pis8ruyxp7v852m6xfad2fzn1g,3z2r0dq0jlr276ylm9o31vm1ihh2ex,Q3MEF11I,2020-0188,2021-10-17,09:01:08,10:32:37,NA,incomplete,true,true,NA,0,31,NA,orange,n_l_091.jpg,NA,NA,pleasant,unpleasant,NA,NA,NA,NA,NA,left,2130.60000038147,true,NA,NA,NA,NA,NA
Q3MEF11I,3uy4pis8ruyxp7v852m6xfad2fzn1g,3z2r0dq0jlr276ylm9o31vm1ihh2ex,Q3MEF11I,2020-0188,2021-10-17,09:01:08,10:32:37,NA,incomplete,true,true,NA,0,32,NA,orange,m_s_108.jpg,NA,NA,pleasant,unpleasant,NA,NA,NA,NA,NA,left,2862.5,true,NA,NA,NA,NA,NA
Q3MEF11I,3uy4pis8ruyxp7v852m6xfad2fzn1g,3z2r0dq0jlr276ylm9o31vm1ihh2ex,Q3MEF11I,2020-0188,2021-10-17,09:01:08,10:32:37,NA,incomplete,true,true,NA,0,33,NA,orange,n_l_043.jpg,NA,NA,unpleasant,pleasant,NA,NA,NA,NA,NA,left,2503.70000076294,true,NA,NA,NA,NA,NA
Q3MEF11I,3uy4pis8ruyxp7v852m6xfad2fzn1g,3z2r0dq0jlr276ylm9o31vm1ihh2ex,Q3MEF11I,2020-0188,2021-10-17,09:01:08,10:32:37,NA,incomplete,true,true,NA,0,34,NA,orange,n_l_001.jpg,NA,NA,unpleasant,pleasant,NA,NA,NA,NA,NA,right,1699.5,true,NA,NA,NA,NA,NA
Q3MEF11I,3uy4pis8ruyxp7v852m6xfad2fzn1g,3z2r0dq0jlr276ylm9o31vm1ihh2ex,Q3MEF11I,2020-0188,2021-10-17,09:01:08,10:32:37,NA,incomplete,true,true,NA,0,35,NA,orange,m_l_041.jpg,NA,NA,unpleasant,pleasant,NA,NA,NA,NA,NA,right,1411.89999961853,true,NA,NA,NA,NA,NA
Q3MEF11I,3uy4pis8ruyxp7v852m6xfad2fzn1g,3z2r0dq0jlr276ylm9o31vm1ihh2ex,Q3MEF11I,2020-0188,2021-10-17,09:01:08,10:32:37,NA,incomplete,true,NA,true,0,0,NA,NA,NA,right,present,NA,NA,m_l_108.jpg,white,n_l_064.jpg,brown,between,NA,NaN,NA,left,10252.60000038147,0,0,10384.5
Q3MEF11I,3uy4pis8ruyxp7v852m6xfad2fzn1g,3z2r0dq0jlr276ylm9o31vm1ihh2ex,Q3MEF11I,2020-0188,2021-10-17,09:01:08,10:32:37,NA,incomplete,true,NA,true,0,1,NA,NA,NA,left,absent,NA,NA,n_l_030.jpg,black,m_s_108.jpg,orange,between,NA,NaN,NA,left,6875.5,1,3,5446.89999961853
Q3MEF11I,3uy4pis8ruyxp7v852m6xfad2fzn1g,3z2r0dq0jlr276ylm9o31vm1ihh2ex,Q3MEF11I,2020-0188,2021-10-17,09:01:08,10:32:37,NA,incomplete,true,NA,true,0,2,NA,NA,NA,left,present,NA,NA,n_s_002.jpg,yellow,m_s_088.jpg,brown,between,NA,NaN,NA,left,5260,1,1,6028.699998855591
Q3MEF11I,3uy4pis8ruyxp7v852m6xfad2fzn1g,3z2r0dq0jlr276ylm9o31vm1ihh2ex,Q3MEF11I,2020-0188,2021-10-17,09:01:08,10:32:37,NA,incomplete,true,NA,true,0,3,NA,NA,NA,left,present,NA,NA,n_s_110.jpg,yellow,m_s_040.jpg,yellow,within,NA,NaN,NA,left,6283.799999237061,1,2,3355
Q3MEF11I,3uy4pis8ruyxp7v852m6xfad2fzn1g,3z2r0dq0jlr276ylm9o31vm1ihh2ex,Q3MEF11I,2020-0188,2021-10-17,09:01:08,10:32:37,NA,incomplete,true,NA,true,0,4,NA,NA,NA,left,absent,NA,NA,n_l_091.jpg,orange,m_l_041.jpg,orange,within,NA,NaN,NA,left,4897.5,1,1,3765.8999996185303
Q3MEF11I,3uy4pis8ruyxp7v852m6xfad2fzn1g,3z2r0dq0jlr276ylm9o31vm1ihh2ex,Q3MEF11I,2020-0188,2021-10-17,09:01:08,10:32:37,NA,incomplete,true,NA,true,0,5,NA,NA,NA,right,present,NA,NA,n_s_028.jpg,white,n_s_078.jpg,white,within,NA,NaN,NA,left,5641.699998855591,0,0,3475.8999996185303
Q3MEF11I,3uy4pis8ruyxp7v852m6xfad2fzn1g,3z2r0dq0jlr276ylm9o31vm1ihh2ex,Q3MEF11I,2020-0188,2021-10-17,09:01:08,10:32:37,NA,incomplete,true,NA,true,0,6,NA,NA,NA,left,absent,NA,NA,n_l_116.jpg,green,n_s_081.jpg,black,between,NA,NaN,NA,right,5644.89999961853,0,0,3407.199998855591
Q3MEF11I,3uy4pis8ruyxp7v852m6xfad2fzn1g,3z2r0dq0jlr276ylm9o31vm1ihh2ex,Q3MEF11I,2020-0188,2021-10-17,09:01:08,10:32:37,NA,incomplete,true,NA,true,0,7,NA,NA,NA,right,present,NA,NA,n_s_063.jpg,brown,n_s_055.jpg,brown,within,NA,NaN,NA,right,4394.799999237061,1,1,3091.7000007629395
Q3MEF11I,3uy4pis8ruyxp7v852m6xfad2fzn1g,3z2r0dq0jlr276ylm9o31vm1ihh2ex,Q3MEF11I,2020-0188,2021-10-17,09:01:08,10:32:37,NA,incomplete,true,NA,true,0,8,NA,NA,NA,left,present,NA,NA,m_s_076.jpg,green,n_s_100.jpg,green,within,NA,NaN,NA,left,14384.70000076294,1,0,4476.799999237061
Q3MEF11I,3uy4pis8ruyxp7v852m6xfad2fzn1g,3z2r0dq0jlr276ylm9o31vm1ihh2ex,Q3MEF11I,2020-0188,2021-10-17,09:01:08,10:32:37,NA,incomplete,true,NA,true,0,9,NA,NA,NA,right,present,NA,NA,n_l_107.jpg,green,m_s_106.jpg,white,between,NA,NaN,NA,right,7784.099998474121,1,1,2573.1000003814697
Q3MEF11I,3uy4pis8ruyxp7v852m6xfad2fzn1g,3z2r0dq0jlr276ylm9o31vm1ihh2ex,Q3MEF11I,2020-0188,2021-10-17,09:01:08,10:32:37,NA,incomplete,true,NA,true,0,10,NA,NA,NA,right,absent,NA,NA,m_l_106.jpg,black,n_s_096.jpg,black,within,NA,NaN,NA,right,4458.599998474121,1,0,3451.7000007629395
Q3MEF11I,3uy4pis8ruyxp7v852m6xfad2fzn1g,3z2r0dq0jlr276ylm9o31vm1ihh2ex,Q3MEF11I,2020-0188,2021-10-17,09:01:08,10:32:37,NA,incomplete,false,true,NA,1,0,NA,red,m_l_062.jpg,NA,NA,pleasant,unpleasant,NA,NA,NA,NA,NA,left,2504,true,NA,NA,NA,NA,NA
Q3MEF11I,3uy4pis8ruyxp7v852m6xfad2fzn1g,3z2r0dq0jlr276ylm9o31vm1ihh2ex,Q3MEF11I,2020-0188,2021-10-17,09:01:08,10:32:37,NA,incomplete,false,true,NA,1,1,NA,red,n_s_059.jpg,NA,NA,unpleasant,pleasant,NA,NA,NA,NA,NA,right,2467.70000076294,true,NA,NA,NA,NA,NA
Q3MEF11I,3uy4pis8ruyxp7v852m6xfad2fzn1g,3z2r0dq0jlr276ylm9o31vm1ihh2ex,Q3MEF11I,2020-0188,2021-10-17,09:01:08,10:32:37,NA,incomplete,false,true,NA,1,2,NA,red,n_l_077.jpg,NA,NA,unpleasant,pleasant,NA,NA,NA,NA,NA,left,1864.20000076294,true,NA,NA,NA,NA,NA
Q3MEF11I,3uy4pis8ruyxp7v852m6xfad2fzn1g,3z2r0dq0jlr276ylm9o31vm1ihh2ex,Q3MEF11I,2020-0188,2021-10-17,09:01:08,10:32:37,NA,incomplete,false,true,NA,1,3,NA,red,n_l_051.jpg,NA,NA,unpleasant,pleasant,NA,NA,NA,NA,NA,right,2270.39999961853,true,NA,NA,NA,NA,NA
Q3MEF11I,3uy4pis8ruyxp7v852m6xfad2fzn1g,3z2r0dq0jlr276ylm9o31vm1ihh2ex,Q3MEF11I,2020-0188,2021-10-17,09:01:08,10:32:37,NA,incomplete,false,true,NA,1,4,NA,red,n_s_041.jpg,NA,NA,unpleasant,pleasant,NA,NA,NA,NA,NA,left,2304.80000114441,true,NA,NA,NA,NA,NA
Q3MEF11I,3uy4pis8ruyxp7v852m6xfad2fzn1g,3z2r0dq0jlr276ylm9o31vm1ihh2ex,Q3MEF11I,2020-0188,2021-10-17,09:01:08,10:32:37,NA,incomplete,false,true,NA,1,5,NA,red,m_s_009.jpg,NA,NA,pleasant,unpleasant,NA,NA,NA,NA,NA,left,2415.10000038147,true,NA,NA,NA,NA,NA
Q3MEF11I,3uy4pis8ruyxp7v852m6xfad2fzn1g,3z2r0dq0jlr276ylm9o31vm1ihh2ex,Q3MEF11I,2020-0188,2021-10-17,09:01:08,10:32:37,NA,incomplete,false,true,NA,1,6,NA,white,n_l_109.jpg,NA,NA,unpleasant,pleasant,NA,NA,NA,NA,NA,left,2492.5,true,NA,NA,NA,NA,NA
Q3MEF11I,3uy4pis8ruyxp7v852m6xfad2fzn1g,3z2r0dq0jlr276ylm9o31vm1ihh2ex,Q3MEF11I,2020-0188,2021-10-17,09:01:08,10:32:37,NA,incomplete,false,true,NA,1,7,NA,white,m_s_034.jpg,NA,NA,pleasant,unpleasant,NA,NA,NA,NA,NA,left,2275.79999923706,true,NA,NA,NA,NA,NA
Q3MEF11I,3uy4pis8ruyxp7v852m6xfad2fzn1g,3z2r0dq0jlr276ylm9o31vm1ihh2ex,Q3MEF11I,2020-0188,2021-10-17,09:01:08,10:32:37,NA,incomplete,false,true,NA,1,8,NA,white,n_s_104.jpg,NA,NA,pleasant,unpleasant,NA,NA,NA,NA,NA,left,1906.29999923706,true,NA,NA,NA,NA,NA
Q3MEF11I,3uy4pis8ruyxp7v852m6xfad2fzn1g,3z2r0dq0jlr276ylm9o31vm1ihh2ex,Q3MEF11I,2020-0188,2021-10-17,09:01:08,10:32:37,NA,incomplete,false,true,NA,1,9,NA,white,m_s_025.jpg,NA,NA,unpleasant,pleasant,NA,NA,NA,NA,NA,right,1746.80000114441,true,NA,NA,NA,NA,NA
Q3MEF11I,3uy4pis8ruyxp7v852m6xfad2fzn1g,3z2r0dq0jlr276ylm9o31vm1ihh2ex,Q3MEF11I,2020-0188,2021-10-17,09:01:08,10:32:37,NA,incomplete,false,true,NA,1,10,NA,white,m_s_051.jpg,NA,NA,unpleasant,pleasant,NA,NA,NA,NA,NA,right,2504.90000152588,true,NA,NA,NA,NA,NA
Q3MEF11I,3uy4pis8ruyxp7v852m6xfad2fzn1g,3z2r0dq0jlr276ylm9o31vm1ihh2ex,Q3MEF11I,2020-0188,2021-10-17,09:01:08,10:32:37,NA,incomplete,false,true,NA,1,11,NA,white,m_l_018.jpg,NA,NA,pleasant,unpleasant,NA,NA,NA,NA,NA,left,1584.19999885559,true,NA,NA,NA,NA,NA
Q3MEF11I,3uy4pis8ruyxp7v852m6xfad2fzn1g,3z2r0dq0jlr276ylm9o31vm1ihh2ex,Q3MEF11I,2020-0188,2021-10-17,09:01:08,10:32:37,NA,incomplete,false,true,NA,1,12,NA,black,n_l_097.jpg,NA,NA,unpleasant,pleasant,NA,NA,NA,NA,NA,right,2159.80000114441,true,NA,NA,NA,NA,NA
Q3MEF11I,3uy4pis8ruyxp7v852m6xfad2fzn1g,3z2r0dq0jlr276ylm9o31vm1ihh2ex,Q3MEF11I,2020-0188,2021-10-17,09:01:08,10:32:37,NA,incomplete,false,true,NA,1,13,NA,black,n_l_024.jpg,NA,NA,unpleasant,pleasant,NA,NA,NA,NA,NA,right,2083.90000152588,true,NA,NA,NA,NA,NA
Q3MEF11I,3uy4pis8ruyxp7v852m6xfad2fzn1g,3z2r0dq0jlr276ylm9o31vm1ihh2ex,Q3MEF11I,2020-0188,2021-10-17,09:01:08,10:32:37,NA,incomplete,false,true,NA,1,14,NA,black,m_s_004.jpg,NA,NA,pleasant,unpleasant,NA,NA,NA,NA,NA,left,2314.5,true,NA,NA,NA,NA,NA
Q3MEF11I,3uy4pis8ruyxp7v852m6xfad2fzn1g,3z2r0dq0jlr276ylm9o31vm1ihh2ex,Q3MEF11I,2020-0188,2021-10-17,09:01:08,10:32:37,NA,incomplete,false,true,NA,1,15,NA,black,n_l_021.jpg,NA,NA,unpleasant,pleasant,NA,NA,NA,NA,NA,right,1826.20000076294,true,NA,NA,NA,NA,NA
Q3MEF11I,3uy4pis8ruyxp7v852m6xfad2fzn1g,3z2r0dq0jlr276ylm9o31vm1ihh2ex,Q3MEF11I,2020-0188,2021-10-17,09:01:08,10:32:37,NA,incomplete,false,true,NA,1,16,NA,black,m_s_087.jpg,NA,NA,pleasant,unpleasant,NA,NA,NA,NA,NA,left,1911.5,true,NA,NA,NA,NA,NA
Q3MEF11I,3uy4pis8ruyxp7v852m6xfad2fzn1g,3z2r0dq0jlr276ylm9o31vm1ihh2ex,Q3MEF11I,2020-0188,2021-10-17,09:01:08,10:32:37,NA,incomplete,false,true,NA,1,17,NA,black,m_s_089.jpg,NA,NA,pleasant,unpleasant,NA,NA,NA,NA,NA,left,2057.59999847412,true,NA,NA,NA,NA,NA
Q3MEF11I,3uy4pis8ruyxp7v852m6xfad2fzn1g,3z2r0dq0jlr276ylm9o31vm1ihh2ex,Q3MEF11I,2020-0188,2021-10-17,09:01:08,10:32:37,NA,incomplete,false,true,NA,1,18,NA,blue,m_s_015.jpg,NA,NA,pleasant,unpleasant,NA,NA,NA,NA,NA,left,1835.10000038147,true,NA,NA,NA,NA,NA
Q3MEF11I,3uy4pis8ruyxp7v852m6xfad2fzn1g,3z2r0dq0jlr276ylm9o31vm1ihh2ex,Q3MEF11I,2020-0188,2021-10-17,09:01:08,10:32:37,NA,incomplete,false,true,NA,1,19,NA,blue,m_l_013.jpg,NA,NA,unpleasant,pleasant,NA,NA,NA,NA,NA,right,2004.89999961853,true,NA,NA,NA,NA,NA
Q3MEF11I,3uy4pis8ruyxp7v852m6xfad2fzn1g,3z2r0dq0jlr276ylm9o31vm1ihh2ex,Q3MEF11I,2020-0188,2021-10-17,09:01:08,10:32:37,NA,incomplete,false,true,NA,1,20,NA,blue,m_s_052.jpg,NA,NA,pleasant,unpleasant,NA,NA,NA,NA,NA,left,1794.5,true,NA,NA,NA,NA,NA
Q3MEF11I,3uy4pis8ruyxp7v852m6xfad2fzn1g,3z2r0dq0jlr276ylm9o31vm1ihh2ex,Q3MEF11I,2020-0188,2021-10-17,09:01:08,10:32:37,NA,incomplete,false,true,NA,1,21,NA,blue,m_s_054.jpg,NA,NA,pleasant,unpleasant,NA,NA,NA,NA,NA,right,2565,true,NA,NA,NA,NA,NA
Q3MEF11I,3uy4pis8ruyxp7v852m6xfad2fzn1g,3z2r0dq0jlr276ylm9o31vm1ihh2ex,Q3MEF11I,2020-0188,2021-10-17,09:01:08,10:32:37,NA,incomplete,false,true,NA,1,22,NA,blue,n_l_025.jpg,NA,NA,unpleasant,pleasant,NA,NA,NA,NA,NA,left,2196.20000076294,true,NA,NA,NA,NA,NA
Q3MEF11I,3uy4pis8ruyxp7v852m6xfad2fzn1g,3z2r0dq0jlr276ylm9o31vm1ihh2ex,Q3MEF11I,2020-0188,2021-10-17,09:01:08,10:32:37,NA,incomplete,false,true,NA,1,23,NA,blue,m_s_103.jpg,NA,NA,pleasant,unpleasant,NA,NA,NA,NA,NA,left,2186.60000038147,true,NA,NA,NA,NA,NA
Q3MEF11I,3uy4pis8ruyxp7v852m6xfad2fzn1g,3z2r0dq0jlr276ylm9o31vm1ihh2ex,Q3MEF11I,2020-0188,2021-10-17,09:01:08,10:32:37,NA,incomplete,false,true,NA,1,24,NA,brown,n_l_102.jpg,NA,NA,pleasant,unpleasant,NA,NA,NA,NA,NA,left,1975,true,NA,NA,NA,NA,NA
Q3MEF11I,3uy4pis8ruyxp7v852m6xfad2fzn1g,3z2r0dq0jlr276ylm9o31vm1ihh2ex,Q3MEF11I,2020-0188,2021-10-17,09:01:08,10:32:37,NA,incomplete,false,true,NA,1,25,NA,brown,n_s_012.jpg,NA,NA,pleasant,unpleasant,NA,NA,NA,NA,NA,left,1951.69999885559,true,NA,NA,NA,NA,NA
Q3MEF11I,3uy4pis8ruyxp7v852m6xfad2fzn1g,3z2r0dq0jlr276ylm9o31vm1ihh2ex,Q3MEF11I,2020-0188,2021-10-17,09:01:08,10:32:37,NA,incomplete,false,true,NA,1,26,NA,brown,m_l_071.jpg,NA,NA,unpleasant,pleasant,NA,NA,NA,NA,NA,right,1892,true,NA,NA,NA,NA,NA
Q3MEF11I,3uy4pis8ruyxp7v852m6xfad2fzn1g,3z2r0dq0jlr276ylm9o31vm1ihh2ex,Q3MEF11I,2020-0188,2021-10-17,09:01:08,10:32:37,NA,incomplete,false,true,NA,1,27,NA,brown,n_s_034.jpg,NA,NA,unpleasant,pleasant,NA,NA,NA,NA,NA,right,2100.70000076294,true,NA,NA,NA,NA,NA
Q3MEF11I,3uy4pis8ruyxp7v852m6xfad2fzn1g,3z2r0dq0jlr276ylm9o31vm1ihh2ex,Q3MEF11I,2020-0188,2021-10-17,09:01:08,10:32:37,NA,incomplete,false,true,NA,1,28,NA,brown,m_l_043.jpg,NA,NA,pleasant,unpleasant,NA,NA,NA,NA,NA,left,1520.79999923706,true,NA,NA,NA,NA,NA
Q3MEF11I,3uy4pis8ruyxp7v852m6xfad2fzn1g,3z2r0dq0jlr276ylm9o31vm1ihh2ex,Q3MEF11I,2020-0188,2021-10-17,09:01:08,10:32:37,NA,incomplete,false,true,NA,1,29,NA,brown,m_l_020.jpg,NA,NA,pleasant,unpleasant,NA,NA,NA,NA,NA,left,1789.20000076294,true,NA,NA,NA,NA,NA
Q3MEF11I,3uy4pis8ruyxp7v852m6xfad2fzn1g,3z2r0dq0jlr276ylm9o31vm1ihh2ex,Q3MEF11I,2020-0188,2021-10-17,09:01:08,10:32:37,NA,incomplete,false,true,NA,1,30,NA,gray,n_s_048.jpg,NA,NA,pleasant,unpleasant,NA,NA,NA,NA,NA,right,1828.20000076294,true,NA,NA,NA,NA,NA
Q3MEF11I,3uy4pis8ruyxp7v852m6xfad2fzn1g,3z2r0dq0jlr276ylm9o31vm1ihh2ex,Q3MEF11I,2020-0188,2021-10-17,09:01:08,10:32:37,NA,incomplete,false,true,NA,1,31,NA,gray,m_s_030.jpg,NA,NA,unpleasant,pleasant,NA,NA,NA,NA,NA,right,1979.89999961853,true,NA,NA,NA,NA,NA
Q3MEF11I,3uy4pis8ruyxp7v852m6xfad2fzn1g,3z2r0dq0jlr276ylm9o31vm1ihh2ex,Q3MEF11I,2020-0188,2021-10-17,09:01:08,10:32:37,NA,incomplete,false,true,NA,1,32,NA,gray,n_s_072.jpg,NA,NA,unpleasant,pleasant,NA,NA,NA,NA,NA,right,1793.70000076294,true,NA,NA,NA,NA,NA
Q3MEF11I,3uy4pis8ruyxp7v852m6xfad2fzn1g,3z2r0dq0jlr276ylm9o31vm1ihh2ex,Q3MEF11I,2020-0188,2021-10-17,09:01:08,10:32:37,NA,incomplete,false,true,NA,1,33,NA,gray,n_l_016.jpg,NA,NA,unpleasant,pleasant,NA,NA,NA,NA,NA,left,2962.20000076294,true,NA,NA,NA,NA,NA
Q3MEF11I,3uy4pis8ruyxp7v852m6xfad2fzn1g,3z2r0dq0jlr276ylm9o31vm1ihh2ex,Q3MEF11I,2020-0188,2021-10-17,09:01:08,10:32:37,NA,incomplete,false,true,NA,1,34,NA,gray,n_s_024.jpg,NA,NA,unpleasant,pleasant,NA,NA,NA,NA,NA,right,2064.70000076294,true,NA,NA,NA,NA,NA
Q3MEF11I,3uy4pis8ruyxp7v852m6xfad2fzn1g,3z2r0dq0jlr276ylm9o31vm1ihh2ex,Q3MEF11I,2020-0188,2021-10-17,09:01:08,10:32:37,NA,incomplete,false,true,NA,1,35,NA,gray,n_s_102.jpg,NA,NA,unpleasant,pleasant,NA,NA,NA,NA,NA,right,2273.80000114441,true,NA,NA,NA,NA,NA
Q3MEF11I,3uy4pis8ruyxp7v852m6xfad2fzn1g,3z2r0dq0jlr276ylm9o31vm1ihh2ex,Q3MEF11I,2020-0188,2021-10-17,09:01:08,10:32:37,NA,incomplete,false,NA,true,1,0,NA,NA,NA,right,present,NA,NA,n_s_102.jpg,gray,m_s_030.jpg,gray,within,NA,NaN,NA,right,3674.5,1,0,3432
Q3MEF11I,3uy4pis8ruyxp7v852m6xfad2fzn1g,3z2r0dq0jlr276ylm9o31vm1ihh2ex,Q3MEF11I,2020-0188,2021-10-17,09:01:08,10:32:37,NA,incomplete,false,NA,true,1,1,NA,NA,NA,left,present,NA,NA,m_s_051.jpg,white,m_s_004.jpg,black,between,NA,NaN,NA,left,4876,1,1,2022
Q3MEF11I,3uy4pis8ruyxp7v852m6xfad2fzn1g,3z2r0dq0jlr276ylm9o31vm1ihh2ex,Q3MEF11I,2020-0188,2021-10-17,09:01:08,10:32:37,NA,incomplete,false,NA,true,1,2,NA,NA,NA,right,present,NA,NA,m_l_020.jpg,brown,n_s_012.jpg,brown,within,NA,NaN,NA,right,3357.699998855591,1,0,2569.800001144409
Q3MEF11I,3uy4pis8ruyxp7v852m6xfad2fzn1g,3z2r0dq0jlr276ylm9o31vm1ihh2ex,Q3MEF11I,2020-0188,2021-10-17,09:01:08,10:32:37,NA,incomplete,false,NA,true,1,3,NA,NA,NA,right,present,NA,NA,m_s_089.jpg,black,n_l_024.jpg,black,within,NA,NaN,NA,right,5278.200000762939,1,1,2685.400001525879
Q3MEF11I,3uy4pis8ruyxp7v852m6xfad2fzn1g,3z2r0dq0jlr276ylm9o31vm1ihh2ex,Q3MEF11I,2020-0188,2021-10-17,09:01:08,10:32:37,NA,incomplete,false,NA,true,1,4,NA,NA,NA,left,present,NA,NA,n_l_025.jpg,blue,m_l_071.jpg,brown,between,NA,NaN,NA,right,5719.300001144409,0,0,1966.3999996185303
Q3MEF11I,3uy4pis8ruyxp7v852m6xfad2fzn1g,3z2r0dq0jlr276ylm9o31vm1ihh2ex,Q3MEF11I,2020-0188,2021-10-17,09:01:08,10:32:37,NA,incomplete,false,NA,true,1,5,NA,NA,NA,right,present,NA,NA,m_l_018.jpg,white,m_s_034.jpg,white,within,NA,NaN,NA,left,4025,0,1,2922.5
Q3MEF11I,3uy4pis8ruyxp7v852m6xfad2fzn1g,3z2r0dq0jlr276ylm9o31vm1ihh2ex,Q3MEF11I,2020-0188,2021-10-17,09:01:08,10:32:37,NA,incomplete,false,NA,true,1,6,NA,NA,NA,left,present,NA,NA,m_s_087.jpg,black,m_s_052.jpg,blue,between,NA,NaN,NA,left,4860.10000038147,1,0,3350.5
Q3MEF11I,3uy4pis8ruyxp7v852m6xfad2fzn1g,3z2r0dq0jlr276ylm9o31vm1ihh2ex,Q3MEF11I,2020-0188,2021-10-17,09:01:08,10:32:37,NA,incomplete,false,NA,true,1,7,NA,NA,NA,left,present,NA,NA,n_s_041.jpg,red,n_s_104.jpg,white,between,NA,NaN,NA,right,14300.10000038147,0,1,2026
Q3MEF11I,3uy4pis8ruyxp7v852m6xfad2fzn1g,3z2r0dq0jlr276ylm9o31vm1ihh2ex,Q3MEF11I,2020-0188,2021-10-17,09:01:08,10:32:37,NA,incomplete,false,NA,true,1,8,NA,NA,NA,right,present,NA,NA,m_s_103.jpg,blue,m_l_013.jpg,blue,within,NA,NaN,NA,left,3540.3999996185303,0,0,1325
Q3MEF11I,3uy4pis8ruyxp7v852m6xfad2fzn1g,3z2r0dq0jlr276ylm9o31vm1ihh2ex,Q3MEF11I,2020-0188,2021-10-17,09:01:08,10:32:37,NA,incomplete,false,NA,true,1,9,NA,NA,NA,right,present,NA,NA,n_s_072.jpg,gray,m_l_043.jpg,brown,between,NA,NaN,NA,left,3945.5,0,0,5508.299999237061
Q3MEF11I,3uy4pis8ruyxp7v852m6xfad2fzn1g,3z2r0dq0jlr276ylm9o31vm1ihh2ex,Q3MEF11I,2020-0188,2021-10-17,09:01:08,10:32:37,NA,incomplete,false,NA,true,1,10,NA,NA,NA,right,present,NA,NA,m_s_009.jpg,red,n_s_059.jpg,red,within,NA,NaN,NA,right,4285.60000038147,1,0,4466.199998855591
Q3MEF11I,3uy4pis8ruyxp7v852m6xfad2fzn1g,3z2r0dq0jlr276ylm9o31vm1ihh2ex,Q3MEF11I,2020-0188,2021-10-17,09:01:08,10:32:37,NA,incomplete,false,true,NA,2,0,NA,orange,m_s_056.jpg,NA,NA,pleasant,unpleasant,NA,NA,NA,NA,NA,left,1875.89999961853,true,NA,NA,NA,NA,NA
Q3MEF11I,3uy4pis8ruyxp7v852m6xfad2fzn1g,3z2r0dq0jlr276ylm9o31vm1ihh2ex,Q3MEF11I,2020-0188,2021-10-17,09:01:08,10:32:37,NA,incomplete,false,true,NA,2,1,NA,orange,m_s_021.jpg,NA,NA,unpleasant,pleasant,NA,NA,NA,NA,NA,right,1961.79999923706,true,NA,NA,NA,NA,NA
Q3MEF11I,3uy4pis8ruyxp7v852m6xfad2fzn1g,3z2r0dq0jlr276ylm9o31vm1ihh2ex,Q3MEF11I,2020-0188,2021-10-17,09:01:08,10:32:37,NA,incomplete,false,true,NA,2,2,NA,orange,n_l_012.jpg,NA,NA,unpleasant,pleasant,NA,NA,NA,NA,NA,right,1751.10000038147,true,NA,NA,NA,NA,NA
Q3MEF11I,3uy4pis8ruyxp7v852m6xfad2fzn1g,3z2r0dq0jlr276ylm9o31vm1ihh2ex,Q3MEF11I,2020-0188,2021-10-17,09:01:08,10:32:37,NA,incomplete,false,true,NA,2,3,NA,orange,m_l_007.jpg,NA,NA,unpleasant,pleasant,NA,NA,NA,NA,NA,right,2370.30000114441,true,NA,NA,NA,NA,NA
Q3MEF11I,3uy4pis8ruyxp7v852m6xfad2fzn1g,3z2r0dq0jlr276ylm9o31vm1ihh2ex,Q3MEF11I,2020-0188,2021-10-17,09:01:08,10:32:37,NA,incomplete,false,true,NA,2,4,NA,orange,n_s_116.jpg,NA,NA,pleasant,unpleasant,NA,NA,NA,NA,NA,left,2900.19999885559,true,NA,NA,NA,NA,NA
Q3MEF11I,3uy4pis8ruyxp7v852m6xfad2fzn1g,3z2r0dq0jlr276ylm9o31vm1ihh2ex,Q3MEF11I,2020-0188,2021-10-17,09:01:08,10:32:37,NA,incomplete,false,true,NA,2,5,NA,orange,n_l_037.jpg,NA,NA,unpleasant,pleasant,NA,NA,NA,NA,NA,left,1861,true,NA,NA,NA,NA,NA
Q3MEF11I,3uy4pis8ruyxp7v852m6xfad2fzn1g,3z2r0dq0jlr276ylm9o31vm1ihh2ex,Q3MEF11I,2020-0188,2021-10-17,09:01:08,10:32:37,NA,incomplete,false,true,NA,2,6,NA,yellow,n_s_014.jpg,NA,NA,unpleasant,pleasant,NA,NA,NA,NA,NA,right,1912.10000038147,true,NA,NA,NA,NA,NA
Q3MEF11I,3uy4pis8ruyxp7v852m6xfad2fzn1g,3z2r0dq0jlr276ylm9o31vm1ihh2ex,Q3MEF11I,2020-0188,2021-10-17,09:01:08,10:32:37,NA,incomplete,false,true,NA,2,7,NA,yellow,m_l_058.jpg,NA,NA,unpleasant,pleasant,NA,NA,NA,NA,NA,right,2047.90000152588,true,NA,NA,NA,NA,NA
Q3MEF11I,3uy4pis8ruyxp7v852m6xfad2fzn1g,3z2r0dq0jlr276ylm9o31vm1ihh2ex,Q3MEF11I,2020-0188,2021-10-17,09:01:08,10:32:37,NA,incomplete,false,true,NA,2,8,NA,yellow,m_l_055.jpg,NA,NA,pleasant,unpleasant,NA,NA,NA,NA,NA,left,2373.39999961853,true,NA,NA,NA,NA,NA
Q3MEF11I,3uy4pis8ruyxp7v852m6xfad2fzn1g,3z2r0dq0jlr276ylm9o31vm1ihh2ex,Q3MEF11I,2020-0188,2021-10-17,09:01:08,10:32:37,NA,incomplete,false,true,NA,2,9,NA,yellow,m_l_017.jpg,NA,NA,unpleasant,pleasant,NA,NA,NA,NA,NA,right,1460.60000038147,true,NA,NA,NA,NA,NA
Q3MEF11I,3uy4pis8ruyxp7v852m6xfad2fzn1g,3z2r0dq0jlr276ylm9o31vm1ihh2ex,Q3MEF11I,2020-0188,2021-10-17,09:01:08,10:32:37,NA,incomplete,false,true,NA,2,10,NA,yellow,m_s_017.jpg,NA,NA,unpleasant,pleasant,NA,NA,NA,NA,NA,right,1674.19999885559,true,NA,NA,NA,NA,NA
Q3MEF11I,3uy4pis8ruyxp7v852m6xfad2fzn1g,3z2r0dq0jlr276ylm9o31vm1ihh2ex,Q3MEF11I,2020-0188,2021-10-17,09:01:08,10:32:37,NA,incomplete,false,true,NA,2,11,NA,yellow,m_l_080.jpg,NA,NA,unpleasant,pleasant,NA,NA,NA,NA,NA,right,1666.70000076294,true,NA,NA,NA,NA,NA
Q3MEF11I,3uy4pis8ruyxp7v852m6xfad2fzn1g,3z2r0dq0jlr276ylm9o31vm1ihh2ex,Q3MEF11I,2020-0188,2021-10-17,09:01:08,10:32:37,NA,incomplete,false,true,NA,2,12,NA,brown,n_s_043.jpg,NA,NA,pleasant,unpleasant,NA,NA,NA,NA,NA,left,2129,true,NA,NA,NA,NA,NA
Q3MEF11I,3uy4pis8ruyxp7v852m6xfad2fzn1g,3z2r0dq0jlr276ylm9o31vm1ihh2ex,Q3MEF11I,2020-0188,2021-10-17,09:01:08,10:32:37,NA,incomplete,false,true,NA,2,13,NA,brown,n_l_038.jpg,NA,NA,pleasant,unpleasant,NA,NA,NA,NA,NA,left,1772.20000076294,true,NA,NA,NA,NA,NA
Q3MEF11I,3uy4pis8ruyxp7v852m6xfad2fzn1g,3z2r0dq0jlr276ylm9o31vm1ihh2ex,Q3MEF11I,2020-0188,2021-10-17,09:01:08,10:32:37,NA,incomplete,false,true,NA,2,14,NA,brown,n_s_035.jpg,NA,NA,pleasant,unpleasant,NA,NA,NA,NA,NA,left,2482.30000114441,true,NA,NA,NA,NA,NA
Q3MEF11I,3uy4pis8ruyxp7v852m6xfad2fzn1g,3z2r0dq0jlr276ylm9o31vm1ihh2ex,Q3MEF11I,2020-0188,2021-10-17,09:01:08,10:32:37,NA,incomplete,false,true,NA,2,15,NA,brown,m_s_047.jpg,NA,NA,pleasant,unpleasant,NA,NA,NA,NA,NA,left,2030.80000114441,true,NA,NA,NA,NA,NA
Q3MEF11I,3uy4pis8ruyxp7v852m6xfad2fzn1g,3z2r0dq0jlr276ylm9o31vm1ihh2ex,Q3MEF11I,2020-0188,2021-10-17,09:01:08,10:32:37,NA,incomplete,false,true,NA,2,16,NA,brown,n_s_018.jpg,NA,NA,pleasant,unpleasant,NA,NA,NA,NA,NA,right,1981.80000114441,true,NA,NA,NA,NA,NA
Q3MEF11I,3uy4pis8ruyxp7v852m6xfad2fzn1g,3z2r0dq0jlr276ylm9o31vm1ihh2ex,Q3MEF11I,2020-0188,2021-10-17,09:01:08,10:32:37,NA,incomplete,false,true,NA,2,17,NA,brown,n_l_015.jpg,NA,NA,pleasant,unpleasant,NA,NA,NA,NA,NA,right,2095,true,NA,NA,NA,NA,NA
Q3MEF11I,3uy4pis8ruyxp7v852m6xfad2fzn1g,3z2r0dq0jlr276ylm9o31vm1ihh2ex,Q3MEF11I,2020-0188,2021-10-17,09:01:08,10:32:37,NA,incomplete,false,true,NA,2,18,NA,green,m_s_046.jpg,NA,NA,unpleasant,pleasant,NA,NA,NA,NA,NA,right,1978.70000076294,true,NA,NA,NA,NA,NA
Q3MEF11I,3uy4pis8ruyxp7v852m6xfad2fzn1g,3z2r0dq0jlr276ylm9o31vm1ihh2ex,Q3MEF11I,2020-0188,2021-10-17,09:01:08,10:32:37,NA,incomplete,false,true,NA,2,19,NA,green,m_l_023.jpg,NA,NA,pleasant,unpleasant,NA,NA,NA,NA,NA,left,1544.10000038147,true,NA,NA,NA,NA,NA
Q3MEF11I,3uy4pis8ruyxp7v852m6xfad2fzn1g,3z2r0dq0jlr276ylm9o31vm1ihh2ex,Q3MEF11I,2020-0188,2021-10-17,09:01:08,10:32:37,NA,incomplete,false,true,NA,2,20,NA,green,n_s_093.jpg,NA,NA,unpleasant,pleasant,NA,NA,NA,NA,NA,left,2083.79999923706,true,NA,NA,NA,NA,NA
Q3MEF11I,3uy4pis8ruyxp7v852m6xfad2fzn1g,3z2r0dq0jlr276ylm9o31vm1ihh2ex,Q3MEF11I,2020-0188,2021-10-17,09:01:08,10:32:37,NA,incomplete,false,true,NA,2,21,NA,green,n_s_083.jpg,NA,NA,unpleasant,pleasant,NA,NA,NA,NA,NA,right,1649.10000038147,true,NA,NA,NA,NA,NA
Q3MEF11I,3uy4pis8ruyxp7v852m6xfad2fzn1g,3z2r0dq0jlr276ylm9o31vm1ihh2ex,Q3MEF11I,2020-0188,2021-10-17,09:01:08,10:32:37,NA,incomplete,false,true,NA,2,22,NA,green,m_s_068.jpg,NA,NA,pleasant,unpleasant,NA,NA,NA,NA,NA,left,1802.10000038147,true,NA,NA,NA,NA,NA
Q3MEF11I,3uy4pis8ruyxp7v852m6xfad2fzn1g,3z2r0dq0jlr276ylm9o31vm1ihh2ex,Q3MEF11I,2020-0188,2021-10-17,09:01:08,10:32:37,NA,incomplete,false,true,NA,2,23,NA,green,n_s_050.jpg,NA,NA,pleasant,unpleasant,NA,NA,NA,NA,NA,right,1549.80000114441,true,NA,NA,NA,NA,NA
Q3MEF11I,3uy4pis8ruyxp7v852m6xfad2fzn1g,3z2r0dq0jlr276ylm9o31vm1ihh2ex,Q3MEF11I,2020-0188,2021-10-17,09:01:08,10:32:37,NA,incomplete,false,true,NA,2,24,NA,gray,n_l_055.jpg,NA,NA,pleasant,unpleasant,NA,NA,NA,NA,NA,right,2345.69999885559,true,NA,NA,NA,NA,NA
Q3MEF11I,3uy4pis8ruyxp7v852m6xfad2fzn1g,3z2r0dq0jlr276ylm9o31vm1ihh2ex,Q3MEF11I,2020-0188,2021-10-17,09:01:08,10:32:37,NA,incomplete,false,true,NA,2,25,NA,gray,n_s_036.jpg,NA,NA,unpleasant,pleasant,NA,NA,NA,NA,NA,right,2548,true,NA,NA,NA,NA,NA
Q3MEF11I,3uy4pis8ruyxp7v852m6xfad2fzn1g,3z2r0dq0jlr276ylm9o31vm1ihh2ex,Q3MEF11I,2020-0188,2021-10-17,09:01:08,10:32:37,NA,incomplete,false,true,NA,2,26,NA,gray,m_l_005.jpg,NA,NA,unpleasant,pleasant,NA,NA,NA,NA,NA,right,1961.5,true,NA,NA,NA,NA,NA
Q3MEF11I,3uy4pis8ruyxp7v852m6xfad2fzn1g,3z2r0dq0jlr276ylm9o31vm1ihh2ex,Q3MEF11I,2020-0188,2021-10-17,09:01:08,10:32:37,NA,incomplete,false,true,NA,2,27,NA,gray,n_s_111.jpg,NA,NA,unpleasant,pleasant,NA,NA,NA,NA,NA,right,1618.29999923706,true,NA,NA,NA,NA,NA
Q3MEF11I,3uy4pis8ruyxp7v852m6xfad2fzn1g,3z2r0dq0jlr276ylm9o31vm1ihh2ex,Q3MEF11I,2020-0188,2021-10-17,09:01:08,10:32:37,NA,incomplete,false,true,NA,2,28,NA,gray,m_s_115.jpg,NA,NA,pleasant,unpleasant,NA,NA,NA,NA,NA,left,1692.89999961853,true,NA,NA,NA,NA,NA
Q3MEF11I,3uy4pis8ruyxp7v852m6xfad2fzn1g,3z2r0dq0jlr276ylm9o31vm1ihh2ex,Q3MEF11I,2020-0188,2021-10-17,09:01:08,10:32:37,NA,incomplete,false,true,NA,2,29,NA,gray,m_s_008.jpg,NA,NA,unpleasant,pleasant,NA,NA,NA,NA,NA,right,1882.80000114441,true,NA,NA,NA,NA,NA
Q3MEF11I,3uy4pis8ruyxp7v852m6xfad2fzn1g,3z2r0dq0jlr276ylm9o31vm1ihh2ex,Q3MEF11I,2020-0188,2021-10-17,09:01:08,10:32:37,NA,incomplete,false,true,NA,2,30,NA,red,n_s_030.jpg,NA,NA,unpleasant,pleasant,NA,NA,NA,NA,NA,right,1408.5,true,NA,NA,NA,NA,NA
Q3MEF11I,3uy4pis8ruyxp7v852m6xfad2fzn1g,3z2r0dq0jlr276ylm9o31vm1ihh2ex,Q3MEF11I,2020-0188,2021-10-17,09:01:08,10:32:37,NA,incomplete,false,true,NA,2,31,NA,red,n_s_037.jpg,NA,NA,unpleasant,pleasant,NA,NA,NA,NA,NA,right,1498.80000114441,true,NA,NA,NA,NA,NA
Q3MEF11I,3uy4pis8ruyxp7v852m6xfad2fzn1g,3z2r0dq0jlr276ylm9o31vm1ihh2ex,Q3MEF11I,2020-0188,2021-10-17,09:01:08,10:32:37,NA,incomplete,false,true,NA,2,32,NA,red,m_s_107.jpg,NA,NA,pleasant,unpleasant,NA,NA,NA,NA,NA,left,2135.69999885559,true,NA,NA,NA,NA,NA
Q3MEF11I,3uy4pis8ruyxp7v852m6xfad2fzn1g,3z2r0dq0jlr276ylm9o31vm1ihh2ex,Q3MEF11I,2020-0188,2021-10-17,09:01:08,10:32:37,NA,incomplete,false,true,NA,2,33,NA,red,m_s_072.jpg,NA,NA,pleasant,unpleasant,NA,NA,NA,NA,NA,left,1733.59999847412,true,NA,NA,NA,NA,NA
Q3MEF11I,3uy4pis8ruyxp7v852m6xfad2fzn1g,3z2r0dq0jlr276ylm9o31vm1ihh2ex,Q3MEF11I,2020-0188,2021-10-17,09:01:08,10:32:37,NA,incomplete,false,true,NA,2,34,NA,red,n_l_002.jpg,NA,NA,unpleasant,pleasant,NA,NA,NA,NA,NA,right,1646,true,NA,NA,NA,NA,NA
Q3MEF11I,3uy4pis8ruyxp7v852m6xfad2fzn1g,3z2r0dq0jlr276ylm9o31vm1ihh2ex,Q3MEF11I,2020-0188,2021-10-17,09:01:08,10:32:37,NA,incomplete,false,true,NA,2,35,NA,red,n_l_082.jpg,NA,NA,unpleasant,pleasant,NA,NA,NA,NA,NA,right,2261.29999923706,true,NA,NA,NA,NA,NA
Q3MEF11I,3uy4pis8ruyxp7v852m6xfad2fzn1g,3z2r0dq0jlr276ylm9o31vm1ihh2ex,Q3MEF11I,2020-0188,2021-10-17,09:01:08,10:32:37,NA,incomplete,false,NA,true,2,0,NA,NA,NA,right,present,NA,NA,n_l_015.jpg,brown,n_l_038.jpg,brown,within,NA,NaN,NA,right,5104,1,0,1816.3999996185303
Q3MEF11I,3uy4pis8ruyxp7v852m6xfad2fzn1g,3z2r0dq0jlr276ylm9o31vm1ihh2ex,Q3MEF11I,2020-0188,2021-10-17,09:01:08,10:32:37,NA,incomplete,false,NA,true,2,1,NA,NA,NA,left,present,NA,NA,n_s_037.jpg,red,n_l_082.jpg,red,within,NA,NaN,NA,right,3476.3999996185303,0,1,2267.5
Q3MEF11I,3uy4pis8ruyxp7v852m6xfad2fzn1g,3z2r0dq0jlr276ylm9o31vm1ihh2ex,Q3MEF11I,2020-0188,2021-10-17,09:01:08,10:32:37,NA,incomplete,false,NA,true,2,2,NA,NA,NA,left,present,NA,NA,n_s_036.jpg,gray,m_s_008.jpg,gray,within,NA,NaN,NA,left,2350.1000003814697,1,1,2029.6000003814697
Q3MEF11I,3uy4pis8ruyxp7v852m6xfad2fzn1g,3z2r0dq0jlr276ylm9o31vm1ihh2ex,Q3MEF11I,2020-0188,2021-10-17,09:01:08,10:32:37,NA,incomplete,false,NA,true,2,3,NA,NA,NA,left,present,NA,NA,m_s_021.jpg,orange,n_l_037.jpg,orange,within,NA,NaN,NA,left,3776.6000003814697,1,1,3588.6000003814697
Q3MEF11I,3uy4pis8ruyxp7v852m6xfad2fzn1g,3z2r0dq0jlr276ylm9o31vm1ihh2ex,Q3MEF11I,2020-0188,2021-10-17,09:01:08,10:32:37,NA,incomplete,false,NA,true,2,4,NA,NA,NA,left,present,NA,NA,n_s_018.jpg,brown,n_s_093.jpg,green,between,NA,NaN,NA,left,3957,1,1,2007.3999996185303
Q3MEF11I,3uy4pis8ruyxp7v852m6xfad2fzn1g,3z2r0dq0jlr276ylm9o31vm1ihh2ex,Q3MEF11I,2020-0188,2021-10-17,09:01:08,10:32:37,NA,incomplete,false,NA,true,2,5,NA,NA,NA,left,present,NA,NA,n_s_116.jpg,orange,m_l_055.jpg,yellow,between,NA,NaN,NA,right,4489.799999237061,0,1,2099.1000003814697
Q3MEF11I,3uy4pis8ruyxp7v852m6xfad2fzn1g,3z2r0dq0jlr276ylm9o31vm1ihh2ex,Q3MEF11I,2020-0188,2021-10-17,09:01:08,10:32:37,NA,incomplete,false,NA,true,2,6,NA,NA,NA,left,present,NA,NA,m_l_058.jpg,yellow,m_l_080.jpg,yellow,within,NA,NaN,NA,left,4906,1,0,2741.5
Q3MEF11I,3uy4pis8ruyxp7v852m6xfad2fzn1g,3z2r0dq0jlr276ylm9o31vm1ihh2ex,Q3MEF11I,2020-0188,2021-10-17,09:01:08,10:32:37,NA,incomplete,false,NA,true,2,7,NA,NA,NA,right,present,NA,NA,n_s_050.jpg,green,m_l_023.jpg,green,within,NA,NaN,NA,right,3535.5,1,0,2164
Q3MEF11I,3uy4pis8ruyxp7v852m6xfad2fzn1g,3z2r0dq0jlr276ylm9o31vm1ihh2ex,Q3MEF11I,2020-0188,2021-10-17,09:01:08,10:32:37,NA,incomplete,false,NA,true,2,8,NA,NA,NA,left,present,NA,NA,m_s_068.jpg,green,m_l_005.jpg,gray,between,NA,NaN,NA,right,3477.5,0,1,1591.7000007629395
Q3MEF11I,3uy4pis8ruyxp7v852m6xfad2fzn1g,3z2r0dq0jlr276ylm9o31vm1ihh2ex,Q3MEF11I,2020-0188,2021-10-17,09:01:08,10:32:37,NA,incomplete,false,NA,true,2,9,NA,NA,NA,left,present,NA,NA,m_s_115.jpg,gray,m_s_107.jpg,red,between,NA,NaN,NA,left,4031.599998474121,1,1,2031.5
Q3MEF11I,3uy4pis8ruyxp7v852m6xfad2fzn1g,3z2r0dq0jlr276ylm9o31vm1ihh2ex,Q3MEF11I,2020-0188,2021-10-17,09:01:08,10:32:37,NA,incomplete,false,NA,true,2,10,NA,NA,NA,left,present,NA,NA,m_s_017.jpg,yellow,n_s_035.jpg,brown,between,NA,NaN,NA,left,5782.10000038147,1,0,1801.7000007629395
Q3MEF11I,3uy4pis8ruyxp7v852m6xfad2fzn1g,3z2r0dq0jlr276ylm9o31vm1ihh2ex,Q3MEF11I,2020-0188,2021-10-17,09:01:08,10:32:37,NA,incomplete,false,true,NA,3,0,NA,brown,n_s_040.jpg,NA,NA,unpleasant,pleasant,NA,NA,NA,NA,NA,left,2561.5,true,NA,NA,NA,NA,NA
Q3MEF11I,3uy4pis8ruyxp7v852m6xfad2fzn1g,3z2r0dq0jlr276ylm9o31vm1ihh2ex,Q3MEF11I,2020-0188,2021-10-17,09:01:08,10:32:37,NA,incomplete,false,true,NA,3,1,NA,brown,m_l_102.jpg,NA,NA,pleasant,unpleasant,NA,NA,NA,NA,NA,left,1843.5,true,NA,NA,NA,NA,NA
Q3MEF11I,3uy4pis8ruyxp7v852m6xfad2fzn1g,3z2r0dq0jlr276ylm9o31vm1ihh2ex,Q3MEF11I,2020-0188,2021-10-17,09:01:08,10:32:37,NA,incomplete,false,true,NA,3,2,NA,brown,n_l_096.jpg,NA,NA,pleasant,unpleasant,NA,NA,NA,NA,NA,left,1711.5,true,NA,NA,NA,NA,NA
Q3MEF11I,3uy4pis8ruyxp7v852m6xfad2fzn1g,3z2r0dq0jlr276ylm9o31vm1ihh2ex,Q3MEF11I,2020-0188,2021-10-17,09:01:08,10:32:37,NA,incomplete,false,true,NA,3,3,NA,brown,n_l_081.jpg,NA,NA,pleasant,unpleasant,NA,NA,NA,NA,NA,left,2091,true,NA,NA,NA,NA,NA
Q3MEF11I,3uy4pis8ruyxp7v852m6xfad2fzn1g,3z2r0dq0jlr276ylm9o31vm1ihh2ex,Q3MEF11I,2020-0188,2021-10-17,09:01:08,10:32:37,NA,incomplete,false,true,NA,3,4,NA,brown,n_l_053.jpg,NA,NA,unpleasant,pleasant,NA,NA,NA,NA,NA,left,2626.80000114441,true,NA,NA,NA,NA,NA
Q3MEF11I,3uy4pis8ruyxp7v852m6xfad2fzn1g,3z2r0dq0jlr276ylm9o31vm1ihh2ex,Q3MEF11I,2020-0188,2021-10-17,09:01:08,10:32:37,NA,incomplete,false,true,NA,3,5,NA,brown,n_s_046.jpg,NA,NA,pleasant,unpleasant,NA,NA,NA,NA,NA,right,2047.79999923706,true,NA,NA,NA,NA,NA
Q3MEF11I,3uy4pis8ruyxp7v852m6xfad2fzn1g,3z2r0dq0jlr276ylm9o31vm1ihh2ex,Q3MEF11I,2020-0188,2021-10-17,09:01:08,10:32:37,NA,incomplete,false,true,NA,3,6,NA,white,n_l_008.jpg,NA,NA,unpleasant,pleasant,NA,NA,NA,NA,NA,left,555.5,true,NA,NA,NA,NA,NA
Q3MEF11I,3uy4pis8ruyxp7v852m6xfad2fzn1g,3z2r0dq0jlr276ylm9o31vm1ihh2ex,Q3MEF11I,2020-0188,2021-10-17,09:01:08,10:32:37,NA,incomplete,false,true,NA,3,7,NA,white,m_s_110.jpg,NA,NA,unpleasant,pleasant,NA,NA,NA,NA,NA,right,1759.20000076294,true,NA,NA,NA,NA,NA
Q3MEF11I,3uy4pis8ruyxp7v852m6xfad2fzn1g,3z2r0dq0jlr276ylm9o31vm1ihh2ex,Q3MEF11I,2020-0188,2021-10-17,09:01:08,10:32:37,NA,incomplete,false,true,NA,3,8,NA,white,m_l_049.jpg,NA,NA,unpleasant,pleasant,NA,NA,NA,NA,NA,right,2687.69999885559,true,NA,NA,NA,NA,NA
Q3MEF11I,3uy4pis8ruyxp7v852m6xfad2fzn1g,3z2r0dq0jlr276ylm9o31vm1ihh2ex,Q3MEF11I,2020-0188,2021-10-17,09:01:08,10:32:37,NA,incomplete,false,true,NA,3,9,NA,white,n_s_003.jpg,NA,NA,unpleasant,pleasant,NA,NA,NA,NA,NA,left,2233.20000076294,true,NA,NA,NA,NA,NA
Q3MEF11I,3uy4pis8ruyxp7v852m6xfad2fzn1g,3z2r0dq0jlr276ylm9o31vm1ihh2ex,Q3MEF11I,2020-0188,2021-10-17,09:01:08,10:32:37,NA,incomplete,false,true,NA,3,10,NA,white,n_s_022.jpg,NA,NA,unpleasant,pleasant,NA,NA,NA,NA,NA,left,1714.60000038147,true,NA,NA,NA,NA,NA
Q3MEF11I,3uy4pis8ruyxp7v852m6xfad2fzn1g,3z2r0dq0jlr276ylm9o31vm1ihh2ex,Q3MEF11I,2020-0188,2021-10-17,09:01:08,10:32:37,NA,incomplete,false,true,NA,3,11,NA,white,m_s_074.jpg,NA,NA,pleasant,unpleasant,NA,NA,NA,NA,NA,left,1913.80000114441,true,NA,NA,NA,NA,NA
Q3MEF11I,3uy4pis8ruyxp7v852m6xfad2fzn1g,3z2r0dq0jlr276ylm9o31vm1ihh2ex,Q3MEF11I,2020-0188,2021-10-17,09:01:08,10:32:37,NA,incomplete,false,true,NA,3,12,NA,blue,m_l_009.jpg,NA,NA,unpleasant,pleasant,NA,NA,NA,NA,NA,right,1668.20000076294,true,NA,NA,NA,NA,NA
Q3MEF11I,3uy4pis8ruyxp7v852m6xfad2fzn1g,3z2r0dq0jlr276ylm9o31vm1ihh2ex,Q3MEF11I,2020-0188,2021-10-17,09:01:08,10:32:37,NA,incomplete,false,true,NA,3,13,NA,blue,m_s_006.jpg,NA,NA,unpleasant,pleasant,NA,NA,NA,NA,NA,right,1591.80000114441,true,NA,NA,NA,NA,NA
Q3MEF11I,3uy4pis8ruyxp7v852m6xfad2fzn1g,3z2r0dq0jlr276ylm9o31vm1ihh2ex,Q3MEF11I,2020-0188,2021-10-17,09:01:08,10:32:37,NA,incomplete,false,true,NA,3,14,NA,blue,n_s_008.jpg,NA,NA,pleasant,unpleasant,NA,NA,NA,NA,NA,right,2547.70000076294,true,NA,NA,NA,NA,NA
Q3MEF11I,3uy4pis8ruyxp7v852m6xfad2fzn1g,3z2r0dq0jlr276ylm9o31vm1ihh2ex,Q3MEF11I,2020-0188,2021-10-17,09:01:08,10:32:37,NA,incomplete,false,true,NA,3,15,NA,blue,m_l_065.jpg,NA,NA,unpleasant,pleasant,NA,NA,NA,NA,NA,right,2360.39999961853,true,NA,NA,NA,NA,NA
Q3MEF11I,3uy4pis8ruyxp7v852m6xfad2fzn1g,3z2r0dq0jlr276ylm9o31vm1ihh2ex,Q3MEF11I,2020-0188,2021-10-17,09:01:08,10:32:37,NA,incomplete,false,true,NA,3,16,NA,blue,m_s_064.jpg,NA,NA,unpleasant,pleasant,NA,NA,NA,NA,NA,right,2155.10000038147,true,NA,NA,NA,NA,NA
Q3MEF11I,3uy4pis8ruyxp7v852m6xfad2fzn1g,3z2r0dq0jlr276ylm9o31vm1ihh2ex,Q3MEF11I,2020-0188,2021-10-17,09:01:08,10:32:37,NA,incomplete,false,true,NA,3,17,NA,blue,n_s_099.jpg,NA,NA,unpleasant,pleasant,NA,NA,NA,NA,NA,right,1543,true,NA,NA,NA,NA,NA
Q3MEF11I,3uy4pis8ruyxp7v852m6xfad2fzn1g,3z2r0dq0jlr276ylm9o31vm1ihh2ex,Q3MEF11I,2020-0188,2021-10-17,09:01:08,10:32:37,NA,incomplete,false,true,NA,3,18,NA,black,m_s_060.jpg,NA,NA,pleasant,unpleasant,NA,NA,NA,NA,NA,left,1789.69999885559,true,NA,NA,NA,NA,NA
Q3MEF11I,3uy4pis8ruyxp7v852m6xfad2fzn1g,3z2r0dq0jlr276ylm9o31vm1ihh2ex,Q3MEF11I,2020-0188,2021-10-17,09:01:08,10:32:37,NA,incomplete,false,true,NA,3,19,NA,black,m_s_020.jpg,NA,NA,unpleasant,pleasant,NA,NA,NA,NA,NA,right,1687.20000076294,true,NA,NA,NA,NA,NA
Q3MEF11I,3uy4pis8ruyxp7v852m6xfad2fzn1g,3z2r0dq0jlr276ylm9o31vm1ihh2ex,Q3MEF11I,2020-0188,2021-10-17,09:01:08,10:32:37,NA,incomplete,false,true,NA,3,20,NA,black,m_s_027.jpg,NA,NA,unpleasant,pleasant,NA,NA,NA,NA,NA,right,1946.60000038147,true,NA,NA,NA,NA,NA
Q3MEF11I,3uy4pis8ruyxp7v852m6xfad2fzn1g,3z2r0dq0jlr276ylm9o31vm1ihh2ex,Q3MEF11I,2020-0188,2021-10-17,09:01:08,10:32:37,NA,incomplete,false,true,NA,3,21,NA,black,n_l_028.jpg,NA,NA,pleasant,unpleasant,NA,NA,NA,NA,NA,left,1863.59999847412,true,NA,NA,NA,NA,NA
Q3MEF11I,3uy4pis8ruyxp7v852m6xfad2fzn1g,3z2r0dq0jlr276ylm9o31vm1ihh2ex,Q3MEF11I,2020-0188,2021-10-17,09:01:08,10:32:37,NA,incomplete,false,true,NA,3,22,NA,black,n_l_098.jpg,NA,NA,unpleasant,pleasant,NA,NA,NA,NA,NA,right,1737.70000076294,true,NA,NA,NA,NA,NA
Q3MEF11I,3uy4pis8ruyxp7v852m6xfad2fzn1g,3z2r0dq0jlr276ylm9o31vm1ihh2ex,Q3MEF11I,2020-0188,2021-10-17,09:01:08,10:32:37,NA,incomplete,false,true,NA,3,23,NA,black,m_s_075.jpg,NA,NA,pleasant,unpleasant,NA,NA,NA,NA,NA,left,1926.10000038147,true,NA,NA,NA,NA,NA
Q3MEF11I,3uy4pis8ruyxp7v852m6xfad2fzn1g,3z2r0dq0jlr276ylm9o31vm1ihh2ex,Q3MEF11I,2020-0188,2021-10-17,09:01:08,10:32:37,NA,incomplete,false,true,NA,3,24,NA,gray,m_l_022.jpg,NA,NA,pleasant,unpleasant,NA,NA,NA,NA,NA,left,1461.5,true,NA,NA,NA,NA,NA
Q3MEF11I,3uy4pis8ruyxp7v852m6xfad2fzn1g,3z2r0dq0jlr276ylm9o31vm1ihh2ex,Q3MEF11I,2020-0188,2021-10-17,09:01:08,10:32:37,NA,incomplete,false,true,NA,3,25,NA,gray,m_l_064.jpg,NA,NA,pleasant,unpleasant,NA,NA,NA,NA,NA,left,2027.69999885559,true,NA,NA,NA,NA,NA
Q3MEF11I,3uy4pis8ruyxp7v852m6xfad2fzn1g,3z2r0dq0jlr276ylm9o31vm1ihh2ex,Q3MEF11I,2020-0188,2021-10-17,09:01:08,10:32:37,NA,incomplete,false,true,NA,3,26,NA,gray,n_l_063.jpg,NA,NA,pleasant,unpleasant,NA,NA,NA,NA,NA,left,1666.40000152588,true,NA,NA,NA,NA,NA
Q3MEF11I,3uy4pis8ruyxp7v852m6xfad2fzn1g,3z2r0dq0jlr276ylm9o31vm1ihh2ex,Q3MEF11I,2020-0188,2021-10-17,09:01:08,10:32:37,NA,incomplete,false,true,NA,3,27,NA,gray,n_s_007.jpg,NA,NA,unpleasant,pleasant,NA,NA,NA,NA,NA,left,2043.89999961853,true,NA,NA,NA,NA,NA
Q3MEF11I,3uy4pis8ruyxp7v852m6xfad2fzn1g,3z2r0dq0jlr276ylm9o31vm1ihh2ex,Q3MEF11I,2020-0188,2021-10-17,09:01:08,10:32:37,NA,incomplete,false,true,NA,3,28,NA,gray,m_s_086.jpg,NA,NA,pleasant,unpleasant,NA,NA,NA,NA,NA,left,2228.20000076294,true,NA,NA,NA,NA,NA
Q3MEF11I,3uy4pis8ruyxp7v852m6xfad2fzn1g,3z2r0dq0jlr276ylm9o31vm1ihh2ex,Q3MEF11I,2020-0188,2021-10-17,09:01:08,10:32:37,NA,incomplete,false,true,NA,3,29,NA,gray,n_l_039.jpg,NA,NA,unpleasant,pleasant,NA,NA,NA,NA,NA,right,1257.5,true,NA,NA,NA,NA,NA
Q3MEF11I,3uy4pis8ruyxp7v852m6xfad2fzn1g,3z2r0dq0jlr276ylm9o31vm1ihh2ex,Q3MEF11I,2020-0188,2021-10-17,09:01:08,10:32:37,NA,incomplete,false,true,NA,3,30,NA,red,m_s_093.jpg,NA,NA,pleasant,unpleasant,NA,NA,NA,NA,NA,left,2097.10000038147,true,NA,NA,NA,NA,NA
Q3MEF11I,3uy4pis8ruyxp7v852m6xfad2fzn1g,3z2r0dq0jlr276ylm9o31vm1ihh2ex,Q3MEF11I,2020-0188,2021-10-17,09:01:08,10:32:37,NA,incomplete,false,true,NA,3,31,NA,red,m_l_099.jpg,NA,NA,pleasant,unpleasant,NA,NA,NA,NA,NA,left,2241.5,true,NA,NA,NA,NA,NA
Q3MEF11I,3uy4pis8ruyxp7v852m6xfad2fzn1g,3z2r0dq0jlr276ylm9o31vm1ihh2ex,Q3MEF11I,2020-0188,2021-10-17,09:01:08,10:32:37,NA,incomplete,false,true,NA,3,32,NA,red,n_s_060.jpg,NA,NA,unpleasant,pleasant,NA,NA,NA,NA,NA,right,1396.39999961853,true,NA,NA,NA,NA,NA
Q3MEF11I,3uy4pis8ruyxp7v852m6xfad2fzn1g,3z2r0dq0jlr276ylm9o31vm1ihh2ex,Q3MEF11I,2020-0188,2021-10-17,09:01:08,10:32:37,NA,incomplete,false,true,NA,3,33,NA,red,n_s_009.jpg,NA,NA,unpleasant,pleasant,NA,NA,NA,NA,NA,right,1438.70000076294,true,NA,NA,NA,NA,NA
Q3MEF11I,3uy4pis8ruyxp7v852m6xfad2fzn1g,3z2r0dq0jlr276ylm9o31vm1ihh2ex,Q3MEF11I,2020-0188,2021-10-17,09:01:08,10:32:37,NA,incomplete,false,true,NA,3,34,NA,red,n_s_107.jpg,NA,NA,pleasant,unpleasant,NA,NA,NA,NA,NA,left,2123,true,NA,NA,NA,NA,NA
Q3MEF11I,3uy4pis8ruyxp7v852m6xfad2fzn1g,3z2r0dq0jlr276ylm9o31vm1ihh2ex,Q3MEF11I,2020-0188,2021-10-17,09:01:08,10:32:37,NA,incomplete,false,true,NA,3,35,NA,red,m_l_098.jpg,NA,NA,pleasant,unpleasant,NA,NA,NA,NA,NA,left,2277.10000038147,true,NA,NA,NA,NA,NA
Q3MEF11I,3uy4pis8ruyxp7v852m6xfad2fzn1g,3z2r0dq0jlr276ylm9o31vm1ihh2ex,Q3MEF11I,2020-0188,2021-10-17,09:01:08,10:32:37,NA,incomplete,false,NA,true,3,0,NA,NA,NA,left,absent,NA,NA,m_s_064.jpg,blue,m_s_027.jpg,black,between,NA,NaN,NA,right,19992,0,0,4194
Q3MEF11I,3uy4pis8ruyxp7v852m6xfad2fzn1g,3z2r0dq0jlr276ylm9o31vm1ihh2ex,Q3MEF11I,2020-0188,2021-10-17,09:01:08,10:32:37,NA,incomplete,false,NA,true,3,1,NA,NA,NA,right,absent,NA,NA,n_l_063.jpg,gray,n_l_098.jpg,black,between,NA,NaN,NA,left,4110.10000038147,0,1,2963.300001144409
Q3MEF11I,3uy4pis8ruyxp7v852m6xfad2fzn1g,3z2r0dq0jlr276ylm9o31vm1ihh2ex,Q3MEF11I,2020-0188,2021-10-17,09:01:08,10:32:37,NA,incomplete,false,NA,true,3,2,NA,NA,NA,right,absent,NA,NA,m_l_049.jpg,white,n_l_053.jpg,brown,between,NA,NaN,NA,left,4485.300001144409,0,1,4032.5
Q3MEF11I,3uy4pis8ruyxp7v852m6xfad2fzn1g,3z2r0dq0jlr276ylm9o31vm1ihh2ex,Q3MEF11I,2020-0188,2021-10-17,09:01:08,10:32:37,NA,incomplete,false,NA,true,3,3,NA,NA,NA,right,absent,NA,NA,m_l_098.jpg,red,m_l_099.jpg,red,within,NA,NaN,NA,right,4781.800001144409,1,1,3774
Q3MEF11I,3uy4pis8ruyxp7v852m6xfad2fzn1g,3z2r0dq0jlr276ylm9o31vm1ihh2ex,Q3MEF11I,2020-0188,2021-10-17,09:01:08,10:32:37,NA,incomplete,false,NA,true,3,4,NA,NA,NA,right,absent,NA,NA,m_s_075.jpg,black,m_s_020.jpg,black,within,NA,NaN,NA,right,5730.200000762939,1,1,3263.5
Q3MEF11I,3uy4pis8ruyxp7v852m6xfad2fzn1g,3z2r0dq0jlr276ylm9o31vm1ihh2ex,Q3MEF11I,2020-0188,2021-10-17,09:01:08,10:32:37,NA,incomplete,false,NA,true,3,5,NA,NA,NA,right,absent,NA,NA,m_s_074.jpg,white,m_s_110.jpg,white,within,NA,NaN,NA,left,4117.200000762939,0,1,4084.7999992370605
Q3MEF11I,3uy4pis8ruyxp7v852m6xfad2fzn1g,3z2r0dq0jlr276ylm9o31vm1ihh2ex,Q3MEF11I,2020-0188,2021-10-17,09:01:08,10:32:37,NA,incomplete,false,NA,true,3,6,NA,NA,NA,right,absent,NA,NA,n_s_060.jpg,red,m_s_086.jpg,gray,between,NA,NaN,NA,left,3828.300001144409,0,1,2341.300001144409
Q3MEF11I,3uy4pis8ruyxp7v852m6xfad2fzn1g,3z2r0dq0jlr276ylm9o31vm1ihh2ex,Q3MEF11I,2020-0188,2021-10-17,09:01:08,10:32:37,NA,incomplete,false,NA,true,3,7,NA,NA,NA,left,absent,NA,NA,m_l_064.jpg,gray,n_l_039.jpg,gray,within,NA,NaN,NA,right,5131.10000038147,0,0,1917.5
Q3MEF11I,3uy4pis8ruyxp7v852m6xfad2fzn1g,3z2r0dq0jlr276ylm9o31vm1ihh2ex,Q3MEF11I,2020-0188,2021-10-17,09:01:08,10:32:37,NA,incomplete,false,NA,true,3,8,NA,NA,NA,left,absent,NA,NA,m_s_006.jpg,blue,n_s_099.jpg,blue,within,NA,NaN,NA,left,3827.199998855591,1,1,2526.199998855591
Q3MEF11I,3uy4pis8ruyxp7v852m6xfad2fzn1g,3z2r0dq0jlr276ylm9o31vm1ihh2ex,Q3MEF11I,2020-0188,2021-10-17,09:01:08,10:32:37,NA,incomplete,false,NA,true,3,9,NA,NA,NA,left,absent,NA,NA,n_s_022.jpg,white,n_s_008.jpg,blue,between,NA,NaN,NA,left,4330.400001525879,1,1,2450.2000007629395
Q3MEF11I,3uy4pis8ruyxp7v852m6xfad2fzn1g,3z2r0dq0jlr276ylm9o31vm1ihh2ex,Q3MEF11I,2020-0188,2021-10-17,09:01:08,10:32:37,NA,incomplete,false,NA,true,3,10,NA,NA,NA,right,absent,NA,NA,n_s_046.jpg,brown,m_l_102.jpg,brown,within,NA,NaN,NA,right,5106.39999961853,1,1,1723.599998474121
Q3MEF11I,3uy4pis8ruyxp7v852m6xfad2fzn1g,3z2r0dq0jlr276ylm9o31vm1ihh2ex,Q3MEF11I,2020-0188,2021-10-17,09:01:08,10:32:37,NA,incomplete,false,true,NA,4,0,NA,white,n_l_085.jpg,NA,NA,unpleasant,pleasant,NA,NA,NA,NA,NA,none,0,false,NA,NA,NA,NA,NA
Q3MEF11I,3uy4pis8ruyxp7v852m6xfad2fzn1g,3z2r0dq0jlr276ylm9o31vm1ihh2ex,Q3MEF11I,2020-0188,2021-10-17,09:01:08,10:32:37,NA,incomplete,false,true,NA,4,1,NA,white,n_l_040.jpg,NA,NA,pleasant,unpleasant,NA,NA,NA,NA,NA,left,2050.09999847412,true,NA,NA,NA,NA,NA
Q3MEF11I,3uy4pis8ruyxp7v852m6xfad2fzn1g,3z2r0dq0jlr276ylm9o31vm1ihh2ex,Q3MEF11I,2020-0188,2021-10-17,09:01:08,10:32:37,NA,incomplete,false,true,NA,4,2,NA,white,n_l_071.jpg,NA,NA,pleasant,unpleasant,NA,NA,NA,NA,NA,left,1789.5,true,NA,NA,NA,NA,NA
Q3MEF11I,3uy4pis8ruyxp7v852m6xfad2fzn1g,3z2r0dq0jlr276ylm9o31vm1ihh2ex,Q3MEF11I,2020-0188,2021-10-17,09:01:08,10:32:37,NA,incomplete,false,true,NA,4,3,NA,white,n_l_084.jpg,NA,NA,unpleasant,pleasant,NA,NA,NA,NA,NA,right,1905.89999961853,true,NA,NA,NA,NA,NA
Q3MEF11I,3uy4pis8ruyxp7v852m6xfad2fzn1g,3z2r0dq0jlr276ylm9o31vm1ihh2ex,Q3MEF11I,2020-0188,2021-10-17,09:01:08,10:32:37,NA,incomplete,false,true,NA,4,4,NA,white,n_s_115.jpg,NA,NA,unpleasant,pleasant,NA,NA,NA,NA,NA,right,1738,true,NA,NA,NA,NA,NA
Q3MEF11I,3uy4pis8ruyxp7v852m6xfad2fzn1g,3z2r0dq0jlr276ylm9o31vm1ihh2ex,Q3MEF11I,2020-0188,2021-10-17,09:01:08,10:32:37,NA,incomplete,false,true,NA,4,5,NA,white,n_s_084.jpg,NA,NA,unpleasant,pleasant,NA,NA,NA,NA,NA,right,1386.80000114441,true,NA,NA,NA,NA,NA
Q3MEF11I,3uy4pis8ruyxp7v852m6xfad2fzn1g,3z2r0dq0jlr276ylm9o31vm1ihh2ex,Q3MEF11I,2020-0188,2021-10-17,09:01:08,10:32:37,NA,incomplete,false,true,NA,4,6,NA,yellow,m_l_048.jpg,NA,NA,unpleasant,pleasant,NA,NA,NA,NA,NA,right,1537.70000076294,true,NA,NA,NA,NA,NA
Q3MEF11I,3uy4pis8ruyxp7v852m6xfad2fzn1g,3z2r0dq0jlr276ylm9o31vm1ihh2ex,Q3MEF11I,2020-0188,2021-10-17,09:01:08,10:32:37,NA,incomplete,false,true,NA,4,7,NA,yellow,n_l_029.jpg,NA,NA,unpleasant,pleasant,NA,NA,NA,NA,NA,left,2372.29999923706,true,NA,NA,NA,NA,NA
Q3MEF11I,3uy4pis8ruyxp7v852m6xfad2fzn1g,3z2r0dq0jlr276ylm9o31vm1ihh2ex,Q3MEF11I,2020-0188,2021-10-17,09:01:08,10:32:37,NA,incomplete,false,true,NA,4,8,NA,yellow,m_l_028.jpg,NA,NA,unpleasant,pleasant,NA,NA,NA,NA,NA,right,2727.29999923706,true,NA,NA,NA,NA,NA
Q3MEF11I,3uy4pis8ruyxp7v852m6xfad2fzn1g,3z2r0dq0jlr276ylm9o31vm1ihh2ex,Q3MEF11I,2020-0188,2021-10-17,09:01:08,10:32:37,NA,incomplete,false,true,NA,4,9,NA,yellow,m_l_109.jpg,NA,NA,pleasant,unpleasant,NA,NA,NA,NA,NA,left,1626.19999885559,true,NA,NA,NA,NA,NA
Q3MEF11I,3uy4pis8ruyxp7v852m6xfad2fzn1g,3z2r0dq0jlr276ylm9o31vm1ihh2ex,Q3MEF11I,2020-0188,2021-10-17,09:01:08,10:32:37,NA,incomplete,false,true,NA,4,10,NA,yellow,n_l_013.jpg,NA,NA,pleasant,unpleasant,NA,NA,NA,NA,NA,left,2006.79999923706,true,NA,NA,NA,NA,NA
Q3MEF11I,3uy4pis8ruyxp7v852m6xfad2fzn1g,3z2r0dq0jlr276ylm9o31vm1ihh2ex,Q3MEF11I,2020-0188,2021-10-17,09:01:08,10:32:37,NA,incomplete,false,true,NA,4,11,NA,yellow,n_s_076.jpg,NA,NA,pleasant,unpleasant,NA,NA,NA,NA,NA,left,1916,true,NA,NA,NA,NA,NA
Q3MEF11I,3uy4pis8ruyxp7v852m6xfad2fzn1g,3z2r0dq0jlr276ylm9o31vm1ihh2ex,Q3MEF11I,2020-0188,2021-10-17,09:01:08,10:32:37,NA,incomplete,false,true,NA,4,12,NA,brown,n_s_052.jpg,NA,NA,pleasant,unpleasant,NA,NA,NA,NA,NA,left,1532.10000038147,true,NA,NA,NA,NA,NA
Q3MEF11I,3uy4pis8ruyxp7v852m6xfad2fzn1g,3z2r0dq0jlr276ylm9o31vm1ihh2ex,Q3MEF11I,2020-0188,2021-10-17,09:01:08,10:32:37,NA,incomplete,false,true,NA,4,13,NA,brown,n_l_099.jpg,NA,NA,unpleasant,pleasant,NA,NA,NA,NA,NA,left,2584.90000152588,true,NA,NA,NA,NA,NA
Q3MEF11I,3uy4pis8ruyxp7v852m6xfad2fzn1g,3z2r0dq0jlr276ylm9o31vm1ihh2ex,Q3MEF11I,2020-0188,2021-10-17,09:01:08,10:32:37,NA,incomplete,false,true,NA,4,14,NA,brown,m_s_112.jpg,NA,NA,pleasant,unpleasant,NA,NA,NA,NA,NA,left,1923.60000038147,true,NA,NA,NA,NA,NA
Q3MEF11I,3uy4pis8ruyxp7v852m6xfad2fzn1g,3z2r0dq0jlr276ylm9o31vm1ihh2ex,Q3MEF11I,2020-0188,2021-10-17,09:01:08,10:32:37,NA,incomplete,false,true,NA,4,15,NA,brown,m_l_088.jpg,NA,NA,pleasant,unpleasant,NA,NA,NA,NA,NA,left,1672.10000038147,true,NA,NA,NA,NA,NA
Q3MEF11I,3uy4pis8ruyxp7v852m6xfad2fzn1g,3z2r0dq0jlr276ylm9o31vm1ihh2ex,Q3MEF11I,2020-0188,2021-10-17,09:01:08,10:32:37,NA,incomplete,false,true,NA,4,16,NA,brown,m_l_033.jpg,NA,NA,pleasant,unpleasant,NA,NA,NA,NA,NA,left,1750.60000038147,true,NA,NA,NA,NA,NA
Q3MEF11I,3uy4pis8ruyxp7v852m6xfad2fzn1g,3z2r0dq0jlr276ylm9o31vm1ihh2ex,Q3MEF11I,2020-0188,2021-10-17,09:01:08,10:32:37,NA,incomplete,false,true,NA,4,17,NA,brown,m_l_100.jpg,NA,NA,unpleasant,pleasant,NA,NA,NA,NA,NA,right,2002.29999923706,true,NA,NA,NA,NA,NA
Q3MEF11I,3uy4pis8ruyxp7v852m6xfad2fzn1g,3z2r0dq0jlr276ylm9o31vm1ihh2ex,Q3MEF11I,2020-0188,2021-10-17,09:01:08,10:32:37,NA,incomplete,false,true,NA,4,18,NA,purple,m_l_067.jpg,NA,NA,pleasant,unpleasant,NA,NA,NA,NA,NA,left,1873,true,NA,NA,NA,NA,NA
Q3MEF11I,3uy4pis8ruyxp7v852m6xfad2fzn1g,3z2r0dq0jlr276ylm9o31vm1ihh2ex,Q3MEF11I,2020-0188,2021-10-17,09:01:08,10:32:37,NA,incomplete,false,true,NA,4,19,NA,purple,m_s_002.jpg,NA,NA,unpleasant,pleasant,NA,NA,NA,NA,NA,right,2482.10000038147,true,NA,NA,NA,NA,NA
Q3MEF11I,3uy4pis8ruyxp7v852m6xfad2fzn1g,3z2r0dq0jlr276ylm9o31vm1ihh2ex,Q3MEF11I,2020-0188,2021-10-17,09:01:08,10:32:37,NA,incomplete,false,true,NA,4,20,NA,purple,m_l_074.jpg,NA,NA,pleasant,unpleasant,NA,NA,NA,NA,NA,left,2248.20000076294,true,NA,NA,NA,NA,NA
Q3MEF11I,3uy4pis8ruyxp7v852m6xfad2fzn1g,3z2r0dq0jlr276ylm9o31vm1ihh2ex,Q3MEF11I,2020-0188,2021-10-17,09:01:08,10:32:37,NA,incomplete,false,true,NA,4,21,NA,purple,n_s_087.jpg,NA,NA,unpleasant,pleasant,NA,NA,NA,NA,NA,right,1498.40000152588,true,NA,NA,NA,NA,NA
Q3MEF11I,3uy4pis8ruyxp7v852m6xfad2fzn1g,3z2r0dq0jlr276ylm9o31vm1ihh2ex,Q3MEF11I,2020-0188,2021-10-17,09:01:08,10:32:37,NA,incomplete,false,true,NA,4,22,NA,purple,n_l_020.jpg,NA,NA,unpleasant,pleasant,NA,NA,NA,NA,NA,right,2437.30000114441,true,NA,NA,NA,NA,NA
Q3MEF11I,3uy4pis8ruyxp7v852m6xfad2fzn1g,3z2r0dq0jlr276ylm9o31vm1ihh2ex,Q3MEF11I,2020-0188,2021-10-17,09:01:08,10:32:37,NA,incomplete,false,true,NA,4,23,NA,purple,n_l_034.jpg,NA,NA,unpleasant,pleasant,NA,NA,NA,NA,NA,left,2128.69999885559,true,NA,NA,NA,NA,NA
Q3MEF11I,3uy4pis8ruyxp7v852m6xfad2fzn1g,3z2r0dq0jlr276ylm9o31vm1ihh2ex,Q3MEF11I,2020-0188,2021-10-17,09:01:08,10:32:37,NA,incomplete,false,true,NA,4,24,NA,blue,m_s_005.jpg,NA,NA,unpleasant,pleasant,NA,NA,NA,NA,NA,right,1281.19999885559,true,NA,NA,NA,NA,NA
Q3MEF11I,3uy4pis8ruyxp7v852m6xfad2fzn1g,3z2r0dq0jlr276ylm9o31vm1ihh2ex,Q3MEF11I,2020-0188,2021-10-17,09:01:08,10:32:37,NA,incomplete,false,true,NA,4,25,NA,blue,n_l_092.jpg,NA,NA,unpleasant,pleasant,NA,NA,NA,NA,NA,left,2309.89999961853,true,NA,NA,NA,NA,NA
Q3MEF11I,3uy4pis8ruyxp7v852m6xfad2fzn1g,3z2r0dq0jlr276ylm9o31vm1ihh2ex,Q3MEF11I,2020-0188,2021-10-17,09:01:08,10:32:37,NA,incomplete,false,true,NA,4,26,NA,blue,n_l_056.jpg,NA,NA,pleasant,unpleasant,NA,NA,NA,NA,NA,right,2127.29999923706,true,NA,NA,NA,NA,NA
Q3MEF11I,3uy4pis8ruyxp7v852m6xfad2fzn1g,3z2r0dq0jlr276ylm9o31vm1ihh2ex,Q3MEF11I,2020-0188,2021-10-17,09:01:08,10:32:37,NA,incomplete,false,true,NA,4,27,NA,blue,m_s_096.jpg,NA,NA,pleasant,unpleasant,NA,NA,NA,NA,NA,left,1675.29999923706,true,NA,NA,NA,NA,NA
Q3MEF11I,3uy4pis8ruyxp7v852m6xfad2fzn1g,3z2r0dq0jlr276ylm9o31vm1ihh2ex,Q3MEF11I,2020-0188,2021-10-17,09:01:08,10:32:37,NA,incomplete,false,true,NA,4,28,NA,blue,m_l_063.jpg,NA,NA,unpleasant,pleasant,NA,NA,NA,NA,NA,right,2563.80000114441,true,NA,NA,NA,NA,NA
Q3MEF11I,3uy4pis8ruyxp7v852m6xfad2fzn1g,3z2r0dq0jlr276ylm9o31vm1ihh2ex,Q3MEF11I,2020-0188,2021-10-17,09:01:08,10:32:37,NA,incomplete,false,true,NA,4,29,NA,blue,n_s_047.jpg,NA,NA,pleasant,unpleasant,NA,NA,NA,NA,NA,left,2161.10000038147,true,NA,NA,NA,NA,NA
Q3MEF11I,3uy4pis8ruyxp7v852m6xfad2fzn1g,3z2r0dq0jlr276ylm9o31vm1ihh2ex,Q3MEF11I,2020-0188,2021-10-17,09:01:08,10:32:37,NA,incomplete,false,true,NA,4,30,NA,orange,m_s_116.jpg,NA,NA,unpleasant,pleasant,NA,NA,NA,NA,NA,right,1649.70000076294,true,NA,NA,NA,NA,NA
Q3MEF11I,3uy4pis8ruyxp7v852m6xfad2fzn1g,3z2r0dq0jlr276ylm9o31vm1ihh2ex,Q3MEF11I,2020-0188,2021-10-17,09:01:08,10:32:37,NA,incomplete,false,true,NA,4,31,NA,orange,n_l_104.jpg,NA,NA,pleasant,unpleasant,NA,NA,NA,NA,NA,left,2502,true,NA,NA,NA,NA,NA
Q3MEF11I,3uy4pis8ruyxp7v852m6xfad2fzn1g,3z2r0dq0jlr276ylm9o31vm1ihh2ex,Q3MEF11I,2020-0188,2021-10-17,09:01:08,10:32:37,NA,incomplete,false,true,NA,4,32,NA,orange,n_s_054.jpg,NA,NA,pleasant,unpleasant,NA,NA,NA,NA,NA,left,364.099998474121,true,NA,NA,NA,NA,NA
Q3MEF11I,3uy4pis8ruyxp7v852m6xfad2fzn1g,3z2r0dq0jlr276ylm9o31vm1ihh2ex,Q3MEF11I,2020-0188,2021-10-17,09:01:08,10:32:37,NA,incomplete,false,true,NA,4,33,NA,orange,m_s_114.jpg,NA,NA,pleasant,unpleasant,NA,NA,NA,NA,NA,left,1756.30000114441,true,NA,NA,NA,NA,NA
Q3MEF11I,3uy4pis8ruyxp7v852m6xfad2fzn1g,3z2r0dq0jlr276ylm9o31vm1ihh2ex,Q3MEF11I,2020-0188,2021-10-17,09:01:08,10:32:37,NA,incomplete,false,true,NA,4,34,NA,orange,n_l_115.jpg,NA,NA,unpleasant,pleasant,NA,NA,NA,NA,NA,right,2778.10000038147,true,NA,NA,NA,NA,NA
Q3MEF11I,3uy4pis8ruyxp7v852m6xfad2fzn1g,3z2r0dq0jlr276ylm9o31vm1ihh2ex,Q3MEF11I,2020-0188,2021-10-17,09:01:08,10:32:37,NA,incomplete,false,true,NA,4,35,NA,orange,n_l_072.jpg,NA,NA,pleasant,unpleasant,NA,NA,NA,NA,NA,left,2826.90000152588,true,NA,NA,NA,NA,NA
Q3MEF11I,3uy4pis8ruyxp7v852m6xfad2fzn1g,3z2r0dq0jlr276ylm9o31vm1ihh2ex,Q3MEF11I,2020-0188,2021-10-17,09:01:08,10:32:37,NA,incomplete,false,NA,true,4,0,NA,NA,NA,right,absent,NA,NA,m_l_028.jpg,yellow,n_s_115.jpg,white,between,NA,NaN,NA,left,6904.200000762939,0,0,4452.700000762939
Q3MEF11I,3uy4pis8ruyxp7v852m6xfad2fzn1g,3z2r0dq0jlr276ylm9o31vm1ihh2ex,Q3MEF11I,2020-0188,2021-10-17,09:01:08,10:32:37,NA,incomplete,false,NA,true,4,1,NA,NA,NA,right,absent,NA,NA,n_l_056.jpg,blue,n_l_020.jpg,purple,between,NA,NaN,NA,right,5527.700000762939,1,2,2370
Q3MEF11I,3uy4pis8ruyxp7v852m6xfad2fzn1g,3z2r0dq0jlr276ylm9o31vm1ihh2ex,Q3MEF11I,2020-0188,2021-10-17,09:01:08,10:32:37,NA,incomplete,false,NA,true,4,2,NA,NA,NA,right,absent,NA,NA,n_s_054.jpg,orange,m_l_063.jpg,blue,between,NA,NaN,NA,left,4888.699998855591,0,0,2443.800001144409
Q3MEF11I,3uy4pis8ruyxp7v852m6xfad2fzn1g,3z2r0dq0jlr276ylm9o31vm1ihh2ex,Q3MEF11I,2020-0188,2021-10-17,09:01:08,10:32:37,NA,incomplete,false,NA,true,4,3,NA,NA,NA,right,absent,NA,NA,n_s_076.jpg,yellow,n_l_029.jpg,yellow,within,NA,NaN,NA,left,4353.60000038147,0,1,2136
Q3MEF11I,3uy4pis8ruyxp7v852m6xfad2fzn1g,3z2r0dq0jlr276ylm9o31vm1ihh2ex,Q3MEF11I,2020-0188,2021-10-17,09:01:08,10:32:37,NA,incomplete,false,NA,true,4,4,NA,NA,NA,left,absent,NA,NA,m_l_033.jpg,brown,m_l_074.jpg,purple,between,NA,NaN,NA,right,6181.700000762939,0,1,2472.8999996185303
Q3MEF11I,3uy4pis8ruyxp7v852m6xfad2fzn1g,3z2r0dq0jlr276ylm9o31vm1ihh2ex,Q3MEF11I,2020-0188,2021-10-17,09:01:08,10:32:37,NA,incomplete,false,NA,true,4,5,NA,NA,NA,left,absent,NA,NA,n_l_104.jpg,orange,n_l_072.jpg,orange,within,NA,NaN,NA,left,3826.2000007629395,1,0,3138.5
Q3MEF11I,3uy4pis8ruyxp7v852m6xfad2fzn1g,3z2r0dq0jlr276ylm9o31vm1ihh2ex,Q3MEF11I,2020-0188,2021-10-17,09:01:08,10:32:37,NA,incomplete,false,NA,true,4,6,NA,NA,NA,left,absent,NA,NA,n_l_040.jpg,white,n_s_084.jpg,white,within,NA,NaN,NA,left,7599.60000038147,1,0,2622
Q3MEF11I,3uy4pis8ruyxp7v852m6xfad2fzn1g,3z2r0dq0jlr276ylm9o31vm1ihh2ex,Q3MEF11I,2020-0188,2021-10-17,09:01:08,10:32:37,NA,incomplete,false,NA,true,4,7,NA,NA,NA,left,absent,NA,NA,m_s_002.jpg,purple,n_l_034.jpg,purple,within,NA,NaN,NA,left,7451.39999961853,1,1,4268.10000038147
Q3MEF11I,3uy4pis8ruyxp7v852m6xfad2fzn1g,3z2r0dq0jlr276ylm9o31vm1ihh2ex,Q3MEF11I,2020-0188,2021-10-17,09:01:08,10:32:37,NA,incomplete,false,NA,true,4,8,NA,NA,NA,left,absent,NA,NA,n_l_099.jpg,brown,m_l_100.jpg,brown,within,NA,NaN,NA,right,5552.200000762939,0,1,3696.300001144409
Q3MEF11I,3uy4pis8ruyxp7v852m6xfad2fzn1g,3z2r0dq0jlr276ylm9o31vm1ihh2ex,Q3MEF11I,2020-0188,2021-10-17,09:01:08,10:32:37,NA,incomplete,false,NA,true,4,9,NA,NA,NA,right,absent,NA,NA,m_s_112.jpg,brown,n_l_013.jpg,yellow,between,NA,NaN,NA,left,3879.1000003814697,0,0,2532.5
Q3MEF11I,3uy4pis8ruyxp7v852m6xfad2fzn1g,3z2r0dq0jlr276ylm9o31vm1ihh2ex,Q3MEF11I,2020-0188,2021-10-17,09:01:08,10:32:37,NA,incomplete,false,NA,true,4,10,NA,NA,NA,left,absent,NA,NA,n_l_092.jpg,blue,n_s_047.jpg,blue,within,NA,NaN,NA,left,5702.799999237061,1,2,3012.3999996185303
Q3MEF11I,3uy4pis8ruyxp7v852m6xfad2fzn1g,3z2r0dq0jlr276ylm9o31vm1ihh2ex,Q3MEF11I,2020-0188,2021-10-17,09:01:08,10:32:37,NA,incomplete,false,true,NA,5,0,NA,purple,m_s_031.jpg,NA,NA,pleasant,unpleasant,NA,NA,NA,NA,NA,left,2051,true,NA,NA,NA,NA,NA
Q3MEF11I,3uy4pis8ruyxp7v852m6xfad2fzn1g,3z2r0dq0jlr276ylm9o31vm1ihh2ex,Q3MEF11I,2020-0188,2021-10-17,09:01:08,10:32:37,NA,incomplete,false,true,NA,5,1,NA,purple,n_l_110.jpg,NA,NA,unpleasant,pleasant,NA,NA,NA,NA,NA,right,1704.80000114441,true,NA,NA,NA,NA,NA
Q3MEF11I,3uy4pis8ruyxp7v852m6xfad2fzn1g,3z2r0dq0jlr276ylm9o31vm1ihh2ex,Q3MEF11I,2020-0188,2021-10-17,09:01:08,10:32:37,NA,incomplete,false,true,NA,5,2,NA,purple,m_s_099.jpg,NA,NA,pleasant,unpleasant,NA,NA,NA,NA,NA,left,1576.5,true,NA,NA,NA,NA,NA
Q3MEF11I,3uy4pis8ruyxp7v852m6xfad2fzn1g,3z2r0dq0jlr276ylm9o31vm1ihh2ex,Q3MEF11I,2020-0188,2021-10-17,09:01:08,10:32:37,NA,incomplete,false,true,NA,5,3,NA,purple,n_s_089.jpg,NA,NA,pleasant,unpleasant,NA,NA,NA,NA,NA,left,1920.59999847412,true,NA,NA,NA,NA,NA
Q3MEF11I,3uy4pis8ruyxp7v852m6xfad2fzn1g,3z2r0dq0jlr276ylm9o31vm1ihh2ex,Q3MEF11I,2020-0188,2021-10-17,09:01:08,10:32:37,NA,incomplete,false,true,NA,5,4,NA,purple,n_l_094.jpg,NA,NA,pleasant,unpleasant,NA,NA,NA,NA,NA,left,2211.5,true,NA,NA,NA,NA,NA
Q3MEF11I,3uy4pis8ruyxp7v852m6xfad2fzn1g,3z2r0dq0jlr276ylm9o31vm1ihh2ex,Q3MEF11I,2020-0188,2021-10-17,09:01:08,10:32:37,NA,incomplete,false,true,NA,5,5,NA,purple,n_l_111.jpg,NA,NA,pleasant,unpleasant,NA,NA,NA,NA,NA,left,1915.10000038147,true,NA,NA,NA,NA,NA
Q3MEF11I,3uy4pis8ruyxp7v852m6xfad2fzn1g,3z2r0dq0jlr276ylm9o31vm1ihh2ex,Q3MEF11I,2020-0188,2021-10-17,09:01:08,10:32:37,NA,incomplete,false,true,NA,5,6,NA,brown,m_s_041.jpg,NA,NA,pleasant,unpleasant,NA,NA,NA,NA,NA,left,1841.29999923706,true,NA,NA,NA,NA,NA
Q3MEF11I,3uy4pis8ruyxp7v852m6xfad2fzn1g,3z2r0dq0jlr276ylm9o31vm1ihh2ex,Q3MEF11I,2020-0188,2021-10-17,09:01:08,10:32:37,NA,incomplete,false,true,NA,5,7,NA,brown,m_l_073.jpg,NA,NA,pleasant,unpleasant,NA,NA,NA,NA,NA,left,1682.19999885559,true,NA,NA,NA,NA,NA
Q3MEF11I,3uy4pis8ruyxp7v852m6xfad2fzn1g,3z2r0dq0jlr276ylm9o31vm1ihh2ex,Q3MEF11I,2020-0188,2021-10-17,09:01:08,10:32:37,NA,incomplete,false,true,NA,5,8,NA,brown,m_l_116.jpg,NA,NA,unpleasant,pleasant,NA,NA,NA,NA,NA,right,2403.39999961853,true,NA,NA,NA,NA,NA
Q3MEF11I,3uy4pis8ruyxp7v852m6xfad2fzn1g,3z2r0dq0jlr276ylm9o31vm1ihh2ex,Q3MEF11I,2020-0188,2021-10-17,09:01:08,10:32:37,NA,incomplete,false,true,NA,5,9,NA,brown,n_l_093.jpg,NA,NA,pleasant,unpleasant,NA,NA,NA,NA,NA,right,2417.39999961853,true,NA,NA,NA,NA,NA
Q3MEF11I,3uy4pis8ruyxp7v852m6xfad2fzn1g,3z2r0dq0jlr276ylm9o31vm1ihh2ex,Q3MEF11I,2020-0188,2021-10-17,09:01:08,10:32:37,NA,incomplete,false,true,NA,5,10,NA,brown,n_s_058.jpg,NA,NA,pleasant,unpleasant,NA,NA,NA,NA,NA,left,2222.09999847412,true,NA,NA,NA,NA,NA
Q3MEF11I,3uy4pis8ruyxp7v852m6xfad2fzn1g,3z2r0dq0jlr276ylm9o31vm1ihh2ex,Q3MEF11I,2020-0188,2021-10-17,09:01:08,10:32:37,NA,incomplete,false,true,NA,5,11,NA,brown,n_s_071.jpg,NA,NA,pleasant,unpleasant,NA,NA,NA,NA,NA,left,2443,true,NA,NA,NA,NA,NA
Q3MEF11I,3uy4pis8ruyxp7v852m6xfad2fzn1g,3z2r0dq0jlr276ylm9o31vm1ihh2ex,Q3MEF11I,2020-0188,2021-10-17,09:01:08,10:32:37,NA,incomplete,false,true,NA,5,12,NA,white,n_l_044.jpg,NA,NA,pleasant,unpleasant,NA,NA,NA,NA,NA,left,1457.39999961853,true,NA,NA,NA,NA,NA
Q3MEF11I,3uy4pis8ruyxp7v852m6xfad2fzn1g,3z2r0dq0jlr276ylm9o31vm1ihh2ex,Q3MEF11I,2020-0188,2021-10-17,09:01:08,10:32:37,NA,incomplete,false,true,NA,5,13,NA,white,n_l_041.jpg,NA,NA,pleasant,unpleasant,NA,NA,NA,NA,NA,right,2184.29999923706,true,NA,NA,NA,NA,NA
Q3MEF11I,3uy4pis8ruyxp7v852m6xfad2fzn1g,3z2r0dq0jlr276ylm9o31vm1ihh2ex,Q3MEF11I,2020-0188,2021-10-17,09:01:08,10:32:37,NA,incomplete,false,true,NA,5,14,NA,white,n_s_010.jpg,NA,NA,unpleasant,pleasant,NA,NA,NA,NA,NA,right,2348.69999885559,true,NA,NA,NA,NA,NA
Q3MEF11I,3uy4pis8ruyxp7v852m6xfad2fzn1g,3z2r0dq0jlr276ylm9o31vm1ihh2ex,Q3MEF11I,2020-0188,2021-10-17,09:01:08,10:32:37,NA,incomplete,false,true,NA,5,15,NA,white,n_s_109.jpg,NA,NA,unpleasant,pleasant,NA,NA,NA,NA,NA,left,1953.89999961853,true,NA,NA,NA,NA,NA
Q3MEF11I,3uy4pis8ruyxp7v852m6xfad2fzn1g,3z2r0dq0jlr276ylm9o31vm1ihh2ex,Q3MEF11I,2020-0188,2021-10-17,09:01:08,10:32:37,NA,incomplete,false,true,NA,5,16,NA,white,m_s_026.jpg,NA,NA,unpleasant,pleasant,NA,NA,NA,NA,NA,none,0,false,NA,NA,NA,NA,NA
Q3MEF11I,3uy4pis8ruyxp7v852m6xfad2fzn1g,3z2r0dq0jlr276ylm9o31vm1ihh2ex,Q3MEF11I,2020-0188,2021-10-17,09:01:08,10:32:37,NA,incomplete,false,true,NA,5,17,NA,white,n_l_010.jpg,NA,NA,pleasant,unpleasant,NA,NA,NA,NA,NA,left,3170.39999961853,true,NA,NA,NA,NA,NA
Q3MEF11I,3uy4pis8ruyxp7v852m6xfad2fzn1g,3z2r0dq0jlr276ylm9o31vm1ihh2ex,Q3MEF11I,2020-0188,2021-10-17,09:01:08,10:32:37,NA,incomplete,false,true,NA,5,18,NA,green,m_s_079.jpg,NA,NA,unpleasant,pleasant,NA,NA,NA,NA,NA,right,2318.90000152588,true,NA,NA,NA,NA,NA
Q3MEF11I,3uy4pis8ruyxp7v852m6xfad2fzn1g,3z2r0dq0jlr276ylm9o31vm1ihh2ex,Q3MEF11I,2020-0188,2021-10-17,09:01:08,10:32:37,NA,incomplete,false,true,NA,5,19,NA,green,m_l_115.jpg,NA,NA,pleasant,unpleasant,NA,NA,NA,NA,NA,left,1740.80000114441,true,NA,NA,NA,NA,NA
Q3MEF11I,3uy4pis8ruyxp7v852m6xfad2fzn1g,3z2r0dq0jlr276ylm9o31vm1ihh2ex,Q3MEF11I,2020-0188,2021-10-17,09:01:08,10:32:37,NA,incomplete,false,true,NA,5,20,NA,green,m_l_060.jpg,NA,NA,unpleasant,pleasant,NA,NA,NA,NA,NA,right,1603.39999961853,true,NA,NA,NA,NA,NA
Q3MEF11I,3uy4pis8ruyxp7v852m6xfad2fzn1g,3z2r0dq0jlr276ylm9o31vm1ihh2ex,Q3MEF11I,2020-0188,2021-10-17,09:01:08,10:32:37,NA,incomplete,false,true,NA,5,21,NA,green,n_l_048.jpg,NA,NA,pleasant,unpleasant,NA,NA,NA,NA,NA,left,2714.19999885559,true,NA,NA,NA,NA,NA
Q3MEF11I,3uy4pis8ruyxp7v852m6xfad2fzn1g,3z2r0dq0jlr276ylm9o31vm1ihh2ex,Q3MEF11I,2020-0188,2021-10-17,09:01:08,10:32:37,NA,incomplete,false,true,NA,5,22,NA,green,m_l_069.jpg,NA,NA,unpleasant,pleasant,NA,NA,NA,NA,NA,right,1649,true,NA,NA,NA,NA,NA
Q3MEF11I,3uy4pis8ruyxp7v852m6xfad2fzn1g,3z2r0dq0jlr276ylm9o31vm1ihh2ex,Q3MEF11I,2020-0188,2021-10-17,09:01:08,10:32:37,NA,incomplete,false,true,NA,5,23,NA,green,n_l_009.jpg,NA,NA,unpleasant,pleasant,NA,NA,NA,NA,NA,right,1851.5,true,NA,NA,NA,NA,NA
Q3MEF11I,3uy4pis8ruyxp7v852m6xfad2fzn1g,3z2r0dq0jlr276ylm9o31vm1ihh2ex,Q3MEF11I,2020-0188,2021-10-17,09:01:08,10:32:37,NA,incomplete,false,true,NA,5,24,NA,black,m_l_075.jpg,NA,NA,unpleasant,pleasant,NA,NA,NA,NA,NA,right,1634.39999961853,true,NA,NA,NA,NA,NA
Q3MEF11I,3uy4pis8ruyxp7v852m6xfad2fzn1g,3z2r0dq0jlr276ylm9o31vm1ihh2ex,Q3MEF11I,2020-0188,2021-10-17,09:01:08,10:32:37,NA,incomplete,false,true,NA,5,25,NA,black,m_l_010.jpg,NA,NA,pleasant,unpleasant,NA,NA,NA,NA,NA,left,1502.79999923706,true,NA,NA,NA,NA,NA
Q3MEF11I,3uy4pis8ruyxp7v852m6xfad2fzn1g,3z2r0dq0jlr276ylm9o31vm1ihh2ex,Q3MEF11I,2020-0188,2021-10-17,09:01:08,10:32:37,NA,incomplete,false,true,NA,5,26,NA,black,m_l_002.jpg,NA,NA,pleasant,unpleasant,NA,NA,NA,NA,NA,left,1380.19999885559,true,NA,NA,NA,NA,NA
Q3MEF11I,3uy4pis8ruyxp7v852m6xfad2fzn1g,3z2r0dq0jlr276ylm9o31vm1ihh2ex,Q3MEF11I,2020-0188,2021-10-17,09:01:08,10:32:37,NA,incomplete,false,true,NA,5,27,NA,black,m_s_111.jpg,NA,NA,unpleasant,pleasant,NA,NA,NA,NA,NA,right,1691.79999923706,true,NA,NA,NA,NA,NA
Q3MEF11I,3uy4pis8ruyxp7v852m6xfad2fzn1g,3z2r0dq0jlr276ylm9o31vm1ihh2ex,Q3MEF11I,2020-0188,2021-10-17,09:01:08,10:32:37,NA,incomplete,false,true,NA,5,28,NA,black,m_s_080.jpg,NA,NA,pleasant,unpleasant,NA,NA,NA,NA,NA,left,2345.60000038147,true,NA,NA,NA,NA,NA
Q3MEF11I,3uy4pis8ruyxp7v852m6xfad2fzn1g,3z2r0dq0jlr276ylm9o31vm1ihh2ex,Q3MEF11I,2020-0188,2021-10-17,09:01:08,10:32:37,NA,incomplete,false,true,NA,5,29,NA,black,m_l_112.jpg,NA,NA,unpleasant,pleasant,NA,NA,NA,NA,NA,right,1917.79999923706,true,NA,NA,NA,NA,NA
Q3MEF11I,3uy4pis8ruyxp7v852m6xfad2fzn1g,3z2r0dq0jlr276ylm9o31vm1ihh2ex,Q3MEF11I,2020-0188,2021-10-17,09:01:08,10:32:37,NA,incomplete,false,true,NA,5,30,NA,orange,m_l_079.jpg,NA,NA,unpleasant,pleasant,NA,NA,NA,NA,NA,right,1960,true,NA,NA,NA,NA,NA
Q3MEF11I,3uy4pis8ruyxp7v852m6xfad2fzn1g,3z2r0dq0jlr276ylm9o31vm1ihh2ex,Q3MEF11I,2020-0188,2021-10-17,09:01:08,10:32:37,NA,incomplete,false,true,NA,5,31,NA,orange,n_s_074.jpg,NA,NA,pleasant,unpleasant,NA,NA,NA,NA,NA,left,2039,true,NA,NA,NA,NA,NA
Q3MEF11I,3uy4pis8ruyxp7v852m6xfad2fzn1g,3z2r0dq0jlr276ylm9o31vm1ihh2ex,Q3MEF11I,2020-0188,2021-10-17,09:01:08,10:32:37,NA,incomplete,false,true,NA,5,32,NA,orange,n_l_046.jpg,NA,NA,unpleasant,pleasant,NA,NA,NA,NA,NA,right,1252.69999885559,true,NA,NA,NA,NA,NA
Q3MEF11I,3uy4pis8ruyxp7v852m6xfad2fzn1g,3z2r0dq0jlr276ylm9o31vm1ihh2ex,Q3MEF11I,2020-0188,2021-10-17,09:01:08,10:32:37,NA,incomplete,false,true,NA,5,33,NA,orange,m_l_011.jpg,NA,NA,unpleasant,pleasant,NA,NA,NA,NA,NA,right,1540.80000114441,true,NA,NA,NA,NA,NA
Q3MEF11I,3uy4pis8ruyxp7v852m6xfad2fzn1g,3z2r0dq0jlr276ylm9o31vm1ihh2ex,Q3MEF11I,2020-0188,2021-10-17,09:01:08,10:32:37,NA,incomplete,false,true,NA,5,34,NA,orange,n_l_069.jpg,NA,NA,pleasant,unpleasant,NA,NA,NA,NA,NA,left,1313.10000038147,true,NA,NA,NA,NA,NA
Q3MEF11I,3uy4pis8ruyxp7v852m6xfad2fzn1g,3z2r0dq0jlr276ylm9o31vm1ihh2ex,Q3MEF11I,2020-0188,2021-10-17,09:01:08,10:32:37,NA,incomplete,false,true,NA,5,35,NA,orange,m_l_111.jpg,NA,NA,pleasant,unpleasant,NA,NA,NA,NA,NA,left,2222.20000076294,true,NA,NA,NA,NA,NA
Q3MEF11I,3uy4pis8ruyxp7v852m6xfad2fzn1g,3z2r0dq0jlr276ylm9o31vm1ihh2ex,Q3MEF11I,2020-0188,2021-10-17,09:01:08,10:32:37,NA,incomplete,false,NA,true,5,0,NA,NA,NA,left,absent,NA,NA,n_s_074.jpg,orange,m_l_111.jpg,orange,within,NA,NaN,NA,left,5467,1,1,2626.3999996185303
Q3MEF11I,3uy4pis8ruyxp7v852m6xfad2fzn1g,3z2r0dq0jlr276ylm9o31vm1ihh2ex,Q3MEF11I,2020-0188,2021-10-17,09:01:08,10:32:37,NA,incomplete,false,NA,true,5,1,NA,NA,NA,left,absent,NA,NA,m_l_115.jpg,green,n_l_009.jpg,green,within,NA,NaN,NA,right,7320.099998474121,0,2,3031.2000007629395
Q3MEF11I,3uy4pis8ruyxp7v852m6xfad2fzn1g,3z2r0dq0jlr276ylm9o31vm1ihh2ex,Q3MEF11I,2020-0188,2021-10-17,09:01:08,10:32:37,NA,incomplete,false,NA,true,5,2,NA,NA,NA,left,absent,NA,NA,n_l_041.jpg,white,n_l_010.jpg,white,within,NA,NaN,NA,right,3550.2000007629395,0,0,2984.7000007629395
Q3MEF11I,3uy4pis8ruyxp7v852m6xfad2fzn1g,3z2r0dq0jlr276ylm9o31vm1ihh2ex,Q3MEF11I,2020-0188,2021-10-17,09:01:08,10:32:37,NA,incomplete,false,NA,true,5,3,NA,NA,NA,left,absent,NA,NA,m_s_080.jpg,black,n_l_046.jpg,orange,between,NA,NaN,NA,right,2518.199998855591,0,0,2205.1000003814697
Q3MEF11I,3uy4pis8ruyxp7v852m6xfad2fzn1g,3z2r0dq0jlr276ylm9o31vm1ihh2ex,Q3MEF11I,2020-0188,2021-10-17,09:01:08,10:32:37,NA,incomplete,false,NA,true,5,4,NA,NA,NA,right,absent,NA,NA,m_l_116.jpg,brown,n_l_094.jpg,purple,between,NA,NaN,NA,right,6702.299999237061,1,1,1832.3999996185303
Q3MEF11I,3uy4pis8ruyxp7v852m6xfad2fzn1g,3z2r0dq0jlr276ylm9o31vm1ihh2ex,Q3MEF11I,2020-0188,2021-10-17,09:01:08,10:32:37,NA,incomplete,false,NA,true,5,5,NA,NA,NA,right,absent,NA,NA,m_l_112.jpg,black,m_l_010.jpg,black,within,NA,NaN,NA,left,4873.300001144409,0,0,2607.199998855591
Q3MEF11I,3uy4pis8ruyxp7v852m6xfad2fzn1g,3z2r0dq0jlr276ylm9o31vm1ihh2ex,Q3MEF11I,2020-0188,2021-10-17,09:01:08,10:32:37,NA,incomplete,false,NA,true,5,6,NA,NA,NA,left,absent,NA,NA,m_s_026.jpg,white,m_l_060.jpg,green,between,NA,NaN,NA,right,2553.300001144409,0,0,3388.300001144409
Q3MEF11I,3uy4pis8ruyxp7v852m6xfad2fzn1g,3z2r0dq0jlr276ylm9o31vm1ihh2ex,Q3MEF11I,2020-0188,2021-10-17,09:01:08,10:32:37,NA,incomplete,false,NA,true,5,7,NA,NA,NA,left,absent,NA,NA,m_l_069.jpg,green,m_l_002.jpg,black,between,NA,NaN,NA,left,5728.60000038147,1,1,1678.7000007629395
Q3MEF11I,3uy4pis8ruyxp7v852m6xfad2fzn1g,3z2r0dq0jlr276ylm9o31vm1ihh2ex,Q3MEF11I,2020-0188,2021-10-17,09:01:08,10:32:37,NA,incomplete,false,NA,true,5,8,NA,NA,NA,right,absent,NA,NA,n_l_111.jpg,purple,n_l_110.jpg,purple,within,NA,NaN,NA,right,5605.60000038147,1,1,2672.599998474121
Q3MEF11I,3uy4pis8ruyxp7v852m6xfad2fzn1g,3z2r0dq0jlr276ylm9o31vm1ihh2ex,Q3MEF11I,2020-0188,2021-10-17,09:01:08,10:32:37,NA,incomplete,false,NA,true,5,9,NA,NA,NA,right,absent,NA,NA,n_s_010.jpg,white,n_s_058.jpg,brown,between,NA,NaN,NA,left,4529,0,1,2196.199998855591
Q3MEF11I,3uy4pis8ruyxp7v852m6xfad2fzn1g,3z2r0dq0jlr276ylm9o31vm1ihh2ex,Q3MEF11I,2020-0188,2021-10-17,09:01:08,10:32:37,NA,incomplete,false,NA,true,5,10,NA,NA,NA,left,absent,NA,NA,m_l_073.jpg,brown,n_s_071.jpg,brown,within,NA,NaN,NA,right,6921.700000762939,0,0,1527.5
Q3MEF11I,3uy4pis8ruyxp7v852m6xfad2fzn1g,3z2r0dq0jlr276ylm9o31vm1ihh2ex,Q3MEF11I,2020-0188,2021-10-17,09:01:08,10:32:37,NA,incomplete,false,true,NA,6,0,NA,gray,n_s_029.jpg,NA,NA,unpleasant,pleasant,NA,NA,NA,NA,NA,right,2658.5,true,NA,NA,NA,NA,NA
Q3MEF11I,3uy4pis8ruyxp7v852m6xfad2fzn1g,3z2r0dq0jlr276ylm9o31vm1ihh2ex,Q3MEF11I,2020-0188,2021-10-17,09:01:08,10:32:37,NA,incomplete,false,true,NA,6,1,NA,gray,n_s_092.jpg,NA,NA,pleasant,unpleasant,NA,NA,NA,NA,NA,left,1799.5,true,NA,NA,NA,NA,NA
Q3MEF11I,3uy4pis8ruyxp7v852m6xfad2fzn1g,3z2r0dq0jlr276ylm9o31vm1ihh2ex,Q3MEF11I,2020-0188,2021-10-17,09:01:08,10:32:37,NA,incomplete,false,true,NA,6,2,NA,gray,n_s_080.jpg,NA,NA,unpleasant,pleasant,NA,NA,NA,NA,NA,left,2619.5,true,NA,NA,NA,NA,NA
Q3MEF11I,3uy4pis8ruyxp7v852m6xfad2fzn1g,3z2r0dq0jlr276ylm9o31vm1ihh2ex,Q3MEF11I,2020-0188,2021-10-17,09:01:08,10:32:37,NA,incomplete,false,true,NA,6,3,NA,gray,m_l_114.jpg,NA,NA,unpleasant,pleasant,NA,NA,NA,NA,NA,right,1744.39999961853,true,NA,NA,NA,NA,NA
Q3MEF11I,3uy4pis8ruyxp7v852m6xfad2fzn1g,3z2r0dq0jlr276ylm9o31vm1ihh2ex,Q3MEF11I,2020-0188,2021-10-17,09:01:08,10:32:37,NA,incomplete,false,true,NA,6,4,NA,gray,n_s_026.jpg,NA,NA,pleasant,unpleasant,NA,NA,NA,NA,NA,right,1644.29999923706,true,NA,NA,NA,NA,NA
Q3MEF11I,3uy4pis8ruyxp7v852m6xfad2fzn1g,3z2r0dq0jlr276ylm9o31vm1ihh2ex,Q3MEF11I,2020-0188,2021-10-17,09:01:08,10:32:37,NA,incomplete,false,true,NA,6,5,NA,gray,m_l_097.jpg,NA,NA,pleasant,unpleasant,NA,NA,NA,NA,NA,left,1455,true,NA,NA,NA,NA,NA
Q3MEF11I,3uy4pis8ruyxp7v852m6xfad2fzn1g,3z2r0dq0jlr276ylm9o31vm1ihh2ex,Q3MEF11I,2020-0188,2021-10-17,09:01:08,10:32:37,NA,incomplete,false,true,NA,6,6,NA,orange,m_l_015.jpg,NA,NA,unpleasant,pleasant,NA,NA,NA,NA,NA,right,1271.10000038147,true,NA,NA,NA,NA,NA
Q3MEF11I,3uy4pis8ruyxp7v852m6xfad2fzn1g,3z2r0dq0jlr276ylm9o31vm1ihh2ex,Q3MEF11I,2020-0188,2021-10-17,09:01:08,10:32:37,NA,incomplete,false,true,NA,6,7,NA,orange,n_s_021.jpg,NA,NA,unpleasant,pleasant,NA,NA,NA,NA,NA,right,2596,true,NA,NA,NA,NA,NA
Q3MEF11I,3uy4pis8ruyxp7v852m6xfad2fzn1g,3z2r0dq0jlr276ylm9o31vm1ihh2ex,Q3MEF11I,2020-0188,2021-10-17,09:01:08,10:32:37,NA,incomplete,false,true,NA,6,8,NA,orange,m_l_025.jpg,NA,NA,pleasant,unpleasant,NA,NA,NA,NA,NA,left,1647.70000076294,true,NA,NA,NA,NA,NA
Q3MEF11I,3uy4pis8ruyxp7v852m6xfad2fzn1g,3z2r0dq0jlr276ylm9o31vm1ihh2ex,Q3MEF11I,2020-0188,2021-10-17,09:01:08,10:32:37,NA,incomplete,false,true,NA,6,9,NA,orange,m_s_066.jpg,NA,NA,unpleasant,pleasant,NA,NA,NA,NA,NA,right,2095.60000038147,true,NA,NA,NA,NA,NA
Q3MEF11I,3uy4pis8ruyxp7v852m6xfad2fzn1g,3z2r0dq0jlr276ylm9o31vm1ihh2ex,Q3MEF11I,2020-0188,2021-10-17,09:01:08,10:32:37,NA,incomplete,false,true,NA,6,10,NA,orange,n_l_087.jpg,NA,NA,unpleasant,pleasant,NA,NA,NA,NA,NA,right,2062.39999961853,true,NA,NA,NA,NA,NA
Q3MEF11I,3uy4pis8ruyxp7v852m6xfad2fzn1g,3z2r0dq0jlr276ylm9o31vm1ihh2ex,Q3MEF11I,2020-0188,2021-10-17,09:01:08,10:32:37,NA,incomplete,false,true,NA,6,11,NA,orange,m_l_014.jpg,NA,NA,unpleasant,pleasant,NA,NA,NA,NA,NA,right,2351.59999847412,true,NA,NA,NA,NA,NA
Q3MEF11I,3uy4pis8ruyxp7v852m6xfad2fzn1g,3z2r0dq0jlr276ylm9o31vm1ihh2ex,Q3MEF11I,2020-0188,2021-10-17,09:01:08,10:32:37,NA,incomplete,false,true,NA,6,12,NA,white,m_l_044.jpg,NA,NA,unpleasant,pleasant,NA,NA,NA,NA,NA,right,1522.19999885559,true,NA,NA,NA,NA,NA
Q3MEF11I,3uy4pis8ruyxp7v852m6xfad2fzn1g,3z2r0dq0jlr276ylm9o31vm1ihh2ex,Q3MEF11I,2020-0188,2021-10-17,09:01:08,10:32:37,NA,incomplete,false,true,NA,6,13,NA,white,n_s_049.jpg,NA,NA,pleasant,unpleasant,NA,NA,NA,NA,NA,left,2591,true,NA,NA,NA,NA,NA
Q3MEF11I,3uy4pis8ruyxp7v852m6xfad2fzn1g,3z2r0dq0jlr276ylm9o31vm1ihh2ex,Q3MEF11I,2020-0188,2021-10-17,09:01:08,10:32:37,NA,incomplete,false,true,NA,6,14,NA,white,n_l_011.jpg,NA,NA,unpleasant,pleasant,NA,NA,NA,NA,NA,right,1723.89999961853,true,NA,NA,NA,NA,NA
Q3MEF11I,3uy4pis8ruyxp7v852m6xfad2fzn1g,3z2r0dq0jlr276ylm9o31vm1ihh2ex,Q3MEF11I,2020-0188,2021-10-17,09:01:08,10:32:37,NA,incomplete,false,true,NA,6,15,NA,white,m_s_001.jpg,NA,NA,pleasant,unpleasant,NA,NA,NA,NA,NA,left,1826.89999961853,true,NA,NA,NA,NA,NA
Q3MEF11I,3uy4pis8ruyxp7v852m6xfad2fzn1g,3z2r0dq0jlr276ylm9o31vm1ihh2ex,Q3MEF11I,2020-0188,2021-10-17,09:01:08,10:32:37,NA,incomplete,false,true,NA,6,16,NA,white,n_s_031.jpg,NA,NA,unpleasant,pleasant,NA,NA,NA,NA,NA,right,1890.10000038147,true,NA,NA,NA,NA,NA
Q3MEF11I,3uy4pis8ruyxp7v852m6xfad2fzn1g,3z2r0dq0jlr276ylm9o31vm1ihh2ex,Q3MEF11I,2020-0188,2021-10-17,09:01:08,10:32:37,NA,incomplete,false,true,NA,6,17,NA,white,n_s_038.jpg,NA,NA,pleasant,unpleasant,NA,NA,NA,NA,NA,left,2412.79999923706,true,NA,NA,NA,NA,NA
Q3MEF11I,3uy4pis8ruyxp7v852m6xfad2fzn1g,3z2r0dq0jlr276ylm9o31vm1ihh2ex,Q3MEF11I,2020-0188,2021-10-17,09:01:08,10:32:37,NA,incomplete,false,true,NA,6,18,NA,blue,m_l_096.jpg,NA,NA,unpleasant,pleasant,NA,NA,NA,NA,NA,right,1800.39999961853,true,NA,NA,NA,NA,NA
Q3MEF11I,3uy4pis8ruyxp7v852m6xfad2fzn1g,3z2r0dq0jlr276ylm9o31vm1ihh2ex,Q3MEF11I,2020-0188,2021-10-17,09:01:08,10:32:37,NA,incomplete,false,true,NA,6,19,NA,blue,n_l_003.jpg,NA,NA,unpleasant,pleasant,NA,NA,NA,NA,NA,right,1719.29999923706,true,NA,NA,NA,NA,NA
Q3MEF11I,3uy4pis8ruyxp7v852m6xfad2fzn1g,3z2r0dq0jlr276ylm9o31vm1ihh2ex,Q3MEF11I,2020-0188,2021-10-17,09:01:08,10:32:37,NA,incomplete,false,true,NA,6,20,NA,blue,m_l_016.jpg,NA,NA,pleasant,unpleasant,NA,NA,NA,NA,NA,left,2145.80000114441,true,NA,NA,NA,NA,NA
Q3MEF11I,3uy4pis8ruyxp7v852m6xfad2fzn1g,3z2r0dq0jlr276ylm9o31vm1ihh2ex,Q3MEF11I,2020-0188,2021-10-17,09:01:08,10:32:37,NA,incomplete,false,true,NA,6,21,NA,blue,m_s_050.jpg,NA,NA,unpleasant,pleasant,NA,NA,NA,NA,NA,right,1711.5,true,NA,NA,NA,NA,NA
Q3MEF11I,3uy4pis8ruyxp7v852m6xfad2fzn1g,3z2r0dq0jlr276ylm9o31vm1ihh2ex,Q3MEF11I,2020-0188,2021-10-17,09:01:08,10:32:37,NA,incomplete,false,true,NA,6,22,NA,blue,m_s_057.jpg,NA,NA,unpleasant,pleasant,NA,NA,NA,NA,NA,right,1579.5,true,NA,NA,NA,NA,NA
Q3MEF11I,3uy4pis8ruyxp7v852m6xfad2fzn1g,3z2r0dq0jlr276ylm9o31vm1ihh2ex,Q3MEF11I,2020-0188,2021-10-17,09:01:08,10:32:37,NA,incomplete,false,true,NA,6,23,NA,blue,n_s_061.jpg,NA,NA,pleasant,unpleasant,NA,NA,NA,NA,NA,left,1549.89999961853,true,NA,NA,NA,NA,NA
Q3MEF11I,3uy4pis8ruyxp7v852m6xfad2fzn1g,3z2r0dq0jlr276ylm9o31vm1ihh2ex,Q3MEF11I,2020-0188,2021-10-17,09:01:08,10:32:37,NA,incomplete,false,true,NA,6,24,NA,black,n_l_023.jpg,NA,NA,unpleasant,pleasant,NA,NA,NA,NA,NA,right,1644.39999961853,true,NA,NA,NA,NA,NA
Q3MEF11I,3uy4pis8ruyxp7v852m6xfad2fzn1g,3z2r0dq0jlr276ylm9o31vm1ihh2ex,Q3MEF11I,2020-0188,2021-10-17,09:01:08,10:32:37,NA,incomplete,false,true,NA,6,25,NA,black,m_l_084.jpg,NA,NA,pleasant,unpleasant,NA,NA,NA,NA,NA,left,1873.39999961853,true,NA,NA,NA,NA,NA
Q3MEF11I,3uy4pis8ruyxp7v852m6xfad2fzn1g,3z2r0dq0jlr276ylm9o31vm1ihh2ex,Q3MEF11I,2020-0188,2021-10-17,09:01:08,10:32:37,NA,incomplete,false,true,NA,6,26,NA,black,n_s_057.jpg,NA,NA,pleasant,unpleasant,NA,NA,NA,NA,NA,right,2324.70000076294,true,NA,NA,NA,NA,NA
Q3MEF11I,3uy4pis8ruyxp7v852m6xfad2fzn1g,3z2r0dq0jlr276ylm9o31vm1ihh2ex,Q3MEF11I,2020-0188,2021-10-17,09:01:08,10:32:37,NA,incomplete,false,true,NA,6,27,NA,black,m_l_117.jpg,NA,NA,pleasant,unpleasant,NA,NA,NA,NA,NA,left,1654.20000076294,true,NA,NA,NA,NA,NA
Q3MEF11I,3uy4pis8ruyxp7v852m6xfad2fzn1g,3z2r0dq0jlr276ylm9o31vm1ihh2ex,Q3MEF11I,2020-0188,2021-10-17,09:01:08,10:32:37,NA,incomplete,false,true,NA,6,28,NA,black,n_l_070.jpg,NA,NA,unpleasant,pleasant,NA,NA,NA,NA,NA,right,1496.40000152588,true,NA,NA,NA,NA,NA
Q3MEF11I,3uy4pis8ruyxp7v852m6xfad2fzn1g,3z2r0dq0jlr276ylm9o31vm1ihh2ex,Q3MEF11I,2020-0188,2021-10-17,09:01:08,10:32:37,NA,incomplete,false,true,NA,6,29,NA,black,m_l_090.jpg,NA,NA,unpleasant,pleasant,NA,NA,NA,NA,NA,right,1650.5,true,NA,NA,NA,NA,NA
Q3MEF11I,3uy4pis8ruyxp7v852m6xfad2fzn1g,3z2r0dq0jlr276ylm9o31vm1ihh2ex,Q3MEF11I,2020-0188,2021-10-17,09:01:08,10:32:37,NA,incomplete,false,true,NA,6,30,NA,brown,n_l_101.jpg,NA,NA,unpleasant,pleasant,NA,NA,NA,NA,NA,right,2004.69999885559,true,NA,NA,NA,NA,NA
Q3MEF11I,3uy4pis8ruyxp7v852m6xfad2fzn1g,3z2r0dq0jlr276ylm9o31vm1ihh2ex,Q3MEF11I,2020-0188,2021-10-17,09:01:08,10:32:37,NA,incomplete,false,true,NA,6,31,NA,brown,n_l_017.jpg,NA,NA,unpleasant,pleasant,NA,NA,NA,NA,NA,left,2627,true,NA,NA,NA,NA,NA
Q3MEF11I,3uy4pis8ruyxp7v852m6xfad2fzn1g,3z2r0dq0jlr276ylm9o31vm1ihh2ex,Q3MEF11I,2020-0188,2021-10-17,09:01:08,10:32:37,NA,incomplete,false,true,NA,6,32,NA,brown,n_s_013.jpg,NA,NA,unpleasant,pleasant,NA,NA,NA,NA,NA,right,1466.5,true,NA,NA,NA,NA,NA
Q3MEF11I,3uy4pis8ruyxp7v852m6xfad2fzn1g,3z2r0dq0jlr276ylm9o31vm1ihh2ex,Q3MEF11I,2020-0188,2021-10-17,09:01:08,10:32:37,NA,incomplete,false,true,NA,6,33,NA,brown,n_s_068.jpg,NA,NA,unpleasant,pleasant,NA,NA,NA,NA,NA,right,1884.10000038147,true,NA,NA,NA,NA,NA
Q3MEF11I,3uy4pis8ruyxp7v852m6xfad2fzn1g,3z2r0dq0jlr276ylm9o31vm1ihh2ex,Q3MEF11I,2020-0188,2021-10-17,09:01:08,10:32:37,NA,incomplete,false,true,NA,6,34,NA,brown,m_s_014.jpg,NA,NA,unpleasant,pleasant,NA,NA,NA,NA,NA,right,1684,true,NA,NA,NA,NA,NA
Q3MEF11I,3uy4pis8ruyxp7v852m6xfad2fzn1g,3z2r0dq0jlr276ylm9o31vm1ihh2ex,Q3MEF11I,2020-0188,2021-10-17,09:01:08,10:32:37,NA,incomplete,false,true,NA,6,35,NA,brown,n_s_088.jpg,NA,NA,pleasant,unpleasant,NA,NA,NA,NA,NA,left,1790.5,true,NA,NA,NA,NA,NA
Q3MEF11I,3uy4pis8ruyxp7v852m6xfad2fzn1g,3z2r0dq0jlr276ylm9o31vm1ihh2ex,Q3MEF11I,2020-0188,2021-10-17,09:01:08,10:32:37,NA,incomplete,false,NA,true,6,0,NA,NA,NA,right,present,NA,NA,n_s_088.jpg,brown,n_l_017.jpg,brown,within,NA,NaN,NA,left,4452.199998855591,0,1,2326
Q3MEF11I,3uy4pis8ruyxp7v852m6xfad2fzn1g,3z2r0dq0jlr276ylm9o31vm1ihh2ex,Q3MEF11I,2020-0188,2021-10-17,09:01:08,10:32:37,NA,incomplete,false,NA,true,6,1,NA,NA,NA,right,present,NA,NA,m_l_016.jpg,blue,n_s_031.jpg,white,between,NA,NaN,NA,left,3135.5,0,1,3304.2999992370605
Q3MEF11I,3uy4pis8ruyxp7v852m6xfad2fzn1g,3z2r0dq0jlr276ylm9o31vm1ihh2ex,Q3MEF11I,2020-0188,2021-10-17,09:01:08,10:32:37,NA,incomplete,false,NA,true,6,2,NA,NA,NA,right,present,NA,NA,n_s_013.jpg,brown,n_l_070.jpg,black,between,NA,NaN,NA,right,3239.3999996185303,1,1,2386.900001525879
Q3MEF11I,3uy4pis8ruyxp7v852m6xfad2fzn1g,3z2r0dq0jlr276ylm9o31vm1ihh2ex,Q3MEF11I,2020-0188,2021-10-17,09:01:08,10:32:37,NA,incomplete,false,NA,true,6,3,NA,NA,NA,left,present,NA,NA,n_s_049.jpg,white,n_s_038.jpg,white,within,NA,NaN,NA,right,3716.800001144409,0,1,3097.2999992370605
Q3MEF11I,3uy4pis8ruyxp7v852m6xfad2fzn1g,3z2r0dq0jlr276ylm9o31vm1ihh2ex,Q3MEF11I,2020-0188,2021-10-17,09:01:08,10:32:37,NA,incomplete,false,NA,true,6,4,NA,NA,NA,left,present,NA,NA,m_l_084.jpg,black,m_l_090.jpg,black,within,NA,NaN,NA,left,5125.60000038147,1,1,2250.300001144409
Q3MEF11I,3uy4pis8ruyxp7v852m6xfad2fzn1g,3z2r0dq0jlr276ylm9o31vm1ihh2ex,Q3MEF11I,2020-0188,2021-10-17,09:01:08,10:32:37,NA,incomplete,false,NA,true,6,5,NA,NA,NA,right,present,NA,NA,m_l_025.jpg,orange,n_s_026.jpg,gray,between,NA,NaN,NA,left,4494.900001525879,0,1,1803.900001525879
Q3MEF11I,3uy4pis8ruyxp7v852m6xfad2fzn1g,3z2r0dq0jlr276ylm9o31vm1ihh2ex,Q3MEF11I,2020-0188,2021-10-17,09:01:08,10:32:37,NA,incomplete,false,NA,true,6,6,NA,NA,NA,right,present,NA,NA,m_l_097.jpg,gray,n_s_092.jpg,gray,within,NA,NaN,NA,left,4575.099998474121,0,0,2047.6000003814697
Q3MEF11I,3uy4pis8ruyxp7v852m6xfad2fzn1g,3z2r0dq0jlr276ylm9o31vm1ihh2ex,Q3MEF11I,2020-0188,2021-10-17,09:01:08,10:32:37,NA,incomplete,false,NA,true,6,7,NA,NA,NA,right,present,NA,NA,n_s_057.jpg,black,m_s_057.jpg,blue,between,NA,NaN,NA,left,8667.5,0,2,2081
Q3MEF11I,3uy4pis8ruyxp7v852m6xfad2fzn1g,3z2r0dq0jlr276ylm9o31vm1ihh2ex,Q3MEF11I,2020-0188,2021-10-17,09:01:08,10:32:37,NA,incomplete,false,NA,true,6,8,NA,NA,NA,left,present,NA,NA,n_l_003.jpg,blue,n_s_061.jpg,blue,within,NA,NaN,NA,right,4647.299999237061,0,1,2435.7999992370605
Q3MEF11I,3uy4pis8ruyxp7v852m6xfad2fzn1g,3z2r0dq0jlr276ylm9o31vm1ihh2ex,Q3MEF11I,2020-0188,2021-10-17,09:01:08,10:32:37,NA,incomplete,false,NA,true,6,9,NA,NA,NA,left,present,NA,NA,n_l_087.jpg,orange,n_l_011.jpg,white,between,NA,NaN,NA,left,4630.299999237061,1,1,1995.6000003814697
Q3MEF11I,3uy4pis8ruyxp7v852m6xfad2fzn1g,3z2r0dq0jlr276ylm9o31vm1ihh2ex,Q3MEF11I,2020-0188,2021-10-17,09:01:08,10:32:37,NA,incomplete,false,NA,true,6,10,NA,NA,NA,right,present,NA,NA,m_l_014.jpg,orange,n_s_021.jpg,orange,within,NA,NaN,NA,right,4411.60000038147,1,1,2185.6000003814697
Q3MEF11I,3uy4pis8ruyxp7v852m6xfad2fzn1g,3z2r0dq0jlr276ylm9o31vm1ihh2ex,Q3MEF11I,2020-0188,2021-10-17,09:01:08,10:32:37,NA,incomplete,false,true,NA,7,0,NA,blue,n_s_005.jpg,NA,NA,unpleasant,pleasant,NA,NA,NA,NA,NA,right,3104,true,NA,NA,NA,NA,NA
Q3MEF11I,3uy4pis8ruyxp7v852m6xfad2fzn1g,3z2r0dq0jlr276ylm9o31vm1ihh2ex,Q3MEF11I,2020-0188,2021-10-17,09:01:08,10:32:37,NA,incomplete,false,true,NA,7,1,NA,blue,m_l_039.jpg,NA,NA,pleasant,unpleasant,NA,NA,NA,NA,NA,left,1887.20000076294,true,NA,NA,NA,NA,NA
Q3MEF11I,3uy4pis8ruyxp7v852m6xfad2fzn1g,3z2r0dq0jlr276ylm9o31vm1ihh2ex,Q3MEF11I,2020-0188,2021-10-17,09:01:08,10:32:37,NA,incomplete,false,true,NA,7,2,NA,blue,n_l_066.jpg,NA,NA,pleasant,unpleasant,NA,NA,NA,NA,NA,left,2765.79999923706,true,NA,NA,NA,NA,NA
Q3MEF11I,3uy4pis8ruyxp7v852m6xfad2fzn1g,3z2r0dq0jlr276ylm9o31vm1ihh2ex,Q3MEF11I,2020-0188,2021-10-17,09:01:08,10:32:37,NA,incomplete,false,true,NA,7,3,NA,blue,m_l_066.jpg,NA,NA,unpleasant,pleasant,NA,NA,NA,NA,NA,right,3181.5,true,NA,NA,NA,NA,NA
Q3MEF11I,3uy4pis8ruyxp7v852m6xfad2fzn1g,3z2r0dq0jlr276ylm9o31vm1ihh2ex,Q3MEF11I,2020-0188,2021-10-17,09:01:08,10:32:37,NA,incomplete,false,true,NA,7,4,NA,blue,m_l_083.jpg,NA,NA,unpleasant,pleasant,NA,NA,NA,NA,NA,right,1933.89999961853,true,NA,NA,NA,NA,NA
Q3MEF11I,3uy4pis8ruyxp7v852m6xfad2fzn1g,3z2r0dq0jlr276ylm9o31vm1ihh2ex,Q3MEF11I,2020-0188,2021-10-17,09:01:08,10:32:37,NA,incomplete,false,true,NA,7,5,NA,blue,m_l_037.jpg,NA,NA,pleasant,unpleasant,NA,NA,NA,NA,NA,left,1998,true,NA,NA,NA,NA,NA
Q3MEF11I,3uy4pis8ruyxp7v852m6xfad2fzn1g,3z2r0dq0jlr276ylm9o31vm1ihh2ex,Q3MEF11I,2020-0188,2021-10-17,09:01:08,10:32:37,NA,incomplete,false,true,NA,7,6,NA,yellow,m_s_044.jpg,NA,NA,unpleasant,pleasant,NA,NA,NA,NA,NA,right,2063,true,NA,NA,NA,NA,NA
Q3MEF11I,3uy4pis8ruyxp7v852m6xfad2fzn1g,3z2r0dq0jlr276ylm9o31vm1ihh2ex,Q3MEF11I,2020-0188,2021-10-17,09:01:08,10:32:37,NA,incomplete,false,true,NA,7,7,NA,yellow,n_s_064.jpg,NA,NA,unpleasant,pleasant,NA,NA,NA,NA,NA,right,1731.5,true,NA,NA,NA,NA,NA
Q3MEF11I,3uy4pis8ruyxp7v852m6xfad2fzn1g,3z2r0dq0jlr276ylm9o31vm1ihh2ex,Q3MEF11I,2020-0188,2021-10-17,09:01:08,10:32:37,NA,incomplete,false,true,NA,7,8,NA,yellow,m_s_059.jpg,NA,NA,unpleasant,pleasant,NA,NA,NA,NA,NA,right,1738.90000152588,true,NA,NA,NA,NA,NA
Q3MEF11I,3uy4pis8ruyxp7v852m6xfad2fzn1g,3z2r0dq0jlr276ylm9o31vm1ihh2ex,Q3MEF11I,2020-0188,2021-10-17,09:01:08,10:32:37,NA,incomplete,false,true,NA,7,9,NA,yellow,n_l_080.jpg,NA,NA,pleasant,unpleasant,NA,NA,NA,NA,NA,left,1805.80000114441,true,NA,NA,NA,NA,NA
Q3MEF11I,3uy4pis8ruyxp7v852m6xfad2fzn1g,3z2r0dq0jlr276ylm9o31vm1ihh2ex,Q3MEF11I,2020-0188,2021-10-17,09:01:08,10:32:37,NA,incomplete,false,true,NA,7,10,NA,yellow,n_s_011.jpg,NA,NA,pleasant,unpleasant,NA,NA,NA,NA,NA,left,1563.80000114441,true,NA,NA,NA,NA,NA
Q3MEF11I,3uy4pis8ruyxp7v852m6xfad2fzn1g,3z2r0dq0jlr276ylm9o31vm1ihh2ex,Q3MEF11I,2020-0188,2021-10-17,09:01:08,10:32:37,NA,incomplete,false,true,NA,7,11,NA,yellow,n_l_095.jpg,NA,NA,unpleasant,pleasant,NA,NA,NA,NA,NA,right,1999.89999961853,true,NA,NA,NA,NA,NA
Q3MEF11I,3uy4pis8ruyxp7v852m6xfad2fzn1g,3z2r0dq0jlr276ylm9o31vm1ihh2ex,Q3MEF11I,2020-0188,2021-10-17,09:01:08,10:32:37,NA,incomplete,false,true,NA,7,12,NA,gray,m_l_113.jpg,NA,NA,unpleasant,pleasant,NA,NA,NA,NA,NA,right,2049.80000114441,true,NA,NA,NA,NA,NA
Q3MEF11I,3uy4pis8ruyxp7v852m6xfad2fzn1g,3z2r0dq0jlr276ylm9o31vm1ihh2ex,Q3MEF11I,2020-0188,2021-10-17,09:01:08,10:32:37,NA,incomplete,false,true,NA,7,13,NA,gray,n_l_067.jpg,NA,NA,unpleasant,pleasant,NA,NA,NA,NA,NA,right,2416.59999847412,true,NA,NA,NA,NA,NA
Q3MEF11I,3uy4pis8ruyxp7v852m6xfad2fzn1g,3z2r0dq0jlr276ylm9o31vm1ihh2ex,Q3MEF11I,2020-0188,2021-10-17,09:01:08,10:32:37,NA,incomplete,false,true,NA,7,14,NA,gray,n_s_105.jpg,NA,NA,unpleasant,pleasant,NA,NA,NA,NA,NA,right,1646.59999847412,true,NA,NA,NA,NA,NA
Q3MEF11I,3uy4pis8ruyxp7v852m6xfad2fzn1g,3z2r0dq0jlr276ylm9o31vm1ihh2ex,Q3MEF11I,2020-0188,2021-10-17,09:01:08,10:32:37,NA,incomplete,false,true,NA,7,15,NA,gray,m_s_084.jpg,NA,NA,unpleasant,pleasant,NA,NA,NA,NA,NA,none,0,false,NA,NA,NA,NA,NA
Q3MEF11I,3uy4pis8ruyxp7v852m6xfad2fzn1g,3z2r0dq0jlr276ylm9o31vm1ihh2ex,Q3MEF11I,2020-0188,2021-10-17,09:01:08,10:32:37,NA,incomplete,false,true,NA,7,16,NA,gray,n_s_066.jpg,NA,NA,unpleasant,pleasant,NA,NA,NA,NA,NA,right,2585.09999847412,true,NA,NA,NA,NA,NA
Q3MEF11I,3uy4pis8ruyxp7v852m6xfad2fzn1g,3z2r0dq0jlr276ylm9o31vm1ihh2ex,Q3MEF11I,2020-0188,2021-10-17,09:01:08,10:32:37,NA,incomplete,false,true,NA,7,17,NA,gray,n_l_075.jpg,NA,NA,unpleasant,pleasant,NA,NA,NA,NA,NA,right,1682.59999847412,true,NA,NA,NA,NA,NA
Q3MEF11I,3uy4pis8ruyxp7v852m6xfad2fzn1g,3z2r0dq0jlr276ylm9o31vm1ihh2ex,Q3MEF11I,2020-0188,2021-10-17,09:01:08,10:32:37,NA,incomplete,false,true,NA,7,18,NA,brown,n_s_019.jpg,NA,NA,pleasant,unpleasant,NA,NA,NA,NA,NA,left,1841.39999961853,true,NA,NA,NA,NA,NA
Q3MEF11I,3uy4pis8ruyxp7v852m6xfad2fzn1g,3z2r0dq0jlr276ylm9o31vm1ihh2ex,Q3MEF11I,2020-0188,2021-10-17,09:01:08,10:32:37,NA,incomplete,false,true,NA,7,19,NA,brown,n_s_065.jpg,NA,NA,unpleasant,pleasant,NA,NA,NA,NA,NA,left,2453.89999961853,true,NA,NA,NA,NA,NA
Q3MEF11I,3uy4pis8ruyxp7v852m6xfad2fzn1g,3z2r0dq0jlr276ylm9o31vm1ihh2ex,Q3MEF11I,2020-0188,2021-10-17,09:01:08,10:32:37,NA,incomplete,false,true,NA,7,20,NA,brown,m_s_036.jpg,NA,NA,pleasant,unpleasant,NA,NA,NA,NA,NA,left,2291.29999923706,true,NA,NA,NA,NA,NA
Q3MEF11I,3uy4pis8ruyxp7v852m6xfad2fzn1g,3z2r0dq0jlr276ylm9o31vm1ihh2ex,Q3MEF11I,2020-0188,2021-10-17,09:01:08,10:32:37,NA,incomplete,false,true,NA,7,21,NA,brown,n_l_083.jpg,NA,NA,unpleasant,pleasant,NA,NA,NA,NA,NA,left,2226.39999961853,true,NA,NA,NA,NA,NA
Q3MEF11I,3uy4pis8ruyxp7v852m6xfad2fzn1g,3z2r0dq0jlr276ylm9o31vm1ihh2ex,Q3MEF11I,2020-0188,2021-10-17,09:01:08,10:32:37,NA,incomplete,false,true,NA,7,22,NA,brown,m_l_027.jpg,NA,NA,unpleasant,pleasant,NA,NA,NA,NA,NA,right,1618.5,true,NA,NA,NA,NA,NA
Q3MEF11I,3uy4pis8ruyxp7v852m6xfad2fzn1g,3z2r0dq0jlr276ylm9o31vm1ihh2ex,Q3MEF11I,2020-0188,2021-10-17,09:01:08,10:32:37,NA,incomplete,false,true,NA,7,23,NA,brown,n_s_079.jpg,NA,NA,pleasant,unpleasant,NA,NA,NA,NA,NA,left,2475.69999885559,true,NA,NA,NA,NA,NA
Q3MEF11I,3uy4pis8ruyxp7v852m6xfad2fzn1g,3z2r0dq0jlr276ylm9o31vm1ihh2ex,Q3MEF11I,2020-0188,2021-10-17,09:01:08,10:32:37,NA,incomplete,false,true,NA,7,24,NA,black,n_s_090.jpg,NA,NA,unpleasant,pleasant,NA,NA,NA,NA,NA,right,2366.39999961853,true,NA,NA,NA,NA,NA
Q3MEF11I,3uy4pis8ruyxp7v852m6xfad2fzn1g,3z2r0dq0jlr276ylm9o31vm1ihh2ex,Q3MEF11I,2020-0188,2021-10-17,09:01:08,10:32:37,NA,incomplete,false,true,NA,7,25,NA,black,n_l_005.jpg,NA,NA,unpleasant,pleasant,NA,NA,NA,NA,NA,right,1738.89999961853,true,NA,NA,NA,NA,NA
Q3MEF11I,3uy4pis8ruyxp7v852m6xfad2fzn1g,3z2r0dq0jlr276ylm9o31vm1ihh2ex,Q3MEF11I,2020-0188,2021-10-17,09:01:08,10:32:37,NA,incomplete,false,true,NA,7,26,NA,black,m_s_078.jpg,NA,NA,unpleasant,pleasant,NA,NA,NA,NA,NA,right,1902.5,true,NA,NA,NA,NA,NA
Q3MEF11I,3uy4pis8ruyxp7v852m6xfad2fzn1g,3z2r0dq0jlr276ylm9o31vm1ihh2ex,Q3MEF11I,2020-0188,2021-10-17,09:01:08,10:32:37,NA,incomplete,false,true,NA,7,27,NA,black,m_s_042.jpg,NA,NA,pleasant,unpleasant,NA,NA,NA,NA,NA,left,1640.29999923706,true,NA,NA,NA,NA,NA
Q3MEF11I,3uy4pis8ruyxp7v852m6xfad2fzn1g,3z2r0dq0jlr276ylm9o31vm1ihh2ex,Q3MEF11I,2020-0188,2021-10-17,09:01:08,10:32:37,NA,incomplete,false,true,NA,7,28,NA,black,n_s_091.jpg,NA,NA,unpleasant,pleasant,NA,NA,NA,NA,NA,left,1989.80000114441,true,NA,NA,NA,NA,NA
Q3MEF11I,3uy4pis8ruyxp7v852m6xfad2fzn1g,3z2r0dq0jlr276ylm9o31vm1ihh2ex,Q3MEF11I,2020-0188,2021-10-17,09:01:08,10:32:37,NA,incomplete,false,true,NA,7,29,NA,black,m_s_097.jpg,NA,NA,unpleasant,pleasant,NA,NA,NA,NA,NA,left,1759,true,NA,NA,NA,NA,NA
Q3MEF11I,3uy4pis8ruyxp7v852m6xfad2fzn1g,3z2r0dq0jlr276ylm9o31vm1ihh2ex,Q3MEF11I,2020-0188,2021-10-17,09:01:08,10:32:37,NA,incomplete,false,true,NA,7,30,NA,orange,m_l_012.jpg,NA,NA,unpleasant,pleasant,NA,NA,NA,NA,NA,right,1695.29999923706,true,NA,NA,NA,NA,NA
Q3MEF11I,3uy4pis8ruyxp7v852m6xfad2fzn1g,3z2r0dq0jlr276ylm9o31vm1ihh2ex,Q3MEF11I,2020-0188,2021-10-17,09:01:08,10:32:37,NA,incomplete,false,true,NA,7,31,NA,orange,m_s_083.jpg,NA,NA,pleasant,unpleasant,NA,NA,NA,NA,NA,left,1695.19999885559,true,NA,NA,NA,NA,NA
Q3MEF11I,3uy4pis8ruyxp7v852m6xfad2fzn1g,3z2r0dq0jlr276ylm9o31vm1ihh2ex,Q3MEF11I,2020-0188,2021-10-17,09:01:08,10:32:37,NA,incomplete,false,true,NA,7,32,NA,orange,m_l_092.jpg,NA,NA,unpleasant,pleasant,NA,NA,NA,NA,NA,right,1977.60000038147,true,NA,NA,NA,NA,NA
Q3MEF11I,3uy4pis8ruyxp7v852m6xfad2fzn1g,3z2r0dq0jlr276ylm9o31vm1ihh2ex,Q3MEF11I,2020-0188,2021-10-17,09:01:08,10:32:37,NA,incomplete,false,true,NA,7,33,NA,orange,m_s_028.jpg,NA,NA,unpleasant,pleasant,NA,NA,NA,NA,NA,right,1506.60000038147,true,NA,NA,NA,NA,NA
Q3MEF11I,3uy4pis8ruyxp7v852m6xfad2fzn1g,3z2r0dq0jlr276ylm9o31vm1ihh2ex,Q3MEF11I,2020-0188,2021-10-17,09:01:08,10:32:37,NA,incomplete,false,true,NA,7,34,NA,orange,n_s_033.jpg,NA,NA,pleasant,unpleasant,NA,NA,NA,NA,NA,left,1667.5,true,NA,NA,NA,NA,NA
Q3MEF11I,3uy4pis8ruyxp7v852m6xfad2fzn1g,3z2r0dq0jlr276ylm9o31vm1ihh2ex,Q3MEF11I,2020-0188,2021-10-17,09:01:08,10:32:37,NA,incomplete,false,true,NA,7,35,NA,orange,m_s_101.jpg,NA,NA,pleasant,unpleasant,NA,NA,NA,NA,NA,left,1646.30000114441,true,NA,NA,NA,NA,NA
Q3MEF11I,3uy4pis8ruyxp7v852m6xfad2fzn1g,3z2r0dq0jlr276ylm9o31vm1ihh2ex,Q3MEF11I,2020-0188,2021-10-17,09:01:08,10:32:37,NA,incomplete,false,NA,true,7,0,NA,NA,NA,left,present,NA,NA,m_l_039.jpg,blue,m_l_037.jpg,blue,within,NA,NaN,NA,left,3878.6000003814697,1,1,2270
Q3MEF11I,3uy4pis8ruyxp7v852m6xfad2fzn1g,3z2r0dq0jlr276ylm9o31vm1ihh2ex,Q3MEF11I,2020-0188,2021-10-17,09:01:08,10:32:37,NA,incomplete,false,NA,true,7,1,NA,NA,NA,right,present,NA,NA,n_s_105.jpg,gray,n_s_011.jpg,yellow,between,NA,NaN,NA,left,3307.5,0,0,1777.6999988555908
Q3MEF11I,3uy4pis8ruyxp7v852m6xfad2fzn1g,3z2r0dq0jlr276ylm9o31vm1ihh2ex,Q3MEF11I,2020-0188,2021-10-17,09:01:08,10:32:37,NA,incomplete,false,NA,true,7,2,NA,NA,NA,left,present,NA,NA,n_s_065.jpg,brown,n_s_079.jpg,brown,within,NA,NaN,NA,right,2617.6000003814697,0,0,2607
Q3MEF11I,3uy4pis8ruyxp7v852m6xfad2fzn1g,3z2r0dq0jlr276ylm9o31vm1ihh2ex,Q3MEF11I,2020-0188,2021-10-17,09:01:08,10:32:37,NA,incomplete,false,NA,true,7,3,NA,NA,NA,right,present,NA,NA,n_l_075.jpg,gray,n_l_067.jpg,gray,within,NA,NaN,NA,left,3245.7999992370605,0,1,1133.3000011444092
Q3MEF11I,3uy4pis8ruyxp7v852m6xfad2fzn1g,3z2r0dq0jlr276ylm9o31vm1ihh2ex,Q3MEF11I,2020-0188,2021-10-17,09:01:08,10:32:37,NA,incomplete,false,NA,true,7,4,NA,NA,NA,right,present,NA,NA,n_l_095.jpg,yellow,n_s_064.jpg,yellow,within,NA,NaN,NA,left,3498.199998855591,0,3,2763.7000007629395
Q3MEF11I,3uy4pis8ruyxp7v852m6xfad2fzn1g,3z2r0dq0jlr276ylm9o31vm1ihh2ex,Q3MEF11I,2020-0188,2021-10-17,09:01:08,10:32:37,NA,incomplete,false,NA,true,7,5,NA,NA,NA,left,present,NA,NA,m_s_083.jpg,orange,m_s_101.jpg,orange,within,NA,NaN,NA,left,4038.8999996185303,1,1,2424.7999992370605
Q3MEF11I,3uy4pis8ruyxp7v852m6xfad2fzn1g,3z2r0dq0jlr276ylm9o31vm1ihh2ex,Q3MEF11I,2020-0188,2021-10-17,09:01:08,10:32:37,NA,incomplete,false,NA,true,7,6,NA,NA,NA,right,present,NA,NA,m_s_059.jpg,yellow,m_l_083.jpg,blue,between,NA,NaN,NA,left,3718.800001144409,0,1,1750.6000003814697
Q3MEF11I,3uy4pis8ruyxp7v852m6xfad2fzn1g,3z2r0dq0jlr276ylm9o31vm1ihh2ex,Q3MEF11I,2020-0188,2021-10-17,09:01:08,10:32:37,NA,incomplete,false,NA,true,7,7,NA,NA,NA,left,present,NA,NA,m_l_027.jpg,brown,m_s_078.jpg,black,between,NA,NaN,NA,right,4587.699998855591,0,1,1893.2999992370605
Q3MEF11I,3uy4pis8ruyxp7v852m6xfad2fzn1g,3z2r0dq0jlr276ylm9o31vm1ihh2ex,Q3MEF11I,2020-0188,2021-10-17,09:01:08,10:32:37,NA,incomplete,false,NA,true,7,8,NA,NA,NA,left,present,NA,NA,n_s_091.jpg,black,m_l_092.jpg,orange,between,NA,NaN,NA,right,4063.6000003814697,0,1,3093.7000007629395
Q3MEF11I,3uy4pis8ruyxp7v852m6xfad2fzn1g,3z2r0dq0jlr276ylm9o31vm1ihh2ex,Q3MEF11I,2020-0188,2021-10-17,09:01:08,10:32:37,NA,incomplete,false,NA,true,7,9,NA,NA,NA,right,present,NA,NA,m_s_036.jpg,brown,n_s_066.jpg,gray,between,NA,NaN,NA,left,4573.700000762939,0,1,1850.2000007629395
Q3MEF11I,3uy4pis8ruyxp7v852m6xfad2fzn1g,3z2r0dq0jlr276ylm9o31vm1ihh2ex,Q3MEF11I,2020-0188,2021-10-17,09:01:08,10:32:37,NA,incomplete,false,NA,true,7,10,NA,NA,NA,right,present,NA,NA,m_s_097.jpg,black,n_l_005.jpg,black,within,NA,NaN,NA,right,3461.7000007629395,1,1,1590.8999996185303
Q3MEF11I,3uy4pis8ruyxp7v852m6xfad2fzn1g,3z2r0dq0jlr276ylm9o31vm1ihh2ex,Q3MEF11I,2020-0188,2021-10-17,09:01:08,10:32:37,NA,incomplete,false,true,NA,8,0,NA,gray,m_s_038.jpg,NA,NA,unpleasant,pleasant,NA,NA,NA,NA,NA,right,2275.20000076294,true,NA,NA,NA,NA,NA
Q3MEF11I,3uy4pis8ruyxp7v852m6xfad2fzn1g,3z2r0dq0jlr276ylm9o31vm1ihh2ex,Q3MEF11I,2020-0188,2021-10-17,09:01:08,10:32:37,NA,incomplete,false,true,NA,8,1,NA,gray,n_s_114.jpg,NA,NA,unpleasant,pleasant,NA,NA,NA,NA,NA,right,1608.10000038147,true,NA,NA,NA,NA,NA
Q3MEF11I,3uy4pis8ruyxp7v852m6xfad2fzn1g,3z2r0dq0jlr276ylm9o31vm1ihh2ex,Q3MEF11I,2020-0188,2021-10-17,09:01:08,10:32:37,NA,incomplete,false,true,NA,8,2,NA,gray,n_s_106.jpg,NA,NA,unpleasant,pleasant,NA,NA,NA,NA,NA,right,1493.39999961853,true,NA,NA,NA,NA,NA
Q3MEF11I,3uy4pis8ruyxp7v852m6xfad2fzn1g,3z2r0dq0jlr276ylm9o31vm1ihh2ex,Q3MEF11I,2020-0188,2021-10-17,09:01:08,10:32:37,NA,incomplete,false,true,NA,8,3,NA,gray,n_s_032.jpg,NA,NA,unpleasant,pleasant,NA,NA,NA,NA,NA,left,1543.29999923706,true,NA,NA,NA,NA,NA
Q3MEF11I,3uy4pis8ruyxp7v852m6xfad2fzn1g,3z2r0dq0jlr276ylm9o31vm1ihh2ex,Q3MEF11I,2020-0188,2021-10-17,09:01:08,10:32:37,NA,incomplete,false,true,NA,8,4,NA,gray,n_l_018.jpg,NA,NA,unpleasant,pleasant,NA,NA,NA,NA,NA,left,2516.30000114441,true,NA,NA,NA,NA,NA
Q3MEF11I,3uy4pis8ruyxp7v852m6xfad2fzn1g,3z2r0dq0jlr276ylm9o31vm1ihh2ex,Q3MEF11I,2020-0188,2021-10-17,09:01:08,10:32:37,NA,incomplete,false,true,NA,8,5,NA,gray,n_s_069.jpg,NA,NA,pleasant,unpleasant,NA,NA,NA,NA,NA,left,1860.60000038147,true,NA,NA,NA,NA,NA
Q3MEF11I,3uy4pis8ruyxp7v852m6xfad2fzn1g,3z2r0dq0jlr276ylm9o31vm1ihh2ex,Q3MEF11I,2020-0188,2021-10-17,09:01:08,10:32:37,NA,incomplete,false,true,NA,8,6,NA,green,n_l_108.jpg,NA,NA,unpleasant,pleasant,NA,NA,NA,NA,NA,left,3290.80000114441,true,NA,NA,NA,NA,NA
Q3MEF11I,3uy4pis8ruyxp7v852m6xfad2fzn1g,3z2r0dq0jlr276ylm9o31vm1ihh2ex,Q3MEF11I,2020-0188,2021-10-17,09:01:08,10:32:37,NA,incomplete,false,true,NA,8,7,NA,green,m_l_094.jpg,NA,NA,unpleasant,pleasant,NA,NA,NA,NA,NA,right,2250.20000076294,true,NA,NA,NA,NA,NA
Q3MEF11I,3uy4pis8ruyxp7v852m6xfad2fzn1g,3z2r0dq0jlr276ylm9o31vm1ihh2ex,Q3MEF11I,2020-0188,2021-10-17,09:01:08,10:32:37,NA,incomplete,false,true,NA,8,8,NA,green,m_s_077.jpg,NA,NA,pleasant,unpleasant,NA,NA,NA,NA,NA,left,2028.70000076294,true,NA,NA,NA,NA,NA
Q3MEF11I,3uy4pis8ruyxp7v852m6xfad2fzn1g,3z2r0dq0jlr276ylm9o31vm1ihh2ex,Q3MEF11I,2020-0188,2021-10-17,09:01:08,10:32:37,NA,incomplete,false,true,NA,8,9,NA,green,n_l_068.jpg,NA,NA,unpleasant,pleasant,NA,NA,NA,NA,NA,right,1725.10000038147,true,NA,NA,NA,NA,NA
