workerId,hitId,assignmentId,subject,studyid,exp_date,exp_start,exp_end,time_start,time_end,practice,encoding,memory,block,trial,event_order,event,stim,answer,context_type,label_left,label_right,left_image,left_event,right_image,right_event,condition,response,response_time,response_acc,order_response,order_response_time,order_acc,distance_response,distance_response_time
qpvcPEND,344m16ozllsw98pkhqhl4zt7rn1nev,3luy3gc633ddqykh1zl9ry2d7x97pt,qpvcPEND,2020-0188,2021-10-15,10:22:32,11:29:20,NA,incomplete,true,true,NA,0,0,NA,white,n_l_116.jpg,NA,NA,pleasant,unpleasant,NA,NA,NA,NA,NA,right,1465.40000000596,true,NA,NA,NA,NA,NA
qpvcPEND,344m16ozllsw98pkhqhl4zt7rn1nev,3luy3gc633ddqykh1zl9ry2d7x97pt,qpvcPEND,2020-0188,2021-10-15,10:22:32,11:29:20,NA,incomplete,true,true,NA,0,1,NA,white,m_l_020.jpg,NA,NA,unpleasant,pleasant,NA,NA,NA,NA,NA,left,1701.80000001192,true,NA,NA,NA,NA,NA
qpvcPEND,344m16ozllsw98pkhqhl4zt7rn1nev,3luy3gc633ddqykh1zl9ry2d7x97pt,qpvcPEND,2020-0188,2021-10-15,10:22:32,11:29:20,NA,incomplete,true,true,NA,0,2,NA,white,m_s_088.jpg,NA,NA,unpleasant,pleasant,NA,NA,NA,NA,NA,right,1250.10000002384,true,NA,NA,NA,NA,NA
qpvcPEND,344m16ozllsw98pkhqhl4zt7rn1nev,3luy3gc633ddqykh1zl9ry2d7x97pt,qpvcPEND,2020-0188,2021-10-15,10:22:32,11:29:20,NA,incomplete,true,true,NA,0,3,NA,white,m_s_051.jpg,NA,NA,pleasant,unpleasant,NA,NA,NA,NA,NA,left,1642,true,NA,NA,NA,NA,NA
qpvcPEND,344m16ozllsw98pkhqhl4zt7rn1nev,3luy3gc633ddqykh1zl9ry2d7x97pt,qpvcPEND,2020-0188,2021-10-15,10:22:32,11:29:20,NA,incomplete,true,true,NA,0,4,NA,white,n_s_111.jpg,NA,NA,unpleasant,pleasant,NA,NA,NA,NA,NA,left,1659.39999997616,true,NA,NA,NA,NA,NA
qpvcPEND,344m16ozllsw98pkhqhl4zt7rn1nev,3luy3gc633ddqykh1zl9ry2d7x97pt,qpvcPEND,2020-0188,2021-10-15,10:22:32,11:29:20,NA,incomplete,true,true,NA,0,5,NA,white,m_l_104.jpg,NA,NA,unpleasant,pleasant,NA,NA,NA,NA,NA,left,1988.40000000596,true,NA,NA,NA,NA,NA
qpvcPEND,344m16ozllsw98pkhqhl4zt7rn1nev,3luy3gc633ddqykh1zl9ry2d7x97pt,qpvcPEND,2020-0188,2021-10-15,10:22:32,11:29:20,NA,incomplete,true,true,NA,0,6,NA,brown,m_l_049.jpg,NA,NA,unpleasant,pleasant,NA,NA,NA,NA,NA,left,1230.90000000596,true,NA,NA,NA,NA,NA
qpvcPEND,344m16ozllsw98pkhqhl4zt7rn1nev,3luy3gc633ddqykh1zl9ry2d7x97pt,qpvcPEND,2020-0188,2021-10-15,10:22:32,11:29:20,NA,incomplete,true,true,NA,0,7,NA,brown,n_l_096.jpg,NA,NA,pleasant,unpleasant,NA,NA,NA,NA,NA,left,1117.09999999404,true,NA,NA,NA,NA,NA
qpvcPEND,344m16ozllsw98pkhqhl4zt7rn1nev,3luy3gc633ddqykh1zl9ry2d7x97pt,qpvcPEND,2020-0188,2021-10-15,10:22:32,11:29:20,NA,incomplete,true,true,NA,0,8,NA,brown,n_s_077.jpg,NA,NA,pleasant,unpleasant,NA,NA,NA,NA,NA,left,1325.40000000596,true,NA,NA,NA,NA,NA
qpvcPEND,344m16ozllsw98pkhqhl4zt7rn1nev,3luy3gc633ddqykh1zl9ry2d7x97pt,qpvcPEND,2020-0188,2021-10-15,10:22:32,11:29:20,NA,incomplete,true,true,NA,0,9,NA,brown,n_l_115.jpg,NA,NA,pleasant,unpleasant,NA,NA,NA,NA,NA,left,1588.30000001192,true,NA,NA,NA,NA,NA
qpvcPEND,344m16ozllsw98pkhqhl4zt7rn1nev,3luy3gc633ddqykh1zl9ry2d7x97pt,qpvcPEND,2020-0188,2021-10-15,10:22:32,11:29:20,NA,incomplete,true,true,NA,0,10,NA,brown,m_s_076.jpg,NA,NA,pleasant,unpleasant,NA,NA,NA,NA,NA,right,1306.69999998808,true,NA,NA,NA,NA,NA
qpvcPEND,344m16ozllsw98pkhqhl4zt7rn1nev,3luy3gc633ddqykh1zl9ry2d7x97pt,qpvcPEND,2020-0188,2021-10-15,10:22:32,11:29:20,NA,incomplete,true,true,NA,0,11,NA,brown,m_s_042.jpg,NA,NA,pleasant,unpleasant,NA,NA,NA,NA,NA,right,1345,true,NA,NA,NA,NA,NA
qpvcPEND,344m16ozllsw98pkhqhl4zt7rn1nev,3luy3gc633ddqykh1zl9ry2d7x97pt,qpvcPEND,2020-0188,2021-10-15,10:22:32,11:29:20,NA,incomplete,true,true,NA,0,12,NA,black,m_l_011.jpg,NA,NA,unpleasant,pleasant,NA,NA,NA,NA,NA,right,1659.30000001192,true,NA,NA,NA,NA,NA
qpvcPEND,344m16ozllsw98pkhqhl4zt7rn1nev,3luy3gc633ddqykh1zl9ry2d7x97pt,qpvcPEND,2020-0188,2021-10-15,10:22:32,11:29:20,NA,incomplete,true,true,NA,0,13,NA,black,m_s_043.jpg,NA,NA,unpleasant,pleasant,NA,NA,NA,NA,NA,right,1264.59999999404,true,NA,NA,NA,NA,NA
qpvcPEND,344m16ozllsw98pkhqhl4zt7rn1nev,3luy3gc633ddqykh1zl9ry2d7x97pt,qpvcPEND,2020-0188,2021-10-15,10:22:32,11:29:20,NA,incomplete,true,true,NA,0,14,NA,black,n_l_114.jpg,NA,NA,pleasant,unpleasant,NA,NA,NA,NA,NA,left,889,true,NA,NA,NA,NA,NA
qpvcPEND,344m16ozllsw98pkhqhl4zt7rn1nev,3luy3gc633ddqykh1zl9ry2d7x97pt,qpvcPEND,2020-0188,2021-10-15,10:22:32,11:29:20,NA,incomplete,true,true,NA,0,15,NA,black,n_l_034.jpg,NA,NA,pleasant,unpleasant,NA,NA,NA,NA,NA,right,1340,true,NA,NA,NA,NA,NA
qpvcPEND,344m16ozllsw98pkhqhl4zt7rn1nev,3luy3gc633ddqykh1zl9ry2d7x97pt,qpvcPEND,2020-0188,2021-10-15,10:22:32,11:29:20,NA,incomplete,true,true,NA,0,16,NA,black,m_s_029.jpg,NA,NA,pleasant,unpleasant,NA,NA,NA,NA,NA,right,1546.79999998212,true,NA,NA,NA,NA,NA
qpvcPEND,344m16ozllsw98pkhqhl4zt7rn1nev,3luy3gc633ddqykh1zl9ry2d7x97pt,qpvcPEND,2020-0188,2021-10-15,10:22:32,11:29:20,NA,incomplete,true,true,NA,0,17,NA,black,n_s_059.jpg,NA,NA,pleasant,unpleasant,NA,NA,NA,NA,NA,right,1205.40000000596,true,NA,NA,NA,NA,NA
qpvcPEND,344m16ozllsw98pkhqhl4zt7rn1nev,3luy3gc633ddqykh1zl9ry2d7x97pt,qpvcPEND,2020-0188,2021-10-15,10:22:32,11:29:20,NA,incomplete,true,true,NA,0,18,NA,red,m_s_019.jpg,NA,NA,pleasant,unpleasant,NA,NA,NA,NA,NA,right,1284.30000001192,true,NA,NA,NA,NA,NA
qpvcPEND,344m16ozllsw98pkhqhl4zt7rn1nev,3luy3gc633ddqykh1zl9ry2d7x97pt,qpvcPEND,2020-0188,2021-10-15,10:22:32,11:29:20,NA,incomplete,true,true,NA,0,19,NA,red,m_s_073.jpg,NA,NA,unpleasant,pleasant,NA,NA,NA,NA,NA,right,1195.90000000596,true,NA,NA,NA,NA,NA
qpvcPEND,344m16ozllsw98pkhqhl4zt7rn1nev,3luy3gc633ddqykh1zl9ry2d7x97pt,qpvcPEND,2020-0188,2021-10-15,10:22:32,11:29:20,NA,incomplete,true,true,NA,0,20,NA,red,m_s_008.jpg,NA,NA,unpleasant,pleasant,NA,NA,NA,NA,NA,left,1201.5,true,NA,NA,NA,NA,NA
qpvcPEND,344m16ozllsw98pkhqhl4zt7rn1nev,3luy3gc633ddqykh1zl9ry2d7x97pt,qpvcPEND,2020-0188,2021-10-15,10:22:32,11:29:20,NA,incomplete,true,true,NA,0,21,NA,red,m_s_002.jpg,NA,NA,pleasant,unpleasant,NA,NA,NA,NA,NA,left,1713,true,NA,NA,NA,NA,NA
qpvcPEND,344m16ozllsw98pkhqhl4zt7rn1nev,3luy3gc633ddqykh1zl9ry2d7x97pt,qpvcPEND,2020-0188,2021-10-15,10:22:32,11:29:20,NA,incomplete,true,true,NA,0,22,NA,red,m_s_084.jpg,NA,NA,unpleasant,pleasant,NA,NA,NA,NA,NA,right,1952,true,NA,NA,NA,NA,NA
qpvcPEND,344m16ozllsw98pkhqhl4zt7rn1nev,3luy3gc633ddqykh1zl9ry2d7x97pt,qpvcPEND,2020-0188,2021-10-15,10:22:32,11:29:20,NA,incomplete,true,true,NA,0,23,NA,red,m_s_007.jpg,NA,NA,pleasant,unpleasant,NA,NA,NA,NA,NA,right,1609.59999999404,true,NA,NA,NA,NA,NA
qpvcPEND,344m16ozllsw98pkhqhl4zt7rn1nev,3luy3gc633ddqykh1zl9ry2d7x97pt,qpvcPEND,2020-0188,2021-10-15,10:22:32,11:29:20,NA,incomplete,true,true,NA,0,24,NA,blue,m_l_053.jpg,NA,NA,pleasant,unpleasant,NA,NA,NA,NA,NA,left,1234.09999999404,true,NA,NA,NA,NA,NA
qpvcPEND,344m16ozllsw98pkhqhl4zt7rn1nev,3luy3gc633ddqykh1zl9ry2d7x97pt,qpvcPEND,2020-0188,2021-10-15,10:22:32,11:29:20,NA,incomplete,true,true,NA,0,25,NA,blue,n_s_017.jpg,NA,NA,pleasant,unpleasant,NA,NA,NA,NA,NA,right,1102.09999999404,true,NA,NA,NA,NA,NA
qpvcPEND,344m16ozllsw98pkhqhl4zt7rn1nev,3luy3gc633ddqykh1zl9ry2d7x97pt,qpvcPEND,2020-0188,2021-10-15,10:22:32,11:29:20,NA,incomplete,true,true,NA,0,26,NA,blue,m_l_061.jpg,NA,NA,unpleasant,pleasant,NA,NA,NA,NA,NA,left,1147.09999999404,true,NA,NA,NA,NA,NA
qpvcPEND,344m16ozllsw98pkhqhl4zt7rn1nev,3luy3gc633ddqykh1zl9ry2d7x97pt,qpvcPEND,2020-0188,2021-10-15,10:22:32,11:29:20,NA,incomplete,true,true,NA,0,27,NA,blue,m_s_065.jpg,NA,NA,unpleasant,pleasant,NA,NA,NA,NA,NA,right,1027.89999997616,true,NA,NA,NA,NA,NA
qpvcPEND,344m16ozllsw98pkhqhl4zt7rn1nev,3luy3gc633ddqykh1zl9ry2d7x97pt,qpvcPEND,2020-0188,2021-10-15,10:22:32,11:29:20,NA,incomplete,true,true,NA,0,28,NA,blue,n_s_024.jpg,NA,NA,unpleasant,pleasant,NA,NA,NA,NA,NA,left,1033.19999998808,true,NA,NA,NA,NA,NA
qpvcPEND,344m16ozllsw98pkhqhl4zt7rn1nev,3luy3gc633ddqykh1zl9ry2d7x97pt,qpvcPEND,2020-0188,2021-10-15,10:22:32,11:29:20,NA,incomplete,true,true,NA,0,29,NA,blue,m_l_089.jpg,NA,NA,pleasant,unpleasant,NA,NA,NA,NA,NA,left,1776.60000002384,true,NA,NA,NA,NA,NA
qpvcPEND,344m16ozllsw98pkhqhl4zt7rn1nev,3luy3gc633ddqykh1zl9ry2d7x97pt,qpvcPEND,2020-0188,2021-10-15,10:22:32,11:29:20,NA,incomplete,true,true,NA,0,30,NA,purple,n_l_022.jpg,NA,NA,pleasant,unpleasant,NA,NA,NA,NA,NA,right,1497.80000001192,true,NA,NA,NA,NA,NA
qpvcPEND,344m16ozllsw98pkhqhl4zt7rn1nev,3luy3gc633ddqykh1zl9ry2d7x97pt,qpvcPEND,2020-0188,2021-10-15,10:22:32,11:29:20,NA,incomplete,true,true,NA,0,31,NA,purple,n_l_024.jpg,NA,NA,unpleasant,pleasant,NA,NA,NA,NA,NA,left,1147.90000000596,true,NA,NA,NA,NA,NA
qpvcPEND,344m16ozllsw98pkhqhl4zt7rn1nev,3luy3gc633ddqykh1zl9ry2d7x97pt,qpvcPEND,2020-0188,2021-10-15,10:22:32,11:29:20,NA,incomplete,true,true,NA,0,32,NA,purple,n_l_027.jpg,NA,NA,unpleasant,pleasant,NA,NA,NA,NA,NA,left,948.299999982119,true,NA,NA,NA,NA,NA
qpvcPEND,344m16ozllsw98pkhqhl4zt7rn1nev,3luy3gc633ddqykh1zl9ry2d7x97pt,qpvcPEND,2020-0188,2021-10-15,10:22:32,11:29:20,NA,incomplete,true,true,NA,0,33,NA,purple,m_l_117.jpg,NA,NA,unpleasant,pleasant,NA,NA,NA,NA,NA,right,1192.59999999404,true,NA,NA,NA,NA,NA
qpvcPEND,344m16ozllsw98pkhqhl4zt7rn1nev,3luy3gc633ddqykh1zl9ry2d7x97pt,qpvcPEND,2020-0188,2021-10-15,10:22:32,11:29:20,NA,incomplete,true,true,NA,0,34,NA,purple,m_l_098.jpg,NA,NA,unpleasant,pleasant,NA,NA,NA,NA,NA,left,1165.29999998212,true,NA,NA,NA,NA,NA
qpvcPEND,344m16ozllsw98pkhqhl4zt7rn1nev,3luy3gc633ddqykh1zl9ry2d7x97pt,qpvcPEND,2020-0188,2021-10-15,10:22:32,11:29:20,NA,incomplete,true,true,NA,0,35,NA,purple,n_l_076.jpg,NA,NA,unpleasant,pleasant,NA,NA,NA,NA,NA,right,1291,true,NA,NA,NA,NA,NA
qpvcPEND,344m16ozllsw98pkhqhl4zt7rn1nev,3luy3gc633ddqykh1zl9ry2d7x97pt,qpvcPEND,2020-0188,2021-10-15,10:22:32,11:29:20,NA,incomplete,true,NA,true,0,0,NA,NA,NA,right,absent,NA,NA,n_l_027.jpg,purple,n_s_024.jpg,blue,between,NA,NaN,NA,right,3491.399999976158,1,1,3387.7000000178814
qpvcPEND,344m16ozllsw98pkhqhl4zt7rn1nev,3luy3gc633ddqykh1zl9ry2d7x97pt,qpvcPEND,2020-0188,2021-10-15,10:22:32,11:29:20,NA,incomplete,true,NA,true,0,1,NA,NA,NA,right,present,NA,NA,m_s_042.jpg,brown,n_l_096.jpg,brown,within,NA,NaN,NA,right,3509.4000000059605,1,2,4861.299999982119
qpvcPEND,344m16ozllsw98pkhqhl4zt7rn1nev,3luy3gc633ddqykh1zl9ry2d7x97pt,qpvcPEND,2020-0188,2021-10-15,10:22:32,11:29:20,NA,incomplete,true,NA,true,0,2,NA,NA,NA,right,absent,NA,NA,n_l_076.jpg,purple,n_l_024.jpg,purple,within,NA,NaN,NA,right,2781.4000000059605,1,0,1441.300000011921
qpvcPEND,344m16ozllsw98pkhqhl4zt7rn1nev,3luy3gc633ddqykh1zl9ry2d7x97pt,qpvcPEND,2020-0188,2021-10-15,10:22:32,11:29:20,NA,incomplete,true,NA,true,0,3,NA,NA,NA,right,absent,NA,NA,n_s_077.jpg,brown,n_s_111.jpg,white,between,NA,NaN,NA,right,2321.300000011921,1,2,1857.2000000178814
qpvcPEND,344m16ozllsw98pkhqhl4zt7rn1nev,3luy3gc633ddqykh1zl9ry2d7x97pt,qpvcPEND,2020-0188,2021-10-15,10:22:32,11:29:20,NA,incomplete,true,NA,true,0,4,NA,NA,NA,right,absent,NA,NA,n_l_114.jpg,black,m_s_076.jpg,brown,between,NA,NaN,NA,right,4135.300000011921,1,2,2019.4000000059605
qpvcPEND,344m16ozllsw98pkhqhl4zt7rn1nev,3luy3gc633ddqykh1zl9ry2d7x97pt,qpvcPEND,2020-0188,2021-10-15,10:22:32,11:29:20,NA,incomplete,true,NA,true,0,5,NA,NA,NA,left,absent,NA,NA,m_s_084.jpg,red,m_l_061.jpg,blue,between,NA,NaN,NA,left,2627.5999999940395,1,2,2851.5999999940395
qpvcPEND,344m16ozllsw98pkhqhl4zt7rn1nev,3luy3gc633ddqykh1zl9ry2d7x97pt,qpvcPEND,2020-0188,2021-10-15,10:22:32,11:29:20,NA,incomplete,true,NA,true,0,6,NA,NA,NA,left,absent,NA,NA,m_l_020.jpg,white,m_l_104.jpg,white,within,NA,NaN,NA,left,2931.5,1,1,1889.5
qpvcPEND,344m16ozllsw98pkhqhl4zt7rn1nev,3luy3gc633ddqykh1zl9ry2d7x97pt,qpvcPEND,2020-0188,2021-10-15,10:22:32,11:29:20,NA,incomplete,true,NA,true,0,7,NA,NA,NA,left,absent,NA,NA,n_s_017.jpg,blue,m_l_089.jpg,blue,within,NA,NaN,NA,left,3629.2999999821186,1,1,2001.5
qpvcPEND,344m16ozllsw98pkhqhl4zt7rn1nev,3luy3gc633ddqykh1zl9ry2d7x97pt,qpvcPEND,2020-0188,2021-10-15,10:22:32,11:29:20,NA,incomplete,true,NA,true,0,8,NA,NA,NA,left,absent,NA,NA,m_s_073.jpg,red,m_s_007.jpg,red,within,NA,NaN,NA,right,3923.5,0,0,1713.300000011921
qpvcPEND,344m16ozllsw98pkhqhl4zt7rn1nev,3luy3gc633ddqykh1zl9ry2d7x97pt,qpvcPEND,2020-0188,2021-10-15,10:22:32,11:29:20,NA,incomplete,true,NA,true,0,9,NA,NA,NA,right,absent,NA,NA,m_s_008.jpg,red,m_s_029.jpg,black,between,NA,NaN,NA,left,11425.40000000596,0,2,1449.5999999940395
qpvcPEND,344m16ozllsw98pkhqhl4zt7rn1nev,3luy3gc633ddqykh1zl9ry2d7x97pt,qpvcPEND,2020-0188,2021-10-15,10:22:32,11:29:20,NA,incomplete,true,NA,true,0,10,NA,NA,NA,left,absent,NA,NA,m_s_043.jpg,black,n_s_059.jpg,black,within,NA,NaN,NA,left,5951.5999999940395,1,0,2113.4000000059605
qpvcPEND,344m16ozllsw98pkhqhl4zt7rn1nev,3luy3gc633ddqykh1zl9ry2d7x97pt,qpvcPEND,2020-0188,2021-10-15,10:22:32,11:29:20,NA,incomplete,false,true,NA,1,0,NA,brown,n_s_012.jpg,NA,NA,pleasant,unpleasant,NA,NA,NA,NA,NA,right,1242.5,true,NA,NA,NA,NA,NA
qpvcPEND,344m16ozllsw98pkhqhl4zt7rn1nev,3luy3gc633ddqykh1zl9ry2d7x97pt,qpvcPEND,2020-0188,2021-10-15,10:22:32,11:29:20,NA,incomplete,false,true,NA,1,1,NA,brown,n_s_097.jpg,NA,NA,unpleasant,pleasant,NA,NA,NA,NA,NA,right,1244.79999998212,true,NA,NA,NA,NA,NA
qpvcPEND,344m16ozllsw98pkhqhl4zt7rn1nev,3luy3gc633ddqykh1zl9ry2d7x97pt,qpvcPEND,2020-0188,2021-10-15,10:22:32,11:29:20,NA,incomplete,false,true,NA,1,2,NA,brown,m_s_098.jpg,NA,NA,unpleasant,pleasant,NA,NA,NA,NA,NA,none,0,false,NA,NA,NA,NA,NA
qpvcPEND,344m16ozllsw98pkhqhl4zt7rn1nev,3luy3gc633ddqykh1zl9ry2d7x97pt,qpvcPEND,2020-0188,2021-10-15,10:22:32,11:29:20,NA,incomplete,false,true,NA,1,3,NA,brown,m_l_060.jpg,NA,NA,pleasant,unpleasant,NA,NA,NA,NA,NA,right,1273.39999997616,true,NA,NA,NA,NA,NA
qpvcPEND,344m16ozllsw98pkhqhl4zt7rn1nev,3luy3gc633ddqykh1zl9ry2d7x97pt,qpvcPEND,2020-0188,2021-10-15,10:22:32,11:29:20,NA,incomplete,false,true,NA,1,4,NA,brown,n_s_067.jpg,NA,NA,pleasant,unpleasant,NA,NA,NA,NA,NA,none,0,false,NA,NA,NA,NA,NA
qpvcPEND,344m16ozllsw98pkhqhl4zt7rn1nev,3luy3gc633ddqykh1zl9ry2d7x97pt,qpvcPEND,2020-0188,2021-10-15,10:22:32,11:29:20,NA,incomplete,false,true,NA,1,5,NA,brown,m_s_106.jpg,NA,NA,unpleasant,pleasant,NA,NA,NA,NA,NA,none,0,false,NA,NA,NA,NA,NA
qpvcPEND,344m16ozllsw98pkhqhl4zt7rn1nev,3luy3gc633ddqykh1zl9ry2d7x97pt,qpvcPEND,2020-0188,2021-10-15,10:22:32,11:29:20,NA,incomplete,false,true,NA,1,6,NA,red,n_l_047.jpg,NA,NA,pleasant,unpleasant,NA,NA,NA,NA,NA,right,1591.59999999404,true,NA,NA,NA,NA,NA
qpvcPEND,344m16ozllsw98pkhqhl4zt7rn1nev,3luy3gc633ddqykh1zl9ry2d7x97pt,qpvcPEND,2020-0188,2021-10-15,10:22:32,11:29:20,NA,incomplete,false,true,NA,1,7,NA,red,m_s_100.jpg,NA,NA,pleasant,unpleasant,NA,NA,NA,NA,NA,none,0,false,NA,NA,NA,NA,NA
qpvcPEND,344m16ozllsw98pkhqhl4zt7rn1nev,3luy3gc633ddqykh1zl9ry2d7x97pt,qpvcPEND,2020-0188,2021-10-15,10:22:32,11:29:20,NA,incomplete,false,true,NA,1,8,NA,red,n_l_085.jpg,NA,NA,unpleasant,pleasant,NA,NA,NA,NA,NA,none,0,false,NA,NA,NA,NA,NA
qpvcPEND,344m16ozllsw98pkhqhl4zt7rn1nev,3luy3gc633ddqykh1zl9ry2d7x97pt,qpvcPEND,2020-0188,2021-10-15,10:22:32,11:29:20,NA,incomplete,false,true,NA,1,9,NA,red,n_l_089.jpg,NA,NA,pleasant,unpleasant,NA,NA,NA,NA,NA,right,1436.5,true,NA,NA,NA,NA,NA
qpvcPEND,344m16ozllsw98pkhqhl4zt7rn1nev,3luy3gc633ddqykh1zl9ry2d7x97pt,qpvcPEND,2020-0188,2021-10-15,10:22:32,11:29:20,NA,incomplete,false,true,NA,1,10,NA,red,n_l_095.jpg,NA,NA,pleasant,unpleasant,NA,NA,NA,NA,NA,right,1207.19999998808,true,NA,NA,NA,NA,NA
qpvcPEND,344m16ozllsw98pkhqhl4zt7rn1nev,3luy3gc633ddqykh1zl9ry2d7x97pt,qpvcPEND,2020-0188,2021-10-15,10:22:32,11:29:20,NA,incomplete,false,true,NA,1,11,NA,red,m_s_083.jpg,NA,NA,pleasant,unpleasant,NA,NA,NA,NA,NA,right,1510.90000000596,true,NA,NA,NA,NA,NA
qpvcPEND,344m16ozllsw98pkhqhl4zt7rn1nev,3luy3gc633ddqykh1zl9ry2d7x97pt,qpvcPEND,2020-0188,2021-10-15,10:22:32,11:29:20,NA,incomplete,false,true,NA,1,12,NA,yellow,m_s_033.jpg,NA,NA,unpleasant,pleasant,NA,NA,NA,NA,NA,right,1447.5,true,NA,NA,NA,NA,NA
qpvcPEND,344m16ozllsw98pkhqhl4zt7rn1nev,3luy3gc633ddqykh1zl9ry2d7x97pt,qpvcPEND,2020-0188,2021-10-15,10:22:32,11:29:20,NA,incomplete,false,true,NA,1,13,NA,yellow,n_l_093.jpg,NA,NA,unpleasant,pleasant,NA,NA,NA,NA,NA,none,0,false,NA,NA,NA,NA,NA
qpvcPEND,344m16ozllsw98pkhqhl4zt7rn1nev,3luy3gc633ddqykh1zl9ry2d7x97pt,qpvcPEND,2020-0188,2021-10-15,10:22:32,11:29:20,NA,incomplete,false,true,NA,1,14,NA,yellow,n_s_050.jpg,NA,NA,pleasant,unpleasant,NA,NA,NA,NA,NA,none,0,false,NA,NA,NA,NA,NA
qpvcPEND,344m16ozllsw98pkhqhl4zt7rn1nev,3luy3gc633ddqykh1zl9ry2d7x97pt,qpvcPEND,2020-0188,2021-10-15,10:22:32,11:29:20,NA,incomplete,false,true,NA,1,15,NA,yellow,m_s_074.jpg,NA,NA,unpleasant,pleasant,NA,NA,NA,NA,NA,right,1691,true,NA,NA,NA,NA,NA
qpvcPEND,344m16ozllsw98pkhqhl4zt7rn1nev,3luy3gc633ddqykh1zl9ry2d7x97pt,qpvcPEND,2020-0188,2021-10-15,10:22:32,11:29:20,NA,incomplete,false,true,NA,1,16,NA,yellow,n_s_058.jpg,NA,NA,unpleasant,pleasant,NA,NA,NA,NA,NA,none,0,false,NA,NA,NA,NA,NA
qpvcPEND,344m16ozllsw98pkhqhl4zt7rn1nev,3luy3gc633ddqykh1zl9ry2d7x97pt,qpvcPEND,2020-0188,2021-10-15,10:22:32,11:29:20,NA,incomplete,false,true,NA,1,17,NA,yellow,m_l_028.jpg,NA,NA,pleasant,unpleasant,NA,NA,NA,NA,NA,right,1229.70000001788,true,NA,NA,NA,NA,NA
qpvcPEND,344m16ozllsw98pkhqhl4zt7rn1nev,3luy3gc633ddqykh1zl9ry2d7x97pt,qpvcPEND,2020-0188,2021-10-15,10:22:32,11:29:20,NA,incomplete,false,true,NA,1,18,NA,gray,n_l_031.jpg,NA,NA,pleasant,unpleasant,NA,NA,NA,NA,NA,right,1436.09999999404,true,NA,NA,NA,NA,NA
qpvcPEND,344m16ozllsw98pkhqhl4zt7rn1nev,3luy3gc633ddqykh1zl9ry2d7x97pt,qpvcPEND,2020-0188,2021-10-15,10:22:32,11:29:20,NA,incomplete,false,true,NA,1,19,NA,gray,n_l_042.jpg,NA,NA,pleasant,unpleasant,NA,NA,NA,NA,NA,right,1146.70000001788,true,NA,NA,NA,NA,NA
qpvcPEND,344m16ozllsw98pkhqhl4zt7rn1nev,3luy3gc633ddqykh1zl9ry2d7x97pt,qpvcPEND,2020-0188,2021-10-15,10:22:32,11:29:20,NA,incomplete,false,true,NA,1,20,NA,gray,m_s_018.jpg,NA,NA,pleasant,unpleasant,NA,NA,NA,NA,NA,none,0,false,NA,NA,NA,NA,NA
qpvcPEND,344m16ozllsw98pkhqhl4zt7rn1nev,3luy3gc633ddqykh1zl9ry2d7x97pt,qpvcPEND,2020-0188,2021-10-15,10:22:32,11:29:20,NA,incomplete,false,true,NA,1,21,NA,gray,n_l_006.jpg,NA,NA,pleasant,unpleasant,NA,NA,NA,NA,NA,right,1054,true,NA,NA,NA,NA,NA
qpvcPEND,344m16ozllsw98pkhqhl4zt7rn1nev,3luy3gc633ddqykh1zl9ry2d7x97pt,qpvcPEND,2020-0188,2021-10-15,10:22:32,11:29:20,NA,incomplete,false,true,NA,1,22,NA,gray,n_l_019.jpg,NA,NA,pleasant,unpleasant,NA,NA,NA,NA,NA,right,996.09999999404,true,NA,NA,NA,NA,NA
qpvcPEND,344m16ozllsw98pkhqhl4zt7rn1nev,3luy3gc633ddqykh1zl9ry2d7x97pt,qpvcPEND,2020-0188,2021-10-15,10:22:32,11:29:20,NA,incomplete,false,true,NA,1,23,NA,gray,n_l_101.jpg,NA,NA,unpleasant,pleasant,NA,NA,NA,NA,NA,right,828.200000017881,true,NA,NA,NA,NA,NA
qpvcPEND,344m16ozllsw98pkhqhl4zt7rn1nev,3luy3gc633ddqykh1zl9ry2d7x97pt,qpvcPEND,2020-0188,2021-10-15,10:22:32,11:29:20,NA,incomplete,false,true,NA,1,24,NA,orange,m_l_048.jpg,NA,NA,pleasant,unpleasant,NA,NA,NA,NA,NA,right,1871.09999999404,true,NA,NA,NA,NA,NA
qpvcPEND,344m16ozllsw98pkhqhl4zt7rn1nev,3luy3gc633ddqykh1zl9ry2d7x97pt,qpvcPEND,2020-0188,2021-10-15,10:22:32,11:29:20,NA,incomplete,false,true,NA,1,25,NA,orange,m_s_017.jpg,NA,NA,unpleasant,pleasant,NA,NA,NA,NA,NA,none,0,false,NA,NA,NA,NA,NA
qpvcPEND,344m16ozllsw98pkhqhl4zt7rn1nev,3luy3gc633ddqykh1zl9ry2d7x97pt,qpvcPEND,2020-0188,2021-10-15,10:22:32,11:29:20,NA,incomplete,false,true,NA,1,26,NA,orange,m_l_116.jpg,NA,NA,unpleasant,pleasant,NA,NA,NA,NA,NA,none,0,false,NA,NA,NA,NA,NA
qpvcPEND,344m16ozllsw98pkhqhl4zt7rn1nev,3luy3gc633ddqykh1zl9ry2d7x97pt,qpvcPEND,2020-0188,2021-10-15,10:22:32,11:29:20,NA,incomplete,false,true,NA,1,27,NA,orange,n_s_081.jpg,NA,NA,pleasant,unpleasant,NA,NA,NA,NA,NA,none,0,false,NA,NA,NA,NA,NA
qpvcPEND,344m16ozllsw98pkhqhl4zt7rn1nev,3luy3gc633ddqykh1zl9ry2d7x97pt,qpvcPEND,2020-0188,2021-10-15,10:22:32,11:29:20,NA,incomplete,false,true,NA,1,28,NA,orange,n_l_033.jpg,NA,NA,pleasant,unpleasant,NA,NA,NA,NA,NA,right,990,true,NA,NA,NA,NA,NA
qpvcPEND,344m16ozllsw98pkhqhl4zt7rn1nev,3luy3gc633ddqykh1zl9ry2d7x97pt,qpvcPEND,2020-0188,2021-10-15,10:22:32,11:29:20,NA,incomplete,false,true,NA,1,29,NA,orange,n_l_013.jpg,NA,NA,unpleasant,pleasant,NA,NA,NA,NA,NA,right,1103.40000000596,true,NA,NA,NA,NA,NA
qpvcPEND,344m16ozllsw98pkhqhl4zt7rn1nev,3luy3gc633ddqykh1zl9ry2d7x97pt,qpvcPEND,2020-0188,2021-10-15,10:22:32,11:29:20,NA,incomplete,false,true,NA,1,30,NA,white,m_l_030.jpg,NA,NA,pleasant,unpleasant,NA,NA,NA,NA,NA,none,0,false,NA,NA,NA,NA,NA
qpvcPEND,344m16ozllsw98pkhqhl4zt7rn1nev,3luy3gc633ddqykh1zl9ry2d7x97pt,qpvcPEND,2020-0188,2021-10-15,10:22:32,11:29:20,NA,incomplete,false,true,NA,1,31,NA,white,n_s_098.jpg,NA,NA,unpleasant,pleasant,NA,NA,NA,NA,NA,none,0,false,NA,NA,NA,NA,NA
qpvcPEND,344m16ozllsw98pkhqhl4zt7rn1nev,3luy3gc633ddqykh1zl9ry2d7x97pt,qpvcPEND,2020-0188,2021-10-15,10:22:32,11:29:20,NA,incomplete,false,true,NA,1,32,NA,white,m_s_009.jpg,NA,NA,unpleasant,pleasant,NA,NA,NA,NA,NA,none,0,false,NA,NA,NA,NA,NA
qpvcPEND,344m16ozllsw98pkhqhl4zt7rn1nev,3luy3gc633ddqykh1zl9ry2d7x97pt,qpvcPEND,2020-0188,2021-10-15,10:22:32,11:29:20,NA,incomplete,false,true,NA,1,33,NA,white,m_s_022.jpg,NA,NA,pleasant,unpleasant,NA,NA,NA,NA,NA,none,0,false,NA,NA,NA,NA,NA
qpvcPEND,344m16ozllsw98pkhqhl4zt7rn1nev,3luy3gc633ddqykh1zl9ry2d7x97pt,qpvcPEND,2020-0188,2021-10-15,10:22:32,11:29:20,NA,incomplete,false,true,NA,1,34,NA,white,n_l_030.jpg,NA,NA,unpleasant,pleasant,NA,NA,NA,NA,NA,none,0,false,NA,NA,NA,NA,NA
qpvcPEND,344m16ozllsw98pkhqhl4zt7rn1nev,3luy3gc633ddqykh1zl9ry2d7x97pt,qpvcPEND,2020-0188,2021-10-15,10:22:32,11:29:20,NA,incomplete,false,true,NA,1,35,NA,white,n_s_035.jpg,NA,NA,pleasant,unpleasant,NA,NA,NA,NA,NA,none,0,false,NA,NA,NA,NA,NA
qpvcPEND,344m16ozllsw98pkhqhl4zt7rn1nev,3luy3gc633ddqykh1zl9ry2d7x97pt,qpvcPEND,2020-0188,2021-10-15,10:22:32,11:29:20,NA,incomplete,false,NA,true,1,0,NA,NA,NA,left,present,NA,NA,m_s_017.jpg,orange,n_l_013.jpg,orange,within,NA,NaN,NA,right,2483.2000000178814,0,0,3389.2000000178814
qpvcPEND,344m16ozllsw98pkhqhl4zt7rn1nev,3luy3gc633ddqykh1zl9ry2d7x97pt,qpvcPEND,2020-0188,2021-10-15,10:22:32,11:29:20,NA,incomplete,false,NA,true,1,1,NA,NA,NA,left,present,NA,NA,n_s_067.jpg,brown,n_l_085.jpg,red,between,NA,NaN,NA,left,4558.9000000059605,1,2,1577.300000011921
qpvcPEND,344m16ozllsw98pkhqhl4zt7rn1nev,3luy3gc633ddqykh1zl9ry2d7x97pt,qpvcPEND,2020-0188,2021-10-15,10:22:32,11:29:20,NA,incomplete,false,NA,true,1,2,NA,NA,NA,right,present,NA,NA,m_s_009.jpg,white,n_l_033.jpg,orange,between,NA,NaN,NA,right,2587.4000000059605,1,2,2795.4000000059605
qpvcPEND,344m16ozllsw98pkhqhl4zt7rn1nev,3luy3gc633ddqykh1zl9ry2d7x97pt,qpvcPEND,2020-0188,2021-10-15,10:22:32,11:29:20,NA,incomplete,false,NA,true,1,3,NA,NA,NA,right,present,NA,NA,m_s_018.jpg,gray,n_s_058.jpg,yellow,between,NA,NaN,NA,right,2755.300000011921,1,2,961.4000000059605
qpvcPEND,344m16ozllsw98pkhqhl4zt7rn1nev,3luy3gc633ddqykh1zl9ry2d7x97pt,qpvcPEND,2020-0188,2021-10-15,10:22:32,11:29:20,NA,incomplete,false,NA,true,1,4,NA,NA,NA,left,present,NA,NA,n_l_095.jpg,red,n_s_050.jpg,yellow,between,NA,NaN,NA,right,4991.5,0,2,2723.300000011921
qpvcPEND,344m16ozllsw98pkhqhl4zt7rn1nev,3luy3gc633ddqykh1zl9ry2d7x97pt,qpvcPEND,2020-0188,2021-10-15,10:22:32,11:29:20,NA,incomplete,false,NA,true,1,5,NA,NA,NA,left,present,NA,NA,n_s_097.jpg,brown,m_s_106.jpg,brown,within,NA,NaN,NA,left,2537.9000000059605,1,0,1521.2000000178814
qpvcPEND,344m16ozllsw98pkhqhl4zt7rn1nev,3luy3gc633ddqykh1zl9ry2d7x97pt,qpvcPEND,2020-0188,2021-10-15,10:22:32,11:29:20,NA,incomplete,false,NA,true,1,6,NA,NA,NA,left,present,NA,NA,n_l_019.jpg,gray,m_l_116.jpg,orange,between,NA,NaN,NA,right,2369.5,0,2,2505.300000011921
qpvcPEND,344m16ozllsw98pkhqhl4zt7rn1nev,3luy3gc633ddqykh1zl9ry2d7x97pt,qpvcPEND,2020-0188,2021-10-15,10:22:32,11:29:20,NA,incomplete,false,NA,true,1,7,NA,NA,NA,left,present,NA,NA,n_s_098.jpg,white,n_s_035.jpg,white,within,NA,NaN,NA,left,2827.300000011921,1,0,2017.300000011921
qpvcPEND,344m16ozllsw98pkhqhl4zt7rn1nev,3luy3gc633ddqykh1zl9ry2d7x97pt,qpvcPEND,2020-0188,2021-10-15,10:22:32,11:29:20,NA,incomplete,false,NA,true,1,8,NA,NA,NA,left,present,NA,NA,m_s_100.jpg,red,m_s_083.jpg,red,within,NA,NaN,NA,left,2481.5,1,0,1345.300000011921
qpvcPEND,344m16ozllsw98pkhqhl4zt7rn1nev,3luy3gc633ddqykh1zl9ry2d7x97pt,qpvcPEND,2020-0188,2021-10-15,10:22:32,11:29:20,NA,incomplete,false,NA,true,1,9,NA,NA,NA,left,present,NA,NA,n_l_042.jpg,gray,n_l_101.jpg,gray,within,NA,NaN,NA,left,2657.300000011921,1,1,1169.5
qpvcPEND,344m16ozllsw98pkhqhl4zt7rn1nev,3luy3gc633ddqykh1zl9ry2d7x97pt,qpvcPEND,2020-0188,2021-10-15,10:22:32,11:29:20,NA,incomplete,false,NA,true,1,10,NA,NA,NA,right,present,NA,NA,m_l_028.jpg,yellow,n_l_093.jpg,yellow,within,NA,NaN,NA,right,2633.2000000178814,1,0,2947.300000011921
qpvcPEND,344m16ozllsw98pkhqhl4zt7rn1nev,3luy3gc633ddqykh1zl9ry2d7x97pt,qpvcPEND,2020-0188,2021-10-15,10:22:32,11:29:20,NA,incomplete,false,true,NA,2,0,NA,red,n_s_025.jpg,NA,NA,unpleasant,pleasant,NA,NA,NA,NA,NA,right,1944.70000001788,true,NA,NA,NA,NA,NA
qpvcPEND,344m16ozllsw98pkhqhl4zt7rn1nev,3luy3gc633ddqykh1zl9ry2d7x97pt,qpvcPEND,2020-0188,2021-10-15,10:22:32,11:29:20,NA,incomplete,false,true,NA,2,1,NA,red,n_l_046.jpg,NA,NA,unpleasant,pleasant,NA,NA,NA,NA,NA,left,1019.90000000596,true,NA,NA,NA,NA,NA
qpvcPEND,344m16ozllsw98pkhqhl4zt7rn1nev,3luy3gc633ddqykh1zl9ry2d7x97pt,qpvcPEND,2020-0188,2021-10-15,10:22:32,11:29:20,NA,incomplete,false,true,NA,2,2,NA,red,m_s_015.jpg,NA,NA,pleasant,unpleasant,NA,NA,NA,NA,NA,left,1322.09999999404,true,NA,NA,NA,NA,NA
qpvcPEND,344m16ozllsw98pkhqhl4zt7rn1nev,3luy3gc633ddqykh1zl9ry2d7x97pt,qpvcPEND,2020-0188,2021-10-15,10:22:32,11:29:20,NA,incomplete,false,true,NA,2,3,NA,red,n_l_035.jpg,NA,NA,unpleasant,pleasant,NA,NA,NA,NA,NA,left,1685,true,NA,NA,NA,NA,NA
qpvcPEND,344m16ozllsw98pkhqhl4zt7rn1nev,3luy3gc633ddqykh1zl9ry2d7x97pt,qpvcPEND,2020-0188,2021-10-15,10:22:32,11:29:20,NA,incomplete,false,true,NA,2,4,NA,red,n_l_050.jpg,NA,NA,unpleasant,pleasant,NA,NA,NA,NA,NA,left,1208.40000000596,true,NA,NA,NA,NA,NA
qpvcPEND,344m16ozllsw98pkhqhl4zt7rn1nev,3luy3gc633ddqykh1zl9ry2d7x97pt,qpvcPEND,2020-0188,2021-10-15,10:22:32,11:29:20,NA,incomplete,false,true,NA,2,5,NA,red,m_s_031.jpg,NA,NA,pleasant,unpleasant,NA,NA,NA,NA,NA,left,1527.30000001192,true,NA,NA,NA,NA,NA
qpvcPEND,344m16ozllsw98pkhqhl4zt7rn1nev,3luy3gc633ddqykh1zl9ry2d7x97pt,qpvcPEND,2020-0188,2021-10-15,10:22:32,11:29:20,NA,incomplete,false,true,NA,2,6,NA,gray,n_l_058.jpg,NA,NA,unpleasant,pleasant,NA,NA,NA,NA,NA,right,1900.60000002384,true,NA,NA,NA,NA,NA
qpvcPEND,344m16ozllsw98pkhqhl4zt7rn1nev,3luy3gc633ddqykh1zl9ry2d7x97pt,qpvcPEND,2020-0188,2021-10-15,10:22:32,11:29:20,NA,incomplete,false,true,NA,2,7,NA,gray,m_l_037.jpg,NA,NA,pleasant,unpleasant,NA,NA,NA,NA,NA,left,1826.19999998808,true,NA,NA,NA,NA,NA
qpvcPEND,344m16ozllsw98pkhqhl4zt7rn1nev,3luy3gc633ddqykh1zl9ry2d7x97pt,qpvcPEND,2020-0188,2021-10-15,10:22:32,11:29:20,NA,incomplete,false,true,NA,2,8,NA,gray,n_s_108.jpg,NA,NA,pleasant,unpleasant,NA,NA,NA,NA,NA,right,1702.79999998212,true,NA,NA,NA,NA,NA
qpvcPEND,344m16ozllsw98pkhqhl4zt7rn1nev,3luy3gc633ddqykh1zl9ry2d7x97pt,qpvcPEND,2020-0188,2021-10-15,10:22:32,11:29:20,NA,incomplete,false,true,NA,2,9,NA,gray,m_l_050.jpg,NA,NA,unpleasant,pleasant,NA,NA,NA,NA,NA,right,1399.19999998808,true,NA,NA,NA,NA,NA
qpvcPEND,344m16ozllsw98pkhqhl4zt7rn1nev,3luy3gc633ddqykh1zl9ry2d7x97pt,qpvcPEND,2020-0188,2021-10-15,10:22:32,11:29:20,NA,incomplete,false,true,NA,2,10,NA,gray,n_s_007.jpg,NA,NA,pleasant,unpleasant,NA,NA,NA,NA,NA,right,2558.69999998808,true,NA,NA,NA,NA,NA
qpvcPEND,344m16ozllsw98pkhqhl4zt7rn1nev,3luy3gc633ddqykh1zl9ry2d7x97pt,qpvcPEND,2020-0188,2021-10-15,10:22:32,11:29:20,NA,incomplete,false,true,NA,2,11,NA,gray,m_s_030.jpg,NA,NA,pleasant,unpleasant,NA,NA,NA,NA,NA,left,2871.10000002384,true,NA,NA,NA,NA,NA
qpvcPEND,344m16ozllsw98pkhqhl4zt7rn1nev,3luy3gc633ddqykh1zl9ry2d7x97pt,qpvcPEND,2020-0188,2021-10-15,10:22:32,11:29:20,NA,incomplete,false,true,NA,2,12,NA,white,n_l_059.jpg,NA,NA,pleasant,unpleasant,NA,NA,NA,NA,NA,right,1329.70000001788,true,NA,NA,NA,NA,NA
qpvcPEND,344m16ozllsw98pkhqhl4zt7rn1nev,3luy3gc633ddqykh1zl9ry2d7x97pt,qpvcPEND,2020-0188,2021-10-15,10:22:32,11:29:20,NA,incomplete,false,true,NA,2,13,NA,white,n_l_078.jpg,NA,NA,pleasant,unpleasant,NA,NA,NA,NA,NA,left,1296.5,true,NA,NA,NA,NA,NA
qpvcPEND,344m16ozllsw98pkhqhl4zt7rn1nev,3luy3gc633ddqykh1zl9ry2d7x97pt,qpvcPEND,2020-0188,2021-10-15,10:22:32,11:29:20,NA,incomplete,false,true,NA,2,14,NA,white,n_s_070.jpg,NA,NA,unpleasant,pleasant,NA,NA,NA,NA,NA,left,1290.40000000596,true,NA,NA,NA,NA,NA
qpvcPEND,344m16ozllsw98pkhqhl4zt7rn1nev,3luy3gc633ddqykh1zl9ry2d7x97pt,qpvcPEND,2020-0188,2021-10-15,10:22:32,11:29:20,NA,incomplete,false,true,NA,2,15,NA,white,n_l_105.jpg,NA,NA,pleasant,unpleasant,NA,NA,NA,NA,NA,left,1708.19999998808,true,NA,NA,NA,NA,NA
qpvcPEND,344m16ozllsw98pkhqhl4zt7rn1nev,3luy3gc633ddqykh1zl9ry2d7x97pt,qpvcPEND,2020-0188,2021-10-15,10:22:32,11:29:20,NA,incomplete,false,true,NA,2,16,NA,white,m_l_093.jpg,NA,NA,pleasant,unpleasant,NA,NA,NA,NA,NA,left,2015.69999998808,true,NA,NA,NA,NA,NA
qpvcPEND,344m16ozllsw98pkhqhl4zt7rn1nev,3luy3gc633ddqykh1zl9ry2d7x97pt,qpvcPEND,2020-0188,2021-10-15,10:22:32,11:29:20,NA,incomplete,false,true,NA,2,17,NA,white,n_s_034.jpg,NA,NA,pleasant,unpleasant,NA,NA,NA,NA,NA,right,1509.19999998808,true,NA,NA,NA,NA,NA
qpvcPEND,344m16ozllsw98pkhqhl4zt7rn1nev,3luy3gc633ddqykh1zl9ry2d7x97pt,qpvcPEND,2020-0188,2021-10-15,10:22:32,11:29:20,NA,incomplete,false,true,NA,2,18,NA,yellow,m_s_108.jpg,NA,NA,unpleasant,pleasant,NA,NA,NA,NA,NA,none,0,false,NA,NA,NA,NA,NA
qpvcPEND,344m16ozllsw98pkhqhl4zt7rn1nev,3luy3gc633ddqykh1zl9ry2d7x97pt,qpvcPEND,2020-0188,2021-10-15,10:22:32,11:29:20,NA,incomplete,false,true,NA,2,19,NA,yellow,n_l_038.jpg,NA,NA,pleasant,unpleasant,NA,NA,NA,NA,NA,right,1291.60000002384,true,NA,NA,NA,NA,NA
qpvcPEND,344m16ozllsw98pkhqhl4zt7rn1nev,3luy3gc633ddqykh1zl9ry2d7x97pt,qpvcPEND,2020-0188,2021-10-15,10:22:32,11:29:20,NA,incomplete,false,true,NA,2,20,NA,yellow,m_s_010.jpg,NA,NA,pleasant,unpleasant,NA,NA,NA,NA,NA,right,2265.69999998808,true,NA,NA,NA,NA,NA
qpvcPEND,344m16ozllsw98pkhqhl4zt7rn1nev,3luy3gc633ddqykh1zl9ry2d7x97pt,qpvcPEND,2020-0188,2021-10-15,10:22:32,11:29:20,NA,incomplete,false,true,NA,2,21,NA,yellow,n_l_003.jpg,NA,NA,unpleasant,pleasant,NA,NA,NA,NA,NA,left,1597.60000002384,true,NA,NA,NA,NA,NA
qpvcPEND,344m16ozllsw98pkhqhl4zt7rn1nev,3luy3gc633ddqykh1zl9ry2d7x97pt,qpvcPEND,2020-0188,2021-10-15,10:22:32,11:29:20,NA,incomplete,false,true,NA,2,22,NA,yellow,n_l_007.jpg,NA,NA,pleasant,unpleasant,NA,NA,NA,NA,NA,right,1698.20000001788,true,NA,NA,NA,NA,NA
qpvcPEND,344m16ozllsw98pkhqhl4zt7rn1nev,3luy3gc633ddqykh1zl9ry2d7x97pt,qpvcPEND,2020-0188,2021-10-15,10:22:32,11:29:20,NA,incomplete,false,true,NA,2,23,NA,yellow,m_l_070.jpg,NA,NA,pleasant,unpleasant,NA,NA,NA,NA,NA,right,1306.40000000596,true,NA,NA,NA,NA,NA
qpvcPEND,344m16ozllsw98pkhqhl4zt7rn1nev,3luy3gc633ddqykh1zl9ry2d7x97pt,qpvcPEND,2020-0188,2021-10-15,10:22:32,11:29:20,NA,incomplete,false,true,NA,2,24,NA,black,n_s_112.jpg,NA,NA,unpleasant,pleasant,NA,NA,NA,NA,NA,left,1182.09999999404,true,NA,NA,NA,NA,NA
qpvcPEND,344m16ozllsw98pkhqhl4zt7rn1nev,3luy3gc633ddqykh1zl9ry2d7x97pt,qpvcPEND,2020-0188,2021-10-15,10:22:32,11:29:20,NA,incomplete,false,true,NA,2,25,NA,black,m_l_076.jpg,NA,NA,pleasant,unpleasant,NA,NA,NA,NA,NA,left,1972.90000000596,true,NA,NA,NA,NA,NA
qpvcPEND,344m16ozllsw98pkhqhl4zt7rn1nev,3luy3gc633ddqykh1zl9ry2d7x97pt,qpvcPEND,2020-0188,2021-10-15,10:22:32,11:29:20,NA,incomplete,false,true,NA,2,26,NA,black,m_l_085.jpg,NA,NA,pleasant,unpleasant,NA,NA,NA,NA,NA,left,1728.5,true,NA,NA,NA,NA,NA
qpvcPEND,344m16ozllsw98pkhqhl4zt7rn1nev,3luy3gc633ddqykh1zl9ry2d7x97pt,qpvcPEND,2020-0188,2021-10-15,10:22:32,11:29:20,NA,incomplete,false,true,NA,2,27,NA,black,n_s_051.jpg,NA,NA,pleasant,unpleasant,NA,NA,NA,NA,NA,right,948.300000011921,true,NA,NA,NA,NA,NA
qpvcPEND,344m16ozllsw98pkhqhl4zt7rn1nev,3luy3gc633ddqykh1zl9ry2d7x97pt,qpvcPEND,2020-0188,2021-10-15,10:22:32,11:29:20,NA,incomplete,false,true,NA,2,28,NA,black,n_s_005.jpg,NA,NA,pleasant,unpleasant,NA,NA,NA,NA,NA,right,1439.5,true,NA,NA,NA,NA,NA
qpvcPEND,344m16ozllsw98pkhqhl4zt7rn1nev,3luy3gc633ddqykh1zl9ry2d7x97pt,qpvcPEND,2020-0188,2021-10-15,10:22:32,11:29:20,NA,incomplete,false,true,NA,2,29,NA,black,n_s_052.jpg,NA,NA,pleasant,unpleasant,NA,NA,NA,NA,NA,right,1012.20000001788,true,NA,NA,NA,NA,NA
qpvcPEND,344m16ozllsw98pkhqhl4zt7rn1nev,3luy3gc633ddqykh1zl9ry2d7x97pt,qpvcPEND,2020-0188,2021-10-15,10:22:32,11:29:20,NA,incomplete,false,true,NA,2,30,NA,purple,m_l_064.jpg,NA,NA,pleasant,unpleasant,NA,NA,NA,NA,NA,right,1362.20000001788,true,NA,NA,NA,NA,NA
qpvcPEND,344m16ozllsw98pkhqhl4zt7rn1nev,3luy3gc633ddqykh1zl9ry2d7x97pt,qpvcPEND,2020-0188,2021-10-15,10:22:32,11:29:20,NA,incomplete,false,true,NA,2,31,NA,purple,m_s_048.jpg,NA,NA,unpleasant,pleasant,NA,NA,NA,NA,NA,right,1690.40000000596,true,NA,NA,NA,NA,NA
qpvcPEND,344m16ozllsw98pkhqhl4zt7rn1nev,3luy3gc633ddqykh1zl9ry2d7x97pt,qpvcPEND,2020-0188,2021-10-15,10:22:32,11:29:20,NA,incomplete,false,true,NA,2,32,NA,purple,n_l_014.jpg,NA,NA,pleasant,unpleasant,NA,NA,NA,NA,NA,right,965,true,NA,NA,NA,NA,NA
qpvcPEND,344m16ozllsw98pkhqhl4zt7rn1nev,3luy3gc633ddqykh1zl9ry2d7x97pt,qpvcPEND,2020-0188,2021-10-15,10:22:32,11:29:20,NA,incomplete,false,true,NA,2,33,NA,purple,m_l_013.jpg,NA,NA,pleasant,unpleasant,NA,NA,NA,NA,NA,left,1428.09999999404,true,NA,NA,NA,NA,NA
qpvcPEND,344m16ozllsw98pkhqhl4zt7rn1nev,3luy3gc633ddqykh1zl9ry2d7x97pt,qpvcPEND,2020-0188,2021-10-15,10:22:32,11:29:20,NA,incomplete,false,true,NA,2,34,NA,purple,n_s_102.jpg,NA,NA,unpleasant,pleasant,NA,NA,NA,NA,NA,left,1296.59999999404,true,NA,NA,NA,NA,NA
qpvcPEND,344m16ozllsw98pkhqhl4zt7rn1nev,3luy3gc633ddqykh1zl9ry2d7x97pt,qpvcPEND,2020-0188,2021-10-15,10:22:32,11:29:20,NA,incomplete,false,true,NA,2,35,NA,purple,m_s_057.jpg,NA,NA,pleasant,unpleasant,NA,NA,NA,NA,NA,right,1763.40000000596,true,NA,NA,NA,NA,NA
qpvcPEND,344m16ozllsw98pkhqhl4zt7rn1nev,3luy3gc633ddqykh1zl9ry2d7x97pt,qpvcPEND,2020-0188,2021-10-15,10:22:32,11:29:20,NA,incomplete,false,NA,true,2,0,NA,NA,NA,right,present,NA,NA,m_l_070.jpg,yellow,n_l_038.jpg,yellow,within,NA,NaN,NA,right,2746.0999999940395,1,0,1328.7999999821186
qpvcPEND,344m16ozllsw98pkhqhl4zt7rn1nev,3luy3gc633ddqykh1zl9ry2d7x97pt,qpvcPEND,2020-0188,2021-10-15,10:22:32,11:29:20,NA,incomplete,false,NA,true,2,1,NA,NA,NA,right,present,NA,NA,m_s_030.jpg,gray,m_l_037.jpg,gray,within,NA,NaN,NA,right,2248.9000000059605,1,0,1696.699999988079
qpvcPEND,344m16ozllsw98pkhqhl4zt7rn1nev,3luy3gc633ddqykh1zl9ry2d7x97pt,qpvcPEND,2020-0188,2021-10-15,10:22:32,11:29:20,NA,incomplete,false,NA,true,2,2,NA,NA,NA,left,present,NA,NA,m_l_093.jpg,white,m_s_010.jpg,yellow,between,NA,NaN,NA,right,2418.800000011921,0,2,1816.699999988079
qpvcPEND,344m16ozllsw98pkhqhl4zt7rn1nev,3luy3gc633ddqykh1zl9ry2d7x97pt,qpvcPEND,2020-0188,2021-10-15,10:22:32,11:29:20,NA,incomplete,false,NA,true,2,3,NA,NA,NA,right,present,NA,NA,n_s_070.jpg,white,n_s_007.jpg,gray,between,NA,NaN,NA,right,5132.799999982119,1,2,1537.199999988079
qpvcPEND,344m16ozllsw98pkhqhl4zt7rn1nev,3luy3gc633ddqykh1zl9ry2d7x97pt,qpvcPEND,2020-0188,2021-10-15,10:22:32,11:29:20,NA,incomplete,false,NA,true,2,4,NA,NA,NA,left,present,NA,NA,n_l_050.jpg,red,n_s_108.jpg,gray,between,NA,NaN,NA,left,2675.600000023842,1,3,1465.0999999940395
qpvcPEND,344m16ozllsw98pkhqhl4zt7rn1nev,3luy3gc633ddqykh1zl9ry2d7x97pt,qpvcPEND,2020-0188,2021-10-15,10:22:32,11:29:20,NA,incomplete,false,NA,true,2,5,NA,NA,NA,left,present,NA,NA,m_l_076.jpg,black,n_s_052.jpg,black,within,NA,NaN,NA,left,4765.299999982119,1,0,2257.199999988079
qpvcPEND,344m16ozllsw98pkhqhl4zt7rn1nev,3luy3gc633ddqykh1zl9ry2d7x97pt,qpvcPEND,2020-0188,2021-10-15,10:22:32,11:29:20,NA,incomplete,false,NA,true,2,6,NA,NA,NA,right,present,NA,NA,m_l_085.jpg,black,n_l_007.jpg,yellow,between,NA,NaN,NA,right,1881.199999988079,1,3,3659.399999976158
qpvcPEND,344m16ozllsw98pkhqhl4zt7rn1nev,3luy3gc633ddqykh1zl9ry2d7x97pt,qpvcPEND,2020-0188,2021-10-15,10:22:32,11:29:20,NA,incomplete,false,NA,true,2,7,NA,NA,NA,right,present,NA,NA,m_s_031.jpg,red,n_l_046.jpg,red,within,NA,NaN,NA,right,3187.0999999940395,1,0,2465.0999999940395
qpvcPEND,344m16ozllsw98pkhqhl4zt7rn1nev,3luy3gc633ddqykh1zl9ry2d7x97pt,qpvcPEND,2020-0188,2021-10-15,10:22:32,11:29:20,NA,incomplete,false,NA,true,2,8,NA,NA,NA,right,present,NA,NA,m_s_057.jpg,purple,m_s_048.jpg,purple,within,NA,NaN,NA,right,2033.5,1,0,1321.0999999940395
qpvcPEND,344m16ozllsw98pkhqhl4zt7rn1nev,3luy3gc633ddqykh1zl9ry2d7x97pt,qpvcPEND,2020-0188,2021-10-15,10:22:32,11:29:20,NA,incomplete,false,NA,true,2,9,NA,NA,NA,right,present,NA,NA,n_s_034.jpg,white,n_l_078.jpg,white,within,NA,NaN,NA,right,1849.199999988079,1,0,2097.199999988079
qpvcPEND,344m16ozllsw98pkhqhl4zt7rn1nev,3luy3gc633ddqykh1zl9ry2d7x97pt,qpvcPEND,2020-0188,2021-10-15,10:22:32,11:29:20,NA,incomplete,false,NA,true,2,10,NA,NA,NA,left,present,NA,NA,n_s_005.jpg,black,n_l_014.jpg,purple,between,NA,NaN,NA,left,2355.199999988079,1,2,1601.4000000059605
qpvcPEND,344m16ozllsw98pkhqhl4zt7rn1nev,3luy3gc633ddqykh1zl9ry2d7x97pt,qpvcPEND,2020-0188,2021-10-15,10:22:32,11:29:20,NA,incomplete,false,true,NA,3,0,NA,white,m_l_038.jpg,NA,NA,unpleasant,pleasant,NA,NA,NA,NA,NA,right,1216.19999998808,true,NA,NA,NA,NA,NA
qpvcPEND,344m16ozllsw98pkhqhl4zt7rn1nev,3luy3gc633ddqykh1zl9ry2d7x97pt,qpvcPEND,2020-0188,2021-10-15,10:22:32,11:29:20,NA,incomplete,false,true,NA,3,1,NA,white,n_l_029.jpg,NA,NA,pleasant,unpleasant,NA,NA,NA,NA,NA,right,1041.5,true,NA,NA,NA,NA,NA
qpvcPEND,344m16ozllsw98pkhqhl4zt7rn1nev,3luy3gc633ddqykh1zl9ry2d7x97pt,qpvcPEND,2020-0188,2021-10-15,10:22:32,11:29:20,NA,incomplete,false,true,NA,3,2,NA,white,n_l_104.jpg,NA,NA,unpleasant,pleasant,NA,NA,NA,NA,NA,left,1399.59999999404,true,NA,NA,NA,NA,NA
qpvcPEND,344m16ozllsw98pkhqhl4zt7rn1nev,3luy3gc633ddqykh1zl9ry2d7x97pt,qpvcPEND,2020-0188,2021-10-15,10:22:32,11:29:20,NA,incomplete,false,true,NA,3,3,NA,white,m_s_090.jpg,NA,NA,pleasant,unpleasant,NA,NA,NA,NA,NA,right,1502.59999999404,true,NA,NA,NA,NA,NA
qpvcPEND,344m16ozllsw98pkhqhl4zt7rn1nev,3luy3gc633ddqykh1zl9ry2d7x97pt,qpvcPEND,2020-0188,2021-10-15,10:22:32,11:29:20,NA,incomplete,false,true,NA,3,4,NA,white,m_l_057.jpg,NA,NA,pleasant,unpleasant,NA,NA,NA,NA,NA,left,1035,true,NA,NA,NA,NA,NA
qpvcPEND,344m16ozllsw98pkhqhl4zt7rn1nev,3luy3gc633ddqykh1zl9ry2d7x97pt,qpvcPEND,2020-0188,2021-10-15,10:22:32,11:29:20,NA,incomplete,false,true,NA,3,5,NA,white,n_s_048.jpg,NA,NA,unpleasant,pleasant,NA,NA,NA,NA,NA,left,1477.70000001788,true,NA,NA,NA,NA,NA
qpvcPEND,344m16ozllsw98pkhqhl4zt7rn1nev,3luy3gc633ddqykh1zl9ry2d7x97pt,qpvcPEND,2020-0188,2021-10-15,10:22:32,11:29:20,NA,incomplete,false,true,NA,3,6,NA,red,n_l_066.jpg,NA,NA,unpleasant,pleasant,NA,NA,NA,NA,NA,left,1273.69999998808,true,NA,NA,NA,NA,NA
qpvcPEND,344m16ozllsw98pkhqhl4zt7rn1nev,3luy3gc633ddqykh1zl9ry2d7x97pt,qpvcPEND,2020-0188,2021-10-15,10:22:32,11:29:20,NA,incomplete,false,true,NA,3,7,NA,red,m_l_069.jpg,NA,NA,unpleasant,pleasant,NA,NA,NA,NA,NA,left,1407.40000000596,true,NA,NA,NA,NA,NA
qpvcPEND,344m16ozllsw98pkhqhl4zt7rn1nev,3luy3gc633ddqykh1zl9ry2d7x97pt,qpvcPEND,2020-0188,2021-10-15,10:22:32,11:29:20,NA,incomplete,false,true,NA,3,8,NA,red,m_l_005.jpg,NA,NA,pleasant,unpleasant,NA,NA,NA,NA,NA,left,2324.70000001788,true,NA,NA,NA,NA,NA
qpvcPEND,344m16ozllsw98pkhqhl4zt7rn1nev,3luy3gc633ddqykh1zl9ry2d7x97pt,qpvcPEND,2020-0188,2021-10-15,10:22:32,11:29:20,NA,incomplete,false,true,NA,3,9,NA,red,n_s_080.jpg,NA,NA,unpleasant,pleasant,NA,NA,NA,NA,NA,right,1878.70000001788,true,NA,NA,NA,NA,NA
qpvcPEND,344m16ozllsw98pkhqhl4zt7rn1nev,3luy3gc633ddqykh1zl9ry2d7x97pt,qpvcPEND,2020-0188,2021-10-15,10:22:32,11:29:20,NA,incomplete,false,true,NA,3,10,NA,red,m_l_103.jpg,NA,NA,unpleasant,pleasant,NA,NA,NA,NA,NA,right,1913.70000001788,true,NA,NA,NA,NA,NA
qpvcPEND,344m16ozllsw98pkhqhl4zt7rn1nev,3luy3gc633ddqykh1zl9ry2d7x97pt,qpvcPEND,2020-0188,2021-10-15,10:22:32,11:29:20,NA,incomplete,false,true,NA,3,11,NA,red,n_s_101.jpg,NA,NA,pleasant,unpleasant,NA,NA,NA,NA,NA,right,1234.90000000596,true,NA,NA,NA,NA,NA
qpvcPEND,344m16ozllsw98pkhqhl4zt7rn1nev,3luy3gc633ddqykh1zl9ry2d7x97pt,qpvcPEND,2020-0188,2021-10-15,10:22:32,11:29:20,NA,incomplete,false,true,NA,3,12,NA,green,m_l_042.jpg,NA,NA,pleasant,unpleasant,NA,NA,NA,NA,NA,left,1645.19999998808,true,NA,NA,NA,NA,NA
qpvcPEND,344m16ozllsw98pkhqhl4zt7rn1nev,3luy3gc633ddqykh1zl9ry2d7x97pt,qpvcPEND,2020-0188,2021-10-15,10:22:32,11:29:20,NA,incomplete,false,true,NA,3,13,NA,green,m_l_109.jpg,NA,NA,pleasant,unpleasant,NA,NA,NA,NA,NA,right,1151.30000001192,true,NA,NA,NA,NA,NA
qpvcPEND,344m16ozllsw98pkhqhl4zt7rn1nev,3luy3gc633ddqykh1zl9ry2d7x97pt,qpvcPEND,2020-0188,2021-10-15,10:22:32,11:29:20,NA,incomplete,false,true,NA,3,14,NA,green,n_s_065.jpg,NA,NA,unpleasant,pleasant,NA,NA,NA,NA,NA,left,1004.90000000596,true,NA,NA,NA,NA,NA
qpvcPEND,344m16ozllsw98pkhqhl4zt7rn1nev,3luy3gc633ddqykh1zl9ry2d7x97pt,qpvcPEND,2020-0188,2021-10-15,10:22:32,11:29:20,NA,incomplete,false,true,NA,3,15,NA,green,m_l_007.jpg,NA,NA,pleasant,unpleasant,NA,NA,NA,NA,NA,right,2121.59999999404,true,NA,NA,NA,NA,NA
qpvcPEND,344m16ozllsw98pkhqhl4zt7rn1nev,3luy3gc633ddqykh1zl9ry2d7x97pt,qpvcPEND,2020-0188,2021-10-15,10:22:32,11:29:20,NA,incomplete,false,true,NA,3,16,NA,green,n_s_011.jpg,NA,NA,pleasant,unpleasant,NA,NA,NA,NA,NA,right,1109.30000001192,true,NA,NA,NA,NA,NA
qpvcPEND,344m16ozllsw98pkhqhl4zt7rn1nev,3luy3gc633ddqykh1zl9ry2d7x97pt,qpvcPEND,2020-0188,2021-10-15,10:22:32,11:29:20,NA,incomplete,false,true,NA,3,17,NA,green,m_l_080.jpg,NA,NA,pleasant,unpleasant,NA,NA,NA,NA,NA,left,1506.29999998212,true,NA,NA,NA,NA,NA
qpvcPEND,344m16ozllsw98pkhqhl4zt7rn1nev,3luy3gc633ddqykh1zl9ry2d7x97pt,qpvcPEND,2020-0188,2021-10-15,10:22:32,11:29:20,NA,incomplete,false,true,NA,3,18,NA,brown,n_l_056.jpg,NA,NA,unpleasant,pleasant,NA,NA,NA,NA,NA,right,1255.19999998808,true,NA,NA,NA,NA,NA
qpvcPEND,344m16ozllsw98pkhqhl4zt7rn1nev,3luy3gc633ddqykh1zl9ry2d7x97pt,qpvcPEND,2020-0188,2021-10-15,10:22:32,11:29:20,NA,incomplete,false,true,NA,3,19,NA,brown,n_s_106.jpg,NA,NA,pleasant,unpleasant,NA,NA,NA,NA,NA,right,1444.69999998808,true,NA,NA,NA,NA,NA
qpvcPEND,344m16ozllsw98pkhqhl4zt7rn1nev,3luy3gc633ddqykh1zl9ry2d7x97pt,qpvcPEND,2020-0188,2021-10-15,10:22:32,11:29:20,NA,incomplete,false,true,NA,3,20,NA,brown,n_s_068.jpg,NA,NA,unpleasant,pleasant,NA,NA,NA,NA,NA,left,1667.79999998212,true,NA,NA,NA,NA,NA
qpvcPEND,344m16ozllsw98pkhqhl4zt7rn1nev,3luy3gc633ddqykh1zl9ry2d7x97pt,qpvcPEND,2020-0188,2021-10-15,10:22:32,11:29:20,NA,incomplete,false,true,NA,3,21,NA,brown,n_s_018.jpg,NA,NA,pleasant,unpleasant,NA,NA,NA,NA,NA,left,1384.5,true,NA,NA,NA,NA,NA
qpvcPEND,344m16ozllsw98pkhqhl4zt7rn1nev,3luy3gc633ddqykh1zl9ry2d7x97pt,qpvcPEND,2020-0188,2021-10-15,10:22:32,11:29:20,NA,incomplete,false,true,NA,3,22,NA,brown,n_s_020.jpg,NA,NA,unpleasant,pleasant,NA,NA,NA,NA,NA,right,1004.29999998212,true,NA,NA,NA,NA,NA
qpvcPEND,344m16ozllsw98pkhqhl4zt7rn1nev,3luy3gc633ddqykh1zl9ry2d7x97pt,qpvcPEND,2020-0188,2021-10-15,10:22:32,11:29:20,NA,incomplete,false,true,NA,3,23,NA,brown,n_s_073.jpg,NA,NA,pleasant,unpleasant,NA,NA,NA,NA,NA,left,1282.40000000596,true,NA,NA,NA,NA,NA
qpvcPEND,344m16ozllsw98pkhqhl4zt7rn1nev,3luy3gc633ddqykh1zl9ry2d7x97pt,qpvcPEND,2020-0188,2021-10-15,10:22:32,11:29:20,NA,incomplete,false,true,NA,3,24,NA,yellow,n_l_110.jpg,NA,NA,unpleasant,pleasant,NA,NA,NA,NA,NA,left,1283.79999998212,true,NA,NA,NA,NA,NA
qpvcPEND,344m16ozllsw98pkhqhl4zt7rn1nev,3luy3gc633ddqykh1zl9ry2d7x97pt,qpvcPEND,2020-0188,2021-10-15,10:22:32,11:29:20,NA,incomplete,false,true,NA,3,25,NA,yellow,m_s_014.jpg,NA,NA,pleasant,unpleasant,NA,NA,NA,NA,NA,left,1687,true,NA,NA,NA,NA,NA
qpvcPEND,344m16ozllsw98pkhqhl4zt7rn1nev,3luy3gc633ddqykh1zl9ry2d7x97pt,qpvcPEND,2020-0188,2021-10-15,10:22:32,11:29:20,NA,incomplete,false,true,NA,3,26,NA,yellow,n_s_071.jpg,NA,NA,pleasant,unpleasant,NA,NA,NA,NA,NA,left,2062.59999999404,true,NA,NA,NA,NA,NA
qpvcPEND,344m16ozllsw98pkhqhl4zt7rn1nev,3luy3gc633ddqykh1zl9ry2d7x97pt,qpvcPEND,2020-0188,2021-10-15,10:22:32,11:29:20,NA,incomplete,false,true,NA,3,27,NA,yellow,m_s_096.jpg,NA,NA,pleasant,unpleasant,NA,NA,NA,NA,NA,right,1320.29999998212,true,NA,NA,NA,NA,NA
qpvcPEND,344m16ozllsw98pkhqhl4zt7rn1nev,3luy3gc633ddqykh1zl9ry2d7x97pt,qpvcPEND,2020-0188,2021-10-15,10:22:32,11:29:20,NA,incomplete,false,true,NA,3,28,NA,yellow,n_l_111.jpg,NA,NA,unpleasant,pleasant,NA,NA,NA,NA,NA,left,1093.29999998212,true,NA,NA,NA,NA,NA
qpvcPEND,344m16ozllsw98pkhqhl4zt7rn1nev,3luy3gc633ddqykh1zl9ry2d7x97pt,qpvcPEND,2020-0188,2021-10-15,10:22:32,11:29:20,NA,incomplete,false,true,NA,3,29,NA,yellow,m_s_020.jpg,NA,NA,pleasant,unpleasant,NA,NA,NA,NA,NA,right,1648.59999999404,true,NA,NA,NA,NA,NA
qpvcPEND,344m16ozllsw98pkhqhl4zt7rn1nev,3luy3gc633ddqykh1zl9ry2d7x97pt,qpvcPEND,2020-0188,2021-10-15,10:22:32,11:29:20,NA,incomplete,false,true,NA,3,30,NA,blue,n_l_009.jpg,NA,NA,pleasant,unpleasant,NA,NA,NA,NA,NA,right,1280.20000001788,true,NA,NA,NA,NA,NA
qpvcPEND,344m16ozllsw98pkhqhl4zt7rn1nev,3luy3gc633ddqykh1zl9ry2d7x97pt,qpvcPEND,2020-0188,2021-10-15,10:22:32,11:29:20,NA,incomplete,false,true,NA,3,31,NA,blue,m_l_095.jpg,NA,NA,unpleasant,pleasant,NA,NA,NA,NA,NA,right,1091.80000001192,true,NA,NA,NA,NA,NA
qpvcPEND,344m16ozllsw98pkhqhl4zt7rn1nev,3luy3gc633ddqykh1zl9ry2d7x97pt,qpvcPEND,2020-0188,2021-10-15,10:22:32,11:29:20,NA,incomplete,false,true,NA,3,32,NA,blue,n_s_063.jpg,NA,NA,pleasant,unpleasant,NA,NA,NA,NA,NA,right,1057.79999998212,true,NA,NA,NA,NA,NA
qpvcPEND,344m16ozllsw98pkhqhl4zt7rn1nev,3luy3gc633ddqykh1zl9ry2d7x97pt,qpvcPEND,2020-0188,2021-10-15,10:22:32,11:29:20,NA,incomplete,false,true,NA,3,33,NA,blue,m_s_011.jpg,NA,NA,pleasant,unpleasant,NA,NA,NA,NA,NA,left,1205.5,true,NA,NA,NA,NA,NA
qpvcPEND,344m16ozllsw98pkhqhl4zt7rn1nev,3luy3gc633ddqykh1zl9ry2d7x97pt,qpvcPEND,2020-0188,2021-10-15,10:22:32,11:29:20,NA,incomplete,false,true,NA,3,34,NA,blue,m_s_075.jpg,NA,NA,unpleasant,pleasant,NA,NA,NA,NA,NA,right,1876.69999998808,true,NA,NA,NA,NA,NA
qpvcPEND,344m16ozllsw98pkhqhl4zt7rn1nev,3luy3gc633ddqykh1zl9ry2d7x97pt,qpvcPEND,2020-0188,2021-10-15,10:22:32,11:29:20,NA,incomplete,false,true,NA,3,35,NA,blue,n_l_057.jpg,NA,NA,pleasant,unpleasant,NA,NA,NA,NA,NA,right,1266.19999998808,true,NA,NA,NA,NA,NA
qpvcPEND,344m16ozllsw98pkhqhl4zt7rn1nev,3luy3gc633ddqykh1zl9ry2d7x97pt,qpvcPEND,2020-0188,2021-10-15,10:22:32,11:29:20,NA,incomplete,false,NA,true,3,0,NA,NA,NA,right,absent,NA,NA,n_s_063.jpg,blue,n_l_111.jpg,yellow,between,NA,NaN,NA,right,3163.4000000059605,1,1,3451.2000000178814
qpvcPEND,344m16ozllsw98pkhqhl4zt7rn1nev,3luy3gc633ddqykh1zl9ry2d7x97pt,qpvcPEND,2020-0188,2021-10-15,10:22:32,11:29:20,NA,incomplete,false,NA,true,3,1,NA,NA,NA,left,absent,NA,NA,n_s_106.jpg,brown,n_s_073.jpg,brown,within,NA,NaN,NA,left,5365.200000017881,1,0,1601.4000000059605
qpvcPEND,344m16ozllsw98pkhqhl4zt7rn1nev,3luy3gc633ddqykh1zl9ry2d7x97pt,qpvcPEND,2020-0188,2021-10-15,10:22:32,11:29:20,NA,incomplete,false,NA,true,3,2,NA,NA,NA,right,absent,NA,NA,n_s_048.jpg,white,n_l_029.jpg,white,within,NA,NaN,NA,right,2859.5,1,3,1929.5
qpvcPEND,344m16ozllsw98pkhqhl4zt7rn1nev,3luy3gc633ddqykh1zl9ry2d7x97pt,qpvcPEND,2020-0188,2021-10-15,10:22:32,11:29:20,NA,incomplete,false,NA,true,3,3,NA,NA,NA,right,absent,NA,NA,n_l_057.jpg,blue,m_l_095.jpg,blue,within,NA,NaN,NA,right,5303.4000000059605,1,1,1817.300000011921
qpvcPEND,344m16ozllsw98pkhqhl4zt7rn1nev,3luy3gc633ddqykh1zl9ry2d7x97pt,qpvcPEND,2020-0188,2021-10-15,10:22:32,11:29:20,NA,incomplete,false,NA,true,3,4,NA,NA,NA,right,absent,NA,NA,n_s_071.jpg,yellow,n_s_020.jpg,brown,between,NA,NaN,NA,left,7563.300000011921,0,2,2035.4000000059605
qpvcPEND,344m16ozllsw98pkhqhl4zt7rn1nev,3luy3gc633ddqykh1zl9ry2d7x97pt,qpvcPEND,2020-0188,2021-10-15,10:22:32,11:29:20,NA,incomplete,false,NA,true,3,5,NA,NA,NA,left,absent,NA,NA,m_s_014.jpg,yellow,m_s_020.jpg,yellow,within,NA,NaN,NA,left,2939.5,1,0,1593.5999999940395
qpvcPEND,344m16ozllsw98pkhqhl4zt7rn1nev,3luy3gc633ddqykh1zl9ry2d7x97pt,qpvcPEND,2020-0188,2021-10-15,10:22:32,11:29:20,NA,incomplete,false,NA,true,3,6,NA,NA,NA,right,absent,NA,NA,n_s_068.jpg,brown,n_s_011.jpg,green,between,NA,NaN,NA,right,4463.300000011921,1,2,1111.4000000059605
qpvcPEND,344m16ozllsw98pkhqhl4zt7rn1nev,3luy3gc633ddqykh1zl9ry2d7x97pt,qpvcPEND,2020-0188,2021-10-15,10:22:32,11:29:20,NA,incomplete,false,NA,true,3,7,NA,NA,NA,left,absent,NA,NA,m_l_103.jpg,red,n_s_065.jpg,green,between,NA,NaN,NA,left,2323.5,1,1,2211.4000000059605
qpvcPEND,344m16ozllsw98pkhqhl4zt7rn1nev,3luy3gc633ddqykh1zl9ry2d7x97pt,qpvcPEND,2020-0188,2021-10-15,10:22:32,11:29:20,NA,incomplete,false,NA,true,3,8,NA,NA,NA,left,absent,NA,NA,m_l_069.jpg,red,n_s_101.jpg,red,within,NA,NaN,NA,left,2523.0999999940395,1,0,1089.300000011921
qpvcPEND,344m16ozllsw98pkhqhl4zt7rn1nev,3luy3gc633ddqykh1zl9ry2d7x97pt,qpvcPEND,2020-0188,2021-10-15,10:22:32,11:29:20,NA,incomplete,false,NA,true,3,9,NA,NA,NA,right,absent,NA,NA,m_l_005.jpg,red,m_l_057.jpg,white,between,NA,NaN,NA,right,2299.4000000059605,1,2,2283.4000000059605
qpvcPEND,344m16ozllsw98pkhqhl4zt7rn1nev,3luy3gc633ddqykh1zl9ry2d7x97pt,qpvcPEND,2020-0188,2021-10-15,10:22:32,11:29:20,NA,incomplete,false,NA,true,3,10,NA,NA,NA,right,absent,NA,NA,m_l_080.jpg,green,m_l_109.jpg,green,within,NA,NaN,NA,left,4607.5,0,2,4765.5
qpvcPEND,344m16ozllsw98pkhqhl4zt7rn1nev,3luy3gc633ddqykh1zl9ry2d7x97pt,qpvcPEND,2020-0188,2021-10-15,10:22:32,11:29:20,NA,incomplete,false,true,NA,4,0,NA,brown,m_l_087.jpg,NA,NA,pleasant,unpleasant,NA,NA,NA,NA,NA,right,1537.39999997616,true,NA,NA,NA,NA,NA
qpvcPEND,344m16ozllsw98pkhqhl4zt7rn1nev,3luy3gc633ddqykh1zl9ry2d7x97pt,qpvcPEND,2020-0188,2021-10-15,10:22:32,11:29:20,NA,incomplete,false,true,NA,4,1,NA,brown,m_l_003.jpg,NA,NA,pleasant,unpleasant,NA,NA,NA,NA,NA,right,1406.89999997616,true,NA,NA,NA,NA,NA
qpvcPEND,344m16ozllsw98pkhqhl4zt7rn1nev,3luy3gc633ddqykh1zl9ry2d7x97pt,qpvcPEND,2020-0188,2021-10-15,10:22:32,11:29:20,NA,incomplete,false,true,NA,4,2,NA,brown,n_s_075.jpg,NA,NA,unpleasant,pleasant,NA,NA,NA,NA,NA,right,2065.59999999404,true,NA,NA,NA,NA,NA
qpvcPEND,344m16ozllsw98pkhqhl4zt7rn1nev,3luy3gc633ddqykh1zl9ry2d7x97pt,qpvcPEND,2020-0188,2021-10-15,10:22:32,11:29:20,NA,incomplete,false,true,NA,4,3,NA,brown,n_l_106.jpg,NA,NA,pleasant,unpleasant,NA,NA,NA,NA,NA,left,1300.19999998808,true,NA,NA,NA,NA,NA
qpvcPEND,344m16ozllsw98pkhqhl4zt7rn1nev,3luy3gc633ddqykh1zl9ry2d7x97pt,qpvcPEND,2020-0188,2021-10-15,10:22:32,11:29:20,NA,incomplete,false,true,NA,4,4,NA,brown,m_l_115.jpg,NA,NA,unpleasant,pleasant,NA,NA,NA,NA,NA,left,1631.09999999404,true,NA,NA,NA,NA,NA
qpvcPEND,344m16ozllsw98pkhqhl4zt7rn1nev,3luy3gc633ddqykh1zl9ry2d7x97pt,qpvcPEND,2020-0188,2021-10-15,10:22:32,11:29:20,NA,incomplete,false,true,NA,4,5,NA,brown,n_s_023.jpg,NA,NA,unpleasant,pleasant,NA,NA,NA,NA,NA,left,1726.5,true,NA,NA,NA,NA,NA
qpvcPEND,344m16ozllsw98pkhqhl4zt7rn1nev,3luy3gc633ddqykh1zl9ry2d7x97pt,qpvcPEND,2020-0188,2021-10-15,10:22:32,11:29:20,NA,incomplete,false,true,NA,4,6,NA,black,n_s_060.jpg,NA,NA,pleasant,unpleasant,NA,NA,NA,NA,NA,right,1269.40000000596,true,NA,NA,NA,NA,NA
qpvcPEND,344m16ozllsw98pkhqhl4zt7rn1nev,3luy3gc633ddqykh1zl9ry2d7x97pt,qpvcPEND,2020-0188,2021-10-15,10:22:32,11:29:20,NA,incomplete,false,true,NA,4,7,NA,black,m_l_029.jpg,NA,NA,pleasant,unpleasant,NA,NA,NA,NA,NA,left,1246.60000002384,true,NA,NA,NA,NA,NA
qpvcPEND,344m16ozllsw98pkhqhl4zt7rn1nev,3luy3gc633ddqykh1zl9ry2d7x97pt,qpvcPEND,2020-0188,2021-10-15,10:22:32,11:29:20,NA,incomplete,false,true,NA,4,8,NA,black,m_s_101.jpg,NA,NA,pleasant,unpleasant,NA,NA,NA,NA,NA,left,1573.59999999404,true,NA,NA,NA,NA,NA
qpvcPEND,344m16ozllsw98pkhqhl4zt7rn1nev,3luy3gc633ddqykh1zl9ry2d7x97pt,qpvcPEND,2020-0188,2021-10-15,10:22:32,11:29:20,NA,incomplete,false,true,NA,4,9,NA,black,m_l_045.jpg,NA,NA,pleasant,unpleasant,NA,NA,NA,NA,NA,right,1547.70000001788,true,NA,NA,NA,NA,NA
qpvcPEND,344m16ozllsw98pkhqhl4zt7rn1nev,3luy3gc633ddqykh1zl9ry2d7x97pt,qpvcPEND,2020-0188,2021-10-15,10:22:32,11:29:20,NA,incomplete,false,true,NA,4,10,NA,black,m_l_108.jpg,NA,NA,pleasant,unpleasant,NA,NA,NA,NA,NA,left,1304.30000001192,true,NA,NA,NA,NA,NA
qpvcPEND,344m16ozllsw98pkhqhl4zt7rn1nev,3luy3gc633ddqykh1zl9ry2d7x97pt,qpvcPEND,2020-0188,2021-10-15,10:22:32,11:29:20,NA,incomplete,false,true,NA,4,11,NA,black,m_l_018.jpg,NA,NA,pleasant,unpleasant,NA,NA,NA,NA,NA,left,1226.30000001192,true,NA,NA,NA,NA,NA
qpvcPEND,344m16ozllsw98pkhqhl4zt7rn1nev,3luy3gc633ddqykh1zl9ry2d7x97pt,qpvcPEND,2020-0188,2021-10-15,10:22:32,11:29:20,NA,incomplete,false,true,NA,4,12,NA,gray,m_l_001.jpg,NA,NA,unpleasant,pleasant,NA,NA,NA,NA,NA,right,1577.40000000596,true,NA,NA,NA,NA,NA
qpvcPEND,344m16ozllsw98pkhqhl4zt7rn1nev,3luy3gc633ddqykh1zl9ry2d7x97pt,qpvcPEND,2020-0188,2021-10-15,10:22:32,11:29:20,NA,incomplete,false,true,NA,4,13,NA,gray,n_l_037.jpg,NA,NA,unpleasant,pleasant,NA,NA,NA,NA,NA,left,1579.80000001192,true,NA,NA,NA,NA,NA
qpvcPEND,344m16ozllsw98pkhqhl4zt7rn1nev,3luy3gc633ddqykh1zl9ry2d7x97pt,qpvcPEND,2020-0188,2021-10-15,10:22:32,11:29:20,NA,incomplete,false,true,NA,4,14,NA,gray,m_l_099.jpg,NA,NA,pleasant,unpleasant,NA,NA,NA,NA,NA,right,2197.5,true,NA,NA,NA,NA,NA
qpvcPEND,344m16ozllsw98pkhqhl4zt7rn1nev,3luy3gc633ddqykh1zl9ry2d7x97pt,qpvcPEND,2020-0188,2021-10-15,10:22:32,11:29:20,NA,incomplete,false,true,NA,4,15,NA,gray,m_l_073.jpg,NA,NA,pleasant,unpleasant,NA,NA,NA,NA,NA,left,1294.30000001192,true,NA,NA,NA,NA,NA
qpvcPEND,344m16ozllsw98pkhqhl4zt7rn1nev,3luy3gc633ddqykh1zl9ry2d7x97pt,qpvcPEND,2020-0188,2021-10-15,10:22:32,11:29:20,NA,incomplete,false,true,NA,4,16,NA,gray,n_s_015.jpg,NA,NA,pleasant,unpleasant,NA,NA,NA,NA,NA,right,937.300000011921,true,NA,NA,NA,NA,NA
qpvcPEND,344m16ozllsw98pkhqhl4zt7rn1nev,3luy3gc633ddqykh1zl9ry2d7x97pt,qpvcPEND,2020-0188,2021-10-15,10:22:32,11:29:20,NA,incomplete,false,true,NA,4,17,NA,gray,n_s_115.jpg,NA,NA,unpleasant,pleasant,NA,NA,NA,NA,NA,left,1196,true,NA,NA,NA,NA,NA
qpvcPEND,344m16ozllsw98pkhqhl4zt7rn1nev,3luy3gc633ddqykh1zl9ry2d7x97pt,qpvcPEND,2020-0188,2021-10-15,10:22:32,11:29:20,NA,incomplete,false,true,NA,4,18,NA,red,n_s_031.jpg,NA,NA,pleasant,unpleasant,NA,NA,NA,NA,NA,left,1517.69999998808,true,NA,NA,NA,NA,NA
qpvcPEND,344m16ozllsw98pkhqhl4zt7rn1nev,3luy3gc633ddqykh1zl9ry2d7x97pt,qpvcPEND,2020-0188,2021-10-15,10:22:32,11:29:20,NA,incomplete,false,true,NA,4,19,NA,red,n_s_028.jpg,NA,NA,unpleasant,pleasant,NA,NA,NA,NA,NA,right,1035.30000001192,true,NA,NA,NA,NA,NA
qpvcPEND,344m16ozllsw98pkhqhl4zt7rn1nev,3luy3gc633ddqykh1zl9ry2d7x97pt,qpvcPEND,2020-0188,2021-10-15,10:22:32,11:29:20,NA,incomplete,false,true,NA,4,20,NA,red,n_s_009.jpg,NA,NA,unpleasant,pleasant,NA,NA,NA,NA,NA,left,1258.19999998808,true,NA,NA,NA,NA,NA
qpvcPEND,344m16ozllsw98pkhqhl4zt7rn1nev,3luy3gc633ddqykh1zl9ry2d7x97pt,qpvcPEND,2020-0188,2021-10-15,10:22:32,11:29:20,NA,incomplete,false,true,NA,4,21,NA,red,m_l_112.jpg,NA,NA,unpleasant,pleasant,NA,NA,NA,NA,NA,right,1625.40000000596,true,NA,NA,NA,NA,NA
qpvcPEND,344m16ozllsw98pkhqhl4zt7rn1nev,3luy3gc633ddqykh1zl9ry2d7x97pt,qpvcPEND,2020-0188,2021-10-15,10:22:32,11:29:20,NA,incomplete,false,true,NA,4,22,NA,red,m_l_046.jpg,NA,NA,pleasant,unpleasant,NA,NA,NA,NA,NA,right,1130.80000001192,true,NA,NA,NA,NA,NA
qpvcPEND,344m16ozllsw98pkhqhl4zt7rn1nev,3luy3gc633ddqykh1zl9ry2d7x97pt,qpvcPEND,2020-0188,2021-10-15,10:22:32,11:29:20,NA,incomplete,false,true,NA,4,23,NA,red,m_l_017.jpg,NA,NA,unpleasant,pleasant,NA,NA,NA,NA,NA,left,1033.69999998808,true,NA,NA,NA,NA,NA
qpvcPEND,344m16ozllsw98pkhqhl4zt7rn1nev,3luy3gc633ddqykh1zl9ry2d7x97pt,qpvcPEND,2020-0188,2021-10-15,10:22:32,11:29:20,NA,incomplete,false,true,NA,4,24,NA,purple,n_l_012.jpg,NA,NA,pleasant,unpleasant,NA,NA,NA,NA,NA,right,1367.90000000596,true,NA,NA,NA,NA,NA
qpvcPEND,344m16ozllsw98pkhqhl4zt7rn1nev,3luy3gc633ddqykh1zl9ry2d7x97pt,qpvcPEND,2020-0188,2021-10-15,10:22:32,11:29:20,NA,incomplete,false,true,NA,4,25,NA,purple,m_s_039.jpg,NA,NA,unpleasant,pleasant,NA,NA,NA,NA,NA,right,1143.40000000596,true,NA,NA,NA,NA,NA
qpvcPEND,344m16ozllsw98pkhqhl4zt7rn1nev,3luy3gc633ddqykh1zl9ry2d7x97pt,qpvcPEND,2020-0188,2021-10-15,10:22:32,11:29:20,NA,incomplete,false,true,NA,4,26,NA,purple,n_l_103.jpg,NA,NA,pleasant,unpleasant,NA,NA,NA,NA,NA,right,1002.29999998212,true,NA,NA,NA,NA,NA
qpvcPEND,344m16ozllsw98pkhqhl4zt7rn1nev,3luy3gc633ddqykh1zl9ry2d7x97pt,qpvcPEND,2020-0188,2021-10-15,10:22:32,11:29:20,NA,incomplete,false,true,NA,4,27,NA,purple,m_l_006.jpg,NA,NA,pleasant,unpleasant,NA,NA,NA,NA,NA,left,1969.69999998808,true,NA,NA,NA,NA,NA
qpvcPEND,344m16ozllsw98pkhqhl4zt7rn1nev,3luy3gc633ddqykh1zl9ry2d7x97pt,qpvcPEND,2020-0188,2021-10-15,10:22:32,11:29:20,NA,incomplete,false,true,NA,4,28,NA,purple,n_s_093.jpg,NA,NA,unpleasant,pleasant,NA,NA,NA,NA,NA,left,1424.19999998808,true,NA,NA,NA,NA,NA
qpvcPEND,344m16ozllsw98pkhqhl4zt7rn1nev,3luy3gc633ddqykh1zl9ry2d7x97pt,qpvcPEND,2020-0188,2021-10-15,10:22:32,11:29:20,NA,incomplete,false,true,NA,4,29,NA,purple,n_s_026.jpg,NA,NA,unpleasant,pleasant,NA,NA,NA,NA,NA,left,930.59999999404,true,NA,NA,NA,NA,NA
qpvcPEND,344m16ozllsw98pkhqhl4zt7rn1nev,3luy3gc633ddqykh1zl9ry2d7x97pt,qpvcPEND,2020-0188,2021-10-15,10:22:32,11:29:20,NA,incomplete,false,true,NA,4,30,NA,white,n_s_001.jpg,NA,NA,unpleasant,pleasant,NA,NA,NA,NA,NA,left,1083.69999998808,true,NA,NA,NA,NA,NA
qpvcPEND,344m16ozllsw98pkhqhl4zt7rn1nev,3luy3gc633ddqykh1zl9ry2d7x97pt,qpvcPEND,2020-0188,2021-10-15,10:22:32,11:29:20,NA,incomplete,false,true,NA,4,31,NA,white,m_s_113.jpg,NA,NA,pleasant,unpleasant,NA,NA,NA,NA,NA,right,1321.5,true,NA,NA,NA,NA,NA
qpvcPEND,344m16ozllsw98pkhqhl4zt7rn1nev,3luy3gc633ddqykh1zl9ry2d7x97pt,qpvcPEND,2020-0188,2021-10-15,10:22:32,11:29:20,NA,incomplete,false,true,NA,4,32,NA,white,n_l_053.jpg,NA,NA,pleasant,unpleasant,NA,NA,NA,NA,NA,right,1298.90000000596,true,NA,NA,NA,NA,NA
qpvcPEND,344m16ozllsw98pkhqhl4zt7rn1nev,3luy3gc633ddqykh1zl9ry2d7x97pt,qpvcPEND,2020-0188,2021-10-15,10:22:32,11:29:20,NA,incomplete,false,true,NA,4,33,NA,white,n_l_036.jpg,NA,NA,unpleasant,pleasant,NA,NA,NA,NA,NA,right,1414,true,NA,NA,NA,NA,NA
qpvcPEND,344m16ozllsw98pkhqhl4zt7rn1nev,3luy3gc633ddqykh1zl9ry2d7x97pt,qpvcPEND,2020-0188,2021-10-15,10:22:32,11:29:20,NA,incomplete,false,true,NA,4,34,NA,white,m_l_044.jpg,NA,NA,unpleasant,pleasant,NA,NA,NA,NA,NA,right,1642.20000001788,true,NA,NA,NA,NA,NA
qpvcPEND,344m16ozllsw98pkhqhl4zt7rn1nev,3luy3gc633ddqykh1zl9ry2d7x97pt,qpvcPEND,2020-0188,2021-10-15,10:22:32,11:29:20,NA,incomplete,false,true,NA,4,35,NA,white,m_s_082.jpg,NA,NA,unpleasant,pleasant,NA,NA,NA,NA,NA,left,2053.40000000596,true,NA,NA,NA,NA,NA
qpvcPEND,344m16ozllsw98pkhqhl4zt7rn1nev,3luy3gc633ddqykh1zl9ry2d7x97pt,qpvcPEND,2020-0188,2021-10-15,10:22:32,11:29:20,NA,incomplete,false,NA,true,4,0,NA,NA,NA,left,absent,NA,NA,m_l_003.jpg,brown,n_s_023.jpg,brown,within,NA,NaN,NA,left,3242.800000011921,1,2,1993
qpvcPEND,344m16ozllsw98pkhqhl4zt7rn1nev,3luy3gc633ddqykh1zl9ry2d7x97pt,qpvcPEND,2020-0188,2021-10-15,10:22:32,11:29:20,NA,incomplete,false,NA,true,4,1,NA,NA,NA,left,absent,NA,NA,m_l_108.jpg,black,m_l_099.jpg,gray,between,NA,NaN,NA,left,4774.899999976158,1,2,2306.7999999821186
qpvcPEND,344m16ozllsw98pkhqhl4zt7rn1nev,3luy3gc633ddqykh1zl9ry2d7x97pt,qpvcPEND,2020-0188,2021-10-15,10:22:32,11:29:20,NA,incomplete,false,NA,true,4,2,NA,NA,NA,right,absent,NA,NA,n_s_115.jpg,gray,n_l_037.jpg,gray,within,NA,NaN,NA,right,3658.899999976158,1,2,1771
qpvcPEND,344m16ozllsw98pkhqhl4zt7rn1nev,3luy3gc633ddqykh1zl9ry2d7x97pt,qpvcPEND,2020-0188,2021-10-15,10:22:32,11:29:20,NA,incomplete,false,NA,true,4,3,NA,NA,NA,left,absent,NA,NA,m_l_029.jpg,black,m_l_018.jpg,black,within,NA,NaN,NA,left,3677.4000000059605,1,0,1585.3999999761581
qpvcPEND,344m16ozllsw98pkhqhl4zt7rn1nev,3luy3gc633ddqykh1zl9ry2d7x97pt,qpvcPEND,2020-0188,2021-10-15,10:22:32,11:29:20,NA,incomplete,false,NA,true,4,4,NA,NA,NA,left,absent,NA,NA,m_l_046.jpg,red,n_l_103.jpg,purple,between,NA,NaN,NA,left,3845.399999976158,1,2,1897.5
qpvcPEND,344m16ozllsw98pkhqhl4zt7rn1nev,3luy3gc633ddqykh1zl9ry2d7x97pt,qpvcPEND,2020-0188,2021-10-15,10:22:32,11:29:20,NA,incomplete,false,NA,true,4,5,NA,NA,NA,right,absent,NA,NA,m_s_082.jpg,white,m_s_113.jpg,white,within,NA,NaN,NA,right,3227.600000023842,1,0,1481.3999999761581
qpvcPEND,344m16ozllsw98pkhqhl4zt7rn1nev,3luy3gc633ddqykh1zl9ry2d7x97pt,qpvcPEND,2020-0188,2021-10-15,10:22:32,11:29:20,NA,incomplete,false,NA,true,4,6,NA,NA,NA,left,absent,NA,NA,n_s_093.jpg,purple,n_l_053.jpg,white,between,NA,NaN,NA,left,3051.5,1,1,2163.0999999940395
qpvcPEND,344m16ozllsw98pkhqhl4zt7rn1nev,3luy3gc633ddqykh1zl9ry2d7x97pt,qpvcPEND,2020-0188,2021-10-15,10:22:32,11:29:20,NA,incomplete,false,NA,true,4,7,NA,NA,NA,right,absent,NA,NA,n_s_026.jpg,purple,m_s_039.jpg,purple,within,NA,NaN,NA,right,2803.5,1,0,1329.300000011921
qpvcPEND,344m16ozllsw98pkhqhl4zt7rn1nev,3luy3gc633ddqykh1zl9ry2d7x97pt,qpvcPEND,2020-0188,2021-10-15,10:22:32,11:29:20,NA,incomplete,false,NA,true,4,8,NA,NA,NA,left,absent,NA,NA,n_s_028.jpg,red,m_l_017.jpg,red,within,NA,NaN,NA,left,2555.199999988079,1,0,3035.4000000059605
qpvcPEND,344m16ozllsw98pkhqhl4zt7rn1nev,3luy3gc633ddqykh1zl9ry2d7x97pt,qpvcPEND,2020-0188,2021-10-15,10:22:32,11:29:20,NA,incomplete,false,NA,true,4,9,NA,NA,NA,right,absent,NA,NA,m_s_101.jpg,black,m_l_115.jpg,brown,between,NA,NaN,NA,right,3045.300000011921,1,2,1217.4000000059605
qpvcPEND,344m16ozllsw98pkhqhl4zt7rn1nev,3luy3gc633ddqykh1zl9ry2d7x97pt,qpvcPEND,2020-0188,2021-10-15,10:22:32,11:29:20,NA,incomplete,false,NA,true,4,10,NA,NA,NA,left,absent,NA,NA,n_s_015.jpg,gray,n_s_009.jpg,red,between,NA,NaN,NA,right,4413.200000017881,0,3,3131.2000000178814
qpvcPEND,344m16ozllsw98pkhqhl4zt7rn1nev,3luy3gc633ddqykh1zl9ry2d7x97pt,qpvcPEND,2020-0188,2021-10-15,10:22:32,11:29:20,NA,incomplete,false,true,NA,5,0,NA,black,m_l_075.jpg,NA,NA,unpleasant,pleasant,NA,NA,NA,NA,NA,left,1100.20000001788,true,NA,NA,NA,NA,NA
qpvcPEND,344m16ozllsw98pkhqhl4zt7rn1nev,3luy3gc633ddqykh1zl9ry2d7x97pt,qpvcPEND,2020-0188,2021-10-15,10:22:32,11:29:20,NA,incomplete,false,true,NA,5,1,NA,black,n_s_056.jpg,NA,NA,pleasant,unpleasant,NA,NA,NA,NA,NA,right,1125.10000002384,true,NA,NA,NA,NA,NA
qpvcPEND,344m16ozllsw98pkhqhl4zt7rn1nev,3luy3gc633ddqykh1zl9ry2d7x97pt,qpvcPEND,2020-0188,2021-10-15,10:22:32,11:29:20,NA,incomplete,false,true,NA,5,2,NA,black,m_s_044.jpg,NA,NA,pleasant,unpleasant,NA,NA,NA,NA,NA,left,2046.19999998808,true,NA,NA,NA,NA,NA
qpvcPEND,344m16ozllsw98pkhqhl4zt7rn1nev,3luy3gc633ddqykh1zl9ry2d7x97pt,qpvcPEND,2020-0188,2021-10-15,10:22:32,11:29:20,NA,incomplete,false,true,NA,5,3,NA,black,n_s_072.jpg,NA,NA,unpleasant,pleasant,NA,NA,NA,NA,NA,left,1514.19999998808,true,NA,NA,NA,NA,NA
qpvcPEND,344m16ozllsw98pkhqhl4zt7rn1nev,3luy3gc633ddqykh1zl9ry2d7x97pt,qpvcPEND,2020-0188,2021-10-15,10:22:32,11:29:20,NA,incomplete,false,true,NA,5,4,NA,black,n_l_011.jpg,NA,NA,pleasant,unpleasant,NA,NA,NA,NA,NA,left,1159.60000002384,true,NA,NA,NA,NA,NA
qpvcPEND,344m16ozllsw98pkhqhl4zt7rn1nev,3luy3gc633ddqykh1zl9ry2d7x97pt,qpvcPEND,2020-0188,2021-10-15,10:22:32,11:29:20,NA,incomplete,false,true,NA,5,5,NA,black,m_l_012.jpg,NA,NA,pleasant,unpleasant,NA,NA,NA,NA,NA,right,1569,true,NA,NA,NA,NA,NA
qpvcPEND,344m16ozllsw98pkhqhl4zt7rn1nev,3luy3gc633ddqykh1zl9ry2d7x97pt,qpvcPEND,2020-0188,2021-10-15,10:22:32,11:29:20,NA,incomplete,false,true,NA,5,6,NA,white,m_l_110.jpg,NA,NA,unpleasant,pleasant,NA,NA,NA,NA,NA,left,2213.40000000596,true,NA,NA,NA,NA,NA
qpvcPEND,344m16ozllsw98pkhqhl4zt7rn1nev,3luy3gc633ddqykh1zl9ry2d7x97pt,qpvcPEND,2020-0188,2021-10-15,10:22:32,11:29:20,NA,incomplete,false,true,NA,5,7,NA,white,m_l_035.jpg,NA,NA,pleasant,unpleasant,NA,NA,NA,NA,NA,left,1548.5,true,NA,NA,NA,NA,NA
qpvcPEND,344m16ozllsw98pkhqhl4zt7rn1nev,3luy3gc633ddqykh1zl9ry2d7x97pt,qpvcPEND,2020-0188,2021-10-15,10:22:32,11:29:20,NA,incomplete,false,true,NA,5,8,NA,white,n_s_016.jpg,NA,NA,unpleasant,pleasant,NA,NA,NA,NA,NA,right,1822.29999998212,true,NA,NA,NA,NA,NA
qpvcPEND,344m16ozllsw98pkhqhl4zt7rn1nev,3luy3gc633ddqykh1zl9ry2d7x97pt,qpvcPEND,2020-0188,2021-10-15,10:22:32,11:29:20,NA,incomplete,false,true,NA,5,9,NA,white,n_l_102.jpg,NA,NA,unpleasant,pleasant,NA,NA,NA,NA,NA,right,1782.40000000596,true,NA,NA,NA,NA,NA
qpvcPEND,344m16ozllsw98pkhqhl4zt7rn1nev,3luy3gc633ddqykh1zl9ry2d7x97pt,qpvcPEND,2020-0188,2021-10-15,10:22:32,11:29:20,NA,incomplete,false,true,NA,5,10,NA,white,n_l_063.jpg,NA,NA,unpleasant,pleasant,NA,NA,NA,NA,NA,left,1994.19999998808,true,NA,NA,NA,NA,NA
qpvcPEND,344m16ozllsw98pkhqhl4zt7rn1nev,3luy3gc633ddqykh1zl9ry2d7x97pt,qpvcPEND,2020-0188,2021-10-15,10:22:32,11:29:20,NA,incomplete,false,true,NA,5,11,NA,white,m_l_002.jpg,NA,NA,pleasant,unpleasant,NA,NA,NA,NA,NA,left,2157.39999997616,true,NA,NA,NA,NA,NA
qpvcPEND,344m16ozllsw98pkhqhl4zt7rn1nev,3luy3gc633ddqykh1zl9ry2d7x97pt,qpvcPEND,2020-0188,2021-10-15,10:22:32,11:29:20,NA,incomplete,false,true,NA,5,12,NA,red,n_l_016.jpg,NA,NA,pleasant,unpleasant,NA,NA,NA,NA,NA,right,1175.19999998808,true,NA,NA,NA,NA,NA
qpvcPEND,344m16ozllsw98pkhqhl4zt7rn1nev,3luy3gc633ddqykh1zl9ry2d7x97pt,qpvcPEND,2020-0188,2021-10-15,10:22:32,11:29:20,NA,incomplete,false,true,NA,5,13,NA,red,n_l_099.jpg,NA,NA,unpleasant,pleasant,NA,NA,NA,NA,NA,left,1919.70000001788,true,NA,NA,NA,NA,NA
qpvcPEND,344m16ozllsw98pkhqhl4zt7rn1nev,3luy3gc633ddqykh1zl9ry2d7x97pt,qpvcPEND,2020-0188,2021-10-15,10:22:32,11:29:20,NA,incomplete,false,true,NA,5,14,NA,red,m_s_109.jpg,NA,NA,pleasant,unpleasant,NA,NA,NA,NA,NA,right,1131.40000000596,true,NA,NA,NA,NA,NA
qpvcPEND,344m16ozllsw98pkhqhl4zt7rn1nev,3luy3gc633ddqykh1zl9ry2d7x97pt,qpvcPEND,2020-0188,2021-10-15,10:22:32,11:29:20,NA,incomplete,false,true,NA,5,15,NA,red,n_l_015.jpg,NA,NA,unpleasant,pleasant,NA,NA,NA,NA,NA,left,1260.20000001788,true,NA,NA,NA,NA,NA
qpvcPEND,344m16ozllsw98pkhqhl4zt7rn1nev,3luy3gc633ddqykh1zl9ry2d7x97pt,qpvcPEND,2020-0188,2021-10-15,10:22:32,11:29:20,NA,incomplete,false,true,NA,5,16,NA,red,m_l_008.jpg,NA,NA,unpleasant,pleasant,NA,NA,NA,NA,NA,left,1520.80000001192,true,NA,NA,NA,NA,NA
qpvcPEND,344m16ozllsw98pkhqhl4zt7rn1nev,3luy3gc633ddqykh1zl9ry2d7x97pt,qpvcPEND,2020-0188,2021-10-15,10:22:32,11:29:20,NA,incomplete,false,true,NA,5,17,NA,red,n_l_040.jpg,NA,NA,unpleasant,pleasant,NA,NA,NA,NA,NA,left,1474.20000001788,true,NA,NA,NA,NA,NA
qpvcPEND,344m16ozllsw98pkhqhl4zt7rn1nev,3luy3gc633ddqykh1zl9ry2d7x97pt,qpvcPEND,2020-0188,2021-10-15,10:22:32,11:29:20,NA,incomplete,false,true,NA,5,18,NA,gray,n_s_076.jpg,NA,NA,unpleasant,pleasant,NA,NA,NA,NA,NA,left,1436.70000001788,true,NA,NA,NA,NA,NA
qpvcPEND,344m16ozllsw98pkhqhl4zt7rn1nev,3luy3gc633ddqykh1zl9ry2d7x97pt,qpvcPEND,2020-0188,2021-10-15,10:22:32,11:29:20,NA,incomplete,false,true,NA,5,19,NA,gray,n_s_044.jpg,NA,NA,unpleasant,pleasant,NA,NA,NA,NA,NA,right,1721.80000001192,true,NA,NA,NA,NA,NA
qpvcPEND,344m16ozllsw98pkhqhl4zt7rn1nev,3luy3gc633ddqykh1zl9ry2d7x97pt,qpvcPEND,2020-0188,2021-10-15,10:22:32,11:29:20,NA,incomplete,false,true,NA,5,20,NA,gray,n_l_044.jpg,NA,NA,unpleasant,pleasant,NA,NA,NA,NA,NA,left,1483.09999999404,true,NA,NA,NA,NA,NA
qpvcPEND,344m16ozllsw98pkhqhl4zt7rn1nev,3luy3gc633ddqykh1zl9ry2d7x97pt,qpvcPEND,2020-0188,2021-10-15,10:22:32,11:29:20,NA,incomplete,false,true,NA,5,21,NA,gray,m_l_066.jpg,NA,NA,unpleasant,pleasant,NA,NA,NA,NA,NA,right,1881.69999998808,true,NA,NA,NA,NA,NA
qpvcPEND,344m16ozllsw98pkhqhl4zt7rn1nev,3luy3gc633ddqykh1zl9ry2d7x97pt,qpvcPEND,2020-0188,2021-10-15,10:22:32,11:29:20,NA,incomplete,false,true,NA,5,22,NA,gray,m_s_024.jpg,NA,NA,pleasant,unpleasant,NA,NA,NA,NA,NA,right,1873,true,NA,NA,NA,NA,NA
qpvcPEND,344m16ozllsw98pkhqhl4zt7rn1nev,3luy3gc633ddqykh1zl9ry2d7x97pt,qpvcPEND,2020-0188,2021-10-15,10:22:32,11:29:20,NA,incomplete,false,true,NA,5,23,NA,gray,n_s_008.jpg,NA,NA,unpleasant,pleasant,NA,NA,NA,NA,NA,right,2379.80000001192,true,NA,NA,NA,NA,NA
qpvcPEND,344m16ozllsw98pkhqhl4zt7rn1nev,3luy3gc633ddqykh1zl9ry2d7x97pt,qpvcPEND,2020-0188,2021-10-15,10:22:32,11:29:20,NA,incomplete,false,true,NA,5,24,NA,purple,n_l_026.jpg,NA,NA,unpleasant,pleasant,NA,NA,NA,NA,NA,left,1338.69999998808,true,NA,NA,NA,NA,NA
qpvcPEND,344m16ozllsw98pkhqhl4zt7rn1nev,3luy3gc633ddqykh1zl9ry2d7x97pt,qpvcPEND,2020-0188,2021-10-15,10:22:32,11:29:20,NA,incomplete,false,true,NA,5,25,NA,purple,n_l_020.jpg,NA,NA,unpleasant,pleasant,NA,NA,NA,NA,NA,left,1099.09999999404,true,NA,NA,NA,NA,NA
qpvcPEND,344m16ozllsw98pkhqhl4zt7rn1nev,3luy3gc633ddqykh1zl9ry2d7x97pt,qpvcPEND,2020-0188,2021-10-15,10:22:32,11:29:20,NA,incomplete,false,true,NA,5,26,NA,purple,m_l_052.jpg,NA,NA,pleasant,unpleasant,NA,NA,NA,NA,NA,right,1052.39999997616,true,NA,NA,NA,NA,NA
qpvcPEND,344m16ozllsw98pkhqhl4zt7rn1nev,3luy3gc633ddqykh1zl9ry2d7x97pt,qpvcPEND,2020-0188,2021-10-15,10:22:32,11:29:20,NA,incomplete,false,true,NA,5,27,NA,purple,m_l_086.jpg,NA,NA,pleasant,unpleasant,NA,NA,NA,NA,NA,right,1429.19999998808,true,NA,NA,NA,NA,NA
qpvcPEND,344m16ozllsw98pkhqhl4zt7rn1nev,3luy3gc633ddqykh1zl9ry2d7x97pt,qpvcPEND,2020-0188,2021-10-15,10:22:32,11:29:20,NA,incomplete,false,true,NA,5,28,NA,purple,m_s_003.jpg,NA,NA,pleasant,unpleasant,NA,NA,NA,NA,NA,left,1458.69999998808,true,NA,NA,NA,NA,NA
qpvcPEND,344m16ozllsw98pkhqhl4zt7rn1nev,3luy3gc633ddqykh1zl9ry2d7x97pt,qpvcPEND,2020-0188,2021-10-15,10:22:32,11:29:20,NA,incomplete,false,true,NA,5,29,NA,purple,m_s_055.jpg,NA,NA,pleasant,unpleasant,NA,NA,NA,NA,NA,right,1273.30000001192,true,NA,NA,NA,NA,NA
qpvcPEND,344m16ozllsw98pkhqhl4zt7rn1nev,3luy3gc633ddqykh1zl9ry2d7x97pt,qpvcPEND,2020-0188,2021-10-15,10:22:32,11:29:20,NA,incomplete,false,true,NA,5,30,NA,orange,m_l_063.jpg,NA,NA,pleasant,unpleasant,NA,NA,NA,NA,NA,right,1702.80000001192,true,NA,NA,NA,NA,NA
qpvcPEND,344m16ozllsw98pkhqhl4zt7rn1nev,3luy3gc633ddqykh1zl9ry2d7x97pt,qpvcPEND,2020-0188,2021-10-15,10:22:32,11:29:20,NA,incomplete,false,true,NA,5,31,NA,orange,m_l_096.jpg,NA,NA,unpleasant,pleasant,NA,NA,NA,NA,NA,left,1367.80000001192,true,NA,NA,NA,NA,NA
qpvcPEND,344m16ozllsw98pkhqhl4zt7rn1nev,3luy3gc633ddqykh1zl9ry2d7x97pt,qpvcPEND,2020-0188,2021-10-15,10:22:32,11:29:20,NA,incomplete,false,true,NA,5,32,NA,orange,m_l_077.jpg,NA,NA,pleasant,unpleasant,NA,NA,NA,NA,NA,right,1276.19999998808,true,NA,NA,NA,NA,NA
qpvcPEND,344m16ozllsw98pkhqhl4zt7rn1nev,3luy3gc633ddqykh1zl9ry2d7x97pt,qpvcPEND,2020-0188,2021-10-15,10:22:32,11:29:20,NA,incomplete,false,true,NA,5,33,NA,orange,m_l_054.jpg,NA,NA,unpleasant,pleasant,NA,NA,NA,NA,NA,right,1912.30000001192,true,NA,NA,NA,NA,NA
qpvcPEND,344m16ozllsw98pkhqhl4zt7rn1nev,3luy3gc633ddqykh1zl9ry2d7x97pt,qpvcPEND,2020-0188,2021-10-15,10:22:32,11:29:20,NA,incomplete,false,true,NA,5,34,NA,orange,n_s_090.jpg,NA,NA,unpleasant,pleasant,NA,NA,NA,NA,NA,left,1837.19999998808,true,NA,NA,NA,NA,NA
qpvcPEND,344m16ozllsw98pkhqhl4zt7rn1nev,3luy3gc633ddqykh1zl9ry2d7x97pt,qpvcPEND,2020-0188,2021-10-15,10:22:32,11:29:20,NA,incomplete,false,true,NA,5,35,NA,orange,n_s_045.jpg,NA,NA,unpleasant,pleasant,NA,NA,NA,NA,NA,left,1610.39999997616,true,NA,NA,NA,NA,NA
qpvcPEND,344m16ozllsw98pkhqhl4zt7rn1nev,3luy3gc633ddqykh1zl9ry2d7x97pt,qpvcPEND,2020-0188,2021-10-15,10:22:32,11:29:20,NA,incomplete,false,NA,true,5,0,NA,NA,NA,left,present,NA,NA,m_l_096.jpg,orange,n_s_045.jpg,orange,within,NA,NaN,NA,left,3709,1,0,1215.2000000178814
qpvcPEND,344m16ozllsw98pkhqhl4zt7rn1nev,3luy3gc633ddqykh1zl9ry2d7x97pt,qpvcPEND,2020-0188,2021-10-15,10:22:32,11:29:20,NA,incomplete,false,NA,true,5,1,NA,NA,NA,left,present,NA,NA,n_l_020.jpg,purple,m_s_055.jpg,purple,within,NA,NaN,NA,left,2203.4000000059605,1,0,1169.0999999940395
qpvcPEND,344m16ozllsw98pkhqhl4zt7rn1nev,3luy3gc633ddqykh1zl9ry2d7x97pt,qpvcPEND,2020-0188,2021-10-15,10:22:32,11:29:20,NA,incomplete,false,NA,true,5,2,NA,NA,NA,right,present,NA,NA,m_s_109.jpg,red,n_l_063.jpg,white,between,NA,NaN,NA,left,2403.300000011921,0,2,1153
qpvcPEND,344m16ozllsw98pkhqhl4zt7rn1nev,3luy3gc633ddqykh1zl9ry2d7x97pt,qpvcPEND,2020-0188,2021-10-15,10:22:32,11:29:20,NA,incomplete,false,NA,true,5,3,NA,NA,NA,left,present,NA,NA,m_l_008.jpg,red,n_l_044.jpg,gray,between,NA,NaN,NA,right,7458.9000000059605,0,2,1585.2999999821186
qpvcPEND,344m16ozllsw98pkhqhl4zt7rn1nev,3luy3gc633ddqykh1zl9ry2d7x97pt,qpvcPEND,2020-0188,2021-10-15,10:22:32,11:29:20,NA,incomplete,false,NA,true,5,4,NA,NA,NA,right,present,NA,NA,n_s_008.jpg,gray,n_s_044.jpg,gray,within,NA,NaN,NA,left,3163.0999999940395,0,0,1961
qpvcPEND,344m16ozllsw98pkhqhl4zt7rn1nev,3luy3gc633ddqykh1zl9ry2d7x97pt,qpvcPEND,2020-0188,2021-10-15,10:22:32,11:29:20,NA,incomplete,false,NA,true,5,5,NA,NA,NA,right,present,NA,NA,n_s_016.jpg,white,n_l_011.jpg,black,between,NA,NaN,NA,right,1865.300000011921,1,3,1521.3999999761581
qpvcPEND,344m16ozllsw98pkhqhl4zt7rn1nev,3luy3gc633ddqykh1zl9ry2d7x97pt,qpvcPEND,2020-0188,2021-10-15,10:22:32,11:29:20,NA,incomplete,false,NA,true,5,6,NA,NA,NA,right,present,NA,NA,m_l_012.jpg,black,n_s_056.jpg,black,within,NA,NaN,NA,left,2699.0999999940395,0,0,1231.5
qpvcPEND,344m16ozllsw98pkhqhl4zt7rn1nev,3luy3gc633ddqykh1zl9ry2d7x97pt,qpvcPEND,2020-0188,2021-10-15,10:22:32,11:29:20,NA,incomplete,false,NA,true,5,7,NA,NA,NA,left,present,NA,NA,m_l_035.jpg,white,m_l_002.jpg,white,within,NA,NaN,NA,left,2291.600000023842,1,0,1367.4000000059605
qpvcPEND,344m16ozllsw98pkhqhl4zt7rn1nev,3luy3gc633ddqykh1zl9ry2d7x97pt,qpvcPEND,2020-0188,2021-10-15,10:22:32,11:29:20,NA,incomplete,false,NA,true,5,8,NA,NA,NA,right,present,NA,NA,m_l_052.jpg,purple,m_s_024.jpg,gray,between,NA,NaN,NA,right,3548.9000000059605,1,2,2051.4000000059605
qpvcPEND,344m16ozllsw98pkhqhl4zt7rn1nev,3luy3gc633ddqykh1zl9ry2d7x97pt,qpvcPEND,2020-0188,2021-10-15,10:22:32,11:29:20,NA,incomplete,false,NA,true,5,9,NA,NA,NA,left,present,NA,NA,n_l_099.jpg,red,n_l_040.jpg,red,within,NA,NaN,NA,left,2755.199999988079,1,0,1649.3999999761581
qpvcPEND,344m16ozllsw98pkhqhl4zt7rn1nev,3luy3gc633ddqykh1zl9ry2d7x97pt,qpvcPEND,2020-0188,2021-10-15,10:22:32,11:29:20,NA,incomplete,false,NA,true,5,10,NA,NA,NA,right,present,NA,NA,m_l_077.jpg,orange,m_s_003.jpg,purple,between,NA,NaN,NA,right,4477.0999999940395,1,2,1633
qpvcPEND,344m16ozllsw98pkhqhl4zt7rn1nev,3luy3gc633ddqykh1zl9ry2d7x97pt,qpvcPEND,2020-0188,2021-10-15,10:22:32,11:29:20,NA,incomplete,false,true,NA,6,0,NA,green,m_s_077.jpg,NA,NA,unpleasant,pleasant,NA,NA,NA,NA,NA,right,1461,true,NA,NA,NA,NA,NA
qpvcPEND,344m16ozllsw98pkhqhl4zt7rn1nev,3luy3gc633ddqykh1zl9ry2d7x97pt,qpvcPEND,2020-0188,2021-10-15,10:22:32,11:29:20,NA,incomplete,false,true,NA,6,1,NA,green,n_s_062.jpg,NA,NA,unpleasant,pleasant,NA,NA,NA,NA,NA,right,1139.40000000596,true,NA,NA,NA,NA,NA
qpvcPEND,344m16ozllsw98pkhqhl4zt7rn1nev,3luy3gc633ddqykh1zl9ry2d7x97pt,qpvcPEND,2020-0188,2021-10-15,10:22:32,11:29:20,NA,incomplete,false,true,NA,6,2,NA,green,m_l_040.jpg,NA,NA,unpleasant,pleasant,NA,NA,NA,NA,NA,left,1985.5,true,NA,NA,NA,NA,NA
qpvcPEND,344m16ozllsw98pkhqhl4zt7rn1nev,3luy3gc633ddqykh1zl9ry2d7x97pt,qpvcPEND,2020-0188,2021-10-15,10:22:32,11:29:20,NA,incomplete,false,true,NA,6,3,NA,green,n_l_052.jpg,NA,NA,unpleasant,pleasant,NA,NA,NA,NA,NA,left,1415.19999998808,true,NA,NA,NA,NA,NA
qpvcPEND,344m16ozllsw98pkhqhl4zt7rn1nev,3luy3gc633ddqykh1zl9ry2d7x97pt,qpvcPEND,2020-0188,2021-10-15,10:22:32,11:29:20,NA,incomplete,false,true,NA,6,4,NA,green,n_s_091.jpg,NA,NA,unpleasant,pleasant,NA,NA,NA,NA,NA,left,1224.40000000596,true,NA,NA,NA,NA,NA
qpvcPEND,344m16ozllsw98pkhqhl4zt7rn1nev,3luy3gc633ddqykh1zl9ry2d7x97pt,qpvcPEND,2020-0188,2021-10-15,10:22:32,11:29:20,NA,incomplete,false,true,NA,6,5,NA,green,m_s_064.jpg,NA,NA,unpleasant,pleasant,NA,NA,NA,NA,NA,right,1482.80000001192,true,NA,NA,NA,NA,NA
qpvcPEND,344m16ozllsw98pkhqhl4zt7rn1nev,3luy3gc633ddqykh1zl9ry2d7x97pt,qpvcPEND,2020-0188,2021-10-15,10:22:32,11:29:20,NA,incomplete,false,true,NA,6,6,NA,red,m_s_046.jpg,NA,NA,unpleasant,pleasant,NA,NA,NA,NA,NA,right,1242.20000001788,true,NA,NA,NA,NA,NA
qpvcPEND,344m16ozllsw98pkhqhl4zt7rn1nev,3luy3gc633ddqykh1zl9ry2d7x97pt,qpvcPEND,2020-0188,2021-10-15,10:22:32,11:29:20,NA,incomplete,false,true,NA,6,7,NA,red,n_s_099.jpg,NA,NA,unpleasant,pleasant,NA,NA,NA,NA,NA,left,1171.69999998808,true,NA,NA,NA,NA,NA
qpvcPEND,344m16ozllsw98pkhqhl4zt7rn1nev,3luy3gc633ddqykh1zl9ry2d7x97pt,qpvcPEND,2020-0188,2021-10-15,10:22:32,11:29:20,NA,incomplete,false,true,NA,6,8,NA,red,m_l_022.jpg,NA,NA,pleasant,unpleasant,NA,NA,NA,NA,NA,right,1427.09999999404,true,NA,NA,NA,NA,NA
qpvcPEND,344m16ozllsw98pkhqhl4zt7rn1nev,3luy3gc633ddqykh1zl9ry2d7x97pt,qpvcPEND,2020-0188,2021-10-15,10:22:32,11:29:20,NA,incomplete,false,true,NA,6,9,NA,red,n_s_100.jpg,NA,NA,unpleasant,pleasant,NA,NA,NA,NA,NA,right,2758.40000000596,true,NA,NA,NA,NA,NA
qpvcPEND,344m16ozllsw98pkhqhl4zt7rn1nev,3luy3gc633ddqykh1zl9ry2d7x97pt,qpvcPEND,2020-0188,2021-10-15,10:22:32,11:29:20,NA,incomplete,false,true,NA,6,10,NA,red,n_s_057.jpg,NA,NA,pleasant,unpleasant,NA,NA,NA,NA,NA,right,1179.09999999404,true,NA,NA,NA,NA,NA
qpvcPEND,344m16ozllsw98pkhqhl4zt7rn1nev,3luy3gc633ddqykh1zl9ry2d7x97pt,qpvcPEND,2020-0188,2021-10-15,10:22:32,11:29:20,NA,incomplete,false,true,NA,6,11,NA,red,n_s_027.jpg,NA,NA,unpleasant,pleasant,NA,NA,NA,NA,NA,left,2124.40000000596,true,NA,NA,NA,NA,NA
qpvcPEND,344m16ozllsw98pkhqhl4zt7rn1nev,3luy3gc633ddqykh1zl9ry2d7x97pt,qpvcPEND,2020-0188,2021-10-15,10:22:32,11:29:20,NA,incomplete,false,true,NA,6,12,NA,white,n_l_055.jpg,NA,NA,unpleasant,pleasant,NA,NA,NA,NA,NA,left,1467.89999997616,true,NA,NA,NA,NA,NA
qpvcPEND,344m16ozllsw98pkhqhl4zt7rn1nev,3luy3gc633ddqykh1zl9ry2d7x97pt,qpvcPEND,2020-0188,2021-10-15,10:22:32,11:29:20,NA,incomplete,false,true,NA,6,13,NA,white,n_s_003.jpg,NA,NA,unpleasant,pleasant,NA,NA,NA,NA,NA,left,1515.20000001788,true,NA,NA,NA,NA,NA
qpvcPEND,344m16ozllsw98pkhqhl4zt7rn1nev,3luy3gc633ddqykh1zl9ry2d7x97pt,qpvcPEND,2020-0188,2021-10-15,10:22:32,11:29:20,NA,incomplete,false,true,NA,6,14,NA,white,n_l_005.jpg,NA,NA,pleasant,unpleasant,NA,NA,NA,NA,NA,right,1150.80000001192,true,NA,NA,NA,NA,NA
qpvcPEND,344m16ozllsw98pkhqhl4zt7rn1nev,3luy3gc633ddqykh1zl9ry2d7x97pt,qpvcPEND,2020-0188,2021-10-15,10:22:32,11:29:20,NA,incomplete,false,true,NA,6,15,NA,white,m_s_087.jpg,NA,NA,pleasant,unpleasant,NA,NA,NA,NA,NA,left,1723.19999998808,true,NA,NA,NA,NA,NA
qpvcPEND,344m16ozllsw98pkhqhl4zt7rn1nev,3luy3gc633ddqykh1zl9ry2d7x97pt,qpvcPEND,2020-0188,2021-10-15,10:22:32,11:29:20,NA,incomplete,false,true,NA,6,16,NA,white,n_s_079.jpg,NA,NA,pleasant,unpleasant,NA,NA,NA,NA,NA,left,1532.80000001192,true,NA,NA,NA,NA,NA
qpvcPEND,344m16ozllsw98pkhqhl4zt7rn1nev,3luy3gc633ddqykh1zl9ry2d7x97pt,qpvcPEND,2020-0188,2021-10-15,10:22:32,11:29:20,NA,incomplete,false,true,NA,6,17,NA,white,m_s_034.jpg,NA,NA,unpleasant,pleasant,NA,NA,NA,NA,NA,left,1541.70000001788,true,NA,NA,NA,NA,NA
qpvcPEND,344m16ozllsw98pkhqhl4zt7rn1nev,3luy3gc633ddqykh1zl9ry2d7x97pt,qpvcPEND,2020-0188,2021-10-15,10:22:32,11:29:20,NA,incomplete,false,true,NA,6,18,NA,orange,n_l_083.jpg,NA,NA,pleasant,unpleasant,NA,NA,NA,NA,NA,right,1253.5,true,NA,NA,NA,NA,NA
qpvcPEND,344m16ozllsw98pkhqhl4zt7rn1nev,3luy3gc633ddqykh1zl9ry2d7x97pt,qpvcPEND,2020-0188,2021-10-15,10:22:32,11:29:20,NA,incomplete,false,true,NA,6,19,NA,orange,n_l_108.jpg,NA,NA,unpleasant,pleasant,NA,NA,NA,NA,NA,left,1026.60000002384,true,NA,NA,NA,NA,NA
qpvcPEND,344m16ozllsw98pkhqhl4zt7rn1nev,3luy3gc633ddqykh1zl9ry2d7x97pt,qpvcPEND,2020-0188,2021-10-15,10:22:32,11:29:20,NA,incomplete,false,true,NA,6,20,NA,orange,m_s_117.jpg,NA,NA,pleasant,unpleasant,NA,NA,NA,NA,NA,right,1377.30000001192,true,NA,NA,NA,NA,NA
qpvcPEND,344m16ozllsw98pkhqhl4zt7rn1nev,3luy3gc633ddqykh1zl9ry2d7x97pt,qpvcPEND,2020-0188,2021-10-15,10:22:32,11:29:20,NA,incomplete,false,true,NA,6,21,NA,orange,n_s_092.jpg,NA,NA,pleasant,unpleasant,NA,NA,NA,NA,NA,right,1429.59999999404,true,NA,NA,NA,NA,NA
qpvcPEND,344m16ozllsw98pkhqhl4zt7rn1nev,3luy3gc633ddqykh1zl9ry2d7x97pt,qpvcPEND,2020-0188,2021-10-15,10:22:32,11:29:20,NA,incomplete,false,true,NA,6,22,NA,orange,m_s_089.jpg,NA,NA,pleasant,unpleasant,NA,NA,NA,NA,NA,right,1192.30000001192,true,NA,NA,NA,NA,NA
qpvcPEND,344m16ozllsw98pkhqhl4zt7rn1nev,3luy3gc633ddqykh1zl9ry2d7x97pt,qpvcPEND,2020-0188,2021-10-15,10:22:32,11:29:20,NA,incomplete,false,true,NA,6,23,NA,orange,n_l_004.jpg,NA,NA,unpleasant,pleasant,NA,NA,NA,NA,NA,left,1218.09999999404,true,NA,NA,NA,NA,NA
qpvcPEND,344m16ozllsw98pkhqhl4zt7rn1nev,3luy3gc633ddqykh1zl9ry2d7x97pt,qpvcPEND,2020-0188,2021-10-15,10:22:32,11:29:20,NA,incomplete,false,true,NA,6,24,NA,brown,m_s_081.jpg,NA,NA,unpleasant,pleasant,NA,NA,NA,NA,NA,right,1908.20000001788,true,NA,NA,NA,NA,NA
qpvcPEND,344m16ozllsw98pkhqhl4zt7rn1nev,3luy3gc633ddqykh1zl9ry2d7x97pt,qpvcPEND,2020-0188,2021-10-15,10:22:32,11:29:20,NA,incomplete,false,true,NA,6,25,NA,brown,n_s_105.jpg,NA,NA,unpleasant,pleasant,NA,NA,NA,NA,NA,left,1424.10000002384,true,NA,NA,NA,NA,NA
qpvcPEND,344m16ozllsw98pkhqhl4zt7rn1nev,3luy3gc633ddqykh1zl9ry2d7x97pt,qpvcPEND,2020-0188,2021-10-15,10:22:32,11:29:20,NA,incomplete,false,true,NA,6,26,NA,brown,n_l_060.jpg,NA,NA,unpleasant,pleasant,NA,NA,NA,NA,NA,left,1185,true,NA,NA,NA,NA,NA
qpvcPEND,344m16ozllsw98pkhqhl4zt7rn1nev,3luy3gc633ddqykh1zl9ry2d7x97pt,qpvcPEND,2020-0188,2021-10-15,10:22:32,11:29:20,NA,incomplete,false,true,NA,6,27,NA,brown,m_s_095.jpg,NA,NA,unpleasant,pleasant,NA,NA,NA,NA,NA,left,1549.29999998212,true,NA,NA,NA,NA,NA
qpvcPEND,344m16ozllsw98pkhqhl4zt7rn1nev,3luy3gc633ddqykh1zl9ry2d7x97pt,qpvcPEND,2020-0188,2021-10-15,10:22:32,11:29:20,NA,incomplete,false,true,NA,6,28,NA,brown,n_l_017.jpg,NA,NA,pleasant,unpleasant,NA,NA,NA,NA,NA,right,1227.09999999404,true,NA,NA,NA,NA,NA
qpvcPEND,344m16ozllsw98pkhqhl4zt7rn1nev,3luy3gc633ddqykh1zl9ry2d7x97pt,qpvcPEND,2020-0188,2021-10-15,10:22:32,11:29:20,NA,incomplete,false,true,NA,6,29,NA,brown,n_l_079.jpg,NA,NA,unpleasant,pleasant,NA,NA,NA,NA,NA,right,1606.90000000596,true,NA,NA,NA,NA,NA
qpvcPEND,344m16ozllsw98pkhqhl4zt7rn1nev,3luy3gc633ddqykh1zl9ry2d7x97pt,qpvcPEND,2020-0188,2021-10-15,10:22:32,11:29:20,NA,incomplete,false,true,NA,6,30,NA,purple,m_s_079.jpg,NA,NA,unpleasant,pleasant,NA,NA,NA,NA,NA,right,1111.20000001788,true,NA,NA,NA,NA,NA
qpvcPEND,344m16ozllsw98pkhqhl4zt7rn1nev,3luy3gc633ddqykh1zl9ry2d7x97pt,qpvcPEND,2020-0188,2021-10-15,10:22:32,11:29:20,NA,incomplete,false,true,NA,6,31,NA,purple,m_s_038.jpg,NA,NA,pleasant,unpleasant,NA,NA,NA,NA,NA,right,1375,true,NA,NA,NA,NA,NA
qpvcPEND,344m16ozllsw98pkhqhl4zt7rn1nev,3luy3gc633ddqykh1zl9ry2d7x97pt,qpvcPEND,2020-0188,2021-10-15,10:22:32,11:29:20,NA,incomplete,false,true,NA,6,32,NA,purple,n_l_061.jpg,NA,NA,pleasant,unpleasant,NA,NA,NA,NA,NA,right,1040.29999998212,true,NA,NA,NA,NA,NA
qpvcPEND,344m16ozllsw98pkhqhl4zt7rn1nev,3luy3gc633ddqykh1zl9ry2d7x97pt,qpvcPEND,2020-0188,2021-10-15,10:22:32,11:29:20,NA,incomplete,false,true,NA,6,33,NA,purple,m_s_047.jpg,NA,NA,unpleasant,pleasant,NA,NA,NA,NA,NA,left,1653.5,true,NA,NA,NA,NA,NA
qpvcPEND,344m16ozllsw98pkhqhl4zt7rn1nev,3luy3gc633ddqykh1zl9ry2d7x97pt,qpvcPEND,2020-0188,2021-10-15,10:22:32,11:29:20,NA,incomplete,false,true,NA,6,34,NA,purple,m_l_081.jpg,NA,NA,pleasant,unpleasant,NA,NA,NA,NA,NA,right,984.09999999404,true,NA,NA,NA,NA,NA
qpvcPEND,344m16ozllsw98pkhqhl4zt7rn1nev,3luy3gc633ddqykh1zl9ry2d7x97pt,qpvcPEND,2020-0188,2021-10-15,10:22:32,11:29:20,NA,incomplete,false,true,NA,6,35,NA,purple,n_l_039.jpg,NA,NA,pleasant,unpleasant,NA,NA,NA,NA,NA,right,1104.5,true,NA,NA,NA,NA,NA
qpvcPEND,344m16ozllsw98pkhqhl4zt7rn1nev,3luy3gc633ddqykh1zl9ry2d7x97pt,qpvcPEND,2020-0188,2021-10-15,10:22:32,11:29:20,NA,incomplete,false,NA,true,6,0,NA,NA,NA,left,absent,NA,NA,n_s_105.jpg,brown,n_l_079.jpg,brown,within,NA,NaN,NA,right,2312,0,0,1730.4000000059605
qpvcPEND,344m16ozllsw98pkhqhl4zt7rn1nev,3luy3gc633ddqykh1zl9ry2d7x97pt,qpvcPEND,2020-0188,2021-10-15,10:22:32,11:29:20,NA,incomplete,false,NA,true,6,1,NA,NA,NA,left,absent,NA,NA,n_s_079.jpg,white,m_s_117.jpg,orange,between,NA,NaN,NA,left,3170.5,1,2,1776.2999999821186
qpvcPEND,344m16ozllsw98pkhqhl4zt7rn1nev,3luy3gc633ddqykh1zl9ry2d7x97pt,qpvcPEND,2020-0188,2021-10-15,10:22:32,11:29:20,NA,incomplete,false,NA,true,6,2,NA,NA,NA,left,absent,NA,NA,m_s_089.jpg,orange,n_l_060.jpg,brown,between,NA,NaN,NA,left,2651.5,1,1,1811.5
qpvcPEND,344m16ozllsw98pkhqhl4zt7rn1nev,3luy3gc633ddqykh1zl9ry2d7x97pt,qpvcPEND,2020-0188,2021-10-15,10:22:32,11:29:20,NA,incomplete,false,NA,true,6,3,NA,NA,NA,right,absent,NA,NA,n_l_039.jpg,purple,m_s_038.jpg,purple,within,NA,NaN,NA,left,3605.300000011921,0,2,2851.399999976158
qpvcPEND,344m16ozllsw98pkhqhl4zt7rn1nev,3luy3gc633ddqykh1zl9ry2d7x97pt,qpvcPEND,2020-0188,2021-10-15,10:22:32,11:29:20,NA,incomplete,false,NA,true,6,4,NA,NA,NA,left,absent,NA,NA,n_s_062.jpg,green,m_s_064.jpg,green,within,NA,NaN,NA,left,4141.300000011921,1,0,2705.600000023842
qpvcPEND,344m16ozllsw98pkhqhl4zt7rn1nev,3luy3gc633ddqykh1zl9ry2d7x97pt,qpvcPEND,2020-0188,2021-10-15,10:22:32,11:29:20,NA,incomplete,false,NA,true,6,5,NA,NA,NA,right,absent,NA,NA,n_s_027.jpg,red,n_s_099.jpg,red,within,NA,NaN,NA,right,3829.5,1,0,2739.5
qpvcPEND,344m16ozllsw98pkhqhl4zt7rn1nev,3luy3gc633ddqykh1zl9ry2d7x97pt,qpvcPEND,2020-0188,2021-10-15,10:22:32,11:29:20,NA,incomplete,false,NA,true,6,6,NA,NA,NA,right,absent,NA,NA,m_l_022.jpg,red,n_s_091.jpg,green,between,NA,NaN,NA,left,4853.4000000059605,0,2,1199.4000000059605
qpvcPEND,344m16ozllsw98pkhqhl4zt7rn1nev,3luy3gc633ddqykh1zl9ry2d7x97pt,qpvcPEND,2020-0188,2021-10-15,10:22:32,11:29:20,NA,incomplete,false,NA,true,6,7,NA,NA,NA,left,absent,NA,NA,n_l_108.jpg,orange,n_l_004.jpg,orange,within,NA,NaN,NA,right,3925.4000000059605,0,2,1585.2999999821186
qpvcPEND,344m16ozllsw98pkhqhl4zt7rn1nev,3luy3gc633ddqykh1zl9ry2d7x97pt,qpvcPEND,2020-0188,2021-10-15,10:22:32,11:29:20,NA,incomplete,false,NA,true,6,8,NA,NA,NA,right,absent,NA,NA,n_l_005.jpg,white,n_s_057.jpg,red,between,NA,NaN,NA,right,6129.4000000059605,1,1,2771.4000000059605
qpvcPEND,344m16ozllsw98pkhqhl4zt7rn1nev,3luy3gc633ddqykh1zl9ry2d7x97pt,qpvcPEND,2020-0188,2021-10-15,10:22:32,11:29:20,NA,incomplete,false,NA,true,6,9,NA,NA,NA,right,absent,NA,NA,n_l_061.jpg,purple,n_l_017.jpg,brown,between,NA,NaN,NA,left,2467.5,0,2,1841.6000000238419
qpvcPEND,344m16ozllsw98pkhqhl4zt7rn1nev,3luy3gc633ddqykh1zl9ry2d7x97pt,qpvcPEND,2020-0188,2021-10-15,10:22:32,11:29:20,NA,incomplete,false,NA,true,6,10,NA,NA,NA,right,absent,NA,NA,m_s_034.jpg,white,n_s_003.jpg,white,within,NA,NaN,NA,left,3019.5,0,0,2017.0999999940395
qpvcPEND,344m16ozllsw98pkhqhl4zt7rn1nev,3luy3gc633ddqykh1zl9ry2d7x97pt,qpvcPEND,2020-0188,2021-10-15,10:22:32,11:29:20,NA,incomplete,false,true,NA,7,0,NA,green,m_l_015.jpg,NA,NA,unpleasant,pleasant,NA,NA,NA,NA,NA,left,1215.20000001788,true,NA,NA,NA,NA,NA
qpvcPEND,344m16ozllsw98pkhqhl4zt7rn1nev,3luy3gc633ddqykh1zl9ry2d7x97pt,qpvcPEND,2020-0188,2021-10-15,10:22:32,11:29:20,NA,incomplete,false,true,NA,7,1,NA,green,m_l_021.jpg,NA,NA,unpleasant,pleasant,NA,NA,NA,NA,NA,right,1355.30000001192,true,NA,NA,NA,NA,NA
qpvcPEND,344m16ozllsw98pkhqhl4zt7rn1nev,3luy3gc633ddqykh1zl9ry2d7x97pt,qpvcPEND,2020-0188,2021-10-15,10:22:32,11:29:20,NA,incomplete,false,true,NA,7,2,NA,green,m_l_082.jpg,NA,NA,pleasant,unpleasant,NA,NA,NA,NA,NA,right,1214.70000001788,true,NA,NA,NA,NA,NA
qpvcPEND,344m16ozllsw98pkhqhl4zt7rn1nev,3luy3gc633ddqykh1zl9ry2d7x97pt,qpvcPEND,2020-0188,2021-10-15,10:22:32,11:29:20,NA,incomplete,false,true,NA,7,3,NA,green,m_s_052.jpg,NA,NA,pleasant,unpleasant,NA,NA,NA,NA,NA,left,1678,true,NA,NA,NA,NA,NA
qpvcPEND,344m16ozllsw98pkhqhl4zt7rn1nev,3luy3gc633ddqykh1zl9ry2d7x97pt,qpvcPEND,2020-0188,2021-10-15,10:22:32,11:29:20,NA,incomplete,false,true,NA,7,4,NA,green,m_s_107.jpg,NA,NA,unpleasant,pleasant,NA,NA,NA,NA,NA,left,1751,true,NA,NA,NA,NA,NA
qpvcPEND,344m16ozllsw98pkhqhl4zt7rn1nev,3luy3gc633ddqykh1zl9ry2d7x97pt,qpvcPEND,2020-0188,2021-10-15,10:22:32,11:29:20,NA,incomplete,false,true,NA,7,5,NA,green,m_l_051.jpg,NA,NA,pleasant,unpleasant,NA,NA,NA,NA,NA,right,1091.59999999404,true,NA,NA,NA,NA,NA
qpvcPEND,344m16ozllsw98pkhqhl4zt7rn1nev,3luy3gc633ddqykh1zl9ry2d7x97pt,qpvcPEND,2020-0188,2021-10-15,10:22:32,11:29:20,NA,incomplete,false,true,NA,7,6,NA,gray,m_l_058.jpg,NA,NA,pleasant,unpleasant,NA,NA,NA,NA,NA,left,1815.69999998808,true,NA,NA,NA,NA,NA
qpvcPEND,344m16ozllsw98pkhqhl4zt7rn1nev,3luy3gc633ddqykh1zl9ry2d7x97pt,qpvcPEND,2020-0188,2021-10-15,10:22:32,11:29:20,NA,incomplete,false,true,NA,7,7,NA,gray,n_l_045.jpg,NA,NA,unpleasant,pleasant,NA,NA,NA,NA,NA,left,1281.09999999404,true,NA,NA,NA,NA,NA
qpvcPEND,344m16ozllsw98pkhqhl4zt7rn1nev,3luy3gc633ddqykh1zl9ry2d7x97pt,qpvcPEND,2020-0188,2021-10-15,10:22:32,11:29:20,NA,incomplete,false,true,NA,7,8,NA,gray,m_l_111.jpg,NA,NA,pleasant,unpleasant,NA,NA,NA,NA,NA,right,1649.10000002384,true,NA,NA,NA,NA,NA
qpvcPEND,344m16ozllsw98pkhqhl4zt7rn1nev,3luy3gc633ddqykh1zl9ry2d7x97pt,qpvcPEND,2020-0188,2021-10-15,10:22:32,11:29:20,NA,incomplete,false,true,NA,7,9,NA,gray,n_s_083.jpg,NA,NA,unpleasant,pleasant,NA,NA,NA,NA,NA,left,1056.59999999404,true,NA,NA,NA,NA,NA
qpvcPEND,344m16ozllsw98pkhqhl4zt7rn1nev,3luy3gc633ddqykh1zl9ry2d7x97pt,qpvcPEND,2020-0188,2021-10-15,10:22:32,11:29:20,NA,incomplete,false,true,NA,7,10,NA,gray,m_s_102.jpg,NA,NA,unpleasant,pleasant,NA,NA,NA,NA,NA,left,1784.80000001192,true,NA,NA,NA,NA,NA
qpvcPEND,344m16ozllsw98pkhqhl4zt7rn1nev,3luy3gc633ddqykh1zl9ry2d7x97pt,qpvcPEND,2020-0188,2021-10-15,10:22:32,11:29:20,NA,incomplete,false,true,NA,7,11,NA,gray,n_s_036.jpg,NA,NA,pleasant,unpleasant,NA,NA,NA,NA,NA,right,1649.70000001788,true,NA,NA,NA,NA,NA
qpvcPEND,344m16ozllsw98pkhqhl4zt7rn1nev,3luy3gc633ddqykh1zl9ry2d7x97pt,qpvcPEND,2020-0188,2021-10-15,10:22:32,11:29:20,NA,incomplete,false,true,NA,7,12,NA,yellow,m_l_062.jpg,NA,NA,pleasant,unpleasant,NA,NA,NA,NA,NA,right,1311.19999998808,true,NA,NA,NA,NA,NA
qpvcPEND,344m16ozllsw98pkhqhl4zt7rn1nev,3luy3gc633ddqykh1zl9ry2d7x97pt,qpvcPEND,2020-0188,2021-10-15,10:22:32,11:29:20,NA,incomplete,false,true,NA,7,13,NA,yellow,n_l_002.jpg,NA,NA,pleasant,unpleasant,NA,NA,NA,NA,NA,right,1409.09999999404,true,NA,NA,NA,NA,NA
qpvcPEND,344m16ozllsw98pkhqhl4zt7rn1nev,3luy3gc633ddqykh1zl9ry2d7x97pt,qpvcPEND,2020-0188,2021-10-15,10:22:32,11:29:20,NA,incomplete,false,true,NA,7,14,NA,yellow,n_s_064.jpg,NA,NA,unpleasant,pleasant,NA,NA,NA,NA,NA,right,1365.80000001192,true,NA,NA,NA,NA,NA
qpvcPEND,344m16ozllsw98pkhqhl4zt7rn1nev,3luy3gc633ddqykh1zl9ry2d7x97pt,qpvcPEND,2020-0188,2021-10-15,10:22:32,11:29:20,NA,incomplete,false,true,NA,7,15,NA,yellow,m_l_090.jpg,NA,NA,unpleasant,pleasant,NA,NA,NA,NA,NA,left,1398,true,NA,NA,NA,NA,NA
qpvcPEND,344m16ozllsw98pkhqhl4zt7rn1nev,3luy3gc633ddqykh1zl9ry2d7x97pt,qpvcPEND,2020-0188,2021-10-15,10:22:32,11:29:20,NA,incomplete,false,true,NA,7,16,NA,yellow,m_s_016.jpg,NA,NA,pleasant,unpleasant,NA,NA,NA,NA,NA,right,1693,true,NA,NA,NA,NA,NA
qpvcPEND,344m16ozllsw98pkhqhl4zt7rn1nev,3luy3gc633ddqykh1zl9ry2d7x97pt,qpvcPEND,2020-0188,2021-10-15,10:22:32,11:29:20,NA,incomplete,false,true,NA,7,17,NA,yellow,m_s_025.jpg,NA,NA,unpleasant,pleasant,NA,NA,NA,NA,NA,left,1840.79999998212,true,NA,NA,NA,NA,NA
qpvcPEND,344m16ozllsw98pkhqhl4zt7rn1nev,3luy3gc633ddqykh1zl9ry2d7x97pt,qpvcPEND,2020-0188,2021-10-15,10:22:32,11:29:20,NA,incomplete,false,true,NA,7,18,NA,brown,n_l_064.jpg,NA,NA,unpleasant,pleasant,NA,NA,NA,NA,NA,right,1205.5,true,NA,NA,NA,NA,NA
qpvcPEND,344m16ozllsw98pkhqhl4zt7rn1nev,3luy3gc633ddqykh1zl9ry2d7x97pt,qpvcPEND,2020-0188,2021-10-15,10:22:32,11:29:20,NA,incomplete,false,true,NA,7,19,NA,brown,n_l_021.jpg,NA,NA,pleasant,unpleasant,NA,NA,NA,NA,NA,right,1110.20000001788,true,NA,NA,NA,NA,NA
qpvcPEND,344m16ozllsw98pkhqhl4zt7rn1nev,3luy3gc633ddqykh1zl9ry2d7x97pt,qpvcPEND,2020-0188,2021-10-15,10:22:32,11:29:20,NA,incomplete,false,true,NA,7,20,NA,brown,n_l_087.jpg,NA,NA,unpleasant,pleasant,NA,NA,NA,NA,NA,right,1111.69999998808,true,NA,NA,NA,NA,NA
qpvcPEND,344m16ozllsw98pkhqhl4zt7rn1nev,3luy3gc633ddqykh1zl9ry2d7x97pt,qpvcPEND,2020-0188,2021-10-15,10:22:32,11:29:20,NA,incomplete,false,true,NA,7,21,NA,brown,m_l_074.jpg,NA,NA,unpleasant,pleasant,NA,NA,NA,NA,NA,right,1739.69999998808,true,NA,NA,NA,NA,NA
qpvcPEND,344m16ozllsw98pkhqhl4zt7rn1nev,3luy3gc633ddqykh1zl9ry2d7x97pt,qpvcPEND,2020-0188,2021-10-15,10:22:32,11:29:20,NA,incomplete,false,true,NA,7,22,NA,brown,n_l_092.jpg,NA,NA,unpleasant,pleasant,NA,NA,NA,NA,NA,right,1161.5,true,NA,NA,NA,NA,NA
qpvcPEND,344m16ozllsw98pkhqhl4zt7rn1nev,3luy3gc633ddqykh1zl9ry2d7x97pt,qpvcPEND,2020-0188,2021-10-15,10:22:32,11:29:20,NA,incomplete,false,true,NA,7,23,NA,brown,m_s_097.jpg,NA,NA,unpleasant,pleasant,NA,NA,NA,NA,NA,left,1447.89999997616,true,NA,NA,NA,NA,NA
qpvcPEND,344m16ozllsw98pkhqhl4zt7rn1nev,3luy3gc633ddqykh1zl9ry2d7x97pt,qpvcPEND,2020-0188,2021-10-15,10:22:32,11:29:20,NA,incomplete,false,true,NA,7,24,NA,red,n_s_019.jpg,NA,NA,unpleasant,pleasant,NA,NA,NA,NA,NA,left,1218.40000000596,true,NA,NA,NA,NA,NA
qpvcPEND,344m16ozllsw98pkhqhl4zt7rn1nev,3luy3gc633ddqykh1zl9ry2d7x97pt,qpvcPEND,2020-0188,2021-10-15,10:22:32,11:29:20,NA,incomplete,false,true,NA,7,25,NA,red,n_l_049.jpg,NA,NA,pleasant,unpleasant,NA,NA,NA,NA,NA,right,1058.10000002384,true,NA,NA,NA,NA,NA
qpvcPEND,344m16ozllsw98pkhqhl4zt7rn1nev,3luy3gc633ddqykh1zl9ry2d7x97pt,qpvcPEND,2020-0188,2021-10-15,10:22:32,11:29:20,NA,incomplete,false,true,NA,7,26,NA,red,n_s_096.jpg,NA,NA,pleasant,unpleasant,NA,NA,NA,NA,NA,right,1233.40000000596,true,NA,NA,NA,NA,NA
qpvcPEND,344m16ozllsw98pkhqhl4zt7rn1nev,3luy3gc633ddqykh1zl9ry2d7x97pt,qpvcPEND,2020-0188,2021-10-15,10:22:32,11:29:20,NA,incomplete,false,true,NA,7,27,NA,red,n_s_040.jpg,NA,NA,unpleasant,pleasant,NA,NA,NA,NA,NA,left,1417.09999999404,true,NA,NA,NA,NA,NA
qpvcPEND,344m16ozllsw98pkhqhl4zt7rn1nev,3luy3gc633ddqykh1zl9ry2d7x97pt,qpvcPEND,2020-0188,2021-10-15,10:22:32,11:29:20,NA,incomplete,false,true,NA,7,28,NA,red,n_s_055.jpg,NA,NA,unpleasant,pleasant,NA,NA,NA,NA,NA,left,1288.20000001788,true,NA,NA,NA,NA,NA
qpvcPEND,344m16ozllsw98pkhqhl4zt7rn1nev,3luy3gc633ddqykh1zl9ry2d7x97pt,qpvcPEND,2020-0188,2021-10-15,10:22:32,11:29:20,NA,incomplete,false,true,NA,7,29,NA,red,n_l_081.jpg,NA,NA,unpleasant,pleasant,NA,NA,NA,NA,NA,left,1084.59999999404,true,NA,NA,NA,NA,NA
qpvcPEND,344m16ozllsw98pkhqhl4zt7rn1nev,3luy3gc633ddqykh1zl9ry2d7x97pt,qpvcPEND,2020-0188,2021-10-15,10:22:32,11:29:20,NA,incomplete,false,true,NA,7,30,NA,purple,n_l_073.jpg,NA,NA,unpleasant,pleasant,NA,NA,NA,NA,NA,left,1165.69999998808,true,NA,NA,NA,NA,NA
qpvcPEND,344m16ozllsw98pkhqhl4zt7rn1nev,3luy3gc633ddqykh1zl9ry2d7x97pt,qpvcPEND,2020-0188,2021-10-15,10:22:32,11:29:20,NA,incomplete,false,true,NA,7,31,NA,purple,m_s_066.jpg,NA,NA,pleasant,unpleasant,NA,NA,NA,NA,NA,left,2282.70000001788,true,NA,NA,NA,NA,NA
qpvcPEND,344m16ozllsw98pkhqhl4zt7rn1nev,3luy3gc633ddqykh1zl9ry2d7x97pt,qpvcPEND,2020-0188,2021-10-15,10:22:32,11:29:20,NA,incomplete,false,true,NA,7,32,NA,purple,m_l_068.jpg,NA,NA,unpleasant,pleasant,NA,NA,NA,NA,NA,left,1770.30000001192,true,NA,NA,NA,NA,NA
qpvcPEND,344m16ozllsw98pkhqhl4zt7rn1nev,3luy3gc633ddqykh1zl9ry2d7x97pt,qpvcPEND,2020-0188,2021-10-15,10:22:32,11:29:20,NA,incomplete,false,true,NA,7,33,NA,purple,m_l_043.jpg,NA,NA,unpleasant,pleasant,NA,NA,NA,NA,NA,right,1804.40000000596,true,NA,NA,NA,NA,NA
qpvcPEND,344m16ozllsw98pkhqhl4zt7rn1nev,3luy3gc633ddqykh1zl9ry2d7x97pt,qpvcPEND,2020-0188,2021-10-15,10:22:32,11:29:20,NA,incomplete,false,true,NA,7,34,NA,purple,m_s_085.jpg,NA,NA,pleasant,unpleasant,NA,NA,NA,NA,NA,right,1068.90000000596,true,NA,NA,NA,NA,NA
qpvcPEND,344m16ozllsw98pkhqhl4zt7rn1nev,3luy3gc633ddqykh1zl9ry2d7x97pt,qpvcPEND,2020-0188,2021-10-15,10:22:32,11:29:20,NA,incomplete,false,true,NA,7,35,NA,purple,m_l_078.jpg,NA,NA,pleasant,unpleasant,NA,NA,NA,NA,NA,right,1534,true,NA,NA,NA,NA,NA
qpvcPEND,344m16ozllsw98pkhqhl4zt7rn1nev,3luy3gc633ddqykh1zl9ry2d7x97pt,qpvcPEND,2020-0188,2021-10-15,10:22:32,11:29:20,NA,incomplete,false,NA,true,7,0,NA,NA,NA,right,absent,NA,NA,n_l_081.jpg,red,n_l_049.jpg,red,within,NA,NaN,NA,right,2185,1,2,2083.2999999821186
qpvcPEND,344m16ozllsw98pkhqhl4zt7rn1nev,3luy3gc633ddqykh1zl9ry2d7x97pt,qpvcPEND,2020-0188,2021-10-15,10:22:32,11:29:20,NA,incomplete,false,NA,true,7,1,NA,NA,NA,left,absent,NA,NA,n_l_021.jpg,brown,m_s_097.jpg,brown,within,NA,NaN,NA,left,3131.2999999821186,1,2,1248.800000011921
qpvcPEND,344m16ozllsw98pkhqhl4zt7rn1nev,3luy3gc633ddqykh1zl9ry2d7x97pt,qpvcPEND,2020-0188,2021-10-15,10:22:32,11:29:20,NA,incomplete,false,NA,true,7,2,NA,NA,NA,right,absent,NA,NA,n_s_096.jpg,red,n_l_092.jpg,brown,between,NA,NaN,NA,left,3709.199999988079,0,1,1843
qpvcPEND,344m16ozllsw98pkhqhl4zt7rn1nev,3luy3gc633ddqykh1zl9ry2d7x97pt,qpvcPEND,2020-0188,2021-10-15,10:22:32,11:29:20,NA,incomplete,false,NA,true,7,3,NA,NA,NA,right,absent,NA,NA,m_l_078.jpg,purple,m_s_066.jpg,purple,within,NA,NaN,NA,right,3083,1,0,1985.2999999821186
qpvcPEND,344m16ozllsw98pkhqhl4zt7rn1nev,3luy3gc633ddqykh1zl9ry2d7x97pt,qpvcPEND,2020-0188,2021-10-15,10:22:32,11:29:20,NA,incomplete,false,NA,true,7,4,NA,NA,NA,right,absent,NA,NA,n_l_087.jpg,brown,m_s_016.jpg,yellow,between,NA,NaN,NA,left,2411.5,0,2,1969.5999999940395
qpvcPEND,344m16ozllsw98pkhqhl4zt7rn1nev,3luy3gc633ddqykh1zl9ry2d7x97pt,qpvcPEND,2020-0188,2021-10-15,10:22:32,11:29:20,NA,incomplete,false,NA,true,7,5,NA,NA,NA,left,absent,NA,NA,n_l_045.jpg,gray,n_s_036.jpg,gray,within,NA,NaN,NA,left,3765.5,1,0,1969.5
qpvcPEND,344m16ozllsw98pkhqhl4zt7rn1nev,3luy3gc633ddqykh1zl9ry2d7x97pt,qpvcPEND,2020-0188,2021-10-15,10:22:32,11:29:20,NA,incomplete,false,NA,true,7,6,NA,NA,NA,left,absent,NA,NA,n_s_055.jpg,red,m_l_068.jpg,purple,between,NA,NaN,NA,left,2707.2999999821186,1,1,2083.4000000059605
qpvcPEND,344m16ozllsw98pkhqhl4zt7rn1nev,3luy3gc633ddqykh1zl9ry2d7x97pt,qpvcPEND,2020-0188,2021-10-15,10:22:32,11:29:20,NA,incomplete,false,NA,true,7,7,NA,NA,NA,right,absent,NA,NA,m_l_051.jpg,green,m_l_021.jpg,green,within,NA,NaN,NA,right,4351.5,1,0,1745.300000011921
qpvcPEND,344m16ozllsw98pkhqhl4zt7rn1nev,3luy3gc633ddqykh1zl9ry2d7x97pt,qpvcPEND,2020-0188,2021-10-15,10:22:32,11:29:20,NA,incomplete,false,NA,true,7,8,NA,NA,NA,right,absent,NA,NA,n_s_064.jpg,yellow,m_s_102.jpg,gray,between,NA,NaN,NA,left,2595.5999999940395,0,1,2419.2999999821186
qpvcPEND,344m16ozllsw98pkhqhl4zt7rn1nev,3luy3gc633ddqykh1zl9ry2d7x97pt,qpvcPEND,2020-0188,2021-10-15,10:22:32,11:29:20,NA,incomplete,false,NA,true,7,9,NA,NA,NA,left,absent,NA,NA,n_l_002.jpg,yellow,m_s_025.jpg,yellow,within,NA,NaN,NA,left,2257.0999999940395,1,2,1001.2999999821186
qpvcPEND,344m16ozllsw98pkhqhl4zt7rn1nev,3luy3gc633ddqykh1zl9ry2d7x97pt,qpvcPEND,2020-0188,2021-10-15,10:22:32,11:29:20,NA,incomplete,false,NA,true,7,10,NA,NA,NA,left,absent,NA,NA,m_s_107.jpg,green,m_l_111.jpg,gray,between,NA,NaN,NA,left,2973.5,1,2,1249.3999999761581
qpvcPEND,344m16ozllsw98pkhqhl4zt7rn1nev,3luy3gc633ddqykh1zl9ry2d7x97pt,qpvcPEND,2020-0188,2021-10-15,10:22:32,11:29:20,NA,incomplete,false,true,NA,8,0,NA,blue,m_l_083.jpg,NA,NA,pleasant,unpleasant,NA,NA,NA,NA,NA,left,2157.80000001192,true,NA,NA,NA,NA,NA
qpvcPEND,344m16ozllsw98pkhqhl4zt7rn1nev,3luy3gc633ddqykh1zl9ry2d7x97pt,qpvcPEND,2020-0188,2021-10-15,10:22:32,11:29:20,NA,incomplete,false,true,NA,8,1,NA,blue,m_s_050.jpg,NA,NA,pleasant,unpleasant,NA,NA,NA,NA,NA,right,995.100000023842,true,NA,NA,NA,NA,NA
qpvcPEND,344m16ozllsw98pkhqhl4zt7rn1nev,3luy3gc633ddqykh1zl9ry2d7x97pt,qpvcPEND,2020-0188,2021-10-15,10:22:32,11:29:20,NA,incomplete,false,true,NA,8,2,NA,blue,n_l_084.jpg,NA,NA,pleasant,unpleasant,NA,NA,NA,NA,NA,right,1037.79999998212,true,NA,NA,NA,NA,NA
qpvcPEND,344m16ozllsw98pkhqhl4zt7rn1nev,3luy3gc633ddqykh1zl9ry2d7x97pt,qpvcPEND,2020-0188,2021-10-15,10:22:32,11:29:20,NA,incomplete,false,true,NA,8,3,NA,blue,m_s_115.jpg,NA,NA,pleasant,unpleasant,NA,NA,NA,NA,NA,right,1196,true,NA,NA,NA,NA,NA
qpvcPEND,344m16ozllsw98pkhqhl4zt7rn1nev,3luy3gc633ddqykh1zl9ry2d7x97pt,qpvcPEND,2020-0188,2021-10-15,10:22:32,11:29:20,NA,incomplete,false,true,NA,8,4,NA,blue,m_l_026.jpg,NA,NA,pleasant,unpleasant,NA,NA,NA,NA,NA,right,1222.5,true,NA,NA,NA,NA,NA
qpvcPEND,344m16ozllsw98pkhqhl4zt7rn1nev,3luy3gc633ddqykh1zl9ry2d7x97pt,qpvcPEND,2020-0188,2021-10-15,10:22:32,11:29:20,NA,incomplete,false,true,NA,8,5,NA,blue,m_s_105.jpg,NA,NA,pleasant,unpleasant,NA,NA,NA,NA,NA,left,1492,true,NA,NA,NA,NA,NA
qpvcPEND,344m16ozllsw98pkhqhl4zt7rn1nev,3luy3gc633ddqykh1zl9ry2d7x97pt,qpvcPEND,2020-0188,2021-10-15,10:22:32,11:29:20,NA,incomplete,false,true,NA,8,6,NA,orange,m_l_027.jpg,NA,NA,pleasant,unpleasant,NA,NA,NA,NA,NA,right,1099.60000002384,true,NA,NA,NA,NA,NA
qpvcPEND,344m16ozllsw98pkhqhl4zt7rn1nev,3luy3gc633ddqykh1zl9ry2d7x97pt,qpvcPEND,2020-0188,2021-10-15,10:22:32,11:29:20,NA,incomplete,false,true,NA,8,7,NA,orange,m_l_034.jpg,NA,NA,unpleasant,pleasant,NA,NA,NA,NA,NA,right,1396.29999998212,true,NA,NA,NA,NA,NA
qpvcPEND,344m16ozllsw98pkhqhl4zt7rn1nev,3luy3gc633ddqykh1zl9ry2d7x97pt,qpvcPEND,2020-0188,2021-10-15,10:22:32,11:29:20,NA,incomplete,false,true,NA,8,8,NA,orange,n_l_069.jpg,NA,NA,unpleasant,pleasant,NA,NA,NA,NA,NA,left,931.899999976158,true,NA,NA,NA,NA,NA
qpvcPEND,344m16ozllsw98pkhqhl4zt7rn1nev,3luy3gc633ddqykh1zl9ry2d7x97pt,qpvcPEND,2020-0188,2021-10-15,10:22:32,11:29:20,NA,incomplete,false,true,NA,8,9,NA,orange,m_s_021.jpg,NA,NA,unpleasant,pleasant,NA,NA,NA,NA,NA,left,1483.80000001192,true,NA,NA,NA,NA,NA
