workerId,hitId,assignmentId,subject,studyid,exp_date,exp_start,exp_end,time_start,time_end,practice,encoding,memory,block,trial,event_order,event,stim,answer,context_type,label_left,label_right,left_image,left_event,right_image,right_event,condition,response,response_time,response_acc,order_response,order_response_time,order_acc,distance_response,distance_response_time
QyiaODZd,33tgb4g0msu3alll9rtp1nk6wbyxtf,3hya4d452vwudkyhhk89jd71ub02f5,QyiaODZd,2020-0188,2021-10-15,09:12:21,10:31:06,NA,incomplete,true,true,NA,0,0,NA,purple,n_s_014.jpg,NA,NA,pleasant,unpleasant,NA,NA,NA,NA,NA,left,2302,true,NA,NA,NA,NA,NA
QyiaODZd,33tgb4g0msu3alll9rtp1nk6wbyxtf,3hya4d452vwudkyhhk89jd71ub02f5,QyiaODZd,2020-0188,2021-10-15,09:12:21,10:31:06,NA,incomplete,true,true,NA,0,1,NA,purple,m_s_107.jpg,NA,NA,pleasant,unpleasant,NA,NA,NA,NA,NA,right,2552,true,NA,NA,NA,NA,NA
QyiaODZd,33tgb4g0msu3alll9rtp1nk6wbyxtf,3hya4d452vwudkyhhk89jd71ub02f5,QyiaODZd,2020-0188,2021-10-15,09:12:21,10:31:06,NA,incomplete,true,true,NA,0,2,NA,purple,n_l_020.jpg,NA,NA,pleasant,unpleasant,NA,NA,NA,NA,NA,left,1593,true,NA,NA,NA,NA,NA
QyiaODZd,33tgb4g0msu3alll9rtp1nk6wbyxtf,3hya4d452vwudkyhhk89jd71ub02f5,QyiaODZd,2020-0188,2021-10-15,09:12:21,10:31:06,NA,incomplete,true,true,NA,0,3,NA,purple,n_s_042.jpg,NA,NA,unpleasant,pleasant,NA,NA,NA,NA,NA,right,1954,true,NA,NA,NA,NA,NA
QyiaODZd,33tgb4g0msu3alll9rtp1nk6wbyxtf,3hya4d452vwudkyhhk89jd71ub02f5,QyiaODZd,2020-0188,2021-10-15,09:12:21,10:31:06,NA,incomplete,true,true,NA,0,4,NA,purple,n_s_059.jpg,NA,NA,pleasant,unpleasant,NA,NA,NA,NA,NA,right,1826,true,NA,NA,NA,NA,NA
QyiaODZd,33tgb4g0msu3alll9rtp1nk6wbyxtf,3hya4d452vwudkyhhk89jd71ub02f5,QyiaODZd,2020-0188,2021-10-15,09:12:21,10:31:06,NA,incomplete,true,true,NA,0,5,NA,purple,m_l_008.jpg,NA,NA,unpleasant,pleasant,NA,NA,NA,NA,NA,left,2215,true,NA,NA,NA,NA,NA
QyiaODZd,33tgb4g0msu3alll9rtp1nk6wbyxtf,3hya4d452vwudkyhhk89jd71ub02f5,QyiaODZd,2020-0188,2021-10-15,09:12:21,10:31:06,NA,incomplete,true,true,NA,0,6,NA,gray,m_s_062.jpg,NA,NA,unpleasant,pleasant,NA,NA,NA,NA,NA,left,1484,true,NA,NA,NA,NA,NA
QyiaODZd,33tgb4g0msu3alll9rtp1nk6wbyxtf,3hya4d452vwudkyhhk89jd71ub02f5,QyiaODZd,2020-0188,2021-10-15,09:12:21,10:31:06,NA,incomplete,true,true,NA,0,7,NA,gray,m_s_095.jpg,NA,NA,unpleasant,pleasant,NA,NA,NA,NA,NA,right,2386,true,NA,NA,NA,NA,NA
QyiaODZd,33tgb4g0msu3alll9rtp1nk6wbyxtf,3hya4d452vwudkyhhk89jd71ub02f5,QyiaODZd,2020-0188,2021-10-15,09:12:21,10:31:06,NA,incomplete,true,true,NA,0,8,NA,gray,n_s_047.jpg,NA,NA,pleasant,unpleasant,NA,NA,NA,NA,NA,right,2053,true,NA,NA,NA,NA,NA
QyiaODZd,33tgb4g0msu3alll9rtp1nk6wbyxtf,3hya4d452vwudkyhhk89jd71ub02f5,QyiaODZd,2020-0188,2021-10-15,09:12:21,10:31:06,NA,incomplete,true,true,NA,0,9,NA,gray,m_s_028.jpg,NA,NA,pleasant,unpleasant,NA,NA,NA,NA,NA,left,2063,true,NA,NA,NA,NA,NA
QyiaODZd,33tgb4g0msu3alll9rtp1nk6wbyxtf,3hya4d452vwudkyhhk89jd71ub02f5,QyiaODZd,2020-0188,2021-10-15,09:12:21,10:31:06,NA,incomplete,true,true,NA,0,10,NA,gray,n_l_075.jpg,NA,NA,pleasant,unpleasant,NA,NA,NA,NA,NA,right,2120,true,NA,NA,NA,NA,NA
QyiaODZd,33tgb4g0msu3alll9rtp1nk6wbyxtf,3hya4d452vwudkyhhk89jd71ub02f5,QyiaODZd,2020-0188,2021-10-15,09:12:21,10:31:06,NA,incomplete,true,true,NA,0,11,NA,gray,m_l_046.jpg,NA,NA,pleasant,unpleasant,NA,NA,NA,NA,NA,left,2228,true,NA,NA,NA,NA,NA
QyiaODZd,33tgb4g0msu3alll9rtp1nk6wbyxtf,3hya4d452vwudkyhhk89jd71ub02f5,QyiaODZd,2020-0188,2021-10-15,09:12:21,10:31:06,NA,incomplete,true,true,NA,0,12,NA,black,m_l_007.jpg,NA,NA,pleasant,unpleasant,NA,NA,NA,NA,NA,right,2449,true,NA,NA,NA,NA,NA
QyiaODZd,33tgb4g0msu3alll9rtp1nk6wbyxtf,3hya4d452vwudkyhhk89jd71ub02f5,QyiaODZd,2020-0188,2021-10-15,09:12:21,10:31:06,NA,incomplete,true,true,NA,0,13,NA,black,n_s_057.jpg,NA,NA,pleasant,unpleasant,NA,NA,NA,NA,NA,right,2327,true,NA,NA,NA,NA,NA
QyiaODZd,33tgb4g0msu3alll9rtp1nk6wbyxtf,3hya4d452vwudkyhhk89jd71ub02f5,QyiaODZd,2020-0188,2021-10-15,09:12:21,10:31:06,NA,incomplete,true,true,NA,0,14,NA,black,m_l_024.jpg,NA,NA,unpleasant,pleasant,NA,NA,NA,NA,NA,right,2276,true,NA,NA,NA,NA,NA
QyiaODZd,33tgb4g0msu3alll9rtp1nk6wbyxtf,3hya4d452vwudkyhhk89jd71ub02f5,QyiaODZd,2020-0188,2021-10-15,09:12:21,10:31:06,NA,incomplete,true,true,NA,0,15,NA,black,m_l_073.jpg,NA,NA,unpleasant,pleasant,NA,NA,NA,NA,NA,right,1580,true,NA,NA,NA,NA,NA
QyiaODZd,33tgb4g0msu3alll9rtp1nk6wbyxtf,3hya4d452vwudkyhhk89jd71ub02f5,QyiaODZd,2020-0188,2021-10-15,09:12:21,10:31:06,NA,incomplete,true,true,NA,0,16,NA,black,n_s_117.jpg,NA,NA,pleasant,unpleasant,NA,NA,NA,NA,NA,right,2223,true,NA,NA,NA,NA,NA
QyiaODZd,33tgb4g0msu3alll9rtp1nk6wbyxtf,3hya4d452vwudkyhhk89jd71ub02f5,QyiaODZd,2020-0188,2021-10-15,09:12:21,10:31:06,NA,incomplete,true,true,NA,0,17,NA,black,m_l_093.jpg,NA,NA,unpleasant,pleasant,NA,NA,NA,NA,NA,none,0,false,NA,NA,NA,NA,NA
QyiaODZd,33tgb4g0msu3alll9rtp1nk6wbyxtf,3hya4d452vwudkyhhk89jd71ub02f5,QyiaODZd,2020-0188,2021-10-15,09:12:21,10:31:06,NA,incomplete,true,true,NA,0,18,NA,red,n_l_038.jpg,NA,NA,pleasant,unpleasant,NA,NA,NA,NA,NA,right,631,true,NA,NA,NA,NA,NA
QyiaODZd,33tgb4g0msu3alll9rtp1nk6wbyxtf,3hya4d452vwudkyhhk89jd71ub02f5,QyiaODZd,2020-0188,2021-10-15,09:12:21,10:31:06,NA,incomplete,true,true,NA,0,19,NA,red,n_s_084.jpg,NA,NA,unpleasant,pleasant,NA,NA,NA,NA,NA,right,3251,true,NA,NA,NA,NA,NA
QyiaODZd,33tgb4g0msu3alll9rtp1nk6wbyxtf,3hya4d452vwudkyhhk89jd71ub02f5,QyiaODZd,2020-0188,2021-10-15,09:12:21,10:31:06,NA,incomplete,true,true,NA,0,20,NA,red,m_l_025.jpg,NA,NA,pleasant,unpleasant,NA,NA,NA,NA,NA,right,2221,true,NA,NA,NA,NA,NA
QyiaODZd,33tgb4g0msu3alll9rtp1nk6wbyxtf,3hya4d452vwudkyhhk89jd71ub02f5,QyiaODZd,2020-0188,2021-10-15,09:12:21,10:31:06,NA,incomplete,true,true,NA,0,21,NA,red,m_s_093.jpg,NA,NA,pleasant,unpleasant,NA,NA,NA,NA,NA,right,1957,true,NA,NA,NA,NA,NA
QyiaODZd,33tgb4g0msu3alll9rtp1nk6wbyxtf,3hya4d452vwudkyhhk89jd71ub02f5,QyiaODZd,2020-0188,2021-10-15,09:12:21,10:31:06,NA,incomplete,true,true,NA,0,22,NA,red,m_s_033.jpg,NA,NA,pleasant,unpleasant,NA,NA,NA,NA,NA,left,1481,true,NA,NA,NA,NA,NA
QyiaODZd,33tgb4g0msu3alll9rtp1nk6wbyxtf,3hya4d452vwudkyhhk89jd71ub02f5,QyiaODZd,2020-0188,2021-10-15,09:12:21,10:31:06,NA,incomplete,true,true,NA,0,23,NA,red,m_s_082.jpg,NA,NA,unpleasant,pleasant,NA,NA,NA,NA,NA,right,2119,true,NA,NA,NA,NA,NA
QyiaODZd,33tgb4g0msu3alll9rtp1nk6wbyxtf,3hya4d452vwudkyhhk89jd71ub02f5,QyiaODZd,2020-0188,2021-10-15,09:12:21,10:31:06,NA,incomplete,true,true,NA,0,24,NA,yellow,n_l_074.jpg,NA,NA,unpleasant,pleasant,NA,NA,NA,NA,NA,left,2592,true,NA,NA,NA,NA,NA
QyiaODZd,33tgb4g0msu3alll9rtp1nk6wbyxtf,3hya4d452vwudkyhhk89jd71ub02f5,QyiaODZd,2020-0188,2021-10-15,09:12:21,10:31:06,NA,incomplete,true,true,NA,0,25,NA,yellow,m_s_085.jpg,NA,NA,pleasant,unpleasant,NA,NA,NA,NA,NA,right,1373,true,NA,NA,NA,NA,NA
QyiaODZd,33tgb4g0msu3alll9rtp1nk6wbyxtf,3hya4d452vwudkyhhk89jd71ub02f5,QyiaODZd,2020-0188,2021-10-15,09:12:21,10:31:06,NA,incomplete,true,true,NA,0,26,NA,yellow,n_s_045.jpg,NA,NA,pleasant,unpleasant,NA,NA,NA,NA,NA,left,2863,true,NA,NA,NA,NA,NA
QyiaODZd,33tgb4g0msu3alll9rtp1nk6wbyxtf,3hya4d452vwudkyhhk89jd71ub02f5,QyiaODZd,2020-0188,2021-10-15,09:12:21,10:31:06,NA,incomplete,true,true,NA,0,27,NA,yellow,m_s_016.jpg,NA,NA,pleasant,unpleasant,NA,NA,NA,NA,NA,left,2226,true,NA,NA,NA,NA,NA
QyiaODZd,33tgb4g0msu3alll9rtp1nk6wbyxtf,3hya4d452vwudkyhhk89jd71ub02f5,QyiaODZd,2020-0188,2021-10-15,09:12:21,10:31:06,NA,incomplete,true,true,NA,0,28,NA,yellow,m_s_040.jpg,NA,NA,unpleasant,pleasant,NA,NA,NA,NA,NA,right,2213,true,NA,NA,NA,NA,NA
QyiaODZd,33tgb4g0msu3alll9rtp1nk6wbyxtf,3hya4d452vwudkyhhk89jd71ub02f5,QyiaODZd,2020-0188,2021-10-15,09:12:21,10:31:06,NA,incomplete,true,true,NA,0,29,NA,yellow,n_s_085.jpg,NA,NA,unpleasant,pleasant,NA,NA,NA,NA,NA,left,1998,true,NA,NA,NA,NA,NA
QyiaODZd,33tgb4g0msu3alll9rtp1nk6wbyxtf,3hya4d452vwudkyhhk89jd71ub02f5,QyiaODZd,2020-0188,2021-10-15,09:12:21,10:31:06,NA,incomplete,true,true,NA,0,30,NA,blue,m_l_048.jpg,NA,NA,pleasant,unpleasant,NA,NA,NA,NA,NA,left,2653,true,NA,NA,NA,NA,NA
QyiaODZd,33tgb4g0msu3alll9rtp1nk6wbyxtf,3hya4d452vwudkyhhk89jd71ub02f5,QyiaODZd,2020-0188,2021-10-15,09:12:21,10:31:06,NA,incomplete,true,true,NA,0,31,NA,blue,n_s_072.jpg,NA,NA,unpleasant,pleasant,NA,NA,NA,NA,NA,left,1522,true,NA,NA,NA,NA,NA
QyiaODZd,33tgb4g0msu3alll9rtp1nk6wbyxtf,3hya4d452vwudkyhhk89jd71ub02f5,QyiaODZd,2020-0188,2021-10-15,09:12:21,10:31:06,NA,incomplete,true,true,NA,0,32,NA,blue,n_l_116.jpg,NA,NA,pleasant,unpleasant,NA,NA,NA,NA,NA,right,2234,true,NA,NA,NA,NA,NA
QyiaODZd,33tgb4g0msu3alll9rtp1nk6wbyxtf,3hya4d452vwudkyhhk89jd71ub02f5,QyiaODZd,2020-0188,2021-10-15,09:12:21,10:31:06,NA,incomplete,true,true,NA,0,33,NA,blue,m_s_002.jpg,NA,NA,pleasant,unpleasant,NA,NA,NA,NA,NA,right,1775,true,NA,NA,NA,NA,NA
QyiaODZd,33tgb4g0msu3alll9rtp1nk6wbyxtf,3hya4d452vwudkyhhk89jd71ub02f5,QyiaODZd,2020-0188,2021-10-15,09:12:21,10:31:06,NA,incomplete,true,true,NA,0,34,NA,blue,m_l_097.jpg,NA,NA,pleasant,unpleasant,NA,NA,NA,NA,NA,left,1858,true,NA,NA,NA,NA,NA
QyiaODZd,33tgb4g0msu3alll9rtp1nk6wbyxtf,3hya4d452vwudkyhhk89jd71ub02f5,QyiaODZd,2020-0188,2021-10-15,09:12:21,10:31:06,NA,incomplete,true,true,NA,0,35,NA,blue,m_s_063.jpg,NA,NA,unpleasant,pleasant,NA,NA,NA,NA,NA,left,2594,true,NA,NA,NA,NA,NA
QyiaODZd,33tgb4g0msu3alll9rtp1nk6wbyxtf,3hya4d452vwudkyhhk89jd71ub02f5,QyiaODZd,2020-0188,2021-10-15,09:12:21,10:31:06,NA,incomplete,true,NA,true,0,0,NA,NA,NA,right,present,NA,NA,n_s_045.jpg,yellow,m_s_033.jpg,red,between,NA,NaN,NA,right,5743,1,1,5571
QyiaODZd,33tgb4g0msu3alll9rtp1nk6wbyxtf,3hya4d452vwudkyhhk89jd71ub02f5,QyiaODZd,2020-0188,2021-10-15,09:12:21,10:31:06,NA,incomplete,true,NA,true,0,1,NA,NA,NA,left,present,NA,NA,m_s_095.jpg,gray,m_l_046.jpg,gray,within,NA,NaN,NA,left,4782,1,0,1842
QyiaODZd,33tgb4g0msu3alll9rtp1nk6wbyxtf,3hya4d452vwudkyhhk89jd71ub02f5,QyiaODZd,2020-0188,2021-10-15,09:12:21,10:31:06,NA,incomplete,true,NA,true,0,2,NA,NA,NA,left,absent,NA,NA,m_s_040.jpg,yellow,n_l_116.jpg,blue,between,NA,NaN,NA,right,2977,0,0,1648
QyiaODZd,33tgb4g0msu3alll9rtp1nk6wbyxtf,3hya4d452vwudkyhhk89jd71ub02f5,QyiaODZd,2020-0188,2021-10-15,09:12:21,10:31:06,NA,incomplete,true,NA,true,0,3,NA,NA,NA,right,absent,NA,NA,m_s_063.jpg,blue,n_s_072.jpg,blue,within,NA,NaN,NA,left,3569,0,1,2096
QyiaODZd,33tgb4g0msu3alll9rtp1nk6wbyxtf,3hya4d452vwudkyhhk89jd71ub02f5,QyiaODZd,2020-0188,2021-10-15,09:12:21,10:31:06,NA,incomplete,true,NA,true,0,4,NA,NA,NA,left,present,NA,NA,n_s_084.jpg,red,m_s_082.jpg,red,within,NA,NaN,NA,left,4056,1,1,2638
QyiaODZd,33tgb4g0msu3alll9rtp1nk6wbyxtf,3hya4d452vwudkyhhk89jd71ub02f5,QyiaODZd,2020-0188,2021-10-15,09:12:21,10:31:06,NA,incomplete,true,NA,true,0,5,NA,NA,NA,right,present,NA,NA,m_l_024.jpg,black,n_l_075.jpg,gray,between,NA,NaN,NA,right,4126,1,2,1675
QyiaODZd,33tgb4g0msu3alll9rtp1nk6wbyxtf,3hya4d452vwudkyhhk89jd71ub02f5,QyiaODZd,2020-0188,2021-10-15,09:12:21,10:31:06,NA,incomplete,true,NA,true,0,6,NA,NA,NA,right,present,NA,NA,m_l_008.jpg,purple,m_s_107.jpg,purple,within,NA,NaN,NA,right,2811,1,1,1774
QyiaODZd,33tgb4g0msu3alll9rtp1nk6wbyxtf,3hya4d452vwudkyhhk89jd71ub02f5,QyiaODZd,2020-0188,2021-10-15,09:12:21,10:31:06,NA,incomplete,true,NA,true,0,7,NA,NA,NA,right,absent,NA,NA,m_l_093.jpg,black,n_s_057.jpg,black,within,NA,NaN,NA,left,2831,0,2,1974
QyiaODZd,33tgb4g0msu3alll9rtp1nk6wbyxtf,3hya4d452vwudkyhhk89jd71ub02f5,QyiaODZd,2020-0188,2021-10-15,09:12:21,10:31:06,NA,incomplete,true,NA,true,0,8,NA,NA,NA,right,absent,NA,NA,n_s_047.jpg,gray,n_s_059.jpg,purple,between,NA,NaN,NA,right,5194,1,1,1747
QyiaODZd,33tgb4g0msu3alll9rtp1nk6wbyxtf,3hya4d452vwudkyhhk89jd71ub02f5,QyiaODZd,2020-0188,2021-10-15,09:12:21,10:31:06,NA,incomplete,true,NA,true,0,9,NA,NA,NA,right,absent,NA,NA,m_l_025.jpg,red,n_s_117.jpg,black,between,NA,NaN,NA,right,4447,1,2,1616
QyiaODZd,33tgb4g0msu3alll9rtp1nk6wbyxtf,3hya4d452vwudkyhhk89jd71ub02f5,QyiaODZd,2020-0188,2021-10-15,09:12:21,10:31:06,NA,incomplete,true,NA,true,0,10,NA,NA,NA,right,absent,NA,NA,n_s_085.jpg,yellow,m_s_085.jpg,yellow,within,NA,NaN,NA,right,3110,1,2,2705
QyiaODZd,33tgb4g0msu3alll9rtp1nk6wbyxtf,3hya4d452vwudkyhhk89jd71ub02f5,QyiaODZd,2020-0188,2021-10-15,09:12:21,10:31:06,NA,incomplete,false,true,NA,1,0,NA,blue,m_l_058.jpg,NA,NA,pleasant,unpleasant,NA,NA,NA,NA,NA,left,2373,true,NA,NA,NA,NA,NA
QyiaODZd,33tgb4g0msu3alll9rtp1nk6wbyxtf,3hya4d452vwudkyhhk89jd71ub02f5,QyiaODZd,2020-0188,2021-10-15,09:12:21,10:31:06,NA,incomplete,false,true,NA,1,1,NA,blue,m_s_071.jpg,NA,NA,pleasant,unpleasant,NA,NA,NA,NA,NA,right,2540,true,NA,NA,NA,NA,NA
QyiaODZd,33tgb4g0msu3alll9rtp1nk6wbyxtf,3hya4d452vwudkyhhk89jd71ub02f5,QyiaODZd,2020-0188,2021-10-15,09:12:21,10:31:06,NA,incomplete,false,true,NA,1,2,NA,blue,n_l_019.jpg,NA,NA,unpleasant,pleasant,NA,NA,NA,NA,NA,right,1871,true,NA,NA,NA,NA,NA
QyiaODZd,33tgb4g0msu3alll9rtp1nk6wbyxtf,3hya4d452vwudkyhhk89jd71ub02f5,QyiaODZd,2020-0188,2021-10-15,09:12:21,10:31:06,NA,incomplete,false,true,NA,1,3,NA,blue,n_s_113.jpg,NA,NA,pleasant,unpleasant,NA,NA,NA,NA,NA,right,2981,true,NA,NA,NA,NA,NA
QyiaODZd,33tgb4g0msu3alll9rtp1nk6wbyxtf,3hya4d452vwudkyhhk89jd71ub02f5,QyiaODZd,2020-0188,2021-10-15,09:12:21,10:31:06,NA,incomplete,false,true,NA,1,4,NA,blue,n_l_101.jpg,NA,NA,pleasant,unpleasant,NA,NA,NA,NA,NA,right,1851,true,NA,NA,NA,NA,NA
QyiaODZd,33tgb4g0msu3alll9rtp1nk6wbyxtf,3hya4d452vwudkyhhk89jd71ub02f5,QyiaODZd,2020-0188,2021-10-15,09:12:21,10:31:06,NA,incomplete,false,true,NA,1,5,NA,blue,n_l_006.jpg,NA,NA,unpleasant,pleasant,NA,NA,NA,NA,NA,left,1261,true,NA,NA,NA,NA,NA
QyiaODZd,33tgb4g0msu3alll9rtp1nk6wbyxtf,3hya4d452vwudkyhhk89jd71ub02f5,QyiaODZd,2020-0188,2021-10-15,09:12:21,10:31:06,NA,incomplete,false,true,NA,1,6,NA,purple,n_s_040.jpg,NA,NA,pleasant,unpleasant,NA,NA,NA,NA,NA,right,1739,true,NA,NA,NA,NA,NA
QyiaODZd,33tgb4g0msu3alll9rtp1nk6wbyxtf,3hya4d452vwudkyhhk89jd71ub02f5,QyiaODZd,2020-0188,2021-10-15,09:12:21,10:31:06,NA,incomplete,false,true,NA,1,7,NA,purple,m_l_102.jpg,NA,NA,pleasant,unpleasant,NA,NA,NA,NA,NA,left,1966,true,NA,NA,NA,NA,NA
QyiaODZd,33tgb4g0msu3alll9rtp1nk6wbyxtf,3hya4d452vwudkyhhk89jd71ub02f5,QyiaODZd,2020-0188,2021-10-15,09:12:21,10:31:06,NA,incomplete,false,true,NA,1,8,NA,purple,m_s_025.jpg,NA,NA,pleasant,unpleasant,NA,NA,NA,NA,NA,right,2022,true,NA,NA,NA,NA,NA
QyiaODZd,33tgb4g0msu3alll9rtp1nk6wbyxtf,3hya4d452vwudkyhhk89jd71ub02f5,QyiaODZd,2020-0188,2021-10-15,09:12:21,10:31:06,NA,incomplete,false,true,NA,1,9,NA,purple,n_l_082.jpg,NA,NA,unpleasant,pleasant,NA,NA,NA,NA,NA,right,2804,true,NA,NA,NA,NA,NA
QyiaODZd,33tgb4g0msu3alll9rtp1nk6wbyxtf,3hya4d452vwudkyhhk89jd71ub02f5,QyiaODZd,2020-0188,2021-10-15,09:12:21,10:31:06,NA,incomplete,false,true,NA,1,10,NA,purple,n_l_036.jpg,NA,NA,unpleasant,pleasant,NA,NA,NA,NA,NA,left,2943,true,NA,NA,NA,NA,NA
QyiaODZd,33tgb4g0msu3alll9rtp1nk6wbyxtf,3hya4d452vwudkyhhk89jd71ub02f5,QyiaODZd,2020-0188,2021-10-15,09:12:21,10:31:06,NA,incomplete,false,true,NA,1,11,NA,purple,n_l_109.jpg,NA,NA,unpleasant,pleasant,NA,NA,NA,NA,NA,left,2608,true,NA,NA,NA,NA,NA
QyiaODZd,33tgb4g0msu3alll9rtp1nk6wbyxtf,3hya4d452vwudkyhhk89jd71ub02f5,QyiaODZd,2020-0188,2021-10-15,09:12:21,10:31:06,NA,incomplete,false,true,NA,1,12,NA,orange,m_l_043.jpg,NA,NA,pleasant,unpleasant,NA,NA,NA,NA,NA,right,3479,true,NA,NA,NA,NA,NA
QyiaODZd,33tgb4g0msu3alll9rtp1nk6wbyxtf,3hya4d452vwudkyhhk89jd71ub02f5,QyiaODZd,2020-0188,2021-10-15,09:12:21,10:31:06,NA,incomplete,false,true,NA,1,13,NA,orange,m_l_039.jpg,NA,NA,unpleasant,pleasant,NA,NA,NA,NA,NA,right,1946,true,NA,NA,NA,NA,NA
QyiaODZd,33tgb4g0msu3alll9rtp1nk6wbyxtf,3hya4d452vwudkyhhk89jd71ub02f5,QyiaODZd,2020-0188,2021-10-15,09:12:21,10:31:06,NA,incomplete,false,true,NA,1,14,NA,orange,n_l_078.jpg,NA,NA,unpleasant,pleasant,NA,NA,NA,NA,NA,left,2047,true,NA,NA,NA,NA,NA
QyiaODZd,33tgb4g0msu3alll9rtp1nk6wbyxtf,3hya4d452vwudkyhhk89jd71ub02f5,QyiaODZd,2020-0188,2021-10-15,09:12:21,10:31:06,NA,incomplete,false,true,NA,1,15,NA,orange,m_s_038.jpg,NA,NA,pleasant,unpleasant,NA,NA,NA,NA,NA,left,1872,true,NA,NA,NA,NA,NA
QyiaODZd,33tgb4g0msu3alll9rtp1nk6wbyxtf,3hya4d452vwudkyhhk89jd71ub02f5,QyiaODZd,2020-0188,2021-10-15,09:12:21,10:31:06,NA,incomplete,false,true,NA,1,16,NA,orange,n_l_104.jpg,NA,NA,unpleasant,pleasant,NA,NA,NA,NA,NA,left,1833,true,NA,NA,NA,NA,NA
QyiaODZd,33tgb4g0msu3alll9rtp1nk6wbyxtf,3hya4d452vwudkyhhk89jd71ub02f5,QyiaODZd,2020-0188,2021-10-15,09:12:21,10:31:06,NA,incomplete,false,true,NA,1,17,NA,orange,m_l_084.jpg,NA,NA,unpleasant,pleasant,NA,NA,NA,NA,NA,left,1805,true,NA,NA,NA,NA,NA
QyiaODZd,33tgb4g0msu3alll9rtp1nk6wbyxtf,3hya4d452vwudkyhhk89jd71ub02f5,QyiaODZd,2020-0188,2021-10-15,09:12:21,10:31:06,NA,incomplete,false,true,NA,1,18,NA,gray,n_s_028.jpg,NA,NA,pleasant,unpleasant,NA,NA,NA,NA,NA,left,1833,true,NA,NA,NA,NA,NA
QyiaODZd,33tgb4g0msu3alll9rtp1nk6wbyxtf,3hya4d452vwudkyhhk89jd71ub02f5,QyiaODZd,2020-0188,2021-10-15,09:12:21,10:31:06,NA,incomplete,false,true,NA,1,19,NA,gray,m_l_001.jpg,NA,NA,unpleasant,pleasant,NA,NA,NA,NA,NA,right,2236,true,NA,NA,NA,NA,NA
QyiaODZd,33tgb4g0msu3alll9rtp1nk6wbyxtf,3hya4d452vwudkyhhk89jd71ub02f5,QyiaODZd,2020-0188,2021-10-15,09:12:21,10:31:06,NA,incomplete,false,true,NA,1,20,NA,gray,n_l_049.jpg,NA,NA,pleasant,unpleasant,NA,NA,NA,NA,NA,left,2313,true,NA,NA,NA,NA,NA
QyiaODZd,33tgb4g0msu3alll9rtp1nk6wbyxtf,3hya4d452vwudkyhhk89jd71ub02f5,QyiaODZd,2020-0188,2021-10-15,09:12:21,10:31:06,NA,incomplete,false,true,NA,1,21,NA,gray,m_l_009.jpg,NA,NA,pleasant,unpleasant,NA,NA,NA,NA,NA,right,1825,true,NA,NA,NA,NA,NA
QyiaODZd,33tgb4g0msu3alll9rtp1nk6wbyxtf,3hya4d452vwudkyhhk89jd71ub02f5,QyiaODZd,2020-0188,2021-10-15,09:12:21,10:31:06,NA,incomplete,false,true,NA,1,22,NA,gray,n_l_041.jpg,NA,NA,unpleasant,pleasant,NA,NA,NA,NA,NA,left,1549,true,NA,NA,NA,NA,NA
QyiaODZd,33tgb4g0msu3alll9rtp1nk6wbyxtf,3hya4d452vwudkyhhk89jd71ub02f5,QyiaODZd,2020-0188,2021-10-15,09:12:21,10:31:06,NA,incomplete,false,true,NA,1,23,NA,gray,m_s_080.jpg,NA,NA,unpleasant,pleasant,NA,NA,NA,NA,NA,right,1772,true,NA,NA,NA,NA,NA
QyiaODZd,33tgb4g0msu3alll9rtp1nk6wbyxtf,3hya4d452vwudkyhhk89jd71ub02f5,QyiaODZd,2020-0188,2021-10-15,09:12:21,10:31:06,NA,incomplete,false,true,NA,1,24,NA,green,m_l_026.jpg,NA,NA,unpleasant,pleasant,NA,NA,NA,NA,NA,right,2132,true,NA,NA,NA,NA,NA
QyiaODZd,33tgb4g0msu3alll9rtp1nk6wbyxtf,3hya4d452vwudkyhhk89jd71ub02f5,QyiaODZd,2020-0188,2021-10-15,09:12:21,10:31:06,NA,incomplete,false,true,NA,1,25,NA,green,m_l_032.jpg,NA,NA,pleasant,unpleasant,NA,NA,NA,NA,NA,left,1750,true,NA,NA,NA,NA,NA
QyiaODZd,33tgb4g0msu3alll9rtp1nk6wbyxtf,3hya4d452vwudkyhhk89jd71ub02f5,QyiaODZd,2020-0188,2021-10-15,09:12:21,10:31:06,NA,incomplete,false,true,NA,1,26,NA,green,n_l_017.jpg,NA,NA,unpleasant,pleasant,NA,NA,NA,NA,NA,left,1779,true,NA,NA,NA,NA,NA
QyiaODZd,33tgb4g0msu3alll9rtp1nk6wbyxtf,3hya4d452vwudkyhhk89jd71ub02f5,QyiaODZd,2020-0188,2021-10-15,09:12:21,10:31:06,NA,incomplete,false,true,NA,1,27,NA,green,n_l_007.jpg,NA,NA,unpleasant,pleasant,NA,NA,NA,NA,NA,left,1546,true,NA,NA,NA,NA,NA
QyiaODZd,33tgb4g0msu3alll9rtp1nk6wbyxtf,3hya4d452vwudkyhhk89jd71ub02f5,QyiaODZd,2020-0188,2021-10-15,09:12:21,10:31:06,NA,incomplete,false,true,NA,1,28,NA,green,m_l_042.jpg,NA,NA,unpleasant,pleasant,NA,NA,NA,NA,NA,right,1408,true,NA,NA,NA,NA,NA
QyiaODZd,33tgb4g0msu3alll9rtp1nk6wbyxtf,3hya4d452vwudkyhhk89jd71ub02f5,QyiaODZd,2020-0188,2021-10-15,09:12:21,10:31:06,NA,incomplete,false,true,NA,1,29,NA,green,m_l_011.jpg,NA,NA,pleasant,unpleasant,NA,NA,NA,NA,NA,right,2047,true,NA,NA,NA,NA,NA
QyiaODZd,33tgb4g0msu3alll9rtp1nk6wbyxtf,3hya4d452vwudkyhhk89jd71ub02f5,QyiaODZd,2020-0188,2021-10-15,09:12:21,10:31:06,NA,incomplete,false,true,NA,1,30,NA,brown,m_l_080.jpg,NA,NA,unpleasant,pleasant,NA,NA,NA,NA,NA,right,1650,true,NA,NA,NA,NA,NA
QyiaODZd,33tgb4g0msu3alll9rtp1nk6wbyxtf,3hya4d452vwudkyhhk89jd71ub02f5,QyiaODZd,2020-0188,2021-10-15,09:12:21,10:31:06,NA,incomplete,false,true,NA,1,31,NA,brown,n_s_094.jpg,NA,NA,pleasant,unpleasant,NA,NA,NA,NA,NA,right,1448,true,NA,NA,NA,NA,NA
QyiaODZd,33tgb4g0msu3alll9rtp1nk6wbyxtf,3hya4d452vwudkyhhk89jd71ub02f5,QyiaODZd,2020-0188,2021-10-15,09:12:21,10:31:06,NA,incomplete,false,true,NA,1,32,NA,brown,n_l_044.jpg,NA,NA,unpleasant,pleasant,NA,NA,NA,NA,NA,right,1332,true,NA,NA,NA,NA,NA
QyiaODZd,33tgb4g0msu3alll9rtp1nk6wbyxtf,3hya4d452vwudkyhhk89jd71ub02f5,QyiaODZd,2020-0188,2021-10-15,09:12:21,10:31:06,NA,incomplete,false,true,NA,1,33,NA,brown,m_s_103.jpg,NA,NA,unpleasant,pleasant,NA,NA,NA,NA,NA,left,2363,true,NA,NA,NA,NA,NA
QyiaODZd,33tgb4g0msu3alll9rtp1nk6wbyxtf,3hya4d452vwudkyhhk89jd71ub02f5,QyiaODZd,2020-0188,2021-10-15,09:12:21,10:31:06,NA,incomplete,false,true,NA,1,34,NA,brown,n_l_009.jpg,NA,NA,unpleasant,pleasant,NA,NA,NA,NA,NA,left,2095,true,NA,NA,NA,NA,NA
QyiaODZd,33tgb4g0msu3alll9rtp1nk6wbyxtf,3hya4d452vwudkyhhk89jd71ub02f5,QyiaODZd,2020-0188,2021-10-15,09:12:21,10:31:06,NA,incomplete,false,true,NA,1,35,NA,brown,n_l_008.jpg,NA,NA,unpleasant,pleasant,NA,NA,NA,NA,NA,left,2195,true,NA,NA,NA,NA,NA
QyiaODZd,33tgb4g0msu3alll9rtp1nk6wbyxtf,3hya4d452vwudkyhhk89jd71ub02f5,QyiaODZd,2020-0188,2021-10-15,09:12:21,10:31:06,NA,incomplete,false,NA,true,1,0,NA,NA,NA,right,absent,NA,NA,n_l_006.jpg,blue,m_s_071.jpg,blue,within,NA,NaN,NA,right,6456,1,2,2486
QyiaODZd,33tgb4g0msu3alll9rtp1nk6wbyxtf,3hya4d452vwudkyhhk89jd71ub02f5,QyiaODZd,2020-0188,2021-10-15,09:12:21,10:31:06,NA,incomplete,false,NA,true,1,1,NA,NA,NA,left,absent,NA,NA,m_l_001.jpg,gray,m_s_080.jpg,gray,within,NA,NaN,NA,left,2376,1,3,1457
QyiaODZd,33tgb4g0msu3alll9rtp1nk6wbyxtf,3hya4d452vwudkyhhk89jd71ub02f5,QyiaODZd,2020-0188,2021-10-15,09:12:21,10:31:06,NA,incomplete,false,NA,true,1,2,NA,NA,NA,left,absent,NA,NA,n_s_094.jpg,brown,n_l_008.jpg,brown,within,NA,NaN,NA,right,2639,0,1,1742
QyiaODZd,33tgb4g0msu3alll9rtp1nk6wbyxtf,3hya4d452vwudkyhhk89jd71ub02f5,QyiaODZd,2020-0188,2021-10-15,09:12:21,10:31:06,NA,incomplete,false,NA,true,1,3,NA,NA,NA,right,absent,NA,NA,n_l_078.jpg,orange,n_l_036.jpg,purple,between,NA,NaN,NA,left,3105,0,2,1418
QyiaODZd,33tgb4g0msu3alll9rtp1nk6wbyxtf,3hya4d452vwudkyhhk89jd71ub02f5,QyiaODZd,2020-0188,2021-10-15,09:12:21,10:31:06,NA,incomplete,false,NA,true,1,4,NA,NA,NA,left,absent,NA,NA,m_l_032.jpg,green,m_l_011.jpg,green,within,NA,NaN,NA,left,4040,1,1,1434
QyiaODZd,33tgb4g0msu3alll9rtp1nk6wbyxtf,3hya4d452vwudkyhhk89jd71ub02f5,QyiaODZd,2020-0188,2021-10-15,09:12:21,10:31:06,NA,incomplete,false,NA,true,1,5,NA,NA,NA,left,absent,NA,NA,m_l_102.jpg,purple,n_l_109.jpg,purple,within,NA,NaN,NA,right,2505,0,2,3087
QyiaODZd,33tgb4g0msu3alll9rtp1nk6wbyxtf,3hya4d452vwudkyhhk89jd71ub02f5,QyiaODZd,2020-0188,2021-10-15,09:12:21,10:31:06,NA,incomplete,false,NA,true,1,6,NA,NA,NA,left,absent,NA,NA,n_l_041.jpg,gray,n_l_017.jpg,green,between,NA,NaN,NA,left,5751,1,1,5267
QyiaODZd,33tgb4g0msu3alll9rtp1nk6wbyxtf,3hya4d452vwudkyhhk89jd71ub02f5,QyiaODZd,2020-0188,2021-10-15,09:12:21,10:31:06,NA,incomplete,false,NA,true,1,7,NA,NA,NA,left,absent,NA,NA,n_l_104.jpg,orange,n_l_049.jpg,gray,between,NA,NaN,NA,left,8883,1,3,1977
QyiaODZd,33tgb4g0msu3alll9rtp1nk6wbyxtf,3hya4d452vwudkyhhk89jd71ub02f5,QyiaODZd,2020-0188,2021-10-15,09:12:21,10:31:06,NA,incomplete,false,NA,true,1,8,NA,NA,NA,left,absent,NA,NA,n_l_101.jpg,blue,m_s_025.jpg,purple,between,NA,NaN,NA,left,5935,1,2,3165
QyiaODZd,33tgb4g0msu3alll9rtp1nk6wbyxtf,3hya4d452vwudkyhhk89jd71ub02f5,QyiaODZd,2020-0188,2021-10-15,09:12:21,10:31:06,NA,incomplete,false,NA,true,1,9,NA,NA,NA,left,absent,NA,NA,m_l_042.jpg,green,n_l_044.jpg,brown,between,NA,NaN,NA,left,3468,1,1,10102
QyiaODZd,33tgb4g0msu3alll9rtp1nk6wbyxtf,3hya4d452vwudkyhhk89jd71ub02f5,QyiaODZd,2020-0188,2021-10-15,09:12:21,10:31:06,NA,incomplete,false,NA,true,1,10,NA,NA,NA,right,absent,NA,NA,m_l_084.jpg,orange,m_l_039.jpg,orange,within,NA,NaN,NA,right,3421,1,1,2275
QyiaODZd,33tgb4g0msu3alll9rtp1nk6wbyxtf,3hya4d452vwudkyhhk89jd71ub02f5,QyiaODZd,2020-0188,2021-10-15,09:12:21,10:31:06,NA,incomplete,false,true,NA,2,0,NA,blue,m_l_108.jpg,NA,NA,unpleasant,pleasant,NA,NA,NA,NA,NA,right,2156,true,NA,NA,NA,NA,NA
QyiaODZd,33tgb4g0msu3alll9rtp1nk6wbyxtf,3hya4d452vwudkyhhk89jd71ub02f5,QyiaODZd,2020-0188,2021-10-15,09:12:21,10:31:06,NA,incomplete,false,true,NA,2,1,NA,blue,m_l_105.jpg,NA,NA,unpleasant,pleasant,NA,NA,NA,NA,NA,right,1401,true,NA,NA,NA,NA,NA
QyiaODZd,33tgb4g0msu3alll9rtp1nk6wbyxtf,3hya4d452vwudkyhhk89jd71ub02f5,QyiaODZd,2020-0188,2021-10-15,09:12:21,10:31:06,NA,incomplete,false,true,NA,2,2,NA,blue,n_l_080.jpg,NA,NA,unpleasant,pleasant,NA,NA,NA,NA,NA,left,1626,true,NA,NA,NA,NA,NA
QyiaODZd,33tgb4g0msu3alll9rtp1nk6wbyxtf,3hya4d452vwudkyhhk89jd71ub02f5,QyiaODZd,2020-0188,2021-10-15,09:12:21,10:31:06,NA,incomplete,false,true,NA,2,3,NA,blue,m_s_069.jpg,NA,NA,unpleasant,pleasant,NA,NA,NA,NA,NA,left,1505,true,NA,NA,NA,NA,NA
QyiaODZd,33tgb4g0msu3alll9rtp1nk6wbyxtf,3hya4d452vwudkyhhk89jd71ub02f5,QyiaODZd,2020-0188,2021-10-15,09:12:21,10:31:06,NA,incomplete,false,true,NA,2,4,NA,blue,n_l_018.jpg,NA,NA,pleasant,unpleasant,NA,NA,NA,NA,NA,right,1458,true,NA,NA,NA,NA,NA
QyiaODZd,33tgb4g0msu3alll9rtp1nk6wbyxtf,3hya4d452vwudkyhhk89jd71ub02f5,QyiaODZd,2020-0188,2021-10-15,09:12:21,10:31:06,NA,incomplete,false,true,NA,2,5,NA,blue,m_s_108.jpg,NA,NA,pleasant,unpleasant,NA,NA,NA,NA,NA,left,1383,true,NA,NA,NA,NA,NA
QyiaODZd,33tgb4g0msu3alll9rtp1nk6wbyxtf,3hya4d452vwudkyhhk89jd71ub02f5,QyiaODZd,2020-0188,2021-10-15,09:12:21,10:31:06,NA,incomplete,false,true,NA,2,6,NA,brown,n_l_026.jpg,NA,NA,pleasant,unpleasant,NA,NA,NA,NA,NA,right,1416,true,NA,NA,NA,NA,NA
QyiaODZd,33tgb4g0msu3alll9rtp1nk6wbyxtf,3hya4d452vwudkyhhk89jd71ub02f5,QyiaODZd,2020-0188,2021-10-15,09:12:21,10:31:06,NA,incomplete,false,true,NA,2,7,NA,brown,m_l_022.jpg,NA,NA,unpleasant,pleasant,NA,NA,NA,NA,NA,right,2782,true,NA,NA,NA,NA,NA
QyiaODZd,33tgb4g0msu3alll9rtp1nk6wbyxtf,3hya4d452vwudkyhhk89jd71ub02f5,QyiaODZd,2020-0188,2021-10-15,09:12:21,10:31:06,NA,incomplete,false,true,NA,2,8,NA,brown,m_l_087.jpg,NA,NA,pleasant,unpleasant,NA,NA,NA,NA,NA,left,1515,true,NA,NA,NA,NA,NA
QyiaODZd,33tgb4g0msu3alll9rtp1nk6wbyxtf,3hya4d452vwudkyhhk89jd71ub02f5,QyiaODZd,2020-0188,2021-10-15,09:12:21,10:31:06,NA,incomplete,false,true,NA,2,9,NA,brown,m_s_008.jpg,NA,NA,unpleasant,pleasant,NA,NA,NA,NA,NA,right,1419,true,NA,NA,NA,NA,NA
QyiaODZd,33tgb4g0msu3alll9rtp1nk6wbyxtf,3hya4d452vwudkyhhk89jd71ub02f5,QyiaODZd,2020-0188,2021-10-15,09:12:21,10:31:06,NA,incomplete,false,true,NA,2,10,NA,brown,n_l_111.jpg,NA,NA,unpleasant,pleasant,NA,NA,NA,NA,NA,right,1589,true,NA,NA,NA,NA,NA
QyiaODZd,33tgb4g0msu3alll9rtp1nk6wbyxtf,3hya4d452vwudkyhhk89jd71ub02f5,QyiaODZd,2020-0188,2021-10-15,09:12:21,10:31:06,NA,incomplete,false,true,NA,2,11,NA,brown,m_s_110.jpg,NA,NA,pleasant,unpleasant,NA,NA,NA,NA,NA,right,1688,true,NA,NA,NA,NA,NA
QyiaODZd,33tgb4g0msu3alll9rtp1nk6wbyxtf,3hya4d452vwudkyhhk89jd71ub02f5,QyiaODZd,2020-0188,2021-10-15,09:12:21,10:31:06,NA,incomplete,false,true,NA,2,12,NA,gray,m_s_086.jpg,NA,NA,pleasant,unpleasant,NA,NA,NA,NA,NA,left,1625,true,NA,NA,NA,NA,NA
QyiaODZd,33tgb4g0msu3alll9rtp1nk6wbyxtf,3hya4d452vwudkyhhk89jd71ub02f5,QyiaODZd,2020-0188,2021-10-15,09:12:21,10:31:06,NA,incomplete,false,true,NA,2,13,NA,gray,n_l_108.jpg,NA,NA,unpleasant,pleasant,NA,NA,NA,NA,NA,left,1502,true,NA,NA,NA,NA,NA
QyiaODZd,33tgb4g0msu3alll9rtp1nk6wbyxtf,3hya4d452vwudkyhhk89jd71ub02f5,QyiaODZd,2020-0188,2021-10-15,09:12:21,10:31:06,NA,incomplete,false,true,NA,2,14,NA,gray,m_l_098.jpg,NA,NA,unpleasant,pleasant,NA,NA,NA,NA,NA,left,1887,true,NA,NA,NA,NA,NA
QyiaODZd,33tgb4g0msu3alll9rtp1nk6wbyxtf,3hya4d452vwudkyhhk89jd71ub02f5,QyiaODZd,2020-0188,2021-10-15,09:12:21,10:31:06,NA,incomplete,false,true,NA,2,15,NA,gray,m_s_024.jpg,NA,NA,unpleasant,pleasant,NA,NA,NA,NA,NA,left,2372,true,NA,NA,NA,NA,NA
QyiaODZd,33tgb4g0msu3alll9rtp1nk6wbyxtf,3hya4d452vwudkyhhk89jd71ub02f5,QyiaODZd,2020-0188,2021-10-15,09:12:21,10:31:06,NA,incomplete,false,true,NA,2,16,NA,gray,m_s_036.jpg,NA,NA,pleasant,unpleasant,NA,NA,NA,NA,NA,right,2660,true,NA,NA,NA,NA,NA
QyiaODZd,33tgb4g0msu3alll9rtp1nk6wbyxtf,3hya4d452vwudkyhhk89jd71ub02f5,QyiaODZd,2020-0188,2021-10-15,09:12:21,10:31:06,NA,incomplete,false,true,NA,2,17,NA,gray,n_s_096.jpg,NA,NA,pleasant,unpleasant,NA,NA,NA,NA,NA,left,2397,true,NA,NA,NA,NA,NA
QyiaODZd,33tgb4g0msu3alll9rtp1nk6wbyxtf,3hya4d452vwudkyhhk89jd71ub02f5,QyiaODZd,2020-0188,2021-10-15,09:12:21,10:31:06,NA,incomplete,false,true,NA,2,18,NA,red,m_l_015.jpg,NA,NA,pleasant,unpleasant,NA,NA,NA,NA,NA,right,1326,true,NA,NA,NA,NA,NA
QyiaODZd,33tgb4g0msu3alll9rtp1nk6wbyxtf,3hya4d452vwudkyhhk89jd71ub02f5,QyiaODZd,2020-0188,2021-10-15,09:12:21,10:31:06,NA,incomplete,false,true,NA,2,19,NA,red,m_l_029.jpg,NA,NA,unpleasant,pleasant,NA,NA,NA,NA,NA,left,1829,true,NA,NA,NA,NA,NA
QyiaODZd,33tgb4g0msu3alll9rtp1nk6wbyxtf,3hya4d452vwudkyhhk89jd71ub02f5,QyiaODZd,2020-0188,2021-10-15,09:12:21,10:31:06,NA,incomplete,false,true,NA,2,20,NA,red,n_s_003.jpg,NA,NA,pleasant,unpleasant,NA,NA,NA,NA,NA,right,1539,true,NA,NA,NA,NA,NA
QyiaODZd,33tgb4g0msu3alll9rtp1nk6wbyxtf,3hya4d452vwudkyhhk89jd71ub02f5,QyiaODZd,2020-0188,2021-10-15,09:12:21,10:31:06,NA,incomplete,false,true,NA,2,21,NA,red,n_s_060.jpg,NA,NA,unpleasant,pleasant,NA,NA,NA,NA,NA,left,2861,true,NA,NA,NA,NA,NA
QyiaODZd,33tgb4g0msu3alll9rtp1nk6wbyxtf,3hya4d452vwudkyhhk89jd71ub02f5,QyiaODZd,2020-0188,2021-10-15,09:12:21,10:31:06,NA,incomplete,false,true,NA,2,22,NA,red,n_l_014.jpg,NA,NA,unpleasant,pleasant,NA,NA,NA,NA,NA,left,2895,true,NA,NA,NA,NA,NA
QyiaODZd,33tgb4g0msu3alll9rtp1nk6wbyxtf,3hya4d452vwudkyhhk89jd71ub02f5,QyiaODZd,2020-0188,2021-10-15,09:12:21,10:31:06,NA,incomplete,false,true,NA,2,23,NA,red,n_l_081.jpg,NA,NA,unpleasant,pleasant,NA,NA,NA,NA,NA,left,1950,true,NA,NA,NA,NA,NA
QyiaODZd,33tgb4g0msu3alll9rtp1nk6wbyxtf,3hya4d452vwudkyhhk89jd71ub02f5,QyiaODZd,2020-0188,2021-10-15,09:12:21,10:31:06,NA,incomplete,false,true,NA,2,24,NA,purple,m_s_034.jpg,NA,NA,unpleasant,pleasant,NA,NA,NA,NA,NA,left,3032,true,NA,NA,NA,NA,NA
QyiaODZd,33tgb4g0msu3alll9rtp1nk6wbyxtf,3hya4d452vwudkyhhk89jd71ub02f5,QyiaODZd,2020-0188,2021-10-15,09:12:21,10:31:06,NA,incomplete,false,true,NA,2,25,NA,purple,n_s_026.jpg,NA,NA,unpleasant,pleasant,NA,NA,NA,NA,NA,right,2384,true,NA,NA,NA,NA,NA
QyiaODZd,33tgb4g0msu3alll9rtp1nk6wbyxtf,3hya4d452vwudkyhhk89jd71ub02f5,QyiaODZd,2020-0188,2021-10-15,09:12:21,10:31:06,NA,incomplete,false,true,NA,2,26,NA,purple,m_l_072.jpg,NA,NA,pleasant,unpleasant,NA,NA,NA,NA,NA,left,2290,true,NA,NA,NA,NA,NA
QyiaODZd,33tgb4g0msu3alll9rtp1nk6wbyxtf,3hya4d452vwudkyhhk89jd71ub02f5,QyiaODZd,2020-0188,2021-10-15,09:12:21,10:31:06,NA,incomplete,false,true,NA,2,27,NA,purple,m_s_030.jpg,NA,NA,unpleasant,pleasant,NA,NA,NA,NA,NA,right,1849,true,NA,NA,NA,NA,NA
QyiaODZd,33tgb4g0msu3alll9rtp1nk6wbyxtf,3hya4d452vwudkyhhk89jd71ub02f5,QyiaODZd,2020-0188,2021-10-15,09:12:21,10:31:06,NA,incomplete,false,true,NA,2,28,NA,purple,m_s_083.jpg,NA,NA,pleasant,unpleasant,NA,NA,NA,NA,NA,none,0,false,NA,NA,NA,NA,NA
QyiaODZd,33tgb4g0msu3alll9rtp1nk6wbyxtf,3hya4d452vwudkyhhk89jd71ub02f5,QyiaODZd,2020-0188,2021-10-15,09:12:21,10:31:06,NA,incomplete,false,true,NA,2,29,NA,purple,m_l_112.jpg,NA,NA,pleasant,unpleasant,NA,NA,NA,NA,NA,right,2610,true,NA,NA,NA,NA,NA
QyiaODZd,33tgb4g0msu3alll9rtp1nk6wbyxtf,3hya4d452vwudkyhhk89jd71ub02f5,QyiaODZd,2020-0188,2021-10-15,09:12:21,10:31:06,NA,incomplete,false,true,NA,2,30,NA,orange,n_s_051.jpg,NA,NA,pleasant,unpleasant,NA,NA,NA,NA,NA,right,1424,true,NA,NA,NA,NA,NA
QyiaODZd,33tgb4g0msu3alll9rtp1nk6wbyxtf,3hya4d452vwudkyhhk89jd71ub02f5,QyiaODZd,2020-0188,2021-10-15,09:12:21,10:31:06,NA,incomplete,false,true,NA,2,31,NA,orange,m_l_005.jpg,NA,NA,pleasant,unpleasant,NA,NA,NA,NA,NA,right,2200,true,NA,NA,NA,NA,NA
QyiaODZd,33tgb4g0msu3alll9rtp1nk6wbyxtf,3hya4d452vwudkyhhk89jd71ub02f5,QyiaODZd,2020-0188,2021-10-15,09:12:21,10:31:06,NA,incomplete,false,true,NA,2,32,NA,orange,n_l_028.jpg,NA,NA,unpleasant,pleasant,NA,NA,NA,NA,NA,left,1557,true,NA,NA,NA,NA,NA
QyiaODZd,33tgb4g0msu3alll9rtp1nk6wbyxtf,3hya4d452vwudkyhhk89jd71ub02f5,QyiaODZd,2020-0188,2021-10-15,09:12:21,10:31:06,NA,incomplete,false,true,NA,2,33,NA,orange,n_l_043.jpg,NA,NA,pleasant,unpleasant,NA,NA,NA,NA,NA,right,1547,true,NA,NA,NA,NA,NA
QyiaODZd,33tgb4g0msu3alll9rtp1nk6wbyxtf,3hya4d452vwudkyhhk89jd71ub02f5,QyiaODZd,2020-0188,2021-10-15,09:12:21,10:31:06,NA,incomplete,false,true,NA,2,34,NA,orange,n_s_038.jpg,NA,NA,unpleasant,pleasant,NA,NA,NA,NA,NA,left,2183,true,NA,NA,NA,NA,NA
QyiaODZd,33tgb4g0msu3alll9rtp1nk6wbyxtf,3hya4d452vwudkyhhk89jd71ub02f5,QyiaODZd,2020-0188,2021-10-15,09:12:21,10:31:06,NA,incomplete,false,true,NA,2,35,NA,orange,m_s_097.jpg,NA,NA,pleasant,unpleasant,NA,NA,NA,NA,NA,right,1727,true,NA,NA,NA,NA,NA
QyiaODZd,33tgb4g0msu3alll9rtp1nk6wbyxtf,3hya4d452vwudkyhhk89jd71ub02f5,QyiaODZd,2020-0188,2021-10-15,09:12:21,10:31:06,NA,incomplete,false,NA,true,2,0,NA,NA,NA,right,absent,NA,NA,n_s_003.jpg,red,m_s_036.jpg,gray,between,NA,NaN,NA,right,3097,1,2,4324
QyiaODZd,33tgb4g0msu3alll9rtp1nk6wbyxtf,3hya4d452vwudkyhhk89jd71ub02f5,QyiaODZd,2020-0188,2021-10-15,09:12:21,10:31:06,NA,incomplete,false,NA,true,2,1,NA,NA,NA,right,absent,NA,NA,m_s_110.jpg,brown,m_l_022.jpg,brown,within,NA,NaN,NA,left,2992,0,2,2085
QyiaODZd,33tgb4g0msu3alll9rtp1nk6wbyxtf,3hya4d452vwudkyhhk89jd71ub02f5,QyiaODZd,2020-0188,2021-10-15,09:12:21,10:31:06,NA,incomplete,false,NA,true,2,2,NA,NA,NA,right,absent,NA,NA,m_l_087.jpg,brown,n_l_018.jpg,blue,between,NA,NaN,NA,left,7234,0,2,2951
QyiaODZd,33tgb4g0msu3alll9rtp1nk6wbyxtf,3hya4d452vwudkyhhk89jd71ub02f5,QyiaODZd,2020-0188,2021-10-15,09:12:21,10:31:06,NA,incomplete,false,NA,true,2,3,NA,NA,NA,left,absent,NA,NA,m_l_029.jpg,red,n_l_081.jpg,red,within,NA,NaN,NA,left,3149,1,1,2971
QyiaODZd,33tgb4g0msu3alll9rtp1nk6wbyxtf,3hya4d452vwudkyhhk89jd71ub02f5,QyiaODZd,2020-0188,2021-10-15,09:12:21,10:31:06,NA,incomplete,false,NA,true,2,4,NA,NA,NA,left,absent,NA,NA,n_l_111.jpg,brown,m_l_098.jpg,gray,between,NA,NaN,NA,right,5973,0,1,1897
QyiaODZd,33tgb4g0msu3alll9rtp1nk6wbyxtf,3hya4d452vwudkyhhk89jd71ub02f5,QyiaODZd,2020-0188,2021-10-15,09:12:21,10:31:06,NA,incomplete,false,NA,true,2,5,NA,NA,NA,right,absent,NA,NA,m_s_108.jpg,blue,m_l_105.jpg,blue,within,NA,NaN,NA,left,4233,0,1,2347
QyiaODZd,33tgb4g0msu3alll9rtp1nk6wbyxtf,3hya4d452vwudkyhhk89jd71ub02f5,QyiaODZd,2020-0188,2021-10-15,09:12:21,10:31:06,NA,incomplete,false,NA,true,2,6,NA,NA,NA,left,absent,NA,NA,m_s_083.jpg,purple,n_l_028.jpg,orange,between,NA,NaN,NA,left,3235,1,1,1297
QyiaODZd,33tgb4g0msu3alll9rtp1nk6wbyxtf,3hya4d452vwudkyhhk89jd71ub02f5,QyiaODZd,2020-0188,2021-10-15,09:12:21,10:31:06,NA,incomplete,false,NA,true,2,7,NA,NA,NA,left,absent,NA,NA,n_s_026.jpg,purple,m_l_112.jpg,purple,within,NA,NaN,NA,right,2513,0,2,1644
QyiaODZd,33tgb4g0msu3alll9rtp1nk6wbyxtf,3hya4d452vwudkyhhk89jd71ub02f5,QyiaODZd,2020-0188,2021-10-15,09:12:21,10:31:06,NA,incomplete,false,NA,true,2,8,NA,NA,NA,left,absent,NA,NA,m_l_005.jpg,orange,m_s_097.jpg,orange,within,NA,NaN,NA,left,2430,1,2,1573
QyiaODZd,33tgb4g0msu3alll9rtp1nk6wbyxtf,3hya4d452vwudkyhhk89jd71ub02f5,QyiaODZd,2020-0188,2021-10-15,09:12:21,10:31:06,NA,incomplete,false,NA,true,2,9,NA,NA,NA,right,absent,NA,NA,n_s_096.jpg,gray,n_l_108.jpg,gray,within,NA,NaN,NA,left,2101,0,1,1445
QyiaODZd,33tgb4g0msu3alll9rtp1nk6wbyxtf,3hya4d452vwudkyhhk89jd71ub02f5,QyiaODZd,2020-0188,2021-10-15,09:12:21,10:31:06,NA,incomplete,false,NA,true,2,10,NA,NA,NA,left,absent,NA,NA,n_l_014.jpg,red,m_l_072.jpg,purple,between,NA,NaN,NA,left,2633,1,1,1918
QyiaODZd,33tgb4g0msu3alll9rtp1nk6wbyxtf,3hya4d452vwudkyhhk89jd71ub02f5,QyiaODZd,2020-0188,2021-10-15,09:12:21,10:31:06,NA,incomplete,false,true,NA,3,0,NA,red,n_s_089.jpg,NA,NA,unpleasant,pleasant,NA,NA,NA,NA,NA,left,1961,true,NA,NA,NA,NA,NA
QyiaODZd,33tgb4g0msu3alll9rtp1nk6wbyxtf,3hya4d452vwudkyhhk89jd71ub02f5,QyiaODZd,2020-0188,2021-10-15,09:12:21,10:31:06,NA,incomplete,false,true,NA,3,1,NA,red,n_s_067.jpg,NA,NA,pleasant,unpleasant,NA,NA,NA,NA,NA,right,1958,true,NA,NA,NA,NA,NA
QyiaODZd,33tgb4g0msu3alll9rtp1nk6wbyxtf,3hya4d452vwudkyhhk89jd71ub02f5,QyiaODZd,2020-0188,2021-10-15,09:12:21,10:31:06,NA,incomplete,false,true,NA,3,2,NA,red,m_s_049.jpg,NA,NA,unpleasant,pleasant,NA,NA,NA,NA,NA,right,2113,true,NA,NA,NA,NA,NA
QyiaODZd,33tgb4g0msu3alll9rtp1nk6wbyxtf,3hya4d452vwudkyhhk89jd71ub02f5,QyiaODZd,2020-0188,2021-10-15,09:12:21,10:31:06,NA,incomplete,false,true,NA,3,3,NA,red,m_s_031.jpg,NA,NA,pleasant,unpleasant,NA,NA,NA,NA,NA,right,1982,true,NA,NA,NA,NA,NA
QyiaODZd,33tgb4g0msu3alll9rtp1nk6wbyxtf,3hya4d452vwudkyhhk89jd71ub02f5,QyiaODZd,2020-0188,2021-10-15,09:12:21,10:31:06,NA,incomplete,false,true,NA,3,4,NA,red,n_s_102.jpg,NA,NA,unpleasant,pleasant,NA,NA,NA,NA,NA,left,2243,true,NA,NA,NA,NA,NA
QyiaODZd,33tgb4g0msu3alll9rtp1nk6wbyxtf,3hya4d452vwudkyhhk89jd71ub02f5,QyiaODZd,2020-0188,2021-10-15,09:12:21,10:31:06,NA,incomplete,false,true,NA,3,5,NA,red,n_l_001.jpg,NA,NA,pleasant,unpleasant,NA,NA,NA,NA,NA,right,1776,true,NA,NA,NA,NA,NA
QyiaODZd,33tgb4g0msu3alll9rtp1nk6wbyxtf,3hya4d452vwudkyhhk89jd71ub02f5,QyiaODZd,2020-0188,2021-10-15,09:12:21,10:31:06,NA,incomplete,false,true,NA,3,6,NA,orange,m_l_044.jpg,NA,NA,pleasant,unpleasant,NA,NA,NA,NA,NA,right,1497,true,NA,NA,NA,NA,NA
QyiaODZd,33tgb4g0msu3alll9rtp1nk6wbyxtf,3hya4d452vwudkyhhk89jd71ub02f5,QyiaODZd,2020-0188,2021-10-15,09:12:21,10:31:06,NA,incomplete,false,true,NA,3,7,NA,orange,m_l_069.jpg,NA,NA,unpleasant,pleasant,NA,NA,NA,NA,NA,left,1427,true,NA,NA,NA,NA,NA
QyiaODZd,33tgb4g0msu3alll9rtp1nk6wbyxtf,3hya4d452vwudkyhhk89jd71ub02f5,QyiaODZd,2020-0188,2021-10-15,09:12:21,10:31:06,NA,incomplete,false,true,NA,3,8,NA,orange,n_s_017.jpg,NA,NA,pleasant,unpleasant,NA,NA,NA,NA,NA,right,1749,true,NA,NA,NA,NA,NA
QyiaODZd,33tgb4g0msu3alll9rtp1nk6wbyxtf,3hya4d452vwudkyhhk89jd71ub02f5,QyiaODZd,2020-0188,2021-10-15,09:12:21,10:31:06,NA,incomplete,false,true,NA,3,9,NA,orange,n_l_025.jpg,NA,NA,pleasant,unpleasant,NA,NA,NA,NA,NA,right,1973,true,NA,NA,NA,NA,NA
QyiaODZd,33tgb4g0msu3alll9rtp1nk6wbyxtf,3hya4d452vwudkyhhk89jd71ub02f5,QyiaODZd,2020-0188,2021-10-15,09:12:21,10:31:06,NA,incomplete,false,true,NA,3,10,NA,orange,m_l_111.jpg,NA,NA,pleasant,unpleasant,NA,NA,NA,NA,NA,right,1508,true,NA,NA,NA,NA,NA
QyiaODZd,33tgb4g0msu3alll9rtp1nk6wbyxtf,3hya4d452vwudkyhhk89jd71ub02f5,QyiaODZd,2020-0188,2021-10-15,09:12:21,10:31:06,NA,incomplete,false,true,NA,3,11,NA,orange,n_s_070.jpg,NA,NA,pleasant,unpleasant,NA,NA,NA,NA,NA,right,1331,true,NA,NA,NA,NA,NA
QyiaODZd,33tgb4g0msu3alll9rtp1nk6wbyxtf,3hya4d452vwudkyhhk89jd71ub02f5,QyiaODZd,2020-0188,2021-10-15,09:12:21,10:31:06,NA,incomplete,false,true,NA,3,12,NA,green,m_l_056.jpg,NA,NA,unpleasant,pleasant,NA,NA,NA,NA,NA,left,1779,true,NA,NA,NA,NA,NA
QyiaODZd,33tgb4g0msu3alll9rtp1nk6wbyxtf,3hya4d452vwudkyhhk89jd71ub02f5,QyiaODZd,2020-0188,2021-10-15,09:12:21,10:31:06,NA,incomplete,false,true,NA,3,13,NA,green,n_l_071.jpg,NA,NA,pleasant,unpleasant,NA,NA,NA,NA,NA,right,1679,true,NA,NA,NA,NA,NA
QyiaODZd,33tgb4g0msu3alll9rtp1nk6wbyxtf,3hya4d452vwudkyhhk89jd71ub02f5,QyiaODZd,2020-0188,2021-10-15,09:12:21,10:31:06,NA,incomplete,false,true,NA,3,14,NA,green,n_s_043.jpg,NA,NA,unpleasant,pleasant,NA,NA,NA,NA,NA,left,1350,true,NA,NA,NA,NA,NA
QyiaODZd,33tgb4g0msu3alll9rtp1nk6wbyxtf,3hya4d452vwudkyhhk89jd71ub02f5,QyiaODZd,2020-0188,2021-10-15,09:12:21,10:31:06,NA,incomplete,false,true,NA,3,15,NA,green,m_l_019.jpg,NA,NA,pleasant,unpleasant,NA,NA,NA,NA,NA,right,1612,true,NA,NA,NA,NA,NA
QyiaODZd,33tgb4g0msu3alll9rtp1nk6wbyxtf,3hya4d452vwudkyhhk89jd71ub02f5,QyiaODZd,2020-0188,2021-10-15,09:12:21,10:31:06,NA,incomplete,false,true,NA,3,16,NA,green,n_l_064.jpg,NA,NA,pleasant,unpleasant,NA,NA,NA,NA,NA,right,1562,true,NA,NA,NA,NA,NA
QyiaODZd,33tgb4g0msu3alll9rtp1nk6wbyxtf,3hya4d452vwudkyhhk89jd71ub02f5,QyiaODZd,2020-0188,2021-10-15,09:12:21,10:31:06,NA,incomplete,false,true,NA,3,17,NA,green,m_l_094.jpg,NA,NA,pleasant,unpleasant,NA,NA,NA,NA,NA,right,1149,true,NA,NA,NA,NA,NA
QyiaODZd,33tgb4g0msu3alll9rtp1nk6wbyxtf,3hya4d452vwudkyhhk89jd71ub02f5,QyiaODZd,2020-0188,2021-10-15,09:12:21,10:31:06,NA,incomplete,false,true,NA,3,18,NA,blue,m_l_086.jpg,NA,NA,pleasant,unpleasant,NA,NA,NA,NA,NA,left,1899,true,NA,NA,NA,NA,NA
QyiaODZd,33tgb4g0msu3alll9rtp1nk6wbyxtf,3hya4d452vwudkyhhk89jd71ub02f5,QyiaODZd,2020-0188,2021-10-15,09:12:21,10:31:06,NA,incomplete,false,true,NA,3,19,NA,blue,n_l_087.jpg,NA,NA,unpleasant,pleasant,NA,NA,NA,NA,NA,left,2208,true,NA,NA,NA,NA,NA
QyiaODZd,33tgb4g0msu3alll9rtp1nk6wbyxtf,3hya4d452vwudkyhhk89jd71ub02f5,QyiaODZd,2020-0188,2021-10-15,09:12:21,10:31:06,NA,incomplete,false,true,NA,3,20,NA,blue,n_l_055.jpg,NA,NA,unpleasant,pleasant,NA,NA,NA,NA,NA,right,2796,true,NA,NA,NA,NA,NA
QyiaODZd,33tgb4g0msu3alll9rtp1nk6wbyxtf,3hya4d452vwudkyhhk89jd71ub02f5,QyiaODZd,2020-0188,2021-10-15,09:12:21,10:31:06,NA,incomplete,false,true,NA,3,21,NA,blue,n_s_103.jpg,NA,NA,pleasant,unpleasant,NA,NA,NA,NA,NA,right,1688,true,NA,NA,NA,NA,NA
QyiaODZd,33tgb4g0msu3alll9rtp1nk6wbyxtf,3hya4d452vwudkyhhk89jd71ub02f5,QyiaODZd,2020-0188,2021-10-15,09:12:21,10:31:06,NA,incomplete,false,true,NA,3,22,NA,blue,n_l_059.jpg,NA,NA,unpleasant,pleasant,NA,NA,NA,NA,NA,left,1879,true,NA,NA,NA,NA,NA
QyiaODZd,33tgb4g0msu3alll9rtp1nk6wbyxtf,3hya4d452vwudkyhhk89jd71ub02f5,QyiaODZd,2020-0188,2021-10-15,09:12:21,10:31:06,NA,incomplete,false,true,NA,3,23,NA,blue,m_l_034.jpg,NA,NA,pleasant,unpleasant,NA,NA,NA,NA,NA,right,2323,true,NA,NA,NA,NA,NA
QyiaODZd,33tgb4g0msu3alll9rtp1nk6wbyxtf,3hya4d452vwudkyhhk89jd71ub02f5,QyiaODZd,2020-0188,2021-10-15,09:12:21,10:31:06,NA,incomplete,false,true,NA,3,24,NA,brown,m_l_078.jpg,NA,NA,pleasant,unpleasant,NA,NA,NA,NA,NA,right,1581,true,NA,NA,NA,NA,NA
QyiaODZd,33tgb4g0msu3alll9rtp1nk6wbyxtf,3hya4d452vwudkyhhk89jd71ub02f5,QyiaODZd,2020-0188,2021-10-15,09:12:21,10:31:06,NA,incomplete,false,true,NA,3,25,NA,brown,n_l_091.jpg,NA,NA,unpleasant,pleasant,NA,NA,NA,NA,NA,left,2029,true,NA,NA,NA,NA,NA
QyiaODZd,33tgb4g0msu3alll9rtp1nk6wbyxtf,3hya4d452vwudkyhhk89jd71ub02f5,QyiaODZd,2020-0188,2021-10-15,09:12:21,10:31:06,NA,incomplete,false,true,NA,3,26,NA,brown,m_l_052.jpg,NA,NA,unpleasant,pleasant,NA,NA,NA,NA,NA,left,1293,true,NA,NA,NA,NA,NA
QyiaODZd,33tgb4g0msu3alll9rtp1nk6wbyxtf,3hya4d452vwudkyhhk89jd71ub02f5,QyiaODZd,2020-0188,2021-10-15,09:12:21,10:31:06,NA,incomplete,false,true,NA,3,27,NA,brown,m_l_091.jpg,NA,NA,pleasant,unpleasant,NA,NA,NA,NA,NA,right,2583,true,NA,NA,NA,NA,NA
QyiaODZd,33tgb4g0msu3alll9rtp1nk6wbyxtf,3hya4d452vwudkyhhk89jd71ub02f5,QyiaODZd,2020-0188,2021-10-15,09:12:21,10:31:06,NA,incomplete,false,true,NA,3,28,NA,brown,m_l_031.jpg,NA,NA,unpleasant,pleasant,NA,NA,NA,NA,NA,left,1236,true,NA,NA,NA,NA,NA
QyiaODZd,33tgb4g0msu3alll9rtp1nk6wbyxtf,3hya4d452vwudkyhhk89jd71ub02f5,QyiaODZd,2020-0188,2021-10-15,09:12:21,10:31:06,NA,incomplete,false,true,NA,3,29,NA,brown,m_s_067.jpg,NA,NA,pleasant,unpleasant,NA,NA,NA,NA,NA,right,2529,true,NA,NA,NA,NA,NA
QyiaODZd,33tgb4g0msu3alll9rtp1nk6wbyxtf,3hya4d452vwudkyhhk89jd71ub02f5,QyiaODZd,2020-0188,2021-10-15,09:12:21,10:31:06,NA,incomplete,false,true,NA,3,30,NA,black,n_l_090.jpg,NA,NA,pleasant,unpleasant,NA,NA,NA,NA,NA,right,2747,true,NA,NA,NA,NA,NA
QyiaODZd,33tgb4g0msu3alll9rtp1nk6wbyxtf,3hya4d452vwudkyhhk89jd71ub02f5,QyiaODZd,2020-0188,2021-10-15,09:12:21,10:31:06,NA,incomplete,false,true,NA,3,31,NA,black,n_s_016.jpg,NA,NA,pleasant,unpleasant,NA,NA,NA,NA,NA,right,1617,true,NA,NA,NA,NA,NA
QyiaODZd,33tgb4g0msu3alll9rtp1nk6wbyxtf,3hya4d452vwudkyhhk89jd71ub02f5,QyiaODZd,2020-0188,2021-10-15,09:12:21,10:31:06,NA,incomplete,false,true,NA,3,32,NA,black,m_s_023.jpg,NA,NA,unpleasant,pleasant,NA,NA,NA,NA,NA,right,2500,true,NA,NA,NA,NA,NA
QyiaODZd,33tgb4g0msu3alll9rtp1nk6wbyxtf,3hya4d452vwudkyhhk89jd71ub02f5,QyiaODZd,2020-0188,2021-10-15,09:12:21,10:31:06,NA,incomplete,false,true,NA,3,33,NA,black,n_s_007.jpg,NA,NA,pleasant,unpleasant,NA,NA,NA,NA,NA,right,2036,true,NA,NA,NA,NA,NA
QyiaODZd,33tgb4g0msu3alll9rtp1nk6wbyxtf,3hya4d452vwudkyhhk89jd71ub02f5,QyiaODZd,2020-0188,2021-10-15,09:12:21,10:31:06,NA,incomplete,false,true,NA,3,34,NA,black,m_l_106.jpg,NA,NA,pleasant,unpleasant,NA,NA,NA,NA,NA,left,2255,true,NA,NA,NA,NA,NA
QyiaODZd,33tgb4g0msu3alll9rtp1nk6wbyxtf,3hya4d452vwudkyhhk89jd71ub02f5,QyiaODZd,2020-0188,2021-10-15,09:12:21,10:31:06,NA,incomplete,false,true,NA,3,35,NA,black,m_l_036.jpg,NA,NA,pleasant,unpleasant,NA,NA,NA,NA,NA,right,1370,true,NA,NA,NA,NA,NA
QyiaODZd,33tgb4g0msu3alll9rtp1nk6wbyxtf,3hya4d452vwudkyhhk89jd71ub02f5,QyiaODZd,2020-0188,2021-10-15,09:12:21,10:31:06,NA,incomplete,false,NA,true,3,0,NA,NA,NA,left,present,NA,NA,m_l_031.jpg,brown,m_s_023.jpg,black,between,NA,NaN,NA,left,2989,1,2,1960
QyiaODZd,33tgb4g0msu3alll9rtp1nk6wbyxtf,3hya4d452vwudkyhhk89jd71ub02f5,QyiaODZd,2020-0188,2021-10-15,09:12:21,10:31:06,NA,incomplete,false,NA,true,3,1,NA,NA,NA,left,present,NA,NA,n_l_091.jpg,brown,m_s_067.jpg,brown,within,NA,NaN,NA,right,3043,0,1,1715
QyiaODZd,33tgb4g0msu3alll9rtp1nk6wbyxtf,3hya4d452vwudkyhhk89jd71ub02f5,QyiaODZd,2020-0188,2021-10-15,09:12:21,10:31:06,NA,incomplete,false,NA,true,3,2,NA,NA,NA,right,present,NA,NA,m_l_034.jpg,blue,n_l_087.jpg,blue,within,NA,NaN,NA,right,6912,1,1,2019
QyiaODZd,33tgb4g0msu3alll9rtp1nk6wbyxtf,3hya4d452vwudkyhhk89jd71ub02f5,QyiaODZd,2020-0188,2021-10-15,09:12:21,10:31:06,NA,incomplete,false,NA,true,3,3,NA,NA,NA,right,present,NA,NA,m_l_036.jpg,black,n_s_016.jpg,black,within,NA,NaN,NA,left,6057,0,1,1857
QyiaODZd,33tgb4g0msu3alll9rtp1nk6wbyxtf,3hya4d452vwudkyhhk89jd71ub02f5,QyiaODZd,2020-0188,2021-10-15,09:12:21,10:31:06,NA,incomplete,false,NA,true,3,4,NA,NA,NA,left,present,NA,NA,n_l_059.jpg,blue,m_l_052.jpg,brown,between,NA,NaN,NA,left,12246,1,3,3482
QyiaODZd,33tgb4g0msu3alll9rtp1nk6wbyxtf,3hya4d452vwudkyhhk89jd71ub02f5,QyiaODZd,2020-0188,2021-10-15,09:12:21,10:31:06,NA,incomplete,false,NA,true,3,5,NA,NA,NA,right,present,NA,NA,n_l_001.jpg,red,n_s_067.jpg,red,within,NA,NaN,NA,right,10378,1,1,2710
QyiaODZd,33tgb4g0msu3alll9rtp1nk6wbyxtf,3hya4d452vwudkyhhk89jd71ub02f5,QyiaODZd,2020-0188,2021-10-15,09:12:21,10:31:06,NA,incomplete,false,NA,true,3,6,NA,NA,NA,left,present,NA,NA,n_l_064.jpg,green,n_l_055.jpg,blue,between,NA,NaN,NA,right,3596,0,1,9517
QyiaODZd,33tgb4g0msu3alll9rtp1nk6wbyxtf,3hya4d452vwudkyhhk89jd71ub02f5,QyiaODZd,2020-0188,2021-10-15,09:12:21,10:31:06,NA,incomplete,false,NA,true,3,7,NA,NA,NA,left,present,NA,NA,n_l_071.jpg,green,m_l_094.jpg,green,within,NA,NaN,NA,left,4247,1,1,2011
QyiaODZd,33tgb4g0msu3alll9rtp1nk6wbyxtf,3hya4d452vwudkyhhk89jd71ub02f5,QyiaODZd,2020-0188,2021-10-15,09:12:21,10:31:06,NA,incomplete,false,NA,true,3,8,NA,NA,NA,right,present,NA,NA,n_s_043.jpg,green,m_l_111.jpg,orange,between,NA,NaN,NA,right,6107,1,3,3884
QyiaODZd,33tgb4g0msu3alll9rtp1nk6wbyxtf,3hya4d452vwudkyhhk89jd71ub02f5,QyiaODZd,2020-0188,2021-10-15,09:12:21,10:31:06,NA,incomplete,false,NA,true,3,9,NA,NA,NA,right,present,NA,NA,n_s_017.jpg,orange,n_s_102.jpg,red,between,NA,NaN,NA,right,9587,1,2,4430
QyiaODZd,33tgb4g0msu3alll9rtp1nk6wbyxtf,3hya4d452vwudkyhhk89jd71ub02f5,QyiaODZd,2020-0188,2021-10-15,09:12:21,10:31:06,NA,incomplete,false,NA,true,3,10,NA,NA,NA,right,present,NA,NA,n_s_070.jpg,orange,m_l_069.jpg,orange,within,NA,NaN,NA,right,5943,1,1,4143
QyiaODZd,33tgb4g0msu3alll9rtp1nk6wbyxtf,3hya4d452vwudkyhhk89jd71ub02f5,QyiaODZd,2020-0188,2021-10-15,09:12:21,10:31:06,NA,incomplete,false,true,NA,4,0,NA,purple,m_l_075.jpg,NA,NA,pleasant,unpleasant,NA,NA,NA,NA,NA,right,2267,true,NA,NA,NA,NA,NA
QyiaODZd,33tgb4g0msu3alll9rtp1nk6wbyxtf,3hya4d452vwudkyhhk89jd71ub02f5,QyiaODZd,2020-0188,2021-10-15,09:12:21,10:31:06,NA,incomplete,false,true,NA,4,1,NA,purple,m_s_026.jpg,NA,NA,unpleasant,pleasant,NA,NA,NA,NA,NA,left,1799,true,NA,NA,NA,NA,NA
QyiaODZd,33tgb4g0msu3alll9rtp1nk6wbyxtf,3hya4d452vwudkyhhk89jd71ub02f5,QyiaODZd,2020-0188,2021-10-15,09:12:21,10:31:06,NA,incomplete,false,true,NA,4,2,NA,purple,n_s_074.jpg,NA,NA,pleasant,unpleasant,NA,NA,NA,NA,NA,right,1214,true,NA,NA,NA,NA,NA
QyiaODZd,33tgb4g0msu3alll9rtp1nk6wbyxtf,3hya4d452vwudkyhhk89jd71ub02f5,QyiaODZd,2020-0188,2021-10-15,09:12:21,10:31:06,NA,incomplete,false,true,NA,4,3,NA,purple,n_l_004.jpg,NA,NA,unpleasant,pleasant,NA,NA,NA,NA,NA,left,2676,true,NA,NA,NA,NA,NA
QyiaODZd,33tgb4g0msu3alll9rtp1nk6wbyxtf,3hya4d452vwudkyhhk89jd71ub02f5,QyiaODZd,2020-0188,2021-10-15,09:12:21,10:31:06,NA,incomplete,false,true,NA,4,4,NA,purple,n_l_083.jpg,NA,NA,unpleasant,pleasant,NA,NA,NA,NA,NA,left,2254,true,NA,NA,NA,NA,NA
QyiaODZd,33tgb4g0msu3alll9rtp1nk6wbyxtf,3hya4d452vwudkyhhk89jd71ub02f5,QyiaODZd,2020-0188,2021-10-15,09:12:21,10:31:06,NA,incomplete,false,true,NA,4,5,NA,purple,m_s_078.jpg,NA,NA,unpleasant,pleasant,NA,NA,NA,NA,NA,right,2616,true,NA,NA,NA,NA,NA
QyiaODZd,33tgb4g0msu3alll9rtp1nk6wbyxtf,3hya4d452vwudkyhhk89jd71ub02f5,QyiaODZd,2020-0188,2021-10-15,09:12:21,10:31:06,NA,incomplete,false,true,NA,4,6,NA,gray,n_l_079.jpg,NA,NA,unpleasant,pleasant,NA,NA,NA,NA,NA,left,1671,true,NA,NA,NA,NA,NA
QyiaODZd,33tgb4g0msu3alll9rtp1nk6wbyxtf,3hya4d452vwudkyhhk89jd71ub02f5,QyiaODZd,2020-0188,2021-10-15,09:12:21,10:31:06,NA,incomplete,false,true,NA,4,7,NA,gray,n_s_004.jpg,NA,NA,pleasant,unpleasant,NA,NA,NA,NA,NA,right,1726,true,NA,NA,NA,NA,NA
QyiaODZd,33tgb4g0msu3alll9rtp1nk6wbyxtf,3hya4d452vwudkyhhk89jd71ub02f5,QyiaODZd,2020-0188,2021-10-15,09:12:21,10:31:06,NA,incomplete,false,true,NA,4,8,NA,gray,m_l_018.jpg,NA,NA,unpleasant,pleasant,NA,NA,NA,NA,NA,left,2949,true,NA,NA,NA,NA,NA
QyiaODZd,33tgb4g0msu3alll9rtp1nk6wbyxtf,3hya4d452vwudkyhhk89jd71ub02f5,QyiaODZd,2020-0188,2021-10-15,09:12:21,10:31:06,NA,incomplete,false,true,NA,4,9,NA,gray,n_l_067.jpg,NA,NA,pleasant,unpleasant,NA,NA,NA,NA,NA,right,2535,true,NA,NA,NA,NA,NA
QyiaODZd,33tgb4g0msu3alll9rtp1nk6wbyxtf,3hya4d452vwudkyhhk89jd71ub02f5,QyiaODZd,2020-0188,2021-10-15,09:12:21,10:31:06,NA,incomplete,false,true,NA,4,10,NA,gray,m_s_116.jpg,NA,NA,pleasant,unpleasant,NA,NA,NA,NA,NA,right,1536,true,NA,NA,NA,NA,NA
QyiaODZd,33tgb4g0msu3alll9rtp1nk6wbyxtf,3hya4d452vwudkyhhk89jd71ub02f5,QyiaODZd,2020-0188,2021-10-15,09:12:21,10:31:06,NA,incomplete,false,true,NA,4,11,NA,gray,n_s_077.jpg,NA,NA,pleasant,unpleasant,NA,NA,NA,NA,NA,right,1269,true,NA,NA,NA,NA,NA
QyiaODZd,33tgb4g0msu3alll9rtp1nk6wbyxtf,3hya4d452vwudkyhhk89jd71ub02f5,QyiaODZd,2020-0188,2021-10-15,09:12:21,10:31:06,NA,incomplete,false,true,NA,4,12,NA,blue,n_s_071.jpg,NA,NA,unpleasant,pleasant,NA,NA,NA,NA,NA,left,2038,true,NA,NA,NA,NA,NA
QyiaODZd,33tgb4g0msu3alll9rtp1nk6wbyxtf,3hya4d452vwudkyhhk89jd71ub02f5,QyiaODZd,2020-0188,2021-10-15,09:12:21,10:31:06,NA,incomplete,false,true,NA,4,13,NA,blue,n_l_076.jpg,NA,NA,pleasant,unpleasant,NA,NA,NA,NA,NA,right,1337,true,NA,NA,NA,NA,NA
QyiaODZd,33tgb4g0msu3alll9rtp1nk6wbyxtf,3hya4d452vwudkyhhk89jd71ub02f5,QyiaODZd,2020-0188,2021-10-15,09:12:21,10:31:06,NA,incomplete,false,true,NA,4,14,NA,blue,n_l_096.jpg,NA,NA,pleasant,unpleasant,NA,NA,NA,NA,NA,right,1736,true,NA,NA,NA,NA,NA
QyiaODZd,33tgb4g0msu3alll9rtp1nk6wbyxtf,3hya4d452vwudkyhhk89jd71ub02f5,QyiaODZd,2020-0188,2021-10-15,09:12:21,10:31:06,NA,incomplete,false,true,NA,4,15,NA,blue,m_l_017.jpg,NA,NA,pleasant,unpleasant,NA,NA,NA,NA,NA,right,2279,true,NA,NA,NA,NA,NA
QyiaODZd,33tgb4g0msu3alll9rtp1nk6wbyxtf,3hya4d452vwudkyhhk89jd71ub02f5,QyiaODZd,2020-0188,2021-10-15,09:12:21,10:31:06,NA,incomplete,false,true,NA,4,16,NA,blue,m_s_100.jpg,NA,NA,unpleasant,pleasant,NA,NA,NA,NA,NA,left,1564,true,NA,NA,NA,NA,NA
QyiaODZd,33tgb4g0msu3alll9rtp1nk6wbyxtf,3hya4d452vwudkyhhk89jd71ub02f5,QyiaODZd,2020-0188,2021-10-15,09:12:21,10:31:06,NA,incomplete,false,true,NA,4,17,NA,blue,m_s_011.jpg,NA,NA,pleasant,unpleasant,NA,NA,NA,NA,NA,right,2973,true,NA,NA,NA,NA,NA
QyiaODZd,33tgb4g0msu3alll9rtp1nk6wbyxtf,3hya4d452vwudkyhhk89jd71ub02f5,QyiaODZd,2020-0188,2021-10-15,09:12:21,10:31:06,NA,incomplete,false,true,NA,4,18,NA,brown,m_s_076.jpg,NA,NA,unpleasant,pleasant,NA,NA,NA,NA,NA,none,0,false,NA,NA,NA,NA,NA
QyiaODZd,33tgb4g0msu3alll9rtp1nk6wbyxtf,3hya4d452vwudkyhhk89jd71ub02f5,QyiaODZd,2020-0188,2021-10-15,09:12:21,10:31:06,NA,incomplete,false,true,NA,4,19,NA,brown,m_l_089.jpg,NA,NA,unpleasant,pleasant,NA,NA,NA,NA,NA,left,1856,true,NA,NA,NA,NA,NA
QyiaODZd,33tgb4g0msu3alll9rtp1nk6wbyxtf,3hya4d452vwudkyhhk89jd71ub02f5,QyiaODZd,2020-0188,2021-10-15,09:12:21,10:31:06,NA,incomplete,false,true,NA,4,20,NA,brown,n_l_089.jpg,NA,NA,pleasant,unpleasant,NA,NA,NA,NA,NA,right,2326,true,NA,NA,NA,NA,NA
QyiaODZd,33tgb4g0msu3alll9rtp1nk6wbyxtf,3hya4d452vwudkyhhk89jd71ub02f5,QyiaODZd,2020-0188,2021-10-15,09:12:21,10:31:06,NA,incomplete,false,true,NA,4,21,NA,brown,m_s_084.jpg,NA,NA,pleasant,unpleasant,NA,NA,NA,NA,NA,right,2209,true,NA,NA,NA,NA,NA
QyiaODZd,33tgb4g0msu3alll9rtp1nk6wbyxtf,3hya4d452vwudkyhhk89jd71ub02f5,QyiaODZd,2020-0188,2021-10-15,09:12:21,10:31:06,NA,incomplete,false,true,NA,4,22,NA,brown,m_l_115.jpg,NA,NA,pleasant,unpleasant,NA,NA,NA,NA,NA,right,1573,true,NA,NA,NA,NA,NA
QyiaODZd,33tgb4g0msu3alll9rtp1nk6wbyxtf,3hya4d452vwudkyhhk89jd71ub02f5,QyiaODZd,2020-0188,2021-10-15,09:12:21,10:31:06,NA,incomplete,false,true,NA,4,23,NA,brown,n_l_061.jpg,NA,NA,unpleasant,pleasant,NA,NA,NA,NA,NA,left,1634,true,NA,NA,NA,NA,NA
QyiaODZd,33tgb4g0msu3alll9rtp1nk6wbyxtf,3hya4d452vwudkyhhk89jd71ub02f5,QyiaODZd,2020-0188,2021-10-15,09:12:21,10:31:06,NA,incomplete,false,true,NA,4,24,NA,white,m_l_028.jpg,NA,NA,pleasant,unpleasant,NA,NA,NA,NA,NA,left,2147,true,NA,NA,NA,NA,NA
QyiaODZd,33tgb4g0msu3alll9rtp1nk6wbyxtf,3hya4d452vwudkyhhk89jd71ub02f5,QyiaODZd,2020-0188,2021-10-15,09:12:21,10:31:06,NA,incomplete,false,true,NA,4,25,NA,white,n_s_012.jpg,NA,NA,pleasant,unpleasant,NA,NA,NA,NA,NA,left,2174,true,NA,NA,NA,NA,NA
QyiaODZd,33tgb4g0msu3alll9rtp1nk6wbyxtf,3hya4d452vwudkyhhk89jd71ub02f5,QyiaODZd,2020-0188,2021-10-15,09:12:21,10:31:06,NA,incomplete,false,true,NA,4,26,NA,white,m_l_067.jpg,NA,NA,unpleasant,pleasant,NA,NA,NA,NA,NA,right,1830,true,NA,NA,NA,NA,NA
QyiaODZd,33tgb4g0msu3alll9rtp1nk6wbyxtf,3hya4d452vwudkyhhk89jd71ub02f5,QyiaODZd,2020-0188,2021-10-15,09:12:21,10:31:06,NA,incomplete,false,true,NA,4,27,NA,white,m_s_050.jpg,NA,NA,unpleasant,pleasant,NA,NA,NA,NA,NA,left,1716,true,NA,NA,NA,NA,NA
QyiaODZd,33tgb4g0msu3alll9rtp1nk6wbyxtf,3hya4d452vwudkyhhk89jd71ub02f5,QyiaODZd,2020-0188,2021-10-15,09:12:21,10:31:06,NA,incomplete,false,true,NA,4,28,NA,white,n_s_023.jpg,NA,NA,unpleasant,pleasant,NA,NA,NA,NA,NA,left,1948,true,NA,NA,NA,NA,NA
QyiaODZd,33tgb4g0msu3alll9rtp1nk6wbyxtf,3hya4d452vwudkyhhk89jd71ub02f5,QyiaODZd,2020-0188,2021-10-15,09:12:21,10:31:06,NA,incomplete,false,true,NA,4,29,NA,white,n_l_094.jpg,NA,NA,unpleasant,pleasant,NA,NA,NA,NA,NA,right,3088,true,NA,NA,NA,NA,NA
QyiaODZd,33tgb4g0msu3alll9rtp1nk6wbyxtf,3hya4d452vwudkyhhk89jd71ub02f5,QyiaODZd,2020-0188,2021-10-15,09:12:21,10:31:06,NA,incomplete,false,true,NA,4,30,NA,yellow,m_l_035.jpg,NA,NA,unpleasant,pleasant,NA,NA,NA,NA,NA,right,1986,true,NA,NA,NA,NA,NA
QyiaODZd,33tgb4g0msu3alll9rtp1nk6wbyxtf,3hya4d452vwudkyhhk89jd71ub02f5,QyiaODZd,2020-0188,2021-10-15,09:12:21,10:31:06,NA,incomplete,false,true,NA,4,31,NA,yellow,n_l_048.jpg,NA,NA,pleasant,unpleasant,NA,NA,NA,NA,NA,left,1519,true,NA,NA,NA,NA,NA
QyiaODZd,33tgb4g0msu3alll9rtp1nk6wbyxtf,3hya4d452vwudkyhhk89jd71ub02f5,QyiaODZd,2020-0188,2021-10-15,09:12:21,10:31:06,NA,incomplete,false,true,NA,4,32,NA,yellow,n_l_097.jpg,NA,NA,pleasant,unpleasant,NA,NA,NA,NA,NA,right,2583,true,NA,NA,NA,NA,NA
QyiaODZd,33tgb4g0msu3alll9rtp1nk6wbyxtf,3hya4d452vwudkyhhk89jd71ub02f5,QyiaODZd,2020-0188,2021-10-15,09:12:21,10:31:06,NA,incomplete,false,true,NA,4,33,NA,yellow,m_s_060.jpg,NA,NA,unpleasant,pleasant,NA,NA,NA,NA,NA,right,2595,true,NA,NA,NA,NA,NA
QyiaODZd,33tgb4g0msu3alll9rtp1nk6wbyxtf,3hya4d452vwudkyhhk89jd71ub02f5,QyiaODZd,2020-0188,2021-10-15,09:12:21,10:31:06,NA,incomplete,false,true,NA,4,34,NA,yellow,m_s_106.jpg,NA,NA,unpleasant,pleasant,NA,NA,NA,NA,NA,right,3295,true,NA,NA,NA,NA,NA
QyiaODZd,33tgb4g0msu3alll9rtp1nk6wbyxtf,3hya4d452vwudkyhhk89jd71ub02f5,QyiaODZd,2020-0188,2021-10-15,09:12:21,10:31:06,NA,incomplete,false,true,NA,4,35,NA,yellow,n_s_029.jpg,NA,NA,pleasant,unpleasant,NA,NA,NA,NA,NA,right,2183,true,NA,NA,NA,NA,NA
QyiaODZd,33tgb4g0msu3alll9rtp1nk6wbyxtf,3hya4d452vwudkyhhk89jd71ub02f5,QyiaODZd,2020-0188,2021-10-15,09:12:21,10:31:06,NA,incomplete,false,NA,true,4,0,NA,NA,NA,right,present,NA,NA,m_s_078.jpg,purple,m_s_026.jpg,purple,within,NA,NaN,NA,left,3081,0,1,9316
QyiaODZd,33tgb4g0msu3alll9rtp1nk6wbyxtf,3hya4d452vwudkyhhk89jd71ub02f5,QyiaODZd,2020-0188,2021-10-15,09:12:21,10:31:06,NA,incomplete,false,NA,true,4,1,NA,NA,NA,right,present,NA,NA,n_l_089.jpg,brown,m_s_100.jpg,blue,between,NA,NaN,NA,left,7194,0,2,1866
QyiaODZd,33tgb4g0msu3alll9rtp1nk6wbyxtf,3hya4d452vwudkyhhk89jd71ub02f5,QyiaODZd,2020-0188,2021-10-15,09:12:21,10:31:06,NA,incomplete,false,NA,true,4,2,NA,NA,NA,left,present,NA,NA,n_l_048.jpg,yellow,n_s_029.jpg,yellow,within,NA,NaN,NA,left,2414,1,0,2908
QyiaODZd,33tgb4g0msu3alll9rtp1nk6wbyxtf,3hya4d452vwudkyhhk89jd71ub02f5,QyiaODZd,2020-0188,2021-10-15,09:12:21,10:31:06,NA,incomplete,false,NA,true,4,3,NA,NA,NA,right,present,NA,NA,n_l_094.jpg,white,n_s_012.jpg,white,within,NA,NaN,NA,left,8251,0,0,1720
QyiaODZd,33tgb4g0msu3alll9rtp1nk6wbyxtf,3hya4d452vwudkyhhk89jd71ub02f5,QyiaODZd,2020-0188,2021-10-15,09:12:21,10:31:06,NA,incomplete,false,NA,true,4,4,NA,NA,NA,left,present,NA,NA,n_l_076.jpg,blue,m_s_011.jpg,blue,within,NA,NaN,NA,left,4118,1,0,3025
QyiaODZd,33tgb4g0msu3alll9rtp1nk6wbyxtf,3hya4d452vwudkyhhk89jd71ub02f5,QyiaODZd,2020-0188,2021-10-15,09:12:21,10:31:06,NA,incomplete,false,NA,true,4,5,NA,NA,NA,left,present,NA,NA,m_l_089.jpg,brown,n_l_061.jpg,brown,within,NA,NaN,NA,left,5269,1,1,1289
QyiaODZd,33tgb4g0msu3alll9rtp1nk6wbyxtf,3hya4d452vwudkyhhk89jd71ub02f5,QyiaODZd,2020-0188,2021-10-15,09:12:21,10:31:06,NA,incomplete,false,NA,true,4,6,NA,NA,NA,left,present,NA,NA,n_s_023.jpg,white,n_l_097.jpg,yellow,between,NA,NaN,NA,left,5215,1,3,2329
QyiaODZd,33tgb4g0msu3alll9rtp1nk6wbyxtf,3hya4d452vwudkyhhk89jd71ub02f5,QyiaODZd,2020-0188,2021-10-15,09:12:21,10:31:06,NA,incomplete,false,NA,true,4,7,NA,NA,NA,right,present,NA,NA,m_l_067.jpg,white,m_l_115.jpg,brown,between,NA,NaN,NA,left,4466,0,3,3261
QyiaODZd,33tgb4g0msu3alll9rtp1nk6wbyxtf,3hya4d452vwudkyhhk89jd71ub02f5,QyiaODZd,2020-0188,2021-10-15,09:12:21,10:31:06,NA,incomplete,false,NA,true,4,8,NA,NA,NA,right,present,NA,NA,m_l_018.jpg,gray,n_l_083.jpg,purple,between,NA,NaN,NA,left,2915,0,2,1860
QyiaODZd,33tgb4g0msu3alll9rtp1nk6wbyxtf,3hya4d452vwudkyhhk89jd71ub02f5,QyiaODZd,2020-0188,2021-10-15,09:12:21,10:31:06,NA,incomplete,false,NA,true,4,9,NA,NA,NA,left,present,NA,NA,n_s_004.jpg,gray,n_s_077.jpg,gray,within,NA,NaN,NA,right,3104,0,1,2343
QyiaODZd,33tgb4g0msu3alll9rtp1nk6wbyxtf,3hya4d452vwudkyhhk89jd71ub02f5,QyiaODZd,2020-0188,2021-10-15,09:12:21,10:31:06,NA,incomplete,false,NA,true,4,10,NA,NA,NA,left,present,NA,NA,m_s_116.jpg,gray,n_l_096.jpg,blue,between,NA,NaN,NA,left,8571,1,1,1835
QyiaODZd,33tgb4g0msu3alll9rtp1nk6wbyxtf,3hya4d452vwudkyhhk89jd71ub02f5,QyiaODZd,2020-0188,2021-10-15,09:12:21,10:31:06,NA,incomplete,false,true,NA,5,0,NA,white,n_l_016.jpg,NA,NA,unpleasant,pleasant,NA,NA,NA,NA,NA,left,2219,true,NA,NA,NA,NA,NA
QyiaODZd,33tgb4g0msu3alll9rtp1nk6wbyxtf,3hya4d452vwudkyhhk89jd71ub02f5,QyiaODZd,2020-0188,2021-10-15,09:12:21,10:31:06,NA,incomplete,false,true,NA,5,1,NA,white,n_l_051.jpg,NA,NA,pleasant,unpleasant,NA,NA,NA,NA,NA,right,2241,true,NA,NA,NA,NA,NA
QyiaODZd,33tgb4g0msu3alll9rtp1nk6wbyxtf,3hya4d452vwudkyhhk89jd71ub02f5,QyiaODZd,2020-0188,2021-10-15,09:12:21,10:31:06,NA,incomplete,false,true,NA,5,2,NA,white,m_s_101.jpg,NA,NA,pleasant,unpleasant,NA,NA,NA,NA,NA,right,1953,true,NA,NA,NA,NA,NA
QyiaODZd,33tgb4g0msu3alll9rtp1nk6wbyxtf,3hya4d452vwudkyhhk89jd71ub02f5,QyiaODZd,2020-0188,2021-10-15,09:12:21,10:31:06,NA,incomplete,false,true,NA,5,3,NA,white,m_l_101.jpg,NA,NA,unpleasant,pleasant,NA,NA,NA,NA,NA,right,2474,true,NA,NA,NA,NA,NA
QyiaODZd,33tgb4g0msu3alll9rtp1nk6wbyxtf,3hya4d452vwudkyhhk89jd71ub02f5,QyiaODZd,2020-0188,2021-10-15,09:12:21,10:31:06,NA,incomplete,false,true,NA,5,4,NA,white,n_s_013.jpg,NA,NA,unpleasant,pleasant,NA,NA,NA,NA,NA,left,1599,true,NA,NA,NA,NA,NA
QyiaODZd,33tgb4g0msu3alll9rtp1nk6wbyxtf,3hya4d452vwudkyhhk89jd71ub02f5,QyiaODZd,2020-0188,2021-10-15,09:12:21,10:31:06,NA,incomplete,false,true,NA,5,5,NA,white,n_s_081.jpg,NA,NA,pleasant,unpleasant,NA,NA,NA,NA,NA,right,1517,true,NA,NA,NA,NA,NA
QyiaODZd,33tgb4g0msu3alll9rtp1nk6wbyxtf,3hya4d452vwudkyhhk89jd71ub02f5,QyiaODZd,2020-0188,2021-10-15,09:12:21,10:31:06,NA,incomplete,false,true,NA,5,6,NA,brown,n_s_030.jpg,NA,NA,pleasant,unpleasant,NA,NA,NA,NA,NA,left,1833,true,NA,NA,NA,NA,NA
QyiaODZd,33tgb4g0msu3alll9rtp1nk6wbyxtf,3hya4d452vwudkyhhk89jd71ub02f5,QyiaODZd,2020-0188,2021-10-15,09:12:21,10:31:06,NA,incomplete,false,true,NA,5,7,NA,brown,m_l_062.jpg,NA,NA,unpleasant,pleasant,NA,NA,NA,NA,NA,left,1913,true,NA,NA,NA,NA,NA
QyiaODZd,33tgb4g0msu3alll9rtp1nk6wbyxtf,3hya4d452vwudkyhhk89jd71ub02f5,QyiaODZd,2020-0188,2021-10-15,09:12:21,10:31:06,NA,incomplete,false,true,NA,5,8,NA,brown,m_s_054.jpg,NA,NA,pleasant,unpleasant,NA,NA,NA,NA,NA,left,1867,true,NA,NA,NA,NA,NA
QyiaODZd,33tgb4g0msu3alll9rtp1nk6wbyxtf,3hya4d452vwudkyhhk89jd71ub02f5,QyiaODZd,2020-0188,2021-10-15,09:12:21,10:31:06,NA,incomplete,false,true,NA,5,9,NA,brown,n_s_069.jpg,NA,NA,unpleasant,pleasant,NA,NA,NA,NA,NA,left,1977,true,NA,NA,NA,NA,NA
QyiaODZd,33tgb4g0msu3alll9rtp1nk6wbyxtf,3hya4d452vwudkyhhk89jd71ub02f5,QyiaODZd,2020-0188,2021-10-15,09:12:21,10:31:06,NA,incomplete,false,true,NA,5,10,NA,brown,m_s_032.jpg,NA,NA,pleasant,unpleasant,NA,NA,NA,NA,NA,right,1967,true,NA,NA,NA,NA,NA
QyiaODZd,33tgb4g0msu3alll9rtp1nk6wbyxtf,3hya4d452vwudkyhhk89jd71ub02f5,QyiaODZd,2020-0188,2021-10-15,09:12:21,10:31:06,NA,incomplete,false,true,NA,5,11,NA,brown,n_l_086.jpg,NA,NA,unpleasant,pleasant,NA,NA,NA,NA,NA,right,3255,true,NA,NA,NA,NA,NA
QyiaODZd,33tgb4g0msu3alll9rtp1nk6wbyxtf,3hya4d452vwudkyhhk89jd71ub02f5,QyiaODZd,2020-0188,2021-10-15,09:12:21,10:31:06,NA,incomplete,false,true,NA,5,12,NA,black,n_l_105.jpg,NA,NA,unpleasant,pleasant,NA,NA,NA,NA,NA,left,2402,true,NA,NA,NA,NA,NA
QyiaODZd,33tgb4g0msu3alll9rtp1nk6wbyxtf,3hya4d452vwudkyhhk89jd71ub02f5,QyiaODZd,2020-0188,2021-10-15,09:12:21,10:31:06,NA,incomplete,false,true,NA,5,13,NA,black,n_s_006.jpg,NA,NA,unpleasant,pleasant,NA,NA,NA,NA,NA,left,1606,true,NA,NA,NA,NA,NA
QyiaODZd,33tgb4g0msu3alll9rtp1nk6wbyxtf,3hya4d452vwudkyhhk89jd71ub02f5,QyiaODZd,2020-0188,2021-10-15,09:12:21,10:31:06,NA,incomplete,false,true,NA,5,14,NA,black,m_l_114.jpg,NA,NA,unpleasant,pleasant,NA,NA,NA,NA,NA,right,1393,true,NA,NA,NA,NA,NA
QyiaODZd,33tgb4g0msu3alll9rtp1nk6wbyxtf,3hya4d452vwudkyhhk89jd71ub02f5,QyiaODZd,2020-0188,2021-10-15,09:12:21,10:31:06,NA,incomplete,false,true,NA,5,15,NA,black,m_l_013.jpg,NA,NA,unpleasant,pleasant,NA,NA,NA,NA,NA,right,1683,true,NA,NA,NA,NA,NA
QyiaODZd,33tgb4g0msu3alll9rtp1nk6wbyxtf,3hya4d452vwudkyhhk89jd71ub02f5,QyiaODZd,2020-0188,2021-10-15,09:12:21,10:31:06,NA,incomplete,false,true,NA,5,16,NA,black,n_l_100.jpg,NA,NA,pleasant,unpleasant,NA,NA,NA,NA,NA,left,2350,true,NA,NA,NA,NA,NA
QyiaODZd,33tgb4g0msu3alll9rtp1nk6wbyxtf,3hya4d452vwudkyhhk89jd71ub02f5,QyiaODZd,2020-0188,2021-10-15,09:12:21,10:31:06,NA,incomplete,false,true,NA,5,17,NA,black,n_s_008.jpg,NA,NA,unpleasant,pleasant,NA,NA,NA,NA,NA,left,1614,true,NA,NA,NA,NA,NA
QyiaODZd,33tgb4g0msu3alll9rtp1nk6wbyxtf,3hya4d452vwudkyhhk89jd71ub02f5,QyiaODZd,2020-0188,2021-10-15,09:12:21,10:31:06,NA,incomplete,false,true,NA,5,18,NA,yellow,n_l_027.jpg,NA,NA,pleasant,unpleasant,NA,NA,NA,NA,NA,none,0,false,NA,NA,NA,NA,NA
QyiaODZd,33tgb4g0msu3alll9rtp1nk6wbyxtf,3hya4d452vwudkyhhk89jd71ub02f5,QyiaODZd,2020-0188,2021-10-15,09:12:21,10:31:06,NA,incomplete,false,true,NA,5,19,NA,yellow,n_l_011.jpg,NA,NA,unpleasant,pleasant,NA,NA,NA,NA,NA,left,2825,true,NA,NA,NA,NA,NA
QyiaODZd,33tgb4g0msu3alll9rtp1nk6wbyxtf,3hya4d452vwudkyhhk89jd71ub02f5,QyiaODZd,2020-0188,2021-10-15,09:12:21,10:31:06,NA,incomplete,false,true,NA,5,20,NA,yellow,m_l_002.jpg,NA,NA,pleasant,unpleasant,NA,NA,NA,NA,NA,right,1841,true,NA,NA,NA,NA,NA
QyiaODZd,33tgb4g0msu3alll9rtp1nk6wbyxtf,3hya4d452vwudkyhhk89jd71ub02f5,QyiaODZd,2020-0188,2021-10-15,09:12:21,10:31:06,NA,incomplete,false,true,NA,5,21,NA,yellow,n_s_087.jpg,NA,NA,pleasant,unpleasant,NA,NA,NA,NA,NA,left,2233,true,NA,NA,NA,NA,NA
QyiaODZd,33tgb4g0msu3alll9rtp1nk6wbyxtf,3hya4d452vwudkyhhk89jd71ub02f5,QyiaODZd,2020-0188,2021-10-15,09:12:21,10:31:06,NA,incomplete,false,true,NA,5,22,NA,yellow,m_s_109.jpg,NA,NA,pleasant,unpleasant,NA,NA,NA,NA,NA,right,2742,true,NA,NA,NA,NA,NA
QyiaODZd,33tgb4g0msu3alll9rtp1nk6wbyxtf,3hya4d452vwudkyhhk89jd71ub02f5,QyiaODZd,2020-0188,2021-10-15,09:12:21,10:31:06,NA,incomplete,false,true,NA,5,23,NA,yellow,n_s_033.jpg,NA,NA,unpleasant,pleasant,NA,NA,NA,NA,NA,left,2109,true,NA,NA,NA,NA,NA
QyiaODZd,33tgb4g0msu3alll9rtp1nk6wbyxtf,3hya4d452vwudkyhhk89jd71ub02f5,QyiaODZd,2020-0188,2021-10-15,09:12:21,10:31:06,NA,incomplete,false,true,NA,5,24,NA,orange,n_s_079.jpg,NA,NA,unpleasant,pleasant,NA,NA,NA,NA,NA,right,1422,true,NA,NA,NA,NA,NA
QyiaODZd,33tgb4g0msu3alll9rtp1nk6wbyxtf,3hya4d452vwudkyhhk89jd71ub02f5,QyiaODZd,2020-0188,2021-10-15,09:12:21,10:31:06,NA,incomplete,false,true,NA,5,25,NA,orange,n_l_053.jpg,NA,NA,unpleasant,pleasant,NA,NA,NA,NA,NA,right,1720,true,NA,NA,NA,NA,NA
QyiaODZd,33tgb4g0msu3alll9rtp1nk6wbyxtf,3hya4d452vwudkyhhk89jd71ub02f5,QyiaODZd,2020-0188,2021-10-15,09:12:21,10:31:06,NA,incomplete,false,true,NA,5,26,NA,orange,n_s_009.jpg,NA,NA,pleasant,unpleasant,NA,NA,NA,NA,NA,right,2476,true,NA,NA,NA,NA,NA
QyiaODZd,33tgb4g0msu3alll9rtp1nk6wbyxtf,3hya4d452vwudkyhhk89jd71ub02f5,QyiaODZd,2020-0188,2021-10-15,09:12:21,10:31:06,NA,incomplete,false,true,NA,5,27,NA,orange,m_l_083.jpg,NA,NA,pleasant,unpleasant,NA,NA,NA,NA,NA,right,1288,true,NA,NA,NA,NA,NA
QyiaODZd,33tgb4g0msu3alll9rtp1nk6wbyxtf,3hya4d452vwudkyhhk89jd71ub02f5,QyiaODZd,2020-0188,2021-10-15,09:12:21,10:31:06,NA,incomplete,false,true,NA,5,28,NA,orange,n_s_108.jpg,NA,NA,unpleasant,pleasant,NA,NA,NA,NA,NA,right,2071,true,NA,NA,NA,NA,NA
QyiaODZd,33tgb4g0msu3alll9rtp1nk6wbyxtf,3hya4d452vwudkyhhk89jd71ub02f5,QyiaODZd,2020-0188,2021-10-15,09:12:21,10:31:06,NA,incomplete,false,true,NA,5,29,NA,orange,n_l_102.jpg,NA,NA,pleasant,unpleasant,NA,NA,NA,NA,NA,right,2798,true,NA,NA,NA,NA,NA
QyiaODZd,33tgb4g0msu3alll9rtp1nk6wbyxtf,3hya4d452vwudkyhhk89jd71ub02f5,QyiaODZd,2020-0188,2021-10-15,09:12:21,10:31:06,NA,incomplete,false,true,NA,5,30,NA,purple,n_s_054.jpg,NA,NA,pleasant,unpleasant,NA,NA,NA,NA,NA,right,2588,true,NA,NA,NA,NA,NA
QyiaODZd,33tgb4g0msu3alll9rtp1nk6wbyxtf,3hya4d452vwudkyhhk89jd71ub02f5,QyiaODZd,2020-0188,2021-10-15,09:12:21,10:31:06,NA,incomplete,false,true,NA,5,31,NA,purple,m_s_055.jpg,NA,NA,pleasant,unpleasant,NA,NA,NA,NA,NA,right,1762,true,NA,NA,NA,NA,NA
QyiaODZd,33tgb4g0msu3alll9rtp1nk6wbyxtf,3hya4d452vwudkyhhk89jd71ub02f5,QyiaODZd,2020-0188,2021-10-15,09:12:21,10:31:06,NA,incomplete,false,true,NA,5,32,NA,purple,m_s_018.jpg,NA,NA,pleasant,unpleasant,NA,NA,NA,NA,NA,right,2084,true,NA,NA,NA,NA,NA
QyiaODZd,33tgb4g0msu3alll9rtp1nk6wbyxtf,3hya4d452vwudkyhhk89jd71ub02f5,QyiaODZd,2020-0188,2021-10-15,09:12:21,10:31:06,NA,incomplete,false,true,NA,5,33,NA,purple,m_s_079.jpg,NA,NA,unpleasant,pleasant,NA,NA,NA,NA,NA,left,1937,true,NA,NA,NA,NA,NA
QyiaODZd,33tgb4g0msu3alll9rtp1nk6wbyxtf,3hya4d452vwudkyhhk89jd71ub02f5,QyiaODZd,2020-0188,2021-10-15,09:12:21,10:31:06,NA,incomplete,false,true,NA,5,34,NA,purple,n_l_106.jpg,NA,NA,unpleasant,pleasant,NA,NA,NA,NA,NA,right,1669,true,NA,NA,NA,NA,NA
QyiaODZd,33tgb4g0msu3alll9rtp1nk6wbyxtf,3hya4d452vwudkyhhk89jd71ub02f5,QyiaODZd,2020-0188,2021-10-15,09:12:21,10:31:06,NA,incomplete,false,true,NA,5,35,NA,purple,n_s_088.jpg,NA,NA,pleasant,unpleasant,NA,NA,NA,NA,NA,right,1494,true,NA,NA,NA,NA,NA
QyiaODZd,33tgb4g0msu3alll9rtp1nk6wbyxtf,3hya4d452vwudkyhhk89jd71ub02f5,QyiaODZd,2020-0188,2021-10-15,09:12:21,10:31:06,NA,incomplete,false,NA,true,5,0,NA,NA,NA,left,present,NA,NA,n_l_100.jpg,black,m_l_002.jpg,yellow,between,NA,NaN,NA,left,3994,1,2,2309
QyiaODZd,33tgb4g0msu3alll9rtp1nk6wbyxtf,3hya4d452vwudkyhhk89jd71ub02f5,QyiaODZd,2020-0188,2021-10-15,09:12:21,10:31:06,NA,incomplete,false,NA,true,5,1,NA,NA,NA,right,present,NA,NA,n_s_008.jpg,black,n_s_006.jpg,black,within,NA,NaN,NA,right,3046,1,1,1993
QyiaODZd,33tgb4g0msu3alll9rtp1nk6wbyxtf,3hya4d452vwudkyhhk89jd71ub02f5,QyiaODZd,2020-0188,2021-10-15,09:12:21,10:31:06,NA,incomplete,false,NA,true,5,2,NA,NA,NA,right,present,NA,NA,n_s_081.jpg,white,n_l_051.jpg,white,within,NA,NaN,NA,right,3000,1,1,1998
QyiaODZd,33tgb4g0msu3alll9rtp1nk6wbyxtf,3hya4d452vwudkyhhk89jd71ub02f5,QyiaODZd,2020-0188,2021-10-15,09:12:21,10:31:06,NA,incomplete,false,NA,true,5,3,NA,NA,NA,left,present,NA,NA,m_s_032.jpg,brown,m_l_114.jpg,black,between,NA,NaN,NA,right,3540,0,2,2083
QyiaODZd,33tgb4g0msu3alll9rtp1nk6wbyxtf,3hya4d452vwudkyhhk89jd71ub02f5,QyiaODZd,2020-0188,2021-10-15,09:12:21,10:31:06,NA,incomplete,false,NA,true,5,4,NA,NA,NA,left,present,NA,NA,m_s_109.jpg,yellow,n_s_009.jpg,orange,between,NA,NaN,NA,right,2850,0,3,2512
QyiaODZd,33tgb4g0msu3alll9rtp1nk6wbyxtf,3hya4d452vwudkyhhk89jd71ub02f5,QyiaODZd,2020-0188,2021-10-15,09:12:21,10:31:06,NA,incomplete,false,NA,true,5,5,NA,NA,NA,right,present,NA,NA,n_s_088.jpg,purple,m_s_055.jpg,purple,within,NA,NaN,NA,right,4137,1,0,3536
QyiaODZd,33tgb4g0msu3alll9rtp1nk6wbyxtf,3hya4d452vwudkyhhk89jd71ub02f5,QyiaODZd,2020-0188,2021-10-15,09:12:21,10:31:06,NA,incomplete,false,NA,true,5,6,NA,NA,NA,right,present,NA,NA,m_s_018.jpg,purple,n_s_108.jpg,orange,between,NA,NaN,NA,left,3302,0,1,2975
QyiaODZd,33tgb4g0msu3alll9rtp1nk6wbyxtf,3hya4d452vwudkyhhk89jd71ub02f5,QyiaODZd,2020-0188,2021-10-15,09:12:21,10:31:06,NA,incomplete,false,NA,true,5,7,NA,NA,NA,left,present,NA,NA,n_l_011.jpg,yellow,n_s_033.jpg,yellow,within,NA,NaN,NA,left,2918,1,1,2165
QyiaODZd,33tgb4g0msu3alll9rtp1nk6wbyxtf,3hya4d452vwudkyhhk89jd71ub02f5,QyiaODZd,2020-0188,2021-10-15,09:12:21,10:31:06,NA,incomplete,false,NA,true,5,8,NA,NA,NA,right,present,NA,NA,n_l_102.jpg,orange,n_l_053.jpg,orange,within,NA,NaN,NA,left,6413,0,1,1634
QyiaODZd,33tgb4g0msu3alll9rtp1nk6wbyxtf,3hya4d452vwudkyhhk89jd71ub02f5,QyiaODZd,2020-0188,2021-10-15,09:12:21,10:31:06,NA,incomplete,false,NA,true,5,9,NA,NA,NA,left,present,NA,NA,m_l_062.jpg,brown,n_l_086.jpg,brown,within,NA,NaN,NA,left,7098,1,1,11063
QyiaODZd,33tgb4g0msu3alll9rtp1nk6wbyxtf,3hya4d452vwudkyhhk89jd71ub02f5,QyiaODZd,2020-0188,2021-10-15,09:12:21,10:31:06,NA,incomplete,false,NA,true,5,10,NA,NA,NA,right,present,NA,NA,m_s_054.jpg,brown,n_s_013.jpg,white,between,NA,NaN,NA,right,7311,1,2,5475
QyiaODZd,33tgb4g0msu3alll9rtp1nk6wbyxtf,3hya4d452vwudkyhhk89jd71ub02f5,QyiaODZd,2020-0188,2021-10-15,09:12:21,10:31:06,NA,incomplete,false,true,NA,6,0,NA,orange,m_l_103.jpg,NA,NA,pleasant,unpleasant,NA,NA,NA,NA,NA,right,2947,true,NA,NA,NA,NA,NA
QyiaODZd,33tgb4g0msu3alll9rtp1nk6wbyxtf,3hya4d452vwudkyhhk89jd71ub02f5,QyiaODZd,2020-0188,2021-10-15,09:12:21,10:31:06,NA,incomplete,false,true,NA,6,1,NA,orange,m_l_076.jpg,NA,NA,unpleasant,pleasant,NA,NA,NA,NA,NA,left,1872,true,NA,NA,NA,NA,NA
QyiaODZd,33tgb4g0msu3alll9rtp1nk6wbyxtf,3hya4d452vwudkyhhk89jd71ub02f5,QyiaODZd,2020-0188,2021-10-15,09:12:21,10:31:06,NA,incomplete,false,true,NA,6,2,NA,orange,m_s_009.jpg,NA,NA,pleasant,unpleasant,NA,NA,NA,NA,NA,right,1788,true,NA,NA,NA,NA,NA
QyiaODZd,33tgb4g0msu3alll9rtp1nk6wbyxtf,3hya4d452vwudkyhhk89jd71ub02f5,QyiaODZd,2020-0188,2021-10-15,09:12:21,10:31:06,NA,incomplete,false,true,NA,6,3,NA,orange,m_s_065.jpg,NA,NA,pleasant,unpleasant,NA,NA,NA,NA,NA,right,1321,true,NA,NA,NA,NA,NA
QyiaODZd,33tgb4g0msu3alll9rtp1nk6wbyxtf,3hya4d452vwudkyhhk89jd71ub02f5,QyiaODZd,2020-0188,2021-10-15,09:12:21,10:31:06,NA,incomplete,false,true,NA,6,4,NA,orange,n_l_029.jpg,NA,NA,unpleasant,pleasant,NA,NA,NA,NA,NA,left,1981,true,NA,NA,NA,NA,NA
QyiaODZd,33tgb4g0msu3alll9rtp1nk6wbyxtf,3hya4d452vwudkyhhk89jd71ub02f5,QyiaODZd,2020-0188,2021-10-15,09:12:21,10:31:06,NA,incomplete,false,true,NA,6,5,NA,orange,n_l_099.jpg,NA,NA,pleasant,unpleasant,NA,NA,NA,NA,NA,right,1335,true,NA,NA,NA,NA,NA
QyiaODZd,33tgb4g0msu3alll9rtp1nk6wbyxtf,3hya4d452vwudkyhhk89jd71ub02f5,QyiaODZd,2020-0188,2021-10-15,09:12:21,10:31:06,NA,incomplete,false,true,NA,6,6,NA,red,n_s_075.jpg,NA,NA,unpleasant,pleasant,NA,NA,NA,NA,NA,left,1727,true,NA,NA,NA,NA,NA
QyiaODZd,33tgb4g0msu3alll9rtp1nk6wbyxtf,3hya4d452vwudkyhhk89jd71ub02f5,QyiaODZd,2020-0188,2021-10-15,09:12:21,10:31:06,NA,incomplete,false,true,NA,6,7,NA,red,n_l_022.jpg,NA,NA,unpleasant,pleasant,NA,NA,NA,NA,NA,left,1694,true,NA,NA,NA,NA,NA
QyiaODZd,33tgb4g0msu3alll9rtp1nk6wbyxtf,3hya4d452vwudkyhhk89jd71ub02f5,QyiaODZd,2020-0188,2021-10-15,09:12:21,10:31:06,NA,incomplete,false,true,NA,6,8,NA,red,n_s_056.jpg,NA,NA,pleasant,unpleasant,NA,NA,NA,NA,NA,right,1627,true,NA,NA,NA,NA,NA
QyiaODZd,33tgb4g0msu3alll9rtp1nk6wbyxtf,3hya4d452vwudkyhhk89jd71ub02f5,QyiaODZd,2020-0188,2021-10-15,09:12:21,10:31:06,NA,incomplete,false,true,NA,6,9,NA,red,m_s_061.jpg,NA,NA,unpleasant,pleasant,NA,NA,NA,NA,NA,right,2660,true,NA,NA,NA,NA,NA
QyiaODZd,33tgb4g0msu3alll9rtp1nk6wbyxtf,3hya4d452vwudkyhhk89jd71ub02f5,QyiaODZd,2020-0188,2021-10-15,09:12:21,10:31:06,NA,incomplete,false,true,NA,6,10,NA,red,n_s_104.jpg,NA,NA,unpleasant,pleasant,NA,NA,NA,NA,NA,left,1686,true,NA,NA,NA,NA,NA
QyiaODZd,33tgb4g0msu3alll9rtp1nk6wbyxtf,3hya4d452vwudkyhhk89jd71ub02f5,QyiaODZd,2020-0188,2021-10-15,09:12:21,10:31:06,NA,incomplete,false,true,NA,6,11,NA,red,n_l_010.jpg,NA,NA,unpleasant,pleasant,NA,NA,NA,NA,NA,left,2301,true,NA,NA,NA,NA,NA
QyiaODZd,33tgb4g0msu3alll9rtp1nk6wbyxtf,3hya4d452vwudkyhhk89jd71ub02f5,QyiaODZd,2020-0188,2021-10-15,09:12:21,10:31:06,NA,incomplete,false,true,NA,6,12,NA,white,m_s_056.jpg,NA,NA,pleasant,unpleasant,NA,NA,NA,NA,NA,right,1919,true,NA,NA,NA,NA,NA
QyiaODZd,33tgb4g0msu3alll9rtp1nk6wbyxtf,3hya4d452vwudkyhhk89jd71ub02f5,QyiaODZd,2020-0188,2021-10-15,09:12:21,10:31:06,NA,incomplete,false,true,NA,6,13,NA,white,m_s_043.jpg,NA,NA,unpleasant,pleasant,NA,NA,NA,NA,NA,left,2130,true,NA,NA,NA,NA,NA
QyiaODZd,33tgb4g0msu3alll9rtp1nk6wbyxtf,3hya4d452vwudkyhhk89jd71ub02f5,QyiaODZd,2020-0188,2021-10-15,09:12:21,10:31:06,NA,incomplete,false,true,NA,6,14,NA,white,n_s_063.jpg,NA,NA,unpleasant,pleasant,NA,NA,NA,NA,NA,left,1459,true,NA,NA,NA,NA,NA
QyiaODZd,33tgb4g0msu3alll9rtp1nk6wbyxtf,3hya4d452vwudkyhhk89jd71ub02f5,QyiaODZd,2020-0188,2021-10-15,09:12:21,10:31:06,NA,incomplete,false,true,NA,6,15,NA,white,m_s_081.jpg,NA,NA,unpleasant,pleasant,NA,NA,NA,NA,NA,right,2572,true,NA,NA,NA,NA,NA
QyiaODZd,33tgb4g0msu3alll9rtp1nk6wbyxtf,3hya4d452vwudkyhhk89jd71ub02f5,QyiaODZd,2020-0188,2021-10-15,09:12:21,10:31:06,NA,incomplete,false,true,NA,6,16,NA,white,m_s_010.jpg,NA,NA,unpleasant,pleasant,NA,NA,NA,NA,NA,right,1335,true,NA,NA,NA,NA,NA
QyiaODZd,33tgb4g0msu3alll9rtp1nk6wbyxtf,3hya4d452vwudkyhhk89jd71ub02f5,QyiaODZd,2020-0188,2021-10-15,09:12:21,10:31:06,NA,incomplete,false,true,NA,6,17,NA,white,m_s_070.jpg,NA,NA,unpleasant,pleasant,NA,NA,NA,NA,NA,right,2980,true,NA,NA,NA,NA,NA
QyiaODZd,33tgb4g0msu3alll9rtp1nk6wbyxtf,3hya4d452vwudkyhhk89jd71ub02f5,QyiaODZd,2020-0188,2021-10-15,09:12:21,10:31:06,NA,incomplete,false,true,NA,6,18,NA,blue,n_s_064.jpg,NA,NA,unpleasant,pleasant,NA,NA,NA,NA,NA,right,2141,true,NA,NA,NA,NA,NA
QyiaODZd,33tgb4g0msu3alll9rtp1nk6wbyxtf,3hya4d452vwudkyhhk89jd71ub02f5,QyiaODZd,2020-0188,2021-10-15,09:12:21,10:31:06,NA,incomplete,false,true,NA,6,19,NA,blue,m_l_020.jpg,NA,NA,pleasant,unpleasant,NA,NA,NA,NA,NA,left,2986,true,NA,NA,NA,NA,NA
QyiaODZd,33tgb4g0msu3alll9rtp1nk6wbyxtf,3hya4d452vwudkyhhk89jd71ub02f5,QyiaODZd,2020-0188,2021-10-15,09:12:21,10:31:06,NA,incomplete,false,true,NA,6,20,NA,blue,n_s_044.jpg,NA,NA,pleasant,unpleasant,NA,NA,NA,NA,NA,right,1794,true,NA,NA,NA,NA,NA
QyiaODZd,33tgb4g0msu3alll9rtp1nk6wbyxtf,3hya4d452vwudkyhhk89jd71ub02f5,QyiaODZd,2020-0188,2021-10-15,09:12:21,10:31:06,NA,incomplete,false,true,NA,6,21,NA,blue,n_s_086.jpg,NA,NA,unpleasant,pleasant,NA,NA,NA,NA,NA,right,2086,true,NA,NA,NA,NA,NA
QyiaODZd,33tgb4g0msu3alll9rtp1nk6wbyxtf,3hya4d452vwudkyhhk89jd71ub02f5,QyiaODZd,2020-0188,2021-10-15,09:12:21,10:31:06,NA,incomplete,false,true,NA,6,22,NA,blue,m_s_045.jpg,NA,NA,pleasant,unpleasant,NA,NA,NA,NA,NA,left,2226,true,NA,NA,NA,NA,NA
QyiaODZd,33tgb4g0msu3alll9rtp1nk6wbyxtf,3hya4d452vwudkyhhk89jd71ub02f5,QyiaODZd,2020-0188,2021-10-15,09:12:21,10:31:06,NA,incomplete,false,true,NA,6,23,NA,blue,n_s_022.jpg,NA,NA,unpleasant,pleasant,NA,NA,NA,NA,NA,right,1925,true,NA,NA,NA,NA,NA
QyiaODZd,33tgb4g0msu3alll9rtp1nk6wbyxtf,3hya4d452vwudkyhhk89jd71ub02f5,QyiaODZd,2020-0188,2021-10-15,09:12:21,10:31:06,NA,incomplete,false,true,NA,6,24,NA,brown,m_s_090.jpg,NA,NA,pleasant,unpleasant,NA,NA,NA,NA,NA,left,1934,true,NA,NA,NA,NA,NA
QyiaODZd,33tgb4g0msu3alll9rtp1nk6wbyxtf,3hya4d452vwudkyhhk89jd71ub02f5,QyiaODZd,2020-0188,2021-10-15,09:12:21,10:31:06,NA,incomplete,false,true,NA,6,25,NA,brown,m_s_091.jpg,NA,NA,pleasant,unpleasant,NA,NA,NA,NA,NA,left,1750,true,NA,NA,NA,NA,NA
QyiaODZd,33tgb4g0msu3alll9rtp1nk6wbyxtf,3hya4d452vwudkyhhk89jd71ub02f5,QyiaODZd,2020-0188,2021-10-15,09:12:21,10:31:06,NA,incomplete,false,true,NA,6,26,NA,brown,n_s_027.jpg,NA,NA,pleasant,unpleasant,NA,NA,NA,NA,NA,right,1630,true,NA,NA,NA,NA,NA
QyiaODZd,33tgb4g0msu3alll9rtp1nk6wbyxtf,3hya4d452vwudkyhhk89jd71ub02f5,QyiaODZd,2020-0188,2021-10-15,09:12:21,10:31:06,NA,incomplete,false,true,NA,6,27,NA,brown,m_s_089.jpg,NA,NA,pleasant,unpleasant,NA,NA,NA,NA,NA,right,1937,true,NA,NA,NA,NA,NA
QyiaODZd,33tgb4g0msu3alll9rtp1nk6wbyxtf,3hya4d452vwudkyhhk89jd71ub02f5,QyiaODZd,2020-0188,2021-10-15,09:12:21,10:31:06,NA,incomplete,false,true,NA,6,28,NA,brown,m_s_017.jpg,NA,NA,unpleasant,pleasant,NA,NA,NA,NA,NA,none,0,false,NA,NA,NA,NA,NA
QyiaODZd,33tgb4g0msu3alll9rtp1nk6wbyxtf,3hya4d452vwudkyhhk89jd71ub02f5,QyiaODZd,2020-0188,2021-10-15,09:12:21,10:31:06,NA,incomplete,false,true,NA,6,29,NA,brown,n_l_084.jpg,NA,NA,unpleasant,pleasant,NA,NA,NA,NA,NA,left,1966,true,NA,NA,NA,NA,NA
QyiaODZd,33tgb4g0msu3alll9rtp1nk6wbyxtf,3hya4d452vwudkyhhk89jd71ub02f5,QyiaODZd,2020-0188,2021-10-15,09:12:21,10:31:06,NA,incomplete,false,true,NA,6,30,NA,green,n_s_110.jpg,NA,NA,unpleasant,pleasant,NA,NA,NA,NA,NA,right,1607,true,NA,NA,NA,NA,NA
QyiaODZd,33tgb4g0msu3alll9rtp1nk6wbyxtf,3hya4d452vwudkyhhk89jd71ub02f5,QyiaODZd,2020-0188,2021-10-15,09:12:21,10:31:06,NA,incomplete,false,true,NA,6,31,NA,green,n_l_052.jpg,NA,NA,pleasant,unpleasant,NA,NA,NA,NA,NA,right,1569,true,NA,NA,NA,NA,NA
QyiaODZd,33tgb4g0msu3alll9rtp1nk6wbyxtf,3hya4d452vwudkyhhk89jd71ub02f5,QyiaODZd,2020-0188,2021-10-15,09:12:21,10:31:06,NA,incomplete,false,true,NA,6,32,NA,green,m_l_014.jpg,NA,NA,unpleasant,pleasant,NA,NA,NA,NA,NA,right,1889,true,NA,NA,NA,NA,NA
QyiaODZd,33tgb4g0msu3alll9rtp1nk6wbyxtf,3hya4d452vwudkyhhk89jd71ub02f5,QyiaODZd,2020-0188,2021-10-15,09:12:21,10:31:06,NA,incomplete,false,true,NA,6,33,NA,green,n_s_018.jpg,NA,NA,unpleasant,pleasant,NA,NA,NA,NA,NA,left,1632,true,NA,NA,NA,NA,NA
QyiaODZd,33tgb4g0msu3alll9rtp1nk6wbyxtf,3hya4d452vwudkyhhk89jd71ub02f5,QyiaODZd,2020-0188,2021-10-15,09:12:21,10:31:06,NA,incomplete,false,true,NA,6,34,NA,green,n_l_056.jpg,NA,NA,unpleasant,pleasant,NA,NA,NA,NA,NA,left,3021,true,NA,NA,NA,NA,NA
QyiaODZd,33tgb4g0msu3alll9rtp1nk6wbyxtf,3hya4d452vwudkyhhk89jd71ub02f5,QyiaODZd,2020-0188,2021-10-15,09:12:21,10:31:06,NA,incomplete,false,true,NA,6,35,NA,green,m_s_117.jpg,NA,NA,pleasant,unpleasant,NA,NA,NA,NA,NA,left,1754,true,NA,NA,NA,NA,NA
QyiaODZd,33tgb4g0msu3alll9rtp1nk6wbyxtf,3hya4d452vwudkyhhk89jd71ub02f5,QyiaODZd,2020-0188,2021-10-15,09:12:21,10:31:06,NA,incomplete,false,NA,true,6,0,NA,NA,NA,left,absent,NA,NA,m_l_076.jpg,orange,n_l_099.jpg,orange,within,NA,NaN,NA,left,5583,1,1,5194
QyiaODZd,33tgb4g0msu3alll9rtp1nk6wbyxtf,3hya4d452vwudkyhhk89jd71ub02f5,QyiaODZd,2020-0188,2021-10-15,09:12:21,10:31:06,NA,incomplete,false,NA,true,6,1,NA,NA,NA,right,absent,NA,NA,n_s_056.jpg,red,n_l_029.jpg,orange,between,NA,NaN,NA,left,9139,0,1,3556
QyiaODZd,33tgb4g0msu3alll9rtp1nk6wbyxtf,3hya4d452vwudkyhhk89jd71ub02f5,QyiaODZd,2020-0188,2021-10-15,09:12:21,10:31:06,NA,incomplete,false,NA,true,6,2,NA,NA,NA,left,absent,NA,NA,n_l_052.jpg,green,m_s_117.jpg,green,within,NA,NaN,NA,right,6219,0,2,2766
QyiaODZd,33tgb4g0msu3alll9rtp1nk6wbyxtf,3hya4d452vwudkyhhk89jd71ub02f5,QyiaODZd,2020-0188,2021-10-15,09:12:21,10:31:06,NA,incomplete,false,NA,true,6,3,NA,NA,NA,right,absent,NA,NA,n_s_063.jpg,white,n_s_104.jpg,red,between,NA,NaN,NA,left,11643,0,2,3078
QyiaODZd,33tgb4g0msu3alll9rtp1nk6wbyxtf,3hya4d452vwudkyhhk89jd71ub02f5,QyiaODZd,2020-0188,2021-10-15,09:12:21,10:31:06,NA,incomplete,false,NA,true,6,4,NA,NA,NA,right,absent,NA,NA,n_s_022.jpg,blue,m_l_020.jpg,blue,within,NA,NaN,NA,left,3848,0,2,2104
QyiaODZd,33tgb4g0msu3alll9rtp1nk6wbyxtf,3hya4d452vwudkyhhk89jd71ub02f5,QyiaODZd,2020-0188,2021-10-15,09:12:21,10:31:06,NA,incomplete,false,NA,true,6,5,NA,NA,NA,right,absent,NA,NA,m_l_014.jpg,green,m_s_017.jpg,brown,between,NA,NaN,NA,left,5092,0,2,2178
QyiaODZd,33tgb4g0msu3alll9rtp1nk6wbyxtf,3hya4d452vwudkyhhk89jd71ub02f5,QyiaODZd,2020-0188,2021-10-15,09:12:21,10:31:06,NA,incomplete,false,NA,true,6,6,NA,NA,NA,left,absent,NA,NA,m_s_091.jpg,brown,n_l_084.jpg,brown,within,NA,NaN,NA,right,3403,0,2,5878
QyiaODZd,33tgb4g0msu3alll9rtp1nk6wbyxtf,3hya4d452vwudkyhhk89jd71ub02f5,QyiaODZd,2020-0188,2021-10-15,09:12:21,10:31:06,NA,incomplete,false,NA,true,6,7,NA,NA,NA,right,absent,NA,NA,n_s_044.jpg,blue,m_s_010.jpg,white,between,NA,NaN,NA,left,7748,0,3,2587
QyiaODZd,33tgb4g0msu3alll9rtp1nk6wbyxtf,3hya4d452vwudkyhhk89jd71ub02f5,QyiaODZd,2020-0188,2021-10-15,09:12:21,10:31:06,NA,incomplete,false,NA,true,6,8,NA,NA,NA,left,absent,NA,NA,n_l_022.jpg,red,n_l_010.jpg,red,within,NA,NaN,NA,left,2817,1,2,1524
QyiaODZd,33tgb4g0msu3alll9rtp1nk6wbyxtf,3hya4d452vwudkyhhk89jd71ub02f5,QyiaODZd,2020-0188,2021-10-15,09:12:21,10:31:06,NA,incomplete,false,NA,true,6,9,NA,NA,NA,left,absent,NA,NA,m_s_045.jpg,blue,n_s_027.jpg,brown,between,NA,NaN,NA,left,3268,1,2,4541
QyiaODZd,33tgb4g0msu3alll9rtp1nk6wbyxtf,3hya4d452vwudkyhhk89jd71ub02f5,QyiaODZd,2020-0188,2021-10-15,09:12:21,10:31:06,NA,incomplete,false,NA,true,6,10,NA,NA,NA,right,absent,NA,NA,m_s_070.jpg,white,m_s_043.jpg,white,within,NA,NaN,NA,left,2638,0,1,1286
QyiaODZd,33tgb4g0msu3alll9rtp1nk6wbyxtf,3hya4d452vwudkyhhk89jd71ub02f5,QyiaODZd,2020-0188,2021-10-15,09:12:21,10:31:06,NA,incomplete,false,true,NA,7,0,NA,orange,m_s_075.jpg,NA,NA,unpleasant,pleasant,NA,NA,NA,NA,NA,none,0,false,NA,NA,NA,NA,NA
QyiaODZd,33tgb4g0msu3alll9rtp1nk6wbyxtf,3hya4d452vwudkyhhk89jd71ub02f5,QyiaODZd,2020-0188,2021-10-15,09:12:21,10:31:06,NA,incomplete,false,true,NA,7,1,NA,orange,m_l_023.jpg,NA,NA,unpleasant,pleasant,NA,NA,NA,NA,NA,right,2972,true,NA,NA,NA,NA,NA
QyiaODZd,33tgb4g0msu3alll9rtp1nk6wbyxtf,3hya4d452vwudkyhhk89jd71ub02f5,QyiaODZd,2020-0188,2021-10-15,09:12:21,10:31:06,NA,incomplete,false,true,NA,7,2,NA,orange,n_s_041.jpg,NA,NA,pleasant,unpleasant,NA,NA,NA,NA,NA,left,3446,true,NA,NA,NA,NA,NA
QyiaODZd,33tgb4g0msu3alll9rtp1nk6wbyxtf,3hya4d452vwudkyhhk89jd71ub02f5,QyiaODZd,2020-0188,2021-10-15,09:12:21,10:31:06,NA,incomplete,false,true,NA,7,3,NA,orange,n_s_015.jpg,NA,NA,pleasant,unpleasant,NA,NA,NA,NA,NA,right,2470,true,NA,NA,NA,NA,NA
QyiaODZd,33tgb4g0msu3alll9rtp1nk6wbyxtf,3hya4d452vwudkyhhk89jd71ub02f5,QyiaODZd,2020-0188,2021-10-15,09:12:21,10:31:06,NA,incomplete,false,true,NA,7,4,NA,orange,n_s_061.jpg,NA,NA,pleasant,unpleasant,NA,NA,NA,NA,NA,none,0,false,NA,NA,NA,NA,NA
QyiaODZd,33tgb4g0msu3alll9rtp1nk6wbyxtf,3hya4d452vwudkyhhk89jd71ub02f5,QyiaODZd,2020-0188,2021-10-15,09:12:21,10:31:06,NA,incomplete,false,true,NA,7,5,NA,orange,n_s_001.jpg,NA,NA,pleasant,unpleasant,NA,NA,NA,NA,NA,left,2689,true,NA,NA,NA,NA,NA
QyiaODZd,33tgb4g0msu3alll9rtp1nk6wbyxtf,3hya4d452vwudkyhhk89jd71ub02f5,QyiaODZd,2020-0188,2021-10-15,09:12:21,10:31:06,NA,incomplete,false,true,NA,7,6,NA,gray,n_l_012.jpg,NA,NA,pleasant,unpleasant,NA,NA,NA,NA,NA,right,3051,true,NA,NA,NA,NA,NA
QyiaODZd,33tgb4g0msu3alll9rtp1nk6wbyxtf,3hya4d452vwudkyhhk89jd71ub02f5,QyiaODZd,2020-0188,2021-10-15,09:12:21,10:31:06,NA,incomplete,false,true,NA,7,7,NA,gray,m_s_042.jpg,NA,NA,unpleasant,pleasant,NA,NA,NA,NA,NA,left,2381,true,NA,NA,NA,NA,NA
QyiaODZd,33tgb4g0msu3alll9rtp1nk6wbyxtf,3hya4d452vwudkyhhk89jd71ub02f5,QyiaODZd,2020-0188,2021-10-15,09:12:21,10:31:06,NA,incomplete,false,true,NA,7,8,NA,gray,m_s_099.jpg,NA,NA,unpleasant,pleasant,NA,NA,NA,NA,NA,left,2916,true,NA,NA,NA,NA,NA
QyiaODZd,33tgb4g0msu3alll9rtp1nk6wbyxtf,3hya4d452vwudkyhhk89jd71ub02f5,QyiaODZd,2020-0188,2021-10-15,09:12:21,10:31:06,NA,incomplete,false,true,NA,7,9,NA,gray,m_l_006.jpg,NA,NA,pleasant,unpleasant,NA,NA,NA,NA,NA,none,0,false,NA,NA,NA,NA,NA
QyiaODZd,33tgb4g0msu3alll9rtp1nk6wbyxtf,3hya4d452vwudkyhhk89jd71ub02f5,QyiaODZd,2020-0188,2021-10-15,09:12:21,10:31:06,NA,incomplete,false,true,NA,7,10,NA,gray,m_l_090.jpg,NA,NA,unpleasant,pleasant,NA,NA,NA,NA,NA,left,2550,true,NA,NA,NA,NA,NA
QyiaODZd,33tgb4g0msu3alll9rtp1nk6wbyxtf,3hya4d452vwudkyhhk89jd71ub02f5,QyiaODZd,2020-0188,2021-10-15,09:12:21,10:31:06,NA,incomplete,false,true,NA,7,11,NA,gray,m_s_068.jpg,NA,NA,pleasant,unpleasant,NA,NA,NA,NA,NA,right,3087,true,NA,NA,NA,NA,NA
QyiaODZd,33tgb4g0msu3alll9rtp1nk6wbyxtf,3hya4d452vwudkyhhk89jd71ub02f5,QyiaODZd,2020-0188,2021-10-15,09:12:21,10:31:06,NA,incomplete,false,true,NA,7,12,NA,brown,m_s_059.jpg,NA,NA,pleasant,unpleasant,NA,NA,NA,NA,NA,none,0,false,NA,NA,NA,NA,NA
QyiaODZd,33tgb4g0msu3alll9rtp1nk6wbyxtf,3hya4d452vwudkyhhk89jd71ub02f5,QyiaODZd,2020-0188,2021-10-15,09:12:21,10:31:06,NA,incomplete,false,true,NA,7,13,NA,brown,m_l_004.jpg,NA,NA,pleasant,unpleasant,NA,NA,NA,NA,NA,left,1621,true,NA,NA,NA,NA,NA
QyiaODZd,33tgb4g0msu3alll9rtp1nk6wbyxtf,3hya4d452vwudkyhhk89jd71ub02f5,QyiaODZd,2020-0188,2021-10-15,09:12:21,10:31:06,NA,incomplete,false,true,NA,7,14,NA,brown,n_l_113.jpg,NA,NA,pleasant,unpleasant,NA,NA,NA,NA,NA,right,1816,true,NA,NA,NA,NA,NA
QyiaODZd,33tgb4g0msu3alll9rtp1nk6wbyxtf,3hya4d452vwudkyhhk89jd71ub02f5,QyiaODZd,2020-0188,2021-10-15,09:12:21,10:31:06,NA,incomplete,false,true,NA,7,15,NA,brown,m_l_085.jpg,NA,NA,pleasant,unpleasant,NA,NA,NA,NA,NA,none,0,false,NA,NA,NA,NA,NA
QyiaODZd,33tgb4g0msu3alll9rtp1nk6wbyxtf,3hya4d452vwudkyhhk89jd71ub02f5,QyiaODZd,2020-0188,2021-10-15,09:12:21,10:31:06,NA,incomplete,false,true,NA,7,16,NA,brown,m_s_004.jpg,NA,NA,pleasant,unpleasant,NA,NA,NA,NA,NA,left,1984,true,NA,NA,NA,NA,NA
QyiaODZd,33tgb4g0msu3alll9rtp1nk6wbyxtf,3hya4d452vwudkyhhk89jd71ub02f5,QyiaODZd,2020-0188,2021-10-15,09:12:21,10:31:06,NA,incomplete,false,true,NA,7,17,NA,brown,m_l_041.jpg,NA,NA,unpleasant,pleasant,NA,NA,NA,NA,NA,left,2527,true,NA,NA,NA,NA,NA
QyiaODZd,33tgb4g0msu3alll9rtp1nk6wbyxtf,3hya4d452vwudkyhhk89jd71ub02f5,QyiaODZd,2020-0188,2021-10-15,09:12:21,10:31:06,NA,incomplete,false,true,NA,7,18,NA,blue,m_s_051.jpg,NA,NA,pleasant,unpleasant,NA,NA,NA,NA,NA,right,2417,true,NA,NA,NA,NA,NA
QyiaODZd,33tgb4g0msu3alll9rtp1nk6wbyxtf,3hya4d452vwudkyhhk89jd71ub02f5,QyiaODZd,2020-0188,2021-10-15,09:12:21,10:31:06,NA,incomplete,false,true,NA,7,19,NA,blue,n_s_092.jpg,NA,NA,unpleasant,pleasant,NA,NA,NA,NA,NA,right,2616,true,NA,NA,NA,NA,NA
QyiaODZd,33tgb4g0msu3alll9rtp1nk6wbyxtf,3hya4d452vwudkyhhk89jd71ub02f5,QyiaODZd,2020-0188,2021-10-15,09:12:21,10:31:06,NA,incomplete,false,true,NA,7,20,NA,blue,n_s_111.jpg,NA,NA,unpleasant,pleasant,NA,NA,NA,NA,NA,left,2580,true,NA,NA,NA,NA,NA
QyiaODZd,33tgb4g0msu3alll9rtp1nk6wbyxtf,3hya4d452vwudkyhhk89jd71ub02f5,QyiaODZd,2020-0188,2021-10-15,09:12:21,10:31:06,NA,incomplete,false,true,NA,7,21,NA,blue,m_l_107.jpg,NA,NA,pleasant,unpleasant,NA,NA,NA,NA,NA,left,3170,true,NA,NA,NA,NA,NA
QyiaODZd,33tgb4g0msu3alll9rtp1nk6wbyxtf,3hya4d452vwudkyhhk89jd71ub02f5,QyiaODZd,2020-0188,2021-10-15,09:12:21,10:31:06,NA,incomplete,false,true,NA,7,22,NA,blue,m_l_012.jpg,NA,NA,unpleasant,pleasant,NA,NA,NA,NA,NA,right,2389,true,NA,NA,NA,NA,NA
QyiaODZd,33tgb4g0msu3alll9rtp1nk6wbyxtf,3hya4d452vwudkyhhk89jd71ub02f5,QyiaODZd,2020-0188,2021-10-15,09:12:21,10:31:06,NA,incomplete,false,true,NA,7,23,NA,blue,m_l_077.jpg,NA,NA,unpleasant,pleasant,NA,NA,NA,NA,NA,left,2241,true,NA,NA,NA,NA,NA
QyiaODZd,33tgb4g0msu3alll9rtp1nk6wbyxtf,3hya4d452vwudkyhhk89jd71ub02f5,QyiaODZd,2020-0188,2021-10-15,09:12:21,10:31:06,NA,incomplete,false,true,NA,7,24,NA,purple,n_l_003.jpg,NA,NA,unpleasant,pleasant,NA,NA,NA,NA,NA,left,1868,true,NA,NA,NA,NA,NA
QyiaODZd,33tgb4g0msu3alll9rtp1nk6wbyxtf,3hya4d452vwudkyhhk89jd71ub02f5,QyiaODZd,2020-0188,2021-10-15,09:12:21,10:31:06,NA,incomplete,false,true,NA,7,25,NA,purple,n_l_093.jpg,NA,NA,pleasant,unpleasant,NA,NA,NA,NA,NA,right,1928,true,NA,NA,NA,NA,NA
QyiaODZd,33tgb4g0msu3alll9rtp1nk6wbyxtf,3hya4d452vwudkyhhk89jd71ub02f5,QyiaODZd,2020-0188,2021-10-15,09:12:21,10:31:06,NA,incomplete,false,true,NA,7,26,NA,purple,n_s_035.jpg,NA,NA,pleasant,unpleasant,NA,NA,NA,NA,NA,left,1825,true,NA,NA,NA,NA,NA
QyiaODZd,33tgb4g0msu3alll9rtp1nk6wbyxtf,3hya4d452vwudkyhhk89jd71ub02f5,QyiaODZd,2020-0188,2021-10-15,09:12:21,10:31:06,NA,incomplete,false,true,NA,7,27,NA,purple,m_s_058.jpg,NA,NA,unpleasant,pleasant,NA,NA,NA,NA,NA,right,2274,true,NA,NA,NA,NA,NA
QyiaODZd,33tgb4g0msu3alll9rtp1nk6wbyxtf,3hya4d452vwudkyhhk89jd71ub02f5,QyiaODZd,2020-0188,2021-10-15,09:12:21,10:31:06,NA,incomplete,false,true,NA,7,28,NA,purple,m_s_013.jpg,NA,NA,unpleasant,pleasant,NA,NA,NA,NA,NA,none,0,false,NA,NA,NA,NA,NA
QyiaODZd,33tgb4g0msu3alll9rtp1nk6wbyxtf,3hya4d452vwudkyhhk89jd71ub02f5,QyiaODZd,2020-0188,2021-10-15,09:12:21,10:31:06,NA,incomplete,false,true,NA,7,29,NA,purple,n_l_033.jpg,NA,NA,unpleasant,pleasant,NA,NA,NA,NA,NA,none,0,false,NA,NA,NA,NA,NA
QyiaODZd,33tgb4g0msu3alll9rtp1nk6wbyxtf,3hya4d452vwudkyhhk89jd71ub02f5,QyiaODZd,2020-0188,2021-10-15,09:12:21,10:31:06,NA,incomplete,false,true,NA,7,30,NA,black,n_l_115.jpg,NA,NA,pleasant,unpleasant,NA,NA,NA,NA,NA,none,0,false,NA,NA,NA,NA,NA
QyiaODZd,33tgb4g0msu3alll9rtp1nk6wbyxtf,3hya4d452vwudkyhhk89jd71ub02f5,QyiaODZd,2020-0188,2021-10-15,09:12:21,10:31:06,NA,incomplete,false,true,NA,7,31,NA,black,n_l_057.jpg,NA,NA,pleasant,unpleasant,NA,NA,NA,NA,NA,none,0,false,NA,NA,NA,NA,NA
QyiaODZd,33tgb4g0msu3alll9rtp1nk6wbyxtf,3hya4d452vwudkyhhk89jd71ub02f5,QyiaODZd,2020-0188,2021-10-15,09:12:21,10:31:06,NA,incomplete,false,true,NA,7,32,NA,black,n_l_005.jpg,NA,NA,unpleasant,pleasant,NA,NA,NA,NA,NA,right,3115,true,NA,NA,NA,NA,NA
QyiaODZd,33tgb4g0msu3alll9rtp1nk6wbyxtf,3hya4d452vwudkyhhk89jd71ub02f5,QyiaODZd,2020-0188,2021-10-15,09:12:21,10:31:06,NA,incomplete,false,true,NA,7,33,NA,black,n_s_046.jpg,NA,NA,pleasant,unpleasant,NA,NA,NA,NA,NA,left,3142,true,NA,NA,NA,NA,NA
QyiaODZd,33tgb4g0msu3alll9rtp1nk6wbyxtf,3hya4d452vwudkyhhk89jd71ub02f5,QyiaODZd,2020-0188,2021-10-15,09:12:21,10:31:06,NA,incomplete,false,true,NA,7,34,NA,black,n_s_078.jpg,NA,NA,pleasant,unpleasant,NA,NA,NA,NA,NA,right,2473,true,NA,NA,NA,NA,NA
QyiaODZd,33tgb4g0msu3alll9rtp1nk6wbyxtf,3hya4d452vwudkyhhk89jd71ub02f5,QyiaODZd,2020-0188,2021-10-15,09:12:21,10:31:06,NA,incomplete,false,true,NA,7,35,NA,black,n_s_005.jpg,NA,NA,unpleasant,pleasant,NA,NA,NA,NA,NA,right,2694,true,NA,NA,NA,NA,NA
QyiaODZd,33tgb4g0msu3alll9rtp1nk6wbyxtf,3hya4d452vwudkyhhk89jd71ub02f5,QyiaODZd,2020-0188,2021-10-15,09:12:21,10:31:06,NA,incomplete,false,NA,true,7,0,NA,NA,NA,left,absent,NA,NA,n_s_061.jpg,orange,m_s_099.jpg,gray,between,NA,NaN,NA,right,6836,0,2,4757
QyiaODZd,33tgb4g0msu3alll9rtp1nk6wbyxtf,3hya4d452vwudkyhhk89jd71ub02f5,QyiaODZd,2020-0188,2021-10-15,09:12:21,10:31:06,NA,incomplete,false,NA,true,7,1,NA,NA,NA,left,absent,NA,NA,m_l_004.jpg,brown,m_l_041.jpg,brown,within,NA,NaN,NA,left,3951,1,2,2258
QyiaODZd,33tgb4g0msu3alll9rtp1nk6wbyxtf,3hya4d452vwudkyhhk89jd71ub02f5,QyiaODZd,2020-0188,2021-10-15,09:12:21,10:31:06,NA,incomplete,false,NA,true,7,2,NA,NA,NA,right,absent,NA,NA,n_l_033.jpg,purple,n_l_093.jpg,purple,within,NA,NaN,NA,right,8457,1,2,1738
QyiaODZd,33tgb4g0msu3alll9rtp1nk6wbyxtf,3hya4d452vwudkyhhk89jd71ub02f5,QyiaODZd,2020-0188,2021-10-15,09:12:21,10:31:06,NA,incomplete,false,NA,true,7,3,NA,NA,NA,right,absent,NA,NA,n_s_001.jpg,orange,m_l_023.jpg,orange,within,NA,NaN,NA,right,3546,1,1,4481
QyiaODZd,33tgb4g0msu3alll9rtp1nk6wbyxtf,3hya4d452vwudkyhhk89jd71ub02f5,QyiaODZd,2020-0188,2021-10-15,09:12:21,10:31:06,NA,incomplete,false,NA,true,7,4,NA,NA,NA,left,absent,NA,NA,m_s_042.jpg,gray,m_s_068.jpg,gray,within,NA,NaN,NA,right,7205,0,1,4198
QyiaODZd,33tgb4g0msu3alll9rtp1nk6wbyxtf,3hya4d452vwudkyhhk89jd71ub02f5,QyiaODZd,2020-0188,2021-10-15,09:12:21,10:31:06,NA,incomplete,false,NA,true,7,5,NA,NA,NA,left,absent,NA,NA,n_s_092.jpg,blue,m_l_077.jpg,blue,within,NA,NaN,NA,left,3290,1,0,4367
QyiaODZd,33tgb4g0msu3alll9rtp1nk6wbyxtf,3hya4d452vwudkyhhk89jd71ub02f5,QyiaODZd,2020-0188,2021-10-15,09:12:21,10:31:06,NA,incomplete,false,NA,true,7,6,NA,NA,NA,left,absent,NA,NA,m_s_013.jpg,purple,n_l_005.jpg,black,between,NA,NaN,NA,right,4329,0,1,2467
QyiaODZd,33tgb4g0msu3alll9rtp1nk6wbyxtf,3hya4d452vwudkyhhk89jd71ub02f5,QyiaODZd,2020-0188,2021-10-15,09:12:21,10:31:06,NA,incomplete,false,NA,true,7,7,NA,NA,NA,right,absent,NA,NA,n_l_113.jpg,brown,m_l_090.jpg,gray,between,NA,NaN,NA,right,2477,1,1,2717
QyiaODZd,33tgb4g0msu3alll9rtp1nk6wbyxtf,3hya4d452vwudkyhhk89jd71ub02f5,QyiaODZd,2020-0188,2021-10-15,09:12:21,10:31:06,NA,incomplete,false,NA,true,7,8,NA,NA,NA,left,absent,NA,NA,n_l_057.jpg,black,n_s_005.jpg,black,within,NA,NaN,NA,left,3575,1,1,2679
QyiaODZd,33tgb4g0msu3alll9rtp1nk6wbyxtf,3hya4d452vwudkyhhk89jd71ub02f5,QyiaODZd,2020-0188,2021-10-15,09:12:21,10:31:06,NA,incomplete,false,NA,true,7,9,NA,NA,NA,right,absent,NA,NA,n_s_111.jpg,blue,m_s_004.jpg,brown,between,NA,NaN,NA,left,2265,0,0,2509
QyiaODZd,33tgb4g0msu3alll9rtp1nk6wbyxtf,3hya4d452vwudkyhhk89jd71ub02f5,QyiaODZd,2020-0188,2021-10-15,09:12:21,10:31:06,NA,incomplete,false,NA,true,7,10,NA,NA,NA,right,absent,NA,NA,n_s_035.jpg,purple,m_l_012.jpg,blue,between,NA,NaN,NA,right,3880,1,1,3193
QyiaODZd,33tgb4g0msu3alll9rtp1nk6wbyxtf,3hya4d452vwudkyhhk89jd71ub02f5,QyiaODZd,2020-0188,2021-10-15,09:12:21,10:31:06,NA,incomplete,false,true,NA,8,0,NA,yellow,m_s_048.jpg,NA,NA,unpleasant,pleasant,NA,NA,NA,NA,NA,right,2985,true,NA,NA,NA,NA,NA
QyiaODZd,33tgb4g0msu3alll9rtp1nk6wbyxtf,3hya4d452vwudkyhhk89jd71ub02f5,QyiaODZd,2020-0188,2021-10-15,09:12:21,10:31:06,NA,incomplete,false,true,NA,8,1,NA,yellow,n_l_098.jpg,NA,NA,unpleasant,pleasant,NA,NA,NA,NA,NA,left,2837,true,NA,NA,NA,NA,NA
QyiaODZd,33tgb4g0msu3alll9rtp1nk6wbyxtf,3hya4d452vwudkyhhk89jd71ub02f5,QyiaODZd,2020-0188,2021-10-15,09:12:21,10:31:06,NA,incomplete,false,true,NA,8,2,NA,yellow,n_l_032.jpg,NA,NA,unpleasant,pleasant,NA,NA,NA,NA,NA,none,0,false,NA,NA,NA,NA,NA
QyiaODZd,33tgb4g0msu3alll9rtp1nk6wbyxtf,3hya4d452vwudkyhhk89jd71ub02f5,QyiaODZd,2020-0188,2021-10-15,09:12:21,10:31:06,NA,incomplete,false,true,NA,8,3,NA,yellow,n_s_011.jpg,NA,NA,pleasant,unpleasant,NA,NA,NA,NA,NA,right,2217,true,NA,NA,NA,NA,NA
QyiaODZd,33tgb4g0msu3alll9rtp1nk6wbyxtf,3hya4d452vwudkyhhk89jd71ub02f5,QyiaODZd,2020-0188,2021-10-15,09:12:21,10:31:06,NA,incomplete,false,true,NA,8,4,NA,yellow,n_s_090.jpg,NA,NA,pleasant,unpleasant,NA,NA,NA,NA,NA,right,2625,true,NA,NA,NA,NA,NA
QyiaODZd,33tgb4g0msu3alll9rtp1nk6wbyxtf,3hya4d452vwudkyhhk89jd71ub02f5,QyiaODZd,2020-0188,2021-10-15,09:12:21,10:31:06,NA,incomplete,false,true,NA,8,5,NA,yellow,n_l_040.jpg,NA,NA,pleasant,unpleasant,NA,NA,NA,NA,NA,left,1846,true,NA,NA,NA,NA,NA
QyiaODZd,33tgb4g0msu3alll9rtp1nk6wbyxtf,3hya4d452vwudkyhhk89jd71ub02f5,QyiaODZd,2020-0188,2021-10-15,09:12:21,10:31:06,NA,incomplete,false,true,NA,8,6,NA,green,m_s_064.jpg,NA,NA,pleasant,unpleasant,NA,NA,NA,NA,NA,left,2830,true,NA,NA,NA,NA,NA
QyiaODZd,33tgb4g0msu3alll9rtp1nk6wbyxtf,3hya4d452vwudkyhhk89jd71ub02f5,QyiaODZd,2020-0188,2021-10-15,09:12:21,10:31:06,NA,incomplete,false,true,NA,8,7,NA,green,m_l_068.jpg,NA,NA,pleasant,unpleasant,NA,NA,NA,NA,NA,left,2596,true,NA,NA,NA,NA,NA
QyiaODZd,33tgb4g0msu3alll9rtp1nk6wbyxtf,3hya4d452vwudkyhhk89jd71ub02f5,QyiaODZd,2020-0188,2021-10-15,09:12:21,10:31:06,NA,incomplete,false,true,NA,8,8,NA,green,n_l_021.jpg,NA,NA,pleasant,unpleasant,NA,NA,NA,NA,NA,left,2006,true,NA,NA,NA,NA,NA
QyiaODZd,33tgb4g0msu3alll9rtp1nk6wbyxtf,3hya4d452vwudkyhhk89jd71ub02f5,QyiaODZd,2020-0188,2021-10-15,09:12:21,10:31:06,NA,incomplete,false,true,NA,8,9,NA,green,m_l_059.jpg,NA,NA,pleasant,unpleasant,NA,NA,NA,NA,NA,left,1459,true,NA,NA,NA,NA,NA
QyiaODZd,33tgb4g0msu3alll9rtp1nk6wbyxtf,3hya4d452vwudkyhhk89jd71ub02f5,QyiaODZd,2020-0188,2021-10-15,09:12:21,10:31:06,NA,incomplete,false,true,NA,8,10,NA,green,n_l_107.jpg,NA,NA,unpleasant,pleasant,NA,NA,NA,NA,NA,right,3374,true,NA,NA,NA,NA,NA
QyiaODZd,33tgb4g0msu3alll9rtp1nk6wbyxtf,3hya4d452vwudkyhhk89jd71ub02f5,QyiaODZd,2020-0188,2021-10-15,09:12:21,10:31:06,NA,incomplete,false,true,NA,8,11,NA,green,n_l_110.jpg,NA,NA,pleasant,unpleasant,NA,NA,NA,NA,NA,left,2421,true,NA,NA,NA,NA,NA
QyiaODZd,33tgb4g0msu3alll9rtp1nk6wbyxtf,3hya4d452vwudkyhhk89jd71ub02f5,QyiaODZd,2020-0188,2021-10-15,09:12:21,10:31:06,NA,incomplete,false,true,NA,8,12,NA,orange,m_s_113.jpg,NA,NA,unpleasant,pleasant,NA,NA,NA,NA,NA,right,2372,true,NA,NA,NA,NA,NA
QyiaODZd,33tgb4g0msu3alll9rtp1nk6wbyxtf,3hya4d452vwudkyhhk89jd71ub02f5,QyiaODZd,2020-0188,2021-10-15,09:12:21,10:31:06,NA,incomplete,false,true,NA,8,13,NA,orange,n_l_117.jpg,NA,NA,pleasant,unpleasant,NA,NA,NA,NA,NA,left,2114,true,NA,NA,NA,NA,NA
QyiaODZd,33tgb4g0msu3alll9rtp1nk6wbyxtf,3hya4d452vwudkyhhk89jd71ub02f5,QyiaODZd,2020-0188,2021-10-15,09:12:21,10:31:06,NA,incomplete,false,true,NA,8,14,NA,orange,m_s_001.jpg,NA,NA,unpleasant,pleasant,NA,NA,NA,NA,NA,right,2399,true,NA,NA,NA,NA,NA
QyiaODZd,33tgb4g0msu3alll9rtp1nk6wbyxtf,3hya4d452vwudkyhhk89jd71ub02f5,QyiaODZd,2020-0188,2021-10-15,09:12:21,10:31:06,NA,incomplete,false,true,NA,8,15,NA,orange,m_l_113.jpg,NA,NA,unpleasant,pleasant,NA,NA,NA,NA,NA,right,2692,true,NA,NA,NA,NA,NA
QyiaODZd,33tgb4g0msu3alll9rtp1nk6wbyxtf,3hya4d452vwudkyhhk89jd71ub02f5,QyiaODZd,2020-0188,2021-10-15,09:12:21,10:31:06,NA,incomplete,false,true,NA,8,16,NA,orange,m_s_115.jpg,NA,NA,pleasant,unpleasant,NA,NA,NA,NA,NA,left,2278,true,NA,NA,NA,NA,NA
QyiaODZd,33tgb4g0msu3alll9rtp1nk6wbyxtf,3hya4d452vwudkyhhk89jd71ub02f5,QyiaODZd,2020-0188,2021-10-15,09:12:21,10:31:06,NA,incomplete,false,true,NA,8,17,NA,orange,m_l_045.jpg,NA,NA,pleasant,unpleasant,NA,NA,NA,NA,NA,none,0,false,NA,NA,NA,NA,NA
QyiaODZd,33tgb4g0msu3alll9rtp1nk6wbyxtf,3hya4d452vwudkyhhk89jd71ub02f5,QyiaODZd,2020-0188,2021-10-15,09:12:21,10:31:06,NA,incomplete,false,true,NA,8,18,NA,white,n_l_035.jpg,NA,NA,pleasant,unpleasant,NA,NA,NA,NA,NA,right,845,true,NA,NA,NA,NA,NA
QyiaODZd,33tgb4g0msu3alll9rtp1nk6wbyxtf,3hya4d452vwudkyhhk89jd71ub02f5,QyiaODZd,2020-0188,2021-10-15,09:12:21,10:31:06,NA,incomplete,false,true,NA,8,19,NA,white,n_s_039.jpg,NA,NA,unpleasant,pleasant,NA,NA,NA,NA,NA,right,3427,true,NA,NA,NA,NA,NA
QyiaODZd,33tgb4g0msu3alll9rtp1nk6wbyxtf,3hya4d452vwudkyhhk89jd71ub02f5,QyiaODZd,2020-0188,2021-10-15,09:12:21,10:31:06,NA,incomplete,false,true,NA,8,20,NA,white,n_s_098.jpg,NA,NA,unpleasant,pleasant,NA,NA,NA,NA,NA,left,2873,true,NA,NA,NA,NA,NA
QyiaODZd,33tgb4g0msu3alll9rtp1nk6wbyxtf,3hya4d452vwudkyhhk89jd71ub02f5,QyiaODZd,2020-0188,2021-10-15,09:12:21,10:31:06,NA,incomplete,false,true,NA,8,21,NA,white,m_l_033.jpg,NA,NA,pleasant,unpleasant,NA,NA,NA,NA,NA,right,3025,true,NA,NA,NA,NA,NA
QyiaODZd,33tgb4g0msu3alll9rtp1nk6wbyxtf,3hya4d452vwudkyhhk89jd71ub02f5,QyiaODZd,2020-0188,2021-10-15,09:12:21,10:31:06,NA,incomplete,false,true,NA,8,22,NA,white,m_l_054.jpg,NA,NA,unpleasant,pleasant,NA,NA,NA,NA,NA,left,3050,true,NA,NA,NA,NA,NA
QyiaODZd,33tgb4g0msu3alll9rtp1nk6wbyxtf,3hya4d452vwudkyhhk89jd71ub02f5,QyiaODZd,2020-0188,2021-10-15,09:12:21,10:31:06,NA,incomplete,false,true,NA,8,23,NA,white,m_l_037.jpg,NA,NA,unpleasant,pleasant,NA,NA,NA,NA,NA,right,2943,true,NA,NA,NA,NA,NA
QyiaODZd,33tgb4g0msu3alll9rtp1nk6wbyxtf,3hya4d452vwudkyhhk89jd71ub02f5,QyiaODZd,2020-0188,2021-10-15,09:12:21,10:31:06,NA,incomplete,false,true,NA,8,24,NA,gray,n_l_039.jpg,NA,NA,pleasant,unpleasant,NA,NA,NA,NA,NA,right,2838,true,NA,NA,NA,NA,NA
QyiaODZd,33tgb4g0msu3alll9rtp1nk6wbyxtf,3hya4d452vwudkyhhk89jd71ub02f5,QyiaODZd,2020-0188,2021-10-15,09:12:21,10:31:06,NA,incomplete,false,true,NA,8,25,NA,gray,m_l_053.jpg,NA,NA,unpleasant,pleasant,NA,NA,NA,NA,NA,right,1974,true,NA,NA,NA,NA,NA
QyiaODZd,33tgb4g0msu3alll9rtp1nk6wbyxtf,3hya4d452vwudkyhhk89jd71ub02f5,QyiaODZd,2020-0188,2021-10-15,09:12:21,10:31:06,NA,incomplete,false,true,NA,8,26,NA,gray,n_l_103.jpg,NA,NA,pleasant,unpleasant,NA,NA,NA,NA,NA,right,2359,true,NA,NA,NA,NA,NA
QyiaODZd,33tgb4g0msu3alll9rtp1nk6wbyxtf,3hya4d452vwudkyhhk89jd71ub02f5,QyiaODZd,2020-0188,2021-10-15,09:12:21,10:31:06,NA,incomplete,false,true,NA,8,27,NA,gray,m_l_074.jpg,NA,NA,unpleasant,pleasant,NA,NA,NA,NA,NA,right,2363,true,NA,NA,NA,NA,NA
QyiaODZd,33tgb4g0msu3alll9rtp1nk6wbyxtf,3hya4d452vwudkyhhk89jd71ub02f5,QyiaODZd,2020-0188,2021-10-15,09:12:21,10:31:06,NA,incomplete,false,true,NA,8,28,NA,gray,n_l_037.jpg,NA,NA,pleasant,unpleasant,NA,NA,NA,NA,NA,none,0,false,NA,NA,NA,NA,NA
