workerId,hitId,assignmentId,subject,studyid,exp_date,exp_start,exp_end,time_start,time_end,practice,encoding,memory,block,trial,event_order,event,stim,answer,context_type,label_left,label_right,left_image,left_event,right_image,right_event,condition,response,response_time,response_acc,order_response,order_response_time,order_acc,distance_response,distance_response_time
RDUikka4,3r0wocg22pm4csvtiwincc3gz22duj,3483fv8beiwyur56gr55p7uo176261,RDUikka4,2020-0188,2021-10-14,09:53:46,11:29:13,NA,incomplete,true,true,NA,0,0,NA,green,n_l_073.jpg,NA,NA,unpleasant,pleasant,NA,NA,NA,NA,NA,right,1272.5,true,NA,NA,NA,NA,NA
RDUikka4,3r0wocg22pm4csvtiwincc3gz22duj,3483fv8beiwyur56gr55p7uo176261,RDUikka4,2020-0188,2021-10-14,09:53:46,11:29:13,NA,incomplete,true,true,NA,0,1,NA,green,m_l_026.jpg,NA,NA,unpleasant,pleasant,NA,NA,NA,NA,NA,left,2170.59999999404,true,NA,NA,NA,NA,NA
RDUikka4,3r0wocg22pm4csvtiwincc3gz22duj,3483fv8beiwyur56gr55p7uo176261,RDUikka4,2020-0188,2021-10-14,09:53:46,11:29:13,NA,incomplete,true,true,NA,0,2,NA,green,n_l_058.jpg,NA,NA,pleasant,unpleasant,NA,NA,NA,NA,NA,right,1310.59999999404,true,NA,NA,NA,NA,NA
RDUikka4,3r0wocg22pm4csvtiwincc3gz22duj,3483fv8beiwyur56gr55p7uo176261,RDUikka4,2020-0188,2021-10-14,09:53:46,11:29:13,NA,incomplete,true,true,NA,0,3,NA,green,n_l_067.jpg,NA,NA,unpleasant,pleasant,NA,NA,NA,NA,NA,right,1742.90000000596,true,NA,NA,NA,NA,NA
RDUikka4,3r0wocg22pm4csvtiwincc3gz22duj,3483fv8beiwyur56gr55p7uo176261,RDUikka4,2020-0188,2021-10-14,09:53:46,11:29:13,NA,incomplete,true,true,NA,0,4,NA,green,m_s_090.jpg,NA,NA,unpleasant,pleasant,NA,NA,NA,NA,NA,left,3116.40000000596,true,NA,NA,NA,NA,NA
RDUikka4,3r0wocg22pm4csvtiwincc3gz22duj,3483fv8beiwyur56gr55p7uo176261,RDUikka4,2020-0188,2021-10-14,09:53:46,11:29:13,NA,incomplete,true,true,NA,0,5,NA,green,n_l_090.jpg,NA,NA,pleasant,unpleasant,NA,NA,NA,NA,NA,left,2104.60000002384,true,NA,NA,NA,NA,NA
RDUikka4,3r0wocg22pm4csvtiwincc3gz22duj,3483fv8beiwyur56gr55p7uo176261,RDUikka4,2020-0188,2021-10-14,09:53:46,11:29:13,NA,incomplete,true,true,NA,0,6,NA,orange,n_l_085.jpg,NA,NA,unpleasant,pleasant,NA,NA,NA,NA,NA,left,2284.39999997616,true,NA,NA,NA,NA,NA
RDUikka4,3r0wocg22pm4csvtiwincc3gz22duj,3483fv8beiwyur56gr55p7uo176261,RDUikka4,2020-0188,2021-10-14,09:53:46,11:29:13,NA,incomplete,true,true,NA,0,7,NA,orange,n_l_078.jpg,NA,NA,pleasant,unpleasant,NA,NA,NA,NA,NA,left,1839.30000001192,true,NA,NA,NA,NA,NA
RDUikka4,3r0wocg22pm4csvtiwincc3gz22duj,3483fv8beiwyur56gr55p7uo176261,RDUikka4,2020-0188,2021-10-14,09:53:46,11:29:13,NA,incomplete,true,true,NA,0,8,NA,orange,n_l_055.jpg,NA,NA,unpleasant,pleasant,NA,NA,NA,NA,NA,right,1981.59999999404,true,NA,NA,NA,NA,NA
RDUikka4,3r0wocg22pm4csvtiwincc3gz22duj,3483fv8beiwyur56gr55p7uo176261,RDUikka4,2020-0188,2021-10-14,09:53:46,11:29:13,NA,incomplete,true,true,NA,0,9,NA,orange,n_l_046.jpg,NA,NA,unpleasant,pleasant,NA,NA,NA,NA,NA,left,2793.19999998808,true,NA,NA,NA,NA,NA
RDUikka4,3r0wocg22pm4csvtiwincc3gz22duj,3483fv8beiwyur56gr55p7uo176261,RDUikka4,2020-0188,2021-10-14,09:53:46,11:29:13,NA,incomplete,true,true,NA,0,10,NA,orange,m_l_037.jpg,NA,NA,pleasant,unpleasant,NA,NA,NA,NA,NA,right,2211.40000000596,true,NA,NA,NA,NA,NA
RDUikka4,3r0wocg22pm4csvtiwincc3gz22duj,3483fv8beiwyur56gr55p7uo176261,RDUikka4,2020-0188,2021-10-14,09:53:46,11:29:13,NA,incomplete,true,true,NA,0,11,NA,orange,n_s_079.jpg,NA,NA,pleasant,unpleasant,NA,NA,NA,NA,NA,left,2268,true,NA,NA,NA,NA,NA
RDUikka4,3r0wocg22pm4csvtiwincc3gz22duj,3483fv8beiwyur56gr55p7uo176261,RDUikka4,2020-0188,2021-10-14,09:53:46,11:29:13,NA,incomplete,true,true,NA,0,12,NA,gray,m_l_100.jpg,NA,NA,unpleasant,pleasant,NA,NA,NA,NA,NA,right,2187,true,NA,NA,NA,NA,NA
RDUikka4,3r0wocg22pm4csvtiwincc3gz22duj,3483fv8beiwyur56gr55p7uo176261,RDUikka4,2020-0188,2021-10-14,09:53:46,11:29:13,NA,incomplete,true,true,NA,0,13,NA,gray,n_s_083.jpg,NA,NA,pleasant,unpleasant,NA,NA,NA,NA,NA,right,1473.5,true,NA,NA,NA,NA,NA
RDUikka4,3r0wocg22pm4csvtiwincc3gz22duj,3483fv8beiwyur56gr55p7uo176261,RDUikka4,2020-0188,2021-10-14,09:53:46,11:29:13,NA,incomplete,true,true,NA,0,14,NA,gray,n_l_016.jpg,NA,NA,pleasant,unpleasant,NA,NA,NA,NA,NA,right,1126.89999997616,true,NA,NA,NA,NA,NA
RDUikka4,3r0wocg22pm4csvtiwincc3gz22duj,3483fv8beiwyur56gr55p7uo176261,RDUikka4,2020-0188,2021-10-14,09:53:46,11:29:13,NA,incomplete,true,true,NA,0,15,NA,gray,n_l_014.jpg,NA,NA,unpleasant,pleasant,NA,NA,NA,NA,NA,right,1314.5,true,NA,NA,NA,NA,NA
RDUikka4,3r0wocg22pm4csvtiwincc3gz22duj,3483fv8beiwyur56gr55p7uo176261,RDUikka4,2020-0188,2021-10-14,09:53:46,11:29:13,NA,incomplete,true,true,NA,0,16,NA,gray,n_l_043.jpg,NA,NA,pleasant,unpleasant,NA,NA,NA,NA,NA,left,1540.59999999404,true,NA,NA,NA,NA,NA
RDUikka4,3r0wocg22pm4csvtiwincc3gz22duj,3483fv8beiwyur56gr55p7uo176261,RDUikka4,2020-0188,2021-10-14,09:53:46,11:29:13,NA,incomplete,true,true,NA,0,17,NA,gray,m_s_068.jpg,NA,NA,pleasant,unpleasant,NA,NA,NA,NA,NA,right,1416.09999999404,true,NA,NA,NA,NA,NA
RDUikka4,3r0wocg22pm4csvtiwincc3gz22duj,3483fv8beiwyur56gr55p7uo176261,RDUikka4,2020-0188,2021-10-14,09:53:46,11:29:13,NA,incomplete,true,true,NA,0,18,NA,purple,n_l_006.jpg,NA,NA,unpleasant,pleasant,NA,NA,NA,NA,NA,left,2499.39999997616,true,NA,NA,NA,NA,NA
RDUikka4,3r0wocg22pm4csvtiwincc3gz22duj,3483fv8beiwyur56gr55p7uo176261,RDUikka4,2020-0188,2021-10-14,09:53:46,11:29:13,NA,incomplete,true,true,NA,0,19,NA,purple,m_s_059.jpg,NA,NA,pleasant,unpleasant,NA,NA,NA,NA,NA,left,2125.29999998212,true,NA,NA,NA,NA,NA
RDUikka4,3r0wocg22pm4csvtiwincc3gz22duj,3483fv8beiwyur56gr55p7uo176261,RDUikka4,2020-0188,2021-10-14,09:53:46,11:29:13,NA,incomplete,true,true,NA,0,20,NA,purple,m_s_064.jpg,NA,NA,pleasant,unpleasant,NA,NA,NA,NA,NA,left,1183.69999998808,true,NA,NA,NA,NA,NA
RDUikka4,3r0wocg22pm4csvtiwincc3gz22duj,3483fv8beiwyur56gr55p7uo176261,RDUikka4,2020-0188,2021-10-14,09:53:46,11:29:13,NA,incomplete,true,true,NA,0,21,NA,purple,n_s_094.jpg,NA,NA,pleasant,unpleasant,NA,NA,NA,NA,NA,left,1057.79999998212,true,NA,NA,NA,NA,NA
RDUikka4,3r0wocg22pm4csvtiwincc3gz22duj,3483fv8beiwyur56gr55p7uo176261,RDUikka4,2020-0188,2021-10-14,09:53:46,11:29:13,NA,incomplete,true,true,NA,0,22,NA,purple,m_l_007.jpg,NA,NA,pleasant,unpleasant,NA,NA,NA,NA,NA,right,1704.30000001192,true,NA,NA,NA,NA,NA
RDUikka4,3r0wocg22pm4csvtiwincc3gz22duj,3483fv8beiwyur56gr55p7uo176261,RDUikka4,2020-0188,2021-10-14,09:53:46,11:29:13,NA,incomplete,true,true,NA,0,23,NA,purple,m_l_046.jpg,NA,NA,unpleasant,pleasant,NA,NA,NA,NA,NA,left,1445.69999998808,true,NA,NA,NA,NA,NA
RDUikka4,3r0wocg22pm4csvtiwincc3gz22duj,3483fv8beiwyur56gr55p7uo176261,RDUikka4,2020-0188,2021-10-14,09:53:46,11:29:13,NA,incomplete,true,true,NA,0,24,NA,brown,m_s_048.jpg,NA,NA,unpleasant,pleasant,NA,NA,NA,NA,NA,right,2484.20000001788,true,NA,NA,NA,NA,NA
RDUikka4,3r0wocg22pm4csvtiwincc3gz22duj,3483fv8beiwyur56gr55p7uo176261,RDUikka4,2020-0188,2021-10-14,09:53:46,11:29:13,NA,incomplete,true,true,NA,0,25,NA,brown,n_l_086.jpg,NA,NA,pleasant,unpleasant,NA,NA,NA,NA,NA,left,2246.59999999404,true,NA,NA,NA,NA,NA
RDUikka4,3r0wocg22pm4csvtiwincc3gz22duj,3483fv8beiwyur56gr55p7uo176261,RDUikka4,2020-0188,2021-10-14,09:53:46,11:29:13,NA,incomplete,true,true,NA,0,26,NA,brown,m_l_032.jpg,NA,NA,pleasant,unpleasant,NA,NA,NA,NA,NA,left,1231,true,NA,NA,NA,NA,NA
RDUikka4,3r0wocg22pm4csvtiwincc3gz22duj,3483fv8beiwyur56gr55p7uo176261,RDUikka4,2020-0188,2021-10-14,09:53:46,11:29:13,NA,incomplete,true,true,NA,0,27,NA,brown,m_s_055.jpg,NA,NA,unpleasant,pleasant,NA,NA,NA,NA,NA,right,1872.80000001192,true,NA,NA,NA,NA,NA
RDUikka4,3r0wocg22pm4csvtiwincc3gz22duj,3483fv8beiwyur56gr55p7uo176261,RDUikka4,2020-0188,2021-10-14,09:53:46,11:29:13,NA,incomplete,true,true,NA,0,28,NA,brown,m_l_066.jpg,NA,NA,unpleasant,pleasant,NA,NA,NA,NA,NA,left,1155.70000001788,true,NA,NA,NA,NA,NA
RDUikka4,3r0wocg22pm4csvtiwincc3gz22duj,3483fv8beiwyur56gr55p7uo176261,RDUikka4,2020-0188,2021-10-14,09:53:46,11:29:13,NA,incomplete,true,true,NA,0,29,NA,brown,m_l_091.jpg,NA,NA,pleasant,unpleasant,NA,NA,NA,NA,NA,right,2578.09999999404,true,NA,NA,NA,NA,NA
RDUikka4,3r0wocg22pm4csvtiwincc3gz22duj,3483fv8beiwyur56gr55p7uo176261,RDUikka4,2020-0188,2021-10-14,09:53:46,11:29:13,NA,incomplete,true,true,NA,0,30,NA,blue,n_l_081.jpg,NA,NA,pleasant,unpleasant,NA,NA,NA,NA,NA,right,2038.19999998808,true,NA,NA,NA,NA,NA
RDUikka4,3r0wocg22pm4csvtiwincc3gz22duj,3483fv8beiwyur56gr55p7uo176261,RDUikka4,2020-0188,2021-10-14,09:53:46,11:29:13,NA,incomplete,true,true,NA,0,31,NA,blue,m_l_055.jpg,NA,NA,pleasant,unpleasant,NA,NA,NA,NA,NA,right,2459.20000001788,true,NA,NA,NA,NA,NA
RDUikka4,3r0wocg22pm4csvtiwincc3gz22duj,3483fv8beiwyur56gr55p7uo176261,RDUikka4,2020-0188,2021-10-14,09:53:46,11:29:13,NA,incomplete,true,true,NA,0,32,NA,blue,n_l_017.jpg,NA,NA,unpleasant,pleasant,NA,NA,NA,NA,NA,right,1704.09999999404,true,NA,NA,NA,NA,NA
RDUikka4,3r0wocg22pm4csvtiwincc3gz22duj,3483fv8beiwyur56gr55p7uo176261,RDUikka4,2020-0188,2021-10-14,09:53:46,11:29:13,NA,incomplete,true,true,NA,0,33,NA,blue,n_s_036.jpg,NA,NA,pleasant,unpleasant,NA,NA,NA,NA,NA,right,1106.59999999404,true,NA,NA,NA,NA,NA
RDUikka4,3r0wocg22pm4csvtiwincc3gz22duj,3483fv8beiwyur56gr55p7uo176261,RDUikka4,2020-0188,2021-10-14,09:53:46,11:29:13,NA,incomplete,true,true,NA,0,34,NA,blue,m_l_030.jpg,NA,NA,unpleasant,pleasant,NA,NA,NA,NA,NA,right,1687.80000001192,true,NA,NA,NA,NA,NA
RDUikka4,3r0wocg22pm4csvtiwincc3gz22duj,3483fv8beiwyur56gr55p7uo176261,RDUikka4,2020-0188,2021-10-14,09:53:46,11:29:13,NA,incomplete,true,true,NA,0,35,NA,blue,m_l_009.jpg,NA,NA,unpleasant,pleasant,NA,NA,NA,NA,NA,left,2568.19999998808,true,NA,NA,NA,NA,NA
RDUikka4,3r0wocg22pm4csvtiwincc3gz22duj,3483fv8beiwyur56gr55p7uo176261,RDUikka4,2020-0188,2021-10-14,09:53:46,11:29:13,NA,incomplete,true,NA,true,0,0,NA,NA,NA,right,present,NA,NA,n_l_090.jpg,green,m_l_026.jpg,green,within,NA,NaN,NA,right,15018.5,1,1,8218.800000011921
RDUikka4,3r0wocg22pm4csvtiwincc3gz22duj,3483fv8beiwyur56gr55p7uo176261,RDUikka4,2020-0188,2021-10-14,09:53:46,11:29:13,NA,incomplete,true,NA,true,0,1,NA,NA,NA,right,absent,NA,NA,m_l_009.jpg,blue,m_l_055.jpg,blue,within,NA,NaN,NA,right,11225.699999988079,1,1,4655.300000011921
RDUikka4,3r0wocg22pm4csvtiwincc3gz22duj,3483fv8beiwyur56gr55p7uo176261,RDUikka4,2020-0188,2021-10-14,09:53:46,11:29:13,NA,incomplete,true,NA,true,0,2,NA,NA,NA,left,absent,NA,NA,n_l_086.jpg,brown,m_l_091.jpg,brown,within,NA,NaN,NA,right,4227.199999988079,0,2,1710.0999999940395
RDUikka4,3r0wocg22pm4csvtiwincc3gz22duj,3483fv8beiwyur56gr55p7uo176261,RDUikka4,2020-0188,2021-10-14,09:53:46,11:29:13,NA,incomplete,true,NA,true,0,3,NA,NA,NA,right,present,NA,NA,m_l_032.jpg,brown,m_l_007.jpg,purple,between,NA,NaN,NA,right,6565.5,1,1,3402.7999999821186
RDUikka4,3r0wocg22pm4csvtiwincc3gz22duj,3483fv8beiwyur56gr55p7uo176261,RDUikka4,2020-0188,2021-10-14,09:53:46,11:29:13,NA,incomplete,true,NA,true,0,4,NA,NA,NA,left,absent,NA,NA,m_l_037.jpg,orange,n_l_016.jpg,gray,between,NA,NaN,NA,left,4377.5,1,2,1986.0999999940395
RDUikka4,3r0wocg22pm4csvtiwincc3gz22duj,3483fv8beiwyur56gr55p7uo176261,RDUikka4,2020-0188,2021-10-14,09:53:46,11:29:13,NA,incomplete,true,NA,true,0,5,NA,NA,NA,right,absent,NA,NA,n_l_017.jpg,blue,m_l_066.jpg,brown,between,NA,NaN,NA,right,3951.2000000178814,1,2,2232.2999999821186
RDUikka4,3r0wocg22pm4csvtiwincc3gz22duj,3483fv8beiwyur56gr55p7uo176261,RDUikka4,2020-0188,2021-10-14,09:53:46,11:29:13,NA,incomplete,true,NA,true,0,6,NA,NA,NA,left,present,NA,NA,n_l_078.jpg,orange,n_s_079.jpg,orange,within,NA,NaN,NA,right,6996,0,2,2218.2000000178814
RDUikka4,3r0wocg22pm4csvtiwincc3gz22duj,3483fv8beiwyur56gr55p7uo176261,RDUikka4,2020-0188,2021-10-14,09:53:46,11:29:13,NA,incomplete,true,NA,true,0,7,NA,NA,NA,right,absent,NA,NA,m_s_064.jpg,purple,n_l_043.jpg,gray,between,NA,NaN,NA,right,11691.799999982119,1,2,1785.2999999821186
RDUikka4,3r0wocg22pm4csvtiwincc3gz22duj,3483fv8beiwyur56gr55p7uo176261,RDUikka4,2020-0188,2021-10-14,09:53:46,11:29:13,NA,incomplete,true,NA,true,0,8,NA,NA,NA,right,present,NA,NA,m_s_068.jpg,gray,n_s_083.jpg,gray,within,NA,NaN,NA,left,6298.5,0,1,1578.9000000059605
RDUikka4,3r0wocg22pm4csvtiwincc3gz22duj,3483fv8beiwyur56gr55p7uo176261,RDUikka4,2020-0188,2021-10-14,09:53:46,11:29:13,NA,incomplete,true,NA,true,0,9,NA,NA,NA,left,absent,NA,NA,m_s_059.jpg,purple,m_l_046.jpg,purple,within,NA,NaN,NA,left,6544.4000000059605,1,3,1424.5
RDUikka4,3r0wocg22pm4csvtiwincc3gz22duj,3483fv8beiwyur56gr55p7uo176261,RDUikka4,2020-0188,2021-10-14,09:53:46,11:29:13,NA,incomplete,true,NA,true,0,10,NA,NA,NA,right,absent,NA,NA,n_l_055.jpg,orange,m_s_090.jpg,green,between,NA,NaN,NA,left,4837.300000011921,0,1,2523.9000000059605
RDUikka4,3r0wocg22pm4csvtiwincc3gz22duj,3483fv8beiwyur56gr55p7uo176261,RDUikka4,2020-0188,2021-10-14,09:53:46,11:29:13,NA,incomplete,false,true,NA,1,0,NA,green,m_s_007.jpg,NA,NA,pleasant,unpleasant,NA,NA,NA,NA,NA,right,2982.59999999404,true,NA,NA,NA,NA,NA
RDUikka4,3r0wocg22pm4csvtiwincc3gz22duj,3483fv8beiwyur56gr55p7uo176261,RDUikka4,2020-0188,2021-10-14,09:53:46,11:29:13,NA,incomplete,false,true,NA,1,1,NA,green,m_l_059.jpg,NA,NA,pleasant,unpleasant,NA,NA,NA,NA,NA,left,3463.90000000596,true,NA,NA,NA,NA,NA
RDUikka4,3r0wocg22pm4csvtiwincc3gz22duj,3483fv8beiwyur56gr55p7uo176261,RDUikka4,2020-0188,2021-10-14,09:53:46,11:29:13,NA,incomplete,false,true,NA,1,2,NA,green,n_s_045.jpg,NA,NA,unpleasant,pleasant,NA,NA,NA,NA,NA,none,0,false,NA,NA,NA,NA,NA
RDUikka4,3r0wocg22pm4csvtiwincc3gz22duj,3483fv8beiwyur56gr55p7uo176261,RDUikka4,2020-0188,2021-10-14,09:53:46,11:29:13,NA,incomplete,false,true,NA,1,3,NA,green,n_l_079.jpg,NA,NA,unpleasant,pleasant,NA,NA,NA,NA,NA,left,2166,true,NA,NA,NA,NA,NA
RDUikka4,3r0wocg22pm4csvtiwincc3gz22duj,3483fv8beiwyur56gr55p7uo176261,RDUikka4,2020-0188,2021-10-14,09:53:46,11:29:13,NA,incomplete,false,true,NA,1,4,NA,green,n_l_008.jpg,NA,NA,unpleasant,pleasant,NA,NA,NA,NA,NA,left,2431.5,true,NA,NA,NA,NA,NA
RDUikka4,3r0wocg22pm4csvtiwincc3gz22duj,3483fv8beiwyur56gr55p7uo176261,RDUikka4,2020-0188,2021-10-14,09:53:46,11:29:13,NA,incomplete,false,true,NA,1,5,NA,green,m_s_024.jpg,NA,NA,pleasant,unpleasant,NA,NA,NA,NA,NA,right,2279.89999997616,true,NA,NA,NA,NA,NA
RDUikka4,3r0wocg22pm4csvtiwincc3gz22duj,3483fv8beiwyur56gr55p7uo176261,RDUikka4,2020-0188,2021-10-14,09:53:46,11:29:13,NA,incomplete,false,true,NA,1,6,NA,blue,n_s_026.jpg,NA,NA,pleasant,unpleasant,NA,NA,NA,NA,NA,left,2649.90000000596,true,NA,NA,NA,NA,NA
RDUikka4,3r0wocg22pm4csvtiwincc3gz22duj,3483fv8beiwyur56gr55p7uo176261,RDUikka4,2020-0188,2021-10-14,09:53:46,11:29:13,NA,incomplete,false,true,NA,1,7,NA,blue,m_s_110.jpg,NA,NA,unpleasant,pleasant,NA,NA,NA,NA,NA,right,3484.5,true,NA,NA,NA,NA,NA
RDUikka4,3r0wocg22pm4csvtiwincc3gz22duj,3483fv8beiwyur56gr55p7uo176261,RDUikka4,2020-0188,2021-10-14,09:53:46,11:29:13,NA,incomplete,false,true,NA,1,8,NA,blue,n_s_065.jpg,NA,NA,unpleasant,pleasant,NA,NA,NA,NA,NA,right,2985.19999998808,true,NA,NA,NA,NA,NA
RDUikka4,3r0wocg22pm4csvtiwincc3gz22duj,3483fv8beiwyur56gr55p7uo176261,RDUikka4,2020-0188,2021-10-14,09:53:46,11:29:13,NA,incomplete,false,true,NA,1,9,NA,blue,n_s_014.jpg,NA,NA,unpleasant,pleasant,NA,NA,NA,NA,NA,right,2385,true,NA,NA,NA,NA,NA
RDUikka4,3r0wocg22pm4csvtiwincc3gz22duj,3483fv8beiwyur56gr55p7uo176261,RDUikka4,2020-0188,2021-10-14,09:53:46,11:29:13,NA,incomplete,false,true,NA,1,10,NA,blue,m_s_060.jpg,NA,NA,unpleasant,pleasant,NA,NA,NA,NA,NA,left,3416,true,NA,NA,NA,NA,NA
RDUikka4,3r0wocg22pm4csvtiwincc3gz22duj,3483fv8beiwyur56gr55p7uo176261,RDUikka4,2020-0188,2021-10-14,09:53:46,11:29:13,NA,incomplete,false,true,NA,1,11,NA,blue,n_l_039.jpg,NA,NA,unpleasant,pleasant,NA,NA,NA,NA,NA,right,3069.69999998808,true,NA,NA,NA,NA,NA
RDUikka4,3r0wocg22pm4csvtiwincc3gz22duj,3483fv8beiwyur56gr55p7uo176261,RDUikka4,2020-0188,2021-10-14,09:53:46,11:29:13,NA,incomplete,false,true,NA,1,12,NA,yellow,m_s_086.jpg,NA,NA,pleasant,unpleasant,NA,NA,NA,NA,NA,right,1813.90000000596,true,NA,NA,NA,NA,NA
RDUikka4,3r0wocg22pm4csvtiwincc3gz22duj,3483fv8beiwyur56gr55p7uo176261,RDUikka4,2020-0188,2021-10-14,09:53:46,11:29:13,NA,incomplete,false,true,NA,1,13,NA,yellow,n_s_106.jpg,NA,NA,unpleasant,pleasant,NA,NA,NA,NA,NA,left,2448.5,true,NA,NA,NA,NA,NA
RDUikka4,3r0wocg22pm4csvtiwincc3gz22duj,3483fv8beiwyur56gr55p7uo176261,RDUikka4,2020-0188,2021-10-14,09:53:46,11:29:13,NA,incomplete,false,true,NA,1,14,NA,yellow,n_l_022.jpg,NA,NA,unpleasant,pleasant,NA,NA,NA,NA,NA,left,2489,true,NA,NA,NA,NA,NA
RDUikka4,3r0wocg22pm4csvtiwincc3gz22duj,3483fv8beiwyur56gr55p7uo176261,RDUikka4,2020-0188,2021-10-14,09:53:46,11:29:13,NA,incomplete,false,true,NA,1,15,NA,yellow,n_s_089.jpg,NA,NA,pleasant,unpleasant,NA,NA,NA,NA,NA,right,1405.19999998808,true,NA,NA,NA,NA,NA
RDUikka4,3r0wocg22pm4csvtiwincc3gz22duj,3483fv8beiwyur56gr55p7uo176261,RDUikka4,2020-0188,2021-10-14,09:53:46,11:29:13,NA,incomplete,false,true,NA,1,16,NA,yellow,m_s_065.jpg,NA,NA,pleasant,unpleasant,NA,NA,NA,NA,NA,left,2128.5,true,NA,NA,NA,NA,NA
RDUikka4,3r0wocg22pm4csvtiwincc3gz22duj,3483fv8beiwyur56gr55p7uo176261,RDUikka4,2020-0188,2021-10-14,09:53:46,11:29:13,NA,incomplete,false,true,NA,1,17,NA,yellow,m_l_011.jpg,NA,NA,pleasant,unpleasant,NA,NA,NA,NA,NA,right,1128.60000002384,true,NA,NA,NA,NA,NA
RDUikka4,3r0wocg22pm4csvtiwincc3gz22duj,3483fv8beiwyur56gr55p7uo176261,RDUikka4,2020-0188,2021-10-14,09:53:46,11:29:13,NA,incomplete,false,true,NA,1,18,NA,purple,n_s_077.jpg,NA,NA,unpleasant,pleasant,NA,NA,NA,NA,NA,right,2378.39999997616,true,NA,NA,NA,NA,NA
RDUikka4,3r0wocg22pm4csvtiwincc3gz22duj,3483fv8beiwyur56gr55p7uo176261,RDUikka4,2020-0188,2021-10-14,09:53:46,11:29:13,NA,incomplete,false,true,NA,1,19,NA,purple,m_s_015.jpg,NA,NA,unpleasant,pleasant,NA,NA,NA,NA,NA,right,1385.69999998808,true,NA,NA,NA,NA,NA
RDUikka4,3r0wocg22pm4csvtiwincc3gz22duj,3483fv8beiwyur56gr55p7uo176261,RDUikka4,2020-0188,2021-10-14,09:53:46,11:29:13,NA,incomplete,false,true,NA,1,20,NA,purple,n_s_086.jpg,NA,NA,unpleasant,pleasant,NA,NA,NA,NA,NA,right,2027.69999998808,true,NA,NA,NA,NA,NA
RDUikka4,3r0wocg22pm4csvtiwincc3gz22duj,3483fv8beiwyur56gr55p7uo176261,RDUikka4,2020-0188,2021-10-14,09:53:46,11:29:13,NA,incomplete,false,true,NA,1,21,NA,purple,n_l_083.jpg,NA,NA,unpleasant,pleasant,NA,NA,NA,NA,NA,left,1706.90000000596,true,NA,NA,NA,NA,NA
RDUikka4,3r0wocg22pm4csvtiwincc3gz22duj,3483fv8beiwyur56gr55p7uo176261,RDUikka4,2020-0188,2021-10-14,09:53:46,11:29:13,NA,incomplete,false,true,NA,1,22,NA,purple,m_l_050.jpg,NA,NA,pleasant,unpleasant,NA,NA,NA,NA,NA,right,2088.29999998212,true,NA,NA,NA,NA,NA
RDUikka4,3r0wocg22pm4csvtiwincc3gz22duj,3483fv8beiwyur56gr55p7uo176261,RDUikka4,2020-0188,2021-10-14,09:53:46,11:29:13,NA,incomplete,false,true,NA,1,23,NA,purple,m_l_004.jpg,NA,NA,unpleasant,pleasant,NA,NA,NA,NA,NA,left,2416.60000002384,true,NA,NA,NA,NA,NA
RDUikka4,3r0wocg22pm4csvtiwincc3gz22duj,3483fv8beiwyur56gr55p7uo176261,RDUikka4,2020-0188,2021-10-14,09:53:46,11:29:13,NA,incomplete,false,true,NA,1,24,NA,black,n_s_032.jpg,NA,NA,unpleasant,pleasant,NA,NA,NA,NA,NA,right,2678.80000001192,true,NA,NA,NA,NA,NA
RDUikka4,3r0wocg22pm4csvtiwincc3gz22duj,3483fv8beiwyur56gr55p7uo176261,RDUikka4,2020-0188,2021-10-14,09:53:46,11:29:13,NA,incomplete,false,true,NA,1,25,NA,black,m_l_024.jpg,NA,NA,pleasant,unpleasant,NA,NA,NA,NA,NA,right,1413.30000001192,true,NA,NA,NA,NA,NA
RDUikka4,3r0wocg22pm4csvtiwincc3gz22duj,3483fv8beiwyur56gr55p7uo176261,RDUikka4,2020-0188,2021-10-14,09:53:46,11:29:13,NA,incomplete,false,true,NA,1,26,NA,black,m_s_082.jpg,NA,NA,pleasant,unpleasant,NA,NA,NA,NA,NA,right,2067.69999998808,true,NA,NA,NA,NA,NA
RDUikka4,3r0wocg22pm4csvtiwincc3gz22duj,3483fv8beiwyur56gr55p7uo176261,RDUikka4,2020-0188,2021-10-14,09:53:46,11:29:13,NA,incomplete,false,true,NA,1,27,NA,black,m_s_067.jpg,NA,NA,unpleasant,pleasant,NA,NA,NA,NA,NA,right,994.59999999404,true,NA,NA,NA,NA,NA
RDUikka4,3r0wocg22pm4csvtiwincc3gz22duj,3483fv8beiwyur56gr55p7uo176261,RDUikka4,2020-0188,2021-10-14,09:53:46,11:29:13,NA,incomplete,false,true,NA,1,28,NA,black,n_l_116.jpg,NA,NA,unpleasant,pleasant,NA,NA,NA,NA,NA,left,2092.80000001192,true,NA,NA,NA,NA,NA
RDUikka4,3r0wocg22pm4csvtiwincc3gz22duj,3483fv8beiwyur56gr55p7uo176261,RDUikka4,2020-0188,2021-10-14,09:53:46,11:29:13,NA,incomplete,false,true,NA,1,29,NA,black,n_s_041.jpg,NA,NA,pleasant,unpleasant,NA,NA,NA,NA,NA,left,1080.40000000596,true,NA,NA,NA,NA,NA
RDUikka4,3r0wocg22pm4csvtiwincc3gz22duj,3483fv8beiwyur56gr55p7uo176261,RDUikka4,2020-0188,2021-10-14,09:53:46,11:29:13,NA,incomplete,false,true,NA,1,30,NA,gray,n_l_048.jpg,NA,NA,unpleasant,pleasant,NA,NA,NA,NA,NA,right,2286.29999998212,true,NA,NA,NA,NA,NA
RDUikka4,3r0wocg22pm4csvtiwincc3gz22duj,3483fv8beiwyur56gr55p7uo176261,RDUikka4,2020-0188,2021-10-14,09:53:46,11:29:13,NA,incomplete,false,true,NA,1,31,NA,gray,n_l_080.jpg,NA,NA,pleasant,unpleasant,NA,NA,NA,NA,NA,left,1770.90000000596,true,NA,NA,NA,NA,NA
RDUikka4,3r0wocg22pm4csvtiwincc3gz22duj,3483fv8beiwyur56gr55p7uo176261,RDUikka4,2020-0188,2021-10-14,09:53:46,11:29:13,NA,incomplete,false,true,NA,1,32,NA,gray,n_s_058.jpg,NA,NA,unpleasant,pleasant,NA,NA,NA,NA,NA,left,1959.5,true,NA,NA,NA,NA,NA
RDUikka4,3r0wocg22pm4csvtiwincc3gz22duj,3483fv8beiwyur56gr55p7uo176261,RDUikka4,2020-0188,2021-10-14,09:53:46,11:29:13,NA,incomplete,false,true,NA,1,33,NA,gray,n_s_049.jpg,NA,NA,unpleasant,pleasant,NA,NA,NA,NA,NA,right,1017.69999998808,true,NA,NA,NA,NA,NA
RDUikka4,3r0wocg22pm4csvtiwincc3gz22duj,3483fv8beiwyur56gr55p7uo176261,RDUikka4,2020-0188,2021-10-14,09:53:46,11:29:13,NA,incomplete,false,true,NA,1,34,NA,gray,n_l_024.jpg,NA,NA,unpleasant,pleasant,NA,NA,NA,NA,NA,left,1234.40000000596,true,NA,NA,NA,NA,NA
RDUikka4,3r0wocg22pm4csvtiwincc3gz22duj,3483fv8beiwyur56gr55p7uo176261,RDUikka4,2020-0188,2021-10-14,09:53:46,11:29:13,NA,incomplete,false,true,NA,1,35,NA,gray,n_l_003.jpg,NA,NA,unpleasant,pleasant,NA,NA,NA,NA,NA,right,1878.59999999404,true,NA,NA,NA,NA,NA
RDUikka4,3r0wocg22pm4csvtiwincc3gz22duj,3483fv8beiwyur56gr55p7uo176261,RDUikka4,2020-0188,2021-10-14,09:53:46,11:29:13,NA,incomplete,false,NA,true,1,0,NA,NA,NA,right,absent,NA,NA,m_s_024.jpg,green,m_l_059.jpg,green,within,NA,NaN,NA,right,7715.299999982119,1,1,3043.7000000178814
RDUikka4,3r0wocg22pm4csvtiwincc3gz22duj,3483fv8beiwyur56gr55p7uo176261,RDUikka4,2020-0188,2021-10-14,09:53:46,11:29:13,NA,incomplete,false,NA,true,1,1,NA,NA,NA,left,absent,NA,NA,m_s_060.jpg,blue,n_l_022.jpg,yellow,between,NA,NaN,NA,right,3822,0,2,1429.9000000059605
RDUikka4,3r0wocg22pm4csvtiwincc3gz22duj,3483fv8beiwyur56gr55p7uo176261,RDUikka4,2020-0188,2021-10-14,09:53:46,11:29:13,NA,incomplete,false,NA,true,1,2,NA,NA,NA,left,absent,NA,NA,m_s_110.jpg,blue,n_l_039.jpg,blue,within,NA,NaN,NA,left,12125.800000011921,1,1,2532.5
RDUikka4,3r0wocg22pm4csvtiwincc3gz22duj,3483fv8beiwyur56gr55p7uo176261,RDUikka4,2020-0188,2021-10-14,09:53:46,11:29:13,NA,incomplete,false,NA,true,1,3,NA,NA,NA,left,absent,NA,NA,m_l_024.jpg,black,n_s_041.jpg,black,within,NA,NaN,NA,left,2992.5999999940395,1,1,1581.9000000059605
RDUikka4,3r0wocg22pm4csvtiwincc3gz22duj,3483fv8beiwyur56gr55p7uo176261,RDUikka4,2020-0188,2021-10-14,09:53:46,11:29:13,NA,incomplete,false,NA,true,1,4,NA,NA,NA,left,absent,NA,NA,n_l_116.jpg,black,n_s_058.jpg,gray,between,NA,NaN,NA,right,3642.7999999821186,0,1,1400.5999999940395
RDUikka4,3r0wocg22pm4csvtiwincc3gz22duj,3483fv8beiwyur56gr55p7uo176261,RDUikka4,2020-0188,2021-10-14,09:53:46,11:29:13,NA,incomplete,false,NA,true,1,5,NA,NA,NA,left,absent,NA,NA,n_l_080.jpg,gray,n_l_003.jpg,gray,within,NA,NaN,NA,left,3262.4000000059605,1,1,2592.4000000059605
RDUikka4,3r0wocg22pm4csvtiwincc3gz22duj,3483fv8beiwyur56gr55p7uo176261,RDUikka4,2020-0188,2021-10-14,09:53:46,11:29:13,NA,incomplete,false,NA,true,1,6,NA,NA,NA,left,absent,NA,NA,m_s_065.jpg,yellow,n_s_086.jpg,purple,between,NA,NaN,NA,left,4663.200000017881,1,2,1693.199999988079
RDUikka4,3r0wocg22pm4csvtiwincc3gz22duj,3483fv8beiwyur56gr55p7uo176261,RDUikka4,2020-0188,2021-10-14,09:53:46,11:29:13,NA,incomplete,false,NA,true,1,7,NA,NA,NA,right,absent,NA,NA,m_s_082.jpg,black,m_l_050.jpg,purple,between,NA,NaN,NA,right,2584.100000023842,1,3,3261.0999999940395
RDUikka4,3r0wocg22pm4csvtiwincc3gz22duj,3483fv8beiwyur56gr55p7uo176261,RDUikka4,2020-0188,2021-10-14,09:53:46,11:29:13,NA,incomplete,false,NA,true,1,8,NA,NA,NA,left,absent,NA,NA,n_s_106.jpg,yellow,m_l_011.jpg,yellow,within,NA,NaN,NA,left,5480.5,1,2,3635.2000000178814
RDUikka4,3r0wocg22pm4csvtiwincc3gz22duj,3483fv8beiwyur56gr55p7uo176261,RDUikka4,2020-0188,2021-10-14,09:53:46,11:29:13,NA,incomplete,false,NA,true,1,9,NA,NA,NA,left,absent,NA,NA,n_l_008.jpg,green,n_s_065.jpg,blue,between,NA,NaN,NA,left,5512.0999999940395,1,1,2097.800000011921
RDUikka4,3r0wocg22pm4csvtiwincc3gz22duj,3483fv8beiwyur56gr55p7uo176261,RDUikka4,2020-0188,2021-10-14,09:53:46,11:29:13,NA,incomplete,false,NA,true,1,10,NA,NA,NA,right,absent,NA,NA,m_l_004.jpg,purple,m_s_015.jpg,purple,within,NA,NaN,NA,left,4987.9000000059605,0,1,2173.399999976158
RDUikka4,3r0wocg22pm4csvtiwincc3gz22duj,3483fv8beiwyur56gr55p7uo176261,RDUikka4,2020-0188,2021-10-14,09:53:46,11:29:13,NA,incomplete,false,true,NA,2,0,NA,orange,n_l_031.jpg,NA,NA,pleasant,unpleasant,NA,NA,NA,NA,NA,left,1878.59999999404,true,NA,NA,NA,NA,NA
RDUikka4,3r0wocg22pm4csvtiwincc3gz22duj,3483fv8beiwyur56gr55p7uo176261,RDUikka4,2020-0188,2021-10-14,09:53:46,11:29:13,NA,incomplete,false,true,NA,2,1,NA,orange,n_s_087.jpg,NA,NA,pleasant,unpleasant,NA,NA,NA,NA,NA,left,1419.90000000596,true,NA,NA,NA,NA,NA
RDUikka4,3r0wocg22pm4csvtiwincc3gz22duj,3483fv8beiwyur56gr55p7uo176261,RDUikka4,2020-0188,2021-10-14,09:53:46,11:29:13,NA,incomplete,false,true,NA,2,2,NA,orange,m_l_029.jpg,NA,NA,unpleasant,pleasant,NA,NA,NA,NA,NA,right,2489.59999999404,true,NA,NA,NA,NA,NA
RDUikka4,3r0wocg22pm4csvtiwincc3gz22duj,3483fv8beiwyur56gr55p7uo176261,RDUikka4,2020-0188,2021-10-14,09:53:46,11:29:13,NA,incomplete,false,true,NA,2,3,NA,orange,m_s_008.jpg,NA,NA,unpleasant,pleasant,NA,NA,NA,NA,NA,left,1452.90000000596,true,NA,NA,NA,NA,NA
RDUikka4,3r0wocg22pm4csvtiwincc3gz22duj,3483fv8beiwyur56gr55p7uo176261,RDUikka4,2020-0188,2021-10-14,09:53:46,11:29:13,NA,incomplete,false,true,NA,2,4,NA,orange,m_l_047.jpg,NA,NA,unpleasant,pleasant,NA,NA,NA,NA,NA,left,1734.29999998212,true,NA,NA,NA,NA,NA
RDUikka4,3r0wocg22pm4csvtiwincc3gz22duj,3483fv8beiwyur56gr55p7uo176261,RDUikka4,2020-0188,2021-10-14,09:53:46,11:29:13,NA,incomplete,false,true,NA,2,5,NA,orange,n_l_002.jpg,NA,NA,unpleasant,pleasant,NA,NA,NA,NA,NA,left,946.09999999404,true,NA,NA,NA,NA,NA
RDUikka4,3r0wocg22pm4csvtiwincc3gz22duj,3483fv8beiwyur56gr55p7uo176261,RDUikka4,2020-0188,2021-10-14,09:53:46,11:29:13,NA,incomplete,false,true,NA,2,6,NA,white,n_s_010.jpg,NA,NA,pleasant,unpleasant,NA,NA,NA,NA,NA,right,2176.20000001788,true,NA,NA,NA,NA,NA
RDUikka4,3r0wocg22pm4csvtiwincc3gz22duj,3483fv8beiwyur56gr55p7uo176261,RDUikka4,2020-0188,2021-10-14,09:53:46,11:29:13,NA,incomplete,false,true,NA,2,7,NA,white,n_s_071.jpg,NA,NA,pleasant,unpleasant,NA,NA,NA,NA,NA,right,1317,true,NA,NA,NA,NA,NA
RDUikka4,3r0wocg22pm4csvtiwincc3gz22duj,3483fv8beiwyur56gr55p7uo176261,RDUikka4,2020-0188,2021-10-14,09:53:46,11:29:13,NA,incomplete,false,true,NA,2,8,NA,white,n_s_052.jpg,NA,NA,unpleasant,pleasant,NA,NA,NA,NA,NA,right,1397.30000001192,true,NA,NA,NA,NA,NA
RDUikka4,3r0wocg22pm4csvtiwincc3gz22duj,3483fv8beiwyur56gr55p7uo176261,RDUikka4,2020-0188,2021-10-14,09:53:46,11:29:13,NA,incomplete,false,true,NA,2,9,NA,white,m_l_015.jpg,NA,NA,unpleasant,pleasant,NA,NA,NA,NA,NA,left,1377.90000000596,true,NA,NA,NA,NA,NA
RDUikka4,3r0wocg22pm4csvtiwincc3gz22duj,3483fv8beiwyur56gr55p7uo176261,RDUikka4,2020-0188,2021-10-14,09:53:46,11:29:13,NA,incomplete,false,true,NA,2,10,NA,white,n_s_051.jpg,NA,NA,pleasant,unpleasant,NA,NA,NA,NA,NA,right,1322.79999998212,true,NA,NA,NA,NA,NA
RDUikka4,3r0wocg22pm4csvtiwincc3gz22duj,3483fv8beiwyur56gr55p7uo176261,RDUikka4,2020-0188,2021-10-14,09:53:46,11:29:13,NA,incomplete,false,true,NA,2,11,NA,white,m_s_029.jpg,NA,NA,unpleasant,pleasant,NA,NA,NA,NA,NA,right,1240,true,NA,NA,NA,NA,NA
RDUikka4,3r0wocg22pm4csvtiwincc3gz22duj,3483fv8beiwyur56gr55p7uo176261,RDUikka4,2020-0188,2021-10-14,09:53:46,11:29:13,NA,incomplete,false,true,NA,2,12,NA,purple,m_s_018.jpg,NA,NA,pleasant,unpleasant,NA,NA,NA,NA,NA,right,1251.5,true,NA,NA,NA,NA,NA
RDUikka4,3r0wocg22pm4csvtiwincc3gz22duj,3483fv8beiwyur56gr55p7uo176261,RDUikka4,2020-0188,2021-10-14,09:53:46,11:29:13,NA,incomplete,false,true,NA,2,13,NA,purple,n_l_056.jpg,NA,NA,unpleasant,pleasant,NA,NA,NA,NA,NA,left,1965.70000001788,true,NA,NA,NA,NA,NA
RDUikka4,3r0wocg22pm4csvtiwincc3gz22duj,3483fv8beiwyur56gr55p7uo176261,RDUikka4,2020-0188,2021-10-14,09:53:46,11:29:13,NA,incomplete,false,true,NA,2,14,NA,purple,n_l_061.jpg,NA,NA,unpleasant,pleasant,NA,NA,NA,NA,NA,left,2302,true,NA,NA,NA,NA,NA
RDUikka4,3r0wocg22pm4csvtiwincc3gz22duj,3483fv8beiwyur56gr55p7uo176261,RDUikka4,2020-0188,2021-10-14,09:53:46,11:29:13,NA,incomplete,false,true,NA,2,15,NA,purple,n_s_109.jpg,NA,NA,unpleasant,pleasant,NA,NA,NA,NA,NA,left,1375.40000000596,true,NA,NA,NA,NA,NA
RDUikka4,3r0wocg22pm4csvtiwincc3gz22duj,3483fv8beiwyur56gr55p7uo176261,RDUikka4,2020-0188,2021-10-14,09:53:46,11:29:13,NA,incomplete,false,true,NA,2,16,NA,purple,n_s_088.jpg,NA,NA,pleasant,unpleasant,NA,NA,NA,NA,NA,left,1980.5,true,NA,NA,NA,NA,NA
RDUikka4,3r0wocg22pm4csvtiwincc3gz22duj,3483fv8beiwyur56gr55p7uo176261,RDUikka4,2020-0188,2021-10-14,09:53:46,11:29:13,NA,incomplete,false,true,NA,2,17,NA,purple,m_s_009.jpg,NA,NA,unpleasant,pleasant,NA,NA,NA,NA,NA,right,1234.40000000596,true,NA,NA,NA,NA,NA
RDUikka4,3r0wocg22pm4csvtiwincc3gz22duj,3483fv8beiwyur56gr55p7uo176261,RDUikka4,2020-0188,2021-10-14,09:53:46,11:29:13,NA,incomplete,false,true,NA,2,18,NA,red,m_s_032.jpg,NA,NA,unpleasant,pleasant,NA,NA,NA,NA,NA,right,1986.5,true,NA,NA,NA,NA,NA
RDUikka4,3r0wocg22pm4csvtiwincc3gz22duj,3483fv8beiwyur56gr55p7uo176261,RDUikka4,2020-0188,2021-10-14,09:53:46,11:29:13,NA,incomplete,false,true,NA,2,19,NA,red,n_s_013.jpg,NA,NA,unpleasant,pleasant,NA,NA,NA,NA,NA,left,1483,true,NA,NA,NA,NA,NA
RDUikka4,3r0wocg22pm4csvtiwincc3gz22duj,3483fv8beiwyur56gr55p7uo176261,RDUikka4,2020-0188,2021-10-14,09:53:46,11:29:13,NA,incomplete,false,true,NA,2,20,NA,red,m_s_031.jpg,NA,NA,pleasant,unpleasant,NA,NA,NA,NA,NA,left,1854.09999999404,true,NA,NA,NA,NA,NA
RDUikka4,3r0wocg22pm4csvtiwincc3gz22duj,3483fv8beiwyur56gr55p7uo176261,RDUikka4,2020-0188,2021-10-14,09:53:46,11:29:13,NA,incomplete,false,true,NA,2,21,NA,red,n_s_059.jpg,NA,NA,pleasant,unpleasant,NA,NA,NA,NA,NA,right,1403.19999998808,true,NA,NA,NA,NA,NA
RDUikka4,3r0wocg22pm4csvtiwincc3gz22duj,3483fv8beiwyur56gr55p7uo176261,RDUikka4,2020-0188,2021-10-14,09:53:46,11:29:13,NA,incomplete,false,true,NA,2,22,NA,red,n_s_097.jpg,NA,NA,pleasant,unpleasant,NA,NA,NA,NA,NA,left,1096.09999999404,true,NA,NA,NA,NA,NA
RDUikka4,3r0wocg22pm4csvtiwincc3gz22duj,3483fv8beiwyur56gr55p7uo176261,RDUikka4,2020-0188,2021-10-14,09:53:46,11:29:13,NA,incomplete,false,true,NA,2,23,NA,red,m_l_105.jpg,NA,NA,pleasant,unpleasant,NA,NA,NA,NA,NA,left,2245.10000002384,true,NA,NA,NA,NA,NA
RDUikka4,3r0wocg22pm4csvtiwincc3gz22duj,3483fv8beiwyur56gr55p7uo176261,RDUikka4,2020-0188,2021-10-14,09:53:46,11:29:13,NA,incomplete,false,true,NA,2,24,NA,yellow,n_s_021.jpg,NA,NA,unpleasant,pleasant,NA,NA,NA,NA,NA,right,2276.09999999404,true,NA,NA,NA,NA,NA
RDUikka4,3r0wocg22pm4csvtiwincc3gz22duj,3483fv8beiwyur56gr55p7uo176261,RDUikka4,2020-0188,2021-10-14,09:53:46,11:29:13,NA,incomplete,false,true,NA,2,25,NA,yellow,m_s_088.jpg,NA,NA,pleasant,unpleasant,NA,NA,NA,NA,NA,right,1394.40000000596,true,NA,NA,NA,NA,NA
RDUikka4,3r0wocg22pm4csvtiwincc3gz22duj,3483fv8beiwyur56gr55p7uo176261,RDUikka4,2020-0188,2021-10-14,09:53:46,11:29:13,NA,incomplete,false,true,NA,2,26,NA,yellow,n_s_023.jpg,NA,NA,pleasant,unpleasant,NA,NA,NA,NA,NA,right,1151.30000001192,true,NA,NA,NA,NA,NA
RDUikka4,3r0wocg22pm4csvtiwincc3gz22duj,3483fv8beiwyur56gr55p7uo176261,RDUikka4,2020-0188,2021-10-14,09:53:46,11:29:13,NA,incomplete,false,true,NA,2,27,NA,yellow,n_l_023.jpg,NA,NA,pleasant,unpleasant,NA,NA,NA,NA,NA,left,1613.39999997616,true,NA,NA,NA,NA,NA
RDUikka4,3r0wocg22pm4csvtiwincc3gz22duj,3483fv8beiwyur56gr55p7uo176261,RDUikka4,2020-0188,2021-10-14,09:53:46,11:29:13,NA,incomplete,false,true,NA,2,28,NA,yellow,n_l_007.jpg,NA,NA,pleasant,unpleasant,NA,NA,NA,NA,NA,right,2014.30000001192,true,NA,NA,NA,NA,NA
RDUikka4,3r0wocg22pm4csvtiwincc3gz22duj,3483fv8beiwyur56gr55p7uo176261,RDUikka4,2020-0188,2021-10-14,09:53:46,11:29:13,NA,incomplete,false,true,NA,2,29,NA,yellow,m_l_010.jpg,NA,NA,pleasant,unpleasant,NA,NA,NA,NA,NA,left,1242.59999999404,true,NA,NA,NA,NA,NA
RDUikka4,3r0wocg22pm4csvtiwincc3gz22duj,3483fv8beiwyur56gr55p7uo176261,RDUikka4,2020-0188,2021-10-14,09:53:46,11:29:13,NA,incomplete,false,true,NA,2,30,NA,gray,m_l_060.jpg,NA,NA,pleasant,unpleasant,NA,NA,NA,NA,NA,right,1368.79999998212,true,NA,NA,NA,NA,NA
RDUikka4,3r0wocg22pm4csvtiwincc3gz22duj,3483fv8beiwyur56gr55p7uo176261,RDUikka4,2020-0188,2021-10-14,09:53:46,11:29:13,NA,incomplete,false,true,NA,2,31,NA,gray,n_l_096.jpg,NA,NA,unpleasant,pleasant,NA,NA,NA,NA,NA,left,1370.40000000596,true,NA,NA,NA,NA,NA
RDUikka4,3r0wocg22pm4csvtiwincc3gz22duj,3483fv8beiwyur56gr55p7uo176261,RDUikka4,2020-0188,2021-10-14,09:53:46,11:29:13,NA,incomplete,false,true,NA,2,32,NA,gray,n_s_081.jpg,NA,NA,unpleasant,pleasant,NA,NA,NA,NA,NA,right,1034.19999998808,true,NA,NA,NA,NA,NA
RDUikka4,3r0wocg22pm4csvtiwincc3gz22duj,3483fv8beiwyur56gr55p7uo176261,RDUikka4,2020-0188,2021-10-14,09:53:46,11:29:13,NA,incomplete,false,true,NA,2,33,NA,gray,m_l_051.jpg,NA,NA,unpleasant,pleasant,NA,NA,NA,NA,NA,right,1358.5,true,NA,NA,NA,NA,NA
RDUikka4,3r0wocg22pm4csvtiwincc3gz22duj,3483fv8beiwyur56gr55p7uo176261,RDUikka4,2020-0188,2021-10-14,09:53:46,11:29:13,NA,incomplete,false,true,NA,2,34,NA,gray,n_l_038.jpg,NA,NA,pleasant,unpleasant,NA,NA,NA,NA,NA,right,1571.09999999404,true,NA,NA,NA,NA,NA
RDUikka4,3r0wocg22pm4csvtiwincc3gz22duj,3483fv8beiwyur56gr55p7uo176261,RDUikka4,2020-0188,2021-10-14,09:53:46,11:29:13,NA,incomplete,false,true,NA,2,35,NA,gray,m_l_027.jpg,NA,NA,pleasant,unpleasant,NA,NA,NA,NA,NA,right,1507.30000001192,true,NA,NA,NA,NA,NA
RDUikka4,3r0wocg22pm4csvtiwincc3gz22duj,3483fv8beiwyur56gr55p7uo176261,RDUikka4,2020-0188,2021-10-14,09:53:46,11:29:13,NA,incomplete,false,NA,true,2,0,NA,NA,NA,right,present,NA,NA,m_l_010.jpg,yellow,m_s_088.jpg,yellow,within,NA,NaN,NA,left,6888.4000000059605,0,1,2164.7000000178814
RDUikka4,3r0wocg22pm4csvtiwincc3gz22duj,3483fv8beiwyur56gr55p7uo176261,RDUikka4,2020-0188,2021-10-14,09:53:46,11:29:13,NA,incomplete,false,NA,true,2,1,NA,NA,NA,left,present,NA,NA,n_l_056.jpg,purple,m_s_009.jpg,purple,within,NA,NaN,NA,left,8113.0999999940395,1,1,6611.5
RDUikka4,3r0wocg22pm4csvtiwincc3gz22duj,3483fv8beiwyur56gr55p7uo176261,RDUikka4,2020-0188,2021-10-14,09:53:46,11:29:13,NA,incomplete,false,NA,true,2,2,NA,NA,NA,right,present,NA,NA,n_s_023.jpg,yellow,n_s_097.jpg,red,between,NA,NaN,NA,right,7497,1,2,1617.9000000059605
RDUikka4,3r0wocg22pm4csvtiwincc3gz22duj,3483fv8beiwyur56gr55p7uo176261,RDUikka4,2020-0188,2021-10-14,09:53:46,11:29:13,NA,incomplete,false,NA,true,2,3,NA,NA,NA,right,present,NA,NA,n_s_081.jpg,gray,n_l_007.jpg,yellow,between,NA,NaN,NA,right,4918,1,1,2301
RDUikka4,3r0wocg22pm4csvtiwincc3gz22duj,3483fv8beiwyur56gr55p7uo176261,RDUikka4,2020-0188,2021-10-14,09:53:46,11:29:13,NA,incomplete,false,NA,true,2,4,NA,NA,NA,right,present,NA,NA,n_l_061.jpg,purple,n_s_051.jpg,white,between,NA,NaN,NA,left,8090.699999988079,0,2,1777
RDUikka4,3r0wocg22pm4csvtiwincc3gz22duj,3483fv8beiwyur56gr55p7uo176261,RDUikka4,2020-0188,2021-10-14,09:53:46,11:29:13,NA,incomplete,false,NA,true,2,5,NA,NA,NA,left,present,NA,NA,n_s_071.jpg,white,m_s_029.jpg,white,within,NA,NaN,NA,left,3237.2999999821186,1,1,1197.4000000059605
RDUikka4,3r0wocg22pm4csvtiwincc3gz22duj,3483fv8beiwyur56gr55p7uo176261,RDUikka4,2020-0188,2021-10-14,09:53:46,11:29:13,NA,incomplete,false,NA,true,2,6,NA,NA,NA,right,present,NA,NA,m_s_031.jpg,red,n_s_088.jpg,purple,between,NA,NaN,NA,right,17720.09999999404,1,1,1607.300000011921
RDUikka4,3r0wocg22pm4csvtiwincc3gz22duj,3483fv8beiwyur56gr55p7uo176261,RDUikka4,2020-0188,2021-10-14,09:53:46,11:29:13,NA,incomplete,false,NA,true,2,7,NA,NA,NA,left,present,NA,NA,n_l_096.jpg,gray,m_l_027.jpg,gray,within,NA,NaN,NA,right,6516.600000023842,0,2,1822
RDUikka4,3r0wocg22pm4csvtiwincc3gz22duj,3483fv8beiwyur56gr55p7uo176261,RDUikka4,2020-0188,2021-10-14,09:53:46,11:29:13,NA,incomplete,false,NA,true,2,8,NA,NA,NA,right,present,NA,NA,n_s_052.jpg,white,m_l_047.jpg,orange,between,NA,NaN,NA,right,4123.9000000059605,1,2,1671.4000000059605
RDUikka4,3r0wocg22pm4csvtiwincc3gz22duj,3483fv8beiwyur56gr55p7uo176261,RDUikka4,2020-0188,2021-10-14,09:53:46,11:29:13,NA,incomplete,false,NA,true,2,9,NA,NA,NA,left,present,NA,NA,n_s_013.jpg,red,m_l_105.jpg,red,within,NA,NaN,NA,right,3411.4000000059605,0,2,1663.9000000059605
RDUikka4,3r0wocg22pm4csvtiwincc3gz22duj,3483fv8beiwyur56gr55p7uo176261,RDUikka4,2020-0188,2021-10-14,09:53:46,11:29:13,NA,incomplete,false,NA,true,2,10,NA,NA,NA,left,present,NA,NA,n_s_087.jpg,orange,n_l_002.jpg,orange,within,NA,NaN,NA,right,4791.5999999940395,0,2,4993.5999999940395
RDUikka4,3r0wocg22pm4csvtiwincc3gz22duj,3483fv8beiwyur56gr55p7uo176261,RDUikka4,2020-0188,2021-10-14,09:53:46,11:29:13,NA,incomplete,false,true,NA,3,0,NA,blue,n_s_003.jpg,NA,NA,pleasant,unpleasant,NA,NA,NA,NA,NA,left,2278.69999998808,true,NA,NA,NA,NA,NA
RDUikka4,3r0wocg22pm4csvtiwincc3gz22duj,3483fv8beiwyur56gr55p7uo176261,RDUikka4,2020-0188,2021-10-14,09:53:46,11:29:13,NA,incomplete,false,true,NA,3,1,NA,blue,m_s_019.jpg,NA,NA,pleasant,unpleasant,NA,NA,NA,NA,NA,left,1968.30000001192,true,NA,NA,NA,NA,NA
RDUikka4,3r0wocg22pm4csvtiwincc3gz22duj,3483fv8beiwyur56gr55p7uo176261,RDUikka4,2020-0188,2021-10-14,09:53:46,11:29:13,NA,incomplete,false,true,NA,3,2,NA,blue,m_l_112.jpg,NA,NA,unpleasant,pleasant,NA,NA,NA,NA,NA,left,1048.09999999404,true,NA,NA,NA,NA,NA
RDUikka4,3r0wocg22pm4csvtiwincc3gz22duj,3483fv8beiwyur56gr55p7uo176261,RDUikka4,2020-0188,2021-10-14,09:53:46,11:29:13,NA,incomplete,false,true,NA,3,3,NA,blue,n_s_004.jpg,NA,NA,pleasant,unpleasant,NA,NA,NA,NA,NA,left,1767.5,true,NA,NA,NA,NA,NA
RDUikka4,3r0wocg22pm4csvtiwincc3gz22duj,3483fv8beiwyur56gr55p7uo176261,RDUikka4,2020-0188,2021-10-14,09:53:46,11:29:13,NA,incomplete,false,true,NA,3,4,NA,blue,n_l_105.jpg,NA,NA,pleasant,unpleasant,NA,NA,NA,NA,NA,left,1919,true,NA,NA,NA,NA,NA
RDUikka4,3r0wocg22pm4csvtiwincc3gz22duj,3483fv8beiwyur56gr55p7uo176261,RDUikka4,2020-0188,2021-10-14,09:53:46,11:29:13,NA,incomplete,false,true,NA,3,5,NA,blue,n_l_009.jpg,NA,NA,pleasant,unpleasant,NA,NA,NA,NA,NA,left,1782.29999998212,true,NA,NA,NA,NA,NA
RDUikka4,3r0wocg22pm4csvtiwincc3gz22duj,3483fv8beiwyur56gr55p7uo176261,RDUikka4,2020-0188,2021-10-14,09:53:46,11:29:13,NA,incomplete,false,true,NA,3,6,NA,white,n_l_076.jpg,NA,NA,unpleasant,pleasant,NA,NA,NA,NA,NA,right,1559.29999998212,true,NA,NA,NA,NA,NA
RDUikka4,3r0wocg22pm4csvtiwincc3gz22duj,3483fv8beiwyur56gr55p7uo176261,RDUikka4,2020-0188,2021-10-14,09:53:46,11:29:13,NA,incomplete,false,true,NA,3,7,NA,white,m_l_063.jpg,NA,NA,pleasant,unpleasant,NA,NA,NA,NA,NA,left,1636.40000000596,true,NA,NA,NA,NA,NA
RDUikka4,3r0wocg22pm4csvtiwincc3gz22duj,3483fv8beiwyur56gr55p7uo176261,RDUikka4,2020-0188,2021-10-14,09:53:46,11:29:13,NA,incomplete,false,true,NA,3,8,NA,white,m_l_031.jpg,NA,NA,pleasant,unpleasant,NA,NA,NA,NA,NA,right,1647.30000001192,true,NA,NA,NA,NA,NA
RDUikka4,3r0wocg22pm4csvtiwincc3gz22duj,3483fv8beiwyur56gr55p7uo176261,RDUikka4,2020-0188,2021-10-14,09:53:46,11:29:13,NA,incomplete,false,true,NA,3,9,NA,white,m_s_107.jpg,NA,NA,unpleasant,pleasant,NA,NA,NA,NA,NA,left,1760.59999999404,true,NA,NA,NA,NA,NA
RDUikka4,3r0wocg22pm4csvtiwincc3gz22duj,3483fv8beiwyur56gr55p7uo176261,RDUikka4,2020-0188,2021-10-14,09:53:46,11:29:13,NA,incomplete,false,true,NA,3,10,NA,white,n_s_012.jpg,NA,NA,unpleasant,pleasant,NA,NA,NA,NA,NA,left,1856,true,NA,NA,NA,NA,NA
RDUikka4,3r0wocg22pm4csvtiwincc3gz22duj,3483fv8beiwyur56gr55p7uo176261,RDUikka4,2020-0188,2021-10-14,09:53:46,11:29:13,NA,incomplete,false,true,NA,3,11,NA,white,m_l_025.jpg,NA,NA,pleasant,unpleasant,NA,NA,NA,NA,NA,right,1603,true,NA,NA,NA,NA,NA
RDUikka4,3r0wocg22pm4csvtiwincc3gz22duj,3483fv8beiwyur56gr55p7uo176261,RDUikka4,2020-0188,2021-10-14,09:53:46,11:29:13,NA,incomplete,false,true,NA,3,12,NA,black,m_s_078.jpg,NA,NA,pleasant,unpleasant,NA,NA,NA,NA,NA,left,1401.5,true,NA,NA,NA,NA,NA
RDUikka4,3r0wocg22pm4csvtiwincc3gz22duj,3483fv8beiwyur56gr55p7uo176261,RDUikka4,2020-0188,2021-10-14,09:53:46,11:29:13,NA,incomplete,false,true,NA,3,13,NA,black,n_s_075.jpg,NA,NA,pleasant,unpleasant,NA,NA,NA,NA,NA,left,1473.29999998212,true,NA,NA,NA,NA,NA
RDUikka4,3r0wocg22pm4csvtiwincc3gz22duj,3483fv8beiwyur56gr55p7uo176261,RDUikka4,2020-0188,2021-10-14,09:53:46,11:29:13,NA,incomplete,false,true,NA,3,14,NA,black,m_s_034.jpg,NA,NA,unpleasant,pleasant,NA,NA,NA,NA,NA,right,2003.5,true,NA,NA,NA,NA,NA
RDUikka4,3r0wocg22pm4csvtiwincc3gz22duj,3483fv8beiwyur56gr55p7uo176261,RDUikka4,2020-0188,2021-10-14,09:53:46,11:29:13,NA,incomplete,false,true,NA,3,15,NA,black,n_l_019.jpg,NA,NA,pleasant,unpleasant,NA,NA,NA,NA,NA,left,1392.59999999404,true,NA,NA,NA,NA,NA
RDUikka4,3r0wocg22pm4csvtiwincc3gz22duj,3483fv8beiwyur56gr55p7uo176261,RDUikka4,2020-0188,2021-10-14,09:53:46,11:29:13,NA,incomplete,false,true,NA,3,16,NA,black,n_l_025.jpg,NA,NA,unpleasant,pleasant,NA,NA,NA,NA,NA,left,1267.90000000596,true,NA,NA,NA,NA,NA
RDUikka4,3r0wocg22pm4csvtiwincc3gz22duj,3483fv8beiwyur56gr55p7uo176261,RDUikka4,2020-0188,2021-10-14,09:53:46,11:29:13,NA,incomplete,false,true,NA,3,17,NA,black,n_s_035.jpg,NA,NA,pleasant,unpleasant,NA,NA,NA,NA,NA,left,1853.40000000596,true,NA,NA,NA,NA,NA
RDUikka4,3r0wocg22pm4csvtiwincc3gz22duj,3483fv8beiwyur56gr55p7uo176261,RDUikka4,2020-0188,2021-10-14,09:53:46,11:29:13,NA,incomplete,false,true,NA,3,18,NA,brown,n_s_114.jpg,NA,NA,unpleasant,pleasant,NA,NA,NA,NA,NA,right,1783.79999998212,true,NA,NA,NA,NA,NA
RDUikka4,3r0wocg22pm4csvtiwincc3gz22duj,3483fv8beiwyur56gr55p7uo176261,RDUikka4,2020-0188,2021-10-14,09:53:46,11:29:13,NA,incomplete,false,true,NA,3,19,NA,brown,m_l_117.jpg,NA,NA,unpleasant,pleasant,NA,NA,NA,NA,NA,left,1516.70000001788,true,NA,NA,NA,NA,NA
RDUikka4,3r0wocg22pm4csvtiwincc3gz22duj,3483fv8beiwyur56gr55p7uo176261,RDUikka4,2020-0188,2021-10-14,09:53:46,11:29:13,NA,incomplete,false,true,NA,3,20,NA,brown,m_s_075.jpg,NA,NA,unpleasant,pleasant,NA,NA,NA,NA,NA,left,1850.5,true,NA,NA,NA,NA,NA
RDUikka4,3r0wocg22pm4csvtiwincc3gz22duj,3483fv8beiwyur56gr55p7uo176261,RDUikka4,2020-0188,2021-10-14,09:53:46,11:29:13,NA,incomplete,false,true,NA,3,21,NA,brown,m_s_050.jpg,NA,NA,unpleasant,pleasant,NA,NA,NA,NA,NA,left,1545.30000001192,true,NA,NA,NA,NA,NA
RDUikka4,3r0wocg22pm4csvtiwincc3gz22duj,3483fv8beiwyur56gr55p7uo176261,RDUikka4,2020-0188,2021-10-14,09:53:46,11:29:13,NA,incomplete,false,true,NA,3,22,NA,brown,m_l_077.jpg,NA,NA,pleasant,unpleasant,NA,NA,NA,NA,NA,left,1324,true,NA,NA,NA,NA,NA
RDUikka4,3r0wocg22pm4csvtiwincc3gz22duj,3483fv8beiwyur56gr55p7uo176261,RDUikka4,2020-0188,2021-10-14,09:53:46,11:29:13,NA,incomplete,false,true,NA,3,23,NA,brown,n_s_055.jpg,NA,NA,pleasant,unpleasant,NA,NA,NA,NA,NA,right,1838.5,true,NA,NA,NA,NA,NA
RDUikka4,3r0wocg22pm4csvtiwincc3gz22duj,3483fv8beiwyur56gr55p7uo176261,RDUikka4,2020-0188,2021-10-14,09:53:46,11:29:13,NA,incomplete,false,true,NA,3,24,NA,gray,n_l_082.jpg,NA,NA,pleasant,unpleasant,NA,NA,NA,NA,NA,right,1791.09999999404,true,NA,NA,NA,NA,NA
RDUikka4,3r0wocg22pm4csvtiwincc3gz22duj,3483fv8beiwyur56gr55p7uo176261,RDUikka4,2020-0188,2021-10-14,09:53:46,11:29:13,NA,incomplete,false,true,NA,3,25,NA,gray,m_l_068.jpg,NA,NA,unpleasant,pleasant,NA,NA,NA,NA,NA,right,2346.5,true,NA,NA,NA,NA,NA
RDUikka4,3r0wocg22pm4csvtiwincc3gz22duj,3483fv8beiwyur56gr55p7uo176261,RDUikka4,2020-0188,2021-10-14,09:53:46,11:29:13,NA,incomplete,false,true,NA,3,26,NA,gray,n_l_037.jpg,NA,NA,pleasant,unpleasant,NA,NA,NA,NA,NA,right,1649.59999999404,true,NA,NA,NA,NA,NA
RDUikka4,3r0wocg22pm4csvtiwincc3gz22duj,3483fv8beiwyur56gr55p7uo176261,RDUikka4,2020-0188,2021-10-14,09:53:46,11:29:13,NA,incomplete,false,true,NA,3,27,NA,gray,n_s_090.jpg,NA,NA,unpleasant,pleasant,NA,NA,NA,NA,NA,right,1978.20000001788,true,NA,NA,NA,NA,NA
RDUikka4,3r0wocg22pm4csvtiwincc3gz22duj,3483fv8beiwyur56gr55p7uo176261,RDUikka4,2020-0188,2021-10-14,09:53:46,11:29:13,NA,incomplete,false,true,NA,3,28,NA,gray,m_s_061.jpg,NA,NA,unpleasant,pleasant,NA,NA,NA,NA,NA,left,1445.30000001192,true,NA,NA,NA,NA,NA
RDUikka4,3r0wocg22pm4csvtiwincc3gz22duj,3483fv8beiwyur56gr55p7uo176261,RDUikka4,2020-0188,2021-10-14,09:53:46,11:29:13,NA,incomplete,false,true,NA,3,29,NA,gray,n_l_021.jpg,NA,NA,unpleasant,pleasant,NA,NA,NA,NA,NA,left,1276.5,true,NA,NA,NA,NA,NA
RDUikka4,3r0wocg22pm4csvtiwincc3gz22duj,3483fv8beiwyur56gr55p7uo176261,RDUikka4,2020-0188,2021-10-14,09:53:46,11:29:13,NA,incomplete,false,true,NA,3,30,NA,green,m_s_095.jpg,NA,NA,unpleasant,pleasant,NA,NA,NA,NA,NA,left,1376,true,NA,NA,NA,NA,NA
RDUikka4,3r0wocg22pm4csvtiwincc3gz22duj,3483fv8beiwyur56gr55p7uo176261,RDUikka4,2020-0188,2021-10-14,09:53:46,11:29:13,NA,incomplete,false,true,NA,3,31,NA,green,m_l_079.jpg,NA,NA,unpleasant,pleasant,NA,NA,NA,NA,NA,left,1209.10000002384,true,NA,NA,NA,NA,NA
RDUikka4,3r0wocg22pm4csvtiwincc3gz22duj,3483fv8beiwyur56gr55p7uo176261,RDUikka4,2020-0188,2021-10-14,09:53:46,11:29:13,NA,incomplete,false,true,NA,3,32,NA,green,m_s_108.jpg,NA,NA,unpleasant,pleasant,NA,NA,NA,NA,NA,right,1284.5,true,NA,NA,NA,NA,NA
RDUikka4,3r0wocg22pm4csvtiwincc3gz22duj,3483fv8beiwyur56gr55p7uo176261,RDUikka4,2020-0188,2021-10-14,09:53:46,11:29:13,NA,incomplete,false,true,NA,3,33,NA,green,m_l_101.jpg,NA,NA,unpleasant,pleasant,NA,NA,NA,NA,NA,left,1056.80000001192,true,NA,NA,NA,NA,NA
RDUikka4,3r0wocg22pm4csvtiwincc3gz22duj,3483fv8beiwyur56gr55p7uo176261,RDUikka4,2020-0188,2021-10-14,09:53:46,11:29:13,NA,incomplete,false,true,NA,3,34,NA,green,n_s_007.jpg,NA,NA,unpleasant,pleasant,NA,NA,NA,NA,NA,left,1898.59999999404,true,NA,NA,NA,NA,NA
RDUikka4,3r0wocg22pm4csvtiwincc3gz22duj,3483fv8beiwyur56gr55p7uo176261,RDUikka4,2020-0188,2021-10-14,09:53:46,11:29:13,NA,incomplete,false,true,NA,3,35,NA,green,m_l_067.jpg,NA,NA,pleasant,unpleasant,NA,NA,NA,NA,NA,none,0,false,NA,NA,NA,NA,NA
RDUikka4,3r0wocg22pm4csvtiwincc3gz22duj,3483fv8beiwyur56gr55p7uo176261,RDUikka4,2020-0188,2021-10-14,09:53:46,11:29:13,NA,incomplete,false,NA,true,3,0,NA,NA,NA,left,present,NA,NA,m_l_077.jpg,brown,n_l_037.jpg,gray,between,NA,NaN,NA,left,7820.5,1,0,8030.100000023842
RDUikka4,3r0wocg22pm4csvtiwincc3gz22duj,3483fv8beiwyur56gr55p7uo176261,RDUikka4,2020-0188,2021-10-14,09:53:46,11:29:13,NA,incomplete,false,NA,true,3,1,NA,NA,NA,left,present,NA,NA,n_s_012.jpg,white,m_s_034.jpg,black,between,NA,NaN,NA,left,13512.5,1,2,1340
RDUikka4,3r0wocg22pm4csvtiwincc3gz22duj,3483fv8beiwyur56gr55p7uo176261,RDUikka4,2020-0188,2021-10-14,09:53:46,11:29:13,NA,incomplete,false,NA,true,3,2,NA,NA,NA,left,present,NA,NA,m_l_063.jpg,white,m_l_025.jpg,white,within,NA,NaN,NA,left,9186.90000000596,1,1,12869.199999988079
RDUikka4,3r0wocg22pm4csvtiwincc3gz22duj,3483fv8beiwyur56gr55p7uo176261,RDUikka4,2020-0188,2021-10-14,09:53:46,11:29:13,NA,incomplete,false,NA,true,3,3,NA,NA,NA,right,present,NA,NA,m_s_108.jpg,green,m_s_061.jpg,gray,between,NA,NaN,NA,right,9065.800000011921,1,2,1829.7999999821186
RDUikka4,3r0wocg22pm4csvtiwincc3gz22duj,3483fv8beiwyur56gr55p7uo176261,RDUikka4,2020-0188,2021-10-14,09:53:46,11:29:13,NA,incomplete,false,NA,true,3,4,NA,NA,NA,right,present,NA,NA,n_l_009.jpg,blue,m_s_019.jpg,blue,within,NA,NaN,NA,right,5435.700000017881,1,2,4849.800000011921
RDUikka4,3r0wocg22pm4csvtiwincc3gz22duj,3483fv8beiwyur56gr55p7uo176261,RDUikka4,2020-0188,2021-10-14,09:53:46,11:29:13,NA,incomplete,false,NA,true,3,5,NA,NA,NA,right,present,NA,NA,m_s_075.jpg,brown,n_l_025.jpg,black,between,NA,NaN,NA,right,3066,1,3,1715.7999999821186
RDUikka4,3r0wocg22pm4csvtiwincc3gz22duj,3483fv8beiwyur56gr55p7uo176261,RDUikka4,2020-0188,2021-10-14,09:53:46,11:29:13,NA,incomplete,false,NA,true,3,6,NA,NA,NA,right,present,NA,NA,n_s_035.jpg,black,n_s_075.jpg,black,within,NA,NaN,NA,right,5310,1,2,1753.1000000238419
RDUikka4,3r0wocg22pm4csvtiwincc3gz22duj,3483fv8beiwyur56gr55p7uo176261,RDUikka4,2020-0188,2021-10-14,09:53:46,11:29:13,NA,incomplete,false,NA,true,3,7,NA,NA,NA,right,present,NA,NA,n_l_021.jpg,gray,m_l_068.jpg,gray,within,NA,NaN,NA,right,32129.100000023842,1,1,2630.4000000059605
RDUikka4,3r0wocg22pm4csvtiwincc3gz22duj,3483fv8beiwyur56gr55p7uo176261,RDUikka4,2020-0188,2021-10-14,09:53:46,11:29:13,NA,incomplete,false,NA,true,3,8,NA,NA,NA,left,present,NA,NA,m_l_117.jpg,brown,n_s_055.jpg,brown,within,NA,NaN,NA,left,13025.40000000596,1,2,1641.2000000178814
RDUikka4,3r0wocg22pm4csvtiwincc3gz22duj,3483fv8beiwyur56gr55p7uo176261,RDUikka4,2020-0188,2021-10-14,09:53:46,11:29:13,NA,incomplete,false,NA,true,3,9,NA,NA,NA,left,present,NA,NA,m_l_079.jpg,green,m_l_067.jpg,green,within,NA,NaN,NA,left,13925.800000011921,1,1,2414.2999999821186
RDUikka4,3r0wocg22pm4csvtiwincc3gz22duj,3483fv8beiwyur56gr55p7uo176261,RDUikka4,2020-0188,2021-10-14,09:53:46,11:29:13,NA,incomplete,false,NA,true,3,10,NA,NA,NA,right,present,NA,NA,m_l_031.jpg,white,n_l_105.jpg,blue,between,NA,NaN,NA,right,20916.09999999404,1,1,2203.7999999821186
RDUikka4,3r0wocg22pm4csvtiwincc3gz22duj,3483fv8beiwyur56gr55p7uo176261,RDUikka4,2020-0188,2021-10-14,09:53:46,11:29:13,NA,incomplete,false,true,NA,4,0,NA,orange,n_l_097.jpg,NA,NA,pleasant,unpleasant,NA,NA,NA,NA,NA,left,2545.30000001192,true,NA,NA,NA,NA,NA
RDUikka4,3r0wocg22pm4csvtiwincc3gz22duj,3483fv8beiwyur56gr55p7uo176261,RDUikka4,2020-0188,2021-10-14,09:53:46,11:29:13,NA,incomplete,false,true,NA,4,1,NA,orange,m_s_002.jpg,NA,NA,unpleasant,pleasant,NA,NA,NA,NA,NA,right,1930,true,NA,NA,NA,NA,NA
RDUikka4,3r0wocg22pm4csvtiwincc3gz22duj,3483fv8beiwyur56gr55p7uo176261,RDUikka4,2020-0188,2021-10-14,09:53:46,11:29:13,NA,incomplete,false,true,NA,4,2,NA,orange,m_l_053.jpg,NA,NA,pleasant,unpleasant,NA,NA,NA,NA,NA,left,1217.79999998212,true,NA,NA,NA,NA,NA
RDUikka4,3r0wocg22pm4csvtiwincc3gz22duj,3483fv8beiwyur56gr55p7uo176261,RDUikka4,2020-0188,2021-10-14,09:53:46,11:29:13,NA,incomplete,false,true,NA,4,3,NA,orange,m_l_052.jpg,NA,NA,unpleasant,pleasant,NA,NA,NA,NA,NA,left,1322.90000000596,true,NA,NA,NA,NA,NA
RDUikka4,3r0wocg22pm4csvtiwincc3gz22duj,3483fv8beiwyur56gr55p7uo176261,RDUikka4,2020-0188,2021-10-14,09:53:46,11:29:13,NA,incomplete,false,true,NA,4,4,NA,orange,m_s_073.jpg,NA,NA,unpleasant,pleasant,NA,NA,NA,NA,NA,left,1412.70000001788,true,NA,NA,NA,NA,NA
RDUikka4,3r0wocg22pm4csvtiwincc3gz22duj,3483fv8beiwyur56gr55p7uo176261,RDUikka4,2020-0188,2021-10-14,09:53:46,11:29:13,NA,incomplete,false,true,NA,4,5,NA,orange,m_s_098.jpg,NA,NA,unpleasant,pleasant,NA,NA,NA,NA,NA,left,1388.40000000596,true,NA,NA,NA,NA,NA
RDUikka4,3r0wocg22pm4csvtiwincc3gz22duj,3483fv8beiwyur56gr55p7uo176261,RDUikka4,2020-0188,2021-10-14,09:53:46,11:29:13,NA,incomplete,false,true,NA,4,6,NA,gray,n_s_018.jpg,NA,NA,unpleasant,pleasant,NA,NA,NA,NA,NA,left,1333.5,true,NA,NA,NA,NA,NA
RDUikka4,3r0wocg22pm4csvtiwincc3gz22duj,3483fv8beiwyur56gr55p7uo176261,RDUikka4,2020-0188,2021-10-14,09:53:46,11:29:13,NA,incomplete,false,true,NA,4,7,NA,gray,m_s_069.jpg,NA,NA,unpleasant,pleasant,NA,NA,NA,NA,NA,right,1654.30000001192,true,NA,NA,NA,NA,NA
RDUikka4,3r0wocg22pm4csvtiwincc3gz22duj,3483fv8beiwyur56gr55p7uo176261,RDUikka4,2020-0188,2021-10-14,09:53:46,11:29:13,NA,incomplete,false,true,NA,4,8,NA,gray,m_s_036.jpg,NA,NA,unpleasant,pleasant,NA,NA,NA,NA,NA,right,1923.09999999404,true,NA,NA,NA,NA,NA
RDUikka4,3r0wocg22pm4csvtiwincc3gz22duj,3483fv8beiwyur56gr55p7uo176261,RDUikka4,2020-0188,2021-10-14,09:53:46,11:29:13,NA,incomplete,false,true,NA,4,9,NA,gray,n_l_115.jpg,NA,NA,pleasant,unpleasant,NA,NA,NA,NA,NA,left,1398.40000000596,true,NA,NA,NA,NA,NA
RDUikka4,3r0wocg22pm4csvtiwincc3gz22duj,3483fv8beiwyur56gr55p7uo176261,RDUikka4,2020-0188,2021-10-14,09:53:46,11:29:13,NA,incomplete,false,true,NA,4,10,NA,gray,n_s_015.jpg,NA,NA,unpleasant,pleasant,NA,NA,NA,NA,NA,left,1195.5,true,NA,NA,NA,NA,NA
RDUikka4,3r0wocg22pm4csvtiwincc3gz22duj,3483fv8beiwyur56gr55p7uo176261,RDUikka4,2020-0188,2021-10-14,09:53:46,11:29:13,NA,incomplete,false,true,NA,4,11,NA,gray,n_s_020.jpg,NA,NA,pleasant,unpleasant,NA,NA,NA,NA,NA,left,1618.09999999404,true,NA,NA,NA,NA,NA
RDUikka4,3r0wocg22pm4csvtiwincc3gz22duj,3483fv8beiwyur56gr55p7uo176261,RDUikka4,2020-0188,2021-10-14,09:53:46,11:29:13,NA,incomplete,false,true,NA,4,12,NA,green,m_s_084.jpg,NA,NA,pleasant,unpleasant,NA,NA,NA,NA,NA,right,1767.29999998212,true,NA,NA,NA,NA,NA
RDUikka4,3r0wocg22pm4csvtiwincc3gz22duj,3483fv8beiwyur56gr55p7uo176261,RDUikka4,2020-0188,2021-10-14,09:53:46,11:29:13,NA,incomplete,false,true,NA,4,13,NA,green,m_s_040.jpg,NA,NA,pleasant,unpleasant,NA,NA,NA,NA,NA,right,1482.09999999404,true,NA,NA,NA,NA,NA
RDUikka4,3r0wocg22pm4csvtiwincc3gz22duj,3483fv8beiwyur56gr55p7uo176261,RDUikka4,2020-0188,2021-10-14,09:53:46,11:29:13,NA,incomplete,false,true,NA,4,14,NA,green,m_l_078.jpg,NA,NA,unpleasant,pleasant,NA,NA,NA,NA,NA,left,1573.5,true,NA,NA,NA,NA,NA
RDUikka4,3r0wocg22pm4csvtiwincc3gz22duj,3483fv8beiwyur56gr55p7uo176261,RDUikka4,2020-0188,2021-10-14,09:53:46,11:29:13,NA,incomplete,false,true,NA,4,15,NA,green,m_s_092.jpg,NA,NA,unpleasant,pleasant,NA,NA,NA,NA,NA,right,1907.19999998808,true,NA,NA,NA,NA,NA
RDUikka4,3r0wocg22pm4csvtiwincc3gz22duj,3483fv8beiwyur56gr55p7uo176261,RDUikka4,2020-0188,2021-10-14,09:53:46,11:29:13,NA,incomplete,false,true,NA,4,16,NA,green,n_l_012.jpg,NA,NA,pleasant,unpleasant,NA,NA,NA,NA,NA,left,1776.59999999404,true,NA,NA,NA,NA,NA
RDUikka4,3r0wocg22pm4csvtiwincc3gz22duj,3483fv8beiwyur56gr55p7uo176261,RDUikka4,2020-0188,2021-10-14,09:53:46,11:29:13,NA,incomplete,false,true,NA,4,17,NA,green,m_l_103.jpg,NA,NA,unpleasant,pleasant,NA,NA,NA,NA,NA,right,1606.90000000596,true,NA,NA,NA,NA,NA
RDUikka4,3r0wocg22pm4csvtiwincc3gz22duj,3483fv8beiwyur56gr55p7uo176261,RDUikka4,2020-0188,2021-10-14,09:53:46,11:29:13,NA,incomplete,false,true,NA,4,18,NA,purple,m_l_073.jpg,NA,NA,pleasant,unpleasant,NA,NA,NA,NA,NA,right,2282.59999999404,true,NA,NA,NA,NA,NA
RDUikka4,3r0wocg22pm4csvtiwincc3gz22duj,3483fv8beiwyur56gr55p7uo176261,RDUikka4,2020-0188,2021-10-14,09:53:46,11:29:13,NA,incomplete,false,true,NA,4,19,NA,purple,n_l_015.jpg,NA,NA,unpleasant,pleasant,NA,NA,NA,NA,NA,left,1444.79999998212,true,NA,NA,NA,NA,NA
RDUikka4,3r0wocg22pm4csvtiwincc3gz22duj,3483fv8beiwyur56gr55p7uo176261,RDUikka4,2020-0188,2021-10-14,09:53:46,11:29:13,NA,incomplete,false,true,NA,4,20,NA,purple,m_l_075.jpg,NA,NA,unpleasant,pleasant,NA,NA,NA,NA,NA,left,1060.80000001192,true,NA,NA,NA,NA,NA
RDUikka4,3r0wocg22pm4csvtiwincc3gz22duj,3483fv8beiwyur56gr55p7uo176261,RDUikka4,2020-0188,2021-10-14,09:53:46,11:29:13,NA,incomplete,false,true,NA,4,21,NA,purple,n_l_028.jpg,NA,NA,pleasant,unpleasant,NA,NA,NA,NA,NA,left,885.299999982119,true,NA,NA,NA,NA,NA
RDUikka4,3r0wocg22pm4csvtiwincc3gz22duj,3483fv8beiwyur56gr55p7uo176261,RDUikka4,2020-0188,2021-10-14,09:53:46,11:29:13,NA,incomplete,false,true,NA,4,22,NA,purple,n_s_095.jpg,NA,NA,pleasant,unpleasant,NA,NA,NA,NA,NA,left,1798.69999998808,true,NA,NA,NA,NA,NA
RDUikka4,3r0wocg22pm4csvtiwincc3gz22duj,3483fv8beiwyur56gr55p7uo176261,RDUikka4,2020-0188,2021-10-14,09:53:46,11:29:13,NA,incomplete,false,true,NA,4,23,NA,purple,m_l_116.jpg,NA,NA,pleasant,unpleasant,NA,NA,NA,NA,NA,left,2020.09999999404,true,NA,NA,NA,NA,NA
RDUikka4,3r0wocg22pm4csvtiwincc3gz22duj,3483fv8beiwyur56gr55p7uo176261,RDUikka4,2020-0188,2021-10-14,09:53:46,11:29:13,NA,incomplete,false,true,NA,4,24,NA,white,m_l_049.jpg,NA,NA,unpleasant,pleasant,NA,NA,NA,NA,NA,right,1685.09999999404,true,NA,NA,NA,NA,NA
RDUikka4,3r0wocg22pm4csvtiwincc3gz22duj,3483fv8beiwyur56gr55p7uo176261,RDUikka4,2020-0188,2021-10-14,09:53:46,11:29:13,NA,incomplete,false,true,NA,4,25,NA,white,m_l_097.jpg,NA,NA,unpleasant,pleasant,NA,NA,NA,NA,NA,right,1575.5,true,NA,NA,NA,NA,NA
RDUikka4,3r0wocg22pm4csvtiwincc3gz22duj,3483fv8beiwyur56gr55p7uo176261,RDUikka4,2020-0188,2021-10-14,09:53:46,11:29:13,NA,incomplete,false,true,NA,4,26,NA,white,m_l_096.jpg,NA,NA,unpleasant,pleasant,NA,NA,NA,NA,NA,right,2074.59999999404,true,NA,NA,NA,NA,NA
RDUikka4,3r0wocg22pm4csvtiwincc3gz22duj,3483fv8beiwyur56gr55p7uo176261,RDUikka4,2020-0188,2021-10-14,09:53:46,11:29:13,NA,incomplete,false,true,NA,4,27,NA,white,m_l_014.jpg,NA,NA,pleasant,unpleasant,NA,NA,NA,NA,NA,right,2320,true,NA,NA,NA,NA,NA
RDUikka4,3r0wocg22pm4csvtiwincc3gz22duj,3483fv8beiwyur56gr55p7uo176261,RDUikka4,2020-0188,2021-10-14,09:53:46,11:29:13,NA,incomplete,false,true,NA,4,28,NA,white,m_s_021.jpg,NA,NA,unpleasant,pleasant,NA,NA,NA,NA,NA,left,1542.80000001192,true,NA,NA,NA,NA,NA
RDUikka4,3r0wocg22pm4csvtiwincc3gz22duj,3483fv8beiwyur56gr55p7uo176261,RDUikka4,2020-0188,2021-10-14,09:53:46,11:29:13,NA,incomplete,false,true,NA,4,29,NA,white,n_l_030.jpg,NA,NA,unpleasant,pleasant,NA,NA,NA,NA,NA,left,1454.09999999404,true,NA,NA,NA,NA,NA
RDUikka4,3r0wocg22pm4csvtiwincc3gz22duj,3483fv8beiwyur56gr55p7uo176261,RDUikka4,2020-0188,2021-10-14,09:53:46,11:29:13,NA,incomplete,false,true,NA,4,30,NA,red,n_s_037.jpg,NA,NA,pleasant,unpleasant,NA,NA,NA,NA,NA,left,1442.90000000596,true,NA,NA,NA,NA,NA
RDUikka4,3r0wocg22pm4csvtiwincc3gz22duj,3483fv8beiwyur56gr55p7uo176261,RDUikka4,2020-0188,2021-10-14,09:53:46,11:29:13,NA,incomplete,false,true,NA,4,31,NA,red,m_s_041.jpg,NA,NA,pleasant,unpleasant,NA,NA,NA,NA,NA,left,1421.09999999404,true,NA,NA,NA,NA,NA
RDUikka4,3r0wocg22pm4csvtiwincc3gz22duj,3483fv8beiwyur56gr55p7uo176261,RDUikka4,2020-0188,2021-10-14,09:53:46,11:29:13,NA,incomplete,false,true,NA,4,32,NA,red,m_s_085.jpg,NA,NA,pleasant,unpleasant,NA,NA,NA,NA,NA,left,1419.20000001788,true,NA,NA,NA,NA,NA
RDUikka4,3r0wocg22pm4csvtiwincc3gz22duj,3483fv8beiwyur56gr55p7uo176261,RDUikka4,2020-0188,2021-10-14,09:53:46,11:29:13,NA,incomplete,false,true,NA,4,33,NA,red,m_s_074.jpg,NA,NA,unpleasant,pleasant,NA,NA,NA,NA,NA,left,1211.40000000596,true,NA,NA,NA,NA,NA
RDUikka4,3r0wocg22pm4csvtiwincc3gz22duj,3483fv8beiwyur56gr55p7uo176261,RDUikka4,2020-0188,2021-10-14,09:53:46,11:29:13,NA,incomplete,false,true,NA,4,34,NA,red,n_l_071.jpg,NA,NA,unpleasant,pleasant,NA,NA,NA,NA,NA,left,1130.5,true,NA,NA,NA,NA,NA
RDUikka4,3r0wocg22pm4csvtiwincc3gz22duj,3483fv8beiwyur56gr55p7uo176261,RDUikka4,2020-0188,2021-10-14,09:53:46,11:29:13,NA,incomplete,false,true,NA,4,35,NA,red,n_s_115.jpg,NA,NA,pleasant,unpleasant,NA,NA,NA,NA,NA,left,1267.20000001788,true,NA,NA,NA,NA,NA
RDUikka4,3r0wocg22pm4csvtiwincc3gz22duj,3483fv8beiwyur56gr55p7uo176261,RDUikka4,2020-0188,2021-10-14,09:53:46,11:29:13,NA,incomplete,false,NA,true,4,0,NA,NA,NA,left,absent,NA,NA,m_s_069.jpg,gray,n_s_020.jpg,gray,within,NA,NaN,NA,right,4812.800000011921,0,1,7409
RDUikka4,3r0wocg22pm4csvtiwincc3gz22duj,3483fv8beiwyur56gr55p7uo176261,RDUikka4,2020-0188,2021-10-14,09:53:46,11:29:13,NA,incomplete,false,NA,true,4,1,NA,NA,NA,left,absent,NA,NA,n_l_015.jpg,purple,m_l_116.jpg,purple,within,NA,NaN,NA,left,8285.90000000596,1,2,2520
RDUikka4,3r0wocg22pm4csvtiwincc3gz22duj,3483fv8beiwyur56gr55p7uo176261,RDUikka4,2020-0188,2021-10-14,09:53:46,11:29:13,NA,incomplete,false,NA,true,4,2,NA,NA,NA,right,absent,NA,NA,m_s_098.jpg,orange,m_s_002.jpg,orange,within,NA,NaN,NA,left,3836.5,0,1,1709.199999988079
RDUikka4,3r0wocg22pm4csvtiwincc3gz22duj,3483fv8beiwyur56gr55p7uo176261,RDUikka4,2020-0188,2021-10-14,09:53:46,11:29:13,NA,incomplete,false,NA,true,4,3,NA,NA,NA,right,absent,NA,NA,m_s_085.jpg,red,m_s_021.jpg,white,between,NA,NaN,NA,left,2728.899999976158,0,2,1596.7999999821186
RDUikka4,3r0wocg22pm4csvtiwincc3gz22duj,3483fv8beiwyur56gr55p7uo176261,RDUikka4,2020-0188,2021-10-14,09:53:46,11:29:13,NA,incomplete,false,NA,true,4,4,NA,NA,NA,right,absent,NA,NA,m_s_036.jpg,gray,m_s_073.jpg,orange,between,NA,NaN,NA,right,7348.199999988079,1,1,2639.0999999940395
RDUikka4,3r0wocg22pm4csvtiwincc3gz22duj,3483fv8beiwyur56gr55p7uo176261,RDUikka4,2020-0188,2021-10-14,09:53:46,11:29:13,NA,incomplete,false,NA,true,4,5,NA,NA,NA,left,absent,NA,NA,n_s_015.jpg,gray,m_l_078.jpg,green,between,NA,NaN,NA,left,14226.59999999404,1,2,2803.5999999940395
RDUikka4,3r0wocg22pm4csvtiwincc3gz22duj,3483fv8beiwyur56gr55p7uo176261,RDUikka4,2020-0188,2021-10-14,09:53:46,11:29:13,NA,incomplete,false,NA,true,4,6,NA,NA,NA,left,absent,NA,NA,m_s_041.jpg,red,n_s_115.jpg,red,within,NA,NaN,NA,left,15373.5,1,2,2794.699999988079
RDUikka4,3r0wocg22pm4csvtiwincc3gz22duj,3483fv8beiwyur56gr55p7uo176261,RDUikka4,2020-0188,2021-10-14,09:53:46,11:29:13,NA,incomplete,false,NA,true,4,7,NA,NA,NA,right,absent,NA,NA,m_l_096.jpg,white,n_s_095.jpg,purple,between,NA,NaN,NA,left,2872.9000000059605,0,2,2243.0999999940395
RDUikka4,3r0wocg22pm4csvtiwincc3gz22duj,3483fv8beiwyur56gr55p7uo176261,RDUikka4,2020-0188,2021-10-14,09:53:46,11:29:13,NA,incomplete,false,NA,true,4,8,NA,NA,NA,right,absent,NA,NA,m_l_075.jpg,purple,n_l_012.jpg,green,between,NA,NaN,NA,left,18725.90000000596,0,2,2615.5
RDUikka4,3r0wocg22pm4csvtiwincc3gz22duj,3483fv8beiwyur56gr55p7uo176261,RDUikka4,2020-0188,2021-10-14,09:53:46,11:29:13,NA,incomplete,false,NA,true,4,9,NA,NA,NA,left,absent,NA,NA,m_s_040.jpg,green,m_l_103.jpg,green,within,NA,NaN,NA,left,11343.90000000596,1,2,1895.300000011921
RDUikka4,3r0wocg22pm4csvtiwincc3gz22duj,3483fv8beiwyur56gr55p7uo176261,RDUikka4,2020-0188,2021-10-14,09:53:46,11:29:13,NA,incomplete,false,NA,true,4,10,NA,NA,NA,right,absent,NA,NA,n_l_030.jpg,white,m_l_097.jpg,white,within,NA,NaN,NA,right,7984.5999999940395,1,1,3732.9000000059605
RDUikka4,3r0wocg22pm4csvtiwincc3gz22duj,3483fv8beiwyur56gr55p7uo176261,RDUikka4,2020-0188,2021-10-14,09:53:46,11:29:13,NA,incomplete,false,true,NA,5,0,NA,green,n_s_061.jpg,NA,NA,pleasant,unpleasant,NA,NA,NA,NA,NA,left,2664.69999998808,true,NA,NA,NA,NA,NA
RDUikka4,3r0wocg22pm4csvtiwincc3gz22duj,3483fv8beiwyur56gr55p7uo176261,RDUikka4,2020-0188,2021-10-14,09:53:46,11:29:13,NA,incomplete,false,true,NA,5,1,NA,green,n_s_105.jpg,NA,NA,unpleasant,pleasant,NA,NA,NA,NA,NA,left,1468,true,NA,NA,NA,NA,NA
RDUikka4,3r0wocg22pm4csvtiwincc3gz22duj,3483fv8beiwyur56gr55p7uo176261,RDUikka4,2020-0188,2021-10-14,09:53:46,11:29:13,NA,incomplete,false,true,NA,5,2,NA,green,n_s_096.jpg,NA,NA,pleasant,unpleasant,NA,NA,NA,NA,NA,left,1545.5,true,NA,NA,NA,NA,NA
RDUikka4,3r0wocg22pm4csvtiwincc3gz22duj,3483fv8beiwyur56gr55p7uo176261,RDUikka4,2020-0188,2021-10-14,09:53:46,11:29:13,NA,incomplete,false,true,NA,5,3,NA,green,n_l_114.jpg,NA,NA,unpleasant,pleasant,NA,NA,NA,NA,NA,right,1730,true,NA,NA,NA,NA,NA
RDUikka4,3r0wocg22pm4csvtiwincc3gz22duj,3483fv8beiwyur56gr55p7uo176261,RDUikka4,2020-0188,2021-10-14,09:53:46,11:29:13,NA,incomplete,false,true,NA,5,4,NA,green,n_l_095.jpg,NA,NA,unpleasant,pleasant,NA,NA,NA,NA,NA,left,1643.5,true,NA,NA,NA,NA,NA
RDUikka4,3r0wocg22pm4csvtiwincc3gz22duj,3483fv8beiwyur56gr55p7uo176261,RDUikka4,2020-0188,2021-10-14,09:53:46,11:29:13,NA,incomplete,false,true,NA,5,5,NA,green,m_s_111.jpg,NA,NA,unpleasant,pleasant,NA,NA,NA,NA,NA,left,2934.09999999404,true,NA,NA,NA,NA,NA
RDUikka4,3r0wocg22pm4csvtiwincc3gz22duj,3483fv8beiwyur56gr55p7uo176261,RDUikka4,2020-0188,2021-10-14,09:53:46,11:29:13,NA,incomplete,false,true,NA,5,6,NA,white,m_s_115.jpg,NA,NA,pleasant,unpleasant,NA,NA,NA,NA,NA,left,1461.80000001192,true,NA,NA,NA,NA,NA
RDUikka4,3r0wocg22pm4csvtiwincc3gz22duj,3483fv8beiwyur56gr55p7uo176261,RDUikka4,2020-0188,2021-10-14,09:53:46,11:29:13,NA,incomplete,false,true,NA,5,7,NA,white,n_s_074.jpg,NA,NA,pleasant,unpleasant,NA,NA,NA,NA,NA,right,2508.90000000596,true,NA,NA,NA,NA,NA
RDUikka4,3r0wocg22pm4csvtiwincc3gz22duj,3483fv8beiwyur56gr55p7uo176261,RDUikka4,2020-0188,2021-10-14,09:53:46,11:29:13,NA,incomplete,false,true,NA,5,8,NA,white,m_s_081.jpg,NA,NA,unpleasant,pleasant,NA,NA,NA,NA,NA,left,1781.5,true,NA,NA,NA,NA,NA
RDUikka4,3r0wocg22pm4csvtiwincc3gz22duj,3483fv8beiwyur56gr55p7uo176261,RDUikka4,2020-0188,2021-10-14,09:53:46,11:29:13,NA,incomplete,false,true,NA,5,9,NA,white,m_l_005.jpg,NA,NA,pleasant,unpleasant,NA,NA,NA,NA,NA,left,1733.59999999404,true,NA,NA,NA,NA,NA
RDUikka4,3r0wocg22pm4csvtiwincc3gz22duj,3483fv8beiwyur56gr55p7uo176261,RDUikka4,2020-0188,2021-10-14,09:53:46,11:29:13,NA,incomplete,false,true,NA,5,10,NA,white,m_s_106.jpg,NA,NA,unpleasant,pleasant,NA,NA,NA,NA,NA,left,1451,true,NA,NA,NA,NA,NA
RDUikka4,3r0wocg22pm4csvtiwincc3gz22duj,3483fv8beiwyur56gr55p7uo176261,RDUikka4,2020-0188,2021-10-14,09:53:46,11:29:13,NA,incomplete,false,true,NA,5,11,NA,white,n_l_117.jpg,NA,NA,pleasant,unpleasant,NA,NA,NA,NA,NA,left,1570.59999999404,true,NA,NA,NA,NA,NA
RDUikka4,3r0wocg22pm4csvtiwincc3gz22duj,3483fv8beiwyur56gr55p7uo176261,RDUikka4,2020-0188,2021-10-14,09:53:46,11:29:13,NA,incomplete,false,true,NA,5,12,NA,red,n_l_063.jpg,NA,NA,unpleasant,pleasant,NA,NA,NA,NA,NA,left,1518,true,NA,NA,NA,NA,NA
RDUikka4,3r0wocg22pm4csvtiwincc3gz22duj,3483fv8beiwyur56gr55p7uo176261,RDUikka4,2020-0188,2021-10-14,09:53:46,11:29:13,NA,incomplete,false,true,NA,5,13,NA,red,m_l_003.jpg,NA,NA,unpleasant,pleasant,NA,NA,NA,NA,NA,left,1717.09999999404,true,NA,NA,NA,NA,NA
RDUikka4,3r0wocg22pm4csvtiwincc3gz22duj,3483fv8beiwyur56gr55p7uo176261,RDUikka4,2020-0188,2021-10-14,09:53:46,11:29:13,NA,incomplete,false,true,NA,5,14,NA,red,m_l_098.jpg,NA,NA,unpleasant,pleasant,NA,NA,NA,NA,NA,left,947.200000017881,true,NA,NA,NA,NA,NA
RDUikka4,3r0wocg22pm4csvtiwincc3gz22duj,3483fv8beiwyur56gr55p7uo176261,RDUikka4,2020-0188,2021-10-14,09:53:46,11:29:13,NA,incomplete,false,true,NA,5,15,NA,red,m_s_093.jpg,NA,NA,pleasant,unpleasant,NA,NA,NA,NA,NA,left,852.5,true,NA,NA,NA,NA,NA
RDUikka4,3r0wocg22pm4csvtiwincc3gz22duj,3483fv8beiwyur56gr55p7uo176261,RDUikka4,2020-0188,2021-10-14,09:53:46,11:29:13,NA,incomplete,false,true,NA,5,16,NA,red,n_l_074.jpg,NA,NA,pleasant,unpleasant,NA,NA,NA,NA,NA,left,1793.5,true,NA,NA,NA,NA,NA
RDUikka4,3r0wocg22pm4csvtiwincc3gz22duj,3483fv8beiwyur56gr55p7uo176261,RDUikka4,2020-0188,2021-10-14,09:53:46,11:29:13,NA,incomplete,false,true,NA,5,17,NA,red,m_l_074.jpg,NA,NA,pleasant,unpleasant,NA,NA,NA,NA,NA,left,1666.29999998212,true,NA,NA,NA,NA,NA
RDUikka4,3r0wocg22pm4csvtiwincc3gz22duj,3483fv8beiwyur56gr55p7uo176261,RDUikka4,2020-0188,2021-10-14,09:53:46,11:29:13,NA,incomplete,false,true,NA,5,18,NA,yellow,m_l_104.jpg,NA,NA,pleasant,unpleasant,NA,NA,NA,NA,NA,left,1840.79999998212,true,NA,NA,NA,NA,NA
RDUikka4,3r0wocg22pm4csvtiwincc3gz22duj,3483fv8beiwyur56gr55p7uo176261,RDUikka4,2020-0188,2021-10-14,09:53:46,11:29:13,NA,incomplete,false,true,NA,5,19,NA,yellow,n_s_047.jpg,NA,NA,unpleasant,pleasant,NA,NA,NA,NA,NA,right,1665.10000002384,true,NA,NA,NA,NA,NA
RDUikka4,3r0wocg22pm4csvtiwincc3gz22duj,3483fv8beiwyur56gr55p7uo176261,RDUikka4,2020-0188,2021-10-14,09:53:46,11:29:13,NA,incomplete,false,true,NA,5,20,NA,yellow,m_l_108.jpg,NA,NA,unpleasant,pleasant,NA,NA,NA,NA,NA,left,2024.19999998808,true,NA,NA,NA,NA,NA
RDUikka4,3r0wocg22pm4csvtiwincc3gz22duj,3483fv8beiwyur56gr55p7uo176261,RDUikka4,2020-0188,2021-10-14,09:53:46,11:29:13,NA,incomplete,false,true,NA,5,21,NA,yellow,n_s_116.jpg,NA,NA,unpleasant,pleasant,NA,NA,NA,NA,NA,left,2159.5,true,NA,NA,NA,NA,NA
RDUikka4,3r0wocg22pm4csvtiwincc3gz22duj,3483fv8beiwyur56gr55p7uo176261,RDUikka4,2020-0188,2021-10-14,09:53:46,11:29:13,NA,incomplete,false,true,NA,5,22,NA,yellow,m_s_096.jpg,NA,NA,pleasant,unpleasant,NA,NA,NA,NA,NA,left,1703.80000001192,true,NA,NA,NA,NA,NA
RDUikka4,3r0wocg22pm4csvtiwincc3gz22duj,3483fv8beiwyur56gr55p7uo176261,RDUikka4,2020-0188,2021-10-14,09:53:46,11:29:13,NA,incomplete,false,true,NA,5,23,NA,yellow,n_s_017.jpg,NA,NA,pleasant,unpleasant,NA,NA,NA,NA,NA,left,1581.19999998808,true,NA,NA,NA,NA,NA
RDUikka4,3r0wocg22pm4csvtiwincc3gz22duj,3483fv8beiwyur56gr55p7uo176261,RDUikka4,2020-0188,2021-10-14,09:53:46,11:29:13,NA,incomplete,false,true,NA,5,24,NA,brown,n_s_024.jpg,NA,NA,unpleasant,pleasant,NA,NA,NA,NA,NA,right,1874.40000000596,true,NA,NA,NA,NA,NA
RDUikka4,3r0wocg22pm4csvtiwincc3gz22duj,3483fv8beiwyur56gr55p7uo176261,RDUikka4,2020-0188,2021-10-14,09:53:46,11:29:13,NA,incomplete,false,true,NA,5,25,NA,brown,m_l_113.jpg,NA,NA,unpleasant,pleasant,NA,NA,NA,NA,NA,left,1591.59999999404,true,NA,NA,NA,NA,NA
RDUikka4,3r0wocg22pm4csvtiwincc3gz22duj,3483fv8beiwyur56gr55p7uo176261,RDUikka4,2020-0188,2021-10-14,09:53:46,11:29:13,NA,incomplete,false,true,NA,5,26,NA,brown,m_l_065.jpg,NA,NA,pleasant,unpleasant,NA,NA,NA,NA,NA,left,1421.80000001192,true,NA,NA,NA,NA,NA
RDUikka4,3r0wocg22pm4csvtiwincc3gz22duj,3483fv8beiwyur56gr55p7uo176261,RDUikka4,2020-0188,2021-10-14,09:53:46,11:29:13,NA,incomplete,false,true,NA,5,27,NA,brown,n_l_093.jpg,NA,NA,pleasant,unpleasant,NA,NA,NA,NA,NA,left,1335.70000001788,true,NA,NA,NA,NA,NA
RDUikka4,3r0wocg22pm4csvtiwincc3gz22duj,3483fv8beiwyur56gr55p7uo176261,RDUikka4,2020-0188,2021-10-14,09:53:46,11:29:13,NA,incomplete,false,true,NA,5,28,NA,brown,m_s_033.jpg,NA,NA,unpleasant,pleasant,NA,NA,NA,NA,NA,left,1531.20000001788,true,NA,NA,NA,NA,NA
RDUikka4,3r0wocg22pm4csvtiwincc3gz22duj,3483fv8beiwyur56gr55p7uo176261,RDUikka4,2020-0188,2021-10-14,09:53:46,11:29:13,NA,incomplete,false,true,NA,5,29,NA,brown,m_s_038.jpg,NA,NA,pleasant,unpleasant,NA,NA,NA,NA,NA,left,1152.19999998808,true,NA,NA,NA,NA,NA
RDUikka4,3r0wocg22pm4csvtiwincc3gz22duj,3483fv8beiwyur56gr55p7uo176261,RDUikka4,2020-0188,2021-10-14,09:53:46,11:29:13,NA,incomplete,false,true,NA,5,30,NA,gray,n_s_028.jpg,NA,NA,pleasant,unpleasant,NA,NA,NA,NA,NA,right,1500.79999998212,true,NA,NA,NA,NA,NA
RDUikka4,3r0wocg22pm4csvtiwincc3gz22duj,3483fv8beiwyur56gr55p7uo176261,RDUikka4,2020-0188,2021-10-14,09:53:46,11:29:13,NA,incomplete,false,true,NA,5,31,NA,gray,m_s_117.jpg,NA,NA,unpleasant,pleasant,NA,NA,NA,NA,NA,right,1950.69999998808,true,NA,NA,NA,NA,NA
RDUikka4,3r0wocg22pm4csvtiwincc3gz22duj,3483fv8beiwyur56gr55p7uo176261,RDUikka4,2020-0188,2021-10-14,09:53:46,11:29:13,NA,incomplete,false,true,NA,5,32,NA,gray,n_l_042.jpg,NA,NA,unpleasant,pleasant,NA,NA,NA,NA,NA,left,1444.30000001192,true,NA,NA,NA,NA,NA
RDUikka4,3r0wocg22pm4csvtiwincc3gz22duj,3483fv8beiwyur56gr55p7uo176261,RDUikka4,2020-0188,2021-10-14,09:53:46,11:29:13,NA,incomplete,false,true,NA,5,33,NA,gray,n_l_113.jpg,NA,NA,pleasant,unpleasant,NA,NA,NA,NA,NA,left,1589.79999998212,true,NA,NA,NA,NA,NA
RDUikka4,3r0wocg22pm4csvtiwincc3gz22duj,3483fv8beiwyur56gr55p7uo176261,RDUikka4,2020-0188,2021-10-14,09:53:46,11:29:13,NA,incomplete,false,true,NA,5,34,NA,gray,n_s_102.jpg,NA,NA,unpleasant,pleasant,NA,NA,NA,NA,NA,left,993.40000000596,true,NA,NA,NA,NA,NA
RDUikka4,3r0wocg22pm4csvtiwincc3gz22duj,3483fv8beiwyur56gr55p7uo176261,RDUikka4,2020-0188,2021-10-14,09:53:46,11:29:13,NA,incomplete,false,true,NA,5,35,NA,gray,n_s_113.jpg,NA,NA,unpleasant,pleasant,NA,NA,NA,NA,NA,left,1256.5,true,NA,NA,NA,NA,NA
RDUikka4,3r0wocg22pm4csvtiwincc3gz22duj,3483fv8beiwyur56gr55p7uo176261,RDUikka4,2020-0188,2021-10-14,09:53:46,11:29:13,NA,incomplete,false,NA,true,5,0,NA,NA,NA,left,absent,NA,NA,m_s_106.jpg,white,m_l_098.jpg,red,between,NA,NaN,NA,left,11682.699999988079,1,2,1477.9000000059605
RDUikka4,3r0wocg22pm4csvtiwincc3gz22duj,3483fv8beiwyur56gr55p7uo176261,RDUikka4,2020-0188,2021-10-14,09:53:46,11:29:13,NA,incomplete,false,NA,true,5,1,NA,NA,NA,left,absent,NA,NA,n_l_074.jpg,red,m_l_108.jpg,yellow,between,NA,NaN,NA,left,10431.90000000596,1,2,2735.9000000059605
RDUikka4,3r0wocg22pm4csvtiwincc3gz22duj,3483fv8beiwyur56gr55p7uo176261,RDUikka4,2020-0188,2021-10-14,09:53:46,11:29:13,NA,incomplete,false,NA,true,5,2,NA,NA,NA,right,absent,NA,NA,m_s_111.jpg,green,n_s_105.jpg,green,within,NA,NaN,NA,right,14608.5,1,2,2323.5
RDUikka4,3r0wocg22pm4csvtiwincc3gz22duj,3483fv8beiwyur56gr55p7uo176261,RDUikka4,2020-0188,2021-10-14,09:53:46,11:29:13,NA,incomplete,false,NA,true,5,3,NA,NA,NA,left,absent,NA,NA,n_s_074.jpg,white,n_l_117.jpg,white,within,NA,NaN,NA,left,11526.5,1,2,4634
RDUikka4,3r0wocg22pm4csvtiwincc3gz22duj,3483fv8beiwyur56gr55p7uo176261,RDUikka4,2020-0188,2021-10-14,09:53:46,11:29:13,NA,incomplete,false,NA,true,5,4,NA,NA,NA,right,absent,NA,NA,n_l_042.jpg,gray,m_s_033.jpg,brown,between,NA,NaN,NA,right,13334.700000017881,1,3,1770.199999988079
RDUikka4,3r0wocg22pm4csvtiwincc3gz22duj,3483fv8beiwyur56gr55p7uo176261,RDUikka4,2020-0188,2021-10-14,09:53:46,11:29:13,NA,incomplete,false,NA,true,5,5,NA,NA,NA,left,absent,NA,NA,m_l_003.jpg,red,m_l_074.jpg,red,within,NA,NaN,NA,left,3222.9000000059605,1,1,3085.5
RDUikka4,3r0wocg22pm4csvtiwincc3gz22duj,3483fv8beiwyur56gr55p7uo176261,RDUikka4,2020-0188,2021-10-14,09:53:46,11:29:13,NA,incomplete,false,NA,true,5,6,NA,NA,NA,right,absent,NA,NA,m_s_081.jpg,white,n_l_095.jpg,green,between,NA,NaN,NA,left,4290.100000023842,0,2,4737.799999982119
RDUikka4,3r0wocg22pm4csvtiwincc3gz22duj,3483fv8beiwyur56gr55p7uo176261,RDUikka4,2020-0188,2021-10-14,09:53:46,11:29:13,NA,incomplete,false,NA,true,5,7,NA,NA,NA,left,absent,NA,NA,m_s_096.jpg,yellow,m_l_065.jpg,brown,between,NA,NaN,NA,left,4012,1,1,1708.2000000178814
RDUikka4,3r0wocg22pm4csvtiwincc3gz22duj,3483fv8beiwyur56gr55p7uo176261,RDUikka4,2020-0188,2021-10-14,09:53:46,11:29:13,NA,incomplete,false,NA,true,5,8,NA,NA,NA,left,absent,NA,NA,m_l_113.jpg,brown,m_s_038.jpg,brown,within,NA,NaN,NA,left,4496.799999982119,1,2,4633
RDUikka4,3r0wocg22pm4csvtiwincc3gz22duj,3483fv8beiwyur56gr55p7uo176261,RDUikka4,2020-0188,2021-10-14,09:53:46,11:29:13,NA,incomplete,false,NA,true,5,9,NA,NA,NA,right,absent,NA,NA,n_s_017.jpg,yellow,n_s_047.jpg,yellow,within,NA,NaN,NA,left,3622.2000000178814,0,1,2041
RDUikka4,3r0wocg22pm4csvtiwincc3gz22duj,3483fv8beiwyur56gr55p7uo176261,RDUikka4,2020-0188,2021-10-14,09:53:46,11:29:13,NA,incomplete,false,NA,true,5,10,NA,NA,NA,right,absent,NA,NA,n_s_113.jpg,gray,m_s_117.jpg,gray,within,NA,NaN,NA,right,6927.200000017881,1,1,1638.5
RDUikka4,3r0wocg22pm4csvtiwincc3gz22duj,3483fv8beiwyur56gr55p7uo176261,RDUikka4,2020-0188,2021-10-14,09:53:46,11:29:13,NA,incomplete,false,true,NA,6,0,NA,black,n_s_066.jpg,NA,NA,unpleasant,pleasant,NA,NA,NA,NA,NA,left,1784.80000001192,true,NA,NA,NA,NA,NA
RDUikka4,3r0wocg22pm4csvtiwincc3gz22duj,3483fv8beiwyur56gr55p7uo176261,RDUikka4,2020-0188,2021-10-14,09:53:46,11:29:13,NA,incomplete,false,true,NA,6,1,NA,black,m_s_114.jpg,NA,NA,unpleasant,pleasant,NA,NA,NA,NA,NA,right,1759.40000000596,true,NA,NA,NA,NA,NA
RDUikka4,3r0wocg22pm4csvtiwincc3gz22duj,3483fv8beiwyur56gr55p7uo176261,RDUikka4,2020-0188,2021-10-14,09:53:46,11:29:13,NA,incomplete,false,true,NA,6,2,NA,black,n_l_069.jpg,NA,NA,pleasant,unpleasant,NA,NA,NA,NA,NA,left,1562.29999998212,true,NA,NA,NA,NA,NA
RDUikka4,3r0wocg22pm4csvtiwincc3gz22duj,3483fv8beiwyur56gr55p7uo176261,RDUikka4,2020-0188,2021-10-14,09:53:46,11:29:13,NA,incomplete,false,true,NA,6,3,NA,black,m_l_087.jpg,NA,NA,unpleasant,pleasant,NA,NA,NA,NA,NA,left,2039.59999999404,true,NA,NA,NA,NA,NA
RDUikka4,3r0wocg22pm4csvtiwincc3gz22duj,3483fv8beiwyur56gr55p7uo176261,RDUikka4,2020-0188,2021-10-14,09:53:46,11:29:13,NA,incomplete,false,true,NA,6,4,NA,black,n_s_001.jpg,NA,NA,unpleasant,pleasant,NA,NA,NA,NA,NA,right,1751.40000000596,true,NA,NA,NA,NA,NA
RDUikka4,3r0wocg22pm4csvtiwincc3gz22duj,3483fv8beiwyur56gr55p7uo176261,RDUikka4,2020-0188,2021-10-14,09:53:46,11:29:13,NA,incomplete,false,true,NA,6,5,NA,black,n_s_027.jpg,NA,NA,pleasant,unpleasant,NA,NA,NA,NA,NA,left,1601.29999998212,true,NA,NA,NA,NA,NA
RDUikka4,3r0wocg22pm4csvtiwincc3gz22duj,3483fv8beiwyur56gr55p7uo176261,RDUikka4,2020-0188,2021-10-14,09:53:46,11:29:13,NA,incomplete,false,true,NA,6,6,NA,orange,n_s_084.jpg,NA,NA,pleasant,unpleasant,NA,NA,NA,NA,NA,left,1920.79999998212,true,NA,NA,NA,NA,NA
RDUikka4,3r0wocg22pm4csvtiwincc3gz22duj,3483fv8beiwyur56gr55p7uo176261,RDUikka4,2020-0188,2021-10-14,09:53:46,11:29:13,NA,incomplete,false,true,NA,6,7,NA,orange,m_l_070.jpg,NA,NA,pleasant,unpleasant,NA,NA,NA,NA,NA,left,1848.40000000596,true,NA,NA,NA,NA,NA
RDUikka4,3r0wocg22pm4csvtiwincc3gz22duj,3483fv8beiwyur56gr55p7uo176261,RDUikka4,2020-0188,2021-10-14,09:53:46,11:29:13,NA,incomplete,false,true,NA,6,8,NA,orange,n_l_060.jpg,NA,NA,pleasant,unpleasant,NA,NA,NA,NA,NA,left,1222.89999997616,true,NA,NA,NA,NA,NA
RDUikka4,3r0wocg22pm4csvtiwincc3gz22duj,3483fv8beiwyur56gr55p7uo176261,RDUikka4,2020-0188,2021-10-14,09:53:46,11:29:13,NA,incomplete,false,true,NA,6,9,NA,orange,m_l_107.jpg,NA,NA,unpleasant,pleasant,NA,NA,NA,NA,NA,left,1549.39999997616,true,NA,NA,NA,NA,NA
RDUikka4,3r0wocg22pm4csvtiwincc3gz22duj,3483fv8beiwyur56gr55p7uo176261,RDUikka4,2020-0188,2021-10-14,09:53:46,11:29:13,NA,incomplete,false,true,NA,6,10,NA,orange,n_s_099.jpg,NA,NA,pleasant,unpleasant,NA,NA,NA,NA,NA,left,1190.20000001788,true,NA,NA,NA,NA,NA
RDUikka4,3r0wocg22pm4csvtiwincc3gz22duj,3483fv8beiwyur56gr55p7uo176261,RDUikka4,2020-0188,2021-10-14,09:53:46,11:29:13,NA,incomplete,false,true,NA,6,11,NA,orange,m_l_082.jpg,NA,NA,pleasant,unpleasant,NA,NA,NA,NA,NA,left,1323.20000001788,true,NA,NA,NA,NA,NA
RDUikka4,3r0wocg22pm4csvtiwincc3gz22duj,3483fv8beiwyur56gr55p7uo176261,RDUikka4,2020-0188,2021-10-14,09:53:46,11:29:13,NA,incomplete,false,true,NA,6,12,NA,green,m_l_090.jpg,NA,NA,unpleasant,pleasant,NA,NA,NA,NA,NA,left,1852.60000002384,true,NA,NA,NA,NA,NA
RDUikka4,3r0wocg22pm4csvtiwincc3gz22duj,3483fv8beiwyur56gr55p7uo176261,RDUikka4,2020-0188,2021-10-14,09:53:46,11:29:13,NA,incomplete,false,true,NA,6,13,NA,green,n_l_029.jpg,NA,NA,pleasant,unpleasant,NA,NA,NA,NA,NA,left,1274.29999998212,true,NA,NA,NA,NA,NA
RDUikka4,3r0wocg22pm4csvtiwincc3gz22duj,3483fv8beiwyur56gr55p7uo176261,RDUikka4,2020-0188,2021-10-14,09:53:46,11:29:13,NA,incomplete,false,true,NA,6,14,NA,green,m_l_086.jpg,NA,NA,pleasant,unpleasant,NA,NA,NA,NA,NA,left,1722.40000000596,true,NA,NA,NA,NA,NA
RDUikka4,3r0wocg22pm4csvtiwincc3gz22duj,3483fv8beiwyur56gr55p7uo176261,RDUikka4,2020-0188,2021-10-14,09:53:46,11:29:13,NA,incomplete,false,true,NA,6,15,NA,green,n_s_072.jpg,NA,NA,pleasant,unpleasant,NA,NA,NA,NA,NA,left,1573.69999998808,true,NA,NA,NA,NA,NA
RDUikka4,3r0wocg22pm4csvtiwincc3gz22duj,3483fv8beiwyur56gr55p7uo176261,RDUikka4,2020-0188,2021-10-14,09:53:46,11:29:13,NA,incomplete,false,true,NA,6,16,NA,green,n_s_016.jpg,NA,NA,pleasant,unpleasant,NA,NA,NA,NA,NA,left,1414,true,NA,NA,NA,NA,NA
RDUikka4,3r0wocg22pm4csvtiwincc3gz22duj,3483fv8beiwyur56gr55p7uo176261,RDUikka4,2020-0188,2021-10-14,09:53:46,11:29:13,NA,incomplete,false,true,NA,6,17,NA,green,n_s_101.jpg,NA,NA,unpleasant,pleasant,NA,NA,NA,NA,NA,left,1353.5,true,NA,NA,NA,NA,NA
RDUikka4,3r0wocg22pm4csvtiwincc3gz22duj,3483fv8beiwyur56gr55p7uo176261,RDUikka4,2020-0188,2021-10-14,09:53:46,11:29:13,NA,incomplete,false,true,NA,6,18,NA,yellow,m_l_109.jpg,NA,NA,unpleasant,pleasant,NA,NA,NA,NA,NA,right,2242.30000001192,true,NA,NA,NA,NA,NA
RDUikka4,3r0wocg22pm4csvtiwincc3gz22duj,3483fv8beiwyur56gr55p7uo176261,RDUikka4,2020-0188,2021-10-14,09:53:46,11:29:13,NA,incomplete,false,true,NA,6,19,NA,yellow,n_s_068.jpg,NA,NA,pleasant,unpleasant,NA,NA,NA,NA,NA,left,1661.20000001788,true,NA,NA,NA,NA,NA
RDUikka4,3r0wocg22pm4csvtiwincc3gz22duj,3483fv8beiwyur56gr55p7uo176261,RDUikka4,2020-0188,2021-10-14,09:53:46,11:29:13,NA,incomplete,false,true,NA,6,20,NA,yellow,m_s_052.jpg,NA,NA,pleasant,unpleasant,NA,NA,NA,NA,NA,right,1878.59999999404,true,NA,NA,NA,NA,NA
RDUikka4,3r0wocg22pm4csvtiwincc3gz22duj,3483fv8beiwyur56gr55p7uo176261,RDUikka4,2020-0188,2021-10-14,09:53:46,11:29:13,NA,incomplete,false,true,NA,6,21,NA,yellow,m_l_044.jpg,NA,NA,pleasant,unpleasant,NA,NA,NA,NA,NA,right,1791.09999999404,true,NA,NA,NA,NA,NA
RDUikka4,3r0wocg22pm4csvtiwincc3gz22duj,3483fv8beiwyur56gr55p7uo176261,RDUikka4,2020-0188,2021-10-14,09:53:46,11:29:13,NA,incomplete,false,true,NA,6,22,NA,yellow,n_s_039.jpg,NA,NA,pleasant,unpleasant,NA,NA,NA,NA,NA,left,1444.90000000596,true,NA,NA,NA,NA,NA
RDUikka4,3r0wocg22pm4csvtiwincc3gz22duj,3483fv8beiwyur56gr55p7uo176261,RDUikka4,2020-0188,2021-10-14,09:53:46,11:29:13,NA,incomplete,false,true,NA,6,23,NA,yellow,m_l_072.jpg,NA,NA,pleasant,unpleasant,NA,NA,NA,NA,NA,right,1763.20000001788,true,NA,NA,NA,NA,NA
RDUikka4,3r0wocg22pm4csvtiwincc3gz22duj,3483fv8beiwyur56gr55p7uo176261,RDUikka4,2020-0188,2021-10-14,09:53:46,11:29:13,NA,incomplete,false,true,NA,6,24,NA,red,n_s_011.jpg,NA,NA,pleasant,unpleasant,NA,NA,NA,NA,NA,left,1606.59999999404,true,NA,NA,NA,NA,NA
RDUikka4,3r0wocg22pm4csvtiwincc3gz22duj,3483fv8beiwyur56gr55p7uo176261,RDUikka4,2020-0188,2021-10-14,09:53:46,11:29:13,NA,incomplete,false,true,NA,6,25,NA,red,n_l_013.jpg,NA,NA,unpleasant,pleasant,NA,NA,NA,NA,NA,left,1032.10000002384,true,NA,NA,NA,NA,NA
RDUikka4,3r0wocg22pm4csvtiwincc3gz22duj,3483fv8beiwyur56gr55p7uo176261,RDUikka4,2020-0188,2021-10-14,09:53:46,11:29:13,NA,incomplete,false,true,NA,6,26,NA,red,m_s_089.jpg,NA,NA,unpleasant,pleasant,NA,NA,NA,NA,NA,right,2084.30000001192,true,NA,NA,NA,NA,NA
RDUikka4,3r0wocg22pm4csvtiwincc3gz22duj,3483fv8beiwyur56gr55p7uo176261,RDUikka4,2020-0188,2021-10-14,09:53:46,11:29:13,NA,incomplete,false,true,NA,6,27,NA,red,m_s_012.jpg,NA,NA,pleasant,unpleasant,NA,NA,NA,NA,NA,right,1746.90000000596,true,NA,NA,NA,NA,NA
RDUikka4,3r0wocg22pm4csvtiwincc3gz22duj,3483fv8beiwyur56gr55p7uo176261,RDUikka4,2020-0188,2021-10-14,09:53:46,11:29:13,NA,incomplete,false,true,NA,6,28,NA,red,n_s_100.jpg,NA,NA,pleasant,unpleasant,NA,NA,NA,NA,NA,left,1235.5,true,NA,NA,NA,NA,NA
RDUikka4,3r0wocg22pm4csvtiwincc3gz22duj,3483fv8beiwyur56gr55p7uo176261,RDUikka4,2020-0188,2021-10-14,09:53:46,11:29:13,NA,incomplete,false,true,NA,6,29,NA,red,n_l_111.jpg,NA,NA,pleasant,unpleasant,NA,NA,NA,NA,NA,right,1852.59999999404,true,NA,NA,NA,NA,NA
RDUikka4,3r0wocg22pm4csvtiwincc3gz22duj,3483fv8beiwyur56gr55p7uo176261,RDUikka4,2020-0188,2021-10-14,09:53:46,11:29:13,NA,incomplete,false,true,NA,6,30,NA,brown,m_s_016.jpg,NA,NA,pleasant,unpleasant,NA,NA,NA,NA,NA,left,1784.20000001788,true,NA,NA,NA,NA,NA
RDUikka4,3r0wocg22pm4csvtiwincc3gz22duj,3483fv8beiwyur56gr55p7uo176261,RDUikka4,2020-0188,2021-10-14,09:53:46,11:29:13,NA,incomplete,false,true,NA,6,31,NA,brown,m_s_011.jpg,NA,NA,pleasant,unpleasant,NA,NA,NA,NA,NA,right,1480,true,NA,NA,NA,NA,NA
RDUikka4,3r0wocg22pm4csvtiwincc3gz22duj,3483fv8beiwyur56gr55p7uo176261,RDUikka4,2020-0188,2021-10-14,09:53:46,11:29:13,NA,incomplete,false,true,NA,6,32,NA,brown,n_l_065.jpg,NA,NA,unpleasant,pleasant,NA,NA,NA,NA,NA,left,1581.79999998212,true,NA,NA,NA,NA,NA
RDUikka4,3r0wocg22pm4csvtiwincc3gz22duj,3483fv8beiwyur56gr55p7uo176261,RDUikka4,2020-0188,2021-10-14,09:53:46,11:29:13,NA,incomplete,false,true,NA,6,33,NA,brown,n_s_043.jpg,NA,NA,unpleasant,pleasant,NA,NA,NA,NA,NA,left,1516.79999998212,true,NA,NA,NA,NA,NA
RDUikka4,3r0wocg22pm4csvtiwincc3gz22duj,3483fv8beiwyur56gr55p7uo176261,RDUikka4,2020-0188,2021-10-14,09:53:46,11:29:13,NA,incomplete,false,true,NA,6,34,NA,brown,m_l_076.jpg,NA,NA,pleasant,unpleasant,NA,NA,NA,NA,NA,left,1822.40000000596,true,NA,NA,NA,NA,NA
RDUikka4,3r0wocg22pm4csvtiwincc3gz22duj,3483fv8beiwyur56gr55p7uo176261,RDUikka4,2020-0188,2021-10-14,09:53:46,11:29:13,NA,incomplete,false,true,NA,6,35,NA,brown,n_l_108.jpg,NA,NA,unpleasant,pleasant,NA,NA,NA,NA,NA,left,1383.59999999404,true,NA,NA,NA,NA,NA
RDUikka4,3r0wocg22pm4csvtiwincc3gz22duj,3483fv8beiwyur56gr55p7uo176261,RDUikka4,2020-0188,2021-10-14,09:53:46,11:29:13,NA,incomplete,false,NA,true,6,0,NA,NA,NA,right,present,NA,NA,m_l_082.jpg,orange,m_l_070.jpg,orange,within,NA,NaN,NA,right,6866.5,1,1,5668.0999999940395
RDUikka4,3r0wocg22pm4csvtiwincc3gz22duj,3483fv8beiwyur56gr55p7uo176261,RDUikka4,2020-0188,2021-10-14,09:53:46,11:29:13,NA,incomplete,false,NA,true,6,1,NA,NA,NA,right,present,NA,NA,n_l_108.jpg,brown,m_s_011.jpg,brown,within,NA,NaN,NA,right,6981.699999988079,1,1,4957.699999988079
RDUikka4,3r0wocg22pm4csvtiwincc3gz22duj,3483fv8beiwyur56gr55p7uo176261,RDUikka4,2020-0188,2021-10-14,09:53:46,11:29:13,NA,incomplete,false,NA,true,6,2,NA,NA,NA,left,present,NA,NA,n_s_100.jpg,red,n_l_065.jpg,brown,between,NA,NaN,NA,left,3988.5999999940395,1,2,2016
RDUikka4,3r0wocg22pm4csvtiwincc3gz22duj,3483fv8beiwyur56gr55p7uo176261,RDUikka4,2020-0188,2021-10-14,09:53:46,11:29:13,NA,incomplete,false,NA,true,6,3,NA,NA,NA,right,present,NA,NA,n_l_060.jpg,orange,n_s_001.jpg,black,between,NA,NaN,NA,left,4821.799999982119,0,2,1955.300000011921
RDUikka4,3r0wocg22pm4csvtiwincc3gz22duj,3483fv8beiwyur56gr55p7uo176261,RDUikka4,2020-0188,2021-10-14,09:53:46,11:29:13,NA,incomplete,false,NA,true,6,4,NA,NA,NA,right,present,NA,NA,n_l_111.jpg,red,n_l_013.jpg,red,within,NA,NaN,NA,right,11338.40000000596,1,1,2840.7999999821186
RDUikka4,3r0wocg22pm4csvtiwincc3gz22duj,3483fv8beiwyur56gr55p7uo176261,RDUikka4,2020-0188,2021-10-14,09:53:46,11:29:13,NA,incomplete,false,NA,true,6,5,NA,NA,NA,left,present,NA,NA,n_s_016.jpg,green,m_s_052.jpg,yellow,between,NA,NaN,NA,left,14810,1,2,1782
RDUikka4,3r0wocg22pm4csvtiwincc3gz22duj,3483fv8beiwyur56gr55p7uo176261,RDUikka4,2020-0188,2021-10-14,09:53:46,11:29:13,NA,incomplete,false,NA,true,6,6,NA,NA,NA,left,present,NA,NA,n_s_068.jpg,yellow,m_l_072.jpg,yellow,within,NA,NaN,NA,right,6298.600000023842,0,1,2202
RDUikka4,3r0wocg22pm4csvtiwincc3gz22duj,3483fv8beiwyur56gr55p7uo176261,RDUikka4,2020-0188,2021-10-14,09:53:46,11:29:13,NA,incomplete,false,NA,true,6,7,NA,NA,NA,right,present,NA,NA,n_s_027.jpg,black,m_s_114.jpg,black,within,NA,NaN,NA,right,4644.9000000059605,1,2,3704.2000000178814
RDUikka4,3r0wocg22pm4csvtiwincc3gz22duj,3483fv8beiwyur56gr55p7uo176261,RDUikka4,2020-0188,2021-10-14,09:53:46,11:29:13,NA,incomplete,false,NA,true,6,8,NA,NA,NA,left,present,NA,NA,n_s_039.jpg,yellow,m_s_089.jpg,red,between,NA,NaN,NA,right,8922.300000011921,0,2,1333.9000000059605
RDUikka4,3r0wocg22pm4csvtiwincc3gz22duj,3483fv8beiwyur56gr55p7uo176261,RDUikka4,2020-0188,2021-10-14,09:53:46,11:29:13,NA,incomplete,false,NA,true,6,9,NA,NA,NA,left,present,NA,NA,n_s_099.jpg,orange,m_l_086.jpg,green,between,NA,NaN,NA,left,4480.9000000059605,1,2,1467.5
RDUikka4,3r0wocg22pm4csvtiwincc3gz22duj,3483fv8beiwyur56gr55p7uo176261,RDUikka4,2020-0188,2021-10-14,09:53:46,11:29:13,NA,incomplete,false,NA,true,6,10,NA,NA,NA,right,present,NA,NA,n_s_101.jpg,green,n_l_029.jpg,green,within,NA,NaN,NA,left,4823.9000000059605,0,1,1769.2000000178814
RDUikka4,3r0wocg22pm4csvtiwincc3gz22duj,3483fv8beiwyur56gr55p7uo176261,RDUikka4,2020-0188,2021-10-14,09:53:46,11:29:13,NA,incomplete,false,true,NA,7,0,NA,white,n_s_057.jpg,NA,NA,pleasant,unpleasant,NA,NA,NA,NA,NA,left,1483.19999998808,true,NA,NA,NA,NA,NA
RDUikka4,3r0wocg22pm4csvtiwincc3gz22duj,3483fv8beiwyur56gr55p7uo176261,RDUikka4,2020-0188,2021-10-14,09:53:46,11:29:13,NA,incomplete,false,true,NA,7,1,NA,white,m_l_088.jpg,NA,NA,unpleasant,pleasant,NA,NA,NA,NA,NA,left,2012.5,true,NA,NA,NA,NA,NA
RDUikka4,3r0wocg22pm4csvtiwincc3gz22duj,3483fv8beiwyur56gr55p7uo176261,RDUikka4,2020-0188,2021-10-14,09:53:46,11:29:13,NA,incomplete,false,true,NA,7,2,NA,white,m_l_069.jpg,NA,NA,unpleasant,pleasant,NA,NA,NA,NA,NA,left,2282.09999999404,true,NA,NA,NA,NA,NA
RDUikka4,3r0wocg22pm4csvtiwincc3gz22duj,3483fv8beiwyur56gr55p7uo176261,RDUikka4,2020-0188,2021-10-14,09:53:46,11:29:13,NA,incomplete,false,true,NA,7,3,NA,white,m_s_044.jpg,NA,NA,pleasant,unpleasant,NA,NA,NA,NA,NA,right,1494.20000001788,true,NA,NA,NA,NA,NA
RDUikka4,3r0wocg22pm4csvtiwincc3gz22duj,3483fv8beiwyur56gr55p7uo176261,RDUikka4,2020-0188,2021-10-14,09:53:46,11:29:13,NA,incomplete,false,true,NA,7,4,NA,white,m_s_005.jpg,NA,NA,pleasant,unpleasant,NA,NA,NA,NA,NA,left,1650.29999998212,true,NA,NA,NA,NA,NA
RDUikka4,3r0wocg22pm4csvtiwincc3gz22duj,3483fv8beiwyur56gr55p7uo176261,RDUikka4,2020-0188,2021-10-14,09:53:46,11:29:13,NA,incomplete,false,true,NA,7,5,NA,white,m_l_016.jpg,NA,NA,pleasant,unpleasant,NA,NA,NA,NA,NA,left,1666.5,true,NA,NA,NA,NA,NA
RDUikka4,3r0wocg22pm4csvtiwincc3gz22duj,3483fv8beiwyur56gr55p7uo176261,RDUikka4,2020-0188,2021-10-14,09:53:46,11:29:13,NA,incomplete,false,true,NA,7,6,NA,brown,m_s_001.jpg,NA,NA,unpleasant,pleasant,NA,NA,NA,NA,NA,left,2071.70000001788,true,NA,NA,NA,NA,NA
RDUikka4,3r0wocg22pm4csvtiwincc3gz22duj,3483fv8beiwyur56gr55p7uo176261,RDUikka4,2020-0188,2021-10-14,09:53:46,11:29:13,NA,incomplete,false,true,NA,7,7,NA,brown,m_l_042.jpg,NA,NA,unpleasant,pleasant,NA,NA,NA,NA,NA,left,1502.40000000596,true,NA,NA,NA,NA,NA
RDUikka4,3r0wocg22pm4csvtiwincc3gz22duj,3483fv8beiwyur56gr55p7uo176261,RDUikka4,2020-0188,2021-10-14,09:53:46,11:29:13,NA,incomplete,false,true,NA,7,8,NA,brown,m_l_036.jpg,NA,NA,pleasant,unpleasant,NA,NA,NA,NA,NA,left,1425.59999999404,true,NA,NA,NA,NA,NA
RDUikka4,3r0wocg22pm4csvtiwincc3gz22duj,3483fv8beiwyur56gr55p7uo176261,RDUikka4,2020-0188,2021-10-14,09:53:46,11:29:13,NA,incomplete,false,true,NA,7,9,NA,brown,m_l_084.jpg,NA,NA,pleasant,unpleasant,NA,NA,NA,NA,NA,left,2180.80000001192,true,NA,NA,NA,NA,NA
RDUikka4,3r0wocg22pm4csvtiwincc3gz22duj,3483fv8beiwyur56gr55p7uo176261,RDUikka4,2020-0188,2021-10-14,09:53:46,11:29:13,NA,incomplete,false,true,NA,7,10,NA,brown,n_s_093.jpg,NA,NA,pleasant,unpleasant,NA,NA,NA,NA,NA,left,1746.40000000596,true,NA,NA,NA,NA,NA
RDUikka4,3r0wocg22pm4csvtiwincc3gz22duj,3483fv8beiwyur56gr55p7uo176261,RDUikka4,2020-0188,2021-10-14,09:53:46,11:29:13,NA,incomplete,false,true,NA,7,11,NA,brown,m_l_020.jpg,NA,NA,unpleasant,pleasant,NA,NA,NA,NA,NA,right,1599,true,NA,NA,NA,NA,NA
RDUikka4,3r0wocg22pm4csvtiwincc3gz22duj,3483fv8beiwyur56gr55p7uo176261,RDUikka4,2020-0188,2021-10-14,09:53:46,11:29:13,NA,incomplete,false,true,NA,7,12,NA,green,n_l_020.jpg,NA,NA,pleasant,unpleasant,NA,NA,NA,NA,NA,left,1265.69999998808,true,NA,NA,NA,NA,NA
RDUikka4,3r0wocg22pm4csvtiwincc3gz22duj,3483fv8beiwyur56gr55p7uo176261,RDUikka4,2020-0188,2021-10-14,09:53:46,11:29:13,NA,incomplete,false,true,NA,7,13,NA,green,m_l_110.jpg,NA,NA,pleasant,unpleasant,NA,NA,NA,NA,NA,left,1781.90000000596,true,NA,NA,NA,NA,NA
RDUikka4,3r0wocg22pm4csvtiwincc3gz22duj,3483fv8beiwyur56gr55p7uo176261,RDUikka4,2020-0188,2021-10-14,09:53:46,11:29:13,NA,incomplete,false,true,NA,7,14,NA,green,n_s_078.jpg,NA,NA,pleasant,unpleasant,NA,NA,NA,NA,NA,left,1402.69999998808,true,NA,NA,NA,NA,NA
RDUikka4,3r0wocg22pm4csvtiwincc3gz22duj,3483fv8beiwyur56gr55p7uo176261,RDUikka4,2020-0188,2021-10-14,09:53:46,11:29:13,NA,incomplete,false,true,NA,7,15,NA,green,m_l_013.jpg,NA,NA,unpleasant,pleasant,NA,NA,NA,NA,NA,left,1544.09999999404,true,NA,NA,NA,NA,NA
RDUikka4,3r0wocg22pm4csvtiwincc3gz22duj,3483fv8beiwyur56gr55p7uo176261,RDUikka4,2020-0188,2021-10-14,09:53:46,11:29:13,NA,incomplete,false,true,NA,7,16,NA,green,m_l_028.jpg,NA,NA,unpleasant,pleasant,NA,NA,NA,NA,NA,left,1369.19999998808,true,NA,NA,NA,NA,NA
RDUikka4,3r0wocg22pm4csvtiwincc3gz22duj,3483fv8beiwyur56gr55p7uo176261,RDUikka4,2020-0188,2021-10-14,09:53:46,11:29:13,NA,incomplete,false,true,NA,7,17,NA,green,m_s_004.jpg,NA,NA,unpleasant,pleasant,NA,NA,NA,NA,NA,left,1512.5,true,NA,NA,NA,NA,NA
RDUikka4,3r0wocg22pm4csvtiwincc3gz22duj,3483fv8beiwyur56gr55p7uo176261,RDUikka4,2020-0188,2021-10-14,09:53:46,11:29:13,NA,incomplete,false,true,NA,7,18,NA,red,n_s_070.jpg,NA,NA,unpleasant,pleasant,NA,NA,NA,NA,NA,left,1353.90000000596,true,NA,NA,NA,NA,NA
RDUikka4,3r0wocg22pm4csvtiwincc3gz22duj,3483fv8beiwyur56gr55p7uo176261,RDUikka4,2020-0188,2021-10-14,09:53:46,11:29:13,NA,incomplete,false,true,NA,7,19,NA,red,n_l_053.jpg,NA,NA,unpleasant,pleasant,NA,NA,NA,NA,NA,left,1094.09999999404,true,NA,NA,NA,NA,NA
RDUikka4,3r0wocg22pm4csvtiwincc3gz22duj,3483fv8beiwyur56gr55p7uo176261,RDUikka4,2020-0188,2021-10-14,09:53:46,11:29:13,NA,incomplete,false,true,NA,7,20,NA,red,n_l_062.jpg,NA,NA,pleasant,unpleasant,NA,NA,NA,NA,NA,left,825.09999999404,true,NA,NA,NA,NA,NA
RDUikka4,3r0wocg22pm4csvtiwincc3gz22duj,3483fv8beiwyur56gr55p7uo176261,RDUikka4,2020-0188,2021-10-14,09:53:46,11:29:13,NA,incomplete,false,true,NA,7,21,NA,red,n_l_104.jpg,NA,NA,unpleasant,pleasant,NA,NA,NA,NA,NA,left,953.09999999404,true,NA,NA,NA,NA,NA
RDUikka4,3r0wocg22pm4csvtiwincc3gz22duj,3483fv8beiwyur56gr55p7uo176261,RDUikka4,2020-0188,2021-10-14,09:53:46,11:29:13,NA,incomplete,false,true,NA,7,22,NA,red,n_l_092.jpg,NA,NA,unpleasant,pleasant,NA,NA,NA,NA,NA,left,831.799999982119,true,NA,NA,NA,NA,NA
RDUikka4,3r0wocg22pm4csvtiwincc3gz22duj,3483fv8beiwyur56gr55p7uo176261,RDUikka4,2020-0188,2021-10-14,09:53:46,11:29:13,NA,incomplete,false,true,NA,7,23,NA,red,n_s_060.jpg,NA,NA,pleasant,unpleasant,NA,NA,NA,NA,NA,left,1192.70000001788,true,NA,NA,NA,NA,NA
RDUikka4,3r0wocg22pm4csvtiwincc3gz22duj,3483fv8beiwyur56gr55p7uo176261,RDUikka4,2020-0188,2021-10-14,09:53:46,11:29:13,NA,incomplete,false,true,NA,7,24,NA,blue,m_s_049.jpg,NA,NA,unpleasant,pleasant,NA,NA,NA,NA,NA,left,1129.20000001788,true,NA,NA,NA,NA,NA
RDUikka4,3r0wocg22pm4csvtiwincc3gz22duj,3483fv8beiwyur56gr55p7uo176261,RDUikka4,2020-0188,2021-10-14,09:53:46,11:29:13,NA,incomplete,false,true,NA,7,25,NA,blue,n_l_072.jpg,NA,NA,unpleasant,pleasant,NA,NA,NA,NA,NA,left,1062.29999998212,true,NA,NA,NA,NA,NA
RDUikka4,3r0wocg22pm4csvtiwincc3gz22duj,3483fv8beiwyur56gr55p7uo176261,RDUikka4,2020-0188,2021-10-14,09:53:46,11:29:13,NA,incomplete,false,true,NA,7,26,NA,blue,m_s_057.jpg,NA,NA,unpleasant,pleasant,NA,NA,NA,NA,NA,left,958.199999988079,true,NA,NA,NA,NA,NA
RDUikka4,3r0wocg22pm4csvtiwincc3gz22duj,3483fv8beiwyur56gr55p7uo176261,RDUikka4,2020-0188,2021-10-14,09:53:46,11:29:13,NA,incomplete,false,true,NA,7,27,NA,blue,n_s_002.jpg,NA,NA,pleasant,unpleasant,NA,NA,NA,NA,NA,left,1002.40000000596,true,NA,NA,NA,NA,NA
RDUikka4,3r0wocg22pm4csvtiwincc3gz22duj,3483fv8beiwyur56gr55p7uo176261,RDUikka4,2020-0188,2021-10-14,09:53:46,11:29:13,NA,incomplete,false,true,NA,7,28,NA,blue,n_l_036.jpg,NA,NA,unpleasant,pleasant,NA,NA,NA,NA,NA,left,1057.29999998212,true,NA,NA,NA,NA,NA
RDUikka4,3r0wocg22pm4csvtiwincc3gz22duj,3483fv8beiwyur56gr55p7uo176261,RDUikka4,2020-0188,2021-10-14,09:53:46,11:29:13,NA,incomplete,false,true,NA,7,29,NA,blue,m_l_017.jpg,NA,NA,unpleasant,pleasant,NA,NA,NA,NA,NA,left,1153.59999999404,true,NA,NA,NA,NA,NA
RDUikka4,3r0wocg22pm4csvtiwincc3gz22duj,3483fv8beiwyur56gr55p7uo176261,RDUikka4,2020-0188,2021-10-14,09:53:46,11:29:13,NA,incomplete,false,true,NA,7,30,NA,black,n_s_008.jpg,NA,NA,pleasant,unpleasant,NA,NA,NA,NA,NA,right,1613.90000000596,true,NA,NA,NA,NA,NA
RDUikka4,3r0wocg22pm4csvtiwincc3gz22duj,3483fv8beiwyur56gr55p7uo176261,RDUikka4,2020-0188,2021-10-14,09:53:46,11:29:13,NA,incomplete,false,true,NA,7,31,NA,black,n_l_033.jpg,NA,NA,pleasant,unpleasant,NA,NA,NA,NA,NA,left,1494.80000001192,true,NA,NA,NA,NA,NA
RDUikka4,3r0wocg22pm4csvtiwincc3gz22duj,3483fv8beiwyur56gr55p7uo176261,RDUikka4,2020-0188,2021-10-14,09:53:46,11:29:13,NA,incomplete,false,true,NA,7,32,NA,black,n_s_063.jpg,NA,NA,pleasant,unpleasant,NA,NA,NA,NA,NA,right,2053.29999998212,true,NA,NA,NA,NA,NA
RDUikka4,3r0wocg22pm4csvtiwincc3gz22duj,3483fv8beiwyur56gr55p7uo176261,RDUikka4,2020-0188,2021-10-14,09:53:46,11:29:13,NA,incomplete,false,true,NA,7,33,NA,black,m_s_013.jpg,NA,NA,pleasant,unpleasant,NA,NA,NA,NA,NA,right,2148.59999999404,true,NA,NA,NA,NA,NA
RDUikka4,3r0wocg22pm4csvtiwincc3gz22duj,3483fv8beiwyur56gr55p7uo176261,RDUikka4,2020-0188,2021-10-14,09:53:46,11:29:13,NA,incomplete,false,true,NA,7,34,NA,black,m_s_076.jpg,NA,NA,pleasant,unpleasant,NA,NA,NA,NA,NA,left,1665.59999999404,true,NA,NA,NA,NA,NA
RDUikka4,3r0wocg22pm4csvtiwincc3gz22duj,3483fv8beiwyur56gr55p7uo176261,RDUikka4,2020-0188,2021-10-14,09:53:46,11:29:13,NA,incomplete,false,true,NA,7,35,NA,black,m_s_039.jpg,NA,NA,unpleasant,pleasant,NA,NA,NA,NA,NA,left,2044.59999999404,true,NA,NA,NA,NA,NA
RDUikka4,3r0wocg22pm4csvtiwincc3gz22duj,3483fv8beiwyur56gr55p7uo176261,RDUikka4,2020-0188,2021-10-14,09:53:46,11:29:13,NA,incomplete,false,NA,true,7,0,NA,NA,NA,left,absent,NA,NA,m_l_110.jpg,green,m_s_004.jpg,green,within,NA,NaN,NA,left,6846.800000011921,1,0,3217.9000000059605
RDUikka4,3r0wocg22pm4csvtiwincc3gz22duj,3483fv8beiwyur56gr55p7uo176261,RDUikka4,2020-0188,2021-10-14,09:53:46,11:29:13,NA,incomplete,false,NA,true,7,1,NA,NA,NA,left,absent,NA,NA,m_l_088.jpg,white,m_l_016.jpg,white,within,NA,NaN,NA,left,3935.2999999821186,1,1,1933.4000000059605
RDUikka4,3r0wocg22pm4csvtiwincc3gz22duj,3483fv8beiwyur56gr55p7uo176261,RDUikka4,2020-0188,2021-10-14,09:53:46,11:29:13,NA,incomplete,false,NA,true,7,2,NA,NA,NA,right,absent,NA,NA,m_s_039.jpg,black,n_l_033.jpg,black,within,NA,NaN,NA,left,3876.199999988079,0,1,1506.6000000238419
RDUikka4,3r0wocg22pm4csvtiwincc3gz22duj,3483fv8beiwyur56gr55p7uo176261,RDUikka4,2020-0188,2021-10-14,09:53:46,11:29:13,NA,incomplete,false,NA,true,7,3,NA,NA,NA,right,absent,NA,NA,n_s_063.jpg,black,n_l_036.jpg,blue,between,NA,NaN,NA,right,6071.199999988079,1,3,2855.4000000059605
RDUikka4,3r0wocg22pm4csvtiwincc3gz22duj,3483fv8beiwyur56gr55p7uo176261,RDUikka4,2020-0188,2021-10-14,09:53:46,11:29:13,NA,incomplete,false,NA,true,7,4,NA,NA,NA,left,absent,NA,NA,m_l_028.jpg,green,n_l_062.jpg,red,between,NA,NaN,NA,left,18073.69999998808,1,2,1948.4000000059605
RDUikka4,3r0wocg22pm4csvtiwincc3gz22duj,3483fv8beiwyur56gr55p7uo176261,RDUikka4,2020-0188,2021-10-14,09:53:46,11:29:13,NA,incomplete,false,NA,true,7,5,NA,NA,NA,left,absent,NA,NA,m_s_005.jpg,white,m_l_036.jpg,brown,between,NA,NaN,NA,left,10528.40000000596,1,2,1289.0999999940395
RDUikka4,3r0wocg22pm4csvtiwincc3gz22duj,3483fv8beiwyur56gr55p7uo176261,RDUikka4,2020-0188,2021-10-14,09:53:46,11:29:13,NA,incomplete,false,NA,true,7,6,NA,NA,NA,right,absent,NA,NA,n_s_078.jpg,green,n_s_093.jpg,brown,between,NA,NaN,NA,right,17242.40000000596,1,2,2637.4000000059605
RDUikka4,3r0wocg22pm4csvtiwincc3gz22duj,3483fv8beiwyur56gr55p7uo176261,RDUikka4,2020-0188,2021-10-14,09:53:46,11:29:13,NA,incomplete,false,NA,true,7,7,NA,NA,NA,left,absent,NA,NA,n_l_053.jpg,red,n_s_060.jpg,red,within,NA,NaN,NA,left,8301,1,1,2550.4000000059605
RDUikka4,3r0wocg22pm4csvtiwincc3gz22duj,3483fv8beiwyur56gr55p7uo176261,RDUikka4,2020-0188,2021-10-14,09:53:46,11:29:13,NA,incomplete,false,NA,true,7,8,NA,NA,NA,right,absent,NA,NA,m_l_020.jpg,brown,m_l_042.jpg,brown,within,NA,NaN,NA,right,3449.5,1,2,2105
RDUikka4,3r0wocg22pm4csvtiwincc3gz22duj,3483fv8beiwyur56gr55p7uo176261,RDUikka4,2020-0188,2021-10-14,09:53:46,11:29:13,NA,incomplete,false,NA,true,7,9,NA,NA,NA,right,absent,NA,NA,m_s_057.jpg,blue,n_l_092.jpg,red,between,NA,NaN,NA,right,11510.199999988079,1,2,1483.7000000178814
RDUikka4,3r0wocg22pm4csvtiwincc3gz22duj,3483fv8beiwyur56gr55p7uo176261,RDUikka4,2020-0188,2021-10-14,09:53:46,11:29:13,NA,incomplete,false,NA,true,7,10,NA,NA,NA,right,absent,NA,NA,m_l_017.jpg,blue,n_l_072.jpg,blue,within,NA,NaN,NA,left,23182.5,0,2,2174.300000011921
RDUikka4,3r0wocg22pm4csvtiwincc3gz22duj,3483fv8beiwyur56gr55p7uo176261,RDUikka4,2020-0188,2021-10-14,09:53:46,11:29:13,NA,incomplete,false,true,NA,8,0,NA,brown,m_s_003.jpg,NA,NA,pleasant,unpleasant,NA,NA,NA,NA,NA,left,3127.19999998808,true,NA,NA,NA,NA,NA
RDUikka4,3r0wocg22pm4csvtiwincc3gz22duj,3483fv8beiwyur56gr55p7uo176261,RDUikka4,2020-0188,2021-10-14,09:53:46,11:29:13,NA,incomplete,false,true,NA,8,1,NA,brown,m_l_008.jpg,NA,NA,unpleasant,pleasant,NA,NA,NA,NA,NA,left,1130.5,true,NA,NA,NA,NA,NA
RDUikka4,3r0wocg22pm4csvtiwincc3gz22duj,3483fv8beiwyur56gr55p7uo176261,RDUikka4,2020-0188,2021-10-14,09:53:46,11:29:13,NA,incomplete,false,true,NA,8,2,NA,brown,n_s_103.jpg,NA,NA,unpleasant,pleasant,NA,NA,NA,NA,NA,left,977.09999999404,true,NA,NA,NA,NA,NA
RDUikka4,3r0wocg22pm4csvtiwincc3gz22duj,3483fv8beiwyur56gr55p7uo176261,RDUikka4,2020-0188,2021-10-14,09:53:46,11:29:13,NA,incomplete,false,true,NA,8,3,NA,brown,n_l_051.jpg,NA,NA,pleasant,unpleasant,NA,NA,NA,NA,NA,left,916.40000000596,true,NA,NA,NA,NA,NA
RDUikka4,3r0wocg22pm4csvtiwincc3gz22duj,3483fv8beiwyur56gr55p7uo176261,RDUikka4,2020-0188,2021-10-14,09:53:46,11:29:13,NA,incomplete,false,true,NA,8,4,NA,brown,m_s_037.jpg,NA,NA,unpleasant,pleasant,NA,NA,NA,NA,NA,right,1660.80000001192,true,NA,NA,NA,NA,NA
RDUikka4,3r0wocg22pm4csvtiwincc3gz22duj,3483fv8beiwyur56gr55p7uo176261,RDUikka4,2020-0188,2021-10-14,09:53:46,11:29:13,NA,incomplete,false,true,NA,8,5,NA,brown,m_l_040.jpg,NA,NA,pleasant,unpleasant,NA,NA,NA,NA,NA,left,1238.59999999404,true,NA,NA,NA,NA,NA
RDUikka4,3r0wocg22pm4csvtiwincc3gz22duj,3483fv8beiwyur56gr55p7uo176261,RDUikka4,2020-0188,2021-10-14,09:53:46,11:29:13,NA,incomplete,false,true,NA,8,6,NA,gray,n_l_026.jpg,NA,NA,unpleasant,pleasant,NA,NA,NA,NA,NA,right,1135.90000000596,true,NA,NA,NA,NA,NA
RDUikka4,3r0wocg22pm4csvtiwincc3gz22duj,3483fv8beiwyur56gr55p7uo176261,RDUikka4,2020-0188,2021-10-14,09:53:46,11:29:13,NA,incomplete,false,true,NA,8,7,NA,gray,m_l_001.jpg,NA,NA,unpleasant,pleasant,NA,NA,NA,NA,NA,right,1812.69999998808,true,NA,NA,NA,NA,NA
RDUikka4,3r0wocg22pm4csvtiwincc3gz22duj,3483fv8beiwyur56gr55p7uo176261,RDUikka4,2020-0188,2021-10-14,09:53:46,11:29:13,NA,incomplete,false,true,NA,8,8,NA,gray,m_l_058.jpg,NA,NA,unpleasant,pleasant,NA,NA,NA,NA,NA,right,1374.39999997616,true,NA,NA,NA,NA,NA
RDUikka4,3r0wocg22pm4csvtiwincc3gz22duj,3483fv8beiwyur56gr55p7uo176261,RDUikka4,2020-0188,2021-10-14,09:53:46,11:29:13,NA,incomplete,false,true,NA,8,9,NA,gray,m_s_028.jpg,NA,NA,unpleasant,pleasant,NA,NA,NA,NA,NA,left,1405.19999998808,true,NA,NA,NA,NA,NA
