workerId,hitId,assignmentId,subject,studyid,exp_date,exp_start,exp_end,time_start,time_end,practice,encoding,memory,block,trial,event_order,event,stim,answer,context_type,label_left,label_right,left_image,left_event,right_image,right_event,condition,response,response_time,response_acc,order_response,order_response_time,order_acc,distance_response,distance_response_time
RVyVmoTu,3r0wocg22pm4csvtiwincc3gz22duj,3c8hj7uopb7qp5tasel01e1hcgjzmf,RVyVmoTu,2020-0188,2021-10-14,15:24:01,16:33:37,NA,incomplete,true,true,NA,0,0,NA,black,m_l_063.jpg,NA,NA,pleasant,unpleasant,NA,NA,NA,NA,NA,right,1415.60000002384,true,NA,NA,NA,NA,NA
RVyVmoTu,3r0wocg22pm4csvtiwincc3gz22duj,3c8hj7uopb7qp5tasel01e1hcgjzmf,RVyVmoTu,2020-0188,2021-10-14,15:24:01,16:33:37,NA,incomplete,true,true,NA,0,1,NA,black,m_l_072.jpg,NA,NA,pleasant,unpleasant,NA,NA,NA,NA,NA,left,1667.79999995232,true,NA,NA,NA,NA,NA
RVyVmoTu,3r0wocg22pm4csvtiwincc3gz22duj,3c8hj7uopb7qp5tasel01e1hcgjzmf,RVyVmoTu,2020-0188,2021-10-14,15:24:01,16:33:37,NA,incomplete,true,true,NA,0,2,NA,black,n_s_023.jpg,NA,NA,pleasant,unpleasant,NA,NA,NA,NA,NA,right,1720.10000002384,true,NA,NA,NA,NA,NA
RVyVmoTu,3r0wocg22pm4csvtiwincc3gz22duj,3c8hj7uopb7qp5tasel01e1hcgjzmf,RVyVmoTu,2020-0188,2021-10-14,15:24:01,16:33:37,NA,incomplete,true,true,NA,0,3,NA,black,m_l_112.jpg,NA,NA,pleasant,unpleasant,NA,NA,NA,NA,NA,left,1515.80000007153,true,NA,NA,NA,NA,NA
RVyVmoTu,3r0wocg22pm4csvtiwincc3gz22duj,3c8hj7uopb7qp5tasel01e1hcgjzmf,RVyVmoTu,2020-0188,2021-10-14,15:24:01,16:33:37,NA,incomplete,true,true,NA,0,4,NA,black,n_s_013.jpg,NA,NA,pleasant,unpleasant,NA,NA,NA,NA,NA,left,2000.20000004768,true,NA,NA,NA,NA,NA
RVyVmoTu,3r0wocg22pm4csvtiwincc3gz22duj,3c8hj7uopb7qp5tasel01e1hcgjzmf,RVyVmoTu,2020-0188,2021-10-14,15:24:01,16:33:37,NA,incomplete,true,true,NA,0,5,NA,black,n_s_045.jpg,NA,NA,pleasant,unpleasant,NA,NA,NA,NA,NA,right,1732.19999992847,true,NA,NA,NA,NA,NA
RVyVmoTu,3r0wocg22pm4csvtiwincc3gz22duj,3c8hj7uopb7qp5tasel01e1hcgjzmf,RVyVmoTu,2020-0188,2021-10-14,15:24:01,16:33:37,NA,incomplete,true,true,NA,0,6,NA,green,n_l_115.jpg,NA,NA,pleasant,unpleasant,NA,NA,NA,NA,NA,left,1928.70000004768,true,NA,NA,NA,NA,NA
RVyVmoTu,3r0wocg22pm4csvtiwincc3gz22duj,3c8hj7uopb7qp5tasel01e1hcgjzmf,RVyVmoTu,2020-0188,2021-10-14,15:24:01,16:33:37,NA,incomplete,true,true,NA,0,7,NA,green,m_s_046.jpg,NA,NA,unpleasant,pleasant,NA,NA,NA,NA,NA,left,1244.89999997616,true,NA,NA,NA,NA,NA
RVyVmoTu,3r0wocg22pm4csvtiwincc3gz22duj,3c8hj7uopb7qp5tasel01e1hcgjzmf,RVyVmoTu,2020-0188,2021-10-14,15:24:01,16:33:37,NA,incomplete,true,true,NA,0,8,NA,green,m_l_073.jpg,NA,NA,pleasant,unpleasant,NA,NA,NA,NA,NA,left,1922,true,NA,NA,NA,NA,NA
RVyVmoTu,3r0wocg22pm4csvtiwincc3gz22duj,3c8hj7uopb7qp5tasel01e1hcgjzmf,RVyVmoTu,2020-0188,2021-10-14,15:24:01,16:33:37,NA,incomplete,true,true,NA,0,9,NA,green,m_l_087.jpg,NA,NA,pleasant,unpleasant,NA,NA,NA,NA,NA,left,1845.70000004768,true,NA,NA,NA,NA,NA
RVyVmoTu,3r0wocg22pm4csvtiwincc3gz22duj,3c8hj7uopb7qp5tasel01e1hcgjzmf,RVyVmoTu,2020-0188,2021-10-14,15:24:01,16:33:37,NA,incomplete,true,true,NA,0,10,NA,green,n_s_065.jpg,NA,NA,pleasant,unpleasant,NA,NA,NA,NA,NA,right,1290.20000004768,true,NA,NA,NA,NA,NA
RVyVmoTu,3r0wocg22pm4csvtiwincc3gz22duj,3c8hj7uopb7qp5tasel01e1hcgjzmf,RVyVmoTu,2020-0188,2021-10-14,15:24:01,16:33:37,NA,incomplete,true,true,NA,0,11,NA,green,n_l_007.jpg,NA,NA,pleasant,unpleasant,NA,NA,NA,NA,NA,right,1862.29999995232,true,NA,NA,NA,NA,NA
RVyVmoTu,3r0wocg22pm4csvtiwincc3gz22duj,3c8hj7uopb7qp5tasel01e1hcgjzmf,RVyVmoTu,2020-0188,2021-10-14,15:24:01,16:33:37,NA,incomplete,true,true,NA,0,12,NA,red,m_s_045.jpg,NA,NA,unpleasant,pleasant,NA,NA,NA,NA,NA,right,1578.5,true,NA,NA,NA,NA,NA
RVyVmoTu,3r0wocg22pm4csvtiwincc3gz22duj,3c8hj7uopb7qp5tasel01e1hcgjzmf,RVyVmoTu,2020-0188,2021-10-14,15:24:01,16:33:37,NA,incomplete,true,true,NA,0,13,NA,red,n_s_012.jpg,NA,NA,pleasant,unpleasant,NA,NA,NA,NA,NA,left,1391.20000004768,true,NA,NA,NA,NA,NA
RVyVmoTu,3r0wocg22pm4csvtiwincc3gz22duj,3c8hj7uopb7qp5tasel01e1hcgjzmf,RVyVmoTu,2020-0188,2021-10-14,15:24:01,16:33:37,NA,incomplete,true,true,NA,0,14,NA,red,n_l_102.jpg,NA,NA,pleasant,unpleasant,NA,NA,NA,NA,NA,right,1715.29999995232,true,NA,NA,NA,NA,NA
RVyVmoTu,3r0wocg22pm4csvtiwincc3gz22duj,3c8hj7uopb7qp5tasel01e1hcgjzmf,RVyVmoTu,2020-0188,2021-10-14,15:24:01,16:33:37,NA,incomplete,true,true,NA,0,15,NA,red,n_l_085.jpg,NA,NA,unpleasant,pleasant,NA,NA,NA,NA,NA,right,1455.40000009537,true,NA,NA,NA,NA,NA
RVyVmoTu,3r0wocg22pm4csvtiwincc3gz22duj,3c8hj7uopb7qp5tasel01e1hcgjzmf,RVyVmoTu,2020-0188,2021-10-14,15:24:01,16:33:37,NA,incomplete,true,true,NA,0,16,NA,red,n_s_074.jpg,NA,NA,pleasant,unpleasant,NA,NA,NA,NA,NA,left,1891.30000007153,true,NA,NA,NA,NA,NA
RVyVmoTu,3r0wocg22pm4csvtiwincc3gz22duj,3c8hj7uopb7qp5tasel01e1hcgjzmf,RVyVmoTu,2020-0188,2021-10-14,15:24:01,16:33:37,NA,incomplete,true,true,NA,0,17,NA,red,m_l_045.jpg,NA,NA,unpleasant,pleasant,NA,NA,NA,NA,NA,right,1728.70000004768,true,NA,NA,NA,NA,NA
RVyVmoTu,3r0wocg22pm4csvtiwincc3gz22duj,3c8hj7uopb7qp5tasel01e1hcgjzmf,RVyVmoTu,2020-0188,2021-10-14,15:24:01,16:33:37,NA,incomplete,true,true,NA,0,18,NA,purple,m_l_115.jpg,NA,NA,pleasant,unpleasant,NA,NA,NA,NA,NA,left,1379.80000007153,true,NA,NA,NA,NA,NA
RVyVmoTu,3r0wocg22pm4csvtiwincc3gz22duj,3c8hj7uopb7qp5tasel01e1hcgjzmf,RVyVmoTu,2020-0188,2021-10-14,15:24:01,16:33:37,NA,incomplete,true,true,NA,0,19,NA,purple,n_s_095.jpg,NA,NA,pleasant,unpleasant,NA,NA,NA,NA,NA,right,1384.10000002384,true,NA,NA,NA,NA,NA
RVyVmoTu,3r0wocg22pm4csvtiwincc3gz22duj,3c8hj7uopb7qp5tasel01e1hcgjzmf,RVyVmoTu,2020-0188,2021-10-14,15:24:01,16:33:37,NA,incomplete,true,true,NA,0,20,NA,purple,m_s_099.jpg,NA,NA,pleasant,unpleasant,NA,NA,NA,NA,NA,right,1164.30000007153,true,NA,NA,NA,NA,NA
RVyVmoTu,3r0wocg22pm4csvtiwincc3gz22duj,3c8hj7uopb7qp5tasel01e1hcgjzmf,RVyVmoTu,2020-0188,2021-10-14,15:24:01,16:33:37,NA,incomplete,true,true,NA,0,21,NA,purple,n_s_086.jpg,NA,NA,pleasant,unpleasant,NA,NA,NA,NA,NA,right,1112.80000007153,true,NA,NA,NA,NA,NA
RVyVmoTu,3r0wocg22pm4csvtiwincc3gz22duj,3c8hj7uopb7qp5tasel01e1hcgjzmf,RVyVmoTu,2020-0188,2021-10-14,15:24:01,16:33:37,NA,incomplete,true,true,NA,0,22,NA,purple,m_l_026.jpg,NA,NA,unpleasant,pleasant,NA,NA,NA,NA,NA,left,1125.20000004768,true,NA,NA,NA,NA,NA
RVyVmoTu,3r0wocg22pm4csvtiwincc3gz22duj,3c8hj7uopb7qp5tasel01e1hcgjzmf,RVyVmoTu,2020-0188,2021-10-14,15:24:01,16:33:37,NA,incomplete,true,true,NA,0,23,NA,purple,n_l_009.jpg,NA,NA,pleasant,unpleasant,NA,NA,NA,NA,NA,right,969.900000095367,true,NA,NA,NA,NA,NA
RVyVmoTu,3r0wocg22pm4csvtiwincc3gz22duj,3c8hj7uopb7qp5tasel01e1hcgjzmf,RVyVmoTu,2020-0188,2021-10-14,15:24:01,16:33:37,NA,incomplete,true,true,NA,0,24,NA,gray,m_s_030.jpg,NA,NA,unpleasant,pleasant,NA,NA,NA,NA,NA,left,1893.80000007153,true,NA,NA,NA,NA,NA
RVyVmoTu,3r0wocg22pm4csvtiwincc3gz22duj,3c8hj7uopb7qp5tasel01e1hcgjzmf,RVyVmoTu,2020-0188,2021-10-14,15:24:01,16:33:37,NA,incomplete,true,true,NA,0,25,NA,gray,m_s_005.jpg,NA,NA,pleasant,unpleasant,NA,NA,NA,NA,NA,left,1314.20000004768,true,NA,NA,NA,NA,NA
RVyVmoTu,3r0wocg22pm4csvtiwincc3gz22duj,3c8hj7uopb7qp5tasel01e1hcgjzmf,RVyVmoTu,2020-0188,2021-10-14,15:24:01,16:33:37,NA,incomplete,true,true,NA,0,26,NA,gray,n_l_048.jpg,NA,NA,pleasant,unpleasant,NA,NA,NA,NA,NA,left,2110.80000007153,true,NA,NA,NA,NA,NA
RVyVmoTu,3r0wocg22pm4csvtiwincc3gz22duj,3c8hj7uopb7qp5tasel01e1hcgjzmf,RVyVmoTu,2020-0188,2021-10-14,15:24:01,16:33:37,NA,incomplete,true,true,NA,0,27,NA,gray,m_l_001.jpg,NA,NA,unpleasant,pleasant,NA,NA,NA,NA,NA,right,1267.80000007153,true,NA,NA,NA,NA,NA
RVyVmoTu,3r0wocg22pm4csvtiwincc3gz22duj,3c8hj7uopb7qp5tasel01e1hcgjzmf,RVyVmoTu,2020-0188,2021-10-14,15:24:01,16:33:37,NA,incomplete,true,true,NA,0,28,NA,gray,m_l_075.jpg,NA,NA,pleasant,unpleasant,NA,NA,NA,NA,NA,left,1471.10000002384,true,NA,NA,NA,NA,NA
RVyVmoTu,3r0wocg22pm4csvtiwincc3gz22duj,3c8hj7uopb7qp5tasel01e1hcgjzmf,RVyVmoTu,2020-0188,2021-10-14,15:24:01,16:33:37,NA,incomplete,true,true,NA,0,29,NA,gray,n_l_020.jpg,NA,NA,unpleasant,pleasant,NA,NA,NA,NA,NA,right,2066.90000009537,true,NA,NA,NA,NA,NA
RVyVmoTu,3r0wocg22pm4csvtiwincc3gz22duj,3c8hj7uopb7qp5tasel01e1hcgjzmf,RVyVmoTu,2020-0188,2021-10-14,15:24:01,16:33:37,NA,incomplete,true,true,NA,0,30,NA,brown,n_s_079.jpg,NA,NA,unpleasant,pleasant,NA,NA,NA,NA,NA,left,1446.70000004768,true,NA,NA,NA,NA,NA
RVyVmoTu,3r0wocg22pm4csvtiwincc3gz22duj,3c8hj7uopb7qp5tasel01e1hcgjzmf,RVyVmoTu,2020-0188,2021-10-14,15:24:01,16:33:37,NA,incomplete,true,true,NA,0,31,NA,brown,n_s_089.jpg,NA,NA,pleasant,unpleasant,NA,NA,NA,NA,NA,right,1771.30000007153,true,NA,NA,NA,NA,NA
RVyVmoTu,3r0wocg22pm4csvtiwincc3gz22duj,3c8hj7uopb7qp5tasel01e1hcgjzmf,RVyVmoTu,2020-0188,2021-10-14,15:24:01,16:33:37,NA,incomplete,true,true,NA,0,32,NA,brown,m_l_099.jpg,NA,NA,unpleasant,pleasant,NA,NA,NA,NA,NA,right,1975.5,true,NA,NA,NA,NA,NA
RVyVmoTu,3r0wocg22pm4csvtiwincc3gz22duj,3c8hj7uopb7qp5tasel01e1hcgjzmf,RVyVmoTu,2020-0188,2021-10-14,15:24:01,16:33:37,NA,incomplete,true,true,NA,0,33,NA,brown,m_l_094.jpg,NA,NA,unpleasant,pleasant,NA,NA,NA,NA,NA,left,1795.80000007153,true,NA,NA,NA,NA,NA
RVyVmoTu,3r0wocg22pm4csvtiwincc3gz22duj,3c8hj7uopb7qp5tasel01e1hcgjzmf,RVyVmoTu,2020-0188,2021-10-14,15:24:01,16:33:37,NA,incomplete,true,true,NA,0,34,NA,brown,m_l_006.jpg,NA,NA,pleasant,unpleasant,NA,NA,NA,NA,NA,left,1111,true,NA,NA,NA,NA,NA
RVyVmoTu,3r0wocg22pm4csvtiwincc3gz22duj,3c8hj7uopb7qp5tasel01e1hcgjzmf,RVyVmoTu,2020-0188,2021-10-14,15:24:01,16:33:37,NA,incomplete,true,true,NA,0,35,NA,brown,n_l_055.jpg,NA,NA,pleasant,unpleasant,NA,NA,NA,NA,NA,right,1789,true,NA,NA,NA,NA,NA
RVyVmoTu,3r0wocg22pm4csvtiwincc3gz22duj,3c8hj7uopb7qp5tasel01e1hcgjzmf,RVyVmoTu,2020-0188,2021-10-14,15:24:01,16:33:37,NA,incomplete,true,NA,true,0,0,NA,NA,NA,left,absent,NA,NA,n_s_089.jpg,brown,n_l_055.jpg,brown,within,NA,NaN,NA,left,4847,1,1,3951.399999976158
RVyVmoTu,3r0wocg22pm4csvtiwincc3gz22duj,3c8hj7uopb7qp5tasel01e1hcgjzmf,RVyVmoTu,2020-0188,2021-10-14,15:24:01,16:33:37,NA,incomplete,true,NA,true,0,1,NA,NA,NA,right,present,NA,NA,n_l_048.jpg,gray,m_l_026.jpg,purple,between,NA,NaN,NA,right,2647.4000000953674,1,2,2927.4000000953674
RVyVmoTu,3r0wocg22pm4csvtiwincc3gz22duj,3c8hj7uopb7qp5tasel01e1hcgjzmf,RVyVmoTu,2020-0188,2021-10-14,15:24:01,16:33:37,NA,incomplete,true,NA,true,0,2,NA,NA,NA,left,absent,NA,NA,n_s_012.jpg,red,m_l_045.jpg,red,within,NA,NaN,NA,left,4415.400000095367,1,3,1319.5
RVyVmoTu,3r0wocg22pm4csvtiwincc3gz22duj,3c8hj7uopb7qp5tasel01e1hcgjzmf,RVyVmoTu,2020-0188,2021-10-14,15:24:01,16:33:37,NA,incomplete,true,NA,true,0,3,NA,NA,NA,right,present,NA,NA,n_l_102.jpg,red,n_s_065.jpg,green,between,NA,NaN,NA,right,5103.5,1,2,2351.3000000715256
RVyVmoTu,3r0wocg22pm4csvtiwincc3gz22duj,3c8hj7uopb7qp5tasel01e1hcgjzmf,RVyVmoTu,2020-0188,2021-10-14,15:24:01,16:33:37,NA,incomplete,true,NA,true,0,4,NA,NA,NA,right,absent,NA,NA,n_l_020.jpg,gray,m_s_005.jpg,gray,within,NA,NaN,NA,left,5111.599999904633,0,0,2583.5
RVyVmoTu,3r0wocg22pm4csvtiwincc3gz22duj,3c8hj7uopb7qp5tasel01e1hcgjzmf,RVyVmoTu,2020-0188,2021-10-14,15:24:01,16:33:37,NA,incomplete,true,NA,true,0,5,NA,NA,NA,right,present,NA,NA,m_s_099.jpg,purple,n_s_074.jpg,red,between,NA,NaN,NA,right,4047.3000000715256,1,3,2087.4000000953674
RVyVmoTu,3r0wocg22pm4csvtiwincc3gz22duj,3c8hj7uopb7qp5tasel01e1hcgjzmf,RVyVmoTu,2020-0188,2021-10-14,15:24:01,16:33:37,NA,incomplete,true,NA,true,0,6,NA,NA,NA,right,present,NA,NA,n_s_045.jpg,black,m_l_072.jpg,black,within,NA,NaN,NA,left,3807.3000000715256,0,2,2319.5
RVyVmoTu,3r0wocg22pm4csvtiwincc3gz22duj,3c8hj7uopb7qp5tasel01e1hcgjzmf,RVyVmoTu,2020-0188,2021-10-14,15:24:01,16:33:37,NA,incomplete,true,NA,true,0,7,NA,NA,NA,left,present,NA,NA,m_s_046.jpg,green,n_l_007.jpg,green,within,NA,NaN,NA,left,5063.399999976158,1,1,1271.4000000953674
RVyVmoTu,3r0wocg22pm4csvtiwincc3gz22duj,3c8hj7uopb7qp5tasel01e1hcgjzmf,RVyVmoTu,2020-0188,2021-10-14,15:24:01,16:33:37,NA,incomplete,true,NA,true,0,8,NA,NA,NA,right,absent,NA,NA,m_l_073.jpg,green,n_s_013.jpg,black,between,NA,NaN,NA,right,3111.5,1,2,1463.5
RVyVmoTu,3r0wocg22pm4csvtiwincc3gz22duj,3c8hj7uopb7qp5tasel01e1hcgjzmf,RVyVmoTu,2020-0188,2021-10-14,15:24:01,16:33:37,NA,incomplete,true,NA,true,0,9,NA,NA,NA,right,absent,NA,NA,n_l_009.jpg,purple,n_s_095.jpg,purple,within,NA,NaN,NA,right,3240.399999976158,1,1,1559.3999999761581
RVyVmoTu,3r0wocg22pm4csvtiwincc3gz22duj,3c8hj7uopb7qp5tasel01e1hcgjzmf,RVyVmoTu,2020-0188,2021-10-14,15:24:01,16:33:37,NA,incomplete,true,NA,true,0,10,NA,NA,NA,right,absent,NA,NA,m_l_099.jpg,brown,m_l_075.jpg,gray,between,NA,NaN,NA,left,3031.600000023842,0,1,1423.4000000953674
RVyVmoTu,3r0wocg22pm4csvtiwincc3gz22duj,3c8hj7uopb7qp5tasel01e1hcgjzmf,RVyVmoTu,2020-0188,2021-10-14,15:24:01,16:33:37,NA,incomplete,false,true,NA,1,0,NA,yellow,m_l_100.jpg,NA,NA,unpleasant,pleasant,NA,NA,NA,NA,NA,left,1894.5,true,NA,NA,NA,NA,NA
RVyVmoTu,3r0wocg22pm4csvtiwincc3gz22duj,3c8hj7uopb7qp5tasel01e1hcgjzmf,RVyVmoTu,2020-0188,2021-10-14,15:24:01,16:33:37,NA,incomplete,false,true,NA,1,1,NA,yellow,m_s_007.jpg,NA,NA,pleasant,unpleasant,NA,NA,NA,NA,NA,left,2340.30000007153,true,NA,NA,NA,NA,NA
RVyVmoTu,3r0wocg22pm4csvtiwincc3gz22duj,3c8hj7uopb7qp5tasel01e1hcgjzmf,RVyVmoTu,2020-0188,2021-10-14,15:24:01,16:33:37,NA,incomplete,false,true,NA,1,2,NA,yellow,n_s_043.jpg,NA,NA,pleasant,unpleasant,NA,NA,NA,NA,NA,right,1216,true,NA,NA,NA,NA,NA
RVyVmoTu,3r0wocg22pm4csvtiwincc3gz22duj,3c8hj7uopb7qp5tasel01e1hcgjzmf,RVyVmoTu,2020-0188,2021-10-14,15:24:01,16:33:37,NA,incomplete,false,true,NA,1,3,NA,yellow,n_l_056.jpg,NA,NA,pleasant,unpleasant,NA,NA,NA,NA,NA,right,1731,true,NA,NA,NA,NA,NA
RVyVmoTu,3r0wocg22pm4csvtiwincc3gz22duj,3c8hj7uopb7qp5tasel01e1hcgjzmf,RVyVmoTu,2020-0188,2021-10-14,15:24:01,16:33:37,NA,incomplete,false,true,NA,1,4,NA,yellow,n_l_046.jpg,NA,NA,pleasant,unpleasant,NA,NA,NA,NA,NA,right,1192.20000004768,true,NA,NA,NA,NA,NA
RVyVmoTu,3r0wocg22pm4csvtiwincc3gz22duj,3c8hj7uopb7qp5tasel01e1hcgjzmf,RVyVmoTu,2020-0188,2021-10-14,15:24:01,16:33:37,NA,incomplete,false,true,NA,1,5,NA,yellow,m_s_062.jpg,NA,NA,pleasant,unpleasant,NA,NA,NA,NA,NA,left,980,true,NA,NA,NA,NA,NA
RVyVmoTu,3r0wocg22pm4csvtiwincc3gz22duj,3c8hj7uopb7qp5tasel01e1hcgjzmf,RVyVmoTu,2020-0188,2021-10-14,15:24:01,16:33:37,NA,incomplete,false,true,NA,1,6,NA,black,m_s_069.jpg,NA,NA,unpleasant,pleasant,NA,NA,NA,NA,NA,right,1632.30000007153,true,NA,NA,NA,NA,NA
RVyVmoTu,3r0wocg22pm4csvtiwincc3gz22duj,3c8hj7uopb7qp5tasel01e1hcgjzmf,RVyVmoTu,2020-0188,2021-10-14,15:24:01,16:33:37,NA,incomplete,false,true,NA,1,7,NA,black,n_l_014.jpg,NA,NA,unpleasant,pleasant,NA,NA,NA,NA,NA,left,1614,true,NA,NA,NA,NA,NA
RVyVmoTu,3r0wocg22pm4csvtiwincc3gz22duj,3c8hj7uopb7qp5tasel01e1hcgjzmf,RVyVmoTu,2020-0188,2021-10-14,15:24:01,16:33:37,NA,incomplete,false,true,NA,1,8,NA,black,n_l_090.jpg,NA,NA,unpleasant,pleasant,NA,NA,NA,NA,NA,right,2025.70000004768,true,NA,NA,NA,NA,NA
RVyVmoTu,3r0wocg22pm4csvtiwincc3gz22duj,3c8hj7uopb7qp5tasel01e1hcgjzmf,RVyVmoTu,2020-0188,2021-10-14,15:24:01,16:33:37,NA,incomplete,false,true,NA,1,9,NA,black,m_l_105.jpg,NA,NA,pleasant,unpleasant,NA,NA,NA,NA,NA,left,2031.30000007153,true,NA,NA,NA,NA,NA
RVyVmoTu,3r0wocg22pm4csvtiwincc3gz22duj,3c8hj7uopb7qp5tasel01e1hcgjzmf,RVyVmoTu,2020-0188,2021-10-14,15:24:01,16:33:37,NA,incomplete,false,true,NA,1,10,NA,black,m_s_060.jpg,NA,NA,unpleasant,pleasant,NA,NA,NA,NA,NA,right,2003.70000004768,true,NA,NA,NA,NA,NA
RVyVmoTu,3r0wocg22pm4csvtiwincc3gz22duj,3c8hj7uopb7qp5tasel01e1hcgjzmf,RVyVmoTu,2020-0188,2021-10-14,15:24:01,16:33:37,NA,incomplete,false,true,NA,1,11,NA,black,n_s_067.jpg,NA,NA,unpleasant,pleasant,NA,NA,NA,NA,NA,left,974.199999928474,true,NA,NA,NA,NA,NA
RVyVmoTu,3r0wocg22pm4csvtiwincc3gz22duj,3c8hj7uopb7qp5tasel01e1hcgjzmf,RVyVmoTu,2020-0188,2021-10-14,15:24:01,16:33:37,NA,incomplete,false,true,NA,1,12,NA,green,m_s_003.jpg,NA,NA,pleasant,unpleasant,NA,NA,NA,NA,NA,left,1833.80000007153,true,NA,NA,NA,NA,NA
RVyVmoTu,3r0wocg22pm4csvtiwincc3gz22duj,3c8hj7uopb7qp5tasel01e1hcgjzmf,RVyVmoTu,2020-0188,2021-10-14,15:24:01,16:33:37,NA,incomplete,false,true,NA,1,13,NA,green,n_l_109.jpg,NA,NA,pleasant,unpleasant,NA,NA,NA,NA,NA,right,1350.30000007153,true,NA,NA,NA,NA,NA
RVyVmoTu,3r0wocg22pm4csvtiwincc3gz22duj,3c8hj7uopb7qp5tasel01e1hcgjzmf,RVyVmoTu,2020-0188,2021-10-14,15:24:01,16:33:37,NA,incomplete,false,true,NA,1,14,NA,green,n_s_021.jpg,NA,NA,pleasant,unpleasant,NA,NA,NA,NA,NA,left,2033.5,true,NA,NA,NA,NA,NA
RVyVmoTu,3r0wocg22pm4csvtiwincc3gz22duj,3c8hj7uopb7qp5tasel01e1hcgjzmf,RVyVmoTu,2020-0188,2021-10-14,15:24:01,16:33:37,NA,incomplete,false,true,NA,1,15,NA,green,m_l_055.jpg,NA,NA,unpleasant,pleasant,NA,NA,NA,NA,NA,left,1847.10000002384,true,NA,NA,NA,NA,NA
RVyVmoTu,3r0wocg22pm4csvtiwincc3gz22duj,3c8hj7uopb7qp5tasel01e1hcgjzmf,RVyVmoTu,2020-0188,2021-10-14,15:24:01,16:33:37,NA,incomplete,false,true,NA,1,16,NA,green,n_l_059.jpg,NA,NA,pleasant,unpleasant,NA,NA,NA,NA,NA,right,1425.80000007153,true,NA,NA,NA,NA,NA
RVyVmoTu,3r0wocg22pm4csvtiwincc3gz22duj,3c8hj7uopb7qp5tasel01e1hcgjzmf,RVyVmoTu,2020-0188,2021-10-14,15:24:01,16:33:37,NA,incomplete,false,true,NA,1,17,NA,green,m_l_098.jpg,NA,NA,unpleasant,pleasant,NA,NA,NA,NA,NA,left,1624.10000002384,true,NA,NA,NA,NA,NA
RVyVmoTu,3r0wocg22pm4csvtiwincc3gz22duj,3c8hj7uopb7qp5tasel01e1hcgjzmf,RVyVmoTu,2020-0188,2021-10-14,15:24:01,16:33:37,NA,incomplete,false,true,NA,1,18,NA,blue,n_l_079.jpg,NA,NA,pleasant,unpleasant,NA,NA,NA,NA,NA,right,1755.90000009537,true,NA,NA,NA,NA,NA
RVyVmoTu,3r0wocg22pm4csvtiwincc3gz22duj,3c8hj7uopb7qp5tasel01e1hcgjzmf,RVyVmoTu,2020-0188,2021-10-14,15:24:01,16:33:37,NA,incomplete,false,true,NA,1,19,NA,blue,m_s_085.jpg,NA,NA,pleasant,unpleasant,NA,NA,NA,NA,NA,left,1166.30000007153,true,NA,NA,NA,NA,NA
RVyVmoTu,3r0wocg22pm4csvtiwincc3gz22duj,3c8hj7uopb7qp5tasel01e1hcgjzmf,RVyVmoTu,2020-0188,2021-10-14,15:24:01,16:33:37,NA,incomplete,false,true,NA,1,20,NA,blue,n_s_061.jpg,NA,NA,pleasant,unpleasant,NA,NA,NA,NA,NA,right,1282.09999990463,true,NA,NA,NA,NA,NA
RVyVmoTu,3r0wocg22pm4csvtiwincc3gz22duj,3c8hj7uopb7qp5tasel01e1hcgjzmf,RVyVmoTu,2020-0188,2021-10-14,15:24:01,16:33:37,NA,incomplete,false,true,NA,1,21,NA,blue,m_s_011.jpg,NA,NA,pleasant,unpleasant,NA,NA,NA,NA,NA,left,1406.30000007153,true,NA,NA,NA,NA,NA
RVyVmoTu,3r0wocg22pm4csvtiwincc3gz22duj,3c8hj7uopb7qp5tasel01e1hcgjzmf,RVyVmoTu,2020-0188,2021-10-14,15:24:01,16:33:37,NA,incomplete,false,true,NA,1,22,NA,blue,m_s_066.jpg,NA,NA,unpleasant,pleasant,NA,NA,NA,NA,NA,right,1193.70000004768,true,NA,NA,NA,NA,NA
RVyVmoTu,3r0wocg22pm4csvtiwincc3gz22duj,3c8hj7uopb7qp5tasel01e1hcgjzmf,RVyVmoTu,2020-0188,2021-10-14,15:24:01,16:33:37,NA,incomplete,false,true,NA,1,23,NA,blue,n_s_085.jpg,NA,NA,pleasant,unpleasant,NA,NA,NA,NA,NA,right,1158.39999997616,true,NA,NA,NA,NA,NA
RVyVmoTu,3r0wocg22pm4csvtiwincc3gz22duj,3c8hj7uopb7qp5tasel01e1hcgjzmf,RVyVmoTu,2020-0188,2021-10-14,15:24:01,16:33:37,NA,incomplete,false,true,NA,1,24,NA,purple,m_l_064.jpg,NA,NA,unpleasant,pleasant,NA,NA,NA,NA,NA,right,1523.39999997616,true,NA,NA,NA,NA,NA
RVyVmoTu,3r0wocg22pm4csvtiwincc3gz22duj,3c8hj7uopb7qp5tasel01e1hcgjzmf,RVyVmoTu,2020-0188,2021-10-14,15:24:01,16:33:37,NA,incomplete,false,true,NA,1,25,NA,purple,n_l_072.jpg,NA,NA,pleasant,unpleasant,NA,NA,NA,NA,NA,right,1352.29999995232,true,NA,NA,NA,NA,NA
RVyVmoTu,3r0wocg22pm4csvtiwincc3gz22duj,3c8hj7uopb7qp5tasel01e1hcgjzmf,RVyVmoTu,2020-0188,2021-10-14,15:24:01,16:33:37,NA,incomplete,false,true,NA,1,26,NA,purple,n_s_055.jpg,NA,NA,unpleasant,pleasant,NA,NA,NA,NA,NA,left,1692.39999997616,true,NA,NA,NA,NA,NA
RVyVmoTu,3r0wocg22pm4csvtiwincc3gz22duj,3c8hj7uopb7qp5tasel01e1hcgjzmf,RVyVmoTu,2020-0188,2021-10-14,15:24:01,16:33:37,NA,incomplete,false,true,NA,1,27,NA,purple,n_l_099.jpg,NA,NA,pleasant,unpleasant,NA,NA,NA,NA,NA,right,1440,true,NA,NA,NA,NA,NA
RVyVmoTu,3r0wocg22pm4csvtiwincc3gz22duj,3c8hj7uopb7qp5tasel01e1hcgjzmf,RVyVmoTu,2020-0188,2021-10-14,15:24:01,16:33:37,NA,incomplete,false,true,NA,1,28,NA,purple,m_l_004.jpg,NA,NA,pleasant,unpleasant,NA,NA,NA,NA,NA,left,1043.5,true,NA,NA,NA,NA,NA
RVyVmoTu,3r0wocg22pm4csvtiwincc3gz22duj,3c8hj7uopb7qp5tasel01e1hcgjzmf,RVyVmoTu,2020-0188,2021-10-14,15:24:01,16:33:37,NA,incomplete,false,true,NA,1,29,NA,purple,m_l_116.jpg,NA,NA,unpleasant,pleasant,NA,NA,NA,NA,NA,right,1983.39999997616,true,NA,NA,NA,NA,NA
RVyVmoTu,3r0wocg22pm4csvtiwincc3gz22duj,3c8hj7uopb7qp5tasel01e1hcgjzmf,RVyVmoTu,2020-0188,2021-10-14,15:24:01,16:33:37,NA,incomplete,false,true,NA,1,30,NA,gray,m_l_078.jpg,NA,NA,pleasant,unpleasant,NA,NA,NA,NA,NA,left,2236,true,NA,NA,NA,NA,NA
RVyVmoTu,3r0wocg22pm4csvtiwincc3gz22duj,3c8hj7uopb7qp5tasel01e1hcgjzmf,RVyVmoTu,2020-0188,2021-10-14,15:24:01,16:33:37,NA,incomplete,false,true,NA,1,31,NA,gray,m_l_016.jpg,NA,NA,pleasant,unpleasant,NA,NA,NA,NA,NA,left,1624.70000004768,true,NA,NA,NA,NA,NA
RVyVmoTu,3r0wocg22pm4csvtiwincc3gz22duj,3c8hj7uopb7qp5tasel01e1hcgjzmf,RVyVmoTu,2020-0188,2021-10-14,15:24:01,16:33:37,NA,incomplete,false,true,NA,1,32,NA,gray,m_s_048.jpg,NA,NA,pleasant,unpleasant,NA,NA,NA,NA,NA,left,1516,true,NA,NA,NA,NA,NA
RVyVmoTu,3r0wocg22pm4csvtiwincc3gz22duj,3c8hj7uopb7qp5tasel01e1hcgjzmf,RVyVmoTu,2020-0188,2021-10-14,15:24:01,16:33:37,NA,incomplete,false,true,NA,1,33,NA,gray,m_l_029.jpg,NA,NA,unpleasant,pleasant,NA,NA,NA,NA,NA,left,1752.89999997616,true,NA,NA,NA,NA,NA
RVyVmoTu,3r0wocg22pm4csvtiwincc3gz22duj,3c8hj7uopb7qp5tasel01e1hcgjzmf,RVyVmoTu,2020-0188,2021-10-14,15:24:01,16:33:37,NA,incomplete,false,true,NA,1,34,NA,gray,m_s_114.jpg,NA,NA,unpleasant,pleasant,NA,NA,NA,NA,NA,left,2052.39999997616,true,NA,NA,NA,NA,NA
RVyVmoTu,3r0wocg22pm4csvtiwincc3gz22duj,3c8hj7uopb7qp5tasel01e1hcgjzmf,RVyVmoTu,2020-0188,2021-10-14,15:24:01,16:33:37,NA,incomplete,false,true,NA,1,35,NA,gray,n_s_111.jpg,NA,NA,pleasant,unpleasant,NA,NA,NA,NA,NA,right,1591.20000004768,true,NA,NA,NA,NA,NA
RVyVmoTu,3r0wocg22pm4csvtiwincc3gz22duj,3c8hj7uopb7qp5tasel01e1hcgjzmf,RVyVmoTu,2020-0188,2021-10-14,15:24:01,16:33:37,NA,incomplete,false,NA,true,1,0,NA,NA,NA,left,absent,NA,NA,n_l_014.jpg,black,n_s_067.jpg,black,within,NA,NaN,NA,left,3119.2000000476837,1,1,1463.4000000953674
RVyVmoTu,3r0wocg22pm4csvtiwincc3gz22duj,3c8hj7uopb7qp5tasel01e1hcgjzmf,RVyVmoTu,2020-0188,2021-10-14,15:24:01,16:33:37,NA,incomplete,false,NA,true,1,1,NA,NA,NA,right,absent,NA,NA,m_s_062.jpg,yellow,m_s_007.jpg,yellow,within,NA,NaN,NA,right,4071.5,1,0,2919.4000000953674
RVyVmoTu,3r0wocg22pm4csvtiwincc3gz22duj,3c8hj7uopb7qp5tasel01e1hcgjzmf,RVyVmoTu,2020-0188,2021-10-14,15:24:01,16:33:37,NA,incomplete,false,NA,true,1,2,NA,NA,NA,left,absent,NA,NA,n_l_072.jpg,purple,m_l_116.jpg,purple,within,NA,NaN,NA,left,3055.2000000476837,1,3,1199.4000000953674
RVyVmoTu,3r0wocg22pm4csvtiwincc3gz22duj,3c8hj7uopb7qp5tasel01e1hcgjzmf,RVyVmoTu,2020-0188,2021-10-14,15:24:01,16:33:37,NA,incomplete,false,NA,true,1,3,NA,NA,NA,left,absent,NA,NA,n_l_059.jpg,green,n_s_061.jpg,blue,between,NA,NaN,NA,left,2439.4000000953674,1,2,1351.5
RVyVmoTu,3r0wocg22pm4csvtiwincc3gz22duj,3c8hj7uopb7qp5tasel01e1hcgjzmf,RVyVmoTu,2020-0188,2021-10-14,15:24:01,16:33:37,NA,incomplete,false,NA,true,1,4,NA,NA,NA,left,absent,NA,NA,m_s_060.jpg,black,n_s_021.jpg,green,between,NA,NaN,NA,left,2071.5,1,3,1687.5
RVyVmoTu,3r0wocg22pm4csvtiwincc3gz22duj,3c8hj7uopb7qp5tasel01e1hcgjzmf,RVyVmoTu,2020-0188,2021-10-14,15:24:01,16:33:37,NA,incomplete,false,NA,true,1,5,NA,NA,NA,left,absent,NA,NA,n_l_046.jpg,yellow,n_l_090.jpg,black,between,NA,NaN,NA,left,5607.599999904633,1,0,1599.8999999761581
RVyVmoTu,3r0wocg22pm4csvtiwincc3gz22duj,3c8hj7uopb7qp5tasel01e1hcgjzmf,RVyVmoTu,2020-0188,2021-10-14,15:24:01,16:33:37,NA,incomplete,false,NA,true,1,6,NA,NA,NA,right,absent,NA,NA,m_l_098.jpg,green,n_l_109.jpg,green,within,NA,NaN,NA,right,4887.400000095367,1,2,863.3999999761581
RVyVmoTu,3r0wocg22pm4csvtiwincc3gz22duj,3c8hj7uopb7qp5tasel01e1hcgjzmf,RVyVmoTu,2020-0188,2021-10-14,15:24:01,16:33:37,NA,incomplete,false,NA,true,1,7,NA,NA,NA,left,absent,NA,NA,m_s_066.jpg,blue,n_s_055.jpg,purple,between,NA,NaN,NA,left,3431.5,1,2,2239.4000000953674
RVyVmoTu,3r0wocg22pm4csvtiwincc3gz22duj,3c8hj7uopb7qp5tasel01e1hcgjzmf,RVyVmoTu,2020-0188,2021-10-14,15:24:01,16:33:37,NA,incomplete,false,NA,true,1,8,NA,NA,NA,left,absent,NA,NA,m_l_016.jpg,gray,n_s_111.jpg,gray,within,NA,NaN,NA,left,2775.5,1,3,1031.3000000715256
RVyVmoTu,3r0wocg22pm4csvtiwincc3gz22duj,3c8hj7uopb7qp5tasel01e1hcgjzmf,RVyVmoTu,2020-0188,2021-10-14,15:24:01,16:33:37,NA,incomplete,false,NA,true,1,9,NA,NA,NA,left,absent,NA,NA,m_s_085.jpg,blue,n_s_085.jpg,blue,within,NA,NaN,NA,right,2335.4000000953674,0,3,1743.5
RVyVmoTu,3r0wocg22pm4csvtiwincc3gz22duj,3c8hj7uopb7qp5tasel01e1hcgjzmf,RVyVmoTu,2020-0188,2021-10-14,15:24:01,16:33:37,NA,incomplete,false,NA,true,1,10,NA,NA,NA,left,absent,NA,NA,m_l_004.jpg,purple,m_s_048.jpg,gray,between,NA,NaN,NA,right,3087.3000000715256,0,2,1407.6000000238419
RVyVmoTu,3r0wocg22pm4csvtiwincc3gz22duj,3c8hj7uopb7qp5tasel01e1hcgjzmf,RVyVmoTu,2020-0188,2021-10-14,15:24:01,16:33:37,NA,incomplete,false,true,NA,2,0,NA,purple,m_s_015.jpg,NA,NA,pleasant,unpleasant,NA,NA,NA,NA,NA,left,1879.40000009537,true,NA,NA,NA,NA,NA
RVyVmoTu,3r0wocg22pm4csvtiwincc3gz22duj,3c8hj7uopb7qp5tasel01e1hcgjzmf,RVyVmoTu,2020-0188,2021-10-14,15:24:01,16:33:37,NA,incomplete,false,true,NA,2,1,NA,purple,n_l_004.jpg,NA,NA,pleasant,unpleasant,NA,NA,NA,NA,NA,right,1419.90000009537,true,NA,NA,NA,NA,NA
RVyVmoTu,3r0wocg22pm4csvtiwincc3gz22duj,3c8hj7uopb7qp5tasel01e1hcgjzmf,RVyVmoTu,2020-0188,2021-10-14,15:24:01,16:33:37,NA,incomplete,false,true,NA,2,2,NA,purple,n_s_105.jpg,NA,NA,unpleasant,pleasant,NA,NA,NA,NA,NA,right,1864.10000002384,true,NA,NA,NA,NA,NA
RVyVmoTu,3r0wocg22pm4csvtiwincc3gz22duj,3c8hj7uopb7qp5tasel01e1hcgjzmf,RVyVmoTu,2020-0188,2021-10-14,15:24:01,16:33:37,NA,incomplete,false,true,NA,2,3,NA,purple,m_s_096.jpg,NA,NA,pleasant,unpleasant,NA,NA,NA,NA,NA,left,1100.20000004768,true,NA,NA,NA,NA,NA
RVyVmoTu,3r0wocg22pm4csvtiwincc3gz22duj,3c8hj7uopb7qp5tasel01e1hcgjzmf,RVyVmoTu,2020-0188,2021-10-14,15:24:01,16:33:37,NA,incomplete,false,true,NA,2,4,NA,purple,m_l_014.jpg,NA,NA,pleasant,unpleasant,NA,NA,NA,NA,NA,left,1256,true,NA,NA,NA,NA,NA
RVyVmoTu,3r0wocg22pm4csvtiwincc3gz22duj,3c8hj7uopb7qp5tasel01e1hcgjzmf,RVyVmoTu,2020-0188,2021-10-14,15:24:01,16:33:37,NA,incomplete,false,true,NA,2,5,NA,purple,n_l_080.jpg,NA,NA,unpleasant,pleasant,NA,NA,NA,NA,NA,left,1612.29999995232,true,NA,NA,NA,NA,NA
RVyVmoTu,3r0wocg22pm4csvtiwincc3gz22duj,3c8hj7uopb7qp5tasel01e1hcgjzmf,RVyVmoTu,2020-0188,2021-10-14,15:24:01,16:33:37,NA,incomplete,false,true,NA,2,6,NA,brown,n_s_033.jpg,NA,NA,unpleasant,pleasant,NA,NA,NA,NA,NA,right,1528.5,true,NA,NA,NA,NA,NA
RVyVmoTu,3r0wocg22pm4csvtiwincc3gz22duj,3c8hj7uopb7qp5tasel01e1hcgjzmf,RVyVmoTu,2020-0188,2021-10-14,15:24:01,16:33:37,NA,incomplete,false,true,NA,2,7,NA,brown,m_s_008.jpg,NA,NA,pleasant,unpleasant,NA,NA,NA,NA,NA,right,1771.39999997616,true,NA,NA,NA,NA,NA
RVyVmoTu,3r0wocg22pm4csvtiwincc3gz22duj,3c8hj7uopb7qp5tasel01e1hcgjzmf,RVyVmoTu,2020-0188,2021-10-14,15:24:01,16:33:37,NA,incomplete,false,true,NA,2,8,NA,brown,m_s_041.jpg,NA,NA,unpleasant,pleasant,NA,NA,NA,NA,NA,left,1352.10000002384,true,NA,NA,NA,NA,NA
RVyVmoTu,3r0wocg22pm4csvtiwincc3gz22duj,3c8hj7uopb7qp5tasel01e1hcgjzmf,RVyVmoTu,2020-0188,2021-10-14,15:24:01,16:33:37,NA,incomplete,false,true,NA,2,9,NA,brown,m_s_050.jpg,NA,NA,unpleasant,pleasant,NA,NA,NA,NA,NA,right,1604.80000007153,true,NA,NA,NA,NA,NA
RVyVmoTu,3r0wocg22pm4csvtiwincc3gz22duj,3c8hj7uopb7qp5tasel01e1hcgjzmf,RVyVmoTu,2020-0188,2021-10-14,15:24:01,16:33:37,NA,incomplete,false,true,NA,2,10,NA,brown,m_s_117.jpg,NA,NA,pleasant,unpleasant,NA,NA,NA,NA,NA,right,2208.69999992847,true,NA,NA,NA,NA,NA
RVyVmoTu,3r0wocg22pm4csvtiwincc3gz22duj,3c8hj7uopb7qp5tasel01e1hcgjzmf,RVyVmoTu,2020-0188,2021-10-14,15:24:01,16:33:37,NA,incomplete,false,true,NA,2,11,NA,brown,m_l_024.jpg,NA,NA,pleasant,unpleasant,NA,NA,NA,NA,NA,left,1285.39999997616,true,NA,NA,NA,NA,NA
RVyVmoTu,3r0wocg22pm4csvtiwincc3gz22duj,3c8hj7uopb7qp5tasel01e1hcgjzmf,RVyVmoTu,2020-0188,2021-10-14,15:24:01,16:33:37,NA,incomplete,false,true,NA,2,12,NA,orange,m_s_001.jpg,NA,NA,unpleasant,pleasant,NA,NA,NA,NA,NA,left,1640.10000002384,true,NA,NA,NA,NA,NA
RVyVmoTu,3r0wocg22pm4csvtiwincc3gz22duj,3c8hj7uopb7qp5tasel01e1hcgjzmf,RVyVmoTu,2020-0188,2021-10-14,15:24:01,16:33:37,NA,incomplete,false,true,NA,2,13,NA,orange,n_l_091.jpg,NA,NA,pleasant,unpleasant,NA,NA,NA,NA,NA,right,1205.19999992847,true,NA,NA,NA,NA,NA
RVyVmoTu,3r0wocg22pm4csvtiwincc3gz22duj,3c8hj7uopb7qp5tasel01e1hcgjzmf,RVyVmoTu,2020-0188,2021-10-14,15:24:01,16:33:37,NA,incomplete,false,true,NA,2,14,NA,orange,n_l_039.jpg,NA,NA,pleasant,unpleasant,NA,NA,NA,NA,NA,right,1337,true,NA,NA,NA,NA,NA
RVyVmoTu,3r0wocg22pm4csvtiwincc3gz22duj,3c8hj7uopb7qp5tasel01e1hcgjzmf,RVyVmoTu,2020-0188,2021-10-14,15:24:01,16:33:37,NA,incomplete,false,true,NA,2,15,NA,orange,m_l_056.jpg,NA,NA,unpleasant,pleasant,NA,NA,NA,NA,NA,right,1908.60000002384,true,NA,NA,NA,NA,NA
RVyVmoTu,3r0wocg22pm4csvtiwincc3gz22duj,3c8hj7uopb7qp5tasel01e1hcgjzmf,RVyVmoTu,2020-0188,2021-10-14,15:24:01,16:33:37,NA,incomplete,false,true,NA,2,16,NA,orange,n_l_092.jpg,NA,NA,unpleasant,pleasant,NA,NA,NA,NA,NA,left,1649.20000004768,true,NA,NA,NA,NA,NA
RVyVmoTu,3r0wocg22pm4csvtiwincc3gz22duj,3c8hj7uopb7qp5tasel01e1hcgjzmf,RVyVmoTu,2020-0188,2021-10-14,15:24:01,16:33:37,NA,incomplete,false,true,NA,2,17,NA,orange,m_s_034.jpg,NA,NA,unpleasant,pleasant,NA,NA,NA,NA,NA,left,1590,true,NA,NA,NA,NA,NA
RVyVmoTu,3r0wocg22pm4csvtiwincc3gz22duj,3c8hj7uopb7qp5tasel01e1hcgjzmf,RVyVmoTu,2020-0188,2021-10-14,15:24:01,16:33:37,NA,incomplete,false,true,NA,2,18,NA,white,n_s_037.jpg,NA,NA,unpleasant,pleasant,NA,NA,NA,NA,NA,right,1384.29999995232,true,NA,NA,NA,NA,NA
RVyVmoTu,3r0wocg22pm4csvtiwincc3gz22duj,3c8hj7uopb7qp5tasel01e1hcgjzmf,RVyVmoTu,2020-0188,2021-10-14,15:24:01,16:33:37,NA,incomplete,false,true,NA,2,19,NA,white,m_s_021.jpg,NA,NA,pleasant,unpleasant,NA,NA,NA,NA,NA,left,1469.5,true,NA,NA,NA,NA,NA
RVyVmoTu,3r0wocg22pm4csvtiwincc3gz22duj,3c8hj7uopb7qp5tasel01e1hcgjzmf,RVyVmoTu,2020-0188,2021-10-14,15:24:01,16:33:37,NA,incomplete,false,true,NA,2,20,NA,white,m_l_088.jpg,NA,NA,unpleasant,pleasant,NA,NA,NA,NA,NA,right,1721.69999992847,true,NA,NA,NA,NA,NA
RVyVmoTu,3r0wocg22pm4csvtiwincc3gz22duj,3c8hj7uopb7qp5tasel01e1hcgjzmf,RVyVmoTu,2020-0188,2021-10-14,15:24:01,16:33:37,NA,incomplete,false,true,NA,2,21,NA,white,m_l_058.jpg,NA,NA,pleasant,unpleasant,NA,NA,NA,NA,NA,left,1413.39999997616,true,NA,NA,NA,NA,NA
RVyVmoTu,3r0wocg22pm4csvtiwincc3gz22duj,3c8hj7uopb7qp5tasel01e1hcgjzmf,RVyVmoTu,2020-0188,2021-10-14,15:24:01,16:33:37,NA,incomplete,false,true,NA,2,22,NA,white,n_l_093.jpg,NA,NA,unpleasant,pleasant,NA,NA,NA,NA,NA,left,1513.89999997616,true,NA,NA,NA,NA,NA
RVyVmoTu,3r0wocg22pm4csvtiwincc3gz22duj,3c8hj7uopb7qp5tasel01e1hcgjzmf,RVyVmoTu,2020-0188,2021-10-14,15:24:01,16:33:37,NA,incomplete,false,true,NA,2,23,NA,white,n_l_113.jpg,NA,NA,pleasant,unpleasant,NA,NA,NA,NA,NA,left,2214.5,true,NA,NA,NA,NA,NA
RVyVmoTu,3r0wocg22pm4csvtiwincc3gz22duj,3c8hj7uopb7qp5tasel01e1hcgjzmf,RVyVmoTu,2020-0188,2021-10-14,15:24:01,16:33:37,NA,incomplete,false,true,NA,2,24,NA,gray,n_s_094.jpg,NA,NA,unpleasant,pleasant,NA,NA,NA,NA,NA,right,1250.89999997616,true,NA,NA,NA,NA,NA
RVyVmoTu,3r0wocg22pm4csvtiwincc3gz22duj,3c8hj7uopb7qp5tasel01e1hcgjzmf,RVyVmoTu,2020-0188,2021-10-14,15:24:01,16:33:37,NA,incomplete,false,true,NA,2,25,NA,gray,m_l_010.jpg,NA,NA,pleasant,unpleasant,NA,NA,NA,NA,NA,left,1070.70000004768,true,NA,NA,NA,NA,NA
RVyVmoTu,3r0wocg22pm4csvtiwincc3gz22duj,3c8hj7uopb7qp5tasel01e1hcgjzmf,RVyVmoTu,2020-0188,2021-10-14,15:24:01,16:33:37,NA,incomplete,false,true,NA,2,26,NA,gray,n_l_040.jpg,NA,NA,unpleasant,pleasant,NA,NA,NA,NA,NA,left,1282.69999992847,true,NA,NA,NA,NA,NA
RVyVmoTu,3r0wocg22pm4csvtiwincc3gz22duj,3c8hj7uopb7qp5tasel01e1hcgjzmf,RVyVmoTu,2020-0188,2021-10-14,15:24:01,16:33:37,NA,incomplete,false,true,NA,2,27,NA,gray,n_l_022.jpg,NA,NA,unpleasant,pleasant,NA,NA,NA,NA,NA,left,1655,true,NA,NA,NA,NA,NA
RVyVmoTu,3r0wocg22pm4csvtiwincc3gz22duj,3c8hj7uopb7qp5tasel01e1hcgjzmf,RVyVmoTu,2020-0188,2021-10-14,15:24:01,16:33:37,NA,incomplete,false,true,NA,2,28,NA,gray,m_l_028.jpg,NA,NA,pleasant,unpleasant,NA,NA,NA,NA,NA,left,1914.80000007153,true,NA,NA,NA,NA,NA
RVyVmoTu,3r0wocg22pm4csvtiwincc3gz22duj,3c8hj7uopb7qp5tasel01e1hcgjzmf,RVyVmoTu,2020-0188,2021-10-14,15:24:01,16:33:37,NA,incomplete,false,true,NA,2,29,NA,gray,m_l_095.jpg,NA,NA,unpleasant,pleasant,NA,NA,NA,NA,NA,right,2063.60000002384,true,NA,NA,NA,NA,NA
RVyVmoTu,3r0wocg22pm4csvtiwincc3gz22duj,3c8hj7uopb7qp5tasel01e1hcgjzmf,RVyVmoTu,2020-0188,2021-10-14,15:24:01,16:33:37,NA,incomplete,false,true,NA,2,30,NA,yellow,n_s_028.jpg,NA,NA,unpleasant,pleasant,NA,NA,NA,NA,NA,right,1540.29999995232,true,NA,NA,NA,NA,NA
RVyVmoTu,3r0wocg22pm4csvtiwincc3gz22duj,3c8hj7uopb7qp5tasel01e1hcgjzmf,RVyVmoTu,2020-0188,2021-10-14,15:24:01,16:33:37,NA,incomplete,false,true,NA,2,31,NA,yellow,n_l_083.jpg,NA,NA,pleasant,unpleasant,NA,NA,NA,NA,NA,right,1407.90000009537,true,NA,NA,NA,NA,NA
RVyVmoTu,3r0wocg22pm4csvtiwincc3gz22duj,3c8hj7uopb7qp5tasel01e1hcgjzmf,RVyVmoTu,2020-0188,2021-10-14,15:24:01,16:33:37,NA,incomplete,false,true,NA,2,32,NA,yellow,n_s_076.jpg,NA,NA,pleasant,unpleasant,NA,NA,NA,NA,NA,right,2109.60000002384,true,NA,NA,NA,NA,NA
RVyVmoTu,3r0wocg22pm4csvtiwincc3gz22duj,3c8hj7uopb7qp5tasel01e1hcgjzmf,RVyVmoTu,2020-0188,2021-10-14,15:24:01,16:33:37,NA,incomplete,false,true,NA,2,33,NA,yellow,n_s_101.jpg,NA,NA,unpleasant,pleasant,NA,NA,NA,NA,NA,left,1544.20000004768,true,NA,NA,NA,NA,NA
RVyVmoTu,3r0wocg22pm4csvtiwincc3gz22duj,3c8hj7uopb7qp5tasel01e1hcgjzmf,RVyVmoTu,2020-0188,2021-10-14,15:24:01,16:33:37,NA,incomplete,false,true,NA,2,34,NA,yellow,m_s_116.jpg,NA,NA,unpleasant,pleasant,NA,NA,NA,NA,NA,right,1052.70000004768,true,NA,NA,NA,NA,NA
RVyVmoTu,3r0wocg22pm4csvtiwincc3gz22duj,3c8hj7uopb7qp5tasel01e1hcgjzmf,RVyVmoTu,2020-0188,2021-10-14,15:24:01,16:33:37,NA,incomplete,false,true,NA,2,35,NA,yellow,m_s_057.jpg,NA,NA,unpleasant,pleasant,NA,NA,NA,NA,NA,left,2193.10000002384,true,NA,NA,NA,NA,NA
RVyVmoTu,3r0wocg22pm4csvtiwincc3gz22duj,3c8hj7uopb7qp5tasel01e1hcgjzmf,RVyVmoTu,2020-0188,2021-10-14,15:24:01,16:33:37,NA,incomplete,false,NA,true,2,0,NA,NA,NA,right,present,NA,NA,m_s_034.jpg,orange,n_l_091.jpg,orange,within,NA,NaN,NA,right,5999.099999904633,1,2,1311.1999999284744
RVyVmoTu,3r0wocg22pm4csvtiwincc3gz22duj,3c8hj7uopb7qp5tasel01e1hcgjzmf,RVyVmoTu,2020-0188,2021-10-14,15:24:01,16:33:37,NA,incomplete,false,NA,true,2,1,NA,NA,NA,right,present,NA,NA,m_s_041.jpg,brown,m_l_014.jpg,purple,between,NA,NaN,NA,right,2943.1999999284744,1,1,1599.1999999284744
RVyVmoTu,3r0wocg22pm4csvtiwincc3gz22duj,3c8hj7uopb7qp5tasel01e1hcgjzmf,RVyVmoTu,2020-0188,2021-10-14,15:24:01,16:33:37,NA,incomplete,false,NA,true,2,2,NA,NA,NA,left,present,NA,NA,m_s_117.jpg,brown,n_l_039.jpg,orange,between,NA,NaN,NA,right,10311.199999928474,0,3,1991.5
RVyVmoTu,3r0wocg22pm4csvtiwincc3gz22duj,3c8hj7uopb7qp5tasel01e1hcgjzmf,RVyVmoTu,2020-0188,2021-10-14,15:24:01,16:33:37,NA,incomplete,false,NA,true,2,3,NA,NA,NA,left,present,NA,NA,n_l_083.jpg,yellow,m_s_057.jpg,yellow,within,NA,NaN,NA,left,5311.399999976158,1,1,1679.5999999046326
RVyVmoTu,3r0wocg22pm4csvtiwincc3gz22duj,3c8hj7uopb7qp5tasel01e1hcgjzmf,RVyVmoTu,2020-0188,2021-10-14,15:24:01,16:33:37,NA,incomplete,false,NA,true,2,4,NA,NA,NA,left,present,NA,NA,m_l_010.jpg,gray,m_l_095.jpg,gray,within,NA,NaN,NA,left,4383.200000047684,1,0,1023.3999999761581
RVyVmoTu,3r0wocg22pm4csvtiwincc3gz22duj,3c8hj7uopb7qp5tasel01e1hcgjzmf,RVyVmoTu,2020-0188,2021-10-14,15:24:01,16:33:37,NA,incomplete,false,NA,true,2,5,NA,NA,NA,left,present,NA,NA,m_s_008.jpg,brown,m_l_024.jpg,brown,within,NA,NaN,NA,left,5799.300000071526,1,0,1487.4000000953674
RVyVmoTu,3r0wocg22pm4csvtiwincc3gz22duj,3c8hj7uopb7qp5tasel01e1hcgjzmf,RVyVmoTu,2020-0188,2021-10-14,15:24:01,16:33:37,NA,incomplete,false,NA,true,2,6,NA,NA,NA,right,present,NA,NA,n_l_113.jpg,white,m_s_021.jpg,white,within,NA,NaN,NA,right,3847.4000000953674,1,1,2415.5
RVyVmoTu,3r0wocg22pm4csvtiwincc3gz22duj,3c8hj7uopb7qp5tasel01e1hcgjzmf,RVyVmoTu,2020-0188,2021-10-14,15:24:01,16:33:37,NA,incomplete,false,NA,true,2,7,NA,NA,NA,left,present,NA,NA,n_l_093.jpg,white,n_l_040.jpg,gray,between,NA,NaN,NA,left,2663.3000000715256,1,2,1351.3000000715256
RVyVmoTu,3r0wocg22pm4csvtiwincc3gz22duj,3c8hj7uopb7qp5tasel01e1hcgjzmf,RVyVmoTu,2020-0188,2021-10-14,15:24:01,16:33:37,NA,incomplete,false,NA,true,2,8,NA,NA,NA,right,present,NA,NA,n_l_080.jpg,purple,n_l_004.jpg,purple,within,NA,NaN,NA,right,3895.4000000953674,1,2,2095.5
RVyVmoTu,3r0wocg22pm4csvtiwincc3gz22duj,3c8hj7uopb7qp5tasel01e1hcgjzmf,RVyVmoTu,2020-0188,2021-10-14,15:24:01,16:33:37,NA,incomplete,false,NA,true,2,9,NA,NA,NA,left,present,NA,NA,n_l_092.jpg,orange,m_l_088.jpg,white,between,NA,NaN,NA,left,4727.300000071526,1,3,1511.5
RVyVmoTu,3r0wocg22pm4csvtiwincc3gz22duj,3c8hj7uopb7qp5tasel01e1hcgjzmf,RVyVmoTu,2020-0188,2021-10-14,15:24:01,16:33:37,NA,incomplete,false,NA,true,2,10,NA,NA,NA,right,present,NA,NA,n_s_076.jpg,yellow,m_l_028.jpg,gray,between,NA,NaN,NA,right,3015.3000000715256,1,2,1719.4000000953674
RVyVmoTu,3r0wocg22pm4csvtiwincc3gz22duj,3c8hj7uopb7qp5tasel01e1hcgjzmf,RVyVmoTu,2020-0188,2021-10-14,15:24:01,16:33:37,NA,incomplete,false,true,NA,3,0,NA,red,m_l_059.jpg,NA,NA,unpleasant,pleasant,NA,NA,NA,NA,NA,right,1706.5,true,NA,NA,NA,NA,NA
RVyVmoTu,3r0wocg22pm4csvtiwincc3gz22duj,3c8hj7uopb7qp5tasel01e1hcgjzmf,RVyVmoTu,2020-0188,2021-10-14,15:24:01,16:33:37,NA,incomplete,false,true,NA,3,1,NA,red,m_l_017.jpg,NA,NA,unpleasant,pleasant,NA,NA,NA,NA,NA,left,1301.40000009537,true,NA,NA,NA,NA,NA
RVyVmoTu,3r0wocg22pm4csvtiwincc3gz22duj,3c8hj7uopb7qp5tasel01e1hcgjzmf,RVyVmoTu,2020-0188,2021-10-14,15:24:01,16:33:37,NA,incomplete,false,true,NA,3,2,NA,red,n_s_038.jpg,NA,NA,pleasant,unpleasant,NA,NA,NA,NA,NA,right,1522,true,NA,NA,NA,NA,NA
RVyVmoTu,3r0wocg22pm4csvtiwincc3gz22duj,3c8hj7uopb7qp5tasel01e1hcgjzmf,RVyVmoTu,2020-0188,2021-10-14,15:24:01,16:33:37,NA,incomplete,false,true,NA,3,3,NA,red,m_s_101.jpg,NA,NA,unpleasant,pleasant,NA,NA,NA,NA,NA,right,1678.39999997616,true,NA,NA,NA,NA,NA
RVyVmoTu,3r0wocg22pm4csvtiwincc3gz22duj,3c8hj7uopb7qp5tasel01e1hcgjzmf,RVyVmoTu,2020-0188,2021-10-14,15:24:01,16:33:37,NA,incomplete,false,true,NA,3,4,NA,red,n_l_105.jpg,NA,NA,unpleasant,pleasant,NA,NA,NA,NA,NA,right,1904.80000007153,true,NA,NA,NA,NA,NA
RVyVmoTu,3r0wocg22pm4csvtiwincc3gz22duj,3c8hj7uopb7qp5tasel01e1hcgjzmf,RVyVmoTu,2020-0188,2021-10-14,15:24:01,16:33:37,NA,incomplete,false,true,NA,3,5,NA,red,n_s_117.jpg,NA,NA,pleasant,unpleasant,NA,NA,NA,NA,NA,right,1846.20000004768,true,NA,NA,NA,NA,NA
RVyVmoTu,3r0wocg22pm4csvtiwincc3gz22duj,3c8hj7uopb7qp5tasel01e1hcgjzmf,RVyVmoTu,2020-0188,2021-10-14,15:24:01,16:33:37,NA,incomplete,false,true,NA,3,6,NA,blue,m_l_041.jpg,NA,NA,unpleasant,pleasant,NA,NA,NA,NA,NA,right,1433.29999995232,true,NA,NA,NA,NA,NA
RVyVmoTu,3r0wocg22pm4csvtiwincc3gz22duj,3c8hj7uopb7qp5tasel01e1hcgjzmf,RVyVmoTu,2020-0188,2021-10-14,15:24:01,16:33:37,NA,incomplete,false,true,NA,3,7,NA,blue,n_l_005.jpg,NA,NA,pleasant,unpleasant,NA,NA,NA,NA,NA,right,1590.30000007153,true,NA,NA,NA,NA,NA
RVyVmoTu,3r0wocg22pm4csvtiwincc3gz22duj,3c8hj7uopb7qp5tasel01e1hcgjzmf,RVyVmoTu,2020-0188,2021-10-14,15:24:01,16:33:37,NA,incomplete,false,true,NA,3,8,NA,blue,n_s_081.jpg,NA,NA,pleasant,unpleasant,NA,NA,NA,NA,NA,left,1657.10000002384,true,NA,NA,NA,NA,NA
RVyVmoTu,3r0wocg22pm4csvtiwincc3gz22duj,3c8hj7uopb7qp5tasel01e1hcgjzmf,RVyVmoTu,2020-0188,2021-10-14,15:24:01,16:33:37,NA,incomplete,false,true,NA,3,9,NA,blue,m_s_047.jpg,NA,NA,unpleasant,pleasant,NA,NA,NA,NA,NA,right,1478.20000004768,true,NA,NA,NA,NA,NA
RVyVmoTu,3r0wocg22pm4csvtiwincc3gz22duj,3c8hj7uopb7qp5tasel01e1hcgjzmf,RVyVmoTu,2020-0188,2021-10-14,15:24:01,16:33:37,NA,incomplete,false,true,NA,3,10,NA,blue,n_s_110.jpg,NA,NA,pleasant,unpleasant,NA,NA,NA,NA,NA,right,1162.60000002384,true,NA,NA,NA,NA,NA
RVyVmoTu,3r0wocg22pm4csvtiwincc3gz22duj,3c8hj7uopb7qp5tasel01e1hcgjzmf,RVyVmoTu,2020-0188,2021-10-14,15:24:01,16:33:37,NA,incomplete,false,true,NA,3,11,NA,blue,m_s_055.jpg,NA,NA,pleasant,unpleasant,NA,NA,NA,NA,NA,right,1935.39999997616,true,NA,NA,NA,NA,NA
RVyVmoTu,3r0wocg22pm4csvtiwincc3gz22duj,3c8hj7uopb7qp5tasel01e1hcgjzmf,RVyVmoTu,2020-0188,2021-10-14,15:24:01,16:33:37,NA,incomplete,false,true,NA,3,12,NA,green,n_s_048.jpg,NA,NA,pleasant,unpleasant,NA,NA,NA,NA,NA,left,1483.09999990463,true,NA,NA,NA,NA,NA
RVyVmoTu,3r0wocg22pm4csvtiwincc3gz22duj,3c8hj7uopb7qp5tasel01e1hcgjzmf,RVyVmoTu,2020-0188,2021-10-14,15:24:01,16:33:37,NA,incomplete,false,true,NA,3,13,NA,green,n_s_112.jpg,NA,NA,pleasant,unpleasant,NA,NA,NA,NA,NA,left,1087.69999992847,true,NA,NA,NA,NA,NA
RVyVmoTu,3r0wocg22pm4csvtiwincc3gz22duj,3c8hj7uopb7qp5tasel01e1hcgjzmf,RVyVmoTu,2020-0188,2021-10-14,15:24:01,16:33:37,NA,incomplete,false,true,NA,3,14,NA,green,n_s_084.jpg,NA,NA,pleasant,unpleasant,NA,NA,NA,NA,NA,right,1354.59999990463,true,NA,NA,NA,NA,NA
RVyVmoTu,3r0wocg22pm4csvtiwincc3gz22duj,3c8hj7uopb7qp5tasel01e1hcgjzmf,RVyVmoTu,2020-0188,2021-10-14,15:24:01,16:33:37,NA,incomplete,false,true,NA,3,15,NA,green,m_l_074.jpg,NA,NA,unpleasant,pleasant,NA,NA,NA,NA,NA,right,1599.60000002384,true,NA,NA,NA,NA,NA
RVyVmoTu,3r0wocg22pm4csvtiwincc3gz22duj,3c8hj7uopb7qp5tasel01e1hcgjzmf,RVyVmoTu,2020-0188,2021-10-14,15:24:01,16:33:37,NA,incomplete,false,true,NA,3,16,NA,green,m_l_037.jpg,NA,NA,pleasant,unpleasant,NA,NA,NA,NA,NA,left,1427.89999997616,true,NA,NA,NA,NA,NA
RVyVmoTu,3r0wocg22pm4csvtiwincc3gz22duj,3c8hj7uopb7qp5tasel01e1hcgjzmf,RVyVmoTu,2020-0188,2021-10-14,15:24:01,16:33:37,NA,incomplete,false,true,NA,3,17,NA,green,m_s_043.jpg,NA,NA,pleasant,unpleasant,NA,NA,NA,NA,NA,left,2127.79999995232,true,NA,NA,NA,NA,NA
RVyVmoTu,3r0wocg22pm4csvtiwincc3gz22duj,3c8hj7uopb7qp5tasel01e1hcgjzmf,RVyVmoTu,2020-0188,2021-10-14,15:24:01,16:33:37,NA,incomplete,false,true,NA,3,18,NA,white,n_l_106.jpg,NA,NA,unpleasant,pleasant,NA,NA,NA,NA,NA,right,1653,true,NA,NA,NA,NA,NA
RVyVmoTu,3r0wocg22pm4csvtiwincc3gz22duj,3c8hj7uopb7qp5tasel01e1hcgjzmf,RVyVmoTu,2020-0188,2021-10-14,15:24:01,16:33:37,NA,incomplete,false,true,NA,3,19,NA,white,n_s_063.jpg,NA,NA,pleasant,unpleasant,NA,NA,NA,NA,NA,right,1697,true,NA,NA,NA,NA,NA
RVyVmoTu,3r0wocg22pm4csvtiwincc3gz22duj,3c8hj7uopb7qp5tasel01e1hcgjzmf,RVyVmoTu,2020-0188,2021-10-14,15:24:01,16:33:37,NA,incomplete,false,true,NA,3,20,NA,white,m_l_015.jpg,NA,NA,pleasant,unpleasant,NA,NA,NA,NA,NA,left,1173.5,true,NA,NA,NA,NA,NA
RVyVmoTu,3r0wocg22pm4csvtiwincc3gz22duj,3c8hj7uopb7qp5tasel01e1hcgjzmf,RVyVmoTu,2020-0188,2021-10-14,15:24:01,16:33:37,NA,incomplete,false,true,NA,3,21,NA,white,m_s_049.jpg,NA,NA,pleasant,unpleasant,NA,NA,NA,NA,NA,left,1361.59999990463,true,NA,NA,NA,NA,NA
RVyVmoTu,3r0wocg22pm4csvtiwincc3gz22duj,3c8hj7uopb7qp5tasel01e1hcgjzmf,RVyVmoTu,2020-0188,2021-10-14,15:24:01,16:33:37,NA,incomplete,false,true,NA,3,22,NA,white,n_l_075.jpg,NA,NA,pleasant,unpleasant,NA,NA,NA,NA,NA,right,1108.19999992847,true,NA,NA,NA,NA,NA
RVyVmoTu,3r0wocg22pm4csvtiwincc3gz22duj,3c8hj7uopb7qp5tasel01e1hcgjzmf,RVyVmoTu,2020-0188,2021-10-14,15:24:01,16:33:37,NA,incomplete,false,true,NA,3,23,NA,white,n_s_009.jpg,NA,NA,pleasant,unpleasant,NA,NA,NA,NA,NA,left,1658.10000002384,true,NA,NA,NA,NA,NA
RVyVmoTu,3r0wocg22pm4csvtiwincc3gz22duj,3c8hj7uopb7qp5tasel01e1hcgjzmf,RVyVmoTu,2020-0188,2021-10-14,15:24:01,16:33:37,NA,incomplete,false,true,NA,3,24,NA,gray,m_s_105.jpg,NA,NA,unpleasant,pleasant,NA,NA,NA,NA,NA,right,1508.79999995232,true,NA,NA,NA,NA,NA
RVyVmoTu,3r0wocg22pm4csvtiwincc3gz22duj,3c8hj7uopb7qp5tasel01e1hcgjzmf,RVyVmoTu,2020-0188,2021-10-14,15:24:01,16:33:37,NA,incomplete,false,true,NA,3,25,NA,gray,m_l_108.jpg,NA,NA,unpleasant,pleasant,NA,NA,NA,NA,NA,right,1408.39999997616,true,NA,NA,NA,NA,NA
RVyVmoTu,3r0wocg22pm4csvtiwincc3gz22duj,3c8hj7uopb7qp5tasel01e1hcgjzmf,RVyVmoTu,2020-0188,2021-10-14,15:24:01,16:33:37,NA,incomplete,false,true,NA,3,26,NA,gray,n_l_073.jpg,NA,NA,unpleasant,pleasant,NA,NA,NA,NA,NA,left,1533,true,NA,NA,NA,NA,NA
RVyVmoTu,3r0wocg22pm4csvtiwincc3gz22duj,3c8hj7uopb7qp5tasel01e1hcgjzmf,RVyVmoTu,2020-0188,2021-10-14,15:24:01,16:33:37,NA,incomplete,false,true,NA,3,27,NA,gray,n_l_071.jpg,NA,NA,pleasant,unpleasant,NA,NA,NA,NA,NA,right,1514.59999990463,true,NA,NA,NA,NA,NA
RVyVmoTu,3r0wocg22pm4csvtiwincc3gz22duj,3c8hj7uopb7qp5tasel01e1hcgjzmf,RVyVmoTu,2020-0188,2021-10-14,15:24:01,16:33:37,NA,incomplete,false,true,NA,3,28,NA,gray,m_l_068.jpg,NA,NA,pleasant,unpleasant,NA,NA,NA,NA,NA,right,1607.29999995232,true,NA,NA,NA,NA,NA
RVyVmoTu,3r0wocg22pm4csvtiwincc3gz22duj,3c8hj7uopb7qp5tasel01e1hcgjzmf,RVyVmoTu,2020-0188,2021-10-14,15:24:01,16:33:37,NA,incomplete,false,true,NA,3,29,NA,gray,m_l_051.jpg,NA,NA,pleasant,unpleasant,NA,NA,NA,NA,NA,left,963.100000023842,true,NA,NA,NA,NA,NA
RVyVmoTu,3r0wocg22pm4csvtiwincc3gz22duj,3c8hj7uopb7qp5tasel01e1hcgjzmf,RVyVmoTu,2020-0188,2021-10-14,15:24:01,16:33:37,NA,incomplete,false,true,NA,3,30,NA,orange,m_s_059.jpg,NA,NA,pleasant,unpleasant,NA,NA,NA,NA,NA,left,1110.29999995232,true,NA,NA,NA,NA,NA
RVyVmoTu,3r0wocg22pm4csvtiwincc3gz22duj,3c8hj7uopb7qp5tasel01e1hcgjzmf,RVyVmoTu,2020-0188,2021-10-14,15:24:01,16:33:37,NA,incomplete,false,true,NA,3,31,NA,orange,n_s_071.jpg,NA,NA,pleasant,unpleasant,NA,NA,NA,NA,NA,left,2036.29999995232,true,NA,NA,NA,NA,NA
RVyVmoTu,3r0wocg22pm4csvtiwincc3gz22duj,3c8hj7uopb7qp5tasel01e1hcgjzmf,RVyVmoTu,2020-0188,2021-10-14,15:24:01,16:33:37,NA,incomplete,false,true,NA,3,32,NA,orange,m_s_063.jpg,NA,NA,pleasant,unpleasant,NA,NA,NA,NA,NA,left,1279.89999997616,true,NA,NA,NA,NA,NA
RVyVmoTu,3r0wocg22pm4csvtiwincc3gz22duj,3c8hj7uopb7qp5tasel01e1hcgjzmf,RVyVmoTu,2020-0188,2021-10-14,15:24:01,16:33:37,NA,incomplete,false,true,NA,3,33,NA,orange,n_s_075.jpg,NA,NA,pleasant,unpleasant,NA,NA,NA,NA,NA,right,1132.39999997616,true,NA,NA,NA,NA,NA
RVyVmoTu,3r0wocg22pm4csvtiwincc3gz22duj,3c8hj7uopb7qp5tasel01e1hcgjzmf,RVyVmoTu,2020-0188,2021-10-14,15:24:01,16:33:37,NA,incomplete,false,true,NA,3,34,NA,orange,n_s_007.jpg,NA,NA,pleasant,unpleasant,NA,NA,NA,NA,NA,right,1121,true,NA,NA,NA,NA,NA
RVyVmoTu,3r0wocg22pm4csvtiwincc3gz22duj,3c8hj7uopb7qp5tasel01e1hcgjzmf,RVyVmoTu,2020-0188,2021-10-14,15:24:01,16:33:37,NA,incomplete,false,true,NA,3,35,NA,orange,n_l_038.jpg,NA,NA,unpleasant,pleasant,NA,NA,NA,NA,NA,left,1556.79999995232,true,NA,NA,NA,NA,NA
RVyVmoTu,3r0wocg22pm4csvtiwincc3gz22duj,3c8hj7uopb7qp5tasel01e1hcgjzmf,RVyVmoTu,2020-0188,2021-10-14,15:24:01,16:33:37,NA,incomplete,false,NA,true,3,0,NA,NA,NA,right,present,NA,NA,m_l_051.jpg,gray,m_l_108.jpg,gray,within,NA,NaN,NA,left,5094.5,0,0,1743.4000000953674
RVyVmoTu,3r0wocg22pm4csvtiwincc3gz22duj,3c8hj7uopb7qp5tasel01e1hcgjzmf,RVyVmoTu,2020-0188,2021-10-14,15:24:01,16:33:37,NA,incomplete,false,NA,true,3,1,NA,NA,NA,right,present,NA,NA,n_l_073.jpg,gray,n_l_075.jpg,white,between,NA,NaN,NA,right,4479.399999976158,1,2,1967.3999999761581
RVyVmoTu,3r0wocg22pm4csvtiwincc3gz22duj,3c8hj7uopb7qp5tasel01e1hcgjzmf,RVyVmoTu,2020-0188,2021-10-14,15:24:01,16:33:37,NA,incomplete,false,NA,true,3,2,NA,NA,NA,right,present,NA,NA,m_s_043.jpg,green,n_s_112.jpg,green,within,NA,NaN,NA,left,3255.3000000715256,0,0,1031.3000000715256
RVyVmoTu,3r0wocg22pm4csvtiwincc3gz22duj,3c8hj7uopb7qp5tasel01e1hcgjzmf,RVyVmoTu,2020-0188,2021-10-14,15:24:01,16:33:37,NA,incomplete,false,NA,true,3,3,NA,NA,NA,left,present,NA,NA,n_l_105.jpg,red,n_s_081.jpg,blue,between,NA,NaN,NA,left,2743.5,1,3,1439.1000000238419
RVyVmoTu,3r0wocg22pm4csvtiwincc3gz22duj,3c8hj7uopb7qp5tasel01e1hcgjzmf,RVyVmoTu,2020-0188,2021-10-14,15:24:01,16:33:37,NA,incomplete,false,NA,true,3,4,NA,NA,NA,right,present,NA,NA,m_s_063.jpg,orange,m_l_068.jpg,gray,between,NA,NaN,NA,left,5783.199999928474,0,2,1327.2000000476837
RVyVmoTu,3r0wocg22pm4csvtiwincc3gz22duj,3c8hj7uopb7qp5tasel01e1hcgjzmf,RVyVmoTu,2020-0188,2021-10-14,15:24:01,16:33:37,NA,incomplete,false,NA,true,3,5,NA,NA,NA,right,present,NA,NA,n_l_038.jpg,orange,n_s_071.jpg,orange,within,NA,NaN,NA,right,3815.5,1,0,1431.2000000476837
RVyVmoTu,3r0wocg22pm4csvtiwincc3gz22duj,3c8hj7uopb7qp5tasel01e1hcgjzmf,RVyVmoTu,2020-0188,2021-10-14,15:24:01,16:33:37,NA,incomplete,false,NA,true,3,6,NA,NA,NA,left,present,NA,NA,m_l_037.jpg,green,m_l_015.jpg,white,between,NA,NaN,NA,left,3447.2999999523163,1,3,943.3999999761581
RVyVmoTu,3r0wocg22pm4csvtiwincc3gz22duj,3c8hj7uopb7qp5tasel01e1hcgjzmf,RVyVmoTu,2020-0188,2021-10-14,15:24:01,16:33:37,NA,incomplete,false,NA,true,3,7,NA,NA,NA,left,present,NA,NA,n_s_110.jpg,blue,n_s_084.jpg,green,between,NA,NaN,NA,left,2199.399999976158,1,2,1455.5
RVyVmoTu,3r0wocg22pm4csvtiwincc3gz22duj,3c8hj7uopb7qp5tasel01e1hcgjzmf,RVyVmoTu,2020-0188,2021-10-14,15:24:01,16:33:37,NA,incomplete,false,NA,true,3,8,NA,NA,NA,right,present,NA,NA,n_s_117.jpg,red,m_l_017.jpg,red,within,NA,NaN,NA,right,4679.5,1,0,1151.3999999761581
RVyVmoTu,3r0wocg22pm4csvtiwincc3gz22duj,3c8hj7uopb7qp5tasel01e1hcgjzmf,RVyVmoTu,2020-0188,2021-10-14,15:24:01,16:33:37,NA,incomplete,false,NA,true,3,9,NA,NA,NA,right,present,NA,NA,m_s_055.jpg,blue,n_l_005.jpg,blue,within,NA,NaN,NA,left,4703.600000023842,0,0,1191.6000000238419
RVyVmoTu,3r0wocg22pm4csvtiwincc3gz22duj,3c8hj7uopb7qp5tasel01e1hcgjzmf,RVyVmoTu,2020-0188,2021-10-14,15:24:01,16:33:37,NA,incomplete,false,NA,true,3,10,NA,NA,NA,left,present,NA,NA,n_s_063.jpg,white,n_s_009.jpg,white,within,NA,NaN,NA,left,5351.399999976158,1,0,1695.2999999523163
RVyVmoTu,3r0wocg22pm4csvtiwincc3gz22duj,3c8hj7uopb7qp5tasel01e1hcgjzmf,RVyVmoTu,2020-0188,2021-10-14,15:24:01,16:33:37,NA,incomplete,false,true,NA,4,0,NA,green,m_s_027.jpg,NA,NA,unpleasant,pleasant,NA,NA,NA,NA,NA,left,1855.69999992847,true,NA,NA,NA,NA,NA
RVyVmoTu,3r0wocg22pm4csvtiwincc3gz22duj,3c8hj7uopb7qp5tasel01e1hcgjzmf,RVyVmoTu,2020-0188,2021-10-14,15:24:01,16:33:37,NA,incomplete,false,true,NA,4,1,NA,green,m_l_047.jpg,NA,NA,pleasant,unpleasant,NA,NA,NA,NA,NA,left,1403.10000002384,true,NA,NA,NA,NA,NA
RVyVmoTu,3r0wocg22pm4csvtiwincc3gz22duj,3c8hj7uopb7qp5tasel01e1hcgjzmf,RVyVmoTu,2020-0188,2021-10-14,15:24:01,16:33:37,NA,incomplete,false,true,NA,4,2,NA,green,n_l_112.jpg,NA,NA,unpleasant,pleasant,NA,NA,NA,NA,NA,left,1575.60000002384,true,NA,NA,NA,NA,NA
RVyVmoTu,3r0wocg22pm4csvtiwincc3gz22duj,3c8hj7uopb7qp5tasel01e1hcgjzmf,RVyVmoTu,2020-0188,2021-10-14,15:24:01,16:33:37,NA,incomplete,false,true,NA,4,3,NA,green,n_l_087.jpg,NA,NA,pleasant,unpleasant,NA,NA,NA,NA,NA,right,1019.70000004768,true,NA,NA,NA,NA,NA
RVyVmoTu,3r0wocg22pm4csvtiwincc3gz22duj,3c8hj7uopb7qp5tasel01e1hcgjzmf,RVyVmoTu,2020-0188,2021-10-14,15:24:01,16:33:37,NA,incomplete,false,true,NA,4,4,NA,green,n_s_001.jpg,NA,NA,pleasant,unpleasant,NA,NA,NA,NA,NA,left,1159.39999997616,true,NA,NA,NA,NA,NA
RVyVmoTu,3r0wocg22pm4csvtiwincc3gz22duj,3c8hj7uopb7qp5tasel01e1hcgjzmf,RVyVmoTu,2020-0188,2021-10-14,15:24:01,16:33:37,NA,incomplete,false,true,NA,4,5,NA,green,n_s_017.jpg,NA,NA,unpleasant,pleasant,NA,NA,NA,NA,NA,right,1492.30000007153,true,NA,NA,NA,NA,NA
RVyVmoTu,3r0wocg22pm4csvtiwincc3gz22duj,3c8hj7uopb7qp5tasel01e1hcgjzmf,RVyVmoTu,2020-0188,2021-10-14,15:24:01,16:33:37,NA,incomplete,false,true,NA,4,6,NA,purple,m_l_020.jpg,NA,NA,unpleasant,pleasant,NA,NA,NA,NA,NA,right,1480.89999997616,true,NA,NA,NA,NA,NA
RVyVmoTu,3r0wocg22pm4csvtiwincc3gz22duj,3c8hj7uopb7qp5tasel01e1hcgjzmf,RVyVmoTu,2020-0188,2021-10-14,15:24:01,16:33:37,NA,incomplete,false,true,NA,4,7,NA,purple,m_s_080.jpg,NA,NA,pleasant,unpleasant,NA,NA,NA,NA,NA,left,1357.20000004768,true,NA,NA,NA,NA,NA
RVyVmoTu,3r0wocg22pm4csvtiwincc3gz22duj,3c8hj7uopb7qp5tasel01e1hcgjzmf,RVyVmoTu,2020-0188,2021-10-14,15:24:01,16:33:37,NA,incomplete,false,true,NA,4,8,NA,purple,m_s_068.jpg,NA,NA,pleasant,unpleasant,NA,NA,NA,NA,NA,left,1681.29999995232,true,NA,NA,NA,NA,NA
RVyVmoTu,3r0wocg22pm4csvtiwincc3gz22duj,3c8hj7uopb7qp5tasel01e1hcgjzmf,RVyVmoTu,2020-0188,2021-10-14,15:24:01,16:33:37,NA,incomplete,false,true,NA,4,9,NA,purple,m_s_108.jpg,NA,NA,unpleasant,pleasant,NA,NA,NA,NA,NA,left,1885.90000009537,true,NA,NA,NA,NA,NA
RVyVmoTu,3r0wocg22pm4csvtiwincc3gz22duj,3c8hj7uopb7qp5tasel01e1hcgjzmf,RVyVmoTu,2020-0188,2021-10-14,15:24:01,16:33:37,NA,incomplete,false,true,NA,4,10,NA,purple,m_l_089.jpg,NA,NA,unpleasant,pleasant,NA,NA,NA,NA,NA,right,1665.59999990463,true,NA,NA,NA,NA,NA
RVyVmoTu,3r0wocg22pm4csvtiwincc3gz22duj,3c8hj7uopb7qp5tasel01e1hcgjzmf,RVyVmoTu,2020-0188,2021-10-14,15:24:01,16:33:37,NA,incomplete,false,true,NA,4,11,NA,purple,n_l_098.jpg,NA,NA,pleasant,unpleasant,NA,NA,NA,NA,NA,right,1486.20000004768,true,NA,NA,NA,NA,NA
RVyVmoTu,3r0wocg22pm4csvtiwincc3gz22duj,3c8hj7uopb7qp5tasel01e1hcgjzmf,RVyVmoTu,2020-0188,2021-10-14,15:24:01,16:33:37,NA,incomplete,false,true,NA,4,12,NA,red,m_s_035.jpg,NA,NA,unpleasant,pleasant,NA,NA,NA,NA,NA,left,1906.10000002384,true,NA,NA,NA,NA,NA
RVyVmoTu,3r0wocg22pm4csvtiwincc3gz22duj,3c8hj7uopb7qp5tasel01e1hcgjzmf,RVyVmoTu,2020-0188,2021-10-14,15:24:01,16:33:37,NA,incomplete,false,true,NA,4,13,NA,red,n_l_035.jpg,NA,NA,unpleasant,pleasant,NA,NA,NA,NA,NA,left,1438.09999990463,true,NA,NA,NA,NA,NA
RVyVmoTu,3r0wocg22pm4csvtiwincc3gz22duj,3c8hj7uopb7qp5tasel01e1hcgjzmf,RVyVmoTu,2020-0188,2021-10-14,15:24:01,16:33:37,NA,incomplete,false,true,NA,4,14,NA,red,m_l_022.jpg,NA,NA,pleasant,unpleasant,NA,NA,NA,NA,NA,right,2081.79999995232,true,NA,NA,NA,NA,NA
RVyVmoTu,3r0wocg22pm4csvtiwincc3gz22duj,3c8hj7uopb7qp5tasel01e1hcgjzmf,RVyVmoTu,2020-0188,2021-10-14,15:24:01,16:33:37,NA,incomplete,false,true,NA,4,15,NA,red,m_s_037.jpg,NA,NA,unpleasant,pleasant,NA,NA,NA,NA,NA,right,1350.5,true,NA,NA,NA,NA,NA
RVyVmoTu,3r0wocg22pm4csvtiwincc3gz22duj,3c8hj7uopb7qp5tasel01e1hcgjzmf,RVyVmoTu,2020-0188,2021-10-14,15:24:01,16:33:37,NA,incomplete,false,true,NA,4,16,NA,red,n_l_044.jpg,NA,NA,unpleasant,pleasant,NA,NA,NA,NA,NA,left,1594.29999995232,true,NA,NA,NA,NA,NA
RVyVmoTu,3r0wocg22pm4csvtiwincc3gz22duj,3c8hj7uopb7qp5tasel01e1hcgjzmf,RVyVmoTu,2020-0188,2021-10-14,15:24:01,16:33:37,NA,incomplete,false,true,NA,4,17,NA,red,n_l_097.jpg,NA,NA,unpleasant,pleasant,NA,NA,NA,NA,NA,left,1158.60000002384,true,NA,NA,NA,NA,NA
RVyVmoTu,3r0wocg22pm4csvtiwincc3gz22duj,3c8hj7uopb7qp5tasel01e1hcgjzmf,RVyVmoTu,2020-0188,2021-10-14,15:24:01,16:33:37,NA,incomplete,false,true,NA,4,18,NA,brown,n_l_030.jpg,NA,NA,unpleasant,pleasant,NA,NA,NA,NA,NA,right,1475.19999992847,true,NA,NA,NA,NA,NA
RVyVmoTu,3r0wocg22pm4csvtiwincc3gz22duj,3c8hj7uopb7qp5tasel01e1hcgjzmf,RVyVmoTu,2020-0188,2021-10-14,15:24:01,16:33:37,NA,incomplete,false,true,NA,4,19,NA,brown,n_l_045.jpg,NA,NA,pleasant,unpleasant,NA,NA,NA,NA,NA,left,1855.69999992847,true,NA,NA,NA,NA,NA
RVyVmoTu,3r0wocg22pm4csvtiwincc3gz22duj,3c8hj7uopb7qp5tasel01e1hcgjzmf,RVyVmoTu,2020-0188,2021-10-14,15:24:01,16:33:37,NA,incomplete,false,true,NA,4,20,NA,brown,m_l_049.jpg,NA,NA,unpleasant,pleasant,NA,NA,NA,NA,NA,right,1763.79999995232,true,NA,NA,NA,NA,NA
RVyVmoTu,3r0wocg22pm4csvtiwincc3gz22duj,3c8hj7uopb7qp5tasel01e1hcgjzmf,RVyVmoTu,2020-0188,2021-10-14,15:24:01,16:33:37,NA,incomplete,false,true,NA,4,21,NA,brown,m_l_086.jpg,NA,NA,pleasant,unpleasant,NA,NA,NA,NA,NA,right,1296.29999995232,true,NA,NA,NA,NA,NA
RVyVmoTu,3r0wocg22pm4csvtiwincc3gz22duj,3c8hj7uopb7qp5tasel01e1hcgjzmf,RVyVmoTu,2020-0188,2021-10-14,15:24:01,16:33:37,NA,incomplete,false,true,NA,4,22,NA,brown,n_l_062.jpg,NA,NA,unpleasant,pleasant,NA,NA,NA,NA,NA,right,1435.09999990463,true,NA,NA,NA,NA,NA
RVyVmoTu,3r0wocg22pm4csvtiwincc3gz22duj,3c8hj7uopb7qp5tasel01e1hcgjzmf,RVyVmoTu,2020-0188,2021-10-14,15:24:01,16:33:37,NA,incomplete,false,true,NA,4,23,NA,brown,n_s_025.jpg,NA,NA,unpleasant,pleasant,NA,NA,NA,NA,NA,left,1249.20000004768,true,NA,NA,NA,NA,NA
RVyVmoTu,3r0wocg22pm4csvtiwincc3gz22duj,3c8hj7uopb7qp5tasel01e1hcgjzmf,RVyVmoTu,2020-0188,2021-10-14,15:24:01,16:33:37,NA,incomplete,false,true,NA,4,24,NA,blue,m_s_083.jpg,NA,NA,pleasant,unpleasant,NA,NA,NA,NA,NA,left,1301,true,NA,NA,NA,NA,NA
RVyVmoTu,3r0wocg22pm4csvtiwincc3gz22duj,3c8hj7uopb7qp5tasel01e1hcgjzmf,RVyVmoTu,2020-0188,2021-10-14,15:24:01,16:33:37,NA,incomplete,false,true,NA,4,25,NA,blue,n_l_077.jpg,NA,NA,pleasant,unpleasant,NA,NA,NA,NA,NA,right,1345.10000002384,true,NA,NA,NA,NA,NA
RVyVmoTu,3r0wocg22pm4csvtiwincc3gz22duj,3c8hj7uopb7qp5tasel01e1hcgjzmf,RVyVmoTu,2020-0188,2021-10-14,15:24:01,16:33:37,NA,incomplete,false,true,NA,4,26,NA,blue,m_l_021.jpg,NA,NA,unpleasant,pleasant,NA,NA,NA,NA,NA,right,1389.59999990463,true,NA,NA,NA,NA,NA
RVyVmoTu,3r0wocg22pm4csvtiwincc3gz22duj,3c8hj7uopb7qp5tasel01e1hcgjzmf,RVyVmoTu,2020-0188,2021-10-14,15:24:01,16:33:37,NA,incomplete,false,true,NA,4,27,NA,blue,m_s_056.jpg,NA,NA,pleasant,unpleasant,NA,NA,NA,NA,NA,left,1569.5,true,NA,NA,NA,NA,NA
RVyVmoTu,3r0wocg22pm4csvtiwincc3gz22duj,3c8hj7uopb7qp5tasel01e1hcgjzmf,RVyVmoTu,2020-0188,2021-10-14,15:24:01,16:33:37,NA,incomplete,false,true,NA,4,28,NA,blue,n_l_110.jpg,NA,NA,pleasant,unpleasant,NA,NA,NA,NA,NA,left,1293.09999990463,true,NA,NA,NA,NA,NA
RVyVmoTu,3r0wocg22pm4csvtiwincc3gz22duj,3c8hj7uopb7qp5tasel01e1hcgjzmf,RVyVmoTu,2020-0188,2021-10-14,15:24:01,16:33:37,NA,incomplete,false,true,NA,4,29,NA,blue,n_s_057.jpg,NA,NA,unpleasant,pleasant,NA,NA,NA,NA,NA,right,1617.79999995232,true,NA,NA,NA,NA,NA
RVyVmoTu,3r0wocg22pm4csvtiwincc3gz22duj,3c8hj7uopb7qp5tasel01e1hcgjzmf,RVyVmoTu,2020-0188,2021-10-14,15:24:01,16:33:37,NA,incomplete,false,true,NA,4,30,NA,orange,m_s_070.jpg,NA,NA,unpleasant,pleasant,NA,NA,NA,NA,NA,right,1758.5,true,NA,NA,NA,NA,NA
RVyVmoTu,3r0wocg22pm4csvtiwincc3gz22duj,3c8hj7uopb7qp5tasel01e1hcgjzmf,RVyVmoTu,2020-0188,2021-10-14,15:24:01,16:33:37,NA,incomplete,false,true,NA,4,31,NA,orange,n_s_020.jpg,NA,NA,unpleasant,pleasant,NA,NA,NA,NA,NA,left,1065.10000002384,true,NA,NA,NA,NA,NA
RVyVmoTu,3r0wocg22pm4csvtiwincc3gz22duj,3c8hj7uopb7qp5tasel01e1hcgjzmf,RVyVmoTu,2020-0188,2021-10-14,15:24:01,16:33:37,NA,incomplete,false,true,NA,4,32,NA,orange,n_s_039.jpg,NA,NA,unpleasant,pleasant,NA,NA,NA,NA,NA,left,1286.89999997616,true,NA,NA,NA,NA,NA
RVyVmoTu,3r0wocg22pm4csvtiwincc3gz22duj,3c8hj7uopb7qp5tasel01e1hcgjzmf,RVyVmoTu,2020-0188,2021-10-14,15:24:01,16:33:37,NA,incomplete,false,true,NA,4,33,NA,orange,m_l_018.jpg,NA,NA,unpleasant,pleasant,NA,NA,NA,NA,NA,right,986.799999952316,true,NA,NA,NA,NA,NA
RVyVmoTu,3r0wocg22pm4csvtiwincc3gz22duj,3c8hj7uopb7qp5tasel01e1hcgjzmf,RVyVmoTu,2020-0188,2021-10-14,15:24:01,16:33:37,NA,incomplete,false,true,NA,4,34,NA,orange,m_s_071.jpg,NA,NA,unpleasant,pleasant,NA,NA,NA,NA,NA,left,1582.60000002384,true,NA,NA,NA,NA,NA
RVyVmoTu,3r0wocg22pm4csvtiwincc3gz22duj,3c8hj7uopb7qp5tasel01e1hcgjzmf,RVyVmoTu,2020-0188,2021-10-14,15:24:01,16:33:37,NA,incomplete,false,true,NA,4,35,NA,orange,n_s_104.jpg,NA,NA,pleasant,unpleasant,NA,NA,NA,NA,NA,left,1091,true,NA,NA,NA,NA,NA
RVyVmoTu,3r0wocg22pm4csvtiwincc3gz22duj,3c8hj7uopb7qp5tasel01e1hcgjzmf,RVyVmoTu,2020-0188,2021-10-14,15:24:01,16:33:37,NA,incomplete,false,NA,true,4,0,NA,NA,NA,right,absent,NA,NA,m_l_021.jpg,blue,n_l_062.jpg,brown,between,NA,NaN,NA,left,3447.1999999284744,0,0,1863.5
RVyVmoTu,3r0wocg22pm4csvtiwincc3gz22duj,3c8hj7uopb7qp5tasel01e1hcgjzmf,RVyVmoTu,2020-0188,2021-10-14,15:24:01,16:33:37,NA,incomplete,false,NA,true,4,1,NA,NA,NA,left,absent,NA,NA,m_s_080.jpg,purple,n_l_098.jpg,purple,within,NA,NaN,NA,right,5543.399999976158,0,2,951.6999999284744
RVyVmoTu,3r0wocg22pm4csvtiwincc3gz22duj,3c8hj7uopb7qp5tasel01e1hcgjzmf,RVyVmoTu,2020-0188,2021-10-14,15:24:01,16:33:37,NA,incomplete,false,NA,true,4,2,NA,NA,NA,left,absent,NA,NA,m_l_047.jpg,green,n_s_017.jpg,green,within,NA,NaN,NA,left,4655.5,1,0,1175.3999999761581
RVyVmoTu,3r0wocg22pm4csvtiwincc3gz22duj,3c8hj7uopb7qp5tasel01e1hcgjzmf,RVyVmoTu,2020-0188,2021-10-14,15:24:01,16:33:37,NA,incomplete,false,NA,true,4,3,NA,NA,NA,right,absent,NA,NA,m_l_049.jpg,brown,n_l_044.jpg,red,between,NA,NaN,NA,left,2999.4000000953674,0,1,2087.5
RVyVmoTu,3r0wocg22pm4csvtiwincc3gz22duj,3c8hj7uopb7qp5tasel01e1hcgjzmf,RVyVmoTu,2020-0188,2021-10-14,15:24:01,16:33:37,NA,incomplete,false,NA,true,4,4,NA,NA,NA,right,absent,NA,NA,n_s_025.jpg,brown,n_l_045.jpg,brown,within,NA,NaN,NA,right,2791.5,1,1,1663.2999999523163
RVyVmoTu,3r0wocg22pm4csvtiwincc3gz22duj,3c8hj7uopb7qp5tasel01e1hcgjzmf,RVyVmoTu,2020-0188,2021-10-14,15:24:01,16:33:37,NA,incomplete,false,NA,true,4,5,NA,NA,NA,right,absent,NA,NA,n_s_104.jpg,orange,n_s_020.jpg,orange,within,NA,NaN,NA,left,3111.5,0,2,1223.3999999761581
RVyVmoTu,3r0wocg22pm4csvtiwincc3gz22duj,3c8hj7uopb7qp5tasel01e1hcgjzmf,RVyVmoTu,2020-0188,2021-10-14,15:24:01,16:33:37,NA,incomplete,false,NA,true,4,6,NA,NA,NA,right,absent,NA,NA,m_s_068.jpg,purple,n_s_001.jpg,green,between,NA,NaN,NA,right,2727.5999999046326,1,3,2183.3000000715256
RVyVmoTu,3r0wocg22pm4csvtiwincc3gz22duj,3c8hj7uopb7qp5tasel01e1hcgjzmf,RVyVmoTu,2020-0188,2021-10-14,15:24:01,16:33:37,NA,incomplete,false,NA,true,4,7,NA,NA,NA,left,absent,NA,NA,m_l_089.jpg,purple,m_l_022.jpg,red,between,NA,NaN,NA,left,2279.4000000953674,1,2,2175.5
RVyVmoTu,3r0wocg22pm4csvtiwincc3gz22duj,3c8hj7uopb7qp5tasel01e1hcgjzmf,RVyVmoTu,2020-0188,2021-10-14,15:24:01,16:33:37,NA,incomplete,false,NA,true,4,8,NA,NA,NA,right,absent,NA,NA,n_s_039.jpg,orange,n_l_110.jpg,blue,between,NA,NaN,NA,right,3143.5999999046326,1,2,1711.3000000715256
RVyVmoTu,3r0wocg22pm4csvtiwincc3gz22duj,3c8hj7uopb7qp5tasel01e1hcgjzmf,RVyVmoTu,2020-0188,2021-10-14,15:24:01,16:33:37,NA,incomplete,false,NA,true,4,9,NA,NA,NA,right,absent,NA,NA,n_l_097.jpg,red,n_l_035.jpg,red,within,NA,NaN,NA,right,2703.5,1,3,1271.6000000238419
RVyVmoTu,3r0wocg22pm4csvtiwincc3gz22duj,3c8hj7uopb7qp5tasel01e1hcgjzmf,RVyVmoTu,2020-0188,2021-10-14,15:24:01,16:33:37,NA,incomplete,false,NA,true,4,10,NA,NA,NA,left,absent,NA,NA,n_l_077.jpg,blue,n_s_057.jpg,blue,within,NA,NaN,NA,left,2730.8000000715256,1,3,2687.2999999523163
RVyVmoTu,3r0wocg22pm4csvtiwincc3gz22duj,3c8hj7uopb7qp5tasel01e1hcgjzmf,RVyVmoTu,2020-0188,2021-10-14,15:24:01,16:33:37,NA,incomplete,false,true,NA,5,0,NA,orange,n_l_076.jpg,NA,NA,pleasant,unpleasant,NA,NA,NA,NA,NA,left,1503.70000004768,true,NA,NA,NA,NA,NA
RVyVmoTu,3r0wocg22pm4csvtiwincc3gz22duj,3c8hj7uopb7qp5tasel01e1hcgjzmf,RVyVmoTu,2020-0188,2021-10-14,15:24:01,16:33:37,NA,incomplete,false,true,NA,5,1,NA,orange,n_s_069.jpg,NA,NA,pleasant,unpleasant,NA,NA,NA,NA,NA,right,1131.60000002384,true,NA,NA,NA,NA,NA
RVyVmoTu,3r0wocg22pm4csvtiwincc3gz22duj,3c8hj7uopb7qp5tasel01e1hcgjzmf,RVyVmoTu,2020-0188,2021-10-14,15:24:01,16:33:37,NA,incomplete,false,true,NA,5,2,NA,orange,n_s_014.jpg,NA,NA,pleasant,unpleasant,NA,NA,NA,NA,NA,right,1368.39999997616,true,NA,NA,NA,NA,NA
RVyVmoTu,3r0wocg22pm4csvtiwincc3gz22duj,3c8hj7uopb7qp5tasel01e1hcgjzmf,RVyVmoTu,2020-0188,2021-10-14,15:24:01,16:33:37,NA,incomplete,false,true,NA,5,3,NA,orange,n_s_082.jpg,NA,NA,pleasant,unpleasant,NA,NA,NA,NA,NA,right,1435.89999997616,true,NA,NA,NA,NA,NA
RVyVmoTu,3r0wocg22pm4csvtiwincc3gz22duj,3c8hj7uopb7qp5tasel01e1hcgjzmf,RVyVmoTu,2020-0188,2021-10-14,15:24:01,16:33:37,NA,incomplete,false,true,NA,5,4,NA,orange,n_s_062.jpg,NA,NA,unpleasant,pleasant,NA,NA,NA,NA,NA,left,1391.90000009537,true,NA,NA,NA,NA,NA
RVyVmoTu,3r0wocg22pm4csvtiwincc3gz22duj,3c8hj7uopb7qp5tasel01e1hcgjzmf,RVyVmoTu,2020-0188,2021-10-14,15:24:01,16:33:37,NA,incomplete,false,true,NA,5,5,NA,orange,m_s_076.jpg,NA,NA,unpleasant,pleasant,NA,NA,NA,NA,NA,right,1306.79999995232,true,NA,NA,NA,NA,NA
RVyVmoTu,3r0wocg22pm4csvtiwincc3gz22duj,3c8hj7uopb7qp5tasel01e1hcgjzmf,RVyVmoTu,2020-0188,2021-10-14,15:24:01,16:33:37,NA,incomplete,false,true,NA,5,6,NA,blue,n_l_067.jpg,NA,NA,pleasant,unpleasant,NA,NA,NA,NA,NA,left,1768.30000007153,true,NA,NA,NA,NA,NA
RVyVmoTu,3r0wocg22pm4csvtiwincc3gz22duj,3c8hj7uopb7qp5tasel01e1hcgjzmf,RVyVmoTu,2020-0188,2021-10-14,15:24:01,16:33:37,NA,incomplete,false,true,NA,5,7,NA,blue,m_l_057.jpg,NA,NA,pleasant,unpleasant,NA,NA,NA,NA,NA,left,2044.29999995232,true,NA,NA,NA,NA,NA
RVyVmoTu,3r0wocg22pm4csvtiwincc3gz22duj,3c8hj7uopb7qp5tasel01e1hcgjzmf,RVyVmoTu,2020-0188,2021-10-14,15:24:01,16:33:37,NA,incomplete,false,true,NA,5,8,NA,blue,n_s_018.jpg,NA,NA,pleasant,unpleasant,NA,NA,NA,NA,NA,right,1000.79999995232,true,NA,NA,NA,NA,NA
RVyVmoTu,3r0wocg22pm4csvtiwincc3gz22duj,3c8hj7uopb7qp5tasel01e1hcgjzmf,RVyVmoTu,2020-0188,2021-10-14,15:24:01,16:33:37,NA,incomplete,false,true,NA,5,9,NA,blue,n_s_026.jpg,NA,NA,unpleasant,pleasant,NA,NA,NA,NA,NA,left,1228.59999990463,true,NA,NA,NA,NA,NA
RVyVmoTu,3r0wocg22pm4csvtiwincc3gz22duj,3c8hj7uopb7qp5tasel01e1hcgjzmf,RVyVmoTu,2020-0188,2021-10-14,15:24:01,16:33:37,NA,incomplete,false,true,NA,5,10,NA,blue,n_l_095.jpg,NA,NA,unpleasant,pleasant,NA,NA,NA,NA,NA,left,1410.19999992847,true,NA,NA,NA,NA,NA
RVyVmoTu,3r0wocg22pm4csvtiwincc3gz22duj,3c8hj7uopb7qp5tasel01e1hcgjzmf,RVyVmoTu,2020-0188,2021-10-14,15:24:01,16:33:37,NA,incomplete,false,true,NA,5,11,NA,blue,m_l_008.jpg,NA,NA,unpleasant,pleasant,NA,NA,NA,NA,NA,right,1701.5,true,NA,NA,NA,NA,NA
RVyVmoTu,3r0wocg22pm4csvtiwincc3gz22duj,3c8hj7uopb7qp5tasel01e1hcgjzmf,RVyVmoTu,2020-0188,2021-10-14,15:24:01,16:33:37,NA,incomplete,false,true,NA,5,12,NA,brown,n_s_102.jpg,NA,NA,unpleasant,pleasant,NA,NA,NA,NA,NA,left,1473.5,true,NA,NA,NA,NA,NA
RVyVmoTu,3r0wocg22pm4csvtiwincc3gz22duj,3c8hj7uopb7qp5tasel01e1hcgjzmf,RVyVmoTu,2020-0188,2021-10-14,15:24:01,16:33:37,NA,incomplete,false,true,NA,5,13,NA,brown,m_s_079.jpg,NA,NA,pleasant,unpleasant,NA,NA,NA,NA,NA,right,1750.10000002384,true,NA,NA,NA,NA,NA
RVyVmoTu,3r0wocg22pm4csvtiwincc3gz22duj,3c8hj7uopb7qp5tasel01e1hcgjzmf,RVyVmoTu,2020-0188,2021-10-14,15:24:01,16:33:37,NA,incomplete,false,true,NA,5,14,NA,brown,m_s_093.jpg,NA,NA,unpleasant,pleasant,NA,NA,NA,NA,NA,left,1090.19999992847,true,NA,NA,NA,NA,NA
RVyVmoTu,3r0wocg22pm4csvtiwincc3gz22duj,3c8hj7uopb7qp5tasel01e1hcgjzmf,RVyVmoTu,2020-0188,2021-10-14,15:24:01,16:33:37,NA,incomplete,false,true,NA,5,15,NA,brown,m_l_092.jpg,NA,NA,pleasant,unpleasant,NA,NA,NA,NA,NA,left,1166,true,NA,NA,NA,NA,NA
RVyVmoTu,3r0wocg22pm4csvtiwincc3gz22duj,3c8hj7uopb7qp5tasel01e1hcgjzmf,RVyVmoTu,2020-0188,2021-10-14,15:24:01,16:33:37,NA,incomplete,false,true,NA,5,16,NA,brown,m_l_109.jpg,NA,NA,pleasant,unpleasant,NA,NA,NA,NA,NA,right,1226.39999997616,true,NA,NA,NA,NA,NA
RVyVmoTu,3r0wocg22pm4csvtiwincc3gz22duj,3c8hj7uopb7qp5tasel01e1hcgjzmf,RVyVmoTu,2020-0188,2021-10-14,15:24:01,16:33:37,NA,incomplete,false,true,NA,5,17,NA,brown,m_l_097.jpg,NA,NA,pleasant,unpleasant,NA,NA,NA,NA,NA,left,1007.10000002384,true,NA,NA,NA,NA,NA
RVyVmoTu,3r0wocg22pm4csvtiwincc3gz22duj,3c8hj7uopb7qp5tasel01e1hcgjzmf,RVyVmoTu,2020-0188,2021-10-14,15:24:01,16:33:37,NA,incomplete,false,true,NA,5,18,NA,green,n_l_024.jpg,NA,NA,unpleasant,pleasant,NA,NA,NA,NA,NA,left,1386.79999995232,true,NA,NA,NA,NA,NA
RVyVmoTu,3r0wocg22pm4csvtiwincc3gz22duj,3c8hj7uopb7qp5tasel01e1hcgjzmf,RVyVmoTu,2020-0188,2021-10-14,15:24:01,16:33:37,NA,incomplete,false,true,NA,5,19,NA,green,m_l_104.jpg,NA,NA,pleasant,unpleasant,NA,NA,NA,NA,NA,left,1382.60000002384,true,NA,NA,NA,NA,NA
RVyVmoTu,3r0wocg22pm4csvtiwincc3gz22duj,3c8hj7uopb7qp5tasel01e1hcgjzmf,RVyVmoTu,2020-0188,2021-10-14,15:24:01,16:33:37,NA,incomplete,false,true,NA,5,20,NA,green,m_l_034.jpg,NA,NA,pleasant,unpleasant,NA,NA,NA,NA,NA,left,1603.39999997616,true,NA,NA,NA,NA,NA
RVyVmoTu,3r0wocg22pm4csvtiwincc3gz22duj,3c8hj7uopb7qp5tasel01e1hcgjzmf,RVyVmoTu,2020-0188,2021-10-14,15:24:01,16:33:37,NA,incomplete,false,true,NA,5,21,NA,green,m_l_048.jpg,NA,NA,pleasant,unpleasant,NA,NA,NA,NA,NA,right,1575,true,NA,NA,NA,NA,NA
RVyVmoTu,3r0wocg22pm4csvtiwincc3gz22duj,3c8hj7uopb7qp5tasel01e1hcgjzmf,RVyVmoTu,2020-0188,2021-10-14,15:24:01,16:33:37,NA,incomplete,false,true,NA,5,22,NA,green,m_s_094.jpg,NA,NA,pleasant,unpleasant,NA,NA,NA,NA,NA,left,1089.79999995232,true,NA,NA,NA,NA,NA
RVyVmoTu,3r0wocg22pm4csvtiwincc3gz22duj,3c8hj7uopb7qp5tasel01e1hcgjzmf,RVyVmoTu,2020-0188,2021-10-14,15:24:01,16:33:37,NA,incomplete,false,true,NA,5,23,NA,green,n_l_033.jpg,NA,NA,pleasant,unpleasant,NA,NA,NA,NA,NA,right,1254.70000004768,true,NA,NA,NA,NA,NA
RVyVmoTu,3r0wocg22pm4csvtiwincc3gz22duj,3c8hj7uopb7qp5tasel01e1hcgjzmf,RVyVmoTu,2020-0188,2021-10-14,15:24:01,16:33:37,NA,incomplete,false,true,NA,5,24,NA,white,n_l_116.jpg,NA,NA,pleasant,unpleasant,NA,NA,NA,NA,NA,left,1978.89999997616,true,NA,NA,NA,NA,NA
RVyVmoTu,3r0wocg22pm4csvtiwincc3gz22duj,3c8hj7uopb7qp5tasel01e1hcgjzmf,RVyVmoTu,2020-0188,2021-10-14,15:24:01,16:33:37,NA,incomplete,false,true,NA,5,25,NA,white,n_l_001.jpg,NA,NA,pleasant,unpleasant,NA,NA,NA,NA,NA,left,911.100000023842,true,NA,NA,NA,NA,NA
RVyVmoTu,3r0wocg22pm4csvtiwincc3gz22duj,3c8hj7uopb7qp5tasel01e1hcgjzmf,RVyVmoTu,2020-0188,2021-10-14,15:24:01,16:33:37,NA,incomplete,false,true,NA,5,26,NA,white,m_l_009.jpg,NA,NA,pleasant,unpleasant,NA,NA,NA,NA,NA,right,1675.69999992847,true,NA,NA,NA,NA,NA
RVyVmoTu,3r0wocg22pm4csvtiwincc3gz22duj,3c8hj7uopb7qp5tasel01e1hcgjzmf,RVyVmoTu,2020-0188,2021-10-14,15:24:01,16:33:37,NA,incomplete,false,true,NA,5,27,NA,white,n_l_036.jpg,NA,NA,unpleasant,pleasant,NA,NA,NA,NA,NA,right,1168,true,NA,NA,NA,NA,NA
RVyVmoTu,3r0wocg22pm4csvtiwincc3gz22duj,3c8hj7uopb7qp5tasel01e1hcgjzmf,RVyVmoTu,2020-0188,2021-10-14,15:24:01,16:33:37,NA,incomplete,false,true,NA,5,28,NA,white,m_s_106.jpg,NA,NA,unpleasant,pleasant,NA,NA,NA,NA,NA,right,1348,true,NA,NA,NA,NA,NA
RVyVmoTu,3r0wocg22pm4csvtiwincc3gz22duj,3c8hj7uopb7qp5tasel01e1hcgjzmf,RVyVmoTu,2020-0188,2021-10-14,15:24:01,16:33:37,NA,incomplete,false,true,NA,5,29,NA,white,m_s_029.jpg,NA,NA,pleasant,unpleasant,NA,NA,NA,NA,NA,right,2032.79999995232,true,NA,NA,NA,NA,NA
RVyVmoTu,3r0wocg22pm4csvtiwincc3gz22duj,3c8hj7uopb7qp5tasel01e1hcgjzmf,RVyVmoTu,2020-0188,2021-10-14,15:24:01,16:33:37,NA,incomplete,false,true,NA,5,30,NA,gray,m_l_053.jpg,NA,NA,pleasant,unpleasant,NA,NA,NA,NA,NA,left,1181.10000002384,true,NA,NA,NA,NA,NA
RVyVmoTu,3r0wocg22pm4csvtiwincc3gz22duj,3c8hj7uopb7qp5tasel01e1hcgjzmf,RVyVmoTu,2020-0188,2021-10-14,15:24:01,16:33:37,NA,incomplete,false,true,NA,5,31,NA,gray,n_s_047.jpg,NA,NA,pleasant,unpleasant,NA,NA,NA,NA,NA,left,1425.80000007153,true,NA,NA,NA,NA,NA
RVyVmoTu,3r0wocg22pm4csvtiwincc3gz22duj,3c8hj7uopb7qp5tasel01e1hcgjzmf,RVyVmoTu,2020-0188,2021-10-14,15:24:01,16:33:37,NA,incomplete,false,true,NA,5,32,NA,gray,m_s_031.jpg,NA,NA,pleasant,unpleasant,NA,NA,NA,NA,NA,left,2118.29999995232,true,NA,NA,NA,NA,NA
RVyVmoTu,3r0wocg22pm4csvtiwincc3gz22duj,3c8hj7uopb7qp5tasel01e1hcgjzmf,RVyVmoTu,2020-0188,2021-10-14,15:24:01,16:33:37,NA,incomplete,false,true,NA,5,33,NA,gray,n_l_023.jpg,NA,NA,pleasant,unpleasant,NA,NA,NA,NA,NA,right,1146.10000002384,true,NA,NA,NA,NA,NA
RVyVmoTu,3r0wocg22pm4csvtiwincc3gz22duj,3c8hj7uopb7qp5tasel01e1hcgjzmf,RVyVmoTu,2020-0188,2021-10-14,15:24:01,16:33:37,NA,incomplete,false,true,NA,5,34,NA,gray,n_l_078.jpg,NA,NA,unpleasant,pleasant,NA,NA,NA,NA,NA,left,1838.60000002384,true,NA,NA,NA,NA,NA
RVyVmoTu,3r0wocg22pm4csvtiwincc3gz22duj,3c8hj7uopb7qp5tasel01e1hcgjzmf,RVyVmoTu,2020-0188,2021-10-14,15:24:01,16:33:37,NA,incomplete,false,true,NA,5,35,NA,gray,m_l_083.jpg,NA,NA,pleasant,unpleasant,NA,NA,NA,NA,NA,right,1514.59999990463,true,NA,NA,NA,NA,NA
RVyVmoTu,3r0wocg22pm4csvtiwincc3gz22duj,3c8hj7uopb7qp5tasel01e1hcgjzmf,RVyVmoTu,2020-0188,2021-10-14,15:24:01,16:33:37,NA,incomplete,false,NA,true,5,0,NA,NA,NA,left,absent,NA,NA,m_s_106.jpg,white,m_s_031.jpg,gray,between,NA,NaN,NA,right,4663.600000023842,0,2,1863.5
RVyVmoTu,3r0wocg22pm4csvtiwincc3gz22duj,3c8hj7uopb7qp5tasel01e1hcgjzmf,RVyVmoTu,2020-0188,2021-10-14,15:24:01,16:33:37,NA,incomplete,false,NA,true,5,1,NA,NA,NA,left,absent,NA,NA,m_l_057.jpg,blue,m_l_008.jpg,blue,within,NA,NaN,NA,right,2951.399999976158,0,3,2183.5
RVyVmoTu,3r0wocg22pm4csvtiwincc3gz22duj,3c8hj7uopb7qp5tasel01e1hcgjzmf,RVyVmoTu,2020-0188,2021-10-14,15:24:01,16:33:37,NA,incomplete,false,NA,true,5,2,NA,NA,NA,right,absent,NA,NA,n_l_033.jpg,green,m_l_104.jpg,green,within,NA,NaN,NA,left,3919.2999999523163,0,2,3071.5
RVyVmoTu,3r0wocg22pm4csvtiwincc3gz22duj,3c8hj7uopb7qp5tasel01e1hcgjzmf,RVyVmoTu,2020-0188,2021-10-14,15:24:01,16:33:37,NA,incomplete,false,NA,true,5,3,NA,NA,NA,left,absent,NA,NA,n_l_001.jpg,white,m_s_029.jpg,white,within,NA,NaN,NA,left,3671.2999999523163,1,0,1103.7999999523163
RVyVmoTu,3r0wocg22pm4csvtiwincc3gz22duj,3c8hj7uopb7qp5tasel01e1hcgjzmf,RVyVmoTu,2020-0188,2021-10-14,15:24:01,16:33:37,NA,incomplete,false,NA,true,5,4,NA,NA,NA,right,absent,NA,NA,m_l_097.jpg,brown,m_s_079.jpg,brown,within,NA,NaN,NA,right,2599.399999976158,1,0,1327.3999999761581
RVyVmoTu,3r0wocg22pm4csvtiwincc3gz22duj,3c8hj7uopb7qp5tasel01e1hcgjzmf,RVyVmoTu,2020-0188,2021-10-14,15:24:01,16:33:37,NA,incomplete,false,NA,true,5,5,NA,NA,NA,left,absent,NA,NA,n_s_047.jpg,gray,m_l_083.jpg,gray,within,NA,NaN,NA,left,2159.5,1,3,1319.5
RVyVmoTu,3r0wocg22pm4csvtiwincc3gz22duj,3c8hj7uopb7qp5tasel01e1hcgjzmf,RVyVmoTu,2020-0188,2021-10-14,15:24:01,16:33:37,NA,incomplete,false,NA,true,5,6,NA,NA,NA,left,absent,NA,NA,n_s_069.jpg,orange,m_s_076.jpg,orange,within,NA,NaN,NA,right,2199.5,0,2,1959.5
RVyVmoTu,3r0wocg22pm4csvtiwincc3gz22duj,3c8hj7uopb7qp5tasel01e1hcgjzmf,RVyVmoTu,2020-0188,2021-10-14,15:24:01,16:33:37,NA,incomplete,false,NA,true,5,7,NA,NA,NA,left,absent,NA,NA,n_s_062.jpg,orange,n_s_018.jpg,blue,between,NA,NaN,NA,right,3887.399999976158,0,1,1470.8999999761581
RVyVmoTu,3r0wocg22pm4csvtiwincc3gz22duj,3c8hj7uopb7qp5tasel01e1hcgjzmf,RVyVmoTu,2020-0188,2021-10-14,15:24:01,16:33:37,NA,incomplete,false,NA,true,5,8,NA,NA,NA,left,absent,NA,NA,n_l_095.jpg,blue,m_s_093.jpg,brown,between,NA,NaN,NA,left,5375.5,1,0,1783.3000000715256
RVyVmoTu,3r0wocg22pm4csvtiwincc3gz22duj,3c8hj7uopb7qp5tasel01e1hcgjzmf,RVyVmoTu,2020-0188,2021-10-14,15:24:01,16:33:37,NA,incomplete,false,NA,true,5,9,NA,NA,NA,right,absent,NA,NA,m_l_034.jpg,green,m_l_109.jpg,brown,between,NA,NaN,NA,left,2479.5,0,1,1887.3999999761581
RVyVmoTu,3r0wocg22pm4csvtiwincc3gz22duj,3c8hj7uopb7qp5tasel01e1hcgjzmf,RVyVmoTu,2020-0188,2021-10-14,15:24:01,16:33:37,NA,incomplete,false,NA,true,5,10,NA,NA,NA,left,absent,NA,NA,m_s_094.jpg,green,m_l_009.jpg,white,between,NA,NaN,NA,left,2023.6000000238419,1,2,1735.3999999761581
RVyVmoTu,3r0wocg22pm4csvtiwincc3gz22duj,3c8hj7uopb7qp5tasel01e1hcgjzmf,RVyVmoTu,2020-0188,2021-10-14,15:24:01,16:33:37,NA,incomplete,false,true,NA,6,0,NA,black,n_s_066.jpg,NA,NA,unpleasant,pleasant,NA,NA,NA,NA,NA,left,2056.29999995232,true,NA,NA,NA,NA,NA
RVyVmoTu,3r0wocg22pm4csvtiwincc3gz22duj,3c8hj7uopb7qp5tasel01e1hcgjzmf,RVyVmoTu,2020-0188,2021-10-14,15:24:01,16:33:37,NA,incomplete,false,true,NA,6,1,NA,black,n_l_034.jpg,NA,NA,pleasant,unpleasant,NA,NA,NA,NA,NA,right,1099.90000009537,true,NA,NA,NA,NA,NA
RVyVmoTu,3r0wocg22pm4csvtiwincc3gz22duj,3c8hj7uopb7qp5tasel01e1hcgjzmf,RVyVmoTu,2020-0188,2021-10-14,15:24:01,16:33:37,NA,incomplete,false,true,NA,6,2,NA,black,n_l_111.jpg,NA,NA,unpleasant,pleasant,NA,NA,NA,NA,NA,left,2088.39999997616,true,NA,NA,NA,NA,NA
RVyVmoTu,3r0wocg22pm4csvtiwincc3gz22duj,3c8hj7uopb7qp5tasel01e1hcgjzmf,RVyVmoTu,2020-0188,2021-10-14,15:24:01,16:33:37,NA,incomplete,false,true,NA,6,3,NA,black,m_s_033.jpg,NA,NA,unpleasant,pleasant,NA,NA,NA,NA,NA,right,1254.29999995232,true,NA,NA,NA,NA,NA
RVyVmoTu,3r0wocg22pm4csvtiwincc3gz22duj,3c8hj7uopb7qp5tasel01e1hcgjzmf,RVyVmoTu,2020-0188,2021-10-14,15:24:01,16:33:37,NA,incomplete,false,true,NA,6,4,NA,black,m_s_098.jpg,NA,NA,pleasant,unpleasant,NA,NA,NA,NA,NA,left,1568,true,NA,NA,NA,NA,NA
RVyVmoTu,3r0wocg22pm4csvtiwincc3gz22duj,3c8hj7uopb7qp5tasel01e1hcgjzmf,RVyVmoTu,2020-0188,2021-10-14,15:24:01,16:33:37,NA,incomplete,false,true,NA,6,5,NA,black,m_l_091.jpg,NA,NA,pleasant,unpleasant,NA,NA,NA,NA,NA,right,1084,true,NA,NA,NA,NA,NA
RVyVmoTu,3r0wocg22pm4csvtiwincc3gz22duj,3c8hj7uopb7qp5tasel01e1hcgjzmf,RVyVmoTu,2020-0188,2021-10-14,15:24:01,16:33:37,NA,incomplete,false,true,NA,6,6,NA,green,n_l_060.jpg,NA,NA,unpleasant,pleasant,NA,NA,NA,NA,NA,left,1407.79999995232,true,NA,NA,NA,NA,NA
RVyVmoTu,3r0wocg22pm4csvtiwincc3gz22duj,3c8hj7uopb7qp5tasel01e1hcgjzmf,RVyVmoTu,2020-0188,2021-10-14,15:24:01,16:33:37,NA,incomplete,false,true,NA,6,7,NA,green,m_l_069.jpg,NA,NA,unpleasant,pleasant,NA,NA,NA,NA,NA,left,1451.69999992847,true,NA,NA,NA,NA,NA
RVyVmoTu,3r0wocg22pm4csvtiwincc3gz22duj,3c8hj7uopb7qp5tasel01e1hcgjzmf,RVyVmoTu,2020-0188,2021-10-14,15:24:01,16:33:37,NA,incomplete,false,true,NA,6,8,NA,green,m_l_033.jpg,NA,NA,unpleasant,pleasant,NA,NA,NA,NA,NA,right,1392.10000002384,true,NA,NA,NA,NA,NA
RVyVmoTu,3r0wocg22pm4csvtiwincc3gz22duj,3c8hj7uopb7qp5tasel01e1hcgjzmf,RVyVmoTu,2020-0188,2021-10-14,15:24:01,16:33:37,NA,incomplete,false,true,NA,6,9,NA,green,m_s_004.jpg,NA,NA,unpleasant,pleasant,NA,NA,NA,NA,NA,right,1219.80000007153,true,NA,NA,NA,NA,NA
RVyVmoTu,3r0wocg22pm4csvtiwincc3gz22duj,3c8hj7uopb7qp5tasel01e1hcgjzmf,RVyVmoTu,2020-0188,2021-10-14,15:24:01,16:33:37,NA,incomplete,false,true,NA,6,10,NA,green,m_s_023.jpg,NA,NA,unpleasant,pleasant,NA,NA,NA,NA,NA,right,1287.79999995232,true,NA,NA,NA,NA,NA
RVyVmoTu,3r0wocg22pm4csvtiwincc3gz22duj,3c8hj7uopb7qp5tasel01e1hcgjzmf,RVyVmoTu,2020-0188,2021-10-14,15:24:01,16:33:37,NA,incomplete,false,true,NA,6,11,NA,green,m_s_014.jpg,NA,NA,pleasant,unpleasant,NA,NA,NA,NA,NA,left,1195.89999997616,true,NA,NA,NA,NA,NA
RVyVmoTu,3r0wocg22pm4csvtiwincc3gz22duj,3c8hj7uopb7qp5tasel01e1hcgjzmf,RVyVmoTu,2020-0188,2021-10-14,15:24:01,16:33:37,NA,incomplete,false,true,NA,6,12,NA,white,n_s_107.jpg,NA,NA,unpleasant,pleasant,NA,NA,NA,NA,NA,right,1888.39999997616,true,NA,NA,NA,NA,NA
RVyVmoTu,3r0wocg22pm4csvtiwincc3gz22duj,3c8hj7uopb7qp5tasel01e1hcgjzmf,RVyVmoTu,2020-0188,2021-10-14,15:24:01,16:33:37,NA,incomplete,false,true,NA,6,13,NA,white,m_s_019.jpg,NA,NA,pleasant,unpleasant,NA,NA,NA,NA,NA,left,2043.90000009537,true,NA,NA,NA,NA,NA
RVyVmoTu,3r0wocg22pm4csvtiwincc3gz22duj,3c8hj7uopb7qp5tasel01e1hcgjzmf,RVyVmoTu,2020-0188,2021-10-14,15:24:01,16:33:37,NA,incomplete,false,true,NA,6,14,NA,white,n_s_078.jpg,NA,NA,unpleasant,pleasant,NA,NA,NA,NA,NA,left,1728.79999995232,true,NA,NA,NA,NA,NA
RVyVmoTu,3r0wocg22pm4csvtiwincc3gz22duj,3c8hj7uopb7qp5tasel01e1hcgjzmf,RVyVmoTu,2020-0188,2021-10-14,15:24:01,16:33:37,NA,incomplete,false,true,NA,6,15,NA,white,n_s_029.jpg,NA,NA,pleasant,unpleasant,NA,NA,NA,NA,NA,left,1773.09999990463,true,NA,NA,NA,NA,NA
RVyVmoTu,3r0wocg22pm4csvtiwincc3gz22duj,3c8hj7uopb7qp5tasel01e1hcgjzmf,RVyVmoTu,2020-0188,2021-10-14,15:24:01,16:33:37,NA,incomplete,false,true,NA,6,16,NA,white,m_s_104.jpg,NA,NA,pleasant,unpleasant,NA,NA,NA,NA,NA,left,1273.09999990463,true,NA,NA,NA,NA,NA
RVyVmoTu,3r0wocg22pm4csvtiwincc3gz22duj,3c8hj7uopb7qp5tasel01e1hcgjzmf,RVyVmoTu,2020-0188,2021-10-14,15:24:01,16:33:37,NA,incomplete,false,true,NA,6,17,NA,white,m_l_080.jpg,NA,NA,pleasant,unpleasant,NA,NA,NA,NA,NA,right,1861.20000004768,true,NA,NA,NA,NA,NA
RVyVmoTu,3r0wocg22pm4csvtiwincc3gz22duj,3c8hj7uopb7qp5tasel01e1hcgjzmf,RVyVmoTu,2020-0188,2021-10-14,15:24:01,16:33:37,NA,incomplete,false,true,NA,6,18,NA,blue,m_s_051.jpg,NA,NA,unpleasant,pleasant,NA,NA,NA,NA,NA,right,1721.60000002384,true,NA,NA,NA,NA,NA
RVyVmoTu,3r0wocg22pm4csvtiwincc3gz22duj,3c8hj7uopb7qp5tasel01e1hcgjzmf,RVyVmoTu,2020-0188,2021-10-14,15:24:01,16:33:37,NA,incomplete,false,true,NA,6,19,NA,blue,m_s_111.jpg,NA,NA,pleasant,unpleasant,NA,NA,NA,NA,NA,left,1189.29999995232,true,NA,NA,NA,NA,NA
RVyVmoTu,3r0wocg22pm4csvtiwincc3gz22duj,3c8hj7uopb7qp5tasel01e1hcgjzmf,RVyVmoTu,2020-0188,2021-10-14,15:24:01,16:33:37,NA,incomplete,false,true,NA,6,20,NA,blue,n_l_070.jpg,NA,NA,pleasant,unpleasant,NA,NA,NA,NA,NA,left,1705.5,true,NA,NA,NA,NA,NA
RVyVmoTu,3r0wocg22pm4csvtiwincc3gz22duj,3c8hj7uopb7qp5tasel01e1hcgjzmf,RVyVmoTu,2020-0188,2021-10-14,15:24:01,16:33:37,NA,incomplete,false,true,NA,6,21,NA,blue,n_l_032.jpg,NA,NA,pleasant,unpleasant,NA,NA,NA,NA,NA,right,1253.09999990463,true,NA,NA,NA,NA,NA
RVyVmoTu,3r0wocg22pm4csvtiwincc3gz22duj,3c8hj7uopb7qp5tasel01e1hcgjzmf,RVyVmoTu,2020-0188,2021-10-14,15:24:01,16:33:37,NA,incomplete,false,true,NA,6,22,NA,blue,m_s_013.jpg,NA,NA,pleasant,unpleasant,NA,NA,NA,NA,NA,left,1456.80000007153,true,NA,NA,NA,NA,NA
RVyVmoTu,3r0wocg22pm4csvtiwincc3gz22duj,3c8hj7uopb7qp5tasel01e1hcgjzmf,RVyVmoTu,2020-0188,2021-10-14,15:24:01,16:33:37,NA,incomplete,false,true,NA,6,23,NA,blue,n_s_030.jpg,NA,NA,pleasant,unpleasant,NA,NA,NA,NA,NA,left,1348.89999997616,true,NA,NA,NA,NA,NA
RVyVmoTu,3r0wocg22pm4csvtiwincc3gz22duj,3c8hj7uopb7qp5tasel01e1hcgjzmf,RVyVmoTu,2020-0188,2021-10-14,15:24:01,16:33:37,NA,incomplete,false,true,NA,6,24,NA,yellow,n_l_011.jpg,NA,NA,pleasant,unpleasant,NA,NA,NA,NA,NA,right,825.199999928474,true,NA,NA,NA,NA,NA
RVyVmoTu,3r0wocg22pm4csvtiwincc3gz22duj,3c8hj7uopb7qp5tasel01e1hcgjzmf,RVyVmoTu,2020-0188,2021-10-14,15:24:01,16:33:37,NA,incomplete,false,true,NA,6,25,NA,yellow,m_s_006.jpg,NA,NA,unpleasant,pleasant,NA,NA,NA,NA,NA,right,1790.10000002384,true,NA,NA,NA,NA,NA
RVyVmoTu,3r0wocg22pm4csvtiwincc3gz22duj,3c8hj7uopb7qp5tasel01e1hcgjzmf,RVyVmoTu,2020-0188,2021-10-14,15:24:01,16:33:37,NA,incomplete,false,true,NA,6,26,NA,yellow,n_l_002.jpg,NA,NA,pleasant,unpleasant,NA,NA,NA,NA,NA,right,1267.70000004768,true,NA,NA,NA,NA,NA
RVyVmoTu,3r0wocg22pm4csvtiwincc3gz22duj,3c8hj7uopb7qp5tasel01e1hcgjzmf,RVyVmoTu,2020-0188,2021-10-14,15:24:01,16:33:37,NA,incomplete,false,true,NA,6,27,NA,yellow,n_l_100.jpg,NA,NA,unpleasant,pleasant,NA,NA,NA,NA,NA,right,1150.5,true,NA,NA,NA,NA,NA
RVyVmoTu,3r0wocg22pm4csvtiwincc3gz22duj,3c8hj7uopb7qp5tasel01e1hcgjzmf,RVyVmoTu,2020-0188,2021-10-14,15:24:01,16:33:37,NA,incomplete,false,true,NA,6,28,NA,yellow,m_s_039.jpg,NA,NA,unpleasant,pleasant,NA,NA,NA,NA,NA,right,1202.19999992847,true,NA,NA,NA,NA,NA
RVyVmoTu,3r0wocg22pm4csvtiwincc3gz22duj,3c8hj7uopb7qp5tasel01e1hcgjzmf,RVyVmoTu,2020-0188,2021-10-14,15:24:01,16:33:37,NA,incomplete,false,true,NA,6,29,NA,yellow,n_l_089.jpg,NA,NA,pleasant,unpleasant,NA,NA,NA,NA,NA,right,1359.70000004768,true,NA,NA,NA,NA,NA
RVyVmoTu,3r0wocg22pm4csvtiwincc3gz22duj,3c8hj7uopb7qp5tasel01e1hcgjzmf,RVyVmoTu,2020-0188,2021-10-14,15:24:01,16:33:37,NA,incomplete,false,true,NA,6,30,NA,red,m_s_020.jpg,NA,NA,unpleasant,pleasant,NA,NA,NA,NA,NA,left,1610.5,true,NA,NA,NA,NA,NA
RVyVmoTu,3r0wocg22pm4csvtiwincc3gz22duj,3c8hj7uopb7qp5tasel01e1hcgjzmf,RVyVmoTu,2020-0188,2021-10-14,15:24:01,16:33:37,NA,incomplete,false,true,NA,6,31,NA,red,n_l_003.jpg,NA,NA,pleasant,unpleasant,NA,NA,NA,NA,NA,right,1999.19999992847,true,NA,NA,NA,NA,NA
RVyVmoTu,3r0wocg22pm4csvtiwincc3gz22duj,3c8hj7uopb7qp5tasel01e1hcgjzmf,RVyVmoTu,2020-0188,2021-10-14,15:24:01,16:33:37,NA,incomplete,false,true,NA,6,32,NA,red,m_s_081.jpg,NA,NA,pleasant,unpleasant,NA,NA,NA,NA,NA,left,1459.89999997616,true,NA,NA,NA,NA,NA
RVyVmoTu,3r0wocg22pm4csvtiwincc3gz22duj,3c8hj7uopb7qp5tasel01e1hcgjzmf,RVyVmoTu,2020-0188,2021-10-14,15:24:01,16:33:37,NA,incomplete,false,true,NA,6,33,NA,red,m_l_013.jpg,NA,NA,pleasant,unpleasant,NA,NA,NA,NA,NA,left,1024.29999995232,true,NA,NA,NA,NA,NA
RVyVmoTu,3r0wocg22pm4csvtiwincc3gz22duj,3c8hj7uopb7qp5tasel01e1hcgjzmf,RVyVmoTu,2020-0188,2021-10-14,15:24:01,16:33:37,NA,incomplete,false,true,NA,6,34,NA,red,n_s_099.jpg,NA,NA,pleasant,unpleasant,NA,NA,NA,NA,NA,left,1780.19999992847,true,NA,NA,NA,NA,NA
RVyVmoTu,3r0wocg22pm4csvtiwincc3gz22duj,3c8hj7uopb7qp5tasel01e1hcgjzmf,RVyVmoTu,2020-0188,2021-10-14,15:24:01,16:33:37,NA,incomplete,false,true,NA,6,35,NA,red,n_l_041.jpg,NA,NA,pleasant,unpleasant,NA,NA,NA,NA,NA,right,816.699999928474,true,NA,NA,NA,NA,NA
RVyVmoTu,3r0wocg22pm4csvtiwincc3gz22duj,3c8hj7uopb7qp5tasel01e1hcgjzmf,RVyVmoTu,2020-0188,2021-10-14,15:24:01,16:33:37,NA,incomplete,false,NA,true,6,0,NA,NA,NA,right,absent,NA,NA,m_s_014.jpg,green,m_l_069.jpg,green,within,NA,NaN,NA,right,5143.5,1,2,1791.5
RVyVmoTu,3r0wocg22pm4csvtiwincc3gz22duj,3c8hj7uopb7qp5tasel01e1hcgjzmf,RVyVmoTu,2020-0188,2021-10-14,15:24:01,16:33:37,NA,incomplete,false,NA,true,6,1,NA,NA,NA,right,absent,NA,NA,m_l_033.jpg,green,m_s_098.jpg,black,between,NA,NaN,NA,right,3815.3000000715256,1,1,1311.2999999523163
RVyVmoTu,3r0wocg22pm4csvtiwincc3gz22duj,3c8hj7uopb7qp5tasel01e1hcgjzmf,RVyVmoTu,2020-0188,2021-10-14,15:24:01,16:33:37,NA,incomplete,false,NA,true,6,2,NA,NA,NA,right,absent,NA,NA,m_l_080.jpg,white,m_s_019.jpg,white,within,NA,NaN,NA,right,3607.2999999523163,1,0,1695.2999999523163
RVyVmoTu,3r0wocg22pm4csvtiwincc3gz22duj,3c8hj7uopb7qp5tasel01e1hcgjzmf,RVyVmoTu,2020-0188,2021-10-14,15:24:01,16:33:37,NA,incomplete,false,NA,true,6,3,NA,NA,NA,right,absent,NA,NA,n_s_078.jpg,white,m_s_023.jpg,green,between,NA,NaN,NA,left,2455.5,0,3,1175.5
RVyVmoTu,3r0wocg22pm4csvtiwincc3gz22duj,3c8hj7uopb7qp5tasel01e1hcgjzmf,RVyVmoTu,2020-0188,2021-10-14,15:24:01,16:33:37,NA,incomplete,false,NA,true,6,4,NA,NA,NA,right,absent,NA,NA,m_l_091.jpg,black,n_l_034.jpg,black,within,NA,NaN,NA,left,3063.5,0,2,1007.3999999761581
RVyVmoTu,3r0wocg22pm4csvtiwincc3gz22duj,3c8hj7uopb7qp5tasel01e1hcgjzmf,RVyVmoTu,2020-0188,2021-10-14,15:24:01,16:33:37,NA,incomplete,false,NA,true,6,5,NA,NA,NA,left,absent,NA,NA,m_s_104.jpg,white,n_l_070.jpg,blue,between,NA,NaN,NA,left,5543.600000023842,1,0,1191.5
RVyVmoTu,3r0wocg22pm4csvtiwincc3gz22duj,3c8hj7uopb7qp5tasel01e1hcgjzmf,RVyVmoTu,2020-0188,2021-10-14,15:24:01,16:33:37,NA,incomplete,false,NA,true,6,6,NA,NA,NA,left,absent,NA,NA,m_s_006.jpg,yellow,n_l_089.jpg,yellow,within,NA,NaN,NA,right,3695.600000023842,0,1,1535.7000000476837
RVyVmoTu,3r0wocg22pm4csvtiwincc3gz22duj,3c8hj7uopb7qp5tasel01e1hcgjzmf,RVyVmoTu,2020-0188,2021-10-14,15:24:01,16:33:37,NA,incomplete,false,NA,true,6,7,NA,NA,NA,right,absent,NA,NA,n_l_041.jpg,red,n_l_003.jpg,red,within,NA,NaN,NA,right,2391.600000023842,1,2,1535.6999999284744
RVyVmoTu,3r0wocg22pm4csvtiwincc3gz22duj,3c8hj7uopb7qp5tasel01e1hcgjzmf,RVyVmoTu,2020-0188,2021-10-14,15:24:01,16:33:37,NA,incomplete,false,NA,true,6,8,NA,NA,NA,right,absent,NA,NA,n_s_030.jpg,blue,m_s_111.jpg,blue,within,NA,NaN,NA,left,2359.7999999523163,0,3,2511.2999999523163
RVyVmoTu,3r0wocg22pm4csvtiwincc3gz22duj,3c8hj7uopb7qp5tasel01e1hcgjzmf,RVyVmoTu,2020-0188,2021-10-14,15:24:01,16:33:37,NA,incomplete,false,NA,true,6,9,NA,NA,NA,left,absent,NA,NA,m_s_013.jpg,blue,n_l_002.jpg,yellow,between,NA,NaN,NA,left,3207.2000000476837,1,2,919.3999999761581
RVyVmoTu,3r0wocg22pm4csvtiwincc3gz22duj,3c8hj7uopb7qp5tasel01e1hcgjzmf,RVyVmoTu,2020-0188,2021-10-14,15:24:01,16:33:37,NA,incomplete,false,NA,true,6,10,NA,NA,NA,left,absent,NA,NA,m_s_039.jpg,yellow,m_s_081.jpg,red,between,NA,NaN,NA,left,3039.600000023842,1,2,815.5
RVyVmoTu,3r0wocg22pm4csvtiwincc3gz22duj,3c8hj7uopb7qp5tasel01e1hcgjzmf,RVyVmoTu,2020-0188,2021-10-14,15:24:01,16:33:37,NA,incomplete,false,true,NA,7,0,NA,white,n_s_053.jpg,NA,NA,pleasant,unpleasant,NA,NA,NA,NA,NA,right,1440.39999997616,true,NA,NA,NA,NA,NA
RVyVmoTu,3r0wocg22pm4csvtiwincc3gz22duj,3c8hj7uopb7qp5tasel01e1hcgjzmf,RVyVmoTu,2020-0188,2021-10-14,15:24:01,16:33:37,NA,incomplete,false,true,NA,7,1,NA,white,m_l_082.jpg,NA,NA,unpleasant,pleasant,NA,NA,NA,NA,NA,right,1484.5,true,NA,NA,NA,NA,NA
RVyVmoTu,3r0wocg22pm4csvtiwincc3gz22duj,3c8hj7uopb7qp5tasel01e1hcgjzmf,RVyVmoTu,2020-0188,2021-10-14,15:24:01,16:33:37,NA,incomplete,false,true,NA,7,2,NA,white,n_s_116.jpg,NA,NA,pleasant,unpleasant,NA,NA,NA,NA,NA,left,1136,true,NA,NA,NA,NA,NA
RVyVmoTu,3r0wocg22pm4csvtiwincc3gz22duj,3c8hj7uopb7qp5tasel01e1hcgjzmf,RVyVmoTu,2020-0188,2021-10-14,15:24:01,16:33:37,NA,incomplete,false,true,NA,7,3,NA,white,n_l_050.jpg,NA,NA,pleasant,unpleasant,NA,NA,NA,NA,NA,left,1156.20000004768,true,NA,NA,NA,NA,NA
RVyVmoTu,3r0wocg22pm4csvtiwincc3gz22duj,3c8hj7uopb7qp5tasel01e1hcgjzmf,RVyVmoTu,2020-0188,2021-10-14,15:24:01,16:33:37,NA,incomplete,false,true,NA,7,4,NA,white,m_l_040.jpg,NA,NA,pleasant,unpleasant,NA,NA,NA,NA,NA,left,1528,true,NA,NA,NA,NA,NA
RVyVmoTu,3r0wocg22pm4csvtiwincc3gz22duj,3c8hj7uopb7qp5tasel01e1hcgjzmf,RVyVmoTu,2020-0188,2021-10-14,15:24:01,16:33:37,NA,incomplete,false,true,NA,7,5,NA,white,m_l_005.jpg,NA,NA,unpleasant,pleasant,NA,NA,NA,NA,NA,right,1564.40000009537,true,NA,NA,NA,NA,NA
RVyVmoTu,3r0wocg22pm4csvtiwincc3gz22duj,3c8hj7uopb7qp5tasel01e1hcgjzmf,RVyVmoTu,2020-0188,2021-10-14,15:24:01,16:33:37,NA,incomplete,false,true,NA,7,6,NA,orange,n_l_008.jpg,NA,NA,pleasant,unpleasant,NA,NA,NA,NA,NA,left,1201.10000002384,true,NA,NA,NA,NA,NA
RVyVmoTu,3r0wocg22pm4csvtiwincc3gz22duj,3c8hj7uopb7qp5tasel01e1hcgjzmf,RVyVmoTu,2020-0188,2021-10-14,15:24:01,16:33:37,NA,incomplete,false,true,NA,7,7,NA,orange,n_s_044.jpg,NA,NA,pleasant,unpleasant,NA,NA,NA,NA,NA,left,1653.10000002384,true,NA,NA,NA,NA,NA
RVyVmoTu,3r0wocg22pm4csvtiwincc3gz22duj,3c8hj7uopb7qp5tasel01e1hcgjzmf,RVyVmoTu,2020-0188,2021-10-14,15:24:01,16:33:37,NA,incomplete,false,true,NA,7,8,NA,orange,n_s_046.jpg,NA,NA,pleasant,unpleasant,NA,NA,NA,NA,NA,right,912.799999952316,true,NA,NA,NA,NA,NA
RVyVmoTu,3r0wocg22pm4csvtiwincc3gz22duj,3c8hj7uopb7qp5tasel01e1hcgjzmf,RVyVmoTu,2020-0188,2021-10-14,15:24:01,16:33:37,NA,incomplete,false,true,NA,7,9,NA,orange,m_l_038.jpg,NA,NA,pleasant,unpleasant,NA,NA,NA,NA,NA,left,1661.29999995232,true,NA,NA,NA,NA,NA
RVyVmoTu,3r0wocg22pm4csvtiwincc3gz22duj,3c8hj7uopb7qp5tasel01e1hcgjzmf,RVyVmoTu,2020-0188,2021-10-14,15:24:01,16:33:37,NA,incomplete,false,true,NA,7,10,NA,orange,m_l_025.jpg,NA,NA,unpleasant,pleasant,NA,NA,NA,NA,NA,right,1264.60000002384,true,NA,NA,NA,NA,NA
RVyVmoTu,3r0wocg22pm4csvtiwincc3gz22duj,3c8hj7uopb7qp5tasel01e1hcgjzmf,RVyVmoTu,2020-0188,2021-10-14,15:24:01,16:33:37,NA,incomplete,false,true,NA,7,11,NA,orange,m_l_060.jpg,NA,NA,pleasant,unpleasant,NA,NA,NA,NA,NA,left,1598.60000002384,true,NA,NA,NA,NA,NA
RVyVmoTu,3r0wocg22pm4csvtiwincc3gz22duj,3c8hj7uopb7qp5tasel01e1hcgjzmf,RVyVmoTu,2020-0188,2021-10-14,15:24:01,16:33:37,NA,incomplete,false,true,NA,7,12,NA,green,m_s_054.jpg,NA,NA,pleasant,unpleasant,NA,NA,NA,NA,NA,left,2034.89999997616,true,NA,NA,NA,NA,NA
RVyVmoTu,3r0wocg22pm4csvtiwincc3gz22duj,3c8hj7uopb7qp5tasel01e1hcgjzmf,RVyVmoTu,2020-0188,2021-10-14,15:24:01,16:33:37,NA,incomplete,false,true,NA,7,13,NA,green,n_s_010.jpg,NA,NA,unpleasant,pleasant,NA,NA,NA,NA,NA,right,1166.79999995232,true,NA,NA,NA,NA,NA
RVyVmoTu,3r0wocg22pm4csvtiwincc3gz22duj,3c8hj7uopb7qp5tasel01e1hcgjzmf,RVyVmoTu,2020-0188,2021-10-14,15:24:01,16:33:37,NA,incomplete,false,true,NA,7,14,NA,green,n_l_012.jpg,NA,NA,unpleasant,pleasant,NA,NA,NA,NA,NA,left,1258.5,true,NA,NA,NA,NA,NA
RVyVmoTu,3r0wocg22pm4csvtiwincc3gz22duj,3c8hj7uopb7qp5tasel01e1hcgjzmf,RVyVmoTu,2020-0188,2021-10-14,15:24:01,16:33:37,NA,incomplete,false,true,NA,7,15,NA,green,m_l_007.jpg,NA,NA,unpleasant,pleasant,NA,NA,NA,NA,NA,left,1343.39999997616,true,NA,NA,NA,NA,NA
RVyVmoTu,3r0wocg22pm4csvtiwincc3gz22duj,3c8hj7uopb7qp5tasel01e1hcgjzmf,RVyVmoTu,2020-0188,2021-10-14,15:24:01,16:33:37,NA,incomplete,false,true,NA,7,16,NA,green,n_l_017.jpg,NA,NA,unpleasant,pleasant,NA,NA,NA,NA,NA,left,1171.79999995232,true,NA,NA,NA,NA,NA
RVyVmoTu,3r0wocg22pm4csvtiwincc3gz22duj,3c8hj7uopb7qp5tasel01e1hcgjzmf,RVyVmoTu,2020-0188,2021-10-14,15:24:01,16:33:37,NA,incomplete,false,true,NA,7,17,NA,green,n_l_049.jpg,NA,NA,unpleasant,pleasant,NA,NA,NA,NA,NA,left,1335.69999992847,true,NA,NA,NA,NA,NA
RVyVmoTu,3r0wocg22pm4csvtiwincc3gz22duj,3c8hj7uopb7qp5tasel01e1hcgjzmf,RVyVmoTu,2020-0188,2021-10-14,15:24:01,16:33:37,NA,incomplete,false,true,NA,7,18,NA,black,n_l_043.jpg,NA,NA,pleasant,unpleasant,NA,NA,NA,NA,NA,right,1947.39999997616,true,NA,NA,NA,NA,NA
RVyVmoTu,3r0wocg22pm4csvtiwincc3gz22duj,3c8hj7uopb7qp5tasel01e1hcgjzmf,RVyVmoTu,2020-0188,2021-10-14,15:24:01,16:33:37,NA,incomplete,false,true,NA,7,19,NA,black,n_s_011.jpg,NA,NA,pleasant,unpleasant,NA,NA,NA,NA,NA,right,1408.10000002384,true,NA,NA,NA,NA,NA
RVyVmoTu,3r0wocg22pm4csvtiwincc3gz22duj,3c8hj7uopb7qp5tasel01e1hcgjzmf,RVyVmoTu,2020-0188,2021-10-14,15:24:01,16:33:37,NA,incomplete,false,true,NA,7,20,NA,black,m_l_027.jpg,NA,NA,pleasant,unpleasant,NA,NA,NA,NA,NA,left,1779.69999992847,true,NA,NA,NA,NA,NA
RVyVmoTu,3r0wocg22pm4csvtiwincc3gz22duj,3c8hj7uopb7qp5tasel01e1hcgjzmf,RVyVmoTu,2020-0188,2021-10-14,15:24:01,16:33:37,NA,incomplete,false,true,NA,7,21,NA,black,n_l_104.jpg,NA,NA,pleasant,unpleasant,NA,NA,NA,NA,NA,left,1952.60000002384,true,NA,NA,NA,NA,NA
RVyVmoTu,3r0wocg22pm4csvtiwincc3gz22duj,3c8hj7uopb7qp5tasel01e1hcgjzmf,RVyVmoTu,2020-0188,2021-10-14,15:24:01,16:33:37,NA,incomplete,false,true,NA,7,22,NA,black,n_l_006.jpg,NA,NA,unpleasant,pleasant,NA,NA,NA,NA,NA,left,1444.39999997616,true,NA,NA,NA,NA,NA
RVyVmoTu,3r0wocg22pm4csvtiwincc3gz22duj,3c8hj7uopb7qp5tasel01e1hcgjzmf,RVyVmoTu,2020-0188,2021-10-14,15:24:01,16:33:37,NA,incomplete,false,true,NA,7,23,NA,black,n_l_028.jpg,NA,NA,pleasant,unpleasant,NA,NA,NA,NA,NA,right,1441.5,true,NA,NA,NA,NA,NA
RVyVmoTu,3r0wocg22pm4csvtiwincc3gz22duj,3c8hj7uopb7qp5tasel01e1hcgjzmf,RVyVmoTu,2020-0188,2021-10-14,15:24:01,16:33:37,NA,incomplete,false,true,NA,7,24,NA,yellow,n_s_034.jpg,NA,NA,unpleasant,pleasant,NA,NA,NA,NA,NA,left,1516.79999995232,true,NA,NA,NA,NA,NA
RVyVmoTu,3r0wocg22pm4csvtiwincc3gz22duj,3c8hj7uopb7qp5tasel01e1hcgjzmf,RVyVmoTu,2020-0188,2021-10-14,15:24:01,16:33:37,NA,incomplete,false,true,NA,7,25,NA,yellow,m_s_073.jpg,NA,NA,pleasant,unpleasant,NA,NA,NA,NA,NA,left,1369.29999995232,true,NA,NA,NA,NA,NA
RVyVmoTu,3r0wocg22pm4csvtiwincc3gz22duj,3c8hj7uopb7qp5tasel01e1hcgjzmf,RVyVmoTu,2020-0188,2021-10-14,15:24:01,16:33:37,NA,incomplete,false,true,NA,7,26,NA,yellow,m_l_039.jpg,NA,NA,unpleasant,pleasant,NA,NA,NA,NA,NA,right,1525.10000002384,true,NA,NA,NA,NA,NA
RVyVmoTu,3r0wocg22pm4csvtiwincc3gz22duj,3c8hj7uopb7qp5tasel01e1hcgjzmf,RVyVmoTu,2020-0188,2021-10-14,15:24:01,16:33:37,NA,incomplete,false,true,NA,7,27,NA,yellow,m_l_032.jpg,NA,NA,pleasant,unpleasant,NA,NA,NA,NA,NA,left,1169.90000009537,true,NA,NA,NA,NA,NA
RVyVmoTu,3r0wocg22pm4csvtiwincc3gz22duj,3c8hj7uopb7qp5tasel01e1hcgjzmf,RVyVmoTu,2020-0188,2021-10-14,15:24:01,16:33:37,NA,incomplete,false,true,NA,7,28,NA,yellow,m_s_032.jpg,NA,NA,pleasant,unpleasant,NA,NA,NA,NA,NA,left,1165.70000004768,true,NA,NA,NA,NA,NA
RVyVmoTu,3r0wocg22pm4csvtiwincc3gz22duj,3c8hj7uopb7qp5tasel01e1hcgjzmf,RVyVmoTu,2020-0188,2021-10-14,15:24:01,16:33:37,NA,incomplete,false,true,NA,7,29,NA,yellow,n_s_087.jpg,NA,NA,unpleasant,pleasant,NA,NA,NA,NA,NA,left,2011,true,NA,NA,NA,NA,NA
RVyVmoTu,3r0wocg22pm4csvtiwincc3gz22duj,3c8hj7uopb7qp5tasel01e1hcgjzmf,RVyVmoTu,2020-0188,2021-10-14,15:24:01,16:33:37,NA,incomplete,false,true,NA,7,30,NA,purple,m_l_084.jpg,NA,NA,unpleasant,pleasant,NA,NA,NA,NA,NA,left,1518.39999997616,true,NA,NA,NA,NA,NA
RVyVmoTu,3r0wocg22pm4csvtiwincc3gz22duj,3c8hj7uopb7qp5tasel01e1hcgjzmf,RVyVmoTu,2020-0188,2021-10-14,15:24:01,16:33:37,NA,incomplete,false,true,NA,7,31,NA,purple,n_s_093.jpg,NA,NA,pleasant,unpleasant,NA,NA,NA,NA,NA,right,1394.5,true,NA,NA,NA,NA,NA
RVyVmoTu,3r0wocg22pm4csvtiwincc3gz22duj,3c8hj7uopb7qp5tasel01e1hcgjzmf,RVyVmoTu,2020-0188,2021-10-14,15:24:01,16:33:37,NA,incomplete,false,true,NA,7,32,NA,purple,m_l_076.jpg,NA,NA,pleasant,unpleasant,NA,NA,NA,NA,NA,right,1407,true,NA,NA,NA,NA,NA
RVyVmoTu,3r0wocg22pm4csvtiwincc3gz22duj,3c8hj7uopb7qp5tasel01e1hcgjzmf,RVyVmoTu,2020-0188,2021-10-14,15:24:01,16:33:37,NA,incomplete,false,true,NA,7,33,NA,purple,n_s_004.jpg,NA,NA,unpleasant,pleasant,NA,NA,NA,NA,NA,right,1347,true,NA,NA,NA,NA,NA
RVyVmoTu,3r0wocg22pm4csvtiwincc3gz22duj,3c8hj7uopb7qp5tasel01e1hcgjzmf,RVyVmoTu,2020-0188,2021-10-14,15:24:01,16:33:37,NA,incomplete,false,true,NA,7,34,NA,purple,n_l_015.jpg,NA,NA,pleasant,unpleasant,NA,NA,NA,NA,NA,right,1407.5,true,NA,NA,NA,NA,NA
RVyVmoTu,3r0wocg22pm4csvtiwincc3gz22duj,3c8hj7uopb7qp5tasel01e1hcgjzmf,RVyVmoTu,2020-0188,2021-10-14,15:24:01,16:33:37,NA,incomplete,false,true,NA,7,35,NA,purple,n_l_051.jpg,NA,NA,pleasant,unpleasant,NA,NA,NA,NA,NA,left,899.199999928474,true,NA,NA,NA,NA,NA
RVyVmoTu,3r0wocg22pm4csvtiwincc3gz22duj,3c8hj7uopb7qp5tasel01e1hcgjzmf,RVyVmoTu,2020-0188,2021-10-14,15:24:01,16:33:37,NA,incomplete,false,NA,true,7,0,NA,NA,NA,right,present,NA,NA,n_s_046.jpg,orange,m_l_040.jpg,white,between,NA,NaN,NA,right,4446.800000071526,1,2,1742.8999999761581
RVyVmoTu,3r0wocg22pm4csvtiwincc3gz22duj,3c8hj7uopb7qp5tasel01e1hcgjzmf,RVyVmoTu,2020-0188,2021-10-14,15:24:01,16:33:37,NA,incomplete,false,NA,true,7,1,NA,NA,NA,left,present,NA,NA,m_s_073.jpg,yellow,n_s_087.jpg,yellow,within,NA,NaN,NA,right,5023,0,0,1247.3999999761581
RVyVmoTu,3r0wocg22pm4csvtiwincc3gz22duj,3c8hj7uopb7qp5tasel01e1hcgjzmf,RVyVmoTu,2020-0188,2021-10-14,15:24:01,16:33:37,NA,incomplete,false,NA,true,7,2,NA,NA,NA,left,present,NA,NA,n_s_093.jpg,purple,n_l_051.jpg,purple,within,NA,NaN,NA,left,2815.4000000953674,1,0,1375.0999999046326
RVyVmoTu,3r0wocg22pm4csvtiwincc3gz22duj,3c8hj7uopb7qp5tasel01e1hcgjzmf,RVyVmoTu,2020-0188,2021-10-14,15:24:01,16:33:37,NA,incomplete,false,NA,true,7,3,NA,NA,NA,left,present,NA,NA,m_l_082.jpg,white,m_l_005.jpg,white,within,NA,NaN,NA,left,7575.100000023842,1,0,1295.3999999761581
RVyVmoTu,3r0wocg22pm4csvtiwincc3gz22duj,3c8hj7uopb7qp5tasel01e1hcgjzmf,RVyVmoTu,2020-0188,2021-10-14,15:24:01,16:33:37,NA,incomplete,false,NA,true,7,4,NA,NA,NA,left,present,NA,NA,n_s_011.jpg,black,n_l_028.jpg,black,within,NA,NaN,NA,right,3655.5,0,1,1391.2999999523163
RVyVmoTu,3r0wocg22pm4csvtiwincc3gz22duj,3c8hj7uopb7qp5tasel01e1hcgjzmf,RVyVmoTu,2020-0188,2021-10-14,15:24:01,16:33:37,NA,incomplete,false,NA,true,7,5,NA,NA,NA,right,present,NA,NA,m_l_039.jpg,yellow,n_l_006.jpg,black,between,NA,NaN,NA,right,3487.2999999523163,1,3,1447.3999999761581
RVyVmoTu,3r0wocg22pm4csvtiwincc3gz22duj,3c8hj7uopb7qp5tasel01e1hcgjzmf,RVyVmoTu,2020-0188,2021-10-14,15:24:01,16:33:37,NA,incomplete,false,NA,true,7,6,NA,NA,NA,right,present,NA,NA,n_l_012.jpg,green,m_l_025.jpg,orange,between,NA,NaN,NA,right,4463.299999952316,1,2,1455.6000000238419
RVyVmoTu,3r0wocg22pm4csvtiwincc3gz22duj,3c8hj7uopb7qp5tasel01e1hcgjzmf,RVyVmoTu,2020-0188,2021-10-14,15:24:01,16:33:37,NA,incomplete,false,NA,true,7,7,NA,NA,NA,left,present,NA,NA,n_s_044.jpg,orange,m_l_060.jpg,orange,within,NA,NaN,NA,left,3071.399999976158,1,0,1079.5
RVyVmoTu,3r0wocg22pm4csvtiwincc3gz22duj,3c8hj7uopb7qp5tasel01e1hcgjzmf,RVyVmoTu,2020-0188,2021-10-14,15:24:01,16:33:37,NA,incomplete,false,NA,true,7,8,NA,NA,NA,left,present,NA,NA,n_l_017.jpg,green,m_l_027.jpg,black,between,NA,NaN,NA,left,2951.600000023842,1,3,1343.2999999523163
RVyVmoTu,3r0wocg22pm4csvtiwincc3gz22duj,3c8hj7uopb7qp5tasel01e1hcgjzmf,RVyVmoTu,2020-0188,2021-10-14,15:24:01,16:33:37,NA,incomplete,false,NA,true,7,9,NA,NA,NA,right,present,NA,NA,m_l_076.jpg,purple,m_s_032.jpg,yellow,between,NA,NaN,NA,left,2087.5,0,2,1055.3999999761581
RVyVmoTu,3r0wocg22pm4csvtiwincc3gz22duj,3c8hj7uopb7qp5tasel01e1hcgjzmf,RVyVmoTu,2020-0188,2021-10-14,15:24:01,16:33:37,NA,incomplete,false,NA,true,7,10,NA,NA,NA,right,present,NA,NA,n_l_049.jpg,green,n_s_010.jpg,green,within,NA,NaN,NA,right,3959.399999976158,1,0,1407.2999999523163
RVyVmoTu,3r0wocg22pm4csvtiwincc3gz22duj,3c8hj7uopb7qp5tasel01e1hcgjzmf,RVyVmoTu,2020-0188,2021-10-14,15:24:01,16:33:37,NA,incomplete,false,true,NA,8,0,NA,orange,m_s_064.jpg,NA,NA,pleasant,unpleasant,NA,NA,NA,NA,NA,left,1094.29999995232,true,NA,NA,NA,NA,NA
RVyVmoTu,3r0wocg22pm4csvtiwincc3gz22duj,3c8hj7uopb7qp5tasel01e1hcgjzmf,RVyVmoTu,2020-0188,2021-10-14,15:24:01,16:33:37,NA,incomplete,false,true,NA,8,1,NA,orange,n_l_021.jpg,NA,NA,pleasant,unpleasant,NA,NA,NA,NA,NA,right,1203,true,NA,NA,NA,NA,NA
RVyVmoTu,3r0wocg22pm4csvtiwincc3gz22duj,3c8hj7uopb7qp5tasel01e1hcgjzmf,RVyVmoTu,2020-0188,2021-10-14,15:24:01,16:33:37,NA,incomplete,false,true,NA,8,2,NA,orange,n_l_019.jpg,NA,NA,unpleasant,pleasant,NA,NA,NA,NA,NA,left,1182.79999995232,true,NA,NA,NA,NA,NA
RVyVmoTu,3r0wocg22pm4csvtiwincc3gz22duj,3c8hj7uopb7qp5tasel01e1hcgjzmf,RVyVmoTu,2020-0188,2021-10-14,15:24:01,16:33:37,NA,incomplete,false,true,NA,8,3,NA,orange,n_s_072.jpg,NA,NA,pleasant,unpleasant,NA,NA,NA,NA,NA,right,1748.29999995232,true,NA,NA,NA,NA,NA
RVyVmoTu,3r0wocg22pm4csvtiwincc3gz22duj,3c8hj7uopb7qp5tasel01e1hcgjzmf,RVyVmoTu,2020-0188,2021-10-14,15:24:01,16:33:37,NA,incomplete,false,true,NA,8,4,NA,orange,n_s_049.jpg,NA,NA,pleasant,unpleasant,NA,NA,NA,NA,NA,right,1384,true,NA,NA,NA,NA,NA
RVyVmoTu,3r0wocg22pm4csvtiwincc3gz22duj,3c8hj7uopb7qp5tasel01e1hcgjzmf,RVyVmoTu,2020-0188,2021-10-14,15:24:01,16:33:37,NA,incomplete,false,true,NA,8,5,NA,orange,m_s_091.jpg,NA,NA,pleasant,unpleasant,NA,NA,NA,NA,NA,left,1138.39999997616,true,NA,NA,NA,NA,NA
RVyVmoTu,3r0wocg22pm4csvtiwincc3gz22duj,3c8hj7uopb7qp5tasel01e1hcgjzmf,RVyVmoTu,2020-0188,2021-10-14,15:24:01,16:33:37,NA,incomplete,false,true,NA,8,6,NA,red,m_l_061.jpg,NA,NA,unpleasant,pleasant,NA,NA,NA,NA,NA,right,1375.5,true,NA,NA,NA,NA,NA
RVyVmoTu,3r0wocg22pm4csvtiwincc3gz22duj,3c8hj7uopb7qp5tasel01e1hcgjzmf,RVyVmoTu,2020-0188,2021-10-14,15:24:01,16:33:37,NA,incomplete,false,true,NA,8,7,NA,red,m_l_079.jpg,NA,NA,pleasant,unpleasant,NA,NA,NA,NA,NA,right,1204.10000002384,true,NA,NA,NA,NA,NA
RVyVmoTu,3r0wocg22pm4csvtiwincc3gz22duj,3c8hj7uopb7qp5tasel01e1hcgjzmf,RVyVmoTu,2020-0188,2021-10-14,15:24:01,16:33:37,NA,incomplete,false,true,NA,8,8,NA,red,m_l_044.jpg,NA,NA,unpleasant,pleasant,NA,NA,NA,NA,NA,right,1263.90000009537,true,NA,NA,NA,NA,NA
RVyVmoTu,3r0wocg22pm4csvtiwincc3gz22duj,3c8hj7uopb7qp5tasel01e1hcgjzmf,RVyVmoTu,2020-0188,2021-10-14,15:24:01,16:33:37,NA,incomplete,false,true,NA,8,9,NA,red,m_s_107.jpg,NA,NA,pleasant,unpleasant,NA,NA,NA,NA,NA,left,1260.5,true,NA,NA,NA,NA,NA
