workerId,hitId,assignmentId,subject,studyid,exp_date,exp_start,exp_end,time_start,time_end,practice,encoding,memory,block,trial,event_order,event,stim,answer,context_type,label_left,label_right,left_image,left_event,right_image,right_event,condition,response,response_time,response_acc,order_response,order_response_time,order_acc,distance_response,distance_response_time
sDum8qz0,3mdwe879vkfdd3966pwqlqs2jwg9bh,35dr22ar5hx0yollles08uc04p4x30,sDum8qz0,2020-0188,2021-10-14,11:17:55,12:12:53,NA,incomplete,true,true,NA,0,0,NA,orange,m_s_095.jpg,NA,NA,pleasant,unpleasant,NA,NA,NA,NA,NA,right,1238.89999999106,true,NA,NA,NA,NA,NA
sDum8qz0,3mdwe879vkfdd3966pwqlqs2jwg9bh,35dr22ar5hx0yollles08uc04p4x30,sDum8qz0,2020-0188,2021-10-14,11:17:55,12:12:53,NA,incomplete,true,true,NA,0,1,NA,orange,m_l_042.jpg,NA,NA,unpleasant,pleasant,NA,NA,NA,NA,NA,right,337.5,true,NA,NA,NA,NA,NA
sDum8qz0,3mdwe879vkfdd3966pwqlqs2jwg9bh,35dr22ar5hx0yollles08uc04p4x30,sDum8qz0,2020-0188,2021-10-14,11:17:55,12:12:53,NA,incomplete,true,true,NA,0,2,NA,orange,m_l_112.jpg,NA,NA,unpleasant,pleasant,NA,NA,NA,NA,NA,right,306.29999999702,true,NA,NA,NA,NA,NA
sDum8qz0,3mdwe879vkfdd3966pwqlqs2jwg9bh,35dr22ar5hx0yollles08uc04p4x30,sDum8qz0,2020-0188,2021-10-14,11:17:55,12:12:53,NA,incomplete,true,true,NA,0,3,NA,orange,m_s_109.jpg,NA,NA,pleasant,unpleasant,NA,NA,NA,NA,NA,right,471.29999999702,true,NA,NA,NA,NA,NA
sDum8qz0,3mdwe879vkfdd3966pwqlqs2jwg9bh,35dr22ar5hx0yollles08uc04p4x30,sDum8qz0,2020-0188,2021-10-14,11:17:55,12:12:53,NA,incomplete,true,true,NA,0,4,NA,orange,m_l_053.jpg,NA,NA,pleasant,unpleasant,NA,NA,NA,NA,NA,right,327.59999999404,true,NA,NA,NA,NA,NA
sDum8qz0,3mdwe879vkfdd3966pwqlqs2jwg9bh,35dr22ar5hx0yollles08uc04p4x30,sDum8qz0,2020-0188,2021-10-14,11:17:55,12:12:53,NA,incomplete,true,true,NA,0,5,NA,orange,n_s_033.jpg,NA,NA,pleasant,unpleasant,NA,NA,NA,NA,NA,right,623.79999999702,true,NA,NA,NA,NA,NA
sDum8qz0,3mdwe879vkfdd3966pwqlqs2jwg9bh,35dr22ar5hx0yollles08uc04p4x30,sDum8qz0,2020-0188,2021-10-14,11:17:55,12:12:53,NA,incomplete,true,true,NA,0,6,NA,yellow,n_s_019.jpg,NA,NA,pleasant,unpleasant,NA,NA,NA,NA,NA,right,466.90000000596,true,NA,NA,NA,NA,NA
sDum8qz0,3mdwe879vkfdd3966pwqlqs2jwg9bh,35dr22ar5hx0yollles08uc04p4x30,sDum8qz0,2020-0188,2021-10-14,11:17:55,12:12:53,NA,incomplete,true,true,NA,0,7,NA,yellow,n_s_017.jpg,NA,NA,pleasant,unpleasant,NA,NA,NA,NA,NA,right,444.40000000596,true,NA,NA,NA,NA,NA
sDum8qz0,3mdwe879vkfdd3966pwqlqs2jwg9bh,35dr22ar5hx0yollles08uc04p4x30,sDum8qz0,2020-0188,2021-10-14,11:17:55,12:12:53,NA,incomplete,true,true,NA,0,8,NA,yellow,m_l_103.jpg,NA,NA,pleasant,unpleasant,NA,NA,NA,NA,NA,right,608,true,NA,NA,NA,NA,NA
sDum8qz0,3mdwe879vkfdd3966pwqlqs2jwg9bh,35dr22ar5hx0yollles08uc04p4x30,sDum8qz0,2020-0188,2021-10-14,11:17:55,12:12:53,NA,incomplete,true,true,NA,0,9,NA,yellow,m_s_072.jpg,NA,NA,pleasant,unpleasant,NA,NA,NA,NA,NA,right,430.79999999702,true,NA,NA,NA,NA,NA
sDum8qz0,3mdwe879vkfdd3966pwqlqs2jwg9bh,35dr22ar5hx0yollles08uc04p4x30,sDum8qz0,2020-0188,2021-10-14,11:17:55,12:12:53,NA,incomplete,true,true,NA,0,10,NA,yellow,m_s_021.jpg,NA,NA,pleasant,unpleasant,NA,NA,NA,NA,NA,right,1089.20000000298,true,NA,NA,NA,NA,NA
sDum8qz0,3mdwe879vkfdd3966pwqlqs2jwg9bh,35dr22ar5hx0yollles08uc04p4x30,sDum8qz0,2020-0188,2021-10-14,11:17:55,12:12:53,NA,incomplete,true,true,NA,0,11,NA,yellow,m_s_084.jpg,NA,NA,pleasant,unpleasant,NA,NA,NA,NA,NA,right,547.5,true,NA,NA,NA,NA,NA
sDum8qz0,3mdwe879vkfdd3966pwqlqs2jwg9bh,35dr22ar5hx0yollles08uc04p4x30,sDum8qz0,2020-0188,2021-10-14,11:17:55,12:12:53,NA,incomplete,true,true,NA,0,12,NA,blue,m_s_055.jpg,NA,NA,pleasant,unpleasant,NA,NA,NA,NA,NA,none,0,false,NA,NA,NA,NA,NA
sDum8qz0,3mdwe879vkfdd3966pwqlqs2jwg9bh,35dr22ar5hx0yollles08uc04p4x30,sDum8qz0,2020-0188,2021-10-14,11:17:55,12:12:53,NA,incomplete,true,true,NA,0,13,NA,blue,m_l_035.jpg,NA,NA,pleasant,unpleasant,NA,NA,NA,NA,NA,right,666.79999999702,true,NA,NA,NA,NA,NA
sDum8qz0,3mdwe879vkfdd3966pwqlqs2jwg9bh,35dr22ar5hx0yollles08uc04p4x30,sDum8qz0,2020-0188,2021-10-14,11:17:55,12:12:53,NA,incomplete,true,true,NA,0,14,NA,blue,m_l_092.jpg,NA,NA,unpleasant,pleasant,NA,NA,NA,NA,NA,right,1708,true,NA,NA,NA,NA,NA
sDum8qz0,3mdwe879vkfdd3966pwqlqs2jwg9bh,35dr22ar5hx0yollles08uc04p4x30,sDum8qz0,2020-0188,2021-10-14,11:17:55,12:12:53,NA,incomplete,true,true,NA,0,15,NA,blue,m_l_030.jpg,NA,NA,pleasant,unpleasant,NA,NA,NA,NA,NA,right,764.90000000596,true,NA,NA,NA,NA,NA
sDum8qz0,3mdwe879vkfdd3966pwqlqs2jwg9bh,35dr22ar5hx0yollles08uc04p4x30,sDum8qz0,2020-0188,2021-10-14,11:17:55,12:12:53,NA,incomplete,true,true,NA,0,16,NA,blue,n_l_055.jpg,NA,NA,pleasant,unpleasant,NA,NA,NA,NA,NA,right,763.399999991059,true,NA,NA,NA,NA,NA
sDum8qz0,3mdwe879vkfdd3966pwqlqs2jwg9bh,35dr22ar5hx0yollles08uc04p4x30,sDum8qz0,2020-0188,2021-10-14,11:17:55,12:12:53,NA,incomplete,true,true,NA,0,17,NA,blue,n_s_060.jpg,NA,NA,pleasant,unpleasant,NA,NA,NA,NA,NA,right,835.29999999702,true,NA,NA,NA,NA,NA
sDum8qz0,3mdwe879vkfdd3966pwqlqs2jwg9bh,35dr22ar5hx0yollles08uc04p4x30,sDum8qz0,2020-0188,2021-10-14,11:17:55,12:12:53,NA,incomplete,true,true,NA,0,18,NA,red,n_l_045.jpg,NA,NA,pleasant,unpleasant,NA,NA,NA,NA,NA,right,1004.30000001192,true,NA,NA,NA,NA,NA
sDum8qz0,3mdwe879vkfdd3966pwqlqs2jwg9bh,35dr22ar5hx0yollles08uc04p4x30,sDum8qz0,2020-0188,2021-10-14,11:17:55,12:12:53,NA,incomplete,true,true,NA,0,19,NA,red,n_s_101.jpg,NA,NA,pleasant,unpleasant,NA,NA,NA,NA,NA,right,596.5,true,NA,NA,NA,NA,NA
sDum8qz0,3mdwe879vkfdd3966pwqlqs2jwg9bh,35dr22ar5hx0yollles08uc04p4x30,sDum8qz0,2020-0188,2021-10-14,11:17:55,12:12:53,NA,incomplete,true,true,NA,0,20,NA,red,n_l_066.jpg,NA,NA,pleasant,unpleasant,NA,NA,NA,NA,NA,right,1187.10000000894,true,NA,NA,NA,NA,NA
sDum8qz0,3mdwe879vkfdd3966pwqlqs2jwg9bh,35dr22ar5hx0yollles08uc04p4x30,sDum8qz0,2020-0188,2021-10-14,11:17:55,12:12:53,NA,incomplete,true,true,NA,0,21,NA,red,n_l_089.jpg,NA,NA,pleasant,unpleasant,NA,NA,NA,NA,NA,right,786.09999999404,true,NA,NA,NA,NA,NA
sDum8qz0,3mdwe879vkfdd3966pwqlqs2jwg9bh,35dr22ar5hx0yollles08uc04p4x30,sDum8qz0,2020-0188,2021-10-14,11:17:55,12:12:53,NA,incomplete,true,true,NA,0,22,NA,red,n_s_052.jpg,NA,NA,pleasant,unpleasant,NA,NA,NA,NA,NA,right,1046.79999999702,true,NA,NA,NA,NA,NA
sDum8qz0,3mdwe879vkfdd3966pwqlqs2jwg9bh,35dr22ar5hx0yollles08uc04p4x30,sDum8qz0,2020-0188,2021-10-14,11:17:55,12:12:53,NA,incomplete,true,true,NA,0,23,NA,red,m_s_023.jpg,NA,NA,pleasant,unpleasant,NA,NA,NA,NA,NA,right,327.5,true,NA,NA,NA,NA,NA
sDum8qz0,3mdwe879vkfdd3966pwqlqs2jwg9bh,35dr22ar5hx0yollles08uc04p4x30,sDum8qz0,2020-0188,2021-10-14,11:17:55,12:12:53,NA,incomplete,true,true,NA,0,24,NA,gray,n_s_042.jpg,NA,NA,pleasant,unpleasant,NA,NA,NA,NA,NA,left,303.90000000596,true,NA,NA,NA,NA,NA
sDum8qz0,3mdwe879vkfdd3966pwqlqs2jwg9bh,35dr22ar5hx0yollles08uc04p4x30,sDum8qz0,2020-0188,2021-10-14,11:17:55,12:12:53,NA,incomplete,true,true,NA,0,25,NA,gray,m_l_086.jpg,NA,NA,pleasant,unpleasant,NA,NA,NA,NA,NA,left,805.70000000298,true,NA,NA,NA,NA,NA
sDum8qz0,3mdwe879vkfdd3966pwqlqs2jwg9bh,35dr22ar5hx0yollles08uc04p4x30,sDum8qz0,2020-0188,2021-10-14,11:17:55,12:12:53,NA,incomplete,true,true,NA,0,26,NA,gray,n_s_010.jpg,NA,NA,unpleasant,pleasant,NA,NA,NA,NA,NA,left,1601.20000000298,true,NA,NA,NA,NA,NA
sDum8qz0,3mdwe879vkfdd3966pwqlqs2jwg9bh,35dr22ar5hx0yollles08uc04p4x30,sDum8qz0,2020-0188,2021-10-14,11:17:55,12:12:53,NA,incomplete,true,true,NA,0,27,NA,gray,m_s_026.jpg,NA,NA,pleasant,unpleasant,NA,NA,NA,NA,NA,left,1838.70000000298,true,NA,NA,NA,NA,NA
sDum8qz0,3mdwe879vkfdd3966pwqlqs2jwg9bh,35dr22ar5hx0yollles08uc04p4x30,sDum8qz0,2020-0188,2021-10-14,11:17:55,12:12:53,NA,incomplete,true,true,NA,0,28,NA,gray,n_s_006.jpg,NA,NA,unpleasant,pleasant,NA,NA,NA,NA,NA,left,1270.40000000596,true,NA,NA,NA,NA,NA
sDum8qz0,3mdwe879vkfdd3966pwqlqs2jwg9bh,35dr22ar5hx0yollles08uc04p4x30,sDum8qz0,2020-0188,2021-10-14,11:17:55,12:12:53,NA,incomplete,true,true,NA,0,29,NA,gray,n_l_088.jpg,NA,NA,pleasant,unpleasant,NA,NA,NA,NA,NA,left,506.20000000298,true,NA,NA,NA,NA,NA
sDum8qz0,3mdwe879vkfdd3966pwqlqs2jwg9bh,35dr22ar5hx0yollles08uc04p4x30,sDum8qz0,2020-0188,2021-10-14,11:17:55,12:12:53,NA,incomplete,true,true,NA,0,30,NA,white,n_s_115.jpg,NA,NA,unpleasant,pleasant,NA,NA,NA,NA,NA,left,516.100000008941,true,NA,NA,NA,NA,NA
sDum8qz0,3mdwe879vkfdd3966pwqlqs2jwg9bh,35dr22ar5hx0yollles08uc04p4x30,sDum8qz0,2020-0188,2021-10-14,11:17:55,12:12:53,NA,incomplete,true,true,NA,0,31,NA,white,n_l_111.jpg,NA,NA,unpleasant,pleasant,NA,NA,NA,NA,NA,left,631.59999999404,true,NA,NA,NA,NA,NA
sDum8qz0,3mdwe879vkfdd3966pwqlqs2jwg9bh,35dr22ar5hx0yollles08uc04p4x30,sDum8qz0,2020-0188,2021-10-14,11:17:55,12:12:53,NA,incomplete,true,true,NA,0,32,NA,white,m_l_116.jpg,NA,NA,unpleasant,pleasant,NA,NA,NA,NA,NA,left,1117.90000000596,true,NA,NA,NA,NA,NA
sDum8qz0,3mdwe879vkfdd3966pwqlqs2jwg9bh,35dr22ar5hx0yollles08uc04p4x30,sDum8qz0,2020-0188,2021-10-14,11:17:55,12:12:53,NA,incomplete,true,true,NA,0,33,NA,white,m_l_038.jpg,NA,NA,pleasant,unpleasant,NA,NA,NA,NA,NA,left,2327.10000000894,true,NA,NA,NA,NA,NA
sDum8qz0,3mdwe879vkfdd3966pwqlqs2jwg9bh,35dr22ar5hx0yollles08uc04p4x30,sDum8qz0,2020-0188,2021-10-14,11:17:55,12:12:53,NA,incomplete,true,true,NA,0,34,NA,white,m_l_100.jpg,NA,NA,unpleasant,pleasant,NA,NA,NA,NA,NA,left,858.79999999702,true,NA,NA,NA,NA,NA
sDum8qz0,3mdwe879vkfdd3966pwqlqs2jwg9bh,35dr22ar5hx0yollles08uc04p4x30,sDum8qz0,2020-0188,2021-10-14,11:17:55,12:12:53,NA,incomplete,true,true,NA,0,35,NA,white,n_s_059.jpg,NA,NA,unpleasant,pleasant,NA,NA,NA,NA,NA,left,383.399999991059,true,NA,NA,NA,NA,NA
sDum8qz0,3mdwe879vkfdd3966pwqlqs2jwg9bh,35dr22ar5hx0yollles08uc04p4x30,sDum8qz0,2020-0188,2021-10-14,11:17:55,12:12:53,NA,incomplete,true,NA,true,0,0,NA,NA,NA,left,present,NA,NA,n_s_101.jpg,red,m_s_023.jpg,red,within,NA,NaN,NA,left,1645.3999999910593,1,1,991.9000000059605
sDum8qz0,3mdwe879vkfdd3966pwqlqs2jwg9bh,35dr22ar5hx0yollles08uc04p4x30,sDum8qz0,2020-0188,2021-10-14,11:17:55,12:12:53,NA,incomplete,true,NA,true,0,1,NA,NA,NA,left,present,NA,NA,n_l_055.jpg,blue,n_l_066.jpg,red,between,NA,NaN,NA,right,1047.2999999970198,0,2,1000.5
sDum8qz0,3mdwe879vkfdd3966pwqlqs2jwg9bh,35dr22ar5hx0yollles08uc04p4x30,sDum8qz0,2020-0188,2021-10-14,11:17:55,12:12:53,NA,incomplete,true,NA,true,0,2,NA,NA,NA,right,absent,NA,NA,n_s_060.jpg,blue,m_l_035.jpg,blue,within,NA,NaN,NA,right,998.2999999970198,1,0,1427.9000000059605
sDum8qz0,3mdwe879vkfdd3966pwqlqs2jwg9bh,35dr22ar5hx0yollles08uc04p4x30,sDum8qz0,2020-0188,2021-10-14,11:17:55,12:12:53,NA,incomplete,true,NA,true,0,3,NA,NA,NA,left,absent,NA,NA,n_l_111.jpg,white,n_s_059.jpg,white,within,NA,NaN,NA,left,967,1,2,869.7999999970198
sDum8qz0,3mdwe879vkfdd3966pwqlqs2jwg9bh,35dr22ar5hx0yollles08uc04p4x30,sDum8qz0,2020-0188,2021-10-14,11:17:55,12:12:53,NA,incomplete,true,NA,true,0,4,NA,NA,NA,right,absent,NA,NA,m_l_103.jpg,yellow,m_l_053.jpg,orange,between,NA,NaN,NA,right,1019.8999999910593,1,1,1101.2000000029802
sDum8qz0,3mdwe879vkfdd3966pwqlqs2jwg9bh,35dr22ar5hx0yollles08uc04p4x30,sDum8qz0,2020-0188,2021-10-14,11:17:55,12:12:53,NA,incomplete,true,NA,true,0,5,NA,NA,NA,right,absent,NA,NA,n_l_088.jpg,gray,m_l_086.jpg,gray,within,NA,NaN,NA,right,1234.2000000029802,1,3,1105.300000011921
sDum8qz0,3mdwe879vkfdd3966pwqlqs2jwg9bh,35dr22ar5hx0yollles08uc04p4x30,sDum8qz0,2020-0188,2021-10-14,11:17:55,12:12:53,NA,incomplete,true,NA,true,0,6,NA,NA,NA,right,absent,NA,NA,m_l_116.jpg,white,n_s_006.jpg,gray,between,NA,NaN,NA,left,2514.6000000089407,0,2,863.2999999970198
sDum8qz0,3mdwe879vkfdd3966pwqlqs2jwg9bh,35dr22ar5hx0yollles08uc04p4x30,sDum8qz0,2020-0188,2021-10-14,11:17:55,12:12:53,NA,incomplete,true,NA,true,0,7,NA,NA,NA,left,present,NA,NA,m_l_042.jpg,orange,n_s_033.jpg,orange,within,NA,NaN,NA,left,1258.7000000029802,1,3,1047.9000000059605
sDum8qz0,3mdwe879vkfdd3966pwqlqs2jwg9bh,35dr22ar5hx0yollles08uc04p4x30,sDum8qz0,2020-0188,2021-10-14,11:17:55,12:12:53,NA,incomplete,true,NA,true,0,8,NA,NA,NA,left,absent,NA,NA,n_s_052.jpg,red,n_s_010.jpg,gray,between,NA,NaN,NA,left,1420.5,1,2,1061
sDum8qz0,3mdwe879vkfdd3966pwqlqs2jwg9bh,35dr22ar5hx0yollles08uc04p4x30,sDum8qz0,2020-0188,2021-10-14,11:17:55,12:12:53,NA,incomplete,true,NA,true,0,9,NA,NA,NA,right,absent,NA,NA,m_s_084.jpg,yellow,n_s_017.jpg,yellow,within,NA,NaN,NA,left,1355.1000000089407,0,2,1350.5
sDum8qz0,3mdwe879vkfdd3966pwqlqs2jwg9bh,35dr22ar5hx0yollles08uc04p4x30,sDum8qz0,2020-0188,2021-10-14,11:17:55,12:12:53,NA,incomplete,true,NA,true,0,10,NA,NA,NA,left,present,NA,NA,m_s_021.jpg,yellow,m_l_092.jpg,blue,between,NA,NaN,NA,right,1387.5999999940395,0,2,1451.0999999940395
sDum8qz0,3mdwe879vkfdd3966pwqlqs2jwg9bh,35dr22ar5hx0yollles08uc04p4x30,sDum8qz0,2020-0188,2021-10-14,11:17:55,12:12:53,NA,incomplete,false,true,NA,1,0,NA,gray,m_l_044.jpg,NA,NA,pleasant,unpleasant,NA,NA,NA,NA,NA,right,486.09999999404,true,NA,NA,NA,NA,NA
sDum8qz0,3mdwe879vkfdd3966pwqlqs2jwg9bh,35dr22ar5hx0yollles08uc04p4x30,sDum8qz0,2020-0188,2021-10-14,11:17:55,12:12:53,NA,incomplete,false,true,NA,1,1,NA,gray,n_l_098.jpg,NA,NA,pleasant,unpleasant,NA,NA,NA,NA,NA,right,375.5,true,NA,NA,NA,NA,NA
sDum8qz0,3mdwe879vkfdd3966pwqlqs2jwg9bh,35dr22ar5hx0yollles08uc04p4x30,sDum8qz0,2020-0188,2021-10-14,11:17:55,12:12:53,NA,incomplete,false,true,NA,1,2,NA,gray,m_s_034.jpg,NA,NA,unpleasant,pleasant,NA,NA,NA,NA,NA,right,852.800000011921,true,NA,NA,NA,NA,NA
sDum8qz0,3mdwe879vkfdd3966pwqlqs2jwg9bh,35dr22ar5hx0yollles08uc04p4x30,sDum8qz0,2020-0188,2021-10-14,11:17:55,12:12:53,NA,incomplete,false,true,NA,1,3,NA,gray,m_s_043.jpg,NA,NA,unpleasant,pleasant,NA,NA,NA,NA,NA,right,622,true,NA,NA,NA,NA,NA
sDum8qz0,3mdwe879vkfdd3966pwqlqs2jwg9bh,35dr22ar5hx0yollles08uc04p4x30,sDum8qz0,2020-0188,2021-10-14,11:17:55,12:12:53,NA,incomplete,false,true,NA,1,4,NA,gray,n_s_111.jpg,NA,NA,unpleasant,pleasant,NA,NA,NA,NA,NA,right,403.09999999404,true,NA,NA,NA,NA,NA
sDum8qz0,3mdwe879vkfdd3966pwqlqs2jwg9bh,35dr22ar5hx0yollles08uc04p4x30,sDum8qz0,2020-0188,2021-10-14,11:17:55,12:12:53,NA,incomplete,false,true,NA,1,5,NA,gray,n_s_009.jpg,NA,NA,pleasant,unpleasant,NA,NA,NA,NA,NA,right,387,true,NA,NA,NA,NA,NA
sDum8qz0,3mdwe879vkfdd3966pwqlqs2jwg9bh,35dr22ar5hx0yollles08uc04p4x30,sDum8qz0,2020-0188,2021-10-14,11:17:55,12:12:53,NA,incomplete,false,true,NA,1,6,NA,red,n_l_101.jpg,NA,NA,pleasant,unpleasant,NA,NA,NA,NA,NA,right,519.600000008941,true,NA,NA,NA,NA,NA
sDum8qz0,3mdwe879vkfdd3966pwqlqs2jwg9bh,35dr22ar5hx0yollles08uc04p4x30,sDum8qz0,2020-0188,2021-10-14,11:17:55,12:12:53,NA,incomplete,false,true,NA,1,7,NA,red,n_l_030.jpg,NA,NA,unpleasant,pleasant,NA,NA,NA,NA,NA,right,1642.69999998808,true,NA,NA,NA,NA,NA
sDum8qz0,3mdwe879vkfdd3966pwqlqs2jwg9bh,35dr22ar5hx0yollles08uc04p4x30,sDum8qz0,2020-0188,2021-10-14,11:17:55,12:12:53,NA,incomplete,false,true,NA,1,8,NA,red,m_s_074.jpg,NA,NA,pleasant,unpleasant,NA,NA,NA,NA,NA,right,1519.79999999702,true,NA,NA,NA,NA,NA
sDum8qz0,3mdwe879vkfdd3966pwqlqs2jwg9bh,35dr22ar5hx0yollles08uc04p4x30,sDum8qz0,2020-0188,2021-10-14,11:17:55,12:12:53,NA,incomplete,false,true,NA,1,9,NA,red,n_l_107.jpg,NA,NA,unpleasant,pleasant,NA,NA,NA,NA,NA,right,394.5,true,NA,NA,NA,NA,NA
sDum8qz0,3mdwe879vkfdd3966pwqlqs2jwg9bh,35dr22ar5hx0yollles08uc04p4x30,sDum8qz0,2020-0188,2021-10-14,11:17:55,12:12:53,NA,incomplete,false,true,NA,1,10,NA,red,m_l_109.jpg,NA,NA,pleasant,unpleasant,NA,NA,NA,NA,NA,right,805,true,NA,NA,NA,NA,NA
sDum8qz0,3mdwe879vkfdd3966pwqlqs2jwg9bh,35dr22ar5hx0yollles08uc04p4x30,sDum8qz0,2020-0188,2021-10-14,11:17:55,12:12:53,NA,incomplete,false,true,NA,1,11,NA,red,m_l_083.jpg,NA,NA,pleasant,unpleasant,NA,NA,NA,NA,NA,right,536.29999999702,true,NA,NA,NA,NA,NA
sDum8qz0,3mdwe879vkfdd3966pwqlqs2jwg9bh,35dr22ar5hx0yollles08uc04p4x30,sDum8qz0,2020-0188,2021-10-14,11:17:55,12:12:53,NA,incomplete,false,true,NA,1,12,NA,yellow,m_s_008.jpg,NA,NA,pleasant,unpleasant,NA,NA,NA,NA,NA,right,446.59999999404,true,NA,NA,NA,NA,NA
sDum8qz0,3mdwe879vkfdd3966pwqlqs2jwg9bh,35dr22ar5hx0yollles08uc04p4x30,sDum8qz0,2020-0188,2021-10-14,11:17:55,12:12:53,NA,incomplete,false,true,NA,1,13,NA,yellow,m_s_012.jpg,NA,NA,pleasant,unpleasant,NA,NA,NA,NA,NA,right,813.70000000298,true,NA,NA,NA,NA,NA
sDum8qz0,3mdwe879vkfdd3966pwqlqs2jwg9bh,35dr22ar5hx0yollles08uc04p4x30,sDum8qz0,2020-0188,2021-10-14,11:17:55,12:12:53,NA,incomplete,false,true,NA,1,14,NA,yellow,m_l_074.jpg,NA,NA,unpleasant,pleasant,NA,NA,NA,NA,NA,right,1784.10000000894,true,NA,NA,NA,NA,NA
sDum8qz0,3mdwe879vkfdd3966pwqlqs2jwg9bh,35dr22ar5hx0yollles08uc04p4x30,sDum8qz0,2020-0188,2021-10-14,11:17:55,12:12:53,NA,incomplete,false,true,NA,1,15,NA,yellow,m_l_049.jpg,NA,NA,pleasant,unpleasant,NA,NA,NA,NA,NA,left,1372.70000000298,true,NA,NA,NA,NA,NA
sDum8qz0,3mdwe879vkfdd3966pwqlqs2jwg9bh,35dr22ar5hx0yollles08uc04p4x30,sDum8qz0,2020-0188,2021-10-14,11:17:55,12:12:53,NA,incomplete,false,true,NA,1,16,NA,yellow,n_l_026.jpg,NA,NA,unpleasant,pleasant,NA,NA,NA,NA,NA,left,467.90000000596,true,NA,NA,NA,NA,NA
sDum8qz0,3mdwe879vkfdd3966pwqlqs2jwg9bh,35dr22ar5hx0yollles08uc04p4x30,sDum8qz0,2020-0188,2021-10-14,11:17:55,12:12:53,NA,incomplete,false,true,NA,1,17,NA,yellow,n_s_072.jpg,NA,NA,pleasant,unpleasant,NA,NA,NA,NA,NA,left,384.90000000596,true,NA,NA,NA,NA,NA
sDum8qz0,3mdwe879vkfdd3966pwqlqs2jwg9bh,35dr22ar5hx0yollles08uc04p4x30,sDum8qz0,2020-0188,2021-10-14,11:17:55,12:12:53,NA,incomplete,false,true,NA,1,18,NA,green,n_l_104.jpg,NA,NA,pleasant,unpleasant,NA,NA,NA,NA,NA,left,320.70000000298,true,NA,NA,NA,NA,NA
sDum8qz0,3mdwe879vkfdd3966pwqlqs2jwg9bh,35dr22ar5hx0yollles08uc04p4x30,sDum8qz0,2020-0188,2021-10-14,11:17:55,12:12:53,NA,incomplete,false,true,NA,1,19,NA,green,n_l_031.jpg,NA,NA,unpleasant,pleasant,NA,NA,NA,NA,NA,left,404.90000000596,true,NA,NA,NA,NA,NA
sDum8qz0,3mdwe879vkfdd3966pwqlqs2jwg9bh,35dr22ar5hx0yollles08uc04p4x30,sDum8qz0,2020-0188,2021-10-14,11:17:55,12:12:53,NA,incomplete,false,true,NA,1,20,NA,green,n_l_042.jpg,NA,NA,pleasant,unpleasant,NA,NA,NA,NA,NA,left,535.5,true,NA,NA,NA,NA,NA
sDum8qz0,3mdwe879vkfdd3966pwqlqs2jwg9bh,35dr22ar5hx0yollles08uc04p4x30,sDum8qz0,2020-0188,2021-10-14,11:17:55,12:12:53,NA,incomplete,false,true,NA,1,21,NA,green,n_l_093.jpg,NA,NA,unpleasant,pleasant,NA,NA,NA,NA,NA,left,445,true,NA,NA,NA,NA,NA
sDum8qz0,3mdwe879vkfdd3966pwqlqs2jwg9bh,35dr22ar5hx0yollles08uc04p4x30,sDum8qz0,2020-0188,2021-10-14,11:17:55,12:12:53,NA,incomplete,false,true,NA,1,22,NA,green,m_l_017.jpg,NA,NA,pleasant,unpleasant,NA,NA,NA,NA,NA,left,754.59999999404,true,NA,NA,NA,NA,NA
sDum8qz0,3mdwe879vkfdd3966pwqlqs2jwg9bh,35dr22ar5hx0yollles08uc04p4x30,sDum8qz0,2020-0188,2021-10-14,11:17:55,12:12:53,NA,incomplete,false,true,NA,1,23,NA,green,m_l_001.jpg,NA,NA,unpleasant,pleasant,NA,NA,NA,NA,NA,left,547.20000000298,true,NA,NA,NA,NA,NA
sDum8qz0,3mdwe879vkfdd3966pwqlqs2jwg9bh,35dr22ar5hx0yollles08uc04p4x30,sDum8qz0,2020-0188,2021-10-14,11:17:55,12:12:53,NA,incomplete,false,true,NA,1,24,NA,black,m_l_021.jpg,NA,NA,unpleasant,pleasant,NA,NA,NA,NA,NA,left,321.399999991059,true,NA,NA,NA,NA,NA
sDum8qz0,3mdwe879vkfdd3966pwqlqs2jwg9bh,35dr22ar5hx0yollles08uc04p4x30,sDum8qz0,2020-0188,2021-10-14,11:17:55,12:12:53,NA,incomplete,false,true,NA,1,25,NA,black,m_l_020.jpg,NA,NA,pleasant,unpleasant,NA,NA,NA,NA,NA,left,513.20000000298,true,NA,NA,NA,NA,NA
sDum8qz0,3mdwe879vkfdd3966pwqlqs2jwg9bh,35dr22ar5hx0yollles08uc04p4x30,sDum8qz0,2020-0188,2021-10-14,11:17:55,12:12:53,NA,incomplete,false,true,NA,1,26,NA,black,m_s_104.jpg,NA,NA,unpleasant,pleasant,NA,NA,NA,NA,NA,left,339.79999999702,true,NA,NA,NA,NA,NA
sDum8qz0,3mdwe879vkfdd3966pwqlqs2jwg9bh,35dr22ar5hx0yollles08uc04p4x30,sDum8qz0,2020-0188,2021-10-14,11:17:55,12:12:53,NA,incomplete,false,true,NA,1,27,NA,black,m_l_008.jpg,NA,NA,unpleasant,pleasant,NA,NA,NA,NA,NA,left,804.699999988079,true,NA,NA,NA,NA,NA
sDum8qz0,3mdwe879vkfdd3966pwqlqs2jwg9bh,35dr22ar5hx0yollles08uc04p4x30,sDum8qz0,2020-0188,2021-10-14,11:17:55,12:12:53,NA,incomplete,false,true,NA,1,28,NA,black,m_s_082.jpg,NA,NA,unpleasant,pleasant,NA,NA,NA,NA,NA,left,459.399999991059,true,NA,NA,NA,NA,NA
sDum8qz0,3mdwe879vkfdd3966pwqlqs2jwg9bh,35dr22ar5hx0yollles08uc04p4x30,sDum8qz0,2020-0188,2021-10-14,11:17:55,12:12:53,NA,incomplete,false,true,NA,1,29,NA,black,n_s_094.jpg,NA,NA,unpleasant,pleasant,NA,NA,NA,NA,NA,left,989.29999999702,true,NA,NA,NA,NA,NA
sDum8qz0,3mdwe879vkfdd3966pwqlqs2jwg9bh,35dr22ar5hx0yollles08uc04p4x30,sDum8qz0,2020-0188,2021-10-14,11:17:55,12:12:53,NA,incomplete,false,true,NA,1,30,NA,orange,m_s_106.jpg,NA,NA,unpleasant,pleasant,NA,NA,NA,NA,NA,left,908.79999999702,true,NA,NA,NA,NA,NA
sDum8qz0,3mdwe879vkfdd3966pwqlqs2jwg9bh,35dr22ar5hx0yollles08uc04p4x30,sDum8qz0,2020-0188,2021-10-14,11:17:55,12:12:53,NA,incomplete,false,true,NA,1,31,NA,orange,n_l_021.jpg,NA,NA,unpleasant,pleasant,NA,NA,NA,NA,NA,left,1097.59999999404,true,NA,NA,NA,NA,NA
sDum8qz0,3mdwe879vkfdd3966pwqlqs2jwg9bh,35dr22ar5hx0yollles08uc04p4x30,sDum8qz0,2020-0188,2021-10-14,11:17:55,12:12:53,NA,incomplete,false,true,NA,1,32,NA,orange,n_s_016.jpg,NA,NA,pleasant,unpleasant,NA,NA,NA,NA,NA,left,55.5999999940395,true,NA,NA,NA,NA,NA
sDum8qz0,3mdwe879vkfdd3966pwqlqs2jwg9bh,35dr22ar5hx0yollles08uc04p4x30,sDum8qz0,2020-0188,2021-10-14,11:17:55,12:12:53,NA,incomplete,false,true,NA,1,33,NA,orange,n_s_001.jpg,NA,NA,unpleasant,pleasant,NA,NA,NA,NA,NA,left,286.70000000298,true,NA,NA,NA,NA,NA
sDum8qz0,3mdwe879vkfdd3966pwqlqs2jwg9bh,35dr22ar5hx0yollles08uc04p4x30,sDum8qz0,2020-0188,2021-10-14,11:17:55,12:12:53,NA,incomplete,false,true,NA,1,34,NA,orange,n_s_085.jpg,NA,NA,unpleasant,pleasant,NA,NA,NA,NA,NA,left,294.40000000596,true,NA,NA,NA,NA,NA
sDum8qz0,3mdwe879vkfdd3966pwqlqs2jwg9bh,35dr22ar5hx0yollles08uc04p4x30,sDum8qz0,2020-0188,2021-10-14,11:17:55,12:12:53,NA,incomplete,false,true,NA,1,35,NA,orange,m_s_057.jpg,NA,NA,unpleasant,pleasant,NA,NA,NA,NA,NA,left,341.09999999404,true,NA,NA,NA,NA,NA
sDum8qz0,3mdwe879vkfdd3966pwqlqs2jwg9bh,35dr22ar5hx0yollles08uc04p4x30,sDum8qz0,2020-0188,2021-10-14,11:17:55,12:12:53,NA,incomplete,false,NA,true,1,0,NA,NA,NA,left,absent,NA,NA,m_l_017.jpg,green,m_s_104.jpg,black,between,NA,NaN,NA,left,1680.1000000089407,1,2,1012.2000000029802
sDum8qz0,3mdwe879vkfdd3966pwqlqs2jwg9bh,35dr22ar5hx0yollles08uc04p4x30,sDum8qz0,2020-0188,2021-10-14,11:17:55,12:12:53,NA,incomplete,false,NA,true,1,1,NA,NA,NA,right,absent,NA,NA,n_l_042.jpg,green,n_l_026.jpg,yellow,between,NA,NaN,NA,right,862,1,2,870.2999999970198
sDum8qz0,3mdwe879vkfdd3966pwqlqs2jwg9bh,35dr22ar5hx0yollles08uc04p4x30,sDum8qz0,2020-0188,2021-10-14,11:17:55,12:12:53,NA,incomplete,false,NA,true,1,2,NA,NA,NA,left,absent,NA,NA,m_s_082.jpg,black,n_s_016.jpg,orange,between,NA,NaN,NA,left,1206.2000000029802,1,2,822
sDum8qz0,3mdwe879vkfdd3966pwqlqs2jwg9bh,35dr22ar5hx0yollles08uc04p4x30,sDum8qz0,2020-0188,2021-10-14,11:17:55,12:12:53,NA,incomplete,false,NA,true,1,3,NA,NA,NA,left,absent,NA,NA,n_l_021.jpg,orange,m_s_057.jpg,orange,within,NA,NaN,NA,right,819.2999999970198,0,0,921.8000000119209
sDum8qz0,3mdwe879vkfdd3966pwqlqs2jwg9bh,35dr22ar5hx0yollles08uc04p4x30,sDum8qz0,2020-0188,2021-10-14,11:17:55,12:12:53,NA,incomplete,false,NA,true,1,4,NA,NA,NA,right,absent,NA,NA,n_s_009.jpg,gray,n_l_098.jpg,gray,within,NA,NaN,NA,right,1395.199999988079,1,1,1073.2000000029802
sDum8qz0,3mdwe879vkfdd3966pwqlqs2jwg9bh,35dr22ar5hx0yollles08uc04p4x30,sDum8qz0,2020-0188,2021-10-14,11:17:55,12:12:53,NA,incomplete,false,NA,true,1,5,NA,NA,NA,left,absent,NA,NA,n_l_031.jpg,green,m_l_001.jpg,green,within,NA,NaN,NA,right,871.2999999970198,0,0,834.2999999970198
sDum8qz0,3mdwe879vkfdd3966pwqlqs2jwg9bh,35dr22ar5hx0yollles08uc04p4x30,sDum8qz0,2020-0188,2021-10-14,11:17:55,12:12:53,NA,incomplete,false,NA,true,1,6,NA,NA,NA,left,absent,NA,NA,n_s_111.jpg,gray,m_s_074.jpg,red,between,NA,NaN,NA,right,958.9000000059605,0,3,944.7999999970198
sDum8qz0,3mdwe879vkfdd3966pwqlqs2jwg9bh,35dr22ar5hx0yollles08uc04p4x30,sDum8qz0,2020-0188,2021-10-14,11:17:55,12:12:53,NA,incomplete,false,NA,true,1,7,NA,NA,NA,right,absent,NA,NA,m_l_074.jpg,yellow,m_l_109.jpg,red,between,NA,NaN,NA,right,1008.9000000059605,1,1,975.7999999970198
sDum8qz0,3mdwe879vkfdd3966pwqlqs2jwg9bh,35dr22ar5hx0yollles08uc04p4x30,sDum8qz0,2020-0188,2021-10-14,11:17:55,12:12:53,NA,incomplete,false,NA,true,1,8,NA,NA,NA,right,absent,NA,NA,n_s_094.jpg,black,m_l_020.jpg,black,within,NA,NaN,NA,right,906.5,1,3,911.5999999940395
sDum8qz0,3mdwe879vkfdd3966pwqlqs2jwg9bh,35dr22ar5hx0yollles08uc04p4x30,sDum8qz0,2020-0188,2021-10-14,11:17:55,12:12:53,NA,incomplete,false,NA,true,1,9,NA,NA,NA,right,absent,NA,NA,m_l_083.jpg,red,n_l_030.jpg,red,within,NA,NaN,NA,right,1484.2000000029802,1,1,830.9000000059605
sDum8qz0,3mdwe879vkfdd3966pwqlqs2jwg9bh,35dr22ar5hx0yollles08uc04p4x30,sDum8qz0,2020-0188,2021-10-14,11:17:55,12:12:53,NA,incomplete,false,NA,true,1,10,NA,NA,NA,left,absent,NA,NA,m_s_012.jpg,yellow,n_s_072.jpg,yellow,within,NA,NaN,NA,left,1072.9000000059605,1,2,2102.2999999970198
sDum8qz0,3mdwe879vkfdd3966pwqlqs2jwg9bh,35dr22ar5hx0yollles08uc04p4x30,sDum8qz0,2020-0188,2021-10-14,11:17:55,12:12:53,NA,incomplete,false,true,NA,2,0,NA,green,n_l_092.jpg,NA,NA,pleasant,unpleasant,NA,NA,NA,NA,NA,right,393,true,NA,NA,NA,NA,NA
sDum8qz0,3mdwe879vkfdd3966pwqlqs2jwg9bh,35dr22ar5hx0yollles08uc04p4x30,sDum8qz0,2020-0188,2021-10-14,11:17:55,12:12:53,NA,incomplete,false,true,NA,2,1,NA,green,n_s_104.jpg,NA,NA,pleasant,unpleasant,NA,NA,NA,NA,NA,right,349.20000000298,true,NA,NA,NA,NA,NA
sDum8qz0,3mdwe879vkfdd3966pwqlqs2jwg9bh,35dr22ar5hx0yollles08uc04p4x30,sDum8qz0,2020-0188,2021-10-14,11:17:55,12:12:53,NA,incomplete,false,true,NA,2,2,NA,green,n_s_077.jpg,NA,NA,unpleasant,pleasant,NA,NA,NA,NA,NA,right,294,true,NA,NA,NA,NA,NA
sDum8qz0,3mdwe879vkfdd3966pwqlqs2jwg9bh,35dr22ar5hx0yollles08uc04p4x30,sDum8qz0,2020-0188,2021-10-14,11:17:55,12:12:53,NA,incomplete,false,true,NA,2,3,NA,green,m_s_101.jpg,NA,NA,unpleasant,pleasant,NA,NA,NA,NA,NA,right,287.600000008941,true,NA,NA,NA,NA,NA
sDum8qz0,3mdwe879vkfdd3966pwqlqs2jwg9bh,35dr22ar5hx0yollles08uc04p4x30,sDum8qz0,2020-0188,2021-10-14,11:17:55,12:12:53,NA,incomplete,false,true,NA,2,4,NA,green,m_s_060.jpg,NA,NA,pleasant,unpleasant,NA,NA,NA,NA,NA,right,312.70000000298,true,NA,NA,NA,NA,NA
sDum8qz0,3mdwe879vkfdd3966pwqlqs2jwg9bh,35dr22ar5hx0yollles08uc04p4x30,sDum8qz0,2020-0188,2021-10-14,11:17:55,12:12:53,NA,incomplete,false,true,NA,2,5,NA,green,n_l_008.jpg,NA,NA,unpleasant,pleasant,NA,NA,NA,NA,NA,right,368.399999991059,true,NA,NA,NA,NA,NA
sDum8qz0,3mdwe879vkfdd3966pwqlqs2jwg9bh,35dr22ar5hx0yollles08uc04p4x30,sDum8qz0,2020-0188,2021-10-14,11:17:55,12:12:53,NA,incomplete,false,true,NA,2,6,NA,white,m_s_044.jpg,NA,NA,unpleasant,pleasant,NA,NA,NA,NA,NA,right,387.5,true,NA,NA,NA,NA,NA
sDum8qz0,3mdwe879vkfdd3966pwqlqs2jwg9bh,35dr22ar5hx0yollles08uc04p4x30,sDum8qz0,2020-0188,2021-10-14,11:17:55,12:12:53,NA,incomplete,false,true,NA,2,7,NA,white,n_s_056.jpg,NA,NA,pleasant,unpleasant,NA,NA,NA,NA,NA,right,401.600000008941,true,NA,NA,NA,NA,NA
sDum8qz0,3mdwe879vkfdd3966pwqlqs2jwg9bh,35dr22ar5hx0yollles08uc04p4x30,sDum8qz0,2020-0188,2021-10-14,11:17:55,12:12:53,NA,incomplete,false,true,NA,2,8,NA,white,n_s_117.jpg,NA,NA,pleasant,unpleasant,NA,NA,NA,NA,NA,right,337,true,NA,NA,NA,NA,NA
sDum8qz0,3mdwe879vkfdd3966pwqlqs2jwg9bh,35dr22ar5hx0yollles08uc04p4x30,sDum8qz0,2020-0188,2021-10-14,11:17:55,12:12:53,NA,incomplete,false,true,NA,2,9,NA,white,n_l_041.jpg,NA,NA,pleasant,unpleasant,NA,NA,NA,NA,NA,right,347.09999999404,true,NA,NA,NA,NA,NA
sDum8qz0,3mdwe879vkfdd3966pwqlqs2jwg9bh,35dr22ar5hx0yollles08uc04p4x30,sDum8qz0,2020-0188,2021-10-14,11:17:55,12:12:53,NA,incomplete,false,true,NA,2,10,NA,white,n_s_099.jpg,NA,NA,pleasant,unpleasant,NA,NA,NA,NA,NA,right,380.899999991059,true,NA,NA,NA,NA,NA
sDum8qz0,3mdwe879vkfdd3966pwqlqs2jwg9bh,35dr22ar5hx0yollles08uc04p4x30,sDum8qz0,2020-0188,2021-10-14,11:17:55,12:12:53,NA,incomplete,false,true,NA,2,11,NA,white,n_s_029.jpg,NA,NA,pleasant,unpleasant,NA,NA,NA,NA,NA,right,373,true,NA,NA,NA,NA,NA
sDum8qz0,3mdwe879vkfdd3966pwqlqs2jwg9bh,35dr22ar5hx0yollles08uc04p4x30,sDum8qz0,2020-0188,2021-10-14,11:17:55,12:12:53,NA,incomplete,false,true,NA,2,12,NA,black,n_s_045.jpg,NA,NA,pleasant,unpleasant,NA,NA,NA,NA,NA,right,388.79999999702,true,NA,NA,NA,NA,NA
sDum8qz0,3mdwe879vkfdd3966pwqlqs2jwg9bh,35dr22ar5hx0yollles08uc04p4x30,sDum8qz0,2020-0188,2021-10-14,11:17:55,12:12:53,NA,incomplete,false,true,NA,2,13,NA,black,m_s_065.jpg,NA,NA,unpleasant,pleasant,NA,NA,NA,NA,NA,right,414.70000000298,true,NA,NA,NA,NA,NA
sDum8qz0,3mdwe879vkfdd3966pwqlqs2jwg9bh,35dr22ar5hx0yollles08uc04p4x30,sDum8qz0,2020-0188,2021-10-14,11:17:55,12:12:53,NA,incomplete,false,true,NA,2,14,NA,black,m_s_067.jpg,NA,NA,unpleasant,pleasant,NA,NA,NA,NA,NA,right,583.899999991059,true,NA,NA,NA,NA,NA
sDum8qz0,3mdwe879vkfdd3966pwqlqs2jwg9bh,35dr22ar5hx0yollles08uc04p4x30,sDum8qz0,2020-0188,2021-10-14,11:17:55,12:12:53,NA,incomplete,false,true,NA,2,15,NA,black,m_l_105.jpg,NA,NA,pleasant,unpleasant,NA,NA,NA,NA,NA,left,494.5,true,NA,NA,NA,NA,NA
sDum8qz0,3mdwe879vkfdd3966pwqlqs2jwg9bh,35dr22ar5hx0yollles08uc04p4x30,sDum8qz0,2020-0188,2021-10-14,11:17:55,12:12:53,NA,incomplete,false,true,NA,2,16,NA,black,n_s_100.jpg,NA,NA,pleasant,unpleasant,NA,NA,NA,NA,NA,left,292.59999999404,true,NA,NA,NA,NA,NA
sDum8qz0,3mdwe879vkfdd3966pwqlqs2jwg9bh,35dr22ar5hx0yollles08uc04p4x30,sDum8qz0,2020-0188,2021-10-14,11:17:55,12:12:53,NA,incomplete,false,true,NA,2,17,NA,black,m_s_071.jpg,NA,NA,unpleasant,pleasant,NA,NA,NA,NA,NA,left,353.70000000298,true,NA,NA,NA,NA,NA
sDum8qz0,3mdwe879vkfdd3966pwqlqs2jwg9bh,35dr22ar5hx0yollles08uc04p4x30,sDum8qz0,2020-0188,2021-10-14,11:17:55,12:12:53,NA,incomplete,false,true,NA,2,18,NA,red,m_l_079.jpg,NA,NA,unpleasant,pleasant,NA,NA,NA,NA,NA,left,356.29999999702,true,NA,NA,NA,NA,NA
sDum8qz0,3mdwe879vkfdd3966pwqlqs2jwg9bh,35dr22ar5hx0yollles08uc04p4x30,sDum8qz0,2020-0188,2021-10-14,11:17:55,12:12:53,NA,incomplete,false,true,NA,2,19,NA,red,m_l_018.jpg,NA,NA,unpleasant,pleasant,NA,NA,NA,NA,NA,left,327.5,true,NA,NA,NA,NA,NA
sDum8qz0,3mdwe879vkfdd3966pwqlqs2jwg9bh,35dr22ar5hx0yollles08uc04p4x30,sDum8qz0,2020-0188,2021-10-14,11:17:55,12:12:53,NA,incomplete,false,true,NA,2,20,NA,red,m_l_088.jpg,NA,NA,pleasant,unpleasant,NA,NA,NA,NA,NA,left,372.70000000298,true,NA,NA,NA,NA,NA
sDum8qz0,3mdwe879vkfdd3966pwqlqs2jwg9bh,35dr22ar5hx0yollles08uc04p4x30,sDum8qz0,2020-0188,2021-10-14,11:17:55,12:12:53,NA,incomplete,false,true,NA,2,21,NA,red,n_s_102.jpg,NA,NA,pleasant,unpleasant,NA,NA,NA,NA,NA,left,315.5,true,NA,NA,NA,NA,NA
sDum8qz0,3mdwe879vkfdd3966pwqlqs2jwg9bh,35dr22ar5hx0yollles08uc04p4x30,sDum8qz0,2020-0188,2021-10-14,11:17:55,12:12:53,NA,incomplete,false,true,NA,2,22,NA,red,m_s_006.jpg,NA,NA,pleasant,unpleasant,NA,NA,NA,NA,NA,left,282.20000000298,true,NA,NA,NA,NA,NA
sDum8qz0,3mdwe879vkfdd3966pwqlqs2jwg9bh,35dr22ar5hx0yollles08uc04p4x30,sDum8qz0,2020-0188,2021-10-14,11:17:55,12:12:53,NA,incomplete,false,true,NA,2,23,NA,red,n_s_043.jpg,NA,NA,pleasant,unpleasant,NA,NA,NA,NA,NA,left,301.29999999702,true,NA,NA,NA,NA,NA
sDum8qz0,3mdwe879vkfdd3966pwqlqs2jwg9bh,35dr22ar5hx0yollles08uc04p4x30,sDum8qz0,2020-0188,2021-10-14,11:17:55,12:12:53,NA,incomplete,false,true,NA,2,24,NA,brown,n_s_110.jpg,NA,NA,unpleasant,pleasant,NA,NA,NA,NA,NA,left,320.5,true,NA,NA,NA,NA,NA
sDum8qz0,3mdwe879vkfdd3966pwqlqs2jwg9bh,35dr22ar5hx0yollles08uc04p4x30,sDum8qz0,2020-0188,2021-10-14,11:17:55,12:12:53,NA,incomplete,false,true,NA,2,25,NA,brown,n_s_003.jpg,NA,NA,unpleasant,pleasant,NA,NA,NA,NA,NA,left,485.699999988079,true,NA,NA,NA,NA,NA
sDum8qz0,3mdwe879vkfdd3966pwqlqs2jwg9bh,35dr22ar5hx0yollles08uc04p4x30,sDum8qz0,2020-0188,2021-10-14,11:17:55,12:12:53,NA,incomplete,false,true,NA,2,26,NA,brown,m_s_045.jpg,NA,NA,pleasant,unpleasant,NA,NA,NA,NA,NA,left,310.800000011921,true,NA,NA,NA,NA,NA
sDum8qz0,3mdwe879vkfdd3966pwqlqs2jwg9bh,35dr22ar5hx0yollles08uc04p4x30,sDum8qz0,2020-0188,2021-10-14,11:17:55,12:12:53,NA,incomplete,false,true,NA,2,27,NA,brown,m_s_093.jpg,NA,NA,pleasant,unpleasant,NA,NA,NA,NA,NA,left,358.29999999702,true,NA,NA,NA,NA,NA
sDum8qz0,3mdwe879vkfdd3966pwqlqs2jwg9bh,35dr22ar5hx0yollles08uc04p4x30,sDum8qz0,2020-0188,2021-10-14,11:17:55,12:12:53,NA,incomplete,false,true,NA,2,28,NA,brown,n_l_112.jpg,NA,NA,pleasant,unpleasant,NA,NA,NA,NA,NA,left,435.79999999702,true,NA,NA,NA,NA,NA
sDum8qz0,3mdwe879vkfdd3966pwqlqs2jwg9bh,35dr22ar5hx0yollles08uc04p4x30,sDum8qz0,2020-0188,2021-10-14,11:17:55,12:12:53,NA,incomplete,false,true,NA,2,29,NA,brown,m_l_027.jpg,NA,NA,pleasant,unpleasant,NA,NA,NA,NA,NA,left,335.29999999702,true,NA,NA,NA,NA,NA
sDum8qz0,3mdwe879vkfdd3966pwqlqs2jwg9bh,35dr22ar5hx0yollles08uc04p4x30,sDum8qz0,2020-0188,2021-10-14,11:17:55,12:12:53,NA,incomplete,false,true,NA,2,30,NA,purple,m_s_086.jpg,NA,NA,pleasant,unpleasant,NA,NA,NA,NA,NA,left,427.300000011921,true,NA,NA,NA,NA,NA
sDum8qz0,3mdwe879vkfdd3966pwqlqs2jwg9bh,35dr22ar5hx0yollles08uc04p4x30,sDum8qz0,2020-0188,2021-10-14,11:17:55,12:12:53,NA,incomplete,false,true,NA,2,31,NA,purple,n_l_009.jpg,NA,NA,unpleasant,pleasant,NA,NA,NA,NA,NA,left,314,true,NA,NA,NA,NA,NA
sDum8qz0,3mdwe879vkfdd3966pwqlqs2jwg9bh,35dr22ar5hx0yollles08uc04p4x30,sDum8qz0,2020-0188,2021-10-14,11:17:55,12:12:53,NA,incomplete,false,true,NA,2,32,NA,purple,m_s_024.jpg,NA,NA,unpleasant,pleasant,NA,NA,NA,NA,NA,left,347.70000000298,true,NA,NA,NA,NA,NA
sDum8qz0,3mdwe879vkfdd3966pwqlqs2jwg9bh,35dr22ar5hx0yollles08uc04p4x30,sDum8qz0,2020-0188,2021-10-14,11:17:55,12:12:53,NA,incomplete,false,true,NA,2,33,NA,purple,n_l_043.jpg,NA,NA,pleasant,unpleasant,NA,NA,NA,NA,NA,left,669.70000000298,true,NA,NA,NA,NA,NA
sDum8qz0,3mdwe879vkfdd3966pwqlqs2jwg9bh,35dr22ar5hx0yollles08uc04p4x30,sDum8qz0,2020-0188,2021-10-14,11:17:55,12:12:53,NA,incomplete,false,true,NA,2,34,NA,purple,m_l_014.jpg,NA,NA,unpleasant,pleasant,NA,NA,NA,NA,NA,left,987.5,true,NA,NA,NA,NA,NA
sDum8qz0,3mdwe879vkfdd3966pwqlqs2jwg9bh,35dr22ar5hx0yollles08uc04p4x30,sDum8qz0,2020-0188,2021-10-14,11:17:55,12:12:53,NA,incomplete,false,true,NA,2,35,NA,purple,n_l_070.jpg,NA,NA,unpleasant,pleasant,NA,NA,NA,NA,NA,right,388.40000000596,true,NA,NA,NA,NA,NA
sDum8qz0,3mdwe879vkfdd3966pwqlqs2jwg9bh,35dr22ar5hx0yollles08uc04p4x30,sDum8qz0,2020-0188,2021-10-14,11:17:55,12:12:53,NA,incomplete,false,NA,true,2,0,NA,NA,NA,right,present,NA,NA,n_l_008.jpg,green,n_s_104.jpg,green,within,NA,NaN,NA,left,1878.4000000059605,0,3,1007.5999999940395
sDum8qz0,3mdwe879vkfdd3966pwqlqs2jwg9bh,35dr22ar5hx0yollles08uc04p4x30,sDum8qz0,2020-0188,2021-10-14,11:17:55,12:12:53,NA,incomplete,false,NA,true,2,1,NA,NA,NA,left,present,NA,NA,n_l_009.jpg,purple,n_l_070.jpg,purple,within,NA,NaN,NA,left,1111.6000000089407,1,2,854.2999999970198
sDum8qz0,3mdwe879vkfdd3966pwqlqs2jwg9bh,35dr22ar5hx0yollles08uc04p4x30,sDum8qz0,2020-0188,2021-10-14,11:17:55,12:12:53,NA,incomplete,false,NA,true,2,2,NA,NA,NA,left,present,NA,NA,m_l_018.jpg,red,n_s_043.jpg,red,within,NA,NaN,NA,left,903.2999999970198,1,1,1020.5
sDum8qz0,3mdwe879vkfdd3966pwqlqs2jwg9bh,35dr22ar5hx0yollles08uc04p4x30,sDum8qz0,2020-0188,2021-10-14,11:17:55,12:12:53,NA,incomplete,false,NA,true,2,3,NA,NA,NA,right,present,NA,NA,m_s_045.jpg,brown,m_s_006.jpg,red,between,NA,NaN,NA,right,894.5,1,2,903.6000000089407
sDum8qz0,3mdwe879vkfdd3966pwqlqs2jwg9bh,35dr22ar5hx0yollles08uc04p4x30,sDum8qz0,2020-0188,2021-10-14,11:17:55,12:12:53,NA,incomplete,false,NA,true,2,4,NA,NA,NA,left,present,NA,NA,n_s_100.jpg,black,m_l_088.jpg,red,between,NA,NaN,NA,right,907,0,1,1373.199999988079
sDum8qz0,3mdwe879vkfdd3966pwqlqs2jwg9bh,35dr22ar5hx0yollles08uc04p4x30,sDum8qz0,2020-0188,2021-10-14,11:17:55,12:12:53,NA,incomplete,false,NA,true,2,5,NA,NA,NA,left,present,NA,NA,m_s_060.jpg,green,n_s_117.jpg,white,between,NA,NaN,NA,right,963.5999999940395,0,1,1372.300000011921
sDum8qz0,3mdwe879vkfdd3966pwqlqs2jwg9bh,35dr22ar5hx0yollles08uc04p4x30,sDum8qz0,2020-0188,2021-10-14,11:17:55,12:12:53,NA,incomplete,false,NA,true,2,6,NA,NA,NA,left,present,NA,NA,n_l_112.jpg,brown,m_s_024.jpg,purple,between,NA,NaN,NA,right,870.0999999940395,0,2,1089.7999999970198
sDum8qz0,3mdwe879vkfdd3966pwqlqs2jwg9bh,35dr22ar5hx0yollles08uc04p4x30,sDum8qz0,2020-0188,2021-10-14,11:17:55,12:12:53,NA,incomplete,false,NA,true,2,7,NA,NA,NA,left,present,NA,NA,n_s_099.jpg,white,m_s_067.jpg,black,between,NA,NaN,NA,right,878.5,0,1,1857.800000011921
sDum8qz0,3mdwe879vkfdd3966pwqlqs2jwg9bh,35dr22ar5hx0yollles08uc04p4x30,sDum8qz0,2020-0188,2021-10-14,11:17:55,12:12:53,NA,incomplete,false,NA,true,2,8,NA,NA,NA,left,present,NA,NA,n_s_056.jpg,white,n_s_029.jpg,white,within,NA,NaN,NA,right,959.2999999970198,0,2,786.5999999940395
sDum8qz0,3mdwe879vkfdd3966pwqlqs2jwg9bh,35dr22ar5hx0yollles08uc04p4x30,sDum8qz0,2020-0188,2021-10-14,11:17:55,12:12:53,NA,incomplete,false,NA,true,2,9,NA,NA,NA,left,present,NA,NA,n_s_003.jpg,brown,m_l_027.jpg,brown,within,NA,NaN,NA,left,1004.9000000059605,1,3,908.5999999940395
sDum8qz0,3mdwe879vkfdd3966pwqlqs2jwg9bh,35dr22ar5hx0yollles08uc04p4x30,sDum8qz0,2020-0188,2021-10-14,11:17:55,12:12:53,NA,incomplete,false,NA,true,2,10,NA,NA,NA,right,present,NA,NA,m_s_071.jpg,black,m_s_065.jpg,black,within,NA,NaN,NA,right,2202.2000000029802,1,1,1108.7000000029802
sDum8qz0,3mdwe879vkfdd3966pwqlqs2jwg9bh,35dr22ar5hx0yollles08uc04p4x30,sDum8qz0,2020-0188,2021-10-14,11:17:55,12:12:53,NA,incomplete,false,true,NA,3,0,NA,green,m_s_112.jpg,NA,NA,pleasant,unpleasant,NA,NA,NA,NA,NA,right,413.5,true,NA,NA,NA,NA,NA
sDum8qz0,3mdwe879vkfdd3966pwqlqs2jwg9bh,35dr22ar5hx0yollles08uc04p4x30,sDum8qz0,2020-0188,2021-10-14,11:17:55,12:12:53,NA,incomplete,false,true,NA,3,1,NA,green,m_s_025.jpg,NA,NA,pleasant,unpleasant,NA,NA,NA,NA,NA,right,813.5,true,NA,NA,NA,NA,NA
sDum8qz0,3mdwe879vkfdd3966pwqlqs2jwg9bh,35dr22ar5hx0yollles08uc04p4x30,sDum8qz0,2020-0188,2021-10-14,11:17:55,12:12:53,NA,incomplete,false,true,NA,3,2,NA,green,m_s_081.jpg,NA,NA,pleasant,unpleasant,NA,NA,NA,NA,NA,right,339.899999991059,true,NA,NA,NA,NA,NA
sDum8qz0,3mdwe879vkfdd3966pwqlqs2jwg9bh,35dr22ar5hx0yollles08uc04p4x30,sDum8qz0,2020-0188,2021-10-14,11:17:55,12:12:53,NA,incomplete,false,true,NA,3,3,NA,green,n_l_102.jpg,NA,NA,pleasant,unpleasant,NA,NA,NA,NA,NA,right,737.70000000298,true,NA,NA,NA,NA,NA
sDum8qz0,3mdwe879vkfdd3966pwqlqs2jwg9bh,35dr22ar5hx0yollles08uc04p4x30,sDum8qz0,2020-0188,2021-10-14,11:17:55,12:12:53,NA,incomplete,false,true,NA,3,4,NA,green,m_s_096.jpg,NA,NA,unpleasant,pleasant,NA,NA,NA,NA,NA,right,1261.30000001192,true,NA,NA,NA,NA,NA
sDum8qz0,3mdwe879vkfdd3966pwqlqs2jwg9bh,35dr22ar5hx0yollles08uc04p4x30,sDum8qz0,2020-0188,2021-10-14,11:17:55,12:12:53,NA,incomplete,false,true,NA,3,5,NA,green,n_s_116.jpg,NA,NA,pleasant,unpleasant,NA,NA,NA,NA,NA,right,335.09999999404,true,NA,NA,NA,NA,NA
sDum8qz0,3mdwe879vkfdd3966pwqlqs2jwg9bh,35dr22ar5hx0yollles08uc04p4x30,sDum8qz0,2020-0188,2021-10-14,11:17:55,12:12:53,NA,incomplete,false,true,NA,3,6,NA,orange,n_l_040.jpg,NA,NA,pleasant,unpleasant,NA,NA,NA,NA,NA,right,467.399999991059,true,NA,NA,NA,NA,NA
sDum8qz0,3mdwe879vkfdd3966pwqlqs2jwg9bh,35dr22ar5hx0yollles08uc04p4x30,sDum8qz0,2020-0188,2021-10-14,11:17:55,12:12:53,NA,incomplete,false,true,NA,3,7,NA,orange,m_l_010.jpg,NA,NA,pleasant,unpleasant,NA,NA,NA,NA,NA,right,727.600000008941,true,NA,NA,NA,NA,NA
sDum8qz0,3mdwe879vkfdd3966pwqlqs2jwg9bh,35dr22ar5hx0yollles08uc04p4x30,sDum8qz0,2020-0188,2021-10-14,11:17:55,12:12:53,NA,incomplete,false,true,NA,3,8,NA,orange,n_l_081.jpg,NA,NA,unpleasant,pleasant,NA,NA,NA,NA,NA,right,282.40000000596,true,NA,NA,NA,NA,NA
sDum8qz0,3mdwe879vkfdd3966pwqlqs2jwg9bh,35dr22ar5hx0yollles08uc04p4x30,sDum8qz0,2020-0188,2021-10-14,11:17:55,12:12:53,NA,incomplete,false,true,NA,3,9,NA,orange,m_s_061.jpg,NA,NA,unpleasant,pleasant,NA,NA,NA,NA,NA,right,492.29999999702,true,NA,NA,NA,NA,NA
sDum8qz0,3mdwe879vkfdd3966pwqlqs2jwg9bh,35dr22ar5hx0yollles08uc04p4x30,sDum8qz0,2020-0188,2021-10-14,11:17:55,12:12:53,NA,incomplete,false,true,NA,3,10,NA,orange,n_l_051.jpg,NA,NA,pleasant,unpleasant,NA,NA,NA,NA,NA,right,469.70000000298,true,NA,NA,NA,NA,NA
sDum8qz0,3mdwe879vkfdd3966pwqlqs2jwg9bh,35dr22ar5hx0yollles08uc04p4x30,sDum8qz0,2020-0188,2021-10-14,11:17:55,12:12:53,NA,incomplete,false,true,NA,3,11,NA,orange,m_l_054.jpg,NA,NA,unpleasant,pleasant,NA,NA,NA,NA,NA,right,510.399999991059,true,NA,NA,NA,NA,NA
sDum8qz0,3mdwe879vkfdd3966pwqlqs2jwg9bh,35dr22ar5hx0yollles08uc04p4x30,sDum8qz0,2020-0188,2021-10-14,11:17:55,12:12:53,NA,incomplete,false,true,NA,3,12,NA,gray,n_s_049.jpg,NA,NA,unpleasant,pleasant,NA,NA,NA,NA,NA,right,663.70000000298,true,NA,NA,NA,NA,NA
sDum8qz0,3mdwe879vkfdd3966pwqlqs2jwg9bh,35dr22ar5hx0yollles08uc04p4x30,sDum8qz0,2020-0188,2021-10-14,11:17:55,12:12:53,NA,incomplete,false,true,NA,3,13,NA,gray,n_s_040.jpg,NA,NA,unpleasant,pleasant,NA,NA,NA,NA,NA,none,0,false,NA,NA,NA,NA,NA
sDum8qz0,3mdwe879vkfdd3966pwqlqs2jwg9bh,35dr22ar5hx0yollles08uc04p4x30,sDum8qz0,2020-0188,2021-10-14,11:17:55,12:12:53,NA,incomplete,false,true,NA,3,14,NA,gray,n_l_047.jpg,NA,NA,unpleasant,pleasant,NA,NA,NA,NA,NA,right,403.800000011921,true,NA,NA,NA,NA,NA
sDum8qz0,3mdwe879vkfdd3966pwqlqs2jwg9bh,35dr22ar5hx0yollles08uc04p4x30,sDum8qz0,2020-0188,2021-10-14,11:17:55,12:12:53,NA,incomplete,false,true,NA,3,15,NA,gray,n_s_082.jpg,NA,NA,pleasant,unpleasant,NA,NA,NA,NA,NA,left,274,true,NA,NA,NA,NA,NA
sDum8qz0,3mdwe879vkfdd3966pwqlqs2jwg9bh,35dr22ar5hx0yollles08uc04p4x30,sDum8qz0,2020-0188,2021-10-14,11:17:55,12:12:53,NA,incomplete,false,true,NA,3,16,NA,gray,m_l_081.jpg,NA,NA,unpleasant,pleasant,NA,NA,NA,NA,NA,left,512.40000000596,true,NA,NA,NA,NA,NA
sDum8qz0,3mdwe879vkfdd3966pwqlqs2jwg9bh,35dr22ar5hx0yollles08uc04p4x30,sDum8qz0,2020-0188,2021-10-14,11:17:55,12:12:53,NA,incomplete,false,true,NA,3,17,NA,gray,m_l_094.jpg,NA,NA,unpleasant,pleasant,NA,NA,NA,NA,NA,left,564,true,NA,NA,NA,NA,NA
sDum8qz0,3mdwe879vkfdd3966pwqlqs2jwg9bh,35dr22ar5hx0yollles08uc04p4x30,sDum8qz0,2020-0188,2021-10-14,11:17:55,12:12:53,NA,incomplete,false,true,NA,3,18,NA,yellow,n_l_099.jpg,NA,NA,unpleasant,pleasant,NA,NA,NA,NA,NA,left,596.5,true,NA,NA,NA,NA,NA
sDum8qz0,3mdwe879vkfdd3966pwqlqs2jwg9bh,35dr22ar5hx0yollles08uc04p4x30,sDum8qz0,2020-0188,2021-10-14,11:17:55,12:12:53,NA,incomplete,false,true,NA,3,19,NA,yellow,n_s_047.jpg,NA,NA,unpleasant,pleasant,NA,NA,NA,NA,NA,left,1685,true,NA,NA,NA,NA,NA
sDum8qz0,3mdwe879vkfdd3966pwqlqs2jwg9bh,35dr22ar5hx0yollles08uc04p4x30,sDum8qz0,2020-0188,2021-10-14,11:17:55,12:12:53,NA,incomplete,false,true,NA,3,20,NA,yellow,n_l_002.jpg,NA,NA,unpleasant,pleasant,NA,NA,NA,NA,NA,left,444.20000000298,true,NA,NA,NA,NA,NA
sDum8qz0,3mdwe879vkfdd3966pwqlqs2jwg9bh,35dr22ar5hx0yollles08uc04p4x30,sDum8qz0,2020-0188,2021-10-14,11:17:55,12:12:53,NA,incomplete,false,true,NA,3,21,NA,yellow,n_s_036.jpg,NA,NA,pleasant,unpleasant,NA,NA,NA,NA,NA,left,1770.20000000298,true,NA,NA,NA,NA,NA
sDum8qz0,3mdwe879vkfdd3966pwqlqs2jwg9bh,35dr22ar5hx0yollles08uc04p4x30,sDum8qz0,2020-0188,2021-10-14,11:17:55,12:12:53,NA,incomplete,false,true,NA,3,22,NA,yellow,n_l_095.jpg,NA,NA,unpleasant,pleasant,NA,NA,NA,NA,NA,left,594.09999999404,true,NA,NA,NA,NA,NA
sDum8qz0,3mdwe879vkfdd3966pwqlqs2jwg9bh,35dr22ar5hx0yollles08uc04p4x30,sDum8qz0,2020-0188,2021-10-14,11:17:55,12:12:53,NA,incomplete,false,true,NA,3,23,NA,yellow,n_l_076.jpg,NA,NA,unpleasant,pleasant,NA,NA,NA,NA,NA,left,338.09999999404,true,NA,NA,NA,NA,NA
sDum8qz0,3mdwe879vkfdd3966pwqlqs2jwg9bh,35dr22ar5hx0yollles08uc04p4x30,sDum8qz0,2020-0188,2021-10-14,11:17:55,12:12:53,NA,incomplete,false,true,NA,3,24,NA,blue,n_l_063.jpg,NA,NA,unpleasant,pleasant,NA,NA,NA,NA,NA,left,430.90000000596,true,NA,NA,NA,NA,NA
sDum8qz0,3mdwe879vkfdd3966pwqlqs2jwg9bh,35dr22ar5hx0yollles08uc04p4x30,sDum8qz0,2020-0188,2021-10-14,11:17:55,12:12:53,NA,incomplete,false,true,NA,3,25,NA,blue,n_l_039.jpg,NA,NA,pleasant,unpleasant,NA,NA,NA,NA,NA,left,976.29999999702,true,NA,NA,NA,NA,NA
sDum8qz0,3mdwe879vkfdd3966pwqlqs2jwg9bh,35dr22ar5hx0yollles08uc04p4x30,sDum8qz0,2020-0188,2021-10-14,11:17:55,12:12:53,NA,incomplete,false,true,NA,3,26,NA,blue,n_l_108.jpg,NA,NA,unpleasant,pleasant,NA,NA,NA,NA,NA,left,607.90000000596,true,NA,NA,NA,NA,NA
sDum8qz0,3mdwe879vkfdd3966pwqlqs2jwg9bh,35dr22ar5hx0yollles08uc04p4x30,sDum8qz0,2020-0188,2021-10-14,11:17:55,12:12:53,NA,incomplete,false,true,NA,3,27,NA,blue,n_l_052.jpg,NA,NA,unpleasant,pleasant,NA,NA,NA,NA,NA,left,449.20000000298,true,NA,NA,NA,NA,NA
sDum8qz0,3mdwe879vkfdd3966pwqlqs2jwg9bh,35dr22ar5hx0yollles08uc04p4x30,sDum8qz0,2020-0188,2021-10-14,11:17:55,12:12:53,NA,incomplete,false,true,NA,3,28,NA,blue,n_s_035.jpg,NA,NA,pleasant,unpleasant,NA,NA,NA,NA,NA,left,417.40000000596,true,NA,NA,NA,NA,NA
sDum8qz0,3mdwe879vkfdd3966pwqlqs2jwg9bh,35dr22ar5hx0yollles08uc04p4x30,sDum8qz0,2020-0188,2021-10-14,11:17:55,12:12:53,NA,incomplete,false,true,NA,3,29,NA,blue,m_s_102.jpg,NA,NA,unpleasant,pleasant,NA,NA,NA,NA,NA,left,398.199999988079,true,NA,NA,NA,NA,NA
sDum8qz0,3mdwe879vkfdd3966pwqlqs2jwg9bh,35dr22ar5hx0yollles08uc04p4x30,sDum8qz0,2020-0188,2021-10-14,11:17:55,12:12:53,NA,incomplete,false,true,NA,3,30,NA,white,m_l_106.jpg,NA,NA,unpleasant,pleasant,NA,NA,NA,NA,NA,left,347.59999999404,true,NA,NA,NA,NA,NA
sDum8qz0,3mdwe879vkfdd3966pwqlqs2jwg9bh,35dr22ar5hx0yollles08uc04p4x30,sDum8qz0,2020-0188,2021-10-14,11:17:55,12:12:53,NA,incomplete,false,true,NA,3,31,NA,white,n_s_058.jpg,NA,NA,unpleasant,pleasant,NA,NA,NA,NA,NA,left,374.100000008941,true,NA,NA,NA,NA,NA
sDum8qz0,3mdwe879vkfdd3966pwqlqs2jwg9bh,35dr22ar5hx0yollles08uc04p4x30,sDum8qz0,2020-0188,2021-10-14,11:17:55,12:12:53,NA,incomplete,false,true,NA,3,32,NA,white,m_l_015.jpg,NA,NA,pleasant,unpleasant,NA,NA,NA,NA,NA,left,368.79999999702,true,NA,NA,NA,NA,NA
sDum8qz0,3mdwe879vkfdd3966pwqlqs2jwg9bh,35dr22ar5hx0yollles08uc04p4x30,sDum8qz0,2020-0188,2021-10-14,11:17:55,12:12:53,NA,incomplete,false,true,NA,3,33,NA,white,m_s_046.jpg,NA,NA,pleasant,unpleasant,NA,NA,NA,NA,NA,left,400.40000000596,true,NA,NA,NA,NA,NA
sDum8qz0,3mdwe879vkfdd3966pwqlqs2jwg9bh,35dr22ar5hx0yollles08uc04p4x30,sDum8qz0,2020-0188,2021-10-14,11:17:55,12:12:53,NA,incomplete,false,true,NA,3,34,NA,white,m_s_115.jpg,NA,NA,pleasant,unpleasant,NA,NA,NA,NA,NA,left,412.699999988079,true,NA,NA,NA,NA,NA
sDum8qz0,3mdwe879vkfdd3966pwqlqs2jwg9bh,35dr22ar5hx0yollles08uc04p4x30,sDum8qz0,2020-0188,2021-10-14,11:17:55,12:12:53,NA,incomplete,false,true,NA,3,35,NA,white,m_l_040.jpg,NA,NA,pleasant,unpleasant,NA,NA,NA,NA,NA,left,494.70000000298,true,NA,NA,NA,NA,NA
sDum8qz0,3mdwe879vkfdd3966pwqlqs2jwg9bh,35dr22ar5hx0yollles08uc04p4x30,sDum8qz0,2020-0188,2021-10-14,11:17:55,12:12:53,NA,incomplete,false,NA,true,3,0,NA,NA,NA,right,absent,NA,NA,n_l_081.jpg,orange,m_s_096.jpg,green,between,NA,NaN,NA,left,1198.199999988079,0,3,992
sDum8qz0,3mdwe879vkfdd3966pwqlqs2jwg9bh,35dr22ar5hx0yollles08uc04p4x30,sDum8qz0,2020-0188,2021-10-14,11:17:55,12:12:53,NA,incomplete,false,NA,true,3,1,NA,NA,NA,right,absent,NA,NA,n_l_076.jpg,yellow,n_s_047.jpg,yellow,within,NA,NaN,NA,left,1140.4000000059605,0,3,747.2999999970198
sDum8qz0,3mdwe879vkfdd3966pwqlqs2jwg9bh,35dr22ar5hx0yollles08uc04p4x30,sDum8qz0,2020-0188,2021-10-14,11:17:55,12:12:53,NA,incomplete,false,NA,true,3,2,NA,NA,NA,left,absent,NA,NA,n_l_095.jpg,yellow,n_l_108.jpg,blue,between,NA,NaN,NA,left,1785.5,1,2,1118.800000011921
sDum8qz0,3mdwe879vkfdd3966pwqlqs2jwg9bh,35dr22ar5hx0yollles08uc04p4x30,sDum8qz0,2020-0188,2021-10-14,11:17:55,12:12:53,NA,incomplete,false,NA,true,3,3,NA,NA,NA,right,absent,NA,NA,m_s_102.jpg,blue,n_l_039.jpg,blue,within,NA,NaN,NA,right,827.2999999970198,1,2,1008.1000000089407
sDum8qz0,3mdwe879vkfdd3966pwqlqs2jwg9bh,35dr22ar5hx0yollles08uc04p4x30,sDum8qz0,2020-0188,2021-10-14,11:17:55,12:12:53,NA,incomplete,false,NA,true,3,4,NA,NA,NA,right,absent,NA,NA,n_l_002.jpg,yellow,m_l_081.jpg,gray,between,NA,NaN,NA,right,854.4000000059605,1,1,899.5
sDum8qz0,3mdwe879vkfdd3966pwqlqs2jwg9bh,35dr22ar5hx0yollles08uc04p4x30,sDum8qz0,2020-0188,2021-10-14,11:17:55,12:12:53,NA,incomplete,false,NA,true,3,5,NA,NA,NA,left,absent,NA,NA,m_l_010.jpg,orange,m_l_054.jpg,orange,within,NA,NaN,NA,right,813.8000000119209,0,2,1096
sDum8qz0,3mdwe879vkfdd3966pwqlqs2jwg9bh,35dr22ar5hx0yollles08uc04p4x30,sDum8qz0,2020-0188,2021-10-14,11:17:55,12:12:53,NA,incomplete,false,NA,true,3,6,NA,NA,NA,right,absent,NA,NA,n_s_116.jpg,green,m_s_025.jpg,green,within,NA,NaN,NA,right,866.8999999910593,1,3,1040.5
sDum8qz0,3mdwe879vkfdd3966pwqlqs2jwg9bh,35dr22ar5hx0yollles08uc04p4x30,sDum8qz0,2020-0188,2021-10-14,11:17:55,12:12:53,NA,incomplete,false,NA,true,3,7,NA,NA,NA,right,absent,NA,NA,m_l_040.jpg,white,n_s_058.jpg,white,within,NA,NaN,NA,right,1795.0999999940395,1,3,1507.4000000059605
sDum8qz0,3mdwe879vkfdd3966pwqlqs2jwg9bh,35dr22ar5hx0yollles08uc04p4x30,sDum8qz0,2020-0188,2021-10-14,11:17:55,12:12:53,NA,incomplete,false,NA,true,3,8,NA,NA,NA,right,absent,NA,NA,n_l_047.jpg,gray,n_l_051.jpg,orange,between,NA,NaN,NA,right,1125.5,1,1,1224.5999999940395
sDum8qz0,3mdwe879vkfdd3966pwqlqs2jwg9bh,35dr22ar5hx0yollles08uc04p4x30,sDum8qz0,2020-0188,2021-10-14,11:17:55,12:12:53,NA,incomplete,false,NA,true,3,9,NA,NA,NA,right,absent,NA,NA,m_l_094.jpg,gray,n_s_040.jpg,gray,within,NA,NaN,NA,right,988.2000000029802,1,2,1218.2000000029802
sDum8qz0,3mdwe879vkfdd3966pwqlqs2jwg9bh,35dr22ar5hx0yollles08uc04p4x30,sDum8qz0,2020-0188,2021-10-14,11:17:55,12:12:53,NA,incomplete,false,NA,true,3,10,NA,NA,NA,right,absent,NA,NA,m_l_015.jpg,white,n_s_035.jpg,blue,between,NA,NaN,NA,right,948.8999999910593,1,0,1145.7999999970198
sDum8qz0,3mdwe879vkfdd3966pwqlqs2jwg9bh,35dr22ar5hx0yollles08uc04p4x30,sDum8qz0,2020-0188,2021-10-14,11:17:55,12:12:53,NA,incomplete,false,true,NA,4,0,NA,black,n_l_029.jpg,NA,NA,unpleasant,pleasant,NA,NA,NA,NA,NA,right,358.90000000596,true,NA,NA,NA,NA,NA
sDum8qz0,3mdwe879vkfdd3966pwqlqs2jwg9bh,35dr22ar5hx0yollles08uc04p4x30,sDum8qz0,2020-0188,2021-10-14,11:17:55,12:12:53,NA,incomplete,false,true,NA,4,1,NA,black,m_s_053.jpg,NA,NA,unpleasant,pleasant,NA,NA,NA,NA,NA,right,323.59999999404,true,NA,NA,NA,NA,NA
sDum8qz0,3mdwe879vkfdd3966pwqlqs2jwg9bh,35dr22ar5hx0yollles08uc04p4x30,sDum8qz0,2020-0188,2021-10-14,11:17:55,12:12:53,NA,incomplete,false,true,NA,4,2,NA,black,m_l_024.jpg,NA,NA,pleasant,unpleasant,NA,NA,NA,NA,NA,right,342.29999999702,true,NA,NA,NA,NA,NA
sDum8qz0,3mdwe879vkfdd3966pwqlqs2jwg9bh,35dr22ar5hx0yollles08uc04p4x30,sDum8qz0,2020-0188,2021-10-14,11:17:55,12:12:53,NA,incomplete,false,true,NA,4,3,NA,black,n_l_034.jpg,NA,NA,pleasant,unpleasant,NA,NA,NA,NA,NA,right,414.59999999404,true,NA,NA,NA,NA,NA
sDum8qz0,3mdwe879vkfdd3966pwqlqs2jwg9bh,35dr22ar5hx0yollles08uc04p4x30,sDum8qz0,2020-0188,2021-10-14,11:17:55,12:12:53,NA,incomplete,false,true,NA,4,4,NA,black,n_s_024.jpg,NA,NA,unpleasant,pleasant,NA,NA,NA,NA,NA,right,365.399999991059,true,NA,NA,NA,NA,NA
sDum8qz0,3mdwe879vkfdd3966pwqlqs2jwg9bh,35dr22ar5hx0yollles08uc04p4x30,sDum8qz0,2020-0188,2021-10-14,11:17:55,12:12:53,NA,incomplete,false,true,NA,4,5,NA,black,m_s_040.jpg,NA,NA,unpleasant,pleasant,NA,NA,NA,NA,NA,right,369.20000000298,true,NA,NA,NA,NA,NA
sDum8qz0,3mdwe879vkfdd3966pwqlqs2jwg9bh,35dr22ar5hx0yollles08uc04p4x30,sDum8qz0,2020-0188,2021-10-14,11:17:55,12:12:53,NA,incomplete,false,true,NA,4,6,NA,orange,n_s_011.jpg,NA,NA,pleasant,unpleasant,NA,NA,NA,NA,NA,right,541.09999999404,true,NA,NA,NA,NA,NA
sDum8qz0,3mdwe879vkfdd3966pwqlqs2jwg9bh,35dr22ar5hx0yollles08uc04p4x30,sDum8qz0,2020-0188,2021-10-14,11:17:55,12:12:53,NA,incomplete,false,true,NA,4,7,NA,orange,m_l_068.jpg,NA,NA,unpleasant,pleasant,NA,NA,NA,NA,NA,right,646.70000000298,true,NA,NA,NA,NA,NA
sDum8qz0,3mdwe879vkfdd3966pwqlqs2jwg9bh,35dr22ar5hx0yollles08uc04p4x30,sDum8qz0,2020-0188,2021-10-14,11:17:55,12:12:53,NA,incomplete,false,true,NA,4,8,NA,orange,n_s_008.jpg,NA,NA,unpleasant,pleasant,NA,NA,NA,NA,NA,right,361.59999999404,true,NA,NA,NA,NA,NA
sDum8qz0,3mdwe879vkfdd3966pwqlqs2jwg9bh,35dr22ar5hx0yollles08uc04p4x30,sDum8qz0,2020-0188,2021-10-14,11:17:55,12:12:53,NA,incomplete,false,true,NA,4,9,NA,orange,n_s_089.jpg,NA,NA,pleasant,unpleasant,NA,NA,NA,NA,NA,right,405.600000008941,true,NA,NA,NA,NA,NA
sDum8qz0,3mdwe879vkfdd3966pwqlqs2jwg9bh,35dr22ar5hx0yollles08uc04p4x30,sDum8qz0,2020-0188,2021-10-14,11:17:55,12:12:53,NA,incomplete,false,true,NA,4,10,NA,orange,n_l_115.jpg,NA,NA,pleasant,unpleasant,NA,NA,NA,NA,NA,right,356,true,NA,NA,NA,NA,NA
sDum8qz0,3mdwe879vkfdd3966pwqlqs2jwg9bh,35dr22ar5hx0yollles08uc04p4x30,sDum8qz0,2020-0188,2021-10-14,11:17:55,12:12:53,NA,incomplete,false,true,NA,4,11,NA,orange,m_l_110.jpg,NA,NA,unpleasant,pleasant,NA,NA,NA,NA,NA,left,489.899999991059,true,NA,NA,NA,NA,NA
sDum8qz0,3mdwe879vkfdd3966pwqlqs2jwg9bh,35dr22ar5hx0yollles08uc04p4x30,sDum8qz0,2020-0188,2021-10-14,11:17:55,12:12:53,NA,incomplete,false,true,NA,4,12,NA,yellow,m_l_065.jpg,NA,NA,pleasant,unpleasant,NA,NA,NA,NA,NA,left,700,true,NA,NA,NA,NA,NA
sDum8qz0,3mdwe879vkfdd3966pwqlqs2jwg9bh,35dr22ar5hx0yollles08uc04p4x30,sDum8qz0,2020-0188,2021-10-14,11:17:55,12:12:53,NA,incomplete,false,true,NA,4,13,NA,yellow,n_s_044.jpg,NA,NA,unpleasant,pleasant,NA,NA,NA,NA,NA,left,952.899999991059,true,NA,NA,NA,NA,NA
sDum8qz0,3mdwe879vkfdd3966pwqlqs2jwg9bh,35dr22ar5hx0yollles08uc04p4x30,sDum8qz0,2020-0188,2021-10-14,11:17:55,12:12:53,NA,incomplete,false,true,NA,4,14,NA,yellow,n_s_039.jpg,NA,NA,unpleasant,pleasant,NA,NA,NA,NA,NA,left,436.09999999404,true,NA,NA,NA,NA,NA
sDum8qz0,3mdwe879vkfdd3966pwqlqs2jwg9bh,35dr22ar5hx0yollles08uc04p4x30,sDum8qz0,2020-0188,2021-10-14,11:17:55,12:12:53,NA,incomplete,false,true,NA,4,15,NA,yellow,m_s_078.jpg,NA,NA,pleasant,unpleasant,NA,NA,NA,NA,NA,left,669.600000008941,true,NA,NA,NA,NA,NA
sDum8qz0,3mdwe879vkfdd3966pwqlqs2jwg9bh,35dr22ar5hx0yollles08uc04p4x30,sDum8qz0,2020-0188,2021-10-14,11:17:55,12:12:53,NA,incomplete,false,true,NA,4,16,NA,yellow,n_s_080.jpg,NA,NA,pleasant,unpleasant,NA,NA,NA,NA,NA,left,453.90000000596,true,NA,NA,NA,NA,NA
sDum8qz0,3mdwe879vkfdd3966pwqlqs2jwg9bh,35dr22ar5hx0yollles08uc04p4x30,sDum8qz0,2020-0188,2021-10-14,11:17:55,12:12:53,NA,incomplete,false,true,NA,4,17,NA,yellow,m_s_047.jpg,NA,NA,unpleasant,pleasant,NA,NA,NA,NA,NA,right,953.09999999404,true,NA,NA,NA,NA,NA
sDum8qz0,3mdwe879vkfdd3966pwqlqs2jwg9bh,35dr22ar5hx0yollles08uc04p4x30,sDum8qz0,2020-0188,2021-10-14,11:17:55,12:12:53,NA,incomplete,false,true,NA,4,18,NA,brown,m_s_062.jpg,NA,NA,pleasant,unpleasant,NA,NA,NA,NA,NA,right,408,true,NA,NA,NA,NA,NA
sDum8qz0,3mdwe879vkfdd3966pwqlqs2jwg9bh,35dr22ar5hx0yollles08uc04p4x30,sDum8qz0,2020-0188,2021-10-14,11:17:55,12:12:53,NA,incomplete,false,true,NA,4,19,NA,brown,n_l_096.jpg,NA,NA,unpleasant,pleasant,NA,NA,NA,NA,NA,right,475.20000000298,true,NA,NA,NA,NA,NA
sDum8qz0,3mdwe879vkfdd3966pwqlqs2jwg9bh,35dr22ar5hx0yollles08uc04p4x30,sDum8qz0,2020-0188,2021-10-14,11:17:55,12:12:53,NA,incomplete,false,true,NA,4,20,NA,brown,m_s_028.jpg,NA,NA,pleasant,unpleasant,NA,NA,NA,NA,NA,right,887.199999988079,true,NA,NA,NA,NA,NA
sDum8qz0,3mdwe879vkfdd3966pwqlqs2jwg9bh,35dr22ar5hx0yollles08uc04p4x30,sDum8qz0,2020-0188,2021-10-14,11:17:55,12:12:53,NA,incomplete,false,true,NA,4,21,NA,brown,n_s_015.jpg,NA,NA,pleasant,unpleasant,NA,NA,NA,NA,NA,right,1552.10000000894,true,NA,NA,NA,NA,NA
sDum8qz0,3mdwe879vkfdd3966pwqlqs2jwg9bh,35dr22ar5hx0yollles08uc04p4x30,sDum8qz0,2020-0188,2021-10-14,11:17:55,12:12:53,NA,incomplete,false,true,NA,4,22,NA,brown,n_s_112.jpg,NA,NA,unpleasant,pleasant,NA,NA,NA,NA,NA,right,1477.79999999702,true,NA,NA,NA,NA,NA
sDum8qz0,3mdwe879vkfdd3966pwqlqs2jwg9bh,35dr22ar5hx0yollles08uc04p4x30,sDum8qz0,2020-0188,2021-10-14,11:17:55,12:12:53,NA,incomplete,false,true,NA,4,23,NA,brown,n_l_083.jpg,NA,NA,pleasant,unpleasant,NA,NA,NA,NA,NA,right,1564.70000000298,true,NA,NA,NA,NA,NA
sDum8qz0,3mdwe879vkfdd3966pwqlqs2jwg9bh,35dr22ar5hx0yollles08uc04p4x30,sDum8qz0,2020-0188,2021-10-14,11:17:55,12:12:53,NA,incomplete,false,true,NA,4,24,NA,white,n_s_054.jpg,NA,NA,pleasant,unpleasant,NA,NA,NA,NA,NA,right,1819.19999998808,true,NA,NA,NA,NA,NA
sDum8qz0,3mdwe879vkfdd3966pwqlqs2jwg9bh,35dr22ar5hx0yollles08uc04p4x30,sDum8qz0,2020-0188,2021-10-14,11:17:55,12:12:53,NA,incomplete,false,true,NA,4,25,NA,white,n_l_038.jpg,NA,NA,unpleasant,pleasant,NA,NA,NA,NA,NA,right,691.40000000596,true,NA,NA,NA,NA,NA
sDum8qz0,3mdwe879vkfdd3966pwqlqs2jwg9bh,35dr22ar5hx0yollles08uc04p4x30,sDum8qz0,2020-0188,2021-10-14,11:17:55,12:12:53,NA,incomplete,false,true,NA,4,26,NA,white,m_l_032.jpg,NA,NA,unpleasant,pleasant,NA,NA,NA,NA,NA,right,763.09999999404,true,NA,NA,NA,NA,NA
sDum8qz0,3mdwe879vkfdd3966pwqlqs2jwg9bh,35dr22ar5hx0yollles08uc04p4x30,sDum8qz0,2020-0188,2021-10-14,11:17:55,12:12:53,NA,incomplete,false,true,NA,4,27,NA,white,n_s_061.jpg,NA,NA,pleasant,unpleasant,NA,NA,NA,NA,NA,right,564.09999999404,true,NA,NA,NA,NA,NA
sDum8qz0,3mdwe879vkfdd3966pwqlqs2jwg9bh,35dr22ar5hx0yollles08uc04p4x30,sDum8qz0,2020-0188,2021-10-14,11:17:55,12:12:53,NA,incomplete,false,true,NA,4,28,NA,white,m_s_097.jpg,NA,NA,pleasant,unpleasant,NA,NA,NA,NA,NA,right,2273.20000000298,true,NA,NA,NA,NA,NA
sDum8qz0,3mdwe879vkfdd3966pwqlqs2jwg9bh,35dr22ar5hx0yollles08uc04p4x30,sDum8qz0,2020-0188,2021-10-14,11:17:55,12:12:53,NA,incomplete,false,true,NA,4,29,NA,white,m_l_039.jpg,NA,NA,pleasant,unpleasant,NA,NA,NA,NA,NA,right,1890,true,NA,NA,NA,NA,NA
sDum8qz0,3mdwe879vkfdd3966pwqlqs2jwg9bh,35dr22ar5hx0yollles08uc04p4x30,sDum8qz0,2020-0188,2021-10-14,11:17:55,12:12:53,NA,incomplete,false,true,NA,4,30,NA,green,m_s_059.jpg,NA,NA,unpleasant,pleasant,NA,NA,NA,NA,NA,right,2411.5,true,NA,NA,NA,NA,NA
sDum8qz0,3mdwe879vkfdd3966pwqlqs2jwg9bh,35dr22ar5hx0yollles08uc04p4x30,sDum8qz0,2020-0188,2021-10-14,11:17:55,12:12:53,NA,incomplete,false,true,NA,4,31,NA,green,n_l_006.jpg,NA,NA,unpleasant,pleasant,NA,NA,NA,NA,NA,right,1494.30000001192,true,NA,NA,NA,NA,NA
sDum8qz0,3mdwe879vkfdd3966pwqlqs2jwg9bh,35dr22ar5hx0yollles08uc04p4x30,sDum8qz0,2020-0188,2021-10-14,11:17:55,12:12:53,NA,incomplete,false,true,NA,4,32,NA,green,n_l_062.jpg,NA,NA,unpleasant,pleasant,NA,NA,NA,NA,NA,right,649.09999999404,true,NA,NA,NA,NA,NA
sDum8qz0,3mdwe879vkfdd3966pwqlqs2jwg9bh,35dr22ar5hx0yollles08uc04p4x30,sDum8qz0,2020-0188,2021-10-14,11:17:55,12:12:53,NA,incomplete,false,true,NA,4,33,NA,green,n_s_108.jpg,NA,NA,unpleasant,pleasant,NA,NA,NA,NA,NA,right,776.600000008941,true,NA,NA,NA,NA,NA
sDum8qz0,3mdwe879vkfdd3966pwqlqs2jwg9bh,35dr22ar5hx0yollles08uc04p4x30,sDum8qz0,2020-0188,2021-10-14,11:17:55,12:12:53,NA,incomplete,false,true,NA,4,34,NA,green,n_l_100.jpg,NA,NA,pleasant,unpleasant,NA,NA,NA,NA,NA,right,720.600000008941,true,NA,NA,NA,NA,NA
sDum8qz0,3mdwe879vkfdd3966pwqlqs2jwg9bh,35dr22ar5hx0yollles08uc04p4x30,sDum8qz0,2020-0188,2021-10-14,11:17:55,12:12:53,NA,incomplete,false,true,NA,4,35,NA,green,m_s_080.jpg,NA,NA,unpleasant,pleasant,NA,NA,NA,NA,NA,right,803.40000000596,true,NA,NA,NA,NA,NA
sDum8qz0,3mdwe879vkfdd3966pwqlqs2jwg9bh,35dr22ar5hx0yollles08uc04p4x30,sDum8qz0,2020-0188,2021-10-14,11:17:55,12:12:53,NA,incomplete,false,NA,true,4,0,NA,NA,NA,right,absent,NA,NA,n_l_083.jpg,brown,n_l_096.jpg,brown,within,NA,NaN,NA,left,1099.9000000059605,0,3,1345.7000000029802
sDum8qz0,3mdwe879vkfdd3966pwqlqs2jwg9bh,35dr22ar5hx0yollles08uc04p4x30,sDum8qz0,2020-0188,2021-10-14,11:17:55,12:12:53,NA,incomplete,false,NA,true,4,1,NA,NA,NA,left,absent,NA,NA,n_l_115.jpg,orange,n_s_039.jpg,yellow,between,NA,NaN,NA,left,1066.4000000059605,1,2,992.7999999970198
sDum8qz0,3mdwe879vkfdd3966pwqlqs2jwg9bh,35dr22ar5hx0yollles08uc04p4x30,sDum8qz0,2020-0188,2021-10-14,11:17:55,12:12:53,NA,incomplete,false,NA,true,4,2,NA,NA,NA,right,absent,NA,NA,n_s_008.jpg,orange,n_s_024.jpg,black,between,NA,NaN,NA,left,976.2000000029802,0,3,928
sDum8qz0,3mdwe879vkfdd3966pwqlqs2jwg9bh,35dr22ar5hx0yollles08uc04p4x30,sDum8qz0,2020-0188,2021-10-14,11:17:55,12:12:53,NA,incomplete,false,NA,true,4,3,NA,NA,NA,right,absent,NA,NA,m_l_032.jpg,white,n_s_112.jpg,brown,between,NA,NaN,NA,left,895.1000000089407,0,3,697.8000000119209
sDum8qz0,3mdwe879vkfdd3966pwqlqs2jwg9bh,35dr22ar5hx0yollles08uc04p4x30,sDum8qz0,2020-0188,2021-10-14,11:17:55,12:12:53,NA,incomplete,false,NA,true,4,4,NA,NA,NA,left,absent,NA,NA,m_s_053.jpg,black,m_s_040.jpg,black,within,NA,NaN,NA,right,921.7999999970198,0,1,943.5
sDum8qz0,3mdwe879vkfdd3966pwqlqs2jwg9bh,35dr22ar5hx0yollles08uc04p4x30,sDum8qz0,2020-0188,2021-10-14,11:17:55,12:12:53,NA,incomplete,false,NA,true,4,5,NA,NA,NA,left,absent,NA,NA,n_l_038.jpg,white,m_l_039.jpg,white,within,NA,NaN,NA,right,951.6000000089407,0,1,879.2999999970198
sDum8qz0,3mdwe879vkfdd3966pwqlqs2jwg9bh,35dr22ar5hx0yollles08uc04p4x30,sDum8qz0,2020-0188,2021-10-14,11:17:55,12:12:53,NA,incomplete,false,NA,true,4,6,NA,NA,NA,right,absent,NA,NA,m_s_080.jpg,green,n_l_006.jpg,green,within,NA,NaN,NA,left,1198.2999999970198,0,2,958.7999999970198
sDum8qz0,3mdwe879vkfdd3966pwqlqs2jwg9bh,35dr22ar5hx0yollles08uc04p4x30,sDum8qz0,2020-0188,2021-10-14,11:17:55,12:12:53,NA,incomplete,false,NA,true,4,7,NA,NA,NA,left,absent,NA,NA,n_s_044.jpg,yellow,m_s_047.jpg,yellow,within,NA,NaN,NA,left,1278.7999999970198,1,2,950.7999999970198
sDum8qz0,3mdwe879vkfdd3966pwqlqs2jwg9bh,35dr22ar5hx0yollles08uc04p4x30,sDum8qz0,2020-0188,2021-10-14,11:17:55,12:12:53,NA,incomplete,false,NA,true,4,8,NA,NA,NA,left,absent,NA,NA,n_s_080.jpg,yellow,m_s_028.jpg,brown,between,NA,NaN,NA,right,1617.3999999910593,0,2,896.2000000029802
sDum8qz0,3mdwe879vkfdd3966pwqlqs2jwg9bh,35dr22ar5hx0yollles08uc04p4x30,sDum8qz0,2020-0188,2021-10-14,11:17:55,12:12:53,NA,incomplete,false,NA,true,4,9,NA,NA,NA,left,absent,NA,NA,m_l_068.jpg,orange,m_l_110.jpg,orange,within,NA,NaN,NA,left,1217.2999999970198,1,2,862.7000000029802
sDum8qz0,3mdwe879vkfdd3966pwqlqs2jwg9bh,35dr22ar5hx0yollles08uc04p4x30,sDum8qz0,2020-0188,2021-10-14,11:17:55,12:12:53,NA,incomplete,false,NA,true,4,10,NA,NA,NA,left,absent,NA,NA,m_s_097.jpg,white,n_l_062.jpg,green,between,NA,NaN,NA,right,1008.1000000089407,0,1,1004.8999999910593
sDum8qz0,3mdwe879vkfdd3966pwqlqs2jwg9bh,35dr22ar5hx0yollles08uc04p4x30,sDum8qz0,2020-0188,2021-10-14,11:17:55,12:12:53,NA,incomplete,false,true,NA,5,0,NA,orange,n_l_114.jpg,NA,NA,unpleasant,pleasant,NA,NA,NA,NA,NA,right,648.59999999404,true,NA,NA,NA,NA,NA
sDum8qz0,3mdwe879vkfdd3966pwqlqs2jwg9bh,35dr22ar5hx0yollles08uc04p4x30,sDum8qz0,2020-0188,2021-10-14,11:17:55,12:12:53,NA,incomplete,false,true,NA,5,1,NA,orange,n_l_103.jpg,NA,NA,pleasant,unpleasant,NA,NA,NA,NA,NA,right,438.40000000596,true,NA,NA,NA,NA,NA
sDum8qz0,3mdwe879vkfdd3966pwqlqs2jwg9bh,35dr22ar5hx0yollles08uc04p4x30,sDum8qz0,2020-0188,2021-10-14,11:17:55,12:12:53,NA,incomplete,false,true,NA,5,2,NA,orange,m_l_107.jpg,NA,NA,unpleasant,pleasant,NA,NA,NA,NA,NA,right,636.600000008941,true,NA,NA,NA,NA,NA
sDum8qz0,3mdwe879vkfdd3966pwqlqs2jwg9bh,35dr22ar5hx0yollles08uc04p4x30,sDum8qz0,2020-0188,2021-10-14,11:17:55,12:12:53,NA,incomplete,false,true,NA,5,3,NA,orange,n_l_015.jpg,NA,NA,pleasant,unpleasant,NA,NA,NA,NA,NA,right,554.20000000298,true,NA,NA,NA,NA,NA
sDum8qz0,3mdwe879vkfdd3966pwqlqs2jwg9bh,35dr22ar5hx0yollles08uc04p4x30,sDum8qz0,2020-0188,2021-10-14,11:17:55,12:12:53,NA,incomplete,false,true,NA,5,4,NA,orange,n_s_088.jpg,NA,NA,pleasant,unpleasant,NA,NA,NA,NA,NA,right,1338.39999999106,true,NA,NA,NA,NA,NA
sDum8qz0,3mdwe879vkfdd3966pwqlqs2jwg9bh,35dr22ar5hx0yollles08uc04p4x30,sDum8qz0,2020-0188,2021-10-14,11:17:55,12:12:53,NA,incomplete,false,true,NA,5,5,NA,orange,m_s_042.jpg,NA,NA,pleasant,unpleasant,NA,NA,NA,NA,NA,right,1590.40000000596,true,NA,NA,NA,NA,NA
sDum8qz0,3mdwe879vkfdd3966pwqlqs2jwg9bh,35dr22ar5hx0yollles08uc04p4x30,sDum8qz0,2020-0188,2021-10-14,11:17:55,12:12:53,NA,incomplete,false,true,NA,5,6,NA,black,n_s_106.jpg,NA,NA,unpleasant,pleasant,NA,NA,NA,NA,NA,right,1107.90000000596,true,NA,NA,NA,NA,NA
sDum8qz0,3mdwe879vkfdd3966pwqlqs2jwg9bh,35dr22ar5hx0yollles08uc04p4x30,sDum8qz0,2020-0188,2021-10-14,11:17:55,12:12:53,NA,incomplete,false,true,NA,5,7,NA,black,n_s_076.jpg,NA,NA,pleasant,unpleasant,NA,NA,NA,NA,NA,right,691,true,NA,NA,NA,NA,NA
sDum8qz0,3mdwe879vkfdd3966pwqlqs2jwg9bh,35dr22ar5hx0yollles08uc04p4x30,sDum8qz0,2020-0188,2021-10-14,11:17:55,12:12:53,NA,incomplete,false,true,NA,5,8,NA,black,m_l_051.jpg,NA,NA,pleasant,unpleasant,NA,NA,NA,NA,NA,right,633,true,NA,NA,NA,NA,NA
sDum8qz0,3mdwe879vkfdd3966pwqlqs2jwg9bh,35dr22ar5hx0yollles08uc04p4x30,sDum8qz0,2020-0188,2021-10-14,11:17:55,12:12:53,NA,incomplete,false,true,NA,5,9,NA,black,n_s_005.jpg,NA,NA,pleasant,unpleasant,NA,NA,NA,NA,NA,right,469.300000011921,true,NA,NA,NA,NA,NA
sDum8qz0,3mdwe879vkfdd3966pwqlqs2jwg9bh,35dr22ar5hx0yollles08uc04p4x30,sDum8qz0,2020-0188,2021-10-14,11:17:55,12:12:53,NA,incomplete,false,true,NA,5,10,NA,black,n_l_017.jpg,NA,NA,pleasant,unpleasant,NA,NA,NA,NA,NA,right,1136.5,true,NA,NA,NA,NA,NA
sDum8qz0,3mdwe879vkfdd3966pwqlqs2jwg9bh,35dr22ar5hx0yollles08uc04p4x30,sDum8qz0,2020-0188,2021-10-14,11:17:55,12:12:53,NA,incomplete,false,true,NA,5,11,NA,black,m_l_046.jpg,NA,NA,unpleasant,pleasant,NA,NA,NA,NA,NA,right,2829.60000000894,true,NA,NA,NA,NA,NA
sDum8qz0,3mdwe879vkfdd3966pwqlqs2jwg9bh,35dr22ar5hx0yollles08uc04p4x30,sDum8qz0,2020-0188,2021-10-14,11:17:55,12:12:53,NA,incomplete,false,true,NA,5,12,NA,purple,m_l_043.jpg,NA,NA,pleasant,unpleasant,NA,NA,NA,NA,NA,right,910.79999999702,true,NA,NA,NA,NA,NA
sDum8qz0,3mdwe879vkfdd3966pwqlqs2jwg9bh,35dr22ar5hx0yollles08uc04p4x30,sDum8qz0,2020-0188,2021-10-14,11:17:55,12:12:53,NA,incomplete,false,true,NA,5,13,NA,purple,n_s_103.jpg,NA,NA,unpleasant,pleasant,NA,NA,NA,NA,NA,right,2815,true,NA,NA,NA,NA,NA
sDum8qz0,3mdwe879vkfdd3966pwqlqs2jwg9bh,35dr22ar5hx0yollles08uc04p4x30,sDum8qz0,2020-0188,2021-10-14,11:17:55,12:12:53,NA,incomplete,false,true,NA,5,14,NA,purple,n_l_077.jpg,NA,NA,pleasant,unpleasant,NA,NA,NA,NA,NA,right,748.29999999702,true,NA,NA,NA,NA,NA
sDum8qz0,3mdwe879vkfdd3966pwqlqs2jwg9bh,35dr22ar5hx0yollles08uc04p4x30,sDum8qz0,2020-0188,2021-10-14,11:17:55,12:12:53,NA,incomplete,false,true,NA,5,15,NA,purple,n_l_033.jpg,NA,NA,pleasant,unpleasant,NA,NA,NA,NA,NA,right,323.300000011921,true,NA,NA,NA,NA,NA
sDum8qz0,3mdwe879vkfdd3966pwqlqs2jwg9bh,35dr22ar5hx0yollles08uc04p4x30,sDum8qz0,2020-0188,2021-10-14,11:17:55,12:12:53,NA,incomplete,false,true,NA,5,16,NA,purple,m_s_099.jpg,NA,NA,pleasant,unpleasant,NA,NA,NA,NA,NA,none,0,false,NA,NA,NA,NA,NA
sDum8qz0,3mdwe879vkfdd3966pwqlqs2jwg9bh,35dr22ar5hx0yollles08uc04p4x30,sDum8qz0,2020-0188,2021-10-14,11:17:55,12:12:53,NA,incomplete,false,true,NA,5,17,NA,purple,m_s_063.jpg,NA,NA,unpleasant,pleasant,NA,NA,NA,NA,NA,none,0,false,NA,NA,NA,NA,NA
sDum8qz0,3mdwe879vkfdd3966pwqlqs2jwg9bh,35dr22ar5hx0yollles08uc04p4x30,sDum8qz0,2020-0188,2021-10-14,11:17:55,12:12:53,NA,incomplete,false,true,NA,5,18,NA,brown,n_l_011.jpg,NA,NA,unpleasant,pleasant,NA,NA,NA,NA,NA,none,0,false,NA,NA,NA,NA,NA
sDum8qz0,3mdwe879vkfdd3966pwqlqs2jwg9bh,35dr22ar5hx0yollles08uc04p4x30,sDum8qz0,2020-0188,2021-10-14,11:17:55,12:12:53,NA,incomplete,false,true,NA,5,19,NA,brown,n_s_096.jpg,NA,NA,pleasant,unpleasant,NA,NA,NA,NA,NA,none,0,false,NA,NA,NA,NA,NA
sDum8qz0,3mdwe879vkfdd3966pwqlqs2jwg9bh,35dr22ar5hx0yollles08uc04p4x30,sDum8qz0,2020-0188,2021-10-14,11:17:55,12:12:53,NA,incomplete,false,true,NA,5,20,NA,brown,m_l_002.jpg,NA,NA,pleasant,unpleasant,NA,NA,NA,NA,NA,none,0,false,NA,NA,NA,NA,NA
sDum8qz0,3mdwe879vkfdd3966pwqlqs2jwg9bh,35dr22ar5hx0yollles08uc04p4x30,sDum8qz0,2020-0188,2021-10-14,11:17:55,12:12:53,NA,incomplete,false,true,NA,5,21,NA,brown,m_s_068.jpg,NA,NA,pleasant,unpleasant,NA,NA,NA,NA,NA,none,0,false,NA,NA,NA,NA,NA
sDum8qz0,3mdwe879vkfdd3966pwqlqs2jwg9bh,35dr22ar5hx0yollles08uc04p4x30,sDum8qz0,2020-0188,2021-10-14,11:17:55,12:12:53,NA,incomplete,false,true,NA,5,22,NA,brown,m_l_034.jpg,NA,NA,pleasant,unpleasant,NA,NA,NA,NA,NA,right,389,true,NA,NA,NA,NA,NA
sDum8qz0,3mdwe879vkfdd3966pwqlqs2jwg9bh,35dr22ar5hx0yollles08uc04p4x30,sDum8qz0,2020-0188,2021-10-14,11:17:55,12:12:53,NA,incomplete,false,true,NA,5,23,NA,brown,m_l_062.jpg,NA,NA,pleasant,unpleasant,NA,NA,NA,NA,NA,right,647.300000011921,true,NA,NA,NA,NA,NA
sDum8qz0,3mdwe879vkfdd3966pwqlqs2jwg9bh,35dr22ar5hx0yollles08uc04p4x30,sDum8qz0,2020-0188,2021-10-14,11:17:55,12:12:53,NA,incomplete,false,true,NA,5,24,NA,green,n_l_018.jpg,NA,NA,unpleasant,pleasant,NA,NA,NA,NA,NA,right,679.899999991059,true,NA,NA,NA,NA,NA
sDum8qz0,3mdwe879vkfdd3966pwqlqs2jwg9bh,35dr22ar5hx0yollles08uc04p4x30,sDum8qz0,2020-0188,2021-10-14,11:17:55,12:12:53,NA,incomplete,false,true,NA,5,25,NA,green,n_s_107.jpg,NA,NA,unpleasant,pleasant,NA,NA,NA,NA,NA,right,493.100000008941,true,NA,NA,NA,NA,NA
sDum8qz0,3mdwe879vkfdd3966pwqlqs2jwg9bh,35dr22ar5hx0yollles08uc04p4x30,sDum8qz0,2020-0188,2021-10-14,11:17:55,12:12:53,NA,incomplete,false,true,NA,5,26,NA,green,n_s_063.jpg,NA,NA,unpleasant,pleasant,NA,NA,NA,NA,NA,right,569.5,true,NA,NA,NA,NA,NA
sDum8qz0,3mdwe879vkfdd3966pwqlqs2jwg9bh,35dr22ar5hx0yollles08uc04p4x30,sDum8qz0,2020-0188,2021-10-14,11:17:55,12:12:53,NA,incomplete,false,true,NA,5,27,NA,green,m_s_003.jpg,NA,NA,unpleasant,pleasant,NA,NA,NA,NA,NA,right,436.90000000596,true,NA,NA,NA,NA,NA
sDum8qz0,3mdwe879vkfdd3966pwqlqs2jwg9bh,35dr22ar5hx0yollles08uc04p4x30,sDum8qz0,2020-0188,2021-10-14,11:17:55,12:12:53,NA,incomplete,false,true,NA,5,28,NA,green,n_l_109.jpg,NA,NA,unpleasant,pleasant,NA,NA,NA,NA,NA,left,490.40000000596,true,NA,NA,NA,NA,NA
sDum8qz0,3mdwe879vkfdd3966pwqlqs2jwg9bh,35dr22ar5hx0yollles08uc04p4x30,sDum8qz0,2020-0188,2021-10-14,11:17:55,12:12:53,NA,incomplete,false,true,NA,5,29,NA,green,n_s_074.jpg,NA,NA,pleasant,unpleasant,NA,NA,NA,NA,NA,left,804.600000008941,true,NA,NA,NA,NA,NA
sDum8qz0,3mdwe879vkfdd3966pwqlqs2jwg9bh,35dr22ar5hx0yollles08uc04p4x30,sDum8qz0,2020-0188,2021-10-14,11:17:55,12:12:53,NA,incomplete,false,true,NA,5,30,NA,gray,n_s_032.jpg,NA,NA,unpleasant,pleasant,NA,NA,NA,NA,NA,left,784.20000000298,true,NA,NA,NA,NA,NA
sDum8qz0,3mdwe879vkfdd3966pwqlqs2jwg9bh,35dr22ar5hx0yollles08uc04p4x30,sDum8qz0,2020-0188,2021-10-14,11:17:55,12:12:53,NA,incomplete,false,true,NA,5,31,NA,gray,m_s_014.jpg,NA,NA,unpleasant,pleasant,NA,NA,NA,NA,NA,left,1985.09999999404,true,NA,NA,NA,NA,NA
sDum8qz0,3mdwe879vkfdd3966pwqlqs2jwg9bh,35dr22ar5hx0yollles08uc04p4x30,sDum8qz0,2020-0188,2021-10-14,11:17:55,12:12:53,NA,incomplete,false,true,NA,5,32,NA,gray,n_l_005.jpg,NA,NA,unpleasant,pleasant,NA,NA,NA,NA,NA,left,2077.09999999404,true,NA,NA,NA,NA,NA
sDum8qz0,3mdwe879vkfdd3966pwqlqs2jwg9bh,35dr22ar5hx0yollles08uc04p4x30,sDum8qz0,2020-0188,2021-10-14,11:17:55,12:12:53,NA,incomplete,false,true,NA,5,33,NA,gray,m_l_077.jpg,NA,NA,pleasant,unpleasant,NA,NA,NA,NA,NA,left,1213.69999998808,true,NA,NA,NA,NA,NA
sDum8qz0,3mdwe879vkfdd3966pwqlqs2jwg9bh,35dr22ar5hx0yollles08uc04p4x30,sDum8qz0,2020-0188,2021-10-14,11:17:55,12:12:53,NA,incomplete,false,true,NA,5,34,NA,gray,n_s_057.jpg,NA,NA,unpleasant,pleasant,NA,NA,NA,NA,NA,left,483,true,NA,NA,NA,NA,NA
sDum8qz0,3mdwe879vkfdd3966pwqlqs2jwg9bh,35dr22ar5hx0yollles08uc04p4x30,sDum8qz0,2020-0188,2021-10-14,11:17:55,12:12:53,NA,incomplete,false,true,NA,5,35,NA,gray,m_l_004.jpg,NA,NA,pleasant,unpleasant,NA,NA,NA,NA,NA,left,420.59999999404,true,NA,NA,NA,NA,NA
sDum8qz0,3mdwe879vkfdd3966pwqlqs2jwg9bh,35dr22ar5hx0yollles08uc04p4x30,sDum8qz0,2020-0188,2021-10-14,11:17:55,12:12:53,NA,incomplete,false,NA,true,5,0,NA,NA,NA,right,present,NA,NA,n_l_005.jpg,gray,n_l_109.jpg,green,between,NA,NaN,NA,left,1085.7999999970198,0,3,919.7999999970198
sDum8qz0,3mdwe879vkfdd3966pwqlqs2jwg9bh,35dr22ar5hx0yollles08uc04p4x30,sDum8qz0,2020-0188,2021-10-14,11:17:55,12:12:53,NA,incomplete,false,NA,true,5,1,NA,NA,NA,left,present,NA,NA,n_s_103.jpg,purple,m_s_063.jpg,purple,within,NA,NaN,NA,left,1295.2000000029802,1,2,985
sDum8qz0,3mdwe879vkfdd3966pwqlqs2jwg9bh,35dr22ar5hx0yollles08uc04p4x30,sDum8qz0,2020-0188,2021-10-14,11:17:55,12:12:53,NA,incomplete,false,NA,true,5,2,NA,NA,NA,right,present,NA,NA,n_l_077.jpg,purple,n_l_017.jpg,black,between,NA,NaN,NA,right,899,1,1,1178.7999999970198
sDum8qz0,3mdwe879vkfdd3966pwqlqs2jwg9bh,35dr22ar5hx0yollles08uc04p4x30,sDum8qz0,2020-0188,2021-10-14,11:17:55,12:12:53,NA,incomplete,false,NA,true,5,3,NA,NA,NA,right,present,NA,NA,m_l_046.jpg,black,n_s_076.jpg,black,within,NA,NaN,NA,right,1072.8999999910593,1,1,960.3999999910593
sDum8qz0,3mdwe879vkfdd3966pwqlqs2jwg9bh,35dr22ar5hx0yollles08uc04p4x30,sDum8qz0,2020-0188,2021-10-14,11:17:55,12:12:53,NA,incomplete,false,NA,true,5,4,NA,NA,NA,right,present,NA,NA,m_l_062.jpg,brown,n_s_096.jpg,brown,within,NA,NaN,NA,right,1057.2000000029802,1,0,1108.5
sDum8qz0,3mdwe879vkfdd3966pwqlqs2jwg9bh,35dr22ar5hx0yollles08uc04p4x30,sDum8qz0,2020-0188,2021-10-14,11:17:55,12:12:53,NA,incomplete,false,NA,true,5,5,NA,NA,NA,right,present,NA,NA,m_l_002.jpg,brown,m_s_099.jpg,purple,between,NA,NaN,NA,right,981.7999999970198,1,1,957.7000000029802
sDum8qz0,3mdwe879vkfdd3966pwqlqs2jwg9bh,35dr22ar5hx0yollles08uc04p4x30,sDum8qz0,2020-0188,2021-10-14,11:17:55,12:12:53,NA,incomplete,false,NA,true,5,6,NA,NA,NA,right,present,NA,NA,n_s_063.jpg,green,m_l_034.jpg,brown,between,NA,NaN,NA,right,872,1,2,911.0999999940395
sDum8qz0,3mdwe879vkfdd3966pwqlqs2jwg9bh,35dr22ar5hx0yollles08uc04p4x30,sDum8qz0,2020-0188,2021-10-14,11:17:55,12:12:53,NA,incomplete,false,NA,true,5,7,NA,NA,NA,left,present,NA,NA,n_l_103.jpg,orange,m_s_042.jpg,orange,within,NA,NaN,NA,left,1169,1,2,845.8999999910593
sDum8qz0,3mdwe879vkfdd3966pwqlqs2jwg9bh,35dr22ar5hx0yollles08uc04p4x30,sDum8qz0,2020-0188,2021-10-14,11:17:55,12:12:53,NA,incomplete,false,NA,true,5,8,NA,NA,NA,left,present,NA,NA,m_s_014.jpg,gray,m_l_004.jpg,gray,within,NA,NaN,NA,right,883.7999999970198,0,2,837.8999999910593
sDum8qz0,3mdwe879vkfdd3966pwqlqs2jwg9bh,35dr22ar5hx0yollles08uc04p4x30,sDum8qz0,2020-0188,2021-10-14,11:17:55,12:12:53,NA,incomplete,false,NA,true,5,9,NA,NA,NA,right,present,NA,NA,n_s_074.jpg,green,n_s_107.jpg,green,within,NA,NaN,NA,left,1009.7999999970198,0,1,1056.7999999970198
sDum8qz0,3mdwe879vkfdd3966pwqlqs2jwg9bh,35dr22ar5hx0yollles08uc04p4x30,sDum8qz0,2020-0188,2021-10-14,11:17:55,12:12:53,NA,incomplete,false,NA,true,5,10,NA,NA,NA,right,present,NA,NA,m_l_051.jpg,black,n_s_088.jpg,orange,between,NA,NaN,NA,right,904.7000000029802,1,2,931.0999999940395
sDum8qz0,3mdwe879vkfdd3966pwqlqs2jwg9bh,35dr22ar5hx0yollles08uc04p4x30,sDum8qz0,2020-0188,2021-10-14,11:17:55,12:12:53,NA,incomplete,false,true,NA,6,0,NA,gray,m_s_002.jpg,NA,NA,unpleasant,pleasant,NA,NA,NA,NA,NA,right,362.70000000298,true,NA,NA,NA,NA,NA
sDum8qz0,3mdwe879vkfdd3966pwqlqs2jwg9bh,35dr22ar5hx0yollles08uc04p4x30,sDum8qz0,2020-0188,2021-10-14,11:17:55,12:12:53,NA,incomplete,false,true,NA,6,1,NA,gray,m_l_012.jpg,NA,NA,unpleasant,pleasant,NA,NA,NA,NA,NA,right,344.899999991059,true,NA,NA,NA,NA,NA
sDum8qz0,3mdwe879vkfdd3966pwqlqs2jwg9bh,35dr22ar5hx0yollles08uc04p4x30,sDum8qz0,2020-0188,2021-10-14,11:17:55,12:12:53,NA,incomplete,false,true,NA,6,2,NA,gray,m_s_011.jpg,NA,NA,unpleasant,pleasant,NA,NA,NA,NA,NA,right,544.5,true,NA,NA,NA,NA,NA
sDum8qz0,3mdwe879vkfdd3966pwqlqs2jwg9bh,35dr22ar5hx0yollles08uc04p4x30,sDum8qz0,2020-0188,2021-10-14,11:17:55,12:12:53,NA,incomplete,false,true,NA,6,3,NA,gray,m_s_050.jpg,NA,NA,pleasant,unpleasant,NA,NA,NA,NA,NA,right,576.20000000298,true,NA,NA,NA,NA,NA
sDum8qz0,3mdwe879vkfdd3966pwqlqs2jwg9bh,35dr22ar5hx0yollles08uc04p4x30,sDum8qz0,2020-0188,2021-10-14,11:17:55,12:12:53,NA,incomplete,false,true,NA,6,4,NA,gray,n_l_046.jpg,NA,NA,pleasant,unpleasant,NA,NA,NA,NA,NA,right,289.90000000596,true,NA,NA,NA,NA,NA
sDum8qz0,3mdwe879vkfdd3966pwqlqs2jwg9bh,35dr22ar5hx0yollles08uc04p4x30,sDum8qz0,2020-0188,2021-10-14,11:17:55,12:12:53,NA,incomplete,false,true,NA,6,5,NA,gray,n_s_023.jpg,NA,NA,pleasant,unpleasant,NA,NA,NA,NA,NA,right,313.40000000596,true,NA,NA,NA,NA,NA
sDum8qz0,3mdwe879vkfdd3966pwqlqs2jwg9bh,35dr22ar5hx0yollles08uc04p4x30,sDum8qz0,2020-0188,2021-10-14,11:17:55,12:12:53,NA,incomplete,false,true,NA,6,6,NA,blue,m_l_029.jpg,NA,NA,pleasant,unpleasant,NA,NA,NA,NA,NA,right,281.70000000298,true,NA,NA,NA,NA,NA
sDum8qz0,3mdwe879vkfdd3966pwqlqs2jwg9bh,35dr22ar5hx0yollles08uc04p4x30,sDum8qz0,2020-0188,2021-10-14,11:17:55,12:12:53,NA,incomplete,false,true,NA,6,7,NA,blue,m_s_005.jpg,NA,NA,unpleasant,pleasant,NA,NA,NA,NA,NA,right,348.100000008941,true,NA,NA,NA,NA,NA
sDum8qz0,3mdwe879vkfdd3966pwqlqs2jwg9bh,35dr22ar5hx0yollles08uc04p4x30,sDum8qz0,2020-0188,2021-10-14,11:17:55,12:12:53,NA,incomplete,false,true,NA,6,8,NA,blue,n_s_013.jpg,NA,NA,pleasant,unpleasant,NA,NA,NA,NA,NA,right,661.899999991059,true,NA,NA,NA,NA,NA
sDum8qz0,3mdwe879vkfdd3966pwqlqs2jwg9bh,35dr22ar5hx0yollles08uc04p4x30,sDum8qz0,2020-0188,2021-10-14,11:17:55,12:12:53,NA,incomplete,false,true,NA,6,9,NA,blue,m_l_026.jpg,NA,NA,unpleasant,pleasant,NA,NA,NA,NA,NA,right,322.5,true,NA,NA,NA,NA,NA
sDum8qz0,3mdwe879vkfdd3966pwqlqs2jwg9bh,35dr22ar5hx0yollles08uc04p4x30,sDum8qz0,2020-0188,2021-10-14,11:17:55,12:12:53,NA,incomplete,false,true,NA,6,10,NA,blue,m_l_093.jpg,NA,NA,pleasant,unpleasant,NA,NA,NA,NA,NA,right,320.59999999404,true,NA,NA,NA,NA,NA
sDum8qz0,3mdwe879vkfdd3966pwqlqs2jwg9bh,35dr22ar5hx0yollles08uc04p4x30,sDum8qz0,2020-0188,2021-10-14,11:17:55,12:12:53,NA,incomplete,false,true,NA,6,11,NA,blue,n_s_078.jpg,NA,NA,pleasant,unpleasant,NA,NA,NA,NA,NA,right,405.79999999702,true,NA,NA,NA,NA,NA
sDum8qz0,3mdwe879vkfdd3966pwqlqs2jwg9bh,35dr22ar5hx0yollles08uc04p4x30,sDum8qz0,2020-0188,2021-10-14,11:17:55,12:12:53,NA,incomplete,false,true,NA,6,12,NA,orange,m_s_020.jpg,NA,NA,pleasant,unpleasant,NA,NA,NA,NA,NA,right,540.100000008941,true,NA,NA,NA,NA,NA
sDum8qz0,3mdwe879vkfdd3966pwqlqs2jwg9bh,35dr22ar5hx0yollles08uc04p4x30,sDum8qz0,2020-0188,2021-10-14,11:17:55,12:12:53,NA,incomplete,false,true,NA,6,13,NA,orange,n_l_116.jpg,NA,NA,pleasant,unpleasant,NA,NA,NA,NA,NA,left,749.199999988079,true,NA,NA,NA,NA,NA
sDum8qz0,3mdwe879vkfdd3966pwqlqs2jwg9bh,35dr22ar5hx0yollles08uc04p4x30,sDum8qz0,2020-0188,2021-10-14,11:17:55,12:12:53,NA,incomplete,false,true,NA,6,14,NA,orange,n_l_050.jpg,NA,NA,pleasant,unpleasant,NA,NA,NA,NA,NA,left,1090.09999999404,true,NA,NA,NA,NA,NA
sDum8qz0,3mdwe879vkfdd3966pwqlqs2jwg9bh,35dr22ar5hx0yollles08uc04p4x30,sDum8qz0,2020-0188,2021-10-14,11:17:55,12:12:53,NA,incomplete,false,true,NA,6,15,NA,orange,m_s_103.jpg,NA,NA,unpleasant,pleasant,NA,NA,NA,NA,NA,right,1636.5,true,NA,NA,NA,NA,NA
sDum8qz0,3mdwe879vkfdd3966pwqlqs2jwg9bh,35dr22ar5hx0yollles08uc04p4x30,sDum8qz0,2020-0188,2021-10-14,11:17:55,12:12:53,NA,incomplete,false,true,NA,6,16,NA,orange,n_s_086.jpg,NA,NA,pleasant,unpleasant,NA,NA,NA,NA,NA,right,418.800000011921,true,NA,NA,NA,NA,NA
sDum8qz0,3mdwe879vkfdd3966pwqlqs2jwg9bh,35dr22ar5hx0yollles08uc04p4x30,sDum8qz0,2020-0188,2021-10-14,11:17:55,12:12:53,NA,incomplete,false,true,NA,6,17,NA,orange,n_l_001.jpg,NA,NA,unpleasant,pleasant,NA,NA,NA,NA,NA,right,928.40000000596,true,NA,NA,NA,NA,NA
sDum8qz0,3mdwe879vkfdd3966pwqlqs2jwg9bh,35dr22ar5hx0yollles08uc04p4x30,sDum8qz0,2020-0188,2021-10-14,11:17:55,12:12:53,NA,incomplete,false,true,NA,6,18,NA,purple,m_s_079.jpg,NA,NA,pleasant,unpleasant,NA,NA,NA,NA,NA,right,359.300000011921,true,NA,NA,NA,NA,NA
sDum8qz0,3mdwe879vkfdd3966pwqlqs2jwg9bh,35dr22ar5hx0yollles08uc04p4x30,sDum8qz0,2020-0188,2021-10-14,11:17:55,12:12:53,NA,incomplete,false,true,NA,6,19,NA,purple,m_s_070.jpg,NA,NA,unpleasant,pleasant,NA,NA,NA,NA,NA,right,323.90000000596,true,NA,NA,NA,NA,NA
sDum8qz0,3mdwe879vkfdd3966pwqlqs2jwg9bh,35dr22ar5hx0yollles08uc04p4x30,sDum8qz0,2020-0188,2021-10-14,11:17:55,12:12:53,NA,incomplete,false,true,NA,6,20,NA,purple,m_l_087.jpg,NA,NA,unpleasant,pleasant,NA,NA,NA,NA,NA,right,492,true,NA,NA,NA,NA,NA
sDum8qz0,3mdwe879vkfdd3966pwqlqs2jwg9bh,35dr22ar5hx0yollles08uc04p4x30,sDum8qz0,2020-0188,2021-10-14,11:17:55,12:12:53,NA,incomplete,false,true,NA,6,21,NA,purple,n_l_087.jpg,NA,NA,unpleasant,pleasant,NA,NA,NA,NA,NA,right,670.399999991059,true,NA,NA,NA,NA,NA
sDum8qz0,3mdwe879vkfdd3966pwqlqs2jwg9bh,35dr22ar5hx0yollles08uc04p4x30,sDum8qz0,2020-0188,2021-10-14,11:17:55,12:12:53,NA,incomplete,false,true,NA,6,22,NA,purple,n_s_030.jpg,NA,NA,unpleasant,pleasant,NA,NA,NA,NA,NA,right,486.899999991059,true,NA,NA,NA,NA,NA
sDum8qz0,3mdwe879vkfdd3966pwqlqs2jwg9bh,35dr22ar5hx0yollles08uc04p4x30,sDum8qz0,2020-0188,2021-10-14,11:17:55,12:12:53,NA,incomplete,false,true,NA,6,23,NA,purple,n_l_010.jpg,NA,NA,unpleasant,pleasant,NA,NA,NA,NA,NA,none,0,false,NA,NA,NA,NA,NA
sDum8qz0,3mdwe879vkfdd3966pwqlqs2jwg9bh,35dr22ar5hx0yollles08uc04p4x30,sDum8qz0,2020-0188,2021-10-14,11:17:55,12:12:53,NA,incomplete,false,true,NA,6,24,NA,white,m_s_007.jpg,NA,NA,unpleasant,pleasant,NA,NA,NA,NA,NA,right,437.20000000298,true,NA,NA,NA,NA,NA
sDum8qz0,3mdwe879vkfdd3966pwqlqs2jwg9bh,35dr22ar5hx0yollles08uc04p4x30,sDum8qz0,2020-0188,2021-10-14,11:17:55,12:12:53,NA,incomplete,false,true,NA,6,25,NA,white,n_s_031.jpg,NA,NA,pleasant,unpleasant,NA,NA,NA,NA,NA,right,339.09999999404,true,NA,NA,NA,NA,NA
sDum8qz0,3mdwe879vkfdd3966pwqlqs2jwg9bh,35dr22ar5hx0yollles08uc04p4x30,sDum8qz0,2020-0188,2021-10-14,11:17:55,12:12:53,NA,incomplete,false,true,NA,6,26,NA,white,m_l_031.jpg,NA,NA,pleasant,unpleasant,NA,NA,NA,NA,NA,right,521.5,true,NA,NA,NA,NA,NA
sDum8qz0,3mdwe879vkfdd3966pwqlqs2jwg9bh,35dr22ar5hx0yollles08uc04p4x30,sDum8qz0,2020-0188,2021-10-14,11:17:55,12:12:53,NA,incomplete,false,true,NA,6,27,NA,white,n_l_067.jpg,NA,NA,unpleasant,pleasant,NA,NA,NA,NA,NA,right,886.90000000596,true,NA,NA,NA,NA,NA
sDum8qz0,3mdwe879vkfdd3966pwqlqs2jwg9bh,35dr22ar5hx0yollles08uc04p4x30,sDum8qz0,2020-0188,2021-10-14,11:17:55,12:12:53,NA,incomplete,false,true,NA,6,28,NA,white,m_l_058.jpg,NA,NA,pleasant,unpleasant,NA,NA,NA,NA,NA,right,1011.60000000894,true,NA,NA,NA,NA,NA
sDum8qz0,3mdwe879vkfdd3966pwqlqs2jwg9bh,35dr22ar5hx0yollles08uc04p4x30,sDum8qz0,2020-0188,2021-10-14,11:17:55,12:12:53,NA,incomplete,false,true,NA,6,29,NA,white,m_l_111.jpg,NA,NA,unpleasant,pleasant,NA,NA,NA,NA,NA,right,765.100000008941,true,NA,NA,NA,NA,NA
sDum8qz0,3mdwe879vkfdd3966pwqlqs2jwg9bh,35dr22ar5hx0yollles08uc04p4x30,sDum8qz0,2020-0188,2021-10-14,11:17:55,12:12:53,NA,incomplete,false,true,NA,6,30,NA,black,m_l_097.jpg,NA,NA,pleasant,unpleasant,NA,NA,NA,NA,NA,right,1049.90000000596,true,NA,NA,NA,NA,NA
sDum8qz0,3mdwe879vkfdd3966pwqlqs2jwg9bh,35dr22ar5hx0yollles08uc04p4x30,sDum8qz0,2020-0188,2021-10-14,11:17:55,12:12:53,NA,incomplete,false,true,NA,6,31,NA,black,n_s_037.jpg,NA,NA,pleasant,unpleasant,NA,NA,NA,NA,NA,right,510,true,NA,NA,NA,NA,NA
sDum8qz0,3mdwe879vkfdd3966pwqlqs2jwg9bh,35dr22ar5hx0yollles08uc04p4x30,sDum8qz0,2020-0188,2021-10-14,11:17:55,12:12:53,NA,incomplete,false,true,NA,6,32,NA,black,n_s_053.jpg,NA,NA,unpleasant,pleasant,NA,NA,NA,NA,NA,right,431.399999991059,true,NA,NA,NA,NA,NA
sDum8qz0,3mdwe879vkfdd3966pwqlqs2jwg9bh,35dr22ar5hx0yollles08uc04p4x30,sDum8qz0,2020-0188,2021-10-14,11:17:55,12:12:53,NA,incomplete,false,true,NA,6,33,NA,black,n_l_003.jpg,NA,NA,pleasant,unpleasant,NA,NA,NA,NA,NA,right,753.20000000298,true,NA,NA,NA,NA,NA
sDum8qz0,3mdwe879vkfdd3966pwqlqs2jwg9bh,35dr22ar5hx0yollles08uc04p4x30,sDum8qz0,2020-0188,2021-10-14,11:17:55,12:12:53,NA,incomplete,false,true,NA,6,34,NA,black,n_l_032.jpg,NA,NA,unpleasant,pleasant,NA,NA,NA,NA,NA,right,98.9000000059605,true,NA,NA,NA,NA,NA
sDum8qz0,3mdwe879vkfdd3966pwqlqs2jwg9bh,35dr22ar5hx0yollles08uc04p4x30,sDum8qz0,2020-0188,2021-10-14,11:17:55,12:12:53,NA,incomplete,false,true,NA,6,35,NA,black,m_s_117.jpg,NA,NA,unpleasant,pleasant,NA,NA,NA,NA,NA,right,394.29999999702,true,NA,NA,NA,NA,NA
sDum8qz0,3mdwe879vkfdd3966pwqlqs2jwg9bh,35dr22ar5hx0yollles08uc04p4x30,sDum8qz0,2020-0188,2021-10-14,11:17:55,12:12:53,NA,incomplete,false,NA,true,6,0,NA,NA,NA,left,absent,NA,NA,m_l_058.jpg,white,n_s_053.jpg,black,between,NA,NaN,NA,right,1179.7999999970198,0,0,1086.0999999940395
sDum8qz0,3mdwe879vkfdd3966pwqlqs2jwg9bh,35dr22ar5hx0yollles08uc04p4x30,sDum8qz0,2020-0188,2021-10-14,11:17:55,12:12:53,NA,incomplete,false,NA,true,6,1,NA,NA,NA,left,absent,NA,NA,n_s_031.jpg,white,m_l_111.jpg,white,within,NA,NaN,NA,right,935.1999999880791,0,1,1288.2000000029802
sDum8qz0,3mdwe879vkfdd3966pwqlqs2jwg9bh,35dr22ar5hx0yollles08uc04p4x30,sDum8qz0,2020-0188,2021-10-14,11:17:55,12:12:53,NA,incomplete,false,NA,true,6,2,NA,NA,NA,right,absent,NA,NA,n_s_078.jpg,blue,m_s_005.jpg,blue,within,NA,NaN,NA,right,1274.3999999910593,1,1,1117.2999999970198
sDum8qz0,3mdwe879vkfdd3966pwqlqs2jwg9bh,35dr22ar5hx0yollles08uc04p4x30,sDum8qz0,2020-0188,2021-10-14,11:17:55,12:12:53,NA,incomplete,false,NA,true,6,3,NA,NA,NA,right,absent,NA,NA,n_s_013.jpg,blue,n_l_046.jpg,gray,between,NA,NaN,NA,right,923.2000000029802,1,1,1317.7999999970198
sDum8qz0,3mdwe879vkfdd3966pwqlqs2jwg9bh,35dr22ar5hx0yollles08uc04p4x30,sDum8qz0,2020-0188,2021-10-14,11:17:55,12:12:53,NA,incomplete,false,NA,true,6,4,NA,NA,NA,left,absent,NA,NA,m_l_093.jpg,blue,n_l_050.jpg,orange,between,NA,NaN,NA,right,1051.8999999910593,0,3,846.1999999880791
sDum8qz0,3mdwe879vkfdd3966pwqlqs2jwg9bh,35dr22ar5hx0yollles08uc04p4x30,sDum8qz0,2020-0188,2021-10-14,11:17:55,12:12:53,NA,incomplete,false,NA,true,6,5,NA,NA,NA,right,absent,NA,NA,n_l_001.jpg,orange,n_l_116.jpg,orange,within,NA,NaN,NA,left,1106.4000000059605,0,2,862
sDum8qz0,3mdwe879vkfdd3966pwqlqs2jwg9bh,35dr22ar5hx0yollles08uc04p4x30,sDum8qz0,2020-0188,2021-10-14,11:17:55,12:12:53,NA,incomplete,false,NA,true,6,6,NA,NA,NA,right,absent,NA,NA,n_l_010.jpg,purple,m_s_070.jpg,purple,within,NA,NaN,NA,right,941.7999999970198,1,1,951.2000000029802
sDum8qz0,3mdwe879vkfdd3966pwqlqs2jwg9bh,35dr22ar5hx0yollles08uc04p4x30,sDum8qz0,2020-0188,2021-10-14,11:17:55,12:12:53,NA,incomplete,false,NA,true,6,7,NA,NA,NA,left,absent,NA,NA,n_s_030.jpg,purple,m_l_031.jpg,white,between,NA,NaN,NA,right,889.6000000089407,0,1,831.0999999940395
sDum8qz0,3mdwe879vkfdd3966pwqlqs2jwg9bh,35dr22ar5hx0yollles08uc04p4x30,sDum8qz0,2020-0188,2021-10-14,11:17:55,12:12:53,NA,incomplete,false,NA,true,6,8,NA,NA,NA,left,absent,NA,NA,m_l_012.jpg,gray,n_s_023.jpg,gray,within,NA,NaN,NA,right,862.7000000029802,0,1,1025.0999999940395
sDum8qz0,3mdwe879vkfdd3966pwqlqs2jwg9bh,35dr22ar5hx0yollles08uc04p4x30,sDum8qz0,2020-0188,2021-10-14,11:17:55,12:12:53,NA,incomplete,false,NA,true,6,9,NA,NA,NA,left,absent,NA,NA,n_s_086.jpg,orange,m_l_087.jpg,purple,between,NA,NaN,NA,right,814.4000000059605,0,2,1334.8999999910593
sDum8qz0,3mdwe879vkfdd3966pwqlqs2jwg9bh,35dr22ar5hx0yollles08uc04p4x30,sDum8qz0,2020-0188,2021-10-14,11:17:55,12:12:53,NA,incomplete,false,NA,true,6,10,NA,NA,NA,right,absent,NA,NA,m_s_117.jpg,black,n_s_037.jpg,black,within,NA,NaN,NA,right,886.7999999970198,1,1,1126.4000000059605
sDum8qz0,3mdwe879vkfdd3966pwqlqs2jwg9bh,35dr22ar5hx0yollles08uc04p4x30,sDum8qz0,2020-0188,2021-10-14,11:17:55,12:12:53,NA,incomplete,false,true,NA,7,0,NA,red,n_s_002.jpg,NA,NA,pleasant,unpleasant,NA,NA,NA,NA,NA,left,1554.29999999702,true,NA,NA,NA,NA,NA
sDum8qz0,3mdwe879vkfdd3966pwqlqs2jwg9bh,35dr22ar5hx0yollles08uc04p4x30,sDum8qz0,2020-0188,2021-10-14,11:17:55,12:12:53,NA,incomplete,false,true,NA,7,1,NA,red,n_s_062.jpg,NA,NA,unpleasant,pleasant,NA,NA,NA,NA,NA,left,959.90000000596,true,NA,NA,NA,NA,NA
sDum8qz0,3mdwe879vkfdd3966pwqlqs2jwg9bh,35dr22ar5hx0yollles08uc04p4x30,sDum8qz0,2020-0188,2021-10-14,11:17:55,12:12:53,NA,incomplete,false,true,NA,7,2,NA,red,n_s_090.jpg,NA,NA,pleasant,unpleasant,NA,NA,NA,NA,NA,left,832.40000000596,true,NA,NA,NA,NA,NA
sDum8qz0,3mdwe879vkfdd3966pwqlqs2jwg9bh,35dr22ar5hx0yollles08uc04p4x30,sDum8qz0,2020-0188,2021-10-14,11:17:55,12:12:53,NA,incomplete,false,true,NA,7,3,NA,red,m_s_029.jpg,NA,NA,unpleasant,pleasant,NA,NA,NA,NA,NA,left,375.70000000298,true,NA,NA,NA,NA,NA
sDum8qz0,3mdwe879vkfdd3966pwqlqs2jwg9bh,35dr22ar5hx0yollles08uc04p4x30,sDum8qz0,2020-0188,2021-10-14,11:17:55,12:12:53,NA,incomplete,false,true,NA,7,4,NA,red,m_s_019.jpg,NA,NA,pleasant,unpleasant,NA,NA,NA,NA,NA,left,500.20000000298,true,NA,NA,NA,NA,NA
sDum8qz0,3mdwe879vkfdd3966pwqlqs2jwg9bh,35dr22ar5hx0yollles08uc04p4x30,sDum8qz0,2020-0188,2021-10-14,11:17:55,12:12:53,NA,incomplete,false,true,NA,7,5,NA,red,n_s_055.jpg,NA,NA,pleasant,unpleasant,NA,NA,NA,NA,NA,left,421.20000000298,true,NA,NA,NA,NA,NA
sDum8qz0,3mdwe879vkfdd3966pwqlqs2jwg9bh,35dr22ar5hx0yollles08uc04p4x30,sDum8qz0,2020-0188,2021-10-14,11:17:55,12:12:53,NA,incomplete,false,true,NA,7,6,NA,orange,n_s_083.jpg,NA,NA,pleasant,unpleasant,NA,NA,NA,NA,NA,left,172.70000000298,true,NA,NA,NA,NA,NA
sDum8qz0,3mdwe879vkfdd3966pwqlqs2jwg9bh,35dr22ar5hx0yollles08uc04p4x30,sDum8qz0,2020-0188,2021-10-14,11:17:55,12:12:53,NA,incomplete,false,true,NA,7,7,NA,orange,n_s_065.jpg,NA,NA,unpleasant,pleasant,NA,NA,NA,NA,NA,left,854.20000000298,true,NA,NA,NA,NA,NA
sDum8qz0,3mdwe879vkfdd3966pwqlqs2jwg9bh,35dr22ar5hx0yollles08uc04p4x30,sDum8qz0,2020-0188,2021-10-14,11:17:55,12:12:53,NA,incomplete,false,true,NA,7,8,NA,orange,n_l_019.jpg,NA,NA,unpleasant,pleasant,NA,NA,NA,NA,NA,left,839,true,NA,NA,NA,NA,NA
sDum8qz0,3mdwe879vkfdd3966pwqlqs2jwg9bh,35dr22ar5hx0yollles08uc04p4x30,sDum8qz0,2020-0188,2021-10-14,11:17:55,12:12:53,NA,incomplete,false,true,NA,7,9,NA,orange,n_l_073.jpg,NA,NA,pleasant,unpleasant,NA,NA,NA,NA,NA,left,770.5,true,NA,NA,NA,NA,NA
sDum8qz0,3mdwe879vkfdd3966pwqlqs2jwg9bh,35dr22ar5hx0yollles08uc04p4x30,sDum8qz0,2020-0188,2021-10-14,11:17:55,12:12:53,NA,incomplete,false,true,NA,7,10,NA,orange,m_s_075.jpg,NA,NA,pleasant,unpleasant,NA,NA,NA,NA,NA,left,472,true,NA,NA,NA,NA,NA
sDum8qz0,3mdwe879vkfdd3966pwqlqs2jwg9bh,35dr22ar5hx0yollles08uc04p4x30,sDum8qz0,2020-0188,2021-10-14,11:17:55,12:12:53,NA,incomplete,false,true,NA,7,11,NA,orange,n_l_075.jpg,NA,NA,unpleasant,pleasant,NA,NA,NA,NA,NA,left,548.399999991059,true,NA,NA,NA,NA,NA
sDum8qz0,3mdwe879vkfdd3966pwqlqs2jwg9bh,35dr22ar5hx0yollles08uc04p4x30,sDum8qz0,2020-0188,2021-10-14,11:17:55,12:12:53,NA,incomplete,false,true,NA,7,12,NA,black,n_l_086.jpg,NA,NA,pleasant,unpleasant,NA,NA,NA,NA,NA,left,736.20000000298,true,NA,NA,NA,NA,NA
sDum8qz0,3mdwe879vkfdd3966pwqlqs2jwg9bh,35dr22ar5hx0yollles08uc04p4x30,sDum8qz0,2020-0188,2021-10-14,11:17:55,12:12:53,NA,incomplete,false,true,NA,7,13,NA,black,m_l_061.jpg,NA,NA,pleasant,unpleasant,NA,NA,NA,NA,NA,left,382,true,NA,NA,NA,NA,NA
sDum8qz0,3mdwe879vkfdd3966pwqlqs2jwg9bh,35dr22ar5hx0yollles08uc04p4x30,sDum8qz0,2020-0188,2021-10-14,11:17:55,12:12:53,NA,incomplete,false,true,NA,7,14,NA,black,m_l_067.jpg,NA,NA,pleasant,unpleasant,NA,NA,NA,NA,NA,left,333,true,NA,NA,NA,NA,NA
sDum8qz0,3mdwe879vkfdd3966pwqlqs2jwg9bh,35dr22ar5hx0yollles08uc04p4x30,sDum8qz0,2020-0188,2021-10-14,11:17:55,12:12:53,NA,incomplete,false,true,NA,7,15,NA,black,n_l_058.jpg,NA,NA,pleasant,unpleasant,NA,NA,NA,NA,NA,left,525.199999988079,true,NA,NA,NA,NA,NA
sDum8qz0,3mdwe879vkfdd3966pwqlqs2jwg9bh,35dr22ar5hx0yollles08uc04p4x30,sDum8qz0,2020-0188,2021-10-14,11:17:55,12:12:53,NA,incomplete,false,true,NA,7,16,NA,black,n_l_065.jpg,NA,NA,unpleasant,pleasant,NA,NA,NA,NA,NA,right,474.29999999702,true,NA,NA,NA,NA,NA
sDum8qz0,3mdwe879vkfdd3966pwqlqs2jwg9bh,35dr22ar5hx0yollles08uc04p4x30,sDum8qz0,2020-0188,2021-10-14,11:17:55,12:12:53,NA,incomplete,false,true,NA,7,17,NA,black,n_s_109.jpg,NA,NA,pleasant,unpleasant,NA,NA,NA,NA,NA,right,561.09999999404,true,NA,NA,NA,NA,NA
sDum8qz0,3mdwe879vkfdd3966pwqlqs2jwg9bh,35dr22ar5hx0yollles08uc04p4x30,sDum8qz0,2020-0188,2021-10-14,11:17:55,12:12:53,NA,incomplete,false,true,NA,7,18,NA,blue,m_s_031.jpg,NA,NA,pleasant,unpleasant,NA,NA,NA,NA,NA,right,413.79999999702,true,NA,NA,NA,NA,NA
sDum8qz0,3mdwe879vkfdd3966pwqlqs2jwg9bh,35dr22ar5hx0yollles08uc04p4x30,sDum8qz0,2020-0188,2021-10-14,11:17:55,12:12:53,NA,incomplete,false,true,NA,7,19,NA,blue,n_s_105.jpg,NA,NA,unpleasant,pleasant,NA,NA,NA,NA,NA,right,367.90000000596,true,NA,NA,NA,NA,NA
sDum8qz0,3mdwe879vkfdd3966pwqlqs2jwg9bh,35dr22ar5hx0yollles08uc04p4x30,sDum8qz0,2020-0188,2021-10-14,11:17:55,12:12:53,NA,incomplete,false,true,NA,7,20,NA,blue,n_l_085.jpg,NA,NA,pleasant,unpleasant,NA,NA,NA,NA,NA,right,408.300000011921,true,NA,NA,NA,NA,NA
sDum8qz0,3mdwe879vkfdd3966pwqlqs2jwg9bh,35dr22ar5hx0yollles08uc04p4x30,sDum8qz0,2020-0188,2021-10-14,11:17:55,12:12:53,NA,incomplete,false,true,NA,7,21,NA,blue,m_l_076.jpg,NA,NA,pleasant,unpleasant,NA,NA,NA,NA,NA,right,794.300000011921,true,NA,NA,NA,NA,NA
sDum8qz0,3mdwe879vkfdd3966pwqlqs2jwg9bh,35dr22ar5hx0yollles08uc04p4x30,sDum8qz0,2020-0188,2021-10-14,11:17:55,12:12:53,NA,incomplete,false,true,NA,7,22,NA,blue,n_l_044.jpg,NA,NA,pleasant,unpleasant,NA,NA,NA,NA,NA,right,286.300000011921,true,NA,NA,NA,NA,NA
sDum8qz0,3mdwe879vkfdd3966pwqlqs2jwg9bh,35dr22ar5hx0yollles08uc04p4x30,sDum8qz0,2020-0188,2021-10-14,11:17:55,12:12:53,NA,incomplete,false,true,NA,7,23,NA,blue,m_l_007.jpg,NA,NA,pleasant,unpleasant,NA,NA,NA,NA,NA,right,287.5,true,NA,NA,NA,NA,NA
sDum8qz0,3mdwe879vkfdd3966pwqlqs2jwg9bh,35dr22ar5hx0yollles08uc04p4x30,sDum8qz0,2020-0188,2021-10-14,11:17:55,12:12:53,NA,incomplete,false,true,NA,7,24,NA,brown,m_s_032.jpg,NA,NA,pleasant,unpleasant,NA,NA,NA,NA,NA,right,319.09999999404,true,NA,NA,NA,NA,NA
sDum8qz0,3mdwe879vkfdd3966pwqlqs2jwg9bh,35dr22ar5hx0yollles08uc04p4x30,sDum8qz0,2020-0188,2021-10-14,11:17:55,12:12:53,NA,incomplete,false,true,NA,7,25,NA,brown,n_s_050.jpg,NA,NA,pleasant,unpleasant,NA,NA,NA,NA,NA,right,398.29999999702,true,NA,NA,NA,NA,NA
sDum8qz0,3mdwe879vkfdd3966pwqlqs2jwg9bh,35dr22ar5hx0yollles08uc04p4x30,sDum8qz0,2020-0188,2021-10-14,11:17:55,12:12:53,NA,incomplete,false,true,NA,7,26,NA,brown,m_l_115.jpg,NA,NA,unpleasant,pleasant,NA,NA,NA,NA,NA,left,320.09999999404,true,NA,NA,NA,NA,NA
sDum8qz0,3mdwe879vkfdd3966pwqlqs2jwg9bh,35dr22ar5hx0yollles08uc04p4x30,sDum8qz0,2020-0188,2021-10-14,11:17:55,12:12:53,NA,incomplete,false,true,NA,7,27,NA,brown,m_s_033.jpg,NA,NA,unpleasant,pleasant,NA,NA,NA,NA,NA,left,337.79999999702,true,NA,NA,NA,NA,NA
sDum8qz0,3mdwe879vkfdd3966pwqlqs2jwg9bh,35dr22ar5hx0yollles08uc04p4x30,sDum8qz0,2020-0188,2021-10-14,11:17:55,12:12:53,NA,incomplete,false,true,NA,7,28,NA,brown,m_l_091.jpg,NA,NA,pleasant,unpleasant,NA,NA,NA,NA,NA,left,346.20000000298,true,NA,NA,NA,NA,NA
sDum8qz0,3mdwe879vkfdd3966pwqlqs2jwg9bh,35dr22ar5hx0yollles08uc04p4x30,sDum8qz0,2020-0188,2021-10-14,11:17:55,12:12:53,NA,incomplete,false,true,NA,7,29,NA,brown,n_l_097.jpg,NA,NA,unpleasant,pleasant,NA,NA,NA,NA,NA,left,386.79999999702,true,NA,NA,NA,NA,NA
sDum8qz0,3mdwe879vkfdd3966pwqlqs2jwg9bh,35dr22ar5hx0yollles08uc04p4x30,sDum8qz0,2020-0188,2021-10-14,11:17:55,12:12:53,NA,incomplete,false,true,NA,7,30,NA,gray,m_l_070.jpg,NA,NA,unpleasant,pleasant,NA,NA,NA,NA,NA,left,309.59999999404,true,NA,NA,NA,NA,NA
sDum8qz0,3mdwe879vkfdd3966pwqlqs2jwg9bh,35dr22ar5hx0yollles08uc04p4x30,sDum8qz0,2020-0188,2021-10-14,11:17:55,12:12:53,NA,incomplete,false,true,NA,7,31,NA,gray,m_l_080.jpg,NA,NA,pleasant,unpleasant,NA,NA,NA,NA,NA,left,438.70000000298,true,NA,NA,NA,NA,NA
sDum8qz0,3mdwe879vkfdd3966pwqlqs2jwg9bh,35dr22ar5hx0yollles08uc04p4x30,sDum8qz0,2020-0188,2021-10-14,11:17:55,12:12:53,NA,incomplete,false,true,NA,7,32,NA,gray,n_s_028.jpg,NA,NA,pleasant,unpleasant,NA,NA,NA,NA,NA,left,305.79999999702,true,NA,NA,NA,NA,NA
sDum8qz0,3mdwe879vkfdd3966pwqlqs2jwg9bh,35dr22ar5hx0yollles08uc04p4x30,sDum8qz0,2020-0188,2021-10-14,11:17:55,12:12:53,NA,incomplete,false,true,NA,7,33,NA,gray,m_s_010.jpg,NA,NA,unpleasant,pleasant,NA,NA,NA,NA,NA,left,312,true,NA,NA,NA,NA,NA
sDum8qz0,3mdwe879vkfdd3966pwqlqs2jwg9bh,35dr22ar5hx0yollles08uc04p4x30,sDum8qz0,2020-0188,2021-10-14,11:17:55,12:12:53,NA,incomplete,false,true,NA,7,34,NA,gray,m_l_036.jpg,NA,NA,unpleasant,pleasant,NA,NA,NA,NA,NA,left,323.79999999702,true,NA,NA,NA,NA,NA
sDum8qz0,3mdwe879vkfdd3966pwqlqs2jwg9bh,35dr22ar5hx0yollles08uc04p4x30,sDum8qz0,2020-0188,2021-10-14,11:17:55,12:12:53,NA,incomplete,false,true,NA,7,35,NA,gray,n_l_090.jpg,NA,NA,pleasant,unpleasant,NA,NA,NA,NA,NA,left,321.90000000596,true,NA,NA,NA,NA,NA
sDum8qz0,3mdwe879vkfdd3966pwqlqs2jwg9bh,35dr22ar5hx0yollles08uc04p4x30,sDum8qz0,2020-0188,2021-10-14,11:17:55,12:12:53,NA,incomplete,false,NA,true,7,0,NA,NA,NA,right,absent,NA,NA,n_l_075.jpg,orange,n_s_065.jpg,orange,within,NA,NaN,NA,left,1180.5999999940395,0,2,1356.6000000089407
sDum8qz0,3mdwe879vkfdd3966pwqlqs2jwg9bh,35dr22ar5hx0yollles08uc04p4x30,sDum8qz0,2020-0188,2021-10-14,11:17:55,12:12:53,NA,incomplete,false,NA,true,7,1,NA,NA,NA,left,absent,NA,NA,n_l_044.jpg,blue,m_l_115.jpg,brown,between,NA,NaN,NA,left,1037.2000000029802,1,3,829.9000000059605
sDum8qz0,3mdwe879vkfdd3966pwqlqs2jwg9bh,35dr22ar5hx0yollles08uc04p4x30,sDum8qz0,2020-0188,2021-10-14,11:17:55,12:12:53,NA,incomplete,false,NA,true,7,2,NA,NA,NA,right,absent,NA,NA,n_s_109.jpg,black,m_l_061.jpg,black,within,NA,NaN,NA,right,769.2999999970198,1,1,841.3000000119209
sDum8qz0,3mdwe879vkfdd3966pwqlqs2jwg9bh,35dr22ar5hx0yollles08uc04p4x30,sDum8qz0,2020-0188,2021-10-14,11:17:55,12:12:53,NA,incomplete,false,NA,true,7,3,NA,NA,NA,right,absent,NA,NA,n_s_055.jpg,red,n_s_062.jpg,red,within,NA,NaN,NA,right,848.6000000089407,1,1,741.5
sDum8qz0,3mdwe879vkfdd3966pwqlqs2jwg9bh,35dr22ar5hx0yollles08uc04p4x30,sDum8qz0,2020-0188,2021-10-14,11:17:55,12:12:53,NA,incomplete,false,NA,true,7,4,NA,NA,NA,right,absent,NA,NA,m_l_067.jpg,black,m_s_075.jpg,orange,between,NA,NaN,NA,right,1619.5999999940395,1,1,1064.3999999910593
sDum8qz0,3mdwe879vkfdd3966pwqlqs2jwg9bh,35dr22ar5hx0yollles08uc04p4x30,sDum8qz0,2020-0188,2021-10-14,11:17:55,12:12:53,NA,incomplete,false,NA,true,7,5,NA,NA,NA,right,absent,NA,NA,m_l_007.jpg,blue,n_s_105.jpg,blue,within,NA,NaN,NA,right,868.2999999970198,1,1,1076.7999999970198
sDum8qz0,3mdwe879vkfdd3966pwqlqs2jwg9bh,35dr22ar5hx0yollles08uc04p4x30,sDum8qz0,2020-0188,2021-10-14,11:17:55,12:12:53,NA,incomplete,false,NA,true,7,6,NA,NA,NA,left,absent,NA,NA,m_s_019.jpg,red,n_l_019.jpg,orange,between,NA,NaN,NA,right,813.7999999970198,0,1,1035.2999999970198
sDum8qz0,3mdwe879vkfdd3966pwqlqs2jwg9bh,35dr22ar5hx0yollles08uc04p4x30,sDum8qz0,2020-0188,2021-10-14,11:17:55,12:12:53,NA,incomplete,false,NA,true,7,7,NA,NA,NA,left,absent,NA,NA,m_l_080.jpg,gray,n_l_090.jpg,gray,within,NA,NaN,NA,right,935,0,1,855.2999999970198
sDum8qz0,3mdwe879vkfdd3966pwqlqs2jwg9bh,35dr22ar5hx0yollles08uc04p4x30,sDum8qz0,2020-0188,2021-10-14,11:17:55,12:12:53,NA,incomplete,false,NA,true,7,8,NA,NA,NA,left,absent,NA,NA,n_l_065.jpg,black,n_l_085.jpg,blue,between,NA,NaN,NA,right,830.5,0,1,886.7000000029802
sDum8qz0,3mdwe879vkfdd3966pwqlqs2jwg9bh,35dr22ar5hx0yollles08uc04p4x30,sDum8qz0,2020-0188,2021-10-14,11:17:55,12:12:53,NA,incomplete,false,NA,true,7,9,NA,NA,NA,left,absent,NA,NA,m_l_091.jpg,brown,n_s_028.jpg,gray,between,NA,NaN,NA,right,883.2000000029802,0,0,949.7999999970198
sDum8qz0,3mdwe879vkfdd3966pwqlqs2jwg9bh,35dr22ar5hx0yollles08uc04p4x30,sDum8qz0,2020-0188,2021-10-14,11:17:55,12:12:53,NA,incomplete,false,NA,true,7,10,NA,NA,NA,right,absent,NA,NA,n_l_097.jpg,brown,n_s_050.jpg,brown,within,NA,NaN,NA,right,1225,1,3,903.5
sDum8qz0,3mdwe879vkfdd3966pwqlqs2jwg9bh,35dr22ar5hx0yollles08uc04p4x30,sDum8qz0,2020-0188,2021-10-14,11:17:55,12:12:53,NA,incomplete,false,true,NA,8,0,NA,black,n_l_054.jpg,NA,NA,pleasant,unpleasant,NA,NA,NA,NA,NA,right,702.29999999702,true,NA,NA,NA,NA,NA
sDum8qz0,3mdwe879vkfdd3966pwqlqs2jwg9bh,35dr22ar5hx0yollles08uc04p4x30,sDum8qz0,2020-0188,2021-10-14,11:17:55,12:12:53,NA,incomplete,false,true,NA,8,1,NA,black,m_l_064.jpg,NA,NA,pleasant,unpleasant,NA,NA,NA,NA,NA,right,300.40000000596,true,NA,NA,NA,NA,NA
sDum8qz0,3mdwe879vkfdd3966pwqlqs2jwg9bh,35dr22ar5hx0yollles08uc04p4x30,sDum8qz0,2020-0188,2021-10-14,11:17:55,12:12:53,NA,incomplete,false,true,NA,8,2,NA,black,m_l_048.jpg,NA,NA,unpleasant,pleasant,NA,NA,NA,NA,NA,right,285.800000011921,true,NA,NA,NA,NA,NA
sDum8qz0,3mdwe879vkfdd3966pwqlqs2jwg9bh,35dr22ar5hx0yollles08uc04p4x30,sDum8qz0,2020-0188,2021-10-14,11:17:55,12:12:53,NA,incomplete,false,true,NA,8,3,NA,black,m_l_006.jpg,NA,NA,pleasant,unpleasant,NA,NA,NA,NA,NA,right,338.20000000298,true,NA,NA,NA,NA,NA
sDum8qz0,3mdwe879vkfdd3966pwqlqs2jwg9bh,35dr22ar5hx0yollles08uc04p4x30,sDum8qz0,2020-0188,2021-10-14,11:17:55,12:12:53,NA,incomplete,false,true,NA,8,4,NA,black,n_s_070.jpg,NA,NA,pleasant,unpleasant,NA,NA,NA,NA,NA,right,255.70000000298,true,NA,NA,NA,NA,NA
sDum8qz0,3mdwe879vkfdd3966pwqlqs2jwg9bh,35dr22ar5hx0yollles08uc04p4x30,sDum8qz0,2020-0188,2021-10-14,11:17:55,12:12:53,NA,incomplete,false,true,NA,8,5,NA,black,m_l_102.jpg,NA,NA,unpleasant,pleasant,NA,NA,NA,NA,NA,right,270.79999999702,true,NA,NA,NA,NA,NA
sDum8qz0,3mdwe879vkfdd3966pwqlqs2jwg9bh,35dr22ar5hx0yollles08uc04p4x30,sDum8qz0,2020-0188,2021-10-14,11:17:55,12:12:53,NA,incomplete,false,true,NA,8,6,NA,orange,n_l_023.jpg,NA,NA,unpleasant,pleasant,NA,NA,NA,NA,NA,right,240.899999991059,true,NA,NA,NA,NA,NA
sDum8qz0,3mdwe879vkfdd3966pwqlqs2jwg9bh,35dr22ar5hx0yollles08uc04p4x30,sDum8qz0,2020-0188,2021-10-14,11:17:55,12:12:53,NA,incomplete,false,true,NA,8,7,NA,orange,n_l_012.jpg,NA,NA,unpleasant,pleasant,NA,NA,NA,NA,NA,right,387.399999991059,true,NA,NA,NA,NA,NA
sDum8qz0,3mdwe879vkfdd3966pwqlqs2jwg9bh,35dr22ar5hx0yollles08uc04p4x30,sDum8qz0,2020-0188,2021-10-14,11:17:55,12:12:53,NA,incomplete,false,true,NA,8,8,NA,orange,m_l_011.jpg,NA,NA,unpleasant,pleasant,NA,NA,NA,NA,NA,right,288.399999991059,true,NA,NA,NA,NA,NA
sDum8qz0,3mdwe879vkfdd3966pwqlqs2jwg9bh,35dr22ar5hx0yollles08uc04p4x30,sDum8qz0,2020-0188,2021-10-14,11:17:55,12:12:53,NA,incomplete,false,true,NA,8,9,NA,orange,m_s_009.jpg,NA,NA,unpleasant,pleasant,NA,NA,NA,NA,NA,right,328.899999991059,true,NA,NA,NA,NA,NA
