workerId,hitId,assignmentId,subject,studyid,exp_date,exp_start,exp_end,time_start,time_end,practice,encoding,memory,block,trial,event_order,event,stim,answer,context_type,label_left,label_right,left_image,left_event,right_image,right_event,condition,response,response_time,response_acc,order_response,order_response_time,order_acc,distance_response,distance_response_time
SifsFiwc,3vck0q0pp8rxiiaq9ji6jar3xntn0d,3u8ycdagxttk8zlcgdfpcoi04mkq0c,SifsFiwc,2020-0188,2021-10-17,12:58:40,14:06:22,NA,incomplete,true,true,NA,0,0,NA,purple,m_s_101.jpg,NA,NA,pleasant,unpleasant,NA,NA,NA,NA,NA,none,0,false,NA,NA,NA,NA,NA
SifsFiwc,3vck0q0pp8rxiiaq9ji6jar3xntn0d,3u8ycdagxttk8zlcgdfpcoi04mkq0c,SifsFiwc,2020-0188,2021-10-17,12:58:40,14:06:22,NA,incomplete,true,true,NA,0,1,NA,purple,n_l_087.jpg,NA,NA,pleasant,unpleasant,NA,NA,NA,NA,NA,left,300.800000000745,true,NA,NA,NA,NA,NA
SifsFiwc,3vck0q0pp8rxiiaq9ji6jar3xntn0d,3u8ycdagxttk8zlcgdfpcoi04mkq0c,SifsFiwc,2020-0188,2021-10-17,12:58:40,14:06:22,NA,incomplete,true,true,NA,0,2,NA,purple,n_s_104.jpg,NA,NA,unpleasant,pleasant,NA,NA,NA,NA,NA,left,1867.70000000298,true,NA,NA,NA,NA,NA
SifsFiwc,3vck0q0pp8rxiiaq9ji6jar3xntn0d,3u8ycdagxttk8zlcgdfpcoi04mkq0c,SifsFiwc,2020-0188,2021-10-17,12:58:40,14:06:22,NA,incomplete,true,true,NA,0,3,NA,purple,n_s_103.jpg,NA,NA,pleasant,unpleasant,NA,NA,NA,NA,NA,left,2363.30000000075,true,NA,NA,NA,NA,NA
SifsFiwc,3vck0q0pp8rxiiaq9ji6jar3xntn0d,3u8ycdagxttk8zlcgdfpcoi04mkq0c,SifsFiwc,2020-0188,2021-10-17,12:58:40,14:06:22,NA,incomplete,true,true,NA,0,4,NA,purple,n_l_062.jpg,NA,NA,unpleasant,pleasant,NA,NA,NA,NA,NA,right,2169.79999999702,true,NA,NA,NA,NA,NA
SifsFiwc,3vck0q0pp8rxiiaq9ji6jar3xntn0d,3u8ycdagxttk8zlcgdfpcoi04mkq0c,SifsFiwc,2020-0188,2021-10-17,12:58:40,14:06:22,NA,incomplete,true,true,NA,0,5,NA,purple,n_l_095.jpg,NA,NA,unpleasant,pleasant,NA,NA,NA,NA,NA,right,1585.80000000075,true,NA,NA,NA,NA,NA
SifsFiwc,3vck0q0pp8rxiiaq9ji6jar3xntn0d,3u8ycdagxttk8zlcgdfpcoi04mkq0c,SifsFiwc,2020-0188,2021-10-17,12:58:40,14:06:22,NA,incomplete,true,true,NA,0,6,NA,yellow,n_l_096.jpg,NA,NA,pleasant,unpleasant,NA,NA,NA,NA,NA,left,1768.80000000075,true,NA,NA,NA,NA,NA
SifsFiwc,3vck0q0pp8rxiiaq9ji6jar3xntn0d,3u8ycdagxttk8zlcgdfpcoi04mkq0c,SifsFiwc,2020-0188,2021-10-17,12:58:40,14:06:22,NA,incomplete,true,true,NA,0,7,NA,yellow,n_l_044.jpg,NA,NA,pleasant,unpleasant,NA,NA,NA,NA,NA,left,1983.80000000075,true,NA,NA,NA,NA,NA
SifsFiwc,3vck0q0pp8rxiiaq9ji6jar3xntn0d,3u8ycdagxttk8zlcgdfpcoi04mkq0c,SifsFiwc,2020-0188,2021-10-17,12:58:40,14:06:22,NA,incomplete,true,true,NA,0,8,NA,yellow,m_l_040.jpg,NA,NA,unpleasant,pleasant,NA,NA,NA,NA,NA,left,1872.39999999851,true,NA,NA,NA,NA,NA
SifsFiwc,3vck0q0pp8rxiiaq9ji6jar3xntn0d,3u8ycdagxttk8zlcgdfpcoi04mkq0c,SifsFiwc,2020-0188,2021-10-17,12:58:40,14:06:22,NA,incomplete,true,true,NA,0,9,NA,yellow,m_s_050.jpg,NA,NA,pleasant,unpleasant,NA,NA,NA,NA,NA,right,1660.80000000075,true,NA,NA,NA,NA,NA
SifsFiwc,3vck0q0pp8rxiiaq9ji6jar3xntn0d,3u8ycdagxttk8zlcgdfpcoi04mkq0c,SifsFiwc,2020-0188,2021-10-17,12:58:40,14:06:22,NA,incomplete,true,true,NA,0,10,NA,yellow,n_s_040.jpg,NA,NA,unpleasant,pleasant,NA,NA,NA,NA,NA,left,1620.80000000075,true,NA,NA,NA,NA,NA
SifsFiwc,3vck0q0pp8rxiiaq9ji6jar3xntn0d,3u8ycdagxttk8zlcgdfpcoi04mkq0c,SifsFiwc,2020-0188,2021-10-17,12:58:40,14:06:22,NA,incomplete,true,true,NA,0,11,NA,yellow,n_l_091.jpg,NA,NA,pleasant,unpleasant,NA,NA,NA,NA,NA,left,1342,true,NA,NA,NA,NA,NA
SifsFiwc,3vck0q0pp8rxiiaq9ji6jar3xntn0d,3u8ycdagxttk8zlcgdfpcoi04mkq0c,SifsFiwc,2020-0188,2021-10-17,12:58:40,14:06:22,NA,incomplete,true,true,NA,0,12,NA,white,n_l_101.jpg,NA,NA,pleasant,unpleasant,NA,NA,NA,NA,NA,right,1469.30000000075,true,NA,NA,NA,NA,NA
SifsFiwc,3vck0q0pp8rxiiaq9ji6jar3xntn0d,3u8ycdagxttk8zlcgdfpcoi04mkq0c,SifsFiwc,2020-0188,2021-10-17,12:58:40,14:06:22,NA,incomplete,true,true,NA,0,13,NA,white,m_l_099.jpg,NA,NA,unpleasant,pleasant,NA,NA,NA,NA,NA,right,1676.70000000298,true,NA,NA,NA,NA,NA
SifsFiwc,3vck0q0pp8rxiiaq9ji6jar3xntn0d,3u8ycdagxttk8zlcgdfpcoi04mkq0c,SifsFiwc,2020-0188,2021-10-17,12:58:40,14:06:22,NA,incomplete,true,true,NA,0,14,NA,white,m_l_094.jpg,NA,NA,pleasant,unpleasant,NA,NA,NA,NA,NA,right,1420.29999999702,true,NA,NA,NA,NA,NA
SifsFiwc,3vck0q0pp8rxiiaq9ji6jar3xntn0d,3u8ycdagxttk8zlcgdfpcoi04mkq0c,SifsFiwc,2020-0188,2021-10-17,12:58:40,14:06:22,NA,incomplete,true,true,NA,0,15,NA,white,n_s_089.jpg,NA,NA,unpleasant,pleasant,NA,NA,NA,NA,NA,left,1427.29999999702,true,NA,NA,NA,NA,NA
SifsFiwc,3vck0q0pp8rxiiaq9ji6jar3xntn0d,3u8ycdagxttk8zlcgdfpcoi04mkq0c,SifsFiwc,2020-0188,2021-10-17,12:58:40,14:06:22,NA,incomplete,true,true,NA,0,16,NA,white,n_l_089.jpg,NA,NA,pleasant,unpleasant,NA,NA,NA,NA,NA,left,1411,true,NA,NA,NA,NA,NA
SifsFiwc,3vck0q0pp8rxiiaq9ji6jar3xntn0d,3u8ycdagxttk8zlcgdfpcoi04mkq0c,SifsFiwc,2020-0188,2021-10-17,12:58:40,14:06:22,NA,incomplete,true,true,NA,0,17,NA,white,m_l_035.jpg,NA,NA,pleasant,unpleasant,NA,NA,NA,NA,NA,left,2082.5,true,NA,NA,NA,NA,NA
SifsFiwc,3vck0q0pp8rxiiaq9ji6jar3xntn0d,3u8ycdagxttk8zlcgdfpcoi04mkq0c,SifsFiwc,2020-0188,2021-10-17,12:58:40,14:06:22,NA,incomplete,true,true,NA,0,18,NA,red,n_l_090.jpg,NA,NA,pleasant,unpleasant,NA,NA,NA,NA,NA,left,2090.5,true,NA,NA,NA,NA,NA
SifsFiwc,3vck0q0pp8rxiiaq9ji6jar3xntn0d,3u8ycdagxttk8zlcgdfpcoi04mkq0c,SifsFiwc,2020-0188,2021-10-17,12:58:40,14:06:22,NA,incomplete,true,true,NA,0,19,NA,red,n_s_108.jpg,NA,NA,pleasant,unpleasant,NA,NA,NA,NA,NA,right,1352.89999999851,true,NA,NA,NA,NA,NA
SifsFiwc,3vck0q0pp8rxiiaq9ji6jar3xntn0d,3u8ycdagxttk8zlcgdfpcoi04mkq0c,SifsFiwc,2020-0188,2021-10-17,12:58:40,14:06:22,NA,incomplete,true,true,NA,0,20,NA,red,m_s_054.jpg,NA,NA,unpleasant,pleasant,NA,NA,NA,NA,NA,left,1529.5,true,NA,NA,NA,NA,NA
SifsFiwc,3vck0q0pp8rxiiaq9ji6jar3xntn0d,3u8ycdagxttk8zlcgdfpcoi04mkq0c,SifsFiwc,2020-0188,2021-10-17,12:58:40,14:06:22,NA,incomplete,true,true,NA,0,21,NA,red,n_l_077.jpg,NA,NA,pleasant,unpleasant,NA,NA,NA,NA,NA,right,2092.69999999925,true,NA,NA,NA,NA,NA
SifsFiwc,3vck0q0pp8rxiiaq9ji6jar3xntn0d,3u8ycdagxttk8zlcgdfpcoi04mkq0c,SifsFiwc,2020-0188,2021-10-17,12:58:40,14:06:22,NA,incomplete,true,true,NA,0,22,NA,red,m_l_036.jpg,NA,NA,unpleasant,pleasant,NA,NA,NA,NA,NA,left,1424,true,NA,NA,NA,NA,NA
SifsFiwc,3vck0q0pp8rxiiaq9ji6jar3xntn0d,3u8ycdagxttk8zlcgdfpcoi04mkq0c,SifsFiwc,2020-0188,2021-10-17,12:58:40,14:06:22,NA,incomplete,true,true,NA,0,23,NA,red,m_s_078.jpg,NA,NA,unpleasant,pleasant,NA,NA,NA,NA,NA,right,2486.5,true,NA,NA,NA,NA,NA
SifsFiwc,3vck0q0pp8rxiiaq9ji6jar3xntn0d,3u8ycdagxttk8zlcgdfpcoi04mkq0c,SifsFiwc,2020-0188,2021-10-17,12:58:40,14:06:22,NA,incomplete,true,true,NA,0,24,NA,green,n_s_063.jpg,NA,NA,unpleasant,pleasant,NA,NA,NA,NA,NA,left,2341.69999999925,true,NA,NA,NA,NA,NA
SifsFiwc,3vck0q0pp8rxiiaq9ji6jar3xntn0d,3u8ycdagxttk8zlcgdfpcoi04mkq0c,SifsFiwc,2020-0188,2021-10-17,12:58:40,14:06:22,NA,incomplete,true,true,NA,0,25,NA,green,m_s_077.jpg,NA,NA,unpleasant,pleasant,NA,NA,NA,NA,NA,left,2677.80000000075,true,NA,NA,NA,NA,NA
SifsFiwc,3vck0q0pp8rxiiaq9ji6jar3xntn0d,3u8ycdagxttk8zlcgdfpcoi04mkq0c,SifsFiwc,2020-0188,2021-10-17,12:58:40,14:06:22,NA,incomplete,true,true,NA,0,26,NA,green,n_s_110.jpg,NA,NA,pleasant,unpleasant,NA,NA,NA,NA,NA,right,2197.09999999776,true,NA,NA,NA,NA,NA
SifsFiwc,3vck0q0pp8rxiiaq9ji6jar3xntn0d,3u8ycdagxttk8zlcgdfpcoi04mkq0c,SifsFiwc,2020-0188,2021-10-17,12:58:40,14:06:22,NA,incomplete,true,true,NA,0,27,NA,green,m_l_103.jpg,NA,NA,pleasant,unpleasant,NA,NA,NA,NA,NA,left,2196.40000000224,true,NA,NA,NA,NA,NA
SifsFiwc,3vck0q0pp8rxiiaq9ji6jar3xntn0d,3u8ycdagxttk8zlcgdfpcoi04mkq0c,SifsFiwc,2020-0188,2021-10-17,12:58:40,14:06:22,NA,incomplete,true,true,NA,0,28,NA,green,n_l_070.jpg,NA,NA,pleasant,unpleasant,NA,NA,NA,NA,NA,left,1948.19999999925,true,NA,NA,NA,NA,NA
SifsFiwc,3vck0q0pp8rxiiaq9ji6jar3xntn0d,3u8ycdagxttk8zlcgdfpcoi04mkq0c,SifsFiwc,2020-0188,2021-10-17,12:58:40,14:06:22,NA,incomplete,true,true,NA,0,29,NA,green,m_l_012.jpg,NA,NA,pleasant,unpleasant,NA,NA,NA,NA,NA,right,1308.30000000075,true,NA,NA,NA,NA,NA
SifsFiwc,3vck0q0pp8rxiiaq9ji6jar3xntn0d,3u8ycdagxttk8zlcgdfpcoi04mkq0c,SifsFiwc,2020-0188,2021-10-17,12:58:40,14:06:22,NA,incomplete,true,true,NA,0,30,NA,brown,m_l_044.jpg,NA,NA,pleasant,unpleasant,NA,NA,NA,NA,NA,left,1667.5,true,NA,NA,NA,NA,NA
SifsFiwc,3vck0q0pp8rxiiaq9ji6jar3xntn0d,3u8ycdagxttk8zlcgdfpcoi04mkq0c,SifsFiwc,2020-0188,2021-10-17,12:58:40,14:06:22,NA,incomplete,true,true,NA,0,31,NA,brown,n_s_007.jpg,NA,NA,unpleasant,pleasant,NA,NA,NA,NA,NA,left,1379,true,NA,NA,NA,NA,NA
SifsFiwc,3vck0q0pp8rxiiaq9ji6jar3xntn0d,3u8ycdagxttk8zlcgdfpcoi04mkq0c,SifsFiwc,2020-0188,2021-10-17,12:58:40,14:06:22,NA,incomplete,true,true,NA,0,32,NA,brown,m_l_082.jpg,NA,NA,pleasant,unpleasant,NA,NA,NA,NA,NA,right,1307.59999999776,true,NA,NA,NA,NA,NA
SifsFiwc,3vck0q0pp8rxiiaq9ji6jar3xntn0d,3u8ycdagxttk8zlcgdfpcoi04mkq0c,SifsFiwc,2020-0188,2021-10-17,12:58:40,14:06:22,NA,incomplete,true,true,NA,0,33,NA,brown,m_l_001.jpg,NA,NA,pleasant,unpleasant,NA,NA,NA,NA,NA,right,1754.20000000298,true,NA,NA,NA,NA,NA
SifsFiwc,3vck0q0pp8rxiiaq9ji6jar3xntn0d,3u8ycdagxttk8zlcgdfpcoi04mkq0c,SifsFiwc,2020-0188,2021-10-17,12:58:40,14:06:22,NA,incomplete,true,true,NA,0,34,NA,brown,n_s_009.jpg,NA,NA,unpleasant,pleasant,NA,NA,NA,NA,NA,right,1505.19999999925,true,NA,NA,NA,NA,NA
SifsFiwc,3vck0q0pp8rxiiaq9ji6jar3xntn0d,3u8ycdagxttk8zlcgdfpcoi04mkq0c,SifsFiwc,2020-0188,2021-10-17,12:58:40,14:06:22,NA,incomplete,true,true,NA,0,35,NA,brown,n_s_054.jpg,NA,NA,unpleasant,pleasant,NA,NA,NA,NA,NA,left,1896.30000000075,true,NA,NA,NA,NA,NA
SifsFiwc,3vck0q0pp8rxiiaq9ji6jar3xntn0d,3u8ycdagxttk8zlcgdfpcoi04mkq0c,SifsFiwc,2020-0188,2021-10-17,12:58:40,14:06:22,NA,incomplete,true,NA,true,0,0,NA,NA,NA,right,present,NA,NA,m_l_040.jpg,yellow,n_l_062.jpg,purple,between,NA,NaN,NA,right,4926.70000000298,1,2,4590.099999997765
SifsFiwc,3vck0q0pp8rxiiaq9ji6jar3xntn0d,3u8ycdagxttk8zlcgdfpcoi04mkq0c,SifsFiwc,2020-0188,2021-10-17,12:58:40,14:06:22,NA,incomplete,true,NA,true,0,1,NA,NA,NA,right,absent,NA,NA,m_l_082.jpg,brown,n_l_070.jpg,green,between,NA,NaN,NA,left,4389,0,2,2030.6000000014901
SifsFiwc,3vck0q0pp8rxiiaq9ji6jar3xntn0d,3u8ycdagxttk8zlcgdfpcoi04mkq0c,SifsFiwc,2020-0188,2021-10-17,12:58:40,14:06:22,NA,incomplete,true,NA,true,0,2,NA,NA,NA,right,present,NA,NA,m_l_012.jpg,green,m_s_077.jpg,green,within,NA,NaN,NA,left,2150.699999999255,0,1,3510
SifsFiwc,3vck0q0pp8rxiiaq9ji6jar3xntn0d,3u8ycdagxttk8zlcgdfpcoi04mkq0c,SifsFiwc,2020-0188,2021-10-17,12:58:40,14:06:22,NA,incomplete,true,NA,true,0,3,NA,NA,NA,right,present,NA,NA,m_s_054.jpg,red,n_l_089.jpg,white,between,NA,NaN,NA,right,2590.199999999255,1,1,1206.199999999255
SifsFiwc,3vck0q0pp8rxiiaq9ji6jar3xntn0d,3u8ycdagxttk8zlcgdfpcoi04mkq0c,SifsFiwc,2020-0188,2021-10-17,12:58:40,14:06:22,NA,incomplete,true,NA,true,0,4,NA,NA,NA,right,present,NA,NA,m_l_035.jpg,white,m_l_099.jpg,white,within,NA,NaN,NA,left,2837.800000000745,0,1,1310.699999999255
SifsFiwc,3vck0q0pp8rxiiaq9ji6jar3xntn0d,3u8ycdagxttk8zlcgdfpcoi04mkq0c,SifsFiwc,2020-0188,2021-10-17,12:58:40,14:06:22,NA,incomplete,true,NA,true,0,5,NA,NA,NA,right,absent,NA,NA,m_s_078.jpg,red,n_s_108.jpg,red,within,NA,NaN,NA,right,4333.60000000149,1,2,1974.199999999255
SifsFiwc,3vck0q0pp8rxiiaq9ji6jar3xntn0d,3u8ycdagxttk8zlcgdfpcoi04mkq0c,SifsFiwc,2020-0188,2021-10-17,12:58:40,14:06:22,NA,incomplete,true,NA,true,0,6,NA,NA,NA,right,absent,NA,NA,n_l_095.jpg,purple,n_l_087.jpg,purple,within,NA,NaN,NA,right,3652.39999999851,1,3,1215.2000000029802
SifsFiwc,3vck0q0pp8rxiiaq9ji6jar3xntn0d,3u8ycdagxttk8zlcgdfpcoi04mkq0c,SifsFiwc,2020-0188,2021-10-17,12:58:40,14:06:22,NA,incomplete,true,NA,true,0,7,NA,NA,NA,right,present,NA,NA,n_s_110.jpg,green,m_l_036.jpg,red,between,NA,NaN,NA,right,2293.800000000745,1,3,1206.0999999977648
SifsFiwc,3vck0q0pp8rxiiaq9ji6jar3xntn0d,3u8ycdagxttk8zlcgdfpcoi04mkq0c,SifsFiwc,2020-0188,2021-10-17,12:58:40,14:06:22,NA,incomplete,true,NA,true,0,8,NA,NA,NA,right,absent,NA,NA,n_l_091.jpg,yellow,n_l_044.jpg,yellow,within,NA,NaN,NA,left,4990.300000000745,0,1,1862.0999999977648
SifsFiwc,3vck0q0pp8rxiiaq9ji6jar3xntn0d,3u8ycdagxttk8zlcgdfpcoi04mkq0c,SifsFiwc,2020-0188,2021-10-17,12:58:40,14:06:22,NA,incomplete,true,NA,true,0,9,NA,NA,NA,left,present,NA,NA,n_s_040.jpg,yellow,m_l_094.jpg,white,between,NA,NaN,NA,right,1933.8999999985099,0,3,1325.800000000745
SifsFiwc,3vck0q0pp8rxiiaq9ji6jar3xntn0d,3u8ycdagxttk8zlcgdfpcoi04mkq0c,SifsFiwc,2020-0188,2021-10-17,12:58:40,14:06:22,NA,incomplete,true,NA,true,0,10,NA,NA,NA,right,absent,NA,NA,n_s_054.jpg,brown,n_s_007.jpg,brown,within,NA,NaN,NA,right,2413.10000000149,1,3,1487.4000000022352
SifsFiwc,3vck0q0pp8rxiiaq9ji6jar3xntn0d,3u8ycdagxttk8zlcgdfpcoi04mkq0c,SifsFiwc,2020-0188,2021-10-17,12:58:40,14:06:22,NA,incomplete,false,true,NA,1,0,NA,gray,n_s_042.jpg,NA,NA,pleasant,unpleasant,NA,NA,NA,NA,NA,right,2284.39999999851,true,NA,NA,NA,NA,NA
SifsFiwc,3vck0q0pp8rxiiaq9ji6jar3xntn0d,3u8ycdagxttk8zlcgdfpcoi04mkq0c,SifsFiwc,2020-0188,2021-10-17,12:58:40,14:06:22,NA,incomplete,false,true,NA,1,1,NA,gray,m_l_077.jpg,NA,NA,pleasant,unpleasant,NA,NA,NA,NA,NA,left,1667.30000000075,true,NA,NA,NA,NA,NA
SifsFiwc,3vck0q0pp8rxiiaq9ji6jar3xntn0d,3u8ycdagxttk8zlcgdfpcoi04mkq0c,SifsFiwc,2020-0188,2021-10-17,12:58:40,14:06:22,NA,incomplete,false,true,NA,1,2,NA,gray,m_l_061.jpg,NA,NA,pleasant,unpleasant,NA,NA,NA,NA,NA,left,2002.80000000075,true,NA,NA,NA,NA,NA
SifsFiwc,3vck0q0pp8rxiiaq9ji6jar3xntn0d,3u8ycdagxttk8zlcgdfpcoi04mkq0c,SifsFiwc,2020-0188,2021-10-17,12:58:40,14:06:22,NA,incomplete,false,true,NA,1,3,NA,gray,n_l_063.jpg,NA,NA,unpleasant,pleasant,NA,NA,NA,NA,NA,right,1698.80000000075,true,NA,NA,NA,NA,NA
SifsFiwc,3vck0q0pp8rxiiaq9ji6jar3xntn0d,3u8ycdagxttk8zlcgdfpcoi04mkq0c,SifsFiwc,2020-0188,2021-10-17,12:58:40,14:06:22,NA,incomplete,false,true,NA,1,4,NA,gray,n_s_100.jpg,NA,NA,pleasant,unpleasant,NA,NA,NA,NA,NA,left,1434,true,NA,NA,NA,NA,NA
SifsFiwc,3vck0q0pp8rxiiaq9ji6jar3xntn0d,3u8ycdagxttk8zlcgdfpcoi04mkq0c,SifsFiwc,2020-0188,2021-10-17,12:58:40,14:06:22,NA,incomplete,false,true,NA,1,5,NA,gray,m_l_060.jpg,NA,NA,pleasant,unpleasant,NA,NA,NA,NA,NA,left,1449.5,true,NA,NA,NA,NA,NA
SifsFiwc,3vck0q0pp8rxiiaq9ji6jar3xntn0d,3u8ycdagxttk8zlcgdfpcoi04mkq0c,SifsFiwc,2020-0188,2021-10-17,12:58:40,14:06:22,NA,incomplete,false,true,NA,1,6,NA,purple,n_s_117.jpg,NA,NA,pleasant,unpleasant,NA,NA,NA,NA,NA,right,2210,true,NA,NA,NA,NA,NA
SifsFiwc,3vck0q0pp8rxiiaq9ji6jar3xntn0d,3u8ycdagxttk8zlcgdfpcoi04mkq0c,SifsFiwc,2020-0188,2021-10-17,12:58:40,14:06:22,NA,incomplete,false,true,NA,1,7,NA,purple,m_s_084.jpg,NA,NA,unpleasant,pleasant,NA,NA,NA,NA,NA,right,1816.69999999925,true,NA,NA,NA,NA,NA
SifsFiwc,3vck0q0pp8rxiiaq9ji6jar3xntn0d,3u8ycdagxttk8zlcgdfpcoi04mkq0c,SifsFiwc,2020-0188,2021-10-17,12:58:40,14:06:22,NA,incomplete,false,true,NA,1,8,NA,purple,m_s_051.jpg,NA,NA,pleasant,unpleasant,NA,NA,NA,NA,NA,right,1800.59999999776,true,NA,NA,NA,NA,NA
SifsFiwc,3vck0q0pp8rxiiaq9ji6jar3xntn0d,3u8ycdagxttk8zlcgdfpcoi04mkq0c,SifsFiwc,2020-0188,2021-10-17,12:58:40,14:06:22,NA,incomplete,false,true,NA,1,9,NA,purple,m_s_112.jpg,NA,NA,pleasant,unpleasant,NA,NA,NA,NA,NA,left,1352.70000000298,true,NA,NA,NA,NA,NA
SifsFiwc,3vck0q0pp8rxiiaq9ji6jar3xntn0d,3u8ycdagxttk8zlcgdfpcoi04mkq0c,SifsFiwc,2020-0188,2021-10-17,12:58:40,14:06:22,NA,incomplete,false,true,NA,1,10,NA,purple,n_l_008.jpg,NA,NA,pleasant,unpleasant,NA,NA,NA,NA,NA,left,1215.5,true,NA,NA,NA,NA,NA
SifsFiwc,3vck0q0pp8rxiiaq9ji6jar3xntn0d,3u8ycdagxttk8zlcgdfpcoi04mkq0c,SifsFiwc,2020-0188,2021-10-17,12:58:40,14:06:22,NA,incomplete,false,true,NA,1,11,NA,purple,n_l_111.jpg,NA,NA,pleasant,unpleasant,NA,NA,NA,NA,NA,left,1799.79999999702,true,NA,NA,NA,NA,NA
SifsFiwc,3vck0q0pp8rxiiaq9ji6jar3xntn0d,3u8ycdagxttk8zlcgdfpcoi04mkq0c,SifsFiwc,2020-0188,2021-10-17,12:58:40,14:06:22,NA,incomplete,false,true,NA,1,12,NA,blue,m_l_087.jpg,NA,NA,pleasant,unpleasant,NA,NA,NA,NA,NA,right,1678.60000000149,true,NA,NA,NA,NA,NA
SifsFiwc,3vck0q0pp8rxiiaq9ji6jar3xntn0d,3u8ycdagxttk8zlcgdfpcoi04mkq0c,SifsFiwc,2020-0188,2021-10-17,12:58:40,14:06:22,NA,incomplete,false,true,NA,1,13,NA,blue,m_s_060.jpg,NA,NA,pleasant,unpleasant,NA,NA,NA,NA,NA,left,1654.29999999702,true,NA,NA,NA,NA,NA
SifsFiwc,3vck0q0pp8rxiiaq9ji6jar3xntn0d,3u8ycdagxttk8zlcgdfpcoi04mkq0c,SifsFiwc,2020-0188,2021-10-17,12:58:40,14:06:22,NA,incomplete,false,true,NA,1,14,NA,blue,m_s_015.jpg,NA,NA,unpleasant,pleasant,NA,NA,NA,NA,NA,right,2285.69999999925,true,NA,NA,NA,NA,NA
SifsFiwc,3vck0q0pp8rxiiaq9ji6jar3xntn0d,3u8ycdagxttk8zlcgdfpcoi04mkq0c,SifsFiwc,2020-0188,2021-10-17,12:58:40,14:06:22,NA,incomplete,false,true,NA,1,15,NA,blue,m_l_090.jpg,NA,NA,pleasant,unpleasant,NA,NA,NA,NA,NA,left,2077.39999999851,true,NA,NA,NA,NA,NA
SifsFiwc,3vck0q0pp8rxiiaq9ji6jar3xntn0d,3u8ycdagxttk8zlcgdfpcoi04mkq0c,SifsFiwc,2020-0188,2021-10-17,12:58:40,14:06:22,NA,incomplete,false,true,NA,1,16,NA,blue,n_s_005.jpg,NA,NA,pleasant,unpleasant,NA,NA,NA,NA,NA,left,1572.40000000224,true,NA,NA,NA,NA,NA
SifsFiwc,3vck0q0pp8rxiiaq9ji6jar3xntn0d,3u8ycdagxttk8zlcgdfpcoi04mkq0c,SifsFiwc,2020-0188,2021-10-17,12:58:40,14:06:22,NA,incomplete,false,true,NA,1,17,NA,blue,n_s_113.jpg,NA,NA,pleasant,unpleasant,NA,NA,NA,NA,NA,right,1667.40000000224,true,NA,NA,NA,NA,NA
SifsFiwc,3vck0q0pp8rxiiaq9ji6jar3xntn0d,3u8ycdagxttk8zlcgdfpcoi04mkq0c,SifsFiwc,2020-0188,2021-10-17,12:58:40,14:06:22,NA,incomplete,false,true,NA,1,18,NA,white,m_s_083.jpg,NA,NA,unpleasant,pleasant,NA,NA,NA,NA,NA,right,1954.80000000075,true,NA,NA,NA,NA,NA
SifsFiwc,3vck0q0pp8rxiiaq9ji6jar3xntn0d,3u8ycdagxttk8zlcgdfpcoi04mkq0c,SifsFiwc,2020-0188,2021-10-17,12:58:40,14:06:22,NA,incomplete,false,true,NA,1,19,NA,white,m_l_048.jpg,NA,NA,pleasant,unpleasant,NA,NA,NA,NA,NA,left,1402.80000000075,true,NA,NA,NA,NA,NA
SifsFiwc,3vck0q0pp8rxiiaq9ji6jar3xntn0d,3u8ycdagxttk8zlcgdfpcoi04mkq0c,SifsFiwc,2020-0188,2021-10-17,12:58:40,14:06:22,NA,incomplete,false,true,NA,1,20,NA,white,n_l_097.jpg,NA,NA,pleasant,unpleasant,NA,NA,NA,NA,NA,left,1914.5,true,NA,NA,NA,NA,NA
SifsFiwc,3vck0q0pp8rxiiaq9ji6jar3xntn0d,3u8ycdagxttk8zlcgdfpcoi04mkq0c,SifsFiwc,2020-0188,2021-10-17,12:58:40,14:06:22,NA,incomplete,false,true,NA,1,21,NA,white,n_l_036.jpg,NA,NA,unpleasant,pleasant,NA,NA,NA,NA,NA,left,2193,true,NA,NA,NA,NA,NA
SifsFiwc,3vck0q0pp8rxiiaq9ji6jar3xntn0d,3u8ycdagxttk8zlcgdfpcoi04mkq0c,SifsFiwc,2020-0188,2021-10-17,12:58:40,14:06:22,NA,incomplete,false,true,NA,1,22,NA,white,n_l_037.jpg,NA,NA,pleasant,unpleasant,NA,NA,NA,NA,NA,left,1399.59999999776,true,NA,NA,NA,NA,NA
SifsFiwc,3vck0q0pp8rxiiaq9ji6jar3xntn0d,3u8ycdagxttk8zlcgdfpcoi04mkq0c,SifsFiwc,2020-0188,2021-10-17,12:58:40,14:06:22,NA,incomplete,false,true,NA,1,23,NA,white,m_s_010.jpg,NA,NA,unpleasant,pleasant,NA,NA,NA,NA,NA,right,1481.59999999776,true,NA,NA,NA,NA,NA
SifsFiwc,3vck0q0pp8rxiiaq9ji6jar3xntn0d,3u8ycdagxttk8zlcgdfpcoi04mkq0c,SifsFiwc,2020-0188,2021-10-17,12:58:40,14:06:22,NA,incomplete,false,true,NA,1,24,NA,yellow,m_s_012.jpg,NA,NA,unpleasant,pleasant,NA,NA,NA,NA,NA,right,2143.70000000298,true,NA,NA,NA,NA,NA
SifsFiwc,3vck0q0pp8rxiiaq9ji6jar3xntn0d,3u8ycdagxttk8zlcgdfpcoi04mkq0c,SifsFiwc,2020-0188,2021-10-17,12:58:40,14:06:22,NA,incomplete,false,true,NA,1,25,NA,yellow,n_l_027.jpg,NA,NA,unpleasant,pleasant,NA,NA,NA,NA,NA,right,2080,true,NA,NA,NA,NA,NA
SifsFiwc,3vck0q0pp8rxiiaq9ji6jar3xntn0d,3u8ycdagxttk8zlcgdfpcoi04mkq0c,SifsFiwc,2020-0188,2021-10-17,12:58:40,14:06:22,NA,incomplete,false,true,NA,1,26,NA,yellow,m_s_038.jpg,NA,NA,pleasant,unpleasant,NA,NA,NA,NA,NA,left,1895.19999999925,true,NA,NA,NA,NA,NA
SifsFiwc,3vck0q0pp8rxiiaq9ji6jar3xntn0d,3u8ycdagxttk8zlcgdfpcoi04mkq0c,SifsFiwc,2020-0188,2021-10-17,12:58:40,14:06:22,NA,incomplete,false,true,NA,1,27,NA,yellow,m_l_052.jpg,NA,NA,unpleasant,pleasant,NA,NA,NA,NA,NA,left,1390.60000000149,true,NA,NA,NA,NA,NA
SifsFiwc,3vck0q0pp8rxiiaq9ji6jar3xntn0d,3u8ycdagxttk8zlcgdfpcoi04mkq0c,SifsFiwc,2020-0188,2021-10-17,12:58:40,14:06:22,NA,incomplete,false,true,NA,1,28,NA,yellow,n_l_086.jpg,NA,NA,unpleasant,pleasant,NA,NA,NA,NA,NA,left,1758,true,NA,NA,NA,NA,NA
SifsFiwc,3vck0q0pp8rxiiaq9ji6jar3xntn0d,3u8ycdagxttk8zlcgdfpcoi04mkq0c,SifsFiwc,2020-0188,2021-10-17,12:58:40,14:06:22,NA,incomplete,false,true,NA,1,29,NA,yellow,m_l_045.jpg,NA,NA,pleasant,unpleasant,NA,NA,NA,NA,NA,right,1888.5,true,NA,NA,NA,NA,NA
SifsFiwc,3vck0q0pp8rxiiaq9ji6jar3xntn0d,3u8ycdagxttk8zlcgdfpcoi04mkq0c,SifsFiwc,2020-0188,2021-10-17,12:58:40,14:06:22,NA,incomplete,false,true,NA,1,30,NA,brown,n_l_006.jpg,NA,NA,unpleasant,pleasant,NA,NA,NA,NA,NA,right,1670.19999999925,true,NA,NA,NA,NA,NA
SifsFiwc,3vck0q0pp8rxiiaq9ji6jar3xntn0d,3u8ycdagxttk8zlcgdfpcoi04mkq0c,SifsFiwc,2020-0188,2021-10-17,12:58:40,14:06:22,NA,incomplete,false,true,NA,1,31,NA,brown,m_s_094.jpg,NA,NA,unpleasant,pleasant,NA,NA,NA,NA,NA,right,1668.19999999925,true,NA,NA,NA,NA,NA
SifsFiwc,3vck0q0pp8rxiiaq9ji6jar3xntn0d,3u8ycdagxttk8zlcgdfpcoi04mkq0c,SifsFiwc,2020-0188,2021-10-17,12:58:40,14:06:22,NA,incomplete,false,true,NA,1,32,NA,brown,n_s_030.jpg,NA,NA,pleasant,unpleasant,NA,NA,NA,NA,NA,left,1524,true,NA,NA,NA,NA,NA
SifsFiwc,3vck0q0pp8rxiiaq9ji6jar3xntn0d,3u8ycdagxttk8zlcgdfpcoi04mkq0c,SifsFiwc,2020-0188,2021-10-17,12:58:40,14:06:22,NA,incomplete,false,true,NA,1,33,NA,brown,n_l_081.jpg,NA,NA,unpleasant,pleasant,NA,NA,NA,NA,NA,right,1395.39999999851,true,NA,NA,NA,NA,NA
SifsFiwc,3vck0q0pp8rxiiaq9ji6jar3xntn0d,3u8ycdagxttk8zlcgdfpcoi04mkq0c,SifsFiwc,2020-0188,2021-10-17,12:58:40,14:06:22,NA,incomplete,false,true,NA,1,34,NA,brown,m_s_113.jpg,NA,NA,unpleasant,pleasant,NA,NA,NA,NA,NA,right,2075.89999999851,true,NA,NA,NA,NA,NA
SifsFiwc,3vck0q0pp8rxiiaq9ji6jar3xntn0d,3u8ycdagxttk8zlcgdfpcoi04mkq0c,SifsFiwc,2020-0188,2021-10-17,12:58:40,14:06:22,NA,incomplete,false,true,NA,1,35,NA,brown,n_s_095.jpg,NA,NA,pleasant,unpleasant,NA,NA,NA,NA,NA,left,1563.10000000149,true,NA,NA,NA,NA,NA
SifsFiwc,3vck0q0pp8rxiiaq9ji6jar3xntn0d,3u8ycdagxttk8zlcgdfpcoi04mkq0c,SifsFiwc,2020-0188,2021-10-17,12:58:40,14:06:22,NA,incomplete,false,NA,true,1,0,NA,NA,NA,left,present,NA,NA,n_l_037.jpg,white,m_s_038.jpg,yellow,between,NA,NaN,NA,left,5425.400000002235,1,2,1963.6000000014901
SifsFiwc,3vck0q0pp8rxiiaq9ji6jar3xntn0d,3u8ycdagxttk8zlcgdfpcoi04mkq0c,SifsFiwc,2020-0188,2021-10-17,12:58:40,14:06:22,NA,incomplete,false,NA,true,1,1,NA,NA,NA,right,present,NA,NA,n_s_030.jpg,brown,n_l_086.jpg,yellow,between,NA,NaN,NA,left,6315.400000002235,0,1,1374.7000000029802
SifsFiwc,3vck0q0pp8rxiiaq9ji6jar3xntn0d,3u8ycdagxttk8zlcgdfpcoi04mkq0c,SifsFiwc,2020-0188,2021-10-17,12:58:40,14:06:22,NA,incomplete,false,NA,true,1,2,NA,NA,NA,right,present,NA,NA,m_l_060.jpg,gray,m_l_077.jpg,gray,within,NA,NaN,NA,right,3333.5,1,2,1510.5
SifsFiwc,3vck0q0pp8rxiiaq9ji6jar3xntn0d,3u8ycdagxttk8zlcgdfpcoi04mkq0c,SifsFiwc,2020-0188,2021-10-17,12:58:40,14:06:22,NA,incomplete,false,NA,true,1,3,NA,NA,NA,left,present,NA,NA,n_s_100.jpg,gray,m_s_051.jpg,purple,between,NA,NaN,NA,right,3638.39999999851,0,2,1293.300000000745
SifsFiwc,3vck0q0pp8rxiiaq9ji6jar3xntn0d,3u8ycdagxttk8zlcgdfpcoi04mkq0c,SifsFiwc,2020-0188,2021-10-17,12:58:40,14:06:22,NA,incomplete,false,NA,true,1,4,NA,NA,NA,left,present,NA,NA,m_s_084.jpg,purple,n_l_111.jpg,purple,within,NA,NaN,NA,left,3206.800000000745,1,1,1205.199999999255
SifsFiwc,3vck0q0pp8rxiiaq9ji6jar3xntn0d,3u8ycdagxttk8zlcgdfpcoi04mkq0c,SifsFiwc,2020-0188,2021-10-17,12:58:40,14:06:22,NA,incomplete,false,NA,true,1,5,NA,NA,NA,right,present,NA,NA,n_l_097.jpg,white,n_s_005.jpg,blue,between,NA,NaN,NA,left,2151,0,0,1531.3999999985099
SifsFiwc,3vck0q0pp8rxiiaq9ji6jar3xntn0d,3u8ycdagxttk8zlcgdfpcoi04mkq0c,SifsFiwc,2020-0188,2021-10-17,12:58:40,14:06:22,NA,incomplete,false,NA,true,1,6,NA,NA,NA,right,present,NA,NA,n_s_113.jpg,blue,m_s_060.jpg,blue,within,NA,NaN,NA,right,4806,1,2,1278.5
SifsFiwc,3vck0q0pp8rxiiaq9ji6jar3xntn0d,3u8ycdagxttk8zlcgdfpcoi04mkq0c,SifsFiwc,2020-0188,2021-10-17,12:58:40,14:06:22,NA,incomplete,false,NA,true,1,7,NA,NA,NA,right,present,NA,NA,m_l_045.jpg,yellow,n_l_027.jpg,yellow,within,NA,NaN,NA,right,2534.10000000149,1,1,1950.300000000745
SifsFiwc,3vck0q0pp8rxiiaq9ji6jar3xntn0d,3u8ycdagxttk8zlcgdfpcoi04mkq0c,SifsFiwc,2020-0188,2021-10-17,12:58:40,14:06:22,NA,incomplete,false,NA,true,1,8,NA,NA,NA,left,present,NA,NA,m_l_048.jpg,white,m_s_010.jpg,white,within,NA,NaN,NA,left,2405.60000000149,1,2,790.6000000014901
SifsFiwc,3vck0q0pp8rxiiaq9ji6jar3xntn0d,3u8ycdagxttk8zlcgdfpcoi04mkq0c,SifsFiwc,2020-0188,2021-10-17,12:58:40,14:06:22,NA,incomplete,false,NA,true,1,9,NA,NA,NA,left,present,NA,NA,n_l_008.jpg,purple,m_s_015.jpg,blue,between,NA,NaN,NA,left,3392.699999999255,1,3,1310.800000000745
SifsFiwc,3vck0q0pp8rxiiaq9ji6jar3xntn0d,3u8ycdagxttk8zlcgdfpcoi04mkq0c,SifsFiwc,2020-0188,2021-10-17,12:58:40,14:06:22,NA,incomplete,false,NA,true,1,10,NA,NA,NA,left,present,NA,NA,m_s_094.jpg,brown,n_s_095.jpg,brown,within,NA,NaN,NA,left,3485.199999999255,1,0,1636.800000000745
SifsFiwc,3vck0q0pp8rxiiaq9ji6jar3xntn0d,3u8ycdagxttk8zlcgdfpcoi04mkq0c,SifsFiwc,2020-0188,2021-10-17,12:58:40,14:06:22,NA,incomplete,false,true,NA,2,0,NA,yellow,n_l_011.jpg,NA,NA,pleasant,unpleasant,NA,NA,NA,NA,NA,left,2474.80000000075,true,NA,NA,NA,NA,NA
SifsFiwc,3vck0q0pp8rxiiaq9ji6jar3xntn0d,3u8ycdagxttk8zlcgdfpcoi04mkq0c,SifsFiwc,2020-0188,2021-10-17,12:58:40,14:06:22,NA,incomplete,false,true,NA,2,1,NA,yellow,m_l_067.jpg,NA,NA,pleasant,unpleasant,NA,NA,NA,NA,NA,left,2545.80000000075,true,NA,NA,NA,NA,NA
SifsFiwc,3vck0q0pp8rxiiaq9ji6jar3xntn0d,3u8ycdagxttk8zlcgdfpcoi04mkq0c,SifsFiwc,2020-0188,2021-10-17,12:58:40,14:06:22,NA,incomplete,false,true,NA,2,2,NA,yellow,m_l_028.jpg,NA,NA,pleasant,unpleasant,NA,NA,NA,NA,NA,right,1818.5,true,NA,NA,NA,NA,NA
SifsFiwc,3vck0q0pp8rxiiaq9ji6jar3xntn0d,3u8ycdagxttk8zlcgdfpcoi04mkq0c,SifsFiwc,2020-0188,2021-10-17,12:58:40,14:06:22,NA,incomplete,false,true,NA,2,3,NA,yellow,n_s_006.jpg,NA,NA,pleasant,unpleasant,NA,NA,NA,NA,NA,left,1208.80000000075,true,NA,NA,NA,NA,NA
SifsFiwc,3vck0q0pp8rxiiaq9ji6jar3xntn0d,3u8ycdagxttk8zlcgdfpcoi04mkq0c,SifsFiwc,2020-0188,2021-10-17,12:58:40,14:06:22,NA,incomplete,false,true,NA,2,4,NA,yellow,m_l_076.jpg,NA,NA,unpleasant,pleasant,NA,NA,NA,NA,NA,left,1759.69999999925,true,NA,NA,NA,NA,NA
SifsFiwc,3vck0q0pp8rxiiaq9ji6jar3xntn0d,3u8ycdagxttk8zlcgdfpcoi04mkq0c,SifsFiwc,2020-0188,2021-10-17,12:58:40,14:06:22,NA,incomplete,false,true,NA,2,5,NA,yellow,n_l_115.jpg,NA,NA,pleasant,unpleasant,NA,NA,NA,NA,NA,left,1857.10000000149,true,NA,NA,NA,NA,NA
SifsFiwc,3vck0q0pp8rxiiaq9ji6jar3xntn0d,3u8ycdagxttk8zlcgdfpcoi04mkq0c,SifsFiwc,2020-0188,2021-10-17,12:58:40,14:06:22,NA,incomplete,false,true,NA,2,6,NA,black,n_s_018.jpg,NA,NA,pleasant,unpleasant,NA,NA,NA,NA,NA,left,1717.10000000149,true,NA,NA,NA,NA,NA
SifsFiwc,3vck0q0pp8rxiiaq9ji6jar3xntn0d,3u8ycdagxttk8zlcgdfpcoi04mkq0c,SifsFiwc,2020-0188,2021-10-17,12:58:40,14:06:22,NA,incomplete,false,true,NA,2,7,NA,black,n_s_032.jpg,NA,NA,unpleasant,pleasant,NA,NA,NA,NA,NA,right,1536.5,true,NA,NA,NA,NA,NA
SifsFiwc,3vck0q0pp8rxiiaq9ji6jar3xntn0d,3u8ycdagxttk8zlcgdfpcoi04mkq0c,SifsFiwc,2020-0188,2021-10-17,12:58:40,14:06:22,NA,incomplete,false,true,NA,2,8,NA,black,n_l_025.jpg,NA,NA,pleasant,unpleasant,NA,NA,NA,NA,NA,left,1911.20000000298,true,NA,NA,NA,NA,NA
SifsFiwc,3vck0q0pp8rxiiaq9ji6jar3xntn0d,3u8ycdagxttk8zlcgdfpcoi04mkq0c,SifsFiwc,2020-0188,2021-10-17,12:58:40,14:06:22,NA,incomplete,false,true,NA,2,9,NA,black,n_l_002.jpg,NA,NA,pleasant,unpleasant,NA,NA,NA,NA,NA,left,1894.19999999925,true,NA,NA,NA,NA,NA
SifsFiwc,3vck0q0pp8rxiiaq9ji6jar3xntn0d,3u8ycdagxttk8zlcgdfpcoi04mkq0c,SifsFiwc,2020-0188,2021-10-17,12:58:40,14:06:22,NA,incomplete,false,true,NA,2,10,NA,black,m_l_091.jpg,NA,NA,pleasant,unpleasant,NA,NA,NA,NA,NA,left,1502.5,true,NA,NA,NA,NA,NA
SifsFiwc,3vck0q0pp8rxiiaq9ji6jar3xntn0d,3u8ycdagxttk8zlcgdfpcoi04mkq0c,SifsFiwc,2020-0188,2021-10-17,12:58:40,14:06:22,NA,incomplete,false,true,NA,2,11,NA,black,m_s_040.jpg,NA,NA,pleasant,unpleasant,NA,NA,NA,NA,NA,left,2181.69999999925,true,NA,NA,NA,NA,NA
SifsFiwc,3vck0q0pp8rxiiaq9ji6jar3xntn0d,3u8ycdagxttk8zlcgdfpcoi04mkq0c,SifsFiwc,2020-0188,2021-10-17,12:58:40,14:06:22,NA,incomplete,false,true,NA,2,12,NA,white,m_s_057.jpg,NA,NA,unpleasant,pleasant,NA,NA,NA,NA,NA,left,1541.30000000075,true,NA,NA,NA,NA,NA
SifsFiwc,3vck0q0pp8rxiiaq9ji6jar3xntn0d,3u8ycdagxttk8zlcgdfpcoi04mkq0c,SifsFiwc,2020-0188,2021-10-17,12:58:40,14:06:22,NA,incomplete,false,true,NA,2,13,NA,white,m_s_099.jpg,NA,NA,pleasant,unpleasant,NA,NA,NA,NA,NA,left,2485,true,NA,NA,NA,NA,NA
SifsFiwc,3vck0q0pp8rxiiaq9ji6jar3xntn0d,3u8ycdagxttk8zlcgdfpcoi04mkq0c,SifsFiwc,2020-0188,2021-10-17,12:58:40,14:06:22,NA,incomplete,false,true,NA,2,14,NA,white,n_s_046.jpg,NA,NA,pleasant,unpleasant,NA,NA,NA,NA,NA,left,1630.09999999776,true,NA,NA,NA,NA,NA
SifsFiwc,3vck0q0pp8rxiiaq9ji6jar3xntn0d,3u8ycdagxttk8zlcgdfpcoi04mkq0c,SifsFiwc,2020-0188,2021-10-17,12:58:40,14:06:22,NA,incomplete,false,true,NA,2,15,NA,white,m_l_010.jpg,NA,NA,unpleasant,pleasant,NA,NA,NA,NA,NA,right,1525,true,NA,NA,NA,NA,NA
SifsFiwc,3vck0q0pp8rxiiaq9ji6jar3xntn0d,3u8ycdagxttk8zlcgdfpcoi04mkq0c,SifsFiwc,2020-0188,2021-10-17,12:58:40,14:06:22,NA,incomplete,false,true,NA,2,16,NA,white,m_l_066.jpg,NA,NA,pleasant,unpleasant,NA,NA,NA,NA,NA,left,1579.90000000224,true,NA,NA,NA,NA,NA
SifsFiwc,3vck0q0pp8rxiiaq9ji6jar3xntn0d,3u8ycdagxttk8zlcgdfpcoi04mkq0c,SifsFiwc,2020-0188,2021-10-17,12:58:40,14:06:22,NA,incomplete,false,true,NA,2,17,NA,white,n_s_116.jpg,NA,NA,unpleasant,pleasant,NA,NA,NA,NA,NA,left,1492.60000000149,true,NA,NA,NA,NA,NA
SifsFiwc,3vck0q0pp8rxiiaq9ji6jar3xntn0d,3u8ycdagxttk8zlcgdfpcoi04mkq0c,SifsFiwc,2020-0188,2021-10-17,12:58:40,14:06:22,NA,incomplete,false,true,NA,2,18,NA,gray,n_l_057.jpg,NA,NA,unpleasant,pleasant,NA,NA,NA,NA,NA,left,1571.10000000149,true,NA,NA,NA,NA,NA
SifsFiwc,3vck0q0pp8rxiiaq9ji6jar3xntn0d,3u8ycdagxttk8zlcgdfpcoi04mkq0c,SifsFiwc,2020-0188,2021-10-17,12:58:40,14:06:22,NA,incomplete,false,true,NA,2,19,NA,gray,n_s_056.jpg,NA,NA,pleasant,unpleasant,NA,NA,NA,NA,NA,left,1777.80000000075,true,NA,NA,NA,NA,NA
SifsFiwc,3vck0q0pp8rxiiaq9ji6jar3xntn0d,3u8ycdagxttk8zlcgdfpcoi04mkq0c,SifsFiwc,2020-0188,2021-10-17,12:58:40,14:06:22,NA,incomplete,false,true,NA,2,20,NA,gray,n_s_107.jpg,NA,NA,unpleasant,pleasant,NA,NA,NA,NA,NA,left,1537.89999999851,true,NA,NA,NA,NA,NA
SifsFiwc,3vck0q0pp8rxiiaq9ji6jar3xntn0d,3u8ycdagxttk8zlcgdfpcoi04mkq0c,SifsFiwc,2020-0188,2021-10-17,12:58:40,14:06:22,NA,incomplete,false,true,NA,2,21,NA,gray,m_l_049.jpg,NA,NA,unpleasant,pleasant,NA,NA,NA,NA,NA,left,2576.29999999702,true,NA,NA,NA,NA,NA
SifsFiwc,3vck0q0pp8rxiiaq9ji6jar3xntn0d,3u8ycdagxttk8zlcgdfpcoi04mkq0c,SifsFiwc,2020-0188,2021-10-17,12:58:40,14:06:22,NA,incomplete,false,true,NA,2,22,NA,gray,n_l_071.jpg,NA,NA,pleasant,unpleasant,NA,NA,NA,NA,NA,left,1231.80000000075,true,NA,NA,NA,NA,NA
SifsFiwc,3vck0q0pp8rxiiaq9ji6jar3xntn0d,3u8ycdagxttk8zlcgdfpcoi04mkq0c,SifsFiwc,2020-0188,2021-10-17,12:58:40,14:06:22,NA,incomplete,false,true,NA,2,23,NA,gray,n_s_061.jpg,NA,NA,unpleasant,pleasant,NA,NA,NA,NA,NA,left,1488.30000000075,true,NA,NA,NA,NA,NA
SifsFiwc,3vck0q0pp8rxiiaq9ji6jar3xntn0d,3u8ycdagxttk8zlcgdfpcoi04mkq0c,SifsFiwc,2020-0188,2021-10-17,12:58:40,14:06:22,NA,incomplete,false,true,NA,2,24,NA,purple,m_l_013.jpg,NA,NA,unpleasant,pleasant,NA,NA,NA,NA,NA,left,1558.89999999851,true,NA,NA,NA,NA,NA
SifsFiwc,3vck0q0pp8rxiiaq9ji6jar3xntn0d,3u8ycdagxttk8zlcgdfpcoi04mkq0c,SifsFiwc,2020-0188,2021-10-17,12:58:40,14:06:22,NA,incomplete,false,true,NA,2,25,NA,purple,m_l_079.jpg,NA,NA,pleasant,unpleasant,NA,NA,NA,NA,NA,right,2102.40000000224,true,NA,NA,NA,NA,NA
SifsFiwc,3vck0q0pp8rxiiaq9ji6jar3xntn0d,3u8ycdagxttk8zlcgdfpcoi04mkq0c,SifsFiwc,2020-0188,2021-10-17,12:58:40,14:06:22,NA,incomplete,false,true,NA,2,26,NA,purple,m_l_112.jpg,NA,NA,unpleasant,pleasant,NA,NA,NA,NA,NA,right,1661.90000000224,true,NA,NA,NA,NA,NA
SifsFiwc,3vck0q0pp8rxiiaq9ji6jar3xntn0d,3u8ycdagxttk8zlcgdfpcoi04mkq0c,SifsFiwc,2020-0188,2021-10-17,12:58:40,14:06:22,NA,incomplete,false,true,NA,2,27,NA,purple,m_l_110.jpg,NA,NA,unpleasant,pleasant,NA,NA,NA,NA,NA,left,1509.39999999851,true,NA,NA,NA,NA,NA
SifsFiwc,3vck0q0pp8rxiiaq9ji6jar3xntn0d,3u8ycdagxttk8zlcgdfpcoi04mkq0c,SifsFiwc,2020-0188,2021-10-17,12:58:40,14:06:22,NA,incomplete,false,true,NA,2,28,NA,purple,n_l_003.jpg,NA,NA,pleasant,unpleasant,NA,NA,NA,NA,NA,left,1319.89999999851,true,NA,NA,NA,NA,NA
SifsFiwc,3vck0q0pp8rxiiaq9ji6jar3xntn0d,3u8ycdagxttk8zlcgdfpcoi04mkq0c,SifsFiwc,2020-0188,2021-10-17,12:58:40,14:06:22,NA,incomplete,false,true,NA,2,29,NA,purple,m_l_104.jpg,NA,NA,pleasant,unpleasant,NA,NA,NA,NA,NA,left,1621.40000000224,true,NA,NA,NA,NA,NA
SifsFiwc,3vck0q0pp8rxiiaq9ji6jar3xntn0d,3u8ycdagxttk8zlcgdfpcoi04mkq0c,SifsFiwc,2020-0188,2021-10-17,12:58:40,14:06:22,NA,incomplete,false,true,NA,2,30,NA,blue,n_s_062.jpg,NA,NA,unpleasant,pleasant,NA,NA,NA,NA,NA,right,1627.10000000149,true,NA,NA,NA,NA,NA
SifsFiwc,3vck0q0pp8rxiiaq9ji6jar3xntn0d,3u8ycdagxttk8zlcgdfpcoi04mkq0c,SifsFiwc,2020-0188,2021-10-17,12:58:40,14:06:22,NA,incomplete,false,true,NA,2,31,NA,blue,m_s_036.jpg,NA,NA,unpleasant,pleasant,NA,NA,NA,NA,NA,left,2099.20000000298,true,NA,NA,NA,NA,NA
SifsFiwc,3vck0q0pp8rxiiaq9ji6jar3xntn0d,3u8ycdagxttk8zlcgdfpcoi04mkq0c,SifsFiwc,2020-0188,2021-10-17,12:58:40,14:06:22,NA,incomplete,false,true,NA,2,32,NA,blue,n_s_003.jpg,NA,NA,unpleasant,pleasant,NA,NA,NA,NA,NA,left,1363.39999999851,true,NA,NA,NA,NA,NA
SifsFiwc,3vck0q0pp8rxiiaq9ji6jar3xntn0d,3u8ycdagxttk8zlcgdfpcoi04mkq0c,SifsFiwc,2020-0188,2021-10-17,12:58:40,14:06:22,NA,incomplete,false,true,NA,2,33,NA,blue,n_s_087.jpg,NA,NA,pleasant,unpleasant,NA,NA,NA,NA,NA,left,1306.30000000075,true,NA,NA,NA,NA,NA
SifsFiwc,3vck0q0pp8rxiiaq9ji6jar3xntn0d,3u8ycdagxttk8zlcgdfpcoi04mkq0c,SifsFiwc,2020-0188,2021-10-17,12:58:40,14:06:22,NA,incomplete,false,true,NA,2,34,NA,blue,n_s_076.jpg,NA,NA,unpleasant,pleasant,NA,NA,NA,NA,NA,left,1521.80000000075,true,NA,NA,NA,NA,NA
SifsFiwc,3vck0q0pp8rxiiaq9ji6jar3xntn0d,3u8ycdagxttk8zlcgdfpcoi04mkq0c,SifsFiwc,2020-0188,2021-10-17,12:58:40,14:06:22,NA,incomplete,false,true,NA,2,35,NA,blue,n_s_081.jpg,NA,NA,unpleasant,pleasant,NA,NA,NA,NA,NA,right,2032.69999999925,true,NA,NA,NA,NA,NA
SifsFiwc,3vck0q0pp8rxiiaq9ji6jar3xntn0d,3u8ycdagxttk8zlcgdfpcoi04mkq0c,SifsFiwc,2020-0188,2021-10-17,12:58:40,14:06:22,NA,incomplete,false,NA,true,2,0,NA,NA,NA,left,present,NA,NA,n_l_003.jpg,purple,n_s_003.jpg,blue,between,NA,NaN,NA,left,3652.89999999851,1,1,1435.800000000745
SifsFiwc,3vck0q0pp8rxiiaq9ji6jar3xntn0d,3u8ycdagxttk8zlcgdfpcoi04mkq0c,SifsFiwc,2020-0188,2021-10-17,12:58:40,14:06:22,NA,incomplete,false,NA,true,2,1,NA,NA,NA,right,present,NA,NA,n_l_025.jpg,black,m_l_076.jpg,yellow,between,NA,NaN,NA,left,3611.699999999255,0,1,2830
SifsFiwc,3vck0q0pp8rxiiaq9ji6jar3xntn0d,3u8ycdagxttk8zlcgdfpcoi04mkq0c,SifsFiwc,2020-0188,2021-10-17,12:58:40,14:06:22,NA,incomplete,false,NA,true,2,2,NA,NA,NA,right,present,NA,NA,n_l_115.jpg,yellow,m_l_067.jpg,yellow,within,NA,NaN,NA,left,2124.2000000029802,0,2,948.6999999992549
SifsFiwc,3vck0q0pp8rxiiaq9ji6jar3xntn0d,3u8ycdagxttk8zlcgdfpcoi04mkq0c,SifsFiwc,2020-0188,2021-10-17,12:58:40,14:06:22,NA,incomplete,false,NA,true,2,3,NA,NA,NA,left,present,NA,NA,n_l_071.jpg,gray,m_l_112.jpg,purple,between,NA,NaN,NA,left,2622.699999999255,1,1,1190.4000000022352
SifsFiwc,3vck0q0pp8rxiiaq9ji6jar3xntn0d,3u8ycdagxttk8zlcgdfpcoi04mkq0c,SifsFiwc,2020-0188,2021-10-17,12:58:40,14:06:22,NA,incomplete,false,NA,true,2,4,NA,NA,NA,left,present,NA,NA,m_l_079.jpg,purple,m_l_104.jpg,purple,within,NA,NaN,NA,right,2582.400000002235,0,1,1100.1000000014901
SifsFiwc,3vck0q0pp8rxiiaq9ji6jar3xntn0d,3u8ycdagxttk8zlcgdfpcoi04mkq0c,SifsFiwc,2020-0188,2021-10-17,12:58:40,14:06:22,NA,incomplete,false,NA,true,2,5,NA,NA,NA,left,present,NA,NA,m_s_099.jpg,white,n_s_116.jpg,white,within,NA,NaN,NA,left,2173.599999997765,1,0,1901.5
SifsFiwc,3vck0q0pp8rxiiaq9ji6jar3xntn0d,3u8ycdagxttk8zlcgdfpcoi04mkq0c,SifsFiwc,2020-0188,2021-10-17,12:58:40,14:06:22,NA,incomplete,false,NA,true,2,6,NA,NA,NA,right,present,NA,NA,m_s_040.jpg,black,n_s_032.jpg,black,within,NA,NaN,NA,right,2550.599999997765,1,2,1277.800000000745
SifsFiwc,3vck0q0pp8rxiiaq9ji6jar3xntn0d,3u8ycdagxttk8zlcgdfpcoi04mkq0c,SifsFiwc,2020-0188,2021-10-17,12:58:40,14:06:22,NA,incomplete,false,NA,true,2,7,NA,NA,NA,right,present,NA,NA,n_s_107.jpg,gray,m_l_066.jpg,white,between,NA,NaN,NA,right,3341.800000000745,1,2,1048.8999999985099
SifsFiwc,3vck0q0pp8rxiiaq9ji6jar3xntn0d,3u8ycdagxttk8zlcgdfpcoi04mkq0c,SifsFiwc,2020-0188,2021-10-17,12:58:40,14:06:22,NA,incomplete,false,NA,true,2,8,NA,NA,NA,left,present,NA,NA,m_s_036.jpg,blue,n_s_081.jpg,blue,within,NA,NaN,NA,left,2622.5,1,1,1095.4000000022352
SifsFiwc,3vck0q0pp8rxiiaq9ji6jar3xntn0d,3u8ycdagxttk8zlcgdfpcoi04mkq0c,SifsFiwc,2020-0188,2021-10-17,12:58:40,14:06:22,NA,incomplete,false,NA,true,2,9,NA,NA,NA,left,present,NA,NA,m_l_091.jpg,black,n_s_046.jpg,white,between,NA,NaN,NA,left,5246.699999999255,1,1,1221.9000000022352
SifsFiwc,3vck0q0pp8rxiiaq9ji6jar3xntn0d,3u8ycdagxttk8zlcgdfpcoi04mkq0c,SifsFiwc,2020-0188,2021-10-17,12:58:40,14:06:22,NA,incomplete,false,NA,true,2,10,NA,NA,NA,right,present,NA,NA,n_s_061.jpg,gray,n_s_056.jpg,gray,within,NA,NaN,NA,right,4150.699999999255,1,2,1518.0999999977648
SifsFiwc,3vck0q0pp8rxiiaq9ji6jar3xntn0d,3u8ycdagxttk8zlcgdfpcoi04mkq0c,SifsFiwc,2020-0188,2021-10-17,12:58:40,14:06:22,NA,incomplete,false,true,NA,3,0,NA,blue,n_s_047.jpg,NA,NA,pleasant,unpleasant,NA,NA,NA,NA,NA,right,2441.30000000075,true,NA,NA,NA,NA,NA
SifsFiwc,3vck0q0pp8rxiiaq9ji6jar3xntn0d,3u8ycdagxttk8zlcgdfpcoi04mkq0c,SifsFiwc,2020-0188,2021-10-17,12:58:40,14:06:22,NA,incomplete,false,true,NA,3,1,NA,blue,m_s_044.jpg,NA,NA,pleasant,unpleasant,NA,NA,NA,NA,NA,right,2648.79999999702,true,NA,NA,NA,NA,NA
SifsFiwc,3vck0q0pp8rxiiaq9ji6jar3xntn0d,3u8ycdagxttk8zlcgdfpcoi04mkq0c,SifsFiwc,2020-0188,2021-10-17,12:58:40,14:06:22,NA,incomplete,false,true,NA,3,2,NA,blue,m_l_102.jpg,NA,NA,pleasant,unpleasant,NA,NA,NA,NA,NA,left,1537,true,NA,NA,NA,NA,NA
SifsFiwc,3vck0q0pp8rxiiaq9ji6jar3xntn0d,3u8ycdagxttk8zlcgdfpcoi04mkq0c,SifsFiwc,2020-0188,2021-10-17,12:58:40,14:06:22,NA,incomplete,false,true,NA,3,3,NA,blue,n_s_044.jpg,NA,NA,unpleasant,pleasant,NA,NA,NA,NA,NA,right,1705,true,NA,NA,NA,NA,NA
SifsFiwc,3vck0q0pp8rxiiaq9ji6jar3xntn0d,3u8ycdagxttk8zlcgdfpcoi04mkq0c,SifsFiwc,2020-0188,2021-10-17,12:58:40,14:06:22,NA,incomplete,false,true,NA,3,4,NA,blue,m_s_072.jpg,NA,NA,pleasant,unpleasant,NA,NA,NA,NA,NA,left,1369.09999999776,true,NA,NA,NA,NA,NA
SifsFiwc,3vck0q0pp8rxiiaq9ji6jar3xntn0d,3u8ycdagxttk8zlcgdfpcoi04mkq0c,SifsFiwc,2020-0188,2021-10-17,12:58:40,14:06:22,NA,incomplete,false,true,NA,3,5,NA,blue,m_l_023.jpg,NA,NA,pleasant,unpleasant,NA,NA,NA,NA,NA,left,1936.19999999925,true,NA,NA,NA,NA,NA
SifsFiwc,3vck0q0pp8rxiiaq9ji6jar3xntn0d,3u8ycdagxttk8zlcgdfpcoi04mkq0c,SifsFiwc,2020-0188,2021-10-17,12:58:40,14:06:22,NA,incomplete,false,true,NA,3,6,NA,green,m_l_072.jpg,NA,NA,pleasant,unpleasant,NA,NA,NA,NA,NA,left,1582.30000000075,true,NA,NA,NA,NA,NA
SifsFiwc,3vck0q0pp8rxiiaq9ji6jar3xntn0d,3u8ycdagxttk8zlcgdfpcoi04mkq0c,SifsFiwc,2020-0188,2021-10-17,12:58:40,14:06:22,NA,incomplete,false,true,NA,3,7,NA,green,m_s_037.jpg,NA,NA,unpleasant,pleasant,NA,NA,NA,NA,NA,right,1607.5,true,NA,NA,NA,NA,NA
SifsFiwc,3vck0q0pp8rxiiaq9ji6jar3xntn0d,3u8ycdagxttk8zlcgdfpcoi04mkq0c,SifsFiwc,2020-0188,2021-10-17,12:58:40,14:06:22,NA,incomplete,false,true,NA,3,8,NA,green,m_l_084.jpg,NA,NA,unpleasant,pleasant,NA,NA,NA,NA,NA,right,1877.89999999851,true,NA,NA,NA,NA,NA
SifsFiwc,3vck0q0pp8rxiiaq9ji6jar3xntn0d,3u8ycdagxttk8zlcgdfpcoi04mkq0c,SifsFiwc,2020-0188,2021-10-17,12:58:40,14:06:22,NA,incomplete,false,true,NA,3,9,NA,green,n_l_042.jpg,NA,NA,unpleasant,pleasant,NA,NA,NA,NA,NA,right,1669.5,true,NA,NA,NA,NA,NA
SifsFiwc,3vck0q0pp8rxiiaq9ji6jar3xntn0d,3u8ycdagxttk8zlcgdfpcoi04mkq0c,SifsFiwc,2020-0188,2021-10-17,12:58:40,14:06:22,NA,incomplete,false,true,NA,3,10,NA,green,n_s_067.jpg,NA,NA,pleasant,unpleasant,NA,NA,NA,NA,NA,right,2084,true,NA,NA,NA,NA,NA
SifsFiwc,3vck0q0pp8rxiiaq9ji6jar3xntn0d,3u8ycdagxttk8zlcgdfpcoi04mkq0c,SifsFiwc,2020-0188,2021-10-17,12:58:40,14:06:22,NA,incomplete,false,true,NA,3,11,NA,green,n_s_013.jpg,NA,NA,unpleasant,pleasant,NA,NA,NA,NA,NA,right,1380.10000000149,true,NA,NA,NA,NA,NA
SifsFiwc,3vck0q0pp8rxiiaq9ji6jar3xntn0d,3u8ycdagxttk8zlcgdfpcoi04mkq0c,SifsFiwc,2020-0188,2021-10-17,12:58:40,14:06:22,NA,incomplete,false,true,NA,3,12,NA,orange,n_s_017.jpg,NA,NA,pleasant,unpleasant,NA,NA,NA,NA,NA,left,1307.89999999851,true,NA,NA,NA,NA,NA
SifsFiwc,3vck0q0pp8rxiiaq9ji6jar3xntn0d,3u8ycdagxttk8zlcgdfpcoi04mkq0c,SifsFiwc,2020-0188,2021-10-17,12:58:40,14:06:22,NA,incomplete,false,true,NA,3,13,NA,orange,m_s_067.jpg,NA,NA,unpleasant,pleasant,NA,NA,NA,NA,NA,right,2003.90000000224,true,NA,NA,NA,NA,NA
SifsFiwc,3vck0q0pp8rxiiaq9ji6jar3xntn0d,3u8ycdagxttk8zlcgdfpcoi04mkq0c,SifsFiwc,2020-0188,2021-10-17,12:58:40,14:06:22,NA,incomplete,false,true,NA,3,14,NA,orange,m_l_115.jpg,NA,NA,unpleasant,pleasant,NA,NA,NA,NA,NA,right,1563.5,true,NA,NA,NA,NA,NA
SifsFiwc,3vck0q0pp8rxiiaq9ji6jar3xntn0d,3u8ycdagxttk8zlcgdfpcoi04mkq0c,SifsFiwc,2020-0188,2021-10-17,12:58:40,14:06:22,NA,incomplete,false,true,NA,3,15,NA,orange,n_s_035.jpg,NA,NA,unpleasant,pleasant,NA,NA,NA,NA,NA,left,1562.89999999851,true,NA,NA,NA,NA,NA
SifsFiwc,3vck0q0pp8rxiiaq9ji6jar3xntn0d,3u8ycdagxttk8zlcgdfpcoi04mkq0c,SifsFiwc,2020-0188,2021-10-17,12:58:40,14:06:22,NA,incomplete,false,true,NA,3,16,NA,orange,m_l_059.jpg,NA,NA,pleasant,unpleasant,NA,NA,NA,NA,NA,left,1849.5,true,NA,NA,NA,NA,NA
SifsFiwc,3vck0q0pp8rxiiaq9ji6jar3xntn0d,3u8ycdagxttk8zlcgdfpcoi04mkq0c,SifsFiwc,2020-0188,2021-10-17,12:58:40,14:06:22,NA,incomplete,false,true,NA,3,17,NA,orange,n_s_045.jpg,NA,NA,pleasant,unpleasant,NA,NA,NA,NA,NA,left,1073.80000000075,true,NA,NA,NA,NA,NA
SifsFiwc,3vck0q0pp8rxiiaq9ji6jar3xntn0d,3u8ycdagxttk8zlcgdfpcoi04mkq0c,SifsFiwc,2020-0188,2021-10-17,12:58:40,14:06:22,NA,incomplete,false,true,NA,3,18,NA,gray,m_s_087.jpg,NA,NA,pleasant,unpleasant,NA,NA,NA,NA,NA,right,2144.80000000075,true,NA,NA,NA,NA,NA
SifsFiwc,3vck0q0pp8rxiiaq9ji6jar3xntn0d,3u8ycdagxttk8zlcgdfpcoi04mkq0c,SifsFiwc,2020-0188,2021-10-17,12:58:40,14:06:22,NA,incomplete,false,true,NA,3,19,NA,gray,n_s_094.jpg,NA,NA,pleasant,unpleasant,NA,NA,NA,NA,NA,left,1127.19999999925,true,NA,NA,NA,NA,NA
SifsFiwc,3vck0q0pp8rxiiaq9ji6jar3xntn0d,3u8ycdagxttk8zlcgdfpcoi04mkq0c,SifsFiwc,2020-0188,2021-10-17,12:58:40,14:06:22,NA,incomplete,false,true,NA,3,20,NA,gray,m_s_033.jpg,NA,NA,pleasant,unpleasant,NA,NA,NA,NA,NA,left,2161.19999999925,true,NA,NA,NA,NA,NA
SifsFiwc,3vck0q0pp8rxiiaq9ji6jar3xntn0d,3u8ycdagxttk8zlcgdfpcoi04mkq0c,SifsFiwc,2020-0188,2021-10-17,12:58:40,14:06:22,NA,incomplete,false,true,NA,3,21,NA,gray,n_l_020.jpg,NA,NA,pleasant,unpleasant,NA,NA,NA,NA,NA,left,1529.20000000298,true,NA,NA,NA,NA,NA
SifsFiwc,3vck0q0pp8rxiiaq9ji6jar3xntn0d,3u8ycdagxttk8zlcgdfpcoi04mkq0c,SifsFiwc,2020-0188,2021-10-17,12:58:40,14:06:22,NA,incomplete,false,true,NA,3,22,NA,gray,n_s_020.jpg,NA,NA,unpleasant,pleasant,NA,NA,NA,NA,NA,right,1559.5,true,NA,NA,NA,NA,NA
SifsFiwc,3vck0q0pp8rxiiaq9ji6jar3xntn0d,3u8ycdagxttk8zlcgdfpcoi04mkq0c,SifsFiwc,2020-0188,2021-10-17,12:58:40,14:06:22,NA,incomplete,false,true,NA,3,23,NA,gray,n_s_027.jpg,NA,NA,pleasant,unpleasant,NA,NA,NA,NA,NA,right,1415,true,NA,NA,NA,NA,NA
SifsFiwc,3vck0q0pp8rxiiaq9ji6jar3xntn0d,3u8ycdagxttk8zlcgdfpcoi04mkq0c,SifsFiwc,2020-0188,2021-10-17,12:58:40,14:06:22,NA,incomplete,false,true,NA,3,24,NA,red,m_s_009.jpg,NA,NA,unpleasant,pleasant,NA,NA,NA,NA,NA,right,1582.5,true,NA,NA,NA,NA,NA
SifsFiwc,3vck0q0pp8rxiiaq9ji6jar3xntn0d,3u8ycdagxttk8zlcgdfpcoi04mkq0c,SifsFiwc,2020-0188,2021-10-17,12:58:40,14:06:22,NA,incomplete,false,true,NA,3,25,NA,red,m_l_097.jpg,NA,NA,unpleasant,pleasant,NA,NA,NA,NA,NA,right,1326.19999999925,true,NA,NA,NA,NA,NA
SifsFiwc,3vck0q0pp8rxiiaq9ji6jar3xntn0d,3u8ycdagxttk8zlcgdfpcoi04mkq0c,SifsFiwc,2020-0188,2021-10-17,12:58:40,14:06:22,NA,incomplete,false,true,NA,3,26,NA,red,m_s_096.jpg,NA,NA,unpleasant,pleasant,NA,NA,NA,NA,NA,right,1046.69999999925,true,NA,NA,NA,NA,NA
SifsFiwc,3vck0q0pp8rxiiaq9ji6jar3xntn0d,3u8ycdagxttk8zlcgdfpcoi04mkq0c,SifsFiwc,2020-0188,2021-10-17,12:58:40,14:06:22,NA,incomplete,false,true,NA,3,27,NA,red,n_l_093.jpg,NA,NA,unpleasant,pleasant,NA,NA,NA,NA,NA,right,1989.29999999702,true,NA,NA,NA,NA,NA
SifsFiwc,3vck0q0pp8rxiiaq9ji6jar3xntn0d,3u8ycdagxttk8zlcgdfpcoi04mkq0c,SifsFiwc,2020-0188,2021-10-17,12:58:40,14:06:22,NA,incomplete,false,true,NA,3,28,NA,red,n_l_035.jpg,NA,NA,pleasant,unpleasant,NA,NA,NA,NA,NA,left,1268,true,NA,NA,NA,NA,NA
SifsFiwc,3vck0q0pp8rxiiaq9ji6jar3xntn0d,3u8ycdagxttk8zlcgdfpcoi04mkq0c,SifsFiwc,2020-0188,2021-10-17,12:58:40,14:06:22,NA,incomplete,false,true,NA,3,29,NA,red,m_s_097.jpg,NA,NA,unpleasant,pleasant,NA,NA,NA,NA,NA,right,1908.70000000298,true,NA,NA,NA,NA,NA
SifsFiwc,3vck0q0pp8rxiiaq9ji6jar3xntn0d,3u8ycdagxttk8zlcgdfpcoi04mkq0c,SifsFiwc,2020-0188,2021-10-17,12:58:40,14:06:22,NA,incomplete,false,true,NA,3,30,NA,white,n_l_073.jpg,NA,NA,unpleasant,pleasant,NA,NA,NA,NA,NA,right,1187.40000000224,true,NA,NA,NA,NA,NA
SifsFiwc,3vck0q0pp8rxiiaq9ji6jar3xntn0d,3u8ycdagxttk8zlcgdfpcoi04mkq0c,SifsFiwc,2020-0188,2021-10-17,12:58:40,14:06:22,NA,incomplete,false,true,NA,3,31,NA,white,n_s_099.jpg,NA,NA,pleasant,unpleasant,NA,NA,NA,NA,NA,left,1278.30000000075,true,NA,NA,NA,NA,NA
SifsFiwc,3vck0q0pp8rxiiaq9ji6jar3xntn0d,3u8ycdagxttk8zlcgdfpcoi04mkq0c,SifsFiwc,2020-0188,2021-10-17,12:58:40,14:06:22,NA,incomplete,false,true,NA,3,32,NA,white,m_s_110.jpg,NA,NA,pleasant,unpleasant,NA,NA,NA,NA,NA,right,2242.20000000298,true,NA,NA,NA,NA,NA
SifsFiwc,3vck0q0pp8rxiiaq9ji6jar3xntn0d,3u8ycdagxttk8zlcgdfpcoi04mkq0c,SifsFiwc,2020-0188,2021-10-17,12:58:40,14:06:22,NA,incomplete,false,true,NA,3,33,NA,white,m_l_018.jpg,NA,NA,pleasant,unpleasant,NA,NA,NA,NA,NA,left,1777.5,true,NA,NA,NA,NA,NA
SifsFiwc,3vck0q0pp8rxiiaq9ji6jar3xntn0d,3u8ycdagxttk8zlcgdfpcoi04mkq0c,SifsFiwc,2020-0188,2021-10-17,12:58:40,14:06:22,NA,incomplete,false,true,NA,3,34,NA,white,n_l_074.jpg,NA,NA,pleasant,unpleasant,NA,NA,NA,NA,NA,left,1146.09999999776,true,NA,NA,NA,NA,NA
SifsFiwc,3vck0q0pp8rxiiaq9ji6jar3xntn0d,3u8ycdagxttk8zlcgdfpcoi04mkq0c,SifsFiwc,2020-0188,2021-10-17,12:58:40,14:06:22,NA,incomplete,false,true,NA,3,35,NA,white,m_s_047.jpg,NA,NA,unpleasant,pleasant,NA,NA,NA,NA,NA,right,1938.69999999925,true,NA,NA,NA,NA,NA
SifsFiwc,3vck0q0pp8rxiiaq9ji6jar3xntn0d,3u8ycdagxttk8zlcgdfpcoi04mkq0c,SifsFiwc,2020-0188,2021-10-17,12:58:40,14:06:22,NA,incomplete,false,NA,true,3,0,NA,NA,NA,left,absent,NA,NA,m_l_097.jpg,red,m_s_097.jpg,red,within,NA,NaN,NA,left,1797.699999999255,1,3,1510.300000000745
SifsFiwc,3vck0q0pp8rxiiaq9ji6jar3xntn0d,3u8ycdagxttk8zlcgdfpcoi04mkq0c,SifsFiwc,2020-0188,2021-10-17,12:58:40,14:06:22,NA,incomplete,false,NA,true,3,1,NA,NA,NA,right,absent,NA,NA,m_s_033.jpg,gray,m_l_059.jpg,orange,between,NA,NaN,NA,right,2366.2999999970198,1,1,2173.699999999255
SifsFiwc,3vck0q0pp8rxiiaq9ji6jar3xntn0d,3u8ycdagxttk8zlcgdfpcoi04mkq0c,SifsFiwc,2020-0188,2021-10-17,12:58:40,14:06:22,NA,incomplete,false,NA,true,3,2,NA,NA,NA,right,absent,NA,NA,m_l_115.jpg,orange,n_s_067.jpg,green,between,NA,NaN,NA,left,2757.199999999255,0,1,1077.5
SifsFiwc,3vck0q0pp8rxiiaq9ji6jar3xntn0d,3u8ycdagxttk8zlcgdfpcoi04mkq0c,SifsFiwc,2020-0188,2021-10-17,12:58:40,14:06:22,NA,incomplete,false,NA,true,3,3,NA,NA,NA,right,absent,NA,NA,m_s_096.jpg,red,n_s_020.jpg,gray,between,NA,NaN,NA,left,3148.5,0,2,1325.8999999985099
SifsFiwc,3vck0q0pp8rxiiaq9ji6jar3xntn0d,3u8ycdagxttk8zlcgdfpcoi04mkq0c,SifsFiwc,2020-0188,2021-10-17,12:58:40,14:06:22,NA,incomplete,false,NA,true,3,4,NA,NA,NA,right,absent,NA,NA,n_s_027.jpg,gray,n_s_094.jpg,gray,within,NA,NaN,NA,left,2111.10000000149,0,2,1103.1000000014901
SifsFiwc,3vck0q0pp8rxiiaq9ji6jar3xntn0d,3u8ycdagxttk8zlcgdfpcoi04mkq0c,SifsFiwc,2020-0188,2021-10-17,12:58:40,14:06:22,NA,incomplete,false,NA,true,3,5,NA,NA,NA,right,absent,NA,NA,m_l_023.jpg,blue,m_s_044.jpg,blue,within,NA,NaN,NA,left,2414.10000000149,0,2,894.8000000007451
SifsFiwc,3vck0q0pp8rxiiaq9ji6jar3xntn0d,3u8ycdagxttk8zlcgdfpcoi04mkq0c,SifsFiwc,2020-0188,2021-10-17,12:58:40,14:06:22,NA,incomplete,false,NA,true,3,6,NA,NA,NA,left,absent,NA,NA,m_s_037.jpg,green,n_s_013.jpg,green,within,NA,NaN,NA,right,2597.699999999255,0,1,1167.199999999255
SifsFiwc,3vck0q0pp8rxiiaq9ji6jar3xntn0d,3u8ycdagxttk8zlcgdfpcoi04mkq0c,SifsFiwc,2020-0188,2021-10-17,12:58:40,14:06:22,NA,incomplete,false,NA,true,3,7,NA,NA,NA,right,absent,NA,NA,n_s_045.jpg,orange,m_s_067.jpg,orange,within,NA,NaN,NA,left,2142.39999999851,0,2,1263.4000000022352
SifsFiwc,3vck0q0pp8rxiiaq9ji6jar3xntn0d,3u8ycdagxttk8zlcgdfpcoi04mkq0c,SifsFiwc,2020-0188,2021-10-17,12:58:40,14:06:22,NA,incomplete,false,NA,true,3,8,NA,NA,NA,right,absent,NA,NA,m_l_084.jpg,green,m_s_072.jpg,blue,between,NA,NaN,NA,right,2678.300000000745,1,0,1503
SifsFiwc,3vck0q0pp8rxiiaq9ji6jar3xntn0d,3u8ycdagxttk8zlcgdfpcoi04mkq0c,SifsFiwc,2020-0188,2021-10-17,12:58:40,14:06:22,NA,incomplete,false,NA,true,3,9,NA,NA,NA,left,absent,NA,NA,n_l_035.jpg,red,m_s_110.jpg,white,between,NA,NaN,NA,left,1989.5999999977648,1,3,2071.10000000149
SifsFiwc,3vck0q0pp8rxiiaq9ji6jar3xntn0d,3u8ycdagxttk8zlcgdfpcoi04mkq0c,SifsFiwc,2020-0188,2021-10-17,12:58:40,14:06:22,NA,incomplete,false,NA,true,3,10,NA,NA,NA,right,absent,NA,NA,m_s_047.jpg,white,n_s_099.jpg,white,within,NA,NaN,NA,right,2165.5,1,3,929.5
SifsFiwc,3vck0q0pp8rxiiaq9ji6jar3xntn0d,3u8ycdagxttk8zlcgdfpcoi04mkq0c,SifsFiwc,2020-0188,2021-10-17,12:58:40,14:06:22,NA,incomplete,false,true,NA,4,0,NA,white,n_l_098.jpg,NA,NA,pleasant,unpleasant,NA,NA,NA,NA,NA,left,2110.69999999925,true,NA,NA,NA,NA,NA
SifsFiwc,3vck0q0pp8rxiiaq9ji6jar3xntn0d,3u8ycdagxttk8zlcgdfpcoi04mkq0c,SifsFiwc,2020-0188,2021-10-17,12:58:40,14:06:22,NA,incomplete,false,true,NA,4,1,NA,white,n_s_008.jpg,NA,NA,pleasant,unpleasant,NA,NA,NA,NA,NA,right,2254.19999999925,true,NA,NA,NA,NA,NA
SifsFiwc,3vck0q0pp8rxiiaq9ji6jar3xntn0d,3u8ycdagxttk8zlcgdfpcoi04mkq0c,SifsFiwc,2020-0188,2021-10-17,12:58:40,14:06:22,NA,incomplete,false,true,NA,4,2,NA,white,m_l_054.jpg,NA,NA,unpleasant,pleasant,NA,NA,NA,NA,NA,right,2303.39999999851,true,NA,NA,NA,NA,NA
SifsFiwc,3vck0q0pp8rxiiaq9ji6jar3xntn0d,3u8ycdagxttk8zlcgdfpcoi04mkq0c,SifsFiwc,2020-0188,2021-10-17,12:58:40,14:06:22,NA,incomplete,false,true,NA,4,3,NA,white,n_s_048.jpg,NA,NA,unpleasant,pleasant,NA,NA,NA,NA,NA,right,1580.70000000298,true,NA,NA,NA,NA,NA
SifsFiwc,3vck0q0pp8rxiiaq9ji6jar3xntn0d,3u8ycdagxttk8zlcgdfpcoi04mkq0c,SifsFiwc,2020-0188,2021-10-17,12:58:40,14:06:22,NA,incomplete,false,true,NA,4,4,NA,white,m_l_073.jpg,NA,NA,unpleasant,pleasant,NA,NA,NA,NA,NA,left,1308,true,NA,NA,NA,NA,NA
SifsFiwc,3vck0q0pp8rxiiaq9ji6jar3xntn0d,3u8ycdagxttk8zlcgdfpcoi04mkq0c,SifsFiwc,2020-0188,2021-10-17,12:58:40,14:06:22,NA,incomplete,false,true,NA,4,5,NA,white,m_s_032.jpg,NA,NA,pleasant,unpleasant,NA,NA,NA,NA,NA,left,1469.30000000075,true,NA,NA,NA,NA,NA
SifsFiwc,3vck0q0pp8rxiiaq9ji6jar3xntn0d,3u8ycdagxttk8zlcgdfpcoi04mkq0c,SifsFiwc,2020-0188,2021-10-17,12:58:40,14:06:22,NA,incomplete,false,true,NA,4,6,NA,brown,m_s_075.jpg,NA,NA,unpleasant,pleasant,NA,NA,NA,NA,NA,right,1924.40000000224,true,NA,NA,NA,NA,NA
SifsFiwc,3vck0q0pp8rxiiaq9ji6jar3xntn0d,3u8ycdagxttk8zlcgdfpcoi04mkq0c,SifsFiwc,2020-0188,2021-10-17,12:58:40,14:06:22,NA,incomplete,false,true,NA,4,7,NA,brown,m_l_046.jpg,NA,NA,pleasant,unpleasant,NA,NA,NA,NA,NA,left,1299.30000000075,true,NA,NA,NA,NA,NA
SifsFiwc,3vck0q0pp8rxiiaq9ji6jar3xntn0d,3u8ycdagxttk8zlcgdfpcoi04mkq0c,SifsFiwc,2020-0188,2021-10-17,12:58:40,14:06:22,NA,incomplete,false,true,NA,4,8,NA,brown,m_l_100.jpg,NA,NA,unpleasant,pleasant,NA,NA,NA,NA,NA,right,1953.19999999925,true,NA,NA,NA,NA,NA
SifsFiwc,3vck0q0pp8rxiiaq9ji6jar3xntn0d,3u8ycdagxttk8zlcgdfpcoi04mkq0c,SifsFiwc,2020-0188,2021-10-17,12:58:40,14:06:22,NA,incomplete,false,true,NA,4,9,NA,brown,n_s_037.jpg,NA,NA,unpleasant,pleasant,NA,NA,NA,NA,NA,right,1674.5,true,NA,NA,NA,NA,NA
SifsFiwc,3vck0q0pp8rxiiaq9ji6jar3xntn0d,3u8ycdagxttk8zlcgdfpcoi04mkq0c,SifsFiwc,2020-0188,2021-10-17,12:58:40,14:06:22,NA,incomplete,false,true,NA,4,10,NA,brown,n_l_004.jpg,NA,NA,pleasant,unpleasant,NA,NA,NA,NA,NA,left,1665.89999999851,true,NA,NA,NA,NA,NA
SifsFiwc,3vck0q0pp8rxiiaq9ji6jar3xntn0d,3u8ycdagxttk8zlcgdfpcoi04mkq0c,SifsFiwc,2020-0188,2021-10-17,12:58:40,14:06:22,NA,incomplete,false,true,NA,4,11,NA,brown,n_l_106.jpg,NA,NA,pleasant,unpleasant,NA,NA,NA,NA,NA,left,1442,true,NA,NA,NA,NA,NA
SifsFiwc,3vck0q0pp8rxiiaq9ji6jar3xntn0d,3u8ycdagxttk8zlcgdfpcoi04mkq0c,SifsFiwc,2020-0188,2021-10-17,12:58:40,14:06:22,NA,incomplete,false,true,NA,4,12,NA,yellow,m_s_035.jpg,NA,NA,pleasant,unpleasant,NA,NA,NA,NA,NA,left,1321.30000000075,true,NA,NA,NA,NA,NA
SifsFiwc,3vck0q0pp8rxiiaq9ji6jar3xntn0d,3u8ycdagxttk8zlcgdfpcoi04mkq0c,SifsFiwc,2020-0188,2021-10-17,12:58:40,14:06:22,NA,incomplete,false,true,NA,4,13,NA,yellow,n_l_012.jpg,NA,NA,unpleasant,pleasant,NA,NA,NA,NA,NA,right,1624.19999999925,true,NA,NA,NA,NA,NA
SifsFiwc,3vck0q0pp8rxiiaq9ji6jar3xntn0d,3u8ycdagxttk8zlcgdfpcoi04mkq0c,SifsFiwc,2020-0188,2021-10-17,12:58:40,14:06:22,NA,incomplete,false,true,NA,4,14,NA,yellow,n_l_080.jpg,NA,NA,unpleasant,pleasant,NA,NA,NA,NA,NA,right,1696.80000000075,true,NA,NA,NA,NA,NA
SifsFiwc,3vck0q0pp8rxiiaq9ji6jar3xntn0d,3u8ycdagxttk8zlcgdfpcoi04mkq0c,SifsFiwc,2020-0188,2021-10-17,12:58:40,14:06:22,NA,incomplete,false,true,NA,4,15,NA,yellow,n_l_051.jpg,NA,NA,pleasant,unpleasant,NA,NA,NA,NA,NA,left,1256.59999999776,true,NA,NA,NA,NA,NA
SifsFiwc,3vck0q0pp8rxiiaq9ji6jar3xntn0d,3u8ycdagxttk8zlcgdfpcoi04mkq0c,SifsFiwc,2020-0188,2021-10-17,12:58:40,14:06:22,NA,incomplete,false,true,NA,4,16,NA,yellow,m_s_066.jpg,NA,NA,pleasant,unpleasant,NA,NA,NA,NA,NA,right,1438.90000000224,true,NA,NA,NA,NA,NA
SifsFiwc,3vck0q0pp8rxiiaq9ji6jar3xntn0d,3u8ycdagxttk8zlcgdfpcoi04mkq0c,SifsFiwc,2020-0188,2021-10-17,12:58:40,14:06:22,NA,incomplete,false,true,NA,4,17,NA,yellow,n_s_012.jpg,NA,NA,pleasant,unpleasant,NA,NA,NA,NA,NA,left,1055.20000000298,true,NA,NA,NA,NA,NA
SifsFiwc,3vck0q0pp8rxiiaq9ji6jar3xntn0d,3u8ycdagxttk8zlcgdfpcoi04mkq0c,SifsFiwc,2020-0188,2021-10-17,12:58:40,14:06:22,NA,incomplete,false,true,NA,4,18,NA,blue,n_l_104.jpg,NA,NA,unpleasant,pleasant,NA,NA,NA,NA,NA,right,1548.60000000149,true,NA,NA,NA,NA,NA
SifsFiwc,3vck0q0pp8rxiiaq9ji6jar3xntn0d,3u8ycdagxttk8zlcgdfpcoi04mkq0c,SifsFiwc,2020-0188,2021-10-17,12:58:40,14:06:22,NA,incomplete,false,true,NA,4,19,NA,blue,n_s_115.jpg,NA,NA,unpleasant,pleasant,NA,NA,NA,NA,NA,right,1483.69999999925,true,NA,NA,NA,NA,NA
SifsFiwc,3vck0q0pp8rxiiaq9ji6jar3xntn0d,3u8ycdagxttk8zlcgdfpcoi04mkq0c,SifsFiwc,2020-0188,2021-10-17,12:58:40,14:06:22,NA,incomplete,false,true,NA,4,20,NA,blue,m_l_096.jpg,NA,NA,unpleasant,pleasant,NA,NA,NA,NA,NA,left,1754.10000000149,true,NA,NA,NA,NA,NA
SifsFiwc,3vck0q0pp8rxiiaq9ji6jar3xntn0d,3u8ycdagxttk8zlcgdfpcoi04mkq0c,SifsFiwc,2020-0188,2021-10-17,12:58:40,14:06:22,NA,incomplete,false,true,NA,4,21,NA,blue,m_s_062.jpg,NA,NA,unpleasant,pleasant,NA,NA,NA,NA,NA,right,2058.90000000224,true,NA,NA,NA,NA,NA
SifsFiwc,3vck0q0pp8rxiiaq9ji6jar3xntn0d,3u8ycdagxttk8zlcgdfpcoi04mkq0c,SifsFiwc,2020-0188,2021-10-17,12:58:40,14:06:22,NA,incomplete,false,true,NA,4,22,NA,blue,m_s_007.jpg,NA,NA,pleasant,unpleasant,NA,NA,NA,NA,NA,right,1578.60000000149,true,NA,NA,NA,NA,NA
SifsFiwc,3vck0q0pp8rxiiaq9ji6jar3xntn0d,3u8ycdagxttk8zlcgdfpcoi04mkq0c,SifsFiwc,2020-0188,2021-10-17,12:58:40,14:06:22,NA,incomplete,false,true,NA,4,23,NA,blue,n_l_028.jpg,NA,NA,unpleasant,pleasant,NA,NA,NA,NA,NA,right,1118.30000000075,true,NA,NA,NA,NA,NA
SifsFiwc,3vck0q0pp8rxiiaq9ji6jar3xntn0d,3u8ycdagxttk8zlcgdfpcoi04mkq0c,SifsFiwc,2020-0188,2021-10-17,12:58:40,14:06:22,NA,incomplete,false,true,NA,4,24,NA,black,m_l_025.jpg,NA,NA,pleasant,unpleasant,NA,NA,NA,NA,NA,left,1312.89999999851,true,NA,NA,NA,NA,NA
SifsFiwc,3vck0q0pp8rxiiaq9ji6jar3xntn0d,3u8ycdagxttk8zlcgdfpcoi04mkq0c,SifsFiwc,2020-0188,2021-10-17,12:58:40,14:06:22,NA,incomplete,false,true,NA,4,25,NA,black,n_s_004.jpg,NA,NA,unpleasant,pleasant,NA,NA,NA,NA,NA,left,1547.10000000149,true,NA,NA,NA,NA,NA
SifsFiwc,3vck0q0pp8rxiiaq9ji6jar3xntn0d,3u8ycdagxttk8zlcgdfpcoi04mkq0c,SifsFiwc,2020-0188,2021-10-17,12:58:40,14:06:22,NA,incomplete,false,true,NA,4,26,NA,black,m_l_008.jpg,NA,NA,pleasant,unpleasant,NA,NA,NA,NA,NA,left,1112,true,NA,NA,NA,NA,NA
SifsFiwc,3vck0q0pp8rxiiaq9ji6jar3xntn0d,3u8ycdagxttk8zlcgdfpcoi04mkq0c,SifsFiwc,2020-0188,2021-10-17,12:58:40,14:06:22,NA,incomplete,false,true,NA,4,27,NA,black,n_l_029.jpg,NA,NA,pleasant,unpleasant,NA,NA,NA,NA,NA,left,3326.89999999851,true,NA,NA,NA,NA,NA
SifsFiwc,3vck0q0pp8rxiiaq9ji6jar3xntn0d,3u8ycdagxttk8zlcgdfpcoi04mkq0c,SifsFiwc,2020-0188,2021-10-17,12:58:40,14:06:22,NA,incomplete,false,true,NA,4,28,NA,black,n_s_001.jpg,NA,NA,unpleasant,pleasant,NA,NA,NA,NA,NA,right,1374.69999999925,true,NA,NA,NA,NA,NA
SifsFiwc,3vck0q0pp8rxiiaq9ji6jar3xntn0d,3u8ycdagxttk8zlcgdfpcoi04mkq0c,SifsFiwc,2020-0188,2021-10-17,12:58:40,14:06:22,NA,incomplete,false,true,NA,4,29,NA,black,n_s_106.jpg,NA,NA,unpleasant,pleasant,NA,NA,NA,NA,NA,right,3007.30000000075,true,NA,NA,NA,NA,NA
SifsFiwc,3vck0q0pp8rxiiaq9ji6jar3xntn0d,3u8ycdagxttk8zlcgdfpcoi04mkq0c,SifsFiwc,2020-0188,2021-10-17,12:58:40,14:06:22,NA,incomplete,false,true,NA,4,30,NA,orange,m_s_107.jpg,NA,NA,unpleasant,pleasant,NA,NA,NA,NA,NA,right,1478,true,NA,NA,NA,NA,NA
SifsFiwc,3vck0q0pp8rxiiaq9ji6jar3xntn0d,3u8ycdagxttk8zlcgdfpcoi04mkq0c,SifsFiwc,2020-0188,2021-10-17,12:58:40,14:06:22,NA,incomplete,false,true,NA,4,31,NA,orange,n_l_033.jpg,NA,NA,unpleasant,pleasant,NA,NA,NA,NA,NA,left,1244.19999999925,true,NA,NA,NA,NA,NA
SifsFiwc,3vck0q0pp8rxiiaq9ji6jar3xntn0d,3u8ycdagxttk8zlcgdfpcoi04mkq0c,SifsFiwc,2020-0188,2021-10-17,12:58:40,14:06:22,NA,incomplete,false,true,NA,4,32,NA,orange,m_s_115.jpg,NA,NA,pleasant,unpleasant,NA,NA,NA,NA,NA,left,1405.40000000224,true,NA,NA,NA,NA,NA
SifsFiwc,3vck0q0pp8rxiiaq9ji6jar3xntn0d,3u8ycdagxttk8zlcgdfpcoi04mkq0c,SifsFiwc,2020-0188,2021-10-17,12:58:40,14:06:22,NA,incomplete,false,true,NA,4,33,NA,orange,n_s_039.jpg,NA,NA,unpleasant,pleasant,NA,NA,NA,NA,NA,right,1577.89999999851,true,NA,NA,NA,NA,NA
SifsFiwc,3vck0q0pp8rxiiaq9ji6jar3xntn0d,3u8ycdagxttk8zlcgdfpcoi04mkq0c,SifsFiwc,2020-0188,2021-10-17,12:58:40,14:06:22,NA,incomplete,false,true,NA,4,34,NA,orange,n_s_075.jpg,NA,NA,pleasant,unpleasant,NA,NA,NA,NA,NA,right,1746.79999999702,true,NA,NA,NA,NA,NA
SifsFiwc,3vck0q0pp8rxiiaq9ji6jar3xntn0d,3u8ycdagxttk8zlcgdfpcoi04mkq0c,SifsFiwc,2020-0188,2021-10-17,12:58:40,14:06:22,NA,incomplete,false,true,NA,4,35,NA,orange,n_s_023.jpg,NA,NA,pleasant,unpleasant,NA,NA,NA,NA,NA,left,1179.59999999776,true,NA,NA,NA,NA,NA
SifsFiwc,3vck0q0pp8rxiiaq9ji6jar3xntn0d,3u8ycdagxttk8zlcgdfpcoi04mkq0c,SifsFiwc,2020-0188,2021-10-17,12:58:40,14:06:22,NA,incomplete,false,NA,true,4,0,NA,NA,NA,right,present,NA,NA,m_s_032.jpg,white,n_s_008.jpg,white,within,NA,NaN,NA,left,4034.60000000149,0,0,1403.5999999977648
SifsFiwc,3vck0q0pp8rxiiaq9ji6jar3xntn0d,3u8ycdagxttk8zlcgdfpcoi04mkq0c,SifsFiwc,2020-0188,2021-10-17,12:58:40,14:06:22,NA,incomplete,false,NA,true,4,1,NA,NA,NA,left,present,NA,NA,n_s_004.jpg,black,n_s_106.jpg,black,within,NA,NaN,NA,left,3766.89999999851,1,1,1196.699999999255
SifsFiwc,3vck0q0pp8rxiiaq9ji6jar3xntn0d,3u8ycdagxttk8zlcgdfpcoi04mkq0c,SifsFiwc,2020-0188,2021-10-17,12:58:40,14:06:22,NA,incomplete,false,NA,true,4,2,NA,NA,NA,left,present,NA,NA,n_l_004.jpg,brown,n_l_080.jpg,yellow,between,NA,NaN,NA,left,3138.800000000745,1,1,1044.699999999255
SifsFiwc,3vck0q0pp8rxiiaq9ji6jar3xntn0d,3u8ycdagxttk8zlcgdfpcoi04mkq0c,SifsFiwc,2020-0188,2021-10-17,12:58:40,14:06:22,NA,incomplete,false,NA,true,4,3,NA,NA,NA,right,present,NA,NA,m_l_100.jpg,brown,m_l_073.jpg,white,between,NA,NaN,NA,right,4998.300000000745,1,1,1282.7999999970198
SifsFiwc,3vck0q0pp8rxiiaq9ji6jar3xntn0d,3u8ycdagxttk8zlcgdfpcoi04mkq0c,SifsFiwc,2020-0188,2021-10-17,12:58:40,14:06:22,NA,incomplete,false,NA,true,4,4,NA,NA,NA,left,present,NA,NA,m_s_007.jpg,blue,m_l_008.jpg,black,between,NA,NaN,NA,right,2253.199999999255,0,2,1188.5
SifsFiwc,3vck0q0pp8rxiiaq9ji6jar3xntn0d,3u8ycdagxttk8zlcgdfpcoi04mkq0c,SifsFiwc,2020-0188,2021-10-17,12:58:40,14:06:22,NA,incomplete,false,NA,true,4,5,NA,NA,NA,right,present,NA,NA,m_s_115.jpg,orange,n_s_001.jpg,black,between,NA,NaN,NA,right,2142.699999999255,1,2,1471
SifsFiwc,3vck0q0pp8rxiiaq9ji6jar3xntn0d,3u8ycdagxttk8zlcgdfpcoi04mkq0c,SifsFiwc,2020-0188,2021-10-17,12:58:40,14:06:22,NA,incomplete,false,NA,true,4,6,NA,NA,NA,right,present,NA,NA,m_l_096.jpg,blue,m_s_066.jpg,yellow,between,NA,NaN,NA,right,4037.599999997765,1,1,1046.300000000745
SifsFiwc,3vck0q0pp8rxiiaq9ji6jar3xntn0d,3u8ycdagxttk8zlcgdfpcoi04mkq0c,SifsFiwc,2020-0188,2021-10-17,12:58:40,14:06:22,NA,incomplete,false,NA,true,4,7,NA,NA,NA,left,present,NA,NA,n_l_033.jpg,orange,n_s_023.jpg,orange,within,NA,NaN,NA,right,3223.39999999851,0,3,1436.7000000029802
SifsFiwc,3vck0q0pp8rxiiaq9ji6jar3xntn0d,3u8ycdagxttk8zlcgdfpcoi04mkq0c,SifsFiwc,2020-0188,2021-10-17,12:58:40,14:06:22,NA,incomplete,false,NA,true,4,8,NA,NA,NA,left,present,NA,NA,n_l_012.jpg,yellow,n_s_012.jpg,yellow,within,NA,NaN,NA,left,5622.300000000745,1,0,1173.300000000745
SifsFiwc,3vck0q0pp8rxiiaq9ji6jar3xntn0d,3u8ycdagxttk8zlcgdfpcoi04mkq0c,SifsFiwc,2020-0188,2021-10-17,12:58:40,14:06:22,NA,incomplete,false,NA,true,4,9,NA,NA,NA,right,present,NA,NA,n_l_106.jpg,brown,m_l_046.jpg,brown,within,NA,NaN,NA,left,2630,0,1,932.3999999985099
SifsFiwc,3vck0q0pp8rxiiaq9ji6jar3xntn0d,3u8ycdagxttk8zlcgdfpcoi04mkq0c,SifsFiwc,2020-0188,2021-10-17,12:58:40,14:06:22,NA,incomplete,false,NA,true,4,10,NA,NA,NA,right,present,NA,NA,n_l_028.jpg,blue,n_s_115.jpg,blue,within,NA,NaN,NA,left,2709.10000000149,0,3,1254
SifsFiwc,3vck0q0pp8rxiiaq9ji6jar3xntn0d,3u8ycdagxttk8zlcgdfpcoi04mkq0c,SifsFiwc,2020-0188,2021-10-17,12:58:40,14:06:22,NA,incomplete,false,true,NA,5,0,NA,red,m_l_024.jpg,NA,NA,unpleasant,pleasant,NA,NA,NA,NA,NA,right,3210.40000000224,true,NA,NA,NA,NA,NA
SifsFiwc,3vck0q0pp8rxiiaq9ji6jar3xntn0d,3u8ycdagxttk8zlcgdfpcoi04mkq0c,SifsFiwc,2020-0188,2021-10-17,12:58:40,14:06:22,NA,incomplete,false,true,NA,5,1,NA,red,m_s_011.jpg,NA,NA,unpleasant,pleasant,NA,NA,NA,NA,NA,left,2578.10000000149,true,NA,NA,NA,NA,NA
SifsFiwc,3vck0q0pp8rxiiaq9ji6jar3xntn0d,3u8ycdagxttk8zlcgdfpcoi04mkq0c,SifsFiwc,2020-0188,2021-10-17,12:58:40,14:06:22,NA,incomplete,false,true,NA,5,2,NA,red,n_s_072.jpg,NA,NA,pleasant,unpleasant,NA,NA,NA,NA,NA,right,2250,true,NA,NA,NA,NA,NA
SifsFiwc,3vck0q0pp8rxiiaq9ji6jar3xntn0d,3u8ycdagxttk8zlcgdfpcoi04mkq0c,SifsFiwc,2020-0188,2021-10-17,12:58:40,14:06:22,NA,incomplete,false,true,NA,5,3,NA,red,m_l_109.jpg,NA,NA,unpleasant,pleasant,NA,NA,NA,NA,NA,left,1985.59999999776,true,NA,NA,NA,NA,NA
SifsFiwc,3vck0q0pp8rxiiaq9ji6jar3xntn0d,3u8ycdagxttk8zlcgdfpcoi04mkq0c,SifsFiwc,2020-0188,2021-10-17,12:58:40,14:06:22,NA,incomplete,false,true,NA,5,4,NA,red,n_s_112.jpg,NA,NA,pleasant,unpleasant,NA,NA,NA,NA,NA,left,2176.80000000075,true,NA,NA,NA,NA,NA
SifsFiwc,3vck0q0pp8rxiiaq9ji6jar3xntn0d,3u8ycdagxttk8zlcgdfpcoi04mkq0c,SifsFiwc,2020-0188,2021-10-17,12:58:40,14:06:22,NA,incomplete,false,true,NA,5,5,NA,red,n_l_099.jpg,NA,NA,unpleasant,pleasant,NA,NA,NA,NA,NA,left,2232.90000000224,true,NA,NA,NA,NA,NA
SifsFiwc,3vck0q0pp8rxiiaq9ji6jar3xntn0d,3u8ycdagxttk8zlcgdfpcoi04mkq0c,SifsFiwc,2020-0188,2021-10-17,12:58:40,14:06:22,NA,incomplete,false,true,NA,5,6,NA,green,m_l_006.jpg,NA,NA,pleasant,unpleasant,NA,NA,NA,NA,NA,left,2312.39999999851,true,NA,NA,NA,NA,NA
SifsFiwc,3vck0q0pp8rxiiaq9ji6jar3xntn0d,3u8ycdagxttk8zlcgdfpcoi04mkq0c,SifsFiwc,2020-0188,2021-10-17,12:58:40,14:06:22,NA,incomplete,false,true,NA,5,7,NA,green,m_s_068.jpg,NA,NA,pleasant,unpleasant,NA,NA,NA,NA,NA,left,1670.90000000224,true,NA,NA,NA,NA,NA
SifsFiwc,3vck0q0pp8rxiiaq9ji6jar3xntn0d,3u8ycdagxttk8zlcgdfpcoi04mkq0c,SifsFiwc,2020-0188,2021-10-17,12:58:40,14:06:22,NA,incomplete,false,true,NA,5,8,NA,green,n_l_017.jpg,NA,NA,pleasant,unpleasant,NA,NA,NA,NA,NA,left,1759.40000000224,true,NA,NA,NA,NA,NA
SifsFiwc,3vck0q0pp8rxiiaq9ji6jar3xntn0d,3u8ycdagxttk8zlcgdfpcoi04mkq0c,SifsFiwc,2020-0188,2021-10-17,12:58:40,14:06:22,NA,incomplete,false,true,NA,5,9,NA,green,n_l_040.jpg,NA,NA,unpleasant,pleasant,NA,NA,NA,NA,NA,right,1800.69999999925,true,NA,NA,NA,NA,NA
SifsFiwc,3vck0q0pp8rxiiaq9ji6jar3xntn0d,3u8ycdagxttk8zlcgdfpcoi04mkq0c,SifsFiwc,2020-0188,2021-10-17,12:58:40,14:06:22,NA,incomplete,false,true,NA,5,10,NA,green,m_s_109.jpg,NA,NA,unpleasant,pleasant,NA,NA,NA,NA,NA,right,1071.29999999702,true,NA,NA,NA,NA,NA
SifsFiwc,3vck0q0pp8rxiiaq9ji6jar3xntn0d,3u8ycdagxttk8zlcgdfpcoi04mkq0c,SifsFiwc,2020-0188,2021-10-17,12:58:40,14:06:22,NA,incomplete,false,true,NA,5,11,NA,green,n_s_111.jpg,NA,NA,unpleasant,pleasant,NA,NA,NA,NA,NA,right,2093.19999999925,true,NA,NA,NA,NA,NA
SifsFiwc,3vck0q0pp8rxiiaq9ji6jar3xntn0d,3u8ycdagxttk8zlcgdfpcoi04mkq0c,SifsFiwc,2020-0188,2021-10-17,12:58:40,14:06:22,NA,incomplete,false,true,NA,5,12,NA,orange,m_s_021.jpg,NA,NA,pleasant,unpleasant,NA,NA,NA,NA,NA,right,1892.40000000224,true,NA,NA,NA,NA,NA
SifsFiwc,3vck0q0pp8rxiiaq9ji6jar3xntn0d,3u8ycdagxttk8zlcgdfpcoi04mkq0c,SifsFiwc,2020-0188,2021-10-17,12:58:40,14:06:22,NA,incomplete,false,true,NA,5,13,NA,orange,m_s_014.jpg,NA,NA,unpleasant,pleasant,NA,NA,NA,NA,NA,right,2324,true,NA,NA,NA,NA,NA
SifsFiwc,3vck0q0pp8rxiiaq9ji6jar3xntn0d,3u8ycdagxttk8zlcgdfpcoi04mkq0c,SifsFiwc,2020-0188,2021-10-17,12:58:40,14:06:22,NA,incomplete,false,true,NA,5,14,NA,orange,n_s_026.jpg,NA,NA,unpleasant,pleasant,NA,NA,NA,NA,NA,left,1308.30000000075,true,NA,NA,NA,NA,NA
SifsFiwc,3vck0q0pp8rxiiaq9ji6jar3xntn0d,3u8ycdagxttk8zlcgdfpcoi04mkq0c,SifsFiwc,2020-0188,2021-10-17,12:58:40,14:06:22,NA,incomplete,false,true,NA,5,15,NA,orange,n_l_018.jpg,NA,NA,unpleasant,pleasant,NA,NA,NA,NA,NA,right,1403.39999999851,true,NA,NA,NA,NA,NA
SifsFiwc,3vck0q0pp8rxiiaq9ji6jar3xntn0d,3u8ycdagxttk8zlcgdfpcoi04mkq0c,SifsFiwc,2020-0188,2021-10-17,12:58:40,14:06:22,NA,incomplete,false,true,NA,5,16,NA,orange,m_s_061.jpg,NA,NA,unpleasant,pleasant,NA,NA,NA,NA,NA,right,1602,true,NA,NA,NA,NA,NA
SifsFiwc,3vck0q0pp8rxiiaq9ji6jar3xntn0d,3u8ycdagxttk8zlcgdfpcoi04mkq0c,SifsFiwc,2020-0188,2021-10-17,12:58:40,14:06:22,NA,incomplete,false,true,NA,5,17,NA,orange,m_s_046.jpg,NA,NA,unpleasant,pleasant,NA,NA,NA,NA,NA,right,1825.80000000075,true,NA,NA,NA,NA,NA
SifsFiwc,3vck0q0pp8rxiiaq9ji6jar3xntn0d,3u8ycdagxttk8zlcgdfpcoi04mkq0c,SifsFiwc,2020-0188,2021-10-17,12:58:40,14:06:22,NA,incomplete,false,true,NA,5,18,NA,gray,m_s_056.jpg,NA,NA,pleasant,unpleasant,NA,NA,NA,NA,NA,right,2313.10000000149,true,NA,NA,NA,NA,NA
SifsFiwc,3vck0q0pp8rxiiaq9ji6jar3xntn0d,3u8ycdagxttk8zlcgdfpcoi04mkq0c,SifsFiwc,2020-0188,2021-10-17,12:58:40,14:06:22,NA,incomplete,false,true,NA,5,19,NA,gray,m_l_026.jpg,NA,NA,pleasant,unpleasant,NA,NA,NA,NA,NA,left,1209.10000000149,true,NA,NA,NA,NA,NA
SifsFiwc,3vck0q0pp8rxiiaq9ji6jar3xntn0d,3u8ycdagxttk8zlcgdfpcoi04mkq0c,SifsFiwc,2020-0188,2021-10-17,12:58:40,14:06:22,NA,incomplete,false,true,NA,5,20,NA,gray,m_s_064.jpg,NA,NA,unpleasant,pleasant,NA,NA,NA,NA,NA,left,2537,true,NA,NA,NA,NA,NA
SifsFiwc,3vck0q0pp8rxiiaq9ji6jar3xntn0d,3u8ycdagxttk8zlcgdfpcoi04mkq0c,SifsFiwc,2020-0188,2021-10-17,12:58:40,14:06:22,NA,incomplete,false,true,NA,5,21,NA,gray,n_l_048.jpg,NA,NA,pleasant,unpleasant,NA,NA,NA,NA,NA,left,1295.60000000149,true,NA,NA,NA,NA,NA
SifsFiwc,3vck0q0pp8rxiiaq9ji6jar3xntn0d,3u8ycdagxttk8zlcgdfpcoi04mkq0c,SifsFiwc,2020-0188,2021-10-17,12:58:40,14:06:22,NA,incomplete,false,true,NA,5,22,NA,gray,m_s_004.jpg,NA,NA,pleasant,unpleasant,NA,NA,NA,NA,NA,left,2351,true,NA,NA,NA,NA,NA
SifsFiwc,3vck0q0pp8rxiiaq9ji6jar3xntn0d,3u8ycdagxttk8zlcgdfpcoi04mkq0c,SifsFiwc,2020-0188,2021-10-17,12:58:40,14:06:22,NA,incomplete,false,true,NA,5,23,NA,gray,n_s_114.jpg,NA,NA,unpleasant,pleasant,NA,NA,NA,NA,NA,left,1758.60000000149,true,NA,NA,NA,NA,NA
SifsFiwc,3vck0q0pp8rxiiaq9ji6jar3xntn0d,3u8ycdagxttk8zlcgdfpcoi04mkq0c,SifsFiwc,2020-0188,2021-10-17,12:58:40,14:06:22,NA,incomplete,false,true,NA,5,24,NA,purple,n_l_083.jpg,NA,NA,unpleasant,pleasant,NA,NA,NA,NA,NA,right,1613.5,true,NA,NA,NA,NA,NA
SifsFiwc,3vck0q0pp8rxiiaq9ji6jar3xntn0d,3u8ycdagxttk8zlcgdfpcoi04mkq0c,SifsFiwc,2020-0188,2021-10-17,12:58:40,14:06:22,NA,incomplete,false,true,NA,5,25,NA,purple,n_s_055.jpg,NA,NA,unpleasant,pleasant,NA,NA,NA,NA,NA,left,2060.10000000149,true,NA,NA,NA,NA,NA
SifsFiwc,3vck0q0pp8rxiiaq9ji6jar3xntn0d,3u8ycdagxttk8zlcgdfpcoi04mkq0c,SifsFiwc,2020-0188,2021-10-17,12:58:40,14:06:22,NA,incomplete,false,true,NA,5,26,NA,purple,n_l_034.jpg,NA,NA,unpleasant,pleasant,NA,NA,NA,NA,NA,right,1797.80000000075,true,NA,NA,NA,NA,NA
SifsFiwc,3vck0q0pp8rxiiaq9ji6jar3xntn0d,3u8ycdagxttk8zlcgdfpcoi04mkq0c,SifsFiwc,2020-0188,2021-10-17,12:58:40,14:06:22,NA,incomplete,false,true,NA,5,27,NA,purple,m_s_088.jpg,NA,NA,unpleasant,pleasant,NA,NA,NA,NA,NA,right,1836.90000000224,true,NA,NA,NA,NA,NA
SifsFiwc,3vck0q0pp8rxiiaq9ji6jar3xntn0d,3u8ycdagxttk8zlcgdfpcoi04mkq0c,SifsFiwc,2020-0188,2021-10-17,12:58:40,14:06:22,NA,incomplete,false,true,NA,5,28,NA,purple,m_s_020.jpg,NA,NA,unpleasant,pleasant,NA,NA,NA,NA,NA,right,1756.60000000149,true,NA,NA,NA,NA,NA
SifsFiwc,3vck0q0pp8rxiiaq9ji6jar3xntn0d,3u8ycdagxttk8zlcgdfpcoi04mkq0c,SifsFiwc,2020-0188,2021-10-17,12:58:40,14:06:22,NA,incomplete,false,true,NA,5,29,NA,purple,m_l_058.jpg,NA,NA,pleasant,unpleasant,NA,NA,NA,NA,NA,right,1739,true,NA,NA,NA,NA,NA
SifsFiwc,3vck0q0pp8rxiiaq9ji6jar3xntn0d,3u8ycdagxttk8zlcgdfpcoi04mkq0c,SifsFiwc,2020-0188,2021-10-17,12:58:40,14:06:22,NA,incomplete,false,true,NA,5,30,NA,blue,m_l_101.jpg,NA,NA,unpleasant,pleasant,NA,NA,NA,NA,NA,left,1401.60000000149,true,NA,NA,NA,NA,NA
SifsFiwc,3vck0q0pp8rxiiaq9ji6jar3xntn0d,3u8ycdagxttk8zlcgdfpcoi04mkq0c,SifsFiwc,2020-0188,2021-10-17,12:58:40,14:06:22,NA,incomplete,false,true,NA,5,31,NA,blue,n_l_005.jpg,NA,NA,pleasant,unpleasant,NA,NA,NA,NA,NA,left,1218.10000000149,true,NA,NA,NA,NA,NA
SifsFiwc,3vck0q0pp8rxiiaq9ji6jar3xntn0d,3u8ycdagxttk8zlcgdfpcoi04mkq0c,SifsFiwc,2020-0188,2021-10-17,12:58:40,14:06:22,NA,incomplete,false,true,NA,5,32,NA,blue,m_s_028.jpg,NA,NA,pleasant,unpleasant,NA,NA,NA,NA,NA,left,1785.39999999851,true,NA,NA,NA,NA,NA
SifsFiwc,3vck0q0pp8rxiiaq9ji6jar3xntn0d,3u8ycdagxttk8zlcgdfpcoi04mkq0c,SifsFiwc,2020-0188,2021-10-17,12:58:40,14:06:22,NA,incomplete,false,true,NA,5,33,NA,blue,n_l_058.jpg,NA,NA,pleasant,unpleasant,NA,NA,NA,NA,NA,right,2097.29999999702,true,NA,NA,NA,NA,NA
SifsFiwc,3vck0q0pp8rxiiaq9ji6jar3xntn0d,3u8ycdagxttk8zlcgdfpcoi04mkq0c,SifsFiwc,2020-0188,2021-10-17,12:58:40,14:06:22,NA,incomplete,false,true,NA,5,34,NA,blue,m_s_055.jpg,NA,NA,pleasant,unpleasant,NA,NA,NA,NA,NA,left,1449.5,true,NA,NA,NA,NA,NA
SifsFiwc,3vck0q0pp8rxiiaq9ji6jar3xntn0d,3u8ycdagxttk8zlcgdfpcoi04mkq0c,SifsFiwc,2020-0188,2021-10-17,12:58:40,14:06:22,NA,incomplete,false,true,NA,5,35,NA,blue,n_l_026.jpg,NA,NA,pleasant,unpleasant,NA,NA,NA,NA,NA,left,1640.29999999702,true,NA,NA,NA,NA,NA
SifsFiwc,3vck0q0pp8rxiiaq9ji6jar3xntn0d,3u8ycdagxttk8zlcgdfpcoi04mkq0c,SifsFiwc,2020-0188,2021-10-17,12:58:40,14:06:22,NA,incomplete,false,NA,true,5,0,NA,NA,NA,left,present,NA,NA,n_l_005.jpg,blue,n_l_026.jpg,blue,within,NA,NaN,NA,left,3546.10000000149,1,2,1363.6000000014901
SifsFiwc,3vck0q0pp8rxiiaq9ji6jar3xntn0d,3u8ycdagxttk8zlcgdfpcoi04mkq0c,SifsFiwc,2020-0188,2021-10-17,12:58:40,14:06:22,NA,incomplete,false,NA,true,5,1,NA,NA,NA,right,present,NA,NA,n_s_114.jpg,gray,m_l_026.jpg,gray,within,NA,NaN,NA,left,2842.099999997765,0,1,1299.8999999985099
SifsFiwc,3vck0q0pp8rxiiaq9ji6jar3xntn0d,3u8ycdagxttk8zlcgdfpcoi04mkq0c,SifsFiwc,2020-0188,2021-10-17,12:58:40,14:06:22,NA,incomplete,false,NA,true,5,2,NA,NA,NA,left,present,NA,NA,n_s_055.jpg,purple,m_l_058.jpg,purple,within,NA,NaN,NA,right,3043.199999999255,0,2,1334.4000000022352
SifsFiwc,3vck0q0pp8rxiiaq9ji6jar3xntn0d,3u8ycdagxttk8zlcgdfpcoi04mkq0c,SifsFiwc,2020-0188,2021-10-17,12:58:40,14:06:22,NA,incomplete,false,NA,true,5,3,NA,NA,NA,left,present,NA,NA,n_s_112.jpg,red,n_l_017.jpg,green,between,NA,NaN,NA,left,1935.199999999255,1,2,1237.7999999970198
SifsFiwc,3vck0q0pp8rxiiaq9ji6jar3xntn0d,3u8ycdagxttk8zlcgdfpcoi04mkq0c,SifsFiwc,2020-0188,2021-10-17,12:58:40,14:06:22,NA,incomplete,false,NA,true,5,4,NA,NA,NA,left,present,NA,NA,m_s_061.jpg,orange,m_s_064.jpg,gray,between,NA,NaN,NA,left,1717.300000000745,1,3,1726.3999999985099
SifsFiwc,3vck0q0pp8rxiiaq9ji6jar3xntn0d,3u8ycdagxttk8zlcgdfpcoi04mkq0c,SifsFiwc,2020-0188,2021-10-17,12:58:40,14:06:22,NA,incomplete,false,NA,true,5,5,NA,NA,NA,right,present,NA,NA,m_s_046.jpg,orange,m_s_014.jpg,orange,within,NA,NaN,NA,left,1942.300000000745,0,1,1446.6000000014901
SifsFiwc,3vck0q0pp8rxiiaq9ji6jar3xntn0d,3u8ycdagxttk8zlcgdfpcoi04mkq0c,SifsFiwc,2020-0188,2021-10-17,12:58:40,14:06:22,NA,incomplete,false,NA,true,5,6,NA,NA,NA,right,present,NA,NA,n_s_111.jpg,green,m_s_068.jpg,green,within,NA,NaN,NA,left,2969.89999999851,0,2,855.2000000029802
SifsFiwc,3vck0q0pp8rxiiaq9ji6jar3xntn0d,3u8ycdagxttk8zlcgdfpcoi04mkq0c,SifsFiwc,2020-0188,2021-10-17,12:58:40,14:06:22,NA,incomplete,false,NA,true,5,7,NA,NA,NA,left,present,NA,NA,m_s_011.jpg,red,n_l_099.jpg,red,within,NA,NaN,NA,left,2276.39999999851,1,3,917.8000000007451
SifsFiwc,3vck0q0pp8rxiiaq9ji6jar3xntn0d,3u8ycdagxttk8zlcgdfpcoi04mkq0c,SifsFiwc,2020-0188,2021-10-17,12:58:40,14:06:22,NA,incomplete,false,NA,true,5,8,NA,NA,NA,right,present,NA,NA,m_s_028.jpg,blue,m_s_020.jpg,purple,between,NA,NaN,NA,right,3798,1,3,709.6999999992549
SifsFiwc,3vck0q0pp8rxiiaq9ji6jar3xntn0d,3u8ycdagxttk8zlcgdfpcoi04mkq0c,SifsFiwc,2020-0188,2021-10-17,12:58:40,14:06:22,NA,incomplete,false,NA,true,5,9,NA,NA,NA,left,present,NA,NA,m_s_004.jpg,gray,n_l_034.jpg,purple,between,NA,NaN,NA,left,1990.1000000014901,1,0,1859.6000000014901
SifsFiwc,3vck0q0pp8rxiiaq9ji6jar3xntn0d,3u8ycdagxttk8zlcgdfpcoi04mkq0c,SifsFiwc,2020-0188,2021-10-17,12:58:40,14:06:22,NA,incomplete,false,NA,true,5,10,NA,NA,NA,right,present,NA,NA,n_s_026.jpg,orange,m_s_109.jpg,green,between,NA,NaN,NA,right,1997.5999999977648,1,1,1231.199999999255
SifsFiwc,3vck0q0pp8rxiiaq9ji6jar3xntn0d,3u8ycdagxttk8zlcgdfpcoi04mkq0c,SifsFiwc,2020-0188,2021-10-17,12:58:40,14:06:22,NA,incomplete,false,true,NA,6,0,NA,purple,n_l_045.jpg,NA,NA,pleasant,unpleasant,NA,NA,NA,NA,NA,left,2480.5,true,NA,NA,NA,NA,NA
SifsFiwc,3vck0q0pp8rxiiaq9ji6jar3xntn0d,3u8ycdagxttk8zlcgdfpcoi04mkq0c,SifsFiwc,2020-0188,2021-10-17,12:58:40,14:06:22,NA,incomplete,false,true,NA,6,1,NA,purple,n_s_082.jpg,NA,NA,pleasant,unpleasant,NA,NA,NA,NA,NA,right,2519.59999999776,true,NA,NA,NA,NA,NA
SifsFiwc,3vck0q0pp8rxiiaq9ji6jar3xntn0d,3u8ycdagxttk8zlcgdfpcoi04mkq0c,SifsFiwc,2020-0188,2021-10-17,12:58:40,14:06:22,NA,incomplete,false,true,NA,6,2,NA,purple,m_l_057.jpg,NA,NA,pleasant,unpleasant,NA,NA,NA,NA,NA,right,2135.5,true,NA,NA,NA,NA,NA
SifsFiwc,3vck0q0pp8rxiiaq9ji6jar3xntn0d,3u8ycdagxttk8zlcgdfpcoi04mkq0c,SifsFiwc,2020-0188,2021-10-17,12:58:40,14:06:22,NA,incomplete,false,true,NA,6,3,NA,purple,n_l_032.jpg,NA,NA,unpleasant,pleasant,NA,NA,NA,NA,NA,left,2403.79999999702,true,NA,NA,NA,NA,NA
SifsFiwc,3vck0q0pp8rxiiaq9ji6jar3xntn0d,3u8ycdagxttk8zlcgdfpcoi04mkq0c,SifsFiwc,2020-0188,2021-10-17,12:58:40,14:06:22,NA,incomplete,false,true,NA,6,4,NA,purple,n_l_056.jpg,NA,NA,pleasant,unpleasant,NA,NA,NA,NA,NA,left,1925.40000000224,true,NA,NA,NA,NA,NA
SifsFiwc,3vck0q0pp8rxiiaq9ji6jar3xntn0d,3u8ycdagxttk8zlcgdfpcoi04mkq0c,SifsFiwc,2020-0188,2021-10-17,12:58:40,14:06:22,NA,incomplete,false,true,NA,6,5,NA,purple,n_s_086.jpg,NA,NA,pleasant,unpleasant,NA,NA,NA,NA,NA,right,1221.5,true,NA,NA,NA,NA,NA
SifsFiwc,3vck0q0pp8rxiiaq9ji6jar3xntn0d,3u8ycdagxttk8zlcgdfpcoi04mkq0c,SifsFiwc,2020-0188,2021-10-17,12:58:40,14:06:22,NA,incomplete,false,true,NA,6,6,NA,gray,n_l_116.jpg,NA,NA,unpleasant,pleasant,NA,NA,NA,NA,NA,right,2659.80000000075,true,NA,NA,NA,NA,NA
SifsFiwc,3vck0q0pp8rxiiaq9ji6jar3xntn0d,3u8ycdagxttk8zlcgdfpcoi04mkq0c,SifsFiwc,2020-0188,2021-10-17,12:58:40,14:06:22,NA,incomplete,false,true,NA,6,7,NA,gray,n_l_092.jpg,NA,NA,unpleasant,pleasant,NA,NA,NA,NA,NA,right,1709.10000000149,true,NA,NA,NA,NA,NA
SifsFiwc,3vck0q0pp8rxiiaq9ji6jar3xntn0d,3u8ycdagxttk8zlcgdfpcoi04mkq0c,SifsFiwc,2020-0188,2021-10-17,12:58:40,14:06:22,NA,incomplete,false,true,NA,6,8,NA,gray,m_s_030.jpg,NA,NA,unpleasant,pleasant,NA,NA,NA,NA,NA,right,2435.80000000075,true,NA,NA,NA,NA,NA
SifsFiwc,3vck0q0pp8rxiiaq9ji6jar3xntn0d,3u8ycdagxttk8zlcgdfpcoi04mkq0c,SifsFiwc,2020-0188,2021-10-17,12:58:40,14:06:22,NA,incomplete,false,true,NA,6,9,NA,gray,m_s_065.jpg,NA,NA,pleasant,unpleasant,NA,NA,NA,NA,NA,right,1962.89999999851,true,NA,NA,NA,NA,NA
SifsFiwc,3vck0q0pp8rxiiaq9ji6jar3xntn0d,3u8ycdagxttk8zlcgdfpcoi04mkq0c,SifsFiwc,2020-0188,2021-10-17,12:58:40,14:06:22,NA,incomplete,false,true,NA,6,10,NA,gray,m_l_116.jpg,NA,NA,pleasant,unpleasant,NA,NA,NA,NA,NA,left,1418.89999999851,true,NA,NA,NA,NA,NA
SifsFiwc,3vck0q0pp8rxiiaq9ji6jar3xntn0d,3u8ycdagxttk8zlcgdfpcoi04mkq0c,SifsFiwc,2020-0188,2021-10-17,12:58:40,14:06:22,NA,incomplete,false,true,NA,6,11,NA,gray,m_l_004.jpg,NA,NA,pleasant,unpleasant,NA,NA,NA,NA,NA,right,1051.69999999925,true,NA,NA,NA,NA,NA
SifsFiwc,3vck0q0pp8rxiiaq9ji6jar3xntn0d,3u8ycdagxttk8zlcgdfpcoi04mkq0c,SifsFiwc,2020-0188,2021-10-17,12:58:40,14:06:22,NA,incomplete,false,true,NA,6,12,NA,yellow,n_s_041.jpg,NA,NA,pleasant,unpleasant,NA,NA,NA,NA,NA,left,1498.30000000075,true,NA,NA,NA,NA,NA
SifsFiwc,3vck0q0pp8rxiiaq9ji6jar3xntn0d,3u8ycdagxttk8zlcgdfpcoi04mkq0c,SifsFiwc,2020-0188,2021-10-17,12:58:40,14:06:22,NA,incomplete,false,true,NA,6,13,NA,yellow,m_s_103.jpg,NA,NA,pleasant,unpleasant,NA,NA,NA,NA,NA,left,1169.30000000075,true,NA,NA,NA,NA,NA
SifsFiwc,3vck0q0pp8rxiiaq9ji6jar3xntn0d,3u8ycdagxttk8zlcgdfpcoi04mkq0c,SifsFiwc,2020-0188,2021-10-17,12:58:40,14:06:22,NA,incomplete,false,true,NA,6,14,NA,yellow,m_s_079.jpg,NA,NA,unpleasant,pleasant,NA,NA,NA,NA,NA,right,2112.30000000075,true,NA,NA,NA,NA,NA
SifsFiwc,3vck0q0pp8rxiiaq9ji6jar3xntn0d,3u8ycdagxttk8zlcgdfpcoi04mkq0c,SifsFiwc,2020-0188,2021-10-17,12:58:40,14:06:22,NA,incomplete,false,true,NA,6,15,NA,yellow,m_l_113.jpg,NA,NA,pleasant,unpleasant,NA,NA,NA,NA,NA,left,2312.39999999851,true,NA,NA,NA,NA,NA
SifsFiwc,3vck0q0pp8rxiiaq9ji6jar3xntn0d,3u8ycdagxttk8zlcgdfpcoi04mkq0c,SifsFiwc,2020-0188,2021-10-17,12:58:40,14:06:22,NA,incomplete,false,true,NA,6,16,NA,yellow,m_s_043.jpg,NA,NA,pleasant,unpleasant,NA,NA,NA,NA,NA,right,1601.10000000149,true,NA,NA,NA,NA,NA
SifsFiwc,3vck0q0pp8rxiiaq9ji6jar3xntn0d,3u8ycdagxttk8zlcgdfpcoi04mkq0c,SifsFiwc,2020-0188,2021-10-17,12:58:40,14:06:22,NA,incomplete,false,true,NA,6,17,NA,yellow,m_l_038.jpg,NA,NA,pleasant,unpleasant,NA,NA,NA,NA,NA,right,1679.5,true,NA,NA,NA,NA,NA
SifsFiwc,3vck0q0pp8rxiiaq9ji6jar3xntn0d,3u8ycdagxttk8zlcgdfpcoi04mkq0c,SifsFiwc,2020-0188,2021-10-17,12:58:40,14:06:22,NA,incomplete,false,true,NA,6,18,NA,brown,n_s_002.jpg,NA,NA,unpleasant,pleasant,NA,NA,NA,NA,NA,right,2087.39999999851,true,NA,NA,NA,NA,NA
SifsFiwc,3vck0q0pp8rxiiaq9ji6jar3xntn0d,3u8ycdagxttk8zlcgdfpcoi04mkq0c,SifsFiwc,2020-0188,2021-10-17,12:58:40,14:06:22,NA,incomplete,false,true,NA,6,19,NA,brown,m_s_059.jpg,NA,NA,pleasant,unpleasant,NA,NA,NA,NA,NA,right,1837.39999999851,true,NA,NA,NA,NA,NA
SifsFiwc,3vck0q0pp8rxiiaq9ji6jar3xntn0d,3u8ycdagxttk8zlcgdfpcoi04mkq0c,SifsFiwc,2020-0188,2021-10-17,12:58:40,14:06:22,NA,incomplete,false,true,NA,6,20,NA,brown,n_l_041.jpg,NA,NA,unpleasant,pleasant,NA,NA,NA,NA,NA,left,1790.30000000075,true,NA,NA,NA,NA,NA
SifsFiwc,3vck0q0pp8rxiiaq9ji6jar3xntn0d,3u8ycdagxttk8zlcgdfpcoi04mkq0c,SifsFiwc,2020-0188,2021-10-17,12:58:40,14:06:22,NA,incomplete,false,true,NA,6,21,NA,brown,n_l_110.jpg,NA,NA,unpleasant,pleasant,NA,NA,NA,NA,NA,right,1708.69999999925,true,NA,NA,NA,NA,NA
SifsFiwc,3vck0q0pp8rxiiaq9ji6jar3xntn0d,3u8ycdagxttk8zlcgdfpcoi04mkq0c,SifsFiwc,2020-0188,2021-10-17,12:58:40,14:06:22,NA,incomplete,false,true,NA,6,22,NA,brown,n_l_075.jpg,NA,NA,unpleasant,pleasant,NA,NA,NA,NA,NA,right,2732,true,NA,NA,NA,NA,NA
SifsFiwc,3vck0q0pp8rxiiaq9ji6jar3xntn0d,3u8ycdagxttk8zlcgdfpcoi04mkq0c,SifsFiwc,2020-0188,2021-10-17,12:58:40,14:06:22,NA,incomplete,false,true,NA,6,23,NA,brown,m_l_062.jpg,NA,NA,unpleasant,pleasant,NA,NA,NA,NA,NA,right,1268.5,true,NA,NA,NA,NA,NA
SifsFiwc,3vck0q0pp8rxiiaq9ji6jar3xntn0d,3u8ycdagxttk8zlcgdfpcoi04mkq0c,SifsFiwc,2020-0188,2021-10-17,12:58:40,14:06:22,NA,incomplete,false,true,NA,6,24,NA,black,m_l_020.jpg,NA,NA,pleasant,unpleasant,NA,NA,NA,NA,NA,left,1643.70000000298,true,NA,NA,NA,NA,NA
SifsFiwc,3vck0q0pp8rxiiaq9ji6jar3xntn0d,3u8ycdagxttk8zlcgdfpcoi04mkq0c,SifsFiwc,2020-0188,2021-10-17,12:58:40,14:06:22,NA,incomplete,false,true,NA,6,25,NA,black,m_l_114.jpg,NA,NA,unpleasant,pleasant,NA,NA,NA,NA,NA,right,1443,true,NA,NA,NA,NA,NA
SifsFiwc,3vck0q0pp8rxiiaq9ji6jar3xntn0d,3u8ycdagxttk8zlcgdfpcoi04mkq0c,SifsFiwc,2020-0188,2021-10-17,12:58:40,14:06:22,NA,incomplete,false,true,NA,6,26,NA,black,m_l_108.jpg,NA,NA,pleasant,unpleasant,NA,NA,NA,NA,NA,left,1931.39999999851,true,NA,NA,NA,NA,NA
SifsFiwc,3vck0q0pp8rxiiaq9ji6jar3xntn0d,3u8ycdagxttk8zlcgdfpcoi04mkq0c,SifsFiwc,2020-0188,2021-10-17,12:58:40,14:06:22,NA,incomplete,false,true,NA,6,27,NA,black,m_s_002.jpg,NA,NA,unpleasant,pleasant,NA,NA,NA,NA,NA,left,2090.30000000075,true,NA,NA,NA,NA,NA
SifsFiwc,3vck0q0pp8rxiiaq9ji6jar3xntn0d,3u8ycdagxttk8zlcgdfpcoi04mkq0c,SifsFiwc,2020-0188,2021-10-17,12:58:40,14:06:22,NA,incomplete,false,true,NA,6,28,NA,black,n_l_112.jpg,NA,NA,pleasant,unpleasant,NA,NA,NA,NA,NA,left,1337.90000000224,true,NA,NA,NA,NA,NA
SifsFiwc,3vck0q0pp8rxiiaq9ji6jar3xntn0d,3u8ycdagxttk8zlcgdfpcoi04mkq0c,SifsFiwc,2020-0188,2021-10-17,12:58:40,14:06:22,NA,incomplete,false,true,NA,6,29,NA,black,n_s_079.jpg,NA,NA,unpleasant,pleasant,NA,NA,NA,NA,NA,left,2265,true,NA,NA,NA,NA,NA
SifsFiwc,3vck0q0pp8rxiiaq9ji6jar3xntn0d,3u8ycdagxttk8zlcgdfpcoi04mkq0c,SifsFiwc,2020-0188,2021-10-17,12:58:40,14:06:22,NA,incomplete,false,true,NA,6,30,NA,red,m_s_026.jpg,NA,NA,pleasant,unpleasant,NA,NA,NA,NA,NA,right,2256.30000000075,true,NA,NA,NA,NA,NA
SifsFiwc,3vck0q0pp8rxiiaq9ji6jar3xntn0d,3u8ycdagxttk8zlcgdfpcoi04mkq0c,SifsFiwc,2020-0188,2021-10-17,12:58:40,14:06:22,NA,incomplete,false,true,NA,6,31,NA,red,m_l_002.jpg,NA,NA,unpleasant,pleasant,NA,NA,NA,NA,NA,left,1455.19999999925,true,NA,NA,NA,NA,NA
SifsFiwc,3vck0q0pp8rxiiaq9ji6jar3xntn0d,3u8ycdagxttk8zlcgdfpcoi04mkq0c,SifsFiwc,2020-0188,2021-10-17,12:58:40,14:06:22,NA,incomplete,false,true,NA,6,32,NA,red,m_l_078.jpg,NA,NA,unpleasant,pleasant,NA,NA,NA,NA,NA,right,1838.5,true,NA,NA,NA,NA,NA
SifsFiwc,3vck0q0pp8rxiiaq9ji6jar3xntn0d,3u8ycdagxttk8zlcgdfpcoi04mkq0c,SifsFiwc,2020-0188,2021-10-17,12:58:40,14:06:22,NA,incomplete,false,true,NA,6,33,NA,red,n_l_021.jpg,NA,NA,pleasant,unpleasant,NA,NA,NA,NA,NA,left,1125.5,true,NA,NA,NA,NA,NA
SifsFiwc,3vck0q0pp8rxiiaq9ji6jar3xntn0d,3u8ycdagxttk8zlcgdfpcoi04mkq0c,SifsFiwc,2020-0188,2021-10-17,12:58:40,14:06:22,NA,incomplete,false,true,NA,6,34,NA,red,m_s_091.jpg,NA,NA,pleasant,unpleasant,NA,NA,NA,NA,NA,right,1324.69999999925,true,NA,NA,NA,NA,NA
SifsFiwc,3vck0q0pp8rxiiaq9ji6jar3xntn0d,3u8ycdagxttk8zlcgdfpcoi04mkq0c,SifsFiwc,2020-0188,2021-10-17,12:58:40,14:06:22,NA,incomplete,false,true,NA,6,35,NA,red,n_s_097.jpg,NA,NA,pleasant,unpleasant,NA,NA,NA,NA,NA,left,1860.80000000075,true,NA,NA,NA,NA,NA
SifsFiwc,3vck0q0pp8rxiiaq9ji6jar3xntn0d,3u8ycdagxttk8zlcgdfpcoi04mkq0c,SifsFiwc,2020-0188,2021-10-17,12:58:40,14:06:22,NA,incomplete,false,NA,true,6,0,NA,NA,NA,left,absent,NA,NA,n_l_056.jpg,purple,m_s_030.jpg,gray,between,NA,NaN,NA,left,3902.800000000745,1,2,1566.5
SifsFiwc,3vck0q0pp8rxiiaq9ji6jar3xntn0d,3u8ycdagxttk8zlcgdfpcoi04mkq0c,SifsFiwc,2020-0188,2021-10-17,12:58:40,14:06:22,NA,incomplete,false,NA,true,6,1,NA,NA,NA,left,absent,NA,NA,m_l_002.jpg,red,n_s_097.jpg,red,within,NA,NaN,NA,left,1963.300000000745,1,2,1181.800000000745
SifsFiwc,3vck0q0pp8rxiiaq9ji6jar3xntn0d,3u8ycdagxttk8zlcgdfpcoi04mkq0c,SifsFiwc,2020-0188,2021-10-17,12:58:40,14:06:22,NA,incomplete,false,NA,true,6,2,NA,NA,NA,right,absent,NA,NA,m_l_078.jpg,red,n_l_112.jpg,black,between,NA,NaN,NA,right,3885.800000000745,1,3,1203.8999999985099
SifsFiwc,3vck0q0pp8rxiiaq9ji6jar3xntn0d,3u8ycdagxttk8zlcgdfpcoi04mkq0c,SifsFiwc,2020-0188,2021-10-17,12:58:40,14:06:22,NA,incomplete,false,NA,true,6,3,NA,NA,NA,right,absent,NA,NA,n_l_041.jpg,brown,m_s_043.jpg,yellow,between,NA,NaN,NA,left,2180.60000000149,0,1,1209.5
SifsFiwc,3vck0q0pp8rxiiaq9ji6jar3xntn0d,3u8ycdagxttk8zlcgdfpcoi04mkq0c,SifsFiwc,2020-0188,2021-10-17,12:58:40,14:06:22,NA,incomplete,false,NA,true,6,4,NA,NA,NA,right,absent,NA,NA,m_l_038.jpg,yellow,m_s_103.jpg,yellow,within,NA,NaN,NA,right,1820.6000000014901,1,3,965.5
SifsFiwc,3vck0q0pp8rxiiaq9ji6jar3xntn0d,3u8ycdagxttk8zlcgdfpcoi04mkq0c,SifsFiwc,2020-0188,2021-10-17,12:58:40,14:06:22,NA,incomplete,false,NA,true,6,5,NA,NA,NA,left,absent,NA,NA,m_l_116.jpg,gray,m_s_079.jpg,yellow,between,NA,NaN,NA,left,1869.9000000022352,1,3,789.4000000022352
SifsFiwc,3vck0q0pp8rxiiaq9ji6jar3xntn0d,3u8ycdagxttk8zlcgdfpcoi04mkq0c,SifsFiwc,2020-0188,2021-10-17,12:58:40,14:06:22,NA,incomplete,false,NA,true,6,6,NA,NA,NA,right,absent,NA,NA,m_l_108.jpg,black,n_l_075.jpg,brown,between,NA,NaN,NA,left,2798,0,1,1262.5
SifsFiwc,3vck0q0pp8rxiiaq9ji6jar3xntn0d,3u8ycdagxttk8zlcgdfpcoi04mkq0c,SifsFiwc,2020-0188,2021-10-17,12:58:40,14:06:22,NA,incomplete,false,NA,true,6,7,NA,NA,NA,right,absent,NA,NA,m_l_004.jpg,gray,n_l_092.jpg,gray,within,NA,NaN,NA,left,2373.800000000745,0,3,973.6000000014901
SifsFiwc,3vck0q0pp8rxiiaq9ji6jar3xntn0d,3u8ycdagxttk8zlcgdfpcoi04mkq0c,SifsFiwc,2020-0188,2021-10-17,12:58:40,14:06:22,NA,incomplete,false,NA,true,6,8,NA,NA,NA,right,absent,NA,NA,m_l_062.jpg,brown,m_s_059.jpg,brown,within,NA,NaN,NA,right,2492,1,3,1070.9000000022352
SifsFiwc,3vck0q0pp8rxiiaq9ji6jar3xntn0d,3u8ycdagxttk8zlcgdfpcoi04mkq0c,SifsFiwc,2020-0188,2021-10-17,12:58:40,14:06:22,NA,incomplete,false,NA,true,6,9,NA,NA,NA,left,absent,NA,NA,n_s_082.jpg,purple,n_s_086.jpg,purple,within,NA,NaN,NA,right,3014.900000002235,0,1,1142
SifsFiwc,3vck0q0pp8rxiiaq9ji6jar3xntn0d,3u8ycdagxttk8zlcgdfpcoi04mkq0c,SifsFiwc,2020-0188,2021-10-17,12:58:40,14:06:22,NA,incomplete,false,NA,true,6,10,NA,NA,NA,right,absent,NA,NA,n_s_079.jpg,black,m_l_114.jpg,black,within,NA,NaN,NA,left,2909.89999999851,0,1,1230.1000000014901
SifsFiwc,3vck0q0pp8rxiiaq9ji6jar3xntn0d,3u8ycdagxttk8zlcgdfpcoi04mkq0c,SifsFiwc,2020-0188,2021-10-17,12:58:40,14:06:22,NA,incomplete,false,true,NA,7,0,NA,yellow,n_l_054.jpg,NA,NA,unpleasant,pleasant,NA,NA,NA,NA,NA,right,2580.80000000075,true,NA,NA,NA,NA,NA
SifsFiwc,3vck0q0pp8rxiiaq9ji6jar3xntn0d,3u8ycdagxttk8zlcgdfpcoi04mkq0c,SifsFiwc,2020-0188,2021-10-17,12:58:40,14:06:22,NA,incomplete,false,true,NA,7,1,NA,yellow,m_l_098.jpg,NA,NA,unpleasant,pleasant,NA,NA,NA,NA,NA,right,1716.90000000224,true,NA,NA,NA,NA,NA
SifsFiwc,3vck0q0pp8rxiiaq9ji6jar3xntn0d,3u8ycdagxttk8zlcgdfpcoi04mkq0c,SifsFiwc,2020-0188,2021-10-17,12:58:40,14:06:22,NA,incomplete,false,true,NA,7,2,NA,yellow,m_s_111.jpg,NA,NA,unpleasant,pleasant,NA,NA,NA,NA,NA,right,2124.39999999851,true,NA,NA,NA,NA,NA
SifsFiwc,3vck0q0pp8rxiiaq9ji6jar3xntn0d,3u8ycdagxttk8zlcgdfpcoi04mkq0c,SifsFiwc,2020-0188,2021-10-17,12:58:40,14:06:22,NA,incomplete,false,true,NA,7,3,NA,yellow,n_s_036.jpg,NA,NA,pleasant,unpleasant,NA,NA,NA,NA,NA,left,2229.80000000075,true,NA,NA,NA,NA,NA
SifsFiwc,3vck0q0pp8rxiiaq9ji6jar3xntn0d,3u8ycdagxttk8zlcgdfpcoi04mkq0c,SifsFiwc,2020-0188,2021-10-17,12:58:40,14:06:22,NA,incomplete,false,true,NA,7,4,NA,yellow,n_l_117.jpg,NA,NA,pleasant,unpleasant,NA,NA,NA,NA,NA,left,1858.60000000149,true,NA,NA,NA,NA,NA
SifsFiwc,3vck0q0pp8rxiiaq9ji6jar3xntn0d,3u8ycdagxttk8zlcgdfpcoi04mkq0c,SifsFiwc,2020-0188,2021-10-17,12:58:40,14:06:22,NA,incomplete,false,true,NA,7,5,NA,yellow,n_s_058.jpg,NA,NA,unpleasant,pleasant,NA,NA,NA,NA,NA,right,1787.5,true,NA,NA,NA,NA,NA
SifsFiwc,3vck0q0pp8rxiiaq9ji6jar3xntn0d,3u8ycdagxttk8zlcgdfpcoi04mkq0c,SifsFiwc,2020-0188,2021-10-17,12:58:40,14:06:22,NA,incomplete,false,true,NA,7,6,NA,purple,n_s_019.jpg,NA,NA,pleasant,unpleasant,NA,NA,NA,NA,NA,left,1256.59999999776,true,NA,NA,NA,NA,NA
SifsFiwc,3vck0q0pp8rxiiaq9ji6jar3xntn0d,3u8ycdagxttk8zlcgdfpcoi04mkq0c,SifsFiwc,2020-0188,2021-10-17,12:58:40,14:06:22,NA,incomplete,false,true,NA,7,7,NA,purple,n_l_030.jpg,NA,NA,pleasant,unpleasant,NA,NA,NA,NA,NA,left,1609.5,true,NA,NA,NA,NA,NA
SifsFiwc,3vck0q0pp8rxiiaq9ji6jar3xntn0d,3u8ycdagxttk8zlcgdfpcoi04mkq0c,SifsFiwc,2020-0188,2021-10-17,12:58:40,14:06:22,NA,incomplete,false,true,NA,7,8,NA,purple,n_s_057.jpg,NA,NA,pleasant,unpleasant,NA,NA,NA,NA,NA,left,1753.89999999851,true,NA,NA,NA,NA,NA
SifsFiwc,3vck0q0pp8rxiiaq9ji6jar3xntn0d,3u8ycdagxttk8zlcgdfpcoi04mkq0c,SifsFiwc,2020-0188,2021-10-17,12:58:40,14:06:22,NA,incomplete,false,true,NA,7,9,NA,purple,n_s_070.jpg,NA,NA,pleasant,unpleasant,NA,NA,NA,NA,NA,left,1136.80000000075,true,NA,NA,NA,NA,NA
SifsFiwc,3vck0q0pp8rxiiaq9ji6jar3xntn0d,3u8ycdagxttk8zlcgdfpcoi04mkq0c,SifsFiwc,2020-0188,2021-10-17,12:58:40,14:06:22,NA,incomplete,false,true,NA,7,10,NA,purple,n_s_059.jpg,NA,NA,pleasant,unpleasant,NA,NA,NA,NA,NA,left,1303.60000000149,true,NA,NA,NA,NA,NA
SifsFiwc,3vck0q0pp8rxiiaq9ji6jar3xntn0d,3u8ycdagxttk8zlcgdfpcoi04mkq0c,SifsFiwc,2020-0188,2021-10-17,12:58:40,14:06:22,NA,incomplete,false,true,NA,7,11,NA,purple,n_l_038.jpg,NA,NA,unpleasant,pleasant,NA,NA,NA,NA,NA,right,1903.10000000149,true,NA,NA,NA,NA,NA
SifsFiwc,3vck0q0pp8rxiiaq9ji6jar3xntn0d,3u8ycdagxttk8zlcgdfpcoi04mkq0c,SifsFiwc,2020-0188,2021-10-17,12:58:40,14:06:22,NA,incomplete,false,true,NA,7,12,NA,red,m_l_047.jpg,NA,NA,unpleasant,pleasant,NA,NA,NA,NA,NA,left,1998.5,true,NA,NA,NA,NA,NA
SifsFiwc,3vck0q0pp8rxiiaq9ji6jar3xntn0d,3u8ycdagxttk8zlcgdfpcoi04mkq0c,SifsFiwc,2020-0188,2021-10-17,12:58:40,14:06:22,NA,incomplete,false,true,NA,7,13,NA,red,n_s_102.jpg,NA,NA,unpleasant,pleasant,NA,NA,NA,NA,NA,right,1374.79999999702,true,NA,NA,NA,NA,NA
SifsFiwc,3vck0q0pp8rxiiaq9ji6jar3xntn0d,3u8ycdagxttk8zlcgdfpcoi04mkq0c,SifsFiwc,2020-0188,2021-10-17,12:58:40,14:06:22,NA,incomplete,false,true,NA,7,14,NA,red,n_l_088.jpg,NA,NA,pleasant,unpleasant,NA,NA,NA,NA,NA,right,2989.39999999851,true,NA,NA,NA,NA,NA
SifsFiwc,3vck0q0pp8rxiiaq9ji6jar3xntn0d,3u8ycdagxttk8zlcgdfpcoi04mkq0c,SifsFiwc,2020-0188,2021-10-17,12:58:40,14:06:22,NA,incomplete,false,true,NA,7,15,NA,red,n_l_079.jpg,NA,NA,unpleasant,pleasant,NA,NA,NA,NA,NA,left,2139.40000000224,true,NA,NA,NA,NA,NA
SifsFiwc,3vck0q0pp8rxiiaq9ji6jar3xntn0d,3u8ycdagxttk8zlcgdfpcoi04mkq0c,SifsFiwc,2020-0188,2021-10-17,12:58:40,14:06:22,NA,incomplete,false,true,NA,7,16,NA,red,m_l_016.jpg,NA,NA,pleasant,unpleasant,NA,NA,NA,NA,NA,left,1146.39999999851,true,NA,NA,NA,NA,NA
SifsFiwc,3vck0q0pp8rxiiaq9ji6jar3xntn0d,3u8ycdagxttk8zlcgdfpcoi04mkq0c,SifsFiwc,2020-0188,2021-10-17,12:58:40,14:06:22,NA,incomplete,false,true,NA,7,17,NA,red,m_l_039.jpg,NA,NA,pleasant,unpleasant,NA,NA,NA,NA,NA,left,1610.19999999925,true,NA,NA,NA,NA,NA
SifsFiwc,3vck0q0pp8rxiiaq9ji6jar3xntn0d,3u8ycdagxttk8zlcgdfpcoi04mkq0c,SifsFiwc,2020-0188,2021-10-17,12:58:40,14:06:22,NA,incomplete,false,true,NA,7,18,NA,white,m_l_027.jpg,NA,NA,pleasant,unpleasant,NA,NA,NA,NA,NA,right,2217.69999999925,true,NA,NA,NA,NA,NA
SifsFiwc,3vck0q0pp8rxiiaq9ji6jar3xntn0d,3u8ycdagxttk8zlcgdfpcoi04mkq0c,SifsFiwc,2020-0188,2021-10-17,12:58:40,14:06:22,NA,incomplete,false,true,NA,7,19,NA,white,m_l_111.jpg,NA,NA,unpleasant,pleasant,NA,NA,NA,NA,NA,right,1681.39999999851,true,NA,NA,NA,NA,NA
SifsFiwc,3vck0q0pp8rxiiaq9ji6jar3xntn0d,3u8ycdagxttk8zlcgdfpcoi04mkq0c,SifsFiwc,2020-0188,2021-10-17,12:58:40,14:06:22,NA,incomplete,false,true,NA,7,20,NA,white,m_l_055.jpg,NA,NA,unpleasant,pleasant,NA,NA,NA,NA,NA,right,1697,true,NA,NA,NA,NA,NA
SifsFiwc,3vck0q0pp8rxiiaq9ji6jar3xntn0d,3u8ycdagxttk8zlcgdfpcoi04mkq0c,SifsFiwc,2020-0188,2021-10-17,12:58:40,14:06:22,NA,incomplete,false,true,NA,7,21,NA,white,m_l_053.jpg,NA,NA,unpleasant,pleasant,NA,NA,NA,NA,NA,right,1064.30000000075,true,NA,NA,NA,NA,NA
SifsFiwc,3vck0q0pp8rxiiaq9ji6jar3xntn0d,3u8ycdagxttk8zlcgdfpcoi04mkq0c,SifsFiwc,2020-0188,2021-10-17,12:58:40,14:06:22,NA,incomplete,false,true,NA,7,22,NA,white,n_s_083.jpg,NA,NA,pleasant,unpleasant,NA,NA,NA,NA,NA,left,1144,true,NA,NA,NA,NA,NA
SifsFiwc,3vck0q0pp8rxiiaq9ji6jar3xntn0d,3u8ycdagxttk8zlcgdfpcoi04mkq0c,SifsFiwc,2020-0188,2021-10-17,12:58:40,14:06:22,NA,incomplete,false,true,NA,7,23,NA,white,m_s_001.jpg,NA,NA,pleasant,unpleasant,NA,NA,NA,NA,NA,right,1696.39999999851,true,NA,NA,NA,NA,NA
SifsFiwc,3vck0q0pp8rxiiaq9ji6jar3xntn0d,3u8ycdagxttk8zlcgdfpcoi04mkq0c,SifsFiwc,2020-0188,2021-10-17,12:58:40,14:06:22,NA,incomplete,false,true,NA,7,24,NA,orange,n_l_109.jpg,NA,NA,unpleasant,pleasant,NA,NA,NA,NA,NA,left,2151.5,true,NA,NA,NA,NA,NA
SifsFiwc,3vck0q0pp8rxiiaq9ji6jar3xntn0d,3u8ycdagxttk8zlcgdfpcoi04mkq0c,SifsFiwc,2020-0188,2021-10-17,12:58:40,14:06:22,NA,incomplete,false,true,NA,7,25,NA,orange,m_s_069.jpg,NA,NA,pleasant,unpleasant,NA,NA,NA,NA,NA,left,1719.10000000149,true,NA,NA,NA,NA,NA
SifsFiwc,3vck0q0pp8rxiiaq9ji6jar3xntn0d,3u8ycdagxttk8zlcgdfpcoi04mkq0c,SifsFiwc,2020-0188,2021-10-17,12:58:40,14:06:22,NA,incomplete,false,true,NA,7,26,NA,orange,m_l_095.jpg,NA,NA,pleasant,unpleasant,NA,NA,NA,NA,NA,left,1871.39999999851,true,NA,NA,NA,NA,NA
SifsFiwc,3vck0q0pp8rxiiaq9ji6jar3xntn0d,3u8ycdagxttk8zlcgdfpcoi04mkq0c,SifsFiwc,2020-0188,2021-10-17,12:58:40,14:06:22,NA,incomplete,false,true,NA,7,27,NA,orange,m_s_045.jpg,NA,NA,unpleasant,pleasant,NA,NA,NA,NA,NA,right,2174.5,true,NA,NA,NA,NA,NA
SifsFiwc,3vck0q0pp8rxiiaq9ji6jar3xntn0d,3u8ycdagxttk8zlcgdfpcoi04mkq0c,SifsFiwc,2020-0188,2021-10-17,12:58:40,14:06:22,NA,incomplete,false,true,NA,7,28,NA,orange,n_l_082.jpg,NA,NA,pleasant,unpleasant,NA,NA,NA,NA,NA,right,1181.60000000149,true,NA,NA,NA,NA,NA
SifsFiwc,3vck0q0pp8rxiiaq9ji6jar3xntn0d,3u8ycdagxttk8zlcgdfpcoi04mkq0c,SifsFiwc,2020-0188,2021-10-17,12:58:40,14:06:22,NA,incomplete,false,true,NA,7,29,NA,orange,m_s_102.jpg,NA,NA,pleasant,unpleasant,NA,NA,NA,NA,NA,left,1438.5,true,NA,NA,NA,NA,NA
SifsFiwc,3vck0q0pp8rxiiaq9ji6jar3xntn0d,3u8ycdagxttk8zlcgdfpcoi04mkq0c,SifsFiwc,2020-0188,2021-10-17,12:58:40,14:06:22,NA,incomplete,false,true,NA,7,30,NA,green,n_s_014.jpg,NA,NA,pleasant,unpleasant,NA,NA,NA,NA,NA,right,2277,true,NA,NA,NA,NA,NA
SifsFiwc,3vck0q0pp8rxiiaq9ji6jar3xntn0d,3u8ycdagxttk8zlcgdfpcoi04mkq0c,SifsFiwc,2020-0188,2021-10-17,12:58:40,14:06:22,NA,incomplete,false,true,NA,7,31,NA,green,n_s_051.jpg,NA,NA,unpleasant,pleasant,NA,NA,NA,NA,NA,left,1819.80000000075,true,NA,NA,NA,NA,NA
SifsFiwc,3vck0q0pp8rxiiaq9ji6jar3xntn0d,3u8ycdagxttk8zlcgdfpcoi04mkq0c,SifsFiwc,2020-0188,2021-10-17,12:58:40,14:06:22,NA,incomplete,false,true,NA,7,32,NA,green,n_l_010.jpg,NA,NA,pleasant,unpleasant,NA,NA,NA,NA,NA,left,1146.69999999925,true,NA,NA,NA,NA,NA
SifsFiwc,3vck0q0pp8rxiiaq9ji6jar3xntn0d,3u8ycdagxttk8zlcgdfpcoi04mkq0c,SifsFiwc,2020-0188,2021-10-17,12:58:40,14:06:22,NA,incomplete,false,true,NA,7,33,NA,green,m_s_023.jpg,NA,NA,pleasant,unpleasant,NA,NA,NA,NA,NA,left,2090.19999999925,true,NA,NA,NA,NA,NA
SifsFiwc,3vck0q0pp8rxiiaq9ji6jar3xntn0d,3u8ycdagxttk8zlcgdfpcoi04mkq0c,SifsFiwc,2020-0188,2021-10-17,12:58:40,14:06:22,NA,incomplete,false,true,NA,7,34,NA,green,m_l_117.jpg,NA,NA,unpleasant,pleasant,NA,NA,NA,NA,NA,right,1433,true,NA,NA,NA,NA,NA
SifsFiwc,3vck0q0pp8rxiiaq9ji6jar3xntn0d,3u8ycdagxttk8zlcgdfpcoi04mkq0c,SifsFiwc,2020-0188,2021-10-17,12:58:40,14:06:22,NA,incomplete,false,true,NA,7,35,NA,green,m_l_083.jpg,NA,NA,pleasant,unpleasant,NA,NA,NA,NA,NA,left,2017,true,NA,NA,NA,NA,NA
SifsFiwc,3vck0q0pp8rxiiaq9ji6jar3xntn0d,3u8ycdagxttk8zlcgdfpcoi04mkq0c,SifsFiwc,2020-0188,2021-10-17,12:58:40,14:06:22,NA,incomplete,false,NA,true,7,0,NA,NA,NA,left,present,NA,NA,n_s_083.jpg,white,m_l_095.jpg,orange,between,NA,NaN,NA,right,2579.300000000745,0,2,1666.7999999970198
SifsFiwc,3vck0q0pp8rxiiaq9ji6jar3xntn0d,3u8ycdagxttk8zlcgdfpcoi04mkq0c,SifsFiwc,2020-0188,2021-10-17,12:58:40,14:06:22,NA,incomplete,false,NA,true,7,1,NA,NA,NA,right,present,NA,NA,m_s_102.jpg,orange,m_s_069.jpg,orange,within,NA,NaN,NA,left,3520.199999999255,0,1,1407
SifsFiwc,3vck0q0pp8rxiiaq9ji6jar3xntn0d,3u8ycdagxttk8zlcgdfpcoi04mkq0c,SifsFiwc,2020-0188,2021-10-17,12:58:40,14:06:22,NA,incomplete,false,NA,true,7,2,NA,NA,NA,right,present,NA,NA,n_l_088.jpg,red,n_s_059.jpg,purple,between,NA,NaN,NA,left,2214.10000000149,0,2,1206
SifsFiwc,3vck0q0pp8rxiiaq9ji6jar3xntn0d,3u8ycdagxttk8zlcgdfpcoi04mkq0c,SifsFiwc,2020-0188,2021-10-17,12:58:40,14:06:22,NA,incomplete,false,NA,true,7,3,NA,NA,NA,right,present,NA,NA,m_l_055.jpg,white,m_l_016.jpg,red,between,NA,NaN,NA,right,2485.800000000745,1,0,1325.6000000014901
SifsFiwc,3vck0q0pp8rxiiaq9ji6jar3xntn0d,3u8ycdagxttk8zlcgdfpcoi04mkq0c,SifsFiwc,2020-0188,2021-10-17,12:58:40,14:06:22,NA,incomplete,false,NA,true,7,4,NA,NA,NA,left,present,NA,NA,m_l_098.jpg,yellow,n_s_058.jpg,yellow,within,NA,NaN,NA,left,1853.4000000022352,1,3,1277.800000000745
SifsFiwc,3vck0q0pp8rxiiaq9ji6jar3xntn0d,3u8ycdagxttk8zlcgdfpcoi04mkq0c,SifsFiwc,2020-0188,2021-10-17,12:58:40,14:06:22,NA,incomplete,false,NA,true,7,5,NA,NA,NA,left,present,NA,NA,n_s_051.jpg,green,m_l_083.jpg,green,within,NA,NaN,NA,right,3117.60000000149,0,1,2334.199999999255
SifsFiwc,3vck0q0pp8rxiiaq9ji6jar3xntn0d,3u8ycdagxttk8zlcgdfpcoi04mkq0c,SifsFiwc,2020-0188,2021-10-17,12:58:40,14:06:22,NA,incomplete,false,NA,true,7,6,NA,NA,NA,left,present,NA,NA,n_l_117.jpg,yellow,n_s_057.jpg,purple,between,NA,NaN,NA,right,3229.5,0,3,1101.800000000745
SifsFiwc,3vck0q0pp8rxiiaq9ji6jar3xntn0d,3u8ycdagxttk8zlcgdfpcoi04mkq0c,SifsFiwc,2020-0188,2021-10-17,12:58:40,14:06:22,NA,incomplete,false,NA,true,7,7,NA,NA,NA,right,present,NA,NA,n_l_010.jpg,green,n_l_082.jpg,orange,between,NA,NaN,NA,left,2197.900000002235,0,0,1006.2999999970198
SifsFiwc,3vck0q0pp8rxiiaq9ji6jar3xntn0d,3u8ycdagxttk8zlcgdfpcoi04mkq0c,SifsFiwc,2020-0188,2021-10-17,12:58:40,14:06:22,NA,incomplete,false,NA,true,7,8,NA,NA,NA,right,present,NA,NA,m_s_001.jpg,white,m_l_111.jpg,white,within,NA,NaN,NA,right,1853.699999999255,1,3,1306.5
SifsFiwc,3vck0q0pp8rxiiaq9ji6jar3xntn0d,3u8ycdagxttk8zlcgdfpcoi04mkq0c,SifsFiwc,2020-0188,2021-10-17,12:58:40,14:06:22,NA,incomplete,false,NA,true,7,9,NA,NA,NA,left,present,NA,NA,n_l_030.jpg,purple,n_l_038.jpg,purple,within,NA,NaN,NA,right,3956.89999999851,0,0,1029.699999999255
SifsFiwc,3vck0q0pp8rxiiaq9ji6jar3xntn0d,3u8ycdagxttk8zlcgdfpcoi04mkq0c,SifsFiwc,2020-0188,2021-10-17,12:58:40,14:06:22,NA,incomplete,false,NA,true,7,10,NA,NA,NA,right,present,NA,NA,m_l_039.jpg,red,n_s_102.jpg,red,within,NA,NaN,NA,left,3286.60000000149,0,1,1238.199999999255
SifsFiwc,3vck0q0pp8rxiiaq9ji6jar3xntn0d,3u8ycdagxttk8zlcgdfpcoi04mkq0c,SifsFiwc,2020-0188,2021-10-17,12:58:40,14:06:22,NA,incomplete,false,true,NA,8,0,NA,orange,n_s_038.jpg,NA,NA,pleasant,unpleasant,NA,NA,NA,NA,NA,left,2096.09999999776,true,NA,NA,NA,NA,NA
SifsFiwc,3vck0q0pp8rxiiaq9ji6jar3xntn0d,3u8ycdagxttk8zlcgdfpcoi04mkq0c,SifsFiwc,2020-0188,2021-10-17,12:58:40,14:06:22,NA,incomplete,false,true,NA,8,1,NA,orange,n_s_010.jpg,NA,NA,unpleasant,pleasant,NA,NA,NA,NA,NA,left,1943.69999999925,true,NA,NA,NA,NA,NA
SifsFiwc,3vck0q0pp8rxiiaq9ji6jar3xntn0d,3u8ycdagxttk8zlcgdfpcoi04mkq0c,SifsFiwc,2020-0188,2021-10-17,12:58:40,14:06:22,NA,incomplete,false,true,NA,8,2,NA,orange,m_l_015.jpg,NA,NA,pleasant,unpleasant,NA,NA,NA,NA,NA,left,1304.30000000075,true,NA,NA,NA,NA,NA
SifsFiwc,3vck0q0pp8rxiiaq9ji6jar3xntn0d,3u8ycdagxttk8zlcgdfpcoi04mkq0c,SifsFiwc,2020-0188,2021-10-17,12:58:40,14:06:22,NA,incomplete,false,true,NA,8,3,NA,orange,m_s_114.jpg,NA,NA,pleasant,unpleasant,NA,NA,NA,NA,NA,right,2509.40000000224,true,NA,NA,NA,NA,NA
SifsFiwc,3vck0q0pp8rxiiaq9ji6jar3xntn0d,3u8ycdagxttk8zlcgdfpcoi04mkq0c,SifsFiwc,2020-0188,2021-10-17,12:58:40,14:06:22,NA,incomplete,false,true,NA,8,4,NA,orange,n_s_034.jpg,NA,NA,pleasant,unpleasant,NA,NA,NA,NA,NA,left,1645.09999999776,true,NA,NA,NA,NA,NA
SifsFiwc,3vck0q0pp8rxiiaq9ji6jar3xntn0d,3u8ycdagxttk8zlcgdfpcoi04mkq0c,SifsFiwc,2020-0188,2021-10-17,12:58:40,14:06:22,NA,incomplete,false,true,NA,8,5,NA,orange,n_s_060.jpg,NA,NA,unpleasant,pleasant,NA,NA,NA,NA,NA,right,1318.30000000075,true,NA,NA,NA,NA,NA
SifsFiwc,3vck0q0pp8rxiiaq9ji6jar3xntn0d,3u8ycdagxttk8zlcgdfpcoi04mkq0c,SifsFiwc,2020-0188,2021-10-17,12:58:40,14:06:22,NA,incomplete,false,true,NA,8,6,NA,black,n_s_050.jpg,NA,NA,pleasant,unpleasant,NA,NA,NA,NA,NA,left,1477,true,NA,NA,NA,NA,NA
SifsFiwc,3vck0q0pp8rxiiaq9ji6jar3xntn0d,3u8ycdagxttk8zlcgdfpcoi04mkq0c,SifsFiwc,2020-0188,2021-10-17,12:58:40,14:06:22,NA,incomplete,false,true,NA,8,7,NA,black,m_l_081.jpg,NA,NA,unpleasant,pleasant,NA,NA,NA,NA,NA,right,1237.30000000075,true,NA,NA,NA,NA,NA
SifsFiwc,3vck0q0pp8rxiiaq9ji6jar3xntn0d,3u8ycdagxttk8zlcgdfpcoi04mkq0c,SifsFiwc,2020-0188,2021-10-17,12:58:40,14:06:22,NA,incomplete,false,true,NA,8,8,NA,black,m_s_100.jpg,NA,NA,pleasant,unpleasant,NA,NA,NA,NA,NA,left,1332.09999999776,true,NA,NA,NA,NA,NA
SifsFiwc,3vck0q0pp8rxiiaq9ji6jar3xntn0d,3u8ycdagxttk8zlcgdfpcoi04mkq0c,SifsFiwc,2020-0188,2021-10-17,12:58:40,14:06:22,NA,incomplete,false,true,NA,8,9,NA,black,m_s_058.jpg,NA,NA,pleasant,unpleasant,NA,NA,NA,NA,NA,right,2507.30000000075,true,NA,NA,NA,NA,NA
