workerId,hitId,assignmentId,subject,studyid,exp_date,exp_start,exp_end,time_start,time_end,practice,encoding,memory,block,trial,event_order,event,stim,answer,context_type,label_left,label_right,left_image,left_event,right_image,right_event,condition,response,response_time,response_acc,order_response,order_response_time,order_acc,distance_response,distance_response_time
tfEyCsiY,344m16ozllsw98pkhqhl4zt7rn1nev,33c7ualjvpbe9k6yq22p42gaf2v18u,tfEyCsiY,2020-0188,2021-10-15,09:42:44,10:55:25,NA,incomplete,true,true,NA,0,0,NA,red,n_s_055.jpg,NA,NA,pleasant,unpleasant,NA,NA,NA,NA,NA,right,1538.30000001192,true,NA,NA,NA,NA,NA
tfEyCsiY,344m16ozllsw98pkhqhl4zt7rn1nev,33c7ualjvpbe9k6yq22p42gaf2v18u,tfEyCsiY,2020-0188,2021-10-15,09:42:44,10:55:25,NA,incomplete,true,true,NA,0,1,NA,red,n_s_067.jpg,NA,NA,pleasant,unpleasant,NA,NA,NA,NA,NA,right,1316.89999997616,true,NA,NA,NA,NA,NA
tfEyCsiY,344m16ozllsw98pkhqhl4zt7rn1nev,33c7ualjvpbe9k6yq22p42gaf2v18u,tfEyCsiY,2020-0188,2021-10-15,09:42:44,10:55:25,NA,incomplete,true,true,NA,0,2,NA,red,n_s_111.jpg,NA,NA,pleasant,unpleasant,NA,NA,NA,NA,NA,right,2406.30000001192,true,NA,NA,NA,NA,NA
tfEyCsiY,344m16ozllsw98pkhqhl4zt7rn1nev,33c7ualjvpbe9k6yq22p42gaf2v18u,tfEyCsiY,2020-0188,2021-10-15,09:42:44,10:55:25,NA,incomplete,true,true,NA,0,3,NA,red,n_s_007.jpg,NA,NA,pleasant,unpleasant,NA,NA,NA,NA,NA,right,1469.80000001192,true,NA,NA,NA,NA,NA
tfEyCsiY,344m16ozllsw98pkhqhl4zt7rn1nev,33c7ualjvpbe9k6yq22p42gaf2v18u,tfEyCsiY,2020-0188,2021-10-15,09:42:44,10:55:25,NA,incomplete,true,true,NA,0,4,NA,red,n_s_009.jpg,NA,NA,unpleasant,pleasant,NA,NA,NA,NA,NA,right,1196.10000002384,true,NA,NA,NA,NA,NA
tfEyCsiY,344m16ozllsw98pkhqhl4zt7rn1nev,33c7ualjvpbe9k6yq22p42gaf2v18u,tfEyCsiY,2020-0188,2021-10-15,09:42:44,10:55:25,NA,incomplete,true,true,NA,0,5,NA,red,n_s_099.jpg,NA,NA,pleasant,unpleasant,NA,NA,NA,NA,NA,left,3145.10000002384,true,NA,NA,NA,NA,NA
tfEyCsiY,344m16ozllsw98pkhqhl4zt7rn1nev,33c7ualjvpbe9k6yq22p42gaf2v18u,tfEyCsiY,2020-0188,2021-10-15,09:42:44,10:55:25,NA,incomplete,true,true,NA,0,6,NA,purple,m_l_102.jpg,NA,NA,pleasant,unpleasant,NA,NA,NA,NA,NA,left,1384.19999998808,true,NA,NA,NA,NA,NA
tfEyCsiY,344m16ozllsw98pkhqhl4zt7rn1nev,33c7ualjvpbe9k6yq22p42gaf2v18u,tfEyCsiY,2020-0188,2021-10-15,09:42:44,10:55:25,NA,incomplete,true,true,NA,0,7,NA,purple,m_s_082.jpg,NA,NA,pleasant,unpleasant,NA,NA,NA,NA,NA,left,2047.10000002384,true,NA,NA,NA,NA,NA
tfEyCsiY,344m16ozllsw98pkhqhl4zt7rn1nev,33c7ualjvpbe9k6yq22p42gaf2v18u,tfEyCsiY,2020-0188,2021-10-15,09:42:44,10:55:25,NA,incomplete,true,true,NA,0,8,NA,purple,n_s_095.jpg,NA,NA,unpleasant,pleasant,NA,NA,NA,NA,NA,right,2262.30000001192,true,NA,NA,NA,NA,NA
tfEyCsiY,344m16ozllsw98pkhqhl4zt7rn1nev,33c7ualjvpbe9k6yq22p42gaf2v18u,tfEyCsiY,2020-0188,2021-10-15,09:42:44,10:55:25,NA,incomplete,true,true,NA,0,9,NA,purple,n_s_078.jpg,NA,NA,unpleasant,pleasant,NA,NA,NA,NA,NA,left,2095.39999997616,true,NA,NA,NA,NA,NA
tfEyCsiY,344m16ozllsw98pkhqhl4zt7rn1nev,33c7ualjvpbe9k6yq22p42gaf2v18u,tfEyCsiY,2020-0188,2021-10-15,09:42:44,10:55:25,NA,incomplete,true,true,NA,0,10,NA,purple,n_l_024.jpg,NA,NA,pleasant,unpleasant,NA,NA,NA,NA,NA,left,1453.5,true,NA,NA,NA,NA,NA
tfEyCsiY,344m16ozllsw98pkhqhl4zt7rn1nev,33c7ualjvpbe9k6yq22p42gaf2v18u,tfEyCsiY,2020-0188,2021-10-15,09:42:44,10:55:25,NA,incomplete,true,true,NA,0,11,NA,purple,m_s_098.jpg,NA,NA,unpleasant,pleasant,NA,NA,NA,NA,NA,right,1883.69999998808,true,NA,NA,NA,NA,NA
tfEyCsiY,344m16ozllsw98pkhqhl4zt7rn1nev,33c7ualjvpbe9k6yq22p42gaf2v18u,tfEyCsiY,2020-0188,2021-10-15,09:42:44,10:55:25,NA,incomplete,true,true,NA,0,12,NA,white,m_l_116.jpg,NA,NA,unpleasant,pleasant,NA,NA,NA,NA,NA,right,2555.60000002384,true,NA,NA,NA,NA,NA
tfEyCsiY,344m16ozllsw98pkhqhl4zt7rn1nev,33c7ualjvpbe9k6yq22p42gaf2v18u,tfEyCsiY,2020-0188,2021-10-15,09:42:44,10:55:25,NA,incomplete,true,true,NA,0,13,NA,white,m_s_069.jpg,NA,NA,pleasant,unpleasant,NA,NA,NA,NA,NA,left,1205.09999996424,true,NA,NA,NA,NA,NA
tfEyCsiY,344m16ozllsw98pkhqhl4zt7rn1nev,33c7ualjvpbe9k6yq22p42gaf2v18u,tfEyCsiY,2020-0188,2021-10-15,09:42:44,10:55:25,NA,incomplete,true,true,NA,0,14,NA,white,m_l_038.jpg,NA,NA,unpleasant,pleasant,NA,NA,NA,NA,NA,left,1541.10000002384,true,NA,NA,NA,NA,NA
tfEyCsiY,344m16ozllsw98pkhqhl4zt7rn1nev,33c7ualjvpbe9k6yq22p42gaf2v18u,tfEyCsiY,2020-0188,2021-10-15,09:42:44,10:55:25,NA,incomplete,true,true,NA,0,15,NA,white,n_l_006.jpg,NA,NA,pleasant,unpleasant,NA,NA,NA,NA,NA,left,1411.80000001192,true,NA,NA,NA,NA,NA
tfEyCsiY,344m16ozllsw98pkhqhl4zt7rn1nev,33c7ualjvpbe9k6yq22p42gaf2v18u,tfEyCsiY,2020-0188,2021-10-15,09:42:44,10:55:25,NA,incomplete,true,true,NA,0,16,NA,white,n_s_105.jpg,NA,NA,pleasant,unpleasant,NA,NA,NA,NA,NA,left,1567.69999998808,true,NA,NA,NA,NA,NA
tfEyCsiY,344m16ozllsw98pkhqhl4zt7rn1nev,33c7ualjvpbe9k6yq22p42gaf2v18u,tfEyCsiY,2020-0188,2021-10-15,09:42:44,10:55:25,NA,incomplete,true,true,NA,0,17,NA,white,m_s_081.jpg,NA,NA,pleasant,unpleasant,NA,NA,NA,NA,NA,left,1749.89999997616,true,NA,NA,NA,NA,NA
tfEyCsiY,344m16ozllsw98pkhqhl4zt7rn1nev,33c7ualjvpbe9k6yq22p42gaf2v18u,tfEyCsiY,2020-0188,2021-10-15,09:42:44,10:55:25,NA,incomplete,true,true,NA,0,18,NA,green,m_s_032.jpg,NA,NA,pleasant,unpleasant,NA,NA,NA,NA,NA,left,1432.5,true,NA,NA,NA,NA,NA
tfEyCsiY,344m16ozllsw98pkhqhl4zt7rn1nev,33c7ualjvpbe9k6yq22p42gaf2v18u,tfEyCsiY,2020-0188,2021-10-15,09:42:44,10:55:25,NA,incomplete,true,true,NA,0,19,NA,green,n_s_041.jpg,NA,NA,unpleasant,pleasant,NA,NA,NA,NA,NA,right,1212.60000002384,true,NA,NA,NA,NA,NA
tfEyCsiY,344m16ozllsw98pkhqhl4zt7rn1nev,33c7ualjvpbe9k6yq22p42gaf2v18u,tfEyCsiY,2020-0188,2021-10-15,09:42:44,10:55:25,NA,incomplete,true,true,NA,0,20,NA,green,m_s_026.jpg,NA,NA,pleasant,unpleasant,NA,NA,NA,NA,NA,left,1402,true,NA,NA,NA,NA,NA
tfEyCsiY,344m16ozllsw98pkhqhl4zt7rn1nev,33c7ualjvpbe9k6yq22p42gaf2v18u,tfEyCsiY,2020-0188,2021-10-15,09:42:44,10:55:25,NA,incomplete,true,true,NA,0,21,NA,green,m_s_115.jpg,NA,NA,unpleasant,pleasant,NA,NA,NA,NA,NA,right,1367.09999996424,true,NA,NA,NA,NA,NA
tfEyCsiY,344m16ozllsw98pkhqhl4zt7rn1nev,33c7ualjvpbe9k6yq22p42gaf2v18u,tfEyCsiY,2020-0188,2021-10-15,09:42:44,10:55:25,NA,incomplete,true,true,NA,0,22,NA,green,m_l_045.jpg,NA,NA,unpleasant,pleasant,NA,NA,NA,NA,NA,right,1020,true,NA,NA,NA,NA,NA
tfEyCsiY,344m16ozllsw98pkhqhl4zt7rn1nev,33c7ualjvpbe9k6yq22p42gaf2v18u,tfEyCsiY,2020-0188,2021-10-15,09:42:44,10:55:25,NA,incomplete,true,true,NA,0,23,NA,green,n_l_106.jpg,NA,NA,pleasant,unpleasant,NA,NA,NA,NA,NA,left,1047.39999997616,true,NA,NA,NA,NA,NA
tfEyCsiY,344m16ozllsw98pkhqhl4zt7rn1nev,33c7ualjvpbe9k6yq22p42gaf2v18u,tfEyCsiY,2020-0188,2021-10-15,09:42:44,10:55:25,NA,incomplete,true,true,NA,0,24,NA,orange,m_l_011.jpg,NA,NA,pleasant,unpleasant,NA,NA,NA,NA,NA,right,3295.5,true,NA,NA,NA,NA,NA
tfEyCsiY,344m16ozllsw98pkhqhl4zt7rn1nev,33c7ualjvpbe9k6yq22p42gaf2v18u,tfEyCsiY,2020-0188,2021-10-15,09:42:44,10:55:25,NA,incomplete,true,true,NA,0,25,NA,orange,n_s_065.jpg,NA,NA,unpleasant,pleasant,NA,NA,NA,NA,NA,left,1473.19999998808,true,NA,NA,NA,NA,NA
tfEyCsiY,344m16ozllsw98pkhqhl4zt7rn1nev,33c7ualjvpbe9k6yq22p42gaf2v18u,tfEyCsiY,2020-0188,2021-10-15,09:42:44,10:55:25,NA,incomplete,true,true,NA,0,26,NA,orange,m_l_081.jpg,NA,NA,pleasant,unpleasant,NA,NA,NA,NA,NA,left,2114.80000001192,true,NA,NA,NA,NA,NA
tfEyCsiY,344m16ozllsw98pkhqhl4zt7rn1nev,33c7ualjvpbe9k6yq22p42gaf2v18u,tfEyCsiY,2020-0188,2021-10-15,09:42:44,10:55:25,NA,incomplete,true,true,NA,0,27,NA,orange,n_s_005.jpg,NA,NA,unpleasant,pleasant,NA,NA,NA,NA,NA,right,1001.10000002384,true,NA,NA,NA,NA,NA
tfEyCsiY,344m16ozllsw98pkhqhl4zt7rn1nev,33c7ualjvpbe9k6yq22p42gaf2v18u,tfEyCsiY,2020-0188,2021-10-15,09:42:44,10:55:25,NA,incomplete,true,true,NA,0,28,NA,orange,m_l_117.jpg,NA,NA,pleasant,unpleasant,NA,NA,NA,NA,NA,left,1376.69999998808,true,NA,NA,NA,NA,NA
tfEyCsiY,344m16ozllsw98pkhqhl4zt7rn1nev,33c7ualjvpbe9k6yq22p42gaf2v18u,tfEyCsiY,2020-0188,2021-10-15,09:42:44,10:55:25,NA,incomplete,true,true,NA,0,29,NA,orange,n_s_061.jpg,NA,NA,unpleasant,pleasant,NA,NA,NA,NA,NA,right,1346.80000001192,true,NA,NA,NA,NA,NA
tfEyCsiY,344m16ozllsw98pkhqhl4zt7rn1nev,33c7ualjvpbe9k6yq22p42gaf2v18u,tfEyCsiY,2020-0188,2021-10-15,09:42:44,10:55:25,NA,incomplete,true,true,NA,0,30,NA,yellow,n_l_005.jpg,NA,NA,unpleasant,pleasant,NA,NA,NA,NA,NA,right,1092.10000002384,true,NA,NA,NA,NA,NA
tfEyCsiY,344m16ozllsw98pkhqhl4zt7rn1nev,33c7ualjvpbe9k6yq22p42gaf2v18u,tfEyCsiY,2020-0188,2021-10-15,09:42:44,10:55:25,NA,incomplete,true,true,NA,0,31,NA,yellow,m_s_053.jpg,NA,NA,pleasant,unpleasant,NA,NA,NA,NA,NA,right,973,true,NA,NA,NA,NA,NA
tfEyCsiY,344m16ozllsw98pkhqhl4zt7rn1nev,33c7ualjvpbe9k6yq22p42gaf2v18u,tfEyCsiY,2020-0188,2021-10-15,09:42:44,10:55:25,NA,incomplete,true,true,NA,0,32,NA,yellow,m_s_067.jpg,NA,NA,unpleasant,pleasant,NA,NA,NA,NA,NA,right,1527.60000002384,true,NA,NA,NA,NA,NA
tfEyCsiY,344m16ozllsw98pkhqhl4zt7rn1nev,33c7ualjvpbe9k6yq22p42gaf2v18u,tfEyCsiY,2020-0188,2021-10-15,09:42:44,10:55:25,NA,incomplete,true,true,NA,0,33,NA,yellow,m_l_024.jpg,NA,NA,pleasant,unpleasant,NA,NA,NA,NA,NA,left,1731.09999996424,true,NA,NA,NA,NA,NA
tfEyCsiY,344m16ozllsw98pkhqhl4zt7rn1nev,33c7ualjvpbe9k6yq22p42gaf2v18u,tfEyCsiY,2020-0188,2021-10-15,09:42:44,10:55:25,NA,incomplete,true,true,NA,0,34,NA,yellow,n_l_028.jpg,NA,NA,unpleasant,pleasant,NA,NA,NA,NA,NA,right,811.800000011921,true,NA,NA,NA,NA,NA
tfEyCsiY,344m16ozllsw98pkhqhl4zt7rn1nev,33c7ualjvpbe9k6yq22p42gaf2v18u,tfEyCsiY,2020-0188,2021-10-15,09:42:44,10:55:25,NA,incomplete,true,true,NA,0,35,NA,yellow,m_s_086.jpg,NA,NA,unpleasant,pleasant,NA,NA,NA,NA,NA,left,1099.09999996424,true,NA,NA,NA,NA,NA
tfEyCsiY,344m16ozllsw98pkhqhl4zt7rn1nev,33c7ualjvpbe9k6yq22p42gaf2v18u,tfEyCsiY,2020-0188,2021-10-15,09:42:44,10:55:25,NA,incomplete,true,NA,true,0,0,NA,NA,NA,right,absent,NA,NA,m_l_081.jpg,orange,m_l_045.jpg,green,between,NA,NaN,NA,right,4782.600000023842,1,1,2015.8999999761581
tfEyCsiY,344m16ozllsw98pkhqhl4zt7rn1nev,33c7ualjvpbe9k6yq22p42gaf2v18u,tfEyCsiY,2020-0188,2021-10-15,09:42:44,10:55:25,NA,incomplete,true,NA,true,0,1,NA,NA,NA,right,absent,NA,NA,m_s_086.jpg,yellow,m_s_053.jpg,yellow,within,NA,NaN,NA,right,3802.600000023842,1,0,2191.199999988079
tfEyCsiY,344m16ozllsw98pkhqhl4zt7rn1nev,33c7ualjvpbe9k6yq22p42gaf2v18u,tfEyCsiY,2020-0188,2021-10-15,09:42:44,10:55:25,NA,incomplete,true,NA,true,0,2,NA,NA,NA,right,absent,NA,NA,m_l_038.jpg,white,n_l_024.jpg,purple,between,NA,NaN,NA,right,3075.599999964237,1,2,1838.300000011921
tfEyCsiY,344m16ozllsw98pkhqhl4zt7rn1nev,33c7ualjvpbe9k6yq22p42gaf2v18u,tfEyCsiY,2020-0188,2021-10-15,09:42:44,10:55:25,NA,incomplete,true,NA,true,0,3,NA,NA,NA,left,present,NA,NA,m_s_082.jpg,purple,m_s_098.jpg,purple,within,NA,NaN,NA,left,3698,1,1,1255.199999988079
tfEyCsiY,344m16ozllsw98pkhqhl4zt7rn1nev,33c7ualjvpbe9k6yq22p42gaf2v18u,tfEyCsiY,2020-0188,2021-10-15,09:42:44,10:55:25,NA,incomplete,true,NA,true,0,4,NA,NA,NA,left,absent,NA,NA,n_s_067.jpg,red,n_s_099.jpg,red,within,NA,NaN,NA,right,2254.7000000476837,0,3,2510.899999976158
tfEyCsiY,344m16ozllsw98pkhqhl4zt7rn1nev,33c7ualjvpbe9k6yq22p42gaf2v18u,tfEyCsiY,2020-0188,2021-10-15,09:42:44,10:55:25,NA,incomplete,true,NA,true,0,5,NA,NA,NA,right,absent,NA,NA,n_s_061.jpg,orange,n_s_065.jpg,orange,within,NA,NaN,NA,left,5411.699999988079,0,0,1822.199999988079
tfEyCsiY,344m16ozllsw98pkhqhl4zt7rn1nev,33c7ualjvpbe9k6yq22p42gaf2v18u,tfEyCsiY,2020-0188,2021-10-15,09:42:44,10:55:25,NA,incomplete,true,NA,true,0,6,NA,NA,NA,right,absent,NA,NA,n_s_095.jpg,purple,n_s_009.jpg,red,between,NA,NaN,NA,right,3442,1,3,2079.300000011921
tfEyCsiY,344m16ozllsw98pkhqhl4zt7rn1nev,33c7ualjvpbe9k6yq22p42gaf2v18u,tfEyCsiY,2020-0188,2021-10-15,09:42:44,10:55:25,NA,incomplete,true,NA,true,0,7,NA,NA,NA,right,present,NA,NA,m_s_026.jpg,green,n_s_105.jpg,white,between,NA,NaN,NA,right,6456.699999988079,1,2,1542.3999999761581
tfEyCsiY,344m16ozllsw98pkhqhl4zt7rn1nev,33c7ualjvpbe9k6yq22p42gaf2v18u,tfEyCsiY,2020-0188,2021-10-15,09:42:44,10:55:25,NA,incomplete,true,NA,true,0,8,NA,NA,NA,right,present,NA,NA,m_s_067.jpg,yellow,m_l_117.jpg,orange,between,NA,NaN,NA,right,2556.099999964237,1,1,2649.600000023842
tfEyCsiY,344m16ozllsw98pkhqhl4zt7rn1nev,33c7ualjvpbe9k6yq22p42gaf2v18u,tfEyCsiY,2020-0188,2021-10-15,09:42:44,10:55:25,NA,incomplete,true,NA,true,0,9,NA,NA,NA,left,present,NA,NA,n_s_041.jpg,green,n_l_106.jpg,green,within,NA,NaN,NA,right,2628.600000023842,0,0,2549.7000000476837
tfEyCsiY,344m16ozllsw98pkhqhl4zt7rn1nev,33c7ualjvpbe9k6yq22p42gaf2v18u,tfEyCsiY,2020-0188,2021-10-15,09:42:44,10:55:25,NA,incomplete,true,NA,true,0,10,NA,NA,NA,left,absent,NA,NA,m_s_069.jpg,white,m_s_081.jpg,white,within,NA,NaN,NA,right,4051.5,0,1,1598.0999999642372
tfEyCsiY,344m16ozllsw98pkhqhl4zt7rn1nev,33c7ualjvpbe9k6yq22p42gaf2v18u,tfEyCsiY,2020-0188,2021-10-15,09:42:44,10:55:25,NA,incomplete,false,true,NA,1,0,NA,purple,m_s_094.jpg,NA,NA,unpleasant,pleasant,NA,NA,NA,NA,NA,right,1906.30000001192,true,NA,NA,NA,NA,NA
tfEyCsiY,344m16ozllsw98pkhqhl4zt7rn1nev,33c7ualjvpbe9k6yq22p42gaf2v18u,tfEyCsiY,2020-0188,2021-10-15,09:42:44,10:55:25,NA,incomplete,false,true,NA,1,1,NA,purple,n_s_069.jpg,NA,NA,pleasant,unpleasant,NA,NA,NA,NA,NA,left,1876.5,true,NA,NA,NA,NA,NA
tfEyCsiY,344m16ozllsw98pkhqhl4zt7rn1nev,33c7ualjvpbe9k6yq22p42gaf2v18u,tfEyCsiY,2020-0188,2021-10-15,09:42:44,10:55:25,NA,incomplete,false,true,NA,1,2,NA,purple,m_s_022.jpg,NA,NA,unpleasant,pleasant,NA,NA,NA,NA,NA,right,1634.19999998808,true,NA,NA,NA,NA,NA
tfEyCsiY,344m16ozllsw98pkhqhl4zt7rn1nev,33c7ualjvpbe9k6yq22p42gaf2v18u,tfEyCsiY,2020-0188,2021-10-15,09:42:44,10:55:25,NA,incomplete,false,true,NA,1,3,NA,purple,n_l_098.jpg,NA,NA,unpleasant,pleasant,NA,NA,NA,NA,NA,right,959.800000011921,true,NA,NA,NA,NA,NA
tfEyCsiY,344m16ozllsw98pkhqhl4zt7rn1nev,33c7ualjvpbe9k6yq22p42gaf2v18u,tfEyCsiY,2020-0188,2021-10-15,09:42:44,10:55:25,NA,incomplete,false,true,NA,1,4,NA,purple,n_s_048.jpg,NA,NA,unpleasant,pleasant,NA,NA,NA,NA,NA,left,1576.20000004768,true,NA,NA,NA,NA,NA
tfEyCsiY,344m16ozllsw98pkhqhl4zt7rn1nev,33c7ualjvpbe9k6yq22p42gaf2v18u,tfEyCsiY,2020-0188,2021-10-15,09:42:44,10:55:25,NA,incomplete,false,true,NA,1,5,NA,purple,n_s_034.jpg,NA,NA,pleasant,unpleasant,NA,NA,NA,NA,NA,left,1417.5,true,NA,NA,NA,NA,NA
tfEyCsiY,344m16ozllsw98pkhqhl4zt7rn1nev,33c7ualjvpbe9k6yq22p42gaf2v18u,tfEyCsiY,2020-0188,2021-10-15,09:42:44,10:55:25,NA,incomplete,false,true,NA,1,6,NA,blue,n_s_112.jpg,NA,NA,pleasant,unpleasant,NA,NA,NA,NA,NA,right,1515.60000002384,true,NA,NA,NA,NA,NA
tfEyCsiY,344m16ozllsw98pkhqhl4zt7rn1nev,33c7ualjvpbe9k6yq22p42gaf2v18u,tfEyCsiY,2020-0188,2021-10-15,09:42:44,10:55:25,NA,incomplete,false,true,NA,1,7,NA,blue,n_l_066.jpg,NA,NA,pleasant,unpleasant,NA,NA,NA,NA,NA,right,1961.5,true,NA,NA,NA,NA,NA
tfEyCsiY,344m16ozllsw98pkhqhl4zt7rn1nev,33c7ualjvpbe9k6yq22p42gaf2v18u,tfEyCsiY,2020-0188,2021-10-15,09:42:44,10:55:25,NA,incomplete,false,true,NA,1,8,NA,blue,m_s_056.jpg,NA,NA,pleasant,unpleasant,NA,NA,NA,NA,NA,right,1025.40000003576,true,NA,NA,NA,NA,NA
tfEyCsiY,344m16ozllsw98pkhqhl4zt7rn1nev,33c7ualjvpbe9k6yq22p42gaf2v18u,tfEyCsiY,2020-0188,2021-10-15,09:42:44,10:55:25,NA,incomplete,false,true,NA,1,9,NA,blue,n_s_053.jpg,NA,NA,unpleasant,pleasant,NA,NA,NA,NA,NA,right,1221.69999998808,true,NA,NA,NA,NA,NA
tfEyCsiY,344m16ozllsw98pkhqhl4zt7rn1nev,33c7ualjvpbe9k6yq22p42gaf2v18u,tfEyCsiY,2020-0188,2021-10-15,09:42:44,10:55:25,NA,incomplete,false,true,NA,1,10,NA,blue,m_l_007.jpg,NA,NA,unpleasant,pleasant,NA,NA,NA,NA,NA,left,1667.59999996424,true,NA,NA,NA,NA,NA
tfEyCsiY,344m16ozllsw98pkhqhl4zt7rn1nev,33c7ualjvpbe9k6yq22p42gaf2v18u,tfEyCsiY,2020-0188,2021-10-15,09:42:44,10:55:25,NA,incomplete,false,true,NA,1,11,NA,blue,n_l_036.jpg,NA,NA,pleasant,unpleasant,NA,NA,NA,NA,NA,left,2293.90000003576,true,NA,NA,NA,NA,NA
tfEyCsiY,344m16ozllsw98pkhqhl4zt7rn1nev,33c7ualjvpbe9k6yq22p42gaf2v18u,tfEyCsiY,2020-0188,2021-10-15,09:42:44,10:55:25,NA,incomplete,false,true,NA,1,12,NA,yellow,m_s_025.jpg,NA,NA,pleasant,unpleasant,NA,NA,NA,NA,NA,left,1350,true,NA,NA,NA,NA,NA
tfEyCsiY,344m16ozllsw98pkhqhl4zt7rn1nev,33c7ualjvpbe9k6yq22p42gaf2v18u,tfEyCsiY,2020-0188,2021-10-15,09:42:44,10:55:25,NA,incomplete,false,true,NA,1,13,NA,yellow,n_l_078.jpg,NA,NA,pleasant,unpleasant,NA,NA,NA,NA,NA,left,1747,true,NA,NA,NA,NA,NA
tfEyCsiY,344m16ozllsw98pkhqhl4zt7rn1nev,33c7ualjvpbe9k6yq22p42gaf2v18u,tfEyCsiY,2020-0188,2021-10-15,09:42:44,10:55:25,NA,incomplete,false,true,NA,1,14,NA,yellow,n_s_004.jpg,NA,NA,pleasant,unpleasant,NA,NA,NA,NA,NA,right,2551.10000002384,true,NA,NA,NA,NA,NA
tfEyCsiY,344m16ozllsw98pkhqhl4zt7rn1nev,33c7ualjvpbe9k6yq22p42gaf2v18u,tfEyCsiY,2020-0188,2021-10-15,09:42:44,10:55:25,NA,incomplete,false,true,NA,1,15,NA,yellow,n_s_021.jpg,NA,NA,unpleasant,pleasant,NA,NA,NA,NA,NA,right,1803.40000003576,true,NA,NA,NA,NA,NA
tfEyCsiY,344m16ozllsw98pkhqhl4zt7rn1nev,33c7ualjvpbe9k6yq22p42gaf2v18u,tfEyCsiY,2020-0188,2021-10-15,09:42:44,10:55:25,NA,incomplete,false,true,NA,1,16,NA,yellow,n_l_070.jpg,NA,NA,pleasant,unpleasant,NA,NA,NA,NA,NA,left,1521.60000002384,true,NA,NA,NA,NA,NA
tfEyCsiY,344m16ozllsw98pkhqhl4zt7rn1nev,33c7ualjvpbe9k6yq22p42gaf2v18u,tfEyCsiY,2020-0188,2021-10-15,09:42:44,10:55:25,NA,incomplete,false,true,NA,1,17,NA,yellow,m_l_037.jpg,NA,NA,pleasant,unpleasant,NA,NA,NA,NA,NA,left,1283,true,NA,NA,NA,NA,NA
tfEyCsiY,344m16ozllsw98pkhqhl4zt7rn1nev,33c7ualjvpbe9k6yq22p42gaf2v18u,tfEyCsiY,2020-0188,2021-10-15,09:42:44,10:55:25,NA,incomplete,false,true,NA,1,18,NA,white,n_l_037.jpg,NA,NA,pleasant,unpleasant,NA,NA,NA,NA,NA,right,1151.80000001192,true,NA,NA,NA,NA,NA
tfEyCsiY,344m16ozllsw98pkhqhl4zt7rn1nev,33c7ualjvpbe9k6yq22p42gaf2v18u,tfEyCsiY,2020-0188,2021-10-15,09:42:44,10:55:25,NA,incomplete,false,true,NA,1,19,NA,white,m_l_088.jpg,NA,NA,unpleasant,pleasant,NA,NA,NA,NA,NA,right,2594.09999996424,true,NA,NA,NA,NA,NA
tfEyCsiY,344m16ozllsw98pkhqhl4zt7rn1nev,33c7ualjvpbe9k6yq22p42gaf2v18u,tfEyCsiY,2020-0188,2021-10-15,09:42:44,10:55:25,NA,incomplete,false,true,NA,1,20,NA,white,m_l_035.jpg,NA,NA,unpleasant,pleasant,NA,NA,NA,NA,NA,right,2078.30000001192,true,NA,NA,NA,NA,NA
tfEyCsiY,344m16ozllsw98pkhqhl4zt7rn1nev,33c7ualjvpbe9k6yq22p42gaf2v18u,tfEyCsiY,2020-0188,2021-10-15,09:42:44,10:55:25,NA,incomplete,false,true,NA,1,21,NA,white,m_l_010.jpg,NA,NA,unpleasant,pleasant,NA,NA,NA,NA,NA,right,2121.89999997616,true,NA,NA,NA,NA,NA
tfEyCsiY,344m16ozllsw98pkhqhl4zt7rn1nev,33c7ualjvpbe9k6yq22p42gaf2v18u,tfEyCsiY,2020-0188,2021-10-15,09:42:44,10:55:25,NA,incomplete,false,true,NA,1,22,NA,white,n_l_082.jpg,NA,NA,pleasant,unpleasant,NA,NA,NA,NA,NA,left,2926.10000002384,true,NA,NA,NA,NA,NA
tfEyCsiY,344m16ozllsw98pkhqhl4zt7rn1nev,33c7ualjvpbe9k6yq22p42gaf2v18u,tfEyCsiY,2020-0188,2021-10-15,09:42:44,10:55:25,NA,incomplete,false,true,NA,1,23,NA,white,m_s_076.jpg,NA,NA,unpleasant,pleasant,NA,NA,NA,NA,NA,left,1715.19999998808,true,NA,NA,NA,NA,NA
tfEyCsiY,344m16ozllsw98pkhqhl4zt7rn1nev,33c7ualjvpbe9k6yq22p42gaf2v18u,tfEyCsiY,2020-0188,2021-10-15,09:42:44,10:55:25,NA,incomplete,false,true,NA,1,24,NA,red,m_s_001.jpg,NA,NA,pleasant,unpleasant,NA,NA,NA,NA,NA,right,1926.5,true,NA,NA,NA,NA,NA
tfEyCsiY,344m16ozllsw98pkhqhl4zt7rn1nev,33c7ualjvpbe9k6yq22p42gaf2v18u,tfEyCsiY,2020-0188,2021-10-15,09:42:44,10:55:25,NA,incomplete,false,true,NA,1,25,NA,red,m_s_024.jpg,NA,NA,unpleasant,pleasant,NA,NA,NA,NA,NA,left,1240.09999996424,true,NA,NA,NA,NA,NA
tfEyCsiY,344m16ozllsw98pkhqhl4zt7rn1nev,33c7ualjvpbe9k6yq22p42gaf2v18u,tfEyCsiY,2020-0188,2021-10-15,09:42:44,10:55:25,NA,incomplete,false,true,NA,1,26,NA,red,n_s_086.jpg,NA,NA,unpleasant,pleasant,NA,NA,NA,NA,NA,left,2132.30000001192,true,NA,NA,NA,NA,NA
tfEyCsiY,344m16ozllsw98pkhqhl4zt7rn1nev,33c7ualjvpbe9k6yq22p42gaf2v18u,tfEyCsiY,2020-0188,2021-10-15,09:42:44,10:55:25,NA,incomplete,false,true,NA,1,27,NA,red,n_s_058.jpg,NA,NA,pleasant,unpleasant,NA,NA,NA,NA,NA,right,2417.39999997616,true,NA,NA,NA,NA,NA
tfEyCsiY,344m16ozllsw98pkhqhl4zt7rn1nev,33c7ualjvpbe9k6yq22p42gaf2v18u,tfEyCsiY,2020-0188,2021-10-15,09:42:44,10:55:25,NA,incomplete,false,true,NA,1,28,NA,red,n_l_069.jpg,NA,NA,unpleasant,pleasant,NA,NA,NA,NA,NA,right,2140.5,true,NA,NA,NA,NA,NA
tfEyCsiY,344m16ozllsw98pkhqhl4zt7rn1nev,33c7ualjvpbe9k6yq22p42gaf2v18u,tfEyCsiY,2020-0188,2021-10-15,09:42:44,10:55:25,NA,incomplete,false,true,NA,1,29,NA,red,m_s_114.jpg,NA,NA,pleasant,unpleasant,NA,NA,NA,NA,NA,left,2013.19999998808,true,NA,NA,NA,NA,NA
tfEyCsiY,344m16ozllsw98pkhqhl4zt7rn1nev,33c7ualjvpbe9k6yq22p42gaf2v18u,tfEyCsiY,2020-0188,2021-10-15,09:42:44,10:55:25,NA,incomplete,false,true,NA,1,30,NA,orange,m_l_004.jpg,NA,NA,unpleasant,pleasant,NA,NA,NA,NA,NA,left,1680.30000001192,true,NA,NA,NA,NA,NA
tfEyCsiY,344m16ozllsw98pkhqhl4zt7rn1nev,33c7ualjvpbe9k6yq22p42gaf2v18u,tfEyCsiY,2020-0188,2021-10-15,09:42:44,10:55:25,NA,incomplete,false,true,NA,1,31,NA,orange,n_l_026.jpg,NA,NA,unpleasant,pleasant,NA,NA,NA,NA,NA,right,1844.59999996424,true,NA,NA,NA,NA,NA
tfEyCsiY,344m16ozllsw98pkhqhl4zt7rn1nev,33c7ualjvpbe9k6yq22p42gaf2v18u,tfEyCsiY,2020-0188,2021-10-15,09:42:44,10:55:25,NA,incomplete,false,true,NA,1,32,NA,orange,m_s_031.jpg,NA,NA,pleasant,unpleasant,NA,NA,NA,NA,NA,left,1281,true,NA,NA,NA,NA,NA
tfEyCsiY,344m16ozllsw98pkhqhl4zt7rn1nev,33c7ualjvpbe9k6yq22p42gaf2v18u,tfEyCsiY,2020-0188,2021-10-15,09:42:44,10:55:25,NA,incomplete,false,true,NA,1,33,NA,orange,n_l_011.jpg,NA,NA,unpleasant,pleasant,NA,NA,NA,NA,NA,right,1618.20000004768,true,NA,NA,NA,NA,NA
tfEyCsiY,344m16ozllsw98pkhqhl4zt7rn1nev,33c7ualjvpbe9k6yq22p42gaf2v18u,tfEyCsiY,2020-0188,2021-10-15,09:42:44,10:55:25,NA,incomplete,false,true,NA,1,34,NA,orange,n_s_063.jpg,NA,NA,unpleasant,pleasant,NA,NA,NA,NA,NA,right,2088.09999996424,true,NA,NA,NA,NA,NA
tfEyCsiY,344m16ozllsw98pkhqhl4zt7rn1nev,33c7ualjvpbe9k6yq22p42gaf2v18u,tfEyCsiY,2020-0188,2021-10-15,09:42:44,10:55:25,NA,incomplete,false,true,NA,1,35,NA,orange,m_s_017.jpg,NA,NA,pleasant,unpleasant,NA,NA,NA,NA,NA,left,2050,true,NA,NA,NA,NA,NA
tfEyCsiY,344m16ozllsw98pkhqhl4zt7rn1nev,33c7ualjvpbe9k6yq22p42gaf2v18u,tfEyCsiY,2020-0188,2021-10-15,09:42:44,10:55:25,NA,incomplete,false,NA,true,1,0,NA,NA,NA,left,absent,NA,NA,m_s_024.jpg,red,m_s_114.jpg,red,within,NA,NaN,NA,left,3629.800000011921,1,1,1415.6000000238419
tfEyCsiY,344m16ozllsw98pkhqhl4zt7rn1nev,33c7ualjvpbe9k6yq22p42gaf2v18u,tfEyCsiY,2020-0188,2021-10-15,09:42:44,10:55:25,NA,incomplete,false,NA,true,1,1,NA,NA,NA,left,absent,NA,NA,n_l_070.jpg,yellow,m_l_035.jpg,white,between,NA,NaN,NA,right,4605.199999988079,0,0,1228.300000011921
tfEyCsiY,344m16ozllsw98pkhqhl4zt7rn1nev,33c7ualjvpbe9k6yq22p42gaf2v18u,tfEyCsiY,2020-0188,2021-10-15,09:42:44,10:55:25,NA,incomplete,false,NA,true,1,2,NA,NA,NA,right,absent,NA,NA,m_s_017.jpg,orange,n_l_026.jpg,orange,within,NA,NaN,NA,right,3615.800000011921,1,0,1893.800000011921
tfEyCsiY,344m16ozllsw98pkhqhl4zt7rn1nev,33c7ualjvpbe9k6yq22p42gaf2v18u,tfEyCsiY,2020-0188,2021-10-15,09:42:44,10:55:25,NA,incomplete,false,NA,true,1,3,NA,NA,NA,right,absent,NA,NA,m_s_031.jpg,orange,n_l_069.jpg,red,between,NA,NaN,NA,left,4276.800000011921,0,2,1663.800000011921
tfEyCsiY,344m16ozllsw98pkhqhl4zt7rn1nev,33c7ualjvpbe9k6yq22p42gaf2v18u,tfEyCsiY,2020-0188,2021-10-15,09:42:44,10:55:25,NA,incomplete,false,NA,true,1,4,NA,NA,NA,right,absent,NA,NA,n_s_086.jpg,red,n_l_082.jpg,white,between,NA,NaN,NA,left,3304.900000035763,0,1,1390.3999999761581
tfEyCsiY,344m16ozllsw98pkhqhl4zt7rn1nev,33c7ualjvpbe9k6yq22p42gaf2v18u,tfEyCsiY,2020-0188,2021-10-15,09:42:44,10:55:25,NA,incomplete,false,NA,true,1,5,NA,NA,NA,left,absent,NA,NA,m_l_088.jpg,white,m_s_076.jpg,white,within,NA,NaN,NA,left,2545.399999976158,1,3,2653.5
tfEyCsiY,344m16ozllsw98pkhqhl4zt7rn1nev,33c7ualjvpbe9k6yq22p42gaf2v18u,tfEyCsiY,2020-0188,2021-10-15,09:42:44,10:55:25,NA,incomplete,false,NA,true,1,6,NA,NA,NA,left,absent,NA,NA,n_l_078.jpg,yellow,m_l_037.jpg,yellow,within,NA,NaN,NA,right,2606.800000011921,0,2,1445.1000000238419
tfEyCsiY,344m16ozllsw98pkhqhl4zt7rn1nev,33c7ualjvpbe9k6yq22p42gaf2v18u,tfEyCsiY,2020-0188,2021-10-15,09:42:44,10:55:25,NA,incomplete,false,NA,true,1,7,NA,NA,NA,left,absent,NA,NA,n_s_069.jpg,purple,n_s_034.jpg,purple,within,NA,NaN,NA,left,3063.199999988079,1,0,2759.5
tfEyCsiY,344m16ozllsw98pkhqhl4zt7rn1nev,33c7ualjvpbe9k6yq22p42gaf2v18u,tfEyCsiY,2020-0188,2021-10-15,09:42:44,10:55:25,NA,incomplete,false,NA,true,1,8,NA,NA,NA,right,absent,NA,NA,m_s_056.jpg,blue,n_s_048.jpg,purple,between,NA,NaN,NA,right,2405.699999988079,1,2,2101.399999976158
tfEyCsiY,344m16ozllsw98pkhqhl4zt7rn1nev,33c7ualjvpbe9k6yq22p42gaf2v18u,tfEyCsiY,2020-0188,2021-10-15,09:42:44,10:55:25,NA,incomplete,false,NA,true,1,9,NA,NA,NA,right,absent,NA,NA,n_l_036.jpg,blue,n_l_066.jpg,blue,within,NA,NaN,NA,right,4308,1,2,1037.5
tfEyCsiY,344m16ozllsw98pkhqhl4zt7rn1nev,33c7ualjvpbe9k6yq22p42gaf2v18u,tfEyCsiY,2020-0188,2021-10-15,09:42:44,10:55:25,NA,incomplete,false,NA,true,1,10,NA,NA,NA,right,absent,NA,NA,n_s_004.jpg,yellow,m_l_007.jpg,blue,between,NA,NaN,NA,left,4528.800000011921,0,2,1254.9000000357628
tfEyCsiY,344m16ozllsw98pkhqhl4zt7rn1nev,33c7ualjvpbe9k6yq22p42gaf2v18u,tfEyCsiY,2020-0188,2021-10-15,09:42:44,10:55:25,NA,incomplete,false,true,NA,2,0,NA,red,n_s_045.jpg,NA,NA,unpleasant,pleasant,NA,NA,NA,NA,NA,right,1956.30000001192,true,NA,NA,NA,NA,NA
tfEyCsiY,344m16ozllsw98pkhqhl4zt7rn1nev,33c7ualjvpbe9k6yq22p42gaf2v18u,tfEyCsiY,2020-0188,2021-10-15,09:42:44,10:55:25,NA,incomplete,false,true,NA,2,1,NA,red,n_s_101.jpg,NA,NA,unpleasant,pleasant,NA,NA,NA,NA,NA,left,1154.09999996424,true,NA,NA,NA,NA,NA
tfEyCsiY,344m16ozllsw98pkhqhl4zt7rn1nev,33c7ualjvpbe9k6yq22p42gaf2v18u,tfEyCsiY,2020-0188,2021-10-15,09:42:44,10:55:25,NA,incomplete,false,true,NA,2,2,NA,red,m_l_044.jpg,NA,NA,unpleasant,pleasant,NA,NA,NA,NA,NA,right,1159.10000002384,true,NA,NA,NA,NA,NA
tfEyCsiY,344m16ozllsw98pkhqhl4zt7rn1nev,33c7ualjvpbe9k6yq22p42gaf2v18u,tfEyCsiY,2020-0188,2021-10-15,09:42:44,10:55:25,NA,incomplete,false,true,NA,2,3,NA,red,n_l_085.jpg,NA,NA,pleasant,unpleasant,NA,NA,NA,NA,NA,right,1078.89999997616,true,NA,NA,NA,NA,NA
tfEyCsiY,344m16ozllsw98pkhqhl4zt7rn1nev,33c7ualjvpbe9k6yq22p42gaf2v18u,tfEyCsiY,2020-0188,2021-10-15,09:42:44,10:55:25,NA,incomplete,false,true,NA,2,4,NA,red,n_l_103.jpg,NA,NA,unpleasant,pleasant,NA,NA,NA,NA,NA,left,1184,true,NA,NA,NA,NA,NA
tfEyCsiY,344m16ozllsw98pkhqhl4zt7rn1nev,33c7ualjvpbe9k6yq22p42gaf2v18u,tfEyCsiY,2020-0188,2021-10-15,09:42:44,10:55:25,NA,incomplete,false,true,NA,2,5,NA,red,m_s_054.jpg,NA,NA,pleasant,unpleasant,NA,NA,NA,NA,NA,right,1051.30000001192,true,NA,NA,NA,NA,NA
tfEyCsiY,344m16ozllsw98pkhqhl4zt7rn1nev,33c7ualjvpbe9k6yq22p42gaf2v18u,tfEyCsiY,2020-0188,2021-10-15,09:42:44,10:55:25,NA,incomplete,false,true,NA,2,6,NA,orange,n_s_001.jpg,NA,NA,unpleasant,pleasant,NA,NA,NA,NA,NA,left,1616,true,NA,NA,NA,NA,NA
tfEyCsiY,344m16ozllsw98pkhqhl4zt7rn1nev,33c7ualjvpbe9k6yq22p42gaf2v18u,tfEyCsiY,2020-0188,2021-10-15,09:42:44,10:55:25,NA,incomplete,false,true,NA,2,7,NA,orange,m_s_065.jpg,NA,NA,pleasant,unpleasant,NA,NA,NA,NA,NA,left,1640.5,true,NA,NA,NA,NA,NA
tfEyCsiY,344m16ozllsw98pkhqhl4zt7rn1nev,33c7ualjvpbe9k6yq22p42gaf2v18u,tfEyCsiY,2020-0188,2021-10-15,09:42:44,10:55:25,NA,incomplete,false,true,NA,2,8,NA,orange,m_s_013.jpg,NA,NA,pleasant,unpleasant,NA,NA,NA,NA,NA,left,1311.60000002384,true,NA,NA,NA,NA,NA
tfEyCsiY,344m16ozllsw98pkhqhl4zt7rn1nev,33c7ualjvpbe9k6yq22p42gaf2v18u,tfEyCsiY,2020-0188,2021-10-15,09:42:44,10:55:25,NA,incomplete,false,true,NA,2,9,NA,orange,n_s_098.jpg,NA,NA,pleasant,unpleasant,NA,NA,NA,NA,NA,right,1007.5,true,NA,NA,NA,NA,NA
tfEyCsiY,344m16ozllsw98pkhqhl4zt7rn1nev,33c7ualjvpbe9k6yq22p42gaf2v18u,tfEyCsiY,2020-0188,2021-10-15,09:42:44,10:55:25,NA,incomplete,false,true,NA,2,10,NA,orange,m_s_029.jpg,NA,NA,pleasant,unpleasant,NA,NA,NA,NA,NA,right,2228.70000004768,true,NA,NA,NA,NA,NA
tfEyCsiY,344m16ozllsw98pkhqhl4zt7rn1nev,33c7ualjvpbe9k6yq22p42gaf2v18u,tfEyCsiY,2020-0188,2021-10-15,09:42:44,10:55:25,NA,incomplete,false,true,NA,2,11,NA,orange,n_l_034.jpg,NA,NA,unpleasant,pleasant,NA,NA,NA,NA,NA,right,2533,true,NA,NA,NA,NA,NA
tfEyCsiY,344m16ozllsw98pkhqhl4zt7rn1nev,33c7ualjvpbe9k6yq22p42gaf2v18u,tfEyCsiY,2020-0188,2021-10-15,09:42:44,10:55:25,NA,incomplete,false,true,NA,2,12,NA,blue,m_s_042.jpg,NA,NA,unpleasant,pleasant,NA,NA,NA,NA,NA,right,1605.59999996424,true,NA,NA,NA,NA,NA
tfEyCsiY,344m16ozllsw98pkhqhl4zt7rn1nev,33c7ualjvpbe9k6yq22p42gaf2v18u,tfEyCsiY,2020-0188,2021-10-15,09:42:44,10:55:25,NA,incomplete,false,true,NA,2,13,NA,blue,m_l_078.jpg,NA,NA,pleasant,unpleasant,NA,NA,NA,NA,NA,left,1332.89999997616,true,NA,NA,NA,NA,NA
tfEyCsiY,344m16ozllsw98pkhqhl4zt7rn1nev,33c7ualjvpbe9k6yq22p42gaf2v18u,tfEyCsiY,2020-0188,2021-10-15,09:42:44,10:55:25,NA,incomplete,false,true,NA,2,14,NA,blue,n_s_025.jpg,NA,NA,pleasant,unpleasant,NA,NA,NA,NA,NA,left,1244.10000002384,true,NA,NA,NA,NA,NA
tfEyCsiY,344m16ozllsw98pkhqhl4zt7rn1nev,33c7ualjvpbe9k6yq22p42gaf2v18u,tfEyCsiY,2020-0188,2021-10-15,09:42:44,10:55:25,NA,incomplete,false,true,NA,2,15,NA,blue,m_s_019.jpg,NA,NA,unpleasant,pleasant,NA,NA,NA,NA,NA,right,1189.89999997616,true,NA,NA,NA,NA,NA
tfEyCsiY,344m16ozllsw98pkhqhl4zt7rn1nev,33c7ualjvpbe9k6yq22p42gaf2v18u,tfEyCsiY,2020-0188,2021-10-15,09:42:44,10:55:25,NA,incomplete,false,true,NA,2,16,NA,blue,m_l_026.jpg,NA,NA,unpleasant,pleasant,NA,NA,NA,NA,NA,right,1147.5,true,NA,NA,NA,NA,NA
tfEyCsiY,344m16ozllsw98pkhqhl4zt7rn1nev,33c7ualjvpbe9k6yq22p42gaf2v18u,tfEyCsiY,2020-0188,2021-10-15,09:42:44,10:55:25,NA,incomplete,false,true,NA,2,17,NA,blue,n_l_079.jpg,NA,NA,pleasant,unpleasant,NA,NA,NA,NA,NA,left,1119.5,true,NA,NA,NA,NA,NA
tfEyCsiY,344m16ozllsw98pkhqhl4zt7rn1nev,33c7ualjvpbe9k6yq22p42gaf2v18u,tfEyCsiY,2020-0188,2021-10-15,09:42:44,10:55:25,NA,incomplete,false,true,NA,2,18,NA,brown,n_s_056.jpg,NA,NA,unpleasant,pleasant,NA,NA,NA,NA,NA,left,2049,true,NA,NA,NA,NA,NA
tfEyCsiY,344m16ozllsw98pkhqhl4zt7rn1nev,33c7ualjvpbe9k6yq22p42gaf2v18u,tfEyCsiY,2020-0188,2021-10-15,09:42:44,10:55:25,NA,incomplete,false,true,NA,2,19,NA,brown,m_l_091.jpg,NA,NA,unpleasant,pleasant,NA,NA,NA,NA,NA,right,1492.79999995232,true,NA,NA,NA,NA,NA
tfEyCsiY,344m16ozllsw98pkhqhl4zt7rn1nev,33c7ualjvpbe9k6yq22p42gaf2v18u,tfEyCsiY,2020-0188,2021-10-15,09:42:44,10:55:25,NA,incomplete,false,true,NA,2,20,NA,brown,m_s_073.jpg,NA,NA,pleasant,unpleasant,NA,NA,NA,NA,NA,left,1038.30000001192,true,NA,NA,NA,NA,NA
tfEyCsiY,344m16ozllsw98pkhqhl4zt7rn1nev,33c7ualjvpbe9k6yq22p42gaf2v18u,tfEyCsiY,2020-0188,2021-10-15,09:42:44,10:55:25,NA,incomplete,false,true,NA,2,21,NA,brown,n_s_043.jpg,NA,NA,unpleasant,pleasant,NA,NA,NA,NA,NA,left,1693.59999996424,true,NA,NA,NA,NA,NA
tfEyCsiY,344m16ozllsw98pkhqhl4zt7rn1nev,33c7ualjvpbe9k6yq22p42gaf2v18u,tfEyCsiY,2020-0188,2021-10-15,09:42:44,10:55:25,NA,incomplete,false,true,NA,2,22,NA,brown,m_l_052.jpg,NA,NA,pleasant,unpleasant,NA,NA,NA,NA,NA,right,1425.59999996424,true,NA,NA,NA,NA,NA
tfEyCsiY,344m16ozllsw98pkhqhl4zt7rn1nev,33c7ualjvpbe9k6yq22p42gaf2v18u,tfEyCsiY,2020-0188,2021-10-15,09:42:44,10:55:25,NA,incomplete,false,true,NA,2,23,NA,brown,m_l_031.jpg,NA,NA,unpleasant,pleasant,NA,NA,NA,NA,NA,right,1418.59999996424,true,NA,NA,NA,NA,NA
tfEyCsiY,344m16ozllsw98pkhqhl4zt7rn1nev,33c7ualjvpbe9k6yq22p42gaf2v18u,tfEyCsiY,2020-0188,2021-10-15,09:42:44,10:55:25,NA,incomplete,false,true,NA,2,24,NA,black,n_l_111.jpg,NA,NA,unpleasant,pleasant,NA,NA,NA,NA,NA,left,1405.69999998808,true,NA,NA,NA,NA,NA
tfEyCsiY,344m16ozllsw98pkhqhl4zt7rn1nev,33c7ualjvpbe9k6yq22p42gaf2v18u,tfEyCsiY,2020-0188,2021-10-15,09:42:44,10:55:25,NA,incomplete,false,true,NA,2,25,NA,black,m_l_039.jpg,NA,NA,unpleasant,pleasant,NA,NA,NA,NA,NA,right,1190.69999998808,true,NA,NA,NA,NA,NA
tfEyCsiY,344m16ozllsw98pkhqhl4zt7rn1nev,33c7ualjvpbe9k6yq22p42gaf2v18u,tfEyCsiY,2020-0188,2021-10-15,09:42:44,10:55:25,NA,incomplete,false,true,NA,2,26,NA,black,n_s_036.jpg,NA,NA,pleasant,unpleasant,NA,NA,NA,NA,NA,right,2074.30000001192,true,NA,NA,NA,NA,NA
tfEyCsiY,344m16ozllsw98pkhqhl4zt7rn1nev,33c7ualjvpbe9k6yq22p42gaf2v18u,tfEyCsiY,2020-0188,2021-10-15,09:42:44,10:55:25,NA,incomplete,false,true,NA,2,27,NA,black,n_s_003.jpg,NA,NA,unpleasant,pleasant,NA,NA,NA,NA,NA,left,1553.90000003576,true,NA,NA,NA,NA,NA
tfEyCsiY,344m16ozllsw98pkhqhl4zt7rn1nev,33c7ualjvpbe9k6yq22p42gaf2v18u,tfEyCsiY,2020-0188,2021-10-15,09:42:44,10:55:25,NA,incomplete,false,true,NA,2,28,NA,black,n_l_080.jpg,NA,NA,pleasant,unpleasant,NA,NA,NA,NA,NA,left,2211.60000002384,true,NA,NA,NA,NA,NA
tfEyCsiY,344m16ozllsw98pkhqhl4zt7rn1nev,33c7ualjvpbe9k6yq22p42gaf2v18u,tfEyCsiY,2020-0188,2021-10-15,09:42:44,10:55:25,NA,incomplete,false,true,NA,2,29,NA,black,n_l_048.jpg,NA,NA,pleasant,unpleasant,NA,NA,NA,NA,NA,left,1011.69999998808,true,NA,NA,NA,NA,NA
tfEyCsiY,344m16ozllsw98pkhqhl4zt7rn1nev,33c7ualjvpbe9k6yq22p42gaf2v18u,tfEyCsiY,2020-0188,2021-10-15,09:42:44,10:55:25,NA,incomplete,false,true,NA,2,30,NA,green,m_l_008.jpg,NA,NA,pleasant,unpleasant,NA,NA,NA,NA,NA,left,1577.69999998808,true,NA,NA,NA,NA,NA
tfEyCsiY,344m16ozllsw98pkhqhl4zt7rn1nev,33c7ualjvpbe9k6yq22p42gaf2v18u,tfEyCsiY,2020-0188,2021-10-15,09:42:44,10:55:25,NA,incomplete,false,true,NA,2,31,NA,green,n_s_083.jpg,NA,NA,unpleasant,pleasant,NA,NA,NA,NA,NA,left,1943.30000001192,true,NA,NA,NA,NA,NA
tfEyCsiY,344m16ozllsw98pkhqhl4zt7rn1nev,33c7ualjvpbe9k6yq22p42gaf2v18u,tfEyCsiY,2020-0188,2021-10-15,09:42:44,10:55:25,NA,incomplete,false,true,NA,2,32,NA,green,n_s_087.jpg,NA,NA,pleasant,unpleasant,NA,NA,NA,NA,NA,left,2707.10000002384,true,NA,NA,NA,NA,NA
tfEyCsiY,344m16ozllsw98pkhqhl4zt7rn1nev,33c7ualjvpbe9k6yq22p42gaf2v18u,tfEyCsiY,2020-0188,2021-10-15,09:42:44,10:55:25,NA,incomplete,false,true,NA,2,33,NA,green,m_s_020.jpg,NA,NA,unpleasant,pleasant,NA,NA,NA,NA,NA,right,1676.60000002384,true,NA,NA,NA,NA,NA
tfEyCsiY,344m16ozllsw98pkhqhl4zt7rn1nev,33c7ualjvpbe9k6yq22p42gaf2v18u,tfEyCsiY,2020-0188,2021-10-15,09:42:44,10:55:25,NA,incomplete,false,true,NA,2,34,NA,green,m_l_107.jpg,NA,NA,pleasant,unpleasant,NA,NA,NA,NA,NA,right,1689.5,true,NA,NA,NA,NA,NA
tfEyCsiY,344m16ozllsw98pkhqhl4zt7rn1nev,33c7ualjvpbe9k6yq22p42gaf2v18u,tfEyCsiY,2020-0188,2021-10-15,09:42:44,10:55:25,NA,incomplete,false,true,NA,2,35,NA,green,m_l_048.jpg,NA,NA,pleasant,unpleasant,NA,NA,NA,NA,NA,left,2222.90000003576,true,NA,NA,NA,NA,NA
tfEyCsiY,344m16ozllsw98pkhqhl4zt7rn1nev,33c7ualjvpbe9k6yq22p42gaf2v18u,tfEyCsiY,2020-0188,2021-10-15,09:42:44,10:55:25,NA,incomplete,false,NA,true,2,0,NA,NA,NA,left,present,NA,NA,m_l_091.jpg,brown,m_l_031.jpg,brown,within,NA,NaN,NA,right,2396.699999988079,0,1,1112.3999999761581
tfEyCsiY,344m16ozllsw98pkhqhl4zt7rn1nev,33c7ualjvpbe9k6yq22p42gaf2v18u,tfEyCsiY,2020-0188,2021-10-15,09:42:44,10:55:25,NA,incomplete,false,NA,true,2,1,NA,NA,NA,left,present,NA,NA,n_l_080.jpg,black,n_s_087.jpg,green,between,NA,NaN,NA,left,2874.800000011921,1,0,1790.300000011921
tfEyCsiY,344m16ozllsw98pkhqhl4zt7rn1nev,33c7ualjvpbe9k6yq22p42gaf2v18u,tfEyCsiY,2020-0188,2021-10-15,09:42:44,10:55:25,NA,incomplete,false,NA,true,2,2,NA,NA,NA,left,present,NA,NA,m_s_065.jpg,orange,n_l_034.jpg,orange,within,NA,NaN,NA,right,3585.099999964237,0,1,1520.2000000476837
tfEyCsiY,344m16ozllsw98pkhqhl4zt7rn1nev,33c7ualjvpbe9k6yq22p42gaf2v18u,tfEyCsiY,2020-0188,2021-10-15,09:42:44,10:55:25,NA,incomplete,false,NA,true,2,3,NA,NA,NA,right,present,NA,NA,m_s_073.jpg,brown,m_l_026.jpg,blue,between,NA,NaN,NA,right,2480.199999988079,1,1,1915.300000011921
tfEyCsiY,344m16ozllsw98pkhqhl4zt7rn1nev,33c7ualjvpbe9k6yq22p42gaf2v18u,tfEyCsiY,2020-0188,2021-10-15,09:42:44,10:55:25,NA,incomplete,false,NA,true,2,4,NA,NA,NA,right,present,NA,NA,m_s_054.jpg,red,n_s_101.jpg,red,within,NA,NaN,NA,right,2410.400000035763,1,2,1077.199999988079
tfEyCsiY,344m16ozllsw98pkhqhl4zt7rn1nev,33c7ualjvpbe9k6yq22p42gaf2v18u,tfEyCsiY,2020-0188,2021-10-15,09:42:44,10:55:25,NA,incomplete,false,NA,true,2,5,NA,NA,NA,left,present,NA,NA,m_l_078.jpg,blue,n_l_079.jpg,blue,within,NA,NaN,NA,right,4024.400000035763,0,3,1118.800000011921
tfEyCsiY,344m16ozllsw98pkhqhl4zt7rn1nev,33c7ualjvpbe9k6yq22p42gaf2v18u,tfEyCsiY,2020-0188,2021-10-15,09:42:44,10:55:25,NA,incomplete,false,NA,true,2,6,NA,NA,NA,left,present,NA,NA,n_s_083.jpg,green,m_l_048.jpg,green,within,NA,NaN,NA,left,1865.8999999761581,1,2,994.5999999642372
tfEyCsiY,344m16ozllsw98pkhqhl4zt7rn1nev,33c7ualjvpbe9k6yq22p42gaf2v18u,tfEyCsiY,2020-0188,2021-10-15,09:42:44,10:55:25,NA,incomplete,false,NA,true,2,7,NA,NA,NA,right,present,NA,NA,m_s_013.jpg,orange,n_l_103.jpg,red,between,NA,NaN,NA,left,2382.100000023842,0,2,1893.300000011921
tfEyCsiY,344m16ozllsw98pkhqhl4zt7rn1nev,33c7ualjvpbe9k6yq22p42gaf2v18u,tfEyCsiY,2020-0188,2021-10-15,09:42:44,10:55:25,NA,incomplete,false,NA,true,2,8,NA,NA,NA,right,present,NA,NA,n_l_048.jpg,black,m_l_039.jpg,black,within,NA,NaN,NA,right,2682.900000035763,1,2,2100.5
tfEyCsiY,344m16ozllsw98pkhqhl4zt7rn1nev,33c7ualjvpbe9k6yq22p42gaf2v18u,tfEyCsiY,2020-0188,2021-10-15,09:42:44,10:55:25,NA,incomplete,false,NA,true,2,9,NA,NA,NA,left,present,NA,NA,m_l_052.jpg,brown,n_s_036.jpg,black,between,NA,NaN,NA,left,1700.699999988079,1,1,1170.300000011921
tfEyCsiY,344m16ozllsw98pkhqhl4zt7rn1nev,33c7ualjvpbe9k6yq22p42gaf2v18u,tfEyCsiY,2020-0188,2021-10-15,09:42:44,10:55:25,NA,incomplete,false,NA,true,2,10,NA,NA,NA,right,present,NA,NA,n_s_025.jpg,blue,m_s_029.jpg,orange,between,NA,NaN,NA,left,2107.699999988079,0,3,1056.300000011921
tfEyCsiY,344m16ozllsw98pkhqhl4zt7rn1nev,33c7ualjvpbe9k6yq22p42gaf2v18u,tfEyCsiY,2020-0188,2021-10-15,09:42:44,10:55:25,NA,incomplete,false,true,NA,3,0,NA,yellow,n_l_014.jpg,NA,NA,pleasant,unpleasant,NA,NA,NA,NA,NA,left,1631.60000002384,true,NA,NA,NA,NA,NA
tfEyCsiY,344m16ozllsw98pkhqhl4zt7rn1nev,33c7ualjvpbe9k6yq22p42gaf2v18u,tfEyCsiY,2020-0188,2021-10-15,09:42:44,10:55:25,NA,incomplete,false,true,NA,3,1,NA,yellow,m_l_029.jpg,NA,NA,unpleasant,pleasant,NA,NA,NA,NA,NA,right,1831.60000002384,true,NA,NA,NA,NA,NA
tfEyCsiY,344m16ozllsw98pkhqhl4zt7rn1nev,33c7ualjvpbe9k6yq22p42gaf2v18u,tfEyCsiY,2020-0188,2021-10-15,09:42:44,10:55:25,NA,incomplete,false,true,NA,3,2,NA,yellow,m_s_104.jpg,NA,NA,pleasant,unpleasant,NA,NA,NA,NA,NA,left,1743.89999997616,true,NA,NA,NA,NA,NA
tfEyCsiY,344m16ozllsw98pkhqhl4zt7rn1nev,33c7ualjvpbe9k6yq22p42gaf2v18u,tfEyCsiY,2020-0188,2021-10-15,09:42:44,10:55:25,NA,incomplete,false,true,NA,3,3,NA,yellow,m_l_046.jpg,NA,NA,unpleasant,pleasant,NA,NA,NA,NA,NA,left,1267.70000004768,true,NA,NA,NA,NA,NA
tfEyCsiY,344m16ozllsw98pkhqhl4zt7rn1nev,33c7ualjvpbe9k6yq22p42gaf2v18u,tfEyCsiY,2020-0188,2021-10-15,09:42:44,10:55:25,NA,incomplete,false,true,NA,3,4,NA,yellow,n_s_023.jpg,NA,NA,pleasant,unpleasant,NA,NA,NA,NA,NA,right,1914.39999997616,true,NA,NA,NA,NA,NA
tfEyCsiY,344m16ozllsw98pkhqhl4zt7rn1nev,33c7ualjvpbe9k6yq22p42gaf2v18u,tfEyCsiY,2020-0188,2021-10-15,09:42:44,10:55:25,NA,incomplete,false,true,NA,3,5,NA,yellow,m_l_023.jpg,NA,NA,unpleasant,pleasant,NA,NA,NA,NA,NA,right,1408.90000003576,true,NA,NA,NA,NA,NA
tfEyCsiY,344m16ozllsw98pkhqhl4zt7rn1nev,33c7ualjvpbe9k6yq22p42gaf2v18u,tfEyCsiY,2020-0188,2021-10-15,09:42:44,10:55:25,NA,incomplete,false,true,NA,3,6,NA,white,m_l_055.jpg,NA,NA,unpleasant,pleasant,NA,NA,NA,NA,NA,left,1540.60000002384,true,NA,NA,NA,NA,NA
tfEyCsiY,344m16ozllsw98pkhqhl4zt7rn1nev,33c7ualjvpbe9k6yq22p42gaf2v18u,tfEyCsiY,2020-0188,2021-10-15,09:42:44,10:55:25,NA,incomplete,false,true,NA,3,7,NA,white,m_s_039.jpg,NA,NA,pleasant,unpleasant,NA,NA,NA,NA,NA,right,2241.70000004768,true,NA,NA,NA,NA,NA
tfEyCsiY,344m16ozllsw98pkhqhl4zt7rn1nev,33c7ualjvpbe9k6yq22p42gaf2v18u,tfEyCsiY,2020-0188,2021-10-15,09:42:44,10:55:25,NA,incomplete,false,true,NA,3,8,NA,white,n_l_052.jpg,NA,NA,pleasant,unpleasant,NA,NA,NA,NA,NA,left,1123,true,NA,NA,NA,NA,NA
tfEyCsiY,344m16ozllsw98pkhqhl4zt7rn1nev,33c7ualjvpbe9k6yq22p42gaf2v18u,tfEyCsiY,2020-0188,2021-10-15,09:42:44,10:55:25,NA,incomplete,false,true,NA,3,9,NA,white,n_l_086.jpg,NA,NA,pleasant,unpleasant,NA,NA,NA,NA,NA,left,1078.30000001192,true,NA,NA,NA,NA,NA
tfEyCsiY,344m16ozllsw98pkhqhl4zt7rn1nev,33c7ualjvpbe9k6yq22p42gaf2v18u,tfEyCsiY,2020-0188,2021-10-15,09:42:44,10:55:25,NA,incomplete,false,true,NA,3,10,NA,white,m_l_002.jpg,NA,NA,unpleasant,pleasant,NA,NA,NA,NA,NA,left,1776,true,NA,NA,NA,NA,NA
tfEyCsiY,344m16ozllsw98pkhqhl4zt7rn1nev,33c7ualjvpbe9k6yq22p42gaf2v18u,tfEyCsiY,2020-0188,2021-10-15,09:42:44,10:55:25,NA,incomplete,false,true,NA,3,11,NA,white,m_s_011.jpg,NA,NA,unpleasant,pleasant,NA,NA,NA,NA,NA,right,1688.60000002384,true,NA,NA,NA,NA,NA
tfEyCsiY,344m16ozllsw98pkhqhl4zt7rn1nev,33c7ualjvpbe9k6yq22p42gaf2v18u,tfEyCsiY,2020-0188,2021-10-15,09:42:44,10:55:25,NA,incomplete,false,true,NA,3,12,NA,orange,n_l_116.jpg,NA,NA,unpleasant,pleasant,NA,NA,NA,NA,NA,right,1248,true,NA,NA,NA,NA,NA
tfEyCsiY,344m16ozllsw98pkhqhl4zt7rn1nev,33c7ualjvpbe9k6yq22p42gaf2v18u,tfEyCsiY,2020-0188,2021-10-15,09:42:44,10:55:25,NA,incomplete,false,true,NA,3,13,NA,orange,m_s_099.jpg,NA,NA,unpleasant,pleasant,NA,NA,NA,NA,NA,right,1865.59999996424,true,NA,NA,NA,NA,NA
tfEyCsiY,344m16ozllsw98pkhqhl4zt7rn1nev,33c7ualjvpbe9k6yq22p42gaf2v18u,tfEyCsiY,2020-0188,2021-10-15,09:42:44,10:55:25,NA,incomplete,false,true,NA,3,14,NA,orange,m_l_100.jpg,NA,NA,pleasant,unpleasant,NA,NA,NA,NA,NA,left,1149.80000001192,true,NA,NA,NA,NA,NA
tfEyCsiY,344m16ozllsw98pkhqhl4zt7rn1nev,33c7ualjvpbe9k6yq22p42gaf2v18u,tfEyCsiY,2020-0188,2021-10-15,09:42:44,10:55:25,NA,incomplete,false,true,NA,3,15,NA,orange,m_s_079.jpg,NA,NA,unpleasant,pleasant,NA,NA,NA,NA,NA,right,1067,true,NA,NA,NA,NA,NA
tfEyCsiY,344m16ozllsw98pkhqhl4zt7rn1nev,33c7ualjvpbe9k6yq22p42gaf2v18u,tfEyCsiY,2020-0188,2021-10-15,09:42:44,10:55:25,NA,incomplete,false,true,NA,3,16,NA,orange,n_l_022.jpg,NA,NA,pleasant,unpleasant,NA,NA,NA,NA,NA,left,1257.5,true,NA,NA,NA,NA,NA
tfEyCsiY,344m16ozllsw98pkhqhl4zt7rn1nev,33c7ualjvpbe9k6yq22p42gaf2v18u,tfEyCsiY,2020-0188,2021-10-15,09:42:44,10:55:25,NA,incomplete,false,true,NA,3,17,NA,orange,n_s_097.jpg,NA,NA,pleasant,unpleasant,NA,NA,NA,NA,NA,left,1900.80000001192,true,NA,NA,NA,NA,NA
tfEyCsiY,344m16ozllsw98pkhqhl4zt7rn1nev,33c7ualjvpbe9k6yq22p42gaf2v18u,tfEyCsiY,2020-0188,2021-10-15,09:42:44,10:55:25,NA,incomplete,false,true,NA,3,18,NA,purple,n_s_031.jpg,NA,NA,pleasant,unpleasant,NA,NA,NA,NA,NA,right,982.399999976158,true,NA,NA,NA,NA,NA
tfEyCsiY,344m16ozllsw98pkhqhl4zt7rn1nev,33c7ualjvpbe9k6yq22p42gaf2v18u,tfEyCsiY,2020-0188,2021-10-15,09:42:44,10:55:25,NA,incomplete,false,true,NA,3,19,NA,purple,m_l_092.jpg,NA,NA,pleasant,unpleasant,NA,NA,NA,NA,NA,right,1833.40000003576,true,NA,NA,NA,NA,NA
tfEyCsiY,344m16ozllsw98pkhqhl4zt7rn1nev,33c7ualjvpbe9k6yq22p42gaf2v18u,tfEyCsiY,2020-0188,2021-10-15,09:42:44,10:55:25,NA,incomplete,false,true,NA,3,20,NA,purple,n_s_068.jpg,NA,NA,pleasant,unpleasant,NA,NA,NA,NA,NA,right,1182.30000001192,true,NA,NA,NA,NA,NA
tfEyCsiY,344m16ozllsw98pkhqhl4zt7rn1nev,33c7ualjvpbe9k6yq22p42gaf2v18u,tfEyCsiY,2020-0188,2021-10-15,09:42:44,10:55:25,NA,incomplete,false,true,NA,3,21,NA,purple,n_l_091.jpg,NA,NA,unpleasant,pleasant,NA,NA,NA,NA,NA,right,1860.59999996424,true,NA,NA,NA,NA,NA
tfEyCsiY,344m16ozllsw98pkhqhl4zt7rn1nev,33c7ualjvpbe9k6yq22p42gaf2v18u,tfEyCsiY,2020-0188,2021-10-15,09:42:44,10:55:25,NA,incomplete,false,true,NA,3,22,NA,purple,n_s_081.jpg,NA,NA,unpleasant,pleasant,NA,NA,NA,NA,NA,left,1672.5,true,NA,NA,NA,NA,NA
tfEyCsiY,344m16ozllsw98pkhqhl4zt7rn1nev,33c7ualjvpbe9k6yq22p42gaf2v18u,tfEyCsiY,2020-0188,2021-10-15,09:42:44,10:55:25,NA,incomplete,false,true,NA,3,23,NA,purple,m_l_082.jpg,NA,NA,pleasant,unpleasant,NA,NA,NA,NA,NA,right,1701.10000002384,true,NA,NA,NA,NA,NA
tfEyCsiY,344m16ozllsw98pkhqhl4zt7rn1nev,33c7ualjvpbe9k6yq22p42gaf2v18u,tfEyCsiY,2020-0188,2021-10-15,09:42:44,10:55:25,NA,incomplete,false,true,NA,3,24,NA,brown,n_s_015.jpg,NA,NA,pleasant,unpleasant,NA,NA,NA,NA,NA,right,1330.89999997616,true,NA,NA,NA,NA,NA
tfEyCsiY,344m16ozllsw98pkhqhl4zt7rn1nev,33c7ualjvpbe9k6yq22p42gaf2v18u,tfEyCsiY,2020-0188,2021-10-15,09:42:44,10:55:25,NA,incomplete,false,true,NA,3,25,NA,brown,n_l_114.jpg,NA,NA,pleasant,unpleasant,NA,NA,NA,NA,NA,right,1357.80000001192,true,NA,NA,NA,NA,NA
tfEyCsiY,344m16ozllsw98pkhqhl4zt7rn1nev,33c7ualjvpbe9k6yq22p42gaf2v18u,tfEyCsiY,2020-0188,2021-10-15,09:42:44,10:55:25,NA,incomplete,false,true,NA,3,26,NA,brown,n_s_032.jpg,NA,NA,unpleasant,pleasant,NA,NA,NA,NA,NA,right,1400.60000002384,true,NA,NA,NA,NA,NA
tfEyCsiY,344m16ozllsw98pkhqhl4zt7rn1nev,33c7ualjvpbe9k6yq22p42gaf2v18u,tfEyCsiY,2020-0188,2021-10-15,09:42:44,10:55:25,NA,incomplete,false,true,NA,3,27,NA,brown,m_l_032.jpg,NA,NA,pleasant,unpleasant,NA,NA,NA,NA,NA,left,1356.5,true,NA,NA,NA,NA,NA
tfEyCsiY,344m16ozllsw98pkhqhl4zt7rn1nev,33c7ualjvpbe9k6yq22p42gaf2v18u,tfEyCsiY,2020-0188,2021-10-15,09:42:44,10:55:25,NA,incomplete,false,true,NA,3,28,NA,brown,n_s_022.jpg,NA,NA,unpleasant,pleasant,NA,NA,NA,NA,NA,right,1163.5,true,NA,NA,NA,NA,NA
tfEyCsiY,344m16ozllsw98pkhqhl4zt7rn1nev,33c7ualjvpbe9k6yq22p42gaf2v18u,tfEyCsiY,2020-0188,2021-10-15,09:42:44,10:55:25,NA,incomplete,false,true,NA,3,29,NA,brown,n_s_094.jpg,NA,NA,pleasant,unpleasant,NA,NA,NA,NA,NA,left,1523.5,true,NA,NA,NA,NA,NA
tfEyCsiY,344m16ozllsw98pkhqhl4zt7rn1nev,33c7ualjvpbe9k6yq22p42gaf2v18u,tfEyCsiY,2020-0188,2021-10-15,09:42:44,10:55:25,NA,incomplete,false,true,NA,3,30,NA,blue,n_s_080.jpg,NA,NA,unpleasant,pleasant,NA,NA,NA,NA,NA,left,1859.30000001192,true,NA,NA,NA,NA,NA
tfEyCsiY,344m16ozllsw98pkhqhl4zt7rn1nev,33c7ualjvpbe9k6yq22p42gaf2v18u,tfEyCsiY,2020-0188,2021-10-15,09:42:44,10:55:25,NA,incomplete,false,true,NA,3,31,NA,blue,n_l_064.jpg,NA,NA,unpleasant,pleasant,NA,NA,NA,NA,NA,right,1542.10000002384,true,NA,NA,NA,NA,NA
tfEyCsiY,344m16ozllsw98pkhqhl4zt7rn1nev,33c7ualjvpbe9k6yq22p42gaf2v18u,tfEyCsiY,2020-0188,2021-10-15,09:42:44,10:55:25,NA,incomplete,false,true,NA,3,32,NA,blue,n_s_060.jpg,NA,NA,unpleasant,pleasant,NA,NA,NA,NA,NA,right,1216,true,NA,NA,NA,NA,NA
tfEyCsiY,344m16ozllsw98pkhqhl4zt7rn1nev,33c7ualjvpbe9k6yq22p42gaf2v18u,tfEyCsiY,2020-0188,2021-10-15,09:42:44,10:55:25,NA,incomplete,false,true,NA,3,33,NA,blue,m_s_109.jpg,NA,NA,unpleasant,pleasant,NA,NA,NA,NA,NA,right,1146.5,true,NA,NA,NA,NA,NA
tfEyCsiY,344m16ozllsw98pkhqhl4zt7rn1nev,33c7ualjvpbe9k6yq22p42gaf2v18u,tfEyCsiY,2020-0188,2021-10-15,09:42:44,10:55:25,NA,incomplete,false,true,NA,3,34,NA,blue,m_s_033.jpg,NA,NA,unpleasant,pleasant,NA,NA,NA,NA,NA,right,1232.70000004768,true,NA,NA,NA,NA,NA
tfEyCsiY,344m16ozllsw98pkhqhl4zt7rn1nev,33c7ualjvpbe9k6yq22p42gaf2v18u,tfEyCsiY,2020-0188,2021-10-15,09:42:44,10:55:25,NA,incomplete,false,true,NA,3,35,NA,blue,m_s_044.jpg,NA,NA,pleasant,unpleasant,NA,NA,NA,NA,NA,left,2150.19999998808,true,NA,NA,NA,NA,NA
tfEyCsiY,344m16ozllsw98pkhqhl4zt7rn1nev,33c7ualjvpbe9k6yq22p42gaf2v18u,tfEyCsiY,2020-0188,2021-10-15,09:42:44,10:55:25,NA,incomplete,false,NA,true,3,0,NA,NA,NA,right,absent,NA,NA,n_l_052.jpg,white,n_s_023.jpg,yellow,between,NA,NaN,NA,left,5378.5,0,1,2515.100000023842
tfEyCsiY,344m16ozllsw98pkhqhl4zt7rn1nev,33c7ualjvpbe9k6yq22p42gaf2v18u,tfEyCsiY,2020-0188,2021-10-15,09:42:44,10:55:25,NA,incomplete,false,NA,true,3,1,NA,NA,NA,right,absent,NA,NA,m_l_100.jpg,orange,m_l_002.jpg,white,between,NA,NaN,NA,right,2209.600000023842,1,2,1335.800000011921
tfEyCsiY,344m16ozllsw98pkhqhl4zt7rn1nev,33c7ualjvpbe9k6yq22p42gaf2v18u,tfEyCsiY,2020-0188,2021-10-15,09:42:44,10:55:25,NA,incomplete,false,NA,true,3,2,NA,NA,NA,right,absent,NA,NA,m_l_023.jpg,yellow,m_l_029.jpg,yellow,within,NA,NaN,NA,right,2205.5,1,1,1851.9000000357628
tfEyCsiY,344m16ozllsw98pkhqhl4zt7rn1nev,33c7ualjvpbe9k6yq22p42gaf2v18u,tfEyCsiY,2020-0188,2021-10-15,09:42:44,10:55:25,NA,incomplete,false,NA,true,3,3,NA,NA,NA,right,absent,NA,NA,n_s_068.jpg,purple,n_l_022.jpg,orange,between,NA,NaN,NA,right,1754.1000000238419,1,3,2337.300000011921
tfEyCsiY,344m16ozllsw98pkhqhl4zt7rn1nev,33c7ualjvpbe9k6yq22p42gaf2v18u,tfEyCsiY,2020-0188,2021-10-15,09:42:44,10:55:25,NA,incomplete,false,NA,true,3,4,NA,NA,NA,right,absent,NA,NA,m_s_011.jpg,white,m_s_039.jpg,white,within,NA,NaN,NA,left,2764.5,0,3,1644.199999988079
tfEyCsiY,344m16ozllsw98pkhqhl4zt7rn1nev,33c7ualjvpbe9k6yq22p42gaf2v18u,tfEyCsiY,2020-0188,2021-10-15,09:42:44,10:55:25,NA,incomplete,false,NA,true,3,5,NA,NA,NA,right,absent,NA,NA,n_s_032.jpg,brown,n_s_081.jpg,purple,between,NA,NaN,NA,left,2570.800000011921,0,0,1922.800000011921
tfEyCsiY,344m16ozllsw98pkhqhl4zt7rn1nev,33c7ualjvpbe9k6yq22p42gaf2v18u,tfEyCsiY,2020-0188,2021-10-15,09:42:44,10:55:25,NA,incomplete,false,NA,true,3,6,NA,NA,NA,left,absent,NA,NA,n_s_022.jpg,brown,n_s_060.jpg,blue,between,NA,NaN,NA,left,1731.6000000238419,1,1,1991.3999999761581
tfEyCsiY,344m16ozllsw98pkhqhl4zt7rn1nev,33c7ualjvpbe9k6yq22p42gaf2v18u,tfEyCsiY,2020-0188,2021-10-15,09:42:44,10:55:25,NA,incomplete,false,NA,true,3,7,NA,NA,NA,right,absent,NA,NA,n_s_094.jpg,brown,n_l_114.jpg,brown,within,NA,NaN,NA,left,2494.900000035763,0,1,2780.5
tfEyCsiY,344m16ozllsw98pkhqhl4zt7rn1nev,33c7ualjvpbe9k6yq22p42gaf2v18u,tfEyCsiY,2020-0188,2021-10-15,09:42:44,10:55:25,NA,incomplete,false,NA,true,3,8,NA,NA,NA,right,absent,NA,NA,n_s_097.jpg,orange,m_s_099.jpg,orange,within,NA,NaN,NA,left,2512.600000023842,0,1,1623.7999999523163
tfEyCsiY,344m16ozllsw98pkhqhl4zt7rn1nev,33c7ualjvpbe9k6yq22p42gaf2v18u,tfEyCsiY,2020-0188,2021-10-15,09:42:44,10:55:25,NA,incomplete,false,NA,true,3,9,NA,NA,NA,right,absent,NA,NA,m_l_082.jpg,purple,m_l_092.jpg,purple,within,NA,NaN,NA,right,4700.899999976158,1,0,1159.800000011921
tfEyCsiY,344m16ozllsw98pkhqhl4zt7rn1nev,33c7ualjvpbe9k6yq22p42gaf2v18u,tfEyCsiY,2020-0188,2021-10-15,09:42:44,10:55:25,NA,incomplete,false,NA,true,3,10,NA,NA,NA,right,absent,NA,NA,m_s_044.jpg,blue,n_l_064.jpg,blue,within,NA,NaN,NA,right,1768,1,1,1471.8999999761581
tfEyCsiY,344m16ozllsw98pkhqhl4zt7rn1nev,33c7ualjvpbe9k6yq22p42gaf2v18u,tfEyCsiY,2020-0188,2021-10-15,09:42:44,10:55:25,NA,incomplete,false,true,NA,4,0,NA,green,n_s_076.jpg,NA,NA,pleasant,unpleasant,NA,NA,NA,NA,NA,right,1628.30000001192,true,NA,NA,NA,NA,NA
tfEyCsiY,344m16ozllsw98pkhqhl4zt7rn1nev,33c7ualjvpbe9k6yq22p42gaf2v18u,tfEyCsiY,2020-0188,2021-10-15,09:42:44,10:55:25,NA,incomplete,false,true,NA,4,1,NA,green,n_s_108.jpg,NA,NA,unpleasant,pleasant,NA,NA,NA,NA,NA,right,1767.30000001192,true,NA,NA,NA,NA,NA
tfEyCsiY,344m16ozllsw98pkhqhl4zt7rn1nev,33c7ualjvpbe9k6yq22p42gaf2v18u,tfEyCsiY,2020-0188,2021-10-15,09:42:44,10:55:25,NA,incomplete,false,true,NA,4,2,NA,green,m_l_112.jpg,NA,NA,pleasant,unpleasant,NA,NA,NA,NA,NA,right,1841.09999996424,true,NA,NA,NA,NA,NA
tfEyCsiY,344m16ozllsw98pkhqhl4zt7rn1nev,33c7ualjvpbe9k6yq22p42gaf2v18u,tfEyCsiY,2020-0188,2021-10-15,09:42:44,10:55:25,NA,incomplete,false,true,NA,4,3,NA,green,n_s_054.jpg,NA,NA,unpleasant,pleasant,NA,NA,NA,NA,NA,left,1777.90000003576,true,NA,NA,NA,NA,NA
tfEyCsiY,344m16ozllsw98pkhqhl4zt7rn1nev,33c7ualjvpbe9k6yq22p42gaf2v18u,tfEyCsiY,2020-0188,2021-10-15,09:42:44,10:55:25,NA,incomplete,false,true,NA,4,4,NA,green,m_s_096.jpg,NA,NA,pleasant,unpleasant,NA,NA,NA,NA,NA,left,1782.5,true,NA,NA,NA,NA,NA
tfEyCsiY,344m16ozllsw98pkhqhl4zt7rn1nev,33c7ualjvpbe9k6yq22p42gaf2v18u,tfEyCsiY,2020-0188,2021-10-15,09:42:44,10:55:25,NA,incomplete,false,true,NA,4,5,NA,green,m_s_080.jpg,NA,NA,unpleasant,pleasant,NA,NA,NA,NA,NA,right,1635.80000001192,true,NA,NA,NA,NA,NA
tfEyCsiY,344m16ozllsw98pkhqhl4zt7rn1nev,33c7ualjvpbe9k6yq22p42gaf2v18u,tfEyCsiY,2020-0188,2021-10-15,09:42:44,10:55:25,NA,incomplete,false,true,NA,4,6,NA,yellow,m_l_061.jpg,NA,NA,unpleasant,pleasant,NA,NA,NA,NA,NA,right,1560.5,true,NA,NA,NA,NA,NA
tfEyCsiY,344m16ozllsw98pkhqhl4zt7rn1nev,33c7ualjvpbe9k6yq22p42gaf2v18u,tfEyCsiY,2020-0188,2021-10-15,09:42:44,10:55:25,NA,incomplete,false,true,NA,4,7,NA,yellow,m_l_106.jpg,NA,NA,unpleasant,pleasant,NA,NA,NA,NA,NA,right,1332.5,true,NA,NA,NA,NA,NA
tfEyCsiY,344m16ozllsw98pkhqhl4zt7rn1nev,33c7ualjvpbe9k6yq22p42gaf2v18u,tfEyCsiY,2020-0188,2021-10-15,09:42:44,10:55:25,NA,incomplete,false,true,NA,4,8,NA,yellow,n_l_074.jpg,NA,NA,unpleasant,pleasant,NA,NA,NA,NA,NA,left,1221,true,NA,NA,NA,NA,NA
tfEyCsiY,344m16ozllsw98pkhqhl4zt7rn1nev,33c7ualjvpbe9k6yq22p42gaf2v18u,tfEyCsiY,2020-0188,2021-10-15,09:42:44,10:55:25,NA,incomplete,false,true,NA,4,9,NA,yellow,n_s_079.jpg,NA,NA,unpleasant,pleasant,NA,NA,NA,NA,NA,right,1797.19999998808,true,NA,NA,NA,NA,NA
tfEyCsiY,344m16ozllsw98pkhqhl4zt7rn1nev,33c7ualjvpbe9k6yq22p42gaf2v18u,tfEyCsiY,2020-0188,2021-10-15,09:42:44,10:55:25,NA,incomplete,false,true,NA,4,10,NA,yellow,m_s_018.jpg,NA,NA,pleasant,unpleasant,NA,NA,NA,NA,NA,left,1785.79999995232,true,NA,NA,NA,NA,NA
tfEyCsiY,344m16ozllsw98pkhqhl4zt7rn1nev,33c7ualjvpbe9k6yq22p42gaf2v18u,tfEyCsiY,2020-0188,2021-10-15,09:42:44,10:55:25,NA,incomplete,false,true,NA,4,11,NA,yellow,m_s_010.jpg,NA,NA,pleasant,unpleasant,NA,NA,NA,NA,NA,left,1163.80000001192,true,NA,NA,NA,NA,NA
tfEyCsiY,344m16ozllsw98pkhqhl4zt7rn1nev,33c7ualjvpbe9k6yq22p42gaf2v18u,tfEyCsiY,2020-0188,2021-10-15,09:42:44,10:55:25,NA,incomplete,false,true,NA,4,12,NA,gray,n_s_038.jpg,NA,NA,unpleasant,pleasant,NA,NA,NA,NA,NA,left,1599.60000002384,true,NA,NA,NA,NA,NA
tfEyCsiY,344m16ozllsw98pkhqhl4zt7rn1nev,33c7ualjvpbe9k6yq22p42gaf2v18u,tfEyCsiY,2020-0188,2021-10-15,09:42:44,10:55:25,NA,incomplete,false,true,NA,4,13,NA,gray,n_s_110.jpg,NA,NA,pleasant,unpleasant,NA,NA,NA,NA,NA,left,1638.89999997616,true,NA,NA,NA,NA,NA
tfEyCsiY,344m16ozllsw98pkhqhl4zt7rn1nev,33c7ualjvpbe9k6yq22p42gaf2v18u,tfEyCsiY,2020-0188,2021-10-15,09:42:44,10:55:25,NA,incomplete,false,true,NA,4,14,NA,gray,m_l_047.jpg,NA,NA,pleasant,unpleasant,NA,NA,NA,NA,NA,right,1989.19999998808,true,NA,NA,NA,NA,NA
tfEyCsiY,344m16ozllsw98pkhqhl4zt7rn1nev,33c7ualjvpbe9k6yq22p42gaf2v18u,tfEyCsiY,2020-0188,2021-10-15,09:42:44,10:55:25,NA,incomplete,false,true,NA,4,15,NA,gray,n_l_002.jpg,NA,NA,pleasant,unpleasant,NA,NA,NA,NA,NA,left,1195.80000001192,true,NA,NA,NA,NA,NA
tfEyCsiY,344m16ozllsw98pkhqhl4zt7rn1nev,33c7ualjvpbe9k6yq22p42gaf2v18u,tfEyCsiY,2020-0188,2021-10-15,09:42:44,10:55:25,NA,incomplete,false,true,NA,4,16,NA,gray,m_s_070.jpg,NA,NA,pleasant,unpleasant,NA,NA,NA,NA,NA,right,1295.69999998808,true,NA,NA,NA,NA,NA
tfEyCsiY,344m16ozllsw98pkhqhl4zt7rn1nev,33c7ualjvpbe9k6yq22p42gaf2v18u,tfEyCsiY,2020-0188,2021-10-15,09:42:44,10:55:25,NA,incomplete,false,true,NA,4,17,NA,gray,m_s_004.jpg,NA,NA,unpleasant,pleasant,NA,NA,NA,NA,NA,left,1687.89999997616,true,NA,NA,NA,NA,NA
tfEyCsiY,344m16ozllsw98pkhqhl4zt7rn1nev,33c7ualjvpbe9k6yq22p42gaf2v18u,tfEyCsiY,2020-0188,2021-10-15,09:42:44,10:55:25,NA,incomplete,false,true,NA,4,18,NA,blue,n_l_053.jpg,NA,NA,pleasant,unpleasant,NA,NA,NA,NA,NA,left,1493.19999998808,true,NA,NA,NA,NA,NA
tfEyCsiY,344m16ozllsw98pkhqhl4zt7rn1nev,33c7ualjvpbe9k6yq22p42gaf2v18u,tfEyCsiY,2020-0188,2021-10-15,09:42:44,10:55:25,NA,incomplete,false,true,NA,4,19,NA,blue,n_l_108.jpg,NA,NA,pleasant,unpleasant,NA,NA,NA,NA,NA,left,1081,true,NA,NA,NA,NA,NA
tfEyCsiY,344m16ozllsw98pkhqhl4zt7rn1nev,33c7ualjvpbe9k6yq22p42gaf2v18u,tfEyCsiY,2020-0188,2021-10-15,09:42:44,10:55:25,NA,incomplete,false,true,NA,4,20,NA,blue,m_l_066.jpg,NA,NA,pleasant,unpleasant,NA,NA,NA,NA,NA,left,1569,true,NA,NA,NA,NA,NA
tfEyCsiY,344m16ozllsw98pkhqhl4zt7rn1nev,33c7ualjvpbe9k6yq22p42gaf2v18u,tfEyCsiY,2020-0188,2021-10-15,09:42:44,10:55:25,NA,incomplete,false,true,NA,4,21,NA,blue,n_l_077.jpg,NA,NA,unpleasant,pleasant,NA,NA,NA,NA,NA,left,1865.19999998808,true,NA,NA,NA,NA,NA
tfEyCsiY,344m16ozllsw98pkhqhl4zt7rn1nev,33c7ualjvpbe9k6yq22p42gaf2v18u,tfEyCsiY,2020-0188,2021-10-15,09:42:44,10:55:25,NA,incomplete,false,true,NA,4,22,NA,blue,n_l_019.jpg,NA,NA,pleasant,unpleasant,NA,NA,NA,NA,NA,left,1598.80000001192,true,NA,NA,NA,NA,NA
tfEyCsiY,344m16ozllsw98pkhqhl4zt7rn1nev,33c7ualjvpbe9k6yq22p42gaf2v18u,tfEyCsiY,2020-0188,2021-10-15,09:42:44,10:55:25,NA,incomplete,false,true,NA,4,23,NA,blue,m_s_040.jpg,NA,NA,pleasant,unpleasant,NA,NA,NA,NA,NA,left,2183.20000004768,true,NA,NA,NA,NA,NA
tfEyCsiY,344m16ozllsw98pkhqhl4zt7rn1nev,33c7ualjvpbe9k6yq22p42gaf2v18u,tfEyCsiY,2020-0188,2021-10-15,09:42:44,10:55:25,NA,incomplete,false,true,NA,4,24,NA,purple,n_l_062.jpg,NA,NA,unpleasant,pleasant,NA,NA,NA,NA,NA,right,1539.80000001192,true,NA,NA,NA,NA,NA
tfEyCsiY,344m16ozllsw98pkhqhl4zt7rn1nev,33c7ualjvpbe9k6yq22p42gaf2v18u,tfEyCsiY,2020-0188,2021-10-15,09:42:44,10:55:25,NA,incomplete,false,true,NA,4,25,NA,purple,n_l_099.jpg,NA,NA,pleasant,unpleasant,NA,NA,NA,NA,NA,right,2288.80000001192,true,NA,NA,NA,NA,NA
tfEyCsiY,344m16ozllsw98pkhqhl4zt7rn1nev,33c7ualjvpbe9k6yq22p42gaf2v18u,tfEyCsiY,2020-0188,2021-10-15,09:42:44,10:55:25,NA,incomplete,false,true,NA,4,26,NA,purple,m_l_018.jpg,NA,NA,unpleasant,pleasant,NA,NA,NA,NA,NA,left,2512.60000002384,true,NA,NA,NA,NA,NA
tfEyCsiY,344m16ozllsw98pkhqhl4zt7rn1nev,33c7ualjvpbe9k6yq22p42gaf2v18u,tfEyCsiY,2020-0188,2021-10-15,09:42:44,10:55:25,NA,incomplete,false,true,NA,4,27,NA,purple,m_s_116.jpg,NA,NA,pleasant,unpleasant,NA,NA,NA,NA,NA,left,2106.10000002384,true,NA,NA,NA,NA,NA
tfEyCsiY,344m16ozllsw98pkhqhl4zt7rn1nev,33c7ualjvpbe9k6yq22p42gaf2v18u,tfEyCsiY,2020-0188,2021-10-15,09:42:44,10:55:25,NA,incomplete,false,true,NA,4,28,NA,purple,m_l_109.jpg,NA,NA,pleasant,unpleasant,NA,NA,NA,NA,NA,left,1215,true,NA,NA,NA,NA,NA
tfEyCsiY,344m16ozllsw98pkhqhl4zt7rn1nev,33c7ualjvpbe9k6yq22p42gaf2v18u,tfEyCsiY,2020-0188,2021-10-15,09:42:44,10:55:25,NA,incomplete,false,true,NA,4,29,NA,purple,m_l_099.jpg,NA,NA,pleasant,unpleasant,NA,NA,NA,NA,NA,left,1339,true,NA,NA,NA,NA,NA
tfEyCsiY,344m16ozllsw98pkhqhl4zt7rn1nev,33c7ualjvpbe9k6yq22p42gaf2v18u,tfEyCsiY,2020-0188,2021-10-15,09:42:44,10:55:25,NA,incomplete,false,true,NA,4,30,NA,orange,n_l_047.jpg,NA,NA,pleasant,unpleasant,NA,NA,NA,NA,NA,left,1050.69999998808,true,NA,NA,NA,NA,NA
tfEyCsiY,344m16ozllsw98pkhqhl4zt7rn1nev,33c7ualjvpbe9k6yq22p42gaf2v18u,tfEyCsiY,2020-0188,2021-10-15,09:42:44,10:55:25,NA,incomplete,false,true,NA,4,31,NA,orange,n_s_017.jpg,NA,NA,unpleasant,pleasant,NA,NA,NA,NA,NA,left,1195.60000002384,true,NA,NA,NA,NA,NA
tfEyCsiY,344m16ozllsw98pkhqhl4zt7rn1nev,33c7ualjvpbe9k6yq22p42gaf2v18u,tfEyCsiY,2020-0188,2021-10-15,09:42:44,10:55:25,NA,incomplete,false,true,NA,4,32,NA,orange,m_l_001.jpg,NA,NA,unpleasant,pleasant,NA,NA,NA,NA,NA,left,1119.80000001192,true,NA,NA,NA,NA,NA
tfEyCsiY,344m16ozllsw98pkhqhl4zt7rn1nev,33c7ualjvpbe9k6yq22p42gaf2v18u,tfEyCsiY,2020-0188,2021-10-15,09:42:44,10:55:25,NA,incomplete,false,true,NA,4,33,NA,orange,m_l_019.jpg,NA,NA,pleasant,unpleasant,NA,NA,NA,NA,NA,left,1165.39999997616,true,NA,NA,NA,NA,NA
tfEyCsiY,344m16ozllsw98pkhqhl4zt7rn1nev,33c7ualjvpbe9k6yq22p42gaf2v18u,tfEyCsiY,2020-0188,2021-10-15,09:42:44,10:55:25,NA,incomplete,false,true,NA,4,34,NA,orange,m_s_016.jpg,NA,NA,unpleasant,pleasant,NA,NA,NA,NA,NA,right,1509.80000001192,true,NA,NA,NA,NA,NA
tfEyCsiY,344m16ozllsw98pkhqhl4zt7rn1nev,33c7ualjvpbe9k6yq22p42gaf2v18u,tfEyCsiY,2020-0188,2021-10-15,09:42:44,10:55:25,NA,incomplete,false,true,NA,4,35,NA,orange,n_l_057.jpg,NA,NA,pleasant,unpleasant,NA,NA,NA,NA,NA,left,1190.19999998808,true,NA,NA,NA,NA,NA
tfEyCsiY,344m16ozllsw98pkhqhl4zt7rn1nev,33c7ualjvpbe9k6yq22p42gaf2v18u,tfEyCsiY,2020-0188,2021-10-15,09:42:44,10:55:25,NA,incomplete,false,NA,true,4,0,NA,NA,NA,left,present,NA,NA,n_l_099.jpg,purple,m_l_099.jpg,purple,within,NA,NaN,NA,right,3925.300000011921,0,1,1733
tfEyCsiY,344m16ozllsw98pkhqhl4zt7rn1nev,33c7ualjvpbe9k6yq22p42gaf2v18u,tfEyCsiY,2020-0188,2021-10-15,09:42:44,10:55:25,NA,incomplete,false,NA,true,4,1,NA,NA,NA,left,present,NA,NA,m_s_070.jpg,gray,m_l_066.jpg,blue,between,NA,NaN,NA,left,3165.7000000476837,1,0,1189
tfEyCsiY,344m16ozllsw98pkhqhl4zt7rn1nev,33c7ualjvpbe9k6yq22p42gaf2v18u,tfEyCsiY,2020-0188,2021-10-15,09:42:44,10:55:25,NA,incomplete,false,NA,true,4,2,NA,NA,NA,right,present,NA,NA,m_l_047.jpg,gray,m_s_018.jpg,yellow,between,NA,NaN,NA,left,3055.300000011921,0,2,1063.199999988079
tfEyCsiY,344m16ozllsw98pkhqhl4zt7rn1nev,33c7ualjvpbe9k6yq22p42gaf2v18u,tfEyCsiY,2020-0188,2021-10-15,09:42:44,10:55:25,NA,incomplete,false,NA,true,4,3,NA,NA,NA,right,present,NA,NA,n_l_074.jpg,yellow,m_s_096.jpg,green,between,NA,NaN,NA,right,3386.300000011921,1,2,3968.199999988079
tfEyCsiY,344m16ozllsw98pkhqhl4zt7rn1nev,33c7ualjvpbe9k6yq22p42gaf2v18u,tfEyCsiY,2020-0188,2021-10-15,09:42:44,10:55:25,NA,incomplete,false,NA,true,4,4,NA,NA,NA,left,present,NA,NA,m_l_109.jpg,purple,m_l_001.jpg,orange,between,NA,NaN,NA,left,3597.699999988079,1,1,1520.5999999642372
tfEyCsiY,344m16ozllsw98pkhqhl4zt7rn1nev,33c7ualjvpbe9k6yq22p42gaf2v18u,tfEyCsiY,2020-0188,2021-10-15,09:42:44,10:55:25,NA,incomplete,false,NA,true,4,5,NA,NA,NA,right,present,NA,NA,m_s_004.jpg,gray,n_s_110.jpg,gray,within,NA,NaN,NA,right,2010.699999988079,1,3,1091.699999988079
tfEyCsiY,344m16ozllsw98pkhqhl4zt7rn1nev,33c7ualjvpbe9k6yq22p42gaf2v18u,tfEyCsiY,2020-0188,2021-10-15,09:42:44,10:55:25,NA,incomplete,false,NA,true,4,6,NA,NA,NA,right,present,NA,NA,m_s_010.jpg,yellow,m_l_106.jpg,yellow,within,NA,NaN,NA,right,2084,1,0,2847.199999988079
tfEyCsiY,344m16ozllsw98pkhqhl4zt7rn1nev,33c7ualjvpbe9k6yq22p42gaf2v18u,tfEyCsiY,2020-0188,2021-10-15,09:42:44,10:55:25,NA,incomplete,false,NA,true,4,7,NA,NA,NA,right,present,NA,NA,m_s_080.jpg,green,n_s_108.jpg,green,within,NA,NaN,NA,right,5518.199999988079,1,0,1859.300000011921
tfEyCsiY,344m16ozllsw98pkhqhl4zt7rn1nev,33c7ualjvpbe9k6yq22p42gaf2v18u,tfEyCsiY,2020-0188,2021-10-15,09:42:44,10:55:25,NA,incomplete,false,NA,true,4,8,NA,NA,NA,right,present,NA,NA,n_l_057.jpg,orange,n_s_017.jpg,orange,within,NA,NaN,NA,left,3285,0,0,1118.9000000357628
tfEyCsiY,344m16ozllsw98pkhqhl4zt7rn1nev,33c7ualjvpbe9k6yq22p42gaf2v18u,tfEyCsiY,2020-0188,2021-10-15,09:42:44,10:55:25,NA,incomplete,false,NA,true,4,9,NA,NA,NA,left,present,NA,NA,n_l_019.jpg,blue,m_l_018.jpg,purple,between,NA,NaN,NA,right,4908.100000023842,0,2,1339.5
tfEyCsiY,344m16ozllsw98pkhqhl4zt7rn1nev,33c7ualjvpbe9k6yq22p42gaf2v18u,tfEyCsiY,2020-0188,2021-10-15,09:42:44,10:55:25,NA,incomplete,false,NA,true,4,10,NA,NA,NA,left,present,NA,NA,n_l_108.jpg,blue,m_s_040.jpg,blue,within,NA,NaN,NA,left,3504.399999976158,1,0,1231.5
tfEyCsiY,344m16ozllsw98pkhqhl4zt7rn1nev,33c7ualjvpbe9k6yq22p42gaf2v18u,tfEyCsiY,2020-0188,2021-10-15,09:42:44,10:55:25,NA,incomplete,false,true,NA,5,0,NA,purple,n_l_003.jpg,NA,NA,unpleasant,pleasant,NA,NA,NA,NA,NA,left,1940.39999997616,true,NA,NA,NA,NA,NA
tfEyCsiY,344m16ozllsw98pkhqhl4zt7rn1nev,33c7ualjvpbe9k6yq22p42gaf2v18u,tfEyCsiY,2020-0188,2021-10-15,09:42:44,10:55:25,NA,incomplete,false,true,NA,5,1,NA,purple,m_s_105.jpg,NA,NA,unpleasant,pleasant,NA,NA,NA,NA,NA,right,1505.5,true,NA,NA,NA,NA,NA
tfEyCsiY,344m16ozllsw98pkhqhl4zt7rn1nev,33c7ualjvpbe9k6yq22p42gaf2v18u,tfEyCsiY,2020-0188,2021-10-15,09:42:44,10:55:25,NA,incomplete,false,true,NA,5,2,NA,purple,n_l_107.jpg,NA,NA,unpleasant,pleasant,NA,NA,NA,NA,NA,right,1638.59999996424,true,NA,NA,NA,NA,NA
tfEyCsiY,344m16ozllsw98pkhqhl4zt7rn1nev,33c7ualjvpbe9k6yq22p42gaf2v18u,tfEyCsiY,2020-0188,2021-10-15,09:42:44,10:55:25,NA,incomplete,false,true,NA,5,3,NA,purple,m_l_076.jpg,NA,NA,pleasant,unpleasant,NA,NA,NA,NA,NA,right,1823.5,true,NA,NA,NA,NA,NA
tfEyCsiY,344m16ozllsw98pkhqhl4zt7rn1nev,33c7ualjvpbe9k6yq22p42gaf2v18u,tfEyCsiY,2020-0188,2021-10-15,09:42:44,10:55:25,NA,incomplete,false,true,NA,5,4,NA,purple,m_l_005.jpg,NA,NA,unpleasant,pleasant,NA,NA,NA,NA,NA,right,1529.5,true,NA,NA,NA,NA,NA
tfEyCsiY,344m16ozllsw98pkhqhl4zt7rn1nev,33c7ualjvpbe9k6yq22p42gaf2v18u,tfEyCsiY,2020-0188,2021-10-15,09:42:44,10:55:25,NA,incomplete,false,true,NA,5,5,NA,purple,n_s_016.jpg,NA,NA,pleasant,unpleasant,NA,NA,NA,NA,NA,right,1337.69999998808,true,NA,NA,NA,NA,NA
tfEyCsiY,344m16ozllsw98pkhqhl4zt7rn1nev,33c7ualjvpbe9k6yq22p42gaf2v18u,tfEyCsiY,2020-0188,2021-10-15,09:42:44,10:55:25,NA,incomplete,false,true,NA,5,6,NA,black,m_l_043.jpg,NA,NA,pleasant,unpleasant,NA,NA,NA,NA,NA,right,1755.59999996424,true,NA,NA,NA,NA,NA
tfEyCsiY,344m16ozllsw98pkhqhl4zt7rn1nev,33c7ualjvpbe9k6yq22p42gaf2v18u,tfEyCsiY,2020-0188,2021-10-15,09:42:44,10:55:25,NA,incomplete,false,true,NA,5,7,NA,black,n_s_044.jpg,NA,NA,unpleasant,pleasant,NA,NA,NA,NA,NA,right,1166.60000002384,true,NA,NA,NA,NA,NA
tfEyCsiY,344m16ozllsw98pkhqhl4zt7rn1nev,33c7ualjvpbe9k6yq22p42gaf2v18u,tfEyCsiY,2020-0188,2021-10-15,09:42:44,10:55:25,NA,incomplete,false,true,NA,5,8,NA,black,m_s_060.jpg,NA,NA,pleasant,unpleasant,NA,NA,NA,NA,NA,right,1998.80000001192,true,NA,NA,NA,NA,NA
tfEyCsiY,344m16ozllsw98pkhqhl4zt7rn1nev,33c7ualjvpbe9k6yq22p42gaf2v18u,tfEyCsiY,2020-0188,2021-10-15,09:42:44,10:55:25,NA,incomplete,false,true,NA,5,9,NA,black,n_l_020.jpg,NA,NA,pleasant,unpleasant,NA,NA,NA,NA,NA,left,926.100000023842,true,NA,NA,NA,NA,NA
tfEyCsiY,344m16ozllsw98pkhqhl4zt7rn1nev,33c7ualjvpbe9k6yq22p42gaf2v18u,tfEyCsiY,2020-0188,2021-10-15,09:42:44,10:55:25,NA,incomplete,false,true,NA,5,10,NA,black,m_s_085.jpg,NA,NA,pleasant,unpleasant,NA,NA,NA,NA,NA,right,1905.60000002384,true,NA,NA,NA,NA,NA
tfEyCsiY,344m16ozllsw98pkhqhl4zt7rn1nev,33c7ualjvpbe9k6yq22p42gaf2v18u,tfEyCsiY,2020-0188,2021-10-15,09:42:44,10:55:25,NA,incomplete,false,true,NA,5,11,NA,black,m_s_089.jpg,NA,NA,pleasant,unpleasant,NA,NA,NA,NA,NA,right,1273.59999996424,true,NA,NA,NA,NA,NA
tfEyCsiY,344m16ozllsw98pkhqhl4zt7rn1nev,33c7ualjvpbe9k6yq22p42gaf2v18u,tfEyCsiY,2020-0188,2021-10-15,09:42:44,10:55:25,NA,incomplete,false,true,NA,5,12,NA,red,n_s_109.jpg,NA,NA,unpleasant,pleasant,NA,NA,NA,NA,NA,left,1215.39999997616,true,NA,NA,NA,NA,NA
tfEyCsiY,344m16ozllsw98pkhqhl4zt7rn1nev,33c7ualjvpbe9k6yq22p42gaf2v18u,tfEyCsiY,2020-0188,2021-10-15,09:42:44,10:55:25,NA,incomplete,false,true,NA,5,13,NA,red,n_l_117.jpg,NA,NA,unpleasant,pleasant,NA,NA,NA,NA,NA,left,1927.69999998808,true,NA,NA,NA,NA,NA
tfEyCsiY,344m16ozllsw98pkhqhl4zt7rn1nev,33c7ualjvpbe9k6yq22p42gaf2v18u,tfEyCsiY,2020-0188,2021-10-15,09:42:44,10:55:25,NA,incomplete,false,true,NA,5,14,NA,red,n_l_043.jpg,NA,NA,unpleasant,pleasant,NA,NA,NA,NA,NA,right,1424.89999997616,true,NA,NA,NA,NA,NA
tfEyCsiY,344m16ozllsw98pkhqhl4zt7rn1nev,33c7ualjvpbe9k6yq22p42gaf2v18u,tfEyCsiY,2020-0188,2021-10-15,09:42:44,10:55:25,NA,incomplete,false,true,NA,5,15,NA,red,n_l_013.jpg,NA,NA,pleasant,unpleasant,NA,NA,NA,NA,NA,left,1552.89999997616,true,NA,NA,NA,NA,NA
tfEyCsiY,344m16ozllsw98pkhqhl4zt7rn1nev,33c7ualjvpbe9k6yq22p42gaf2v18u,tfEyCsiY,2020-0188,2021-10-15,09:42:44,10:55:25,NA,incomplete,false,true,NA,5,16,NA,red,m_s_110.jpg,NA,NA,pleasant,unpleasant,NA,NA,NA,NA,NA,left,1056.29999995232,true,NA,NA,NA,NA,NA
tfEyCsiY,344m16ozllsw98pkhqhl4zt7rn1nev,33c7ualjvpbe9k6yq22p42gaf2v18u,tfEyCsiY,2020-0188,2021-10-15,09:42:44,10:55:25,NA,incomplete,false,true,NA,5,17,NA,red,n_s_096.jpg,NA,NA,pleasant,unpleasant,NA,NA,NA,NA,NA,left,1334.69999998808,true,NA,NA,NA,NA,NA
tfEyCsiY,344m16ozllsw98pkhqhl4zt7rn1nev,33c7ualjvpbe9k6yq22p42gaf2v18u,tfEyCsiY,2020-0188,2021-10-15,09:42:44,10:55:25,NA,incomplete,false,true,NA,5,18,NA,white,n_l_004.jpg,NA,NA,pleasant,unpleasant,NA,NA,NA,NA,NA,left,2258.80000001192,true,NA,NA,NA,NA,NA
tfEyCsiY,344m16ozllsw98pkhqhl4zt7rn1nev,33c7ualjvpbe9k6yq22p42gaf2v18u,tfEyCsiY,2020-0188,2021-10-15,09:42:44,10:55:25,NA,incomplete,false,true,NA,5,19,NA,white,m_s_107.jpg,NA,NA,pleasant,unpleasant,NA,NA,NA,NA,NA,right,2715.70000004768,true,NA,NA,NA,NA,NA
tfEyCsiY,344m16ozllsw98pkhqhl4zt7rn1nev,33c7ualjvpbe9k6yq22p42gaf2v18u,tfEyCsiY,2020-0188,2021-10-15,09:42:44,10:55:25,NA,incomplete,false,true,NA,5,20,NA,white,n_l_015.jpg,NA,NA,unpleasant,pleasant,NA,NA,NA,NA,NA,right,1126.40000003576,true,NA,NA,NA,NA,NA
tfEyCsiY,344m16ozllsw98pkhqhl4zt7rn1nev,33c7ualjvpbe9k6yq22p42gaf2v18u,tfEyCsiY,2020-0188,2021-10-15,09:42:44,10:55:25,NA,incomplete,false,true,NA,5,21,NA,white,m_l_049.jpg,NA,NA,unpleasant,pleasant,NA,NA,NA,NA,NA,right,1536,true,NA,NA,NA,NA,NA
tfEyCsiY,344m16ozllsw98pkhqhl4zt7rn1nev,33c7ualjvpbe9k6yq22p42gaf2v18u,tfEyCsiY,2020-0188,2021-10-15,09:42:44,10:55:25,NA,incomplete,false,true,NA,5,22,NA,white,m_s_074.jpg,NA,NA,unpleasant,pleasant,NA,NA,NA,NA,NA,right,1230,true,NA,NA,NA,NA,NA
tfEyCsiY,344m16ozllsw98pkhqhl4zt7rn1nev,33c7ualjvpbe9k6yq22p42gaf2v18u,tfEyCsiY,2020-0188,2021-10-15,09:42:44,10:55:25,NA,incomplete,false,true,NA,5,23,NA,white,n_s_037.jpg,NA,NA,unpleasant,pleasant,NA,NA,NA,NA,NA,left,1673.40000003576,true,NA,NA,NA,NA,NA
tfEyCsiY,344m16ozllsw98pkhqhl4zt7rn1nev,33c7ualjvpbe9k6yq22p42gaf2v18u,tfEyCsiY,2020-0188,2021-10-15,09:42:44,10:55:25,NA,incomplete,false,true,NA,5,24,NA,yellow,m_l_063.jpg,NA,NA,unpleasant,pleasant,NA,NA,NA,NA,NA,right,1154.29999995232,true,NA,NA,NA,NA,NA
tfEyCsiY,344m16ozllsw98pkhqhl4zt7rn1nev,33c7ualjvpbe9k6yq22p42gaf2v18u,tfEyCsiY,2020-0188,2021-10-15,09:42:44,10:55:25,NA,incomplete,false,true,NA,5,25,NA,yellow,n_l_073.jpg,NA,NA,pleasant,unpleasant,NA,NA,NA,NA,NA,right,1911.69999998808,true,NA,NA,NA,NA,NA
tfEyCsiY,344m16ozllsw98pkhqhl4zt7rn1nev,33c7ualjvpbe9k6yq22p42gaf2v18u,tfEyCsiY,2020-0188,2021-10-15,09:42:44,10:55:25,NA,incomplete,false,true,NA,5,26,NA,yellow,m_l_103.jpg,NA,NA,pleasant,unpleasant,NA,NA,NA,NA,NA,left,986.699999988079,true,NA,NA,NA,NA,NA
tfEyCsiY,344m16ozllsw98pkhqhl4zt7rn1nev,33c7ualjvpbe9k6yq22p42gaf2v18u,tfEyCsiY,2020-0188,2021-10-15,09:42:44,10:55:25,NA,incomplete,false,true,NA,5,27,NA,yellow,n_l_109.jpg,NA,NA,pleasant,unpleasant,NA,NA,NA,NA,NA,right,1140.40000003576,true,NA,NA,NA,NA,NA
tfEyCsiY,344m16ozllsw98pkhqhl4zt7rn1nev,33c7ualjvpbe9k6yq22p42gaf2v18u,tfEyCsiY,2020-0188,2021-10-15,09:42:44,10:55:25,NA,incomplete,false,true,NA,5,28,NA,yellow,m_l_060.jpg,NA,NA,unpleasant,pleasant,NA,NA,NA,NA,NA,right,1385.79999995232,true,NA,NA,NA,NA,NA
tfEyCsiY,344m16ozllsw98pkhqhl4zt7rn1nev,33c7ualjvpbe9k6yq22p42gaf2v18u,tfEyCsiY,2020-0188,2021-10-15,09:42:44,10:55:25,NA,incomplete,false,true,NA,5,29,NA,yellow,n_l_097.jpg,NA,NA,unpleasant,pleasant,NA,NA,NA,NA,NA,right,1299.29999995232,true,NA,NA,NA,NA,NA
tfEyCsiY,344m16ozllsw98pkhqhl4zt7rn1nev,33c7ualjvpbe9k6yq22p42gaf2v18u,tfEyCsiY,2020-0188,2021-10-15,09:42:44,10:55:25,NA,incomplete,false,true,NA,5,30,NA,green,m_l_021.jpg,NA,NA,pleasant,unpleasant,NA,NA,NA,NA,NA,left,1261.69999998808,true,NA,NA,NA,NA,NA
tfEyCsiY,344m16ozllsw98pkhqhl4zt7rn1nev,33c7ualjvpbe9k6yq22p42gaf2v18u,tfEyCsiY,2020-0188,2021-10-15,09:42:44,10:55:25,NA,incomplete,false,true,NA,5,31,NA,green,m_l_101.jpg,NA,NA,pleasant,unpleasant,NA,NA,NA,NA,NA,left,875.099999964237,true,NA,NA,NA,NA,NA
tfEyCsiY,344m16ozllsw98pkhqhl4zt7rn1nev,33c7ualjvpbe9k6yq22p42gaf2v18u,tfEyCsiY,2020-0188,2021-10-15,09:42:44,10:55:25,NA,incomplete,false,true,NA,5,32,NA,green,n_l_067.jpg,NA,NA,pleasant,unpleasant,NA,NA,NA,NA,NA,left,971.699999988079,true,NA,NA,NA,NA,NA
tfEyCsiY,344m16ozllsw98pkhqhl4zt7rn1nev,33c7ualjvpbe9k6yq22p42gaf2v18u,tfEyCsiY,2020-0188,2021-10-15,09:42:44,10:55:25,NA,incomplete,false,true,NA,5,33,NA,green,n_s_049.jpg,NA,NA,pleasant,unpleasant,NA,NA,NA,NA,NA,right,1310.69999998808,true,NA,NA,NA,NA,NA
tfEyCsiY,344m16ozllsw98pkhqhl4zt7rn1nev,33c7ualjvpbe9k6yq22p42gaf2v18u,tfEyCsiY,2020-0188,2021-10-15,09:42:44,10:55:25,NA,incomplete,false,true,NA,5,34,NA,green,n_s_008.jpg,NA,NA,pleasant,unpleasant,NA,NA,NA,NA,NA,right,1341.59999996424,true,NA,NA,NA,NA,NA
tfEyCsiY,344m16ozllsw98pkhqhl4zt7rn1nev,33c7ualjvpbe9k6yq22p42gaf2v18u,tfEyCsiY,2020-0188,2021-10-15,09:42:44,10:55:25,NA,incomplete,false,true,NA,5,35,NA,green,m_s_014.jpg,NA,NA,unpleasant,pleasant,NA,NA,NA,NA,NA,right,2164.5,true,NA,NA,NA,NA,NA
tfEyCsiY,344m16ozllsw98pkhqhl4zt7rn1nev,33c7ualjvpbe9k6yq22p42gaf2v18u,tfEyCsiY,2020-0188,2021-10-15,09:42:44,10:55:25,NA,incomplete,false,NA,true,5,0,NA,NA,NA,right,absent,NA,NA,m_s_089.jpg,black,n_s_044.jpg,black,within,NA,NaN,NA,right,3051,1,3,3095.800000011921
tfEyCsiY,344m16ozllsw98pkhqhl4zt7rn1nev,33c7ualjvpbe9k6yq22p42gaf2v18u,tfEyCsiY,2020-0188,2021-10-15,09:42:44,10:55:25,NA,incomplete,false,NA,true,5,1,NA,NA,NA,left,absent,NA,NA,m_s_085.jpg,black,n_l_043.jpg,red,between,NA,NaN,NA,right,1975.800000011921,0,1,1309.9000000357628
tfEyCsiY,344m16ozllsw98pkhqhl4zt7rn1nev,33c7ualjvpbe9k6yq22p42gaf2v18u,tfEyCsiY,2020-0188,2021-10-15,09:42:44,10:55:25,NA,incomplete,false,NA,true,5,2,NA,NA,NA,right,absent,NA,NA,n_l_067.jpg,green,m_l_060.jpg,yellow,between,NA,NaN,NA,right,1962.800000011921,1,2,4390.699999988079
tfEyCsiY,344m16ozllsw98pkhqhl4zt7rn1nev,33c7ualjvpbe9k6yq22p42gaf2v18u,tfEyCsiY,2020-0188,2021-10-15,09:42:44,10:55:25,NA,incomplete,false,NA,true,5,3,NA,NA,NA,right,absent,NA,NA,m_s_014.jpg,green,m_l_101.jpg,green,within,NA,NaN,NA,right,2123.199999988079,1,2,1360.800000011921
tfEyCsiY,344m16ozllsw98pkhqhl4zt7rn1nev,33c7ualjvpbe9k6yq22p42gaf2v18u,tfEyCsiY,2020-0188,2021-10-15,09:42:44,10:55:25,NA,incomplete,false,NA,true,5,4,NA,NA,NA,right,absent,NA,NA,n_s_016.jpg,purple,m_s_105.jpg,purple,within,NA,NaN,NA,right,5651.600000023842,1,2,1216.800000011921
tfEyCsiY,344m16ozllsw98pkhqhl4zt7rn1nev,33c7ualjvpbe9k6yq22p42gaf2v18u,tfEyCsiY,2020-0188,2021-10-15,09:42:44,10:55:25,NA,incomplete,false,NA,true,5,5,NA,NA,NA,right,absent,NA,NA,n_l_097.jpg,yellow,n_l_073.jpg,yellow,within,NA,NaN,NA,left,3130.800000011921,0,3,1826.3999999761581
tfEyCsiY,344m16ozllsw98pkhqhl4zt7rn1nev,33c7ualjvpbe9k6yq22p42gaf2v18u,tfEyCsiY,2020-0188,2021-10-15,09:42:44,10:55:25,NA,incomplete,false,NA,true,5,6,NA,NA,NA,left,absent,NA,NA,m_l_005.jpg,purple,m_s_060.jpg,black,between,NA,NaN,NA,left,1749.199999988079,1,0,1222.8999999761581
tfEyCsiY,344m16ozllsw98pkhqhl4zt7rn1nev,33c7ualjvpbe9k6yq22p42gaf2v18u,tfEyCsiY,2020-0188,2021-10-15,09:42:44,10:55:25,NA,incomplete,false,NA,true,5,7,NA,NA,NA,left,absent,NA,NA,m_s_107.jpg,white,n_s_037.jpg,white,within,NA,NaN,NA,right,2116.199999988079,0,1,1236.1000000238419
tfEyCsiY,344m16ozllsw98pkhqhl4zt7rn1nev,33c7ualjvpbe9k6yq22p42gaf2v18u,tfEyCsiY,2020-0188,2021-10-15,09:42:44,10:55:25,NA,incomplete,false,NA,true,5,8,NA,NA,NA,left,absent,NA,NA,m_s_110.jpg,red,n_l_015.jpg,white,between,NA,NaN,NA,right,2460.900000035763,0,2,1458.699999988079
tfEyCsiY,344m16ozllsw98pkhqhl4zt7rn1nev,33c7ualjvpbe9k6yq22p42gaf2v18u,tfEyCsiY,2020-0188,2021-10-15,09:42:44,10:55:25,NA,incomplete,false,NA,true,5,9,NA,NA,NA,right,absent,NA,NA,n_s_096.jpg,red,n_l_117.jpg,red,within,NA,NaN,NA,left,2225.100000023842,0,2,1231.800000011921
tfEyCsiY,344m16ozllsw98pkhqhl4zt7rn1nev,33c7ualjvpbe9k6yq22p42gaf2v18u,tfEyCsiY,2020-0188,2021-10-15,09:42:44,10:55:25,NA,incomplete,false,NA,true,5,10,NA,NA,NA,left,absent,NA,NA,m_s_074.jpg,white,m_l_103.jpg,yellow,between,NA,NaN,NA,left,2333.2999999523163,1,0,2003.1000000238419
tfEyCsiY,344m16ozllsw98pkhqhl4zt7rn1nev,33c7ualjvpbe9k6yq22p42gaf2v18u,tfEyCsiY,2020-0188,2021-10-15,09:42:44,10:55:25,NA,incomplete,false,true,NA,6,0,NA,white,m_s_058.jpg,NA,NA,pleasant,unpleasant,NA,NA,NA,NA,NA,left,1716.60000002384,true,NA,NA,NA,NA,NA
tfEyCsiY,344m16ozllsw98pkhqhl4zt7rn1nev,33c7ualjvpbe9k6yq22p42gaf2v18u,tfEyCsiY,2020-0188,2021-10-15,09:42:44,10:55:25,NA,incomplete,false,true,NA,6,1,NA,white,m_s_103.jpg,NA,NA,pleasant,unpleasant,NA,NA,NA,NA,NA,left,1461.89999997616,true,NA,NA,NA,NA,NA
tfEyCsiY,344m16ozllsw98pkhqhl4zt7rn1nev,33c7ualjvpbe9k6yq22p42gaf2v18u,tfEyCsiY,2020-0188,2021-10-15,09:42:44,10:55:25,NA,incomplete,false,true,NA,6,2,NA,white,n_l_035.jpg,NA,NA,pleasant,unpleasant,NA,NA,NA,NA,NA,right,1123.5,true,NA,NA,NA,NA,NA
tfEyCsiY,344m16ozllsw98pkhqhl4zt7rn1nev,33c7ualjvpbe9k6yq22p42gaf2v18u,tfEyCsiY,2020-0188,2021-10-15,09:42:44,10:55:25,NA,incomplete,false,true,NA,6,3,NA,white,n_l_089.jpg,NA,NA,unpleasant,pleasant,NA,NA,NA,NA,NA,right,1329.39999997616,true,NA,NA,NA,NA,NA
tfEyCsiY,344m16ozllsw98pkhqhl4zt7rn1nev,33c7ualjvpbe9k6yq22p42gaf2v18u,tfEyCsiY,2020-0188,2021-10-15,09:42:44,10:55:25,NA,incomplete,false,true,NA,6,4,NA,white,n_l_055.jpg,NA,NA,pleasant,unpleasant,NA,NA,NA,NA,NA,left,1504.39999997616,true,NA,NA,NA,NA,NA
tfEyCsiY,344m16ozllsw98pkhqhl4zt7rn1nev,33c7ualjvpbe9k6yq22p42gaf2v18u,tfEyCsiY,2020-0188,2021-10-15,09:42:44,10:55:25,NA,incomplete,false,true,NA,6,5,NA,white,m_l_033.jpg,NA,NA,pleasant,unpleasant,NA,NA,NA,NA,NA,right,996.399999976158,true,NA,NA,NA,NA,NA
tfEyCsiY,344m16ozllsw98pkhqhl4zt7rn1nev,33c7ualjvpbe9k6yq22p42gaf2v18u,tfEyCsiY,2020-0188,2021-10-15,09:42:44,10:55:25,NA,incomplete,false,true,NA,6,6,NA,brown,m_l_093.jpg,NA,NA,unpleasant,pleasant,NA,NA,NA,NA,NA,left,1514.69999998808,true,NA,NA,NA,NA,NA
tfEyCsiY,344m16ozllsw98pkhqhl4zt7rn1nev,33c7ualjvpbe9k6yq22p42gaf2v18u,tfEyCsiY,2020-0188,2021-10-15,09:42:44,10:55:25,NA,incomplete,false,true,NA,6,7,NA,brown,m_l_079.jpg,NA,NA,unpleasant,pleasant,NA,NA,NA,NA,NA,left,1153.69999998808,true,NA,NA,NA,NA,NA
tfEyCsiY,344m16ozllsw98pkhqhl4zt7rn1nev,33c7ualjvpbe9k6yq22p42gaf2v18u,tfEyCsiY,2020-0188,2021-10-15,09:42:44,10:55:25,NA,incomplete,false,true,NA,6,8,NA,brown,m_s_030.jpg,NA,NA,pleasant,unpleasant,NA,NA,NA,NA,NA,left,1587.10000002384,true,NA,NA,NA,NA,NA
tfEyCsiY,344m16ozllsw98pkhqhl4zt7rn1nev,33c7ualjvpbe9k6yq22p42gaf2v18u,tfEyCsiY,2020-0188,2021-10-15,09:42:44,10:55:25,NA,incomplete,false,true,NA,6,9,NA,brown,n_s_052.jpg,NA,NA,unpleasant,pleasant,NA,NA,NA,NA,NA,right,1355.90000003576,true,NA,NA,NA,NA,NA
tfEyCsiY,344m16ozllsw98pkhqhl4zt7rn1nev,33c7ualjvpbe9k6yq22p42gaf2v18u,tfEyCsiY,2020-0188,2021-10-15,09:42:44,10:55:25,NA,incomplete,false,true,NA,6,10,NA,brown,m_l_097.jpg,NA,NA,unpleasant,pleasant,NA,NA,NA,NA,NA,left,2228.69999998808,true,NA,NA,NA,NA,NA
tfEyCsiY,344m16ozllsw98pkhqhl4zt7rn1nev,33c7ualjvpbe9k6yq22p42gaf2v18u,tfEyCsiY,2020-0188,2021-10-15,09:42:44,10:55:25,NA,incomplete,false,true,NA,6,11,NA,brown,n_s_019.jpg,NA,NA,pleasant,unpleasant,NA,NA,NA,NA,NA,right,1339.10000002384,true,NA,NA,NA,NA,NA
tfEyCsiY,344m16ozllsw98pkhqhl4zt7rn1nev,33c7ualjvpbe9k6yq22p42gaf2v18u,tfEyCsiY,2020-0188,2021-10-15,09:42:44,10:55:25,NA,incomplete,false,true,NA,6,12,NA,gray,n_s_084.jpg,NA,NA,unpleasant,pleasant,NA,NA,NA,NA,NA,left,1581.89999997616,true,NA,NA,NA,NA,NA
tfEyCsiY,344m16ozllsw98pkhqhl4zt7rn1nev,33c7ualjvpbe9k6yq22p42gaf2v18u,tfEyCsiY,2020-0188,2021-10-15,09:42:44,10:55:25,NA,incomplete,false,true,NA,6,13,NA,gray,m_l_110.jpg,NA,NA,pleasant,unpleasant,NA,NA,NA,NA,NA,right,1602,true,NA,NA,NA,NA,NA
tfEyCsiY,344m16ozllsw98pkhqhl4zt7rn1nev,33c7ualjvpbe9k6yq22p42gaf2v18u,tfEyCsiY,2020-0188,2021-10-15,09:42:44,10:55:25,NA,incomplete,false,true,NA,6,14,NA,gray,m_l_075.jpg,NA,NA,unpleasant,pleasant,NA,NA,NA,NA,NA,right,1707.79999995232,true,NA,NA,NA,NA,NA
tfEyCsiY,344m16ozllsw98pkhqhl4zt7rn1nev,33c7ualjvpbe9k6yq22p42gaf2v18u,tfEyCsiY,2020-0188,2021-10-15,09:42:44,10:55:25,NA,incomplete,false,true,NA,6,15,NA,gray,m_s_102.jpg,NA,NA,pleasant,unpleasant,NA,NA,NA,NA,NA,right,1745.89999997616,true,NA,NA,NA,NA,NA
tfEyCsiY,344m16ozllsw98pkhqhl4zt7rn1nev,33c7ualjvpbe9k6yq22p42gaf2v18u,tfEyCsiY,2020-0188,2021-10-15,09:42:44,10:55:25,NA,incomplete,false,true,NA,6,16,NA,gray,n_s_010.jpg,NA,NA,unpleasant,pleasant,NA,NA,NA,NA,NA,right,1489,true,NA,NA,NA,NA,NA
tfEyCsiY,344m16ozllsw98pkhqhl4zt7rn1nev,33c7ualjvpbe9k6yq22p42gaf2v18u,tfEyCsiY,2020-0188,2021-10-15,09:42:44,10:55:25,NA,incomplete,false,true,NA,6,17,NA,gray,m_s_036.jpg,NA,NA,pleasant,unpleasant,NA,NA,NA,NA,NA,left,1316.80000001192,true,NA,NA,NA,NA,NA
tfEyCsiY,344m16ozllsw98pkhqhl4zt7rn1nev,33c7ualjvpbe9k6yq22p42gaf2v18u,tfEyCsiY,2020-0188,2021-10-15,09:42:44,10:55:25,NA,incomplete,false,true,NA,6,18,NA,red,n_l_054.jpg,NA,NA,pleasant,unpleasant,NA,NA,NA,NA,NA,left,997.800000011921,true,NA,NA,NA,NA,NA
tfEyCsiY,344m16ozllsw98pkhqhl4zt7rn1nev,33c7ualjvpbe9k6yq22p42gaf2v18u,tfEyCsiY,2020-0188,2021-10-15,09:42:44,10:55:25,NA,incomplete,false,true,NA,6,19,NA,red,n_l_100.jpg,NA,NA,unpleasant,pleasant,NA,NA,NA,NA,NA,right,1401,true,NA,NA,NA,NA,NA
tfEyCsiY,344m16ozllsw98pkhqhl4zt7rn1nev,33c7ualjvpbe9k6yq22p42gaf2v18u,tfEyCsiY,2020-0188,2021-10-15,09:42:44,10:55:25,NA,incomplete,false,true,NA,6,20,NA,red,m_s_012.jpg,NA,NA,pleasant,unpleasant,NA,NA,NA,NA,NA,right,1613.19999998808,true,NA,NA,NA,NA,NA
tfEyCsiY,344m16ozllsw98pkhqhl4zt7rn1nev,33c7ualjvpbe9k6yq22p42gaf2v18u,tfEyCsiY,2020-0188,2021-10-15,09:42:44,10:55:25,NA,incomplete,false,true,NA,6,21,NA,red,m_l_014.jpg,NA,NA,unpleasant,pleasant,NA,NA,NA,NA,NA,right,1710,true,NA,NA,NA,NA,NA
tfEyCsiY,344m16ozllsw98pkhqhl4zt7rn1nev,33c7ualjvpbe9k6yq22p42gaf2v18u,tfEyCsiY,2020-0188,2021-10-15,09:42:44,10:55:25,NA,incomplete,false,true,NA,6,22,NA,red,n_l_040.jpg,NA,NA,unpleasant,pleasant,NA,NA,NA,NA,NA,right,1410.79999995232,true,NA,NA,NA,NA,NA
tfEyCsiY,344m16ozllsw98pkhqhl4zt7rn1nev,33c7ualjvpbe9k6yq22p42gaf2v18u,tfEyCsiY,2020-0188,2021-10-15,09:42:44,10:55:25,NA,incomplete,false,true,NA,6,23,NA,red,n_s_006.jpg,NA,NA,unpleasant,pleasant,NA,NA,NA,NA,NA,right,1251,true,NA,NA,NA,NA,NA
tfEyCsiY,344m16ozllsw98pkhqhl4zt7rn1nev,33c7ualjvpbe9k6yq22p42gaf2v18u,tfEyCsiY,2020-0188,2021-10-15,09:42:44,10:55:25,NA,incomplete,false,true,NA,6,24,NA,black,m_s_078.jpg,NA,NA,unpleasant,pleasant,NA,NA,NA,NA,NA,left,1894.60000002384,true,NA,NA,NA,NA,NA
tfEyCsiY,344m16ozllsw98pkhqhl4zt7rn1nev,33c7ualjvpbe9k6yq22p42gaf2v18u,tfEyCsiY,2020-0188,2021-10-15,09:42:44,10:55:25,NA,incomplete,false,true,NA,6,25,NA,black,m_s_041.jpg,NA,NA,pleasant,unpleasant,NA,NA,NA,NA,NA,left,1208.19999998808,true,NA,NA,NA,NA,NA
tfEyCsiY,344m16ozllsw98pkhqhl4zt7rn1nev,33c7ualjvpbe9k6yq22p42gaf2v18u,tfEyCsiY,2020-0188,2021-10-15,09:42:44,10:55:25,NA,incomplete,false,true,NA,6,26,NA,black,m_l_053.jpg,NA,NA,unpleasant,pleasant,NA,NA,NA,NA,NA,right,975.100000023842,true,NA,NA,NA,NA,NA
tfEyCsiY,344m16ozllsw98pkhqhl4zt7rn1nev,33c7ualjvpbe9k6yq22p42gaf2v18u,tfEyCsiY,2020-0188,2021-10-15,09:42:44,10:55:25,NA,incomplete,false,true,NA,6,27,NA,black,m_s_068.jpg,NA,NA,pleasant,unpleasant,NA,NA,NA,NA,NA,left,975.400000035763,true,NA,NA,NA,NA,NA
tfEyCsiY,344m16ozllsw98pkhqhl4zt7rn1nev,33c7ualjvpbe9k6yq22p42gaf2v18u,tfEyCsiY,2020-0188,2021-10-15,09:42:44,10:55:25,NA,incomplete,false,true,NA,6,28,NA,black,m_l_058.jpg,NA,NA,unpleasant,pleasant,NA,NA,NA,NA,NA,left,2322.09999996424,true,NA,NA,NA,NA,NA
tfEyCsiY,344m16ozllsw98pkhqhl4zt7rn1nev,33c7ualjvpbe9k6yq22p42gaf2v18u,tfEyCsiY,2020-0188,2021-10-15,09:42:44,10:55:25,NA,incomplete,false,true,NA,6,29,NA,black,n_s_011.jpg,NA,NA,unpleasant,pleasant,NA,NA,NA,NA,NA,right,1425.30000001192,true,NA,NA,NA,NA,NA
tfEyCsiY,344m16ozllsw98pkhqhl4zt7rn1nev,33c7ualjvpbe9k6yq22p42gaf2v18u,tfEyCsiY,2020-0188,2021-10-15,09:42:44,10:55:25,NA,incomplete,false,true,NA,6,30,NA,yellow,n_l_008.jpg,NA,NA,pleasant,unpleasant,NA,NA,NA,NA,NA,left,1157.30000001192,true,NA,NA,NA,NA,NA
tfEyCsiY,344m16ozllsw98pkhqhl4zt7rn1nev,33c7ualjvpbe9k6yq22p42gaf2v18u,tfEyCsiY,2020-0188,2021-10-15,09:42:44,10:55:25,NA,incomplete,false,true,NA,6,31,NA,yellow,m_s_112.jpg,NA,NA,unpleasant,pleasant,NA,NA,NA,NA,NA,right,1183.90000003576,true,NA,NA,NA,NA,NA
tfEyCsiY,344m16ozllsw98pkhqhl4zt7rn1nev,33c7ualjvpbe9k6yq22p42gaf2v18u,tfEyCsiY,2020-0188,2021-10-15,09:42:44,10:55:25,NA,incomplete,false,true,NA,6,32,NA,yellow,n_s_106.jpg,NA,NA,unpleasant,pleasant,NA,NA,NA,NA,NA,right,1306,true,NA,NA,NA,NA,NA
tfEyCsiY,344m16ozllsw98pkhqhl4zt7rn1nev,33c7ualjvpbe9k6yq22p42gaf2v18u,tfEyCsiY,2020-0188,2021-10-15,09:42:44,10:55:25,NA,incomplete,false,true,NA,6,33,NA,yellow,m_l_057.jpg,NA,NA,pleasant,unpleasant,NA,NA,NA,NA,NA,right,1672.5,true,NA,NA,NA,NA,NA
tfEyCsiY,344m16ozllsw98pkhqhl4zt7rn1nev,33c7ualjvpbe9k6yq22p42gaf2v18u,tfEyCsiY,2020-0188,2021-10-15,09:42:44,10:55:25,NA,incomplete,false,true,NA,6,34,NA,yellow,n_s_018.jpg,NA,NA,pleasant,unpleasant,NA,NA,NA,NA,NA,left,1152.30000001192,true,NA,NA,NA,NA,NA
tfEyCsiY,344m16ozllsw98pkhqhl4zt7rn1nev,33c7ualjvpbe9k6yq22p42gaf2v18u,tfEyCsiY,2020-0188,2021-10-15,09:42:44,10:55:25,NA,incomplete,false,true,NA,6,35,NA,yellow,m_l_022.jpg,NA,NA,pleasant,unpleasant,NA,NA,NA,NA,NA,left,1155.20000004768,true,NA,NA,NA,NA,NA
tfEyCsiY,344m16ozllsw98pkhqhl4zt7rn1nev,33c7ualjvpbe9k6yq22p42gaf2v18u,tfEyCsiY,2020-0188,2021-10-15,09:42:44,10:55:25,NA,incomplete,false,NA,true,6,0,NA,NA,NA,left,present,NA,NA,m_l_097.jpg,brown,m_l_075.jpg,gray,between,NA,NaN,NA,left,2877,1,3,1608.8999999761581
tfEyCsiY,344m16ozllsw98pkhqhl4zt7rn1nev,33c7ualjvpbe9k6yq22p42gaf2v18u,tfEyCsiY,2020-0188,2021-10-15,09:42:44,10:55:25,NA,incomplete,false,NA,true,6,1,NA,NA,NA,right,present,NA,NA,n_s_106.jpg,yellow,m_l_058.jpg,black,between,NA,NaN,NA,left,1881.1000000238419,0,3,5826.399999976158
tfEyCsiY,344m16ozllsw98pkhqhl4zt7rn1nev,33c7ualjvpbe9k6yq22p42gaf2v18u,tfEyCsiY,2020-0188,2021-10-15,09:42:44,10:55:25,NA,incomplete,false,NA,true,6,2,NA,NA,NA,right,present,NA,NA,m_s_036.jpg,gray,m_l_110.jpg,gray,within,NA,NaN,NA,left,2040,0,0,1940.7000000476837
tfEyCsiY,344m16ozllsw98pkhqhl4zt7rn1nev,33c7ualjvpbe9k6yq22p42gaf2v18u,tfEyCsiY,2020-0188,2021-10-15,09:42:44,10:55:25,NA,incomplete,false,NA,true,6,3,NA,NA,NA,left,present,NA,NA,m_s_103.jpg,white,m_l_033.jpg,white,within,NA,NaN,NA,left,2102.699999988079,1,0,1266.3999999761581
tfEyCsiY,344m16ozllsw98pkhqhl4zt7rn1nev,33c7ualjvpbe9k6yq22p42gaf2v18u,tfEyCsiY,2020-0188,2021-10-15,09:42:44,10:55:25,NA,incomplete,false,NA,true,6,4,NA,NA,NA,left,present,NA,NA,m_l_079.jpg,brown,n_s_019.jpg,brown,within,NA,NaN,NA,right,2005.9000000357628,0,0,1610.300000011921
tfEyCsiY,344m16ozllsw98pkhqhl4zt7rn1nev,33c7ualjvpbe9k6yq22p42gaf2v18u,tfEyCsiY,2020-0188,2021-10-15,09:42:44,10:55:25,NA,incomplete,false,NA,true,6,5,NA,NA,NA,right,present,NA,NA,m_s_030.jpg,brown,n_l_055.jpg,white,between,NA,NaN,NA,right,1962.6000000238419,1,2,2508.5
tfEyCsiY,344m16ozllsw98pkhqhl4zt7rn1nev,33c7ualjvpbe9k6yq22p42gaf2v18u,tfEyCsiY,2020-0188,2021-10-15,09:42:44,10:55:25,NA,incomplete,false,NA,true,6,6,NA,NA,NA,left,present,NA,NA,m_s_112.jpg,yellow,m_l_022.jpg,yellow,within,NA,NaN,NA,left,1815.4000000357628,1,0,1125.5
tfEyCsiY,344m16ozllsw98pkhqhl4zt7rn1nev,33c7ualjvpbe9k6yq22p42gaf2v18u,tfEyCsiY,2020-0188,2021-10-15,09:42:44,10:55:25,NA,incomplete,false,NA,true,6,7,NA,NA,NA,right,present,NA,NA,m_l_053.jpg,black,n_l_040.jpg,red,between,NA,NaN,NA,right,5552.199999988079,1,3,1147.699999988079
tfEyCsiY,344m16ozllsw98pkhqhl4zt7rn1nev,33c7ualjvpbe9k6yq22p42gaf2v18u,tfEyCsiY,2020-0188,2021-10-15,09:42:44,10:55:25,NA,incomplete,false,NA,true,6,8,NA,NA,NA,left,present,NA,NA,n_l_100.jpg,red,n_s_006.jpg,red,within,NA,NaN,NA,left,2900.899999976158,1,0,3636.199999988079
tfEyCsiY,344m16ozllsw98pkhqhl4zt7rn1nev,33c7ualjvpbe9k6yq22p42gaf2v18u,tfEyCsiY,2020-0188,2021-10-15,09:42:44,10:55:25,NA,incomplete,false,NA,true,6,9,NA,NA,NA,right,present,NA,NA,n_s_011.jpg,black,m_s_041.jpg,black,within,NA,NaN,NA,right,2192,1,0,1278.3999999761581
tfEyCsiY,344m16ozllsw98pkhqhl4zt7rn1nev,33c7ualjvpbe9k6yq22p42gaf2v18u,tfEyCsiY,2020-0188,2021-10-15,09:42:44,10:55:25,NA,incomplete,false,NA,true,6,10,NA,NA,NA,left,present,NA,NA,n_s_010.jpg,gray,m_s_012.jpg,red,between,NA,NaN,NA,left,3714.900000035763,1,2,1423.4000000357628
tfEyCsiY,344m16ozllsw98pkhqhl4zt7rn1nev,33c7ualjvpbe9k6yq22p42gaf2v18u,tfEyCsiY,2020-0188,2021-10-15,09:42:44,10:55:25,NA,incomplete,false,true,NA,7,0,NA,orange,m_s_093.jpg,NA,NA,unpleasant,pleasant,NA,NA,NA,NA,NA,right,1527.90000003576,true,NA,NA,NA,NA,NA
tfEyCsiY,344m16ozllsw98pkhqhl4zt7rn1nev,33c7ualjvpbe9k6yq22p42gaf2v18u,tfEyCsiY,2020-0188,2021-10-15,09:42:44,10:55:25,NA,incomplete,false,true,NA,7,1,NA,orange,m_l_080.jpg,NA,NA,pleasant,unpleasant,NA,NA,NA,NA,NA,left,2120.10000002384,true,NA,NA,NA,NA,NA
tfEyCsiY,344m16ozllsw98pkhqhl4zt7rn1nev,33c7ualjvpbe9k6yq22p42gaf2v18u,tfEyCsiY,2020-0188,2021-10-15,09:42:44,10:55:25,NA,incomplete,false,true,NA,7,2,NA,orange,m_s_091.jpg,NA,NA,pleasant,unpleasant,NA,NA,NA,NA,NA,right,1377.69999998808,true,NA,NA,NA,NA,NA
tfEyCsiY,344m16ozllsw98pkhqhl4zt7rn1nev,33c7ualjvpbe9k6yq22p42gaf2v18u,tfEyCsiY,2020-0188,2021-10-15,09:42:44,10:55:25,NA,incomplete,false,true,NA,7,3,NA,orange,m_s_083.jpg,NA,NA,unpleasant,pleasant,NA,NA,NA,NA,NA,right,1138,true,NA,NA,NA,NA,NA
tfEyCsiY,344m16ozllsw98pkhqhl4zt7rn1nev,33c7ualjvpbe9k6yq22p42gaf2v18u,tfEyCsiY,2020-0188,2021-10-15,09:42:44,10:55:25,NA,incomplete,false,true,NA,7,4,NA,orange,n_l_049.jpg,NA,NA,pleasant,unpleasant,NA,NA,NA,NA,NA,left,1551.80000001192,true,NA,NA,NA,NA,NA
tfEyCsiY,344m16ozllsw98pkhqhl4zt7rn1nev,33c7ualjvpbe9k6yq22p42gaf2v18u,tfEyCsiY,2020-0188,2021-10-15,09:42:44,10:55:25,NA,incomplete,false,true,NA,7,5,NA,orange,n_s_107.jpg,NA,NA,pleasant,unpleasant,NA,NA,NA,NA,NA,right,1168,true,NA,NA,NA,NA,NA
tfEyCsiY,344m16ozllsw98pkhqhl4zt7rn1nev,33c7ualjvpbe9k6yq22p42gaf2v18u,tfEyCsiY,2020-0188,2021-10-15,09:42:44,10:55:25,NA,incomplete,false,true,NA,7,6,NA,gray,m_l_050.jpg,NA,NA,pleasant,unpleasant,NA,NA,NA,NA,NA,right,1424.5,true,NA,NA,NA,NA,NA
tfEyCsiY,344m16ozllsw98pkhqhl4zt7rn1nev,33c7ualjvpbe9k6yq22p42gaf2v18u,tfEyCsiY,2020-0188,2021-10-15,09:42:44,10:55:25,NA,incomplete,false,true,NA,7,7,NA,gray,n_l_021.jpg,NA,NA,pleasant,unpleasant,NA,NA,NA,NA,NA,left,922.5,true,NA,NA,NA,NA,NA
tfEyCsiY,344m16ozllsw98pkhqhl4zt7rn1nev,33c7ualjvpbe9k6yq22p42gaf2v18u,tfEyCsiY,2020-0188,2021-10-15,09:42:44,10:55:25,NA,incomplete,false,true,NA,7,8,NA,gray,n_l_061.jpg,NA,NA,pleasant,unpleasant,NA,NA,NA,NA,NA,left,1289.69999998808,true,NA,NA,NA,NA,NA
tfEyCsiY,344m16ozllsw98pkhqhl4zt7rn1nev,33c7ualjvpbe9k6yq22p42gaf2v18u,tfEyCsiY,2020-0188,2021-10-15,09:42:44,10:55:25,NA,incomplete,false,true,NA,7,9,NA,gray,m_l_105.jpg,NA,NA,unpleasant,pleasant,NA,NA,NA,NA,NA,right,1381.79999995232,true,NA,NA,NA,NA,NA
tfEyCsiY,344m16ozllsw98pkhqhl4zt7rn1nev,33c7ualjvpbe9k6yq22p42gaf2v18u,tfEyCsiY,2020-0188,2021-10-15,09:42:44,10:55:25,NA,incomplete,false,true,NA,7,10,NA,gray,n_l_050.jpg,NA,NA,unpleasant,pleasant,NA,NA,NA,NA,NA,right,1621.10000002384,true,NA,NA,NA,NA,NA
tfEyCsiY,344m16ozllsw98pkhqhl4zt7rn1nev,33c7ualjvpbe9k6yq22p42gaf2v18u,tfEyCsiY,2020-0188,2021-10-15,09:42:44,10:55:25,NA,incomplete,false,true,NA,7,11,NA,gray,m_l_074.jpg,NA,NA,pleasant,unpleasant,NA,NA,NA,NA,NA,right,1444.69999998808,true,NA,NA,NA,NA,NA
tfEyCsiY,344m16ozllsw98pkhqhl4zt7rn1nev,33c7ualjvpbe9k6yq22p42gaf2v18u,tfEyCsiY,2020-0188,2021-10-15,09:42:44,10:55:25,NA,incomplete,false,true,NA,7,12,NA,red,m_l_016.jpg,NA,NA,unpleasant,pleasant,NA,NA,NA,NA,NA,right,1470.20000004768,true,NA,NA,NA,NA,NA
tfEyCsiY,344m16ozllsw98pkhqhl4zt7rn1nev,33c7ualjvpbe9k6yq22p42gaf2v18u,tfEyCsiY,2020-0188,2021-10-15,09:42:44,10:55:25,NA,incomplete,false,true,NA,7,13,NA,red,n_l_063.jpg,NA,NA,pleasant,unpleasant,NA,NA,NA,NA,NA,right,1498.59999996424,true,NA,NA,NA,NA,NA
tfEyCsiY,344m16ozllsw98pkhqhl4zt7rn1nev,33c7ualjvpbe9k6yq22p42gaf2v18u,tfEyCsiY,2020-0188,2021-10-15,09:42:44,10:55:25,NA,incomplete,false,true,NA,7,14,NA,red,n_s_093.jpg,NA,NA,unpleasant,pleasant,NA,NA,NA,NA,NA,left,1762.10000002384,true,NA,NA,NA,NA,NA
tfEyCsiY,344m16ozllsw98pkhqhl4zt7rn1nev,33c7ualjvpbe9k6yq22p42gaf2v18u,tfEyCsiY,2020-0188,2021-10-15,09:42:44,10:55:25,NA,incomplete,false,true,NA,7,15,NA,red,n_l_096.jpg,NA,NA,unpleasant,pleasant,NA,NA,NA,NA,NA,right,1936.40000003576,true,NA,NA,NA,NA,NA
tfEyCsiY,344m16ozllsw98pkhqhl4zt7rn1nev,33c7ualjvpbe9k6yq22p42gaf2v18u,tfEyCsiY,2020-0188,2021-10-15,09:42:44,10:55:25,NA,incomplete,false,true,NA,7,16,NA,red,n_l_025.jpg,NA,NA,pleasant,unpleasant,NA,NA,NA,NA,NA,right,1964.90000003576,true,NA,NA,NA,NA,NA
tfEyCsiY,344m16ozllsw98pkhqhl4zt7rn1nev,33c7ualjvpbe9k6yq22p42gaf2v18u,tfEyCsiY,2020-0188,2021-10-15,09:42:44,10:55:25,NA,incomplete,false,true,NA,7,17,NA,red,n_s_064.jpg,NA,NA,unpleasant,pleasant,NA,NA,NA,NA,NA,right,1209.19999998808,true,NA,NA,NA,NA,NA
tfEyCsiY,344m16ozllsw98pkhqhl4zt7rn1nev,33c7ualjvpbe9k6yq22p42gaf2v18u,tfEyCsiY,2020-0188,2021-10-15,09:42:44,10:55:25,NA,incomplete,false,true,NA,7,18,NA,brown,m_s_038.jpg,NA,NA,unpleasant,pleasant,NA,NA,NA,NA,NA,right,1255.20000004768,true,NA,NA,NA,NA,NA
tfEyCsiY,344m16ozllsw98pkhqhl4zt7rn1nev,33c7ualjvpbe9k6yq22p42gaf2v18u,tfEyCsiY,2020-0188,2021-10-15,09:42:44,10:55:25,NA,incomplete,false,true,NA,7,19,NA,brown,n_l_046.jpg,NA,NA,pleasant,unpleasant,NA,NA,NA,NA,NA,left,1282.80000001192,true,NA,NA,NA,NA,NA
tfEyCsiY,344m16ozllsw98pkhqhl4zt7rn1nev,33c7ualjvpbe9k6yq22p42gaf2v18u,tfEyCsiY,2020-0188,2021-10-15,09:42:44,10:55:25,NA,incomplete,false,true,NA,7,20,NA,brown,m_l_040.jpg,NA,NA,pleasant,unpleasant,NA,NA,NA,NA,NA,left,1386.10000002384,true,NA,NA,NA,NA,NA
tfEyCsiY,344m16ozllsw98pkhqhl4zt7rn1nev,33c7ualjvpbe9k6yq22p42gaf2v18u,tfEyCsiY,2020-0188,2021-10-15,09:42:44,10:55:25,NA,incomplete,false,true,NA,7,21,NA,brown,n_s_091.jpg,NA,NA,unpleasant,pleasant,NA,NA,NA,NA,NA,left,1124,true,NA,NA,NA,NA,NA
tfEyCsiY,344m16ozllsw98pkhqhl4zt7rn1nev,33c7ualjvpbe9k6yq22p42gaf2v18u,tfEyCsiY,2020-0188,2021-10-15,09:42:44,10:55:25,NA,incomplete,false,true,NA,7,22,NA,brown,m_s_052.jpg,NA,NA,pleasant,unpleasant,NA,NA,NA,NA,NA,right,1206.89999997616,true,NA,NA,NA,NA,NA
tfEyCsiY,344m16ozllsw98pkhqhl4zt7rn1nev,33c7ualjvpbe9k6yq22p42gaf2v18u,tfEyCsiY,2020-0188,2021-10-15,09:42:44,10:55:25,NA,incomplete,false,true,NA,7,23,NA,brown,m_s_108.jpg,NA,NA,unpleasant,pleasant,NA,NA,NA,NA,NA,right,1860,true,NA,NA,NA,NA,NA
tfEyCsiY,344m16ozllsw98pkhqhl4zt7rn1nev,33c7ualjvpbe9k6yq22p42gaf2v18u,tfEyCsiY,2020-0188,2021-10-15,09:42:44,10:55:25,NA,incomplete,false,true,NA,7,24,NA,black,n_l_042.jpg,NA,NA,pleasant,unpleasant,NA,NA,NA,NA,NA,left,938.699999988079,true,NA,NA,NA,NA,NA
tfEyCsiY,344m16ozllsw98pkhqhl4zt7rn1nev,33c7ualjvpbe9k6yq22p42gaf2v18u,tfEyCsiY,2020-0188,2021-10-15,09:42:44,10:55:25,NA,incomplete,false,true,NA,7,25,NA,black,n_s_047.jpg,NA,NA,pleasant,unpleasant,NA,NA,NA,NA,NA,right,1736.80000001192,true,NA,NA,NA,NA,NA
tfEyCsiY,344m16ozllsw98pkhqhl4zt7rn1nev,33c7ualjvpbe9k6yq22p42gaf2v18u,tfEyCsiY,2020-0188,2021-10-15,09:42:44,10:55:25,NA,incomplete,false,true,NA,7,26,NA,black,n_l_023.jpg,NA,NA,pleasant,unpleasant,NA,NA,NA,NA,NA,left,1120.80000001192,true,NA,NA,NA,NA,NA
tfEyCsiY,344m16ozllsw98pkhqhl4zt7rn1nev,33c7ualjvpbe9k6yq22p42gaf2v18u,tfEyCsiY,2020-0188,2021-10-15,09:42:44,10:55:25,NA,incomplete,false,true,NA,7,27,NA,black,n_l_039.jpg,NA,NA,pleasant,unpleasant,NA,NA,NA,NA,NA,left,1108,true,NA,NA,NA,NA,NA
tfEyCsiY,344m16ozllsw98pkhqhl4zt7rn1nev,33c7ualjvpbe9k6yq22p42gaf2v18u,tfEyCsiY,2020-0188,2021-10-15,09:42:44,10:55:25,NA,incomplete,false,true,NA,7,28,NA,black,m_l_041.jpg,NA,NA,unpleasant,pleasant,NA,NA,NA,NA,NA,right,1377.30000001192,true,NA,NA,NA,NA,NA
tfEyCsiY,344m16ozllsw98pkhqhl4zt7rn1nev,33c7ualjvpbe9k6yq22p42gaf2v18u,tfEyCsiY,2020-0188,2021-10-15,09:42:44,10:55:25,NA,incomplete,false,true,NA,7,29,NA,black,m_s_047.jpg,NA,NA,unpleasant,pleasant,NA,NA,NA,NA,NA,left,1702,true,NA,NA,NA,NA,NA
tfEyCsiY,344m16ozllsw98pkhqhl4zt7rn1nev,33c7ualjvpbe9k6yq22p42gaf2v18u,tfEyCsiY,2020-0188,2021-10-15,09:42:44,10:55:25,NA,incomplete,false,true,NA,7,30,NA,blue,n_l_112.jpg,NA,NA,unpleasant,pleasant,NA,NA,NA,NA,NA,right,1213.89999997616,true,NA,NA,NA,NA,NA
tfEyCsiY,344m16ozllsw98pkhqhl4zt7rn1nev,33c7ualjvpbe9k6yq22p42gaf2v18u,tfEyCsiY,2020-0188,2021-10-15,09:42:44,10:55:25,NA,incomplete,false,true,NA,7,31,NA,blue,n_l_033.jpg,NA,NA,unpleasant,pleasant,NA,NA,NA,NA,NA,left,1167.5,true,NA,NA,NA,NA,NA
tfEyCsiY,344m16ozllsw98pkhqhl4zt7rn1nev,33c7ualjvpbe9k6yq22p42gaf2v18u,tfEyCsiY,2020-0188,2021-10-15,09:42:44,10:55:25,NA,incomplete,false,true,NA,7,32,NA,blue,n_s_075.jpg,NA,NA,unpleasant,pleasant,NA,NA,NA,NA,NA,left,1150.59999996424,true,NA,NA,NA,NA,NA
tfEyCsiY,344m16ozllsw98pkhqhl4zt7rn1nev,33c7ualjvpbe9k6yq22p42gaf2v18u,tfEyCsiY,2020-0188,2021-10-15,09:42:44,10:55:25,NA,incomplete,false,true,NA,7,33,NA,blue,n_l_027.jpg,NA,NA,pleasant,unpleasant,NA,NA,NA,NA,NA,left,901.800000011921,true,NA,NA,NA,NA,NA
tfEyCsiY,344m16ozllsw98pkhqhl4zt7rn1nev,33c7ualjvpbe9k6yq22p42gaf2v18u,tfEyCsiY,2020-0188,2021-10-15,09:42:44,10:55:25,NA,incomplete,false,true,NA,7,34,NA,blue,m_s_084.jpg,NA,NA,pleasant,unpleasant,NA,NA,NA,NA,NA,left,1028.20000004768,true,NA,NA,NA,NA,NA
tfEyCsiY,344m16ozllsw98pkhqhl4zt7rn1nev,33c7ualjvpbe9k6yq22p42gaf2v18u,tfEyCsiY,2020-0188,2021-10-15,09:42:44,10:55:25,NA,incomplete,false,true,NA,7,35,NA,blue,n_s_033.jpg,NA,NA,unpleasant,pleasant,NA,NA,NA,NA,NA,right,1503.10000002384,true,NA,NA,NA,NA,NA
tfEyCsiY,344m16ozllsw98pkhqhl4zt7rn1nev,33c7ualjvpbe9k6yq22p42gaf2v18u,tfEyCsiY,2020-0188,2021-10-15,09:42:44,10:55:25,NA,incomplete,false,NA,true,7,0,NA,NA,NA,right,present,NA,NA,n_s_033.jpg,blue,n_l_033.jpg,blue,within,NA,NaN,NA,right,2773.600000023842,1,1,1616.2000000476837
tfEyCsiY,344m16ozllsw98pkhqhl4zt7rn1nev,33c7ualjvpbe9k6yq22p42gaf2v18u,tfEyCsiY,2020-0188,2021-10-15,09:42:44,10:55:25,NA,incomplete,false,NA,true,7,1,NA,NA,NA,left,present,NA,NA,n_l_021.jpg,gray,m_l_074.jpg,gray,within,NA,NaN,NA,left,3400.599999964237,1,0,1254.5
tfEyCsiY,344m16ozllsw98pkhqhl4zt7rn1nev,33c7ualjvpbe9k6yq22p42gaf2v18u,tfEyCsiY,2020-0188,2021-10-15,09:42:44,10:55:25,NA,incomplete,false,NA,true,7,2,NA,NA,NA,right,present,NA,NA,n_s_064.jpg,red,n_l_063.jpg,red,within,NA,NaN,NA,left,3759.7000000476837,0,0,1215.6000000238419
tfEyCsiY,344m16ozllsw98pkhqhl4zt7rn1nev,33c7ualjvpbe9k6yq22p42gaf2v18u,tfEyCsiY,2020-0188,2021-10-15,09:42:44,10:55:25,NA,incomplete,false,NA,true,7,3,NA,NA,NA,right,present,NA,NA,m_s_108.jpg,brown,n_l_046.jpg,brown,within,NA,NaN,NA,left,2217.699999988079,0,0,1393.300000011921
tfEyCsiY,344m16ozllsw98pkhqhl4zt7rn1nev,33c7ualjvpbe9k6yq22p42gaf2v18u,tfEyCsiY,2020-0188,2021-10-15,09:42:44,10:55:25,NA,incomplete,false,NA,true,7,4,NA,NA,NA,right,present,NA,NA,m_l_040.jpg,brown,n_l_025.jpg,red,between,NA,NaN,NA,right,2962.800000011921,1,3,2162.800000011921
tfEyCsiY,344m16ozllsw98pkhqhl4zt7rn1nev,33c7ualjvpbe9k6yq22p42gaf2v18u,tfEyCsiY,2020-0188,2021-10-15,09:42:44,10:55:25,NA,incomplete,false,NA,true,7,5,NA,NA,NA,right,present,NA,NA,n_l_023.jpg,black,m_s_052.jpg,brown,between,NA,NaN,NA,left,3394.099999964237,0,2,884.8999999761581
tfEyCsiY,344m16ozllsw98pkhqhl4zt7rn1nev,33c7ualjvpbe9k6yq22p42gaf2v18u,tfEyCsiY,2020-0188,2021-10-15,09:42:44,10:55:25,NA,incomplete,false,NA,true,7,6,NA,NA,NA,right,present,NA,NA,n_s_107.jpg,orange,m_l_080.jpg,orange,within,NA,NaN,NA,left,2293.699999988079,0,0,1347
tfEyCsiY,344m16ozllsw98pkhqhl4zt7rn1nev,33c7ualjvpbe9k6yq22p42gaf2v18u,tfEyCsiY,2020-0188,2021-10-15,09:42:44,10:55:25,NA,incomplete,false,NA,true,7,7,NA,NA,NA,right,present,NA,NA,n_s_075.jpg,blue,m_l_041.jpg,black,between,NA,NaN,NA,right,1795.800000011921,1,3,1478.8999999761581
tfEyCsiY,344m16ozllsw98pkhqhl4zt7rn1nev,33c7ualjvpbe9k6yq22p42gaf2v18u,tfEyCsiY,2020-0188,2021-10-15,09:42:44,10:55:25,NA,incomplete,false,NA,true,7,8,NA,NA,NA,left,present,NA,NA,n_l_049.jpg,orange,n_l_061.jpg,gray,between,NA,NaN,NA,left,2826.399999976158,1,2,1741.7999999523163
tfEyCsiY,344m16ozllsw98pkhqhl4zt7rn1nev,33c7ualjvpbe9k6yq22p42gaf2v18u,tfEyCsiY,2020-0188,2021-10-15,09:42:44,10:55:25,NA,incomplete,false,NA,true,7,9,NA,NA,NA,left,present,NA,NA,n_l_050.jpg,gray,n_s_093.jpg,red,between,NA,NaN,NA,left,3422.5,1,2,1112.300000011921
tfEyCsiY,344m16ozllsw98pkhqhl4zt7rn1nev,33c7ualjvpbe9k6yq22p42gaf2v18u,tfEyCsiY,2020-0188,2021-10-15,09:42:44,10:55:25,NA,incomplete,false,NA,true,7,10,NA,NA,NA,right,present,NA,NA,m_s_047.jpg,black,n_s_047.jpg,black,within,NA,NaN,NA,right,2515.400000035763,1,0,1139.300000011921
tfEyCsiY,344m16ozllsw98pkhqhl4zt7rn1nev,33c7ualjvpbe9k6yq22p42gaf2v18u,tfEyCsiY,2020-0188,2021-10-15,09:42:44,10:55:25,NA,incomplete,false,true,NA,8,0,NA,brown,m_l_094.jpg,NA,NA,pleasant,unpleasant,NA,NA,NA,NA,NA,right,1702.5,true,NA,NA,NA,NA,NA
tfEyCsiY,344m16ozllsw98pkhqhl4zt7rn1nev,33c7ualjvpbe9k6yq22p42gaf2v18u,tfEyCsiY,2020-0188,2021-10-15,09:42:44,10:55:25,NA,incomplete,false,true,NA,8,1,NA,brown,m_l_030.jpg,NA,NA,pleasant,unpleasant,NA,NA,NA,NA,NA,right,1857,true,NA,NA,NA,NA,NA
tfEyCsiY,344m16ozllsw98pkhqhl4zt7rn1nev,33c7ualjvpbe9k6yq22p42gaf2v18u,tfEyCsiY,2020-0188,2021-10-15,09:42:44,10:55:25,NA,incomplete,false,true,NA,8,2,NA,brown,m_s_095.jpg,NA,NA,pleasant,unpleasant,NA,NA,NA,NA,NA,left,872.5,true,NA,NA,NA,NA,NA
tfEyCsiY,344m16ozllsw98pkhqhl4zt7rn1nev,33c7ualjvpbe9k6yq22p42gaf2v18u,tfEyCsiY,2020-0188,2021-10-15,09:42:44,10:55:25,NA,incomplete,false,true,NA,8,3,NA,brown,n_s_088.jpg,NA,NA,pleasant,unpleasant,NA,NA,NA,NA,NA,left,1131.89999997616,true,NA,NA,NA,NA,NA
tfEyCsiY,344m16ozllsw98pkhqhl4zt7rn1nev,33c7ualjvpbe9k6yq22p42gaf2v18u,tfEyCsiY,2020-0188,2021-10-15,09:42:44,10:55:25,NA,incomplete,false,true,NA,8,4,NA,brown,m_s_064.jpg,NA,NA,pleasant,unpleasant,NA,NA,NA,NA,NA,right,2244,true,NA,NA,NA,NA,NA
tfEyCsiY,344m16ozllsw98pkhqhl4zt7rn1nev,33c7ualjvpbe9k6yq22p42gaf2v18u,tfEyCsiY,2020-0188,2021-10-15,09:42:44,10:55:25,NA,incomplete,false,true,NA,8,5,NA,brown,m_s_051.jpg,NA,NA,pleasant,unpleasant,NA,NA,NA,NA,NA,right,1372.39999997616,true,NA,NA,NA,NA,NA
tfEyCsiY,344m16ozllsw98pkhqhl4zt7rn1nev,33c7ualjvpbe9k6yq22p42gaf2v18u,tfEyCsiY,2020-0188,2021-10-15,09:42:44,10:55:25,NA,incomplete,false,true,NA,8,6,NA,blue,m_s_009.jpg,NA,NA,unpleasant,pleasant,NA,NA,NA,NA,NA,right,1493,true,NA,NA,NA,NA,NA
tfEyCsiY,344m16ozllsw98pkhqhl4zt7rn1nev,33c7ualjvpbe9k6yq22p42gaf2v18u,tfEyCsiY,2020-0188,2021-10-15,09:42:44,10:55:25,NA,incomplete,false,true,NA,8,7,NA,blue,n_s_072.jpg,NA,NA,unpleasant,pleasant,NA,NA,NA,NA,NA,right,1256.5,true,NA,NA,NA,NA,NA
tfEyCsiY,344m16ozllsw98pkhqhl4zt7rn1nev,33c7ualjvpbe9k6yq22p42gaf2v18u,tfEyCsiY,2020-0188,2021-10-15,09:42:44,10:55:25,NA,incomplete,false,true,NA,8,8,NA,blue,n_s_035.jpg,NA,NA,unpleasant,pleasant,NA,NA,NA,NA,NA,left,1182.30000001192,true,NA,NA,NA,NA,NA
