workerId,hitId,assignmentId,subject,studyid,exp_date,exp_start,exp_end,time_start,time_end,practice,encoding,memory,block,trial,event_order,event,stim,answer,context_type,label_left,label_right,left_image,left_event,right_image,right_event,condition,response,response_time,response_acc,order_response,order_response_time,order_acc,distance_response,distance_response_time
uAIREnOt,3odop6t3bvxisk3y617o3pei3yp24c,31ibvunm9wc3abwj5uskli4cr41fvo,uAIREnOt,2020-0188,2021-10-14,10:23:24,11:38:32,NA,incomplete,true,true,NA,0,0,NA,purple,m_s_012.jpg,NA,NA,unpleasant,pleasant,NA,NA,NA,NA,NA,left,2003.29999999702,true,NA,NA,NA,NA,NA
uAIREnOt,3odop6t3bvxisk3y617o3pei3yp24c,31ibvunm9wc3abwj5uskli4cr41fvo,uAIREnOt,2020-0188,2021-10-14,10:23:24,11:38:32,NA,incomplete,true,true,NA,0,1,NA,purple,n_l_096.jpg,NA,NA,unpleasant,pleasant,NA,NA,NA,NA,NA,left,1544.30000001192,true,NA,NA,NA,NA,NA
uAIREnOt,3odop6t3bvxisk3y617o3pei3yp24c,31ibvunm9wc3abwj5uskli4cr41fvo,uAIREnOt,2020-0188,2021-10-14,10:23:24,11:38:32,NA,incomplete,true,true,NA,0,2,NA,purple,n_s_008.jpg,NA,NA,pleasant,unpleasant,NA,NA,NA,NA,NA,right,1619.90000000596,true,NA,NA,NA,NA,NA
uAIREnOt,3odop6t3bvxisk3y617o3pei3yp24c,31ibvunm9wc3abwj5uskli4cr41fvo,uAIREnOt,2020-0188,2021-10-14,10:23:24,11:38:32,NA,incomplete,true,true,NA,0,3,NA,purple,m_s_056.jpg,NA,NA,unpleasant,pleasant,NA,NA,NA,NA,NA,left,2313.70000000298,true,NA,NA,NA,NA,NA
uAIREnOt,3odop6t3bvxisk3y617o3pei3yp24c,31ibvunm9wc3abwj5uskli4cr41fvo,uAIREnOt,2020-0188,2021-10-14,10:23:24,11:38:32,NA,incomplete,true,true,NA,0,4,NA,purple,m_l_015.jpg,NA,NA,unpleasant,pleasant,NA,NA,NA,NA,NA,right,1663.80000001192,true,NA,NA,NA,NA,NA
uAIREnOt,3odop6t3bvxisk3y617o3pei3yp24c,31ibvunm9wc3abwj5uskli4cr41fvo,uAIREnOt,2020-0188,2021-10-14,10:23:24,11:38:32,NA,incomplete,true,true,NA,0,5,NA,purple,n_l_032.jpg,NA,NA,pleasant,unpleasant,NA,NA,NA,NA,NA,right,1388.89999999106,true,NA,NA,NA,NA,NA
uAIREnOt,3odop6t3bvxisk3y617o3pei3yp24c,31ibvunm9wc3abwj5uskli4cr41fvo,uAIREnOt,2020-0188,2021-10-14,10:23:24,11:38:32,NA,incomplete,true,true,NA,0,6,NA,yellow,m_s_011.jpg,NA,NA,unpleasant,pleasant,NA,NA,NA,NA,NA,right,2119.19999998808,true,NA,NA,NA,NA,NA
uAIREnOt,3odop6t3bvxisk3y617o3pei3yp24c,31ibvunm9wc3abwj5uskli4cr41fvo,uAIREnOt,2020-0188,2021-10-14,10:23:24,11:38:32,NA,incomplete,true,true,NA,0,7,NA,yellow,m_s_036.jpg,NA,NA,pleasant,unpleasant,NA,NA,NA,NA,NA,left,1769.79999999702,true,NA,NA,NA,NA,NA
uAIREnOt,3odop6t3bvxisk3y617o3pei3yp24c,31ibvunm9wc3abwj5uskli4cr41fvo,uAIREnOt,2020-0188,2021-10-14,10:23:24,11:38:32,NA,incomplete,true,true,NA,0,8,NA,yellow,m_s_098.jpg,NA,NA,pleasant,unpleasant,NA,NA,NA,NA,NA,left,2059.39999999106,true,NA,NA,NA,NA,NA
uAIREnOt,3odop6t3bvxisk3y617o3pei3yp24c,31ibvunm9wc3abwj5uskli4cr41fvo,uAIREnOt,2020-0188,2021-10-14,10:23:24,11:38:32,NA,incomplete,true,true,NA,0,9,NA,yellow,n_s_091.jpg,NA,NA,unpleasant,pleasant,NA,NA,NA,NA,NA,left,1351.90000000596,true,NA,NA,NA,NA,NA
uAIREnOt,3odop6t3bvxisk3y617o3pei3yp24c,31ibvunm9wc3abwj5uskli4cr41fvo,uAIREnOt,2020-0188,2021-10-14,10:23:24,11:38:32,NA,incomplete,true,true,NA,0,10,NA,yellow,n_l_027.jpg,NA,NA,unpleasant,pleasant,NA,NA,NA,NA,NA,left,1296,true,NA,NA,NA,NA,NA
uAIREnOt,3odop6t3bvxisk3y617o3pei3yp24c,31ibvunm9wc3abwj5uskli4cr41fvo,uAIREnOt,2020-0188,2021-10-14,10:23:24,11:38:32,NA,incomplete,true,true,NA,0,11,NA,yellow,m_s_033.jpg,NA,NA,pleasant,unpleasant,NA,NA,NA,NA,NA,left,1770.90000000596,true,NA,NA,NA,NA,NA
uAIREnOt,3odop6t3bvxisk3y617o3pei3yp24c,31ibvunm9wc3abwj5uskli4cr41fvo,uAIREnOt,2020-0188,2021-10-14,10:23:24,11:38:32,NA,incomplete,true,true,NA,0,12,NA,orange,m_s_018.jpg,NA,NA,unpleasant,pleasant,NA,NA,NA,NA,NA,right,1811.5,true,NA,NA,NA,NA,NA
uAIREnOt,3odop6t3bvxisk3y617o3pei3yp24c,31ibvunm9wc3abwj5uskli4cr41fvo,uAIREnOt,2020-0188,2021-10-14,10:23:24,11:38:32,NA,incomplete,true,true,NA,0,13,NA,orange,m_s_082.jpg,NA,NA,pleasant,unpleasant,NA,NA,NA,NA,NA,left,1446.90000000596,true,NA,NA,NA,NA,NA
uAIREnOt,3odop6t3bvxisk3y617o3pei3yp24c,31ibvunm9wc3abwj5uskli4cr41fvo,uAIREnOt,2020-0188,2021-10-14,10:23:24,11:38:32,NA,incomplete,true,true,NA,0,14,NA,orange,m_s_008.jpg,NA,NA,pleasant,unpleasant,NA,NA,NA,NA,NA,left,2355.10000000894,true,NA,NA,NA,NA,NA
uAIREnOt,3odop6t3bvxisk3y617o3pei3yp24c,31ibvunm9wc3abwj5uskli4cr41fvo,uAIREnOt,2020-0188,2021-10-14,10:23:24,11:38:32,NA,incomplete,true,true,NA,0,15,NA,orange,n_s_072.jpg,NA,NA,unpleasant,pleasant,NA,NA,NA,NA,NA,right,1818.90000000596,true,NA,NA,NA,NA,NA
uAIREnOt,3odop6t3bvxisk3y617o3pei3yp24c,31ibvunm9wc3abwj5uskli4cr41fvo,uAIREnOt,2020-0188,2021-10-14,10:23:24,11:38:32,NA,incomplete,true,true,NA,0,16,NA,orange,n_l_099.jpg,NA,NA,pleasant,unpleasant,NA,NA,NA,NA,NA,right,1485.69999998808,true,NA,NA,NA,NA,NA
uAIREnOt,3odop6t3bvxisk3y617o3pei3yp24c,31ibvunm9wc3abwj5uskli4cr41fvo,uAIREnOt,2020-0188,2021-10-14,10:23:24,11:38:32,NA,incomplete,true,true,NA,0,17,NA,orange,n_s_029.jpg,NA,NA,pleasant,unpleasant,NA,NA,NA,NA,NA,right,2651.70000000298,true,NA,NA,NA,NA,NA
uAIREnOt,3odop6t3bvxisk3y617o3pei3yp24c,31ibvunm9wc3abwj5uskli4cr41fvo,uAIREnOt,2020-0188,2021-10-14,10:23:24,11:38:32,NA,incomplete,true,true,NA,0,18,NA,white,n_s_026.jpg,NA,NA,pleasant,unpleasant,NA,NA,NA,NA,NA,right,2309.39999999106,true,NA,NA,NA,NA,NA
uAIREnOt,3odop6t3bvxisk3y617o3pei3yp24c,31ibvunm9wc3abwj5uskli4cr41fvo,uAIREnOt,2020-0188,2021-10-14,10:23:24,11:38:32,NA,incomplete,true,true,NA,0,19,NA,white,n_s_010.jpg,NA,NA,unpleasant,pleasant,NA,NA,NA,NA,NA,left,1687,true,NA,NA,NA,NA,NA
uAIREnOt,3odop6t3bvxisk3y617o3pei3yp24c,31ibvunm9wc3abwj5uskli4cr41fvo,uAIREnOt,2020-0188,2021-10-14,10:23:24,11:38:32,NA,incomplete,true,true,NA,0,20,NA,white,n_s_100.jpg,NA,NA,unpleasant,pleasant,NA,NA,NA,NA,NA,right,1351,true,NA,NA,NA,NA,NA
uAIREnOt,3odop6t3bvxisk3y617o3pei3yp24c,31ibvunm9wc3abwj5uskli4cr41fvo,uAIREnOt,2020-0188,2021-10-14,10:23:24,11:38:32,NA,incomplete,true,true,NA,0,21,NA,white,m_l_073.jpg,NA,NA,unpleasant,pleasant,NA,NA,NA,NA,NA,left,1987.70000000298,true,NA,NA,NA,NA,NA
uAIREnOt,3odop6t3bvxisk3y617o3pei3yp24c,31ibvunm9wc3abwj5uskli4cr41fvo,uAIREnOt,2020-0188,2021-10-14,10:23:24,11:38:32,NA,incomplete,true,true,NA,0,22,NA,white,n_l_072.jpg,NA,NA,pleasant,unpleasant,NA,NA,NA,NA,NA,right,1251.5,true,NA,NA,NA,NA,NA
uAIREnOt,3odop6t3bvxisk3y617o3pei3yp24c,31ibvunm9wc3abwj5uskli4cr41fvo,uAIREnOt,2020-0188,2021-10-14,10:23:24,11:38:32,NA,incomplete,true,true,NA,0,23,NA,white,n_s_097.jpg,NA,NA,unpleasant,pleasant,NA,NA,NA,NA,NA,right,1413.20000000298,true,NA,NA,NA,NA,NA
uAIREnOt,3odop6t3bvxisk3y617o3pei3yp24c,31ibvunm9wc3abwj5uskli4cr41fvo,uAIREnOt,2020-0188,2021-10-14,10:23:24,11:38:32,NA,incomplete,true,true,NA,0,24,NA,green,n_l_102.jpg,NA,NA,unpleasant,pleasant,NA,NA,NA,NA,NA,right,1406.5,true,NA,NA,NA,NA,NA
uAIREnOt,3odop6t3bvxisk3y617o3pei3yp24c,31ibvunm9wc3abwj5uskli4cr41fvo,uAIREnOt,2020-0188,2021-10-14,10:23:24,11:38:32,NA,incomplete,true,true,NA,0,25,NA,green,n_s_019.jpg,NA,NA,pleasant,unpleasant,NA,NA,NA,NA,NA,left,1594.40000000596,true,NA,NA,NA,NA,NA
uAIREnOt,3odop6t3bvxisk3y617o3pei3yp24c,31ibvunm9wc3abwj5uskli4cr41fvo,uAIREnOt,2020-0188,2021-10-14,10:23:24,11:38:32,NA,incomplete,true,true,NA,0,26,NA,green,n_s_087.jpg,NA,NA,pleasant,unpleasant,NA,NA,NA,NA,NA,right,1574.59999999404,true,NA,NA,NA,NA,NA
uAIREnOt,3odop6t3bvxisk3y617o3pei3yp24c,31ibvunm9wc3abwj5uskli4cr41fvo,uAIREnOt,2020-0188,2021-10-14,10:23:24,11:38:32,NA,incomplete,true,true,NA,0,27,NA,green,n_s_073.jpg,NA,NA,pleasant,unpleasant,NA,NA,NA,NA,NA,right,1373.5,true,NA,NA,NA,NA,NA
uAIREnOt,3odop6t3bvxisk3y617o3pei3yp24c,31ibvunm9wc3abwj5uskli4cr41fvo,uAIREnOt,2020-0188,2021-10-14,10:23:24,11:38:32,NA,incomplete,true,true,NA,0,28,NA,green,m_s_093.jpg,NA,NA,pleasant,unpleasant,NA,NA,NA,NA,NA,right,2550.39999999106,true,NA,NA,NA,NA,NA
uAIREnOt,3odop6t3bvxisk3y617o3pei3yp24c,31ibvunm9wc3abwj5uskli4cr41fvo,uAIREnOt,2020-0188,2021-10-14,10:23:24,11:38:32,NA,incomplete,true,true,NA,0,29,NA,green,m_s_003.jpg,NA,NA,unpleasant,pleasant,NA,NA,NA,NA,NA,right,1474.5,true,NA,NA,NA,NA,NA
uAIREnOt,3odop6t3bvxisk3y617o3pei3yp24c,31ibvunm9wc3abwj5uskli4cr41fvo,uAIREnOt,2020-0188,2021-10-14,10:23:24,11:38:32,NA,incomplete,true,true,NA,0,30,NA,gray,m_s_117.jpg,NA,NA,unpleasant,pleasant,NA,NA,NA,NA,NA,right,1963.80000001192,true,NA,NA,NA,NA,NA
uAIREnOt,3odop6t3bvxisk3y617o3pei3yp24c,31ibvunm9wc3abwj5uskli4cr41fvo,uAIREnOt,2020-0188,2021-10-14,10:23:24,11:38:32,NA,incomplete,true,true,NA,0,31,NA,gray,m_l_070.jpg,NA,NA,unpleasant,pleasant,NA,NA,NA,NA,NA,right,1434.40000000596,true,NA,NA,NA,NA,NA
uAIREnOt,3odop6t3bvxisk3y617o3pei3yp24c,31ibvunm9wc3abwj5uskli4cr41fvo,uAIREnOt,2020-0188,2021-10-14,10:23:24,11:38:32,NA,incomplete,true,true,NA,0,32,NA,gray,n_s_049.jpg,NA,NA,pleasant,unpleasant,NA,NA,NA,NA,NA,right,2345.10000000894,true,NA,NA,NA,NA,NA
uAIREnOt,3odop6t3bvxisk3y617o3pei3yp24c,31ibvunm9wc3abwj5uskli4cr41fvo,uAIREnOt,2020-0188,2021-10-14,10:23:24,11:38:32,NA,incomplete,true,true,NA,0,33,NA,gray,m_s_116.jpg,NA,NA,pleasant,unpleasant,NA,NA,NA,NA,NA,left,1550.40000000596,true,NA,NA,NA,NA,NA
uAIREnOt,3odop6t3bvxisk3y617o3pei3yp24c,31ibvunm9wc3abwj5uskli4cr41fvo,uAIREnOt,2020-0188,2021-10-14,10:23:24,11:38:32,NA,incomplete,true,true,NA,0,34,NA,gray,n_l_057.jpg,NA,NA,unpleasant,pleasant,NA,NA,NA,NA,NA,left,1711.40000000596,true,NA,NA,NA,NA,NA
uAIREnOt,3odop6t3bvxisk3y617o3pei3yp24c,31ibvunm9wc3abwj5uskli4cr41fvo,uAIREnOt,2020-0188,2021-10-14,10:23:24,11:38:32,NA,incomplete,true,true,NA,0,35,NA,gray,n_l_020.jpg,NA,NA,pleasant,unpleasant,NA,NA,NA,NA,NA,left,1678,true,NA,NA,NA,NA,NA
uAIREnOt,3odop6t3bvxisk3y617o3pei3yp24c,31ibvunm9wc3abwj5uskli4cr41fvo,uAIREnOt,2020-0188,2021-10-14,10:23:24,11:38:32,NA,incomplete,true,NA,true,0,0,NA,NA,NA,left,absent,NA,NA,n_s_019.jpg,green,m_s_003.jpg,green,within,NA,NaN,NA,right,5148.0999999940395,0,2,6425.800000011921
uAIREnOt,3odop6t3bvxisk3y617o3pei3yp24c,31ibvunm9wc3abwj5uskli4cr41fvo,uAIREnOt,2020-0188,2021-10-14,10:23:24,11:38:32,NA,incomplete,true,NA,true,0,1,NA,NA,NA,left,absent,NA,NA,m_l_015.jpg,purple,m_s_098.jpg,yellow,between,NA,NaN,NA,left,5039,1,2,2474.7999999970198
uAIREnOt,3odop6t3bvxisk3y617o3pei3yp24c,31ibvunm9wc3abwj5uskli4cr41fvo,uAIREnOt,2020-0188,2021-10-14,10:23:24,11:38:32,NA,incomplete,true,NA,true,0,2,NA,NA,NA,right,present,NA,NA,n_s_029.jpg,orange,m_s_082.jpg,orange,within,NA,NaN,NA,right,5471.4000000059605,1,0,2200.7000000029802
uAIREnOt,3odop6t3bvxisk3y617o3pei3yp24c,31ibvunm9wc3abwj5uskli4cr41fvo,uAIREnOt,2020-0188,2021-10-14,10:23:24,11:38:32,NA,incomplete,true,NA,true,0,3,NA,NA,NA,right,absent,NA,NA,n_s_097.jpg,white,n_s_010.jpg,white,within,NA,NaN,NA,right,7599.5999999940395,1,0,2931.5999999940395
uAIREnOt,3odop6t3bvxisk3y617o3pei3yp24c,31ibvunm9wc3abwj5uskli4cr41fvo,uAIREnOt,2020-0188,2021-10-14,10:23:24,11:38:32,NA,incomplete,true,NA,true,0,4,NA,NA,NA,left,absent,NA,NA,n_l_027.jpg,yellow,m_s_008.jpg,orange,between,NA,NaN,NA,left,8762.59999999404,1,1,1668.800000011921
uAIREnOt,3odop6t3bvxisk3y617o3pei3yp24c,31ibvunm9wc3abwj5uskli4cr41fvo,uAIREnOt,2020-0188,2021-10-14,10:23:24,11:38:32,NA,incomplete,true,NA,true,0,5,NA,NA,NA,right,absent,NA,NA,n_l_032.jpg,purple,n_l_096.jpg,purple,within,NA,NaN,NA,right,3105.5,1,2,2671.1000000089407
uAIREnOt,3odop6t3bvxisk3y617o3pei3yp24c,31ibvunm9wc3abwj5uskli4cr41fvo,uAIREnOt,2020-0188,2021-10-14,10:23:24,11:38:32,NA,incomplete,true,NA,true,0,6,NA,NA,NA,left,absent,NA,NA,n_l_072.jpg,white,n_s_087.jpg,green,between,NA,NaN,NA,left,5715.70000000298,1,1,3845.2000000029802
uAIREnOt,3odop6t3bvxisk3y617o3pei3yp24c,31ibvunm9wc3abwj5uskli4cr41fvo,uAIREnOt,2020-0188,2021-10-14,10:23:24,11:38:32,NA,incomplete,true,NA,true,0,7,NA,NA,NA,right,present,NA,NA,n_l_020.jpg,gray,m_l_070.jpg,gray,within,NA,NaN,NA,right,4053.2999999970198,1,0,1816.5999999940395
uAIREnOt,3odop6t3bvxisk3y617o3pei3yp24c,31ibvunm9wc3abwj5uskli4cr41fvo,uAIREnOt,2020-0188,2021-10-14,10:23:24,11:38:32,NA,incomplete,true,NA,true,0,8,NA,NA,NA,left,absent,NA,NA,m_s_036.jpg,yellow,m_s_033.jpg,yellow,within,NA,NaN,NA,right,5315.29999999702,0,0,1432.7000000029802
uAIREnOt,3odop6t3bvxisk3y617o3pei3yp24c,31ibvunm9wc3abwj5uskli4cr41fvo,uAIREnOt,2020-0188,2021-10-14,10:23:24,11:38:32,NA,incomplete,true,NA,true,0,9,NA,NA,NA,left,absent,NA,NA,n_l_099.jpg,orange,n_s_100.jpg,white,between,NA,NaN,NA,right,10188.29999999702,0,2,1310.5
uAIREnOt,3odop6t3bvxisk3y617o3pei3yp24c,31ibvunm9wc3abwj5uskli4cr41fvo,uAIREnOt,2020-0188,2021-10-14,10:23:24,11:38:32,NA,incomplete,true,NA,true,0,10,NA,NA,NA,right,present,NA,NA,n_s_049.jpg,gray,m_s_093.jpg,green,between,NA,NaN,NA,left,5613.29999999702,0,2,1667.4000000059605
uAIREnOt,3odop6t3bvxisk3y617o3pei3yp24c,31ibvunm9wc3abwj5uskli4cr41fvo,uAIREnOt,2020-0188,2021-10-14,10:23:24,11:38:32,NA,incomplete,false,true,NA,1,0,NA,orange,n_s_109.jpg,NA,NA,unpleasant,pleasant,NA,NA,NA,NA,NA,left,2024.5,true,NA,NA,NA,NA,NA
uAIREnOt,3odop6t3bvxisk3y617o3pei3yp24c,31ibvunm9wc3abwj5uskli4cr41fvo,uAIREnOt,2020-0188,2021-10-14,10:23:24,11:38:32,NA,incomplete,false,true,NA,1,1,NA,orange,m_l_090.jpg,NA,NA,unpleasant,pleasant,NA,NA,NA,NA,NA,left,2259.5,true,NA,NA,NA,NA,NA
uAIREnOt,3odop6t3bvxisk3y617o3pei3yp24c,31ibvunm9wc3abwj5uskli4cr41fvo,uAIREnOt,2020-0188,2021-10-14,10:23:24,11:38:32,NA,incomplete,false,true,NA,1,2,NA,orange,n_l_064.jpg,NA,NA,unpleasant,pleasant,NA,NA,NA,NA,NA,left,1438.10000000894,true,NA,NA,NA,NA,NA
uAIREnOt,3odop6t3bvxisk3y617o3pei3yp24c,31ibvunm9wc3abwj5uskli4cr41fvo,uAIREnOt,2020-0188,2021-10-14,10:23:24,11:38:32,NA,incomplete,false,true,NA,1,3,NA,orange,m_l_097.jpg,NA,NA,unpleasant,pleasant,NA,NA,NA,NA,NA,left,2149.10000000894,true,NA,NA,NA,NA,NA
uAIREnOt,3odop6t3bvxisk3y617o3pei3yp24c,31ibvunm9wc3abwj5uskli4cr41fvo,uAIREnOt,2020-0188,2021-10-14,10:23:24,11:38:32,NA,incomplete,false,true,NA,1,4,NA,orange,n_l_022.jpg,NA,NA,unpleasant,pleasant,NA,NA,NA,NA,NA,right,1454.79999999702,true,NA,NA,NA,NA,NA
uAIREnOt,3odop6t3bvxisk3y617o3pei3yp24c,31ibvunm9wc3abwj5uskli4cr41fvo,uAIREnOt,2020-0188,2021-10-14,10:23:24,11:38:32,NA,incomplete,false,true,NA,1,5,NA,orange,m_s_070.jpg,NA,NA,pleasant,unpleasant,NA,NA,NA,NA,NA,left,1688.40000000596,true,NA,NA,NA,NA,NA
uAIREnOt,3odop6t3bvxisk3y617o3pei3yp24c,31ibvunm9wc3abwj5uskli4cr41fvo,uAIREnOt,2020-0188,2021-10-14,10:23:24,11:38:32,NA,incomplete,false,true,NA,1,6,NA,gray,n_s_108.jpg,NA,NA,unpleasant,pleasant,NA,NA,NA,NA,NA,right,2368.30000001192,true,NA,NA,NA,NA,NA
uAIREnOt,3odop6t3bvxisk3y617o3pei3yp24c,31ibvunm9wc3abwj5uskli4cr41fvo,uAIREnOt,2020-0188,2021-10-14,10:23:24,11:38:32,NA,incomplete,false,true,NA,1,7,NA,gray,m_l_010.jpg,NA,NA,unpleasant,pleasant,NA,NA,NA,NA,NA,right,1687.20000000298,true,NA,NA,NA,NA,NA
uAIREnOt,3odop6t3bvxisk3y617o3pei3yp24c,31ibvunm9wc3abwj5uskli4cr41fvo,uAIREnOt,2020-0188,2021-10-14,10:23:24,11:38:32,NA,incomplete,false,true,NA,1,8,NA,gray,m_s_054.jpg,NA,NA,pleasant,unpleasant,NA,NA,NA,NA,NA,left,1362.20000000298,true,NA,NA,NA,NA,NA
uAIREnOt,3odop6t3bvxisk3y617o3pei3yp24c,31ibvunm9wc3abwj5uskli4cr41fvo,uAIREnOt,2020-0188,2021-10-14,10:23:24,11:38:32,NA,incomplete,false,true,NA,1,9,NA,gray,n_l_014.jpg,NA,NA,pleasant,unpleasant,NA,NA,NA,NA,NA,right,1729.60000000894,true,NA,NA,NA,NA,NA
uAIREnOt,3odop6t3bvxisk3y617o3pei3yp24c,31ibvunm9wc3abwj5uskli4cr41fvo,uAIREnOt,2020-0188,2021-10-14,10:23:24,11:38:32,NA,incomplete,false,true,NA,1,10,NA,gray,m_l_046.jpg,NA,NA,pleasant,unpleasant,NA,NA,NA,NA,NA,left,1807.20000000298,true,NA,NA,NA,NA,NA
uAIREnOt,3odop6t3bvxisk3y617o3pei3yp24c,31ibvunm9wc3abwj5uskli4cr41fvo,uAIREnOt,2020-0188,2021-10-14,10:23:24,11:38:32,NA,incomplete,false,true,NA,1,11,NA,gray,m_s_064.jpg,NA,NA,pleasant,unpleasant,NA,NA,NA,NA,NA,left,1573.40000000596,true,NA,NA,NA,NA,NA
uAIREnOt,3odop6t3bvxisk3y617o3pei3yp24c,31ibvunm9wc3abwj5uskli4cr41fvo,uAIREnOt,2020-0188,2021-10-14,10:23:24,11:38:32,NA,incomplete,false,true,NA,1,12,NA,black,n_s_085.jpg,NA,NA,unpleasant,pleasant,NA,NA,NA,NA,NA,left,2230.10000000894,true,NA,NA,NA,NA,NA
uAIREnOt,3odop6t3bvxisk3y617o3pei3yp24c,31ibvunm9wc3abwj5uskli4cr41fvo,uAIREnOt,2020-0188,2021-10-14,10:23:24,11:38:32,NA,incomplete,false,true,NA,1,13,NA,black,n_s_094.jpg,NA,NA,unpleasant,pleasant,NA,NA,NA,NA,NA,right,1604.20000000298,true,NA,NA,NA,NA,NA
uAIREnOt,3odop6t3bvxisk3y617o3pei3yp24c,31ibvunm9wc3abwj5uskli4cr41fvo,uAIREnOt,2020-0188,2021-10-14,10:23:24,11:38:32,NA,incomplete,false,true,NA,1,14,NA,black,m_s_047.jpg,NA,NA,pleasant,unpleasant,NA,NA,NA,NA,NA,right,1920.20000000298,true,NA,NA,NA,NA,NA
uAIREnOt,3odop6t3bvxisk3y617o3pei3yp24c,31ibvunm9wc3abwj5uskli4cr41fvo,uAIREnOt,2020-0188,2021-10-14,10:23:24,11:38:32,NA,incomplete,false,true,NA,1,15,NA,black,m_l_093.jpg,NA,NA,pleasant,unpleasant,NA,NA,NA,NA,NA,left,2049.29999999702,true,NA,NA,NA,NA,NA
uAIREnOt,3odop6t3bvxisk3y617o3pei3yp24c,31ibvunm9wc3abwj5uskli4cr41fvo,uAIREnOt,2020-0188,2021-10-14,10:23:24,11:38:32,NA,incomplete,false,true,NA,1,16,NA,black,m_l_094.jpg,NA,NA,unpleasant,pleasant,NA,NA,NA,NA,NA,right,1811.09999999404,true,NA,NA,NA,NA,NA
uAIREnOt,3odop6t3bvxisk3y617o3pei3yp24c,31ibvunm9wc3abwj5uskli4cr41fvo,uAIREnOt,2020-0188,2021-10-14,10:23:24,11:38:32,NA,incomplete,false,true,NA,1,17,NA,black,n_s_051.jpg,NA,NA,pleasant,unpleasant,NA,NA,NA,NA,NA,right,1359.29999999702,true,NA,NA,NA,NA,NA
uAIREnOt,3odop6t3bvxisk3y617o3pei3yp24c,31ibvunm9wc3abwj5uskli4cr41fvo,uAIREnOt,2020-0188,2021-10-14,10:23:24,11:38:32,NA,incomplete,false,true,NA,1,18,NA,green,m_l_030.jpg,NA,NA,unpleasant,pleasant,NA,NA,NA,NA,NA,right,1927.69999998808,true,NA,NA,NA,NA,NA
uAIREnOt,3odop6t3bvxisk3y617o3pei3yp24c,31ibvunm9wc3abwj5uskli4cr41fvo,uAIREnOt,2020-0188,2021-10-14,10:23:24,11:38:32,NA,incomplete,false,true,NA,1,19,NA,green,m_s_053.jpg,NA,NA,unpleasant,pleasant,NA,NA,NA,NA,NA,right,1554.39999999106,true,NA,NA,NA,NA,NA
uAIREnOt,3odop6t3bvxisk3y617o3pei3yp24c,31ibvunm9wc3abwj5uskli4cr41fvo,uAIREnOt,2020-0188,2021-10-14,10:23:24,11:38:32,NA,incomplete,false,true,NA,1,20,NA,green,n_s_041.jpg,NA,NA,unpleasant,pleasant,NA,NA,NA,NA,NA,left,1180.90000000596,true,NA,NA,NA,NA,NA
uAIREnOt,3odop6t3bvxisk3y617o3pei3yp24c,31ibvunm9wc3abwj5uskli4cr41fvo,uAIREnOt,2020-0188,2021-10-14,10:23:24,11:38:32,NA,incomplete,false,true,NA,1,21,NA,green,n_l_094.jpg,NA,NA,pleasant,unpleasant,NA,NA,NA,NA,NA,right,1401.10000000894,true,NA,NA,NA,NA,NA
uAIREnOt,3odop6t3bvxisk3y617o3pei3yp24c,31ibvunm9wc3abwj5uskli4cr41fvo,uAIREnOt,2020-0188,2021-10-14,10:23:24,11:38:32,NA,incomplete,false,true,NA,1,22,NA,green,n_s_078.jpg,NA,NA,unpleasant,pleasant,NA,NA,NA,NA,NA,left,1561.40000000596,true,NA,NA,NA,NA,NA
uAIREnOt,3odop6t3bvxisk3y617o3pei3yp24c,31ibvunm9wc3abwj5uskli4cr41fvo,uAIREnOt,2020-0188,2021-10-14,10:23:24,11:38:32,NA,incomplete,false,true,NA,1,23,NA,green,n_s_079.jpg,NA,NA,unpleasant,pleasant,NA,NA,NA,NA,NA,left,1120.5,true,NA,NA,NA,NA,NA
uAIREnOt,3odop6t3bvxisk3y617o3pei3yp24c,31ibvunm9wc3abwj5uskli4cr41fvo,uAIREnOt,2020-0188,2021-10-14,10:23:24,11:38:32,NA,incomplete,false,true,NA,1,24,NA,brown,n_s_071.jpg,NA,NA,unpleasant,pleasant,NA,NA,NA,NA,NA,left,2806.09999999404,true,NA,NA,NA,NA,NA
uAIREnOt,3odop6t3bvxisk3y617o3pei3yp24c,31ibvunm9wc3abwj5uskli4cr41fvo,uAIREnOt,2020-0188,2021-10-14,10:23:24,11:38:32,NA,incomplete,false,true,NA,1,25,NA,brown,m_l_013.jpg,NA,NA,unpleasant,pleasant,NA,NA,NA,NA,NA,right,1392,true,NA,NA,NA,NA,NA
uAIREnOt,3odop6t3bvxisk3y617o3pei3yp24c,31ibvunm9wc3abwj5uskli4cr41fvo,uAIREnOt,2020-0188,2021-10-14,10:23:24,11:38:32,NA,incomplete,false,true,NA,1,26,NA,brown,n_s_007.jpg,NA,NA,pleasant,unpleasant,NA,NA,NA,NA,NA,left,1805.70000000298,true,NA,NA,NA,NA,NA
uAIREnOt,3odop6t3bvxisk3y617o3pei3yp24c,31ibvunm9wc3abwj5uskli4cr41fvo,uAIREnOt,2020-0188,2021-10-14,10:23:24,11:38:32,NA,incomplete,false,true,NA,1,27,NA,brown,n_l_078.jpg,NA,NA,unpleasant,pleasant,NA,NA,NA,NA,NA,right,1804.89999999106,true,NA,NA,NA,NA,NA
uAIREnOt,3odop6t3bvxisk3y617o3pei3yp24c,31ibvunm9wc3abwj5uskli4cr41fvo,uAIREnOt,2020-0188,2021-10-14,10:23:24,11:38:32,NA,incomplete,false,true,NA,1,28,NA,brown,n_l_076.jpg,NA,NA,pleasant,unpleasant,NA,NA,NA,NA,NA,right,1651.5,true,NA,NA,NA,NA,NA
uAIREnOt,3odop6t3bvxisk3y617o3pei3yp24c,31ibvunm9wc3abwj5uskli4cr41fvo,uAIREnOt,2020-0188,2021-10-14,10:23:24,11:38:32,NA,incomplete,false,true,NA,1,29,NA,brown,m_l_009.jpg,NA,NA,unpleasant,pleasant,NA,NA,NA,NA,NA,right,1442.59999999404,true,NA,NA,NA,NA,NA
uAIREnOt,3odop6t3bvxisk3y617o3pei3yp24c,31ibvunm9wc3abwj5uskli4cr41fvo,uAIREnOt,2020-0188,2021-10-14,10:23:24,11:38:32,NA,incomplete,false,true,NA,1,30,NA,red,m_l_115.jpg,NA,NA,pleasant,unpleasant,NA,NA,NA,NA,NA,left,1333.90000000596,true,NA,NA,NA,NA,NA
uAIREnOt,3odop6t3bvxisk3y617o3pei3yp24c,31ibvunm9wc3abwj5uskli4cr41fvo,uAIREnOt,2020-0188,2021-10-14,10:23:24,11:38:32,NA,incomplete,false,true,NA,1,31,NA,red,n_l_016.jpg,NA,NA,unpleasant,pleasant,NA,NA,NA,NA,NA,left,1250.19999998808,true,NA,NA,NA,NA,NA
uAIREnOt,3odop6t3bvxisk3y617o3pei3yp24c,31ibvunm9wc3abwj5uskli4cr41fvo,uAIREnOt,2020-0188,2021-10-14,10:23:24,11:38:32,NA,incomplete,false,true,NA,1,32,NA,red,m_s_077.jpg,NA,NA,unpleasant,pleasant,NA,NA,NA,NA,NA,right,1445.30000001192,true,NA,NA,NA,NA,NA
uAIREnOt,3odop6t3bvxisk3y617o3pei3yp24c,31ibvunm9wc3abwj5uskli4cr41fvo,uAIREnOt,2020-0188,2021-10-14,10:23:24,11:38:32,NA,incomplete,false,true,NA,1,33,NA,red,m_l_062.jpg,NA,NA,pleasant,unpleasant,NA,NA,NA,NA,NA,left,2354.30000001192,true,NA,NA,NA,NA,NA
uAIREnOt,3odop6t3bvxisk3y617o3pei3yp24c,31ibvunm9wc3abwj5uskli4cr41fvo,uAIREnOt,2020-0188,2021-10-14,10:23:24,11:38:32,NA,incomplete,false,true,NA,1,34,NA,red,m_l_018.jpg,NA,NA,pleasant,unpleasant,NA,NA,NA,NA,NA,left,1387.70000000298,true,NA,NA,NA,NA,NA
uAIREnOt,3odop6t3bvxisk3y617o3pei3yp24c,31ibvunm9wc3abwj5uskli4cr41fvo,uAIREnOt,2020-0188,2021-10-14,10:23:24,11:38:32,NA,incomplete,false,true,NA,1,35,NA,red,n_l_079.jpg,NA,NA,unpleasant,pleasant,NA,NA,NA,NA,NA,left,1320.10000000894,true,NA,NA,NA,NA,NA
uAIREnOt,3odop6t3bvxisk3y617o3pei3yp24c,31ibvunm9wc3abwj5uskli4cr41fvo,uAIREnOt,2020-0188,2021-10-14,10:23:24,11:38:32,NA,incomplete,false,NA,true,1,0,NA,NA,NA,left,present,NA,NA,n_l_076.jpg,brown,m_s_077.jpg,red,between,NA,NaN,NA,left,3119.4000000059605,1,2,1527.7999999970198
uAIREnOt,3odop6t3bvxisk3y617o3pei3yp24c,31ibvunm9wc3abwj5uskli4cr41fvo,uAIREnOt,2020-0188,2021-10-14,10:23:24,11:38:32,NA,incomplete,false,NA,true,1,1,NA,NA,NA,right,present,NA,NA,m_l_009.jpg,brown,m_l_013.jpg,brown,within,NA,NaN,NA,right,4334.0999999940395,1,0,1626
uAIREnOt,3odop6t3bvxisk3y617o3pei3yp24c,31ibvunm9wc3abwj5uskli4cr41fvo,uAIREnOt,2020-0188,2021-10-14,10:23:24,11:38:32,NA,incomplete,false,NA,true,1,2,NA,NA,NA,right,present,NA,NA,m_s_047.jpg,black,m_l_046.jpg,gray,between,NA,NaN,NA,right,5532.5,1,2,2164.6000000089407
uAIREnOt,3odop6t3bvxisk3y617o3pei3yp24c,31ibvunm9wc3abwj5uskli4cr41fvo,uAIREnOt,2020-0188,2021-10-14,10:23:24,11:38:32,NA,incomplete,false,NA,true,1,3,NA,NA,NA,left,present,NA,NA,m_l_090.jpg,orange,m_s_070.jpg,orange,within,NA,NaN,NA,left,4615.5999999940395,1,0,1508.5
uAIREnOt,3odop6t3bvxisk3y617o3pei3yp24c,31ibvunm9wc3abwj5uskli4cr41fvo,uAIREnOt,2020-0188,2021-10-14,10:23:24,11:38:32,NA,incomplete,false,NA,true,1,4,NA,NA,NA,right,present,NA,NA,n_s_079.jpg,green,m_s_053.jpg,green,within,NA,NaN,NA,right,4554.29999999702,1,1,2450.0999999940395
uAIREnOt,3odop6t3bvxisk3y617o3pei3yp24c,31ibvunm9wc3abwj5uskli4cr41fvo,uAIREnOt,2020-0188,2021-10-14,10:23:24,11:38:32,NA,incomplete,false,NA,true,1,5,NA,NA,NA,left,present,NA,NA,m_l_094.jpg,black,n_s_041.jpg,green,between,NA,NaN,NA,left,5595.70000000298,1,2,1326.2000000029802
uAIREnOt,3odop6t3bvxisk3y617o3pei3yp24c,31ibvunm9wc3abwj5uskli4cr41fvo,uAIREnOt,2020-0188,2021-10-14,10:23:24,11:38:32,NA,incomplete,false,NA,true,1,6,NA,NA,NA,left,present,NA,NA,n_s_078.jpg,green,n_s_007.jpg,brown,between,NA,NaN,NA,right,11030.39999999106,0,2,1480
uAIREnOt,3odop6t3bvxisk3y617o3pei3yp24c,31ibvunm9wc3abwj5uskli4cr41fvo,uAIREnOt,2020-0188,2021-10-14,10:23:24,11:38:32,NA,incomplete,false,NA,true,1,7,NA,NA,NA,right,present,NA,NA,m_s_054.jpg,gray,n_l_022.jpg,orange,between,NA,NaN,NA,right,5956.300000011921,1,2,1608.4000000059605
uAIREnOt,3odop6t3bvxisk3y617o3pei3yp24c,31ibvunm9wc3abwj5uskli4cr41fvo,uAIREnOt,2020-0188,2021-10-14,10:23:24,11:38:32,NA,incomplete,false,NA,true,1,8,NA,NA,NA,right,present,NA,NA,n_s_051.jpg,black,n_s_094.jpg,black,within,NA,NaN,NA,right,3907.3999999910593,1,1,2236.9000000059605
uAIREnOt,3odop6t3bvxisk3y617o3pei3yp24c,31ibvunm9wc3abwj5uskli4cr41fvo,uAIREnOt,2020-0188,2021-10-14,10:23:24,11:38:32,NA,incomplete,false,NA,true,1,9,NA,NA,NA,left,present,NA,NA,m_l_010.jpg,gray,m_s_064.jpg,gray,within,NA,NaN,NA,left,3354.5,1,0,1359.6000000089407
uAIREnOt,3odop6t3bvxisk3y617o3pei3yp24c,31ibvunm9wc3abwj5uskli4cr41fvo,uAIREnOt,2020-0188,2021-10-14,10:23:24,11:38:32,NA,incomplete,false,NA,true,1,10,NA,NA,NA,left,present,NA,NA,n_l_016.jpg,red,n_l_079.jpg,red,within,NA,NaN,NA,left,9433.59999999404,1,1,1492.9000000059605
uAIREnOt,3odop6t3bvxisk3y617o3pei3yp24c,31ibvunm9wc3abwj5uskli4cr41fvo,uAIREnOt,2020-0188,2021-10-14,10:23:24,11:38:32,NA,incomplete,false,true,NA,2,0,NA,gray,m_l_106.jpg,NA,NA,unpleasant,pleasant,NA,NA,NA,NA,NA,left,2148.60000000894,true,NA,NA,NA,NA,NA
uAIREnOt,3odop6t3bvxisk3y617o3pei3yp24c,31ibvunm9wc3abwj5uskli4cr41fvo,uAIREnOt,2020-0188,2021-10-14,10:23:24,11:38:32,NA,incomplete,false,true,NA,2,1,NA,gray,m_s_020.jpg,NA,NA,pleasant,unpleasant,NA,NA,NA,NA,NA,left,1709.29999999702,true,NA,NA,NA,NA,NA
uAIREnOt,3odop6t3bvxisk3y617o3pei3yp24c,31ibvunm9wc3abwj5uskli4cr41fvo,uAIREnOt,2020-0188,2021-10-14,10:23:24,11:38:32,NA,incomplete,false,true,NA,2,2,NA,gray,n_l_005.jpg,NA,NA,pleasant,unpleasant,NA,NA,NA,NA,NA,right,1080.19999998808,true,NA,NA,NA,NA,NA
uAIREnOt,3odop6t3bvxisk3y617o3pei3yp24c,31ibvunm9wc3abwj5uskli4cr41fvo,uAIREnOt,2020-0188,2021-10-14,10:23:24,11:38:32,NA,incomplete,false,true,NA,2,3,NA,gray,m_s_089.jpg,NA,NA,unpleasant,pleasant,NA,NA,NA,NA,NA,right,1532.69999998808,true,NA,NA,NA,NA,NA
uAIREnOt,3odop6t3bvxisk3y617o3pei3yp24c,31ibvunm9wc3abwj5uskli4cr41fvo,uAIREnOt,2020-0188,2021-10-14,10:23:24,11:38:32,NA,incomplete,false,true,NA,2,4,NA,gray,m_s_088.jpg,NA,NA,unpleasant,pleasant,NA,NA,NA,NA,NA,right,1455.39999999106,true,NA,NA,NA,NA,NA
uAIREnOt,3odop6t3bvxisk3y617o3pei3yp24c,31ibvunm9wc3abwj5uskli4cr41fvo,uAIREnOt,2020-0188,2021-10-14,10:23:24,11:38:32,NA,incomplete,false,true,NA,2,5,NA,gray,n_s_093.jpg,NA,NA,pleasant,unpleasant,NA,NA,NA,NA,NA,right,1449.20000000298,true,NA,NA,NA,NA,NA
uAIREnOt,3odop6t3bvxisk3y617o3pei3yp24c,31ibvunm9wc3abwj5uskli4cr41fvo,uAIREnOt,2020-0188,2021-10-14,10:23:24,11:38:32,NA,incomplete,false,true,NA,2,6,NA,orange,n_l_047.jpg,NA,NA,unpleasant,pleasant,NA,NA,NA,NA,NA,left,1357,true,NA,NA,NA,NA,NA
uAIREnOt,3odop6t3bvxisk3y617o3pei3yp24c,31ibvunm9wc3abwj5uskli4cr41fvo,uAIREnOt,2020-0188,2021-10-14,10:23:24,11:38:32,NA,incomplete,false,true,NA,2,7,NA,orange,m_l_038.jpg,NA,NA,unpleasant,pleasant,NA,NA,NA,NA,NA,left,1551.5,true,NA,NA,NA,NA,NA
uAIREnOt,3odop6t3bvxisk3y617o3pei3yp24c,31ibvunm9wc3abwj5uskli4cr41fvo,uAIREnOt,2020-0188,2021-10-14,10:23:24,11:38:32,NA,incomplete,false,true,NA,2,8,NA,orange,m_s_041.jpg,NA,NA,pleasant,unpleasant,NA,NA,NA,NA,NA,left,1603,true,NA,NA,NA,NA,NA
uAIREnOt,3odop6t3bvxisk3y617o3pei3yp24c,31ibvunm9wc3abwj5uskli4cr41fvo,uAIREnOt,2020-0188,2021-10-14,10:23:24,11:38:32,NA,incomplete,false,true,NA,2,9,NA,orange,n_s_036.jpg,NA,NA,unpleasant,pleasant,NA,NA,NA,NA,NA,left,1263.10000000894,true,NA,NA,NA,NA,NA
uAIREnOt,3odop6t3bvxisk3y617o3pei3yp24c,31ibvunm9wc3abwj5uskli4cr41fvo,uAIREnOt,2020-0188,2021-10-14,10:23:24,11:38:32,NA,incomplete,false,true,NA,2,10,NA,orange,m_s_094.jpg,NA,NA,unpleasant,pleasant,NA,NA,NA,NA,NA,right,1632.29999999702,true,NA,NA,NA,NA,NA
uAIREnOt,3odop6t3bvxisk3y617o3pei3yp24c,31ibvunm9wc3abwj5uskli4cr41fvo,uAIREnOt,2020-0188,2021-10-14,10:23:24,11:38:32,NA,incomplete,false,true,NA,2,11,NA,orange,m_s_092.jpg,NA,NA,unpleasant,pleasant,NA,NA,NA,NA,NA,right,1462.40000000596,true,NA,NA,NA,NA,NA
uAIREnOt,3odop6t3bvxisk3y617o3pei3yp24c,31ibvunm9wc3abwj5uskli4cr41fvo,uAIREnOt,2020-0188,2021-10-14,10:23:24,11:38:32,NA,incomplete,false,true,NA,2,12,NA,brown,m_l_031.jpg,NA,NA,pleasant,unpleasant,NA,NA,NA,NA,NA,left,1328.40000000596,true,NA,NA,NA,NA,NA
uAIREnOt,3odop6t3bvxisk3y617o3pei3yp24c,31ibvunm9wc3abwj5uskli4cr41fvo,uAIREnOt,2020-0188,2021-10-14,10:23:24,11:38:32,NA,incomplete,false,true,NA,2,13,NA,brown,m_l_101.jpg,NA,NA,unpleasant,pleasant,NA,NA,NA,NA,NA,left,1663.90000000596,true,NA,NA,NA,NA,NA
uAIREnOt,3odop6t3bvxisk3y617o3pei3yp24c,31ibvunm9wc3abwj5uskli4cr41fvo,uAIREnOt,2020-0188,2021-10-14,10:23:24,11:38:32,NA,incomplete,false,true,NA,2,14,NA,brown,m_l_004.jpg,NA,NA,unpleasant,pleasant,NA,NA,NA,NA,NA,right,1175.29999999702,true,NA,NA,NA,NA,NA
uAIREnOt,3odop6t3bvxisk3y617o3pei3yp24c,31ibvunm9wc3abwj5uskli4cr41fvo,uAIREnOt,2020-0188,2021-10-14,10:23:24,11:38:32,NA,incomplete,false,true,NA,2,15,NA,brown,m_s_080.jpg,NA,NA,pleasant,unpleasant,NA,NA,NA,NA,NA,left,1756.40000000596,true,NA,NA,NA,NA,NA
uAIREnOt,3odop6t3bvxisk3y617o3pei3yp24c,31ibvunm9wc3abwj5uskli4cr41fvo,uAIREnOt,2020-0188,2021-10-14,10:23:24,11:38:32,NA,incomplete,false,true,NA,2,16,NA,brown,n_s_115.jpg,NA,NA,unpleasant,pleasant,NA,NA,NA,NA,NA,left,1279.59999999404,true,NA,NA,NA,NA,NA
uAIREnOt,3odop6t3bvxisk3y617o3pei3yp24c,31ibvunm9wc3abwj5uskli4cr41fvo,uAIREnOt,2020-0188,2021-10-14,10:23:24,11:38:32,NA,incomplete,false,true,NA,2,17,NA,brown,n_l_034.jpg,NA,NA,unpleasant,pleasant,NA,NA,NA,NA,NA,left,1655,true,NA,NA,NA,NA,NA
uAIREnOt,3odop6t3bvxisk3y617o3pei3yp24c,31ibvunm9wc3abwj5uskli4cr41fvo,uAIREnOt,2020-0188,2021-10-14,10:23:24,11:38:32,NA,incomplete,false,true,NA,2,18,NA,purple,n_s_011.jpg,NA,NA,pleasant,unpleasant,NA,NA,NA,NA,NA,left,2102.29999999702,true,NA,NA,NA,NA,NA
uAIREnOt,3odop6t3bvxisk3y617o3pei3yp24c,31ibvunm9wc3abwj5uskli4cr41fvo,uAIREnOt,2020-0188,2021-10-14,10:23:24,11:38:32,NA,incomplete,false,true,NA,2,19,NA,purple,m_l_021.jpg,NA,NA,unpleasant,pleasant,NA,NA,NA,NA,NA,right,1320.39999999106,true,NA,NA,NA,NA,NA
uAIREnOt,3odop6t3bvxisk3y617o3pei3yp24c,31ibvunm9wc3abwj5uskli4cr41fvo,uAIREnOt,2020-0188,2021-10-14,10:23:24,11:38:32,NA,incomplete,false,true,NA,2,20,NA,purple,m_s_024.jpg,NA,NA,unpleasant,pleasant,NA,NA,NA,NA,NA,right,1249.89999999106,true,NA,NA,NA,NA,NA
uAIREnOt,3odop6t3bvxisk3y617o3pei3yp24c,31ibvunm9wc3abwj5uskli4cr41fvo,uAIREnOt,2020-0188,2021-10-14,10:23:24,11:38:32,NA,incomplete,false,true,NA,2,21,NA,purple,n_l_065.jpg,NA,NA,pleasant,unpleasant,NA,NA,NA,NA,NA,right,1330.59999999404,true,NA,NA,NA,NA,NA
uAIREnOt,3odop6t3bvxisk3y617o3pei3yp24c,31ibvunm9wc3abwj5uskli4cr41fvo,uAIREnOt,2020-0188,2021-10-14,10:23:24,11:38:32,NA,incomplete,false,true,NA,2,22,NA,purple,m_l_083.jpg,NA,NA,pleasant,unpleasant,NA,NA,NA,NA,NA,left,1349.5,true,NA,NA,NA,NA,NA
uAIREnOt,3odop6t3bvxisk3y617o3pei3yp24c,31ibvunm9wc3abwj5uskli4cr41fvo,uAIREnOt,2020-0188,2021-10-14,10:23:24,11:38:32,NA,incomplete,false,true,NA,2,23,NA,purple,n_s_088.jpg,NA,NA,pleasant,unpleasant,NA,NA,NA,NA,NA,right,2137.60000000894,true,NA,NA,NA,NA,NA
uAIREnOt,3odop6t3bvxisk3y617o3pei3yp24c,31ibvunm9wc3abwj5uskli4cr41fvo,uAIREnOt,2020-0188,2021-10-14,10:23:24,11:38:32,NA,incomplete,false,true,NA,2,24,NA,white,m_l_028.jpg,NA,NA,unpleasant,pleasant,NA,NA,NA,NA,NA,right,1219.19999998808,true,NA,NA,NA,NA,NA
uAIREnOt,3odop6t3bvxisk3y617o3pei3yp24c,31ibvunm9wc3abwj5uskli4cr41fvo,uAIREnOt,2020-0188,2021-10-14,10:23:24,11:38:32,NA,incomplete,false,true,NA,2,25,NA,white,m_s_035.jpg,NA,NA,pleasant,unpleasant,NA,NA,NA,NA,NA,left,2672.40000000596,true,NA,NA,NA,NA,NA
uAIREnOt,3odop6t3bvxisk3y617o3pei3yp24c,31ibvunm9wc3abwj5uskli4cr41fvo,uAIREnOt,2020-0188,2021-10-14,10:23:24,11:38:32,NA,incomplete,false,true,NA,2,26,NA,white,n_l_017.jpg,NA,NA,unpleasant,pleasant,NA,NA,NA,NA,NA,left,1610.40000000596,true,NA,NA,NA,NA,NA
uAIREnOt,3odop6t3bvxisk3y617o3pei3yp24c,31ibvunm9wc3abwj5uskli4cr41fvo,uAIREnOt,2020-0188,2021-10-14,10:23:24,11:38:32,NA,incomplete,false,true,NA,2,27,NA,white,n_l_054.jpg,NA,NA,pleasant,unpleasant,NA,NA,NA,NA,NA,right,1577.10000000894,true,NA,NA,NA,NA,NA
uAIREnOt,3odop6t3bvxisk3y617o3pei3yp24c,31ibvunm9wc3abwj5uskli4cr41fvo,uAIREnOt,2020-0188,2021-10-14,10:23:24,11:38:32,NA,incomplete,false,true,NA,2,28,NA,white,m_l_098.jpg,NA,NA,unpleasant,pleasant,NA,NA,NA,NA,NA,left,1842.59999999404,true,NA,NA,NA,NA,NA
uAIREnOt,3odop6t3bvxisk3y617o3pei3yp24c,31ibvunm9wc3abwj5uskli4cr41fvo,uAIREnOt,2020-0188,2021-10-14,10:23:24,11:38:32,NA,incomplete,false,true,NA,2,29,NA,white,n_s_082.jpg,NA,NA,pleasant,unpleasant,NA,NA,NA,NA,NA,right,1502,true,NA,NA,NA,NA,NA
uAIREnOt,3odop6t3bvxisk3y617o3pei3yp24c,31ibvunm9wc3abwj5uskli4cr41fvo,uAIREnOt,2020-0188,2021-10-14,10:23:24,11:38:32,NA,incomplete,false,true,NA,2,30,NA,green,m_s_006.jpg,NA,NA,unpleasant,pleasant,NA,NA,NA,NA,NA,right,1546.59999999404,true,NA,NA,NA,NA,NA
uAIREnOt,3odop6t3bvxisk3y617o3pei3yp24c,31ibvunm9wc3abwj5uskli4cr41fvo,uAIREnOt,2020-0188,2021-10-14,10:23:24,11:38:32,NA,incomplete,false,true,NA,2,31,NA,green,m_l_058.jpg,NA,NA,pleasant,unpleasant,NA,NA,NA,NA,NA,left,1596.69999998808,true,NA,NA,NA,NA,NA
uAIREnOt,3odop6t3bvxisk3y617o3pei3yp24c,31ibvunm9wc3abwj5uskli4cr41fvo,uAIREnOt,2020-0188,2021-10-14,10:23:24,11:38:32,NA,incomplete,false,true,NA,2,32,NA,green,m_s_007.jpg,NA,NA,pleasant,unpleasant,NA,NA,NA,NA,NA,left,1514.60000000894,true,NA,NA,NA,NA,NA
uAIREnOt,3odop6t3bvxisk3y617o3pei3yp24c,31ibvunm9wc3abwj5uskli4cr41fvo,uAIREnOt,2020-0188,2021-10-14,10:23:24,11:38:32,NA,incomplete,false,true,NA,2,33,NA,green,n_s_023.jpg,NA,NA,unpleasant,pleasant,NA,NA,NA,NA,NA,left,1335.39999999106,true,NA,NA,NA,NA,NA
uAIREnOt,3odop6t3bvxisk3y617o3pei3yp24c,31ibvunm9wc3abwj5uskli4cr41fvo,uAIREnOt,2020-0188,2021-10-14,10:23:24,11:38:32,NA,incomplete,false,true,NA,2,34,NA,green,m_s_067.jpg,NA,NA,pleasant,unpleasant,NA,NA,NA,NA,NA,right,1076.79999999702,true,NA,NA,NA,NA,NA
uAIREnOt,3odop6t3bvxisk3y617o3pei3yp24c,31ibvunm9wc3abwj5uskli4cr41fvo,uAIREnOt,2020-0188,2021-10-14,10:23:24,11:38:32,NA,incomplete,false,true,NA,2,35,NA,green,m_s_060.jpg,NA,NA,unpleasant,pleasant,NA,NA,NA,NA,NA,right,1528.59999999404,true,NA,NA,NA,NA,NA
uAIREnOt,3odop6t3bvxisk3y617o3pei3yp24c,31ibvunm9wc3abwj5uskli4cr41fvo,uAIREnOt,2020-0188,2021-10-14,10:23:24,11:38:32,NA,incomplete,false,NA,true,2,0,NA,NA,NA,right,present,NA,NA,n_s_088.jpg,purple,m_l_021.jpg,purple,within,NA,NaN,NA,right,5391.899999991059,1,0,1415.800000011921
uAIREnOt,3odop6t3bvxisk3y617o3pei3yp24c,31ibvunm9wc3abwj5uskli4cr41fvo,uAIREnOt,2020-0188,2021-10-14,10:23:24,11:38:32,NA,incomplete,false,NA,true,2,1,NA,NA,NA,right,present,NA,NA,m_s_041.jpg,orange,m_s_088.jpg,gray,between,NA,NaN,NA,right,3957,1,2,2523.5999999940395
uAIREnOt,3odop6t3bvxisk3y617o3pei3yp24c,31ibvunm9wc3abwj5uskli4cr41fvo,uAIREnOt,2020-0188,2021-10-14,10:23:24,11:38:32,NA,incomplete,false,NA,true,2,2,NA,NA,NA,left,present,NA,NA,m_l_098.jpg,white,m_s_007.jpg,green,between,NA,NaN,NA,left,2692.9000000059605,1,2,1633.2999999970198
uAIREnOt,3odop6t3bvxisk3y617o3pei3yp24c,31ibvunm9wc3abwj5uskli4cr41fvo,uAIREnOt,2020-0188,2021-10-14,10:23:24,11:38:32,NA,incomplete,false,NA,true,2,3,NA,NA,NA,right,present,NA,NA,m_s_092.jpg,orange,m_l_038.jpg,orange,within,NA,NaN,NA,right,2560.3999999910593,1,1,1249.4000000059605
uAIREnOt,3odop6t3bvxisk3y617o3pei3yp24c,31ibvunm9wc3abwj5uskli4cr41fvo,uAIREnOt,2020-0188,2021-10-14,10:23:24,11:38:32,NA,incomplete,false,NA,true,2,4,NA,NA,NA,left,present,NA,NA,m_l_083.jpg,purple,n_l_017.jpg,white,between,NA,NaN,NA,right,3056.2999999970198,0,2,1268.800000011921
uAIREnOt,3odop6t3bvxisk3y617o3pei3yp24c,31ibvunm9wc3abwj5uskli4cr41fvo,uAIREnOt,2020-0188,2021-10-14,10:23:24,11:38:32,NA,incomplete,false,NA,true,2,5,NA,NA,NA,left,present,NA,NA,m_l_101.jpg,brown,n_l_034.jpg,brown,within,NA,NaN,NA,left,3179.300000011921,1,1,1147.7999999970198
uAIREnOt,3odop6t3bvxisk3y617o3pei3yp24c,31ibvunm9wc3abwj5uskli4cr41fvo,uAIREnOt,2020-0188,2021-10-14,10:23:24,11:38:32,NA,incomplete,false,NA,true,2,6,NA,NA,NA,right,present,NA,NA,m_l_004.jpg,brown,m_s_094.jpg,orange,between,NA,NaN,NA,left,3304.4000000059605,0,2,1667.5999999940395
uAIREnOt,3odop6t3bvxisk3y617o3pei3yp24c,31ibvunm9wc3abwj5uskli4cr41fvo,uAIREnOt,2020-0188,2021-10-14,10:23:24,11:38:32,NA,incomplete,false,NA,true,2,7,NA,NA,NA,left,present,NA,NA,n_s_115.jpg,brown,m_s_024.jpg,purple,between,NA,NaN,NA,left,3477.8999999910593,1,3,1954.2999999970198
uAIREnOt,3odop6t3bvxisk3y617o3pei3yp24c,31ibvunm9wc3abwj5uskli4cr41fvo,uAIREnOt,2020-0188,2021-10-14,10:23:24,11:38:32,NA,incomplete,false,NA,true,2,8,NA,NA,NA,left,present,NA,NA,m_s_035.jpg,white,n_s_082.jpg,white,within,NA,NaN,NA,left,3454.2999999970198,1,1,1752.5
uAIREnOt,3odop6t3bvxisk3y617o3pei3yp24c,31ibvunm9wc3abwj5uskli4cr41fvo,uAIREnOt,2020-0188,2021-10-14,10:23:24,11:38:32,NA,incomplete,false,NA,true,2,9,NA,NA,NA,right,present,NA,NA,m_s_060.jpg,green,m_l_058.jpg,green,within,NA,NaN,NA,right,2981.0999999940395,1,1,1484.5
uAIREnOt,3odop6t3bvxisk3y617o3pei3yp24c,31ibvunm9wc3abwj5uskli4cr41fvo,uAIREnOt,2020-0188,2021-10-14,10:23:24,11:38:32,NA,incomplete,false,NA,true,2,10,NA,NA,NA,left,present,NA,NA,m_s_020.jpg,gray,n_s_093.jpg,gray,within,NA,NaN,NA,left,2981.7999999970198,1,1,1540.6000000089407
uAIREnOt,3odop6t3bvxisk3y617o3pei3yp24c,31ibvunm9wc3abwj5uskli4cr41fvo,uAIREnOt,2020-0188,2021-10-14,10:23:24,11:38:32,NA,incomplete,false,true,NA,3,0,NA,black,n_l_075.jpg,NA,NA,pleasant,unpleasant,NA,NA,NA,NA,NA,right,2497.89999999106,true,NA,NA,NA,NA,NA
uAIREnOt,3odop6t3bvxisk3y617o3pei3yp24c,31ibvunm9wc3abwj5uskli4cr41fvo,uAIREnOt,2020-0188,2021-10-14,10:23:24,11:38:32,NA,incomplete,false,true,NA,3,1,NA,black,n_l_029.jpg,NA,NA,unpleasant,pleasant,NA,NA,NA,NA,NA,left,1903.09999999404,true,NA,NA,NA,NA,NA
uAIREnOt,3odop6t3bvxisk3y617o3pei3yp24c,31ibvunm9wc3abwj5uskli4cr41fvo,uAIREnOt,2020-0188,2021-10-14,10:23:24,11:38:32,NA,incomplete,false,true,NA,3,2,NA,black,m_l_063.jpg,NA,NA,pleasant,unpleasant,NA,NA,NA,NA,NA,left,1480.29999999702,true,NA,NA,NA,NA,NA
uAIREnOt,3odop6t3bvxisk3y617o3pei3yp24c,31ibvunm9wc3abwj5uskli4cr41fvo,uAIREnOt,2020-0188,2021-10-14,10:23:24,11:38:32,NA,incomplete,false,true,NA,3,3,NA,black,m_l_048.jpg,NA,NA,unpleasant,pleasant,NA,NA,NA,NA,NA,right,1544.5,true,NA,NA,NA,NA,NA
uAIREnOt,3odop6t3bvxisk3y617o3pei3yp24c,31ibvunm9wc3abwj5uskli4cr41fvo,uAIREnOt,2020-0188,2021-10-14,10:23:24,11:38:32,NA,incomplete,false,true,NA,3,4,NA,black,n_l_037.jpg,NA,NA,unpleasant,pleasant,NA,NA,NA,NA,NA,left,1068.29999999702,true,NA,NA,NA,NA,NA
uAIREnOt,3odop6t3bvxisk3y617o3pei3yp24c,31ibvunm9wc3abwj5uskli4cr41fvo,uAIREnOt,2020-0188,2021-10-14,10:23:24,11:38:32,NA,incomplete,false,true,NA,3,5,NA,black,m_l_049.jpg,NA,NA,pleasant,unpleasant,NA,NA,NA,NA,NA,left,2269.5,true,NA,NA,NA,NA,NA
uAIREnOt,3odop6t3bvxisk3y617o3pei3yp24c,31ibvunm9wc3abwj5uskli4cr41fvo,uAIREnOt,2020-0188,2021-10-14,10:23:24,11:38:32,NA,incomplete,false,true,NA,3,6,NA,purple,m_s_010.jpg,NA,NA,unpleasant,pleasant,NA,NA,NA,NA,NA,right,1702.90000000596,true,NA,NA,NA,NA,NA
uAIREnOt,3odop6t3bvxisk3y617o3pei3yp24c,31ibvunm9wc3abwj5uskli4cr41fvo,uAIREnOt,2020-0188,2021-10-14,10:23:24,11:38:32,NA,incomplete,false,true,NA,3,7,NA,purple,n_s_003.jpg,NA,NA,unpleasant,pleasant,NA,NA,NA,NA,NA,left,1954.29999999702,true,NA,NA,NA,NA,NA
uAIREnOt,3odop6t3bvxisk3y617o3pei3yp24c,31ibvunm9wc3abwj5uskli4cr41fvo,uAIREnOt,2020-0188,2021-10-14,10:23:24,11:38:32,NA,incomplete,false,true,NA,3,8,NA,purple,n_l_059.jpg,NA,NA,unpleasant,pleasant,NA,NA,NA,NA,NA,left,1142.20000000298,true,NA,NA,NA,NA,NA
uAIREnOt,3odop6t3bvxisk3y617o3pei3yp24c,31ibvunm9wc3abwj5uskli4cr41fvo,uAIREnOt,2020-0188,2021-10-14,10:23:24,11:38:32,NA,incomplete,false,true,NA,3,9,NA,purple,m_s_055.jpg,NA,NA,pleasant,unpleasant,NA,NA,NA,NA,NA,left,1270.60000000894,true,NA,NA,NA,NA,NA
uAIREnOt,3odop6t3bvxisk3y617o3pei3yp24c,31ibvunm9wc3abwj5uskli4cr41fvo,uAIREnOt,2020-0188,2021-10-14,10:23:24,11:38:32,NA,incomplete,false,true,NA,3,10,NA,purple,m_s_071.jpg,NA,NA,pleasant,unpleasant,NA,NA,NA,NA,NA,left,1519,true,NA,NA,NA,NA,NA
uAIREnOt,3odop6t3bvxisk3y617o3pei3yp24c,31ibvunm9wc3abwj5uskli4cr41fvo,uAIREnOt,2020-0188,2021-10-14,10:23:24,11:38:32,NA,incomplete,false,true,NA,3,11,NA,purple,m_s_050.jpg,NA,NA,unpleasant,pleasant,NA,NA,NA,NA,NA,right,1516.40000000596,true,NA,NA,NA,NA,NA
uAIREnOt,3odop6t3bvxisk3y617o3pei3yp24c,31ibvunm9wc3abwj5uskli4cr41fvo,uAIREnOt,2020-0188,2021-10-14,10:23:24,11:38:32,NA,incomplete,false,true,NA,3,12,NA,orange,m_l_100.jpg,NA,NA,unpleasant,pleasant,NA,NA,NA,NA,NA,left,2217.69999998808,true,NA,NA,NA,NA,NA
uAIREnOt,3odop6t3bvxisk3y617o3pei3yp24c,31ibvunm9wc3abwj5uskli4cr41fvo,uAIREnOt,2020-0188,2021-10-14,10:23:24,11:38:32,NA,incomplete,false,true,NA,3,13,NA,orange,n_s_076.jpg,NA,NA,pleasant,unpleasant,NA,NA,NA,NA,NA,right,1678,true,NA,NA,NA,NA,NA
uAIREnOt,3odop6t3bvxisk3y617o3pei3yp24c,31ibvunm9wc3abwj5uskli4cr41fvo,uAIREnOt,2020-0188,2021-10-14,10:23:24,11:38:32,NA,incomplete,false,true,NA,3,14,NA,orange,n_s_047.jpg,NA,NA,unpleasant,pleasant,NA,NA,NA,NA,NA,right,1234.70000000298,true,NA,NA,NA,NA,NA
uAIREnOt,3odop6t3bvxisk3y617o3pei3yp24c,31ibvunm9wc3abwj5uskli4cr41fvo,uAIREnOt,2020-0188,2021-10-14,10:23:24,11:38:32,NA,incomplete,false,true,NA,3,15,NA,orange,m_s_066.jpg,NA,NA,unpleasant,pleasant,NA,NA,NA,NA,NA,left,1591.20000000298,true,NA,NA,NA,NA,NA
uAIREnOt,3odop6t3bvxisk3y617o3pei3yp24c,31ibvunm9wc3abwj5uskli4cr41fvo,uAIREnOt,2020-0188,2021-10-14,10:23:24,11:38:32,NA,incomplete,false,true,NA,3,16,NA,orange,n_l_026.jpg,NA,NA,unpleasant,pleasant,NA,NA,NA,NA,NA,right,1622.89999999106,true,NA,NA,NA,NA,NA
uAIREnOt,3odop6t3bvxisk3y617o3pei3yp24c,31ibvunm9wc3abwj5uskli4cr41fvo,uAIREnOt,2020-0188,2021-10-14,10:23:24,11:38:32,NA,incomplete,false,true,NA,3,17,NA,orange,n_l_038.jpg,NA,NA,unpleasant,pleasant,NA,NA,NA,NA,NA,left,961.70000000298,true,NA,NA,NA,NA,NA
uAIREnOt,3odop6t3bvxisk3y617o3pei3yp24c,31ibvunm9wc3abwj5uskli4cr41fvo,uAIREnOt,2020-0188,2021-10-14,10:23:24,11:38:32,NA,incomplete,false,true,NA,3,18,NA,gray,n_l_062.jpg,NA,NA,unpleasant,pleasant,NA,NA,NA,NA,NA,left,1750.70000000298,true,NA,NA,NA,NA,NA
uAIREnOt,3odop6t3bvxisk3y617o3pei3yp24c,31ibvunm9wc3abwj5uskli4cr41fvo,uAIREnOt,2020-0188,2021-10-14,10:23:24,11:38:32,NA,incomplete,false,true,NA,3,19,NA,gray,m_s_034.jpg,NA,NA,unpleasant,pleasant,NA,NA,NA,NA,NA,right,1160.20000000298,true,NA,NA,NA,NA,NA
uAIREnOt,3odop6t3bvxisk3y617o3pei3yp24c,31ibvunm9wc3abwj5uskli4cr41fvo,uAIREnOt,2020-0188,2021-10-14,10:23:24,11:38:32,NA,incomplete,false,true,NA,3,20,NA,gray,m_l_103.jpg,NA,NA,unpleasant,pleasant,NA,NA,NA,NA,NA,left,1147.90000000596,true,NA,NA,NA,NA,NA
uAIREnOt,3odop6t3bvxisk3y617o3pei3yp24c,31ibvunm9wc3abwj5uskli4cr41fvo,uAIREnOt,2020-0188,2021-10-14,10:23:24,11:38:32,NA,incomplete,false,true,NA,3,21,NA,gray,m_l_104.jpg,NA,NA,unpleasant,pleasant,NA,NA,NA,NA,NA,right,1306.10000000894,true,NA,NA,NA,NA,NA
uAIREnOt,3odop6t3bvxisk3y617o3pei3yp24c,31ibvunm9wc3abwj5uskli4cr41fvo,uAIREnOt,2020-0188,2021-10-14,10:23:24,11:38:32,NA,incomplete,false,true,NA,3,22,NA,gray,n_l_109.jpg,NA,NA,pleasant,unpleasant,NA,NA,NA,NA,NA,left,1942.20000000298,true,NA,NA,NA,NA,NA
uAIREnOt,3odop6t3bvxisk3y617o3pei3yp24c,31ibvunm9wc3abwj5uskli4cr41fvo,uAIREnOt,2020-0188,2021-10-14,10:23:24,11:38:32,NA,incomplete,false,true,NA,3,23,NA,gray,m_l_037.jpg,NA,NA,pleasant,unpleasant,NA,NA,NA,NA,NA,right,1542.5,true,NA,NA,NA,NA,NA
uAIREnOt,3odop6t3bvxisk3y617o3pei3yp24c,31ibvunm9wc3abwj5uskli4cr41fvo,uAIREnOt,2020-0188,2021-10-14,10:23:24,11:38:32,NA,incomplete,false,true,NA,3,24,NA,blue,n_s_046.jpg,NA,NA,unpleasant,pleasant,NA,NA,NA,NA,NA,left,1772.20000000298,true,NA,NA,NA,NA,NA
uAIREnOt,3odop6t3bvxisk3y617o3pei3yp24c,31ibvunm9wc3abwj5uskli4cr41fvo,uAIREnOt,2020-0188,2021-10-14,10:23:24,11:38:32,NA,incomplete,false,true,NA,3,25,NA,blue,m_s_075.jpg,NA,NA,unpleasant,pleasant,NA,NA,NA,NA,NA,right,1136.70000000298,true,NA,NA,NA,NA,NA
uAIREnOt,3odop6t3bvxisk3y617o3pei3yp24c,31ibvunm9wc3abwj5uskli4cr41fvo,uAIREnOt,2020-0188,2021-10-14,10:23:24,11:38:32,NA,incomplete,false,true,NA,3,26,NA,blue,n_l_097.jpg,NA,NA,unpleasant,pleasant,NA,NA,NA,NA,NA,left,1128.30000001192,true,NA,NA,NA,NA,NA
uAIREnOt,3odop6t3bvxisk3y617o3pei3yp24c,31ibvunm9wc3abwj5uskli4cr41fvo,uAIREnOt,2020-0188,2021-10-14,10:23:24,11:38:32,NA,incomplete,false,true,NA,3,27,NA,blue,m_l_011.jpg,NA,NA,unpleasant,pleasant,NA,NA,NA,NA,NA,right,1658.39999999106,true,NA,NA,NA,NA,NA
uAIREnOt,3odop6t3bvxisk3y617o3pei3yp24c,31ibvunm9wc3abwj5uskli4cr41fvo,uAIREnOt,2020-0188,2021-10-14,10:23:24,11:38:32,NA,incomplete,false,true,NA,3,28,NA,blue,m_s_084.jpg,NA,NA,pleasant,unpleasant,NA,NA,NA,NA,NA,left,1169.20000000298,true,NA,NA,NA,NA,NA
uAIREnOt,3odop6t3bvxisk3y617o3pei3yp24c,31ibvunm9wc3abwj5uskli4cr41fvo,uAIREnOt,2020-0188,2021-10-14,10:23:24,11:38:32,NA,incomplete,false,true,NA,3,29,NA,blue,m_l_069.jpg,NA,NA,pleasant,unpleasant,NA,NA,NA,NA,NA,right,2017.70000000298,true,NA,NA,NA,NA,NA
uAIREnOt,3odop6t3bvxisk3y617o3pei3yp24c,31ibvunm9wc3abwj5uskli4cr41fvo,uAIREnOt,2020-0188,2021-10-14,10:23:24,11:38:32,NA,incomplete,false,true,NA,3,30,NA,yellow,n_l_090.jpg,NA,NA,unpleasant,pleasant,NA,NA,NA,NA,NA,left,1518.20000000298,true,NA,NA,NA,NA,NA
uAIREnOt,3odop6t3bvxisk3y617o3pei3yp24c,31ibvunm9wc3abwj5uskli4cr41fvo,uAIREnOt,2020-0188,2021-10-14,10:23:24,11:38:32,NA,incomplete,false,true,NA,3,31,NA,yellow,n_s_017.jpg,NA,NA,pleasant,unpleasant,NA,NA,NA,NA,NA,left,1705.79999999702,true,NA,NA,NA,NA,NA
uAIREnOt,3odop6t3bvxisk3y617o3pei3yp24c,31ibvunm9wc3abwj5uskli4cr41fvo,uAIREnOt,2020-0188,2021-10-14,10:23:24,11:38:32,NA,incomplete,false,true,NA,3,32,NA,yellow,m_l_066.jpg,NA,NA,pleasant,unpleasant,NA,NA,NA,NA,NA,right,1416.20000000298,true,NA,NA,NA,NA,NA
uAIREnOt,3odop6t3bvxisk3y617o3pei3yp24c,31ibvunm9wc3abwj5uskli4cr41fvo,uAIREnOt,2020-0188,2021-10-14,10:23:24,11:38:32,NA,incomplete,false,true,NA,3,33,NA,yellow,n_l_082.jpg,NA,NA,pleasant,unpleasant,NA,NA,NA,NA,NA,right,1159.29999999702,true,NA,NA,NA,NA,NA
uAIREnOt,3odop6t3bvxisk3y617o3pei3yp24c,31ibvunm9wc3abwj5uskli4cr41fvo,uAIREnOt,2020-0188,2021-10-14,10:23:24,11:38:32,NA,incomplete,false,true,NA,3,34,NA,yellow,m_l_043.jpg,NA,NA,pleasant,unpleasant,NA,NA,NA,NA,NA,left,1313.40000000596,true,NA,NA,NA,NA,NA
uAIREnOt,3odop6t3bvxisk3y617o3pei3yp24c,31ibvunm9wc3abwj5uskli4cr41fvo,uAIREnOt,2020-0188,2021-10-14,10:23:24,11:38:32,NA,incomplete,false,true,NA,3,35,NA,yellow,m_l_071.jpg,NA,NA,unpleasant,pleasant,NA,NA,NA,NA,NA,right,1344.5,true,NA,NA,NA,NA,NA
uAIREnOt,3odop6t3bvxisk3y617o3pei3yp24c,31ibvunm9wc3abwj5uskli4cr41fvo,uAIREnOt,2020-0188,2021-10-14,10:23:24,11:38:32,NA,incomplete,false,NA,true,3,0,NA,NA,NA,right,present,NA,NA,m_l_049.jpg,black,n_l_029.jpg,black,within,NA,NaN,NA,right,3644.2999999970198,1,0,1283.7999999970198
uAIREnOt,3odop6t3bvxisk3y617o3pei3yp24c,31ibvunm9wc3abwj5uskli4cr41fvo,uAIREnOt,2020-0188,2021-10-14,10:23:24,11:38:32,NA,incomplete,false,NA,true,3,1,NA,NA,NA,left,present,NA,NA,n_l_026.jpg,orange,m_l_103.jpg,gray,between,NA,NaN,NA,left,4412.4000000059605,1,2,1244.2999999970198
uAIREnOt,3odop6t3bvxisk3y617o3pei3yp24c,31ibvunm9wc3abwj5uskli4cr41fvo,uAIREnOt,2020-0188,2021-10-14,10:23:24,11:38:32,NA,incomplete,false,NA,true,3,2,NA,NA,NA,right,present,NA,NA,n_s_047.jpg,orange,m_s_071.jpg,purple,between,NA,NaN,NA,right,5180.20000000298,1,2,1810.1000000089407
uAIREnOt,3odop6t3bvxisk3y617o3pei3yp24c,31ibvunm9wc3abwj5uskli4cr41fvo,uAIREnOt,2020-0188,2021-10-14,10:23:24,11:38:32,NA,incomplete,false,NA,true,3,3,NA,NA,NA,right,present,NA,NA,n_l_097.jpg,blue,n_l_109.jpg,gray,between,NA,NaN,NA,right,3894.4000000059605,1,2,1474
uAIREnOt,3odop6t3bvxisk3y617o3pei3yp24c,31ibvunm9wc3abwj5uskli4cr41fvo,uAIREnOt,2020-0188,2021-10-14,10:23:24,11:38:32,NA,incomplete,false,NA,true,3,4,NA,NA,NA,right,present,NA,NA,m_l_069.jpg,blue,m_s_075.jpg,blue,within,NA,NaN,NA,right,4394.29999999702,1,0,1934.199999988079
uAIREnOt,3odop6t3bvxisk3y617o3pei3yp24c,31ibvunm9wc3abwj5uskli4cr41fvo,uAIREnOt,2020-0188,2021-10-14,10:23:24,11:38:32,NA,incomplete,false,NA,true,3,5,NA,NA,NA,left,present,NA,NA,m_s_034.jpg,gray,m_l_037.jpg,gray,within,NA,NaN,NA,right,6497.70000000298,0,1,2434.4000000059605
uAIREnOt,3odop6t3bvxisk3y617o3pei3yp24c,31ibvunm9wc3abwj5uskli4cr41fvo,uAIREnOt,2020-0188,2021-10-14,10:23:24,11:38:32,NA,incomplete,false,NA,true,3,6,NA,NA,NA,left,present,NA,NA,n_s_003.jpg,purple,m_s_050.jpg,purple,within,NA,NaN,NA,left,3562.0999999940395,1,0,1789.7999999970198
uAIREnOt,3odop6t3bvxisk3y617o3pei3yp24c,31ibvunm9wc3abwj5uskli4cr41fvo,uAIREnOt,2020-0188,2021-10-14,10:23:24,11:38:32,NA,incomplete,false,NA,true,3,7,NA,NA,NA,right,present,NA,NA,m_l_066.jpg,yellow,m_s_084.jpg,blue,between,NA,NaN,NA,left,10373.40000000596,0,2,1494.7999999970198
uAIREnOt,3odop6t3bvxisk3y617o3pei3yp24c,31ibvunm9wc3abwj5uskli4cr41fvo,uAIREnOt,2020-0188,2021-10-14,10:23:24,11:38:32,NA,incomplete,false,NA,true,3,8,NA,NA,NA,right,present,NA,NA,n_l_059.jpg,purple,n_l_037.jpg,black,between,NA,NaN,NA,right,3480.2000000029802,1,2,1459.7000000029802
uAIREnOt,3odop6t3bvxisk3y617o3pei3yp24c,31ibvunm9wc3abwj5uskli4cr41fvo,uAIREnOt,2020-0188,2021-10-14,10:23:24,11:38:32,NA,incomplete,false,NA,true,3,9,NA,NA,NA,left,present,NA,NA,n_s_076.jpg,orange,n_l_038.jpg,orange,within,NA,NaN,NA,left,10945.60000000894,1,0,1355.5
uAIREnOt,3odop6t3bvxisk3y617o3pei3yp24c,31ibvunm9wc3abwj5uskli4cr41fvo,uAIREnOt,2020-0188,2021-10-14,10:23:24,11:38:32,NA,incomplete,false,NA,true,3,10,NA,NA,NA,right,present,NA,NA,m_l_071.jpg,yellow,n_s_017.jpg,yellow,within,NA,NaN,NA,right,2643.2000000029802,1,1,2231.5999999940395
uAIREnOt,3odop6t3bvxisk3y617o3pei3yp24c,31ibvunm9wc3abwj5uskli4cr41fvo,uAIREnOt,2020-0188,2021-10-14,10:23:24,11:38:32,NA,incomplete,false,true,NA,4,0,NA,green,n_s_053.jpg,NA,NA,unpleasant,pleasant,NA,NA,NA,NA,NA,left,1671,true,NA,NA,NA,NA,NA
uAIREnOt,3odop6t3bvxisk3y617o3pei3yp24c,31ibvunm9wc3abwj5uskli4cr41fvo,uAIREnOt,2020-0188,2021-10-14,10:23:24,11:38:32,NA,incomplete,false,true,NA,4,1,NA,green,m_l_078.jpg,NA,NA,pleasant,unpleasant,NA,NA,NA,NA,NA,left,1475.39999999106,true,NA,NA,NA,NA,NA
uAIREnOt,3odop6t3bvxisk3y617o3pei3yp24c,31ibvunm9wc3abwj5uskli4cr41fvo,uAIREnOt,2020-0188,2021-10-14,10:23:24,11:38:32,NA,incomplete,false,true,NA,4,2,NA,green,n_s_050.jpg,NA,NA,pleasant,unpleasant,NA,NA,NA,NA,NA,right,1567.70000000298,true,NA,NA,NA,NA,NA
uAIREnOt,3odop6t3bvxisk3y617o3pei3yp24c,31ibvunm9wc3abwj5uskli4cr41fvo,uAIREnOt,2020-0188,2021-10-14,10:23:24,11:38:32,NA,incomplete,false,true,NA,4,3,NA,green,m_s_063.jpg,NA,NA,unpleasant,pleasant,NA,NA,NA,NA,NA,right,1143.40000000596,true,NA,NA,NA,NA,NA
uAIREnOt,3odop6t3bvxisk3y617o3pei3yp24c,31ibvunm9wc3abwj5uskli4cr41fvo,uAIREnOt,2020-0188,2021-10-14,10:23:24,11:38:32,NA,incomplete,false,true,NA,4,4,NA,green,n_s_014.jpg,NA,NA,pleasant,unpleasant,NA,NA,NA,NA,NA,left,1259.90000000596,true,NA,NA,NA,NA,NA
uAIREnOt,3odop6t3bvxisk3y617o3pei3yp24c,31ibvunm9wc3abwj5uskli4cr41fvo,uAIREnOt,2020-0188,2021-10-14,10:23:24,11:38:32,NA,incomplete,false,true,NA,4,5,NA,green,m_s_114.jpg,NA,NA,unpleasant,pleasant,NA,NA,NA,NA,NA,right,1214.10000000894,true,NA,NA,NA,NA,NA
uAIREnOt,3odop6t3bvxisk3y617o3pei3yp24c,31ibvunm9wc3abwj5uskli4cr41fvo,uAIREnOt,2020-0188,2021-10-14,10:23:24,11:38:32,NA,incomplete,false,true,NA,4,6,NA,purple,m_l_029.jpg,NA,NA,pleasant,unpleasant,NA,NA,NA,NA,NA,left,1497.10000000894,true,NA,NA,NA,NA,NA
uAIREnOt,3odop6t3bvxisk3y617o3pei3yp24c,31ibvunm9wc3abwj5uskli4cr41fvo,uAIREnOt,2020-0188,2021-10-14,10:23:24,11:38:32,NA,incomplete,false,true,NA,4,7,NA,purple,m_s_025.jpg,NA,NA,pleasant,unpleasant,NA,NA,NA,NA,NA,left,1709.5,true,NA,NA,NA,NA,NA
uAIREnOt,3odop6t3bvxisk3y617o3pei3yp24c,31ibvunm9wc3abwj5uskli4cr41fvo,uAIREnOt,2020-0188,2021-10-14,10:23:24,11:38:32,NA,incomplete,false,true,NA,4,8,NA,purple,n_s_013.jpg,NA,NA,unpleasant,pleasant,NA,NA,NA,NA,NA,left,1361.09999999404,true,NA,NA,NA,NA,NA
uAIREnOt,3odop6t3bvxisk3y617o3pei3yp24c,31ibvunm9wc3abwj5uskli4cr41fvo,uAIREnOt,2020-0188,2021-10-14,10:23:24,11:38:32,NA,incomplete,false,true,NA,4,9,NA,purple,m_s_069.jpg,NA,NA,pleasant,unpleasant,NA,NA,NA,NA,NA,left,1243.59999999404,true,NA,NA,NA,NA,NA
uAIREnOt,3odop6t3bvxisk3y617o3pei3yp24c,31ibvunm9wc3abwj5uskli4cr41fvo,uAIREnOt,2020-0188,2021-10-14,10:23:24,11:38:32,NA,incomplete,false,true,NA,4,10,NA,purple,m_l_005.jpg,NA,NA,pleasant,unpleasant,NA,NA,NA,NA,NA,right,1336.19999998808,true,NA,NA,NA,NA,NA
uAIREnOt,3odop6t3bvxisk3y617o3pei3yp24c,31ibvunm9wc3abwj5uskli4cr41fvo,uAIREnOt,2020-0188,2021-10-14,10:23:24,11:38:32,NA,incomplete,false,true,NA,4,11,NA,purple,n_l_039.jpg,NA,NA,pleasant,unpleasant,NA,NA,NA,NA,NA,right,1170.10000000894,true,NA,NA,NA,NA,NA
uAIREnOt,3odop6t3bvxisk3y617o3pei3yp24c,31ibvunm9wc3abwj5uskli4cr41fvo,uAIREnOt,2020-0188,2021-10-14,10:23:24,11:38:32,NA,incomplete,false,true,NA,4,12,NA,white,n_l_045.jpg,NA,NA,pleasant,unpleasant,NA,NA,NA,NA,NA,right,2053.89999999106,true,NA,NA,NA,NA,NA
uAIREnOt,3odop6t3bvxisk3y617o3pei3yp24c,31ibvunm9wc3abwj5uskli4cr41fvo,uAIREnOt,2020-0188,2021-10-14,10:23:24,11:38:32,NA,incomplete,false,true,NA,4,13,NA,white,m_l_033.jpg,NA,NA,unpleasant,pleasant,NA,NA,NA,NA,NA,right,2073.40000000596,true,NA,NA,NA,NA,NA
uAIREnOt,3odop6t3bvxisk3y617o3pei3yp24c,31ibvunm9wc3abwj5uskli4cr41fvo,uAIREnOt,2020-0188,2021-10-14,10:23:24,11:38:32,NA,incomplete,false,true,NA,4,14,NA,white,n_s_083.jpg,NA,NA,pleasant,unpleasant,NA,NA,NA,NA,NA,right,1690.90000000596,true,NA,NA,NA,NA,NA
uAIREnOt,3odop6t3bvxisk3y617o3pei3yp24c,31ibvunm9wc3abwj5uskli4cr41fvo,uAIREnOt,2020-0188,2021-10-14,10:23:24,11:38:32,NA,incomplete,false,true,NA,4,15,NA,white,n_s_021.jpg,NA,NA,unpleasant,pleasant,NA,NA,NA,NA,NA,left,1805.39999999106,true,NA,NA,NA,NA,NA
uAIREnOt,3odop6t3bvxisk3y617o3pei3yp24c,31ibvunm9wc3abwj5uskli4cr41fvo,uAIREnOt,2020-0188,2021-10-14,10:23:24,11:38:32,NA,incomplete,false,true,NA,4,16,NA,white,m_l_052.jpg,NA,NA,unpleasant,pleasant,NA,NA,NA,NA,NA,left,1677.70000000298,true,NA,NA,NA,NA,NA
uAIREnOt,3odop6t3bvxisk3y617o3pei3yp24c,31ibvunm9wc3abwj5uskli4cr41fvo,uAIREnOt,2020-0188,2021-10-14,10:23:24,11:38:32,NA,incomplete,false,true,NA,4,17,NA,white,n_s_107.jpg,NA,NA,pleasant,unpleasant,NA,NA,NA,NA,NA,right,2027.40000000596,true,NA,NA,NA,NA,NA
uAIREnOt,3odop6t3bvxisk3y617o3pei3yp24c,31ibvunm9wc3abwj5uskli4cr41fvo,uAIREnOt,2020-0188,2021-10-14,10:23:24,11:38:32,NA,incomplete,false,true,NA,4,18,NA,blue,n_l_058.jpg,NA,NA,pleasant,unpleasant,NA,NA,NA,NA,NA,right,1569.10000000894,true,NA,NA,NA,NA,NA
uAIREnOt,3odop6t3bvxisk3y617o3pei3yp24c,31ibvunm9wc3abwj5uskli4cr41fvo,uAIREnOt,2020-0188,2021-10-14,10:23:24,11:38:32,NA,incomplete,false,true,NA,4,19,NA,blue,n_s_024.jpg,NA,NA,unpleasant,pleasant,NA,NA,NA,NA,NA,left,1629.79999999702,true,NA,NA,NA,NA,NA
uAIREnOt,3odop6t3bvxisk3y617o3pei3yp24c,31ibvunm9wc3abwj5uskli4cr41fvo,uAIREnOt,2020-0188,2021-10-14,10:23:24,11:38:32,NA,incomplete,false,true,NA,4,20,NA,blue,n_s_063.jpg,NA,NA,pleasant,unpleasant,NA,NA,NA,NA,NA,right,1285.59999999404,true,NA,NA,NA,NA,NA
uAIREnOt,3odop6t3bvxisk3y617o3pei3yp24c,31ibvunm9wc3abwj5uskli4cr41fvo,uAIREnOt,2020-0188,2021-10-14,10:23:24,11:38:32,NA,incomplete,false,true,NA,4,21,NA,blue,m_s_097.jpg,NA,NA,pleasant,unpleasant,NA,NA,NA,NA,NA,right,1316.79999999702,true,NA,NA,NA,NA,NA
uAIREnOt,3odop6t3bvxisk3y617o3pei3yp24c,31ibvunm9wc3abwj5uskli4cr41fvo,uAIREnOt,2020-0188,2021-10-14,10:23:24,11:38:32,NA,incomplete,false,true,NA,4,22,NA,blue,m_l_027.jpg,NA,NA,unpleasant,pleasant,NA,NA,NA,NA,NA,right,1363.70000000298,true,NA,NA,NA,NA,NA
uAIREnOt,3odop6t3bvxisk3y617o3pei3yp24c,31ibvunm9wc3abwj5uskli4cr41fvo,uAIREnOt,2020-0188,2021-10-14,10:23:24,11:38:32,NA,incomplete,false,true,NA,4,23,NA,blue,m_l_059.jpg,NA,NA,pleasant,unpleasant,NA,NA,NA,NA,NA,left,1251.5,true,NA,NA,NA,NA,NA
uAIREnOt,3odop6t3bvxisk3y617o3pei3yp24c,31ibvunm9wc3abwj5uskli4cr41fvo,uAIREnOt,2020-0188,2021-10-14,10:23:24,11:38:32,NA,incomplete,false,true,NA,4,24,NA,gray,m_s_016.jpg,NA,NA,pleasant,unpleasant,NA,NA,NA,NA,NA,left,1582.39999999106,true,NA,NA,NA,NA,NA
uAIREnOt,3odop6t3bvxisk3y617o3pei3yp24c,31ibvunm9wc3abwj5uskli4cr41fvo,uAIREnOt,2020-0188,2021-10-14,10:23:24,11:38:32,NA,incomplete,false,true,NA,4,25,NA,gray,n_l_050.jpg,NA,NA,unpleasant,pleasant,NA,NA,NA,NA,NA,left,1066.70000000298,true,NA,NA,NA,NA,NA
uAIREnOt,3odop6t3bvxisk3y617o3pei3yp24c,31ibvunm9wc3abwj5uskli4cr41fvo,uAIREnOt,2020-0188,2021-10-14,10:23:24,11:38:32,NA,incomplete,false,true,NA,4,26,NA,gray,n_s_060.jpg,NA,NA,unpleasant,pleasant,NA,NA,NA,NA,NA,left,1683.09999999404,true,NA,NA,NA,NA,NA
uAIREnOt,3odop6t3bvxisk3y617o3pei3yp24c,31ibvunm9wc3abwj5uskli4cr41fvo,uAIREnOt,2020-0188,2021-10-14,10:23:24,11:38:32,NA,incomplete,false,true,NA,4,27,NA,gray,n_s_012.jpg,NA,NA,pleasant,unpleasant,NA,NA,NA,NA,NA,right,1559.59999999404,true,NA,NA,NA,NA,NA
uAIREnOt,3odop6t3bvxisk3y617o3pei3yp24c,31ibvunm9wc3abwj5uskli4cr41fvo,uAIREnOt,2020-0188,2021-10-14,10:23:24,11:38:32,NA,incomplete,false,true,NA,4,28,NA,gray,n_s_057.jpg,NA,NA,pleasant,unpleasant,NA,NA,NA,NA,NA,left,1571,true,NA,NA,NA,NA,NA
uAIREnOt,3odop6t3bvxisk3y617o3pei3yp24c,31ibvunm9wc3abwj5uskli4cr41fvo,uAIREnOt,2020-0188,2021-10-14,10:23:24,11:38:32,NA,incomplete,false,true,NA,4,29,NA,gray,m_s_030.jpg,NA,NA,unpleasant,pleasant,NA,NA,NA,NA,NA,right,1194.79999999702,true,NA,NA,NA,NA,NA
uAIREnOt,3odop6t3bvxisk3y617o3pei3yp24c,31ibvunm9wc3abwj5uskli4cr41fvo,uAIREnOt,2020-0188,2021-10-14,10:23:24,11:38:32,NA,incomplete,false,true,NA,4,30,NA,orange,n_s_116.jpg,NA,NA,unpleasant,pleasant,NA,NA,NA,NA,NA,left,1436.5,true,NA,NA,NA,NA,NA
uAIREnOt,3odop6t3bvxisk3y617o3pei3yp24c,31ibvunm9wc3abwj5uskli4cr41fvo,uAIREnOt,2020-0188,2021-10-14,10:23:24,11:38:32,NA,incomplete,false,true,NA,4,31,NA,orange,n_s_035.jpg,NA,NA,unpleasant,pleasant,NA,NA,NA,NA,NA,right,2092.30000001192,true,NA,NA,NA,NA,NA
uAIREnOt,3odop6t3bvxisk3y617o3pei3yp24c,31ibvunm9wc3abwj5uskli4cr41fvo,uAIREnOt,2020-0188,2021-10-14,10:23:24,11:38:32,NA,incomplete,false,true,NA,4,32,NA,orange,n_s_084.jpg,NA,NA,unpleasant,pleasant,NA,NA,NA,NA,NA,right,1604.20000000298,true,NA,NA,NA,NA,NA
uAIREnOt,3odop6t3bvxisk3y617o3pei3yp24c,31ibvunm9wc3abwj5uskli4cr41fvo,uAIREnOt,2020-0188,2021-10-14,10:23:24,11:38:32,NA,incomplete,false,true,NA,4,33,NA,orange,n_l_108.jpg,NA,NA,pleasant,unpleasant,NA,NA,NA,NA,NA,right,1244.79999999702,true,NA,NA,NA,NA,NA
uAIREnOt,3odop6t3bvxisk3y617o3pei3yp24c,31ibvunm9wc3abwj5uskli4cr41fvo,uAIREnOt,2020-0188,2021-10-14,10:23:24,11:38:32,NA,incomplete,false,true,NA,4,34,NA,orange,m_s_065.jpg,NA,NA,unpleasant,pleasant,NA,NA,NA,NA,NA,right,1370.20000000298,true,NA,NA,NA,NA,NA
uAIREnOt,3odop6t3bvxisk3y617o3pei3yp24c,31ibvunm9wc3abwj5uskli4cr41fvo,uAIREnOt,2020-0188,2021-10-14,10:23:24,11:38:32,NA,incomplete,false,true,NA,4,35,NA,orange,n_s_032.jpg,NA,NA,unpleasant,pleasant,NA,NA,NA,NA,NA,left,1022.79999999702,true,NA,NA,NA,NA,NA
uAIREnOt,3odop6t3bvxisk3y617o3pei3yp24c,31ibvunm9wc3abwj5uskli4cr41fvo,uAIREnOt,2020-0188,2021-10-14,10:23:24,11:38:32,NA,incomplete,false,NA,true,4,0,NA,NA,NA,left,absent,NA,NA,n_s_035.jpg,orange,n_s_032.jpg,orange,within,NA,NaN,NA,left,4362.29999999702,1,0,1871.0999999940395
uAIREnOt,3odop6t3bvxisk3y617o3pei3yp24c,31ibvunm9wc3abwj5uskli4cr41fvo,uAIREnOt,2020-0188,2021-10-14,10:23:24,11:38:32,NA,incomplete,false,NA,true,4,1,NA,NA,NA,left,absent,NA,NA,m_l_005.jpg,purple,n_s_083.jpg,white,between,NA,NaN,NA,left,7735.0999999940395,1,2,1490.7000000029802
uAIREnOt,3odop6t3bvxisk3y617o3pei3yp24c,31ibvunm9wc3abwj5uskli4cr41fvo,uAIREnOt,2020-0188,2021-10-14,10:23:24,11:38:32,NA,incomplete,false,NA,true,4,2,NA,NA,NA,left,absent,NA,NA,n_s_057.jpg,gray,n_s_084.jpg,orange,between,NA,NaN,NA,left,8096.699999988079,1,2,1246.0999999940395
uAIREnOt,3odop6t3bvxisk3y617o3pei3yp24c,31ibvunm9wc3abwj5uskli4cr41fvo,uAIREnOt,2020-0188,2021-10-14,10:23:24,11:38:32,NA,incomplete,false,NA,true,4,3,NA,NA,NA,left,absent,NA,NA,n_s_024.jpg,blue,m_l_059.jpg,blue,within,NA,NaN,NA,left,3500.7000000029802,1,0,2597.5999999940395
uAIREnOt,3odop6t3bvxisk3y617o3pei3yp24c,31ibvunm9wc3abwj5uskli4cr41fvo,uAIREnOt,2020-0188,2021-10-14,10:23:24,11:38:32,NA,incomplete,false,NA,true,4,4,NA,NA,NA,right,absent,NA,NA,n_l_039.jpg,purple,m_s_025.jpg,purple,within,NA,NaN,NA,left,7012,0,1,1542.300000011921
uAIREnOt,3odop6t3bvxisk3y617o3pei3yp24c,31ibvunm9wc3abwj5uskli4cr41fvo,uAIREnOt,2020-0188,2021-10-14,10:23:24,11:38:32,NA,incomplete,false,NA,true,4,5,NA,NA,NA,right,absent,NA,NA,n_s_060.jpg,gray,m_l_027.jpg,blue,between,NA,NaN,NA,right,6407.600000008941,1,2,1562.7999999970198
uAIREnOt,3odop6t3bvxisk3y617o3pei3yp24c,31ibvunm9wc3abwj5uskli4cr41fvo,uAIREnOt,2020-0188,2021-10-14,10:23:24,11:38:32,NA,incomplete,false,NA,true,4,6,NA,NA,NA,left,absent,NA,NA,m_l_052.jpg,white,n_s_063.jpg,blue,between,NA,NaN,NA,left,5743.20000000298,1,2,1260.9000000059605
uAIREnOt,3odop6t3bvxisk3y617o3pei3yp24c,31ibvunm9wc3abwj5uskli4cr41fvo,uAIREnOt,2020-0188,2021-10-14,10:23:24,11:38:32,NA,incomplete,false,NA,true,4,7,NA,NA,NA,left,absent,NA,NA,n_s_014.jpg,green,n_s_013.jpg,purple,between,NA,NaN,NA,left,3887.8999999910593,1,2,1368.4000000059605
uAIREnOt,3odop6t3bvxisk3y617o3pei3yp24c,31ibvunm9wc3abwj5uskli4cr41fvo,uAIREnOt,2020-0188,2021-10-14,10:23:24,11:38:32,NA,incomplete,false,NA,true,4,8,NA,NA,NA,right,absent,NA,NA,n_s_107.jpg,white,m_l_033.jpg,white,within,NA,NaN,NA,right,7354.9000000059605,1,1,1333.2999999970198
uAIREnOt,3odop6t3bvxisk3y617o3pei3yp24c,31ibvunm9wc3abwj5uskli4cr41fvo,uAIREnOt,2020-0188,2021-10-14,10:23:24,11:38:32,NA,incomplete,false,NA,true,4,9,NA,NA,NA,left,absent,NA,NA,n_l_050.jpg,gray,m_s_030.jpg,gray,within,NA,NaN,NA,left,3969.7000000029802,1,2,1891.199999988079
uAIREnOt,3odop6t3bvxisk3y617o3pei3yp24c,31ibvunm9wc3abwj5uskli4cr41fvo,uAIREnOt,2020-0188,2021-10-14,10:23:24,11:38:32,NA,incomplete,false,NA,true,4,10,NA,NA,NA,left,absent,NA,NA,m_l_078.jpg,green,m_s_114.jpg,green,within,NA,NaN,NA,left,2771.5,1,2,5284.9000000059605
uAIREnOt,3odop6t3bvxisk3y617o3pei3yp24c,31ibvunm9wc3abwj5uskli4cr41fvo,uAIREnOt,2020-0188,2021-10-14,10:23:24,11:38:32,NA,incomplete,false,true,NA,5,0,NA,black,m_s_038.jpg,NA,NA,pleasant,unpleasant,NA,NA,NA,NA,NA,left,2537,true,NA,NA,NA,NA,NA
uAIREnOt,3odop6t3bvxisk3y617o3pei3yp24c,31ibvunm9wc3abwj5uskli4cr41fvo,uAIREnOt,2020-0188,2021-10-14,10:23:24,11:38:32,NA,incomplete,false,true,NA,5,1,NA,black,m_l_008.jpg,NA,NA,pleasant,unpleasant,NA,NA,NA,NA,NA,left,1442.79999999702,true,NA,NA,NA,NA,NA
uAIREnOt,3odop6t3bvxisk3y617o3pei3yp24c,31ibvunm9wc3abwj5uskli4cr41fvo,uAIREnOt,2020-0188,2021-10-14,10:23:24,11:38:32,NA,incomplete,false,true,NA,5,2,NA,black,n_l_084.jpg,NA,NA,unpleasant,pleasant,NA,NA,NA,NA,NA,left,1539.70000000298,true,NA,NA,NA,NA,NA
uAIREnOt,3odop6t3bvxisk3y617o3pei3yp24c,31ibvunm9wc3abwj5uskli4cr41fvo,uAIREnOt,2020-0188,2021-10-14,10:23:24,11:38:32,NA,incomplete,false,true,NA,5,3,NA,black,n_l_019.jpg,NA,NA,pleasant,unpleasant,NA,NA,NA,NA,NA,right,1484.70000000298,true,NA,NA,NA,NA,NA
uAIREnOt,3odop6t3bvxisk3y617o3pei3yp24c,31ibvunm9wc3abwj5uskli4cr41fvo,uAIREnOt,2020-0188,2021-10-14,10:23:24,11:38:32,NA,incomplete,false,true,NA,5,4,NA,black,n_l_100.jpg,NA,NA,pleasant,unpleasant,NA,NA,NA,NA,NA,left,1727.70000000298,true,NA,NA,NA,NA,NA
uAIREnOt,3odop6t3bvxisk3y617o3pei3yp24c,31ibvunm9wc3abwj5uskli4cr41fvo,uAIREnOt,2020-0188,2021-10-14,10:23:24,11:38:32,NA,incomplete,false,true,NA,5,5,NA,black,m_l_089.jpg,NA,NA,unpleasant,pleasant,NA,NA,NA,NA,NA,right,1650.60000000894,true,NA,NA,NA,NA,NA
uAIREnOt,3odop6t3bvxisk3y617o3pei3yp24c,31ibvunm9wc3abwj5uskli4cr41fvo,uAIREnOt,2020-0188,2021-10-14,10:23:24,11:38:32,NA,incomplete,false,true,NA,5,6,NA,red,m_l_023.jpg,NA,NA,unpleasant,pleasant,NA,NA,NA,NA,NA,right,1535.39999999106,true,NA,NA,NA,NA,NA
uAIREnOt,3odop6t3bvxisk3y617o3pei3yp24c,31ibvunm9wc3abwj5uskli4cr41fvo,uAIREnOt,2020-0188,2021-10-14,10:23:24,11:38:32,NA,incomplete,false,true,NA,5,7,NA,red,n_s_101.jpg,NA,NA,pleasant,unpleasant,NA,NA,NA,NA,NA,right,1725.79999999702,true,NA,NA,NA,NA,NA
uAIREnOt,3odop6t3bvxisk3y617o3pei3yp24c,31ibvunm9wc3abwj5uskli4cr41fvo,uAIREnOt,2020-0188,2021-10-14,10:23:24,11:38:32,NA,incomplete,false,true,NA,5,8,NA,red,m_s_085.jpg,NA,NA,pleasant,unpleasant,NA,NA,NA,NA,NA,right,1776.10000000894,true,NA,NA,NA,NA,NA
uAIREnOt,3odop6t3bvxisk3y617o3pei3yp24c,31ibvunm9wc3abwj5uskli4cr41fvo,uAIREnOt,2020-0188,2021-10-14,10:23:24,11:38:32,NA,incomplete,false,true,NA,5,9,NA,red,m_l_002.jpg,NA,NA,unpleasant,pleasant,NA,NA,NA,NA,NA,right,1803.5,true,NA,NA,NA,NA,NA
uAIREnOt,3odop6t3bvxisk3y617o3pei3yp24c,31ibvunm9wc3abwj5uskli4cr41fvo,uAIREnOt,2020-0188,2021-10-14,10:23:24,11:38:32,NA,incomplete,false,true,NA,5,10,NA,red,n_s_070.jpg,NA,NA,pleasant,unpleasant,NA,NA,NA,NA,NA,right,1258.89999999106,true,NA,NA,NA,NA,NA
uAIREnOt,3odop6t3bvxisk3y617o3pei3yp24c,31ibvunm9wc3abwj5uskli4cr41fvo,uAIREnOt,2020-0188,2021-10-14,10:23:24,11:38:32,NA,incomplete,false,true,NA,5,11,NA,red,m_l_091.jpg,NA,NA,pleasant,unpleasant,NA,NA,NA,NA,NA,left,1132.40000000596,true,NA,NA,NA,NA,NA
uAIREnOt,3odop6t3bvxisk3y617o3pei3yp24c,31ibvunm9wc3abwj5uskli4cr41fvo,uAIREnOt,2020-0188,2021-10-14,10:23:24,11:38:32,NA,incomplete,false,true,NA,5,12,NA,orange,n_l_115.jpg,NA,NA,unpleasant,pleasant,NA,NA,NA,NA,NA,left,1803.80000001192,true,NA,NA,NA,NA,NA
uAIREnOt,3odop6t3bvxisk3y617o3pei3yp24c,31ibvunm9wc3abwj5uskli4cr41fvo,uAIREnOt,2020-0188,2021-10-14,10:23:24,11:38:32,NA,incomplete,false,true,NA,5,13,NA,orange,m_s_083.jpg,NA,NA,unpleasant,pleasant,NA,NA,NA,NA,NA,left,1706.39999999106,true,NA,NA,NA,NA,NA
uAIREnOt,3odop6t3bvxisk3y617o3pei3yp24c,31ibvunm9wc3abwj5uskli4cr41fvo,uAIREnOt,2020-0188,2021-10-14,10:23:24,11:38:32,NA,incomplete,false,true,NA,5,14,NA,orange,n_l_009.jpg,NA,NA,pleasant,unpleasant,NA,NA,NA,NA,NA,right,1191.29999999702,true,NA,NA,NA,NA,NA
uAIREnOt,3odop6t3bvxisk3y617o3pei3yp24c,31ibvunm9wc3abwj5uskli4cr41fvo,uAIREnOt,2020-0188,2021-10-14,10:23:24,11:38:32,NA,incomplete,false,true,NA,5,15,NA,orange,n_s_020.jpg,NA,NA,unpleasant,pleasant,NA,NA,NA,NA,NA,right,1587.10000000894,true,NA,NA,NA,NA,NA
uAIREnOt,3odop6t3bvxisk3y617o3pei3yp24c,31ibvunm9wc3abwj5uskli4cr41fvo,uAIREnOt,2020-0188,2021-10-14,10:23:24,11:38:32,NA,incomplete,false,true,NA,5,16,NA,orange,n_l_006.jpg,NA,NA,pleasant,unpleasant,NA,NA,NA,NA,NA,left,1492.29999999702,true,NA,NA,NA,NA,NA
uAIREnOt,3odop6t3bvxisk3y617o3pei3yp24c,31ibvunm9wc3abwj5uskli4cr41fvo,uAIREnOt,2020-0188,2021-10-14,10:23:24,11:38:32,NA,incomplete,false,true,NA,5,17,NA,orange,n_s_064.jpg,NA,NA,unpleasant,pleasant,NA,NA,NA,NA,NA,right,1526.29999999702,true,NA,NA,NA,NA,NA
uAIREnOt,3odop6t3bvxisk3y617o3pei3yp24c,31ibvunm9wc3abwj5uskli4cr41fvo,uAIREnOt,2020-0188,2021-10-14,10:23:24,11:38:32,NA,incomplete,false,true,NA,5,18,NA,yellow,m_l_088.jpg,NA,NA,pleasant,unpleasant,NA,NA,NA,NA,NA,right,1825.39999999106,true,NA,NA,NA,NA,NA
uAIREnOt,3odop6t3bvxisk3y617o3pei3yp24c,31ibvunm9wc3abwj5uskli4cr41fvo,uAIREnOt,2020-0188,2021-10-14,10:23:24,11:38:32,NA,incomplete,false,true,NA,5,19,NA,yellow,m_l_047.jpg,NA,NA,pleasant,unpleasant,NA,NA,NA,NA,NA,right,1358.09999999404,true,NA,NA,NA,NA,NA
uAIREnOt,3odop6t3bvxisk3y617o3pei3yp24c,31ibvunm9wc3abwj5uskli4cr41fvo,uAIREnOt,2020-0188,2021-10-14,10:23:24,11:38:32,NA,incomplete,false,true,NA,5,20,NA,yellow,n_l_053.jpg,NA,NA,unpleasant,pleasant,NA,NA,NA,NA,NA,left,1467.90000000596,true,NA,NA,NA,NA,NA
uAIREnOt,3odop6t3bvxisk3y617o3pei3yp24c,31ibvunm9wc3abwj5uskli4cr41fvo,uAIREnOt,2020-0188,2021-10-14,10:23:24,11:38:32,NA,incomplete,false,true,NA,5,21,NA,yellow,m_s_102.jpg,NA,NA,unpleasant,pleasant,NA,NA,NA,NA,NA,right,1710.5,true,NA,NA,NA,NA,NA
uAIREnOt,3odop6t3bvxisk3y617o3pei3yp24c,31ibvunm9wc3abwj5uskli4cr41fvo,uAIREnOt,2020-0188,2021-10-14,10:23:24,11:38:32,NA,incomplete,false,true,NA,5,22,NA,yellow,m_s_028.jpg,NA,NA,unpleasant,pleasant,NA,NA,NA,NA,NA,left,1215.40000000596,true,NA,NA,NA,NA,NA
uAIREnOt,3odop6t3bvxisk3y617o3pei3yp24c,31ibvunm9wc3abwj5uskli4cr41fvo,uAIREnOt,2020-0188,2021-10-14,10:23:24,11:38:32,NA,incomplete,false,true,NA,5,23,NA,yellow,m_s_004.jpg,NA,NA,unpleasant,pleasant,NA,NA,NA,NA,NA,right,1343.40000000596,true,NA,NA,NA,NA,NA
uAIREnOt,3odop6t3bvxisk3y617o3pei3yp24c,31ibvunm9wc3abwj5uskli4cr41fvo,uAIREnOt,2020-0188,2021-10-14,10:23:24,11:38:32,NA,incomplete,false,true,NA,5,24,NA,blue,m_s_037.jpg,NA,NA,unpleasant,pleasant,NA,NA,NA,NA,NA,right,1509.79999999702,true,NA,NA,NA,NA,NA
uAIREnOt,3odop6t3bvxisk3y617o3pei3yp24c,31ibvunm9wc3abwj5uskli4cr41fvo,uAIREnOt,2020-0188,2021-10-14,10:23:24,11:38:32,NA,incomplete,false,true,NA,5,25,NA,blue,n_s_038.jpg,NA,NA,pleasant,unpleasant,NA,NA,NA,NA,NA,right,1144.90000000596,true,NA,NA,NA,NA,NA
uAIREnOt,3odop6t3bvxisk3y617o3pei3yp24c,31ibvunm9wc3abwj5uskli4cr41fvo,uAIREnOt,2020-0188,2021-10-14,10:23:24,11:38:32,NA,incomplete,false,true,NA,5,26,NA,blue,m_s_021.jpg,NA,NA,unpleasant,pleasant,NA,NA,NA,NA,NA,right,1189,true,NA,NA,NA,NA,NA
uAIREnOt,3odop6t3bvxisk3y617o3pei3yp24c,31ibvunm9wc3abwj5uskli4cr41fvo,uAIREnOt,2020-0188,2021-10-14,10:23:24,11:38:32,NA,incomplete,false,true,NA,5,27,NA,blue,n_s_016.jpg,NA,NA,unpleasant,pleasant,NA,NA,NA,NA,NA,left,991.899999991059,true,NA,NA,NA,NA,NA
uAIREnOt,3odop6t3bvxisk3y617o3pei3yp24c,31ibvunm9wc3abwj5uskli4cr41fvo,uAIREnOt,2020-0188,2021-10-14,10:23:24,11:38:32,NA,incomplete,false,true,NA,5,28,NA,blue,n_l_077.jpg,NA,NA,pleasant,unpleasant,NA,NA,NA,NA,NA,right,1040.60000000894,true,NA,NA,NA,NA,NA
uAIREnOt,3odop6t3bvxisk3y617o3pei3yp24c,31ibvunm9wc3abwj5uskli4cr41fvo,uAIREnOt,2020-0188,2021-10-14,10:23:24,11:38:32,NA,incomplete,false,true,NA,5,29,NA,blue,n_l_091.jpg,NA,NA,unpleasant,pleasant,NA,NA,NA,NA,NA,right,1483.29999999702,true,NA,NA,NA,NA,NA
uAIREnOt,3odop6t3bvxisk3y617o3pei3yp24c,31ibvunm9wc3abwj5uskli4cr41fvo,uAIREnOt,2020-0188,2021-10-14,10:23:24,11:38:32,NA,incomplete,false,true,NA,5,30,NA,white,m_s_068.jpg,NA,NA,pleasant,unpleasant,NA,NA,NA,NA,NA,right,2090.80000001192,true,NA,NA,NA,NA,NA
uAIREnOt,3odop6t3bvxisk3y617o3pei3yp24c,31ibvunm9wc3abwj5uskli4cr41fvo,uAIREnOt,2020-0188,2021-10-14,10:23:24,11:38:32,NA,incomplete,false,true,NA,5,31,NA,white,n_s_048.jpg,NA,NA,unpleasant,pleasant,NA,NA,NA,NA,NA,right,1580,true,NA,NA,NA,NA,NA
uAIREnOt,3odop6t3bvxisk3y617o3pei3yp24c,31ibvunm9wc3abwj5uskli4cr41fvo,uAIREnOt,2020-0188,2021-10-14,10:23:24,11:38:32,NA,incomplete,false,true,NA,5,32,NA,white,m_s_039.jpg,NA,NA,unpleasant,pleasant,NA,NA,NA,NA,NA,right,1177.89999999106,true,NA,NA,NA,NA,NA
uAIREnOt,3odop6t3bvxisk3y617o3pei3yp24c,31ibvunm9wc3abwj5uskli4cr41fvo,uAIREnOt,2020-0188,2021-10-14,10:23:24,11:38:32,NA,incomplete,false,true,NA,5,33,NA,white,n_s_056.jpg,NA,NA,pleasant,unpleasant,NA,NA,NA,NA,NA,right,1357.10000000894,true,NA,NA,NA,NA,NA
uAIREnOt,3odop6t3bvxisk3y617o3pei3yp24c,31ibvunm9wc3abwj5uskli4cr41fvo,uAIREnOt,2020-0188,2021-10-14,10:23:24,11:38:32,NA,incomplete,false,true,NA,5,34,NA,white,m_l_003.jpg,NA,NA,pleasant,unpleasant,NA,NA,NA,NA,NA,left,1743.70000000298,true,NA,NA,NA,NA,NA
uAIREnOt,3odop6t3bvxisk3y617o3pei3yp24c,31ibvunm9wc3abwj5uskli4cr41fvo,uAIREnOt,2020-0188,2021-10-14,10:23:24,11:38:32,NA,incomplete,false,true,NA,5,35,NA,white,n_l_031.jpg,NA,NA,unpleasant,pleasant,NA,NA,NA,NA,NA,right,1329.29999999702,true,NA,NA,NA,NA,NA
uAIREnOt,3odop6t3bvxisk3y617o3pei3yp24c,31ibvunm9wc3abwj5uskli4cr41fvo,uAIREnOt,2020-0188,2021-10-14,10:23:24,11:38:32,NA,incomplete,false,NA,true,5,0,NA,NA,NA,left,absent,NA,NA,n_l_006.jpg,orange,n_l_053.jpg,yellow,between,NA,NaN,NA,left,3435.300000011921,1,2,1444.2999999970198
uAIREnOt,3odop6t3bvxisk3y617o3pei3yp24c,31ibvunm9wc3abwj5uskli4cr41fvo,uAIREnOt,2020-0188,2021-10-14,10:23:24,11:38:32,NA,incomplete,false,NA,true,5,1,NA,NA,NA,left,absent,NA,NA,m_s_028.jpg,yellow,m_s_021.jpg,blue,between,NA,NaN,NA,right,8278.29999999702,0,2,1879.3999999910593
uAIREnOt,3odop6t3bvxisk3y617o3pei3yp24c,31ibvunm9wc3abwj5uskli4cr41fvo,uAIREnOt,2020-0188,2021-10-14,10:23:24,11:38:32,NA,incomplete,false,NA,true,5,2,NA,NA,NA,left,absent,NA,NA,m_l_008.jpg,black,m_l_089.jpg,black,within,NA,NaN,NA,left,7763.29999999702,1,1,1246.3999999910593
uAIREnOt,3odop6t3bvxisk3y617o3pei3yp24c,31ibvunm9wc3abwj5uskli4cr41fvo,uAIREnOt,2020-0188,2021-10-14,10:23:24,11:38:32,NA,incomplete,false,NA,true,5,3,NA,NA,NA,left,absent,NA,NA,m_s_083.jpg,orange,n_s_064.jpg,orange,within,NA,NaN,NA,left,3686.7999999970198,1,1,1519.6000000089407
uAIREnOt,3odop6t3bvxisk3y617o3pei3yp24c,31ibvunm9wc3abwj5uskli4cr41fvo,uAIREnOt,2020-0188,2021-10-14,10:23:24,11:38:32,NA,incomplete,false,NA,true,5,4,NA,NA,NA,left,absent,NA,NA,m_l_047.jpg,yellow,m_s_004.jpg,yellow,within,NA,NaN,NA,left,4501.4000000059605,1,1,1224
uAIREnOt,3odop6t3bvxisk3y617o3pei3yp24c,31ibvunm9wc3abwj5uskli4cr41fvo,uAIREnOt,2020-0188,2021-10-14,10:23:24,11:38:32,NA,incomplete,false,NA,true,5,5,NA,NA,NA,left,absent,NA,NA,n_s_048.jpg,white,n_l_031.jpg,white,within,NA,NaN,NA,left,3262.2000000029802,1,0,2349.7000000029802
uAIREnOt,3odop6t3bvxisk3y617o3pei3yp24c,31ibvunm9wc3abwj5uskli4cr41fvo,uAIREnOt,2020-0188,2021-10-14,10:23:24,11:38:32,NA,incomplete,false,NA,true,5,6,NA,NA,NA,left,absent,NA,NA,n_s_038.jpg,blue,n_l_091.jpg,blue,within,NA,NaN,NA,left,5668.29999999702,1,1,2683.9000000059605
uAIREnOt,3odop6t3bvxisk3y617o3pei3yp24c,31ibvunm9wc3abwj5uskli4cr41fvo,uAIREnOt,2020-0188,2021-10-14,10:23:24,11:38:32,NA,incomplete,false,NA,true,5,7,NA,NA,NA,right,absent,NA,NA,m_s_085.jpg,red,n_l_100.jpg,black,between,NA,NaN,NA,right,3869,1,2,1307.2999999970198
uAIREnOt,3odop6t3bvxisk3y617o3pei3yp24c,31ibvunm9wc3abwj5uskli4cr41fvo,uAIREnOt,2020-0188,2021-10-14,10:23:24,11:38:32,NA,incomplete,false,NA,true,5,8,NA,NA,NA,left,absent,NA,NA,n_s_101.jpg,red,m_l_091.jpg,red,within,NA,NaN,NA,left,4206,1,0,1312
uAIREnOt,3odop6t3bvxisk3y617o3pei3yp24c,31ibvunm9wc3abwj5uskli4cr41fvo,uAIREnOt,2020-0188,2021-10-14,10:23:24,11:38:32,NA,incomplete,false,NA,true,5,9,NA,NA,NA,right,absent,NA,NA,n_l_009.jpg,orange,n_s_070.jpg,red,between,NA,NaN,NA,right,11332.300000011921,1,2,1941.7999999970198
uAIREnOt,3odop6t3bvxisk3y617o3pei3yp24c,31ibvunm9wc3abwj5uskli4cr41fvo,uAIREnOt,2020-0188,2021-10-14,10:23:24,11:38:32,NA,incomplete,false,NA,true,5,10,NA,NA,NA,right,absent,NA,NA,m_s_039.jpg,white,n_l_077.jpg,blue,between,NA,NaN,NA,right,4553.5,1,2,1591.6000000089407
uAIREnOt,3odop6t3bvxisk3y617o3pei3yp24c,31ibvunm9wc3abwj5uskli4cr41fvo,uAIREnOt,2020-0188,2021-10-14,10:23:24,11:38:32,NA,incomplete,false,true,NA,6,0,NA,brown,n_l_112.jpg,NA,NA,unpleasant,pleasant,NA,NA,NA,NA,NA,right,1683.69999998808,true,NA,NA,NA,NA,NA
uAIREnOt,3odop6t3bvxisk3y617o3pei3yp24c,31ibvunm9wc3abwj5uskli4cr41fvo,uAIREnOt,2020-0188,2021-10-14,10:23:24,11:38:32,NA,incomplete,false,true,NA,6,1,NA,brown,m_s_017.jpg,NA,NA,unpleasant,pleasant,NA,NA,NA,NA,NA,left,1718.70000000298,true,NA,NA,NA,NA,NA
uAIREnOt,3odop6t3bvxisk3y617o3pei3yp24c,31ibvunm9wc3abwj5uskli4cr41fvo,uAIREnOt,2020-0188,2021-10-14,10:23:24,11:38:32,NA,incomplete,false,true,NA,6,2,NA,brown,n_l_066.jpg,NA,NA,pleasant,unpleasant,NA,NA,NA,NA,NA,right,1392.90000000596,true,NA,NA,NA,NA,NA
uAIREnOt,3odop6t3bvxisk3y617o3pei3yp24c,31ibvunm9wc3abwj5uskli4cr41fvo,uAIREnOt,2020-0188,2021-10-14,10:23:24,11:38:32,NA,incomplete,false,true,NA,6,3,NA,brown,n_s_080.jpg,NA,NA,pleasant,unpleasant,NA,NA,NA,NA,NA,left,1336.29999999702,true,NA,NA,NA,NA,NA
uAIREnOt,3odop6t3bvxisk3y617o3pei3yp24c,31ibvunm9wc3abwj5uskli4cr41fvo,uAIREnOt,2020-0188,2021-10-14,10:23:24,11:38:32,NA,incomplete,false,true,NA,6,4,NA,brown,m_l_053.jpg,NA,NA,pleasant,unpleasant,NA,NA,NA,NA,NA,right,1424.90000000596,true,NA,NA,NA,NA,NA
uAIREnOt,3odop6t3bvxisk3y617o3pei3yp24c,31ibvunm9wc3abwj5uskli4cr41fvo,uAIREnOt,2020-0188,2021-10-14,10:23:24,11:38:32,NA,incomplete,false,true,NA,6,5,NA,brown,n_s_090.jpg,NA,NA,unpleasant,pleasant,NA,NA,NA,NA,NA,left,1099.90000000596,true,NA,NA,NA,NA,NA
uAIREnOt,3odop6t3bvxisk3y617o3pei3yp24c,31ibvunm9wc3abwj5uskli4cr41fvo,uAIREnOt,2020-0188,2021-10-14,10:23:24,11:38:32,NA,incomplete,false,true,NA,6,6,NA,green,m_s_044.jpg,NA,NA,unpleasant,pleasant,NA,NA,NA,NA,NA,right,1218.80000001192,true,NA,NA,NA,NA,NA
uAIREnOt,3odop6t3bvxisk3y617o3pei3yp24c,31ibvunm9wc3abwj5uskli4cr41fvo,uAIREnOt,2020-0188,2021-10-14,10:23:24,11:38:32,NA,incomplete,false,true,NA,6,7,NA,green,m_l_105.jpg,NA,NA,pleasant,unpleasant,NA,NA,NA,NA,NA,right,1137.60000000894,true,NA,NA,NA,NA,NA
uAIREnOt,3odop6t3bvxisk3y617o3pei3yp24c,31ibvunm9wc3abwj5uskli4cr41fvo,uAIREnOt,2020-0188,2021-10-14,10:23:24,11:38:32,NA,incomplete,false,true,NA,6,8,NA,green,n_l_044.jpg,NA,NA,unpleasant,pleasant,NA,NA,NA,NA,NA,left,989.899999991059,true,NA,NA,NA,NA,NA
uAIREnOt,3odop6t3bvxisk3y617o3pei3yp24c,31ibvunm9wc3abwj5uskli4cr41fvo,uAIREnOt,2020-0188,2021-10-14,10:23:24,11:38:32,NA,incomplete,false,true,NA,6,9,NA,green,m_s_107.jpg,NA,NA,pleasant,unpleasant,NA,NA,NA,NA,NA,left,1700.29999999702,true,NA,NA,NA,NA,NA
uAIREnOt,3odop6t3bvxisk3y617o3pei3yp24c,31ibvunm9wc3abwj5uskli4cr41fvo,uAIREnOt,2020-0188,2021-10-14,10:23:24,11:38:32,NA,incomplete,false,true,NA,6,10,NA,green,m_s_059.jpg,NA,NA,unpleasant,pleasant,NA,NA,NA,NA,NA,right,1232.70000000298,true,NA,NA,NA,NA,NA
uAIREnOt,3odop6t3bvxisk3y617o3pei3yp24c,31ibvunm9wc3abwj5uskli4cr41fvo,uAIREnOt,2020-0188,2021-10-14,10:23:24,11:38:32,NA,incomplete,false,true,NA,6,11,NA,green,n_l_028.jpg,NA,NA,unpleasant,pleasant,NA,NA,NA,NA,NA,left,862.40000000596,true,NA,NA,NA,NA,NA
uAIREnOt,3odop6t3bvxisk3y617o3pei3yp24c,31ibvunm9wc3abwj5uskli4cr41fvo,uAIREnOt,2020-0188,2021-10-14,10:23:24,11:38:32,NA,incomplete,false,true,NA,6,12,NA,black,n_s_018.jpg,NA,NA,pleasant,unpleasant,NA,NA,NA,NA,NA,left,1239.29999999702,true,NA,NA,NA,NA,NA
uAIREnOt,3odop6t3bvxisk3y617o3pei3yp24c,31ibvunm9wc3abwj5uskli4cr41fvo,uAIREnOt,2020-0188,2021-10-14,10:23:24,11:38:32,NA,incomplete,false,true,NA,6,13,NA,black,m_s_027.jpg,NA,NA,unpleasant,pleasant,NA,NA,NA,NA,NA,left,1480.90000000596,true,NA,NA,NA,NA,NA
uAIREnOt,3odop6t3bvxisk3y617o3pei3yp24c,31ibvunm9wc3abwj5uskli4cr41fvo,uAIREnOt,2020-0188,2021-10-14,10:23:24,11:38:32,NA,incomplete,false,true,NA,6,14,NA,black,n_l_060.jpg,NA,NA,pleasant,unpleasant,NA,NA,NA,NA,NA,right,1638.70000000298,true,NA,NA,NA,NA,NA
uAIREnOt,3odop6t3bvxisk3y617o3pei3yp24c,31ibvunm9wc3abwj5uskli4cr41fvo,uAIREnOt,2020-0188,2021-10-14,10:23:24,11:38:32,NA,incomplete,false,true,NA,6,15,NA,black,m_l_107.jpg,NA,NA,unpleasant,pleasant,NA,NA,NA,NA,NA,right,1744.40000000596,true,NA,NA,NA,NA,NA
uAIREnOt,3odop6t3bvxisk3y617o3pei3yp24c,31ibvunm9wc3abwj5uskli4cr41fvo,uAIREnOt,2020-0188,2021-10-14,10:23:24,11:38:32,NA,incomplete,false,true,NA,6,16,NA,black,n_s_002.jpg,NA,NA,unpleasant,pleasant,NA,NA,NA,NA,NA,left,1068.29999999702,true,NA,NA,NA,NA,NA
uAIREnOt,3odop6t3bvxisk3y617o3pei3yp24c,31ibvunm9wc3abwj5uskli4cr41fvo,uAIREnOt,2020-0188,2021-10-14,10:23:24,11:38:32,NA,incomplete,false,true,NA,6,17,NA,black,n_l_101.jpg,NA,NA,unpleasant,pleasant,NA,NA,NA,NA,NA,right,1607.40000000596,true,NA,NA,NA,NA,NA
uAIREnOt,3odop6t3bvxisk3y617o3pei3yp24c,31ibvunm9wc3abwj5uskli4cr41fvo,uAIREnOt,2020-0188,2021-10-14,10:23:24,11:38:32,NA,incomplete,false,true,NA,6,18,NA,orange,m_l_085.jpg,NA,NA,pleasant,unpleasant,NA,NA,NA,NA,NA,left,1619.29999999702,true,NA,NA,NA,NA,NA
uAIREnOt,3odop6t3bvxisk3y617o3pei3yp24c,31ibvunm9wc3abwj5uskli4cr41fvo,uAIREnOt,2020-0188,2021-10-14,10:23:24,11:38:32,NA,incomplete,false,true,NA,6,19,NA,orange,n_s_037.jpg,NA,NA,unpleasant,pleasant,NA,NA,NA,NA,NA,right,1976.70000000298,true,NA,NA,NA,NA,NA
uAIREnOt,3odop6t3bvxisk3y617o3pei3yp24c,31ibvunm9wc3abwj5uskli4cr41fvo,uAIREnOt,2020-0188,2021-10-14,10:23:24,11:38:32,NA,incomplete,false,true,NA,6,20,NA,orange,m_s_019.jpg,NA,NA,unpleasant,pleasant,NA,NA,NA,NA,NA,left,1402.90000000596,true,NA,NA,NA,NA,NA
uAIREnOt,3odop6t3bvxisk3y617o3pei3yp24c,31ibvunm9wc3abwj5uskli4cr41fvo,uAIREnOt,2020-0188,2021-10-14,10:23:24,11:38:32,NA,incomplete,false,true,NA,6,21,NA,orange,n_l_023.jpg,NA,NA,pleasant,unpleasant,NA,NA,NA,NA,NA,right,1175.29999999702,true,NA,NA,NA,NA,NA
uAIREnOt,3odop6t3bvxisk3y617o3pei3yp24c,31ibvunm9wc3abwj5uskli4cr41fvo,uAIREnOt,2020-0188,2021-10-14,10:23:24,11:38:32,NA,incomplete,false,true,NA,6,22,NA,orange,n_s_040.jpg,NA,NA,pleasant,unpleasant,NA,NA,NA,NA,NA,left,1919,true,NA,NA,NA,NA,NA
uAIREnOt,3odop6t3bvxisk3y617o3pei3yp24c,31ibvunm9wc3abwj5uskli4cr41fvo,uAIREnOt,2020-0188,2021-10-14,10:23:24,11:38:32,NA,incomplete,false,true,NA,6,23,NA,orange,n_s_027.jpg,NA,NA,pleasant,unpleasant,NA,NA,NA,NA,NA,left,1685.29999999702,true,NA,NA,NA,NA,NA
uAIREnOt,3odop6t3bvxisk3y617o3pei3yp24c,31ibvunm9wc3abwj5uskli4cr41fvo,uAIREnOt,2020-0188,2021-10-14,10:23:24,11:38:32,NA,incomplete,false,true,NA,6,24,NA,yellow,m_s_015.jpg,NA,NA,unpleasant,pleasant,NA,NA,NA,NA,NA,right,1229,true,NA,NA,NA,NA,NA
uAIREnOt,3odop6t3bvxisk3y617o3pei3yp24c,31ibvunm9wc3abwj5uskli4cr41fvo,uAIREnOt,2020-0188,2021-10-14,10:23:24,11:38:32,NA,incomplete,false,true,NA,6,25,NA,yellow,m_l_055.jpg,NA,NA,unpleasant,pleasant,NA,NA,NA,NA,NA,left,1843.90000000596,true,NA,NA,NA,NA,NA
uAIREnOt,3odop6t3bvxisk3y617o3pei3yp24c,31ibvunm9wc3abwj5uskli4cr41fvo,uAIREnOt,2020-0188,2021-10-14,10:23:24,11:38:32,NA,incomplete,false,true,NA,6,26,NA,yellow,n_s_095.jpg,NA,NA,unpleasant,pleasant,NA,NA,NA,NA,NA,right,2211.79999999702,true,NA,NA,NA,NA,NA
uAIREnOt,3odop6t3bvxisk3y617o3pei3yp24c,31ibvunm9wc3abwj5uskli4cr41fvo,uAIREnOt,2020-0188,2021-10-14,10:23:24,11:38:32,NA,incomplete,false,true,NA,6,27,NA,yellow,m_s_029.jpg,NA,NA,pleasant,unpleasant,NA,NA,NA,NA,NA,left,1289.29999999702,true,NA,NA,NA,NA,NA
uAIREnOt,3odop6t3bvxisk3y617o3pei3yp24c,31ibvunm9wc3abwj5uskli4cr41fvo,uAIREnOt,2020-0188,2021-10-14,10:23:24,11:38:32,NA,incomplete,false,true,NA,6,28,NA,yellow,m_l_084.jpg,NA,NA,unpleasant,pleasant,NA,NA,NA,NA,NA,left,1604.79999999702,true,NA,NA,NA,NA,NA
uAIREnOt,3odop6t3bvxisk3y617o3pei3yp24c,31ibvunm9wc3abwj5uskli4cr41fvo,uAIREnOt,2020-0188,2021-10-14,10:23:24,11:38:32,NA,incomplete,false,true,NA,6,29,NA,yellow,m_l_060.jpg,NA,NA,unpleasant,pleasant,NA,NA,NA,NA,NA,right,1333.40000000596,true,NA,NA,NA,NA,NA
uAIREnOt,3odop6t3bvxisk3y617o3pei3yp24c,31ibvunm9wc3abwj5uskli4cr41fvo,uAIREnOt,2020-0188,2021-10-14,10:23:24,11:38:32,NA,incomplete,false,true,NA,6,30,NA,white,n_l_085.jpg,NA,NA,unpleasant,pleasant,NA,NA,NA,NA,NA,right,1861.89999999106,true,NA,NA,NA,NA,NA
uAIREnOt,3odop6t3bvxisk3y617o3pei3yp24c,31ibvunm9wc3abwj5uskli4cr41fvo,uAIREnOt,2020-0188,2021-10-14,10:23:24,11:38:32,NA,incomplete,false,true,NA,6,31,NA,white,n_l_052.jpg,NA,NA,pleasant,unpleasant,NA,NA,NA,NA,NA,left,1510.59999999404,true,NA,NA,NA,NA,NA
uAIREnOt,3odop6t3bvxisk3y617o3pei3yp24c,31ibvunm9wc3abwj5uskli4cr41fvo,uAIREnOt,2020-0188,2021-10-14,10:23:24,11:38:32,NA,incomplete,false,true,NA,6,32,NA,white,m_l_057.jpg,NA,NA,unpleasant,pleasant,NA,NA,NA,NA,NA,right,1204.5,true,NA,NA,NA,NA,NA
uAIREnOt,3odop6t3bvxisk3y617o3pei3yp24c,31ibvunm9wc3abwj5uskli4cr41fvo,uAIREnOt,2020-0188,2021-10-14,10:23:24,11:38:32,NA,incomplete,false,true,NA,6,33,NA,white,m_l_064.jpg,NA,NA,pleasant,unpleasant,NA,NA,NA,NA,NA,right,1531.30000001192,true,NA,NA,NA,NA,NA
uAIREnOt,3odop6t3bvxisk3y617o3pei3yp24c,31ibvunm9wc3abwj5uskli4cr41fvo,uAIREnOt,2020-0188,2021-10-14,10:23:24,11:38:32,NA,incomplete,false,true,NA,6,34,NA,white,m_l_076.jpg,NA,NA,unpleasant,pleasant,NA,NA,NA,NA,NA,right,1296.5,true,NA,NA,NA,NA,NA
uAIREnOt,3odop6t3bvxisk3y617o3pei3yp24c,31ibvunm9wc3abwj5uskli4cr41fvo,uAIREnOt,2020-0188,2021-10-14,10:23:24,11:38:32,NA,incomplete,false,true,NA,6,35,NA,white,m_l_022.jpg,NA,NA,pleasant,unpleasant,NA,NA,NA,NA,NA,left,1367.20000000298,true,NA,NA,NA,NA,NA
uAIREnOt,3odop6t3bvxisk3y617o3pei3yp24c,31ibvunm9wc3abwj5uskli4cr41fvo,uAIREnOt,2020-0188,2021-10-14,10:23:24,11:38:32,NA,incomplete,false,NA,true,6,0,NA,NA,NA,right,absent,NA,NA,m_s_019.jpg,orange,n_s_002.jpg,black,between,NA,NaN,NA,left,5881.70000000298,0,2,1640.7000000029802
uAIREnOt,3odop6t3bvxisk3y617o3pei3yp24c,31ibvunm9wc3abwj5uskli4cr41fvo,uAIREnOt,2020-0188,2021-10-14,10:23:24,11:38:32,NA,incomplete,false,NA,true,6,1,NA,NA,NA,right,absent,NA,NA,n_l_028.jpg,green,m_l_105.jpg,green,within,NA,NaN,NA,left,3327.8999999910593,0,2,1975.7999999970198
uAIREnOt,3odop6t3bvxisk3y617o3pei3yp24c,31ibvunm9wc3abwj5uskli4cr41fvo,uAIREnOt,2020-0188,2021-10-14,10:23:24,11:38:32,NA,incomplete,false,NA,true,6,2,NA,NA,NA,right,absent,NA,NA,n_s_090.jpg,brown,m_s_017.jpg,brown,within,NA,NaN,NA,right,5693.70000000298,1,2,1903.9000000059605
uAIREnOt,3odop6t3bvxisk3y617o3pei3yp24c,31ibvunm9wc3abwj5uskli4cr41fvo,uAIREnOt,2020-0188,2021-10-14,10:23:24,11:38:32,NA,incomplete,false,NA,true,6,3,NA,NA,NA,left,absent,NA,NA,m_l_084.jpg,yellow,m_l_057.jpg,white,between,NA,NaN,NA,left,4072.7000000029802,1,2,2400.0999999940395
uAIREnOt,3odop6t3bvxisk3y617o3pei3yp24c,31ibvunm9wc3abwj5uskli4cr41fvo,uAIREnOt,2020-0188,2021-10-14,10:23:24,11:38:32,NA,incomplete,false,NA,true,6,4,NA,NA,NA,right,absent,NA,NA,m_l_060.jpg,yellow,m_l_055.jpg,yellow,within,NA,NaN,NA,right,2932.8999999910593,1,0,1582.4000000059605
uAIREnOt,3odop6t3bvxisk3y617o3pei3yp24c,31ibvunm9wc3abwj5uskli4cr41fvo,uAIREnOt,2020-0188,2021-10-14,10:23:24,11:38:32,NA,incomplete,false,NA,true,6,5,NA,NA,NA,right,absent,NA,NA,m_l_022.jpg,white,n_l_052.jpg,white,within,NA,NaN,NA,right,7388.20000000298,1,1,1259.7999999970198
uAIREnOt,3odop6t3bvxisk3y617o3pei3yp24c,31ibvunm9wc3abwj5uskli4cr41fvo,uAIREnOt,2020-0188,2021-10-14,10:23:24,11:38:32,NA,incomplete,false,NA,true,6,6,NA,NA,NA,right,absent,NA,NA,n_l_101.jpg,black,m_s_027.jpg,black,within,NA,NaN,NA,left,5044.5,0,0,1455.300000011921
uAIREnOt,3odop6t3bvxisk3y617o3pei3yp24c,31ibvunm9wc3abwj5uskli4cr41fvo,uAIREnOt,2020-0188,2021-10-14,10:23:24,11:38:32,NA,incomplete,false,NA,true,6,7,NA,NA,NA,left,absent,NA,NA,m_s_059.jpg,green,n_l_060.jpg,black,between,NA,NaN,NA,left,6397.79999999702,1,2,1246.2000000029802
uAIREnOt,3odop6t3bvxisk3y617o3pei3yp24c,31ibvunm9wc3abwj5uskli4cr41fvo,uAIREnOt,2020-0188,2021-10-14,10:23:24,11:38:32,NA,incomplete,false,NA,true,6,8,NA,NA,NA,right,absent,NA,NA,n_s_095.jpg,yellow,n_s_040.jpg,orange,between,NA,NaN,NA,right,8181.399999991059,1,2,1916.2000000029802
uAIREnOt,3odop6t3bvxisk3y617o3pei3yp24c,31ibvunm9wc3abwj5uskli4cr41fvo,uAIREnOt,2020-0188,2021-10-14,10:23:24,11:38:32,NA,incomplete,false,NA,true,6,9,NA,NA,NA,left,absent,NA,NA,n_s_037.jpg,orange,n_s_027.jpg,orange,within,NA,NaN,NA,left,5037.79999999702,1,1,1830.7000000029802
uAIREnOt,3odop6t3bvxisk3y617o3pei3yp24c,31ibvunm9wc3abwj5uskli4cr41fvo,uAIREnOt,2020-0188,2021-10-14,10:23:24,11:38:32,NA,incomplete,false,NA,true,6,10,NA,NA,NA,left,absent,NA,NA,m_l_053.jpg,brown,n_l_044.jpg,green,between,NA,NaN,NA,right,6082.5,0,2,1480.7999999970198
uAIREnOt,3odop6t3bvxisk3y617o3pei3yp24c,31ibvunm9wc3abwj5uskli4cr41fvo,uAIREnOt,2020-0188,2021-10-14,10:23:24,11:38:32,NA,incomplete,false,true,NA,7,0,NA,white,m_l_074.jpg,NA,NA,pleasant,unpleasant,NA,NA,NA,NA,NA,left,1918.79999999702,true,NA,NA,NA,NA,NA
uAIREnOt,3odop6t3bvxisk3y617o3pei3yp24c,31ibvunm9wc3abwj5uskli4cr41fvo,uAIREnOt,2020-0188,2021-10-14,10:23:24,11:38:32,NA,incomplete,false,true,NA,7,1,NA,white,m_s_009.jpg,NA,NA,pleasant,unpleasant,NA,NA,NA,NA,NA,right,1469.89999999106,true,NA,NA,NA,NA,NA
uAIREnOt,3odop6t3bvxisk3y617o3pei3yp24c,31ibvunm9wc3abwj5uskli4cr41fvo,uAIREnOt,2020-0188,2021-10-14,10:23:24,11:38:32,NA,incomplete,false,true,NA,7,2,NA,white,n_l_114.jpg,NA,NA,pleasant,unpleasant,NA,NA,NA,NA,NA,right,2059.59999999404,true,NA,NA,NA,NA,NA
uAIREnOt,3odop6t3bvxisk3y617o3pei3yp24c,31ibvunm9wc3abwj5uskli4cr41fvo,uAIREnOt,2020-0188,2021-10-14,10:23:24,11:38:32,NA,incomplete,false,true,NA,7,3,NA,white,n_s_065.jpg,NA,NA,unpleasant,pleasant,NA,NA,NA,NA,NA,left,1661.59999999404,true,NA,NA,NA,NA,NA
uAIREnOt,3odop6t3bvxisk3y617o3pei3yp24c,31ibvunm9wc3abwj5uskli4cr41fvo,uAIREnOt,2020-0188,2021-10-14,10:23:24,11:38:32,NA,incomplete,false,true,NA,7,4,NA,white,n_l_048.jpg,NA,NA,unpleasant,pleasant,NA,NA,NA,NA,NA,right,1577,true,NA,NA,NA,NA,NA
uAIREnOt,3odop6t3bvxisk3y617o3pei3yp24c,31ibvunm9wc3abwj5uskli4cr41fvo,uAIREnOt,2020-0188,2021-10-14,10:23:24,11:38:32,NA,incomplete,false,true,NA,7,5,NA,white,m_s_109.jpg,NA,NA,unpleasant,pleasant,NA,NA,NA,NA,NA,left,1029.69999998808,true,NA,NA,NA,NA,NA
uAIREnOt,3odop6t3bvxisk3y617o3pei3yp24c,31ibvunm9wc3abwj5uskli4cr41fvo,uAIREnOt,2020-0188,2021-10-14,10:23:24,11:38:32,NA,incomplete,false,true,NA,7,6,NA,gray,m_s_043.jpg,NA,NA,unpleasant,pleasant,NA,NA,NA,NA,NA,right,1563.40000000596,true,NA,NA,NA,NA,NA
uAIREnOt,3odop6t3bvxisk3y617o3pei3yp24c,31ibvunm9wc3abwj5uskli4cr41fvo,uAIREnOt,2020-0188,2021-10-14,10:23:24,11:38:32,NA,incomplete,false,true,NA,7,7,NA,gray,m_s_096.jpg,NA,NA,pleasant,unpleasant,NA,NA,NA,NA,NA,left,1679.90000000596,true,NA,NA,NA,NA,NA
uAIREnOt,3odop6t3bvxisk3y617o3pei3yp24c,31ibvunm9wc3abwj5uskli4cr41fvo,uAIREnOt,2020-0188,2021-10-14,10:23:24,11:38:32,NA,incomplete,false,true,NA,7,8,NA,gray,m_s_108.jpg,NA,NA,unpleasant,pleasant,NA,NA,NA,NA,NA,left,1913.70000000298,true,NA,NA,NA,NA,NA
uAIREnOt,3odop6t3bvxisk3y617o3pei3yp24c,31ibvunm9wc3abwj5uskli4cr41fvo,uAIREnOt,2020-0188,2021-10-14,10:23:24,11:38:32,NA,incomplete,false,true,NA,7,9,NA,gray,m_l_086.jpg,NA,NA,unpleasant,pleasant,NA,NA,NA,NA,NA,right,1314.90000000596,true,NA,NA,NA,NA,NA
uAIREnOt,3odop6t3bvxisk3y617o3pei3yp24c,31ibvunm9wc3abwj5uskli4cr41fvo,uAIREnOt,2020-0188,2021-10-14,10:23:24,11:38:32,NA,incomplete,false,true,NA,7,10,NA,gray,m_l_095.jpg,NA,NA,pleasant,unpleasant,NA,NA,NA,NA,NA,right,1719.79999999702,true,NA,NA,NA,NA,NA
uAIREnOt,3odop6t3bvxisk3y617o3pei3yp24c,31ibvunm9wc3abwj5uskli4cr41fvo,uAIREnOt,2020-0188,2021-10-14,10:23:24,11:38:32,NA,incomplete,false,true,NA,7,11,NA,gray,m_l_077.jpg,NA,NA,pleasant,unpleasant,NA,NA,NA,NA,NA,left,1214.5,true,NA,NA,NA,NA,NA
uAIREnOt,3odop6t3bvxisk3y617o3pei3yp24c,31ibvunm9wc3abwj5uskli4cr41fvo,uAIREnOt,2020-0188,2021-10-14,10:23:24,11:38:32,NA,incomplete,false,true,NA,7,12,NA,black,m_s_106.jpg,NA,NA,unpleasant,pleasant,NA,NA,NA,NA,NA,right,1596,true,NA,NA,NA,NA,NA
uAIREnOt,3odop6t3bvxisk3y617o3pei3yp24c,31ibvunm9wc3abwj5uskli4cr41fvo,uAIREnOt,2020-0188,2021-10-14,10:23:24,11:38:32,NA,incomplete,false,true,NA,7,13,NA,black,m_s_058.jpg,NA,NA,pleasant,unpleasant,NA,NA,NA,NA,NA,left,1322,true,NA,NA,NA,NA,NA
uAIREnOt,3odop6t3bvxisk3y617o3pei3yp24c,31ibvunm9wc3abwj5uskli4cr41fvo,uAIREnOt,2020-0188,2021-10-14,10:23:24,11:38:32,NA,incomplete,false,true,NA,7,14,NA,black,m_s_045.jpg,NA,NA,unpleasant,pleasant,NA,NA,NA,NA,NA,right,1252.40000000596,true,NA,NA,NA,NA,NA
uAIREnOt,3odop6t3bvxisk3y617o3pei3yp24c,31ibvunm9wc3abwj5uskli4cr41fvo,uAIREnOt,2020-0188,2021-10-14,10:23:24,11:38:32,NA,incomplete,false,true,NA,7,15,NA,black,n_s_030.jpg,NA,NA,unpleasant,pleasant,NA,NA,NA,NA,NA,left,1008.20000000298,true,NA,NA,NA,NA,NA
uAIREnOt,3odop6t3bvxisk3y617o3pei3yp24c,31ibvunm9wc3abwj5uskli4cr41fvo,uAIREnOt,2020-0188,2021-10-14,10:23:24,11:38:32,NA,incomplete,false,true,NA,7,16,NA,black,m_s_091.jpg,NA,NA,pleasant,unpleasant,NA,NA,NA,NA,NA,left,1892,true,NA,NA,NA,NA,NA
uAIREnOt,3odop6t3bvxisk3y617o3pei3yp24c,31ibvunm9wc3abwj5uskli4cr41fvo,uAIREnOt,2020-0188,2021-10-14,10:23:24,11:38:32,NA,incomplete,false,true,NA,7,17,NA,black,m_s_001.jpg,NA,NA,unpleasant,pleasant,NA,NA,NA,NA,NA,right,1760.59999999404,true,NA,NA,NA,NA,NA
uAIREnOt,3odop6t3bvxisk3y617o3pei3yp24c,31ibvunm9wc3abwj5uskli4cr41fvo,uAIREnOt,2020-0188,2021-10-14,10:23:24,11:38:32,NA,incomplete,false,true,NA,7,18,NA,red,n_l_086.jpg,NA,NA,unpleasant,pleasant,NA,NA,NA,NA,NA,left,1142.60000000894,true,NA,NA,NA,NA,NA
uAIREnOt,3odop6t3bvxisk3y617o3pei3yp24c,31ibvunm9wc3abwj5uskli4cr41fvo,uAIREnOt,2020-0188,2021-10-14,10:23:24,11:38:32,NA,incomplete,false,true,NA,7,19,NA,red,n_l_011.jpg,NA,NA,pleasant,unpleasant,NA,NA,NA,NA,NA,right,1228.79999999702,true,NA,NA,NA,NA,NA
uAIREnOt,3odop6t3bvxisk3y617o3pei3yp24c,31ibvunm9wc3abwj5uskli4cr41fvo,uAIREnOt,2020-0188,2021-10-14,10:23:24,11:38:32,NA,incomplete,false,true,NA,7,20,NA,red,n_s_077.jpg,NA,NA,unpleasant,pleasant,NA,NA,NA,NA,NA,right,2534.59999999404,true,NA,NA,NA,NA,NA
uAIREnOt,3odop6t3bvxisk3y617o3pei3yp24c,31ibvunm9wc3abwj5uskli4cr41fvo,uAIREnOt,2020-0188,2021-10-14,10:23:24,11:38:32,NA,incomplete,false,true,NA,7,21,NA,red,n_l_071.jpg,NA,NA,pleasant,unpleasant,NA,NA,NA,NA,NA,right,1935.79999999702,true,NA,NA,NA,NA,NA
uAIREnOt,3odop6t3bvxisk3y617o3pei3yp24c,31ibvunm9wc3abwj5uskli4cr41fvo,uAIREnOt,2020-0188,2021-10-14,10:23:24,11:38:32,NA,incomplete,false,true,NA,7,22,NA,red,n_s_102.jpg,NA,NA,pleasant,unpleasant,NA,NA,NA,NA,NA,left,1246.30000001192,true,NA,NA,NA,NA,NA
uAIREnOt,3odop6t3bvxisk3y617o3pei3yp24c,31ibvunm9wc3abwj5uskli4cr41fvo,uAIREnOt,2020-0188,2021-10-14,10:23:24,11:38:32,NA,incomplete,false,true,NA,7,23,NA,red,n_l_056.jpg,NA,NA,unpleasant,pleasant,NA,NA,NA,NA,NA,left,1139.70000000298,true,NA,NA,NA,NA,NA
uAIREnOt,3odop6t3bvxisk3y617o3pei3yp24c,31ibvunm9wc3abwj5uskli4cr41fvo,uAIREnOt,2020-0188,2021-10-14,10:23:24,11:38:32,NA,incomplete,false,true,NA,7,24,NA,brown,n_l_024.jpg,NA,NA,unpleasant,pleasant,NA,NA,NA,NA,NA,right,1629.89999999106,true,NA,NA,NA,NA,NA
uAIREnOt,3odop6t3bvxisk3y617o3pei3yp24c,31ibvunm9wc3abwj5uskli4cr41fvo,uAIREnOt,2020-0188,2021-10-14,10:23:24,11:38:32,NA,incomplete,false,true,NA,7,25,NA,brown,m_s_002.jpg,NA,NA,pleasant,unpleasant,NA,NA,NA,NA,NA,right,1483.59999999404,true,NA,NA,NA,NA,NA
uAIREnOt,3odop6t3bvxisk3y617o3pei3yp24c,31ibvunm9wc3abwj5uskli4cr41fvo,uAIREnOt,2020-0188,2021-10-14,10:23:24,11:38:32,NA,incomplete,false,true,NA,7,26,NA,brown,m_s_086.jpg,NA,NA,unpleasant,pleasant,NA,NA,NA,NA,NA,right,1973.89999999106,true,NA,NA,NA,NA,NA
uAIREnOt,3odop6t3bvxisk3y617o3pei3yp24c,31ibvunm9wc3abwj5uskli4cr41fvo,uAIREnOt,2020-0188,2021-10-14,10:23:24,11:38:32,NA,incomplete,false,true,NA,7,27,NA,brown,m_s_049.jpg,NA,NA,pleasant,unpleasant,NA,NA,NA,NA,NA,right,1571.29999999702,true,NA,NA,NA,NA,NA
uAIREnOt,3odop6t3bvxisk3y617o3pei3yp24c,31ibvunm9wc3abwj5uskli4cr41fvo,uAIREnOt,2020-0188,2021-10-14,10:23:24,11:38:32,NA,incomplete,false,true,NA,7,28,NA,brown,m_l_045.jpg,NA,NA,pleasant,unpleasant,NA,NA,NA,NA,NA,left,2092.70000000298,true,NA,NA,NA,NA,NA
uAIREnOt,3odop6t3bvxisk3y617o3pei3yp24c,31ibvunm9wc3abwj5uskli4cr41fvo,uAIREnOt,2020-0188,2021-10-14,10:23:24,11:38:32,NA,incomplete,false,true,NA,7,29,NA,brown,n_l_030.jpg,NA,NA,pleasant,unpleasant,NA,NA,NA,NA,NA,right,2442,true,NA,NA,NA,NA,NA
uAIREnOt,3odop6t3bvxisk3y617o3pei3yp24c,31ibvunm9wc3abwj5uskli4cr41fvo,uAIREnOt,2020-0188,2021-10-14,10:23:24,11:38:32,NA,incomplete,false,true,NA,7,30,NA,green,n_l_013.jpg,NA,NA,unpleasant,pleasant,NA,NA,NA,NA,NA,left,1400.89999999106,true,NA,NA,NA,NA,NA
uAIREnOt,3odop6t3bvxisk3y617o3pei3yp24c,31ibvunm9wc3abwj5uskli4cr41fvo,uAIREnOt,2020-0188,2021-10-14,10:23:24,11:38:32,NA,incomplete,false,true,NA,7,31,NA,green,m_l_042.jpg,NA,NA,pleasant,unpleasant,NA,NA,NA,NA,NA,left,1194.09999999404,true,NA,NA,NA,NA,NA
uAIREnOt,3odop6t3bvxisk3y617o3pei3yp24c,31ibvunm9wc3abwj5uskli4cr41fvo,uAIREnOt,2020-0188,2021-10-14,10:23:24,11:38:32,NA,incomplete,false,true,NA,7,32,NA,green,n_l_003.jpg,NA,NA,unpleasant,pleasant,NA,NA,NA,NA,NA,right,1447,true,NA,NA,NA,NA,NA
uAIREnOt,3odop6t3bvxisk3y617o3pei3yp24c,31ibvunm9wc3abwj5uskli4cr41fvo,uAIREnOt,2020-0188,2021-10-14,10:23:24,11:38:32,NA,incomplete,false,true,NA,7,33,NA,green,n_s_058.jpg,NA,NA,pleasant,unpleasant,NA,NA,NA,NA,NA,left,1702.29999999702,true,NA,NA,NA,NA,NA
uAIREnOt,3odop6t3bvxisk3y617o3pei3yp24c,31ibvunm9wc3abwj5uskli4cr41fvo,uAIREnOt,2020-0188,2021-10-14,10:23:24,11:38:32,NA,incomplete,false,true,NA,7,34,NA,green,n_l_046.jpg,NA,NA,pleasant,unpleasant,NA,NA,NA,NA,NA,right,1009.19999998808,true,NA,NA,NA,NA,NA
uAIREnOt,3odop6t3bvxisk3y617o3pei3yp24c,31ibvunm9wc3abwj5uskli4cr41fvo,uAIREnOt,2020-0188,2021-10-14,10:23:24,11:38:32,NA,incomplete,false,true,NA,7,35,NA,green,m_l_110.jpg,NA,NA,unpleasant,pleasant,NA,NA,NA,NA,NA,left,1639.20000000298,true,NA,NA,NA,NA,NA
uAIREnOt,3odop6t3bvxisk3y617o3pei3yp24c,31ibvunm9wc3abwj5uskli4cr41fvo,uAIREnOt,2020-0188,2021-10-14,10:23:24,11:38:32,NA,incomplete,false,NA,true,7,0,NA,NA,NA,right,absent,NA,NA,n_l_030.jpg,brown,m_s_002.jpg,brown,within,NA,NaN,NA,right,5725.79999999702,1,0,1659.7000000029802
uAIREnOt,3odop6t3bvxisk3y617o3pei3yp24c,31ibvunm9wc3abwj5uskli4cr41fvo,uAIREnOt,2020-0188,2021-10-14,10:23:24,11:38:32,NA,incomplete,false,NA,true,7,1,NA,NA,NA,right,absent,NA,NA,m_s_086.jpg,brown,n_s_102.jpg,red,between,NA,NaN,NA,left,7810.5999999940395,0,2,1456
uAIREnOt,3odop6t3bvxisk3y617o3pei3yp24c,31ibvunm9wc3abwj5uskli4cr41fvo,uAIREnOt,2020-0188,2021-10-14,10:23:24,11:38:32,NA,incomplete,false,NA,true,7,2,NA,NA,NA,right,absent,NA,NA,m_s_109.jpg,white,m_s_009.jpg,white,within,NA,NaN,NA,right,2825.9000000059605,1,1,1257.699999988079
uAIREnOt,3odop6t3bvxisk3y617o3pei3yp24c,31ibvunm9wc3abwj5uskli4cr41fvo,uAIREnOt,2020-0188,2021-10-14,10:23:24,11:38:32,NA,incomplete,false,NA,true,7,3,NA,NA,NA,left,absent,NA,NA,m_s_058.jpg,black,m_s_001.jpg,black,within,NA,NaN,NA,left,3127.9000000059605,1,1,2064.9000000059605
uAIREnOt,3odop6t3bvxisk3y617o3pei3yp24c,31ibvunm9wc3abwj5uskli4cr41fvo,uAIREnOt,2020-0188,2021-10-14,10:23:24,11:38:32,NA,incomplete,false,NA,true,7,4,NA,NA,NA,right,absent,NA,NA,n_l_003.jpg,green,m_l_045.jpg,brown,between,NA,NaN,NA,right,5704.199999988079,1,2,1731.199999988079
uAIREnOt,3odop6t3bvxisk3y617o3pei3yp24c,31ibvunm9wc3abwj5uskli4cr41fvo,uAIREnOt,2020-0188,2021-10-14,10:23:24,11:38:32,NA,incomplete,false,NA,true,7,5,NA,NA,NA,right,absent,NA,NA,m_l_077.jpg,gray,m_s_096.jpg,gray,within,NA,NaN,NA,right,6480.100000008941,1,1,1195.5999999940395
uAIREnOt,3odop6t3bvxisk3y617o3pei3yp24c,31ibvunm9wc3abwj5uskli4cr41fvo,uAIREnOt,2020-0188,2021-10-14,10:23:24,11:38:32,NA,incomplete,false,NA,true,7,6,NA,NA,NA,left,absent,NA,NA,m_l_042.jpg,green,m_l_110.jpg,green,within,NA,NaN,NA,left,2845.6000000089407,1,1,1347.7999999970198
uAIREnOt,3odop6t3bvxisk3y617o3pei3yp24c,31ibvunm9wc3abwj5uskli4cr41fvo,uAIREnOt,2020-0188,2021-10-14,10:23:24,11:38:32,NA,incomplete,false,NA,true,7,7,NA,NA,NA,left,absent,NA,NA,m_l_095.jpg,gray,m_s_045.jpg,black,between,NA,NaN,NA,right,4217.70000000298,0,2,1382.5
uAIREnOt,3odop6t3bvxisk3y617o3pei3yp24c,31ibvunm9wc3abwj5uskli4cr41fvo,uAIREnOt,2020-0188,2021-10-14,10:23:24,11:38:32,NA,incomplete,false,NA,true,7,8,NA,NA,NA,right,absent,NA,NA,m_s_108.jpg,gray,n_l_048.jpg,white,between,NA,NaN,NA,right,5778.5999999940395,1,1,1297.7000000029802
uAIREnOt,3odop6t3bvxisk3y617o3pei3yp24c,31ibvunm9wc3abwj5uskli4cr41fvo,uAIREnOt,2020-0188,2021-10-14,10:23:24,11:38:32,NA,incomplete,false,NA,true,7,9,NA,NA,NA,left,absent,NA,NA,n_l_011.jpg,red,n_l_056.jpg,red,within,NA,NaN,NA,right,5819.5,0,1,1212.0999999940395
uAIREnOt,3odop6t3bvxisk3y617o3pei3yp24c,31ibvunm9wc3abwj5uskli4cr41fvo,uAIREnOt,2020-0188,2021-10-14,10:23:24,11:38:32,NA,incomplete,false,NA,true,7,10,NA,NA,NA,left,absent,NA,NA,m_s_091.jpg,black,n_s_077.jpg,red,between,NA,NaN,NA,left,4235.79999999702,1,2,2410.2000000029802
uAIREnOt,3odop6t3bvxisk3y617o3pei3yp24c,31ibvunm9wc3abwj5uskli4cr41fvo,uAIREnOt,2020-0188,2021-10-14,10:23:24,11:38:32,NA,incomplete,false,true,NA,8,0,NA,red,m_l_025.jpg,NA,NA,unpleasant,pleasant,NA,NA,NA,NA,NA,right,2347.20000000298,true,NA,NA,NA,NA,NA
uAIREnOt,3odop6t3bvxisk3y617o3pei3yp24c,31ibvunm9wc3abwj5uskli4cr41fvo,uAIREnOt,2020-0188,2021-10-14,10:23:24,11:38:32,NA,incomplete,false,true,NA,8,1,NA,red,m_l_117.jpg,NA,NA,unpleasant,pleasant,NA,NA,NA,NA,NA,left,1524.09999999404,true,NA,NA,NA,NA,NA
uAIREnOt,3odop6t3bvxisk3y617o3pei3yp24c,31ibvunm9wc3abwj5uskli4cr41fvo,uAIREnOt,2020-0188,2021-10-14,10:23:24,11:38:32,NA,incomplete,false,true,NA,8,2,NA,red,n_s_068.jpg,NA,NA,unpleasant,pleasant,NA,NA,NA,NA,NA,right,1724.39999999106,true,NA,NA,NA,NA,NA
uAIREnOt,3odop6t3bvxisk3y617o3pei3yp24c,31ibvunm9wc3abwj5uskli4cr41fvo,uAIREnOt,2020-0188,2021-10-14,10:23:24,11:38:32,NA,incomplete,false,true,NA,8,3,NA,red,n_l_049.jpg,NA,NA,unpleasant,pleasant,NA,NA,NA,NA,NA,left,1510.40000000596,true,NA,NA,NA,NA,NA
uAIREnOt,3odop6t3bvxisk3y617o3pei3yp24c,31ibvunm9wc3abwj5uskli4cr41fvo,uAIREnOt,2020-0188,2021-10-14,10:23:24,11:38:32,NA,incomplete,false,true,NA,8,4,NA,red,m_s_081.jpg,NA,NA,unpleasant,pleasant,NA,NA,NA,NA,NA,right,1792.20000000298,true,NA,NA,NA,NA,NA
uAIREnOt,3odop6t3bvxisk3y617o3pei3yp24c,31ibvunm9wc3abwj5uskli4cr41fvo,uAIREnOt,2020-0188,2021-10-14,10:23:24,11:38:32,NA,incomplete,false,true,NA,8,5,NA,red,n_l_001.jpg,NA,NA,pleasant,unpleasant,NA,NA,NA,NA,NA,right,2143.29999999702,true,NA,NA,NA,NA,NA
uAIREnOt,3odop6t3bvxisk3y617o3pei3yp24c,31ibvunm9wc3abwj5uskli4cr41fvo,uAIREnOt,2020-0188,2021-10-14,10:23:24,11:38:32,NA,incomplete,false,true,NA,8,6,NA,green,m_s_087.jpg,NA,NA,unpleasant,pleasant,NA,NA,NA,NA,NA,right,1659.89999999106,true,NA,NA,NA,NA,NA
uAIREnOt,3odop6t3bvxisk3y617o3pei3yp24c,31ibvunm9wc3abwj5uskli4cr41fvo,uAIREnOt,2020-0188,2021-10-14,10:23:24,11:38:32,NA,incomplete,false,true,NA,8,7,NA,green,m_l_040.jpg,NA,NA,pleasant,unpleasant,NA,NA,NA,NA,NA,right,2409.40000000596,true,NA,NA,NA,NA,NA
