workerId,hitId,assignmentId,subject,studyid,exp_date,exp_start,exp_end,time_start,time_end,practice,encoding,memory,block,trial,event_order,event,stim,answer,context_type,label_left,label_right,left_image,left_event,right_image,right_event,condition,response,response_time,response_acc,order_response,order_response_time,order_acc,distance_response,distance_response_time
Uid2yFes,322zsn9z6jxccjxbpgrk4cn83gtt4w,3qemnnsb21c411hrwquer4lote67df,Uid2yFes,2020-0188,2021-10-15,11:17:41,12:24:19,NA,incomplete,true,true,NA,0,0,NA,purple,n_s_108.jpg,NA,NA,unpleasant,pleasant,NA,NA,NA,NA,NA,left,1332.20000004768,true,NA,NA,NA,NA,NA
Uid2yFes,322zsn9z6jxccjxbpgrk4cn83gtt4w,3qemnnsb21c411hrwquer4lote67df,Uid2yFes,2020-0188,2021-10-15,11:17:41,12:24:19,NA,incomplete,true,true,NA,0,1,NA,purple,n_l_052.jpg,NA,NA,pleasant,unpleasant,NA,NA,NA,NA,NA,left,2107.70000004768,true,NA,NA,NA,NA,NA
Uid2yFes,322zsn9z6jxccjxbpgrk4cn83gtt4w,3qemnnsb21c411hrwquer4lote67df,Uid2yFes,2020-0188,2021-10-15,11:17:41,12:24:19,NA,incomplete,true,true,NA,0,2,NA,purple,n_l_100.jpg,NA,NA,pleasant,unpleasant,NA,NA,NA,NA,NA,left,1428.79999995232,true,NA,NA,NA,NA,NA
Uid2yFes,322zsn9z6jxccjxbpgrk4cn83gtt4w,3qemnnsb21c411hrwquer4lote67df,Uid2yFes,2020-0188,2021-10-15,11:17:41,12:24:19,NA,incomplete,true,true,NA,0,3,NA,purple,n_s_015.jpg,NA,NA,unpleasant,pleasant,NA,NA,NA,NA,NA,left,1279.70000004768,true,NA,NA,NA,NA,NA
Uid2yFes,322zsn9z6jxccjxbpgrk4cn83gtt4w,3qemnnsb21c411hrwquer4lote67df,Uid2yFes,2020-0188,2021-10-15,11:17:41,12:24:19,NA,incomplete,true,true,NA,0,4,NA,purple,m_s_065.jpg,NA,NA,pleasant,unpleasant,NA,NA,NA,NA,NA,left,1281.39999985695,true,NA,NA,NA,NA,NA
Uid2yFes,322zsn9z6jxccjxbpgrk4cn83gtt4w,3qemnnsb21c411hrwquer4lote67df,Uid2yFes,2020-0188,2021-10-15,11:17:41,12:24:19,NA,incomplete,true,true,NA,0,5,NA,purple,m_s_107.jpg,NA,NA,unpleasant,pleasant,NA,NA,NA,NA,NA,left,1674.90000009537,true,NA,NA,NA,NA,NA
Uid2yFes,322zsn9z6jxccjxbpgrk4cn83gtt4w,3qemnnsb21c411hrwquer4lote67df,Uid2yFes,2020-0188,2021-10-15,11:17:41,12:24:19,NA,incomplete,true,true,NA,0,6,NA,gray,m_s_008.jpg,NA,NA,unpleasant,pleasant,NA,NA,NA,NA,NA,right,1278.29999995232,true,NA,NA,NA,NA,NA
Uid2yFes,322zsn9z6jxccjxbpgrk4cn83gtt4w,3qemnnsb21c411hrwquer4lote67df,Uid2yFes,2020-0188,2021-10-15,11:17:41,12:24:19,NA,incomplete,true,true,NA,0,7,NA,gray,m_l_104.jpg,NA,NA,pleasant,unpleasant,NA,NA,NA,NA,NA,right,1787.09999990463,true,NA,NA,NA,NA,NA
Uid2yFes,322zsn9z6jxccjxbpgrk4cn83gtt4w,3qemnnsb21c411hrwquer4lote67df,Uid2yFes,2020-0188,2021-10-15,11:17:41,12:24:19,NA,incomplete,true,true,NA,0,8,NA,gray,m_l_072.jpg,NA,NA,pleasant,unpleasant,NA,NA,NA,NA,NA,left,1989.5,true,NA,NA,NA,NA,NA
Uid2yFes,322zsn9z6jxccjxbpgrk4cn83gtt4w,3qemnnsb21c411hrwquer4lote67df,Uid2yFes,2020-0188,2021-10-15,11:17:41,12:24:19,NA,incomplete,true,true,NA,0,9,NA,gray,n_l_072.jpg,NA,NA,pleasant,unpleasant,NA,NA,NA,NA,NA,right,1315.39999985695,true,NA,NA,NA,NA,NA
Uid2yFes,322zsn9z6jxccjxbpgrk4cn83gtt4w,3qemnnsb21c411hrwquer4lote67df,Uid2yFes,2020-0188,2021-10-15,11:17:41,12:24:19,NA,incomplete,true,true,NA,0,10,NA,gray,n_s_052.jpg,NA,NA,unpleasant,pleasant,NA,NA,NA,NA,NA,right,1434,true,NA,NA,NA,NA,NA
Uid2yFes,322zsn9z6jxccjxbpgrk4cn83gtt4w,3qemnnsb21c411hrwquer4lote67df,Uid2yFes,2020-0188,2021-10-15,11:17:41,12:24:19,NA,incomplete,true,true,NA,0,11,NA,gray,n_l_075.jpg,NA,NA,pleasant,unpleasant,NA,NA,NA,NA,NA,left,1665.5,true,NA,NA,NA,NA,NA
Uid2yFes,322zsn9z6jxccjxbpgrk4cn83gtt4w,3qemnnsb21c411hrwquer4lote67df,Uid2yFes,2020-0188,2021-10-15,11:17:41,12:24:19,NA,incomplete,true,true,NA,0,12,NA,orange,n_l_095.jpg,NA,NA,unpleasant,pleasant,NA,NA,NA,NA,NA,right,1325.10000014305,true,NA,NA,NA,NA,NA
Uid2yFes,322zsn9z6jxccjxbpgrk4cn83gtt4w,3qemnnsb21c411hrwquer4lote67df,Uid2yFes,2020-0188,2021-10-15,11:17:41,12:24:19,NA,incomplete,true,true,NA,0,13,NA,orange,m_l_059.jpg,NA,NA,unpleasant,pleasant,NA,NA,NA,NA,NA,left,1012.70000004768,true,NA,NA,NA,NA,NA
Uid2yFes,322zsn9z6jxccjxbpgrk4cn83gtt4w,3qemnnsb21c411hrwquer4lote67df,Uid2yFes,2020-0188,2021-10-15,11:17:41,12:24:19,NA,incomplete,true,true,NA,0,14,NA,orange,m_l_066.jpg,NA,NA,pleasant,unpleasant,NA,NA,NA,NA,NA,right,1581.40000009537,true,NA,NA,NA,NA,NA
Uid2yFes,322zsn9z6jxccjxbpgrk4cn83gtt4w,3qemnnsb21c411hrwquer4lote67df,Uid2yFes,2020-0188,2021-10-15,11:17:41,12:24:19,NA,incomplete,true,true,NA,0,15,NA,orange,n_l_019.jpg,NA,NA,pleasant,unpleasant,NA,NA,NA,NA,NA,left,1258,true,NA,NA,NA,NA,NA
Uid2yFes,322zsn9z6jxccjxbpgrk4cn83gtt4w,3qemnnsb21c411hrwquer4lote67df,Uid2yFes,2020-0188,2021-10-15,11:17:41,12:24:19,NA,incomplete,true,true,NA,0,16,NA,orange,m_s_084.jpg,NA,NA,pleasant,unpleasant,NA,NA,NA,NA,NA,right,1635.89999985695,true,NA,NA,NA,NA,NA
Uid2yFes,322zsn9z6jxccjxbpgrk4cn83gtt4w,3qemnnsb21c411hrwquer4lote67df,Uid2yFes,2020-0188,2021-10-15,11:17:41,12:24:19,NA,incomplete,true,true,NA,0,17,NA,orange,n_l_066.jpg,NA,NA,pleasant,unpleasant,NA,NA,NA,NA,NA,right,1443.19999980927,true,NA,NA,NA,NA,NA
Uid2yFes,322zsn9z6jxccjxbpgrk4cn83gtt4w,3qemnnsb21c411hrwquer4lote67df,Uid2yFes,2020-0188,2021-10-15,11:17:41,12:24:19,NA,incomplete,true,true,NA,0,18,NA,white,n_s_082.jpg,NA,NA,unpleasant,pleasant,NA,NA,NA,NA,NA,right,1407.69999980927,true,NA,NA,NA,NA,NA
Uid2yFes,322zsn9z6jxccjxbpgrk4cn83gtt4w,3qemnnsb21c411hrwquer4lote67df,Uid2yFes,2020-0188,2021-10-15,11:17:41,12:24:19,NA,incomplete,true,true,NA,0,19,NA,white,m_s_105.jpg,NA,NA,pleasant,unpleasant,NA,NA,NA,NA,NA,left,1246.59999990463,true,NA,NA,NA,NA,NA
Uid2yFes,322zsn9z6jxccjxbpgrk4cn83gtt4w,3qemnnsb21c411hrwquer4lote67df,Uid2yFes,2020-0188,2021-10-15,11:17:41,12:24:19,NA,incomplete,true,true,NA,0,20,NA,white,n_s_018.jpg,NA,NA,unpleasant,pleasant,NA,NA,NA,NA,NA,left,1518.09999990463,true,NA,NA,NA,NA,NA
Uid2yFes,322zsn9z6jxccjxbpgrk4cn83gtt4w,3qemnnsb21c411hrwquer4lote67df,Uid2yFes,2020-0188,2021-10-15,11:17:41,12:24:19,NA,incomplete,true,true,NA,0,21,NA,white,m_s_073.jpg,NA,NA,unpleasant,pleasant,NA,NA,NA,NA,NA,right,1493.80000019073,true,NA,NA,NA,NA,NA
Uid2yFes,322zsn9z6jxccjxbpgrk4cn83gtt4w,3qemnnsb21c411hrwquer4lote67df,Uid2yFes,2020-0188,2021-10-15,11:17:41,12:24:19,NA,incomplete,true,true,NA,0,22,NA,white,n_l_014.jpg,NA,NA,pleasant,unpleasant,NA,NA,NA,NA,NA,left,1133.70000004768,true,NA,NA,NA,NA,NA
Uid2yFes,322zsn9z6jxccjxbpgrk4cn83gtt4w,3qemnnsb21c411hrwquer4lote67df,Uid2yFes,2020-0188,2021-10-15,11:17:41,12:24:19,NA,incomplete,true,true,NA,0,23,NA,white,m_l_092.jpg,NA,NA,unpleasant,pleasant,NA,NA,NA,NA,NA,right,1152.89999985695,true,NA,NA,NA,NA,NA
Uid2yFes,322zsn9z6jxccjxbpgrk4cn83gtt4w,3qemnnsb21c411hrwquer4lote67df,Uid2yFes,2020-0188,2021-10-15,11:17:41,12:24:19,NA,incomplete,true,true,NA,0,24,NA,green,m_l_020.jpg,NA,NA,pleasant,unpleasant,NA,NA,NA,NA,NA,right,1477,true,NA,NA,NA,NA,NA
Uid2yFes,322zsn9z6jxccjxbpgrk4cn83gtt4w,3qemnnsb21c411hrwquer4lote67df,Uid2yFes,2020-0188,2021-10-15,11:17:41,12:24:19,NA,incomplete,true,true,NA,0,25,NA,green,n_s_038.jpg,NA,NA,pleasant,unpleasant,NA,NA,NA,NA,NA,left,1122.69999980927,true,NA,NA,NA,NA,NA
Uid2yFes,322zsn9z6jxccjxbpgrk4cn83gtt4w,3qemnnsb21c411hrwquer4lote67df,Uid2yFes,2020-0188,2021-10-15,11:17:41,12:24:19,NA,incomplete,true,true,NA,0,26,NA,green,m_l_069.jpg,NA,NA,pleasant,unpleasant,NA,NA,NA,NA,NA,left,1102.10000014305,true,NA,NA,NA,NA,NA
Uid2yFes,322zsn9z6jxccjxbpgrk4cn83gtt4w,3qemnnsb21c411hrwquer4lote67df,Uid2yFes,2020-0188,2021-10-15,11:17:41,12:24:19,NA,incomplete,true,true,NA,0,27,NA,green,m_s_043.jpg,NA,NA,pleasant,unpleasant,NA,NA,NA,NA,NA,left,2044.29999995232,true,NA,NA,NA,NA,NA
Uid2yFes,322zsn9z6jxccjxbpgrk4cn83gtt4w,3qemnnsb21c411hrwquer4lote67df,Uid2yFes,2020-0188,2021-10-15,11:17:41,12:24:19,NA,incomplete,true,true,NA,0,28,NA,green,n_s_117.jpg,NA,NA,pleasant,unpleasant,NA,NA,NA,NA,NA,right,1132.40000009537,true,NA,NA,NA,NA,NA
Uid2yFes,322zsn9z6jxccjxbpgrk4cn83gtt4w,3qemnnsb21c411hrwquer4lote67df,Uid2yFes,2020-0188,2021-10-15,11:17:41,12:24:19,NA,incomplete,true,true,NA,0,29,NA,green,n_s_068.jpg,NA,NA,pleasant,unpleasant,NA,NA,NA,NA,NA,right,1790.09999990463,true,NA,NA,NA,NA,NA
Uid2yFes,322zsn9z6jxccjxbpgrk4cn83gtt4w,3qemnnsb21c411hrwquer4lote67df,Uid2yFes,2020-0188,2021-10-15,11:17:41,12:24:19,NA,incomplete,true,true,NA,0,30,NA,black,n_s_004.jpg,NA,NA,pleasant,unpleasant,NA,NA,NA,NA,NA,left,989.599999904633,true,NA,NA,NA,NA,NA
Uid2yFes,322zsn9z6jxccjxbpgrk4cn83gtt4w,3qemnnsb21c411hrwquer4lote67df,Uid2yFes,2020-0188,2021-10-15,11:17:41,12:24:19,NA,incomplete,true,true,NA,0,31,NA,black,m_s_097.jpg,NA,NA,unpleasant,pleasant,NA,NA,NA,NA,NA,left,1497.5,true,NA,NA,NA,NA,NA
Uid2yFes,322zsn9z6jxccjxbpgrk4cn83gtt4w,3qemnnsb21c411hrwquer4lote67df,Uid2yFes,2020-0188,2021-10-15,11:17:41,12:24:19,NA,incomplete,true,true,NA,0,32,NA,black,n_s_102.jpg,NA,NA,pleasant,unpleasant,NA,NA,NA,NA,NA,left,1480.5,true,NA,NA,NA,NA,NA
Uid2yFes,322zsn9z6jxccjxbpgrk4cn83gtt4w,3qemnnsb21c411hrwquer4lote67df,Uid2yFes,2020-0188,2021-10-15,11:17:41,12:24:19,NA,incomplete,true,true,NA,0,33,NA,black,m_s_088.jpg,NA,NA,unpleasant,pleasant,NA,NA,NA,NA,NA,right,1443.20000004768,true,NA,NA,NA,NA,NA
Uid2yFes,322zsn9z6jxccjxbpgrk4cn83gtt4w,3qemnnsb21c411hrwquer4lote67df,Uid2yFes,2020-0188,2021-10-15,11:17:41,12:24:19,NA,incomplete,true,true,NA,0,34,NA,black,n_s_023.jpg,NA,NA,unpleasant,pleasant,NA,NA,NA,NA,NA,left,1576.29999995232,true,NA,NA,NA,NA,NA
Uid2yFes,322zsn9z6jxccjxbpgrk4cn83gtt4w,3qemnnsb21c411hrwquer4lote67df,Uid2yFes,2020-0188,2021-10-15,11:17:41,12:24:19,NA,incomplete,true,true,NA,0,35,NA,black,n_s_059.jpg,NA,NA,pleasant,unpleasant,NA,NA,NA,NA,NA,left,1108.29999995232,true,NA,NA,NA,NA,NA
Uid2yFes,322zsn9z6jxccjxbpgrk4cn83gtt4w,3qemnnsb21c411hrwquer4lote67df,Uid2yFes,2020-0188,2021-10-15,11:17:41,12:24:19,NA,incomplete,true,NA,true,0,0,NA,NA,NA,left,absent,NA,NA,m_s_105.jpg,white,m_l_092.jpg,white,within,NA,NaN,NA,right,10161.599999904633,0,0,1670.7999999523163
Uid2yFes,322zsn9z6jxccjxbpgrk4cn83gtt4w,3qemnnsb21c411hrwquer4lote67df,Uid2yFes,2020-0188,2021-10-15,11:17:41,12:24:19,NA,incomplete,true,NA,true,0,1,NA,NA,NA,right,absent,NA,NA,m_l_072.jpg,gray,m_s_065.jpg,purple,between,NA,NaN,NA,right,5500.799999952316,1,1,1075.2000000476837
Uid2yFes,322zsn9z6jxccjxbpgrk4cn83gtt4w,3qemnnsb21c411hrwquer4lote67df,Uid2yFes,2020-0188,2021-10-15,11:17:41,12:24:19,NA,incomplete,true,NA,true,0,2,NA,NA,NA,left,present,NA,NA,m_l_059.jpg,orange,n_l_066.jpg,orange,within,NA,NaN,NA,left,4446.899999856949,1,0,947.7999999523163
Uid2yFes,322zsn9z6jxccjxbpgrk4cn83gtt4w,3qemnnsb21c411hrwquer4lote67df,Uid2yFes,2020-0188,2021-10-15,11:17:41,12:24:19,NA,incomplete,true,NA,true,0,3,NA,NA,NA,left,present,NA,NA,n_s_052.jpg,gray,m_l_066.jpg,orange,between,NA,NaN,NA,right,4704.700000047684,0,2,2647.9000000953674
Uid2yFes,322zsn9z6jxccjxbpgrk4cn83gtt4w,3qemnnsb21c411hrwquer4lote67df,Uid2yFes,2020-0188,2021-10-15,11:17:41,12:24:19,NA,incomplete,true,NA,true,0,4,NA,NA,NA,right,present,NA,NA,n_l_075.jpg,gray,m_l_104.jpg,gray,within,NA,NaN,NA,right,3824.2999999523163,1,0,974.7000000476837
Uid2yFes,322zsn9z6jxccjxbpgrk4cn83gtt4w,3qemnnsb21c411hrwquer4lote67df,Uid2yFes,2020-0188,2021-10-15,11:17:41,12:24:19,NA,incomplete,true,NA,true,0,5,NA,NA,NA,right,present,NA,NA,m_l_069.jpg,green,n_l_014.jpg,white,between,NA,NaN,NA,left,7575,0,2,1087
Uid2yFes,322zsn9z6jxccjxbpgrk4cn83gtt4w,3qemnnsb21c411hrwquer4lote67df,Uid2yFes,2020-0188,2021-10-15,11:17:41,12:24:19,NA,incomplete,true,NA,true,0,6,NA,NA,NA,right,absent,NA,NA,n_s_059.jpg,black,m_s_097.jpg,black,within,NA,NaN,NA,right,6539.399999856949,1,0,1204.4000000953674
Uid2yFes,322zsn9z6jxccjxbpgrk4cn83gtt4w,3qemnnsb21c411hrwquer4lote67df,Uid2yFes,2020-0188,2021-10-15,11:17:41,12:24:19,NA,incomplete,true,NA,true,0,7,NA,NA,NA,left,absent,NA,NA,n_s_038.jpg,green,n_s_068.jpg,green,within,NA,NaN,NA,left,2405.100000143051,1,2,2649.399999856949
Uid2yFes,322zsn9z6jxccjxbpgrk4cn83gtt4w,3qemnnsb21c411hrwquer4lote67df,Uid2yFes,2020-0188,2021-10-15,11:17:41,12:24:19,NA,incomplete,true,NA,true,0,8,NA,NA,NA,right,present,NA,NA,n_s_018.jpg,white,m_s_084.jpg,orange,between,NA,NaN,NA,right,4386.200000047684,1,3,1405.2000000476837
Uid2yFes,322zsn9z6jxccjxbpgrk4cn83gtt4w,3qemnnsb21c411hrwquer4lote67df,Uid2yFes,2020-0188,2021-10-15,11:17:41,12:24:19,NA,incomplete,true,NA,true,0,9,NA,NA,NA,right,absent,NA,NA,n_s_102.jpg,black,n_s_117.jpg,green,between,NA,NaN,NA,right,6847.799999952316,1,2,920.5
Uid2yFes,322zsn9z6jxccjxbpgrk4cn83gtt4w,3qemnnsb21c411hrwquer4lote67df,Uid2yFes,2020-0188,2021-10-15,11:17:41,12:24:19,NA,incomplete,true,NA,true,0,10,NA,NA,NA,right,present,NA,NA,m_s_107.jpg,purple,n_l_052.jpg,purple,within,NA,NaN,NA,right,3626.600000143051,1,0,1489.6999998092651
Uid2yFes,322zsn9z6jxccjxbpgrk4cn83gtt4w,3qemnnsb21c411hrwquer4lote67df,Uid2yFes,2020-0188,2021-10-15,11:17:41,12:24:19,NA,incomplete,false,true,NA,1,0,NA,black,m_l_008.jpg,NA,NA,unpleasant,pleasant,NA,NA,NA,NA,NA,right,1396,true,NA,NA,NA,NA,NA
Uid2yFes,322zsn9z6jxccjxbpgrk4cn83gtt4w,3qemnnsb21c411hrwquer4lote67df,Uid2yFes,2020-0188,2021-10-15,11:17:41,12:24:19,NA,incomplete,false,true,NA,1,1,NA,black,m_l_001.jpg,NA,NA,unpleasant,pleasant,NA,NA,NA,NA,NA,left,1912.5,true,NA,NA,NA,NA,NA
Uid2yFes,322zsn9z6jxccjxbpgrk4cn83gtt4w,3qemnnsb21c411hrwquer4lote67df,Uid2yFes,2020-0188,2021-10-15,11:17:41,12:24:19,NA,incomplete,false,true,NA,1,2,NA,black,n_l_011.jpg,NA,NA,pleasant,unpleasant,NA,NA,NA,NA,NA,left,1664.79999995232,true,NA,NA,NA,NA,NA
Uid2yFes,322zsn9z6jxccjxbpgrk4cn83gtt4w,3qemnnsb21c411hrwquer4lote67df,Uid2yFes,2020-0188,2021-10-15,11:17:41,12:24:19,NA,incomplete,false,true,NA,1,3,NA,black,n_s_073.jpg,NA,NA,unpleasant,pleasant,NA,NA,NA,NA,NA,right,1901.5,true,NA,NA,NA,NA,NA
Uid2yFes,322zsn9z6jxccjxbpgrk4cn83gtt4w,3qemnnsb21c411hrwquer4lote67df,Uid2yFes,2020-0188,2021-10-15,11:17:41,12:24:19,NA,incomplete,false,true,NA,1,4,NA,black,m_l_071.jpg,NA,NA,unpleasant,pleasant,NA,NA,NA,NA,NA,right,2306.80000019073,true,NA,NA,NA,NA,NA
Uid2yFes,322zsn9z6jxccjxbpgrk4cn83gtt4w,3qemnnsb21c411hrwquer4lote67df,Uid2yFes,2020-0188,2021-10-15,11:17:41,12:24:19,NA,incomplete,false,true,NA,1,5,NA,black,n_l_007.jpg,NA,NA,unpleasant,pleasant,NA,NA,NA,NA,NA,right,1634.79999995232,true,NA,NA,NA,NA,NA
Uid2yFes,322zsn9z6jxccjxbpgrk4cn83gtt4w,3qemnnsb21c411hrwquer4lote67df,Uid2yFes,2020-0188,2021-10-15,11:17:41,12:24:19,NA,incomplete,false,true,NA,1,6,NA,white,n_l_105.jpg,NA,NA,pleasant,unpleasant,NA,NA,NA,NA,NA,left,1813,true,NA,NA,NA,NA,NA
Uid2yFes,322zsn9z6jxccjxbpgrk4cn83gtt4w,3qemnnsb21c411hrwquer4lote67df,Uid2yFes,2020-0188,2021-10-15,11:17:41,12:24:19,NA,incomplete,false,true,NA,1,7,NA,white,m_s_040.jpg,NA,NA,unpleasant,pleasant,NA,NA,NA,NA,NA,right,1927.70000004768,true,NA,NA,NA,NA,NA
Uid2yFes,322zsn9z6jxccjxbpgrk4cn83gtt4w,3qemnnsb21c411hrwquer4lote67df,Uid2yFes,2020-0188,2021-10-15,11:17:41,12:24:19,NA,incomplete,false,true,NA,1,8,NA,white,m_s_051.jpg,NA,NA,pleasant,unpleasant,NA,NA,NA,NA,NA,right,1880.40000009537,true,NA,NA,NA,NA,NA
Uid2yFes,322zsn9z6jxccjxbpgrk4cn83gtt4w,3qemnnsb21c411hrwquer4lote67df,Uid2yFes,2020-0188,2021-10-15,11:17:41,12:24:19,NA,incomplete,false,true,NA,1,9,NA,white,m_s_064.jpg,NA,NA,unpleasant,pleasant,NA,NA,NA,NA,NA,right,1289,true,NA,NA,NA,NA,NA
Uid2yFes,322zsn9z6jxccjxbpgrk4cn83gtt4w,3qemnnsb21c411hrwquer4lote67df,Uid2yFes,2020-0188,2021-10-15,11:17:41,12:24:19,NA,incomplete,false,true,NA,1,10,NA,white,n_l_009.jpg,NA,NA,pleasant,unpleasant,NA,NA,NA,NA,NA,left,1718.29999995232,true,NA,NA,NA,NA,NA
Uid2yFes,322zsn9z6jxccjxbpgrk4cn83gtt4w,3qemnnsb21c411hrwquer4lote67df,Uid2yFes,2020-0188,2021-10-15,11:17:41,12:24:19,NA,incomplete,false,true,NA,1,11,NA,white,n_l_033.jpg,NA,NA,pleasant,unpleasant,NA,NA,NA,NA,NA,left,1564.39999985695,true,NA,NA,NA,NA,NA
Uid2yFes,322zsn9z6jxccjxbpgrk4cn83gtt4w,3qemnnsb21c411hrwquer4lote67df,Uid2yFes,2020-0188,2021-10-15,11:17:41,12:24:19,NA,incomplete,false,true,NA,1,12,NA,yellow,n_s_092.jpg,NA,NA,pleasant,unpleasant,NA,NA,NA,NA,NA,left,2327.69999980927,true,NA,NA,NA,NA,NA
Uid2yFes,322zsn9z6jxccjxbpgrk4cn83gtt4w,3qemnnsb21c411hrwquer4lote67df,Uid2yFes,2020-0188,2021-10-15,11:17:41,12:24:19,NA,incomplete,false,true,NA,1,13,NA,yellow,n_s_075.jpg,NA,NA,pleasant,unpleasant,NA,NA,NA,NA,NA,left,1499.5,true,NA,NA,NA,NA,NA
Uid2yFes,322zsn9z6jxccjxbpgrk4cn83gtt4w,3qemnnsb21c411hrwquer4lote67df,Uid2yFes,2020-0188,2021-10-15,11:17:41,12:24:19,NA,incomplete,false,true,NA,1,14,NA,yellow,n_l_034.jpg,NA,NA,unpleasant,pleasant,NA,NA,NA,NA,NA,left,2047.59999990463,true,NA,NA,NA,NA,NA
Uid2yFes,322zsn9z6jxccjxbpgrk4cn83gtt4w,3qemnnsb21c411hrwquer4lote67df,Uid2yFes,2020-0188,2021-10-15,11:17:41,12:24:19,NA,incomplete,false,true,NA,1,15,NA,yellow,n_l_036.jpg,NA,NA,unpleasant,pleasant,NA,NA,NA,NA,NA,right,1658.79999995232,true,NA,NA,NA,NA,NA
Uid2yFes,322zsn9z6jxccjxbpgrk4cn83gtt4w,3qemnnsb21c411hrwquer4lote67df,Uid2yFes,2020-0188,2021-10-15,11:17:41,12:24:19,NA,incomplete,false,true,NA,1,16,NA,yellow,n_l_099.jpg,NA,NA,pleasant,unpleasant,NA,NA,NA,NA,NA,right,1361.70000004768,true,NA,NA,NA,NA,NA
Uid2yFes,322zsn9z6jxccjxbpgrk4cn83gtt4w,3qemnnsb21c411hrwquer4lote67df,Uid2yFes,2020-0188,2021-10-15,11:17:41,12:24:19,NA,incomplete,false,true,NA,1,17,NA,yellow,n_s_027.jpg,NA,NA,unpleasant,pleasant,NA,NA,NA,NA,NA,left,1153,true,NA,NA,NA,NA,NA
Uid2yFes,322zsn9z6jxccjxbpgrk4cn83gtt4w,3qemnnsb21c411hrwquer4lote67df,Uid2yFes,2020-0188,2021-10-15,11:17:41,12:24:19,NA,incomplete,false,true,NA,1,18,NA,red,n_l_065.jpg,NA,NA,pleasant,unpleasant,NA,NA,NA,NA,NA,left,1454.40000009537,true,NA,NA,NA,NA,NA
Uid2yFes,322zsn9z6jxccjxbpgrk4cn83gtt4w,3qemnnsb21c411hrwquer4lote67df,Uid2yFes,2020-0188,2021-10-15,11:17:41,12:24:19,NA,incomplete,false,true,NA,1,19,NA,red,m_s_032.jpg,NA,NA,unpleasant,pleasant,NA,NA,NA,NA,NA,left,2189.89999985695,true,NA,NA,NA,NA,NA
Uid2yFes,322zsn9z6jxccjxbpgrk4cn83gtt4w,3qemnnsb21c411hrwquer4lote67df,Uid2yFes,2020-0188,2021-10-15,11:17:41,12:24:19,NA,incomplete,false,true,NA,1,20,NA,red,m_l_116.jpg,NA,NA,unpleasant,pleasant,NA,NA,NA,NA,NA,right,1720.80000019073,true,NA,NA,NA,NA,NA
Uid2yFes,322zsn9z6jxccjxbpgrk4cn83gtt4w,3qemnnsb21c411hrwquer4lote67df,Uid2yFes,2020-0188,2021-10-15,11:17:41,12:24:19,NA,incomplete,false,true,NA,1,21,NA,red,n_s_112.jpg,NA,NA,pleasant,unpleasant,NA,NA,NA,NA,NA,left,1346.60000014305,true,NA,NA,NA,NA,NA
Uid2yFes,322zsn9z6jxccjxbpgrk4cn83gtt4w,3qemnnsb21c411hrwquer4lote67df,Uid2yFes,2020-0188,2021-10-15,11:17:41,12:24:19,NA,incomplete,false,true,NA,1,22,NA,red,n_l_042.jpg,NA,NA,unpleasant,pleasant,NA,NA,NA,NA,NA,right,1548.09999990463,true,NA,NA,NA,NA,NA
Uid2yFes,322zsn9z6jxccjxbpgrk4cn83gtt4w,3qemnnsb21c411hrwquer4lote67df,Uid2yFes,2020-0188,2021-10-15,11:17:41,12:24:19,NA,incomplete,false,true,NA,1,23,NA,red,m_l_035.jpg,NA,NA,unpleasant,pleasant,NA,NA,NA,NA,NA,right,1212.70000004768,true,NA,NA,NA,NA,NA
Uid2yFes,322zsn9z6jxccjxbpgrk4cn83gtt4w,3qemnnsb21c411hrwquer4lote67df,Uid2yFes,2020-0188,2021-10-15,11:17:41,12:24:19,NA,incomplete,false,true,NA,1,24,NA,gray,m_s_052.jpg,NA,NA,unpleasant,pleasant,NA,NA,NA,NA,NA,left,1110.70000004768,true,NA,NA,NA,NA,NA
Uid2yFes,322zsn9z6jxccjxbpgrk4cn83gtt4w,3qemnnsb21c411hrwquer4lote67df,Uid2yFes,2020-0188,2021-10-15,11:17:41,12:24:19,NA,incomplete,false,true,NA,1,25,NA,gray,n_s_098.jpg,NA,NA,unpleasant,pleasant,NA,NA,NA,NA,NA,right,1319.70000004768,true,NA,NA,NA,NA,NA
Uid2yFes,322zsn9z6jxccjxbpgrk4cn83gtt4w,3qemnnsb21c411hrwquer4lote67df,Uid2yFes,2020-0188,2021-10-15,11:17:41,12:24:19,NA,incomplete,false,true,NA,1,26,NA,gray,n_l_020.jpg,NA,NA,unpleasant,pleasant,NA,NA,NA,NA,NA,left,1822.40000009537,true,NA,NA,NA,NA,NA
Uid2yFes,322zsn9z6jxccjxbpgrk4cn83gtt4w,3qemnnsb21c411hrwquer4lote67df,Uid2yFes,2020-0188,2021-10-15,11:17:41,12:24:19,NA,incomplete,false,true,NA,1,27,NA,gray,n_s_065.jpg,NA,NA,pleasant,unpleasant,NA,NA,NA,NA,NA,left,1289.79999995232,true,NA,NA,NA,NA,NA
Uid2yFes,322zsn9z6jxccjxbpgrk4cn83gtt4w,3qemnnsb21c411hrwquer4lote67df,Uid2yFes,2020-0188,2021-10-15,11:17:41,12:24:19,NA,incomplete,false,true,NA,1,28,NA,gray,m_s_025.jpg,NA,NA,pleasant,unpleasant,NA,NA,NA,NA,NA,right,1732.29999995232,true,NA,NA,NA,NA,NA
Uid2yFes,322zsn9z6jxccjxbpgrk4cn83gtt4w,3qemnnsb21c411hrwquer4lote67df,Uid2yFes,2020-0188,2021-10-15,11:17:41,12:24:19,NA,incomplete,false,true,NA,1,29,NA,gray,m_s_006.jpg,NA,NA,pleasant,unpleasant,NA,NA,NA,NA,NA,right,1490.59999990463,true,NA,NA,NA,NA,NA
Uid2yFes,322zsn9z6jxccjxbpgrk4cn83gtt4w,3qemnnsb21c411hrwquer4lote67df,Uid2yFes,2020-0188,2021-10-15,11:17:41,12:24:19,NA,incomplete,false,true,NA,1,30,NA,orange,m_l_106.jpg,NA,NA,pleasant,unpleasant,NA,NA,NA,NA,NA,right,2072.59999990463,true,NA,NA,NA,NA,NA
Uid2yFes,322zsn9z6jxccjxbpgrk4cn83gtt4w,3qemnnsb21c411hrwquer4lote67df,Uid2yFes,2020-0188,2021-10-15,11:17:41,12:24:19,NA,incomplete,false,true,NA,1,31,NA,orange,m_l_107.jpg,NA,NA,pleasant,unpleasant,NA,NA,NA,NA,NA,right,1445.69999980927,true,NA,NA,NA,NA,NA
Uid2yFes,322zsn9z6jxccjxbpgrk4cn83gtt4w,3qemnnsb21c411hrwquer4lote67df,Uid2yFes,2020-0188,2021-10-15,11:17:41,12:24:19,NA,incomplete,false,true,NA,1,32,NA,orange,m_s_013.jpg,NA,NA,pleasant,unpleasant,NA,NA,NA,NA,NA,right,1259.40000009537,true,NA,NA,NA,NA,NA
Uid2yFes,322zsn9z6jxccjxbpgrk4cn83gtt4w,3qemnnsb21c411hrwquer4lote67df,Uid2yFes,2020-0188,2021-10-15,11:17:41,12:24:19,NA,incomplete,false,true,NA,1,33,NA,orange,n_l_022.jpg,NA,NA,pleasant,unpleasant,NA,NA,NA,NA,NA,left,1370.60000014305,true,NA,NA,NA,NA,NA
Uid2yFes,322zsn9z6jxccjxbpgrk4cn83gtt4w,3qemnnsb21c411hrwquer4lote67df,Uid2yFes,2020-0188,2021-10-15,11:17:41,12:24:19,NA,incomplete,false,true,NA,1,34,NA,orange,n_l_054.jpg,NA,NA,unpleasant,pleasant,NA,NA,NA,NA,NA,right,1245.59999990463,true,NA,NA,NA,NA,NA
Uid2yFes,322zsn9z6jxccjxbpgrk4cn83gtt4w,3qemnnsb21c411hrwquer4lote67df,Uid2yFes,2020-0188,2021-10-15,11:17:41,12:24:19,NA,incomplete,false,true,NA,1,35,NA,orange,m_s_067.jpg,NA,NA,unpleasant,pleasant,NA,NA,NA,NA,NA,left,1160.5,true,NA,NA,NA,NA,NA
Uid2yFes,322zsn9z6jxccjxbpgrk4cn83gtt4w,3qemnnsb21c411hrwquer4lote67df,Uid2yFes,2020-0188,2021-10-15,11:17:41,12:24:19,NA,incomplete,false,NA,true,1,0,NA,NA,NA,right,present,NA,NA,m_s_006.jpg,gray,n_s_098.jpg,gray,within,NA,NaN,NA,right,6126.900000095367,1,0,961.5999999046326
Uid2yFes,322zsn9z6jxccjxbpgrk4cn83gtt4w,3qemnnsb21c411hrwquer4lote67df,Uid2yFes,2020-0188,2021-10-15,11:17:41,12:24:19,NA,incomplete,false,NA,true,1,1,NA,NA,NA,right,present,NA,NA,m_l_035.jpg,red,m_s_032.jpg,red,within,NA,NaN,NA,left,2947.5,0,0,2054.7999999523163
Uid2yFes,322zsn9z6jxccjxbpgrk4cn83gtt4w,3qemnnsb21c411hrwquer4lote67df,Uid2yFes,2020-0188,2021-10-15,11:17:41,12:24:19,NA,incomplete,false,NA,true,1,2,NA,NA,NA,left,present,NA,NA,m_l_107.jpg,orange,m_s_067.jpg,orange,within,NA,NaN,NA,right,4925.900000095367,0,0,1134.7000000476837
Uid2yFes,322zsn9z6jxccjxbpgrk4cn83gtt4w,3qemnnsb21c411hrwquer4lote67df,Uid2yFes,2020-0188,2021-10-15,11:17:41,12:24:19,NA,incomplete,false,NA,true,1,3,NA,NA,NA,left,present,NA,NA,n_l_042.jpg,red,n_l_020.jpg,gray,between,NA,NaN,NA,left,3353.7000000476837,1,2,1050.2999999523163
Uid2yFes,322zsn9z6jxccjxbpgrk4cn83gtt4w,3qemnnsb21c411hrwquer4lote67df,Uid2yFes,2020-0188,2021-10-15,11:17:41,12:24:19,NA,incomplete,false,NA,true,1,4,NA,NA,NA,left,present,NA,NA,n_s_075.jpg,yellow,n_s_027.jpg,yellow,within,NA,NaN,NA,left,3432.7000000476837,1,0,1120
Uid2yFes,322zsn9z6jxccjxbpgrk4cn83gtt4w,3qemnnsb21c411hrwquer4lote67df,Uid2yFes,2020-0188,2021-10-15,11:17:41,12:24:19,NA,incomplete,false,NA,true,1,5,NA,NA,NA,left,present,NA,NA,m_s_040.jpg,white,n_l_033.jpg,white,within,NA,NaN,NA,right,8715.900000095367,0,0,936
Uid2yFes,322zsn9z6jxccjxbpgrk4cn83gtt4w,3qemnnsb21c411hrwquer4lote67df,Uid2yFes,2020-0188,2021-10-15,11:17:41,12:24:19,NA,incomplete,false,NA,true,1,6,NA,NA,NA,left,present,NA,NA,m_s_025.jpg,gray,m_s_013.jpg,orange,between,NA,NaN,NA,left,7325.099999904633,1,1,864.5999999046326
Uid2yFes,322zsn9z6jxccjxbpgrk4cn83gtt4w,3qemnnsb21c411hrwquer4lote67df,Uid2yFes,2020-0188,2021-10-15,11:17:41,12:24:19,NA,incomplete,false,NA,true,1,7,NA,NA,NA,right,present,NA,NA,m_l_116.jpg,red,n_l_099.jpg,yellow,between,NA,NaN,NA,right,4146.599999904633,1,1,1468.8000001907349
Uid2yFes,322zsn9z6jxccjxbpgrk4cn83gtt4w,3qemnnsb21c411hrwquer4lote67df,Uid2yFes,2020-0188,2021-10-15,11:17:41,12:24:19,NA,incomplete,false,NA,true,1,8,NA,NA,NA,left,present,NA,NA,m_l_001.jpg,black,n_l_007.jpg,black,within,NA,NaN,NA,right,7741.099999904633,0,0,1532.5
Uid2yFes,322zsn9z6jxccjxbpgrk4cn83gtt4w,3qemnnsb21c411hrwquer4lote67df,Uid2yFes,2020-0188,2021-10-15,11:17:41,12:24:19,NA,incomplete,false,NA,true,1,9,NA,NA,NA,left,present,NA,NA,m_l_071.jpg,black,m_s_051.jpg,white,between,NA,NaN,NA,right,13912.5,0,1,1761.6999998092651
Uid2yFes,322zsn9z6jxccjxbpgrk4cn83gtt4w,3qemnnsb21c411hrwquer4lote67df,Uid2yFes,2020-0188,2021-10-15,11:17:41,12:24:19,NA,incomplete,false,NA,true,1,10,NA,NA,NA,left,present,NA,NA,n_l_009.jpg,white,n_l_034.jpg,yellow,between,NA,NaN,NA,left,3046.7999999523163,1,1,2686.2000000476837
Uid2yFes,322zsn9z6jxccjxbpgrk4cn83gtt4w,3qemnnsb21c411hrwquer4lote67df,Uid2yFes,2020-0188,2021-10-15,11:17:41,12:24:19,NA,incomplete,false,true,NA,2,0,NA,black,m_s_038.jpg,NA,NA,unpleasant,pleasant,NA,NA,NA,NA,NA,right,1964.79999995232,true,NA,NA,NA,NA,NA
Uid2yFes,322zsn9z6jxccjxbpgrk4cn83gtt4w,3qemnnsb21c411hrwquer4lote67df,Uid2yFes,2020-0188,2021-10-15,11:17:41,12:24:19,NA,incomplete,false,true,NA,2,1,NA,black,m_l_024.jpg,NA,NA,pleasant,unpleasant,NA,NA,NA,NA,NA,left,2067.29999995232,true,NA,NA,NA,NA,NA
Uid2yFes,322zsn9z6jxccjxbpgrk4cn83gtt4w,3qemnnsb21c411hrwquer4lote67df,Uid2yFes,2020-0188,2021-10-15,11:17:41,12:24:19,NA,incomplete,false,true,NA,2,2,NA,black,n_l_113.jpg,NA,NA,unpleasant,pleasant,NA,NA,NA,NA,NA,right,1375.5,true,NA,NA,NA,NA,NA
Uid2yFes,322zsn9z6jxccjxbpgrk4cn83gtt4w,3qemnnsb21c411hrwquer4lote67df,Uid2yFes,2020-0188,2021-10-15,11:17:41,12:24:19,NA,incomplete,false,true,NA,2,3,NA,black,m_l_005.jpg,NA,NA,pleasant,unpleasant,NA,NA,NA,NA,NA,right,1957.5,true,NA,NA,NA,NA,NA
Uid2yFes,322zsn9z6jxccjxbpgrk4cn83gtt4w,3qemnnsb21c411hrwquer4lote67df,Uid2yFes,2020-0188,2021-10-15,11:17:41,12:24:19,NA,incomplete,false,true,NA,2,4,NA,black,m_s_102.jpg,NA,NA,pleasant,unpleasant,NA,NA,NA,NA,NA,left,1342.19999980927,true,NA,NA,NA,NA,NA
Uid2yFes,322zsn9z6jxccjxbpgrk4cn83gtt4w,3qemnnsb21c411hrwquer4lote67df,Uid2yFes,2020-0188,2021-10-15,11:17:41,12:24:19,NA,incomplete,false,true,NA,2,5,NA,black,m_s_076.jpg,NA,NA,pleasant,unpleasant,NA,NA,NA,NA,NA,right,1303.59999990463,true,NA,NA,NA,NA,NA
Uid2yFes,322zsn9z6jxccjxbpgrk4cn83gtt4w,3qemnnsb21c411hrwquer4lote67df,Uid2yFes,2020-0188,2021-10-15,11:17:41,12:24:19,NA,incomplete,false,true,NA,2,6,NA,yellow,m_s_096.jpg,NA,NA,unpleasant,pleasant,NA,NA,NA,NA,NA,right,2053.79999995232,true,NA,NA,NA,NA,NA
Uid2yFes,322zsn9z6jxccjxbpgrk4cn83gtt4w,3qemnnsb21c411hrwquer4lote67df,Uid2yFes,2020-0188,2021-10-15,11:17:41,12:24:19,NA,incomplete,false,true,NA,2,7,NA,yellow,m_s_081.jpg,NA,NA,unpleasant,pleasant,NA,NA,NA,NA,NA,right,1389.09999990463,true,NA,NA,NA,NA,NA
Uid2yFes,322zsn9z6jxccjxbpgrk4cn83gtt4w,3qemnnsb21c411hrwquer4lote67df,Uid2yFes,2020-0188,2021-10-15,11:17:41,12:24:19,NA,incomplete,false,true,NA,2,8,NA,yellow,n_l_025.jpg,NA,NA,pleasant,unpleasant,NA,NA,NA,NA,NA,left,1254.80000019073,true,NA,NA,NA,NA,NA
Uid2yFes,322zsn9z6jxccjxbpgrk4cn83gtt4w,3qemnnsb21c411hrwquer4lote67df,Uid2yFes,2020-0188,2021-10-15,11:17:41,12:24:19,NA,incomplete,false,true,NA,2,9,NA,yellow,m_l_006.jpg,NA,NA,pleasant,unpleasant,NA,NA,NA,NA,NA,left,1284.90000009537,true,NA,NA,NA,NA,NA
Uid2yFes,322zsn9z6jxccjxbpgrk4cn83gtt4w,3qemnnsb21c411hrwquer4lote67df,Uid2yFes,2020-0188,2021-10-15,11:17:41,12:24:19,NA,incomplete,false,true,NA,2,10,NA,yellow,n_s_031.jpg,NA,NA,pleasant,unpleasant,NA,NA,NA,NA,NA,right,870.900000095367,true,NA,NA,NA,NA,NA
Uid2yFes,322zsn9z6jxccjxbpgrk4cn83gtt4w,3qemnnsb21c411hrwquer4lote67df,Uid2yFes,2020-0188,2021-10-15,11:17:41,12:24:19,NA,incomplete,false,true,NA,2,11,NA,yellow,m_l_028.jpg,NA,NA,unpleasant,pleasant,NA,NA,NA,NA,NA,right,1124.39999985695,true,NA,NA,NA,NA,NA
Uid2yFes,322zsn9z6jxccjxbpgrk4cn83gtt4w,3qemnnsb21c411hrwquer4lote67df,Uid2yFes,2020-0188,2021-10-15,11:17:41,12:24:19,NA,incomplete,false,true,NA,2,12,NA,white,m_l_022.jpg,NA,NA,unpleasant,pleasant,NA,NA,NA,NA,NA,right,1343.29999995232,true,NA,NA,NA,NA,NA
Uid2yFes,322zsn9z6jxccjxbpgrk4cn83gtt4w,3qemnnsb21c411hrwquer4lote67df,Uid2yFes,2020-0188,2021-10-15,11:17:41,12:24:19,NA,incomplete,false,true,NA,2,13,NA,white,m_l_088.jpg,NA,NA,pleasant,unpleasant,NA,NA,NA,NA,NA,right,1767.90000009537,true,NA,NA,NA,NA,NA
Uid2yFes,322zsn9z6jxccjxbpgrk4cn83gtt4w,3qemnnsb21c411hrwquer4lote67df,Uid2yFes,2020-0188,2021-10-15,11:17:41,12:24:19,NA,incomplete,false,true,NA,2,14,NA,white,m_s_049.jpg,NA,NA,unpleasant,pleasant,NA,NA,NA,NA,NA,right,1313.40000009537,true,NA,NA,NA,NA,NA
Uid2yFes,322zsn9z6jxccjxbpgrk4cn83gtt4w,3qemnnsb21c411hrwquer4lote67df,Uid2yFes,2020-0188,2021-10-15,11:17:41,12:24:19,NA,incomplete,false,true,NA,2,15,NA,white,m_s_098.jpg,NA,NA,pleasant,unpleasant,NA,NA,NA,NA,NA,left,1582.90000009537,true,NA,NA,NA,NA,NA
Uid2yFes,322zsn9z6jxccjxbpgrk4cn83gtt4w,3qemnnsb21c411hrwquer4lote67df,Uid2yFes,2020-0188,2021-10-15,11:17:41,12:24:19,NA,incomplete,false,true,NA,2,16,NA,white,m_s_029.jpg,NA,NA,unpleasant,pleasant,NA,NA,NA,NA,NA,left,2552.79999995232,true,NA,NA,NA,NA,NA
Uid2yFes,322zsn9z6jxccjxbpgrk4cn83gtt4w,3qemnnsb21c411hrwquer4lote67df,Uid2yFes,2020-0188,2021-10-15,11:17:41,12:24:19,NA,incomplete,false,true,NA,2,17,NA,white,m_l_057.jpg,NA,NA,pleasant,unpleasant,NA,NA,NA,NA,NA,left,2622.09999990463,true,NA,NA,NA,NA,NA
Uid2yFes,322zsn9z6jxccjxbpgrk4cn83gtt4w,3qemnnsb21c411hrwquer4lote67df,Uid2yFes,2020-0188,2021-10-15,11:17:41,12:24:19,NA,incomplete,false,true,NA,2,18,NA,orange,n_s_074.jpg,NA,NA,unpleasant,pleasant,NA,NA,NA,NA,NA,right,2521.40000009537,true,NA,NA,NA,NA,NA
Uid2yFes,322zsn9z6jxccjxbpgrk4cn83gtt4w,3qemnnsb21c411hrwquer4lote67df,Uid2yFes,2020-0188,2021-10-15,11:17:41,12:24:19,NA,incomplete,false,true,NA,2,19,NA,orange,m_l_101.jpg,NA,NA,pleasant,unpleasant,NA,NA,NA,NA,NA,left,1101.70000004768,true,NA,NA,NA,NA,NA
Uid2yFes,322zsn9z6jxccjxbpgrk4cn83gtt4w,3qemnnsb21c411hrwquer4lote67df,Uid2yFes,2020-0188,2021-10-15,11:17:41,12:24:19,NA,incomplete,false,true,NA,2,20,NA,orange,n_l_045.jpg,NA,NA,pleasant,unpleasant,NA,NA,NA,NA,NA,left,1176.20000004768,true,NA,NA,NA,NA,NA
Uid2yFes,322zsn9z6jxccjxbpgrk4cn83gtt4w,3qemnnsb21c411hrwquer4lote67df,Uid2yFes,2020-0188,2021-10-15,11:17:41,12:24:19,NA,incomplete,false,true,NA,2,21,NA,orange,m_s_113.jpg,NA,NA,unpleasant,pleasant,NA,NA,NA,NA,NA,right,1858.79999995232,true,NA,NA,NA,NA,NA
Uid2yFes,322zsn9z6jxccjxbpgrk4cn83gtt4w,3qemnnsb21c411hrwquer4lote67df,Uid2yFes,2020-0188,2021-10-15,11:17:41,12:24:19,NA,incomplete,false,true,NA,2,22,NA,orange,m_s_108.jpg,NA,NA,unpleasant,pleasant,NA,NA,NA,NA,NA,right,1909,true,NA,NA,NA,NA,NA
Uid2yFes,322zsn9z6jxccjxbpgrk4cn83gtt4w,3qemnnsb21c411hrwquer4lote67df,Uid2yFes,2020-0188,2021-10-15,11:17:41,12:24:19,NA,incomplete,false,true,NA,2,23,NA,orange,m_s_047.jpg,NA,NA,unpleasant,pleasant,NA,NA,NA,NA,NA,left,1973,true,NA,NA,NA,NA,NA
Uid2yFes,322zsn9z6jxccjxbpgrk4cn83gtt4w,3qemnnsb21c411hrwquer4lote67df,Uid2yFes,2020-0188,2021-10-15,11:17:41,12:24:19,NA,incomplete,false,true,NA,2,24,NA,blue,n_s_017.jpg,NA,NA,unpleasant,pleasant,NA,NA,NA,NA,NA,left,2658.40000009537,true,NA,NA,NA,NA,NA
Uid2yFes,322zsn9z6jxccjxbpgrk4cn83gtt4w,3qemnnsb21c411hrwquer4lote67df,Uid2yFes,2020-0188,2021-10-15,11:17:41,12:24:19,NA,incomplete,false,true,NA,2,25,NA,blue,m_l_026.jpg,NA,NA,unpleasant,pleasant,NA,NA,NA,NA,NA,right,2991.5,true,NA,NA,NA,NA,NA
Uid2yFes,322zsn9z6jxccjxbpgrk4cn83gtt4w,3qemnnsb21c411hrwquer4lote67df,Uid2yFes,2020-0188,2021-10-15,11:17:41,12:24:19,NA,incomplete,false,true,NA,2,26,NA,blue,n_l_098.jpg,NA,NA,unpleasant,pleasant,NA,NA,NA,NA,NA,right,2086.09999990463,true,NA,NA,NA,NA,NA
Uid2yFes,322zsn9z6jxccjxbpgrk4cn83gtt4w,3qemnnsb21c411hrwquer4lote67df,Uid2yFes,2020-0188,2021-10-15,11:17:41,12:24:19,NA,incomplete,false,true,NA,2,27,NA,blue,n_l_012.jpg,NA,NA,pleasant,unpleasant,NA,NA,NA,NA,NA,right,964.5,true,NA,NA,NA,NA,NA
Uid2yFes,322zsn9z6jxccjxbpgrk4cn83gtt4w,3qemnnsb21c411hrwquer4lote67df,Uid2yFes,2020-0188,2021-10-15,11:17:41,12:24:19,NA,incomplete,false,true,NA,2,28,NA,blue,m_s_046.jpg,NA,NA,pleasant,unpleasant,NA,NA,NA,NA,NA,left,922.899999856949,true,NA,NA,NA,NA,NA
Uid2yFes,322zsn9z6jxccjxbpgrk4cn83gtt4w,3qemnnsb21c411hrwquer4lote67df,Uid2yFes,2020-0188,2021-10-15,11:17:41,12:24:19,NA,incomplete,false,true,NA,2,29,NA,blue,m_l_037.jpg,NA,NA,unpleasant,pleasant,NA,NA,NA,NA,NA,left,2378.29999995232,true,NA,NA,NA,NA,NA
Uid2yFes,322zsn9z6jxccjxbpgrk4cn83gtt4w,3qemnnsb21c411hrwquer4lote67df,Uid2yFes,2020-0188,2021-10-15,11:17:41,12:24:19,NA,incomplete,false,true,NA,2,30,NA,red,m_s_035.jpg,NA,NA,unpleasant,pleasant,NA,NA,NA,NA,NA,right,2159.90000009537,true,NA,NA,NA,NA,NA
Uid2yFes,322zsn9z6jxccjxbpgrk4cn83gtt4w,3qemnnsb21c411hrwquer4lote67df,Uid2yFes,2020-0188,2021-10-15,11:17:41,12:24:19,NA,incomplete,false,true,NA,2,31,NA,red,n_s_034.jpg,NA,NA,unpleasant,pleasant,NA,NA,NA,NA,NA,right,1428.80000019073,true,NA,NA,NA,NA,NA
Uid2yFes,322zsn9z6jxccjxbpgrk4cn83gtt4w,3qemnnsb21c411hrwquer4lote67df,Uid2yFes,2020-0188,2021-10-15,11:17:41,12:24:19,NA,incomplete,false,true,NA,2,32,NA,red,n_s_106.jpg,NA,NA,unpleasant,pleasant,NA,NA,NA,NA,NA,right,936.599999904633,true,NA,NA,NA,NA,NA
Uid2yFes,322zsn9z6jxccjxbpgrk4cn83gtt4w,3qemnnsb21c411hrwquer4lote67df,Uid2yFes,2020-0188,2021-10-15,11:17:41,12:24:19,NA,incomplete,false,true,NA,2,33,NA,red,m_l_109.jpg,NA,NA,unpleasant,pleasant,NA,NA,NA,NA,NA,right,1134.19999980927,true,NA,NA,NA,NA,NA
Uid2yFes,322zsn9z6jxccjxbpgrk4cn83gtt4w,3qemnnsb21c411hrwquer4lote67df,Uid2yFes,2020-0188,2021-10-15,11:17:41,12:24:19,NA,incomplete,false,true,NA,2,34,NA,red,m_l_039.jpg,NA,NA,unpleasant,pleasant,NA,NA,NA,NA,NA,left,1460,true,NA,NA,NA,NA,NA
Uid2yFes,322zsn9z6jxccjxbpgrk4cn83gtt4w,3qemnnsb21c411hrwquer4lote67df,Uid2yFes,2020-0188,2021-10-15,11:17:41,12:24:19,NA,incomplete,false,true,NA,2,35,NA,red,m_s_095.jpg,NA,NA,unpleasant,pleasant,NA,NA,NA,NA,NA,right,986.300000190735,true,NA,NA,NA,NA,NA
Uid2yFes,322zsn9z6jxccjxbpgrk4cn83gtt4w,3qemnnsb21c411hrwquer4lote67df,Uid2yFes,2020-0188,2021-10-15,11:17:41,12:24:19,NA,incomplete,false,NA,true,2,0,NA,NA,NA,left,present,NA,NA,m_s_029.jpg,white,n_l_045.jpg,orange,between,NA,NaN,NA,left,5009.900000095367,1,1,1117.6000001430511
Uid2yFes,322zsn9z6jxccjxbpgrk4cn83gtt4w,3qemnnsb21c411hrwquer4lote67df,Uid2yFes,2020-0188,2021-10-15,11:17:41,12:24:19,NA,incomplete,false,NA,true,2,1,NA,NA,NA,right,present,NA,NA,n_l_025.jpg,yellow,m_s_102.jpg,black,between,NA,NaN,NA,right,4318.700000047684,1,1,1629.2000000476837
Uid2yFes,322zsn9z6jxccjxbpgrk4cn83gtt4w,3qemnnsb21c411hrwquer4lote67df,Uid2yFes,2020-0188,2021-10-15,11:17:41,12:24:19,NA,incomplete,false,NA,true,2,2,NA,NA,NA,left,present,NA,NA,m_s_081.jpg,yellow,m_l_028.jpg,yellow,within,NA,NaN,NA,left,3832.7000000476837,1,0,1491
Uid2yFes,322zsn9z6jxccjxbpgrk4cn83gtt4w,3qemnnsb21c411hrwquer4lote67df,Uid2yFes,2020-0188,2021-10-15,11:17:41,12:24:19,NA,incomplete,false,NA,true,2,3,NA,NA,NA,left,present,NA,NA,m_s_046.jpg,blue,n_s_106.jpg,red,between,NA,NaN,NA,left,7319.900000095367,1,1,1305.5999999046326
Uid2yFes,322zsn9z6jxccjxbpgrk4cn83gtt4w,3qemnnsb21c411hrwquer4lote67df,Uid2yFes,2020-0188,2021-10-15,11:17:41,12:24:19,NA,incomplete,false,NA,true,2,4,NA,NA,NA,right,present,NA,NA,m_s_095.jpg,red,n_s_034.jpg,red,within,NA,NaN,NA,right,2504.4000000953674,1,0,1361.7000000476837
Uid2yFes,322zsn9z6jxccjxbpgrk4cn83gtt4w,3qemnnsb21c411hrwquer4lote67df,Uid2yFes,2020-0188,2021-10-15,11:17:41,12:24:19,NA,incomplete,false,NA,true,2,5,NA,NA,NA,left,present,NA,NA,m_l_026.jpg,blue,m_l_037.jpg,blue,within,NA,NaN,NA,left,4304.400000095367,1,0,861.3999998569489
Uid2yFes,322zsn9z6jxccjxbpgrk4cn83gtt4w,3qemnnsb21c411hrwquer4lote67df,Uid2yFes,2020-0188,2021-10-15,11:17:41,12:24:19,NA,incomplete,false,NA,true,2,6,NA,NA,NA,right,present,NA,NA,m_s_047.jpg,orange,m_l_101.jpg,orange,within,NA,NaN,NA,right,6683.299999952316,1,0,1542.5999999046326
Uid2yFes,322zsn9z6jxccjxbpgrk4cn83gtt4w,3qemnnsb21c411hrwquer4lote67df,Uid2yFes,2020-0188,2021-10-15,11:17:41,12:24:19,NA,incomplete,false,NA,true,2,7,NA,NA,NA,left,present,NA,NA,m_l_088.jpg,white,m_l_057.jpg,white,within,NA,NaN,NA,right,5319.900000095367,0,0,1354.5999999046326
Uid2yFes,322zsn9z6jxccjxbpgrk4cn83gtt4w,3qemnnsb21c411hrwquer4lote67df,Uid2yFes,2020-0188,2021-10-15,11:17:41,12:24:19,NA,incomplete,false,NA,true,2,8,NA,NA,NA,right,present,NA,NA,m_s_049.jpg,white,n_s_031.jpg,yellow,between,NA,NaN,NA,right,3304.399999856949,1,1,1633.9000000953674
Uid2yFes,322zsn9z6jxccjxbpgrk4cn83gtt4w,3qemnnsb21c411hrwquer4lote67df,Uid2yFes,2020-0188,2021-10-15,11:17:41,12:24:19,NA,incomplete,false,NA,true,2,9,NA,NA,NA,left,present,NA,NA,m_s_108.jpg,orange,n_l_098.jpg,blue,between,NA,NaN,NA,left,4933.900000095367,1,1,1442.4000000953674
Uid2yFes,322zsn9z6jxccjxbpgrk4cn83gtt4w,3qemnnsb21c411hrwquer4lote67df,Uid2yFes,2020-0188,2021-10-15,11:17:41,12:24:19,NA,incomplete,false,NA,true,2,10,NA,NA,NA,right,present,NA,NA,m_s_076.jpg,black,m_l_024.jpg,black,within,NA,NaN,NA,left,2269.2000000476837,0,0,1048.2999999523163
Uid2yFes,322zsn9z6jxccjxbpgrk4cn83gtt4w,3qemnnsb21c411hrwquer4lote67df,Uid2yFes,2020-0188,2021-10-15,11:17:41,12:24:19,NA,incomplete,false,true,NA,3,0,NA,green,n_s_069.jpg,NA,NA,unpleasant,pleasant,NA,NA,NA,NA,NA,right,1619.40000009537,true,NA,NA,NA,NA,NA
Uid2yFes,322zsn9z6jxccjxbpgrk4cn83gtt4w,3qemnnsb21c411hrwquer4lote67df,Uid2yFes,2020-0188,2021-10-15,11:17:41,12:24:19,NA,incomplete,false,true,NA,3,1,NA,green,m_s_060.jpg,NA,NA,unpleasant,pleasant,NA,NA,NA,NA,NA,right,1865.79999995232,true,NA,NA,NA,NA,NA
Uid2yFes,322zsn9z6jxccjxbpgrk4cn83gtt4w,3qemnnsb21c411hrwquer4lote67df,Uid2yFes,2020-0188,2021-10-15,11:17:41,12:24:19,NA,incomplete,false,true,NA,3,2,NA,green,n_l_076.jpg,NA,NA,unpleasant,pleasant,NA,NA,NA,NA,NA,left,2083.90000009537,true,NA,NA,NA,NA,NA
Uid2yFes,322zsn9z6jxccjxbpgrk4cn83gtt4w,3qemnnsb21c411hrwquer4lote67df,Uid2yFes,2020-0188,2021-10-15,11:17:41,12:24:19,NA,incomplete,false,true,NA,3,3,NA,green,m_l_110.jpg,NA,NA,pleasant,unpleasant,NA,NA,NA,NA,NA,left,1299.10000014305,true,NA,NA,NA,NA,NA
Uid2yFes,322zsn9z6jxccjxbpgrk4cn83gtt4w,3qemnnsb21c411hrwquer4lote67df,Uid2yFes,2020-0188,2021-10-15,11:17:41,12:24:19,NA,incomplete,false,true,NA,3,4,NA,green,n_s_049.jpg,NA,NA,unpleasant,pleasant,NA,NA,NA,NA,NA,left,1382.70000004768,true,NA,NA,NA,NA,NA
Uid2yFes,322zsn9z6jxccjxbpgrk4cn83gtt4w,3qemnnsb21c411hrwquer4lote67df,Uid2yFes,2020-0188,2021-10-15,11:17:41,12:24:19,NA,incomplete,false,true,NA,3,5,NA,green,m_s_024.jpg,NA,NA,unpleasant,pleasant,NA,NA,NA,NA,NA,right,1682.70000004768,true,NA,NA,NA,NA,NA
Uid2yFes,322zsn9z6jxccjxbpgrk4cn83gtt4w,3qemnnsb21c411hrwquer4lote67df,Uid2yFes,2020-0188,2021-10-15,11:17:41,12:24:19,NA,incomplete,false,true,NA,3,6,NA,white,m_s_059.jpg,NA,NA,unpleasant,pleasant,NA,NA,NA,NA,NA,right,1777.09999990463,true,NA,NA,NA,NA,NA
Uid2yFes,322zsn9z6jxccjxbpgrk4cn83gtt4w,3qemnnsb21c411hrwquer4lote67df,Uid2yFes,2020-0188,2021-10-15,11:17:41,12:24:19,NA,incomplete,false,true,NA,3,7,NA,white,n_l_061.jpg,NA,NA,pleasant,unpleasant,NA,NA,NA,NA,NA,left,1213.20000004768,true,NA,NA,NA,NA,NA
Uid2yFes,322zsn9z6jxccjxbpgrk4cn83gtt4w,3qemnnsb21c411hrwquer4lote67df,Uid2yFes,2020-0188,2021-10-15,11:17:41,12:24:19,NA,incomplete,false,true,NA,3,8,NA,white,n_l_053.jpg,NA,NA,pleasant,unpleasant,NA,NA,NA,NA,NA,left,1982,true,NA,NA,NA,NA,NA
Uid2yFes,322zsn9z6jxccjxbpgrk4cn83gtt4w,3qemnnsb21c411hrwquer4lote67df,Uid2yFes,2020-0188,2021-10-15,11:17:41,12:24:19,NA,incomplete,false,true,NA,3,9,NA,white,m_s_101.jpg,NA,NA,unpleasant,pleasant,NA,NA,NA,NA,NA,right,1970.20000004768,true,NA,NA,NA,NA,NA
Uid2yFes,322zsn9z6jxccjxbpgrk4cn83gtt4w,3qemnnsb21c411hrwquer4lote67df,Uid2yFes,2020-0188,2021-10-15,11:17:41,12:24:19,NA,incomplete,false,true,NA,3,10,NA,white,m_s_063.jpg,NA,NA,pleasant,unpleasant,NA,NA,NA,NA,NA,left,1268.20000004768,true,NA,NA,NA,NA,NA
Uid2yFes,322zsn9z6jxccjxbpgrk4cn83gtt4w,3qemnnsb21c411hrwquer4lote67df,Uid2yFes,2020-0188,2021-10-15,11:17:41,12:24:19,NA,incomplete,false,true,NA,3,11,NA,white,m_l_034.jpg,NA,NA,unpleasant,pleasant,NA,NA,NA,NA,NA,right,1129.09999990463,true,NA,NA,NA,NA,NA
Uid2yFes,322zsn9z6jxccjxbpgrk4cn83gtt4w,3qemnnsb21c411hrwquer4lote67df,Uid2yFes,2020-0188,2021-10-15,11:17:41,12:24:19,NA,incomplete,false,true,NA,3,12,NA,blue,m_l_053.jpg,NA,NA,unpleasant,pleasant,NA,NA,NA,NA,NA,right,1806.79999995232,true,NA,NA,NA,NA,NA
Uid2yFes,322zsn9z6jxccjxbpgrk4cn83gtt4w,3qemnnsb21c411hrwquer4lote67df,Uid2yFes,2020-0188,2021-10-15,11:17:41,12:24:19,NA,incomplete,false,true,NA,3,13,NA,blue,m_s_115.jpg,NA,NA,pleasant,unpleasant,NA,NA,NA,NA,NA,right,1629.90000009537,true,NA,NA,NA,NA,NA
Uid2yFes,322zsn9z6jxccjxbpgrk4cn83gtt4w,3qemnnsb21c411hrwquer4lote67df,Uid2yFes,2020-0188,2021-10-15,11:17:41,12:24:19,NA,incomplete,false,true,NA,3,14,NA,blue,m_l_085.jpg,NA,NA,pleasant,unpleasant,NA,NA,NA,NA,NA,right,1434.19999980927,true,NA,NA,NA,NA,NA
Uid2yFes,322zsn9z6jxccjxbpgrk4cn83gtt4w,3qemnnsb21c411hrwquer4lote67df,Uid2yFes,2020-0188,2021-10-15,11:17:41,12:24:19,NA,incomplete,false,true,NA,3,15,NA,blue,n_l_114.jpg,NA,NA,unpleasant,pleasant,NA,NA,NA,NA,NA,right,1430.5,true,NA,NA,NA,NA,NA
Uid2yFes,322zsn9z6jxccjxbpgrk4cn83gtt4w,3qemnnsb21c411hrwquer4lote67df,Uid2yFes,2020-0188,2021-10-15,11:17:41,12:24:19,NA,incomplete,false,true,NA,3,16,NA,blue,m_l_068.jpg,NA,NA,unpleasant,pleasant,NA,NA,NA,NA,NA,right,2009.59999990463,true,NA,NA,NA,NA,NA
Uid2yFes,322zsn9z6jxccjxbpgrk4cn83gtt4w,3qemnnsb21c411hrwquer4lote67df,Uid2yFes,2020-0188,2021-10-15,11:17:41,12:24:19,NA,incomplete,false,true,NA,3,17,NA,blue,m_l_002.jpg,NA,NA,unpleasant,pleasant,NA,NA,NA,NA,NA,right,1636.69999980927,true,NA,NA,NA,NA,NA
Uid2yFes,322zsn9z6jxccjxbpgrk4cn83gtt4w,3qemnnsb21c411hrwquer4lote67df,Uid2yFes,2020-0188,2021-10-15,11:17:41,12:24:19,NA,incomplete,false,true,NA,3,18,NA,red,n_l_032.jpg,NA,NA,unpleasant,pleasant,NA,NA,NA,NA,NA,left,1954.90000009537,true,NA,NA,NA,NA,NA
Uid2yFes,322zsn9z6jxccjxbpgrk4cn83gtt4w,3qemnnsb21c411hrwquer4lote67df,Uid2yFes,2020-0188,2021-10-15,11:17:41,12:24:19,NA,incomplete,false,true,NA,3,19,NA,red,m_l_009.jpg,NA,NA,pleasant,unpleasant,NA,NA,NA,NA,NA,left,1363.5,true,NA,NA,NA,NA,NA
Uid2yFes,322zsn9z6jxccjxbpgrk4cn83gtt4w,3qemnnsb21c411hrwquer4lote67df,Uid2yFes,2020-0188,2021-10-15,11:17:41,12:24:19,NA,incomplete,false,true,NA,3,20,NA,red,n_l_017.jpg,NA,NA,unpleasant,pleasant,NA,NA,NA,NA,NA,left,1778.70000004768,true,NA,NA,NA,NA,NA
Uid2yFes,322zsn9z6jxccjxbpgrk4cn83gtt4w,3qemnnsb21c411hrwquer4lote67df,Uid2yFes,2020-0188,2021-10-15,11:17:41,12:24:19,NA,incomplete,false,true,NA,3,21,NA,red,m_s_009.jpg,NA,NA,pleasant,unpleasant,NA,NA,NA,NA,NA,left,1222.09999990463,true,NA,NA,NA,NA,NA
Uid2yFes,322zsn9z6jxccjxbpgrk4cn83gtt4w,3qemnnsb21c411hrwquer4lote67df,Uid2yFes,2020-0188,2021-10-15,11:17:41,12:24:19,NA,incomplete,false,true,NA,3,22,NA,red,n_s_037.jpg,NA,NA,pleasant,unpleasant,NA,NA,NA,NA,NA,left,1444.10000014305,true,NA,NA,NA,NA,NA
Uid2yFes,322zsn9z6jxccjxbpgrk4cn83gtt4w,3qemnnsb21c411hrwquer4lote67df,Uid2yFes,2020-0188,2021-10-15,11:17:41,12:24:19,NA,incomplete,false,true,NA,3,23,NA,red,m_s_036.jpg,NA,NA,unpleasant,pleasant,NA,NA,NA,NA,NA,right,1429.20000004768,true,NA,NA,NA,NA,NA
Uid2yFes,322zsn9z6jxccjxbpgrk4cn83gtt4w,3qemnnsb21c411hrwquer4lote67df,Uid2yFes,2020-0188,2021-10-15,11:17:41,12:24:19,NA,incomplete,false,true,NA,3,24,NA,orange,n_s_111.jpg,NA,NA,unpleasant,pleasant,NA,NA,NA,NA,NA,right,1988.09999990463,true,NA,NA,NA,NA,NA
Uid2yFes,322zsn9z6jxccjxbpgrk4cn83gtt4w,3qemnnsb21c411hrwquer4lote67df,Uid2yFes,2020-0188,2021-10-15,11:17:41,12:24:19,NA,incomplete,false,true,NA,3,25,NA,orange,m_s_100.jpg,NA,NA,pleasant,unpleasant,NA,NA,NA,NA,NA,left,1404,true,NA,NA,NA,NA,NA
Uid2yFes,322zsn9z6jxccjxbpgrk4cn83gtt4w,3qemnnsb21c411hrwquer4lote67df,Uid2yFes,2020-0188,2021-10-15,11:17:41,12:24:19,NA,incomplete,false,true,NA,3,26,NA,orange,n_s_053.jpg,NA,NA,pleasant,unpleasant,NA,NA,NA,NA,NA,left,1488.5,true,NA,NA,NA,NA,NA
Uid2yFes,322zsn9z6jxccjxbpgrk4cn83gtt4w,3qemnnsb21c411hrwquer4lote67df,Uid2yFes,2020-0188,2021-10-15,11:17:41,12:24:19,NA,incomplete,false,true,NA,3,27,NA,orange,m_l_050.jpg,NA,NA,unpleasant,pleasant,NA,NA,NA,NA,NA,right,1040.20000004768,true,NA,NA,NA,NA,NA
Uid2yFes,322zsn9z6jxccjxbpgrk4cn83gtt4w,3qemnnsb21c411hrwquer4lote67df,Uid2yFes,2020-0188,2021-10-15,11:17:41,12:24:19,NA,incomplete,false,true,NA,3,28,NA,orange,n_s_090.jpg,NA,NA,pleasant,unpleasant,NA,NA,NA,NA,NA,left,1069.60000014305,true,NA,NA,NA,NA,NA
Uid2yFes,322zsn9z6jxccjxbpgrk4cn83gtt4w,3qemnnsb21c411hrwquer4lote67df,Uid2yFes,2020-0188,2021-10-15,11:17:41,12:24:19,NA,incomplete,false,true,NA,3,29,NA,orange,m_s_109.jpg,NA,NA,unpleasant,pleasant,NA,NA,NA,NA,NA,left,1413.90000009537,true,NA,NA,NA,NA,NA
Uid2yFes,322zsn9z6jxccjxbpgrk4cn83gtt4w,3qemnnsb21c411hrwquer4lote67df,Uid2yFes,2020-0188,2021-10-15,11:17:41,12:24:19,NA,incomplete,false,true,NA,3,30,NA,yellow,m_l_078.jpg,NA,NA,pleasant,unpleasant,NA,NA,NA,NA,NA,left,1619.59999990463,true,NA,NA,NA,NA,NA
Uid2yFes,322zsn9z6jxccjxbpgrk4cn83gtt4w,3qemnnsb21c411hrwquer4lote67df,Uid2yFes,2020-0188,2021-10-15,11:17:41,12:24:19,NA,incomplete,false,true,NA,3,31,NA,yellow,n_l_078.jpg,NA,NA,pleasant,unpleasant,NA,NA,NA,NA,NA,right,1440,true,NA,NA,NA,NA,NA
Uid2yFes,322zsn9z6jxccjxbpgrk4cn83gtt4w,3qemnnsb21c411hrwquer4lote67df,Uid2yFes,2020-0188,2021-10-15,11:17:41,12:24:19,NA,incomplete,false,true,NA,3,32,NA,yellow,m_l_056.jpg,NA,NA,pleasant,unpleasant,NA,NA,NA,NA,NA,left,1059.90000009537,true,NA,NA,NA,NA,NA
Uid2yFes,322zsn9z6jxccjxbpgrk4cn83gtt4w,3qemnnsb21c411hrwquer4lote67df,Uid2yFes,2020-0188,2021-10-15,11:17:41,12:24:19,NA,incomplete,false,true,NA,3,33,NA,yellow,n_s_080.jpg,NA,NA,pleasant,unpleasant,NA,NA,NA,NA,NA,left,1019.59999990463,true,NA,NA,NA,NA,NA
Uid2yFes,322zsn9z6jxccjxbpgrk4cn83gtt4w,3qemnnsb21c411hrwquer4lote67df,Uid2yFes,2020-0188,2021-10-15,11:17:41,12:24:19,NA,incomplete,false,true,NA,3,34,NA,yellow,m_l_108.jpg,NA,NA,unpleasant,pleasant,NA,NA,NA,NA,NA,right,1645.59999990463,true,NA,NA,NA,NA,NA
Uid2yFes,322zsn9z6jxccjxbpgrk4cn83gtt4w,3qemnnsb21c411hrwquer4lote67df,Uid2yFes,2020-0188,2021-10-15,11:17:41,12:24:19,NA,incomplete,false,true,NA,3,35,NA,yellow,n_l_101.jpg,NA,NA,unpleasant,pleasant,NA,NA,NA,NA,NA,left,1633.09999990463,true,NA,NA,NA,NA,NA
Uid2yFes,322zsn9z6jxccjxbpgrk4cn83gtt4w,3qemnnsb21c411hrwquer4lote67df,Uid2yFes,2020-0188,2021-10-15,11:17:41,12:24:19,NA,incomplete,false,NA,true,3,0,NA,NA,NA,left,present,NA,NA,m_s_063.jpg,white,m_l_085.jpg,blue,between,NA,NaN,NA,left,5527.400000095367,1,1,1811.2000000476837
Uid2yFes,322zsn9z6jxccjxbpgrk4cn83gtt4w,3qemnnsb21c411hrwquer4lote67df,Uid2yFes,2020-0188,2021-10-15,11:17:41,12:24:19,NA,incomplete,false,NA,true,3,1,NA,NA,NA,left,present,NA,NA,n_l_061.jpg,white,m_l_034.jpg,white,within,NA,NaN,NA,right,6318.799999952316,0,0,1603.2000000476837
Uid2yFes,322zsn9z6jxccjxbpgrk4cn83gtt4w,3qemnnsb21c411hrwquer4lote67df,Uid2yFes,2020-0188,2021-10-15,11:17:41,12:24:19,NA,incomplete,false,NA,true,3,2,NA,NA,NA,right,present,NA,NA,m_s_024.jpg,green,m_s_060.jpg,green,within,NA,NaN,NA,left,2394.2000000476837,0,0,1332.8999998569489
Uid2yFes,322zsn9z6jxccjxbpgrk4cn83gtt4w,3qemnnsb21c411hrwquer4lote67df,Uid2yFes,2020-0188,2021-10-15,11:17:41,12:24:19,NA,incomplete,false,NA,true,3,3,NA,NA,NA,left,present,NA,NA,m_l_068.jpg,blue,n_l_017.jpg,red,between,NA,NaN,NA,left,3503.2999999523163,1,1,1239.9000000953674
Uid2yFes,322zsn9z6jxccjxbpgrk4cn83gtt4w,3qemnnsb21c411hrwquer4lote67df,Uid2yFes,2020-0188,2021-10-15,11:17:41,12:24:19,NA,incomplete,false,NA,true,3,4,NA,NA,NA,right,present,NA,NA,m_l_002.jpg,blue,m_s_115.jpg,blue,within,NA,NaN,NA,right,4289.799999952316,1,0,2103.7999999523163
Uid2yFes,322zsn9z6jxccjxbpgrk4cn83gtt4w,3qemnnsb21c411hrwquer4lote67df,Uid2yFes,2020-0188,2021-10-15,11:17:41,12:24:19,NA,incomplete,false,NA,true,3,5,NA,NA,NA,right,present,NA,NA,m_l_056.jpg,yellow,n_s_090.jpg,orange,between,NA,NaN,NA,right,4389.900000095367,1,1,934.2999999523163
Uid2yFes,322zsn9z6jxccjxbpgrk4cn83gtt4w,3qemnnsb21c411hrwquer4lote67df,Uid2yFes,2020-0188,2021-10-15,11:17:41,12:24:19,NA,incomplete,false,NA,true,3,6,NA,NA,NA,left,present,NA,NA,n_l_078.jpg,yellow,n_l_101.jpg,yellow,within,NA,NaN,NA,left,2727.5999999046326,1,0,905.7999999523163
Uid2yFes,322zsn9z6jxccjxbpgrk4cn83gtt4w,3qemnnsb21c411hrwquer4lote67df,Uid2yFes,2020-0188,2021-10-15,11:17:41,12:24:19,NA,incomplete,false,NA,true,3,7,NA,NA,NA,right,present,NA,NA,n_s_053.jpg,orange,n_s_037.jpg,red,between,NA,NaN,NA,right,3419.5999999046326,1,1,1839.8999998569489
Uid2yFes,322zsn9z6jxccjxbpgrk4cn83gtt4w,3qemnnsb21c411hrwquer4lote67df,Uid2yFes,2020-0188,2021-10-15,11:17:41,12:24:19,NA,incomplete,false,NA,true,3,8,NA,NA,NA,right,present,NA,NA,m_s_036.jpg,red,m_l_009.jpg,red,within,NA,NaN,NA,right,4967.299999952316,1,0,1091.0999999046326
Uid2yFes,322zsn9z6jxccjxbpgrk4cn83gtt4w,3qemnnsb21c411hrwquer4lote67df,Uid2yFes,2020-0188,2021-10-15,11:17:41,12:24:19,NA,incomplete,false,NA,true,3,9,NA,NA,NA,left,present,NA,NA,n_s_049.jpg,green,n_l_053.jpg,white,between,NA,NaN,NA,left,3717.0999999046326,1,1,3095
Uid2yFes,322zsn9z6jxccjxbpgrk4cn83gtt4w,3qemnnsb21c411hrwquer4lote67df,Uid2yFes,2020-0188,2021-10-15,11:17:41,12:24:19,NA,incomplete,false,NA,true,3,10,NA,NA,NA,left,present,NA,NA,m_s_100.jpg,orange,m_s_109.jpg,orange,within,NA,NaN,NA,left,5100.299999952316,1,0,947.7999999523163
Uid2yFes,322zsn9z6jxccjxbpgrk4cn83gtt4w,3qemnnsb21c411hrwquer4lote67df,Uid2yFes,2020-0188,2021-10-15,11:17:41,12:24:19,NA,incomplete,false,true,NA,4,0,NA,orange,n_s_079.jpg,NA,NA,pleasant,unpleasant,NA,NA,NA,NA,NA,left,1488.29999995232,true,NA,NA,NA,NA,NA
Uid2yFes,322zsn9z6jxccjxbpgrk4cn83gtt4w,3qemnnsb21c411hrwquer4lote67df,Uid2yFes,2020-0188,2021-10-15,11:17:41,12:24:19,NA,incomplete,false,true,NA,4,1,NA,orange,m_s_110.jpg,NA,NA,unpleasant,pleasant,NA,NA,NA,NA,NA,left,1915.79999995232,true,NA,NA,NA,NA,NA
Uid2yFes,322zsn9z6jxccjxbpgrk4cn83gtt4w,3qemnnsb21c411hrwquer4lote67df,Uid2yFes,2020-0188,2021-10-15,11:17:41,12:24:19,NA,incomplete,false,true,NA,4,2,NA,orange,n_l_037.jpg,NA,NA,pleasant,unpleasant,NA,NA,NA,NA,NA,right,1354.10000014305,true,NA,NA,NA,NA,NA
Uid2yFes,322zsn9z6jxccjxbpgrk4cn83gtt4w,3qemnnsb21c411hrwquer4lote67df,Uid2yFes,2020-0188,2021-10-15,11:17:41,12:24:19,NA,incomplete,false,true,NA,4,3,NA,orange,m_l_025.jpg,NA,NA,pleasant,unpleasant,NA,NA,NA,NA,NA,left,1284.20000004768,true,NA,NA,NA,NA,NA
Uid2yFes,322zsn9z6jxccjxbpgrk4cn83gtt4w,3qemnnsb21c411hrwquer4lote67df,Uid2yFes,2020-0188,2021-10-15,11:17:41,12:24:19,NA,incomplete,false,true,NA,4,4,NA,orange,n_l_018.jpg,NA,NA,unpleasant,pleasant,NA,NA,NA,NA,NA,left,1646.5,true,NA,NA,NA,NA,NA
Uid2yFes,322zsn9z6jxccjxbpgrk4cn83gtt4w,3qemnnsb21c411hrwquer4lote67df,Uid2yFes,2020-0188,2021-10-15,11:17:41,12:24:19,NA,incomplete,false,true,NA,4,5,NA,orange,m_l_093.jpg,NA,NA,unpleasant,pleasant,NA,NA,NA,NA,NA,right,1658.5,true,NA,NA,NA,NA,NA
Uid2yFes,322zsn9z6jxccjxbpgrk4cn83gtt4w,3qemnnsb21c411hrwquer4lote67df,Uid2yFes,2020-0188,2021-10-15,11:17:41,12:24:19,NA,incomplete,false,true,NA,4,6,NA,white,n_l_063.jpg,NA,NA,pleasant,unpleasant,NA,NA,NA,NA,NA,left,1554.70000004768,true,NA,NA,NA,NA,NA
Uid2yFes,322zsn9z6jxccjxbpgrk4cn83gtt4w,3qemnnsb21c411hrwquer4lote67df,Uid2yFes,2020-0188,2021-10-15,11:17:41,12:24:19,NA,incomplete,false,true,NA,4,7,NA,white,n_l_089.jpg,NA,NA,unpleasant,pleasant,NA,NA,NA,NA,NA,right,1246.20000004768,true,NA,NA,NA,NA,NA
Uid2yFes,322zsn9z6jxccjxbpgrk4cn83gtt4w,3qemnnsb21c411hrwquer4lote67df,Uid2yFes,2020-0188,2021-10-15,11:17:41,12:24:19,NA,incomplete,false,true,NA,4,8,NA,white,n_l_021.jpg,NA,NA,unpleasant,pleasant,NA,NA,NA,NA,NA,right,1148.29999995232,true,NA,NA,NA,NA,NA
Uid2yFes,322zsn9z6jxccjxbpgrk4cn83gtt4w,3qemnnsb21c411hrwquer4lote67df,Uid2yFes,2020-0188,2021-10-15,11:17:41,12:24:19,NA,incomplete,false,true,NA,4,9,NA,white,n_s_089.jpg,NA,NA,unpleasant,pleasant,NA,NA,NA,NA,NA,right,1046.70000004768,true,NA,NA,NA,NA,NA
Uid2yFes,322zsn9z6jxccjxbpgrk4cn83gtt4w,3qemnnsb21c411hrwquer4lote67df,Uid2yFes,2020-0188,2021-10-15,11:17:41,12:24:19,NA,incomplete,false,true,NA,4,10,NA,white,m_s_007.jpg,NA,NA,pleasant,unpleasant,NA,NA,NA,NA,NA,left,1179.79999995232,true,NA,NA,NA,NA,NA
Uid2yFes,322zsn9z6jxccjxbpgrk4cn83gtt4w,3qemnnsb21c411hrwquer4lote67df,Uid2yFes,2020-0188,2021-10-15,11:17:41,12:24:19,NA,incomplete,false,true,NA,4,11,NA,white,m_s_015.jpg,NA,NA,pleasant,unpleasant,NA,NA,NA,NA,NA,right,1089,true,NA,NA,NA,NA,NA
Uid2yFes,322zsn9z6jxccjxbpgrk4cn83gtt4w,3qemnnsb21c411hrwquer4lote67df,Uid2yFes,2020-0188,2021-10-15,11:17:41,12:24:19,NA,incomplete,false,true,NA,4,12,NA,purple,n_s_021.jpg,NA,NA,unpleasant,pleasant,NA,NA,NA,NA,NA,right,1464.39999985695,true,NA,NA,NA,NA,NA
Uid2yFes,322zsn9z6jxccjxbpgrk4cn83gtt4w,3qemnnsb21c411hrwquer4lote67df,Uid2yFes,2020-0188,2021-10-15,11:17:41,12:24:19,NA,incomplete,false,true,NA,4,13,NA,purple,n_s_043.jpg,NA,NA,unpleasant,pleasant,NA,NA,NA,NA,NA,right,1186.10000014305,true,NA,NA,NA,NA,NA
Uid2yFes,322zsn9z6jxccjxbpgrk4cn83gtt4w,3qemnnsb21c411hrwquer4lote67df,Uid2yFes,2020-0188,2021-10-15,11:17:41,12:24:19,NA,incomplete,false,true,NA,4,14,NA,purple,n_s_042.jpg,NA,NA,unpleasant,pleasant,NA,NA,NA,NA,NA,left,990.799999952316,true,NA,NA,NA,NA,NA
Uid2yFes,322zsn9z6jxccjxbpgrk4cn83gtt4w,3qemnnsb21c411hrwquer4lote67df,Uid2yFes,2020-0188,2021-10-15,11:17:41,12:24:19,NA,incomplete,false,true,NA,4,15,NA,purple,m_s_112.jpg,NA,NA,unpleasant,pleasant,NA,NA,NA,NA,NA,right,1477.90000009537,true,NA,NA,NA,NA,NA
Uid2yFes,322zsn9z6jxccjxbpgrk4cn83gtt4w,3qemnnsb21c411hrwquer4lote67df,Uid2yFes,2020-0188,2021-10-15,11:17:41,12:24:19,NA,incomplete,false,true,NA,4,16,NA,purple,m_l_033.jpg,NA,NA,unpleasant,pleasant,NA,NA,NA,NA,NA,left,990,true,NA,NA,NA,NA,NA
Uid2yFes,322zsn9z6jxccjxbpgrk4cn83gtt4w,3qemnnsb21c411hrwquer4lote67df,Uid2yFes,2020-0188,2021-10-15,11:17:41,12:24:19,NA,incomplete,false,true,NA,4,17,NA,purple,n_s_022.jpg,NA,NA,pleasant,unpleasant,NA,NA,NA,NA,NA,left,1357.39999985695,true,NA,NA,NA,NA,NA
Uid2yFes,322zsn9z6jxccjxbpgrk4cn83gtt4w,3qemnnsb21c411hrwquer4lote67df,Uid2yFes,2020-0188,2021-10-15,11:17:41,12:24:19,NA,incomplete,false,true,NA,4,18,NA,black,n_l_062.jpg,NA,NA,pleasant,unpleasant,NA,NA,NA,NA,NA,left,2099.89999985695,true,NA,NA,NA,NA,NA
Uid2yFes,322zsn9z6jxccjxbpgrk4cn83gtt4w,3qemnnsb21c411hrwquer4lote67df,Uid2yFes,2020-0188,2021-10-15,11:17:41,12:24:19,NA,incomplete,false,true,NA,4,19,NA,black,n_l_056.jpg,NA,NA,pleasant,unpleasant,NA,NA,NA,NA,NA,left,1600.69999980927,true,NA,NA,NA,NA,NA
Uid2yFes,322zsn9z6jxccjxbpgrk4cn83gtt4w,3qemnnsb21c411hrwquer4lote67df,Uid2yFes,2020-0188,2021-10-15,11:17:41,12:24:19,NA,incomplete,false,true,NA,4,20,NA,black,n_l_029.jpg,NA,NA,pleasant,unpleasant,NA,NA,NA,NA,NA,left,1269.59999990463,true,NA,NA,NA,NA,NA
Uid2yFes,322zsn9z6jxccjxbpgrk4cn83gtt4w,3qemnnsb21c411hrwquer4lote67df,Uid2yFes,2020-0188,2021-10-15,11:17:41,12:24:19,NA,incomplete,false,true,NA,4,21,NA,black,m_l_043.jpg,NA,NA,pleasant,unpleasant,NA,NA,NA,NA,NA,left,1393.59999990463,true,NA,NA,NA,NA,NA
Uid2yFes,322zsn9z6jxccjxbpgrk4cn83gtt4w,3qemnnsb21c411hrwquer4lote67df,Uid2yFes,2020-0188,2021-10-15,11:17:41,12:24:19,NA,incomplete,false,true,NA,4,22,NA,black,m_l_023.jpg,NA,NA,pleasant,unpleasant,NA,NA,NA,NA,NA,right,1051.09999990463,true,NA,NA,NA,NA,NA
Uid2yFes,322zsn9z6jxccjxbpgrk4cn83gtt4w,3qemnnsb21c411hrwquer4lote67df,Uid2yFes,2020-0188,2021-10-15,11:17:41,12:24:19,NA,incomplete,false,true,NA,4,23,NA,black,m_l_016.jpg,NA,NA,unpleasant,pleasant,NA,NA,NA,NA,NA,right,1154.70000004768,true,NA,NA,NA,NA,NA
Uid2yFes,322zsn9z6jxccjxbpgrk4cn83gtt4w,3qemnnsb21c411hrwquer4lote67df,Uid2yFes,2020-0188,2021-10-15,11:17:41,12:24:19,NA,incomplete,false,true,NA,4,24,NA,brown,m_s_045.jpg,NA,NA,unpleasant,pleasant,NA,NA,NA,NA,NA,left,2125.60000014305,true,NA,NA,NA,NA,NA
Uid2yFes,322zsn9z6jxccjxbpgrk4cn83gtt4w,3qemnnsb21c411hrwquer4lote67df,Uid2yFes,2020-0188,2021-10-15,11:17:41,12:24:19,NA,incomplete,false,true,NA,4,25,NA,brown,m_s_103.jpg,NA,NA,unpleasant,pleasant,NA,NA,NA,NA,NA,left,2021,true,NA,NA,NA,NA,NA
Uid2yFes,322zsn9z6jxccjxbpgrk4cn83gtt4w,3qemnnsb21c411hrwquer4lote67df,Uid2yFes,2020-0188,2021-10-15,11:17:41,12:24:19,NA,incomplete,false,true,NA,4,26,NA,brown,n_l_096.jpg,NA,NA,pleasant,unpleasant,NA,NA,NA,NA,NA,left,1727.59999990463,true,NA,NA,NA,NA,NA
Uid2yFes,322zsn9z6jxccjxbpgrk4cn83gtt4w,3qemnnsb21c411hrwquer4lote67df,Uid2yFes,2020-0188,2021-10-15,11:17:41,12:24:19,NA,incomplete,false,true,NA,4,27,NA,brown,n_s_113.jpg,NA,NA,pleasant,unpleasant,NA,NA,NA,NA,NA,right,2255.70000004768,true,NA,NA,NA,NA,NA
Uid2yFes,322zsn9z6jxccjxbpgrk4cn83gtt4w,3qemnnsb21c411hrwquer4lote67df,Uid2yFes,2020-0188,2021-10-15,11:17:41,12:24:19,NA,incomplete,false,true,NA,4,28,NA,brown,m_l_075.jpg,NA,NA,pleasant,unpleasant,NA,NA,NA,NA,NA,left,1112.60000014305,true,NA,NA,NA,NA,NA
Uid2yFes,322zsn9z6jxccjxbpgrk4cn83gtt4w,3qemnnsb21c411hrwquer4lote67df,Uid2yFes,2020-0188,2021-10-15,11:17:41,12:24:19,NA,incomplete,false,true,NA,4,29,NA,brown,m_l_060.jpg,NA,NA,unpleasant,pleasant,NA,NA,NA,NA,NA,left,1460.09999990463,true,NA,NA,NA,NA,NA
Uid2yFes,322zsn9z6jxccjxbpgrk4cn83gtt4w,3qemnnsb21c411hrwquer4lote67df,Uid2yFes,2020-0188,2021-10-15,11:17:41,12:24:19,NA,incomplete,false,true,NA,4,30,NA,blue,m_s_054.jpg,NA,NA,pleasant,unpleasant,NA,NA,NA,NA,NA,left,2281.5,true,NA,NA,NA,NA,NA
Uid2yFes,322zsn9z6jxccjxbpgrk4cn83gtt4w,3qemnnsb21c411hrwquer4lote67df,Uid2yFes,2020-0188,2021-10-15,11:17:41,12:24:19,NA,incomplete,false,true,NA,4,31,NA,blue,m_s_018.jpg,NA,NA,unpleasant,pleasant,NA,NA,NA,NA,NA,right,1655.59999990463,true,NA,NA,NA,NA,NA
Uid2yFes,322zsn9z6jxccjxbpgrk4cn83gtt4w,3qemnnsb21c411hrwquer4lote67df,Uid2yFes,2020-0188,2021-10-15,11:17:41,12:24:19,NA,incomplete,false,true,NA,4,32,NA,blue,n_l_064.jpg,NA,NA,unpleasant,pleasant,NA,NA,NA,NA,NA,right,967.399999856949,true,NA,NA,NA,NA,NA
Uid2yFes,322zsn9z6jxccjxbpgrk4cn83gtt4w,3qemnnsb21c411hrwquer4lote67df,Uid2yFes,2020-0188,2021-10-15,11:17:41,12:24:19,NA,incomplete,false,true,NA,4,33,NA,blue,n_s_019.jpg,NA,NA,pleasant,unpleasant,NA,NA,NA,NA,NA,right,1076.09999990463,true,NA,NA,NA,NA,NA
Uid2yFes,322zsn9z6jxccjxbpgrk4cn83gtt4w,3qemnnsb21c411hrwquer4lote67df,Uid2yFes,2020-0188,2021-10-15,11:17:41,12:24:19,NA,incomplete,false,true,NA,4,34,NA,blue,n_l_083.jpg,NA,NA,unpleasant,pleasant,NA,NA,NA,NA,NA,right,1016.10000014305,true,NA,NA,NA,NA,NA
Uid2yFes,322zsn9z6jxccjxbpgrk4cn83gtt4w,3qemnnsb21c411hrwquer4lote67df,Uid2yFes,2020-0188,2021-10-15,11:17:41,12:24:19,NA,incomplete,false,true,NA,4,35,NA,blue,n_l_093.jpg,NA,NA,unpleasant,pleasant,NA,NA,NA,NA,NA,left,2273.59999990463,true,NA,NA,NA,NA,NA
Uid2yFes,322zsn9z6jxccjxbpgrk4cn83gtt4w,3qemnnsb21c411hrwquer4lote67df,Uid2yFes,2020-0188,2021-10-15,11:17:41,12:24:19,NA,incomplete,false,NA,true,4,0,NA,NA,NA,right,absent,NA,NA,m_l_016.jpg,black,n_l_056.jpg,black,within,NA,NaN,NA,right,6632.300000190735,1,1,2530.399999856949
Uid2yFes,322zsn9z6jxccjxbpgrk4cn83gtt4w,3qemnnsb21c411hrwquer4lote67df,Uid2yFes,2020-0188,2021-10-15,11:17:41,12:24:19,NA,incomplete,false,NA,true,4,1,NA,NA,NA,right,absent,NA,NA,n_l_096.jpg,brown,m_l_023.jpg,black,between,NA,NaN,NA,right,5158.099999904633,1,2,1387.2999999523163
Uid2yFes,322zsn9z6jxccjxbpgrk4cn83gtt4w,3qemnnsb21c411hrwquer4lote67df,Uid2yFes,2020-0188,2021-10-15,11:17:41,12:24:19,NA,incomplete,false,NA,true,4,2,NA,NA,NA,right,absent,NA,NA,n_l_021.jpg,white,n_l_018.jpg,orange,between,NA,NaN,NA,left,4137.700000047684,0,1,1812.9000000953674
Uid2yFes,322zsn9z6jxccjxbpgrk4cn83gtt4w,3qemnnsb21c411hrwquer4lote67df,Uid2yFes,2020-0188,2021-10-15,11:17:41,12:24:19,NA,incomplete,false,NA,true,4,3,NA,NA,NA,right,absent,NA,NA,m_l_060.jpg,brown,m_s_103.jpg,brown,within,NA,NaN,NA,right,4041.899999856949,1,0,960.0999999046326
Uid2yFes,322zsn9z6jxccjxbpgrk4cn83gtt4w,3qemnnsb21c411hrwquer4lote67df,Uid2yFes,2020-0188,2021-10-15,11:17:41,12:24:19,NA,incomplete,false,NA,true,4,4,NA,NA,NA,right,absent,NA,NA,m_l_093.jpg,orange,m_s_110.jpg,orange,within,NA,NaN,NA,right,2153.5999999046326,1,0,1031.2999999523163
Uid2yFes,322zsn9z6jxccjxbpgrk4cn83gtt4w,3qemnnsb21c411hrwquer4lote67df,Uid2yFes,2020-0188,2021-10-15,11:17:41,12:24:19,NA,incomplete,false,NA,true,4,5,NA,NA,NA,left,absent,NA,NA,n_s_043.jpg,purple,n_s_022.jpg,purple,within,NA,NaN,NA,left,2870.9000000953674,1,0,955.4000000953674
Uid2yFes,322zsn9z6jxccjxbpgrk4cn83gtt4w,3qemnnsb21c411hrwquer4lote67df,Uid2yFes,2020-0188,2021-10-15,11:17:41,12:24:19,NA,incomplete,false,NA,true,4,6,NA,NA,NA,left,absent,NA,NA,m_l_033.jpg,purple,n_l_029.jpg,black,between,NA,NaN,NA,right,2497.5,0,1,1064.6000001430511
Uid2yFes,322zsn9z6jxccjxbpgrk4cn83gtt4w,3qemnnsb21c411hrwquer4lote67df,Uid2yFes,2020-0188,2021-10-15,11:17:41,12:24:19,NA,incomplete,false,NA,true,4,7,NA,NA,NA,left,absent,NA,NA,m_l_075.jpg,brown,n_l_064.jpg,blue,between,NA,NaN,NA,right,5112.200000047684,0,2,1042.3999998569489
Uid2yFes,322zsn9z6jxccjxbpgrk4cn83gtt4w,3qemnnsb21c411hrwquer4lote67df,Uid2yFes,2020-0188,2021-10-15,11:17:41,12:24:19,NA,incomplete,false,NA,true,4,8,NA,NA,NA,left,absent,NA,NA,m_s_018.jpg,blue,n_l_093.jpg,blue,within,NA,NaN,NA,left,4227.099999904633,1,0,954.2000000476837
Uid2yFes,322zsn9z6jxccjxbpgrk4cn83gtt4w,3qemnnsb21c411hrwquer4lote67df,Uid2yFes,2020-0188,2021-10-15,11:17:41,12:24:19,NA,incomplete,false,NA,true,4,9,NA,NA,NA,left,absent,NA,NA,m_s_007.jpg,white,n_s_042.jpg,purple,between,NA,NaN,NA,left,2348.9000000953674,1,0,1383.7999999523163
Uid2yFes,322zsn9z6jxccjxbpgrk4cn83gtt4w,3qemnnsb21c411hrwquer4lote67df,Uid2yFes,2020-0188,2021-10-15,11:17:41,12:24:19,NA,incomplete,false,NA,true,4,10,NA,NA,NA,right,absent,NA,NA,m_s_015.jpg,white,n_l_089.jpg,white,within,NA,NaN,NA,right,13176.800000190735,1,0,1499.7000000476837
Uid2yFes,322zsn9z6jxccjxbpgrk4cn83gtt4w,3qemnnsb21c411hrwquer4lote67df,Uid2yFes,2020-0188,2021-10-15,11:17:41,12:24:19,NA,incomplete,false,true,NA,5,0,NA,black,n_s_009.jpg,NA,NA,unpleasant,pleasant,NA,NA,NA,NA,NA,left,1349.89999985695,true,NA,NA,NA,NA,NA
Uid2yFes,322zsn9z6jxccjxbpgrk4cn83gtt4w,3qemnnsb21c411hrwquer4lote67df,Uid2yFes,2020-0188,2021-10-15,11:17:41,12:24:19,NA,incomplete,false,true,NA,5,1,NA,black,n_s_097.jpg,NA,NA,pleasant,unpleasant,NA,NA,NA,NA,NA,left,1327,true,NA,NA,NA,NA,NA
Uid2yFes,322zsn9z6jxccjxbpgrk4cn83gtt4w,3qemnnsb21c411hrwquer4lote67df,Uid2yFes,2020-0188,2021-10-15,11:17:41,12:24:19,NA,incomplete,false,true,NA,5,2,NA,black,m_s_080.jpg,NA,NA,unpleasant,pleasant,NA,NA,NA,NA,NA,left,2013.39999985695,true,NA,NA,NA,NA,NA
Uid2yFes,322zsn9z6jxccjxbpgrk4cn83gtt4w,3qemnnsb21c411hrwquer4lote67df,Uid2yFes,2020-0188,2021-10-15,11:17:41,12:24:19,NA,incomplete,false,true,NA,5,3,NA,black,n_s_099.jpg,NA,NA,pleasant,unpleasant,NA,NA,NA,NA,NA,left,1964.70000004768,true,NA,NA,NA,NA,NA
Uid2yFes,322zsn9z6jxccjxbpgrk4cn83gtt4w,3qemnnsb21c411hrwquer4lote67df,Uid2yFes,2020-0188,2021-10-15,11:17:41,12:24:19,NA,incomplete,false,true,NA,5,4,NA,black,m_l_007.jpg,NA,NA,unpleasant,pleasant,NA,NA,NA,NA,NA,left,1454.20000004768,true,NA,NA,NA,NA,NA
Uid2yFes,322zsn9z6jxccjxbpgrk4cn83gtt4w,3qemnnsb21c411hrwquer4lote67df,Uid2yFes,2020-0188,2021-10-15,11:17:41,12:24:19,NA,incomplete,false,true,NA,5,5,NA,black,n_s_101.jpg,NA,NA,pleasant,unpleasant,NA,NA,NA,NA,NA,left,1683.39999985695,true,NA,NA,NA,NA,NA
Uid2yFes,322zsn9z6jxccjxbpgrk4cn83gtt4w,3qemnnsb21c411hrwquer4lote67df,Uid2yFes,2020-0188,2021-10-15,11:17:41,12:24:19,NA,incomplete,false,true,NA,5,6,NA,blue,m_l_076.jpg,NA,NA,pleasant,unpleasant,NA,NA,NA,NA,NA,right,1719.20000004768,true,NA,NA,NA,NA,NA
Uid2yFes,322zsn9z6jxccjxbpgrk4cn83gtt4w,3qemnnsb21c411hrwquer4lote67df,Uid2yFes,2020-0188,2021-10-15,11:17:41,12:24:19,NA,incomplete,false,true,NA,5,7,NA,blue,n_l_040.jpg,NA,NA,unpleasant,pleasant,NA,NA,NA,NA,NA,left,1561.80000019073,true,NA,NA,NA,NA,NA
Uid2yFes,322zsn9z6jxccjxbpgrk4cn83gtt4w,3qemnnsb21c411hrwquer4lote67df,Uid2yFes,2020-0188,2021-10-15,11:17:41,12:24:19,NA,incomplete,false,true,NA,5,8,NA,blue,m_s_055.jpg,NA,NA,pleasant,unpleasant,NA,NA,NA,NA,NA,left,1261.29999995232,true,NA,NA,NA,NA,NA
Uid2yFes,322zsn9z6jxccjxbpgrk4cn83gtt4w,3qemnnsb21c411hrwquer4lote67df,Uid2yFes,2020-0188,2021-10-15,11:17:41,12:24:19,NA,incomplete,false,true,NA,5,9,NA,blue,m_l_040.jpg,NA,NA,pleasant,unpleasant,NA,NA,NA,NA,NA,left,1124,true,NA,NA,NA,NA,NA
Uid2yFes,322zsn9z6jxccjxbpgrk4cn83gtt4w,3qemnnsb21c411hrwquer4lote67df,Uid2yFes,2020-0188,2021-10-15,11:17:41,12:24:19,NA,incomplete,false,true,NA,5,10,NA,blue,m_s_094.jpg,NA,NA,pleasant,unpleasant,NA,NA,NA,NA,NA,left,1069.70000004768,true,NA,NA,NA,NA,NA
Uid2yFes,322zsn9z6jxccjxbpgrk4cn83gtt4w,3qemnnsb21c411hrwquer4lote67df,Uid2yFes,2020-0188,2021-10-15,11:17:41,12:24:19,NA,incomplete,false,true,NA,5,11,NA,blue,n_l_016.jpg,NA,NA,unpleasant,pleasant,NA,NA,NA,NA,NA,right,1551.10000014305,true,NA,NA,NA,NA,NA
Uid2yFes,322zsn9z6jxccjxbpgrk4cn83gtt4w,3qemnnsb21c411hrwquer4lote67df,Uid2yFes,2020-0188,2021-10-15,11:17:41,12:24:19,NA,incomplete,false,true,NA,5,12,NA,green,m_l_021.jpg,NA,NA,unpleasant,pleasant,NA,NA,NA,NA,NA,left,1331.09999990463,true,NA,NA,NA,NA,NA
Uid2yFes,322zsn9z6jxccjxbpgrk4cn83gtt4w,3qemnnsb21c411hrwquer4lote67df,Uid2yFes,2020-0188,2021-10-15,11:17:41,12:24:19,NA,incomplete,false,true,NA,5,13,NA,green,m_s_014.jpg,NA,NA,unpleasant,pleasant,NA,NA,NA,NA,NA,left,1104.29999995232,true,NA,NA,NA,NA,NA
Uid2yFes,322zsn9z6jxccjxbpgrk4cn83gtt4w,3qemnnsb21c411hrwquer4lote67df,Uid2yFes,2020-0188,2021-10-15,11:17:41,12:24:19,NA,incomplete,false,true,NA,5,14,NA,green,n_l_043.jpg,NA,NA,unpleasant,pleasant,NA,NA,NA,NA,NA,left,1793.70000004768,true,NA,NA,NA,NA,NA
Uid2yFes,322zsn9z6jxccjxbpgrk4cn83gtt4w,3qemnnsb21c411hrwquer4lote67df,Uid2yFes,2020-0188,2021-10-15,11:17:41,12:24:19,NA,incomplete,false,true,NA,5,15,NA,green,m_l_048.jpg,NA,NA,pleasant,unpleasant,NA,NA,NA,NA,NA,right,1854.40000009537,true,NA,NA,NA,NA,NA
Uid2yFes,322zsn9z6jxccjxbpgrk4cn83gtt4w,3qemnnsb21c411hrwquer4lote67df,Uid2yFes,2020-0188,2021-10-15,11:17:41,12:24:19,NA,incomplete,false,true,NA,5,16,NA,green,n_l_104.jpg,NA,NA,pleasant,unpleasant,NA,NA,NA,NA,NA,right,1618.59999990463,true,NA,NA,NA,NA,NA
Uid2yFes,322zsn9z6jxccjxbpgrk4cn83gtt4w,3qemnnsb21c411hrwquer4lote67df,Uid2yFes,2020-0188,2021-10-15,11:17:41,12:24:19,NA,incomplete,false,true,NA,5,17,NA,green,m_s_042.jpg,NA,NA,pleasant,unpleasant,NA,NA,NA,NA,NA,left,2195.40000009537,true,NA,NA,NA,NA,NA
Uid2yFes,322zsn9z6jxccjxbpgrk4cn83gtt4w,3qemnnsb21c411hrwquer4lote67df,Uid2yFes,2020-0188,2021-10-15,11:17:41,12:24:19,NA,incomplete,false,true,NA,5,18,NA,gray,n_s_024.jpg,NA,NA,pleasant,unpleasant,NA,NA,NA,NA,NA,right,2222.5,true,NA,NA,NA,NA,NA
Uid2yFes,322zsn9z6jxccjxbpgrk4cn83gtt4w,3qemnnsb21c411hrwquer4lote67df,Uid2yFes,2020-0188,2021-10-15,11:17:41,12:24:19,NA,incomplete,false,true,NA,5,19,NA,gray,n_l_046.jpg,NA,NA,pleasant,unpleasant,NA,NA,NA,NA,NA,left,1228.90000009537,true,NA,NA,NA,NA,NA
Uid2yFes,322zsn9z6jxccjxbpgrk4cn83gtt4w,3qemnnsb21c411hrwquer4lote67df,Uid2yFes,2020-0188,2021-10-15,11:17:41,12:24:19,NA,incomplete,false,true,NA,5,20,NA,gray,n_l_015.jpg,NA,NA,unpleasant,pleasant,NA,NA,NA,NA,NA,left,1811.20000004768,true,NA,NA,NA,NA,NA
Uid2yFes,322zsn9z6jxccjxbpgrk4cn83gtt4w,3qemnnsb21c411hrwquer4lote67df,Uid2yFes,2020-0188,2021-10-15,11:17:41,12:24:19,NA,incomplete,false,true,NA,5,21,NA,gray,n_l_010.jpg,NA,NA,pleasant,unpleasant,NA,NA,NA,NA,NA,right,1156.40000009537,true,NA,NA,NA,NA,NA
Uid2yFes,322zsn9z6jxccjxbpgrk4cn83gtt4w,3qemnnsb21c411hrwquer4lote67df,Uid2yFes,2020-0188,2021-10-15,11:17:41,12:24:19,NA,incomplete,false,true,NA,5,22,NA,gray,m_l_089.jpg,NA,NA,unpleasant,pleasant,NA,NA,NA,NA,NA,right,1685.69999980927,true,NA,NA,NA,NA,NA
Uid2yFes,322zsn9z6jxccjxbpgrk4cn83gtt4w,3qemnnsb21c411hrwquer4lote67df,Uid2yFes,2020-0188,2021-10-15,11:17:41,12:24:19,NA,incomplete,false,true,NA,5,23,NA,gray,m_s_078.jpg,NA,NA,pleasant,unpleasant,NA,NA,NA,NA,NA,right,1648.30000019073,true,NA,NA,NA,NA,NA
Uid2yFes,322zsn9z6jxccjxbpgrk4cn83gtt4w,3qemnnsb21c411hrwquer4lote67df,Uid2yFes,2020-0188,2021-10-15,11:17:41,12:24:19,NA,incomplete,false,true,NA,5,24,NA,purple,m_l_046.jpg,NA,NA,pleasant,unpleasant,NA,NA,NA,NA,NA,right,1727.69999980927,true,NA,NA,NA,NA,NA
Uid2yFes,322zsn9z6jxccjxbpgrk4cn83gtt4w,3qemnnsb21c411hrwquer4lote67df,Uid2yFes,2020-0188,2021-10-15,11:17:41,12:24:19,NA,incomplete,false,true,NA,5,25,NA,purple,n_l_028.jpg,NA,NA,pleasant,unpleasant,NA,NA,NA,NA,NA,left,1194.40000009537,true,NA,NA,NA,NA,NA
Uid2yFes,322zsn9z6jxccjxbpgrk4cn83gtt4w,3qemnnsb21c411hrwquer4lote67df,Uid2yFes,2020-0188,2021-10-15,11:17:41,12:24:19,NA,incomplete,false,true,NA,5,26,NA,purple,m_l_079.jpg,NA,NA,pleasant,unpleasant,NA,NA,NA,NA,NA,left,1640.70000004768,true,NA,NA,NA,NA,NA
Uid2yFes,322zsn9z6jxccjxbpgrk4cn83gtt4w,3qemnnsb21c411hrwquer4lote67df,Uid2yFes,2020-0188,2021-10-15,11:17:41,12:24:19,NA,incomplete,false,true,NA,5,27,NA,purple,m_s_027.jpg,NA,NA,unpleasant,pleasant,NA,NA,NA,NA,NA,right,1321.60000014305,true,NA,NA,NA,NA,NA
Uid2yFes,322zsn9z6jxccjxbpgrk4cn83gtt4w,3qemnnsb21c411hrwquer4lote67df,Uid2yFes,2020-0188,2021-10-15,11:17:41,12:24:19,NA,incomplete,false,true,NA,5,28,NA,purple,n_s_036.jpg,NA,NA,pleasant,unpleasant,NA,NA,NA,NA,NA,left,1925.59999990463,true,NA,NA,NA,NA,NA
Uid2yFes,322zsn9z6jxccjxbpgrk4cn83gtt4w,3qemnnsb21c411hrwquer4lote67df,Uid2yFes,2020-0188,2021-10-15,11:17:41,12:24:19,NA,incomplete,false,true,NA,5,29,NA,purple,m_s_075.jpg,NA,NA,unpleasant,pleasant,NA,NA,NA,NA,NA,left,1927.40000009537,true,NA,NA,NA,NA,NA
Uid2yFes,322zsn9z6jxccjxbpgrk4cn83gtt4w,3qemnnsb21c411hrwquer4lote67df,Uid2yFes,2020-0188,2021-10-15,11:17:41,12:24:19,NA,incomplete,false,true,NA,5,30,NA,red,n_s_103.jpg,NA,NA,pleasant,unpleasant,NA,NA,NA,NA,NA,left,1179.70000004768,true,NA,NA,NA,NA,NA
Uid2yFes,322zsn9z6jxccjxbpgrk4cn83gtt4w,3qemnnsb21c411hrwquer4lote67df,Uid2yFes,2020-0188,2021-10-15,11:17:41,12:24:19,NA,incomplete,false,true,NA,5,31,NA,red,n_l_103.jpg,NA,NA,pleasant,unpleasant,NA,NA,NA,NA,NA,right,1521.20000004768,true,NA,NA,NA,NA,NA
Uid2yFes,322zsn9z6jxccjxbpgrk4cn83gtt4w,3qemnnsb21c411hrwquer4lote67df,Uid2yFes,2020-0188,2021-10-15,11:17:41,12:24:19,NA,incomplete,false,true,NA,5,32,NA,red,n_s_095.jpg,NA,NA,pleasant,unpleasant,NA,NA,NA,NA,NA,left,1002.70000004768,true,NA,NA,NA,NA,NA
Uid2yFes,322zsn9z6jxccjxbpgrk4cn83gtt4w,3qemnnsb21c411hrwquer4lote67df,Uid2yFes,2020-0188,2021-10-15,11:17:41,12:24:19,NA,incomplete,false,true,NA,5,33,NA,red,m_l_114.jpg,NA,NA,unpleasant,pleasant,NA,NA,NA,NA,NA,right,1033.59999990463,true,NA,NA,NA,NA,NA
Uid2yFes,322zsn9z6jxccjxbpgrk4cn83gtt4w,3qemnnsb21c411hrwquer4lote67df,Uid2yFes,2020-0188,2021-10-15,11:17:41,12:24:19,NA,incomplete,false,true,NA,5,34,NA,red,m_l_003.jpg,NA,NA,pleasant,unpleasant,NA,NA,NA,NA,NA,right,1173.29999995232,true,NA,NA,NA,NA,NA
Uid2yFes,322zsn9z6jxccjxbpgrk4cn83gtt4w,3qemnnsb21c411hrwquer4lote67df,Uid2yFes,2020-0188,2021-10-15,11:17:41,12:24:19,NA,incomplete,false,true,NA,5,35,NA,red,m_s_037.jpg,NA,NA,unpleasant,pleasant,NA,NA,NA,NA,NA,right,1001.60000014305,true,NA,NA,NA,NA,NA
Uid2yFes,322zsn9z6jxccjxbpgrk4cn83gtt4w,3qemnnsb21c411hrwquer4lote67df,Uid2yFes,2020-0188,2021-10-15,11:17:41,12:24:19,NA,incomplete,false,NA,true,5,0,NA,NA,NA,right,absent,NA,NA,m_s_078.jpg,gray,n_l_046.jpg,gray,within,NA,NaN,NA,right,4377.5,1,1,1469.3000001907349
Uid2yFes,322zsn9z6jxccjxbpgrk4cn83gtt4w,3qemnnsb21c411hrwquer4lote67df,Uid2yFes,2020-0188,2021-10-15,11:17:41,12:24:19,NA,incomplete,false,NA,true,5,1,NA,NA,NA,right,absent,NA,NA,n_l_016.jpg,blue,n_l_040.jpg,blue,within,NA,NaN,NA,left,2941.4000000953674,0,1,1248.7999999523163
Uid2yFes,322zsn9z6jxccjxbpgrk4cn83gtt4w,3qemnnsb21c411hrwquer4lote67df,Uid2yFes,2020-0188,2021-10-15,11:17:41,12:24:19,NA,incomplete,false,NA,true,5,2,NA,NA,NA,left,absent,NA,NA,n_s_036.jpg,purple,n_s_095.jpg,red,between,NA,NaN,NA,right,8303.200000047684,0,1,1262.2999999523163
Uid2yFes,322zsn9z6jxccjxbpgrk4cn83gtt4w,3qemnnsb21c411hrwquer4lote67df,Uid2yFes,2020-0188,2021-10-15,11:17:41,12:24:19,NA,incomplete,false,NA,true,5,3,NA,NA,NA,right,absent,NA,NA,m_l_079.jpg,purple,m_l_089.jpg,gray,between,NA,NaN,NA,left,2190.899999856949,0,1,1198.5999999046326
Uid2yFes,322zsn9z6jxccjxbpgrk4cn83gtt4w,3qemnnsb21c411hrwquer4lote67df,Uid2yFes,2020-0188,2021-10-15,11:17:41,12:24:19,NA,incomplete,false,NA,true,5,4,NA,NA,NA,right,absent,NA,NA,n_s_101.jpg,black,n_s_097.jpg,black,within,NA,NaN,NA,right,4798.5,1,0,956.5999999046326
Uid2yFes,322zsn9z6jxccjxbpgrk4cn83gtt4w,3qemnnsb21c411hrwquer4lote67df,Uid2yFes,2020-0188,2021-10-15,11:17:41,12:24:19,NA,incomplete,false,NA,true,5,5,NA,NA,NA,right,absent,NA,NA,m_s_055.jpg,blue,m_l_007.jpg,black,between,NA,NaN,NA,right,2120.7000000476837,1,2,1368.5
Uid2yFes,322zsn9z6jxccjxbpgrk4cn83gtt4w,3qemnnsb21c411hrwquer4lote67df,Uid2yFes,2020-0188,2021-10-15,11:17:41,12:24:19,NA,incomplete,false,NA,true,5,6,NA,NA,NA,left,absent,NA,NA,m_s_014.jpg,green,m_s_042.jpg,green,within,NA,NaN,NA,left,2627.7999999523163,1,1,1056.2000000476837
Uid2yFes,322zsn9z6jxccjxbpgrk4cn83gtt4w,3qemnnsb21c411hrwquer4lote67df,Uid2yFes,2020-0188,2021-10-15,11:17:41,12:24:19,NA,incomplete,false,NA,true,5,7,NA,NA,NA,right,absent,NA,NA,m_s_075.jpg,purple,n_l_028.jpg,purple,within,NA,NaN,NA,right,3112.7000000476837,1,1,2040.2999999523163
Uid2yFes,322zsn9z6jxccjxbpgrk4cn83gtt4w,3qemnnsb21c411hrwquer4lote67df,Uid2yFes,2020-0188,2021-10-15,11:17:41,12:24:19,NA,incomplete,false,NA,true,5,8,NA,NA,NA,left,absent,NA,NA,n_l_104.jpg,green,n_l_015.jpg,gray,between,NA,NaN,NA,right,1897.7000000476837,0,2,891.2000000476837
Uid2yFes,322zsn9z6jxccjxbpgrk4cn83gtt4w,3qemnnsb21c411hrwquer4lote67df,Uid2yFes,2020-0188,2021-10-15,11:17:41,12:24:19,NA,incomplete,false,NA,true,5,9,NA,NA,NA,left,absent,NA,NA,n_l_103.jpg,red,m_s_037.jpg,red,within,NA,NaN,NA,left,2806.2000000476837,1,0,3120
Uid2yFes,322zsn9z6jxccjxbpgrk4cn83gtt4w,3qemnnsb21c411hrwquer4lote67df,Uid2yFes,2020-0188,2021-10-15,11:17:41,12:24:19,NA,incomplete,false,NA,true,5,10,NA,NA,NA,right,absent,NA,NA,n_l_043.jpg,green,m_s_094.jpg,blue,between,NA,NaN,NA,right,5291.799999952316,1,1,1661.2999999523163
Uid2yFes,322zsn9z6jxccjxbpgrk4cn83gtt4w,3qemnnsb21c411hrwquer4lote67df,Uid2yFes,2020-0188,2021-10-15,11:17:41,12:24:19,NA,incomplete,false,true,NA,6,0,NA,blue,m_s_117.jpg,NA,NA,unpleasant,pleasant,NA,NA,NA,NA,NA,right,1326.40000009537,true,NA,NA,NA,NA,NA
Uid2yFes,322zsn9z6jxccjxbpgrk4cn83gtt4w,3qemnnsb21c411hrwquer4lote67df,Uid2yFes,2020-0188,2021-10-15,11:17:41,12:24:19,NA,incomplete,false,true,NA,6,1,NA,blue,n_l_071.jpg,NA,NA,pleasant,unpleasant,NA,NA,NA,NA,NA,left,1599.20000004768,true,NA,NA,NA,NA,NA
Uid2yFes,322zsn9z6jxccjxbpgrk4cn83gtt4w,3qemnnsb21c411hrwquer4lote67df,Uid2yFes,2020-0188,2021-10-15,11:17:41,12:24:19,NA,incomplete,false,true,NA,6,2,NA,blue,m_s_057.jpg,NA,NA,unpleasant,pleasant,NA,NA,NA,NA,NA,right,2127.40000009537,true,NA,NA,NA,NA,NA
Uid2yFes,322zsn9z6jxccjxbpgrk4cn83gtt4w,3qemnnsb21c411hrwquer4lote67df,Uid2yFes,2020-0188,2021-10-15,11:17:41,12:24:19,NA,incomplete,false,true,NA,6,3,NA,blue,m_s_091.jpg,NA,NA,unpleasant,pleasant,NA,NA,NA,NA,NA,left,1270.30000019073,true,NA,NA,NA,NA,NA
Uid2yFes,322zsn9z6jxccjxbpgrk4cn83gtt4w,3qemnnsb21c411hrwquer4lote67df,Uid2yFes,2020-0188,2021-10-15,11:17:41,12:24:19,NA,incomplete,false,true,NA,6,4,NA,blue,m_l_102.jpg,NA,NA,pleasant,unpleasant,NA,NA,NA,NA,NA,right,1745.39999985695,true,NA,NA,NA,NA,NA
Uid2yFes,322zsn9z6jxccjxbpgrk4cn83gtt4w,3qemnnsb21c411hrwquer4lote67df,Uid2yFes,2020-0188,2021-10-15,11:17:41,12:24:19,NA,incomplete,false,true,NA,6,5,NA,blue,m_l_065.jpg,NA,NA,unpleasant,pleasant,NA,NA,NA,NA,NA,left,1986.20000004768,true,NA,NA,NA,NA,NA
Uid2yFes,322zsn9z6jxccjxbpgrk4cn83gtt4w,3qemnnsb21c411hrwquer4lote67df,Uid2yFes,2020-0188,2021-10-15,11:17:41,12:24:19,NA,incomplete,false,true,NA,6,6,NA,purple,n_s_116.jpg,NA,NA,pleasant,unpleasant,NA,NA,NA,NA,NA,left,1506.09999990463,true,NA,NA,NA,NA,NA
Uid2yFes,322zsn9z6jxccjxbpgrk4cn83gtt4w,3qemnnsb21c411hrwquer4lote67df,Uid2yFes,2020-0188,2021-10-15,11:17:41,12:24:19,NA,incomplete,false,true,NA,6,7,NA,purple,m_l_058.jpg,NA,NA,unpleasant,pleasant,NA,NA,NA,NA,NA,left,1377.40000009537,true,NA,NA,NA,NA,NA
Uid2yFes,322zsn9z6jxccjxbpgrk4cn83gtt4w,3qemnnsb21c411hrwquer4lote67df,Uid2yFes,2020-0188,2021-10-15,11:17:41,12:24:19,NA,incomplete,false,true,NA,6,8,NA,purple,n_s_060.jpg,NA,NA,pleasant,unpleasant,NA,NA,NA,NA,NA,left,1037,true,NA,NA,NA,NA,NA
Uid2yFes,322zsn9z6jxccjxbpgrk4cn83gtt4w,3qemnnsb21c411hrwquer4lote67df,Uid2yFes,2020-0188,2021-10-15,11:17:41,12:24:19,NA,incomplete,false,true,NA,6,9,NA,purple,m_l_047.jpg,NA,NA,pleasant,unpleasant,NA,NA,NA,NA,NA,left,1254.29999995232,true,NA,NA,NA,NA,NA
Uid2yFes,322zsn9z6jxccjxbpgrk4cn83gtt4w,3qemnnsb21c411hrwquer4lote67df,Uid2yFes,2020-0188,2021-10-15,11:17:41,12:24:19,NA,incomplete,false,true,NA,6,10,NA,purple,m_l_015.jpg,NA,NA,pleasant,unpleasant,NA,NA,NA,NA,NA,right,1391.79999995232,true,NA,NA,NA,NA,NA
Uid2yFes,322zsn9z6jxccjxbpgrk4cn83gtt4w,3qemnnsb21c411hrwquer4lote67df,Uid2yFes,2020-0188,2021-10-15,11:17:41,12:24:19,NA,incomplete,false,true,NA,6,11,NA,purple,n_s_010.jpg,NA,NA,pleasant,unpleasant,NA,NA,NA,NA,NA,right,1114.29999995232,true,NA,NA,NA,NA,NA
Uid2yFes,322zsn9z6jxccjxbpgrk4cn83gtt4w,3qemnnsb21c411hrwquer4lote67df,Uid2yFes,2020-0188,2021-10-15,11:17:41,12:24:19,NA,incomplete,false,true,NA,6,12,NA,gray,n_l_107.jpg,NA,NA,unpleasant,pleasant,NA,NA,NA,NA,NA,right,1679.59999990463,true,NA,NA,NA,NA,NA
Uid2yFes,322zsn9z6jxccjxbpgrk4cn83gtt4w,3qemnnsb21c411hrwquer4lote67df,Uid2yFes,2020-0188,2021-10-15,11:17:41,12:24:19,NA,incomplete,false,true,NA,6,13,NA,gray,m_s_039.jpg,NA,NA,unpleasant,pleasant,NA,NA,NA,NA,NA,left,1306.39999985695,true,NA,NA,NA,NA,NA
Uid2yFes,322zsn9z6jxccjxbpgrk4cn83gtt4w,3qemnnsb21c411hrwquer4lote67df,Uid2yFes,2020-0188,2021-10-15,11:17:41,12:24:19,NA,incomplete,false,true,NA,6,14,NA,gray,n_s_070.jpg,NA,NA,unpleasant,pleasant,NA,NA,NA,NA,NA,right,1532,true,NA,NA,NA,NA,NA
Uid2yFes,322zsn9z6jxccjxbpgrk4cn83gtt4w,3qemnnsb21c411hrwquer4lote67df,Uid2yFes,2020-0188,2021-10-15,11:17:41,12:24:19,NA,incomplete,false,true,NA,6,15,NA,gray,m_l_070.jpg,NA,NA,unpleasant,pleasant,NA,NA,NA,NA,NA,right,1379,true,NA,NA,NA,NA,NA
Uid2yFes,322zsn9z6jxccjxbpgrk4cn83gtt4w,3qemnnsb21c411hrwquer4lote67df,Uid2yFes,2020-0188,2021-10-15,11:17:41,12:24:19,NA,incomplete,false,true,NA,6,16,NA,gray,m_l_054.jpg,NA,NA,unpleasant,pleasant,NA,NA,NA,NA,NA,left,1279.09999990463,true,NA,NA,NA,NA,NA
Uid2yFes,322zsn9z6jxccjxbpgrk4cn83gtt4w,3qemnnsb21c411hrwquer4lote67df,Uid2yFes,2020-0188,2021-10-15,11:17:41,12:24:19,NA,incomplete,false,true,NA,6,17,NA,gray,m_l_067.jpg,NA,NA,unpleasant,pleasant,NA,NA,NA,NA,NA,left,1346,true,NA,NA,NA,NA,NA
Uid2yFes,322zsn9z6jxccjxbpgrk4cn83gtt4w,3qemnnsb21c411hrwquer4lote67df,Uid2yFes,2020-0188,2021-10-15,11:17:41,12:24:19,NA,incomplete,false,true,NA,6,18,NA,yellow,n_s_013.jpg,NA,NA,pleasant,unpleasant,NA,NA,NA,NA,NA,right,1534.09999990463,true,NA,NA,NA,NA,NA
Uid2yFes,322zsn9z6jxccjxbpgrk4cn83gtt4w,3qemnnsb21c411hrwquer4lote67df,Uid2yFes,2020-0188,2021-10-15,11:17:41,12:24:19,NA,incomplete,false,true,NA,6,19,NA,yellow,m_s_016.jpg,NA,NA,unpleasant,pleasant,NA,NA,NA,NA,NA,right,1076.29999995232,true,NA,NA,NA,NA,NA
Uid2yFes,322zsn9z6jxccjxbpgrk4cn83gtt4w,3qemnnsb21c411hrwquer4lote67df,Uid2yFes,2020-0188,2021-10-15,11:17:41,12:24:19,NA,incomplete,false,true,NA,6,20,NA,yellow,n_l_087.jpg,NA,NA,unpleasant,pleasant,NA,NA,NA,NA,NA,left,1763.5,true,NA,NA,NA,NA,NA
Uid2yFes,322zsn9z6jxccjxbpgrk4cn83gtt4w,3qemnnsb21c411hrwquer4lote67df,Uid2yFes,2020-0188,2021-10-15,11:17:41,12:24:19,NA,incomplete,false,true,NA,6,21,NA,yellow,m_l_098.jpg,NA,NA,unpleasant,pleasant,NA,NA,NA,NA,NA,right,1047.40000009537,true,NA,NA,NA,NA,NA
Uid2yFes,322zsn9z6jxccjxbpgrk4cn83gtt4w,3qemnnsb21c411hrwquer4lote67df,Uid2yFes,2020-0188,2021-10-15,11:17:41,12:24:19,NA,incomplete,false,true,NA,6,22,NA,yellow,n_l_039.jpg,NA,NA,pleasant,unpleasant,NA,NA,NA,NA,NA,right,1424.60000014305,true,NA,NA,NA,NA,NA
Uid2yFes,322zsn9z6jxccjxbpgrk4cn83gtt4w,3qemnnsb21c411hrwquer4lote67df,Uid2yFes,2020-0188,2021-10-15,11:17:41,12:24:19,NA,incomplete,false,true,NA,6,23,NA,yellow,m_l_063.jpg,NA,NA,unpleasant,pleasant,NA,NA,NA,NA,NA,right,2153.59999990463,true,NA,NA,NA,NA,NA
Uid2yFes,322zsn9z6jxccjxbpgrk4cn83gtt4w,3qemnnsb21c411hrwquer4lote67df,Uid2yFes,2020-0188,2021-10-15,11:17:41,12:24:19,NA,incomplete,false,true,NA,6,24,NA,orange,m_s_005.jpg,NA,NA,pleasant,unpleasant,NA,NA,NA,NA,NA,left,2461.59999990463,true,NA,NA,NA,NA,NA
Uid2yFes,322zsn9z6jxccjxbpgrk4cn83gtt4w,3qemnnsb21c411hrwquer4lote67df,Uid2yFes,2020-0188,2021-10-15,11:17:41,12:24:19,NA,incomplete,false,true,NA,6,25,NA,orange,m_l_094.jpg,NA,NA,pleasant,unpleasant,NA,NA,NA,NA,NA,right,1598.59999990463,true,NA,NA,NA,NA,NA
Uid2yFes,322zsn9z6jxccjxbpgrk4cn83gtt4w,3qemnnsb21c411hrwquer4lote67df,Uid2yFes,2020-0188,2021-10-15,11:17:41,12:24:19,NA,incomplete,false,true,NA,6,26,NA,orange,n_l_106.jpg,NA,NA,unpleasant,pleasant,NA,NA,NA,NA,NA,right,1662.40000009537,true,NA,NA,NA,NA,NA
Uid2yFes,322zsn9z6jxccjxbpgrk4cn83gtt4w,3qemnnsb21c411hrwquer4lote67df,Uid2yFes,2020-0188,2021-10-15,11:17:41,12:24:19,NA,incomplete,false,true,NA,6,27,NA,orange,m_s_048.jpg,NA,NA,unpleasant,pleasant,NA,NA,NA,NA,NA,left,1363.60000014305,true,NA,NA,NA,NA,NA
Uid2yFes,322zsn9z6jxccjxbpgrk4cn83gtt4w,3qemnnsb21c411hrwquer4lote67df,Uid2yFes,2020-0188,2021-10-15,11:17:41,12:24:19,NA,incomplete,false,true,NA,6,28,NA,orange,m_l_049.jpg,NA,NA,pleasant,unpleasant,NA,NA,NA,NA,NA,right,1859.10000014305,true,NA,NA,NA,NA,NA
Uid2yFes,322zsn9z6jxccjxbpgrk4cn83gtt4w,3qemnnsb21c411hrwquer4lote67df,Uid2yFes,2020-0188,2021-10-15,11:17:41,12:24:19,NA,incomplete,false,true,NA,6,29,NA,orange,m_s_033.jpg,NA,NA,pleasant,unpleasant,NA,NA,NA,NA,NA,right,1601.59999990463,true,NA,NA,NA,NA,NA
Uid2yFes,322zsn9z6jxccjxbpgrk4cn83gtt4w,3qemnnsb21c411hrwquer4lote67df,Uid2yFes,2020-0188,2021-10-15,11:17:41,12:24:19,NA,incomplete,false,true,NA,6,30,NA,green,m_s_093.jpg,NA,NA,unpleasant,pleasant,NA,NA,NA,NA,NA,right,1949.29999995232,true,NA,NA,NA,NA,NA
Uid2yFes,322zsn9z6jxccjxbpgrk4cn83gtt4w,3qemnnsb21c411hrwquer4lote67df,Uid2yFes,2020-0188,2021-10-15,11:17:41,12:24:19,NA,incomplete,false,true,NA,6,31,NA,green,m_s_089.jpg,NA,NA,pleasant,unpleasant,NA,NA,NA,NA,NA,left,1078.40000009537,true,NA,NA,NA,NA,NA
Uid2yFes,322zsn9z6jxccjxbpgrk4cn83gtt4w,3qemnnsb21c411hrwquer4lote67df,Uid2yFes,2020-0188,2021-10-15,11:17:41,12:24:19,NA,incomplete,false,true,NA,6,32,NA,green,n_l_031.jpg,NA,NA,unpleasant,pleasant,NA,NA,NA,NA,NA,right,1103.10000014305,true,NA,NA,NA,NA,NA
Uid2yFes,322zsn9z6jxccjxbpgrk4cn83gtt4w,3qemnnsb21c411hrwquer4lote67df,Uid2yFes,2020-0188,2021-10-15,11:17:41,12:24:19,NA,incomplete,false,true,NA,6,33,NA,green,m_l_017.jpg,NA,NA,pleasant,unpleasant,NA,NA,NA,NA,NA,left,870.799999952316,true,NA,NA,NA,NA,NA
Uid2yFes,322zsn9z6jxccjxbpgrk4cn83gtt4w,3qemnnsb21c411hrwquer4lote67df,Uid2yFes,2020-0188,2021-10-15,11:17:41,12:24:19,NA,incomplete,false,true,NA,6,34,NA,green,m_s_058.jpg,NA,NA,unpleasant,pleasant,NA,NA,NA,NA,NA,right,1146.89999985695,true,NA,NA,NA,NA,NA
Uid2yFes,322zsn9z6jxccjxbpgrk4cn83gtt4w,3qemnnsb21c411hrwquer4lote67df,Uid2yFes,2020-0188,2021-10-15,11:17:41,12:24:19,NA,incomplete,false,true,NA,6,35,NA,green,n_s_076.jpg,NA,NA,pleasant,unpleasant,NA,NA,NA,NA,NA,right,1891.5,true,NA,NA,NA,NA,NA
Uid2yFes,322zsn9z6jxccjxbpgrk4cn83gtt4w,3qemnnsb21c411hrwquer4lote67df,Uid2yFes,2020-0188,2021-10-15,11:17:41,12:24:19,NA,incomplete,false,NA,true,6,0,NA,NA,NA,left,absent,NA,NA,m_l_015.jpg,purple,n_s_070.jpg,gray,between,NA,NaN,NA,right,3462.2999999523163,0,0,1825.5999999046326
Uid2yFes,322zsn9z6jxccjxbpgrk4cn83gtt4w,3qemnnsb21c411hrwquer4lote67df,Uid2yFes,2020-0188,2021-10-15,11:17:41,12:24:19,NA,incomplete,false,NA,true,6,1,NA,NA,NA,right,absent,NA,NA,n_l_031.jpg,green,m_l_049.jpg,orange,between,NA,NaN,NA,right,2919.5,1,1,963.7999999523163
Uid2yFes,322zsn9z6jxccjxbpgrk4cn83gtt4w,3qemnnsb21c411hrwquer4lote67df,Uid2yFes,2020-0188,2021-10-15,11:17:41,12:24:19,NA,incomplete,false,NA,true,6,2,NA,NA,NA,left,absent,NA,NA,n_l_039.jpg,yellow,n_l_106.jpg,orange,between,NA,NaN,NA,right,3936.5,0,1,953.7999999523163
Uid2yFes,322zsn9z6jxccjxbpgrk4cn83gtt4w,3qemnnsb21c411hrwquer4lote67df,Uid2yFes,2020-0188,2021-10-15,11:17:41,12:24:19,NA,incomplete,false,NA,true,6,3,NA,NA,NA,right,absent,NA,NA,n_s_076.jpg,green,m_s_089.jpg,green,within,NA,NaN,NA,right,1883.7000000476837,1,1,3424
Uid2yFes,322zsn9z6jxccjxbpgrk4cn83gtt4w,3qemnnsb21c411hrwquer4lote67df,Uid2yFes,2020-0188,2021-10-15,11:17:41,12:24:19,NA,incomplete,false,NA,true,6,4,NA,NA,NA,left,absent,NA,NA,m_l_058.jpg,purple,n_s_010.jpg,purple,within,NA,NaN,NA,left,2533.300000190735,1,0,1970.4000000953674
Uid2yFes,322zsn9z6jxccjxbpgrk4cn83gtt4w,3qemnnsb21c411hrwquer4lote67df,Uid2yFes,2020-0188,2021-10-15,11:17:41,12:24:19,NA,incomplete,false,NA,true,6,5,NA,NA,NA,right,absent,NA,NA,m_l_063.jpg,yellow,m_s_016.jpg,yellow,within,NA,NaN,NA,right,4105.400000095367,1,1,1905.1999998092651
Uid2yFes,322zsn9z6jxccjxbpgrk4cn83gtt4w,3qemnnsb21c411hrwquer4lote67df,Uid2yFes,2020-0188,2021-10-15,11:17:41,12:24:19,NA,incomplete,false,NA,true,6,6,NA,NA,NA,right,absent,NA,NA,n_s_060.jpg,purple,m_l_102.jpg,blue,between,NA,NaN,NA,right,5397.299999952316,1,1,1905.7999999523163
Uid2yFes,322zsn9z6jxccjxbpgrk4cn83gtt4w,3qemnnsb21c411hrwquer4lote67df,Uid2yFes,2020-0188,2021-10-15,11:17:41,12:24:19,NA,incomplete,false,NA,true,6,7,NA,NA,NA,left,absent,NA,NA,m_l_054.jpg,gray,n_l_087.jpg,yellow,between,NA,NaN,NA,right,3012.300000190735,0,1,1162
Uid2yFes,322zsn9z6jxccjxbpgrk4cn83gtt4w,3qemnnsb21c411hrwquer4lote67df,Uid2yFes,2020-0188,2021-10-15,11:17:41,12:24:19,NA,incomplete,false,NA,true,6,8,NA,NA,NA,right,absent,NA,NA,m_l_067.jpg,gray,m_s_039.jpg,gray,within,NA,NaN,NA,right,4088.399999856949,1,2,851.0999999046326
Uid2yFes,322zsn9z6jxccjxbpgrk4cn83gtt4w,3qemnnsb21c411hrwquer4lote67df,Uid2yFes,2020-0188,2021-10-15,11:17:41,12:24:19,NA,incomplete,false,NA,true,6,9,NA,NA,NA,left,absent,NA,NA,m_l_094.jpg,orange,m_s_033.jpg,orange,within,NA,NaN,NA,left,1584,1,1,1014.1000001430511
Uid2yFes,322zsn9z6jxccjxbpgrk4cn83gtt4w,3qemnnsb21c411hrwquer4lote67df,Uid2yFes,2020-0188,2021-10-15,11:17:41,12:24:19,NA,incomplete,false,NA,true,6,10,NA,NA,NA,left,absent,NA,NA,n_l_071.jpg,blue,m_l_065.jpg,blue,within,NA,NaN,NA,left,2996.7000000476837,1,0,1513.1000001430511
Uid2yFes,322zsn9z6jxccjxbpgrk4cn83gtt4w,3qemnnsb21c411hrwquer4lote67df,Uid2yFes,2020-0188,2021-10-15,11:17:41,12:24:19,NA,incomplete,false,true,NA,7,0,NA,black,m_l_077.jpg,NA,NA,unpleasant,pleasant,NA,NA,NA,NA,NA,right,1157.40000009537,true,NA,NA,NA,NA,NA
Uid2yFes,322zsn9z6jxccjxbpgrk4cn83gtt4w,3qemnnsb21c411hrwquer4lote67df,Uid2yFes,2020-0188,2021-10-15,11:17:41,12:24:19,NA,incomplete,false,true,NA,7,1,NA,black,n_s_072.jpg,NA,NA,pleasant,unpleasant,NA,NA,NA,NA,NA,right,1123.90000009537,true,NA,NA,NA,NA,NA
Uid2yFes,322zsn9z6jxccjxbpgrk4cn83gtt4w,3qemnnsb21c411hrwquer4lote67df,Uid2yFes,2020-0188,2021-10-15,11:17:41,12:24:19,NA,incomplete,false,true,NA,7,2,NA,black,m_l_113.jpg,NA,NA,unpleasant,pleasant,NA,NA,NA,NA,NA,right,1050.09999990463,true,NA,NA,NA,NA,NA
Uid2yFes,322zsn9z6jxccjxbpgrk4cn83gtt4w,3qemnnsb21c411hrwquer4lote67df,Uid2yFes,2020-0188,2021-10-15,11:17:41,12:24:19,NA,incomplete,false,true,NA,7,3,NA,black,n_s_107.jpg,NA,NA,pleasant,unpleasant,NA,NA,NA,NA,NA,left,927.900000095367,true,NA,NA,NA,NA,NA
Uid2yFes,322zsn9z6jxccjxbpgrk4cn83gtt4w,3qemnnsb21c411hrwquer4lote67df,Uid2yFes,2020-0188,2021-10-15,11:17:41,12:24:19,NA,incomplete,false,true,NA,7,4,NA,black,m_s_079.jpg,NA,NA,unpleasant,pleasant,NA,NA,NA,NA,NA,right,947.400000095367,true,NA,NA,NA,NA,NA
Uid2yFes,322zsn9z6jxccjxbpgrk4cn83gtt4w,3qemnnsb21c411hrwquer4lote67df,Uid2yFes,2020-0188,2021-10-15,11:17:41,12:24:19,NA,incomplete,false,true,NA,7,5,NA,black,n_s_115.jpg,NA,NA,pleasant,unpleasant,NA,NA,NA,NA,NA,left,1189.5,true,NA,NA,NA,NA,NA
Uid2yFes,322zsn9z6jxccjxbpgrk4cn83gtt4w,3qemnnsb21c411hrwquer4lote67df,Uid2yFes,2020-0188,2021-10-15,11:17:41,12:24:19,NA,incomplete,false,true,NA,7,6,NA,brown,m_l_011.jpg,NA,NA,pleasant,unpleasant,NA,NA,NA,NA,NA,right,1647,true,NA,NA,NA,NA,NA
Uid2yFes,322zsn9z6jxccjxbpgrk4cn83gtt4w,3qemnnsb21c411hrwquer4lote67df,Uid2yFes,2020-0188,2021-10-15,11:17:41,12:24:19,NA,incomplete,false,true,NA,7,7,NA,brown,n_s_114.jpg,NA,NA,unpleasant,pleasant,NA,NA,NA,NA,NA,left,1725,true,NA,NA,NA,NA,NA
Uid2yFes,322zsn9z6jxccjxbpgrk4cn83gtt4w,3qemnnsb21c411hrwquer4lote67df,Uid2yFes,2020-0188,2021-10-15,11:17:41,12:24:19,NA,incomplete,false,true,NA,7,8,NA,brown,m_l_031.jpg,NA,NA,unpleasant,pleasant,NA,NA,NA,NA,NA,left,1428.19999980927,true,NA,NA,NA,NA,NA
Uid2yFes,322zsn9z6jxccjxbpgrk4cn83gtt4w,3qemnnsb21c411hrwquer4lote67df,Uid2yFes,2020-0188,2021-10-15,11:17:41,12:24:19,NA,incomplete,false,true,NA,7,9,NA,brown,n_l_110.jpg,NA,NA,pleasant,unpleasant,NA,NA,NA,NA,NA,right,2302.89999985695,true,NA,NA,NA,NA,NA
Uid2yFes,322zsn9z6jxccjxbpgrk4cn83gtt4w,3qemnnsb21c411hrwquer4lote67df,Uid2yFes,2020-0188,2021-10-15,11:17:41,12:24:19,NA,incomplete,false,true,NA,7,10,NA,brown,n_l_027.jpg,NA,NA,pleasant,unpleasant,NA,NA,NA,NA,NA,left,1217.89999985695,true,NA,NA,NA,NA,NA
Uid2yFes,322zsn9z6jxccjxbpgrk4cn83gtt4w,3qemnnsb21c411hrwquer4lote67df,Uid2yFes,2020-0188,2021-10-15,11:17:41,12:24:19,NA,incomplete,false,true,NA,7,11,NA,brown,m_s_104.jpg,NA,NA,pleasant,unpleasant,NA,NA,NA,NA,NA,left,1041.60000014305,true,NA,NA,NA,NA,NA
Uid2yFes,322zsn9z6jxccjxbpgrk4cn83gtt4w,3qemnnsb21c411hrwquer4lote67df,Uid2yFes,2020-0188,2021-10-15,11:17:41,12:24:19,NA,incomplete,false,true,NA,7,12,NA,green,n_l_050.jpg,NA,NA,pleasant,unpleasant,NA,NA,NA,NA,NA,right,1814.40000009537,true,NA,NA,NA,NA,NA
Uid2yFes,322zsn9z6jxccjxbpgrk4cn83gtt4w,3qemnnsb21c411hrwquer4lote67df,Uid2yFes,2020-0188,2021-10-15,11:17:41,12:24:19,NA,incomplete,false,true,NA,7,13,NA,green,n_l_082.jpg,NA,NA,unpleasant,pleasant,NA,NA,NA,NA,NA,right,1041.29999995232,true,NA,NA,NA,NA,NA
Uid2yFes,322zsn9z6jxccjxbpgrk4cn83gtt4w,3qemnnsb21c411hrwquer4lote67df,Uid2yFes,2020-0188,2021-10-15,11:17:41,12:24:19,NA,incomplete,false,true,NA,7,14,NA,green,n_l_044.jpg,NA,NA,pleasant,unpleasant,NA,NA,NA,NA,NA,left,1095.60000014305,true,NA,NA,NA,NA,NA
Uid2yFes,322zsn9z6jxccjxbpgrk4cn83gtt4w,3qemnnsb21c411hrwquer4lote67df,Uid2yFes,2020-0188,2021-10-15,11:17:41,12:24:19,NA,incomplete,false,true,NA,7,15,NA,green,n_l_097.jpg,NA,NA,unpleasant,pleasant,NA,NA,NA,NA,NA,right,1244.29999995232,true,NA,NA,NA,NA,NA
Uid2yFes,322zsn9z6jxccjxbpgrk4cn83gtt4w,3qemnnsb21c411hrwquer4lote67df,Uid2yFes,2020-0188,2021-10-15,11:17:41,12:24:19,NA,incomplete,false,true,NA,7,16,NA,green,n_l_049.jpg,NA,NA,unpleasant,pleasant,NA,NA,NA,NA,NA,right,1727.39999985695,true,NA,NA,NA,NA,NA
Uid2yFes,322zsn9z6jxccjxbpgrk4cn83gtt4w,3qemnnsb21c411hrwquer4lote67df,Uid2yFes,2020-0188,2021-10-15,11:17:41,12:24:19,NA,incomplete,false,true,NA,7,17,NA,green,n_s_008.jpg,NA,NA,unpleasant,pleasant,NA,NA,NA,NA,NA,left,1352.79999995232,true,NA,NA,NA,NA,NA
Uid2yFes,322zsn9z6jxccjxbpgrk4cn83gtt4w,3qemnnsb21c411hrwquer4lote67df,Uid2yFes,2020-0188,2021-10-15,11:17:41,12:24:19,NA,incomplete,false,true,NA,7,18,NA,blue,m_s_116.jpg,NA,NA,pleasant,unpleasant,NA,NA,NA,NA,NA,right,1618.70000004768,true,NA,NA,NA,NA,NA
Uid2yFes,322zsn9z6jxccjxbpgrk4cn83gtt4w,3qemnnsb21c411hrwquer4lote67df,Uid2yFes,2020-0188,2021-10-15,11:17:41,12:24:19,NA,incomplete,false,true,NA,7,19,NA,blue,m_s_003.jpg,NA,NA,unpleasant,pleasant,NA,NA,NA,NA,NA,left,1562.70000004768,true,NA,NA,NA,NA,NA
Uid2yFes,322zsn9z6jxccjxbpgrk4cn83gtt4w,3qemnnsb21c411hrwquer4lote67df,Uid2yFes,2020-0188,2021-10-15,11:17:41,12:24:19,NA,incomplete,false,true,NA,7,20,NA,blue,n_s_058.jpg,NA,NA,pleasant,unpleasant,NA,NA,NA,NA,NA,left,1336.10000014305,true,NA,NA,NA,NA,NA
Uid2yFes,322zsn9z6jxccjxbpgrk4cn83gtt4w,3qemnnsb21c411hrwquer4lote67df,Uid2yFes,2020-0188,2021-10-15,11:17:41,12:24:19,NA,incomplete,false,true,NA,7,21,NA,blue,m_l_096.jpg,NA,NA,pleasant,unpleasant,NA,NA,NA,NA,NA,left,1620.79999995232,true,NA,NA,NA,NA,NA
Uid2yFes,322zsn9z6jxccjxbpgrk4cn83gtt4w,3qemnnsb21c411hrwquer4lote67df,Uid2yFes,2020-0188,2021-10-15,11:17:41,12:24:19,NA,incomplete,false,true,NA,7,22,NA,blue,n_l_108.jpg,NA,NA,unpleasant,pleasant,NA,NA,NA,NA,NA,right,1168.60000014305,true,NA,NA,NA,NA,NA
Uid2yFes,322zsn9z6jxccjxbpgrk4cn83gtt4w,3qemnnsb21c411hrwquer4lote67df,Uid2yFes,2020-0188,2021-10-15,11:17:41,12:24:19,NA,incomplete,false,true,NA,7,23,NA,blue,m_s_056.jpg,NA,NA,unpleasant,pleasant,NA,NA,NA,NA,NA,left,1015.20000004768,true,NA,NA,NA,NA,NA
Uid2yFes,322zsn9z6jxccjxbpgrk4cn83gtt4w,3qemnnsb21c411hrwquer4lote67df,Uid2yFes,2020-0188,2021-10-15,11:17:41,12:24:19,NA,incomplete,false,true,NA,7,24,NA,gray,n_s_035.jpg,NA,NA,unpleasant,pleasant,NA,NA,NA,NA,NA,right,1818.60000014305,true,NA,NA,NA,NA,NA
Uid2yFes,322zsn9z6jxccjxbpgrk4cn83gtt4w,3qemnnsb21c411hrwquer4lote67df,Uid2yFes,2020-0188,2021-10-15,11:17:41,12:24:19,NA,incomplete,false,true,NA,7,25,NA,gray,n_l_084.jpg,NA,NA,unpleasant,pleasant,NA,NA,NA,NA,NA,right,1527.79999995232,true,NA,NA,NA,NA,NA
Uid2yFes,322zsn9z6jxccjxbpgrk4cn83gtt4w,3qemnnsb21c411hrwquer4lote67df,Uid2yFes,2020-0188,2021-10-15,11:17:41,12:24:19,NA,incomplete,false,true,NA,7,26,NA,gray,n_s_051.jpg,NA,NA,pleasant,unpleasant,NA,NA,NA,NA,NA,left,1537.5,true,NA,NA,NA,NA,NA
Uid2yFes,322zsn9z6jxccjxbpgrk4cn83gtt4w,3qemnnsb21c411hrwquer4lote67df,Uid2yFes,2020-0188,2021-10-15,11:17:41,12:24:19,NA,incomplete,false,true,NA,7,27,NA,gray,m_l_014.jpg,NA,NA,pleasant,unpleasant,NA,NA,NA,NA,NA,right,1627,true,NA,NA,NA,NA,NA
Uid2yFes,322zsn9z6jxccjxbpgrk4cn83gtt4w,3qemnnsb21c411hrwquer4lote67df,Uid2yFes,2020-0188,2021-10-15,11:17:41,12:24:19,NA,incomplete,false,true,NA,7,28,NA,gray,m_s_086.jpg,NA,NA,unpleasant,pleasant,NA,NA,NA,NA,NA,left,1910.69999980927,true,NA,NA,NA,NA,NA
Uid2yFes,322zsn9z6jxccjxbpgrk4cn83gtt4w,3qemnnsb21c411hrwquer4lote67df,Uid2yFes,2020-0188,2021-10-15,11:17:41,12:24:19,NA,incomplete,false,true,NA,7,29,NA,gray,n_l_080.jpg,NA,NA,pleasant,unpleasant,NA,NA,NA,NA,NA,left,1203.70000004768,true,NA,NA,NA,NA,NA
Uid2yFes,322zsn9z6jxccjxbpgrk4cn83gtt4w,3qemnnsb21c411hrwquer4lote67df,Uid2yFes,2020-0188,2021-10-15,11:17:41,12:24:19,NA,incomplete,false,true,NA,7,30,NA,purple,n_s_044.jpg,NA,NA,pleasant,unpleasant,NA,NA,NA,NA,NA,right,1495.20000004768,true,NA,NA,NA,NA,NA
Uid2yFes,322zsn9z6jxccjxbpgrk4cn83gtt4w,3qemnnsb21c411hrwquer4lote67df,Uid2yFes,2020-0188,2021-10-15,11:17:41,12:24:19,NA,incomplete,false,true,NA,7,31,NA,purple,m_s_114.jpg,NA,NA,unpleasant,pleasant,NA,NA,NA,NA,NA,left,1211.90000009537,true,NA,NA,NA,NA,NA
Uid2yFes,322zsn9z6jxccjxbpgrk4cn83gtt4w,3qemnnsb21c411hrwquer4lote67df,Uid2yFes,2020-0188,2021-10-15,11:17:41,12:24:19,NA,incomplete,false,true,NA,7,32,NA,purple,m_l_090.jpg,NA,NA,unpleasant,pleasant,NA,NA,NA,NA,NA,left,1365.89999985695,true,NA,NA,NA,NA,NA
Uid2yFes,322zsn9z6jxccjxbpgrk4cn83gtt4w,3qemnnsb21c411hrwquer4lote67df,Uid2yFes,2020-0188,2021-10-15,11:17:41,12:24:19,NA,incomplete,false,true,NA,7,33,NA,purple,m_l_061.jpg,NA,NA,unpleasant,pleasant,NA,NA,NA,NA,NA,left,1421.5,true,NA,NA,NA,NA,NA
Uid2yFes,322zsn9z6jxccjxbpgrk4cn83gtt4w,3qemnnsb21c411hrwquer4lote67df,Uid2yFes,2020-0188,2021-10-15,11:17:41,12:24:19,NA,incomplete,false,true,NA,7,34,NA,purple,n_s_063.jpg,NA,NA,unpleasant,pleasant,NA,NA,NA,NA,NA,right,1808.20000004768,true,NA,NA,NA,NA,NA
Uid2yFes,322zsn9z6jxccjxbpgrk4cn83gtt4w,3qemnnsb21c411hrwquer4lote67df,Uid2yFes,2020-0188,2021-10-15,11:17:41,12:24:19,NA,incomplete,false,true,NA,7,35,NA,purple,m_l_051.jpg,NA,NA,unpleasant,pleasant,NA,NA,NA,NA,NA,left,1073.90000009537,true,NA,NA,NA,NA,NA
Uid2yFes,322zsn9z6jxccjxbpgrk4cn83gtt4w,3qemnnsb21c411hrwquer4lote67df,Uid2yFes,2020-0188,2021-10-15,11:17:41,12:24:19,NA,incomplete,false,NA,true,7,0,NA,NA,NA,right,absent,NA,NA,m_l_051.jpg,purple,m_s_114.jpg,purple,within,NA,NaN,NA,right,2878.7999999523163,1,0,1175.5
Uid2yFes,322zsn9z6jxccjxbpgrk4cn83gtt4w,3qemnnsb21c411hrwquer4lote67df,Uid2yFes,2020-0188,2021-10-15,11:17:41,12:24:19,NA,incomplete,false,NA,true,7,1,NA,NA,NA,left,absent,NA,NA,n_l_049.jpg,green,n_s_058.jpg,blue,between,NA,NaN,NA,left,4801.799999952316,1,1,789.7000000476837
Uid2yFes,322zsn9z6jxccjxbpgrk4cn83gtt4w,3qemnnsb21c411hrwquer4lote67df,Uid2yFes,2020-0188,2021-10-15,11:17:41,12:24:19,NA,incomplete,false,NA,true,7,2,NA,NA,NA,right,absent,NA,NA,m_l_031.jpg,brown,m_s_079.jpg,black,between,NA,NaN,NA,right,2987.0999999046326,1,0,2567.9000000953674
Uid2yFes,322zsn9z6jxccjxbpgrk4cn83gtt4w,3qemnnsb21c411hrwquer4lote67df,Uid2yFes,2020-0188,2021-10-15,11:17:41,12:24:19,NA,incomplete,false,NA,true,7,3,NA,NA,NA,left,absent,NA,NA,n_l_027.jpg,brown,n_l_044.jpg,green,between,NA,NaN,NA,left,3913.9000000953674,1,1,1062.6000001430511
Uid2yFes,322zsn9z6jxccjxbpgrk4cn83gtt4w,3qemnnsb21c411hrwquer4lote67df,Uid2yFes,2020-0188,2021-10-15,11:17:41,12:24:19,NA,incomplete,false,NA,true,7,4,NA,NA,NA,right,absent,NA,NA,m_s_104.jpg,brown,n_s_114.jpg,brown,within,NA,NaN,NA,right,4141.700000047684,1,1,1227.2000000476837
Uid2yFes,322zsn9z6jxccjxbpgrk4cn83gtt4w,3qemnnsb21c411hrwquer4lote67df,Uid2yFes,2020-0188,2021-10-15,11:17:41,12:24:19,NA,incomplete,false,NA,true,7,5,NA,NA,NA,left,absent,NA,NA,m_s_003.jpg,blue,m_s_056.jpg,blue,within,NA,NaN,NA,right,3132.899999856949,0,0,1782.7999999523163
Uid2yFes,322zsn9z6jxccjxbpgrk4cn83gtt4w,3qemnnsb21c411hrwquer4lote67df,Uid2yFes,2020-0188,2021-10-15,11:17:41,12:24:19,NA,incomplete,false,NA,true,7,6,NA,NA,NA,right,absent,NA,NA,n_s_008.jpg,green,n_l_082.jpg,green,within,NA,NaN,NA,right,2297.0999999046326,1,0,1005.7999999523163
Uid2yFes,322zsn9z6jxccjxbpgrk4cn83gtt4w,3qemnnsb21c411hrwquer4lote67df,Uid2yFes,2020-0188,2021-10-15,11:17:41,12:24:19,NA,incomplete,false,NA,true,7,7,NA,NA,NA,right,absent,NA,NA,n_s_051.jpg,gray,n_l_108.jpg,blue,between,NA,NaN,NA,right,3469.5999999046326,1,1,1505.7000000476837
Uid2yFes,322zsn9z6jxccjxbpgrk4cn83gtt4w,3qemnnsb21c411hrwquer4lote67df,Uid2yFes,2020-0188,2021-10-15,11:17:41,12:24:19,NA,incomplete,false,NA,true,7,8,NA,NA,NA,left,absent,NA,NA,n_s_072.jpg,black,n_s_115.jpg,black,within,NA,NaN,NA,right,5491.299999952316,0,0,1600.7999999523163
Uid2yFes,322zsn9z6jxccjxbpgrk4cn83gtt4w,3qemnnsb21c411hrwquer4lote67df,Uid2yFes,2020-0188,2021-10-15,11:17:41,12:24:19,NA,incomplete,false,NA,true,7,9,NA,NA,NA,right,absent,NA,NA,n_l_080.jpg,gray,n_l_084.jpg,gray,within,NA,NaN,NA,right,5704.900000095367,1,1,1583.5
Uid2yFes,322zsn9z6jxccjxbpgrk4cn83gtt4w,3qemnnsb21c411hrwquer4lote67df,Uid2yFes,2020-0188,2021-10-15,11:17:41,12:24:19,NA,incomplete,false,NA,true,7,10,NA,NA,NA,right,absent,NA,NA,m_l_090.jpg,purple,m_s_086.jpg,gray,between,NA,NaN,NA,right,2377.699999809265,1,2,1248.7999999523163
Uid2yFes,322zsn9z6jxccjxbpgrk4cn83gtt4w,3qemnnsb21c411hrwquer4lote67df,Uid2yFes,2020-0188,2021-10-15,11:17:41,12:24:19,NA,incomplete,false,true,NA,8,0,NA,purple,m_l_080.jpg,NA,NA,unpleasant,pleasant,NA,NA,NA,NA,NA,left,1196.5,true,NA,NA,NA,NA,NA
Uid2yFes,322zsn9z6jxccjxbpgrk4cn83gtt4w,3qemnnsb21c411hrwquer4lote67df,Uid2yFes,2020-0188,2021-10-15,11:17:41,12:24:19,NA,incomplete,false,true,NA,8,1,NA,purple,n_s_029.jpg,NA,NA,unpleasant,pleasant,NA,NA,NA,NA,NA,left,1659.29999995232,true,NA,NA,NA,NA,NA
Uid2yFes,322zsn9z6jxccjxbpgrk4cn83gtt4w,3qemnnsb21c411hrwquer4lote67df,Uid2yFes,2020-0188,2021-10-15,11:17:41,12:24:19,NA,incomplete,false,true,NA,8,2,NA,purple,n_s_085.jpg,NA,NA,pleasant,unpleasant,NA,NA,NA,NA,NA,right,1735.69999980927,true,NA,NA,NA,NA,NA
Uid2yFes,322zsn9z6jxccjxbpgrk4cn83gtt4w,3qemnnsb21c411hrwquer4lote67df,Uid2yFes,2020-0188,2021-10-15,11:17:41,12:24:19,NA,incomplete,false,true,NA,8,3,NA,purple,n_l_058.jpg,NA,NA,pleasant,unpleasant,NA,NA,NA,NA,NA,left,1418.29999995232,true,NA,NA,NA,NA,NA
Uid2yFes,322zsn9z6jxccjxbpgrk4cn83gtt4w,3qemnnsb21c411hrwquer4lote67df,Uid2yFes,2020-0188,2021-10-15,11:17:41,12:24:19,NA,incomplete,false,true,NA,8,4,NA,purple,n_s_016.jpg,NA,NA,pleasant,unpleasant,NA,NA,NA,NA,NA,left,1290.59999990463,true,NA,NA,NA,NA,NA
Uid2yFes,322zsn9z6jxccjxbpgrk4cn83gtt4w,3qemnnsb21c411hrwquer4lote67df,Uid2yFes,2020-0188,2021-10-15,11:17:41,12:24:19,NA,incomplete,false,true,NA,8,5,NA,purple,m_s_020.jpg,NA,NA,pleasant,unpleasant,NA,NA,NA,NA,NA,right,1033.90000009537,true,NA,NA,NA,NA,NA
Uid2yFes,322zsn9z6jxccjxbpgrk4cn83gtt4w,3qemnnsb21c411hrwquer4lote67df,Uid2yFes,2020-0188,2021-10-15,11:17:41,12:24:19,NA,incomplete,false,true,NA,8,6,NA,yellow,n_l_111.jpg,NA,NA,pleasant,unpleasant,NA,NA,NA,NA,NA,right,1521.20000004768,true,NA,NA,NA,NA,NA
Uid2yFes,322zsn9z6jxccjxbpgrk4cn83gtt4w,3qemnnsb21c411hrwquer4lote67df,Uid2yFes,2020-0188,2021-10-15,11:17:41,12:24:19,NA,incomplete,false,true,NA,8,7,NA,yellow,m_l_010.jpg,NA,NA,unpleasant,pleasant,NA,NA,NA,NA,NA,left,1133.29999995232,true,NA,NA,NA,NA,NA
