workerId,hitId,assignmentId,subject,studyid,exp_date,exp_start,exp_end,time_start,time_end,practice,encoding,memory,block,trial,event_order,event,stim,answer,context_type,label_left,label_right,left_image,left_event,right_image,right_event,condition,response,response_time,response_acc,order_response,order_response_time,order_acc,distance_response,distance_response_time
UijXM997,3t2hw4qdvykwn81ckpslwayk1hg9co,3nkqq8o392i6zctn9ynp1wz81kcud3,UijXM997,2020-0188,2021-10-14,10:42:14,11:45:55,NA,incomplete,true,true,NA,0,0,NA,white,n_s_096.jpg,NA,NA,pleasant,unpleasant,NA,NA,NA,NA,NA,left,1280.60000014305,true,NA,NA,NA,NA,NA
UijXM997,3t2hw4qdvykwn81ckpslwayk1hg9co,3nkqq8o392i6zctn9ynp1wz81kcud3,UijXM997,2020-0188,2021-10-14,10:42:14,11:45:55,NA,incomplete,true,true,NA,0,1,NA,white,n_l_003.jpg,NA,NA,pleasant,unpleasant,NA,NA,NA,NA,NA,left,2041.19999980927,true,NA,NA,NA,NA,NA
UijXM997,3t2hw4qdvykwn81ckpslwayk1hg9co,3nkqq8o392i6zctn9ynp1wz81kcud3,UijXM997,2020-0188,2021-10-14,10:42:14,11:45:55,NA,incomplete,true,true,NA,0,2,NA,white,m_l_044.jpg,NA,NA,unpleasant,pleasant,NA,NA,NA,NA,NA,right,1829.59999990463,true,NA,NA,NA,NA,NA
UijXM997,3t2hw4qdvykwn81ckpslwayk1hg9co,3nkqq8o392i6zctn9ynp1wz81kcud3,UijXM997,2020-0188,2021-10-14,10:42:14,11:45:55,NA,incomplete,true,true,NA,0,3,NA,white,n_l_083.jpg,NA,NA,unpleasant,pleasant,NA,NA,NA,NA,NA,right,2150.89999985695,true,NA,NA,NA,NA,NA
UijXM997,3t2hw4qdvykwn81ckpslwayk1hg9co,3nkqq8o392i6zctn9ynp1wz81kcud3,UijXM997,2020-0188,2021-10-14,10:42:14,11:45:55,NA,incomplete,true,true,NA,0,4,NA,white,n_l_046.jpg,NA,NA,pleasant,unpleasant,NA,NA,NA,NA,NA,left,1268.40000009537,true,NA,NA,NA,NA,NA
UijXM997,3t2hw4qdvykwn81ckpslwayk1hg9co,3nkqq8o392i6zctn9ynp1wz81kcud3,UijXM997,2020-0188,2021-10-14,10:42:14,11:45:55,NA,incomplete,true,true,NA,0,5,NA,white,n_s_109.jpg,NA,NA,pleasant,unpleasant,NA,NA,NA,NA,NA,right,1611.20000004768,true,NA,NA,NA,NA,NA
UijXM997,3t2hw4qdvykwn81ckpslwayk1hg9co,3nkqq8o392i6zctn9ynp1wz81kcud3,UijXM997,2020-0188,2021-10-14,10:42:14,11:45:55,NA,incomplete,true,true,NA,0,6,NA,black,n_s_051.jpg,NA,NA,unpleasant,pleasant,NA,NA,NA,NA,NA,left,2161.29999995232,true,NA,NA,NA,NA,NA
UijXM997,3t2hw4qdvykwn81ckpslwayk1hg9co,3nkqq8o392i6zctn9ynp1wz81kcud3,UijXM997,2020-0188,2021-10-14,10:42:14,11:45:55,NA,incomplete,true,true,NA,0,7,NA,black,m_l_072.jpg,NA,NA,unpleasant,pleasant,NA,NA,NA,NA,NA,right,1155.59999990463,true,NA,NA,NA,NA,NA
UijXM997,3t2hw4qdvykwn81ckpslwayk1hg9co,3nkqq8o392i6zctn9ynp1wz81kcud3,UijXM997,2020-0188,2021-10-14,10:42:14,11:45:55,NA,incomplete,true,true,NA,0,8,NA,black,m_s_029.jpg,NA,NA,unpleasant,pleasant,NA,NA,NA,NA,NA,right,2786.90000009537,true,NA,NA,NA,NA,NA
UijXM997,3t2hw4qdvykwn81ckpslwayk1hg9co,3nkqq8o392i6zctn9ynp1wz81kcud3,UijXM997,2020-0188,2021-10-14,10:42:14,11:45:55,NA,incomplete,true,true,NA,0,9,NA,black,n_l_020.jpg,NA,NA,unpleasant,pleasant,NA,NA,NA,NA,NA,right,2132.60000014305,true,NA,NA,NA,NA,NA
UijXM997,3t2hw4qdvykwn81ckpslwayk1hg9co,3nkqq8o392i6zctn9ynp1wz81kcud3,UijXM997,2020-0188,2021-10-14,10:42:14,11:45:55,NA,incomplete,true,true,NA,0,10,NA,black,n_l_078.jpg,NA,NA,unpleasant,pleasant,NA,NA,NA,NA,NA,left,2520.60000014305,true,NA,NA,NA,NA,NA
UijXM997,3t2hw4qdvykwn81ckpslwayk1hg9co,3nkqq8o392i6zctn9ynp1wz81kcud3,UijXM997,2020-0188,2021-10-14,10:42:14,11:45:55,NA,incomplete,true,true,NA,0,11,NA,black,n_l_009.jpg,NA,NA,unpleasant,pleasant,NA,NA,NA,NA,NA,right,1073.59999990463,true,NA,NA,NA,NA,NA
UijXM997,3t2hw4qdvykwn81ckpslwayk1hg9co,3nkqq8o392i6zctn9ynp1wz81kcud3,UijXM997,2020-0188,2021-10-14,10:42:14,11:45:55,NA,incomplete,true,true,NA,0,12,NA,purple,n_s_012.jpg,NA,NA,unpleasant,pleasant,NA,NA,NA,NA,NA,right,1399.59999990463,true,NA,NA,NA,NA,NA
UijXM997,3t2hw4qdvykwn81ckpslwayk1hg9co,3nkqq8o392i6zctn9ynp1wz81kcud3,UijXM997,2020-0188,2021-10-14,10:42:14,11:45:55,NA,incomplete,true,true,NA,0,13,NA,purple,n_s_001.jpg,NA,NA,unpleasant,pleasant,NA,NA,NA,NA,NA,left,2982.39999985695,true,NA,NA,NA,NA,NA
UijXM997,3t2hw4qdvykwn81ckpslwayk1hg9co,3nkqq8o392i6zctn9ynp1wz81kcud3,UijXM997,2020-0188,2021-10-14,10:42:14,11:45:55,NA,incomplete,true,true,NA,0,14,NA,purple,n_l_037.jpg,NA,NA,pleasant,unpleasant,NA,NA,NA,NA,NA,left,1106.20000004768,true,NA,NA,NA,NA,NA
UijXM997,3t2hw4qdvykwn81ckpslwayk1hg9co,3nkqq8o392i6zctn9ynp1wz81kcud3,UijXM997,2020-0188,2021-10-14,10:42:14,11:45:55,NA,incomplete,true,true,NA,0,15,NA,purple,n_l_029.jpg,NA,NA,unpleasant,pleasant,NA,NA,NA,NA,NA,right,2689,true,NA,NA,NA,NA,NA
UijXM997,3t2hw4qdvykwn81ckpslwayk1hg9co,3nkqq8o392i6zctn9ynp1wz81kcud3,UijXM997,2020-0188,2021-10-14,10:42:14,11:45:55,NA,incomplete,true,true,NA,0,16,NA,purple,m_l_041.jpg,NA,NA,pleasant,unpleasant,NA,NA,NA,NA,NA,right,2517.70000004768,true,NA,NA,NA,NA,NA
UijXM997,3t2hw4qdvykwn81ckpslwayk1hg9co,3nkqq8o392i6zctn9ynp1wz81kcud3,UijXM997,2020-0188,2021-10-14,10:42:14,11:45:55,NA,incomplete,true,true,NA,0,17,NA,purple,m_l_043.jpg,NA,NA,pleasant,unpleasant,NA,NA,NA,NA,NA,left,1092.69999980927,true,NA,NA,NA,NA,NA
UijXM997,3t2hw4qdvykwn81ckpslwayk1hg9co,3nkqq8o392i6zctn9ynp1wz81kcud3,UijXM997,2020-0188,2021-10-14,10:42:14,11:45:55,NA,incomplete,true,true,NA,0,18,NA,brown,n_l_054.jpg,NA,NA,pleasant,unpleasant,NA,NA,NA,NA,NA,left,1672.79999995232,true,NA,NA,NA,NA,NA
UijXM997,3t2hw4qdvykwn81ckpslwayk1hg9co,3nkqq8o392i6zctn9ynp1wz81kcud3,UijXM997,2020-0188,2021-10-14,10:42:14,11:45:55,NA,incomplete,true,true,NA,0,19,NA,brown,m_l_083.jpg,NA,NA,pleasant,unpleasant,NA,NA,NA,NA,NA,left,1336.79999995232,true,NA,NA,NA,NA,NA
UijXM997,3t2hw4qdvykwn81ckpslwayk1hg9co,3nkqq8o392i6zctn9ynp1wz81kcud3,UijXM997,2020-0188,2021-10-14,10:42:14,11:45:55,NA,incomplete,true,true,NA,0,20,NA,brown,m_s_017.jpg,NA,NA,unpleasant,pleasant,NA,NA,NA,NA,NA,left,2838.60000014305,true,NA,NA,NA,NA,NA
UijXM997,3t2hw4qdvykwn81ckpslwayk1hg9co,3nkqq8o392i6zctn9ynp1wz81kcud3,UijXM997,2020-0188,2021-10-14,10:42:14,11:45:55,NA,incomplete,true,true,NA,0,21,NA,brown,m_l_013.jpg,NA,NA,pleasant,unpleasant,NA,NA,NA,NA,NA,left,2042.79999995232,true,NA,NA,NA,NA,NA
UijXM997,3t2hw4qdvykwn81ckpslwayk1hg9co,3nkqq8o392i6zctn9ynp1wz81kcud3,UijXM997,2020-0188,2021-10-14,10:42:14,11:45:55,NA,incomplete,true,true,NA,0,22,NA,brown,m_s_073.jpg,NA,NA,pleasant,unpleasant,NA,NA,NA,NA,NA,left,1250.40000009537,true,NA,NA,NA,NA,NA
UijXM997,3t2hw4qdvykwn81ckpslwayk1hg9co,3nkqq8o392i6zctn9ynp1wz81kcud3,UijXM997,2020-0188,2021-10-14,10:42:14,11:45:55,NA,incomplete,true,true,NA,0,23,NA,brown,n_l_039.jpg,NA,NA,pleasant,unpleasant,NA,NA,NA,NA,NA,left,1441.20000004768,true,NA,NA,NA,NA,NA
UijXM997,3t2hw4qdvykwn81ckpslwayk1hg9co,3nkqq8o392i6zctn9ynp1wz81kcud3,UijXM997,2020-0188,2021-10-14,10:42:14,11:45:55,NA,incomplete,true,true,NA,0,24,NA,gray,m_l_111.jpg,NA,NA,unpleasant,pleasant,NA,NA,NA,NA,NA,right,2123.79999995232,true,NA,NA,NA,NA,NA
UijXM997,3t2hw4qdvykwn81ckpslwayk1hg9co,3nkqq8o392i6zctn9ynp1wz81kcud3,UijXM997,2020-0188,2021-10-14,10:42:14,11:45:55,NA,incomplete,true,true,NA,0,25,NA,gray,m_s_042.jpg,NA,NA,unpleasant,pleasant,NA,NA,NA,NA,NA,right,2050.09999990463,true,NA,NA,NA,NA,NA
UijXM997,3t2hw4qdvykwn81ckpslwayk1hg9co,3nkqq8o392i6zctn9ynp1wz81kcud3,UijXM997,2020-0188,2021-10-14,10:42:14,11:45:55,NA,incomplete,true,true,NA,0,26,NA,gray,m_l_051.jpg,NA,NA,unpleasant,pleasant,NA,NA,NA,NA,NA,right,1501.20000004768,true,NA,NA,NA,NA,NA
UijXM997,3t2hw4qdvykwn81ckpslwayk1hg9co,3nkqq8o392i6zctn9ynp1wz81kcud3,UijXM997,2020-0188,2021-10-14,10:42:14,11:45:55,NA,incomplete,true,true,NA,0,27,NA,gray,n_l_114.jpg,NA,NA,pleasant,unpleasant,NA,NA,NA,NA,NA,right,2400.40000009537,true,NA,NA,NA,NA,NA
UijXM997,3t2hw4qdvykwn81ckpslwayk1hg9co,3nkqq8o392i6zctn9ynp1wz81kcud3,UijXM997,2020-0188,2021-10-14,10:42:14,11:45:55,NA,incomplete,true,true,NA,0,28,NA,gray,m_s_045.jpg,NA,NA,unpleasant,pleasant,NA,NA,NA,NA,NA,right,1867,true,NA,NA,NA,NA,NA
UijXM997,3t2hw4qdvykwn81ckpslwayk1hg9co,3nkqq8o392i6zctn9ynp1wz81kcud3,UijXM997,2020-0188,2021-10-14,10:42:14,11:45:55,NA,incomplete,true,true,NA,0,29,NA,gray,m_l_010.jpg,NA,NA,pleasant,unpleasant,NA,NA,NA,NA,NA,left,1804.59999990463,true,NA,NA,NA,NA,NA
UijXM997,3t2hw4qdvykwn81ckpslwayk1hg9co,3nkqq8o392i6zctn9ynp1wz81kcud3,UijXM997,2020-0188,2021-10-14,10:42:14,11:45:55,NA,incomplete,true,true,NA,0,30,NA,orange,n_l_104.jpg,NA,NA,unpleasant,pleasant,NA,NA,NA,NA,NA,left,1401,true,NA,NA,NA,NA,NA
UijXM997,3t2hw4qdvykwn81ckpslwayk1hg9co,3nkqq8o392i6zctn9ynp1wz81kcud3,UijXM997,2020-0188,2021-10-14,10:42:14,11:45:55,NA,incomplete,true,true,NA,0,31,NA,orange,n_l_001.jpg,NA,NA,unpleasant,pleasant,NA,NA,NA,NA,NA,right,1974.20000004768,true,NA,NA,NA,NA,NA
UijXM997,3t2hw4qdvykwn81ckpslwayk1hg9co,3nkqq8o392i6zctn9ynp1wz81kcud3,UijXM997,2020-0188,2021-10-14,10:42:14,11:45:55,NA,incomplete,true,true,NA,0,32,NA,orange,n_s_083.jpg,NA,NA,unpleasant,pleasant,NA,NA,NA,NA,NA,right,1562.5,true,NA,NA,NA,NA,NA
UijXM997,3t2hw4qdvykwn81ckpslwayk1hg9co,3nkqq8o392i6zctn9ynp1wz81kcud3,UijXM997,2020-0188,2021-10-14,10:42:14,11:45:55,NA,incomplete,true,true,NA,0,33,NA,orange,m_l_064.jpg,NA,NA,pleasant,unpleasant,NA,NA,NA,NA,NA,left,2546.90000009537,true,NA,NA,NA,NA,NA
UijXM997,3t2hw4qdvykwn81ckpslwayk1hg9co,3nkqq8o392i6zctn9ynp1wz81kcud3,UijXM997,2020-0188,2021-10-14,10:42:14,11:45:55,NA,incomplete,true,true,NA,0,34,NA,orange,m_s_062.jpg,NA,NA,pleasant,unpleasant,NA,NA,NA,NA,NA,left,1166.5,true,NA,NA,NA,NA,NA
UijXM997,3t2hw4qdvykwn81ckpslwayk1hg9co,3nkqq8o392i6zctn9ynp1wz81kcud3,UijXM997,2020-0188,2021-10-14,10:42:14,11:45:55,NA,incomplete,true,true,NA,0,35,NA,orange,m_l_054.jpg,NA,NA,pleasant,unpleasant,NA,NA,NA,NA,NA,right,2204.09999990463,true,NA,NA,NA,NA,NA
UijXM997,3t2hw4qdvykwn81ckpslwayk1hg9co,3nkqq8o392i6zctn9ynp1wz81kcud3,UijXM997,2020-0188,2021-10-14,10:42:14,11:45:55,NA,incomplete,true,NA,true,0,0,NA,NA,NA,left,present,NA,NA,n_l_046.jpg,white,m_s_029.jpg,black,between,NA,NaN,NA,left,5090.5,1,1,2977.7000000476837
UijXM997,3t2hw4qdvykwn81ckpslwayk1hg9co,3nkqq8o392i6zctn9ynp1wz81kcud3,UijXM997,2020-0188,2021-10-14,10:42:14,11:45:55,NA,incomplete,true,NA,true,0,1,NA,NA,NA,right,absent,NA,NA,m_l_043.jpg,purple,n_s_001.jpg,purple,within,NA,NaN,NA,left,3564.100000143051,0,1,1913.7999999523163
UijXM997,3t2hw4qdvykwn81ckpslwayk1hg9co,3nkqq8o392i6zctn9ynp1wz81kcud3,UijXM997,2020-0188,2021-10-14,10:42:14,11:45:55,NA,incomplete,true,NA,true,0,2,NA,NA,NA,left,present,NA,NA,m_l_072.jpg,black,n_l_009.jpg,black,within,NA,NaN,NA,left,1999.7000000476837,1,2,1144.7000000476837
UijXM997,3t2hw4qdvykwn81ckpslwayk1hg9co,3nkqq8o392i6zctn9ynp1wz81kcud3,UijXM997,2020-0188,2021-10-14,10:42:14,11:45:55,NA,incomplete,true,NA,true,0,3,NA,NA,NA,left,present,NA,NA,m_l_041.jpg,purple,m_s_017.jpg,brown,between,NA,NaN,NA,right,5651,0,0,1803.2000000476837
UijXM997,3t2hw4qdvykwn81ckpslwayk1hg9co,3nkqq8o392i6zctn9ynp1wz81kcud3,UijXM997,2020-0188,2021-10-14,10:42:14,11:45:55,NA,incomplete,true,NA,true,0,4,NA,NA,NA,left,absent,NA,NA,n_l_001.jpg,orange,m_l_054.jpg,orange,within,NA,NaN,NA,left,1900.8999998569489,1,2,1332.0999999046326
UijXM997,3t2hw4qdvykwn81ckpslwayk1hg9co,3nkqq8o392i6zctn9ynp1wz81kcud3,UijXM997,2020-0188,2021-10-14,10:42:14,11:45:55,NA,incomplete,true,NA,true,0,5,NA,NA,NA,right,absent,NA,NA,n_l_037.jpg,purple,n_l_078.jpg,black,between,NA,NaN,NA,right,4861.5,1,0,2046.8000001907349
UijXM997,3t2hw4qdvykwn81ckpslwayk1hg9co,3nkqq8o392i6zctn9ynp1wz81kcud3,UijXM997,2020-0188,2021-10-14,10:42:14,11:45:55,NA,incomplete,true,NA,true,0,6,NA,NA,NA,left,present,NA,NA,m_s_045.jpg,gray,n_s_083.jpg,orange,between,NA,NaN,NA,left,2548.9000000953674,1,0,1232.5999999046326
UijXM997,3t2hw4qdvykwn81ckpslwayk1hg9co,3nkqq8o392i6zctn9ynp1wz81kcud3,UijXM997,2020-0188,2021-10-14,10:42:14,11:45:55,NA,incomplete,true,NA,true,0,7,NA,NA,NA,left,present,NA,NA,m_l_083.jpg,brown,n_l_039.jpg,brown,within,NA,NaN,NA,left,3584.2999999523163,1,1,1088.4000000953674
UijXM997,3t2hw4qdvykwn81ckpslwayk1hg9co,3nkqq8o392i6zctn9ynp1wz81kcud3,UijXM997,2020-0188,2021-10-14,10:42:14,11:45:55,NA,incomplete,true,NA,true,0,8,NA,NA,NA,left,absent,NA,NA,m_s_073.jpg,brown,m_l_051.jpg,gray,between,NA,NaN,NA,left,2103,1,1,1624.6000001430511
UijXM997,3t2hw4qdvykwn81ckpslwayk1hg9co,3nkqq8o392i6zctn9ynp1wz81kcud3,UijXM997,2020-0188,2021-10-14,10:42:14,11:45:55,NA,incomplete,true,NA,true,0,9,NA,NA,NA,right,absent,NA,NA,m_l_010.jpg,gray,m_s_042.jpg,gray,within,NA,NaN,NA,left,2542.100000143051,0,1,1442.9000000953674
UijXM997,3t2hw4qdvykwn81ckpslwayk1hg9co,3nkqq8o392i6zctn9ynp1wz81kcud3,UijXM997,2020-0188,2021-10-14,10:42:14,11:45:55,NA,incomplete,true,NA,true,0,10,NA,NA,NA,left,absent,NA,NA,n_l_003.jpg,white,n_s_109.jpg,white,within,NA,NaN,NA,left,2198.2999999523163,1,3,2706
UijXM997,3t2hw4qdvykwn81ckpslwayk1hg9co,3nkqq8o392i6zctn9ynp1wz81kcud3,UijXM997,2020-0188,2021-10-14,10:42:14,11:45:55,NA,incomplete,false,true,NA,1,0,NA,gray,n_s_100.jpg,NA,NA,unpleasant,pleasant,NA,NA,NA,NA,NA,left,2057.30000019073,true,NA,NA,NA,NA,NA
UijXM997,3t2hw4qdvykwn81ckpslwayk1hg9co,3nkqq8o392i6zctn9ynp1wz81kcud3,UijXM997,2020-0188,2021-10-14,10:42:14,11:45:55,NA,incomplete,false,true,NA,1,1,NA,gray,n_l_100.jpg,NA,NA,pleasant,unpleasant,NA,NA,NA,NA,NA,left,1824.20000004768,true,NA,NA,NA,NA,NA
UijXM997,3t2hw4qdvykwn81ckpslwayk1hg9co,3nkqq8o392i6zctn9ynp1wz81kcud3,UijXM997,2020-0188,2021-10-14,10:42:14,11:45:55,NA,incomplete,false,true,NA,1,2,NA,gray,m_s_048.jpg,NA,NA,pleasant,unpleasant,NA,NA,NA,NA,NA,left,2237.59999990463,true,NA,NA,NA,NA,NA
UijXM997,3t2hw4qdvykwn81ckpslwayk1hg9co,3nkqq8o392i6zctn9ynp1wz81kcud3,UijXM997,2020-0188,2021-10-14,10:42:14,11:45:55,NA,incomplete,false,true,NA,1,3,NA,gray,m_s_031.jpg,NA,NA,unpleasant,pleasant,NA,NA,NA,NA,NA,right,2194.90000009537,true,NA,NA,NA,NA,NA
UijXM997,3t2hw4qdvykwn81ckpslwayk1hg9co,3nkqq8o392i6zctn9ynp1wz81kcud3,UijXM997,2020-0188,2021-10-14,10:42:14,11:45:55,NA,incomplete,false,true,NA,1,4,NA,gray,n_l_073.jpg,NA,NA,unpleasant,pleasant,NA,NA,NA,NA,NA,left,3308.60000014305,true,NA,NA,NA,NA,NA
UijXM997,3t2hw4qdvykwn81ckpslwayk1hg9co,3nkqq8o392i6zctn9ynp1wz81kcud3,UijXM997,2020-0188,2021-10-14,10:42:14,11:45:55,NA,incomplete,false,true,NA,1,5,NA,gray,m_s_067.jpg,NA,NA,pleasant,unpleasant,NA,NA,NA,NA,NA,right,1786,true,NA,NA,NA,NA,NA
UijXM997,3t2hw4qdvykwn81ckpslwayk1hg9co,3nkqq8o392i6zctn9ynp1wz81kcud3,UijXM997,2020-0188,2021-10-14,10:42:14,11:45:55,NA,incomplete,false,true,NA,1,6,NA,yellow,n_l_023.jpg,NA,NA,unpleasant,pleasant,NA,NA,NA,NA,NA,left,3258.19999980927,true,NA,NA,NA,NA,NA
UijXM997,3t2hw4qdvykwn81ckpslwayk1hg9co,3nkqq8o392i6zctn9ynp1wz81kcud3,UijXM997,2020-0188,2021-10-14,10:42:14,11:45:55,NA,incomplete,false,true,NA,1,7,NA,yellow,m_s_018.jpg,NA,NA,unpleasant,pleasant,NA,NA,NA,NA,NA,right,1010.5,true,NA,NA,NA,NA,NA
UijXM997,3t2hw4qdvykwn81ckpslwayk1hg9co,3nkqq8o392i6zctn9ynp1wz81kcud3,UijXM997,2020-0188,2021-10-14,10:42:14,11:45:55,NA,incomplete,false,true,NA,1,8,NA,yellow,n_l_041.jpg,NA,NA,pleasant,unpleasant,NA,NA,NA,NA,NA,right,2321.70000004768,true,NA,NA,NA,NA,NA
UijXM997,3t2hw4qdvykwn81ckpslwayk1hg9co,3nkqq8o392i6zctn9ynp1wz81kcud3,UijXM997,2020-0188,2021-10-14,10:42:14,11:45:55,NA,incomplete,false,true,NA,1,9,NA,yellow,n_s_058.jpg,NA,NA,unpleasant,pleasant,NA,NA,NA,NA,NA,left,2096.79999995232,true,NA,NA,NA,NA,NA
UijXM997,3t2hw4qdvykwn81ckpslwayk1hg9co,3nkqq8o392i6zctn9ynp1wz81kcud3,UijXM997,2020-0188,2021-10-14,10:42:14,11:45:55,NA,incomplete,false,true,NA,1,10,NA,yellow,n_l_081.jpg,NA,NA,unpleasant,pleasant,NA,NA,NA,NA,NA,right,1982.10000014305,true,NA,NA,NA,NA,NA
UijXM997,3t2hw4qdvykwn81ckpslwayk1hg9co,3nkqq8o392i6zctn9ynp1wz81kcud3,UijXM997,2020-0188,2021-10-14,10:42:14,11:45:55,NA,incomplete,false,true,NA,1,11,NA,yellow,m_l_065.jpg,NA,NA,pleasant,unpleasant,NA,NA,NA,NA,NA,right,2427.59999990463,true,NA,NA,NA,NA,NA
UijXM997,3t2hw4qdvykwn81ckpslwayk1hg9co,3nkqq8o392i6zctn9ynp1wz81kcud3,UijXM997,2020-0188,2021-10-14,10:42:14,11:45:55,NA,incomplete,false,true,NA,1,12,NA,white,m_l_103.jpg,NA,NA,unpleasant,pleasant,NA,NA,NA,NA,NA,right,2724.09999990463,true,NA,NA,NA,NA,NA
UijXM997,3t2hw4qdvykwn81ckpslwayk1hg9co,3nkqq8o392i6zctn9ynp1wz81kcud3,UijXM997,2020-0188,2021-10-14,10:42:14,11:45:55,NA,incomplete,false,true,NA,1,13,NA,white,n_s_079.jpg,NA,NA,pleasant,unpleasant,NA,NA,NA,NA,NA,right,2106.10000014305,true,NA,NA,NA,NA,NA
UijXM997,3t2hw4qdvykwn81ckpslwayk1hg9co,3nkqq8o392i6zctn9ynp1wz81kcud3,UijXM997,2020-0188,2021-10-14,10:42:14,11:45:55,NA,incomplete,false,true,NA,1,14,NA,white,n_s_076.jpg,NA,NA,pleasant,unpleasant,NA,NA,NA,NA,NA,left,2831.90000009537,true,NA,NA,NA,NA,NA
UijXM997,3t2hw4qdvykwn81ckpslwayk1hg9co,3nkqq8o392i6zctn9ynp1wz81kcud3,UijXM997,2020-0188,2021-10-14,10:42:14,11:45:55,NA,incomplete,false,true,NA,1,15,NA,white,m_l_090.jpg,NA,NA,unpleasant,pleasant,NA,NA,NA,NA,NA,right,1550.80000019073,true,NA,NA,NA,NA,NA
UijXM997,3t2hw4qdvykwn81ckpslwayk1hg9co,3nkqq8o392i6zctn9ynp1wz81kcud3,UijXM997,2020-0188,2021-10-14,10:42:14,11:45:55,NA,incomplete,false,true,NA,1,16,NA,white,m_s_099.jpg,NA,NA,unpleasant,pleasant,NA,NA,NA,NA,NA,right,1178.90000009537,true,NA,NA,NA,NA,NA
UijXM997,3t2hw4qdvykwn81ckpslwayk1hg9co,3nkqq8o392i6zctn9ynp1wz81kcud3,UijXM997,2020-0188,2021-10-14,10:42:14,11:45:55,NA,incomplete,false,true,NA,1,17,NA,white,n_s_074.jpg,NA,NA,unpleasant,pleasant,NA,NA,NA,NA,NA,none,0,false,NA,NA,NA,NA,NA
UijXM997,3t2hw4qdvykwn81ckpslwayk1hg9co,3nkqq8o392i6zctn9ynp1wz81kcud3,UijXM997,2020-0188,2021-10-14,10:42:14,11:45:55,NA,incomplete,false,true,NA,1,18,NA,green,m_l_056.jpg,NA,NA,unpleasant,pleasant,NA,NA,NA,NA,NA,right,2118.40000009537,true,NA,NA,NA,NA,NA
UijXM997,3t2hw4qdvykwn81ckpslwayk1hg9co,3nkqq8o392i6zctn9ynp1wz81kcud3,UijXM997,2020-0188,2021-10-14,10:42:14,11:45:55,NA,incomplete,false,true,NA,1,19,NA,green,m_s_095.jpg,NA,NA,unpleasant,pleasant,NA,NA,NA,NA,NA,right,2384.70000004768,true,NA,NA,NA,NA,NA
UijXM997,3t2hw4qdvykwn81ckpslwayk1hg9co,3nkqq8o392i6zctn9ynp1wz81kcud3,UijXM997,2020-0188,2021-10-14,10:42:14,11:45:55,NA,incomplete,false,true,NA,1,20,NA,green,n_l_113.jpg,NA,NA,pleasant,unpleasant,NA,NA,NA,NA,NA,left,1648,true,NA,NA,NA,NA,NA
UijXM997,3t2hw4qdvykwn81ckpslwayk1hg9co,3nkqq8o392i6zctn9ynp1wz81kcud3,UijXM997,2020-0188,2021-10-14,10:42:14,11:45:55,NA,incomplete,false,true,NA,1,21,NA,green,m_s_054.jpg,NA,NA,unpleasant,pleasant,NA,NA,NA,NA,NA,left,1176.79999995232,true,NA,NA,NA,NA,NA
UijXM997,3t2hw4qdvykwn81ckpslwayk1hg9co,3nkqq8o392i6zctn9ynp1wz81kcud3,UijXM997,2020-0188,2021-10-14,10:42:14,11:45:55,NA,incomplete,false,true,NA,1,22,NA,green,n_l_012.jpg,NA,NA,unpleasant,pleasant,NA,NA,NA,NA,NA,right,1547.39999985695,true,NA,NA,NA,NA,NA
UijXM997,3t2hw4qdvykwn81ckpslwayk1hg9co,3nkqq8o392i6zctn9ynp1wz81kcud3,UijXM997,2020-0188,2021-10-14,10:42:14,11:45:55,NA,incomplete,false,true,NA,1,23,NA,green,n_l_052.jpg,NA,NA,pleasant,unpleasant,NA,NA,NA,NA,NA,left,1890.69999980927,true,NA,NA,NA,NA,NA
UijXM997,3t2hw4qdvykwn81ckpslwayk1hg9co,3nkqq8o392i6zctn9ynp1wz81kcud3,UijXM997,2020-0188,2021-10-14,10:42:14,11:45:55,NA,incomplete,false,true,NA,1,24,NA,black,n_l_017.jpg,NA,NA,pleasant,unpleasant,NA,NA,NA,NA,NA,left,2128.39999985695,true,NA,NA,NA,NA,NA
UijXM997,3t2hw4qdvykwn81ckpslwayk1hg9co,3nkqq8o392i6zctn9ynp1wz81kcud3,UijXM997,2020-0188,2021-10-14,10:42:14,11:45:55,NA,incomplete,false,true,NA,1,25,NA,black,m_s_111.jpg,NA,NA,unpleasant,pleasant,NA,NA,NA,NA,NA,right,1238.09999990463,true,NA,NA,NA,NA,NA
UijXM997,3t2hw4qdvykwn81ckpslwayk1hg9co,3nkqq8o392i6zctn9ynp1wz81kcud3,UijXM997,2020-0188,2021-10-14,10:42:14,11:45:55,NA,incomplete,false,true,NA,1,26,NA,black,n_s_064.jpg,NA,NA,pleasant,unpleasant,NA,NA,NA,NA,NA,right,2698.69999980927,true,NA,NA,NA,NA,NA
UijXM997,3t2hw4qdvykwn81ckpslwayk1hg9co,3nkqq8o392i6zctn9ynp1wz81kcud3,UijXM997,2020-0188,2021-10-14,10:42:14,11:45:55,NA,incomplete,false,true,NA,1,27,NA,black,m_l_005.jpg,NA,NA,unpleasant,pleasant,NA,NA,NA,NA,NA,right,2475.20000004768,true,NA,NA,NA,NA,NA
UijXM997,3t2hw4qdvykwn81ckpslwayk1hg9co,3nkqq8o392i6zctn9ynp1wz81kcud3,UijXM997,2020-0188,2021-10-14,10:42:14,11:45:55,NA,incomplete,false,true,NA,1,28,NA,black,n_s_085.jpg,NA,NA,unpleasant,pleasant,NA,NA,NA,NA,NA,left,2130.19999980927,true,NA,NA,NA,NA,NA
UijXM997,3t2hw4qdvykwn81ckpslwayk1hg9co,3nkqq8o392i6zctn9ynp1wz81kcud3,UijXM997,2020-0188,2021-10-14,10:42:14,11:45:55,NA,incomplete,false,true,NA,1,29,NA,black,m_s_013.jpg,NA,NA,unpleasant,pleasant,NA,NA,NA,NA,NA,right,949.799999952316,true,NA,NA,NA,NA,NA
UijXM997,3t2hw4qdvykwn81ckpslwayk1hg9co,3nkqq8o392i6zctn9ynp1wz81kcud3,UijXM997,2020-0188,2021-10-14,10:42:14,11:45:55,NA,incomplete,false,true,NA,1,30,NA,red,n_l_033.jpg,NA,NA,unpleasant,pleasant,NA,NA,NA,NA,NA,right,2087.60000014305,true,NA,NA,NA,NA,NA
UijXM997,3t2hw4qdvykwn81ckpslwayk1hg9co,3nkqq8o392i6zctn9ynp1wz81kcud3,UijXM997,2020-0188,2021-10-14,10:42:14,11:45:55,NA,incomplete,false,true,NA,1,31,NA,red,n_l_105.jpg,NA,NA,pleasant,unpleasant,NA,NA,NA,NA,NA,left,1311.30000019073,true,NA,NA,NA,NA,NA
UijXM997,3t2hw4qdvykwn81ckpslwayk1hg9co,3nkqq8o392i6zctn9ynp1wz81kcud3,UijXM997,2020-0188,2021-10-14,10:42:14,11:45:55,NA,incomplete,false,true,NA,1,32,NA,red,m_l_076.jpg,NA,NA,pleasant,unpleasant,NA,NA,NA,NA,NA,left,1327.20000004768,true,NA,NA,NA,NA,NA
UijXM997,3t2hw4qdvykwn81ckpslwayk1hg9co,3nkqq8o392i6zctn9ynp1wz81kcud3,UijXM997,2020-0188,2021-10-14,10:42:14,11:45:55,NA,incomplete,false,true,NA,1,33,NA,red,n_l_079.jpg,NA,NA,pleasant,unpleasant,NA,NA,NA,NA,NA,left,2796.70000004768,true,NA,NA,NA,NA,NA
UijXM997,3t2hw4qdvykwn81ckpslwayk1hg9co,3nkqq8o392i6zctn9ynp1wz81kcud3,UijXM997,2020-0188,2021-10-14,10:42:14,11:45:55,NA,incomplete,false,true,NA,1,34,NA,red,n_l_057.jpg,NA,NA,pleasant,unpleasant,NA,NA,NA,NA,NA,left,963.599999904633,true,NA,NA,NA,NA,NA
UijXM997,3t2hw4qdvykwn81ckpslwayk1hg9co,3nkqq8o392i6zctn9ynp1wz81kcud3,UijXM997,2020-0188,2021-10-14,10:42:14,11:45:55,NA,incomplete,false,true,NA,1,35,NA,red,n_s_050.jpg,NA,NA,pleasant,unpleasant,NA,NA,NA,NA,NA,right,1999.20000004768,true,NA,NA,NA,NA,NA
UijXM997,3t2hw4qdvykwn81ckpslwayk1hg9co,3nkqq8o392i6zctn9ynp1wz81kcud3,UijXM997,2020-0188,2021-10-14,10:42:14,11:45:55,NA,incomplete,false,NA,true,1,0,NA,NA,NA,right,present,NA,NA,m_l_076.jpg,red,n_s_085.jpg,black,between,NA,NaN,NA,right,4153.400000095367,1,1,10136.200000047684
UijXM997,3t2hw4qdvykwn81ckpslwayk1hg9co,3nkqq8o392i6zctn9ynp1wz81kcud3,UijXM997,2020-0188,2021-10-14,10:42:14,11:45:55,NA,incomplete,false,NA,true,1,1,NA,NA,NA,left,present,NA,NA,m_s_099.jpg,white,n_l_113.jpg,green,between,NA,NaN,NA,left,3385.0999999046326,1,2,2096.2000000476837
UijXM997,3t2hw4qdvykwn81ckpslwayk1hg9co,3nkqq8o392i6zctn9ynp1wz81kcud3,UijXM997,2020-0188,2021-10-14,10:42:14,11:45:55,NA,incomplete,false,NA,true,1,2,NA,NA,NA,left,present,NA,NA,n_l_081.jpg,yellow,n_s_076.jpg,white,between,NA,NaN,NA,left,4860.599999904633,1,1,1560.6000001430511
UijXM997,3t2hw4qdvykwn81ckpslwayk1hg9co,3nkqq8o392i6zctn9ynp1wz81kcud3,UijXM997,2020-0188,2021-10-14,10:42:14,11:45:55,NA,incomplete,false,NA,true,1,3,NA,NA,NA,right,present,NA,NA,n_l_052.jpg,green,m_s_095.jpg,green,within,NA,NaN,NA,left,4805.200000047684,0,0,1704.2000000476837
UijXM997,3t2hw4qdvykwn81ckpslwayk1hg9co,3nkqq8o392i6zctn9ynp1wz81kcud3,UijXM997,2020-0188,2021-10-14,10:42:14,11:45:55,NA,incomplete,false,NA,true,1,4,NA,NA,NA,left,present,NA,NA,n_s_079.jpg,white,n_s_074.jpg,white,within,NA,NaN,NA,right,6102.799999952316,0,0,1536.9000000953674
UijXM997,3t2hw4qdvykwn81ckpslwayk1hg9co,3nkqq8o392i6zctn9ynp1wz81kcud3,UijXM997,2020-0188,2021-10-14,10:42:14,11:45:55,NA,incomplete,false,NA,true,1,5,NA,NA,NA,left,present,NA,NA,m_s_018.jpg,yellow,m_l_065.jpg,yellow,within,NA,NaN,NA,right,1758.7000000476837,0,0,1728.5
UijXM997,3t2hw4qdvykwn81ckpslwayk1hg9co,3nkqq8o392i6zctn9ynp1wz81kcud3,UijXM997,2020-0188,2021-10-14,10:42:14,11:45:55,NA,incomplete,false,NA,true,1,6,NA,NA,NA,right,present,NA,NA,m_s_013.jpg,black,m_s_111.jpg,black,within,NA,NaN,NA,right,3409.2000000476837,1,0,1071.7000000476837
UijXM997,3t2hw4qdvykwn81ckpslwayk1hg9co,3nkqq8o392i6zctn9ynp1wz81kcud3,UijXM997,2020-0188,2021-10-14,10:42:14,11:45:55,NA,incomplete,false,NA,true,1,7,NA,NA,NA,right,present,NA,NA,n_s_064.jpg,black,n_l_012.jpg,green,between,NA,NaN,NA,right,3669.699999809265,1,2,1521.9000000953674
UijXM997,3t2hw4qdvykwn81ckpslwayk1hg9co,3nkqq8o392i6zctn9ynp1wz81kcud3,UijXM997,2020-0188,2021-10-14,10:42:14,11:45:55,NA,incomplete,false,NA,true,1,8,NA,NA,NA,right,present,NA,NA,n_s_050.jpg,red,n_l_105.jpg,red,within,NA,NaN,NA,right,2750.5,1,1,1327.7999999523163
UijXM997,3t2hw4qdvykwn81ckpslwayk1hg9co,3nkqq8o392i6zctn9ynp1wz81kcud3,UijXM997,2020-0188,2021-10-14,10:42:14,11:45:55,NA,incomplete,false,NA,true,1,9,NA,NA,NA,right,present,NA,NA,m_s_067.jpg,gray,n_l_100.jpg,gray,within,NA,NaN,NA,right,3962.0999999046326,1,0,3347.399999856949
UijXM997,3t2hw4qdvykwn81ckpslwayk1hg9co,3nkqq8o392i6zctn9ynp1wz81kcud3,UijXM997,2020-0188,2021-10-14,10:42:14,11:45:55,NA,incomplete,false,NA,true,1,10,NA,NA,NA,right,present,NA,NA,n_l_041.jpg,yellow,n_l_073.jpg,gray,between,NA,NaN,NA,right,3174.4000000953674,1,2,1703.9000000953674
UijXM997,3t2hw4qdvykwn81ckpslwayk1hg9co,3nkqq8o392i6zctn9ynp1wz81kcud3,UijXM997,2020-0188,2021-10-14,10:42:14,11:45:55,NA,incomplete,false,true,NA,2,0,NA,blue,n_s_104.jpg,NA,NA,unpleasant,pleasant,NA,NA,NA,NA,NA,right,1604.70000004768,true,NA,NA,NA,NA,NA
UijXM997,3t2hw4qdvykwn81ckpslwayk1hg9co,3nkqq8o392i6zctn9ynp1wz81kcud3,UijXM997,2020-0188,2021-10-14,10:42:14,11:45:55,NA,incomplete,false,true,NA,2,1,NA,blue,m_l_096.jpg,NA,NA,pleasant,unpleasant,NA,NA,NA,NA,NA,right,2037.40000009537,true,NA,NA,NA,NA,NA
UijXM997,3t2hw4qdvykwn81ckpslwayk1hg9co,3nkqq8o392i6zctn9ynp1wz81kcud3,UijXM997,2020-0188,2021-10-14,10:42:14,11:45:55,NA,incomplete,false,true,NA,2,2,NA,blue,n_s_005.jpg,NA,NA,pleasant,unpleasant,NA,NA,NA,NA,NA,left,2315.5,true,NA,NA,NA,NA,NA
UijXM997,3t2hw4qdvykwn81ckpslwayk1hg9co,3nkqq8o392i6zctn9ynp1wz81kcud3,UijXM997,2020-0188,2021-10-14,10:42:14,11:45:55,NA,incomplete,false,true,NA,2,3,NA,blue,m_l_108.jpg,NA,NA,unpleasant,pleasant,NA,NA,NA,NA,NA,right,1968.40000009537,true,NA,NA,NA,NA,NA
UijXM997,3t2hw4qdvykwn81ckpslwayk1hg9co,3nkqq8o392i6zctn9ynp1wz81kcud3,UijXM997,2020-0188,2021-10-14,10:42:14,11:45:55,NA,incomplete,false,true,NA,2,4,NA,blue,m_l_069.jpg,NA,NA,pleasant,unpleasant,NA,NA,NA,NA,NA,right,1451.89999985695,true,NA,NA,NA,NA,NA
UijXM997,3t2hw4qdvykwn81ckpslwayk1hg9co,3nkqq8o392i6zctn9ynp1wz81kcud3,UijXM997,2020-0188,2021-10-14,10:42:14,11:45:55,NA,incomplete,false,true,NA,2,5,NA,blue,n_l_091.jpg,NA,NA,unpleasant,pleasant,NA,NA,NA,NA,NA,right,1450.39999985695,true,NA,NA,NA,NA,NA
UijXM997,3t2hw4qdvykwn81ckpslwayk1hg9co,3nkqq8o392i6zctn9ynp1wz81kcud3,UijXM997,2020-0188,2021-10-14,10:42:14,11:45:55,NA,incomplete,false,true,NA,2,6,NA,orange,m_s_087.jpg,NA,NA,unpleasant,pleasant,NA,NA,NA,NA,NA,left,2305.5,true,NA,NA,NA,NA,NA
UijXM997,3t2hw4qdvykwn81ckpslwayk1hg9co,3nkqq8o392i6zctn9ynp1wz81kcud3,UijXM997,2020-0188,2021-10-14,10:42:14,11:45:55,NA,incomplete,false,true,NA,2,7,NA,orange,n_s_017.jpg,NA,NA,unpleasant,pleasant,NA,NA,NA,NA,NA,left,1981.5,true,NA,NA,NA,NA,NA
UijXM997,3t2hw4qdvykwn81ckpslwayk1hg9co,3nkqq8o392i6zctn9ynp1wz81kcud3,UijXM997,2020-0188,2021-10-14,10:42:14,11:45:55,NA,incomplete,false,true,NA,2,8,NA,orange,m_l_004.jpg,NA,NA,pleasant,unpleasant,NA,NA,NA,NA,NA,right,1667.70000004768,true,NA,NA,NA,NA,NA
UijXM997,3t2hw4qdvykwn81ckpslwayk1hg9co,3nkqq8o392i6zctn9ynp1wz81kcud3,UijXM997,2020-0188,2021-10-14,10:42:14,11:45:55,NA,incomplete,false,true,NA,2,9,NA,orange,n_l_034.jpg,NA,NA,unpleasant,pleasant,NA,NA,NA,NA,NA,left,1999.40000009537,true,NA,NA,NA,NA,NA
UijXM997,3t2hw4qdvykwn81ckpslwayk1hg9co,3nkqq8o392i6zctn9ynp1wz81kcud3,UijXM997,2020-0188,2021-10-14,10:42:14,11:45:55,NA,incomplete,false,true,NA,2,10,NA,orange,n_l_089.jpg,NA,NA,pleasant,unpleasant,NA,NA,NA,NA,NA,left,2429,true,NA,NA,NA,NA,NA
UijXM997,3t2hw4qdvykwn81ckpslwayk1hg9co,3nkqq8o392i6zctn9ynp1wz81kcud3,UijXM997,2020-0188,2021-10-14,10:42:14,11:45:55,NA,incomplete,false,true,NA,2,11,NA,orange,m_l_033.jpg,NA,NA,pleasant,unpleasant,NA,NA,NA,NA,NA,left,2134.09999990463,true,NA,NA,NA,NA,NA
UijXM997,3t2hw4qdvykwn81ckpslwayk1hg9co,3nkqq8o392i6zctn9ynp1wz81kcud3,UijXM997,2020-0188,2021-10-14,10:42:14,11:45:55,NA,incomplete,false,true,NA,2,12,NA,black,m_s_041.jpg,NA,NA,unpleasant,pleasant,NA,NA,NA,NA,NA,left,2576.59999990463,true,NA,NA,NA,NA,NA
UijXM997,3t2hw4qdvykwn81ckpslwayk1hg9co,3nkqq8o392i6zctn9ynp1wz81kcud3,UijXM997,2020-0188,2021-10-14,10:42:14,11:45:55,NA,incomplete,false,true,NA,2,13,NA,black,m_s_110.jpg,NA,NA,pleasant,unpleasant,NA,NA,NA,NA,NA,left,3341.19999980927,true,NA,NA,NA,NA,NA
UijXM997,3t2hw4qdvykwn81ckpslwayk1hg9co,3nkqq8o392i6zctn9ynp1wz81kcud3,UijXM997,2020-0188,2021-10-14,10:42:14,11:45:55,NA,incomplete,false,true,NA,2,14,NA,black,m_s_006.jpg,NA,NA,pleasant,unpleasant,NA,NA,NA,NA,NA,left,1576.40000009537,true,NA,NA,NA,NA,NA
UijXM997,3t2hw4qdvykwn81ckpslwayk1hg9co,3nkqq8o392i6zctn9ynp1wz81kcud3,UijXM997,2020-0188,2021-10-14,10:42:14,11:45:55,NA,incomplete,false,true,NA,2,15,NA,black,n_l_067.jpg,NA,NA,pleasant,unpleasant,NA,NA,NA,NA,NA,left,1332.5,true,NA,NA,NA,NA,NA
UijXM997,3t2hw4qdvykwn81ckpslwayk1hg9co,3nkqq8o392i6zctn9ynp1wz81kcud3,UijXM997,2020-0188,2021-10-14,10:42:14,11:45:55,NA,incomplete,false,true,NA,2,16,NA,black,m_s_051.jpg,NA,NA,pleasant,unpleasant,NA,NA,NA,NA,NA,right,2437.39999985695,true,NA,NA,NA,NA,NA
UijXM997,3t2hw4qdvykwn81ckpslwayk1hg9co,3nkqq8o392i6zctn9ynp1wz81kcud3,UijXM997,2020-0188,2021-10-14,10:42:14,11:45:55,NA,incomplete,false,true,NA,2,17,NA,black,n_l_053.jpg,NA,NA,pleasant,unpleasant,NA,NA,NA,NA,NA,right,1764.80000019073,true,NA,NA,NA,NA,NA
UijXM997,3t2hw4qdvykwn81ckpslwayk1hg9co,3nkqq8o392i6zctn9ynp1wz81kcud3,UijXM997,2020-0188,2021-10-14,10:42:14,11:45:55,NA,incomplete,false,true,NA,2,18,NA,yellow,n_l_019.jpg,NA,NA,pleasant,unpleasant,NA,NA,NA,NA,NA,left,1595.09999990463,true,NA,NA,NA,NA,NA
UijXM997,3t2hw4qdvykwn81ckpslwayk1hg9co,3nkqq8o392i6zctn9ynp1wz81kcud3,UijXM997,2020-0188,2021-10-14,10:42:14,11:45:55,NA,incomplete,false,true,NA,2,19,NA,yellow,m_s_071.jpg,NA,NA,pleasant,unpleasant,NA,NA,NA,NA,NA,right,2698.20000004768,true,NA,NA,NA,NA,NA
UijXM997,3t2hw4qdvykwn81ckpslwayk1hg9co,3nkqq8o392i6zctn9ynp1wz81kcud3,UijXM997,2020-0188,2021-10-14,10:42:14,11:45:55,NA,incomplete,false,true,NA,2,20,NA,yellow,n_l_116.jpg,NA,NA,unpleasant,pleasant,NA,NA,NA,NA,NA,left,1610.59999990463,true,NA,NA,NA,NA,NA
UijXM997,3t2hw4qdvykwn81ckpslwayk1hg9co,3nkqq8o392i6zctn9ynp1wz81kcud3,UijXM997,2020-0188,2021-10-14,10:42:14,11:45:55,NA,incomplete,false,true,NA,2,21,NA,yellow,m_l_098.jpg,NA,NA,unpleasant,pleasant,NA,NA,NA,NA,NA,right,1798.29999995232,true,NA,NA,NA,NA,NA
UijXM997,3t2hw4qdvykwn81ckpslwayk1hg9co,3nkqq8o392i6zctn9ynp1wz81kcud3,UijXM997,2020-0188,2021-10-14,10:42:14,11:45:55,NA,incomplete,false,true,NA,2,22,NA,yellow,n_l_084.jpg,NA,NA,unpleasant,pleasant,NA,NA,NA,NA,NA,left,2425.30000019073,true,NA,NA,NA,NA,NA
UijXM997,3t2hw4qdvykwn81ckpslwayk1hg9co,3nkqq8o392i6zctn9ynp1wz81kcud3,UijXM997,2020-0188,2021-10-14,10:42:14,11:45:55,NA,incomplete,false,true,NA,2,23,NA,yellow,n_l_099.jpg,NA,NA,pleasant,unpleasant,NA,NA,NA,NA,NA,right,2184,true,NA,NA,NA,NA,NA
UijXM997,3t2hw4qdvykwn81ckpslwayk1hg9co,3nkqq8o392i6zctn9ynp1wz81kcud3,UijXM997,2020-0188,2021-10-14,10:42:14,11:45:55,NA,incomplete,false,true,NA,2,24,NA,gray,n_l_087.jpg,NA,NA,unpleasant,pleasant,NA,NA,NA,NA,NA,right,1746.40000009537,true,NA,NA,NA,NA,NA
UijXM997,3t2hw4qdvykwn81ckpslwayk1hg9co,3nkqq8o392i6zctn9ynp1wz81kcud3,UijXM997,2020-0188,2021-10-14,10:42:14,11:45:55,NA,incomplete,false,true,NA,2,25,NA,gray,n_s_002.jpg,NA,NA,pleasant,unpleasant,NA,NA,NA,NA,NA,left,2385.90000009537,true,NA,NA,NA,NA,NA
UijXM997,3t2hw4qdvykwn81ckpslwayk1hg9co,3nkqq8o392i6zctn9ynp1wz81kcud3,UijXM997,2020-0188,2021-10-14,10:42:14,11:45:55,NA,incomplete,false,true,NA,2,26,NA,gray,m_s_027.jpg,NA,NA,unpleasant,pleasant,NA,NA,NA,NA,NA,right,1920.19999980927,true,NA,NA,NA,NA,NA
UijXM997,3t2hw4qdvykwn81ckpslwayk1hg9co,3nkqq8o392i6zctn9ynp1wz81kcud3,UijXM997,2020-0188,2021-10-14,10:42:14,11:45:55,NA,incomplete,false,true,NA,2,27,NA,gray,n_s_013.jpg,NA,NA,unpleasant,pleasant,NA,NA,NA,NA,NA,right,1335.19999980927,true,NA,NA,NA,NA,NA
UijXM997,3t2hw4qdvykwn81ckpslwayk1hg9co,3nkqq8o392i6zctn9ynp1wz81kcud3,UijXM997,2020-0188,2021-10-14,10:42:14,11:45:55,NA,incomplete,false,true,NA,2,28,NA,gray,n_s_011.jpg,NA,NA,pleasant,unpleasant,NA,NA,NA,NA,NA,left,1522.09999990463,true,NA,NA,NA,NA,NA
UijXM997,3t2hw4qdvykwn81ckpslwayk1hg9co,3nkqq8o392i6zctn9ynp1wz81kcud3,UijXM997,2020-0188,2021-10-14,10:42:14,11:45:55,NA,incomplete,false,true,NA,2,29,NA,gray,n_l_047.jpg,NA,NA,unpleasant,pleasant,NA,NA,NA,NA,NA,right,1072.29999995232,true,NA,NA,NA,NA,NA
UijXM997,3t2hw4qdvykwn81ckpslwayk1hg9co,3nkqq8o392i6zctn9ynp1wz81kcud3,UijXM997,2020-0188,2021-10-14,10:42:14,11:45:55,NA,incomplete,false,true,NA,2,30,NA,white,m_s_116.jpg,NA,NA,unpleasant,pleasant,NA,NA,NA,NA,NA,right,2084,true,NA,NA,NA,NA,NA
UijXM997,3t2hw4qdvykwn81ckpslwayk1hg9co,3nkqq8o392i6zctn9ynp1wz81kcud3,UijXM997,2020-0188,2021-10-14,10:42:14,11:45:55,NA,incomplete,false,true,NA,2,31,NA,white,n_l_111.jpg,NA,NA,pleasant,unpleasant,NA,NA,NA,NA,NA,left,1272.20000004768,true,NA,NA,NA,NA,NA
UijXM997,3t2hw4qdvykwn81ckpslwayk1hg9co,3nkqq8o392i6zctn9ynp1wz81kcud3,UijXM997,2020-0188,2021-10-14,10:42:14,11:45:55,NA,incomplete,false,true,NA,2,32,NA,white,m_s_114.jpg,NA,NA,unpleasant,pleasant,NA,NA,NA,NA,NA,right,1849.5,true,NA,NA,NA,NA,NA
UijXM997,3t2hw4qdvykwn81ckpslwayk1hg9co,3nkqq8o392i6zctn9ynp1wz81kcud3,UijXM997,2020-0188,2021-10-14,10:42:14,11:45:55,NA,incomplete,false,true,NA,2,33,NA,white,m_s_074.jpg,NA,NA,pleasant,unpleasant,NA,NA,NA,NA,NA,right,1270.80000019073,true,NA,NA,NA,NA,NA
UijXM997,3t2hw4qdvykwn81ckpslwayk1hg9co,3nkqq8o392i6zctn9ynp1wz81kcud3,UijXM997,2020-0188,2021-10-14,10:42:14,11:45:55,NA,incomplete,false,true,NA,2,34,NA,white,n_l_066.jpg,NA,NA,pleasant,unpleasant,NA,NA,NA,NA,NA,left,2113.79999995232,true,NA,NA,NA,NA,NA
UijXM997,3t2hw4qdvykwn81ckpslwayk1hg9co,3nkqq8o392i6zctn9ynp1wz81kcud3,UijXM997,2020-0188,2021-10-14,10:42:14,11:45:55,NA,incomplete,false,true,NA,2,35,NA,white,n_l_056.jpg,NA,NA,pleasant,unpleasant,NA,NA,NA,NA,NA,left,2177.70000004768,true,NA,NA,NA,NA,NA
UijXM997,3t2hw4qdvykwn81ckpslwayk1hg9co,3nkqq8o392i6zctn9ynp1wz81kcud3,UijXM997,2020-0188,2021-10-14,10:42:14,11:45:55,NA,incomplete,false,NA,true,2,0,NA,NA,NA,right,present,NA,NA,n_l_056.jpg,white,n_l_111.jpg,white,within,NA,NaN,NA,right,5393.700000047684,1,1,1311.6999998092651
UijXM997,3t2hw4qdvykwn81ckpslwayk1hg9co,3nkqq8o392i6zctn9ynp1wz81kcud3,UijXM997,2020-0188,2021-10-14,10:42:14,11:45:55,NA,incomplete,false,NA,true,2,1,NA,NA,NA,left,present,NA,NA,m_s_110.jpg,black,n_l_053.jpg,black,within,NA,NaN,NA,left,2765.399999856949,1,0,1137
UijXM997,3t2hw4qdvykwn81ckpslwayk1hg9co,3nkqq8o392i6zctn9ynp1wz81kcud3,UijXM997,2020-0188,2021-10-14,10:42:14,11:45:55,NA,incomplete,false,NA,true,2,2,NA,NA,NA,right,present,NA,NA,n_l_047.jpg,gray,n_s_002.jpg,gray,within,NA,NaN,NA,right,6150.5,1,0,841.6999998092651
UijXM997,3t2hw4qdvykwn81ckpslwayk1hg9co,3nkqq8o392i6zctn9ynp1wz81kcud3,UijXM997,2020-0188,2021-10-14,10:42:14,11:45:55,NA,incomplete,false,NA,true,2,3,NA,NA,NA,right,present,NA,NA,m_s_114.jpg,white,n_s_011.jpg,gray,between,NA,NaN,NA,right,2637.399999856949,1,1,2523.2000000476837
UijXM997,3t2hw4qdvykwn81ckpslwayk1hg9co,3nkqq8o392i6zctn9ynp1wz81kcud3,UijXM997,2020-0188,2021-10-14,10:42:14,11:45:55,NA,incomplete,false,NA,true,2,4,NA,NA,NA,left,present,NA,NA,m_l_069.jpg,blue,m_l_004.jpg,orange,between,NA,NaN,NA,left,6736.299999952316,1,2,1906.7999999523163
UijXM997,3t2hw4qdvykwn81ckpslwayk1hg9co,3nkqq8o392i6zctn9ynp1wz81kcud3,UijXM997,2020-0188,2021-10-14,10:42:14,11:45:55,NA,incomplete,false,NA,true,2,5,NA,NA,NA,left,present,NA,NA,m_s_051.jpg,black,n_l_116.jpg,yellow,between,NA,NaN,NA,left,3098.9000000953674,1,1,1424.8999998569489
UijXM997,3t2hw4qdvykwn81ckpslwayk1hg9co,3nkqq8o392i6zctn9ynp1wz81kcud3,UijXM997,2020-0188,2021-10-14,10:42:14,11:45:55,NA,incomplete,false,NA,true,2,6,NA,NA,NA,left,present,NA,NA,n_s_017.jpg,orange,m_l_033.jpg,orange,within,NA,NaN,NA,left,5475.200000047684,1,0,1338.7000000476837
UijXM997,3t2hw4qdvykwn81ckpslwayk1hg9co,3nkqq8o392i6zctn9ynp1wz81kcud3,UijXM997,2020-0188,2021-10-14,10:42:14,11:45:55,NA,incomplete,false,NA,true,2,7,NA,NA,NA,left,present,NA,NA,n_l_084.jpg,yellow,m_s_027.jpg,gray,between,NA,NaN,NA,left,3963.5,1,0,2048.5
UijXM997,3t2hw4qdvykwn81ckpslwayk1hg9co,3nkqq8o392i6zctn9ynp1wz81kcud3,UijXM997,2020-0188,2021-10-14,10:42:14,11:45:55,NA,incomplete,false,NA,true,2,8,NA,NA,NA,right,present,NA,NA,n_l_099.jpg,yellow,m_s_071.jpg,yellow,within,NA,NaN,NA,right,5319,1,0,2454.9000000953674
UijXM997,3t2hw4qdvykwn81ckpslwayk1hg9co,3nkqq8o392i6zctn9ynp1wz81kcud3,UijXM997,2020-0188,2021-10-14,10:42:14,11:45:55,NA,incomplete,false,NA,true,2,9,NA,NA,NA,left,present,NA,NA,m_l_096.jpg,blue,n_l_091.jpg,blue,within,NA,NaN,NA,left,4658.599999904633,1,0,806.7000000476837
UijXM997,3t2hw4qdvykwn81ckpslwayk1hg9co,3nkqq8o392i6zctn9ynp1wz81kcud3,UijXM997,2020-0188,2021-10-14,10:42:14,11:45:55,NA,incomplete,false,NA,true,2,10,NA,NA,NA,right,present,NA,NA,m_s_006.jpg,black,n_l_089.jpg,orange,between,NA,NaN,NA,right,4355.099999904633,1,3,1528
UijXM997,3t2hw4qdvykwn81ckpslwayk1hg9co,3nkqq8o392i6zctn9ynp1wz81kcud3,UijXM997,2020-0188,2021-10-14,10:42:14,11:45:55,NA,incomplete,false,true,NA,3,0,NA,red,n_s_009.jpg,NA,NA,unpleasant,pleasant,NA,NA,NA,NA,NA,right,1933.70000004768,true,NA,NA,NA,NA,NA
UijXM997,3t2hw4qdvykwn81ckpslwayk1hg9co,3nkqq8o392i6zctn9ynp1wz81kcud3,UijXM997,2020-0188,2021-10-14,10:42:14,11:45:55,NA,incomplete,false,true,NA,3,1,NA,red,n_l_028.jpg,NA,NA,pleasant,unpleasant,NA,NA,NA,NA,NA,left,1510.09999990463,true,NA,NA,NA,NA,NA
UijXM997,3t2hw4qdvykwn81ckpslwayk1hg9co,3nkqq8o392i6zctn9ynp1wz81kcud3,UijXM997,2020-0188,2021-10-14,10:42:14,11:45:55,NA,incomplete,false,true,NA,3,2,NA,red,n_s_042.jpg,NA,NA,pleasant,unpleasant,NA,NA,NA,NA,NA,left,1551.59999990463,true,NA,NA,NA,NA,NA
UijXM997,3t2hw4qdvykwn81ckpslwayk1hg9co,3nkqq8o392i6zctn9ynp1wz81kcud3,UijXM997,2020-0188,2021-10-14,10:42:14,11:45:55,NA,incomplete,false,true,NA,3,3,NA,red,n_s_033.jpg,NA,NA,unpleasant,pleasant,NA,NA,NA,NA,NA,right,1256.90000009537,true,NA,NA,NA,NA,NA
UijXM997,3t2hw4qdvykwn81ckpslwayk1hg9co,3nkqq8o392i6zctn9ynp1wz81kcud3,UijXM997,2020-0188,2021-10-14,10:42:14,11:45:55,NA,incomplete,false,true,NA,3,4,NA,red,m_l_104.jpg,NA,NA,pleasant,unpleasant,NA,NA,NA,NA,NA,left,1948.10000014305,true,NA,NA,NA,NA,NA
UijXM997,3t2hw4qdvykwn81ckpslwayk1hg9co,3nkqq8o392i6zctn9ynp1wz81kcud3,UijXM997,2020-0188,2021-10-14,10:42:14,11:45:55,NA,incomplete,false,true,NA,3,5,NA,red,m_s_085.jpg,NA,NA,unpleasant,pleasant,NA,NA,NA,NA,NA,left,1280.09999990463,true,NA,NA,NA,NA,NA
UijXM997,3t2hw4qdvykwn81ckpslwayk1hg9co,3nkqq8o392i6zctn9ynp1wz81kcud3,UijXM997,2020-0188,2021-10-14,10:42:14,11:45:55,NA,incomplete,false,true,NA,3,6,NA,purple,m_s_033.jpg,NA,NA,pleasant,unpleasant,NA,NA,NA,NA,NA,left,1948.20000004768,true,NA,NA,NA,NA,NA
UijXM997,3t2hw4qdvykwn81ckpslwayk1hg9co,3nkqq8o392i6zctn9ynp1wz81kcud3,UijXM997,2020-0188,2021-10-14,10:42:14,11:45:55,NA,incomplete,false,true,NA,3,7,NA,purple,m_l_080.jpg,NA,NA,unpleasant,pleasant,NA,NA,NA,NA,NA,right,2454.90000009537,true,NA,NA,NA,NA,NA
UijXM997,3t2hw4qdvykwn81ckpslwayk1hg9co,3nkqq8o392i6zctn9ynp1wz81kcud3,UijXM997,2020-0188,2021-10-14,10:42:14,11:45:55,NA,incomplete,false,true,NA,3,8,NA,purple,n_s_102.jpg,NA,NA,unpleasant,pleasant,NA,NA,NA,NA,NA,right,1272.90000009537,true,NA,NA,NA,NA,NA
UijXM997,3t2hw4qdvykwn81ckpslwayk1hg9co,3nkqq8o392i6zctn9ynp1wz81kcud3,UijXM997,2020-0188,2021-10-14,10:42:14,11:45:55,NA,incomplete,false,true,NA,3,9,NA,purple,n_l_075.jpg,NA,NA,pleasant,unpleasant,NA,NA,NA,NA,NA,right,1739.89999985695,true,NA,NA,NA,NA,NA
UijXM997,3t2hw4qdvykwn81ckpslwayk1hg9co,3nkqq8o392i6zctn9ynp1wz81kcud3,UijXM997,2020-0188,2021-10-14,10:42:14,11:45:55,NA,incomplete,false,true,NA,3,10,NA,purple,m_s_088.jpg,NA,NA,unpleasant,pleasant,NA,NA,NA,NA,NA,left,1600.70000004768,true,NA,NA,NA,NA,NA
UijXM997,3t2hw4qdvykwn81ckpslwayk1hg9co,3nkqq8o392i6zctn9ynp1wz81kcud3,UijXM997,2020-0188,2021-10-14,10:42:14,11:45:55,NA,incomplete,false,true,NA,3,11,NA,purple,n_l_102.jpg,NA,NA,unpleasant,pleasant,NA,NA,NA,NA,NA,right,1253.39999985695,true,NA,NA,NA,NA,NA
UijXM997,3t2hw4qdvykwn81ckpslwayk1hg9co,3nkqq8o392i6zctn9ynp1wz81kcud3,UijXM997,2020-0188,2021-10-14,10:42:14,11:45:55,NA,incomplete,false,true,NA,3,12,NA,blue,m_s_024.jpg,NA,NA,unpleasant,pleasant,NA,NA,NA,NA,NA,left,2707.59999990463,true,NA,NA,NA,NA,NA
UijXM997,3t2hw4qdvykwn81ckpslwayk1hg9co,3nkqq8o392i6zctn9ynp1wz81kcud3,UijXM997,2020-0188,2021-10-14,10:42:14,11:45:55,NA,incomplete,false,true,NA,3,13,NA,blue,n_s_004.jpg,NA,NA,unpleasant,pleasant,NA,NA,NA,NA,NA,left,2651.5,true,NA,NA,NA,NA,NA
UijXM997,3t2hw4qdvykwn81ckpslwayk1hg9co,3nkqq8o392i6zctn9ynp1wz81kcud3,UijXM997,2020-0188,2021-10-14,10:42:14,11:45:55,NA,incomplete,false,true,NA,3,14,NA,blue,m_l_059.jpg,NA,NA,unpleasant,pleasant,NA,NA,NA,NA,NA,left,1593,true,NA,NA,NA,NA,NA
UijXM997,3t2hw4qdvykwn81ckpslwayk1hg9co,3nkqq8o392i6zctn9ynp1wz81kcud3,UijXM997,2020-0188,2021-10-14,10:42:14,11:45:55,NA,incomplete,false,true,NA,3,15,NA,blue,n_s_069.jpg,NA,NA,pleasant,unpleasant,NA,NA,NA,NA,NA,left,1143.09999990463,true,NA,NA,NA,NA,NA
UijXM997,3t2hw4qdvykwn81ckpslwayk1hg9co,3nkqq8o392i6zctn9ynp1wz81kcud3,UijXM997,2020-0188,2021-10-14,10:42:14,11:45:55,NA,incomplete,false,true,NA,3,16,NA,blue,n_s_114.jpg,NA,NA,unpleasant,pleasant,NA,NA,NA,NA,NA,left,1890.79999995232,true,NA,NA,NA,NA,NA
UijXM997,3t2hw4qdvykwn81ckpslwayk1hg9co,3nkqq8o392i6zctn9ynp1wz81kcud3,UijXM997,2020-0188,2021-10-14,10:42:14,11:45:55,NA,incomplete,false,true,NA,3,17,NA,blue,n_s_034.jpg,NA,NA,unpleasant,pleasant,NA,NA,NA,NA,NA,right,1124,true,NA,NA,NA,NA,NA
UijXM997,3t2hw4qdvykwn81ckpslwayk1hg9co,3nkqq8o392i6zctn9ynp1wz81kcud3,UijXM997,2020-0188,2021-10-14,10:42:14,11:45:55,NA,incomplete,false,true,NA,3,18,NA,orange,n_s_061.jpg,NA,NA,unpleasant,pleasant,NA,NA,NA,NA,NA,right,1704.09999990463,true,NA,NA,NA,NA,NA
UijXM997,3t2hw4qdvykwn81ckpslwayk1hg9co,3nkqq8o392i6zctn9ynp1wz81kcud3,UijXM997,2020-0188,2021-10-14,10:42:14,11:45:55,NA,incomplete,false,true,NA,3,19,NA,orange,m_s_078.jpg,NA,NA,unpleasant,pleasant,NA,NA,NA,NA,NA,right,1573.90000009537,true,NA,NA,NA,NA,NA
UijXM997,3t2hw4qdvykwn81ckpslwayk1hg9co,3nkqq8o392i6zctn9ynp1wz81kcud3,UijXM997,2020-0188,2021-10-14,10:42:14,11:45:55,NA,incomplete,false,true,NA,3,20,NA,orange,n_s_008.jpg,NA,NA,pleasant,unpleasant,NA,NA,NA,NA,NA,left,2643.90000009537,true,NA,NA,NA,NA,NA
UijXM997,3t2hw4qdvykwn81ckpslwayk1hg9co,3nkqq8o392i6zctn9ynp1wz81kcud3,UijXM997,2020-0188,2021-10-14,10:42:14,11:45:55,NA,incomplete,false,true,NA,3,21,NA,orange,n_l_117.jpg,NA,NA,unpleasant,pleasant,NA,NA,NA,NA,NA,right,2456.70000004768,true,NA,NA,NA,NA,NA
UijXM997,3t2hw4qdvykwn81ckpslwayk1hg9co,3nkqq8o392i6zctn9ynp1wz81kcud3,UijXM997,2020-0188,2021-10-14,10:42:14,11:45:55,NA,incomplete,false,true,NA,3,22,NA,orange,m_l_093.jpg,NA,NA,pleasant,unpleasant,NA,NA,NA,NA,NA,right,2380.20000004768,true,NA,NA,NA,NA,NA
UijXM997,3t2hw4qdvykwn81ckpslwayk1hg9co,3nkqq8o392i6zctn9ynp1wz81kcud3,UijXM997,2020-0188,2021-10-14,10:42:14,11:45:55,NA,incomplete,false,true,NA,3,23,NA,orange,m_l_052.jpg,NA,NA,unpleasant,pleasant,NA,NA,NA,NA,NA,left,2452.5,true,NA,NA,NA,NA,NA
UijXM997,3t2hw4qdvykwn81ckpslwayk1hg9co,3nkqq8o392i6zctn9ynp1wz81kcud3,UijXM997,2020-0188,2021-10-14,10:42:14,11:45:55,NA,incomplete,false,true,NA,3,24,NA,white,n_s_035.jpg,NA,NA,unpleasant,pleasant,NA,NA,NA,NA,NA,right,1637.90000009537,true,NA,NA,NA,NA,NA
UijXM997,3t2hw4qdvykwn81ckpslwayk1hg9co,3nkqq8o392i6zctn9ynp1wz81kcud3,UijXM997,2020-0188,2021-10-14,10:42:14,11:45:55,NA,incomplete,false,true,NA,3,25,NA,white,n_s_095.jpg,NA,NA,unpleasant,pleasant,NA,NA,NA,NA,NA,right,2302.09999990463,true,NA,NA,NA,NA,NA
UijXM997,3t2hw4qdvykwn81ckpslwayk1hg9co,3nkqq8o392i6zctn9ynp1wz81kcud3,UijXM997,2020-0188,2021-10-14,10:42:14,11:45:55,NA,incomplete,false,true,NA,3,26,NA,white,m_l_046.jpg,NA,NA,unpleasant,pleasant,NA,NA,NA,NA,NA,right,1967.20000004768,true,NA,NA,NA,NA,NA
UijXM997,3t2hw4qdvykwn81ckpslwayk1hg9co,3nkqq8o392i6zctn9ynp1wz81kcud3,UijXM997,2020-0188,2021-10-14,10:42:14,11:45:55,NA,incomplete,false,true,NA,3,27,NA,white,m_s_063.jpg,NA,NA,unpleasant,pleasant,NA,NA,NA,NA,NA,left,1801,true,NA,NA,NA,NA,NA
UijXM997,3t2hw4qdvykwn81ckpslwayk1hg9co,3nkqq8o392i6zctn9ynp1wz81kcud3,UijXM997,2020-0188,2021-10-14,10:42:14,11:45:55,NA,incomplete,false,true,NA,3,28,NA,white,m_l_073.jpg,NA,NA,unpleasant,pleasant,NA,NA,NA,NA,NA,right,1195.79999995232,true,NA,NA,NA,NA,NA
UijXM997,3t2hw4qdvykwn81ckpslwayk1hg9co,3nkqq8o392i6zctn9ynp1wz81kcud3,UijXM997,2020-0188,2021-10-14,10:42:14,11:45:55,NA,incomplete,false,true,NA,3,29,NA,white,m_s_012.jpg,NA,NA,unpleasant,pleasant,NA,NA,NA,NA,NA,left,1676.10000014305,true,NA,NA,NA,NA,NA
UijXM997,3t2hw4qdvykwn81ckpslwayk1hg9co,3nkqq8o392i6zctn9ynp1wz81kcud3,UijXM997,2020-0188,2021-10-14,10:42:14,11:45:55,NA,incomplete,false,true,NA,3,30,NA,yellow,n_l_082.jpg,NA,NA,pleasant,unpleasant,NA,NA,NA,NA,NA,left,2119.20000004768,true,NA,NA,NA,NA,NA
UijXM997,3t2hw4qdvykwn81ckpslwayk1hg9co,3nkqq8o392i6zctn9ynp1wz81kcud3,UijXM997,2020-0188,2021-10-14,10:42:14,11:45:55,NA,incomplete,false,true,NA,3,31,NA,yellow,m_l_006.jpg,NA,NA,pleasant,unpleasant,NA,NA,NA,NA,NA,left,2200.79999995232,true,NA,NA,NA,NA,NA
UijXM997,3t2hw4qdvykwn81ckpslwayk1hg9co,3nkqq8o392i6zctn9ynp1wz81kcud3,UijXM997,2020-0188,2021-10-14,10:42:14,11:45:55,NA,incomplete,false,true,NA,3,32,NA,yellow,n_s_082.jpg,NA,NA,unpleasant,pleasant,NA,NA,NA,NA,NA,right,1710,true,NA,NA,NA,NA,NA
UijXM997,3t2hw4qdvykwn81ckpslwayk1hg9co,3nkqq8o392i6zctn9ynp1wz81kcud3,UijXM997,2020-0188,2021-10-14,10:42:14,11:45:55,NA,incomplete,false,true,NA,3,33,NA,yellow,n_s_087.jpg,NA,NA,unpleasant,pleasant,NA,NA,NA,NA,NA,right,1037.70000004768,true,NA,NA,NA,NA,NA
UijXM997,3t2hw4qdvykwn81ckpslwayk1hg9co,3nkqq8o392i6zctn9ynp1wz81kcud3,UijXM997,2020-0188,2021-10-14,10:42:14,11:45:55,NA,incomplete,false,true,NA,3,34,NA,yellow,n_l_103.jpg,NA,NA,unpleasant,pleasant,NA,NA,NA,NA,NA,right,2533.20000004768,true,NA,NA,NA,NA,NA
UijXM997,3t2hw4qdvykwn81ckpslwayk1hg9co,3nkqq8o392i6zctn9ynp1wz81kcud3,UijXM997,2020-0188,2021-10-14,10:42:14,11:45:55,NA,incomplete,false,true,NA,3,35,NA,yellow,m_s_113.jpg,NA,NA,pleasant,unpleasant,NA,NA,NA,NA,NA,left,1758.60000014305,true,NA,NA,NA,NA,NA
UijXM997,3t2hw4qdvykwn81ckpslwayk1hg9co,3nkqq8o392i6zctn9ynp1wz81kcud3,UijXM997,2020-0188,2021-10-14,10:42:14,11:45:55,NA,incomplete,false,NA,true,3,0,NA,NA,NA,left,present,NA,NA,m_l_006.jpg,yellow,m_s_113.jpg,yellow,within,NA,NaN,NA,left,1937.1000001430511,1,0,2029.9000000953674
UijXM997,3t2hw4qdvykwn81ckpslwayk1hg9co,3nkqq8o392i6zctn9ynp1wz81kcud3,UijXM997,2020-0188,2021-10-14,10:42:14,11:45:55,NA,incomplete,false,NA,true,3,1,NA,NA,NA,right,present,NA,NA,m_l_052.jpg,orange,m_s_078.jpg,orange,within,NA,NaN,NA,right,3832.899999856949,1,0,1019.5
UijXM997,3t2hw4qdvykwn81ckpslwayk1hg9co,3nkqq8o392i6zctn9ynp1wz81kcud3,UijXM997,2020-0188,2021-10-14,10:42:14,11:45:55,NA,incomplete,false,NA,true,3,2,NA,NA,NA,left,present,NA,NA,m_l_080.jpg,purple,n_l_102.jpg,purple,within,NA,NaN,NA,left,2259.5999999046326,1,0,1411.5
UijXM997,3t2hw4qdvykwn81ckpslwayk1hg9co,3nkqq8o392i6zctn9ynp1wz81kcud3,UijXM997,2020-0188,2021-10-14,10:42:14,11:45:55,NA,incomplete,false,NA,true,3,3,NA,NA,NA,right,present,NA,NA,m_s_012.jpg,white,n_s_095.jpg,white,within,NA,NaN,NA,right,2463.0999999046326,1,0,1416.5999999046326
UijXM997,3t2hw4qdvykwn81ckpslwayk1hg9co,3nkqq8o392i6zctn9ynp1wz81kcud3,UijXM997,2020-0188,2021-10-14,10:42:14,11:45:55,NA,incomplete,false,NA,true,3,4,NA,NA,NA,right,present,NA,NA,n_s_008.jpg,orange,n_s_114.jpg,blue,between,NA,NaN,NA,right,5594.799999952316,1,2,1486.0999999046326
UijXM997,3t2hw4qdvykwn81ckpslwayk1hg9co,3nkqq8o392i6zctn9ynp1wz81kcud3,UijXM997,2020-0188,2021-10-14,10:42:14,11:45:55,NA,incomplete,false,NA,true,3,5,NA,NA,NA,right,present,NA,NA,m_l_059.jpg,blue,m_s_088.jpg,purple,between,NA,NaN,NA,right,2717,1,2,1360.0999999046326
UijXM997,3t2hw4qdvykwn81ckpslwayk1hg9co,3nkqq8o392i6zctn9ynp1wz81kcud3,UijXM997,2020-0188,2021-10-14,10:42:14,11:45:55,NA,incomplete,false,NA,true,3,6,NA,NA,NA,left,present,NA,NA,m_l_073.jpg,white,n_s_082.jpg,yellow,between,NA,NaN,NA,left,3371.100000143051,1,1,1874
UijXM997,3t2hw4qdvykwn81ckpslwayk1hg9co,3nkqq8o392i6zctn9ynp1wz81kcud3,UijXM997,2020-0188,2021-10-14,10:42:14,11:45:55,NA,incomplete,false,NA,true,3,7,NA,NA,NA,left,present,NA,NA,n_s_004.jpg,blue,n_s_034.jpg,blue,within,NA,NaN,NA,left,3388.5,1,0,1119.9000000953674
UijXM997,3t2hw4qdvykwn81ckpslwayk1hg9co,3nkqq8o392i6zctn9ynp1wz81kcud3,UijXM997,2020-0188,2021-10-14,10:42:14,11:45:55,NA,incomplete,false,NA,true,3,8,NA,NA,NA,right,present,NA,NA,m_s_085.jpg,red,n_l_028.jpg,red,within,NA,NaN,NA,right,5259.599999904633,1,0,873.2999999523163
UijXM997,3t2hw4qdvykwn81ckpslwayk1hg9co,3nkqq8o392i6zctn9ynp1wz81kcud3,UijXM997,2020-0188,2021-10-14,10:42:14,11:45:55,NA,incomplete,false,NA,true,3,9,NA,NA,NA,right,present,NA,NA,n_s_102.jpg,purple,m_l_104.jpg,red,between,NA,NaN,NA,right,2152,1,2,1993.9000000953674
UijXM997,3t2hw4qdvykwn81ckpslwayk1hg9co,3nkqq8o392i6zctn9ynp1wz81kcud3,UijXM997,2020-0188,2021-10-14,10:42:14,11:45:55,NA,incomplete,false,NA,true,3,10,NA,NA,NA,right,present,NA,NA,m_l_046.jpg,white,m_l_093.jpg,orange,between,NA,NaN,NA,left,2908.899999856949,0,1,1566.8999998569489
UijXM997,3t2hw4qdvykwn81ckpslwayk1hg9co,3nkqq8o392i6zctn9ynp1wz81kcud3,UijXM997,2020-0188,2021-10-14,10:42:14,11:45:55,NA,incomplete,false,true,NA,4,0,NA,yellow,n_s_070.jpg,NA,NA,unpleasant,pleasant,NA,NA,NA,NA,NA,right,1880.79999995232,true,NA,NA,NA,NA,NA
UijXM997,3t2hw4qdvykwn81ckpslwayk1hg9co,3nkqq8o392i6zctn9ynp1wz81kcud3,UijXM997,2020-0188,2021-10-14,10:42:14,11:45:55,NA,incomplete,false,true,NA,4,1,NA,yellow,m_s_068.jpg,NA,NA,pleasant,unpleasant,NA,NA,NA,NA,NA,left,2083.90000009537,true,NA,NA,NA,NA,NA
UijXM997,3t2hw4qdvykwn81ckpslwayk1hg9co,3nkqq8o392i6zctn9ynp1wz81kcud3,UijXM997,2020-0188,2021-10-14,10:42:14,11:45:55,NA,incomplete,false,true,NA,4,2,NA,yellow,n_l_007.jpg,NA,NA,pleasant,unpleasant,NA,NA,NA,NA,NA,left,1453.09999990463,true,NA,NA,NA,NA,NA
UijXM997,3t2hw4qdvykwn81ckpslwayk1hg9co,3nkqq8o392i6zctn9ynp1wz81kcud3,UijXM997,2020-0188,2021-10-14,10:42:14,11:45:55,NA,incomplete,false,true,NA,4,3,NA,yellow,m_s_117.jpg,NA,NA,unpleasant,pleasant,NA,NA,NA,NA,NA,right,2277.10000014305,true,NA,NA,NA,NA,NA
UijXM997,3t2hw4qdvykwn81ckpslwayk1hg9co,3nkqq8o392i6zctn9ynp1wz81kcud3,UijXM997,2020-0188,2021-10-14,10:42:14,11:45:55,NA,incomplete,false,true,NA,4,4,NA,yellow,n_l_027.jpg,NA,NA,unpleasant,pleasant,NA,NA,NA,NA,NA,right,904.899999856949,true,NA,NA,NA,NA,NA
UijXM997,3t2hw4qdvykwn81ckpslwayk1hg9co,3nkqq8o392i6zctn9ynp1wz81kcud3,UijXM997,2020-0188,2021-10-14,10:42:14,11:45:55,NA,incomplete,false,true,NA,4,5,NA,yellow,m_l_011.jpg,NA,NA,pleasant,unpleasant,NA,NA,NA,NA,NA,right,2138.90000009537,true,NA,NA,NA,NA,NA
UijXM997,3t2hw4qdvykwn81ckpslwayk1hg9co,3nkqq8o392i6zctn9ynp1wz81kcud3,UijXM997,2020-0188,2021-10-14,10:42:14,11:45:55,NA,incomplete,false,true,NA,4,6,NA,red,n_s_090.jpg,NA,NA,unpleasant,pleasant,NA,NA,NA,NA,NA,right,2835.79999995232,true,NA,NA,NA,NA,NA
UijXM997,3t2hw4qdvykwn81ckpslwayk1hg9co,3nkqq8o392i6zctn9ynp1wz81kcud3,UijXM997,2020-0188,2021-10-14,10:42:14,11:45:55,NA,incomplete,false,true,NA,4,7,NA,red,m_s_005.jpg,NA,NA,pleasant,unpleasant,NA,NA,NA,NA,NA,left,2145.30000019073,true,NA,NA,NA,NA,NA
UijXM997,3t2hw4qdvykwn81ckpslwayk1hg9co,3nkqq8o392i6zctn9ynp1wz81kcud3,UijXM997,2020-0188,2021-10-14,10:42:14,11:45:55,NA,incomplete,false,true,NA,4,8,NA,red,m_l_105.jpg,NA,NA,unpleasant,pleasant,NA,NA,NA,NA,NA,right,1639.10000014305,true,NA,NA,NA,NA,NA
UijXM997,3t2hw4qdvykwn81ckpslwayk1hg9co,3nkqq8o392i6zctn9ynp1wz81kcud3,UijXM997,2020-0188,2021-10-14,10:42:14,11:45:55,NA,incomplete,false,true,NA,4,9,NA,red,m_l_112.jpg,NA,NA,pleasant,unpleasant,NA,NA,NA,NA,NA,left,1293,true,NA,NA,NA,NA,NA
UijXM997,3t2hw4qdvykwn81ckpslwayk1hg9co,3nkqq8o392i6zctn9ynp1wz81kcud3,UijXM997,2020-0188,2021-10-14,10:42:14,11:45:55,NA,incomplete,false,true,NA,4,10,NA,red,m_l_022.jpg,NA,NA,unpleasant,pleasant,NA,NA,NA,NA,NA,right,1032.89999985695,true,NA,NA,NA,NA,NA
UijXM997,3t2hw4qdvykwn81ckpslwayk1hg9co,3nkqq8o392i6zctn9ynp1wz81kcud3,UijXM997,2020-0188,2021-10-14,10:42:14,11:45:55,NA,incomplete,false,true,NA,4,11,NA,red,m_s_015.jpg,NA,NA,unpleasant,pleasant,NA,NA,NA,NA,NA,right,1608.39999985695,true,NA,NA,NA,NA,NA
UijXM997,3t2hw4qdvykwn81ckpslwayk1hg9co,3nkqq8o392i6zctn9ynp1wz81kcud3,UijXM997,2020-0188,2021-10-14,10:42:14,11:45:55,NA,incomplete,false,true,NA,4,12,NA,brown,n_l_044.jpg,NA,NA,unpleasant,pleasant,NA,NA,NA,NA,NA,right,2111.40000009537,true,NA,NA,NA,NA,NA
UijXM997,3t2hw4qdvykwn81ckpslwayk1hg9co,3nkqq8o392i6zctn9ynp1wz81kcud3,UijXM997,2020-0188,2021-10-14,10:42:14,11:45:55,NA,incomplete,false,true,NA,4,13,NA,brown,m_l_102.jpg,NA,NA,unpleasant,pleasant,NA,NA,NA,NA,NA,right,1365.10000014305,true,NA,NA,NA,NA,NA
UijXM997,3t2hw4qdvykwn81ckpslwayk1hg9co,3nkqq8o392i6zctn9ynp1wz81kcud3,UijXM997,2020-0188,2021-10-14,10:42:14,11:45:55,NA,incomplete,false,true,NA,4,14,NA,brown,n_s_045.jpg,NA,NA,pleasant,unpleasant,NA,NA,NA,NA,NA,left,1360.90000009537,true,NA,NA,NA,NA,NA
UijXM997,3t2hw4qdvykwn81ckpslwayk1hg9co,3nkqq8o392i6zctn9ynp1wz81kcud3,UijXM997,2020-0188,2021-10-14,10:42:14,11:45:55,NA,incomplete,false,true,NA,4,15,NA,brown,m_s_061.jpg,NA,NA,pleasant,unpleasant,NA,NA,NA,NA,NA,left,1386.39999985695,true,NA,NA,NA,NA,NA
UijXM997,3t2hw4qdvykwn81ckpslwayk1hg9co,3nkqq8o392i6zctn9ynp1wz81kcud3,UijXM997,2020-0188,2021-10-14,10:42:14,11:45:55,NA,incomplete,false,true,NA,4,16,NA,brown,n_s_078.jpg,NA,NA,pleasant,unpleasant,NA,NA,NA,NA,NA,right,1286.29999995232,true,NA,NA,NA,NA,NA
UijXM997,3t2hw4qdvykwn81ckpslwayk1hg9co,3nkqq8o392i6zctn9ynp1wz81kcud3,UijXM997,2020-0188,2021-10-14,10:42:14,11:45:55,NA,incomplete,false,true,NA,4,17,NA,brown,m_s_096.jpg,NA,NA,unpleasant,pleasant,NA,NA,NA,NA,NA,left,1196.29999995232,true,NA,NA,NA,NA,NA
UijXM997,3t2hw4qdvykwn81ckpslwayk1hg9co,3nkqq8o392i6zctn9ynp1wz81kcud3,UijXM997,2020-0188,2021-10-14,10:42:14,11:45:55,NA,incomplete,false,true,NA,4,18,NA,purple,m_s_047.jpg,NA,NA,unpleasant,pleasant,NA,NA,NA,NA,NA,right,1785.10000014305,true,NA,NA,NA,NA,NA
UijXM997,3t2hw4qdvykwn81ckpslwayk1hg9co,3nkqq8o392i6zctn9ynp1wz81kcud3,UijXM997,2020-0188,2021-10-14,10:42:14,11:45:55,NA,incomplete,false,true,NA,4,19,NA,purple,m_s_097.jpg,NA,NA,pleasant,unpleasant,NA,NA,NA,NA,NA,right,2116.89999985695,true,NA,NA,NA,NA,NA
UijXM997,3t2hw4qdvykwn81ckpslwayk1hg9co,3nkqq8o392i6zctn9ynp1wz81kcud3,UijXM997,2020-0188,2021-10-14,10:42:14,11:45:55,NA,incomplete,false,true,NA,4,20,NA,purple,m_s_030.jpg,NA,NA,unpleasant,pleasant,NA,NA,NA,NA,NA,left,1127.09999990463,true,NA,NA,NA,NA,NA
UijXM997,3t2hw4qdvykwn81ckpslwayk1hg9co,3nkqq8o392i6zctn9ynp1wz81kcud3,UijXM997,2020-0188,2021-10-14,10:42:14,11:45:55,NA,incomplete,false,true,NA,4,21,NA,purple,m_l_026.jpg,NA,NA,pleasant,unpleasant,NA,NA,NA,NA,NA,left,1207.30000019073,true,NA,NA,NA,NA,NA
UijXM997,3t2hw4qdvykwn81ckpslwayk1hg9co,3nkqq8o392i6zctn9ynp1wz81kcud3,UijXM997,2020-0188,2021-10-14,10:42:14,11:45:55,NA,incomplete,false,true,NA,4,22,NA,purple,m_l_050.jpg,NA,NA,pleasant,unpleasant,NA,NA,NA,NA,NA,left,2122.89999985695,true,NA,NA,NA,NA,NA
UijXM997,3t2hw4qdvykwn81ckpslwayk1hg9co,3nkqq8o392i6zctn9ynp1wz81kcud3,UijXM997,2020-0188,2021-10-14,10:42:14,11:45:55,NA,incomplete,false,true,NA,4,23,NA,purple,m_s_019.jpg,NA,NA,unpleasant,pleasant,NA,NA,NA,NA,NA,right,1335.90000009537,true,NA,NA,NA,NA,NA
UijXM997,3t2hw4qdvykwn81ckpslwayk1hg9co,3nkqq8o392i6zctn9ynp1wz81kcud3,UijXM997,2020-0188,2021-10-14,10:42:14,11:45:55,NA,incomplete,false,true,NA,4,24,NA,blue,m_l_030.jpg,NA,NA,unpleasant,pleasant,NA,NA,NA,NA,NA,left,2668,true,NA,NA,NA,NA,NA
UijXM997,3t2hw4qdvykwn81ckpslwayk1hg9co,3nkqq8o392i6zctn9ynp1wz81kcud3,UijXM997,2020-0188,2021-10-14,10:42:14,11:45:55,NA,incomplete,false,true,NA,4,25,NA,blue,n_s_039.jpg,NA,NA,unpleasant,pleasant,NA,NA,NA,NA,NA,right,2327.19999980927,true,NA,NA,NA,NA,NA
UijXM997,3t2hw4qdvykwn81ckpslwayk1hg9co,3nkqq8o392i6zctn9ynp1wz81kcud3,UijXM997,2020-0188,2021-10-14,10:42:14,11:45:55,NA,incomplete,false,true,NA,4,26,NA,blue,m_l_060.jpg,NA,NA,pleasant,unpleasant,NA,NA,NA,NA,NA,left,2486.19999980927,true,NA,NA,NA,NA,NA
UijXM997,3t2hw4qdvykwn81ckpslwayk1hg9co,3nkqq8o392i6zctn9ynp1wz81kcud3,UijXM997,2020-0188,2021-10-14,10:42:14,11:45:55,NA,incomplete,false,true,NA,4,27,NA,blue,n_l_060.jpg,NA,NA,pleasant,unpleasant,NA,NA,NA,NA,NA,left,2460.40000009537,true,NA,NA,NA,NA,NA
UijXM997,3t2hw4qdvykwn81ckpslwayk1hg9co,3nkqq8o392i6zctn9ynp1wz81kcud3,UijXM997,2020-0188,2021-10-14,10:42:14,11:45:55,NA,incomplete,false,true,NA,4,28,NA,blue,n_s_115.jpg,NA,NA,unpleasant,pleasant,NA,NA,NA,NA,NA,right,2146,true,NA,NA,NA,NA,NA
UijXM997,3t2hw4qdvykwn81ckpslwayk1hg9co,3nkqq8o392i6zctn9ynp1wz81kcud3,UijXM997,2020-0188,2021-10-14,10:42:14,11:45:55,NA,incomplete,false,true,NA,4,29,NA,blue,m_s_040.jpg,NA,NA,pleasant,unpleasant,NA,NA,NA,NA,NA,left,1993.29999995232,true,NA,NA,NA,NA,NA
UijXM997,3t2hw4qdvykwn81ckpslwayk1hg9co,3nkqq8o392i6zctn9ynp1wz81kcud3,UijXM997,2020-0188,2021-10-14,10:42:14,11:45:55,NA,incomplete,false,true,NA,4,30,NA,black,m_l_047.jpg,NA,NA,unpleasant,pleasant,NA,NA,NA,NA,NA,right,1823.30000019073,true,NA,NA,NA,NA,NA
UijXM997,3t2hw4qdvykwn81ckpslwayk1hg9co,3nkqq8o392i6zctn9ynp1wz81kcud3,UijXM997,2020-0188,2021-10-14,10:42:14,11:45:55,NA,incomplete,false,true,NA,4,31,NA,black,m_l_008.jpg,NA,NA,pleasant,unpleasant,NA,NA,NA,NA,NA,left,1470.39999985695,true,NA,NA,NA,NA,NA
UijXM997,3t2hw4qdvykwn81ckpslwayk1hg9co,3nkqq8o392i6zctn9ynp1wz81kcud3,UijXM997,2020-0188,2021-10-14,10:42:14,11:45:55,NA,incomplete,false,true,NA,4,32,NA,black,m_l_116.jpg,NA,NA,pleasant,unpleasant,NA,NA,NA,NA,NA,right,1624.5,true,NA,NA,NA,NA,NA
UijXM997,3t2hw4qdvykwn81ckpslwayk1hg9co,3nkqq8o392i6zctn9ynp1wz81kcud3,UijXM997,2020-0188,2021-10-14,10:42:14,11:45:55,NA,incomplete,false,true,NA,4,33,NA,black,m_l_074.jpg,NA,NA,pleasant,unpleasant,NA,NA,NA,NA,NA,left,2763.69999980927,true,NA,NA,NA,NA,NA
UijXM997,3t2hw4qdvykwn81ckpslwayk1hg9co,3nkqq8o392i6zctn9ynp1wz81kcud3,UijXM997,2020-0188,2021-10-14,10:42:14,11:45:55,NA,incomplete,false,true,NA,4,34,NA,black,m_l_078.jpg,NA,NA,unpleasant,pleasant,NA,NA,NA,NA,NA,right,1634.5,true,NA,NA,NA,NA,NA
UijXM997,3t2hw4qdvykwn81ckpslwayk1hg9co,3nkqq8o392i6zctn9ynp1wz81kcud3,UijXM997,2020-0188,2021-10-14,10:42:14,11:45:55,NA,incomplete,false,true,NA,4,35,NA,black,n_l_061.jpg,NA,NA,unpleasant,pleasant,NA,NA,NA,NA,NA,right,1297,true,NA,NA,NA,NA,NA
UijXM997,3t2hw4qdvykwn81ckpslwayk1hg9co,3nkqq8o392i6zctn9ynp1wz81kcud3,UijXM997,2020-0188,2021-10-14,10:42:14,11:45:55,NA,incomplete,false,NA,true,4,0,NA,NA,NA,left,absent,NA,NA,m_s_005.jpg,red,m_s_015.jpg,red,within,NA,NaN,NA,left,8088,1,0,1740.7999999523163
UijXM997,3t2hw4qdvykwn81ckpslwayk1hg9co,3nkqq8o392i6zctn9ynp1wz81kcud3,UijXM997,2020-0188,2021-10-14,10:42:14,11:45:55,NA,incomplete,false,NA,true,4,1,NA,NA,NA,right,absent,NA,NA,n_s_045.jpg,brown,m_l_022.jpg,red,between,NA,NaN,NA,right,2314.2000000476837,1,1,1793.9000000953674
UijXM997,3t2hw4qdvykwn81ckpslwayk1hg9co,3nkqq8o392i6zctn9ynp1wz81kcud3,UijXM997,2020-0188,2021-10-14,10:42:14,11:45:55,NA,incomplete,false,NA,true,4,2,NA,NA,NA,left,absent,NA,NA,n_s_115.jpg,blue,m_l_116.jpg,black,between,NA,NaN,NA,left,7493.100000143051,1,1,2615.5999999046326
UijXM997,3t2hw4qdvykwn81ckpslwayk1hg9co,3nkqq8o392i6zctn9ynp1wz81kcud3,UijXM997,2020-0188,2021-10-14,10:42:14,11:45:55,NA,incomplete,false,NA,true,4,3,NA,NA,NA,left,absent,NA,NA,m_l_008.jpg,black,n_l_061.jpg,black,within,NA,NaN,NA,left,2321.7000000476837,1,3,2065.399999856949
UijXM997,3t2hw4qdvykwn81ckpslwayk1hg9co,3nkqq8o392i6zctn9ynp1wz81kcud3,UijXM997,2020-0188,2021-10-14,10:42:14,11:45:55,NA,incomplete,false,NA,true,4,4,NA,NA,NA,left,absent,NA,NA,n_s_039.jpg,blue,m_s_040.jpg,blue,within,NA,NaN,NA,left,2860.7999999523163,1,2,2183.9000000953674
UijXM997,3t2hw4qdvykwn81ckpslwayk1hg9co,3nkqq8o392i6zctn9ynp1wz81kcud3,UijXM997,2020-0188,2021-10-14,10:42:14,11:45:55,NA,incomplete,false,NA,true,4,5,NA,NA,NA,left,absent,NA,NA,m_s_068.jpg,yellow,m_l_011.jpg,yellow,within,NA,NaN,NA,left,1422.7999999523163,1,1,1065.4000000953674
UijXM997,3t2hw4qdvykwn81ckpslwayk1hg9co,3nkqq8o392i6zctn9ynp1wz81kcud3,UijXM997,2020-0188,2021-10-14,10:42:14,11:45:55,NA,incomplete,false,NA,true,4,6,NA,NA,NA,left,absent,NA,NA,n_l_027.jpg,yellow,m_l_105.jpg,red,between,NA,NaN,NA,right,2602.0999999046326,0,3,1360.8999998569489
UijXM997,3t2hw4qdvykwn81ckpslwayk1hg9co,3nkqq8o392i6zctn9ynp1wz81kcud3,UijXM997,2020-0188,2021-10-14,10:42:14,11:45:55,NA,incomplete,false,NA,true,4,7,NA,NA,NA,right,absent,NA,NA,m_s_030.jpg,purple,n_s_078.jpg,brown,between,NA,NaN,NA,left,2795,0,0,1287.8999998569489
UijXM997,3t2hw4qdvykwn81ckpslwayk1hg9co,3nkqq8o392i6zctn9ynp1wz81kcud3,UijXM997,2020-0188,2021-10-14,10:42:14,11:45:55,NA,incomplete,false,NA,true,4,8,NA,NA,NA,right,absent,NA,NA,m_s_096.jpg,brown,m_l_102.jpg,brown,within,NA,NaN,NA,right,3219.2999999523163,1,1,1641.0999999046326
UijXM997,3t2hw4qdvykwn81ckpslwayk1hg9co,3nkqq8o392i6zctn9ynp1wz81kcud3,UijXM997,2020-0188,2021-10-14,10:42:14,11:45:55,NA,incomplete,false,NA,true,4,9,NA,NA,NA,left,absent,NA,NA,m_s_097.jpg,purple,m_s_019.jpg,purple,within,NA,NaN,NA,left,1650.2999999523163,1,1,1733.2000000476837
UijXM997,3t2hw4qdvykwn81ckpslwayk1hg9co,3nkqq8o392i6zctn9ynp1wz81kcud3,UijXM997,2020-0188,2021-10-14,10:42:14,11:45:55,NA,incomplete,false,NA,true,4,10,NA,NA,NA,left,absent,NA,NA,m_l_050.jpg,purple,m_l_060.jpg,blue,between,NA,NaN,NA,left,2055.5999999046326,1,3,1299.5
UijXM997,3t2hw4qdvykwn81ckpslwayk1hg9co,3nkqq8o392i6zctn9ynp1wz81kcud3,UijXM997,2020-0188,2021-10-14,10:42:14,11:45:55,NA,incomplete,false,true,NA,5,0,NA,red,n_l_069.jpg,NA,NA,unpleasant,pleasant,NA,NA,NA,NA,NA,right,2219.69999980927,true,NA,NA,NA,NA,NA
UijXM997,3t2hw4qdvykwn81ckpslwayk1hg9co,3nkqq8o392i6zctn9ynp1wz81kcud3,UijXM997,2020-0188,2021-10-14,10:42:14,11:45:55,NA,incomplete,false,true,NA,5,1,NA,red,m_s_069.jpg,NA,NA,pleasant,unpleasant,NA,NA,NA,NA,NA,left,3156,true,NA,NA,NA,NA,NA
UijXM997,3t2hw4qdvykwn81ckpslwayk1hg9co,3nkqq8o392i6zctn9ynp1wz81kcud3,UijXM997,2020-0188,2021-10-14,10:42:14,11:45:55,NA,incomplete,false,true,NA,5,2,NA,red,m_l_061.jpg,NA,NA,pleasant,unpleasant,NA,NA,NA,NA,NA,left,2816.20000004768,true,NA,NA,NA,NA,NA
UijXM997,3t2hw4qdvykwn81ckpslwayk1hg9co,3nkqq8o392i6zctn9ynp1wz81kcud3,UijXM997,2020-0188,2021-10-14,10:42:14,11:45:55,NA,incomplete,false,true,NA,5,3,NA,red,n_s_016.jpg,NA,NA,unpleasant,pleasant,NA,NA,NA,NA,NA,right,1629,true,NA,NA,NA,NA,NA
UijXM997,3t2hw4qdvykwn81ckpslwayk1hg9co,3nkqq8o392i6zctn9ynp1wz81kcud3,UijXM997,2020-0188,2021-10-14,10:42:14,11:45:55,NA,incomplete,false,true,NA,5,4,NA,red,n_l_112.jpg,NA,NA,unpleasant,pleasant,NA,NA,NA,NA,NA,left,2127,true,NA,NA,NA,NA,NA
UijXM997,3t2hw4qdvykwn81ckpslwayk1hg9co,3nkqq8o392i6zctn9ynp1wz81kcud3,UijXM997,2020-0188,2021-10-14,10:42:14,11:45:55,NA,incomplete,false,true,NA,5,5,NA,red,m_s_028.jpg,NA,NA,pleasant,unpleasant,NA,NA,NA,NA,NA,left,1735.5,true,NA,NA,NA,NA,NA
UijXM997,3t2hw4qdvykwn81ckpslwayk1hg9co,3nkqq8o392i6zctn9ynp1wz81kcud3,UijXM997,2020-0188,2021-10-14,10:42:14,11:45:55,NA,incomplete,false,true,NA,5,6,NA,green,m_l_035.jpg,NA,NA,pleasant,unpleasant,NA,NA,NA,NA,NA,left,2785.5,true,NA,NA,NA,NA,NA
UijXM997,3t2hw4qdvykwn81ckpslwayk1hg9co,3nkqq8o392i6zctn9ynp1wz81kcud3,UijXM997,2020-0188,2021-10-14,10:42:14,11:45:55,NA,incomplete,false,true,NA,5,7,NA,green,m_l_036.jpg,NA,NA,pleasant,unpleasant,NA,NA,NA,NA,NA,right,2366.89999985695,true,NA,NA,NA,NA,NA
UijXM997,3t2hw4qdvykwn81ckpslwayk1hg9co,3nkqq8o392i6zctn9ynp1wz81kcud3,UijXM997,2020-0188,2021-10-14,10:42:14,11:45:55,NA,incomplete,false,true,NA,5,8,NA,green,m_s_044.jpg,NA,NA,unpleasant,pleasant,NA,NA,NA,NA,NA,right,2622.29999995232,true,NA,NA,NA,NA,NA
UijXM997,3t2hw4qdvykwn81ckpslwayk1hg9co,3nkqq8o392i6zctn9ynp1wz81kcud3,UijXM997,2020-0188,2021-10-14,10:42:14,11:45:55,NA,incomplete,false,true,NA,5,9,NA,green,m_l_024.jpg,NA,NA,pleasant,unpleasant,NA,NA,NA,NA,NA,left,1240.79999995232,true,NA,NA,NA,NA,NA
UijXM997,3t2hw4qdvykwn81ckpslwayk1hg9co,3nkqq8o392i6zctn9ynp1wz81kcud3,UijXM997,2020-0188,2021-10-14,10:42:14,11:45:55,NA,incomplete,false,true,NA,5,10,NA,green,m_s_112.jpg,NA,NA,unpleasant,pleasant,NA,NA,NA,NA,NA,left,1184.5,true,NA,NA,NA,NA,NA
UijXM997,3t2hw4qdvykwn81ckpslwayk1hg9co,3nkqq8o392i6zctn9ynp1wz81kcud3,UijXM997,2020-0188,2021-10-14,10:42:14,11:45:55,NA,incomplete,false,true,NA,5,11,NA,green,n_s_021.jpg,NA,NA,pleasant,unpleasant,NA,NA,NA,NA,NA,right,1164,true,NA,NA,NA,NA,NA
UijXM997,3t2hw4qdvykwn81ckpslwayk1hg9co,3nkqq8o392i6zctn9ynp1wz81kcud3,UijXM997,2020-0188,2021-10-14,10:42:14,11:45:55,NA,incomplete,false,true,NA,5,12,NA,purple,m_l_017.jpg,NA,NA,pleasant,unpleasant,NA,NA,NA,NA,NA,left,2218.60000014305,true,NA,NA,NA,NA,NA
UijXM997,3t2hw4qdvykwn81ckpslwayk1hg9co,3nkqq8o392i6zctn9ynp1wz81kcud3,UijXM997,2020-0188,2021-10-14,10:42:14,11:45:55,NA,incomplete,false,true,NA,5,13,NA,purple,m_l_003.jpg,NA,NA,pleasant,unpleasant,NA,NA,NA,NA,NA,left,1332.89999985695,true,NA,NA,NA,NA,NA
UijXM997,3t2hw4qdvykwn81ckpslwayk1hg9co,3nkqq8o392i6zctn9ynp1wz81kcud3,UijXM997,2020-0188,2021-10-14,10:42:14,11:45:55,NA,incomplete,false,true,NA,5,14,NA,purple,m_s_011.jpg,NA,NA,unpleasant,pleasant,NA,NA,NA,NA,NA,right,2070.60000014305,true,NA,NA,NA,NA,NA
UijXM997,3t2hw4qdvykwn81ckpslwayk1hg9co,3nkqq8o392i6zctn9ynp1wz81kcud3,UijXM997,2020-0188,2021-10-14,10:42:14,11:45:55,NA,incomplete,false,true,NA,5,15,NA,purple,n_s_106.jpg,NA,NA,pleasant,unpleasant,NA,NA,NA,NA,NA,right,3048.30000019073,true,NA,NA,NA,NA,NA
UijXM997,3t2hw4qdvykwn81ckpslwayk1hg9co,3nkqq8o392i6zctn9ynp1wz81kcud3,UijXM997,2020-0188,2021-10-14,10:42:14,11:45:55,NA,incomplete,false,true,NA,5,16,NA,purple,m_s_101.jpg,NA,NA,pleasant,unpleasant,NA,NA,NA,NA,NA,left,2973.20000004768,true,NA,NA,NA,NA,NA
UijXM997,3t2hw4qdvykwn81ckpslwayk1hg9co,3nkqq8o392i6zctn9ynp1wz81kcud3,UijXM997,2020-0188,2021-10-14,10:42:14,11:45:55,NA,incomplete,false,true,NA,5,17,NA,purple,n_l_072.jpg,NA,NA,pleasant,unpleasant,NA,NA,NA,NA,NA,right,1715.5,true,NA,NA,NA,NA,NA
UijXM997,3t2hw4qdvykwn81ckpslwayk1hg9co,3nkqq8o392i6zctn9ynp1wz81kcud3,UijXM997,2020-0188,2021-10-14,10:42:14,11:45:55,NA,incomplete,false,true,NA,5,18,NA,yellow,n_s_019.jpg,NA,NA,pleasant,unpleasant,NA,NA,NA,NA,NA,left,2131.40000009537,true,NA,NA,NA,NA,NA
UijXM997,3t2hw4qdvykwn81ckpslwayk1hg9co,3nkqq8o392i6zctn9ynp1wz81kcud3,UijXM997,2020-0188,2021-10-14,10:42:14,11:45:55,NA,incomplete,false,true,NA,5,19,NA,yellow,n_s_038.jpg,NA,NA,pleasant,unpleasant,NA,NA,NA,NA,NA,left,2631.5,true,NA,NA,NA,NA,NA
UijXM997,3t2hw4qdvykwn81ckpslwayk1hg9co,3nkqq8o392i6zctn9ynp1wz81kcud3,UijXM997,2020-0188,2021-10-14,10:42:14,11:45:55,NA,incomplete,false,true,NA,5,20,NA,yellow,n_l_059.jpg,NA,NA,pleasant,unpleasant,NA,NA,NA,NA,NA,right,1625.29999995232,true,NA,NA,NA,NA,NA
UijXM997,3t2hw4qdvykwn81ckpslwayk1hg9co,3nkqq8o392i6zctn9ynp1wz81kcud3,UijXM997,2020-0188,2021-10-14,10:42:14,11:45:55,NA,incomplete,false,true,NA,5,21,NA,yellow,m_l_099.jpg,NA,NA,unpleasant,pleasant,NA,NA,NA,NA,NA,right,1885.59999990463,true,NA,NA,NA,NA,NA
UijXM997,3t2hw4qdvykwn81ckpslwayk1hg9co,3nkqq8o392i6zctn9ynp1wz81kcud3,UijXM997,2020-0188,2021-10-14,10:42:14,11:45:55,NA,incomplete,false,true,NA,5,22,NA,yellow,m_s_038.jpg,NA,NA,pleasant,unpleasant,NA,NA,NA,NA,NA,left,2053.10000014305,true,NA,NA,NA,NA,NA
UijXM997,3t2hw4qdvykwn81ckpslwayk1hg9co,3nkqq8o392i6zctn9ynp1wz81kcud3,UijXM997,2020-0188,2021-10-14,10:42:14,11:45:55,NA,incomplete,false,true,NA,5,23,NA,yellow,m_l_018.jpg,NA,NA,unpleasant,pleasant,NA,NA,NA,NA,NA,right,1856.5,true,NA,NA,NA,NA,NA
UijXM997,3t2hw4qdvykwn81ckpslwayk1hg9co,3nkqq8o392i6zctn9ynp1wz81kcud3,UijXM997,2020-0188,2021-10-14,10:42:14,11:45:55,NA,incomplete,false,true,NA,5,24,NA,brown,m_l_117.jpg,NA,NA,unpleasant,pleasant,NA,NA,NA,NA,NA,right,1802.59999990463,true,NA,NA,NA,NA,NA
UijXM997,3t2hw4qdvykwn81ckpslwayk1hg9co,3nkqq8o392i6zctn9ynp1wz81kcud3,UijXM997,2020-0188,2021-10-14,10:42:14,11:45:55,NA,incomplete,false,true,NA,5,25,NA,brown,n_l_063.jpg,NA,NA,unpleasant,pleasant,NA,NA,NA,NA,NA,right,2996.70000004768,true,NA,NA,NA,NA,NA
UijXM997,3t2hw4qdvykwn81ckpslwayk1hg9co,3nkqq8o392i6zctn9ynp1wz81kcud3,UijXM997,2020-0188,2021-10-14,10:42:14,11:45:55,NA,incomplete,false,true,NA,5,26,NA,brown,m_l_057.jpg,NA,NA,unpleasant,pleasant,NA,NA,NA,NA,NA,left,1932.60000014305,true,NA,NA,NA,NA,NA
UijXM997,3t2hw4qdvykwn81ckpslwayk1hg9co,3nkqq8o392i6zctn9ynp1wz81kcud3,UijXM997,2020-0188,2021-10-14,10:42:14,11:45:55,NA,incomplete,false,true,NA,5,27,NA,brown,n_s_046.jpg,NA,NA,pleasant,unpleasant,NA,NA,NA,NA,NA,right,1565.90000009537,true,NA,NA,NA,NA,NA
UijXM997,3t2hw4qdvykwn81ckpslwayk1hg9co,3nkqq8o392i6zctn9ynp1wz81kcud3,UijXM997,2020-0188,2021-10-14,10:42:14,11:45:55,NA,incomplete,false,true,NA,5,28,NA,brown,n_l_038.jpg,NA,NA,pleasant,unpleasant,NA,NA,NA,NA,NA,left,1920.39999985695,true,NA,NA,NA,NA,NA
UijXM997,3t2hw4qdvykwn81ckpslwayk1hg9co,3nkqq8o392i6zctn9ynp1wz81kcud3,UijXM997,2020-0188,2021-10-14,10:42:14,11:45:55,NA,incomplete,false,true,NA,5,29,NA,brown,m_s_075.jpg,NA,NA,unpleasant,pleasant,NA,NA,NA,NA,NA,left,2010.30000019073,true,NA,NA,NA,NA,NA
UijXM997,3t2hw4qdvykwn81ckpslwayk1hg9co,3nkqq8o392i6zctn9ynp1wz81kcud3,UijXM997,2020-0188,2021-10-14,10:42:14,11:45:55,NA,incomplete,false,true,NA,5,30,NA,gray,m_s_008.jpg,NA,NA,pleasant,unpleasant,NA,NA,NA,NA,NA,left,1214.79999995232,true,NA,NA,NA,NA,NA
UijXM997,3t2hw4qdvykwn81ckpslwayk1hg9co,3nkqq8o392i6zctn9ynp1wz81kcud3,UijXM997,2020-0188,2021-10-14,10:42:14,11:45:55,NA,incomplete,false,true,NA,5,31,NA,gray,m_s_021.jpg,NA,NA,unpleasant,pleasant,NA,NA,NA,NA,NA,right,1858.59999990463,true,NA,NA,NA,NA,NA
UijXM997,3t2hw4qdvykwn81ckpslwayk1hg9co,3nkqq8o392i6zctn9ynp1wz81kcud3,UijXM997,2020-0188,2021-10-14,10:42:14,11:45:55,NA,incomplete,false,true,NA,5,32,NA,gray,m_l_066.jpg,NA,NA,pleasant,unpleasant,NA,NA,NA,NA,NA,left,1798.59999990463,true,NA,NA,NA,NA,NA
UijXM997,3t2hw4qdvykwn81ckpslwayk1hg9co,3nkqq8o392i6zctn9ynp1wz81kcud3,UijXM997,2020-0188,2021-10-14,10:42:14,11:45:55,NA,incomplete,false,true,NA,5,33,NA,gray,m_l_101.jpg,NA,NA,unpleasant,pleasant,NA,NA,NA,NA,NA,right,1311.20000004768,true,NA,NA,NA,NA,NA
UijXM997,3t2hw4qdvykwn81ckpslwayk1hg9co,3nkqq8o392i6zctn9ynp1wz81kcud3,UijXM997,2020-0188,2021-10-14,10:42:14,11:45:55,NA,incomplete,false,true,NA,5,34,NA,gray,n_s_105.jpg,NA,NA,unpleasant,pleasant,NA,NA,NA,NA,NA,right,2323.70000004768,true,NA,NA,NA,NA,NA
UijXM997,3t2hw4qdvykwn81ckpslwayk1hg9co,3nkqq8o392i6zctn9ynp1wz81kcud3,UijXM997,2020-0188,2021-10-14,10:42:14,11:45:55,NA,incomplete,false,true,NA,5,35,NA,gray,m_l_037.jpg,NA,NA,pleasant,unpleasant,NA,NA,NA,NA,NA,left,2933.40000009537,true,NA,NA,NA,NA,NA
UijXM997,3t2hw4qdvykwn81ckpslwayk1hg9co,3nkqq8o392i6zctn9ynp1wz81kcud3,UijXM997,2020-0188,2021-10-14,10:42:14,11:45:55,NA,incomplete,false,NA,true,5,0,NA,NA,NA,left,absent,NA,NA,m_s_112.jpg,green,m_s_011.jpg,purple,between,NA,NaN,NA,right,5137,0,2,4021.300000190735
UijXM997,3t2hw4qdvykwn81ckpslwayk1hg9co,3nkqq8o392i6zctn9ynp1wz81kcud3,UijXM997,2020-0188,2021-10-14,10:42:14,11:45:55,NA,incomplete,false,NA,true,5,1,NA,NA,NA,right,absent,NA,NA,m_l_057.jpg,brown,m_s_038.jpg,yellow,between,NA,NaN,NA,left,8996.700000047684,0,1,2148.399999856949
UijXM997,3t2hw4qdvykwn81ckpslwayk1hg9co,3nkqq8o392i6zctn9ynp1wz81kcud3,UijXM997,2020-0188,2021-10-14,10:42:14,11:45:55,NA,incomplete,false,NA,true,5,2,NA,NA,NA,right,absent,NA,NA,m_s_028.jpg,red,m_s_069.jpg,red,within,NA,NaN,NA,right,3463.5999999046326,1,2,2025
UijXM997,3t2hw4qdvykwn81ckpslwayk1hg9co,3nkqq8o392i6zctn9ynp1wz81kcud3,UijXM997,2020-0188,2021-10-14,10:42:14,11:45:55,NA,incomplete,false,NA,true,5,3,NA,NA,NA,left,absent,NA,NA,n_l_112.jpg,red,m_s_044.jpg,green,between,NA,NaN,NA,left,4066.800000190735,1,0,774.1999998092651
UijXM997,3t2hw4qdvykwn81ckpslwayk1hg9co,3nkqq8o392i6zctn9ynp1wz81kcud3,UijXM997,2020-0188,2021-10-14,10:42:14,11:45:55,NA,incomplete,false,NA,true,5,4,NA,NA,NA,right,absent,NA,NA,m_l_037.jpg,gray,m_s_021.jpg,gray,within,NA,NaN,NA,right,2458.5,1,1,1265.5
UijXM997,3t2hw4qdvykwn81ckpslwayk1hg9co,3nkqq8o392i6zctn9ynp1wz81kcud3,UijXM997,2020-0188,2021-10-14,10:42:14,11:45:55,NA,incomplete,false,NA,true,5,5,NA,NA,NA,right,absent,NA,NA,n_l_072.jpg,purple,m_l_003.jpg,purple,within,NA,NaN,NA,right,1828.7999999523163,1,1,1856.1000001430511
UijXM997,3t2hw4qdvykwn81ckpslwayk1hg9co,3nkqq8o392i6zctn9ynp1wz81kcud3,UijXM997,2020-0188,2021-10-14,10:42:14,11:45:55,NA,incomplete,false,NA,true,5,6,NA,NA,NA,right,absent,NA,NA,m_l_018.jpg,yellow,n_s_038.jpg,yellow,within,NA,NaN,NA,right,4004.7000000476837,1,1,1576.6999998092651
UijXM997,3t2hw4qdvykwn81ckpslwayk1hg9co,3nkqq8o392i6zctn9ynp1wz81kcud3,UijXM997,2020-0188,2021-10-14,10:42:14,11:45:55,NA,incomplete,false,NA,true,5,7,NA,NA,NA,right,absent,NA,NA,m_s_075.jpg,brown,n_l_063.jpg,brown,within,NA,NaN,NA,right,3357.2999999523163,1,0,2477.2999999523163
UijXM997,3t2hw4qdvykwn81ckpslwayk1hg9co,3nkqq8o392i6zctn9ynp1wz81kcud3,UijXM997,2020-0188,2021-10-14,10:42:14,11:45:55,NA,incomplete,false,NA,true,5,8,NA,NA,NA,right,absent,NA,NA,n_s_021.jpg,green,m_l_036.jpg,green,within,NA,NaN,NA,right,3322.399999856949,1,0,1139.7000000476837
UijXM997,3t2hw4qdvykwn81ckpslwayk1hg9co,3nkqq8o392i6zctn9ynp1wz81kcud3,UijXM997,2020-0188,2021-10-14,10:42:14,11:45:55,NA,incomplete,false,NA,true,5,9,NA,NA,NA,right,absent,NA,NA,m_l_066.jpg,gray,n_l_038.jpg,brown,between,NA,NaN,NA,right,3417.600000143051,1,3,1157.7000000476837
UijXM997,3t2hw4qdvykwn81ckpslwayk1hg9co,3nkqq8o392i6zctn9ynp1wz81kcud3,UijXM997,2020-0188,2021-10-14,10:42:14,11:45:55,NA,incomplete,false,NA,true,5,10,NA,NA,NA,right,absent,NA,NA,n_l_059.jpg,yellow,m_s_101.jpg,purple,between,NA,NaN,NA,right,8178.100000143051,1,1,922.0999999046326
UijXM997,3t2hw4qdvykwn81ckpslwayk1hg9co,3nkqq8o392i6zctn9ynp1wz81kcud3,UijXM997,2020-0188,2021-10-14,10:42:14,11:45:55,NA,incomplete,false,true,NA,6,0,NA,brown,n_s_049.jpg,NA,NA,pleasant,unpleasant,NA,NA,NA,NA,NA,right,2621,true,NA,NA,NA,NA,NA
UijXM997,3t2hw4qdvykwn81ckpslwayk1hg9co,3nkqq8o392i6zctn9ynp1wz81kcud3,UijXM997,2020-0188,2021-10-14,10:42:14,11:45:55,NA,incomplete,false,true,NA,6,1,NA,brown,n_s_057.jpg,NA,NA,pleasant,unpleasant,NA,NA,NA,NA,NA,right,2125.69999980927,true,NA,NA,NA,NA,NA
UijXM997,3t2hw4qdvykwn81ckpslwayk1hg9co,3nkqq8o392i6zctn9ynp1wz81kcud3,UijXM997,2020-0188,2021-10-14,10:42:14,11:45:55,NA,incomplete,false,true,NA,6,2,NA,brown,n_l_101.jpg,NA,NA,pleasant,unpleasant,NA,NA,NA,NA,NA,left,1622.29999995232,true,NA,NA,NA,NA,NA
UijXM997,3t2hw4qdvykwn81ckpslwayk1hg9co,3nkqq8o392i6zctn9ynp1wz81kcud3,UijXM997,2020-0188,2021-10-14,10:42:14,11:45:55,NA,incomplete,false,true,NA,6,3,NA,brown,m_l_089.jpg,NA,NA,pleasant,unpleasant,NA,NA,NA,NA,NA,left,1207.09999990463,true,NA,NA,NA,NA,NA
UijXM997,3t2hw4qdvykwn81ckpslwayk1hg9co,3nkqq8o392i6zctn9ynp1wz81kcud3,UijXM997,2020-0188,2021-10-14,10:42:14,11:45:55,NA,incomplete,false,true,NA,6,4,NA,brown,n_s_028.jpg,NA,NA,unpleasant,pleasant,NA,NA,NA,NA,NA,right,1879.59999990463,true,NA,NA,NA,NA,NA
UijXM997,3t2hw4qdvykwn81ckpslwayk1hg9co,3nkqq8o392i6zctn9ynp1wz81kcud3,UijXM997,2020-0188,2021-10-14,10:42:14,11:45:55,NA,incomplete,false,true,NA,6,5,NA,brown,n_s_015.jpg,NA,NA,unpleasant,pleasant,NA,NA,NA,NA,NA,right,2089.79999995232,true,NA,NA,NA,NA,NA
UijXM997,3t2hw4qdvykwn81ckpslwayk1hg9co,3nkqq8o392i6zctn9ynp1wz81kcud3,UijXM997,2020-0188,2021-10-14,10:42:14,11:45:55,NA,incomplete,false,true,NA,6,6,NA,red,n_s_056.jpg,NA,NA,unpleasant,pleasant,NA,NA,NA,NA,NA,right,2917.20000004768,true,NA,NA,NA,NA,NA
UijXM997,3t2hw4qdvykwn81ckpslwayk1hg9co,3nkqq8o392i6zctn9ynp1wz81kcud3,UijXM997,2020-0188,2021-10-14,10:42:14,11:45:55,NA,incomplete,false,true,NA,6,7,NA,red,m_l_077.jpg,NA,NA,unpleasant,pleasant,NA,NA,NA,NA,NA,right,1346.20000004768,true,NA,NA,NA,NA,NA
UijXM997,3t2hw4qdvykwn81ckpslwayk1hg9co,3nkqq8o392i6zctn9ynp1wz81kcud3,UijXM997,2020-0188,2021-10-14,10:42:14,11:45:55,NA,incomplete,false,true,NA,6,8,NA,red,n_l_092.jpg,NA,NA,unpleasant,pleasant,NA,NA,NA,NA,NA,right,2597.90000009537,true,NA,NA,NA,NA,NA
UijXM997,3t2hw4qdvykwn81ckpslwayk1hg9co,3nkqq8o392i6zctn9ynp1wz81kcud3,UijXM997,2020-0188,2021-10-14,10:42:14,11:45:55,NA,incomplete,false,true,NA,6,9,NA,red,n_s_081.jpg,NA,NA,unpleasant,pleasant,NA,NA,NA,NA,NA,right,2143.40000009537,true,NA,NA,NA,NA,NA
UijXM997,3t2hw4qdvykwn81ckpslwayk1hg9co,3nkqq8o392i6zctn9ynp1wz81kcud3,UijXM997,2020-0188,2021-10-14,10:42:14,11:45:55,NA,incomplete,false,true,NA,6,10,NA,red,n_s_044.jpg,NA,NA,pleasant,unpleasant,NA,NA,NA,NA,NA,right,1309.5,true,NA,NA,NA,NA,NA
UijXM997,3t2hw4qdvykwn81ckpslwayk1hg9co,3nkqq8o392i6zctn9ynp1wz81kcud3,UijXM997,2020-0188,2021-10-14,10:42:14,11:45:55,NA,incomplete,false,true,NA,6,11,NA,red,n_s_113.jpg,NA,NA,unpleasant,pleasant,NA,NA,NA,NA,NA,left,2327,true,NA,NA,NA,NA,NA
UijXM997,3t2hw4qdvykwn81ckpslwayk1hg9co,3nkqq8o392i6zctn9ynp1wz81kcud3,UijXM997,2020-0188,2021-10-14,10:42:14,11:45:55,NA,incomplete,false,true,NA,6,12,NA,blue,m_l_015.jpg,NA,NA,pleasant,unpleasant,NA,NA,NA,NA,NA,left,1358.90000009537,true,NA,NA,NA,NA,NA
UijXM997,3t2hw4qdvykwn81ckpslwayk1hg9co,3nkqq8o392i6zctn9ynp1wz81kcud3,UijXM997,2020-0188,2021-10-14,10:42:14,11:45:55,NA,incomplete,false,true,NA,6,13,NA,blue,m_s_007.jpg,NA,NA,pleasant,unpleasant,NA,NA,NA,NA,NA,left,1845.30000019073,true,NA,NA,NA,NA,NA
UijXM997,3t2hw4qdvykwn81ckpslwayk1hg9co,3nkqq8o392i6zctn9ynp1wz81kcud3,UijXM997,2020-0188,2021-10-14,10:42:14,11:45:55,NA,incomplete,false,true,NA,6,14,NA,blue,n_s_068.jpg,NA,NA,unpleasant,pleasant,NA,NA,NA,NA,NA,right,2026.70000004768,true,NA,NA,NA,NA,NA
UijXM997,3t2hw4qdvykwn81ckpslwayk1hg9co,3nkqq8o392i6zctn9ynp1wz81kcud3,UijXM997,2020-0188,2021-10-14,10:42:14,11:45:55,NA,incomplete,false,true,NA,6,15,NA,blue,n_s_007.jpg,NA,NA,unpleasant,pleasant,NA,NA,NA,NA,NA,right,2166.40000009537,true,NA,NA,NA,NA,NA
UijXM997,3t2hw4qdvykwn81ckpslwayk1hg9co,3nkqq8o392i6zctn9ynp1wz81kcud3,UijXM997,2020-0188,2021-10-14,10:42:14,11:45:55,NA,incomplete,false,true,NA,6,16,NA,blue,m_s_060.jpg,NA,NA,pleasant,unpleasant,NA,NA,NA,NA,NA,left,1640.19999980927,true,NA,NA,NA,NA,NA
UijXM997,3t2hw4qdvykwn81ckpslwayk1hg9co,3nkqq8o392i6zctn9ynp1wz81kcud3,UijXM997,2020-0188,2021-10-14,10:42:14,11:45:55,NA,incomplete,false,true,NA,6,17,NA,blue,m_l_025.jpg,NA,NA,unpleasant,pleasant,NA,NA,NA,NA,NA,right,1954.59999990463,true,NA,NA,NA,NA,NA
UijXM997,3t2hw4qdvykwn81ckpslwayk1hg9co,3nkqq8o392i6zctn9ynp1wz81kcud3,UijXM997,2020-0188,2021-10-14,10:42:14,11:45:55,NA,incomplete,false,true,NA,6,18,NA,gray,n_s_029.jpg,NA,NA,unpleasant,pleasant,NA,NA,NA,NA,NA,left,2716.09999990463,true,NA,NA,NA,NA,NA
UijXM997,3t2hw4qdvykwn81ckpslwayk1hg9co,3nkqq8o392i6zctn9ynp1wz81kcud3,UijXM997,2020-0188,2021-10-14,10:42:14,11:45:55,NA,incomplete,false,true,NA,6,19,NA,gray,m_s_052.jpg,NA,NA,pleasant,unpleasant,NA,NA,NA,NA,NA,left,2479.89999985695,true,NA,NA,NA,NA,NA
UijXM997,3t2hw4qdvykwn81ckpslwayk1hg9co,3nkqq8o392i6zctn9ynp1wz81kcud3,UijXM997,2020-0188,2021-10-14,10:42:14,11:45:55,NA,incomplete,false,true,NA,6,20,NA,gray,n_s_065.jpg,NA,NA,pleasant,unpleasant,NA,NA,NA,NA,NA,right,1191.09999990463,true,NA,NA,NA,NA,NA
UijXM997,3t2hw4qdvykwn81ckpslwayk1hg9co,3nkqq8o392i6zctn9ynp1wz81kcud3,UijXM997,2020-0188,2021-10-14,10:42:14,11:45:55,NA,incomplete,false,true,NA,6,21,NA,gray,m_s_022.jpg,NA,NA,unpleasant,pleasant,NA,NA,NA,NA,NA,right,2798,true,NA,NA,NA,NA,NA
UijXM997,3t2hw4qdvykwn81ckpslwayk1hg9co,3nkqq8o392i6zctn9ynp1wz81kcud3,UijXM997,2020-0188,2021-10-14,10:42:14,11:45:55,NA,incomplete,false,true,NA,6,22,NA,gray,m_s_026.jpg,NA,NA,unpleasant,pleasant,NA,NA,NA,NA,NA,right,1188.10000014305,true,NA,NA,NA,NA,NA
UijXM997,3t2hw4qdvykwn81ckpslwayk1hg9co,3nkqq8o392i6zctn9ynp1wz81kcud3,UijXM997,2020-0188,2021-10-14,10:42:14,11:45:55,NA,incomplete,false,true,NA,6,23,NA,gray,m_l_092.jpg,NA,NA,unpleasant,pleasant,NA,NA,NA,NA,NA,right,2643.79999995232,true,NA,NA,NA,NA,NA
UijXM997,3t2hw4qdvykwn81ckpslwayk1hg9co,3nkqq8o392i6zctn9ynp1wz81kcud3,UijXM997,2020-0188,2021-10-14,10:42:14,11:45:55,NA,incomplete,false,true,NA,6,24,NA,white,m_s_104.jpg,NA,NA,pleasant,unpleasant,NA,NA,NA,NA,NA,left,1808.5,true,NA,NA,NA,NA,NA
UijXM997,3t2hw4qdvykwn81ckpslwayk1hg9co,3nkqq8o392i6zctn9ynp1wz81kcud3,UijXM997,2020-0188,2021-10-14,10:42:14,11:45:55,NA,incomplete,false,true,NA,6,25,NA,white,m_s_070.jpg,NA,NA,unpleasant,pleasant,NA,NA,NA,NA,NA,right,2478.59999990463,true,NA,NA,NA,NA,NA
UijXM997,3t2hw4qdvykwn81ckpslwayk1hg9co,3nkqq8o392i6zctn9ynp1wz81kcud3,UijXM997,2020-0188,2021-10-14,10:42:14,11:45:55,NA,incomplete,false,true,NA,6,26,NA,white,m_l_034.jpg,NA,NA,unpleasant,pleasant,NA,NA,NA,NA,NA,left,1492.20000004768,true,NA,NA,NA,NA,NA
UijXM997,3t2hw4qdvykwn81ckpslwayk1hg9co,3nkqq8o392i6zctn9ynp1wz81kcud3,UijXM997,2020-0188,2021-10-14,10:42:14,11:45:55,NA,incomplete,false,true,NA,6,27,NA,white,m_l_062.jpg,NA,NA,pleasant,unpleasant,NA,NA,NA,NA,NA,left,1255.29999995232,true,NA,NA,NA,NA,NA
UijXM997,3t2hw4qdvykwn81ckpslwayk1hg9co,3nkqq8o392i6zctn9ynp1wz81kcud3,UijXM997,2020-0188,2021-10-14,10:42:14,11:45:55,NA,incomplete,false,true,NA,6,28,NA,white,n_s_077.jpg,NA,NA,unpleasant,pleasant,NA,NA,NA,NA,NA,left,2830.39999985695,true,NA,NA,NA,NA,NA
UijXM997,3t2hw4qdvykwn81ckpslwayk1hg9co,3nkqq8o392i6zctn9ynp1wz81kcud3,UijXM997,2020-0188,2021-10-14,10:42:14,11:45:55,NA,incomplete,false,true,NA,6,29,NA,white,n_s_075.jpg,NA,NA,pleasant,unpleasant,NA,NA,NA,NA,NA,right,2130.70000004768,true,NA,NA,NA,NA,NA
UijXM997,3t2hw4qdvykwn81ckpslwayk1hg9co,3nkqq8o392i6zctn9ynp1wz81kcud3,UijXM997,2020-0188,2021-10-14,10:42:14,11:45:55,NA,incomplete,false,true,NA,6,30,NA,orange,n_s_086.jpg,NA,NA,pleasant,unpleasant,NA,NA,NA,NA,NA,left,1915.09999990463,true,NA,NA,NA,NA,NA
UijXM997,3t2hw4qdvykwn81ckpslwayk1hg9co,3nkqq8o392i6zctn9ynp1wz81kcud3,UijXM997,2020-0188,2021-10-14,10:42:14,11:45:55,NA,incomplete,false,true,NA,6,31,NA,orange,n_l_025.jpg,NA,NA,pleasant,unpleasant,NA,NA,NA,NA,NA,left,1246.5,true,NA,NA,NA,NA,NA
UijXM997,3t2hw4qdvykwn81ckpslwayk1hg9co,3nkqq8o392i6zctn9ynp1wz81kcud3,UijXM997,2020-0188,2021-10-14,10:42:14,11:45:55,NA,incomplete,false,true,NA,6,32,NA,orange,n_l_086.jpg,NA,NA,unpleasant,pleasant,NA,NA,NA,NA,NA,right,1414.09999990463,true,NA,NA,NA,NA,NA
UijXM997,3t2hw4qdvykwn81ckpslwayk1hg9co,3nkqq8o392i6zctn9ynp1wz81kcud3,UijXM997,2020-0188,2021-10-14,10:42:14,11:45:55,NA,incomplete,false,true,NA,6,33,NA,orange,n_l_013.jpg,NA,NA,pleasant,unpleasant,NA,NA,NA,NA,NA,left,2033,true,NA,NA,NA,NA,NA
UijXM997,3t2hw4qdvykwn81ckpslwayk1hg9co,3nkqq8o392i6zctn9ynp1wz81kcud3,UijXM997,2020-0188,2021-10-14,10:42:14,11:45:55,NA,incomplete,false,true,NA,6,34,NA,orange,m_l_100.jpg,NA,NA,pleasant,unpleasant,NA,NA,NA,NA,NA,left,2909.20000004768,true,NA,NA,NA,NA,NA
UijXM997,3t2hw4qdvykwn81ckpslwayk1hg9co,3nkqq8o392i6zctn9ynp1wz81kcud3,UijXM997,2020-0188,2021-10-14,10:42:14,11:45:55,NA,incomplete,false,true,NA,6,35,NA,orange,m_l_038.jpg,NA,NA,unpleasant,pleasant,NA,NA,NA,NA,NA,left,1126.59999990463,true,NA,NA,NA,NA,NA
UijXM997,3t2hw4qdvykwn81ckpslwayk1hg9co,3nkqq8o392i6zctn9ynp1wz81kcud3,UijXM997,2020-0188,2021-10-14,10:42:14,11:45:55,NA,incomplete,false,NA,true,6,0,NA,NA,NA,left,present,NA,NA,n_l_025.jpg,orange,m_l_038.jpg,orange,within,NA,NaN,NA,left,3423.2000000476837,1,1,1172.2000000476837
UijXM997,3t2hw4qdvykwn81ckpslwayk1hg9co,3nkqq8o392i6zctn9ynp1wz81kcud3,UijXM997,2020-0188,2021-10-14,10:42:14,11:45:55,NA,incomplete,false,NA,true,6,1,NA,NA,NA,left,present,NA,NA,m_s_007.jpg,blue,m_l_025.jpg,blue,within,NA,NaN,NA,left,1865.2999999523163,1,0,732.3999998569489
UijXM997,3t2hw4qdvykwn81ckpslwayk1hg9co,3nkqq8o392i6zctn9ynp1wz81kcud3,UijXM997,2020-0188,2021-10-14,10:42:14,11:45:55,NA,incomplete,false,NA,true,6,2,NA,NA,NA,left,present,NA,NA,m_s_052.jpg,gray,m_l_092.jpg,gray,within,NA,NaN,NA,left,4526.299999952316,1,0,2930.5
UijXM997,3t2hw4qdvykwn81ckpslwayk1hg9co,3nkqq8o392i6zctn9ynp1wz81kcud3,UijXM997,2020-0188,2021-10-14,10:42:14,11:45:55,NA,incomplete,false,NA,true,6,3,NA,NA,NA,left,present,NA,NA,n_s_077.jpg,white,n_l_086.jpg,orange,between,NA,NaN,NA,left,2161.899999856949,1,2,1416
UijXM997,3t2hw4qdvykwn81ckpslwayk1hg9co,3nkqq8o392i6zctn9ynp1wz81kcud3,UijXM997,2020-0188,2021-10-14,10:42:14,11:45:55,NA,incomplete,false,NA,true,6,4,NA,NA,NA,left,present,NA,NA,m_s_070.jpg,white,n_s_075.jpg,white,within,NA,NaN,NA,left,3967.7999999523163,1,1,1567.6999998092651
UijXM997,3t2hw4qdvykwn81ckpslwayk1hg9co,3nkqq8o392i6zctn9ynp1wz81kcud3,UijXM997,2020-0188,2021-10-14,10:42:14,11:45:55,NA,incomplete,false,NA,true,6,5,NA,NA,NA,left,present,NA,NA,n_s_044.jpg,red,n_s_068.jpg,blue,between,NA,NaN,NA,left,4209.800000190735,1,2,1488.2000000476837
UijXM997,3t2hw4qdvykwn81ckpslwayk1hg9co,3nkqq8o392i6zctn9ynp1wz81kcud3,UijXM997,2020-0188,2021-10-14,10:42:14,11:45:55,NA,incomplete,false,NA,true,6,6,NA,NA,NA,right,present,NA,NA,n_l_092.jpg,red,n_s_028.jpg,brown,between,NA,NaN,NA,left,10566.700000047684,0,3,1071.7999999523163
UijXM997,3t2hw4qdvykwn81ckpslwayk1hg9co,3nkqq8o392i6zctn9ynp1wz81kcud3,UijXM997,2020-0188,2021-10-14,10:42:14,11:45:55,NA,incomplete,false,NA,true,6,7,NA,NA,NA,right,present,NA,NA,n_s_015.jpg,brown,n_s_057.jpg,brown,within,NA,NaN,NA,right,2628.5999999046326,1,1,929.2999999523163
UijXM997,3t2hw4qdvykwn81ckpslwayk1hg9co,3nkqq8o392i6zctn9ynp1wz81kcud3,UijXM997,2020-0188,2021-10-14,10:42:14,11:45:55,NA,incomplete,false,NA,true,6,8,NA,NA,NA,right,present,NA,NA,n_s_113.jpg,red,m_l_077.jpg,red,within,NA,NaN,NA,right,4486.799999952316,1,1,1752.5999999046326
UijXM997,3t2hw4qdvykwn81ckpslwayk1hg9co,3nkqq8o392i6zctn9ynp1wz81kcud3,UijXM997,2020-0188,2021-10-14,10:42:14,11:45:55,NA,incomplete,false,NA,true,6,9,NA,NA,NA,right,present,NA,NA,m_l_034.jpg,white,m_s_026.jpg,gray,between,NA,NaN,NA,left,3907.7999999523163,0,2,1967
UijXM997,3t2hw4qdvykwn81ckpslwayk1hg9co,3nkqq8o392i6zctn9ynp1wz81kcud3,UijXM997,2020-0188,2021-10-14,10:42:14,11:45:55,NA,incomplete,false,NA,true,6,10,NA,NA,NA,left,present,NA,NA,m_s_060.jpg,blue,n_s_065.jpg,gray,between,NA,NaN,NA,left,1834.2000000476837,1,2,1406.5
UijXM997,3t2hw4qdvykwn81ckpslwayk1hg9co,3nkqq8o392i6zctn9ynp1wz81kcud3,UijXM997,2020-0188,2021-10-14,10:42:14,11:45:55,NA,incomplete,false,true,NA,7,0,NA,brown,n_s_117.jpg,NA,NA,unpleasant,pleasant,NA,NA,NA,NA,NA,left,1861.79999995232,true,NA,NA,NA,NA,NA
UijXM997,3t2hw4qdvykwn81ckpslwayk1hg9co,3nkqq8o392i6zctn9ynp1wz81kcud3,UijXM997,2020-0188,2021-10-14,10:42:14,11:45:55,NA,incomplete,false,true,NA,7,1,NA,brown,n_l_004.jpg,NA,NA,unpleasant,pleasant,NA,NA,NA,NA,NA,right,1478.90000009537,true,NA,NA,NA,NA,NA
UijXM997,3t2hw4qdvykwn81ckpslwayk1hg9co,3nkqq8o392i6zctn9ynp1wz81kcud3,UijXM997,2020-0188,2021-10-14,10:42:14,11:45:55,NA,incomplete,false,true,NA,7,2,NA,brown,m_s_058.jpg,NA,NA,pleasant,unpleasant,NA,NA,NA,NA,NA,left,1462.59999990463,true,NA,NA,NA,NA,NA
UijXM997,3t2hw4qdvykwn81ckpslwayk1hg9co,3nkqq8o392i6zctn9ynp1wz81kcud3,UijXM997,2020-0188,2021-10-14,10:42:14,11:45:55,NA,incomplete,false,true,NA,7,3,NA,brown,n_s_073.jpg,NA,NA,pleasant,unpleasant,NA,NA,NA,NA,NA,right,2734.59999990463,true,NA,NA,NA,NA,NA
UijXM997,3t2hw4qdvykwn81ckpslwayk1hg9co,3nkqq8o392i6zctn9ynp1wz81kcud3,UijXM997,2020-0188,2021-10-14,10:42:14,11:45:55,NA,incomplete,false,true,NA,7,4,NA,brown,m_s_077.jpg,NA,NA,pleasant,unpleasant,NA,NA,NA,NA,NA,left,3285.5,true,NA,NA,NA,NA,NA
UijXM997,3t2hw4qdvykwn81ckpslwayk1hg9co,3nkqq8o392i6zctn9ynp1wz81kcud3,UijXM997,2020-0188,2021-10-14,10:42:14,11:45:55,NA,incomplete,false,true,NA,7,5,NA,brown,m_l_021.jpg,NA,NA,unpleasant,pleasant,NA,NA,NA,NA,NA,right,1790.20000004768,true,NA,NA,NA,NA,NA
UijXM997,3t2hw4qdvykwn81ckpslwayk1hg9co,3nkqq8o392i6zctn9ynp1wz81kcud3,UijXM997,2020-0188,2021-10-14,10:42:14,11:45:55,NA,incomplete,false,true,NA,7,6,NA,blue,n_l_108.jpg,NA,NA,unpleasant,pleasant,NA,NA,NA,NA,NA,right,889,true,NA,NA,NA,NA,NA
UijXM997,3t2hw4qdvykwn81ckpslwayk1hg9co,3nkqq8o392i6zctn9ynp1wz81kcud3,UijXM997,2020-0188,2021-10-14,10:42:14,11:45:55,NA,incomplete,false,true,NA,7,7,NA,blue,m_s_004.jpg,NA,NA,pleasant,unpleasant,NA,NA,NA,NA,NA,left,2295,true,NA,NA,NA,NA,NA
UijXM997,3t2hw4qdvykwn81ckpslwayk1hg9co,3nkqq8o392i6zctn9ynp1wz81kcud3,UijXM997,2020-0188,2021-10-14,10:42:14,11:45:55,NA,incomplete,false,true,NA,7,8,NA,blue,m_l_053.jpg,NA,NA,unpleasant,pleasant,NA,NA,NA,NA,NA,right,1037.90000009537,true,NA,NA,NA,NA,NA
UijXM997,3t2hw4qdvykwn81ckpslwayk1hg9co,3nkqq8o392i6zctn9ynp1wz81kcud3,UijXM997,2020-0188,2021-10-14,10:42:14,11:45:55,NA,incomplete,false,true,NA,7,9,NA,blue,n_l_036.jpg,NA,NA,unpleasant,pleasant,NA,NA,NA,NA,NA,right,1510.5,true,NA,NA,NA,NA,NA
UijXM997,3t2hw4qdvykwn81ckpslwayk1hg9co,3nkqq8o392i6zctn9ynp1wz81kcud3,UijXM997,2020-0188,2021-10-14,10:42:14,11:45:55,NA,incomplete,false,true,NA,7,10,NA,blue,n_l_058.jpg,NA,NA,unpleasant,pleasant,NA,NA,NA,NA,NA,right,2218,true,NA,NA,NA,NA,NA
UijXM997,3t2hw4qdvykwn81ckpslwayk1hg9co,3nkqq8o392i6zctn9ynp1wz81kcud3,UijXM997,2020-0188,2021-10-14,10:42:14,11:45:55,NA,incomplete,false,true,NA,7,11,NA,blue,m_s_064.jpg,NA,NA,unpleasant,pleasant,NA,NA,NA,NA,NA,right,2545.59999990463,true,NA,NA,NA,NA,NA
UijXM997,3t2hw4qdvykwn81ckpslwayk1hg9co,3nkqq8o392i6zctn9ynp1wz81kcud3,UijXM997,2020-0188,2021-10-14,10:42:14,11:45:55,NA,incomplete,false,true,NA,7,12,NA,black,m_s_080.jpg,NA,NA,pleasant,unpleasant,NA,NA,NA,NA,NA,left,1622.30000019073,true,NA,NA,NA,NA,NA
UijXM997,3t2hw4qdvykwn81ckpslwayk1hg9co,3nkqq8o392i6zctn9ynp1wz81kcud3,UijXM997,2020-0188,2021-10-14,10:42:14,11:45:55,NA,incomplete,false,true,NA,7,13,NA,black,m_l_042.jpg,NA,NA,unpleasant,pleasant,NA,NA,NA,NA,NA,right,927.5,true,NA,NA,NA,NA,NA
UijXM997,3t2hw4qdvykwn81ckpslwayk1hg9co,3nkqq8o392i6zctn9ynp1wz81kcud3,UijXM997,2020-0188,2021-10-14,10:42:14,11:45:55,NA,incomplete,false,true,NA,7,14,NA,black,m_l_088.jpg,NA,NA,pleasant,unpleasant,NA,NA,NA,NA,NA,left,2174.40000009537,true,NA,NA,NA,NA,NA
UijXM997,3t2hw4qdvykwn81ckpslwayk1hg9co,3nkqq8o392i6zctn9ynp1wz81kcud3,UijXM997,2020-0188,2021-10-14,10:42:14,11:45:55,NA,incomplete,false,true,NA,7,15,NA,black,m_l_114.jpg,NA,NA,pleasant,unpleasant,NA,NA,NA,NA,NA,right,1120.60000014305,true,NA,NA,NA,NA,NA
UijXM997,3t2hw4qdvykwn81ckpslwayk1hg9co,3nkqq8o392i6zctn9ynp1wz81kcud3,UijXM997,2020-0188,2021-10-14,10:42:14,11:45:55,NA,incomplete,false,true,NA,7,16,NA,black,n_s_084.jpg,NA,NA,pleasant,unpleasant,NA,NA,NA,NA,NA,right,2060,true,NA,NA,NA,NA,NA
UijXM997,3t2hw4qdvykwn81ckpslwayk1hg9co,3nkqq8o392i6zctn9ynp1wz81kcud3,UijXM997,2020-0188,2021-10-14,10:42:14,11:45:55,NA,incomplete,false,true,NA,7,17,NA,black,n_l_070.jpg,NA,NA,unpleasant,pleasant,NA,NA,NA,NA,NA,right,1408.79999995232,true,NA,NA,NA,NA,NA
UijXM997,3t2hw4qdvykwn81ckpslwayk1hg9co,3nkqq8o392i6zctn9ynp1wz81kcud3,UijXM997,2020-0188,2021-10-14,10:42:14,11:45:55,NA,incomplete,false,true,NA,7,18,NA,yellow,n_l_015.jpg,NA,NA,pleasant,unpleasant,NA,NA,NA,NA,NA,left,2787,true,NA,NA,NA,NA,NA
UijXM997,3t2hw4qdvykwn81ckpslwayk1hg9co,3nkqq8o392i6zctn9ynp1wz81kcud3,UijXM997,2020-0188,2021-10-14,10:42:14,11:45:55,NA,incomplete,false,true,NA,7,19,NA,yellow,n_s_032.jpg,NA,NA,pleasant,unpleasant,NA,NA,NA,NA,NA,left,2414.29999995232,true,NA,NA,NA,NA,NA
UijXM997,3t2hw4qdvykwn81ckpslwayk1hg9co,3nkqq8o392i6zctn9ynp1wz81kcud3,UijXM997,2020-0188,2021-10-14,10:42:14,11:45:55,NA,incomplete,false,true,NA,7,20,NA,yellow,m_l_032.jpg,NA,NA,pleasant,unpleasant,NA,NA,NA,NA,NA,left,2447,true,NA,NA,NA,NA,NA
UijXM997,3t2hw4qdvykwn81ckpslwayk1hg9co,3nkqq8o392i6zctn9ynp1wz81kcud3,UijXM997,2020-0188,2021-10-14,10:42:14,11:45:55,NA,incomplete,false,true,NA,7,21,NA,yellow,m_s_081.jpg,NA,NA,pleasant,unpleasant,NA,NA,NA,NA,NA,right,1032.5,true,NA,NA,NA,NA,NA
UijXM997,3t2hw4qdvykwn81ckpslwayk1hg9co,3nkqq8o392i6zctn9ynp1wz81kcud3,UijXM997,2020-0188,2021-10-14,10:42:14,11:45:55,NA,incomplete,false,true,NA,7,22,NA,yellow,n_l_043.jpg,NA,NA,pleasant,unpleasant,NA,NA,NA,NA,NA,right,2001.80000019073,true,NA,NA,NA,NA,NA
UijXM997,3t2hw4qdvykwn81ckpslwayk1hg9co,3nkqq8o392i6zctn9ynp1wz81kcud3,UijXM997,2020-0188,2021-10-14,10:42:14,11:45:55,NA,incomplete,false,true,NA,7,23,NA,yellow,n_l_031.jpg,NA,NA,unpleasant,pleasant,NA,NA,NA,NA,NA,right,1062.89999985695,true,NA,NA,NA,NA,NA
UijXM997,3t2hw4qdvykwn81ckpslwayk1hg9co,3nkqq8o392i6zctn9ynp1wz81kcud3,UijXM997,2020-0188,2021-10-14,10:42:14,11:45:55,NA,incomplete,false,true,NA,7,24,NA,white,n_l_096.jpg,NA,NA,unpleasant,pleasant,NA,NA,NA,NA,NA,right,1254.5,true,NA,NA,NA,NA,NA
UijXM997,3t2hw4qdvykwn81ckpslwayk1hg9co,3nkqq8o392i6zctn9ynp1wz81kcud3,UijXM997,2020-0188,2021-10-14,10:42:14,11:45:55,NA,incomplete,false,true,NA,7,25,NA,white,m_l_084.jpg,NA,NA,pleasant,unpleasant,NA,NA,NA,NA,NA,left,1055.90000009537,true,NA,NA,NA,NA,NA
UijXM997,3t2hw4qdvykwn81ckpslwayk1hg9co,3nkqq8o392i6zctn9ynp1wz81kcud3,UijXM997,2020-0188,2021-10-14,10:42:14,11:45:55,NA,incomplete,false,true,NA,7,26,NA,white,n_s_060.jpg,NA,NA,pleasant,unpleasant,NA,NA,NA,NA,NA,left,1369.90000009537,true,NA,NA,NA,NA,NA
UijXM997,3t2hw4qdvykwn81ckpslwayk1hg9co,3nkqq8o392i6zctn9ynp1wz81kcud3,UijXM997,2020-0188,2021-10-14,10:42:14,11:45:55,NA,incomplete,false,true,NA,7,27,NA,white,n_s_006.jpg,NA,NA,pleasant,unpleasant,NA,NA,NA,NA,NA,left,1578,true,NA,NA,NA,NA,NA
UijXM997,3t2hw4qdvykwn81ckpslwayk1hg9co,3nkqq8o392i6zctn9ynp1wz81kcud3,UijXM997,2020-0188,2021-10-14,10:42:14,11:45:55,NA,incomplete,false,true,NA,7,28,NA,white,m_s_109.jpg,NA,NA,unpleasant,pleasant,NA,NA,NA,NA,NA,right,1386.90000009537,true,NA,NA,NA,NA,NA
UijXM997,3t2hw4qdvykwn81ckpslwayk1hg9co,3nkqq8o392i6zctn9ynp1wz81kcud3,UijXM997,2020-0188,2021-10-14,10:42:14,11:45:55,NA,incomplete,false,true,NA,7,29,NA,white,n_s_063.jpg,NA,NA,pleasant,unpleasant,NA,NA,NA,NA,NA,right,1897,true,NA,NA,NA,NA,NA
UijXM997,3t2hw4qdvykwn81ckpslwayk1hg9co,3nkqq8o392i6zctn9ynp1wz81kcud3,UijXM997,2020-0188,2021-10-14,10:42:14,11:45:55,NA,incomplete,false,true,NA,7,30,NA,red,m_s_043.jpg,NA,NA,unpleasant,pleasant,NA,NA,NA,NA,NA,left,1175.40000009537,true,NA,NA,NA,NA,NA
UijXM997,3t2hw4qdvykwn81ckpslwayk1hg9co,3nkqq8o392i6zctn9ynp1wz81kcud3,UijXM997,2020-0188,2021-10-14,10:42:14,11:45:55,NA,incomplete,false,true,NA,7,31,NA,red,n_s_091.jpg,NA,NA,pleasant,unpleasant,NA,NA,NA,NA,NA,right,1487.70000004768,true,NA,NA,NA,NA,NA
UijXM997,3t2hw4qdvykwn81ckpslwayk1hg9co,3nkqq8o392i6zctn9ynp1wz81kcud3,UijXM997,2020-0188,2021-10-14,10:42:14,11:45:55,NA,incomplete,false,true,NA,7,32,NA,red,m_l_045.jpg,NA,NA,unpleasant,pleasant,NA,NA,NA,NA,NA,right,1375.80000019073,true,NA,NA,NA,NA,NA
UijXM997,3t2hw4qdvykwn81ckpslwayk1hg9co,3nkqq8o392i6zctn9ynp1wz81kcud3,UijXM997,2020-0188,2021-10-14,10:42:14,11:45:55,NA,incomplete,false,true,NA,7,33,NA,red,n_s_101.jpg,NA,NA,unpleasant,pleasant,NA,NA,NA,NA,NA,left,1128.60000014305,true,NA,NA,NA,NA,NA
UijXM997,3t2hw4qdvykwn81ckpslwayk1hg9co,3nkqq8o392i6zctn9ynp1wz81kcud3,UijXM997,2020-0188,2021-10-14,10:42:14,11:45:55,NA,incomplete,false,true,NA,7,34,NA,red,m_s_009.jpg,NA,NA,unpleasant,pleasant,NA,NA,NA,NA,NA,right,2079.90000009537,true,NA,NA,NA,NA,NA
UijXM997,3t2hw4qdvykwn81ckpslwayk1hg9co,3nkqq8o392i6zctn9ynp1wz81kcud3,UijXM997,2020-0188,2021-10-14,10:42:14,11:45:55,NA,incomplete,false,true,NA,7,35,NA,red,m_s_084.jpg,NA,NA,pleasant,unpleasant,NA,NA,NA,NA,NA,left,1936.5,true,NA,NA,NA,NA,NA
UijXM997,3t2hw4qdvykwn81ckpslwayk1hg9co,3nkqq8o392i6zctn9ynp1wz81kcud3,UijXM997,2020-0188,2021-10-14,10:42:14,11:45:55,NA,incomplete,false,NA,true,7,0,NA,NA,NA,left,present,NA,NA,n_l_004.jpg,brown,m_l_021.jpg,brown,within,NA,NaN,NA,left,4186.599999904633,1,2,4100.599999904633
UijXM997,3t2hw4qdvykwn81ckpslwayk1hg9co,3nkqq8o392i6zctn9ynp1wz81kcud3,UijXM997,2020-0188,2021-10-14,10:42:14,11:45:55,NA,incomplete,false,NA,true,7,1,NA,NA,NA,left,present,NA,NA,n_s_032.jpg,yellow,n_l_031.jpg,yellow,within,NA,NaN,NA,left,2280.2000000476837,1,1,2444.7999999523163
UijXM997,3t2hw4qdvykwn81ckpslwayk1hg9co,3nkqq8o392i6zctn9ynp1wz81kcud3,UijXM997,2020-0188,2021-10-14,10:42:14,11:45:55,NA,incomplete,false,NA,true,7,2,NA,NA,NA,right,present,NA,NA,m_l_032.jpg,yellow,n_s_084.jpg,black,between,NA,NaN,NA,right,3457.7000000476837,1,1,1400.9000000953674
UijXM997,3t2hw4qdvykwn81ckpslwayk1hg9co,3nkqq8o392i6zctn9ynp1wz81kcud3,UijXM997,2020-0188,2021-10-14,10:42:14,11:45:55,NA,incomplete,false,NA,true,7,3,NA,NA,NA,right,present,NA,NA,m_s_084.jpg,red,n_s_091.jpg,red,within,NA,NaN,NA,right,2394.399999856949,1,2,4728.5
UijXM997,3t2hw4qdvykwn81ckpslwayk1hg9co,3nkqq8o392i6zctn9ynp1wz81kcud3,UijXM997,2020-0188,2021-10-14,10:42:14,11:45:55,NA,incomplete,false,NA,true,7,4,NA,NA,NA,left,present,NA,NA,m_l_084.jpg,white,n_s_063.jpg,white,within,NA,NaN,NA,left,1898.3000001907349,1,1,1320.2999999523163
UijXM997,3t2hw4qdvykwn81ckpslwayk1hg9co,3nkqq8o392i6zctn9ynp1wz81kcud3,UijXM997,2020-0188,2021-10-14,10:42:14,11:45:55,NA,incomplete,false,NA,true,7,5,NA,NA,NA,left,present,NA,NA,m_l_042.jpg,black,n_l_070.jpg,black,within,NA,NaN,NA,left,3633.899999856949,1,0,926.8000001907349
UijXM997,3t2hw4qdvykwn81ckpslwayk1hg9co,3nkqq8o392i6zctn9ynp1wz81kcud3,UijXM997,2020-0188,2021-10-14,10:42:14,11:45:55,NA,incomplete,false,NA,true,7,6,NA,NA,NA,left,present,NA,NA,m_s_077.jpg,brown,m_l_053.jpg,blue,between,NA,NaN,NA,left,5361.400000095367,1,2,862.0999999046326
UijXM997,3t2hw4qdvykwn81ckpslwayk1hg9co,3nkqq8o392i6zctn9ynp1wz81kcud3,UijXM997,2020-0188,2021-10-14,10:42:14,11:45:55,NA,incomplete,false,NA,true,7,7,NA,NA,NA,right,present,NA,NA,n_s_060.jpg,white,n_l_043.jpg,yellow,between,NA,NaN,NA,left,4756.599999904633,0,3,2081
UijXM997,3t2hw4qdvykwn81ckpslwayk1hg9co,3nkqq8o392i6zctn9ynp1wz81kcud3,UijXM997,2020-0188,2021-10-14,10:42:14,11:45:55,NA,incomplete,false,NA,true,7,8,NA,NA,NA,right,present,NA,NA,m_s_064.jpg,blue,m_s_004.jpg,blue,within,NA,NaN,NA,right,8201.200000047684,1,1,1432
UijXM997,3t2hw4qdvykwn81ckpslwayk1hg9co,3nkqq8o392i6zctn9ynp1wz81kcud3,UijXM997,2020-0188,2021-10-14,10:42:14,11:45:55,NA,incomplete,false,NA,true,7,9,NA,NA,NA,right,present,NA,NA,m_l_045.jpg,red,m_s_109.jpg,white,between,NA,NaN,NA,right,6589.5,1,2,1704.5
UijXM997,3t2hw4qdvykwn81ckpslwayk1hg9co,3nkqq8o392i6zctn9ynp1wz81kcud3,UijXM997,2020-0188,2021-10-14,10:42:14,11:45:55,NA,incomplete,false,NA,true,7,10,NA,NA,NA,left,present,NA,NA,n_l_058.jpg,blue,m_l_088.jpg,black,between,NA,NaN,NA,left,3259.199999809265,1,3,1321.0999999046326
UijXM997,3t2hw4qdvykwn81ckpslwayk1hg9co,3nkqq8o392i6zctn9ynp1wz81kcud3,UijXM997,2020-0188,2021-10-14,10:42:14,11:45:55,NA,incomplete,false,true,NA,8,0,NA,red,m_s_107.jpg,NA,NA,unpleasant,pleasant,NA,NA,NA,NA,NA,left,1577.70000004768,true,NA,NA,NA,NA,NA
UijXM997,3t2hw4qdvykwn81ckpslwayk1hg9co,3nkqq8o392i6zctn9ynp1wz81kcud3,UijXM997,2020-0188,2021-10-14,10:42:14,11:45:55,NA,incomplete,false,true,NA,8,1,NA,red,m_s_093.jpg,NA,NA,unpleasant,pleasant,NA,NA,NA,NA,NA,right,1425.40000009537,true,NA,NA,NA,NA,NA
UijXM997,3t2hw4qdvykwn81ckpslwayk1hg9co,3nkqq8o392i6zctn9ynp1wz81kcud3,UijXM997,2020-0188,2021-10-14,10:42:14,11:45:55,NA,incomplete,false,true,NA,8,2,NA,red,m_l_095.jpg,NA,NA,pleasant,unpleasant,NA,NA,NA,NA,NA,left,1356.79999995232,true,NA,NA,NA,NA,NA
UijXM997,3t2hw4qdvykwn81ckpslwayk1hg9co,3nkqq8o392i6zctn9ynp1wz81kcud3,UijXM997,2020-0188,2021-10-14,10:42:14,11:45:55,NA,incomplete,false,true,NA,8,3,NA,red,m_l_039.jpg,NA,NA,unpleasant,pleasant,NA,NA,NA,NA,NA,right,2518.29999995232,true,NA,NA,NA,NA,NA
UijXM997,3t2hw4qdvykwn81ckpslwayk1hg9co,3nkqq8o392i6zctn9ynp1wz81kcud3,UijXM997,2020-0188,2021-10-14,10:42:14,11:45:55,NA,incomplete,false,true,NA,8,4,NA,red,m_l_001.jpg,NA,NA,unpleasant,pleasant,NA,NA,NA,NA,NA,left,1429.09999990463,true,NA,NA,NA,NA,NA
UijXM997,3t2hw4qdvykwn81ckpslwayk1hg9co,3nkqq8o392i6zctn9ynp1wz81kcud3,UijXM997,2020-0188,2021-10-14,10:42:14,11:45:55,NA,incomplete,false,true,NA,8,5,NA,red,n_l_088.jpg,NA,NA,unpleasant,pleasant,NA,NA,NA,NA,NA,right,1997.40000009537,true,NA,NA,NA,NA,NA
UijXM997,3t2hw4qdvykwn81ckpslwayk1hg9co,3nkqq8o392i6zctn9ynp1wz81kcud3,UijXM997,2020-0188,2021-10-14,10:42:14,11:45:55,NA,incomplete,false,true,NA,8,6,NA,green,n_s_018.jpg,NA,NA,pleasant,unpleasant,NA,NA,NA,NA,NA,right,973.200000047684,true,NA,NA,NA,NA,NA
UijXM997,3t2hw4qdvykwn81ckpslwayk1hg9co,3nkqq8o392i6zctn9ynp1wz81kcud3,UijXM997,2020-0188,2021-10-14,10:42:14,11:45:55,NA,incomplete,false,true,NA,8,7,NA,green,n_l_064.jpg,NA,NA,unpleasant,pleasant,NA,NA,NA,NA,NA,right,2498.39999985695,true,NA,NA,NA,NA,NA
UijXM997,3t2hw4qdvykwn81ckpslwayk1hg9co,3nkqq8o392i6zctn9ynp1wz81kcud3,UijXM997,2020-0188,2021-10-14,10:42:14,11:45:55,NA,incomplete,false,true,NA,8,8,NA,green,n_l_035.jpg,NA,NA,pleasant,unpleasant,NA,NA,NA,NA,NA,left,2003.20000004768,true,NA,NA,NA,NA,NA
