workerId,hitId,assignmentId,subject,studyid,exp_date,exp_start,exp_end,time_start,time_end,practice,encoding,memory,block,trial,event_order,event,stim,answer,context_type,label_left,label_right,left_image,left_event,right_image,right_event,condition,response,response_time,response_acc,order_response,order_response_time,order_acc,distance_response,distance_response_time
wYPFQqRG,3vck0q0pp8rxiiaq9ji6jar3xntn0d,3urfvvm169v92dyj1gcmsoibpe9zui,wYPFQqRG,2020-0188,2021-10-17,13:16:21,14:39:42,NA,incomplete,true,true,NA,0,0,NA,red,m_s_012.jpg,NA,NA,unpleasant,pleasant,NA,NA,NA,NA,NA,left,2256.80000001192,true,NA,NA,NA,NA,NA
wYPFQqRG,3vck0q0pp8rxiiaq9ji6jar3xntn0d,3urfvvm169v92dyj1gcmsoibpe9zui,wYPFQqRG,2020-0188,2021-10-17,13:16:21,14:39:42,NA,incomplete,true,true,NA,0,1,NA,red,n_l_110.jpg,NA,NA,unpleasant,pleasant,NA,NA,NA,NA,NA,left,2162.70000001788,true,NA,NA,NA,NA,NA
wYPFQqRG,3vck0q0pp8rxiiaq9ji6jar3xntn0d,3urfvvm169v92dyj1gcmsoibpe9zui,wYPFQqRG,2020-0188,2021-10-17,13:16:21,14:39:42,NA,incomplete,true,true,NA,0,2,NA,red,n_s_049.jpg,NA,NA,pleasant,unpleasant,NA,NA,NA,NA,NA,left,2500.59999999404,true,NA,NA,NA,NA,NA
wYPFQqRG,3vck0q0pp8rxiiaq9ji6jar3xntn0d,3urfvvm169v92dyj1gcmsoibpe9zui,wYPFQqRG,2020-0188,2021-10-17,13:16:21,14:39:42,NA,incomplete,true,true,NA,0,3,NA,red,n_l_004.jpg,NA,NA,pleasant,unpleasant,NA,NA,NA,NA,NA,right,1997.69999998808,true,NA,NA,NA,NA,NA
wYPFQqRG,3vck0q0pp8rxiiaq9ji6jar3xntn0d,3urfvvm169v92dyj1gcmsoibpe9zui,wYPFQqRG,2020-0188,2021-10-17,13:16:21,14:39:42,NA,incomplete,true,true,NA,0,4,NA,red,n_l_116.jpg,NA,NA,pleasant,unpleasant,NA,NA,NA,NA,NA,right,2596.10000002384,true,NA,NA,NA,NA,NA
wYPFQqRG,3vck0q0pp8rxiiaq9ji6jar3xntn0d,3urfvvm169v92dyj1gcmsoibpe9zui,wYPFQqRG,2020-0188,2021-10-17,13:16:21,14:39:42,NA,incomplete,true,true,NA,0,5,NA,red,m_l_053.jpg,NA,NA,pleasant,unpleasant,NA,NA,NA,NA,NA,left,2517.90000000596,true,NA,NA,NA,NA,NA
wYPFQqRG,3vck0q0pp8rxiiaq9ji6jar3xntn0d,3urfvvm169v92dyj1gcmsoibpe9zui,wYPFQqRG,2020-0188,2021-10-17,13:16:21,14:39:42,NA,incomplete,true,true,NA,0,6,NA,yellow,m_l_007.jpg,NA,NA,pleasant,unpleasant,NA,NA,NA,NA,NA,left,3032.5,true,NA,NA,NA,NA,NA
wYPFQqRG,3vck0q0pp8rxiiaq9ji6jar3xntn0d,3urfvvm169v92dyj1gcmsoibpe9zui,wYPFQqRG,2020-0188,2021-10-17,13:16:21,14:39:42,NA,incomplete,true,true,NA,0,7,NA,yellow,m_l_095.jpg,NA,NA,unpleasant,pleasant,NA,NA,NA,NA,NA,left,2947.79999998212,true,NA,NA,NA,NA,NA
wYPFQqRG,3vck0q0pp8rxiiaq9ji6jar3xntn0d,3urfvvm169v92dyj1gcmsoibpe9zui,wYPFQqRG,2020-0188,2021-10-17,13:16:21,14:39:42,NA,incomplete,true,true,NA,0,8,NA,yellow,m_l_115.jpg,NA,NA,unpleasant,pleasant,NA,NA,NA,NA,NA,right,1983.5,true,NA,NA,NA,NA,NA
wYPFQqRG,3vck0q0pp8rxiiaq9ji6jar3xntn0d,3urfvvm169v92dyj1gcmsoibpe9zui,wYPFQqRG,2020-0188,2021-10-17,13:16:21,14:39:42,NA,incomplete,true,true,NA,0,9,NA,yellow,n_s_016.jpg,NA,NA,unpleasant,pleasant,NA,NA,NA,NA,NA,none,0,false,NA,NA,NA,NA,NA
wYPFQqRG,3vck0q0pp8rxiiaq9ji6jar3xntn0d,3urfvvm169v92dyj1gcmsoibpe9zui,wYPFQqRG,2020-0188,2021-10-17,13:16:21,14:39:42,NA,incomplete,true,true,NA,0,10,NA,yellow,n_s_090.jpg,NA,NA,pleasant,unpleasant,NA,NA,NA,NA,NA,right,1970.5,true,NA,NA,NA,NA,NA
wYPFQqRG,3vck0q0pp8rxiiaq9ji6jar3xntn0d,3urfvvm169v92dyj1gcmsoibpe9zui,wYPFQqRG,2020-0188,2021-10-17,13:16:21,14:39:42,NA,incomplete,true,true,NA,0,11,NA,yellow,n_s_050.jpg,NA,NA,pleasant,unpleasant,NA,NA,NA,NA,NA,right,2076,true,NA,NA,NA,NA,NA
wYPFQqRG,3vck0q0pp8rxiiaq9ji6jar3xntn0d,3urfvvm169v92dyj1gcmsoibpe9zui,wYPFQqRG,2020-0188,2021-10-17,13:16:21,14:39:42,NA,incomplete,true,true,NA,0,12,NA,purple,n_l_026.jpg,NA,NA,unpleasant,pleasant,NA,NA,NA,NA,NA,left,2035.09999999404,true,NA,NA,NA,NA,NA
wYPFQqRG,3vck0q0pp8rxiiaq9ji6jar3xntn0d,3urfvvm169v92dyj1gcmsoibpe9zui,wYPFQqRG,2020-0188,2021-10-17,13:16:21,14:39:42,NA,incomplete,true,true,NA,0,13,NA,purple,n_l_046.jpg,NA,NA,unpleasant,pleasant,NA,NA,NA,NA,NA,left,2632.09999999404,true,NA,NA,NA,NA,NA
wYPFQqRG,3vck0q0pp8rxiiaq9ji6jar3xntn0d,3urfvvm169v92dyj1gcmsoibpe9zui,wYPFQqRG,2020-0188,2021-10-17,13:16:21,14:39:42,NA,incomplete,true,true,NA,0,14,NA,purple,m_s_055.jpg,NA,NA,pleasant,unpleasant,NA,NA,NA,NA,NA,left,1879.59999999404,true,NA,NA,NA,NA,NA
wYPFQqRG,3vck0q0pp8rxiiaq9ji6jar3xntn0d,3urfvvm169v92dyj1gcmsoibpe9zui,wYPFQqRG,2020-0188,2021-10-17,13:16:21,14:39:42,NA,incomplete,true,true,NA,0,15,NA,purple,m_l_013.jpg,NA,NA,pleasant,unpleasant,NA,NA,NA,NA,NA,left,1478.10000002384,true,NA,NA,NA,NA,NA
wYPFQqRG,3vck0q0pp8rxiiaq9ji6jar3xntn0d,3urfvvm169v92dyj1gcmsoibpe9zui,wYPFQqRG,2020-0188,2021-10-17,13:16:21,14:39:42,NA,incomplete,true,true,NA,0,16,NA,purple,m_s_066.jpg,NA,NA,unpleasant,pleasant,NA,NA,NA,NA,NA,right,1750.20000001788,true,NA,NA,NA,NA,NA
wYPFQqRG,3vck0q0pp8rxiiaq9ji6jar3xntn0d,3urfvvm169v92dyj1gcmsoibpe9zui,wYPFQqRG,2020-0188,2021-10-17,13:16:21,14:39:42,NA,incomplete,true,true,NA,0,17,NA,purple,m_l_060.jpg,NA,NA,pleasant,unpleasant,NA,NA,NA,NA,NA,left,1568.40000000596,true,NA,NA,NA,NA,NA
wYPFQqRG,3vck0q0pp8rxiiaq9ji6jar3xntn0d,3urfvvm169v92dyj1gcmsoibpe9zui,wYPFQqRG,2020-0188,2021-10-17,13:16:21,14:39:42,NA,incomplete,true,true,NA,0,18,NA,blue,n_l_056.jpg,NA,NA,unpleasant,pleasant,NA,NA,NA,NA,NA,left,2000.90000000596,true,NA,NA,NA,NA,NA
wYPFQqRG,3vck0q0pp8rxiiaq9ji6jar3xntn0d,3urfvvm169v92dyj1gcmsoibpe9zui,wYPFQqRG,2020-0188,2021-10-17,13:16:21,14:39:42,NA,incomplete,true,true,NA,0,19,NA,blue,n_l_058.jpg,NA,NA,pleasant,unpleasant,NA,NA,NA,NA,NA,right,1731.39999997616,true,NA,NA,NA,NA,NA
wYPFQqRG,3vck0q0pp8rxiiaq9ji6jar3xntn0d,3urfvvm169v92dyj1gcmsoibpe9zui,wYPFQqRG,2020-0188,2021-10-17,13:16:21,14:39:42,NA,incomplete,true,true,NA,0,20,NA,blue,m_l_105.jpg,NA,NA,pleasant,unpleasant,NA,NA,NA,NA,NA,right,2362.80000001192,true,NA,NA,NA,NA,NA
wYPFQqRG,3vck0q0pp8rxiiaq9ji6jar3xntn0d,3urfvvm169v92dyj1gcmsoibpe9zui,wYPFQqRG,2020-0188,2021-10-17,13:16:21,14:39:42,NA,incomplete,true,true,NA,0,21,NA,blue,n_l_014.jpg,NA,NA,unpleasant,pleasant,NA,NA,NA,NA,NA,left,1372.09999999404,true,NA,NA,NA,NA,NA
wYPFQqRG,3vck0q0pp8rxiiaq9ji6jar3xntn0d,3urfvvm169v92dyj1gcmsoibpe9zui,wYPFQqRG,2020-0188,2021-10-17,13:16:21,14:39:42,NA,incomplete,true,true,NA,0,22,NA,blue,n_s_077.jpg,NA,NA,unpleasant,pleasant,NA,NA,NA,NA,NA,left,1791,true,NA,NA,NA,NA,NA
wYPFQqRG,3vck0q0pp8rxiiaq9ji6jar3xntn0d,3urfvvm169v92dyj1gcmsoibpe9zui,wYPFQqRG,2020-0188,2021-10-17,13:16:21,14:39:42,NA,incomplete,true,true,NA,0,23,NA,blue,n_l_024.jpg,NA,NA,unpleasant,pleasant,NA,NA,NA,NA,NA,right,3036.09999999404,true,NA,NA,NA,NA,NA
wYPFQqRG,3vck0q0pp8rxiiaq9ji6jar3xntn0d,3urfvvm169v92dyj1gcmsoibpe9zui,wYPFQqRG,2020-0188,2021-10-17,13:16:21,14:39:42,NA,incomplete,true,true,NA,0,24,NA,black,m_s_011.jpg,NA,NA,unpleasant,pleasant,NA,NA,NA,NA,NA,right,1759.59999999404,true,NA,NA,NA,NA,NA
wYPFQqRG,3vck0q0pp8rxiiaq9ji6jar3xntn0d,3urfvvm169v92dyj1gcmsoibpe9zui,wYPFQqRG,2020-0188,2021-10-17,13:16:21,14:39:42,NA,incomplete,true,true,NA,0,25,NA,black,n_l_073.jpg,NA,NA,unpleasant,pleasant,NA,NA,NA,NA,NA,left,1447.89999997616,true,NA,NA,NA,NA,NA
wYPFQqRG,3vck0q0pp8rxiiaq9ji6jar3xntn0d,3urfvvm169v92dyj1gcmsoibpe9zui,wYPFQqRG,2020-0188,2021-10-17,13:16:21,14:39:42,NA,incomplete,true,true,NA,0,26,NA,black,n_l_071.jpg,NA,NA,unpleasant,pleasant,NA,NA,NA,NA,NA,left,1357.10000002384,true,NA,NA,NA,NA,NA
wYPFQqRG,3vck0q0pp8rxiiaq9ji6jar3xntn0d,3urfvvm169v92dyj1gcmsoibpe9zui,wYPFQqRG,2020-0188,2021-10-17,13:16:21,14:39:42,NA,incomplete,true,true,NA,0,27,NA,black,m_l_023.jpg,NA,NA,unpleasant,pleasant,NA,NA,NA,NA,NA,left,1090.30000001192,true,NA,NA,NA,NA,NA
wYPFQqRG,3vck0q0pp8rxiiaq9ji6jar3xntn0d,3urfvvm169v92dyj1gcmsoibpe9zui,wYPFQqRG,2020-0188,2021-10-17,13:16:21,14:39:42,NA,incomplete,true,true,NA,0,28,NA,black,n_s_009.jpg,NA,NA,unpleasant,pleasant,NA,NA,NA,NA,NA,left,1312.70000001788,true,NA,NA,NA,NA,NA
wYPFQqRG,3vck0q0pp8rxiiaq9ji6jar3xntn0d,3urfvvm169v92dyj1gcmsoibpe9zui,wYPFQqRG,2020-0188,2021-10-17,13:16:21,14:39:42,NA,incomplete,true,true,NA,0,29,NA,black,m_l_082.jpg,NA,NA,unpleasant,pleasant,NA,NA,NA,NA,NA,left,2345.5,true,NA,NA,NA,NA,NA
wYPFQqRG,3vck0q0pp8rxiiaq9ji6jar3xntn0d,3urfvvm169v92dyj1gcmsoibpe9zui,wYPFQqRG,2020-0188,2021-10-17,13:16:21,14:39:42,NA,incomplete,true,true,NA,0,30,NA,white,m_s_056.jpg,NA,NA,pleasant,unpleasant,NA,NA,NA,NA,NA,left,1254.59999999404,true,NA,NA,NA,NA,NA
wYPFQqRG,3vck0q0pp8rxiiaq9ji6jar3xntn0d,3urfvvm169v92dyj1gcmsoibpe9zui,wYPFQqRG,2020-0188,2021-10-17,13:16:21,14:39:42,NA,incomplete,true,true,NA,0,31,NA,white,n_s_102.jpg,NA,NA,pleasant,unpleasant,NA,NA,NA,NA,NA,right,1332.90000000596,true,NA,NA,NA,NA,NA
wYPFQqRG,3vck0q0pp8rxiiaq9ji6jar3xntn0d,3urfvvm169v92dyj1gcmsoibpe9zui,wYPFQqRG,2020-0188,2021-10-17,13:16:21,14:39:42,NA,incomplete,true,true,NA,0,32,NA,white,n_s_097.jpg,NA,NA,pleasant,unpleasant,NA,NA,NA,NA,NA,left,2879.5,true,NA,NA,NA,NA,NA
wYPFQqRG,3vck0q0pp8rxiiaq9ji6jar3xntn0d,3urfvvm169v92dyj1gcmsoibpe9zui,wYPFQqRG,2020-0188,2021-10-17,13:16:21,14:39:42,NA,incomplete,true,true,NA,0,33,NA,white,n_l_098.jpg,NA,NA,unpleasant,pleasant,NA,NA,NA,NA,NA,right,2550.70000001788,true,NA,NA,NA,NA,NA
wYPFQqRG,3vck0q0pp8rxiiaq9ji6jar3xntn0d,3urfvvm169v92dyj1gcmsoibpe9zui,wYPFQqRG,2020-0188,2021-10-17,13:16:21,14:39:42,NA,incomplete,true,true,NA,0,34,NA,white,n_l_065.jpg,NA,NA,unpleasant,pleasant,NA,NA,NA,NA,NA,left,2155.30000001192,true,NA,NA,NA,NA,NA
wYPFQqRG,3vck0q0pp8rxiiaq9ji6jar3xntn0d,3urfvvm169v92dyj1gcmsoibpe9zui,wYPFQqRG,2020-0188,2021-10-17,13:16:21,14:39:42,NA,incomplete,true,true,NA,0,35,NA,white,n_l_028.jpg,NA,NA,pleasant,unpleasant,NA,NA,NA,NA,NA,right,2579.20000001788,true,NA,NA,NA,NA,NA
wYPFQqRG,3vck0q0pp8rxiiaq9ji6jar3xntn0d,3urfvvm169v92dyj1gcmsoibpe9zui,wYPFQqRG,2020-0188,2021-10-17,13:16:21,14:39:42,NA,incomplete,true,NA,true,0,0,NA,NA,NA,left,present,NA,NA,n_s_009.jpg,black,n_s_097.jpg,white,between,NA,NaN,NA,left,14454.799999982119,1,2,8992.90000000596
wYPFQqRG,3vck0q0pp8rxiiaq9ji6jar3xntn0d,3urfvvm169v92dyj1gcmsoibpe9zui,wYPFQqRG,2020-0188,2021-10-17,13:16:21,14:39:42,NA,incomplete,true,NA,true,0,1,NA,NA,NA,right,absent,NA,NA,n_s_050.jpg,yellow,m_l_095.jpg,yellow,within,NA,NaN,NA,left,15326.799999982119,0,1,3273
wYPFQqRG,3vck0q0pp8rxiiaq9ji6jar3xntn0d,3urfvvm169v92dyj1gcmsoibpe9zui,wYPFQqRG,2020-0188,2021-10-17,13:16:21,14:39:42,NA,incomplete,true,NA,true,0,2,NA,NA,NA,left,present,NA,NA,n_l_046.jpg,purple,m_l_060.jpg,purple,within,NA,NaN,NA,right,8130.300000011921,0,1,2310.800000011921
wYPFQqRG,3vck0q0pp8rxiiaq9ji6jar3xntn0d,3urfvvm169v92dyj1gcmsoibpe9zui,wYPFQqRG,2020-0188,2021-10-17,13:16:21,14:39:42,NA,incomplete,true,NA,true,0,3,NA,NA,NA,left,absent,NA,NA,n_l_058.jpg,blue,n_l_024.jpg,blue,within,NA,NaN,NA,right,3907.0999999940395,0,0,1496.4000000059605
wYPFQqRG,3vck0q0pp8rxiiaq9ji6jar3xntn0d,3urfvvm169v92dyj1gcmsoibpe9zui,wYPFQqRG,2020-0188,2021-10-17,13:16:21,14:39:42,NA,incomplete,true,NA,true,0,4,NA,NA,NA,left,absent,NA,NA,n_s_102.jpg,white,n_l_028.jpg,white,within,NA,NaN,NA,left,3941,1,1,1880.7000000178814
wYPFQqRG,3vck0q0pp8rxiiaq9ji6jar3xntn0d,3urfvvm169v92dyj1gcmsoibpe9zui,wYPFQqRG,2020-0188,2021-10-17,13:16:21,14:39:42,NA,incomplete,true,NA,true,0,5,NA,NA,NA,left,absent,NA,NA,n_s_090.jpg,yellow,m_s_055.jpg,purple,between,NA,NaN,NA,left,5254.800000011921,1,1,2074.7000000178814
wYPFQqRG,3vck0q0pp8rxiiaq9ji6jar3xntn0d,3urfvvm169v92dyj1gcmsoibpe9zui,wYPFQqRG,2020-0188,2021-10-17,13:16:21,14:39:42,NA,incomplete,true,NA,true,0,6,NA,NA,NA,right,absent,NA,NA,m_l_115.jpg,yellow,n_l_116.jpg,red,between,NA,NaN,NA,right,4450.700000017881,1,2,1996.7000000178814
wYPFQqRG,3vck0q0pp8rxiiaq9ji6jar3xntn0d,3urfvvm169v92dyj1gcmsoibpe9zui,wYPFQqRG,2020-0188,2021-10-17,13:16:21,14:39:42,NA,incomplete,true,NA,true,0,7,NA,NA,NA,right,absent,NA,NA,n_l_071.jpg,black,n_s_077.jpg,blue,between,NA,NaN,NA,left,4825.5,0,2,1433
wYPFQqRG,3vck0q0pp8rxiiaq9ji6jar3xntn0d,3urfvvm169v92dyj1gcmsoibpe9zui,wYPFQqRG,2020-0188,2021-10-17,13:16:21,14:39:42,NA,incomplete,true,NA,true,0,8,NA,NA,NA,right,present,NA,NA,m_l_082.jpg,black,n_l_073.jpg,black,within,NA,NaN,NA,right,5478.200000017881,1,1,3258.5
wYPFQqRG,3vck0q0pp8rxiiaq9ji6jar3xntn0d,3urfvvm169v92dyj1gcmsoibpe9zui,wYPFQqRG,2020-0188,2021-10-17,13:16:21,14:39:42,NA,incomplete,true,NA,true,0,9,NA,NA,NA,right,present,NA,NA,m_l_053.jpg,red,n_l_110.jpg,red,within,NA,NaN,NA,right,2286.9000000059605,1,3,2053.300000011921
wYPFQqRG,3vck0q0pp8rxiiaq9ji6jar3xntn0d,3urfvvm169v92dyj1gcmsoibpe9zui,wYPFQqRG,2020-0188,2021-10-17,13:16:21,14:39:42,NA,incomplete,true,NA,true,0,10,NA,NA,NA,left,present,NA,NA,m_s_066.jpg,purple,m_l_105.jpg,blue,between,NA,NaN,NA,left,4497,1,1,3994.5
wYPFQqRG,3vck0q0pp8rxiiaq9ji6jar3xntn0d,3urfvvm169v92dyj1gcmsoibpe9zui,wYPFQqRG,2020-0188,2021-10-17,13:16:21,14:39:42,NA,incomplete,false,true,NA,1,0,NA,orange,m_s_085.jpg,NA,NA,unpleasant,pleasant,NA,NA,NA,NA,NA,left,1777.59999999404,true,NA,NA,NA,NA,NA
wYPFQqRG,3vck0q0pp8rxiiaq9ji6jar3xntn0d,3urfvvm169v92dyj1gcmsoibpe9zui,wYPFQqRG,2020-0188,2021-10-17,13:16:21,14:39:42,NA,incomplete,false,true,NA,1,1,NA,orange,m_s_054.jpg,NA,NA,unpleasant,pleasant,NA,NA,NA,NA,NA,left,1764.30000001192,true,NA,NA,NA,NA,NA
wYPFQqRG,3vck0q0pp8rxiiaq9ji6jar3xntn0d,3urfvvm169v92dyj1gcmsoibpe9zui,wYPFQqRG,2020-0188,2021-10-17,13:16:21,14:39:42,NA,incomplete,false,true,NA,1,2,NA,orange,n_s_055.jpg,NA,NA,pleasant,unpleasant,NA,NA,NA,NA,NA,right,2060.80000001192,true,NA,NA,NA,NA,NA
wYPFQqRG,3vck0q0pp8rxiiaq9ji6jar3xntn0d,3urfvvm169v92dyj1gcmsoibpe9zui,wYPFQqRG,2020-0188,2021-10-17,13:16:21,14:39:42,NA,incomplete,false,true,NA,1,3,NA,orange,m_l_062.jpg,NA,NA,pleasant,unpleasant,NA,NA,NA,NA,NA,right,2104.79999998212,true,NA,NA,NA,NA,NA
wYPFQqRG,3vck0q0pp8rxiiaq9ji6jar3xntn0d,3urfvvm169v92dyj1gcmsoibpe9zui,wYPFQqRG,2020-0188,2021-10-17,13:16:21,14:39:42,NA,incomplete,false,true,NA,1,4,NA,orange,m_l_044.jpg,NA,NA,pleasant,unpleasant,NA,NA,NA,NA,NA,left,1754,true,NA,NA,NA,NA,NA
wYPFQqRG,3vck0q0pp8rxiiaq9ji6jar3xntn0d,3urfvvm169v92dyj1gcmsoibpe9zui,wYPFQqRG,2020-0188,2021-10-17,13:16:21,14:39:42,NA,incomplete,false,true,NA,1,5,NA,orange,n_s_084.jpg,NA,NA,unpleasant,pleasant,NA,NA,NA,NA,NA,left,2659.19999998808,true,NA,NA,NA,NA,NA
wYPFQqRG,3vck0q0pp8rxiiaq9ji6jar3xntn0d,3urfvvm169v92dyj1gcmsoibpe9zui,wYPFQqRG,2020-0188,2021-10-17,13:16:21,14:39:42,NA,incomplete,false,true,NA,1,6,NA,white,m_s_105.jpg,NA,NA,pleasant,unpleasant,NA,NA,NA,NA,NA,right,3039,true,NA,NA,NA,NA,NA
wYPFQqRG,3vck0q0pp8rxiiaq9ji6jar3xntn0d,3urfvvm169v92dyj1gcmsoibpe9zui,wYPFQqRG,2020-0188,2021-10-17,13:16:21,14:39:42,NA,incomplete,false,true,NA,1,7,NA,white,m_s_070.jpg,NA,NA,pleasant,unpleasant,NA,NA,NA,NA,NA,right,2442,true,NA,NA,NA,NA,NA
wYPFQqRG,3vck0q0pp8rxiiaq9ji6jar3xntn0d,3urfvvm169v92dyj1gcmsoibpe9zui,wYPFQqRG,2020-0188,2021-10-17,13:16:21,14:39:42,NA,incomplete,false,true,NA,1,8,NA,white,n_l_052.jpg,NA,NA,pleasant,unpleasant,NA,NA,NA,NA,NA,right,2651.90000000596,true,NA,NA,NA,NA,NA
wYPFQqRG,3vck0q0pp8rxiiaq9ji6jar3xntn0d,3urfvvm169v92dyj1gcmsoibpe9zui,wYPFQqRG,2020-0188,2021-10-17,13:16:21,14:39:42,NA,incomplete,false,true,NA,1,9,NA,white,n_s_111.jpg,NA,NA,pleasant,unpleasant,NA,NA,NA,NA,NA,right,1296.20000001788,true,NA,NA,NA,NA,NA
wYPFQqRG,3vck0q0pp8rxiiaq9ji6jar3xntn0d,3urfvvm169v92dyj1gcmsoibpe9zui,wYPFQqRG,2020-0188,2021-10-17,13:16:21,14:39:42,NA,incomplete,false,true,NA,1,10,NA,white,m_s_005.jpg,NA,NA,pleasant,unpleasant,NA,NA,NA,NA,NA,right,2429.59999999404,true,NA,NA,NA,NA,NA
wYPFQqRG,3vck0q0pp8rxiiaq9ji6jar3xntn0d,3urfvvm169v92dyj1gcmsoibpe9zui,wYPFQqRG,2020-0188,2021-10-17,13:16:21,14:39:42,NA,incomplete,false,true,NA,1,11,NA,white,m_s_035.jpg,NA,NA,unpleasant,pleasant,NA,NA,NA,NA,NA,right,2446.59999999404,true,NA,NA,NA,NA,NA
wYPFQqRG,3vck0q0pp8rxiiaq9ji6jar3xntn0d,3urfvvm169v92dyj1gcmsoibpe9zui,wYPFQqRG,2020-0188,2021-10-17,13:16:21,14:39:42,NA,incomplete,false,true,NA,1,12,NA,red,m_l_042.jpg,NA,NA,unpleasant,pleasant,NA,NA,NA,NA,NA,right,2345.30000001192,true,NA,NA,NA,NA,NA
wYPFQqRG,3vck0q0pp8rxiiaq9ji6jar3xntn0d,3urfvvm169v92dyj1gcmsoibpe9zui,wYPFQqRG,2020-0188,2021-10-17,13:16:21,14:39:42,NA,incomplete,false,true,NA,1,13,NA,red,m_s_052.jpg,NA,NA,pleasant,unpleasant,NA,NA,NA,NA,NA,right,2169.59999999404,true,NA,NA,NA,NA,NA
wYPFQqRG,3vck0q0pp8rxiiaq9ji6jar3xntn0d,3urfvvm169v92dyj1gcmsoibpe9zui,wYPFQqRG,2020-0188,2021-10-17,13:16:21,14:39:42,NA,incomplete,false,true,NA,1,14,NA,red,m_s_033.jpg,NA,NA,pleasant,unpleasant,NA,NA,NA,NA,NA,right,2568.40000000596,true,NA,NA,NA,NA,NA
wYPFQqRG,3vck0q0pp8rxiiaq9ji6jar3xntn0d,3urfvvm169v92dyj1gcmsoibpe9zui,wYPFQqRG,2020-0188,2021-10-17,13:16:21,14:39:42,NA,incomplete,false,true,NA,1,15,NA,red,n_s_101.jpg,NA,NA,pleasant,unpleasant,NA,NA,NA,NA,NA,left,2639.30000001192,true,NA,NA,NA,NA,NA
wYPFQqRG,3vck0q0pp8rxiiaq9ji6jar3xntn0d,3urfvvm169v92dyj1gcmsoibpe9zui,wYPFQqRG,2020-0188,2021-10-17,13:16:21,14:39:42,NA,incomplete,false,true,NA,1,16,NA,red,m_s_068.jpg,NA,NA,unpleasant,pleasant,NA,NA,NA,NA,NA,left,2838.59999999404,true,NA,NA,NA,NA,NA
wYPFQqRG,3vck0q0pp8rxiiaq9ji6jar3xntn0d,3urfvvm169v92dyj1gcmsoibpe9zui,wYPFQqRG,2020-0188,2021-10-17,13:16:21,14:39:42,NA,incomplete,false,true,NA,1,17,NA,red,m_l_061.jpg,NA,NA,pleasant,unpleasant,NA,NA,NA,NA,NA,right,2581,true,NA,NA,NA,NA,NA
wYPFQqRG,3vck0q0pp8rxiiaq9ji6jar3xntn0d,3urfvvm169v92dyj1gcmsoibpe9zui,wYPFQqRG,2020-0188,2021-10-17,13:16:21,14:39:42,NA,incomplete,false,true,NA,1,18,NA,yellow,m_l_076.jpg,NA,NA,pleasant,unpleasant,NA,NA,NA,NA,NA,right,2295.40000000596,true,NA,NA,NA,NA,NA
wYPFQqRG,3vck0q0pp8rxiiaq9ji6jar3xntn0d,3urfvvm169v92dyj1gcmsoibpe9zui,wYPFQqRG,2020-0188,2021-10-17,13:16:21,14:39:42,NA,incomplete,false,true,NA,1,19,NA,yellow,m_s_037.jpg,NA,NA,unpleasant,pleasant,NA,NA,NA,NA,NA,left,1984.09999999404,true,NA,NA,NA,NA,NA
wYPFQqRG,3vck0q0pp8rxiiaq9ji6jar3xntn0d,3urfvvm169v92dyj1gcmsoibpe9zui,wYPFQqRG,2020-0188,2021-10-17,13:16:21,14:39:42,NA,incomplete,false,true,NA,1,20,NA,yellow,m_s_051.jpg,NA,NA,unpleasant,pleasant,NA,NA,NA,NA,NA,left,2891.19999998808,true,NA,NA,NA,NA,NA
wYPFQqRG,3vck0q0pp8rxiiaq9ji6jar3xntn0d,3urfvvm169v92dyj1gcmsoibpe9zui,wYPFQqRG,2020-0188,2021-10-17,13:16:21,14:39:42,NA,incomplete,false,true,NA,1,21,NA,yellow,m_s_106.jpg,NA,NA,unpleasant,pleasant,NA,NA,NA,NA,NA,left,3146.70000001788,true,NA,NA,NA,NA,NA
wYPFQqRG,3vck0q0pp8rxiiaq9ji6jar3xntn0d,3urfvvm169v92dyj1gcmsoibpe9zui,wYPFQqRG,2020-0188,2021-10-17,13:16:21,14:39:42,NA,incomplete,false,true,NA,1,22,NA,yellow,n_l_008.jpg,NA,NA,pleasant,unpleasant,NA,NA,NA,NA,NA,right,1545.90000000596,true,NA,NA,NA,NA,NA
wYPFQqRG,3vck0q0pp8rxiiaq9ji6jar3xntn0d,3urfvvm169v92dyj1gcmsoibpe9zui,wYPFQqRG,2020-0188,2021-10-17,13:16:21,14:39:42,NA,incomplete,false,true,NA,1,23,NA,yellow,m_s_036.jpg,NA,NA,pleasant,unpleasant,NA,NA,NA,NA,NA,right,1553.70000001788,true,NA,NA,NA,NA,NA
wYPFQqRG,3vck0q0pp8rxiiaq9ji6jar3xntn0d,3urfvvm169v92dyj1gcmsoibpe9zui,wYPFQqRG,2020-0188,2021-10-17,13:16:21,14:39:42,NA,incomplete,false,true,NA,1,24,NA,green,n_s_112.jpg,NA,NA,pleasant,unpleasant,NA,NA,NA,NA,NA,left,1914.40000000596,true,NA,NA,NA,NA,NA
wYPFQqRG,3vck0q0pp8rxiiaq9ji6jar3xntn0d,3urfvvm169v92dyj1gcmsoibpe9zui,wYPFQqRG,2020-0188,2021-10-17,13:16:21,14:39:42,NA,incomplete,false,true,NA,1,25,NA,green,m_s_082.jpg,NA,NA,pleasant,unpleasant,NA,NA,NA,NA,NA,right,2888.79999998212,true,NA,NA,NA,NA,NA
wYPFQqRG,3vck0q0pp8rxiiaq9ji6jar3xntn0d,3urfvvm169v92dyj1gcmsoibpe9zui,wYPFQqRG,2020-0188,2021-10-17,13:16:21,14:39:42,NA,incomplete,false,true,NA,1,26,NA,green,m_l_066.jpg,NA,NA,unpleasant,pleasant,NA,NA,NA,NA,NA,left,2043.5,true,NA,NA,NA,NA,NA
wYPFQqRG,3vck0q0pp8rxiiaq9ji6jar3xntn0d,3urfvvm169v92dyj1gcmsoibpe9zui,wYPFQqRG,2020-0188,2021-10-17,13:16:21,14:39:42,NA,incomplete,false,true,NA,1,27,NA,green,n_l_090.jpg,NA,NA,pleasant,unpleasant,NA,NA,NA,NA,NA,right,1833.5,true,NA,NA,NA,NA,NA
wYPFQqRG,3vck0q0pp8rxiiaq9ji6jar3xntn0d,3urfvvm169v92dyj1gcmsoibpe9zui,wYPFQqRG,2020-0188,2021-10-17,13:16:21,14:39:42,NA,incomplete,false,true,NA,1,28,NA,green,n_l_061.jpg,NA,NA,pleasant,unpleasant,NA,NA,NA,NA,NA,right,1616.69999998808,true,NA,NA,NA,NA,NA
wYPFQqRG,3vck0q0pp8rxiiaq9ji6jar3xntn0d,3urfvvm169v92dyj1gcmsoibpe9zui,wYPFQqRG,2020-0188,2021-10-17,13:16:21,14:39:42,NA,incomplete,false,true,NA,1,29,NA,green,m_l_077.jpg,NA,NA,pleasant,unpleasant,NA,NA,NA,NA,NA,right,1984.69999998808,true,NA,NA,NA,NA,NA
wYPFQqRG,3vck0q0pp8rxiiaq9ji6jar3xntn0d,3urfvvm169v92dyj1gcmsoibpe9zui,wYPFQqRG,2020-0188,2021-10-17,13:16:21,14:39:42,NA,incomplete,false,true,NA,1,30,NA,brown,n_l_078.jpg,NA,NA,unpleasant,pleasant,NA,NA,NA,NA,NA,right,1149.29999998212,true,NA,NA,NA,NA,NA
wYPFQqRG,3vck0q0pp8rxiiaq9ji6jar3xntn0d,3urfvvm169v92dyj1gcmsoibpe9zui,wYPFQqRG,2020-0188,2021-10-17,13:16:21,14:39:42,NA,incomplete,false,true,NA,1,31,NA,brown,n_s_040.jpg,NA,NA,unpleasant,pleasant,NA,NA,NA,NA,NA,right,2483.19999998808,true,NA,NA,NA,NA,NA
wYPFQqRG,3vck0q0pp8rxiiaq9ji6jar3xntn0d,3urfvvm169v92dyj1gcmsoibpe9zui,wYPFQqRG,2020-0188,2021-10-17,13:16:21,14:39:42,NA,incomplete,false,true,NA,1,32,NA,brown,n_s_028.jpg,NA,NA,unpleasant,pleasant,NA,NA,NA,NA,NA,left,2599.90000000596,true,NA,NA,NA,NA,NA
wYPFQqRG,3vck0q0pp8rxiiaq9ji6jar3xntn0d,3urfvvm169v92dyj1gcmsoibpe9zui,wYPFQqRG,2020-0188,2021-10-17,13:16:21,14:39:42,NA,incomplete,false,true,NA,1,33,NA,brown,m_l_096.jpg,NA,NA,unpleasant,pleasant,NA,NA,NA,NA,NA,left,1977.70000001788,true,NA,NA,NA,NA,NA
wYPFQqRG,3vck0q0pp8rxiiaq9ji6jar3xntn0d,3urfvvm169v92dyj1gcmsoibpe9zui,wYPFQqRG,2020-0188,2021-10-17,13:16:21,14:39:42,NA,incomplete,false,true,NA,1,34,NA,brown,m_l_089.jpg,NA,NA,pleasant,unpleasant,NA,NA,NA,NA,NA,left,1785.80000001192,true,NA,NA,NA,NA,NA
wYPFQqRG,3vck0q0pp8rxiiaq9ji6jar3xntn0d,3urfvvm169v92dyj1gcmsoibpe9zui,wYPFQqRG,2020-0188,2021-10-17,13:16:21,14:39:42,NA,incomplete,false,true,NA,1,35,NA,brown,m_s_004.jpg,NA,NA,unpleasant,pleasant,NA,NA,NA,NA,NA,left,3039.5,true,NA,NA,NA,NA,NA
wYPFQqRG,3vck0q0pp8rxiiaq9ji6jar3xntn0d,3urfvvm169v92dyj1gcmsoibpe9zui,wYPFQqRG,2020-0188,2021-10-17,13:16:21,14:39:42,NA,incomplete,false,NA,true,1,0,NA,NA,NA,left,absent,NA,NA,m_l_044.jpg,orange,n_l_052.jpg,white,between,NA,NaN,NA,left,3602,1,1,2482.2999999821186
wYPFQqRG,3vck0q0pp8rxiiaq9ji6jar3xntn0d,3urfvvm169v92dyj1gcmsoibpe9zui,wYPFQqRG,2020-0188,2021-10-17,13:16:21,14:39:42,NA,incomplete,false,NA,true,1,1,NA,NA,NA,left,absent,NA,NA,m_s_005.jpg,white,m_s_033.jpg,red,between,NA,NaN,NA,right,3006.800000011921,0,1,4182.299999982119
wYPFQqRG,3vck0q0pp8rxiiaq9ji6jar3xntn0d,3urfvvm169v92dyj1gcmsoibpe9zui,wYPFQqRG,2020-0188,2021-10-17,13:16:21,14:39:42,NA,incomplete,false,NA,true,1,2,NA,NA,NA,left,absent,NA,NA,m_s_052.jpg,red,m_l_061.jpg,red,within,NA,NaN,NA,right,6981.0999999940395,0,1,1470.699999988079
wYPFQqRG,3vck0q0pp8rxiiaq9ji6jar3xntn0d,3urfvvm169v92dyj1gcmsoibpe9zui,wYPFQqRG,2020-0188,2021-10-17,13:16:21,14:39:42,NA,incomplete,false,NA,true,1,3,NA,NA,NA,left,absent,NA,NA,m_s_082.jpg,green,m_l_077.jpg,green,within,NA,NaN,NA,left,5382.5,1,1,1470.800000011921
wYPFQqRG,3vck0q0pp8rxiiaq9ji6jar3xntn0d,3urfvvm169v92dyj1gcmsoibpe9zui,wYPFQqRG,2020-0188,2021-10-17,13:16:21,14:39:42,NA,incomplete,false,NA,true,1,4,NA,NA,NA,left,absent,NA,NA,n_l_008.jpg,yellow,m_l_066.jpg,green,between,NA,NaN,NA,left,2920.7999999821186,1,2,1535.199999988079
wYPFQqRG,3vck0q0pp8rxiiaq9ji6jar3xntn0d,3urfvvm169v92dyj1gcmsoibpe9zui,wYPFQqRG,2020-0188,2021-10-17,13:16:21,14:39:42,NA,incomplete,false,NA,true,1,5,NA,NA,NA,right,absent,NA,NA,n_s_084.jpg,orange,m_s_054.jpg,orange,within,NA,NaN,NA,right,3007.0999999940395,1,0,1883.800000011921
wYPFQqRG,3vck0q0pp8rxiiaq9ji6jar3xntn0d,3urfvvm169v92dyj1gcmsoibpe9zui,wYPFQqRG,2020-0188,2021-10-17,13:16:21,14:39:42,NA,incomplete,false,NA,true,1,6,NA,NA,NA,right,absent,NA,NA,m_s_004.jpg,brown,n_s_040.jpg,brown,within,NA,NaN,NA,right,3196.7999999821186,1,3,1636.9000000059605
wYPFQqRG,3vck0q0pp8rxiiaq9ji6jar3xntn0d,3urfvvm169v92dyj1gcmsoibpe9zui,wYPFQqRG,2020-0188,2021-10-17,13:16:21,14:39:42,NA,incomplete,false,NA,true,1,7,NA,NA,NA,left,absent,NA,NA,m_s_037.jpg,yellow,m_s_036.jpg,yellow,within,NA,NaN,NA,right,3406.399999976158,0,2,2765.0999999940395
wYPFQqRG,3vck0q0pp8rxiiaq9ji6jar3xntn0d,3urfvvm169v92dyj1gcmsoibpe9zui,wYPFQqRG,2020-0188,2021-10-17,13:16:21,14:39:42,NA,incomplete,false,NA,true,1,8,NA,NA,NA,left,absent,NA,NA,n_l_061.jpg,green,n_s_028.jpg,brown,between,NA,NaN,NA,left,4677,1,2,2506.7000000178814
wYPFQqRG,3vck0q0pp8rxiiaq9ji6jar3xntn0d,3urfvvm169v92dyj1gcmsoibpe9zui,wYPFQqRG,2020-0188,2021-10-17,13:16:21,14:39:42,NA,incomplete,false,NA,true,1,9,NA,NA,NA,left,absent,NA,NA,m_s_070.jpg,white,m_s_035.jpg,white,within,NA,NaN,NA,left,4575.5,1,1,1473.300000011921
wYPFQqRG,3vck0q0pp8rxiiaq9ji6jar3xntn0d,3urfvvm169v92dyj1gcmsoibpe9zui,wYPFQqRG,2020-0188,2021-10-17,13:16:21,14:39:42,NA,incomplete,false,NA,true,1,10,NA,NA,NA,left,absent,NA,NA,m_s_068.jpg,red,m_s_051.jpg,yellow,between,NA,NaN,NA,left,2875.199999988079,1,1,1197.300000011921
wYPFQqRG,3vck0q0pp8rxiiaq9ji6jar3xntn0d,3urfvvm169v92dyj1gcmsoibpe9zui,wYPFQqRG,2020-0188,2021-10-17,13:16:21,14:39:42,NA,incomplete,false,true,NA,2,0,NA,orange,m_s_108.jpg,NA,NA,unpleasant,pleasant,NA,NA,NA,NA,NA,right,3421,true,NA,NA,NA,NA,NA
wYPFQqRG,3vck0q0pp8rxiiaq9ji6jar3xntn0d,3urfvvm169v92dyj1gcmsoibpe9zui,wYPFQqRG,2020-0188,2021-10-17,13:16:21,14:39:42,NA,incomplete,false,true,NA,2,1,NA,orange,m_s_113.jpg,NA,NA,pleasant,unpleasant,NA,NA,NA,NA,NA,left,2413.90000000596,true,NA,NA,NA,NA,NA
wYPFQqRG,3vck0q0pp8rxiiaq9ji6jar3xntn0d,3urfvvm169v92dyj1gcmsoibpe9zui,wYPFQqRG,2020-0188,2021-10-17,13:16:21,14:39:42,NA,incomplete,false,true,NA,2,2,NA,orange,m_l_045.jpg,NA,NA,pleasant,unpleasant,NA,NA,NA,NA,NA,left,2051.69999998808,true,NA,NA,NA,NA,NA
wYPFQqRG,3vck0q0pp8rxiiaq9ji6jar3xntn0d,3urfvvm169v92dyj1gcmsoibpe9zui,wYPFQqRG,2020-0188,2021-10-17,13:16:21,14:39:42,NA,incomplete,false,true,NA,2,3,NA,orange,m_l_055.jpg,NA,NA,pleasant,unpleasant,NA,NA,NA,NA,NA,left,3021.5,true,NA,NA,NA,NA,NA
wYPFQqRG,3vck0q0pp8rxiiaq9ji6jar3xntn0d,3urfvvm169v92dyj1gcmsoibpe9zui,wYPFQqRG,2020-0188,2021-10-17,13:16:21,14:39:42,NA,incomplete,false,true,NA,2,4,NA,orange,m_s_080.jpg,NA,NA,pleasant,unpleasant,NA,NA,NA,NA,NA,left,1390.59999999404,true,NA,NA,NA,NA,NA
wYPFQqRG,3vck0q0pp8rxiiaq9ji6jar3xntn0d,3urfvvm169v92dyj1gcmsoibpe9zui,wYPFQqRG,2020-0188,2021-10-17,13:16:21,14:39:42,NA,incomplete,false,true,NA,2,5,NA,orange,n_l_114.jpg,NA,NA,pleasant,unpleasant,NA,NA,NA,NA,NA,right,2485.59999999404,true,NA,NA,NA,NA,NA
wYPFQqRG,3vck0q0pp8rxiiaq9ji6jar3xntn0d,3urfvvm169v92dyj1gcmsoibpe9zui,wYPFQqRG,2020-0188,2021-10-17,13:16:21,14:39:42,NA,incomplete,false,true,NA,2,6,NA,brown,m_l_037.jpg,NA,NA,unpleasant,pleasant,NA,NA,NA,NA,NA,left,2373.30000001192,true,NA,NA,NA,NA,NA
wYPFQqRG,3vck0q0pp8rxiiaq9ji6jar3xntn0d,3urfvvm169v92dyj1gcmsoibpe9zui,wYPFQqRG,2020-0188,2021-10-17,13:16:21,14:39:42,NA,incomplete,false,true,NA,2,7,NA,brown,n_s_110.jpg,NA,NA,pleasant,unpleasant,NA,NA,NA,NA,NA,left,2941.79999998212,true,NA,NA,NA,NA,NA
wYPFQqRG,3vck0q0pp8rxiiaq9ji6jar3xntn0d,3urfvvm169v92dyj1gcmsoibpe9zui,wYPFQqRG,2020-0188,2021-10-17,13:16:21,14:39:42,NA,incomplete,false,true,NA,2,8,NA,brown,n_s_006.jpg,NA,NA,unpleasant,pleasant,NA,NA,NA,NA,NA,right,2461.09999999404,true,NA,NA,NA,NA,NA
wYPFQqRG,3vck0q0pp8rxiiaq9ji6jar3xntn0d,3urfvvm169v92dyj1gcmsoibpe9zui,wYPFQqRG,2020-0188,2021-10-17,13:16:21,14:39:42,NA,incomplete,false,true,NA,2,9,NA,brown,m_l_064.jpg,NA,NA,unpleasant,pleasant,NA,NA,NA,NA,NA,left,2060.59999999404,true,NA,NA,NA,NA,NA
wYPFQqRG,3vck0q0pp8rxiiaq9ji6jar3xntn0d,3urfvvm169v92dyj1gcmsoibpe9zui,wYPFQqRG,2020-0188,2021-10-17,13:16:21,14:39:42,NA,incomplete,false,true,NA,2,10,NA,brown,n_s_076.jpg,NA,NA,pleasant,unpleasant,NA,NA,NA,NA,NA,right,2108.40000000596,true,NA,NA,NA,NA,NA
wYPFQqRG,3vck0q0pp8rxiiaq9ji6jar3xntn0d,3urfvvm169v92dyj1gcmsoibpe9zui,wYPFQqRG,2020-0188,2021-10-17,13:16:21,14:39:42,NA,incomplete,false,true,NA,2,11,NA,brown,m_s_062.jpg,NA,NA,unpleasant,pleasant,NA,NA,NA,NA,NA,right,2969.20000001788,true,NA,NA,NA,NA,NA
wYPFQqRG,3vck0q0pp8rxiiaq9ji6jar3xntn0d,3urfvvm169v92dyj1gcmsoibpe9zui,wYPFQqRG,2020-0188,2021-10-17,13:16:21,14:39:42,NA,incomplete,false,true,NA,2,12,NA,red,m_s_093.jpg,NA,NA,pleasant,unpleasant,NA,NA,NA,NA,NA,right,2659.59999999404,true,NA,NA,NA,NA,NA
wYPFQqRG,3vck0q0pp8rxiiaq9ji6jar3xntn0d,3urfvvm169v92dyj1gcmsoibpe9zui,wYPFQqRG,2020-0188,2021-10-17,13:16:21,14:39:42,NA,incomplete,false,true,NA,2,13,NA,red,n_s_057.jpg,NA,NA,unpleasant,pleasant,NA,NA,NA,NA,NA,none,0,false,NA,NA,NA,NA,NA
wYPFQqRG,3vck0q0pp8rxiiaq9ji6jar3xntn0d,3urfvvm169v92dyj1gcmsoibpe9zui,wYPFQqRG,2020-0188,2021-10-17,13:16:21,14:39:42,NA,incomplete,false,true,NA,2,14,NA,red,n_l_106.jpg,NA,NA,unpleasant,pleasant,NA,NA,NA,NA,NA,left,1525.5,true,NA,NA,NA,NA,NA
wYPFQqRG,3vck0q0pp8rxiiaq9ji6jar3xntn0d,3urfvvm169v92dyj1gcmsoibpe9zui,wYPFQqRG,2020-0188,2021-10-17,13:16:21,14:39:42,NA,incomplete,false,true,NA,2,15,NA,red,n_l_069.jpg,NA,NA,pleasant,unpleasant,NA,NA,NA,NA,NA,right,2395.09999999404,true,NA,NA,NA,NA,NA
wYPFQqRG,3vck0q0pp8rxiiaq9ji6jar3xntn0d,3urfvvm169v92dyj1gcmsoibpe9zui,wYPFQqRG,2020-0188,2021-10-17,13:16:21,14:39:42,NA,incomplete,false,true,NA,2,16,NA,red,m_s_063.jpg,NA,NA,unpleasant,pleasant,NA,NA,NA,NA,NA,left,2349.19999998808,true,NA,NA,NA,NA,NA
wYPFQqRG,3vck0q0pp8rxiiaq9ji6jar3xntn0d,3urfvvm169v92dyj1gcmsoibpe9zui,wYPFQqRG,2020-0188,2021-10-17,13:16:21,14:39:42,NA,incomplete,false,true,NA,2,17,NA,red,n_s_083.jpg,NA,NA,unpleasant,pleasant,NA,NA,NA,NA,NA,left,1865.5,true,NA,NA,NA,NA,NA
wYPFQqRG,3vck0q0pp8rxiiaq9ji6jar3xntn0d,3urfvvm169v92dyj1gcmsoibpe9zui,wYPFQqRG,2020-0188,2021-10-17,13:16:21,14:39:42,NA,incomplete,false,true,NA,2,18,NA,blue,n_s_045.jpg,NA,NA,unpleasant,pleasant,NA,NA,NA,NA,NA,right,2263.90000000596,true,NA,NA,NA,NA,NA
wYPFQqRG,3vck0q0pp8rxiiaq9ji6jar3xntn0d,3urfvvm169v92dyj1gcmsoibpe9zui,wYPFQqRG,2020-0188,2021-10-17,13:16:21,14:39:42,NA,incomplete,false,true,NA,2,19,NA,blue,n_s_004.jpg,NA,NA,pleasant,unpleasant,NA,NA,NA,NA,NA,right,2018.09999999404,true,NA,NA,NA,NA,NA
wYPFQqRG,3vck0q0pp8rxiiaq9ji6jar3xntn0d,3urfvvm169v92dyj1gcmsoibpe9zui,wYPFQqRG,2020-0188,2021-10-17,13:16:21,14:39:42,NA,incomplete,false,true,NA,2,20,NA,blue,n_l_062.jpg,NA,NA,unpleasant,pleasant,NA,NA,NA,NA,NA,left,1689.5,true,NA,NA,NA,NA,NA
wYPFQqRG,3vck0q0pp8rxiiaq9ji6jar3xntn0d,3urfvvm169v92dyj1gcmsoibpe9zui,wYPFQqRG,2020-0188,2021-10-17,13:16:21,14:39:42,NA,incomplete,false,true,NA,2,21,NA,blue,n_l_117.jpg,NA,NA,unpleasant,pleasant,NA,NA,NA,NA,NA,left,2797.59999999404,true,NA,NA,NA,NA,NA
wYPFQqRG,3vck0q0pp8rxiiaq9ji6jar3xntn0d,3urfvvm169v92dyj1gcmsoibpe9zui,wYPFQqRG,2020-0188,2021-10-17,13:16:21,14:39:42,NA,incomplete,false,true,NA,2,22,NA,blue,n_s_059.jpg,NA,NA,pleasant,unpleasant,NA,NA,NA,NA,NA,right,1912.40000000596,true,NA,NA,NA,NA,NA
wYPFQqRG,3vck0q0pp8rxiiaq9ji6jar3xntn0d,3urfvvm169v92dyj1gcmsoibpe9zui,wYPFQqRG,2020-0188,2021-10-17,13:16:21,14:39:42,NA,incomplete,false,true,NA,2,23,NA,blue,n_s_100.jpg,NA,NA,pleasant,unpleasant,NA,NA,NA,NA,NA,left,2595.19999998808,true,NA,NA,NA,NA,NA
wYPFQqRG,3vck0q0pp8rxiiaq9ji6jar3xntn0d,3urfvvm169v92dyj1gcmsoibpe9zui,wYPFQqRG,2020-0188,2021-10-17,13:16:21,14:39:42,NA,incomplete,false,true,NA,2,24,NA,white,m_l_079.jpg,NA,NA,unpleasant,pleasant,NA,NA,NA,NA,NA,right,2111.5,true,NA,NA,NA,NA,NA
wYPFQqRG,3vck0q0pp8rxiiaq9ji6jar3xntn0d,3urfvvm169v92dyj1gcmsoibpe9zui,wYPFQqRG,2020-0188,2021-10-17,13:16:21,14:39:42,NA,incomplete,false,true,NA,2,25,NA,white,m_l_084.jpg,NA,NA,pleasant,unpleasant,NA,NA,NA,NA,NA,right,2099.5,true,NA,NA,NA,NA,NA
wYPFQqRG,3vck0q0pp8rxiiaq9ji6jar3xntn0d,3urfvvm169v92dyj1gcmsoibpe9zui,wYPFQqRG,2020-0188,2021-10-17,13:16:21,14:39:42,NA,incomplete,false,true,NA,2,26,NA,white,n_l_070.jpg,NA,NA,pleasant,unpleasant,NA,NA,NA,NA,NA,right,2369.69999998808,true,NA,NA,NA,NA,NA
wYPFQqRG,3vck0q0pp8rxiiaq9ji6jar3xntn0d,3urfvvm169v92dyj1gcmsoibpe9zui,wYPFQqRG,2020-0188,2021-10-17,13:16:21,14:39:42,NA,incomplete,false,true,NA,2,27,NA,white,n_l_080.jpg,NA,NA,pleasant,unpleasant,NA,NA,NA,NA,NA,right,1960.40000000596,true,NA,NA,NA,NA,NA
wYPFQqRG,3vck0q0pp8rxiiaq9ji6jar3xntn0d,3urfvvm169v92dyj1gcmsoibpe9zui,wYPFQqRG,2020-0188,2021-10-17,13:16:21,14:39:42,NA,incomplete,false,true,NA,2,28,NA,white,n_s_044.jpg,NA,NA,unpleasant,pleasant,NA,NA,NA,NA,NA,left,1495.40000000596,true,NA,NA,NA,NA,NA
wYPFQqRG,3vck0q0pp8rxiiaq9ji6jar3xntn0d,3urfvvm169v92dyj1gcmsoibpe9zui,wYPFQqRG,2020-0188,2021-10-17,13:16:21,14:39:42,NA,incomplete,false,true,NA,2,29,NA,white,n_s_091.jpg,NA,NA,unpleasant,pleasant,NA,NA,NA,NA,NA,left,1869.5,true,NA,NA,NA,NA,NA
wYPFQqRG,3vck0q0pp8rxiiaq9ji6jar3xntn0d,3urfvvm169v92dyj1gcmsoibpe9zui,wYPFQqRG,2020-0188,2021-10-17,13:16:21,14:39:42,NA,incomplete,false,true,NA,2,30,NA,yellow,n_s_088.jpg,NA,NA,unpleasant,pleasant,NA,NA,NA,NA,NA,left,1613.5,true,NA,NA,NA,NA,NA
wYPFQqRG,3vck0q0pp8rxiiaq9ji6jar3xntn0d,3urfvvm169v92dyj1gcmsoibpe9zui,wYPFQqRG,2020-0188,2021-10-17,13:16:21,14:39:42,NA,incomplete,false,true,NA,2,31,NA,yellow,m_s_039.jpg,NA,NA,unpleasant,pleasant,NA,NA,NA,NA,NA,right,2765.60000002384,true,NA,NA,NA,NA,NA
wYPFQqRG,3vck0q0pp8rxiiaq9ji6jar3xntn0d,3urfvvm169v92dyj1gcmsoibpe9zui,wYPFQqRG,2020-0188,2021-10-17,13:16:21,14:39:42,NA,incomplete,false,true,NA,2,32,NA,yellow,n_l_050.jpg,NA,NA,unpleasant,pleasant,NA,NA,NA,NA,NA,left,2452.19999998808,true,NA,NA,NA,NA,NA
wYPFQqRG,3vck0q0pp8rxiiaq9ji6jar3xntn0d,3urfvvm169v92dyj1gcmsoibpe9zui,wYPFQqRG,2020-0188,2021-10-17,13:16:21,14:39:42,NA,incomplete,false,true,NA,2,33,NA,yellow,n_l_066.jpg,NA,NA,pleasant,unpleasant,NA,NA,NA,NA,NA,right,1929.40000000596,true,NA,NA,NA,NA,NA
wYPFQqRG,3vck0q0pp8rxiiaq9ji6jar3xntn0d,3urfvvm169v92dyj1gcmsoibpe9zui,wYPFQqRG,2020-0188,2021-10-17,13:16:21,14:39:42,NA,incomplete,false,true,NA,2,34,NA,yellow,m_s_098.jpg,NA,NA,pleasant,unpleasant,NA,NA,NA,NA,NA,right,2022.20000001788,true,NA,NA,NA,NA,NA
wYPFQqRG,3vck0q0pp8rxiiaq9ji6jar3xntn0d,3urfvvm169v92dyj1gcmsoibpe9zui,wYPFQqRG,2020-0188,2021-10-17,13:16:21,14:39:42,NA,incomplete,false,true,NA,2,35,NA,yellow,n_l_082.jpg,NA,NA,pleasant,unpleasant,NA,NA,NA,NA,NA,right,1773.09999999404,true,NA,NA,NA,NA,NA
wYPFQqRG,3vck0q0pp8rxiiaq9ji6jar3xntn0d,3urfvvm169v92dyj1gcmsoibpe9zui,wYPFQqRG,2020-0188,2021-10-17,13:16:21,14:39:42,NA,incomplete,false,NA,true,2,0,NA,NA,NA,left,absent,NA,NA,n_s_059.jpg,blue,n_l_070.jpg,white,between,NA,NaN,NA,right,10654.399999976158,0,2,4016.7999999821186
wYPFQqRG,3vck0q0pp8rxiiaq9ji6jar3xntn0d,3urfvvm169v92dyj1gcmsoibpe9zui,wYPFQqRG,2020-0188,2021-10-17,13:16:21,14:39:42,NA,incomplete,false,NA,true,2,1,NA,NA,NA,right,absent,NA,NA,n_s_091.jpg,white,m_l_084.jpg,white,within,NA,NaN,NA,right,3900,1,2,2130.5
wYPFQqRG,3vck0q0pp8rxiiaq9ji6jar3xntn0d,3urfvvm169v92dyj1gcmsoibpe9zui,wYPFQqRG,2020-0188,2021-10-17,13:16:21,14:39:42,NA,incomplete,false,NA,true,2,2,NA,NA,NA,left,absent,NA,NA,n_s_110.jpg,brown,m_s_062.jpg,brown,within,NA,NaN,NA,left,5858.9000000059605,1,2,2042.8999999761581
wYPFQqRG,3vck0q0pp8rxiiaq9ji6jar3xntn0d,3urfvvm169v92dyj1gcmsoibpe9zui,wYPFQqRG,2020-0188,2021-10-17,13:16:21,14:39:42,NA,incomplete,false,NA,true,2,3,NA,NA,NA,right,absent,NA,NA,n_l_082.jpg,yellow,m_s_039.jpg,yellow,within,NA,NaN,NA,right,2693,1,2,1331.199999988079
wYPFQqRG,3vck0q0pp8rxiiaq9ji6jar3xntn0d,3urfvvm169v92dyj1gcmsoibpe9zui,wYPFQqRG,2020-0188,2021-10-17,13:16:21,14:39:42,NA,incomplete,false,NA,true,2,4,NA,NA,NA,left,absent,NA,NA,n_s_057.jpg,red,n_s_083.jpg,red,within,NA,NaN,NA,right,4966.9000000059605,0,1,1988.699999988079
wYPFQqRG,3vck0q0pp8rxiiaq9ji6jar3xntn0d,3urfvvm169v92dyj1gcmsoibpe9zui,wYPFQqRG,2020-0188,2021-10-17,13:16:21,14:39:42,NA,incomplete,false,NA,true,2,5,NA,NA,NA,left,absent,NA,NA,n_s_076.jpg,brown,n_l_106.jpg,red,between,NA,NaN,NA,right,4862.5999999940395,0,2,1283.199999988079
wYPFQqRG,3vck0q0pp8rxiiaq9ji6jar3xntn0d,3urfvvm169v92dyj1gcmsoibpe9zui,wYPFQqRG,2020-0188,2021-10-17,13:16:21,14:39:42,NA,incomplete,false,NA,true,2,6,NA,NA,NA,right,absent,NA,NA,n_s_100.jpg,blue,n_s_004.jpg,blue,within,NA,NaN,NA,left,4910.700000017881,0,1,1676.800000011921
wYPFQqRG,3vck0q0pp8rxiiaq9ji6jar3xntn0d,3urfvvm169v92dyj1gcmsoibpe9zui,wYPFQqRG,2020-0188,2021-10-17,13:16:21,14:39:42,NA,incomplete,false,NA,true,2,7,NA,NA,NA,left,absent,NA,NA,m_s_080.jpg,orange,n_s_006.jpg,brown,between,NA,NaN,NA,left,1997,1,2,2209.2000000178814
wYPFQqRG,3vck0q0pp8rxiiaq9ji6jar3xntn0d,3urfvvm169v92dyj1gcmsoibpe9zui,wYPFQqRG,2020-0188,2021-10-17,13:16:21,14:39:42,NA,incomplete,false,NA,true,2,8,NA,NA,NA,right,absent,NA,NA,n_l_062.jpg,blue,m_s_063.jpg,red,between,NA,NaN,NA,left,3877.2000000178814,0,3,1501.699999988079
wYPFQqRG,3vck0q0pp8rxiiaq9ji6jar3xntn0d,3urfvvm169v92dyj1gcmsoibpe9zui,wYPFQqRG,2020-0188,2021-10-17,13:16:21,14:39:42,NA,incomplete,false,NA,true,2,9,NA,NA,NA,right,absent,NA,NA,n_l_050.jpg,yellow,n_s_044.jpg,white,between,NA,NaN,NA,left,4996.5999999940395,0,2,1274.5
wYPFQqRG,3vck0q0pp8rxiiaq9ji6jar3xntn0d,3urfvvm169v92dyj1gcmsoibpe9zui,wYPFQqRG,2020-0188,2021-10-17,13:16:21,14:39:42,NA,incomplete,false,NA,true,2,10,NA,NA,NA,left,absent,NA,NA,m_s_113.jpg,orange,n_l_114.jpg,orange,within,NA,NaN,NA,left,3485,1,3,1057.0999999940395
wYPFQqRG,3vck0q0pp8rxiiaq9ji6jar3xntn0d,3urfvvm169v92dyj1gcmsoibpe9zui,wYPFQqRG,2020-0188,2021-10-17,13:16:21,14:39:42,NA,incomplete,false,true,NA,3,0,NA,gray,m_s_112.jpg,NA,NA,pleasant,unpleasant,NA,NA,NA,NA,NA,right,1581.59999999404,true,NA,NA,NA,NA,NA
wYPFQqRG,3vck0q0pp8rxiiaq9ji6jar3xntn0d,3urfvvm169v92dyj1gcmsoibpe9zui,wYPFQqRG,2020-0188,2021-10-17,13:16:21,14:39:42,NA,incomplete,false,true,NA,3,1,NA,gray,m_s_079.jpg,NA,NA,unpleasant,pleasant,NA,NA,NA,NA,NA,left,1806.59999999404,true,NA,NA,NA,NA,NA
wYPFQqRG,3vck0q0pp8rxiiaq9ji6jar3xntn0d,3urfvvm169v92dyj1gcmsoibpe9zui,wYPFQqRG,2020-0188,2021-10-17,13:16:21,14:39:42,NA,incomplete,false,true,NA,3,2,NA,gray,m_s_014.jpg,NA,NA,pleasant,unpleasant,NA,NA,NA,NA,NA,right,1480.09999999404,true,NA,NA,NA,NA,NA
wYPFQqRG,3vck0q0pp8rxiiaq9ji6jar3xntn0d,3urfvvm169v92dyj1gcmsoibpe9zui,wYPFQqRG,2020-0188,2021-10-17,13:16:21,14:39:42,NA,incomplete,false,true,NA,3,3,NA,gray,n_l_076.jpg,NA,NA,unpleasant,pleasant,NA,NA,NA,NA,NA,left,1690,true,NA,NA,NA,NA,NA
wYPFQqRG,3vck0q0pp8rxiiaq9ji6jar3xntn0d,3urfvvm169v92dyj1gcmsoibpe9zui,wYPFQqRG,2020-0188,2021-10-17,13:16:21,14:39:42,NA,incomplete,false,true,NA,3,4,NA,gray,n_s_108.jpg,NA,NA,pleasant,unpleasant,NA,NA,NA,NA,NA,right,1923.59999999404,true,NA,NA,NA,NA,NA
wYPFQqRG,3vck0q0pp8rxiiaq9ji6jar3xntn0d,3urfvvm169v92dyj1gcmsoibpe9zui,wYPFQqRG,2020-0188,2021-10-17,13:16:21,14:39:42,NA,incomplete,false,true,NA,3,5,NA,gray,m_l_016.jpg,NA,NA,pleasant,unpleasant,NA,NA,NA,NA,NA,right,2358.19999998808,true,NA,NA,NA,NA,NA
wYPFQqRG,3vck0q0pp8rxiiaq9ji6jar3xntn0d,3urfvvm169v92dyj1gcmsoibpe9zui,wYPFQqRG,2020-0188,2021-10-17,13:16:21,14:39:42,NA,incomplete,false,true,NA,3,6,NA,blue,m_l_036.jpg,NA,NA,pleasant,unpleasant,NA,NA,NA,NA,NA,left,2627.30000001192,true,NA,NA,NA,NA,NA
wYPFQqRG,3vck0q0pp8rxiiaq9ji6jar3xntn0d,3urfvvm169v92dyj1gcmsoibpe9zui,wYPFQqRG,2020-0188,2021-10-17,13:16:21,14:39:42,NA,incomplete,false,true,NA,3,7,NA,blue,n_s_002.jpg,NA,NA,unpleasant,pleasant,NA,NA,NA,NA,NA,right,1708.10000002384,true,NA,NA,NA,NA,NA
wYPFQqRG,3vck0q0pp8rxiiaq9ji6jar3xntn0d,3urfvvm169v92dyj1gcmsoibpe9zui,wYPFQqRG,2020-0188,2021-10-17,13:16:21,14:39:42,NA,incomplete,false,true,NA,3,8,NA,blue,n_l_022.jpg,NA,NA,unpleasant,pleasant,NA,NA,NA,NA,NA,left,1345,true,NA,NA,NA,NA,NA
wYPFQqRG,3vck0q0pp8rxiiaq9ji6jar3xntn0d,3urfvvm169v92dyj1gcmsoibpe9zui,wYPFQqRG,2020-0188,2021-10-17,13:16:21,14:39:42,NA,incomplete,false,true,NA,3,9,NA,blue,n_s_012.jpg,NA,NA,pleasant,unpleasant,NA,NA,NA,NA,NA,right,1951.19999998808,true,NA,NA,NA,NA,NA
wYPFQqRG,3vck0q0pp8rxiiaq9ji6jar3xntn0d,3urfvvm169v92dyj1gcmsoibpe9zui,wYPFQqRG,2020-0188,2021-10-17,13:16:21,14:39:42,NA,incomplete,false,true,NA,3,10,NA,blue,n_s_106.jpg,NA,NA,pleasant,unpleasant,NA,NA,NA,NA,NA,right,1468.09999999404,true,NA,NA,NA,NA,NA
wYPFQqRG,3vck0q0pp8rxiiaq9ji6jar3xntn0d,3urfvvm169v92dyj1gcmsoibpe9zui,wYPFQqRG,2020-0188,2021-10-17,13:16:21,14:39:42,NA,incomplete,false,true,NA,3,11,NA,blue,m_l_049.jpg,NA,NA,unpleasant,pleasant,NA,NA,NA,NA,NA,right,2010.5,true,NA,NA,NA,NA,NA
wYPFQqRG,3vck0q0pp8rxiiaq9ji6jar3xntn0d,3urfvvm169v92dyj1gcmsoibpe9zui,wYPFQqRG,2020-0188,2021-10-17,13:16:21,14:39:42,NA,incomplete,false,true,NA,3,12,NA,brown,m_s_110.jpg,NA,NA,pleasant,unpleasant,NA,NA,NA,NA,NA,left,2416.69999998808,true,NA,NA,NA,NA,NA
wYPFQqRG,3vck0q0pp8rxiiaq9ji6jar3xntn0d,3urfvvm169v92dyj1gcmsoibpe9zui,wYPFQqRG,2020-0188,2021-10-17,13:16:21,14:39:42,NA,incomplete,false,true,NA,3,13,NA,brown,m_l_022.jpg,NA,NA,unpleasant,pleasant,NA,NA,NA,NA,NA,right,1901.40000000596,true,NA,NA,NA,NA,NA
wYPFQqRG,3vck0q0pp8rxiiaq9ji6jar3xntn0d,3urfvvm169v92dyj1gcmsoibpe9zui,wYPFQqRG,2020-0188,2021-10-17,13:16:21,14:39:42,NA,incomplete,false,true,NA,3,14,NA,brown,m_l_017.jpg,NA,NA,pleasant,unpleasant,NA,NA,NA,NA,NA,left,1394.29999998212,true,NA,NA,NA,NA,NA
wYPFQqRG,3vck0q0pp8rxiiaq9ji6jar3xntn0d,3urfvvm169v92dyj1gcmsoibpe9zui,wYPFQqRG,2020-0188,2021-10-17,13:16:21,14:39:42,NA,incomplete,false,true,NA,3,15,NA,brown,m_s_077.jpg,NA,NA,pleasant,unpleasant,NA,NA,NA,NA,NA,right,1829.59999999404,true,NA,NA,NA,NA,NA
wYPFQqRG,3vck0q0pp8rxiiaq9ji6jar3xntn0d,3urfvvm169v92dyj1gcmsoibpe9zui,wYPFQqRG,2020-0188,2021-10-17,13:16:21,14:39:42,NA,incomplete,false,true,NA,3,16,NA,brown,m_l_018.jpg,NA,NA,unpleasant,pleasant,NA,NA,NA,NA,NA,left,2534.09999999404,true,NA,NA,NA,NA,NA
wYPFQqRG,3vck0q0pp8rxiiaq9ji6jar3xntn0d,3urfvvm169v92dyj1gcmsoibpe9zui,wYPFQqRG,2020-0188,2021-10-17,13:16:21,14:39:42,NA,incomplete,false,true,NA,3,17,NA,brown,m_l_103.jpg,NA,NA,unpleasant,pleasant,NA,NA,NA,NA,NA,left,2293.09999999404,true,NA,NA,NA,NA,NA
wYPFQqRG,3vck0q0pp8rxiiaq9ji6jar3xntn0d,3urfvvm169v92dyj1gcmsoibpe9zui,wYPFQqRG,2020-0188,2021-10-17,13:16:21,14:39:42,NA,incomplete,false,true,NA,3,18,NA,purple,m_l_033.jpg,NA,NA,unpleasant,pleasant,NA,NA,NA,NA,NA,left,2601.59999999404,true,NA,NA,NA,NA,NA
wYPFQqRG,3vck0q0pp8rxiiaq9ji6jar3xntn0d,3urfvvm169v92dyj1gcmsoibpe9zui,wYPFQqRG,2020-0188,2021-10-17,13:16:21,14:39:42,NA,incomplete,false,true,NA,3,19,NA,purple,m_l_006.jpg,NA,NA,unpleasant,pleasant,NA,NA,NA,NA,NA,right,1476.20000001788,true,NA,NA,NA,NA,NA
wYPFQqRG,3vck0q0pp8rxiiaq9ji6jar3xntn0d,3urfvvm169v92dyj1gcmsoibpe9zui,wYPFQqRG,2020-0188,2021-10-17,13:16:21,14:39:42,NA,incomplete,false,true,NA,3,20,NA,purple,n_l_040.jpg,NA,NA,pleasant,unpleasant,NA,NA,NA,NA,NA,right,1573.70000001788,true,NA,NA,NA,NA,NA
wYPFQqRG,3vck0q0pp8rxiiaq9ji6jar3xntn0d,3urfvvm169v92dyj1gcmsoibpe9zui,wYPFQqRG,2020-0188,2021-10-17,13:16:21,14:39:42,NA,incomplete,false,true,NA,3,21,NA,purple,m_l_087.jpg,NA,NA,pleasant,unpleasant,NA,NA,NA,NA,NA,right,2447,true,NA,NA,NA,NA,NA
wYPFQqRG,3vck0q0pp8rxiiaq9ji6jar3xntn0d,3urfvvm169v92dyj1gcmsoibpe9zui,wYPFQqRG,2020-0188,2021-10-17,13:16:21,14:39:42,NA,incomplete,false,true,NA,3,22,NA,purple,m_l_104.jpg,NA,NA,unpleasant,pleasant,NA,NA,NA,NA,NA,right,3040,true,NA,NA,NA,NA,NA
wYPFQqRG,3vck0q0pp8rxiiaq9ji6jar3xntn0d,3urfvvm169v92dyj1gcmsoibpe9zui,wYPFQqRG,2020-0188,2021-10-17,13:16:21,14:39:42,NA,incomplete,false,true,NA,3,23,NA,purple,m_s_097.jpg,NA,NA,pleasant,unpleasant,NA,NA,NA,NA,NA,right,1561.89999997616,true,NA,NA,NA,NA,NA
wYPFQqRG,3vck0q0pp8rxiiaq9ji6jar3xntn0d,3urfvvm169v92dyj1gcmsoibpe9zui,wYPFQqRG,2020-0188,2021-10-17,13:16:21,14:39:42,NA,incomplete,false,true,NA,3,24,NA,red,n_s_107.jpg,NA,NA,pleasant,unpleasant,NA,NA,NA,NA,NA,right,2131.30000001192,true,NA,NA,NA,NA,NA
wYPFQqRG,3vck0q0pp8rxiiaq9ji6jar3xntn0d,3urfvvm169v92dyj1gcmsoibpe9zui,wYPFQqRG,2020-0188,2021-10-17,13:16:21,14:39:42,NA,incomplete,false,true,NA,3,25,NA,red,n_s_001.jpg,NA,NA,pleasant,unpleasant,NA,NA,NA,NA,NA,right,1937.09999999404,true,NA,NA,NA,NA,NA
wYPFQqRG,3vck0q0pp8rxiiaq9ji6jar3xntn0d,3urfvvm169v92dyj1gcmsoibpe9zui,wYPFQqRG,2020-0188,2021-10-17,13:16:21,14:39:42,NA,incomplete,false,true,NA,3,26,NA,red,n_s_074.jpg,NA,NA,unpleasant,pleasant,NA,NA,NA,NA,NA,left,1556.69999998808,true,NA,NA,NA,NA,NA
wYPFQqRG,3vck0q0pp8rxiiaq9ji6jar3xntn0d,3urfvvm169v92dyj1gcmsoibpe9zui,wYPFQqRG,2020-0188,2021-10-17,13:16:21,14:39:42,NA,incomplete,false,true,NA,3,27,NA,red,n_l_067.jpg,NA,NA,pleasant,unpleasant,NA,NA,NA,NA,NA,right,2436.79999998212,true,NA,NA,NA,NA,NA
wYPFQqRG,3vck0q0pp8rxiiaq9ji6jar3xntn0d,3urfvvm169v92dyj1gcmsoibpe9zui,wYPFQqRG,2020-0188,2021-10-17,13:16:21,14:39:42,NA,incomplete,false,true,NA,3,28,NA,red,m_l_099.jpg,NA,NA,pleasant,unpleasant,NA,NA,NA,NA,NA,right,2231.80000001192,true,NA,NA,NA,NA,NA
wYPFQqRG,3vck0q0pp8rxiiaq9ji6jar3xntn0d,3urfvvm169v92dyj1gcmsoibpe9zui,wYPFQqRG,2020-0188,2021-10-17,13:16:21,14:39:42,NA,incomplete,false,true,NA,3,29,NA,red,n_s_064.jpg,NA,NA,unpleasant,pleasant,NA,NA,NA,NA,NA,right,2837.09999999404,true,NA,NA,NA,NA,NA
wYPFQqRG,3vck0q0pp8rxiiaq9ji6jar3xntn0d,3urfvvm169v92dyj1gcmsoibpe9zui,wYPFQqRG,2020-0188,2021-10-17,13:16:21,14:39:42,NA,incomplete,false,true,NA,3,30,NA,white,n_l_057.jpg,NA,NA,unpleasant,pleasant,NA,NA,NA,NA,NA,left,1791.19999998808,true,NA,NA,NA,NA,NA
wYPFQqRG,3vck0q0pp8rxiiaq9ji6jar3xntn0d,3urfvvm169v92dyj1gcmsoibpe9zui,wYPFQqRG,2020-0188,2021-10-17,13:16:21,14:39:42,NA,incomplete,false,true,NA,3,31,NA,white,n_l_002.jpg,NA,NA,unpleasant,pleasant,NA,NA,NA,NA,NA,left,1566.5,true,NA,NA,NA,NA,NA
wYPFQqRG,3vck0q0pp8rxiiaq9ji6jar3xntn0d,3urfvvm169v92dyj1gcmsoibpe9zui,wYPFQqRG,2020-0188,2021-10-17,13:16:21,14:39:42,NA,incomplete,false,true,NA,3,32,NA,white,n_s_086.jpg,NA,NA,pleasant,unpleasant,NA,NA,NA,NA,NA,right,1680.19999998808,true,NA,NA,NA,NA,NA
wYPFQqRG,3vck0q0pp8rxiiaq9ji6jar3xntn0d,3urfvvm169v92dyj1gcmsoibpe9zui,wYPFQqRG,2020-0188,2021-10-17,13:16:21,14:39:42,NA,incomplete,false,true,NA,3,33,NA,white,n_l_007.jpg,NA,NA,pleasant,unpleasant,NA,NA,NA,NA,NA,right,1566.80000001192,true,NA,NA,NA,NA,NA
wYPFQqRG,3vck0q0pp8rxiiaq9ji6jar3xntn0d,3urfvvm169v92dyj1gcmsoibpe9zui,wYPFQqRG,2020-0188,2021-10-17,13:16:21,14:39:42,NA,incomplete,false,true,NA,3,34,NA,white,n_l_021.jpg,NA,NA,unpleasant,pleasant,NA,NA,NA,NA,NA,right,3110.90000000596,true,NA,NA,NA,NA,NA
wYPFQqRG,3vck0q0pp8rxiiaq9ji6jar3xntn0d,3urfvvm169v92dyj1gcmsoibpe9zui,wYPFQqRG,2020-0188,2021-10-17,13:16:21,14:39:42,NA,incomplete,false,true,NA,3,35,NA,white,m_s_095.jpg,NA,NA,unpleasant,pleasant,NA,NA,NA,NA,NA,left,1561.39999997616,true,NA,NA,NA,NA,NA
wYPFQqRG,3vck0q0pp8rxiiaq9ji6jar3xntn0d,3urfvvm169v92dyj1gcmsoibpe9zui,wYPFQqRG,2020-0188,2021-10-17,13:16:21,14:39:42,NA,incomplete,false,NA,true,3,0,NA,NA,NA,right,present,NA,NA,n_s_074.jpg,red,m_l_104.jpg,purple,between,NA,NaN,NA,right,5567.600000023842,1,2,2623.0999999940395
wYPFQqRG,3vck0q0pp8rxiiaq9ji6jar3xntn0d,3urfvvm169v92dyj1gcmsoibpe9zui,wYPFQqRG,2020-0188,2021-10-17,13:16:21,14:39:42,NA,incomplete,false,NA,true,3,1,NA,NA,NA,right,present,NA,NA,n_s_086.jpg,white,m_l_099.jpg,red,between,NA,NaN,NA,left,3493.0999999940395,0,2,3172.5
wYPFQqRG,3vck0q0pp8rxiiaq9ji6jar3xntn0d,3urfvvm169v92dyj1gcmsoibpe9zui,wYPFQqRG,2020-0188,2021-10-17,13:16:21,14:39:42,NA,incomplete,false,NA,true,3,2,NA,NA,NA,right,present,NA,NA,m_s_095.jpg,white,n_l_002.jpg,white,within,NA,NaN,NA,right,10058.90000000596,1,1,2663.0999999940395
wYPFQqRG,3vck0q0pp8rxiiaq9ji6jar3xntn0d,3urfvvm169v92dyj1gcmsoibpe9zui,wYPFQqRG,2020-0188,2021-10-17,13:16:21,14:39:42,NA,incomplete,false,NA,true,3,3,NA,NA,NA,right,present,NA,NA,n_l_040.jpg,purple,m_l_018.jpg,brown,between,NA,NaN,NA,right,8595,1,1,1768.7999999821186
wYPFQqRG,3vck0q0pp8rxiiaq9ji6jar3xntn0d,3urfvvm169v92dyj1gcmsoibpe9zui,wYPFQqRG,2020-0188,2021-10-17,13:16:21,14:39:42,NA,incomplete,false,NA,true,3,4,NA,NA,NA,right,present,NA,NA,m_l_016.jpg,gray,m_s_079.jpg,gray,within,NA,NaN,NA,right,3831.199999988079,1,2,3046.199999988079
wYPFQqRG,3vck0q0pp8rxiiaq9ji6jar3xntn0d,3urfvvm169v92dyj1gcmsoibpe9zui,wYPFQqRG,2020-0188,2021-10-17,13:16:21,14:39:42,NA,incomplete,false,NA,true,3,5,NA,NA,NA,left,present,NA,NA,m_l_022.jpg,brown,m_l_103.jpg,brown,within,NA,NaN,NA,left,7872.9000000059605,1,1,1479.0999999940395
wYPFQqRG,3vck0q0pp8rxiiaq9ji6jar3xntn0d,3urfvvm169v92dyj1gcmsoibpe9zui,wYPFQqRG,2020-0188,2021-10-17,13:16:21,14:39:42,NA,incomplete,false,NA,true,3,6,NA,NA,NA,left,present,NA,NA,n_s_002.jpg,blue,m_l_049.jpg,blue,within,NA,NaN,NA,left,4064.5999999940395,1,1,1470.5999999940395
wYPFQqRG,3vck0q0pp8rxiiaq9ji6jar3xntn0d,3urfvvm169v92dyj1gcmsoibpe9zui,wYPFQqRG,2020-0188,2021-10-17,13:16:21,14:39:42,NA,incomplete,false,NA,true,3,7,NA,NA,NA,left,present,NA,NA,n_s_108.jpg,gray,n_l_022.jpg,blue,between,NA,NaN,NA,right,6344.700000017881,0,2,1282.5
wYPFQqRG,3vck0q0pp8rxiiaq9ji6jar3xntn0d,3urfvvm169v92dyj1gcmsoibpe9zui,wYPFQqRG,2020-0188,2021-10-17,13:16:21,14:39:42,NA,incomplete,false,NA,true,3,8,NA,NA,NA,left,present,NA,NA,m_l_006.jpg,purple,m_s_097.jpg,purple,within,NA,NaN,NA,left,4545.9000000059605,1,0,1557.4000000059605
wYPFQqRG,3vck0q0pp8rxiiaq9ji6jar3xntn0d,3urfvvm169v92dyj1gcmsoibpe9zui,wYPFQqRG,2020-0188,2021-10-17,13:16:21,14:39:42,NA,incomplete,false,NA,true,3,9,NA,NA,NA,left,present,NA,NA,n_s_106.jpg,blue,m_l_017.jpg,brown,between,NA,NaN,NA,right,6752.700000017881,0,2,1494.7000000178814
wYPFQqRG,3vck0q0pp8rxiiaq9ji6jar3xntn0d,3urfvvm169v92dyj1gcmsoibpe9zui,wYPFQqRG,2020-0188,2021-10-17,13:16:21,14:39:42,NA,incomplete,false,NA,true,3,10,NA,NA,NA,left,present,NA,NA,n_s_001.jpg,red,n_s_064.jpg,red,within,NA,NaN,NA,left,4583,1,0,1935
wYPFQqRG,3vck0q0pp8rxiiaq9ji6jar3xntn0d,3urfvvm169v92dyj1gcmsoibpe9zui,wYPFQqRG,2020-0188,2021-10-17,13:16:21,14:39:42,NA,incomplete,false,true,NA,4,0,NA,yellow,m_l_014.jpg,NA,NA,pleasant,unpleasant,NA,NA,NA,NA,NA,left,2900.19999998808,true,NA,NA,NA,NA,NA
wYPFQqRG,3vck0q0pp8rxiiaq9ji6jar3xntn0d,3urfvvm169v92dyj1gcmsoibpe9zui,wYPFQqRG,2020-0188,2021-10-17,13:16:21,14:39:42,NA,incomplete,false,true,NA,4,1,NA,yellow,m_l_002.jpg,NA,NA,unpleasant,pleasant,NA,NA,NA,NA,NA,left,2532.09999999404,true,NA,NA,NA,NA,NA
wYPFQqRG,3vck0q0pp8rxiiaq9ji6jar3xntn0d,3urfvvm169v92dyj1gcmsoibpe9zui,wYPFQqRG,2020-0188,2021-10-17,13:16:21,14:39:42,NA,incomplete,false,true,NA,4,2,NA,yellow,m_l_025.jpg,NA,NA,unpleasant,pleasant,NA,NA,NA,NA,NA,left,2201,true,NA,NA,NA,NA,NA
wYPFQqRG,3vck0q0pp8rxiiaq9ji6jar3xntn0d,3urfvvm169v92dyj1gcmsoibpe9zui,wYPFQqRG,2020-0188,2021-10-17,13:16:21,14:39:42,NA,incomplete,false,true,NA,4,3,NA,yellow,m_s_058.jpg,NA,NA,pleasant,unpleasant,NA,NA,NA,NA,NA,left,2221,true,NA,NA,NA,NA,NA
wYPFQqRG,3vck0q0pp8rxiiaq9ji6jar3xntn0d,3urfvvm169v92dyj1gcmsoibpe9zui,wYPFQqRG,2020-0188,2021-10-17,13:16:21,14:39:42,NA,incomplete,false,true,NA,4,4,NA,yellow,n_s_048.jpg,NA,NA,pleasant,unpleasant,NA,NA,NA,NA,NA,left,2185.90000000596,true,NA,NA,NA,NA,NA
wYPFQqRG,3vck0q0pp8rxiiaq9ji6jar3xntn0d,3urfvvm169v92dyj1gcmsoibpe9zui,wYPFQqRG,2020-0188,2021-10-17,13:16:21,14:39:42,NA,incomplete,false,true,NA,4,5,NA,yellow,n_l_088.jpg,NA,NA,unpleasant,pleasant,NA,NA,NA,NA,NA,left,1791.70000001788,true,NA,NA,NA,NA,NA
wYPFQqRG,3vck0q0pp8rxiiaq9ji6jar3xntn0d,3urfvvm169v92dyj1gcmsoibpe9zui,wYPFQqRG,2020-0188,2021-10-17,13:16:21,14:39:42,NA,incomplete,false,true,NA,4,6,NA,blue,n_l_045.jpg,NA,NA,unpleasant,pleasant,NA,NA,NA,NA,NA,left,1459,true,NA,NA,NA,NA,NA
wYPFQqRG,3vck0q0pp8rxiiaq9ji6jar3xntn0d,3urfvvm169v92dyj1gcmsoibpe9zui,wYPFQqRG,2020-0188,2021-10-17,13:16:21,14:39:42,NA,incomplete,false,true,NA,4,7,NA,blue,n_s_082.jpg,NA,NA,pleasant,unpleasant,NA,NA,NA,NA,NA,right,1746.69999998808,true,NA,NA,NA,NA,NA
wYPFQqRG,3vck0q0pp8rxiiaq9ji6jar3xntn0d,3urfvvm169v92dyj1gcmsoibpe9zui,wYPFQqRG,2020-0188,2021-10-17,13:16:21,14:39:42,NA,incomplete,false,true,NA,4,8,NA,blue,m_s_048.jpg,NA,NA,pleasant,unpleasant,NA,NA,NA,NA,NA,right,2588.40000000596,true,NA,NA,NA,NA,NA
wYPFQqRG,3vck0q0pp8rxiiaq9ji6jar3xntn0d,3urfvvm169v92dyj1gcmsoibpe9zui,wYPFQqRG,2020-0188,2021-10-17,13:16:21,14:39:42,NA,incomplete,false,true,NA,4,9,NA,blue,m_l_038.jpg,NA,NA,pleasant,unpleasant,NA,NA,NA,NA,NA,left,2206.30000001192,true,NA,NA,NA,NA,NA
wYPFQqRG,3vck0q0pp8rxiiaq9ji6jar3xntn0d,3urfvvm169v92dyj1gcmsoibpe9zui,wYPFQqRG,2020-0188,2021-10-17,13:16:21,14:39:42,NA,incomplete,false,true,NA,4,10,NA,blue,m_s_102.jpg,NA,NA,pleasant,unpleasant,NA,NA,NA,NA,NA,left,2733.80000001192,true,NA,NA,NA,NA,NA
wYPFQqRG,3vck0q0pp8rxiiaq9ji6jar3xntn0d,3urfvvm169v92dyj1gcmsoibpe9zui,wYPFQqRG,2020-0188,2021-10-17,13:16:21,14:39:42,NA,incomplete,false,true,NA,4,11,NA,blue,m_s_046.jpg,NA,NA,pleasant,unpleasant,NA,NA,NA,NA,NA,left,2114.59999999404,true,NA,NA,NA,NA,NA
wYPFQqRG,3vck0q0pp8rxiiaq9ji6jar3xntn0d,3urfvvm169v92dyj1gcmsoibpe9zui,wYPFQqRG,2020-0188,2021-10-17,13:16:21,14:39:42,NA,incomplete,false,true,NA,4,12,NA,orange,m_l_114.jpg,NA,NA,pleasant,unpleasant,NA,NA,NA,NA,NA,right,2478,true,NA,NA,NA,NA,NA
wYPFQqRG,3vck0q0pp8rxiiaq9ji6jar3xntn0d,3urfvvm169v92dyj1gcmsoibpe9zui,wYPFQqRG,2020-0188,2021-10-17,13:16:21,14:39:42,NA,incomplete,false,true,NA,4,13,NA,orange,m_l_070.jpg,NA,NA,pleasant,unpleasant,NA,NA,NA,NA,NA,right,2744.70000001788,true,NA,NA,NA,NA,NA
wYPFQqRG,3vck0q0pp8rxiiaq9ji6jar3xntn0d,3urfvvm169v92dyj1gcmsoibpe9zui,wYPFQqRG,2020-0188,2021-10-17,13:16:21,14:39:42,NA,incomplete,false,true,NA,4,14,NA,orange,m_s_020.jpg,NA,NA,pleasant,unpleasant,NA,NA,NA,NA,NA,right,1487.40000000596,true,NA,NA,NA,NA,NA
wYPFQqRG,3vck0q0pp8rxiiaq9ji6jar3xntn0d,3urfvvm169v92dyj1gcmsoibpe9zui,wYPFQqRG,2020-0188,2021-10-17,13:16:21,14:39:42,NA,incomplete,false,true,NA,4,15,NA,orange,n_l_042.jpg,NA,NA,unpleasant,pleasant,NA,NA,NA,NA,NA,left,1527.70000001788,true,NA,NA,NA,NA,NA
wYPFQqRG,3vck0q0pp8rxiiaq9ji6jar3xntn0d,3urfvvm169v92dyj1gcmsoibpe9zui,wYPFQqRG,2020-0188,2021-10-17,13:16:21,14:39:42,NA,incomplete,false,true,NA,4,16,NA,orange,m_s_069.jpg,NA,NA,pleasant,unpleasant,NA,NA,NA,NA,NA,left,1781.09999999404,true,NA,NA,NA,NA,NA
wYPFQqRG,3vck0q0pp8rxiiaq9ji6jar3xntn0d,3urfvvm169v92dyj1gcmsoibpe9zui,wYPFQqRG,2020-0188,2021-10-17,13:16:21,14:39:42,NA,incomplete,false,true,NA,4,17,NA,orange,m_s_021.jpg,NA,NA,pleasant,unpleasant,NA,NA,NA,NA,NA,right,2453.79999998212,true,NA,NA,NA,NA,NA
wYPFQqRG,3vck0q0pp8rxiiaq9ji6jar3xntn0d,3urfvvm169v92dyj1gcmsoibpe9zui,wYPFQqRG,2020-0188,2021-10-17,13:16:21,14:39:42,NA,incomplete,false,true,NA,4,18,NA,black,m_s_086.jpg,NA,NA,pleasant,unpleasant,NA,NA,NA,NA,NA,right,2998.90000000596,true,NA,NA,NA,NA,NA
wYPFQqRG,3vck0q0pp8rxiiaq9ji6jar3xntn0d,3urfvvm169v92dyj1gcmsoibpe9zui,wYPFQqRG,2020-0188,2021-10-17,13:16:21,14:39:42,NA,incomplete,false,true,NA,4,19,NA,black,m_l_081.jpg,NA,NA,pleasant,unpleasant,NA,NA,NA,NA,NA,right,1532.30000001192,true,NA,NA,NA,NA,NA
wYPFQqRG,3vck0q0pp8rxiiaq9ji6jar3xntn0d,3urfvvm169v92dyj1gcmsoibpe9zui,wYPFQqRG,2020-0188,2021-10-17,13:16:21,14:39:42,NA,incomplete,false,true,NA,4,20,NA,black,n_l_051.jpg,NA,NA,pleasant,unpleasant,NA,NA,NA,NA,NA,right,1601.40000000596,true,NA,NA,NA,NA,NA
wYPFQqRG,3vck0q0pp8rxiiaq9ji6jar3xntn0d,3urfvvm169v92dyj1gcmsoibpe9zui,wYPFQqRG,2020-0188,2021-10-17,13:16:21,14:39:42,NA,incomplete,false,true,NA,4,21,NA,black,m_l_094.jpg,NA,NA,unpleasant,pleasant,NA,NA,NA,NA,NA,left,1713.5,true,NA,NA,NA,NA,NA
wYPFQqRG,3vck0q0pp8rxiiaq9ji6jar3xntn0d,3urfvvm169v92dyj1gcmsoibpe9zui,wYPFQqRG,2020-0188,2021-10-17,13:16:21,14:39:42,NA,incomplete,false,true,NA,4,22,NA,black,m_s_096.jpg,NA,NA,unpleasant,pleasant,NA,NA,NA,NA,NA,left,1652.5,true,NA,NA,NA,NA,NA
wYPFQqRG,3vck0q0pp8rxiiaq9ji6jar3xntn0d,3urfvvm169v92dyj1gcmsoibpe9zui,wYPFQqRG,2020-0188,2021-10-17,13:16:21,14:39:42,NA,incomplete,false,true,NA,4,23,NA,black,n_l_068.jpg,NA,NA,unpleasant,pleasant,NA,NA,NA,NA,NA,left,1529.20000001788,true,NA,NA,NA,NA,NA
wYPFQqRG,3vck0q0pp8rxiiaq9ji6jar3xntn0d,3urfvvm169v92dyj1gcmsoibpe9zui,wYPFQqRG,2020-0188,2021-10-17,13:16:21,14:39:42,NA,incomplete,false,true,NA,4,24,NA,green,n_l_075.jpg,NA,NA,unpleasant,pleasant,NA,NA,NA,NA,NA,left,1844.40000000596,true,NA,NA,NA,NA,NA
wYPFQqRG,3vck0q0pp8rxiiaq9ji6jar3xntn0d,3urfvvm169v92dyj1gcmsoibpe9zui,wYPFQqRG,2020-0188,2021-10-17,13:16:21,14:39:42,NA,incomplete,false,true,NA,4,25,NA,green,m_l_091.jpg,NA,NA,unpleasant,pleasant,NA,NA,NA,NA,NA,left,3031.09999999404,true,NA,NA,NA,NA,NA
wYPFQqRG,3vck0q0pp8rxiiaq9ji6jar3xntn0d,3urfvvm169v92dyj1gcmsoibpe9zui,wYPFQqRG,2020-0188,2021-10-17,13:16:21,14:39:42,NA,incomplete,false,true,NA,4,26,NA,green,m_s_088.jpg,NA,NA,unpleasant,pleasant,NA,NA,NA,NA,NA,left,1595.29999998212,true,NA,NA,NA,NA,NA
wYPFQqRG,3vck0q0pp8rxiiaq9ji6jar3xntn0d,3urfvvm169v92dyj1gcmsoibpe9zui,wYPFQqRG,2020-0188,2021-10-17,13:16:21,14:39:42,NA,incomplete,false,true,NA,4,27,NA,green,n_l_033.jpg,NA,NA,pleasant,unpleasant,NA,NA,NA,NA,NA,right,1652.09999999404,true,NA,NA,NA,NA,NA
wYPFQqRG,3vck0q0pp8rxiiaq9ji6jar3xntn0d,3urfvvm169v92dyj1gcmsoibpe9zui,wYPFQqRG,2020-0188,2021-10-17,13:16:21,14:39:42,NA,incomplete,false,true,NA,4,28,NA,green,n_l_015.jpg,NA,NA,pleasant,unpleasant,NA,NA,NA,NA,NA,right,1160.19999998808,true,NA,NA,NA,NA,NA
wYPFQqRG,3vck0q0pp8rxiiaq9ji6jar3xntn0d,3urfvvm169v92dyj1gcmsoibpe9zui,wYPFQqRG,2020-0188,2021-10-17,13:16:21,14:39:42,NA,incomplete,false,true,NA,4,29,NA,green,n_s_025.jpg,NA,NA,unpleasant,pleasant,NA,NA,NA,NA,NA,left,1280.59999999404,true,NA,NA,NA,NA,NA
wYPFQqRG,3vck0q0pp8rxiiaq9ji6jar3xntn0d,3urfvvm169v92dyj1gcmsoibpe9zui,wYPFQqRG,2020-0188,2021-10-17,13:16:21,14:39:42,NA,incomplete,false,true,NA,4,30,NA,gray,m_l_067.jpg,NA,NA,unpleasant,pleasant,NA,NA,NA,NA,NA,left,2291.30000001192,true,NA,NA,NA,NA,NA
wYPFQqRG,3vck0q0pp8rxiiaq9ji6jar3xntn0d,3urfvvm169v92dyj1gcmsoibpe9zui,wYPFQqRG,2020-0188,2021-10-17,13:16:21,14:39:42,NA,incomplete,false,true,NA,4,31,NA,gray,m_s_015.jpg,NA,NA,pleasant,unpleasant,NA,NA,NA,NA,NA,right,1882.59999999404,true,NA,NA,NA,NA,NA
wYPFQqRG,3vck0q0pp8rxiiaq9ji6jar3xntn0d,3urfvvm169v92dyj1gcmsoibpe9zui,wYPFQqRG,2020-0188,2021-10-17,13:16:21,14:39:42,NA,incomplete,false,true,NA,4,32,NA,gray,m_l_071.jpg,NA,NA,pleasant,unpleasant,NA,NA,NA,NA,NA,right,2602.80000001192,true,NA,NA,NA,NA,NA
wYPFQqRG,3vck0q0pp8rxiiaq9ji6jar3xntn0d,3urfvvm169v92dyj1gcmsoibpe9zui,wYPFQqRG,2020-0188,2021-10-17,13:16:21,14:39:42,NA,incomplete,false,true,NA,4,33,NA,gray,m_l_041.jpg,NA,NA,unpleasant,pleasant,NA,NA,NA,NA,NA,left,1729,true,NA,NA,NA,NA,NA
wYPFQqRG,3vck0q0pp8rxiiaq9ji6jar3xntn0d,3urfvvm169v92dyj1gcmsoibpe9zui,wYPFQqRG,2020-0188,2021-10-17,13:16:21,14:39:42,NA,incomplete,false,true,NA,4,34,NA,gray,m_s_029.jpg,NA,NA,pleasant,unpleasant,NA,NA,NA,NA,NA,right,2073.69999998808,true,NA,NA,NA,NA,NA
wYPFQqRG,3vck0q0pp8rxiiaq9ji6jar3xntn0d,3urfvvm169v92dyj1gcmsoibpe9zui,wYPFQqRG,2020-0188,2021-10-17,13:16:21,14:39:42,NA,incomplete,false,true,NA,4,35,NA,gray,m_l_054.jpg,NA,NA,unpleasant,pleasant,NA,NA,NA,NA,NA,left,1352.20000001788,true,NA,NA,NA,NA,NA
wYPFQqRG,3vck0q0pp8rxiiaq9ji6jar3xntn0d,3urfvvm169v92dyj1gcmsoibpe9zui,wYPFQqRG,2020-0188,2021-10-17,13:16:21,14:39:42,NA,incomplete,false,NA,true,4,0,NA,NA,NA,right,present,NA,NA,n_l_088.jpg,yellow,m_l_002.jpg,yellow,within,NA,NaN,NA,left,6892.200000017881,0,0,1534.1000000238419
wYPFQqRG,3vck0q0pp8rxiiaq9ji6jar3xntn0d,3urfvvm169v92dyj1gcmsoibpe9zui,wYPFQqRG,2020-0188,2021-10-17,13:16:21,14:39:42,NA,incomplete,false,NA,true,4,1,NA,NA,NA,left,present,NA,NA,m_l_070.jpg,orange,m_s_021.jpg,orange,within,NA,NaN,NA,right,6666.5999999940395,0,0,2482.4000000059605
wYPFQqRG,3vck0q0pp8rxiiaq9ji6jar3xntn0d,3urfvvm169v92dyj1gcmsoibpe9zui,wYPFQqRG,2020-0188,2021-10-17,13:16:21,14:39:42,NA,incomplete,false,NA,true,4,2,NA,NA,NA,right,present,NA,NA,n_s_025.jpg,green,m_l_091.jpg,green,within,NA,NaN,NA,left,5568.5999999940395,0,0,1556.699999988079
wYPFQqRG,3vck0q0pp8rxiiaq9ji6jar3xntn0d,3urfvvm169v92dyj1gcmsoibpe9zui,wYPFQqRG,2020-0188,2021-10-17,13:16:21,14:39:42,NA,incomplete,false,NA,true,4,3,NA,NA,NA,right,present,NA,NA,n_l_051.jpg,black,m_s_069.jpg,orange,between,NA,NaN,NA,right,9728.700000017881,1,2,1666.9000000059605
wYPFQqRG,3vck0q0pp8rxiiaq9ji6jar3xntn0d,3urfvvm169v92dyj1gcmsoibpe9zui,wYPFQqRG,2020-0188,2021-10-17,13:16:21,14:39:42,NA,incomplete,false,NA,true,4,4,NA,NA,NA,left,present,NA,NA,m_l_081.jpg,black,n_l_068.jpg,black,within,NA,NaN,NA,left,5811,1,1,1806.5
wYPFQqRG,3vck0q0pp8rxiiaq9ji6jar3xntn0d,3urfvvm169v92dyj1gcmsoibpe9zui,wYPFQqRG,2020-0188,2021-10-17,13:16:21,14:39:42,NA,incomplete,false,NA,true,4,5,NA,NA,NA,left,present,NA,NA,n_s_048.jpg,yellow,m_s_048.jpg,blue,between,NA,NaN,NA,left,5114.5,1,2,3289.5999999940395
wYPFQqRG,3vck0q0pp8rxiiaq9ji6jar3xntn0d,3urfvvm169v92dyj1gcmsoibpe9zui,wYPFQqRG,2020-0188,2021-10-17,13:16:21,14:39:42,NA,incomplete,false,NA,true,4,6,NA,NA,NA,right,present,NA,NA,m_s_020.jpg,orange,m_s_102.jpg,blue,between,NA,NaN,NA,right,5146.299999982119,1,2,1940.9000000059605
wYPFQqRG,3vck0q0pp8rxiiaq9ji6jar3xntn0d,3urfvvm169v92dyj1gcmsoibpe9zui,wYPFQqRG,2020-0188,2021-10-17,13:16:21,14:39:42,NA,incomplete,false,NA,true,4,7,NA,NA,NA,right,present,NA,NA,m_l_054.jpg,gray,m_s_015.jpg,gray,within,NA,NaN,NA,right,6667,1,2,1250.5
wYPFQqRG,3vck0q0pp8rxiiaq9ji6jar3xntn0d,3urfvvm169v92dyj1gcmsoibpe9zui,wYPFQqRG,2020-0188,2021-10-17,13:16:21,14:39:42,NA,incomplete,false,NA,true,4,8,NA,NA,NA,right,present,NA,NA,m_s_046.jpg,blue,n_s_082.jpg,blue,within,NA,NaN,NA,left,4682.100000023842,0,0,1582.7000000178814
wYPFQqRG,3vck0q0pp8rxiiaq9ji6jar3xntn0d,3urfvvm169v92dyj1gcmsoibpe9zui,wYPFQqRG,2020-0188,2021-10-17,13:16:21,14:39:42,NA,incomplete,false,NA,true,4,9,NA,NA,NA,right,present,NA,NA,m_s_088.jpg,green,m_s_096.jpg,black,between,NA,NaN,NA,left,5897,0,3,2232.100000023842
wYPFQqRG,3vck0q0pp8rxiiaq9ji6jar3xntn0d,3urfvvm169v92dyj1gcmsoibpe9zui,wYPFQqRG,2020-0188,2021-10-17,13:16:21,14:39:42,NA,incomplete,false,NA,true,4,10,NA,NA,NA,right,present,NA,NA,m_l_071.jpg,gray,n_l_015.jpg,green,between,NA,NaN,NA,right,4731.0999999940395,1,2,1151.699999988079
wYPFQqRG,3vck0q0pp8rxiiaq9ji6jar3xntn0d,3urfvvm169v92dyj1gcmsoibpe9zui,wYPFQqRG,2020-0188,2021-10-17,13:16:21,14:39:42,NA,incomplete,false,true,NA,5,0,NA,blue,m_l_106.jpg,NA,NA,unpleasant,pleasant,NA,NA,NA,NA,NA,left,2219.29999998212,true,NA,NA,NA,NA,NA
wYPFQqRG,3vck0q0pp8rxiiaq9ji6jar3xntn0d,3urfvvm169v92dyj1gcmsoibpe9zui,wYPFQqRG,2020-0188,2021-10-17,13:16:21,14:39:42,NA,incomplete,false,true,NA,5,1,NA,blue,m_l_050.jpg,NA,NA,unpleasant,pleasant,NA,NA,NA,NA,NA,left,1990.90000000596,true,NA,NA,NA,NA,NA
wYPFQqRG,3vck0q0pp8rxiiaq9ji6jar3xntn0d,3urfvvm169v92dyj1gcmsoibpe9zui,wYPFQqRG,2020-0188,2021-10-17,13:16:21,14:39:42,NA,incomplete,false,true,NA,5,2,NA,blue,m_l_027.jpg,NA,NA,unpleasant,pleasant,NA,NA,NA,NA,NA,left,2242.79999998212,true,NA,NA,NA,NA,NA
wYPFQqRG,3vck0q0pp8rxiiaq9ji6jar3xntn0d,3urfvvm169v92dyj1gcmsoibpe9zui,wYPFQqRG,2020-0188,2021-10-17,13:16:21,14:39:42,NA,incomplete,false,true,NA,5,3,NA,blue,n_s_089.jpg,NA,NA,pleasant,unpleasant,NA,NA,NA,NA,NA,right,1466.69999998808,true,NA,NA,NA,NA,NA
wYPFQqRG,3vck0q0pp8rxiiaq9ji6jar3xntn0d,3urfvvm169v92dyj1gcmsoibpe9zui,wYPFQqRG,2020-0188,2021-10-17,13:16:21,14:39:42,NA,incomplete,false,true,NA,5,4,NA,blue,m_s_032.jpg,NA,NA,unpleasant,pleasant,NA,NA,NA,NA,NA,left,2293.30000001192,true,NA,NA,NA,NA,NA
wYPFQqRG,3vck0q0pp8rxiiaq9ji6jar3xntn0d,3urfvvm169v92dyj1gcmsoibpe9zui,wYPFQqRG,2020-0188,2021-10-17,13:16:21,14:39:42,NA,incomplete,false,true,NA,5,5,NA,blue,n_s_113.jpg,NA,NA,pleasant,unpleasant,NA,NA,NA,NA,NA,right,1554.60000002384,true,NA,NA,NA,NA,NA
wYPFQqRG,3vck0q0pp8rxiiaq9ji6jar3xntn0d,3urfvvm169v92dyj1gcmsoibpe9zui,wYPFQqRG,2020-0188,2021-10-17,13:16:21,14:39:42,NA,incomplete,false,true,NA,5,6,NA,purple,m_s_084.jpg,NA,NA,pleasant,unpleasant,NA,NA,NA,NA,NA,left,2397.5,true,NA,NA,NA,NA,NA
wYPFQqRG,3vck0q0pp8rxiiaq9ji6jar3xntn0d,3urfvvm169v92dyj1gcmsoibpe9zui,wYPFQqRG,2020-0188,2021-10-17,13:16:21,14:39:42,NA,incomplete,false,true,NA,5,7,NA,purple,n_s_073.jpg,NA,NA,pleasant,unpleasant,NA,NA,NA,NA,NA,right,1464.40000000596,true,NA,NA,NA,NA,NA
wYPFQqRG,3vck0q0pp8rxiiaq9ji6jar3xntn0d,3urfvvm169v92dyj1gcmsoibpe9zui,wYPFQqRG,2020-0188,2021-10-17,13:16:21,14:39:42,NA,incomplete,false,true,NA,5,8,NA,purple,n_l_097.jpg,NA,NA,pleasant,unpleasant,NA,NA,NA,NA,NA,right,1284.59999999404,true,NA,NA,NA,NA,NA
wYPFQqRG,3vck0q0pp8rxiiaq9ji6jar3xntn0d,3urfvvm169v92dyj1gcmsoibpe9zui,wYPFQqRG,2020-0188,2021-10-17,13:16:21,14:39:42,NA,incomplete,false,true,NA,5,9,NA,purple,m_s_103.jpg,NA,NA,unpleasant,pleasant,NA,NA,NA,NA,NA,left,1963.29999998212,true,NA,NA,NA,NA,NA
wYPFQqRG,3vck0q0pp8rxiiaq9ji6jar3xntn0d,3urfvvm169v92dyj1gcmsoibpe9zui,wYPFQqRG,2020-0188,2021-10-17,13:16:21,14:39:42,NA,incomplete,false,true,NA,5,10,NA,purple,m_l_004.jpg,NA,NA,pleasant,unpleasant,NA,NA,NA,NA,NA,right,1394.40000000596,true,NA,NA,NA,NA,NA
wYPFQqRG,3vck0q0pp8rxiiaq9ji6jar3xntn0d,3urfvvm169v92dyj1gcmsoibpe9zui,wYPFQqRG,2020-0188,2021-10-17,13:16:21,14:39:42,NA,incomplete,false,true,NA,5,11,NA,purple,m_s_010.jpg,NA,NA,pleasant,unpleasant,NA,NA,NA,NA,NA,right,2161.40000000596,true,NA,NA,NA,NA,NA
wYPFQqRG,3vck0q0pp8rxiiaq9ji6jar3xntn0d,3urfvvm169v92dyj1gcmsoibpe9zui,wYPFQqRG,2020-0188,2021-10-17,13:16:21,14:39:42,NA,incomplete,false,true,NA,5,12,NA,brown,n_s_038.jpg,NA,NA,unpleasant,pleasant,NA,NA,NA,NA,NA,left,1909.60000002384,true,NA,NA,NA,NA,NA
wYPFQqRG,3vck0q0pp8rxiiaq9ji6jar3xntn0d,3urfvvm169v92dyj1gcmsoibpe9zui,wYPFQqRG,2020-0188,2021-10-17,13:16:21,14:39:42,NA,incomplete,false,true,NA,5,13,NA,brown,n_l_001.jpg,NA,NA,pleasant,unpleasant,NA,NA,NA,NA,NA,left,2297.09999999404,true,NA,NA,NA,NA,NA
wYPFQqRG,3vck0q0pp8rxiiaq9ji6jar3xntn0d,3urfvvm169v92dyj1gcmsoibpe9zui,wYPFQqRG,2020-0188,2021-10-17,13:16:21,14:39:42,NA,incomplete,false,true,NA,5,14,NA,brown,m_l_112.jpg,NA,NA,pleasant,unpleasant,NA,NA,NA,NA,NA,left,1830.29999998212,true,NA,NA,NA,NA,NA
wYPFQqRG,3vck0q0pp8rxiiaq9ji6jar3xntn0d,3urfvvm169v92dyj1gcmsoibpe9zui,wYPFQqRG,2020-0188,2021-10-17,13:16:21,14:39:42,NA,incomplete,false,true,NA,5,15,NA,brown,m_s_067.jpg,NA,NA,unpleasant,pleasant,NA,NA,NA,NA,NA,left,1855.5,true,NA,NA,NA,NA,NA
wYPFQqRG,3vck0q0pp8rxiiaq9ji6jar3xntn0d,3urfvvm169v92dyj1gcmsoibpe9zui,wYPFQqRG,2020-0188,2021-10-17,13:16:21,14:39:42,NA,incomplete,false,true,NA,5,16,NA,brown,m_s_101.jpg,NA,NA,unpleasant,pleasant,NA,NA,NA,NA,NA,right,1443.69999998808,true,NA,NA,NA,NA,NA
wYPFQqRG,3vck0q0pp8rxiiaq9ji6jar3xntn0d,3urfvvm169v92dyj1gcmsoibpe9zui,wYPFQqRG,2020-0188,2021-10-17,13:16:21,14:39:42,NA,incomplete,false,true,NA,5,17,NA,brown,m_s_081.jpg,NA,NA,pleasant,unpleasant,NA,NA,NA,NA,NA,left,1620.69999998808,true,NA,NA,NA,NA,NA
wYPFQqRG,3vck0q0pp8rxiiaq9ji6jar3xntn0d,3urfvvm169v92dyj1gcmsoibpe9zui,wYPFQqRG,2020-0188,2021-10-17,13:16:21,14:39:42,NA,incomplete,false,true,NA,5,18,NA,orange,n_s_093.jpg,NA,NA,unpleasant,pleasant,NA,NA,NA,NA,NA,right,2484.90000000596,true,NA,NA,NA,NA,NA
wYPFQqRG,3vck0q0pp8rxiiaq9ji6jar3xntn0d,3urfvvm169v92dyj1gcmsoibpe9zui,wYPFQqRG,2020-0188,2021-10-17,13:16:21,14:39:42,NA,incomplete,false,true,NA,5,19,NA,orange,n_l_102.jpg,NA,NA,unpleasant,pleasant,NA,NA,NA,NA,NA,left,1825.59999999404,true,NA,NA,NA,NA,NA
wYPFQqRG,3vck0q0pp8rxiiaq9ji6jar3xntn0d,3urfvvm169v92dyj1gcmsoibpe9zui,wYPFQqRG,2020-0188,2021-10-17,13:16:21,14:39:42,NA,incomplete,false,true,NA,5,20,NA,orange,m_s_117.jpg,NA,NA,pleasant,unpleasant,NA,NA,NA,NA,NA,left,1819,true,NA,NA,NA,NA,NA
wYPFQqRG,3vck0q0pp8rxiiaq9ji6jar3xntn0d,3urfvvm169v92dyj1gcmsoibpe9zui,wYPFQqRG,2020-0188,2021-10-17,13:16:21,14:39:42,NA,incomplete,false,true,NA,5,21,NA,orange,n_s_053.jpg,NA,NA,unpleasant,pleasant,NA,NA,NA,NA,NA,left,2183.90000000596,true,NA,NA,NA,NA,NA
wYPFQqRG,3vck0q0pp8rxiiaq9ji6jar3xntn0d,3urfvvm169v92dyj1gcmsoibpe9zui,wYPFQqRG,2020-0188,2021-10-17,13:16:21,14:39:42,NA,incomplete,false,true,NA,5,22,NA,orange,m_l_008.jpg,NA,NA,pleasant,unpleasant,NA,NA,NA,NA,NA,left,1690.69999998808,true,NA,NA,NA,NA,NA
wYPFQqRG,3vck0q0pp8rxiiaq9ji6jar3xntn0d,3urfvvm169v92dyj1gcmsoibpe9zui,wYPFQqRG,2020-0188,2021-10-17,13:16:21,14:39:42,NA,incomplete,false,true,NA,5,23,NA,orange,m_l_024.jpg,NA,NA,pleasant,unpleasant,NA,NA,NA,NA,NA,right,1997.59999999404,true,NA,NA,NA,NA,NA
wYPFQqRG,3vck0q0pp8rxiiaq9ji6jar3xntn0d,3urfvvm169v92dyj1gcmsoibpe9zui,wYPFQqRG,2020-0188,2021-10-17,13:16:21,14:39:42,NA,incomplete,false,true,NA,5,24,NA,white,m_l_001.jpg,NA,NA,pleasant,unpleasant,NA,NA,NA,NA,NA,right,2401.79999998212,true,NA,NA,NA,NA,NA
wYPFQqRG,3vck0q0pp8rxiiaq9ji6jar3xntn0d,3urfvvm169v92dyj1gcmsoibpe9zui,wYPFQqRG,2020-0188,2021-10-17,13:16:21,14:39:42,NA,incomplete,false,true,NA,5,25,NA,white,n_s_105.jpg,NA,NA,unpleasant,pleasant,NA,NA,NA,NA,NA,left,1973.5,true,NA,NA,NA,NA,NA
wYPFQqRG,3vck0q0pp8rxiiaq9ji6jar3xntn0d,3urfvvm169v92dyj1gcmsoibpe9zui,wYPFQqRG,2020-0188,2021-10-17,13:16:21,14:39:42,NA,incomplete,false,true,NA,5,26,NA,white,m_l_063.jpg,NA,NA,pleasant,unpleasant,NA,NA,NA,NA,NA,right,1278.5,true,NA,NA,NA,NA,NA
wYPFQqRG,3vck0q0pp8rxiiaq9ji6jar3xntn0d,3urfvvm169v92dyj1gcmsoibpe9zui,wYPFQqRG,2020-0188,2021-10-17,13:16:21,14:39:42,NA,incomplete,false,true,NA,5,27,NA,white,m_l_100.jpg,NA,NA,unpleasant,pleasant,NA,NA,NA,NA,NA,left,1571.20000001788,true,NA,NA,NA,NA,NA
wYPFQqRG,3vck0q0pp8rxiiaq9ji6jar3xntn0d,3urfvvm169v92dyj1gcmsoibpe9zui,wYPFQqRG,2020-0188,2021-10-17,13:16:21,14:39:42,NA,incomplete,false,true,NA,5,28,NA,white,n_s_095.jpg,NA,NA,pleasant,unpleasant,NA,NA,NA,NA,NA,right,2038.5,true,NA,NA,NA,NA,NA
wYPFQqRG,3vck0q0pp8rxiiaq9ji6jar3xntn0d,3urfvvm169v92dyj1gcmsoibpe9zui,wYPFQqRG,2020-0188,2021-10-17,13:16:21,14:39:42,NA,incomplete,false,true,NA,5,29,NA,white,m_l_043.jpg,NA,NA,unpleasant,pleasant,NA,NA,NA,NA,NA,left,1365.30000001192,true,NA,NA,NA,NA,NA
wYPFQqRG,3vck0q0pp8rxiiaq9ji6jar3xntn0d,3urfvvm169v92dyj1gcmsoibpe9zui,wYPFQqRG,2020-0188,2021-10-17,13:16:21,14:39:42,NA,incomplete,false,true,NA,5,30,NA,gray,m_s_026.jpg,NA,NA,unpleasant,pleasant,NA,NA,NA,NA,NA,left,2381.09999999404,true,NA,NA,NA,NA,NA
wYPFQqRG,3vck0q0pp8rxiiaq9ji6jar3xntn0d,3urfvvm169v92dyj1gcmsoibpe9zui,wYPFQqRG,2020-0188,2021-10-17,13:16:21,14:39:42,NA,incomplete,false,true,NA,5,31,NA,gray,n_s_011.jpg,NA,NA,unpleasant,pleasant,NA,NA,NA,NA,NA,left,1331.29999998212,true,NA,NA,NA,NA,NA
wYPFQqRG,3vck0q0pp8rxiiaq9ji6jar3xntn0d,3urfvvm169v92dyj1gcmsoibpe9zui,wYPFQqRG,2020-0188,2021-10-17,13:16:21,14:39:42,NA,incomplete,false,true,NA,5,32,NA,gray,m_s_030.jpg,NA,NA,unpleasant,pleasant,NA,NA,NA,NA,NA,left,1769.69999998808,true,NA,NA,NA,NA,NA
wYPFQqRG,3vck0q0pp8rxiiaq9ji6jar3xntn0d,3urfvvm169v92dyj1gcmsoibpe9zui,wYPFQqRG,2020-0188,2021-10-17,13:16:21,14:39:42,NA,incomplete,false,true,NA,5,33,NA,gray,n_l_101.jpg,NA,NA,pleasant,unpleasant,NA,NA,NA,NA,NA,right,1777,true,NA,NA,NA,NA,NA
wYPFQqRG,3vck0q0pp8rxiiaq9ji6jar3xntn0d,3urfvvm169v92dyj1gcmsoibpe9zui,wYPFQqRG,2020-0188,2021-10-17,13:16:21,14:39:42,NA,incomplete,false,true,NA,5,34,NA,gray,n_s_066.jpg,NA,NA,pleasant,unpleasant,NA,NA,NA,NA,NA,right,1109,true,NA,NA,NA,NA,NA
wYPFQqRG,3vck0q0pp8rxiiaq9ji6jar3xntn0d,3urfvvm169v92dyj1gcmsoibpe9zui,wYPFQqRG,2020-0188,2021-10-17,13:16:21,14:39:42,NA,incomplete,false,true,NA,5,35,NA,gray,n_l_053.jpg,NA,NA,pleasant,unpleasant,NA,NA,NA,NA,NA,right,2113.79999998212,true,NA,NA,NA,NA,NA
wYPFQqRG,3vck0q0pp8rxiiaq9ji6jar3xntn0d,3urfvvm169v92dyj1gcmsoibpe9zui,wYPFQqRG,2020-0188,2021-10-17,13:16:21,14:39:42,NA,incomplete,false,NA,true,5,0,NA,NA,NA,right,present,NA,NA,m_s_030.jpg,gray,n_s_095.jpg,white,between,NA,NaN,NA,left,5836.600000023842,0,2,3172.4000000059605
wYPFQqRG,3vck0q0pp8rxiiaq9ji6jar3xntn0d,3urfvvm169v92dyj1gcmsoibpe9zui,wYPFQqRG,2020-0188,2021-10-17,13:16:21,14:39:42,NA,incomplete,false,NA,true,5,1,NA,NA,NA,left,present,NA,NA,n_s_105.jpg,white,m_l_043.jpg,white,within,NA,NaN,NA,right,4754.5,0,0,2207.2999999821186
wYPFQqRG,3vck0q0pp8rxiiaq9ji6jar3xntn0d,3urfvvm169v92dyj1gcmsoibpe9zui,wYPFQqRG,2020-0188,2021-10-17,13:16:21,14:39:42,NA,incomplete,false,NA,true,5,2,NA,NA,NA,left,present,NA,NA,m_s_101.jpg,brown,m_s_117.jpg,orange,between,NA,NaN,NA,left,5724.800000011921,1,2,1565.199999988079
wYPFQqRG,3vck0q0pp8rxiiaq9ji6jar3xntn0d,3urfvvm169v92dyj1gcmsoibpe9zui,wYPFQqRG,2020-0188,2021-10-17,13:16:21,14:39:42,NA,incomplete,false,NA,true,5,3,NA,NA,NA,right,present,NA,NA,n_s_113.jpg,blue,m_l_050.jpg,blue,within,NA,NaN,NA,left,3963.7000000178814,0,0,1331.5999999940395
wYPFQqRG,3vck0q0pp8rxiiaq9ji6jar3xntn0d,3urfvvm169v92dyj1gcmsoibpe9zui,wYPFQqRG,2020-0188,2021-10-17,13:16:21,14:39:42,NA,incomplete,false,NA,true,5,4,NA,NA,NA,right,present,NA,NA,m_l_112.jpg,brown,m_l_004.jpg,purple,between,NA,NaN,NA,right,4913.0999999940395,1,3,2663.199999988079
wYPFQqRG,3vck0q0pp8rxiiaq9ji6jar3xntn0d,3urfvvm169v92dyj1gcmsoibpe9zui,wYPFQqRG,2020-0188,2021-10-17,13:16:21,14:39:42,NA,incomplete,false,NA,true,5,5,NA,NA,NA,left,present,NA,NA,m_l_008.jpg,orange,m_l_063.jpg,white,between,NA,NaN,NA,left,3563,1,2,1400.5
wYPFQqRG,3vck0q0pp8rxiiaq9ji6jar3xntn0d,3urfvvm169v92dyj1gcmsoibpe9zui,wYPFQqRG,2020-0188,2021-10-17,13:16:21,14:39:42,NA,incomplete,false,NA,true,5,6,NA,NA,NA,left,present,NA,NA,n_l_102.jpg,orange,m_l_024.jpg,orange,within,NA,NaN,NA,left,4128.399999976158,1,0,1221.300000011921
wYPFQqRG,3vck0q0pp8rxiiaq9ji6jar3xntn0d,3urfvvm169v92dyj1gcmsoibpe9zui,wYPFQqRG,2020-0188,2021-10-17,13:16:21,14:39:42,NA,incomplete,false,NA,true,5,7,NA,NA,NA,right,present,NA,NA,m_s_010.jpg,purple,n_s_073.jpg,purple,within,NA,NaN,NA,left,4636.800000011921,0,0,1188.7999999821186
wYPFQqRG,3vck0q0pp8rxiiaq9ji6jar3xntn0d,3urfvvm169v92dyj1gcmsoibpe9zui,wYPFQqRG,2020-0188,2021-10-17,13:16:21,14:39:42,NA,incomplete,false,NA,true,5,8,NA,NA,NA,right,present,NA,NA,m_s_081.jpg,brown,n_l_001.jpg,brown,within,NA,NaN,NA,left,7369.600000023842,0,0,1408.9000000059605
wYPFQqRG,3vck0q0pp8rxiiaq9ji6jar3xntn0d,3urfvvm169v92dyj1gcmsoibpe9zui,wYPFQqRG,2020-0188,2021-10-17,13:16:21,14:39:42,NA,incomplete,false,NA,true,5,9,NA,NA,NA,left,present,NA,NA,m_s_032.jpg,blue,n_l_097.jpg,purple,between,NA,NaN,NA,right,7394.9000000059605,0,1,1526.9000000059605
wYPFQqRG,3vck0q0pp8rxiiaq9ji6jar3xntn0d,3urfvvm169v92dyj1gcmsoibpe9zui,wYPFQqRG,2020-0188,2021-10-17,13:16:21,14:39:42,NA,incomplete,false,NA,true,5,10,NA,NA,NA,right,present,NA,NA,n_l_053.jpg,gray,n_s_011.jpg,gray,within,NA,NaN,NA,right,4024.4000000059605,1,0,3077.7999999821186
wYPFQqRG,3vck0q0pp8rxiiaq9ji6jar3xntn0d,3urfvvm169v92dyj1gcmsoibpe9zui,wYPFQqRG,2020-0188,2021-10-17,13:16:21,14:39:42,NA,incomplete,false,true,NA,6,0,NA,purple,n_s_047.jpg,NA,NA,pleasant,unpleasant,NA,NA,NA,NA,NA,right,2636,true,NA,NA,NA,NA,NA
wYPFQqRG,3vck0q0pp8rxiiaq9ji6jar3xntn0d,3urfvvm169v92dyj1gcmsoibpe9zui,wYPFQqRG,2020-0188,2021-10-17,13:16:21,14:39:42,NA,incomplete,false,true,NA,6,1,NA,purple,n_l_049.jpg,NA,NA,unpleasant,pleasant,NA,NA,NA,NA,NA,left,1915.5,true,NA,NA,NA,NA,NA
wYPFQqRG,3vck0q0pp8rxiiaq9ji6jar3xntn0d,3urfvvm169v92dyj1gcmsoibpe9zui,wYPFQqRG,2020-0188,2021-10-17,13:16:21,14:39:42,NA,incomplete,false,true,NA,6,2,NA,purple,m_s_059.jpg,NA,NA,unpleasant,pleasant,NA,NA,NA,NA,NA,left,1962.5,true,NA,NA,NA,NA,NA
wYPFQqRG,3vck0q0pp8rxiiaq9ji6jar3xntn0d,3urfvvm169v92dyj1gcmsoibpe9zui,wYPFQqRG,2020-0188,2021-10-17,13:16:21,14:39:42,NA,incomplete,false,true,NA,6,3,NA,purple,m_s_100.jpg,NA,NA,pleasant,unpleasant,NA,NA,NA,NA,NA,right,2350.19999998808,true,NA,NA,NA,NA,NA
wYPFQqRG,3vck0q0pp8rxiiaq9ji6jar3xntn0d,3urfvvm169v92dyj1gcmsoibpe9zui,wYPFQqRG,2020-0188,2021-10-17,13:16:21,14:39:42,NA,incomplete,false,true,NA,6,4,NA,purple,n_s_018.jpg,NA,NA,pleasant,unpleasant,NA,NA,NA,NA,NA,right,1134.90000000596,true,NA,NA,NA,NA,NA
wYPFQqRG,3vck0q0pp8rxiiaq9ji6jar3xntn0d,3urfvvm169v92dyj1gcmsoibpe9zui,wYPFQqRG,2020-0188,2021-10-17,13:16:21,14:39:42,NA,incomplete,false,true,NA,6,5,NA,purple,m_l_010.jpg,NA,NA,pleasant,unpleasant,NA,NA,NA,NA,NA,right,2498.29999998212,true,NA,NA,NA,NA,NA
wYPFQqRG,3vck0q0pp8rxiiaq9ji6jar3xntn0d,3urfvvm169v92dyj1gcmsoibpe9zui,wYPFQqRG,2020-0188,2021-10-17,13:16:21,14:39:42,NA,incomplete,false,true,NA,6,6,NA,yellow,m_s_043.jpg,NA,NA,unpleasant,pleasant,NA,NA,NA,NA,NA,right,2039.30000001192,true,NA,NA,NA,NA,NA
wYPFQqRG,3vck0q0pp8rxiiaq9ji6jar3xntn0d,3urfvvm169v92dyj1gcmsoibpe9zui,wYPFQqRG,2020-0188,2021-10-17,13:16:21,14:39:42,NA,incomplete,false,true,NA,6,7,NA,yellow,n_l_018.jpg,NA,NA,unpleasant,pleasant,NA,NA,NA,NA,NA,left,2519.70000001788,true,NA,NA,NA,NA,NA
wYPFQqRG,3vck0q0pp8rxiiaq9ji6jar3xntn0d,3urfvvm169v92dyj1gcmsoibpe9zui,wYPFQqRG,2020-0188,2021-10-17,13:16:21,14:39:42,NA,incomplete,false,true,NA,6,8,NA,yellow,n_s_022.jpg,NA,NA,unpleasant,pleasant,NA,NA,NA,NA,NA,left,1799.09999999404,true,NA,NA,NA,NA,NA
wYPFQqRG,3vck0q0pp8rxiiaq9ji6jar3xntn0d,3urfvvm169v92dyj1gcmsoibpe9zui,wYPFQqRG,2020-0188,2021-10-17,13:16:21,14:39:42,NA,incomplete,false,true,NA,6,9,NA,yellow,n_l_105.jpg,NA,NA,pleasant,unpleasant,NA,NA,NA,NA,NA,right,1493,true,NA,NA,NA,NA,NA
wYPFQqRG,3vck0q0pp8rxiiaq9ji6jar3xntn0d,3urfvvm169v92dyj1gcmsoibpe9zui,wYPFQqRG,2020-0188,2021-10-17,13:16:21,14:39:42,NA,incomplete,false,true,NA,6,10,NA,yellow,n_l_055.jpg,NA,NA,unpleasant,pleasant,NA,NA,NA,NA,NA,left,1613.90000000596,true,NA,NA,NA,NA,NA
wYPFQqRG,3vck0q0pp8rxiiaq9ji6jar3xntn0d,3urfvvm169v92dyj1gcmsoibpe9zui,wYPFQqRG,2020-0188,2021-10-17,13:16:21,14:39:42,NA,incomplete,false,true,NA,6,11,NA,yellow,n_l_094.jpg,NA,NA,pleasant,unpleasant,NA,NA,NA,NA,NA,right,2183,true,NA,NA,NA,NA,NA
wYPFQqRG,3vck0q0pp8rxiiaq9ji6jar3xntn0d,3urfvvm169v92dyj1gcmsoibpe9zui,wYPFQqRG,2020-0188,2021-10-17,13:16:21,14:39:42,NA,incomplete,false,true,NA,6,12,NA,blue,m_s_075.jpg,NA,NA,pleasant,unpleasant,NA,NA,NA,NA,NA,left,2638.89999997616,true,NA,NA,NA,NA,NA
wYPFQqRG,3vck0q0pp8rxiiaq9ji6jar3xntn0d,3urfvvm169v92dyj1gcmsoibpe9zui,wYPFQqRG,2020-0188,2021-10-17,13:16:21,14:39:42,NA,incomplete,false,true,NA,6,13,NA,blue,n_l_009.jpg,NA,NA,pleasant,unpleasant,NA,NA,NA,NA,NA,right,1644.29999998212,true,NA,NA,NA,NA,NA
wYPFQqRG,3vck0q0pp8rxiiaq9ji6jar3xntn0d,3urfvvm169v92dyj1gcmsoibpe9zui,wYPFQqRG,2020-0188,2021-10-17,13:16:21,14:39:42,NA,incomplete,false,true,NA,6,14,NA,blue,m_s_090.jpg,NA,NA,pleasant,unpleasant,NA,NA,NA,NA,NA,right,2273,true,NA,NA,NA,NA,NA
wYPFQqRG,3vck0q0pp8rxiiaq9ji6jar3xntn0d,3urfvvm169v92dyj1gcmsoibpe9zui,wYPFQqRG,2020-0188,2021-10-17,13:16:21,14:39:42,NA,incomplete,false,true,NA,6,15,NA,blue,n_s_015.jpg,NA,NA,unpleasant,pleasant,NA,NA,NA,NA,NA,right,1937.80000001192,true,NA,NA,NA,NA,NA
wYPFQqRG,3vck0q0pp8rxiiaq9ji6jar3xntn0d,3urfvvm169v92dyj1gcmsoibpe9zui,wYPFQqRG,2020-0188,2021-10-17,13:16:21,14:39:42,NA,incomplete,false,true,NA,6,16,NA,blue,m_l_110.jpg,NA,NA,pleasant,unpleasant,NA,NA,NA,NA,NA,right,2094.70000001788,true,NA,NA,NA,NA,NA
wYPFQqRG,3vck0q0pp8rxiiaq9ji6jar3xntn0d,3urfvvm169v92dyj1gcmsoibpe9zui,wYPFQqRG,2020-0188,2021-10-17,13:16:21,14:39:42,NA,incomplete,false,true,NA,6,17,NA,blue,m_l_086.jpg,NA,NA,unpleasant,pleasant,NA,NA,NA,NA,NA,left,1941.90000000596,true,NA,NA,NA,NA,NA
wYPFQqRG,3vck0q0pp8rxiiaq9ji6jar3xntn0d,3urfvvm169v92dyj1gcmsoibpe9zui,wYPFQqRG,2020-0188,2021-10-17,13:16:21,14:39:42,NA,incomplete,false,true,NA,6,18,NA,gray,n_l_020.jpg,NA,NA,pleasant,unpleasant,NA,NA,NA,NA,NA,right,1423.5,true,NA,NA,NA,NA,NA
wYPFQqRG,3vck0q0pp8rxiiaq9ji6jar3xntn0d,3urfvvm169v92dyj1gcmsoibpe9zui,wYPFQqRG,2020-0188,2021-10-17,13:16:21,14:39:42,NA,incomplete,false,true,NA,6,19,NA,gray,n_s_019.jpg,NA,NA,unpleasant,pleasant,NA,NA,NA,NA,NA,left,1264.59999999404,true,NA,NA,NA,NA,NA
wYPFQqRG,3vck0q0pp8rxiiaq9ji6jar3xntn0d,3urfvvm169v92dyj1gcmsoibpe9zui,wYPFQqRG,2020-0188,2021-10-17,13:16:21,14:39:42,NA,incomplete,false,true,NA,6,20,NA,gray,m_l_040.jpg,NA,NA,pleasant,unpleasant,NA,NA,NA,NA,NA,right,2039.20000001788,true,NA,NA,NA,NA,NA
wYPFQqRG,3vck0q0pp8rxiiaq9ji6jar3xntn0d,3urfvvm169v92dyj1gcmsoibpe9zui,wYPFQqRG,2020-0188,2021-10-17,13:16:21,14:39:42,NA,incomplete,false,true,NA,6,21,NA,gray,n_s_054.jpg,NA,NA,unpleasant,pleasant,NA,NA,NA,NA,NA,right,2791.10000002384,true,NA,NA,NA,NA,NA
wYPFQqRG,3vck0q0pp8rxiiaq9ji6jar3xntn0d,3urfvvm169v92dyj1gcmsoibpe9zui,wYPFQqRG,2020-0188,2021-10-17,13:16:21,14:39:42,NA,incomplete,false,true,NA,6,22,NA,gray,m_l_111.jpg,NA,NA,unpleasant,pleasant,NA,NA,NA,NA,NA,left,2706.60000002384,true,NA,NA,NA,NA,NA
wYPFQqRG,3vck0q0pp8rxiiaq9ji6jar3xntn0d,3urfvvm169v92dyj1gcmsoibpe9zui,wYPFQqRG,2020-0188,2021-10-17,13:16:21,14:39:42,NA,incomplete,false,true,NA,6,23,NA,gray,m_l_058.jpg,NA,NA,unpleasant,pleasant,NA,NA,NA,NA,NA,left,1308,true,NA,NA,NA,NA,NA
wYPFQqRG,3vck0q0pp8rxiiaq9ji6jar3xntn0d,3urfvvm169v92dyj1gcmsoibpe9zui,wYPFQqRG,2020-0188,2021-10-17,13:16:21,14:39:42,NA,incomplete,false,true,NA,6,24,NA,red,n_l_077.jpg,NA,NA,unpleasant,pleasant,NA,NA,NA,NA,NA,left,2054.5,true,NA,NA,NA,NA,NA
wYPFQqRG,3vck0q0pp8rxiiaq9ji6jar3xntn0d,3urfvvm169v92dyj1gcmsoibpe9zui,wYPFQqRG,2020-0188,2021-10-17,13:16:21,14:39:42,NA,incomplete,false,true,NA,6,25,NA,red,m_l_048.jpg,NA,NA,pleasant,unpleasant,NA,NA,NA,NA,NA,right,1678.09999999404,true,NA,NA,NA,NA,NA
wYPFQqRG,3vck0q0pp8rxiiaq9ji6jar3xntn0d,3urfvvm169v92dyj1gcmsoibpe9zui,wYPFQqRG,2020-0188,2021-10-17,13:16:21,14:39:42,NA,incomplete,false,true,NA,6,26,NA,red,n_s_051.jpg,NA,NA,pleasant,unpleasant,NA,NA,NA,NA,NA,right,1655.59999999404,true,NA,NA,NA,NA,NA
wYPFQqRG,3vck0q0pp8rxiiaq9ji6jar3xntn0d,3urfvvm169v92dyj1gcmsoibpe9zui,wYPFQqRG,2020-0188,2021-10-17,13:16:21,14:39:42,NA,incomplete,false,true,NA,6,27,NA,red,n_l_048.jpg,NA,NA,pleasant,unpleasant,NA,NA,NA,NA,NA,right,1704.40000000596,true,NA,NA,NA,NA,NA
wYPFQqRG,3vck0q0pp8rxiiaq9ji6jar3xntn0d,3urfvvm169v92dyj1gcmsoibpe9zui,wYPFQqRG,2020-0188,2021-10-17,13:16:21,14:39:42,NA,incomplete,false,true,NA,6,28,NA,red,m_s_024.jpg,NA,NA,pleasant,unpleasant,NA,NA,NA,NA,NA,left,2130.90000000596,true,NA,NA,NA,NA,NA
wYPFQqRG,3vck0q0pp8rxiiaq9ji6jar3xntn0d,3urfvvm169v92dyj1gcmsoibpe9zui,wYPFQqRG,2020-0188,2021-10-17,13:16:21,14:39:42,NA,incomplete,false,true,NA,6,29,NA,red,n_s_087.jpg,NA,NA,pleasant,unpleasant,NA,NA,NA,NA,NA,right,2827.19999998808,true,NA,NA,NA,NA,NA
wYPFQqRG,3vck0q0pp8rxiiaq9ji6jar3xntn0d,3urfvvm169v92dyj1gcmsoibpe9zui,wYPFQqRG,2020-0188,2021-10-17,13:16:21,14:39:42,NA,incomplete,false,true,NA,6,30,NA,brown,m_s_002.jpg,NA,NA,pleasant,unpleasant,NA,NA,NA,NA,NA,right,2159.90000000596,true,NA,NA,NA,NA,NA
wYPFQqRG,3vck0q0pp8rxiiaq9ji6jar3xntn0d,3urfvvm169v92dyj1gcmsoibpe9zui,wYPFQqRG,2020-0188,2021-10-17,13:16:21,14:39:42,NA,incomplete,false,true,NA,6,31,NA,brown,n_s_007.jpg,NA,NA,unpleasant,pleasant,NA,NA,NA,NA,NA,right,2915.09999999404,true,NA,NA,NA,NA,NA
wYPFQqRG,3vck0q0pp8rxiiaq9ji6jar3xntn0d,3urfvvm169v92dyj1gcmsoibpe9zui,wYPFQqRG,2020-0188,2021-10-17,13:16:21,14:39:42,NA,incomplete,false,true,NA,6,32,NA,brown,m_s_049.jpg,NA,NA,pleasant,unpleasant,NA,NA,NA,NA,NA,right,1357.59999999404,true,NA,NA,NA,NA,NA
wYPFQqRG,3vck0q0pp8rxiiaq9ji6jar3xntn0d,3urfvvm169v92dyj1gcmsoibpe9zui,wYPFQqRG,2020-0188,2021-10-17,13:16:21,14:39:42,NA,incomplete,false,true,NA,6,33,NA,brown,m_s_050.jpg,NA,NA,unpleasant,pleasant,NA,NA,NA,NA,NA,left,1870.59999999404,true,NA,NA,NA,NA,NA
wYPFQqRG,3vck0q0pp8rxiiaq9ji6jar3xntn0d,3urfvvm169v92dyj1gcmsoibpe9zui,wYPFQqRG,2020-0188,2021-10-17,13:16:21,14:39:42,NA,incomplete,false,true,NA,6,34,NA,brown,n_l_019.jpg,NA,NA,pleasant,unpleasant,NA,NA,NA,NA,NA,right,1861.69999998808,true,NA,NA,NA,NA,NA
wYPFQqRG,3vck0q0pp8rxiiaq9ji6jar3xntn0d,3urfvvm169v92dyj1gcmsoibpe9zui,wYPFQqRG,2020-0188,2021-10-17,13:16:21,14:39:42,NA,incomplete,false,true,NA,6,35,NA,brown,m_s_009.jpg,NA,NA,pleasant,unpleasant,NA,NA,NA,NA,NA,right,1915.60000002384,true,NA,NA,NA,NA,NA
wYPFQqRG,3vck0q0pp8rxiiaq9ji6jar3xntn0d,3urfvvm169v92dyj1gcmsoibpe9zui,wYPFQqRG,2020-0188,2021-10-17,13:16:21,14:39:42,NA,incomplete,false,NA,true,6,0,NA,NA,NA,left,present,NA,NA,n_s_018.jpg,purple,n_s_022.jpg,yellow,between,NA,NaN,NA,right,5130.0999999940395,0,3,4040
wYPFQqRG,3vck0q0pp8rxiiaq9ji6jar3xntn0d,3urfvvm169v92dyj1gcmsoibpe9zui,wYPFQqRG,2020-0188,2021-10-17,13:16:21,14:39:42,NA,incomplete,false,NA,true,6,1,NA,NA,NA,left,present,NA,NA,n_s_019.jpg,gray,m_l_058.jpg,gray,within,NA,NaN,NA,left,6124.200000017881,1,0,2396.2000000178814
wYPFQqRG,3vck0q0pp8rxiiaq9ji6jar3xntn0d,3urfvvm169v92dyj1gcmsoibpe9zui,wYPFQqRG,2020-0188,2021-10-17,13:16:21,14:39:42,NA,incomplete,false,NA,true,6,2,NA,NA,NA,right,present,NA,NA,n_s_087.jpg,red,m_l_048.jpg,red,within,NA,NaN,NA,left,6891.9000000059605,0,0,1355.2000000178814
wYPFQqRG,3vck0q0pp8rxiiaq9ji6jar3xntn0d,3urfvvm169v92dyj1gcmsoibpe9zui,wYPFQqRG,2020-0188,2021-10-17,13:16:21,14:39:42,NA,incomplete,false,NA,true,6,3,NA,NA,NA,right,present,NA,NA,m_s_090.jpg,blue,n_l_055.jpg,yellow,between,NA,NaN,NA,right,14126.100000023842,1,1,1150.699999988079
wYPFQqRG,3vck0q0pp8rxiiaq9ji6jar3xntn0d,3urfvvm169v92dyj1gcmsoibpe9zui,wYPFQqRG,2020-0188,2021-10-17,13:16:21,14:39:42,NA,incomplete,false,NA,true,6,4,NA,NA,NA,left,present,NA,NA,m_s_024.jpg,red,m_s_049.jpg,brown,between,NA,NaN,NA,right,6832.200000017881,0,2,1989
wYPFQqRG,3vck0q0pp8rxiiaq9ji6jar3xntn0d,3urfvvm169v92dyj1gcmsoibpe9zui,wYPFQqRG,2020-0188,2021-10-17,13:16:21,14:39:42,NA,incomplete,false,NA,true,6,5,NA,NA,NA,left,present,NA,NA,n_l_049.jpg,purple,m_l_010.jpg,purple,within,NA,NaN,NA,left,7788.5,1,0,1330.800000011921
wYPFQqRG,3vck0q0pp8rxiiaq9ji6jar3xntn0d,3urfvvm169v92dyj1gcmsoibpe9zui,wYPFQqRG,2020-0188,2021-10-17,13:16:21,14:39:42,NA,incomplete,false,NA,true,6,6,NA,NA,NA,right,present,NA,NA,m_l_086.jpg,blue,n_l_009.jpg,blue,within,NA,NaN,NA,left,3422.600000023842,0,0,1448.2999999821186
wYPFQqRG,3vck0q0pp8rxiiaq9ji6jar3xntn0d,3urfvvm169v92dyj1gcmsoibpe9zui,wYPFQqRG,2020-0188,2021-10-17,13:16:21,14:39:42,NA,incomplete,false,NA,true,6,7,NA,NA,NA,left,present,NA,NA,m_l_110.jpg,blue,m_l_040.jpg,gray,between,NA,NaN,NA,left,5608.9000000059605,1,3,1205
wYPFQqRG,3vck0q0pp8rxiiaq9ji6jar3xntn0d,3urfvvm169v92dyj1gcmsoibpe9zui,wYPFQqRG,2020-0188,2021-10-17,13:16:21,14:39:42,NA,incomplete,false,NA,true,6,8,NA,NA,NA,right,present,NA,NA,n_s_051.jpg,red,m_l_111.jpg,gray,between,NA,NaN,NA,left,7400.5999999940395,0,2,1942.9000000059605
wYPFQqRG,3vck0q0pp8rxiiaq9ji6jar3xntn0d,3urfvvm169v92dyj1gcmsoibpe9zui,wYPFQqRG,2020-0188,2021-10-17,13:16:21,14:39:42,NA,incomplete,false,NA,true,6,9,NA,NA,NA,left,present,NA,NA,n_s_007.jpg,brown,m_s_009.jpg,brown,within,NA,NaN,NA,left,5114.199999988079,1,0,915.5999999940395
wYPFQqRG,3vck0q0pp8rxiiaq9ji6jar3xntn0d,3urfvvm169v92dyj1gcmsoibpe9zui,wYPFQqRG,2020-0188,2021-10-17,13:16:21,14:39:42,NA,incomplete,false,NA,true,6,10,NA,NA,NA,right,present,NA,NA,n_l_094.jpg,yellow,n_l_018.jpg,yellow,within,NA,NaN,NA,right,5670.5999999940395,1,0,1402.5
wYPFQqRG,3vck0q0pp8rxiiaq9ji6jar3xntn0d,3urfvvm169v92dyj1gcmsoibpe9zui,wYPFQqRG,2020-0188,2021-10-17,13:16:21,14:39:42,NA,incomplete,false,true,NA,7,0,NA,green,n_s_036.jpg,NA,NA,unpleasant,pleasant,NA,NA,NA,NA,NA,none,0,false,NA,NA,NA,NA,NA
wYPFQqRG,3vck0q0pp8rxiiaq9ji6jar3xntn0d,3urfvvm169v92dyj1gcmsoibpe9zui,wYPFQqRG,2020-0188,2021-10-17,13:16:21,14:39:42,NA,incomplete,false,true,NA,7,1,NA,green,m_l_083.jpg,NA,NA,unpleasant,pleasant,NA,NA,NA,NA,NA,left,1556.90000000596,true,NA,NA,NA,NA,NA
wYPFQqRG,3vck0q0pp8rxiiaq9ji6jar3xntn0d,3urfvvm169v92dyj1gcmsoibpe9zui,wYPFQqRG,2020-0188,2021-10-17,13:16:21,14:39:42,NA,incomplete,false,true,NA,7,2,NA,green,n_l_013.jpg,NA,NA,pleasant,unpleasant,NA,NA,NA,NA,NA,right,1399.79999998212,true,NA,NA,NA,NA,NA
wYPFQqRG,3vck0q0pp8rxiiaq9ji6jar3xntn0d,3urfvvm169v92dyj1gcmsoibpe9zui,wYPFQqRG,2020-0188,2021-10-17,13:16:21,14:39:42,NA,incomplete,false,true,NA,7,3,NA,green,m_l_009.jpg,NA,NA,unpleasant,pleasant,NA,NA,NA,NA,NA,left,1048.5,true,NA,NA,NA,NA,NA
wYPFQqRG,3vck0q0pp8rxiiaq9ji6jar3xntn0d,3urfvvm169v92dyj1gcmsoibpe9zui,wYPFQqRG,2020-0188,2021-10-17,13:16:21,14:39:42,NA,incomplete,false,true,NA,7,4,NA,green,n_s_116.jpg,NA,NA,pleasant,unpleasant,NA,NA,NA,NA,NA,right,1358,true,NA,NA,NA,NA,NA
wYPFQqRG,3vck0q0pp8rxiiaq9ji6jar3xntn0d,3urfvvm169v92dyj1gcmsoibpe9zui,wYPFQqRG,2020-0188,2021-10-17,13:16:21,14:39:42,NA,incomplete,false,true,NA,7,5,NA,green,n_l_085.jpg,NA,NA,pleasant,unpleasant,NA,NA,NA,NA,NA,right,1399.79999998212,true,NA,NA,NA,NA,NA
wYPFQqRG,3vck0q0pp8rxiiaq9ji6jar3xntn0d,3urfvvm169v92dyj1gcmsoibpe9zui,wYPFQqRG,2020-0188,2021-10-17,13:16:21,14:39:42,NA,incomplete,false,true,NA,7,6,NA,gray,n_s_032.jpg,NA,NA,pleasant,unpleasant,NA,NA,NA,NA,NA,right,1520.90000000596,true,NA,NA,NA,NA,NA
wYPFQqRG,3vck0q0pp8rxiiaq9ji6jar3xntn0d,3urfvvm169v92dyj1gcmsoibpe9zui,wYPFQqRG,2020-0188,2021-10-17,13:16:21,14:39:42,NA,incomplete,false,true,NA,7,7,NA,gray,n_l_087.jpg,NA,NA,unpleasant,pleasant,NA,NA,NA,NA,NA,left,1931.89999997616,true,NA,NA,NA,NA,NA
wYPFQqRG,3vck0q0pp8rxiiaq9ji6jar3xntn0d,3urfvvm169v92dyj1gcmsoibpe9zui,wYPFQqRG,2020-0188,2021-10-17,13:16:21,14:39:42,NA,incomplete,false,true,NA,7,8,NA,gray,n_s_031.jpg,NA,NA,pleasant,unpleasant,NA,NA,NA,NA,NA,right,1352.70000001788,true,NA,NA,NA,NA,NA
wYPFQqRG,3vck0q0pp8rxiiaq9ji6jar3xntn0d,3urfvvm169v92dyj1gcmsoibpe9zui,wYPFQqRG,2020-0188,2021-10-17,13:16:21,14:39:42,NA,incomplete,false,true,NA,7,9,NA,gray,m_l_109.jpg,NA,NA,pleasant,unpleasant,NA,NA,NA,NA,NA,right,2320.09999999404,true,NA,NA,NA,NA,NA
wYPFQqRG,3vck0q0pp8rxiiaq9ji6jar3xntn0d,3urfvvm169v92dyj1gcmsoibpe9zui,wYPFQqRG,2020-0188,2021-10-17,13:16:21,14:39:42,NA,incomplete,false,true,NA,7,10,NA,gray,n_s_071.jpg,NA,NA,unpleasant,pleasant,NA,NA,NA,NA,NA,left,1428.70000001788,true,NA,NA,NA,NA,NA
wYPFQqRG,3vck0q0pp8rxiiaq9ji6jar3xntn0d,3urfvvm169v92dyj1gcmsoibpe9zui,wYPFQqRG,2020-0188,2021-10-17,13:16:21,14:39:42,NA,incomplete,false,true,NA,7,11,NA,gray,n_s_117.jpg,NA,NA,pleasant,unpleasant,NA,NA,NA,NA,NA,right,1649.80000001192,true,NA,NA,NA,NA,NA
wYPFQqRG,3vck0q0pp8rxiiaq9ji6jar3xntn0d,3urfvvm169v92dyj1gcmsoibpe9zui,wYPFQqRG,2020-0188,2021-10-17,13:16:21,14:39:42,NA,incomplete,false,true,NA,7,12,NA,blue,n_l_092.jpg,NA,NA,unpleasant,pleasant,NA,NA,NA,NA,NA,left,1696.80000001192,true,NA,NA,NA,NA,NA
wYPFQqRG,3vck0q0pp8rxiiaq9ji6jar3xntn0d,3urfvvm169v92dyj1gcmsoibpe9zui,wYPFQqRG,2020-0188,2021-10-17,13:16:21,14:39:42,NA,incomplete,false,true,NA,7,13,NA,blue,m_l_093.jpg,NA,NA,pleasant,unpleasant,NA,NA,NA,NA,NA,right,1674.5,true,NA,NA,NA,NA,NA
wYPFQqRG,3vck0q0pp8rxiiaq9ji6jar3xntn0d,3urfvvm169v92dyj1gcmsoibpe9zui,wYPFQqRG,2020-0188,2021-10-17,13:16:21,14:39:42,NA,incomplete,false,true,NA,7,14,NA,blue,n_l_032.jpg,NA,NA,unpleasant,pleasant,NA,NA,NA,NA,NA,left,1927.5,true,NA,NA,NA,NA,NA
wYPFQqRG,3vck0q0pp8rxiiaq9ji6jar3xntn0d,3urfvvm169v92dyj1gcmsoibpe9zui,wYPFQqRG,2020-0188,2021-10-17,13:16:21,14:39:42,NA,incomplete,false,true,NA,7,15,NA,blue,m_s_057.jpg,NA,NA,unpleasant,pleasant,NA,NA,NA,NA,NA,none,0,false,NA,NA,NA,NA,NA
wYPFQqRG,3vck0q0pp8rxiiaq9ji6jar3xntn0d,3urfvvm169v92dyj1gcmsoibpe9zui,wYPFQqRG,2020-0188,2021-10-17,13:16:21,14:39:42,NA,incomplete,false,true,NA,7,16,NA,blue,m_s_109.jpg,NA,NA,unpleasant,pleasant,NA,NA,NA,NA,NA,left,1870,true,NA,NA,NA,NA,NA
wYPFQqRG,3vck0q0pp8rxiiaq9ji6jar3xntn0d,3urfvvm169v92dyj1gcmsoibpe9zui,wYPFQqRG,2020-0188,2021-10-17,13:16:21,14:39:42,NA,incomplete,false,true,NA,7,17,NA,blue,m_l_047.jpg,NA,NA,unpleasant,pleasant,NA,NA,NA,NA,NA,left,1795.90000000596,true,NA,NA,NA,NA,NA
wYPFQqRG,3vck0q0pp8rxiiaq9ji6jar3xntn0d,3urfvvm169v92dyj1gcmsoibpe9zui,wYPFQqRG,2020-0188,2021-10-17,13:16:21,14:39:42,NA,incomplete,false,true,NA,7,18,NA,orange,n_l_113.jpg,NA,NA,unpleasant,pleasant,NA,NA,NA,NA,NA,left,1465.69999998808,true,NA,NA,NA,NA,NA
wYPFQqRG,3vck0q0pp8rxiiaq9ji6jar3xntn0d,3urfvvm169v92dyj1gcmsoibpe9zui,wYPFQqRG,2020-0188,2021-10-17,13:16:21,14:39:42,NA,incomplete,false,true,NA,7,19,NA,orange,n_l_011.jpg,NA,NA,unpleasant,pleasant,NA,NA,NA,NA,NA,left,1822.60000002384,true,NA,NA,NA,NA,NA
wYPFQqRG,3vck0q0pp8rxiiaq9ji6jar3xntn0d,3urfvvm169v92dyj1gcmsoibpe9zui,wYPFQqRG,2020-0188,2021-10-17,13:16:21,14:39:42,NA,incomplete,false,true,NA,7,20,NA,orange,n_s_024.jpg,NA,NA,pleasant,unpleasant,NA,NA,NA,NA,NA,right,1647.19999998808,true,NA,NA,NA,NA,NA
wYPFQqRG,3vck0q0pp8rxiiaq9ji6jar3xntn0d,3urfvvm169v92dyj1gcmsoibpe9zui,wYPFQqRG,2020-0188,2021-10-17,13:16:21,14:39:42,NA,incomplete,false,true,NA,7,21,NA,orange,n_l_054.jpg,NA,NA,pleasant,unpleasant,NA,NA,NA,NA,NA,right,2084.19999998808,true,NA,NA,NA,NA,NA
wYPFQqRG,3vck0q0pp8rxiiaq9ji6jar3xntn0d,3urfvvm169v92dyj1gcmsoibpe9zui,wYPFQqRG,2020-0188,2021-10-17,13:16:21,14:39:42,NA,incomplete,false,true,NA,7,22,NA,orange,n_s_104.jpg,NA,NA,unpleasant,pleasant,NA,NA,NA,NA,NA,left,1406.5,true,NA,NA,NA,NA,NA
wYPFQqRG,3vck0q0pp8rxiiaq9ji6jar3xntn0d,3urfvvm169v92dyj1gcmsoibpe9zui,wYPFQqRG,2020-0188,2021-10-17,13:16:21,14:39:42,NA,incomplete,false,true,NA,7,23,NA,orange,m_s_045.jpg,NA,NA,unpleasant,pleasant,NA,NA,NA,NA,NA,left,1422.40000000596,true,NA,NA,NA,NA,NA
wYPFQqRG,3vck0q0pp8rxiiaq9ji6jar3xntn0d,3urfvvm169v92dyj1gcmsoibpe9zui,wYPFQqRG,2020-0188,2021-10-17,13:16:21,14:39:42,NA,incomplete,false,true,NA,7,24,NA,purple,m_s_001.jpg,NA,NA,pleasant,unpleasant,NA,NA,NA,NA,NA,left,3059.60000002384,true,NA,NA,NA,NA,NA
wYPFQqRG,3vck0q0pp8rxiiaq9ji6jar3xntn0d,3urfvvm169v92dyj1gcmsoibpe9zui,wYPFQqRG,2020-0188,2021-10-17,13:16:21,14:39:42,NA,incomplete,false,true,NA,7,25,NA,purple,n_s_068.jpg,NA,NA,unpleasant,pleasant,NA,NA,NA,NA,NA,left,1151.19999998808,true,NA,NA,NA,NA,NA
wYPFQqRG,3vck0q0pp8rxiiaq9ji6jar3xntn0d,3urfvvm169v92dyj1gcmsoibpe9zui,wYPFQqRG,2020-0188,2021-10-17,13:16:21,14:39:42,NA,incomplete,false,true,NA,7,26,NA,purple,n_s_027.jpg,NA,NA,unpleasant,pleasant,NA,NA,NA,NA,NA,left,1773.40000000596,true,NA,NA,NA,NA,NA
wYPFQqRG,3vck0q0pp8rxiiaq9ji6jar3xntn0d,3urfvvm169v92dyj1gcmsoibpe9zui,wYPFQqRG,2020-0188,2021-10-17,13:16:21,14:39:42,NA,incomplete,false,true,NA,7,27,NA,purple,n_l_041.jpg,NA,NA,pleasant,unpleasant,NA,NA,NA,NA,NA,right,2057.29999998212,true,NA,NA,NA,NA,NA
wYPFQqRG,3vck0q0pp8rxiiaq9ji6jar3xntn0d,3urfvvm169v92dyj1gcmsoibpe9zui,wYPFQqRG,2020-0188,2021-10-17,13:16:21,14:39:42,NA,incomplete,false,true,NA,7,28,NA,purple,n_s_094.jpg,NA,NA,unpleasant,pleasant,NA,NA,NA,NA,NA,left,1891.80000001192,true,NA,NA,NA,NA,NA
wYPFQqRG,3vck0q0pp8rxiiaq9ji6jar3xntn0d,3urfvvm169v92dyj1gcmsoibpe9zui,wYPFQqRG,2020-0188,2021-10-17,13:16:21,14:39:42,NA,incomplete,false,true,NA,7,29,NA,purple,m_s_083.jpg,NA,NA,pleasant,unpleasant,NA,NA,NA,NA,NA,left,2951.40000000596,true,NA,NA,NA,NA,NA
wYPFQqRG,3vck0q0pp8rxiiaq9ji6jar3xntn0d,3urfvvm169v92dyj1gcmsoibpe9zui,wYPFQqRG,2020-0188,2021-10-17,13:16:21,14:39:42,NA,incomplete,false,true,NA,7,30,NA,brown,n_s_030.jpg,NA,NA,pleasant,unpleasant,NA,NA,NA,NA,NA,right,2401.29999998212,true,NA,NA,NA,NA,NA
wYPFQqRG,3vck0q0pp8rxiiaq9ji6jar3xntn0d,3urfvvm169v92dyj1gcmsoibpe9zui,wYPFQqRG,2020-0188,2021-10-17,13:16:21,14:39:42,NA,incomplete,false,true,NA,7,31,NA,brown,n_l_089.jpg,NA,NA,unpleasant,pleasant,NA,NA,NA,NA,NA,left,2360.40000000596,true,NA,NA,NA,NA,NA
wYPFQqRG,3vck0q0pp8rxiiaq9ji6jar3xntn0d,3urfvvm169v92dyj1gcmsoibpe9zui,wYPFQqRG,2020-0188,2021-10-17,13:16:21,14:39:42,NA,incomplete,false,true,NA,7,32,NA,brown,m_s_089.jpg,NA,NA,unpleasant,pleasant,NA,NA,NA,NA,NA,left,1513.09999999404,true,NA,NA,NA,NA,NA
wYPFQqRG,3vck0q0pp8rxiiaq9ji6jar3xntn0d,3urfvvm169v92dyj1gcmsoibpe9zui,wYPFQqRG,2020-0188,2021-10-17,13:16:21,14:39:42,NA,incomplete,false,true,NA,7,33,NA,brown,n_s_115.jpg,NA,NA,unpleasant,pleasant,NA,NA,NA,NA,NA,left,1366.09999999404,true,NA,NA,NA,NA,NA
wYPFQqRG,3vck0q0pp8rxiiaq9ji6jar3xntn0d,3urfvvm169v92dyj1gcmsoibpe9zui,wYPFQqRG,2020-0188,2021-10-17,13:16:21,14:39:42,NA,incomplete,false,true,NA,7,34,NA,brown,n_l_027.jpg,NA,NA,unpleasant,pleasant,NA,NA,NA,NA,NA,left,1930.90000000596,true,NA,NA,NA,NA,NA
wYPFQqRG,3vck0q0pp8rxiiaq9ji6jar3xntn0d,3urfvvm169v92dyj1gcmsoibpe9zui,wYPFQqRG,2020-0188,2021-10-17,13:16:21,14:39:42,NA,incomplete,false,true,NA,7,35,NA,brown,m_s_023.jpg,NA,NA,pleasant,unpleasant,NA,NA,NA,NA,NA,right,2025.90000000596,true,NA,NA,NA,NA,NA
wYPFQqRG,3vck0q0pp8rxiiaq9ji6jar3xntn0d,3urfvvm169v92dyj1gcmsoibpe9zui,wYPFQqRG,2020-0188,2021-10-17,13:16:21,14:39:42,NA,incomplete,false,NA,true,7,0,NA,NA,NA,right,present,NA,NA,m_l_047.jpg,blue,m_l_093.jpg,blue,within,NA,NaN,NA,right,7269.0999999940395,1,0,2842.7000000178814
wYPFQqRG,3vck0q0pp8rxiiaq9ji6jar3xntn0d,3urfvvm169v92dyj1gcmsoibpe9zui,wYPFQqRG,2020-0188,2021-10-17,13:16:21,14:39:42,NA,incomplete,false,NA,true,7,1,NA,NA,NA,right,present,NA,NA,m_s_083.jpg,purple,n_s_068.jpg,purple,within,NA,NaN,NA,left,6735.9000000059605,0,0,1307.4000000059605
wYPFQqRG,3vck0q0pp8rxiiaq9ji6jar3xntn0d,3urfvvm169v92dyj1gcmsoibpe9zui,wYPFQqRG,2020-0188,2021-10-17,13:16:21,14:39:42,NA,incomplete,false,NA,true,7,2,NA,NA,NA,left,present,NA,NA,n_s_116.jpg,green,n_s_031.jpg,gray,between,NA,NaN,NA,left,6675.5,1,1,1723.1000000238419
wYPFQqRG,3vck0q0pp8rxiiaq9ji6jar3xntn0d,3urfvvm169v92dyj1gcmsoibpe9zui,wYPFQqRG,2020-0188,2021-10-17,13:16:21,14:39:42,NA,incomplete,false,NA,true,7,3,NA,NA,NA,left,present,NA,NA,m_l_083.jpg,green,n_l_085.jpg,green,within,NA,NaN,NA,left,7558.5,1,0,1449.1000000238419
wYPFQqRG,3vck0q0pp8rxiiaq9ji6jar3xntn0d,3urfvvm169v92dyj1gcmsoibpe9zui,wYPFQqRG,2020-0188,2021-10-17,13:16:21,14:39:42,NA,incomplete,false,NA,true,7,4,NA,NA,NA,left,present,NA,NA,n_l_011.jpg,orange,m_s_045.jpg,orange,within,NA,NaN,NA,right,7096.899999976158,0,0,1323.0999999940395
wYPFQqRG,3vck0q0pp8rxiiaq9ji6jar3xntn0d,3urfvvm169v92dyj1gcmsoibpe9zui,wYPFQqRG,2020-0188,2021-10-17,13:16:21,14:39:42,NA,incomplete,false,NA,true,7,5,NA,NA,NA,right,present,NA,NA,m_s_023.jpg,brown,n_l_089.jpg,brown,within,NA,NaN,NA,right,4088.300000011921,1,0,1433
wYPFQqRG,3vck0q0pp8rxiiaq9ji6jar3xntn0d,3urfvvm169v92dyj1gcmsoibpe9zui,wYPFQqRG,2020-0188,2021-10-17,13:16:21,14:39:42,NA,incomplete,false,NA,true,7,6,NA,NA,NA,left,present,NA,NA,n_s_104.jpg,orange,n_s_027.jpg,purple,between,NA,NaN,NA,left,3925.0999999940395,1,2,4378.699999988079
wYPFQqRG,3vck0q0pp8rxiiaq9ji6jar3xntn0d,3urfvvm169v92dyj1gcmsoibpe9zui,wYPFQqRG,2020-0188,2021-10-17,13:16:21,14:39:42,NA,incomplete,false,NA,true,7,7,NA,NA,NA,right,present,NA,NA,n_l_032.jpg,blue,n_s_071.jpg,gray,between,NA,NaN,NA,right,10716.90000000596,1,1,1462.300000011921
wYPFQqRG,3vck0q0pp8rxiiaq9ji6jar3xntn0d,3urfvvm169v92dyj1gcmsoibpe9zui,wYPFQqRG,2020-0188,2021-10-17,13:16:21,14:39:42,NA,incomplete,false,NA,true,7,8,NA,NA,NA,right,present,NA,NA,n_s_024.jpg,orange,m_s_109.jpg,blue,between,NA,NaN,NA,right,6016.5,1,1,3562.2999999821186
wYPFQqRG,3vck0q0pp8rxiiaq9ji6jar3xntn0d,3urfvvm169v92dyj1gcmsoibpe9zui,wYPFQqRG,2020-0188,2021-10-17,13:16:21,14:39:42,NA,incomplete,false,NA,true,7,9,NA,NA,NA,left,present,NA,NA,n_s_094.jpg,purple,m_s_089.jpg,brown,between,NA,NaN,NA,left,3892.5,1,2,2648.600000023842
wYPFQqRG,3vck0q0pp8rxiiaq9ji6jar3xntn0d,3urfvvm169v92dyj1gcmsoibpe9zui,wYPFQqRG,2020-0188,2021-10-17,13:16:21,14:39:42,NA,incomplete,false,NA,true,7,10,NA,NA,NA,left,present,NA,NA,n_l_087.jpg,gray,n_s_117.jpg,gray,within,NA,NaN,NA,left,7443,1,0,1330.699999988079
wYPFQqRG,3vck0q0pp8rxiiaq9ji6jar3xntn0d,3urfvvm169v92dyj1gcmsoibpe9zui,wYPFQqRG,2020-0188,2021-10-17,13:16:21,14:39:42,NA,incomplete,false,true,NA,8,0,NA,orange,m_s_060.jpg,NA,NA,unpleasant,pleasant,NA,NA,NA,NA,NA,none,0,false,NA,NA,NA,NA,NA
wYPFQqRG,3vck0q0pp8rxiiaq9ji6jar3xntn0d,3urfvvm169v92dyj1gcmsoibpe9zui,wYPFQqRG,2020-0188,2021-10-17,13:16:21,14:39:42,NA,incomplete,false,true,NA,8,1,NA,orange,n_l_115.jpg,NA,NA,pleasant,unpleasant,NA,NA,NA,NA,NA,right,2370.69999998808,true,NA,NA,NA,NA,NA
wYPFQqRG,3vck0q0pp8rxiiaq9ji6jar3xntn0d,3urfvvm169v92dyj1gcmsoibpe9zui,wYPFQqRG,2020-0188,2021-10-17,13:16:21,14:39:42,NA,incomplete,false,true,NA,8,2,NA,orange,n_s_010.jpg,NA,NA,pleasant,unpleasant,NA,NA,NA,NA,NA,right,2481.40000000596,true,NA,NA,NA,NA,NA
wYPFQqRG,3vck0q0pp8rxiiaq9ji6jar3xntn0d,3urfvvm169v92dyj1gcmsoibpe9zui,wYPFQqRG,2020-0188,2021-10-17,13:16:21,14:39:42,NA,incomplete,false,true,NA,8,3,NA,orange,n_l_104.jpg,NA,NA,unpleasant,pleasant,NA,NA,NA,NA,NA,left,2165,true,NA,NA,NA,NA,NA
wYPFQqRG,3vck0q0pp8rxiiaq9ji6jar3xntn0d,3urfvvm169v92dyj1gcmsoibpe9zui,wYPFQqRG,2020-0188,2021-10-17,13:16:21,14:39:42,NA,incomplete,false,true,NA,8,4,NA,orange,n_s_078.jpg,NA,NA,unpleasant,pleasant,NA,NA,NA,NA,NA,left,2303.69999998808,true,NA,NA,NA,NA,NA
wYPFQqRG,3vck0q0pp8rxiiaq9ji6jar3xntn0d,3urfvvm169v92dyj1gcmsoibpe9zui,wYPFQqRG,2020-0188,2021-10-17,13:16:21,14:39:42,NA,incomplete,false,true,NA,8,5,NA,orange,n_l_017.jpg,NA,NA,pleasant,unpleasant,NA,NA,NA,NA,NA,right,1212.80000001192,true,NA,NA,NA,NA,NA
wYPFQqRG,3vck0q0pp8rxiiaq9ji6jar3xntn0d,3urfvvm169v92dyj1gcmsoibpe9zui,wYPFQqRG,2020-0188,2021-10-17,13:16:21,14:39:42,NA,incomplete,false,true,NA,8,6,NA,red,n_l_109.jpg,NA,NA,unpleasant,pleasant,NA,NA,NA,NA,NA,left,2481.59999999404,true,NA,NA,NA,NA,NA
wYPFQqRG,3vck0q0pp8rxiiaq9ji6jar3xntn0d,3urfvvm169v92dyj1gcmsoibpe9zui,wYPFQqRG,2020-0188,2021-10-17,13:16:21,14:39:42,NA,incomplete,false,true,NA,8,7,NA,red,n_s_062.jpg,NA,NA,pleasant,unpleasant,NA,NA,NA,NA,NA,right,3129.20000001788,true,NA,NA,NA,NA,NA
wYPFQqRG,3vck0q0pp8rxiiaq9ji6jar3xntn0d,3urfvvm169v92dyj1gcmsoibpe9zui,wYPFQqRG,2020-0188,2021-10-17,13:16:21,14:39:42,NA,incomplete,false,true,NA,8,8,NA,red,m_l_051.jpg,NA,NA,pleasant,unpleasant,NA,NA,NA,NA,NA,right,1829.69999998808,true,NA,NA,NA,NA,NA
wYPFQqRG,3vck0q0pp8rxiiaq9ji6jar3xntn0d,3urfvvm169v92dyj1gcmsoibpe9zui,wYPFQqRG,2020-0188,2021-10-17,13:16:21,14:39:42,NA,incomplete,false,true,NA,8,9,NA,red,m_s_038.jpg,NA,NA,pleasant,unpleasant,NA,NA,NA,NA,NA,right,2263.20000001788,true,NA,NA,NA,NA,NA
