workerId,hitId,assignmentId,subject,studyid,exp_date,exp_start,exp_end,time_start,time_end,practice,encoding,memory,block,trial,event_order,event,stim,answer,context_type,label_left,label_right,left_image,left_event,right_image,right_event,condition,response,response_time,response_acc,order_response,order_response_time,order_acc,distance_response,distance_response_time
xdelvHJb,32k26u12eq14p7ktnmss8y5zd9bdv8,3u0srxb7chin5wsjuy6nsqoi8panra,xdelvHJb,2020-0188,2021-10-14,13:03:20,14:34:11,NA,incomplete,true,true,NA,0,0,NA,white,m_l_041.jpg,NA,NA,unpleasant,pleasant,NA,NA,NA,NA,NA,right,1233.80000000075,true,NA,NA,NA,NA,NA
xdelvHJb,32k26u12eq14p7ktnmss8y5zd9bdv8,3u0srxb7chin5wsjuy6nsqoi8panra,xdelvHJb,2020-0188,2021-10-14,13:03:20,14:34:11,NA,incomplete,true,true,NA,0,1,NA,white,n_l_060.jpg,NA,NA,unpleasant,pleasant,NA,NA,NA,NA,NA,right,1217.79999999981,true,NA,NA,NA,NA,NA
xdelvHJb,32k26u12eq14p7ktnmss8y5zd9bdv8,3u0srxb7chin5wsjuy6nsqoi8panra,xdelvHJb,2020-0188,2021-10-14,13:03:20,14:34:11,NA,incomplete,true,true,NA,0,2,NA,white,m_l_087.jpg,NA,NA,pleasant,unpleasant,NA,NA,NA,NA,NA,right,1693.40000000037,true,NA,NA,NA,NA,NA
xdelvHJb,32k26u12eq14p7ktnmss8y5zd9bdv8,3u0srxb7chin5wsjuy6nsqoi8panra,xdelvHJb,2020-0188,2021-10-14,13:03:20,14:34:11,NA,incomplete,true,true,NA,0,3,NA,white,n_s_013.jpg,NA,NA,pleasant,unpleasant,NA,NA,NA,NA,NA,left,1066.59999999963,true,NA,NA,NA,NA,NA
xdelvHJb,32k26u12eq14p7ktnmss8y5zd9bdv8,3u0srxb7chin5wsjuy6nsqoi8panra,xdelvHJb,2020-0188,2021-10-14,13:03:20,14:34:11,NA,incomplete,true,true,NA,0,4,NA,white,n_l_113.jpg,NA,NA,pleasant,unpleasant,NA,NA,NA,NA,NA,right,1770.59999999963,true,NA,NA,NA,NA,NA
xdelvHJb,32k26u12eq14p7ktnmss8y5zd9bdv8,3u0srxb7chin5wsjuy6nsqoi8panra,xdelvHJb,2020-0188,2021-10-14,13:03:20,14:34:11,NA,incomplete,true,true,NA,0,5,NA,white,n_l_098.jpg,NA,NA,pleasant,unpleasant,NA,NA,NA,NA,NA,left,1002.80000000075,true,NA,NA,NA,NA,NA
xdelvHJb,32k26u12eq14p7ktnmss8y5zd9bdv8,3u0srxb7chin5wsjuy6nsqoi8panra,xdelvHJb,2020-0188,2021-10-14,13:03:20,14:34:11,NA,incomplete,true,true,NA,0,6,NA,brown,n_s_090.jpg,NA,NA,pleasant,unpleasant,NA,NA,NA,NA,NA,right,1499.09999999963,true,NA,NA,NA,NA,NA
xdelvHJb,32k26u12eq14p7ktnmss8y5zd9bdv8,3u0srxb7chin5wsjuy6nsqoi8panra,xdelvHJb,2020-0188,2021-10-14,13:03:20,14:34:11,NA,incomplete,true,true,NA,0,7,NA,brown,m_l_004.jpg,NA,NA,pleasant,unpleasant,NA,NA,NA,NA,NA,right,1779.40000000037,true,NA,NA,NA,NA,NA
xdelvHJb,32k26u12eq14p7ktnmss8y5zd9bdv8,3u0srxb7chin5wsjuy6nsqoi8panra,xdelvHJb,2020-0188,2021-10-14,13:03:20,14:34:11,NA,incomplete,true,true,NA,0,8,NA,brown,m_s_061.jpg,NA,NA,unpleasant,pleasant,NA,NA,NA,NA,NA,left,2058.60000000056,true,NA,NA,NA,NA,NA
xdelvHJb,32k26u12eq14p7ktnmss8y5zd9bdv8,3u0srxb7chin5wsjuy6nsqoi8panra,xdelvHJb,2020-0188,2021-10-14,13:03:20,14:34:11,NA,incomplete,true,true,NA,0,9,NA,brown,m_l_090.jpg,NA,NA,pleasant,unpleasant,NA,NA,NA,NA,NA,right,1349.20000000019,true,NA,NA,NA,NA,NA
xdelvHJb,32k26u12eq14p7ktnmss8y5zd9bdv8,3u0srxb7chin5wsjuy6nsqoi8panra,xdelvHJb,2020-0188,2021-10-14,13:03:20,14:34:11,NA,incomplete,true,true,NA,0,10,NA,brown,n_s_010.jpg,NA,NA,unpleasant,pleasant,NA,NA,NA,NA,NA,left,1276.5,true,NA,NA,NA,NA,NA
xdelvHJb,32k26u12eq14p7ktnmss8y5zd9bdv8,3u0srxb7chin5wsjuy6nsqoi8panra,xdelvHJb,2020-0188,2021-10-14,13:03:20,14:34:11,NA,incomplete,true,true,NA,0,11,NA,brown,n_l_001.jpg,NA,NA,unpleasant,pleasant,NA,NA,NA,NA,NA,right,1690.59999999963,true,NA,NA,NA,NA,NA
xdelvHJb,32k26u12eq14p7ktnmss8y5zd9bdv8,3u0srxb7chin5wsjuy6nsqoi8panra,xdelvHJb,2020-0188,2021-10-14,13:03:20,14:34:11,NA,incomplete,true,true,NA,0,12,NA,blue,n_s_011.jpg,NA,NA,unpleasant,pleasant,NA,NA,NA,NA,NA,right,1317,true,NA,NA,NA,NA,NA
xdelvHJb,32k26u12eq14p7ktnmss8y5zd9bdv8,3u0srxb7chin5wsjuy6nsqoi8panra,xdelvHJb,2020-0188,2021-10-14,13:03:20,14:34:11,NA,incomplete,true,true,NA,0,13,NA,blue,m_l_040.jpg,NA,NA,unpleasant,pleasant,NA,NA,NA,NA,NA,right,1407.60000000056,true,NA,NA,NA,NA,NA
xdelvHJb,32k26u12eq14p7ktnmss8y5zd9bdv8,3u0srxb7chin5wsjuy6nsqoi8panra,xdelvHJb,2020-0188,2021-10-14,13:03:20,14:34:11,NA,incomplete,true,true,NA,0,14,NA,blue,n_s_026.jpg,NA,NA,pleasant,unpleasant,NA,NA,NA,NA,NA,right,1359.29999999981,true,NA,NA,NA,NA,NA
xdelvHJb,32k26u12eq14p7ktnmss8y5zd9bdv8,3u0srxb7chin5wsjuy6nsqoi8panra,xdelvHJb,2020-0188,2021-10-14,13:03:20,14:34:11,NA,incomplete,true,true,NA,0,15,NA,blue,m_s_006.jpg,NA,NA,unpleasant,pleasant,NA,NA,NA,NA,NA,right,1348.60000000056,true,NA,NA,NA,NA,NA
xdelvHJb,32k26u12eq14p7ktnmss8y5zd9bdv8,3u0srxb7chin5wsjuy6nsqoi8panra,xdelvHJb,2020-0188,2021-10-14,13:03:20,14:34:11,NA,incomplete,true,true,NA,0,16,NA,blue,n_s_115.jpg,NA,NA,pleasant,unpleasant,NA,NA,NA,NA,NA,left,1222.29999999981,true,NA,NA,NA,NA,NA
xdelvHJb,32k26u12eq14p7ktnmss8y5zd9bdv8,3u0srxb7chin5wsjuy6nsqoi8panra,xdelvHJb,2020-0188,2021-10-14,13:03:20,14:34:11,NA,incomplete,true,true,NA,0,17,NA,blue,n_l_079.jpg,NA,NA,pleasant,unpleasant,NA,NA,NA,NA,NA,left,1168,true,NA,NA,NA,NA,NA
xdelvHJb,32k26u12eq14p7ktnmss8y5zd9bdv8,3u0srxb7chin5wsjuy6nsqoi8panra,xdelvHJb,2020-0188,2021-10-14,13:03:20,14:34:11,NA,incomplete,true,true,NA,0,18,NA,orange,n_l_095.jpg,NA,NA,pleasant,unpleasant,NA,NA,NA,NA,NA,left,1285.59999999963,true,NA,NA,NA,NA,NA
xdelvHJb,32k26u12eq14p7ktnmss8y5zd9bdv8,3u0srxb7chin5wsjuy6nsqoi8panra,xdelvHJb,2020-0188,2021-10-14,13:03:20,14:34:11,NA,incomplete,true,true,NA,0,19,NA,orange,m_l_084.jpg,NA,NA,unpleasant,pleasant,NA,NA,NA,NA,NA,right,1399.40000000037,true,NA,NA,NA,NA,NA
xdelvHJb,32k26u12eq14p7ktnmss8y5zd9bdv8,3u0srxb7chin5wsjuy6nsqoi8panra,xdelvHJb,2020-0188,2021-10-14,13:03:20,14:34:11,NA,incomplete,true,true,NA,0,20,NA,orange,m_l_019.jpg,NA,NA,unpleasant,pleasant,NA,NA,NA,NA,NA,left,1339.20000000112,true,NA,NA,NA,NA,NA
xdelvHJb,32k26u12eq14p7ktnmss8y5zd9bdv8,3u0srxb7chin5wsjuy6nsqoi8panra,xdelvHJb,2020-0188,2021-10-14,13:03:20,14:34:11,NA,incomplete,true,true,NA,0,21,NA,orange,n_s_071.jpg,NA,NA,unpleasant,pleasant,NA,NA,NA,NA,NA,left,1125.29999999888,true,NA,NA,NA,NA,NA
xdelvHJb,32k26u12eq14p7ktnmss8y5zd9bdv8,3u0srxb7chin5wsjuy6nsqoi8panra,xdelvHJb,2020-0188,2021-10-14,13:03:20,14:34:11,NA,incomplete,true,true,NA,0,22,NA,orange,n_s_107.jpg,NA,NA,pleasant,unpleasant,NA,NA,NA,NA,NA,right,2162.70000000112,true,NA,NA,NA,NA,NA
xdelvHJb,32k26u12eq14p7ktnmss8y5zd9bdv8,3u0srxb7chin5wsjuy6nsqoi8panra,xdelvHJb,2020-0188,2021-10-14,13:03:20,14:34:11,NA,incomplete,true,true,NA,0,23,NA,orange,m_l_042.jpg,NA,NA,unpleasant,pleasant,NA,NA,NA,NA,NA,right,1134.5,true,NA,NA,NA,NA,NA
xdelvHJb,32k26u12eq14p7ktnmss8y5zd9bdv8,3u0srxb7chin5wsjuy6nsqoi8panra,xdelvHJb,2020-0188,2021-10-14,13:03:20,14:34:11,NA,incomplete,true,true,NA,0,24,NA,green,n_l_091.jpg,NA,NA,unpleasant,pleasant,NA,NA,NA,NA,NA,right,1124.10000000149,true,NA,NA,NA,NA,NA
xdelvHJb,32k26u12eq14p7ktnmss8y5zd9bdv8,3u0srxb7chin5wsjuy6nsqoi8panra,xdelvHJb,2020-0188,2021-10-14,13:03:20,14:34:11,NA,incomplete,true,true,NA,0,25,NA,green,n_l_056.jpg,NA,NA,unpleasant,pleasant,NA,NA,NA,NA,NA,right,1017.60000000149,true,NA,NA,NA,NA,NA
xdelvHJb,32k26u12eq14p7ktnmss8y5zd9bdv8,3u0srxb7chin5wsjuy6nsqoi8panra,xdelvHJb,2020-0188,2021-10-14,13:03:20,14:34:11,NA,incomplete,true,true,NA,0,26,NA,green,m_s_001.jpg,NA,NA,pleasant,unpleasant,NA,NA,NA,NA,NA,right,1644,true,NA,NA,NA,NA,NA
xdelvHJb,32k26u12eq14p7ktnmss8y5zd9bdv8,3u0srxb7chin5wsjuy6nsqoi8panra,xdelvHJb,2020-0188,2021-10-14,13:03:20,14:34:11,NA,incomplete,true,true,NA,0,27,NA,green,n_s_098.jpg,NA,NA,unpleasant,pleasant,NA,NA,NA,NA,NA,right,1210.60000000149,true,NA,NA,NA,NA,NA
xdelvHJb,32k26u12eq14p7ktnmss8y5zd9bdv8,3u0srxb7chin5wsjuy6nsqoi8panra,xdelvHJb,2020-0188,2021-10-14,13:03:20,14:34:11,NA,incomplete,true,true,NA,0,28,NA,green,m_l_028.jpg,NA,NA,unpleasant,pleasant,NA,NA,NA,NA,NA,left,2485.09999999963,true,NA,NA,NA,NA,NA
xdelvHJb,32k26u12eq14p7ktnmss8y5zd9bdv8,3u0srxb7chin5wsjuy6nsqoi8panra,xdelvHJb,2020-0188,2021-10-14,13:03:20,14:34:11,NA,incomplete,true,true,NA,0,29,NA,green,n_s_038.jpg,NA,NA,unpleasant,pleasant,NA,NA,NA,NA,NA,left,1041.40000000037,true,NA,NA,NA,NA,NA
xdelvHJb,32k26u12eq14p7ktnmss8y5zd9bdv8,3u0srxb7chin5wsjuy6nsqoi8panra,xdelvHJb,2020-0188,2021-10-14,13:03:20,14:34:11,NA,incomplete,true,true,NA,0,30,NA,gray,m_s_054.jpg,NA,NA,pleasant,unpleasant,NA,NA,NA,NA,NA,right,1483.90000000037,true,NA,NA,NA,NA,NA
xdelvHJb,32k26u12eq14p7ktnmss8y5zd9bdv8,3u0srxb7chin5wsjuy6nsqoi8panra,xdelvHJb,2020-0188,2021-10-14,13:03:20,14:34:11,NA,incomplete,true,true,NA,0,31,NA,gray,m_l_055.jpg,NA,NA,pleasant,unpleasant,NA,NA,NA,NA,NA,left,1065.60000000149,true,NA,NA,NA,NA,NA
xdelvHJb,32k26u12eq14p7ktnmss8y5zd9bdv8,3u0srxb7chin5wsjuy6nsqoi8panra,xdelvHJb,2020-0188,2021-10-14,13:03:20,14:34:11,NA,incomplete,true,true,NA,0,32,NA,gray,m_s_045.jpg,NA,NA,pleasant,unpleasant,NA,NA,NA,NA,NA,left,1032.59999999963,true,NA,NA,NA,NA,NA
xdelvHJb,32k26u12eq14p7ktnmss8y5zd9bdv8,3u0srxb7chin5wsjuy6nsqoi8panra,xdelvHJb,2020-0188,2021-10-14,13:03:20,14:34:11,NA,incomplete,true,true,NA,0,33,NA,gray,m_l_083.jpg,NA,NA,pleasant,unpleasant,NA,NA,NA,NA,NA,left,1270.20000000112,true,NA,NA,NA,NA,NA
xdelvHJb,32k26u12eq14p7ktnmss8y5zd9bdv8,3u0srxb7chin5wsjuy6nsqoi8panra,xdelvHJb,2020-0188,2021-10-14,13:03:20,14:34:11,NA,incomplete,true,true,NA,0,34,NA,gray,n_s_103.jpg,NA,NA,unpleasant,pleasant,NA,NA,NA,NA,NA,left,1441.19999999925,true,NA,NA,NA,NA,NA
xdelvHJb,32k26u12eq14p7ktnmss8y5zd9bdv8,3u0srxb7chin5wsjuy6nsqoi8panra,xdelvHJb,2020-0188,2021-10-14,13:03:20,14:34:11,NA,incomplete,true,true,NA,0,35,NA,gray,n_l_046.jpg,NA,NA,pleasant,unpleasant,NA,NA,NA,NA,NA,left,1247.90000000037,true,NA,NA,NA,NA,NA
xdelvHJb,32k26u12eq14p7ktnmss8y5zd9bdv8,3u0srxb7chin5wsjuy6nsqoi8panra,xdelvHJb,2020-0188,2021-10-14,13:03:20,14:34:11,NA,incomplete,true,NA,true,0,0,NA,NA,NA,right,absent,NA,NA,n_s_038.jpg,green,n_l_056.jpg,green,within,NA,NaN,NA,right,3144.300000000745,1,1,4674.0999999996275
xdelvHJb,32k26u12eq14p7ktnmss8y5zd9bdv8,3u0srxb7chin5wsjuy6nsqoi8panra,xdelvHJb,2020-0188,2021-10-14,13:03:20,14:34:11,NA,incomplete,true,NA,true,0,1,NA,NA,NA,left,present,NA,NA,m_l_004.jpg,brown,n_l_001.jpg,brown,within,NA,NaN,NA,left,3350,1,0,2301.5999999996275
xdelvHJb,32k26u12eq14p7ktnmss8y5zd9bdv8,3u0srxb7chin5wsjuy6nsqoi8panra,xdelvHJb,2020-0188,2021-10-14,13:03:20,14:34:11,NA,incomplete,true,NA,true,0,2,NA,NA,NA,right,absent,NA,NA,n_s_026.jpg,blue,n_s_010.jpg,brown,between,NA,NaN,NA,right,2724.699999999255,1,2,3398.0999999996275
xdelvHJb,32k26u12eq14p7ktnmss8y5zd9bdv8,3u0srxb7chin5wsjuy6nsqoi8panra,xdelvHJb,2020-0188,2021-10-14,13:03:20,14:34:11,NA,incomplete,true,NA,true,0,3,NA,NA,NA,left,present,NA,NA,m_l_040.jpg,blue,n_l_079.jpg,blue,within,NA,NaN,NA,left,2784.4000000003725,1,1,3043.0999999996275
xdelvHJb,32k26u12eq14p7ktnmss8y5zd9bdv8,3u0srxb7chin5wsjuy6nsqoi8panra,xdelvHJb,2020-0188,2021-10-14,13:03:20,14:34:11,NA,incomplete,true,NA,true,0,4,NA,NA,NA,right,present,NA,NA,m_l_019.jpg,orange,n_s_115.jpg,blue,between,NA,NaN,NA,right,2701.800000000745,1,2,1275.2999999988824
xdelvHJb,32k26u12eq14p7ktnmss8y5zd9bdv8,3u0srxb7chin5wsjuy6nsqoi8panra,xdelvHJb,2020-0188,2021-10-14,13:03:20,14:34:11,NA,incomplete,true,NA,true,0,5,NA,NA,NA,left,present,NA,NA,m_l_055.jpg,gray,n_l_046.jpg,gray,within,NA,NaN,NA,right,2495.5,0,0,5004.5
xdelvHJb,32k26u12eq14p7ktnmss8y5zd9bdv8,3u0srxb7chin5wsjuy6nsqoi8panra,xdelvHJb,2020-0188,2021-10-14,13:03:20,14:34:11,NA,incomplete,true,NA,true,0,6,NA,NA,NA,right,present,NA,NA,n_l_098.jpg,white,n_l_060.jpg,white,within,NA,NaN,NA,right,7989.89999999851,1,1,2373.9000000003725
xdelvHJb,32k26u12eq14p7ktnmss8y5zd9bdv8,3u0srxb7chin5wsjuy6nsqoi8panra,xdelvHJb,2020-0188,2021-10-14,13:03:20,14:34:11,NA,incomplete,true,NA,true,0,7,NA,NA,NA,right,absent,NA,NA,m_s_061.jpg,brown,n_l_113.jpg,white,between,NA,NaN,NA,left,3817.5999999996275,0,1,1790
xdelvHJb,32k26u12eq14p7ktnmss8y5zd9bdv8,3u0srxb7chin5wsjuy6nsqoi8panra,xdelvHJb,2020-0188,2021-10-14,13:03:20,14:34:11,NA,incomplete,true,NA,true,0,8,NA,NA,NA,left,absent,NA,NA,m_l_028.jpg,green,m_s_045.jpg,gray,between,NA,NaN,NA,right,2376,0,2,1892.7999999988824
xdelvHJb,32k26u12eq14p7ktnmss8y5zd9bdv8,3u0srxb7chin5wsjuy6nsqoi8panra,xdelvHJb,2020-0188,2021-10-14,13:03:20,14:34:11,NA,incomplete,true,NA,true,0,9,NA,NA,NA,right,present,NA,NA,m_s_001.jpg,green,n_s_107.jpg,orange,between,NA,NaN,NA,right,2603.699999999255,1,2,2144.300000000745
xdelvHJb,32k26u12eq14p7ktnmss8y5zd9bdv8,3u0srxb7chin5wsjuy6nsqoi8panra,xdelvHJb,2020-0188,2021-10-14,13:03:20,14:34:11,NA,incomplete,true,NA,true,0,10,NA,NA,NA,right,present,NA,NA,m_l_042.jpg,orange,m_l_084.jpg,orange,within,NA,NaN,NA,left,2166.5999999996275,0,1,8142.5999999996275
xdelvHJb,32k26u12eq14p7ktnmss8y5zd9bdv8,3u0srxb7chin5wsjuy6nsqoi8panra,xdelvHJb,2020-0188,2021-10-14,13:03:20,14:34:11,NA,incomplete,false,true,NA,1,0,NA,purple,m_l_010.jpg,NA,NA,unpleasant,pleasant,NA,NA,NA,NA,NA,left,1747.5,true,NA,NA,NA,NA,NA
xdelvHJb,32k26u12eq14p7ktnmss8y5zd9bdv8,3u0srxb7chin5wsjuy6nsqoi8panra,xdelvHJb,2020-0188,2021-10-14,13:03:20,14:34:11,NA,incomplete,false,true,NA,1,1,NA,purple,n_s_079.jpg,NA,NA,pleasant,unpleasant,NA,NA,NA,NA,NA,right,1471.59999999963,true,NA,NA,NA,NA,NA
xdelvHJb,32k26u12eq14p7ktnmss8y5zd9bdv8,3u0srxb7chin5wsjuy6nsqoi8panra,xdelvHJb,2020-0188,2021-10-14,13:03:20,14:34:11,NA,incomplete,false,true,NA,1,2,NA,purple,m_l_059.jpg,NA,NA,unpleasant,pleasant,NA,NA,NA,NA,NA,right,1389,true,NA,NA,NA,NA,NA
xdelvHJb,32k26u12eq14p7ktnmss8y5zd9bdv8,3u0srxb7chin5wsjuy6nsqoi8panra,xdelvHJb,2020-0188,2021-10-14,13:03:20,14:34:11,NA,incomplete,false,true,NA,1,3,NA,purple,n_s_012.jpg,NA,NA,pleasant,unpleasant,NA,NA,NA,NA,NA,left,1432.59999999963,true,NA,NA,NA,NA,NA
xdelvHJb,32k26u12eq14p7ktnmss8y5zd9bdv8,3u0srxb7chin5wsjuy6nsqoi8panra,xdelvHJb,2020-0188,2021-10-14,13:03:20,14:34:11,NA,incomplete,false,true,NA,1,4,NA,purple,m_l_105.jpg,NA,NA,pleasant,unpleasant,NA,NA,NA,NA,NA,left,1122.69999999925,true,NA,NA,NA,NA,NA
xdelvHJb,32k26u12eq14p7ktnmss8y5zd9bdv8,3u0srxb7chin5wsjuy6nsqoi8panra,xdelvHJb,2020-0188,2021-10-14,13:03:20,14:34:11,NA,incomplete,false,true,NA,1,5,NA,purple,m_s_002.jpg,NA,NA,pleasant,unpleasant,NA,NA,NA,NA,NA,left,1158.90000000037,true,NA,NA,NA,NA,NA
xdelvHJb,32k26u12eq14p7ktnmss8y5zd9bdv8,3u0srxb7chin5wsjuy6nsqoi8panra,xdelvHJb,2020-0188,2021-10-14,13:03:20,14:34:11,NA,incomplete,false,true,NA,1,6,NA,orange,n_l_084.jpg,NA,NA,pleasant,unpleasant,NA,NA,NA,NA,NA,right,1380.60000000149,true,NA,NA,NA,NA,NA
xdelvHJb,32k26u12eq14p7ktnmss8y5zd9bdv8,3u0srxb7chin5wsjuy6nsqoi8panra,xdelvHJb,2020-0188,2021-10-14,13:03:20,14:34:11,NA,incomplete,false,true,NA,1,7,NA,orange,n_s_017.jpg,NA,NA,unpleasant,pleasant,NA,NA,NA,NA,NA,left,1304.5,true,NA,NA,NA,NA,NA
xdelvHJb,32k26u12eq14p7ktnmss8y5zd9bdv8,3u0srxb7chin5wsjuy6nsqoi8panra,xdelvHJb,2020-0188,2021-10-14,13:03:20,14:34:11,NA,incomplete,false,true,NA,1,8,NA,orange,m_l_035.jpg,NA,NA,pleasant,unpleasant,NA,NA,NA,NA,NA,left,1225,true,NA,NA,NA,NA,NA
xdelvHJb,32k26u12eq14p7ktnmss8y5zd9bdv8,3u0srxb7chin5wsjuy6nsqoi8panra,xdelvHJb,2020-0188,2021-10-14,13:03:20,14:34:11,NA,incomplete,false,true,NA,1,9,NA,orange,n_l_112.jpg,NA,NA,pleasant,unpleasant,NA,NA,NA,NA,NA,left,1096.09999999963,true,NA,NA,NA,NA,NA
xdelvHJb,32k26u12eq14p7ktnmss8y5zd9bdv8,3u0srxb7chin5wsjuy6nsqoi8panra,xdelvHJb,2020-0188,2021-10-14,13:03:20,14:34:11,NA,incomplete,false,true,NA,1,10,NA,orange,n_s_032.jpg,NA,NA,unpleasant,pleasant,NA,NA,NA,NA,NA,right,1126.40000000037,true,NA,NA,NA,NA,NA
xdelvHJb,32k26u12eq14p7ktnmss8y5zd9bdv8,3u0srxb7chin5wsjuy6nsqoi8panra,xdelvHJb,2020-0188,2021-10-14,13:03:20,14:34:11,NA,incomplete,false,true,NA,1,11,NA,orange,n_s_102.jpg,NA,NA,unpleasant,pleasant,NA,NA,NA,NA,NA,right,1411.5,true,NA,NA,NA,NA,NA
xdelvHJb,32k26u12eq14p7ktnmss8y5zd9bdv8,3u0srxb7chin5wsjuy6nsqoi8panra,xdelvHJb,2020-0188,2021-10-14,13:03:20,14:34:11,NA,incomplete,false,true,NA,1,12,NA,brown,n_l_029.jpg,NA,NA,pleasant,unpleasant,NA,NA,NA,NA,NA,left,1914.59999999963,true,NA,NA,NA,NA,NA
xdelvHJb,32k26u12eq14p7ktnmss8y5zd9bdv8,3u0srxb7chin5wsjuy6nsqoi8panra,xdelvHJb,2020-0188,2021-10-14,13:03:20,14:34:11,NA,incomplete,false,true,NA,1,13,NA,brown,m_s_098.jpg,NA,NA,unpleasant,pleasant,NA,NA,NA,NA,NA,right,1412.80000000075,true,NA,NA,NA,NA,NA
xdelvHJb,32k26u12eq14p7ktnmss8y5zd9bdv8,3u0srxb7chin5wsjuy6nsqoi8panra,xdelvHJb,2020-0188,2021-10-14,13:03:20,14:34:11,NA,incomplete,false,true,NA,1,14,NA,brown,n_s_088.jpg,NA,NA,pleasant,unpleasant,NA,NA,NA,NA,NA,left,1263.69999999925,true,NA,NA,NA,NA,NA
xdelvHJb,32k26u12eq14p7ktnmss8y5zd9bdv8,3u0srxb7chin5wsjuy6nsqoi8panra,xdelvHJb,2020-0188,2021-10-14,13:03:20,14:34:11,NA,incomplete,false,true,NA,1,15,NA,brown,n_s_063.jpg,NA,NA,pleasant,unpleasant,NA,NA,NA,NA,NA,right,1554.80000000075,true,NA,NA,NA,NA,NA
xdelvHJb,32k26u12eq14p7ktnmss8y5zd9bdv8,3u0srxb7chin5wsjuy6nsqoi8panra,xdelvHJb,2020-0188,2021-10-14,13:03:20,14:34:11,NA,incomplete,false,true,NA,1,16,NA,brown,m_l_052.jpg,NA,NA,pleasant,unpleasant,NA,NA,NA,NA,NA,left,1244.40000000037,true,NA,NA,NA,NA,NA
xdelvHJb,32k26u12eq14p7ktnmss8y5zd9bdv8,3u0srxb7chin5wsjuy6nsqoi8panra,xdelvHJb,2020-0188,2021-10-14,13:03:20,14:34:11,NA,incomplete,false,true,NA,1,17,NA,brown,n_s_095.jpg,NA,NA,unpleasant,pleasant,NA,NA,NA,NA,NA,right,1863.80000000075,true,NA,NA,NA,NA,NA
xdelvHJb,32k26u12eq14p7ktnmss8y5zd9bdv8,3u0srxb7chin5wsjuy6nsqoi8panra,xdelvHJb,2020-0188,2021-10-14,13:03:20,14:34:11,NA,incomplete,false,true,NA,1,18,NA,black,n_s_065.jpg,NA,NA,pleasant,unpleasant,NA,NA,NA,NA,NA,right,1198.59999999963,true,NA,NA,NA,NA,NA
xdelvHJb,32k26u12eq14p7ktnmss8y5zd9bdv8,3u0srxb7chin5wsjuy6nsqoi8panra,xdelvHJb,2020-0188,2021-10-14,13:03:20,14:34:11,NA,incomplete,false,true,NA,1,19,NA,black,n_l_080.jpg,NA,NA,pleasant,unpleasant,NA,NA,NA,NA,NA,left,1137.40000000037,true,NA,NA,NA,NA,NA
xdelvHJb,32k26u12eq14p7ktnmss8y5zd9bdv8,3u0srxb7chin5wsjuy6nsqoi8panra,xdelvHJb,2020-0188,2021-10-14,13:03:20,14:34:11,NA,incomplete,false,true,NA,1,20,NA,black,n_s_037.jpg,NA,NA,unpleasant,pleasant,NA,NA,NA,NA,NA,left,1374.69999999925,true,NA,NA,NA,NA,NA
xdelvHJb,32k26u12eq14p7ktnmss8y5zd9bdv8,3u0srxb7chin5wsjuy6nsqoi8panra,xdelvHJb,2020-0188,2021-10-14,13:03:20,14:34:11,NA,incomplete,false,true,NA,1,21,NA,black,m_l_109.jpg,NA,NA,unpleasant,pleasant,NA,NA,NA,NA,NA,left,1862.40000000037,true,NA,NA,NA,NA,NA
xdelvHJb,32k26u12eq14p7ktnmss8y5zd9bdv8,3u0srxb7chin5wsjuy6nsqoi8panra,xdelvHJb,2020-0188,2021-10-14,13:03:20,14:34:11,NA,incomplete,false,true,NA,1,22,NA,black,m_s_107.jpg,NA,NA,pleasant,unpleasant,NA,NA,NA,NA,NA,left,1330.5,true,NA,NA,NA,NA,NA
xdelvHJb,32k26u12eq14p7ktnmss8y5zd9bdv8,3u0srxb7chin5wsjuy6nsqoi8panra,xdelvHJb,2020-0188,2021-10-14,13:03:20,14:34:11,NA,incomplete,false,true,NA,1,23,NA,black,m_s_050.jpg,NA,NA,pleasant,unpleasant,NA,NA,NA,NA,NA,right,1793,true,NA,NA,NA,NA,NA
xdelvHJb,32k26u12eq14p7ktnmss8y5zd9bdv8,3u0srxb7chin5wsjuy6nsqoi8panra,xdelvHJb,2020-0188,2021-10-14,13:03:20,14:34:11,NA,incomplete,false,true,NA,1,24,NA,white,n_s_108.jpg,NA,NA,pleasant,unpleasant,NA,NA,NA,NA,NA,right,1230,true,NA,NA,NA,NA,NA
xdelvHJb,32k26u12eq14p7ktnmss8y5zd9bdv8,3u0srxb7chin5wsjuy6nsqoi8panra,xdelvHJb,2020-0188,2021-10-14,13:03:20,14:34:11,NA,incomplete,false,true,NA,1,25,NA,white,m_l_050.jpg,NA,NA,unpleasant,pleasant,NA,NA,NA,NA,NA,right,1355.5,true,NA,NA,NA,NA,NA
xdelvHJb,32k26u12eq14p7ktnmss8y5zd9bdv8,3u0srxb7chin5wsjuy6nsqoi8panra,xdelvHJb,2020-0188,2021-10-14,13:03:20,14:34:11,NA,incomplete,false,true,NA,1,26,NA,white,n_l_072.jpg,NA,NA,pleasant,unpleasant,NA,NA,NA,NA,NA,right,1662.90000000037,true,NA,NA,NA,NA,NA
xdelvHJb,32k26u12eq14p7ktnmss8y5zd9bdv8,3u0srxb7chin5wsjuy6nsqoi8panra,xdelvHJb,2020-0188,2021-10-14,13:03:20,14:34:11,NA,incomplete,false,true,NA,1,27,NA,white,n_l_063.jpg,NA,NA,unpleasant,pleasant,NA,NA,NA,NA,NA,right,1538.09999999963,true,NA,NA,NA,NA,NA
xdelvHJb,32k26u12eq14p7ktnmss8y5zd9bdv8,3u0srxb7chin5wsjuy6nsqoi8panra,xdelvHJb,2020-0188,2021-10-14,13:03:20,14:34:11,NA,incomplete,false,true,NA,1,28,NA,white,n_l_057.jpg,NA,NA,unpleasant,pleasant,NA,NA,NA,NA,NA,right,1253.5,true,NA,NA,NA,NA,NA
xdelvHJb,32k26u12eq14p7ktnmss8y5zd9bdv8,3u0srxb7chin5wsjuy6nsqoi8panra,xdelvHJb,2020-0188,2021-10-14,13:03:20,14:34:11,NA,incomplete,false,true,NA,1,29,NA,white,n_s_062.jpg,NA,NA,unpleasant,pleasant,NA,NA,NA,NA,NA,left,1052,true,NA,NA,NA,NA,NA
xdelvHJb,32k26u12eq14p7ktnmss8y5zd9bdv8,3u0srxb7chin5wsjuy6nsqoi8panra,xdelvHJb,2020-0188,2021-10-14,13:03:20,14:34:11,NA,incomplete,false,true,NA,1,30,NA,green,m_l_086.jpg,NA,NA,pleasant,unpleasant,NA,NA,NA,NA,NA,left,1787.90000000037,true,NA,NA,NA,NA,NA
xdelvHJb,32k26u12eq14p7ktnmss8y5zd9bdv8,3u0srxb7chin5wsjuy6nsqoi8panra,xdelvHJb,2020-0188,2021-10-14,13:03:20,14:34:11,NA,incomplete,false,true,NA,1,31,NA,green,n_s_057.jpg,NA,NA,unpleasant,pleasant,NA,NA,NA,NA,NA,left,1376.39999999851,true,NA,NA,NA,NA,NA
xdelvHJb,32k26u12eq14p7ktnmss8y5zd9bdv8,3u0srxb7chin5wsjuy6nsqoi8panra,xdelvHJb,2020-0188,2021-10-14,13:03:20,14:34:11,NA,incomplete,false,true,NA,1,32,NA,green,m_s_059.jpg,NA,NA,pleasant,unpleasant,NA,NA,NA,NA,NA,left,1286.5,true,NA,NA,NA,NA,NA
xdelvHJb,32k26u12eq14p7ktnmss8y5zd9bdv8,3u0srxb7chin5wsjuy6nsqoi8panra,xdelvHJb,2020-0188,2021-10-14,13:03:20,14:34:11,NA,incomplete,false,true,NA,1,33,NA,green,m_l_064.jpg,NA,NA,unpleasant,pleasant,NA,NA,NA,NA,NA,right,1060.90000000037,true,NA,NA,NA,NA,NA
xdelvHJb,32k26u12eq14p7ktnmss8y5zd9bdv8,3u0srxb7chin5wsjuy6nsqoi8panra,xdelvHJb,2020-0188,2021-10-14,13:03:20,14:34:11,NA,incomplete,false,true,NA,1,34,NA,green,n_l_027.jpg,NA,NA,unpleasant,pleasant,NA,NA,NA,NA,NA,right,1163.5,true,NA,NA,NA,NA,NA
xdelvHJb,32k26u12eq14p7ktnmss8y5zd9bdv8,3u0srxb7chin5wsjuy6nsqoi8panra,xdelvHJb,2020-0188,2021-10-14,13:03:20,14:34:11,NA,incomplete,false,true,NA,1,35,NA,green,m_s_018.jpg,NA,NA,pleasant,unpleasant,NA,NA,NA,NA,NA,right,1257.30000000075,true,NA,NA,NA,NA,NA
xdelvHJb,32k26u12eq14p7ktnmss8y5zd9bdv8,3u0srxb7chin5wsjuy6nsqoi8panra,xdelvHJb,2020-0188,2021-10-14,13:03:20,14:34:11,NA,incomplete,false,NA,true,1,0,NA,NA,NA,right,absent,NA,NA,n_s_095.jpg,brown,m_s_098.jpg,brown,within,NA,NaN,NA,left,6040.300000000745,0,2,4062.4000000003725
xdelvHJb,32k26u12eq14p7ktnmss8y5zd9bdv8,3u0srxb7chin5wsjuy6nsqoi8panra,xdelvHJb,2020-0188,2021-10-14,13:03:20,14:34:11,NA,incomplete,false,NA,true,1,1,NA,NA,NA,right,absent,NA,NA,n_l_072.jpg,white,m_s_107.jpg,black,between,NA,NaN,NA,left,11686.900000000373,0,1,2741.9000000003725
xdelvHJb,32k26u12eq14p7ktnmss8y5zd9bdv8,3u0srxb7chin5wsjuy6nsqoi8panra,xdelvHJb,2020-0188,2021-10-14,13:03:20,14:34:11,NA,incomplete,false,NA,true,1,2,NA,NA,NA,right,absent,NA,NA,n_s_102.jpg,orange,n_s_017.jpg,orange,within,NA,NaN,NA,right,9075.10000000149,1,1,1671.699999999255
xdelvHJb,32k26u12eq14p7ktnmss8y5zd9bdv8,3u0srxb7chin5wsjuy6nsqoi8panra,xdelvHJb,2020-0188,2021-10-14,13:03:20,14:34:11,NA,incomplete,false,NA,true,1,3,NA,NA,NA,right,absent,NA,NA,m_s_059.jpg,green,n_l_057.jpg,white,between,NA,NaN,NA,left,3188,0,1,1541.1000000014901
xdelvHJb,32k26u12eq14p7ktnmss8y5zd9bdv8,3u0srxb7chin5wsjuy6nsqoi8panra,xdelvHJb,2020-0188,2021-10-14,13:03:20,14:34:11,NA,incomplete,false,NA,true,1,4,NA,NA,NA,left,absent,NA,NA,n_s_057.jpg,green,m_s_018.jpg,green,within,NA,NaN,NA,left,5842.0999999996275,1,2,3310.5999999996275
xdelvHJb,32k26u12eq14p7ktnmss8y5zd9bdv8,3u0srxb7chin5wsjuy6nsqoi8panra,xdelvHJb,2020-0188,2021-10-14,13:03:20,14:34:11,NA,incomplete,false,NA,true,1,5,NA,NA,NA,left,absent,NA,NA,n_l_080.jpg,black,m_s_050.jpg,black,within,NA,NaN,NA,left,3091.7000000011176,1,2,1583.2000000011176
xdelvHJb,32k26u12eq14p7ktnmss8y5zd9bdv8,3u0srxb7chin5wsjuy6nsqoi8panra,xdelvHJb,2020-0188,2021-10-14,13:03:20,14:34:11,NA,incomplete,false,NA,true,1,6,NA,NA,NA,left,absent,NA,NA,n_s_032.jpg,orange,n_s_088.jpg,brown,between,NA,NaN,NA,left,2434.7000000011176,1,3,1248.9000000003725
xdelvHJb,32k26u12eq14p7ktnmss8y5zd9bdv8,3u0srxb7chin5wsjuy6nsqoi8panra,xdelvHJb,2020-0188,2021-10-14,13:03:20,14:34:11,NA,incomplete,false,NA,true,1,7,NA,NA,NA,left,absent,NA,NA,n_s_079.jpg,purple,m_s_002.jpg,purple,within,NA,NaN,NA,left,5264.4000000003725,1,2,1562.2999999988824
xdelvHJb,32k26u12eq14p7ktnmss8y5zd9bdv8,3u0srxb7chin5wsjuy6nsqoi8panra,xdelvHJb,2020-0188,2021-10-14,13:03:20,14:34:11,NA,incomplete,false,NA,true,1,8,NA,NA,NA,left,absent,NA,NA,m_l_105.jpg,purple,m_l_035.jpg,orange,between,NA,NaN,NA,right,4353.4000000003725,0,1,1616.4000000003725
xdelvHJb,32k26u12eq14p7ktnmss8y5zd9bdv8,3u0srxb7chin5wsjuy6nsqoi8panra,xdelvHJb,2020-0188,2021-10-14,13:03:20,14:34:11,NA,incomplete,false,NA,true,1,9,NA,NA,NA,left,absent,NA,NA,m_l_052.jpg,brown,n_s_037.jpg,black,between,NA,NaN,NA,right,6242.5999999996275,0,2,1150.5
xdelvHJb,32k26u12eq14p7ktnmss8y5zd9bdv8,3u0srxb7chin5wsjuy6nsqoi8panra,xdelvHJb,2020-0188,2021-10-14,13:03:20,14:34:11,NA,incomplete,false,NA,true,1,10,NA,NA,NA,right,absent,NA,NA,n_s_062.jpg,white,m_l_050.jpg,white,within,NA,NaN,NA,right,3286.199999999255,1,1,2917.2000000011176
xdelvHJb,32k26u12eq14p7ktnmss8y5zd9bdv8,3u0srxb7chin5wsjuy6nsqoi8panra,xdelvHJb,2020-0188,2021-10-14,13:03:20,14:34:11,NA,incomplete,false,true,NA,2,0,NA,purple,n_l_047.jpg,NA,NA,pleasant,unpleasant,NA,NA,NA,NA,NA,left,1342.29999999888,true,NA,NA,NA,NA,NA
xdelvHJb,32k26u12eq14p7ktnmss8y5zd9bdv8,3u0srxb7chin5wsjuy6nsqoi8panra,xdelvHJb,2020-0188,2021-10-14,13:03:20,14:34:11,NA,incomplete,false,true,NA,2,1,NA,purple,n_s_074.jpg,NA,NA,pleasant,unpleasant,NA,NA,NA,NA,NA,right,1017.39999999851,true,NA,NA,NA,NA,NA
xdelvHJb,32k26u12eq14p7ktnmss8y5zd9bdv8,3u0srxb7chin5wsjuy6nsqoi8panra,xdelvHJb,2020-0188,2021-10-14,13:03:20,14:34:11,NA,incomplete,false,true,NA,2,2,NA,purple,n_l_071.jpg,NA,NA,pleasant,unpleasant,NA,NA,NA,NA,NA,left,959.799999998882,true,NA,NA,NA,NA,NA
xdelvHJb,32k26u12eq14p7ktnmss8y5zd9bdv8,3u0srxb7chin5wsjuy6nsqoi8panra,xdelvHJb,2020-0188,2021-10-14,13:03:20,14:34:11,NA,incomplete,false,true,NA,2,3,NA,purple,n_l_081.jpg,NA,NA,pleasant,unpleasant,NA,NA,NA,NA,NA,left,799.799999998882,true,NA,NA,NA,NA,NA
xdelvHJb,32k26u12eq14p7ktnmss8y5zd9bdv8,3u0srxb7chin5wsjuy6nsqoi8panra,xdelvHJb,2020-0188,2021-10-14,13:03:20,14:34:11,NA,incomplete,false,true,NA,2,4,NA,purple,n_l_031.jpg,NA,NA,unpleasant,pleasant,NA,NA,NA,NA,NA,right,1050.69999999925,true,NA,NA,NA,NA,NA
xdelvHJb,32k26u12eq14p7ktnmss8y5zd9bdv8,3u0srxb7chin5wsjuy6nsqoi8panra,xdelvHJb,2020-0188,2021-10-14,13:03:20,14:34:11,NA,incomplete,false,true,NA,2,5,NA,purple,n_s_087.jpg,NA,NA,pleasant,unpleasant,NA,NA,NA,NA,NA,right,1191.80000000075,true,NA,NA,NA,NA,NA
xdelvHJb,32k26u12eq14p7ktnmss8y5zd9bdv8,3u0srxb7chin5wsjuy6nsqoi8panra,xdelvHJb,2020-0188,2021-10-14,13:03:20,14:34:11,NA,incomplete,false,true,NA,2,6,NA,blue,n_s_008.jpg,NA,NA,unpleasant,pleasant,NA,NA,NA,NA,NA,left,1192.5,true,NA,NA,NA,NA,NA
xdelvHJb,32k26u12eq14p7ktnmss8y5zd9bdv8,3u0srxb7chin5wsjuy6nsqoi8panra,xdelvHJb,2020-0188,2021-10-14,13:03:20,14:34:11,NA,incomplete,false,true,NA,2,7,NA,blue,n_s_051.jpg,NA,NA,pleasant,unpleasant,NA,NA,NA,NA,NA,right,1422.29999999888,true,NA,NA,NA,NA,NA
xdelvHJb,32k26u12eq14p7ktnmss8y5zd9bdv8,3u0srxb7chin5wsjuy6nsqoi8panra,xdelvHJb,2020-0188,2021-10-14,13:03:20,14:34:11,NA,incomplete,false,true,NA,2,8,NA,blue,m_l_002.jpg,NA,NA,unpleasant,pleasant,NA,NA,NA,NA,NA,right,1189.69999999925,true,NA,NA,NA,NA,NA
xdelvHJb,32k26u12eq14p7ktnmss8y5zd9bdv8,3u0srxb7chin5wsjuy6nsqoi8panra,xdelvHJb,2020-0188,2021-10-14,13:03:20,14:34:11,NA,incomplete,false,true,NA,2,9,NA,blue,m_s_058.jpg,NA,NA,unpleasant,pleasant,NA,NA,NA,NA,NA,right,1261.40000000037,true,NA,NA,NA,NA,NA
xdelvHJb,32k26u12eq14p7ktnmss8y5zd9bdv8,3u0srxb7chin5wsjuy6nsqoi8panra,xdelvHJb,2020-0188,2021-10-14,13:03:20,14:34:11,NA,incomplete,false,true,NA,2,10,NA,blue,n_s_036.jpg,NA,NA,pleasant,unpleasant,NA,NA,NA,NA,NA,right,1369.20000000112,true,NA,NA,NA,NA,NA
xdelvHJb,32k26u12eq14p7ktnmss8y5zd9bdv8,3u0srxb7chin5wsjuy6nsqoi8panra,xdelvHJb,2020-0188,2021-10-14,13:03:20,14:34:11,NA,incomplete,false,true,NA,2,11,NA,blue,n_l_042.jpg,NA,NA,pleasant,unpleasant,NA,NA,NA,NA,NA,left,1196.29999999888,true,NA,NA,NA,NA,NA
xdelvHJb,32k26u12eq14p7ktnmss8y5zd9bdv8,3u0srxb7chin5wsjuy6nsqoi8panra,xdelvHJb,2020-0188,2021-10-14,13:03:20,14:34:11,NA,incomplete,false,true,NA,2,12,NA,orange,n_l_037.jpg,NA,NA,unpleasant,pleasant,NA,NA,NA,NA,NA,left,2149.69999999925,true,NA,NA,NA,NA,NA
xdelvHJb,32k26u12eq14p7ktnmss8y5zd9bdv8,3u0srxb7chin5wsjuy6nsqoi8panra,xdelvHJb,2020-0188,2021-10-14,13:03:20,14:34:11,NA,incomplete,false,true,NA,2,13,NA,orange,m_s_063.jpg,NA,NA,unpleasant,pleasant,NA,NA,NA,NA,NA,right,1134.5,true,NA,NA,NA,NA,NA
xdelvHJb,32k26u12eq14p7ktnmss8y5zd9bdv8,3u0srxb7chin5wsjuy6nsqoi8panra,xdelvHJb,2020-0188,2021-10-14,13:03:20,14:34:11,NA,incomplete,false,true,NA,2,14,NA,orange,n_l_002.jpg,NA,NA,pleasant,unpleasant,NA,NA,NA,NA,NA,left,1123.69999999925,true,NA,NA,NA,NA,NA
xdelvHJb,32k26u12eq14p7ktnmss8y5zd9bdv8,3u0srxb7chin5wsjuy6nsqoi8panra,xdelvHJb,2020-0188,2021-10-14,13:03:20,14:34:11,NA,incomplete,false,true,NA,2,15,NA,orange,m_s_071.jpg,NA,NA,pleasant,unpleasant,NA,NA,NA,NA,NA,right,1359.19999999925,true,NA,NA,NA,NA,NA
xdelvHJb,32k26u12eq14p7ktnmss8y5zd9bdv8,3u0srxb7chin5wsjuy6nsqoi8panra,xdelvHJb,2020-0188,2021-10-14,13:03:20,14:34:11,NA,incomplete,false,true,NA,2,16,NA,orange,m_s_040.jpg,NA,NA,pleasant,unpleasant,NA,NA,NA,NA,NA,left,1471.40000000037,true,NA,NA,NA,NA,NA
xdelvHJb,32k26u12eq14p7ktnmss8y5zd9bdv8,3u0srxb7chin5wsjuy6nsqoi8panra,xdelvHJb,2020-0188,2021-10-14,13:03:20,14:34:11,NA,incomplete,false,true,NA,2,17,NA,orange,n_l_010.jpg,NA,NA,pleasant,unpleasant,NA,NA,NA,NA,NA,left,1020.40000000037,true,NA,NA,NA,NA,NA
xdelvHJb,32k26u12eq14p7ktnmss8y5zd9bdv8,3u0srxb7chin5wsjuy6nsqoi8panra,xdelvHJb,2020-0188,2021-10-14,13:03:20,14:34:11,NA,incomplete,false,true,NA,2,18,NA,white,m_l_100.jpg,NA,NA,unpleasant,pleasant,NA,NA,NA,NA,NA,right,1203.5,true,NA,NA,NA,NA,NA
xdelvHJb,32k26u12eq14p7ktnmss8y5zd9bdv8,3u0srxb7chin5wsjuy6nsqoi8panra,xdelvHJb,2020-0188,2021-10-14,13:03:20,14:34:11,NA,incomplete,false,true,NA,2,19,NA,white,m_l_071.jpg,NA,NA,unpleasant,pleasant,NA,NA,NA,NA,NA,right,1006.30000000075,true,NA,NA,NA,NA,NA
xdelvHJb,32k26u12eq14p7ktnmss8y5zd9bdv8,3u0srxb7chin5wsjuy6nsqoi8panra,xdelvHJb,2020-0188,2021-10-14,13:03:20,14:34:11,NA,incomplete,false,true,NA,2,20,NA,white,m_l_063.jpg,NA,NA,pleasant,unpleasant,NA,NA,NA,NA,NA,left,1233,true,NA,NA,NA,NA,NA
xdelvHJb,32k26u12eq14p7ktnmss8y5zd9bdv8,3u0srxb7chin5wsjuy6nsqoi8panra,xdelvHJb,2020-0188,2021-10-14,13:03:20,14:34:11,NA,incomplete,false,true,NA,2,21,NA,white,n_s_009.jpg,NA,NA,pleasant,unpleasant,NA,NA,NA,NA,NA,right,1212.69999999925,true,NA,NA,NA,NA,NA
xdelvHJb,32k26u12eq14p7ktnmss8y5zd9bdv8,3u0srxb7chin5wsjuy6nsqoi8panra,xdelvHJb,2020-0188,2021-10-14,13:03:20,14:34:11,NA,incomplete,false,true,NA,2,22,NA,white,n_s_066.jpg,NA,NA,pleasant,unpleasant,NA,NA,NA,NA,NA,right,1012.70000000112,true,NA,NA,NA,NA,NA
xdelvHJb,32k26u12eq14p7ktnmss8y5zd9bdv8,3u0srxb7chin5wsjuy6nsqoi8panra,xdelvHJb,2020-0188,2021-10-14,13:03:20,14:34:11,NA,incomplete,false,true,NA,2,23,NA,white,m_s_064.jpg,NA,NA,unpleasant,pleasant,NA,NA,NA,NA,NA,right,1561.29999999888,true,NA,NA,NA,NA,NA
xdelvHJb,32k26u12eq14p7ktnmss8y5zd9bdv8,3u0srxb7chin5wsjuy6nsqoi8panra,xdelvHJb,2020-0188,2021-10-14,13:03:20,14:34:11,NA,incomplete,false,true,NA,2,24,NA,brown,m_s_069.jpg,NA,NA,unpleasant,pleasant,NA,NA,NA,NA,NA,left,1470.59999999963,true,NA,NA,NA,NA,NA
xdelvHJb,32k26u12eq14p7ktnmss8y5zd9bdv8,3u0srxb7chin5wsjuy6nsqoi8panra,xdelvHJb,2020-0188,2021-10-14,13:03:20,14:34:11,NA,incomplete,false,true,NA,2,25,NA,brown,m_s_029.jpg,NA,NA,unpleasant,pleasant,NA,NA,NA,NA,NA,right,1706.90000000037,true,NA,NA,NA,NA,NA
xdelvHJb,32k26u12eq14p7ktnmss8y5zd9bdv8,3u0srxb7chin5wsjuy6nsqoi8panra,xdelvHJb,2020-0188,2021-10-14,13:03:20,14:34:11,NA,incomplete,false,true,NA,2,26,NA,brown,m_l_047.jpg,NA,NA,pleasant,unpleasant,NA,NA,NA,NA,NA,left,946.699999999255,true,NA,NA,NA,NA,NA
xdelvHJb,32k26u12eq14p7ktnmss8y5zd9bdv8,3u0srxb7chin5wsjuy6nsqoi8panra,xdelvHJb,2020-0188,2021-10-14,13:03:20,14:34:11,NA,incomplete,false,true,NA,2,27,NA,brown,m_s_115.jpg,NA,NA,pleasant,unpleasant,NA,NA,NA,NA,NA,left,1930,true,NA,NA,NA,NA,NA
xdelvHJb,32k26u12eq14p7ktnmss8y5zd9bdv8,3u0srxb7chin5wsjuy6nsqoi8panra,xdelvHJb,2020-0188,2021-10-14,13:03:20,14:34:11,NA,incomplete,false,true,NA,2,28,NA,brown,n_l_106.jpg,NA,NA,unpleasant,pleasant,NA,NA,NA,NA,NA,right,1084.59999999963,true,NA,NA,NA,NA,NA
xdelvHJb,32k26u12eq14p7ktnmss8y5zd9bdv8,3u0srxb7chin5wsjuy6nsqoi8panra,xdelvHJb,2020-0188,2021-10-14,13:03:20,14:34:11,NA,incomplete,false,true,NA,2,29,NA,brown,m_s_056.jpg,NA,NA,unpleasant,pleasant,NA,NA,NA,NA,NA,right,1317.5,true,NA,NA,NA,NA,NA
xdelvHJb,32k26u12eq14p7ktnmss8y5zd9bdv8,3u0srxb7chin5wsjuy6nsqoi8panra,xdelvHJb,2020-0188,2021-10-14,13:03:20,14:34:11,NA,incomplete,false,true,NA,2,30,NA,black,m_l_018.jpg,NA,NA,pleasant,unpleasant,NA,NA,NA,NA,NA,left,1060.90000000037,true,NA,NA,NA,NA,NA
xdelvHJb,32k26u12eq14p7ktnmss8y5zd9bdv8,3u0srxb7chin5wsjuy6nsqoi8panra,xdelvHJb,2020-0188,2021-10-14,13:03:20,14:34:11,NA,incomplete,false,true,NA,2,31,NA,black,m_l_094.jpg,NA,NA,unpleasant,pleasant,NA,NA,NA,NA,NA,left,1351.5,true,NA,NA,NA,NA,NA
xdelvHJb,32k26u12eq14p7ktnmss8y5zd9bdv8,3u0srxb7chin5wsjuy6nsqoi8panra,xdelvHJb,2020-0188,2021-10-14,13:03:20,14:34:11,NA,incomplete,false,true,NA,2,32,NA,black,n_s_033.jpg,NA,NA,pleasant,unpleasant,NA,NA,NA,NA,NA,left,1680.20000000112,true,NA,NA,NA,NA,NA
xdelvHJb,32k26u12eq14p7ktnmss8y5zd9bdv8,3u0srxb7chin5wsjuy6nsqoi8panra,xdelvHJb,2020-0188,2021-10-14,13:03:20,14:34:11,NA,incomplete,false,true,NA,2,33,NA,black,n_s_093.jpg,NA,NA,unpleasant,pleasant,NA,NA,NA,NA,NA,left,1126.59999999963,true,NA,NA,NA,NA,NA
xdelvHJb,32k26u12eq14p7ktnmss8y5zd9bdv8,3u0srxb7chin5wsjuy6nsqoi8panra,xdelvHJb,2020-0188,2021-10-14,13:03:20,14:34:11,NA,incomplete,false,true,NA,2,34,NA,black,n_s_073.jpg,NA,NA,unpleasant,pleasant,NA,NA,NA,NA,NA,left,1293,true,NA,NA,NA,NA,NA
xdelvHJb,32k26u12eq14p7ktnmss8y5zd9bdv8,3u0srxb7chin5wsjuy6nsqoi8panra,xdelvHJb,2020-0188,2021-10-14,13:03:20,14:34:11,NA,incomplete,false,true,NA,2,35,NA,black,n_l_050.jpg,NA,NA,pleasant,unpleasant,NA,NA,NA,NA,NA,left,1110.09999999963,true,NA,NA,NA,NA,NA
xdelvHJb,32k26u12eq14p7ktnmss8y5zd9bdv8,3u0srxb7chin5wsjuy6nsqoi8panra,xdelvHJb,2020-0188,2021-10-14,13:03:20,14:34:11,NA,incomplete,false,NA,true,2,0,NA,NA,NA,right,present,NA,NA,n_l_050.jpg,black,m_l_094.jpg,black,within,NA,NaN,NA,right,4913.199999999255,1,1,1615.699999999255
xdelvHJb,32k26u12eq14p7ktnmss8y5zd9bdv8,3u0srxb7chin5wsjuy6nsqoi8panra,xdelvHJb,2020-0188,2021-10-14,13:03:20,14:34:11,NA,incomplete,false,NA,true,2,1,NA,NA,NA,left,present,NA,NA,n_s_051.jpg,blue,n_l_042.jpg,blue,within,NA,NaN,NA,left,2375.2000000011176,1,1,1359
xdelvHJb,32k26u12eq14p7ktnmss8y5zd9bdv8,3u0srxb7chin5wsjuy6nsqoi8panra,xdelvHJb,2020-0188,2021-10-14,13:03:20,14:34:11,NA,incomplete,false,NA,true,2,2,NA,NA,NA,right,present,NA,NA,n_s_033.jpg,black,n_l_106.jpg,brown,between,NA,NaN,NA,right,4710.5999999996275,1,2,1506.5999999996275
xdelvHJb,32k26u12eq14p7ktnmss8y5zd9bdv8,3u0srxb7chin5wsjuy6nsqoi8panra,xdelvHJb,2020-0188,2021-10-14,13:03:20,14:34:11,NA,incomplete,false,NA,true,2,3,NA,NA,NA,left,present,NA,NA,m_s_040.jpg,orange,m_l_063.jpg,white,between,NA,NaN,NA,left,3087.0999999996275,1,3,1841.1000000014901
xdelvHJb,32k26u12eq14p7ktnmss8y5zd9bdv8,3u0srxb7chin5wsjuy6nsqoi8panra,xdelvHJb,2020-0188,2021-10-14,13:03:20,14:34:11,NA,incomplete,false,NA,true,2,4,NA,NA,NA,right,present,NA,NA,m_s_064.jpg,white,m_l_071.jpg,white,within,NA,NaN,NA,right,2932.0999999996275,1,0,1564.199999999255
xdelvHJb,32k26u12eq14p7ktnmss8y5zd9bdv8,3u0srxb7chin5wsjuy6nsqoi8panra,xdelvHJb,2020-0188,2021-10-14,13:03:20,14:34:11,NA,incomplete,false,NA,true,2,5,NA,NA,NA,right,present,NA,NA,m_s_056.jpg,brown,m_s_029.jpg,brown,within,NA,NaN,NA,right,2470.5,1,1,2117.5999999996275
xdelvHJb,32k26u12eq14p7ktnmss8y5zd9bdv8,3u0srxb7chin5wsjuy6nsqoi8panra,xdelvHJb,2020-0188,2021-10-14,13:03:20,14:34:11,NA,incomplete,false,NA,true,2,6,NA,NA,NA,left,present,NA,NA,n_s_066.jpg,white,m_l_047.jpg,brown,between,NA,NaN,NA,left,4295.200000001118,1,2,1512.5
xdelvHJb,32k26u12eq14p7ktnmss8y5zd9bdv8,3u0srxb7chin5wsjuy6nsqoi8panra,xdelvHJb,2020-0188,2021-10-14,13:03:20,14:34:11,NA,incomplete,false,NA,true,2,7,NA,NA,NA,left,present,NA,NA,n_s_074.jpg,purple,n_s_087.jpg,purple,within,NA,NaN,NA,left,2901.0999999996275,1,1,1258.5999999996275
xdelvHJb,32k26u12eq14p7ktnmss8y5zd9bdv8,3u0srxb7chin5wsjuy6nsqoi8panra,xdelvHJb,2020-0188,2021-10-14,13:03:20,14:34:11,NA,incomplete,false,NA,true,2,8,NA,NA,NA,right,present,NA,NA,m_l_002.jpg,blue,n_l_031.jpg,purple,between,NA,NaN,NA,right,2387.7999999988824,1,2,2347.199999999255
xdelvHJb,32k26u12eq14p7ktnmss8y5zd9bdv8,3u0srxb7chin5wsjuy6nsqoi8panra,xdelvHJb,2020-0188,2021-10-14,13:03:20,14:34:11,NA,incomplete,false,NA,true,2,9,NA,NA,NA,left,present,NA,NA,m_s_063.jpg,orange,n_l_010.jpg,orange,within,NA,NaN,NA,left,2774.800000000745,1,0,1700
xdelvHJb,32k26u12eq14p7ktnmss8y5zd9bdv8,3u0srxb7chin5wsjuy6nsqoi8panra,xdelvHJb,2020-0188,2021-10-14,13:03:20,14:34:11,NA,incomplete,false,NA,true,2,10,NA,NA,NA,right,present,NA,NA,n_l_002.jpg,orange,n_s_036.jpg,blue,between,NA,NaN,NA,right,2619.0999999996275,1,2,1718.300000000745
xdelvHJb,32k26u12eq14p7ktnmss8y5zd9bdv8,3u0srxb7chin5wsjuy6nsqoi8panra,xdelvHJb,2020-0188,2021-10-14,13:03:20,14:34:11,NA,incomplete,false,true,NA,3,0,NA,green,m_l_110.jpg,NA,NA,pleasant,unpleasant,NA,NA,NA,NA,NA,right,1318.09999999963,true,NA,NA,NA,NA,NA
xdelvHJb,32k26u12eq14p7ktnmss8y5zd9bdv8,3u0srxb7chin5wsjuy6nsqoi8panra,xdelvHJb,2020-0188,2021-10-14,13:03:20,14:34:11,NA,incomplete,false,true,NA,3,1,NA,green,n_l_085.jpg,NA,NA,unpleasant,pleasant,NA,NA,NA,NA,NA,right,1592.90000000037,true,NA,NA,NA,NA,NA
xdelvHJb,32k26u12eq14p7ktnmss8y5zd9bdv8,3u0srxb7chin5wsjuy6nsqoi8panra,xdelvHJb,2020-0188,2021-10-14,13:03:20,14:34:11,NA,incomplete,false,true,NA,3,2,NA,green,m_l_017.jpg,NA,NA,unpleasant,pleasant,NA,NA,NA,NA,NA,right,1171.39999999851,true,NA,NA,NA,NA,NA
xdelvHJb,32k26u12eq14p7ktnmss8y5zd9bdv8,3u0srxb7chin5wsjuy6nsqoi8panra,xdelvHJb,2020-0188,2021-10-14,13:03:20,14:34:11,NA,incomplete,false,true,NA,3,3,NA,green,m_s_046.jpg,NA,NA,unpleasant,pleasant,NA,NA,NA,NA,NA,right,1356.5,true,NA,NA,NA,NA,NA
xdelvHJb,32k26u12eq14p7ktnmss8y5zd9bdv8,3u0srxb7chin5wsjuy6nsqoi8panra,xdelvHJb,2020-0188,2021-10-14,13:03:20,14:34:11,NA,incomplete,false,true,NA,3,4,NA,green,m_s_021.jpg,NA,NA,pleasant,unpleasant,NA,NA,NA,NA,NA,right,1691,true,NA,NA,NA,NA,NA
xdelvHJb,32k26u12eq14p7ktnmss8y5zd9bdv8,3u0srxb7chin5wsjuy6nsqoi8panra,xdelvHJb,2020-0188,2021-10-14,13:03:20,14:34:11,NA,incomplete,false,true,NA,3,5,NA,green,m_l_113.jpg,NA,NA,pleasant,unpleasant,NA,NA,NA,NA,NA,left,1693.09999999963,true,NA,NA,NA,NA,NA
xdelvHJb,32k26u12eq14p7ktnmss8y5zd9bdv8,3u0srxb7chin5wsjuy6nsqoi8panra,xdelvHJb,2020-0188,2021-10-14,13:03:20,14:34:11,NA,incomplete,false,true,NA,3,6,NA,red,n_l_048.jpg,NA,NA,pleasant,unpleasant,NA,NA,NA,NA,NA,right,1684.69999999925,true,NA,NA,NA,NA,NA
xdelvHJb,32k26u12eq14p7ktnmss8y5zd9bdv8,3u0srxb7chin5wsjuy6nsqoi8panra,xdelvHJb,2020-0188,2021-10-14,13:03:20,14:34:11,NA,incomplete,false,true,NA,3,7,NA,red,n_l_004.jpg,NA,NA,unpleasant,pleasant,NA,NA,NA,NA,NA,left,1203.5,true,NA,NA,NA,NA,NA
xdelvHJb,32k26u12eq14p7ktnmss8y5zd9bdv8,3u0srxb7chin5wsjuy6nsqoi8panra,xdelvHJb,2020-0188,2021-10-14,13:03:20,14:34:11,NA,incomplete,false,true,NA,3,8,NA,red,m_l_112.jpg,NA,NA,unpleasant,pleasant,NA,NA,NA,NA,NA,right,1251.5,true,NA,NA,NA,NA,NA
xdelvHJb,32k26u12eq14p7ktnmss8y5zd9bdv8,3u0srxb7chin5wsjuy6nsqoi8panra,xdelvHJb,2020-0188,2021-10-14,13:03:20,14:34:11,NA,incomplete,false,true,NA,3,9,NA,red,n_l_092.jpg,NA,NA,unpleasant,pleasant,NA,NA,NA,NA,NA,right,1449.59999999963,true,NA,NA,NA,NA,NA
xdelvHJb,32k26u12eq14p7ktnmss8y5zd9bdv8,3u0srxb7chin5wsjuy6nsqoi8panra,xdelvHJb,2020-0188,2021-10-14,13:03:20,14:34:11,NA,incomplete,false,true,NA,3,10,NA,red,n_s_089.jpg,NA,NA,pleasant,unpleasant,NA,NA,NA,NA,NA,right,1059.90000000037,true,NA,NA,NA,NA,NA
xdelvHJb,32k26u12eq14p7ktnmss8y5zd9bdv8,3u0srxb7chin5wsjuy6nsqoi8panra,xdelvHJb,2020-0188,2021-10-14,13:03:20,14:34:11,NA,incomplete,false,true,NA,3,11,NA,red,m_l_061.jpg,NA,NA,pleasant,unpleasant,NA,NA,NA,NA,NA,left,1148.69999999925,true,NA,NA,NA,NA,NA
xdelvHJb,32k26u12eq14p7ktnmss8y5zd9bdv8,3u0srxb7chin5wsjuy6nsqoi8panra,xdelvHJb,2020-0188,2021-10-14,13:03:20,14:34:11,NA,incomplete,false,true,NA,3,12,NA,black,n_l_103.jpg,NA,NA,pleasant,unpleasant,NA,NA,NA,NA,NA,left,1251.70000000112,true,NA,NA,NA,NA,NA
xdelvHJb,32k26u12eq14p7ktnmss8y5zd9bdv8,3u0srxb7chin5wsjuy6nsqoi8panra,xdelvHJb,2020-0188,2021-10-14,13:03:20,14:34:11,NA,incomplete,false,true,NA,3,13,NA,black,n_s_075.jpg,NA,NA,pleasant,unpleasant,NA,NA,NA,NA,NA,right,2331.59999999963,true,NA,NA,NA,NA,NA
xdelvHJb,32k26u12eq14p7ktnmss8y5zd9bdv8,3u0srxb7chin5wsjuy6nsqoi8panra,xdelvHJb,2020-0188,2021-10-14,13:03:20,14:34:11,NA,incomplete,false,true,NA,3,14,NA,black,n_l_077.jpg,NA,NA,unpleasant,pleasant,NA,NA,NA,NA,NA,left,1927.20000000112,true,NA,NA,NA,NA,NA
xdelvHJb,32k26u12eq14p7ktnmss8y5zd9bdv8,3u0srxb7chin5wsjuy6nsqoi8panra,xdelvHJb,2020-0188,2021-10-14,13:03:20,14:34:11,NA,incomplete,false,true,NA,3,15,NA,black,n_l_023.jpg,NA,NA,unpleasant,pleasant,NA,NA,NA,NA,NA,right,1865.69999999925,true,NA,NA,NA,NA,NA
xdelvHJb,32k26u12eq14p7ktnmss8y5zd9bdv8,3u0srxb7chin5wsjuy6nsqoi8panra,xdelvHJb,2020-0188,2021-10-14,13:03:20,14:34:11,NA,incomplete,false,true,NA,3,16,NA,black,n_l_068.jpg,NA,NA,unpleasant,pleasant,NA,NA,NA,NA,NA,right,1030,true,NA,NA,NA,NA,NA
xdelvHJb,32k26u12eq14p7ktnmss8y5zd9bdv8,3u0srxb7chin5wsjuy6nsqoi8panra,xdelvHJb,2020-0188,2021-10-14,13:03:20,14:34:11,NA,incomplete,false,true,NA,3,17,NA,black,n_l_070.jpg,NA,NA,pleasant,unpleasant,NA,NA,NA,NA,NA,left,1121.09999999963,true,NA,NA,NA,NA,NA
xdelvHJb,32k26u12eq14p7ktnmss8y5zd9bdv8,3u0srxb7chin5wsjuy6nsqoi8panra,xdelvHJb,2020-0188,2021-10-14,13:03:20,14:34:11,NA,incomplete,false,true,NA,3,18,NA,white,m_l_068.jpg,NA,NA,unpleasant,pleasant,NA,NA,NA,NA,NA,right,1299.19999999925,true,NA,NA,NA,NA,NA
xdelvHJb,32k26u12eq14p7ktnmss8y5zd9bdv8,3u0srxb7chin5wsjuy6nsqoi8panra,xdelvHJb,2020-0188,2021-10-14,13:03:20,14:34:11,NA,incomplete,false,true,NA,3,19,NA,white,n_l_058.jpg,NA,NA,unpleasant,pleasant,NA,NA,NA,NA,NA,right,1195.19999999925,true,NA,NA,NA,NA,NA
xdelvHJb,32k26u12eq14p7ktnmss8y5zd9bdv8,3u0srxb7chin5wsjuy6nsqoi8panra,xdelvHJb,2020-0188,2021-10-14,13:03:20,14:34:11,NA,incomplete,false,true,NA,3,20,NA,white,n_s_054.jpg,NA,NA,pleasant,unpleasant,NA,NA,NA,NA,NA,right,1151,true,NA,NA,NA,NA,NA
xdelvHJb,32k26u12eq14p7ktnmss8y5zd9bdv8,3u0srxb7chin5wsjuy6nsqoi8panra,xdelvHJb,2020-0188,2021-10-14,13:03:20,14:34:11,NA,incomplete,false,true,NA,3,21,NA,white,n_s_041.jpg,NA,NA,pleasant,unpleasant,NA,NA,NA,NA,NA,left,954.5,true,NA,NA,NA,NA,NA
xdelvHJb,32k26u12eq14p7ktnmss8y5zd9bdv8,3u0srxb7chin5wsjuy6nsqoi8panra,xdelvHJb,2020-0188,2021-10-14,13:03:20,14:34:11,NA,incomplete,false,true,NA,3,22,NA,white,n_l_049.jpg,NA,NA,pleasant,unpleasant,NA,NA,NA,NA,NA,left,1077.90000000037,true,NA,NA,NA,NA,NA
xdelvHJb,32k26u12eq14p7ktnmss8y5zd9bdv8,3u0srxb7chin5wsjuy6nsqoi8panra,xdelvHJb,2020-0188,2021-10-14,13:03:20,14:34:11,NA,incomplete,false,true,NA,3,23,NA,white,n_s_034.jpg,NA,NA,unpleasant,pleasant,NA,NA,NA,NA,NA,right,1069.30000000075,true,NA,NA,NA,NA,NA
xdelvHJb,32k26u12eq14p7ktnmss8y5zd9bdv8,3u0srxb7chin5wsjuy6nsqoi8panra,xdelvHJb,2020-0188,2021-10-14,13:03:20,14:34:11,NA,incomplete,false,true,NA,3,24,NA,purple,m_s_080.jpg,NA,NA,unpleasant,pleasant,NA,NA,NA,NA,NA,right,1926.90000000037,true,NA,NA,NA,NA,NA
xdelvHJb,32k26u12eq14p7ktnmss8y5zd9bdv8,3u0srxb7chin5wsjuy6nsqoi8panra,xdelvHJb,2020-0188,2021-10-14,13:03:20,14:34:11,NA,incomplete,false,true,NA,3,25,NA,purple,n_l_108.jpg,NA,NA,pleasant,unpleasant,NA,NA,NA,NA,NA,left,945.199999999255,true,NA,NA,NA,NA,NA
xdelvHJb,32k26u12eq14p7ktnmss8y5zd9bdv8,3u0srxb7chin5wsjuy6nsqoi8panra,xdelvHJb,2020-0188,2021-10-14,13:03:20,14:34:11,NA,incomplete,false,true,NA,3,26,NA,purple,m_s_015.jpg,NA,NA,pleasant,unpleasant,NA,NA,NA,NA,NA,left,1438.5,true,NA,NA,NA,NA,NA
xdelvHJb,32k26u12eq14p7ktnmss8y5zd9bdv8,3u0srxb7chin5wsjuy6nsqoi8panra,xdelvHJb,2020-0188,2021-10-14,13:03:20,14:34:11,NA,incomplete,false,true,NA,3,27,NA,purple,m_l_008.jpg,NA,NA,unpleasant,pleasant,NA,NA,NA,NA,NA,right,928.599999999627,true,NA,NA,NA,NA,NA
xdelvHJb,32k26u12eq14p7ktnmss8y5zd9bdv8,3u0srxb7chin5wsjuy6nsqoi8panra,xdelvHJb,2020-0188,2021-10-14,13:03:20,14:34:11,NA,incomplete,false,true,NA,3,28,NA,purple,m_s_036.jpg,NA,NA,unpleasant,pleasant,NA,NA,NA,NA,NA,right,902.299999998882,true,NA,NA,NA,NA,NA
xdelvHJb,32k26u12eq14p7ktnmss8y5zd9bdv8,3u0srxb7chin5wsjuy6nsqoi8panra,xdelvHJb,2020-0188,2021-10-14,13:03:20,14:34:11,NA,incomplete,false,true,NA,3,29,NA,purple,m_l_038.jpg,NA,NA,pleasant,unpleasant,NA,NA,NA,NA,NA,left,1477.19999999925,true,NA,NA,NA,NA,NA
xdelvHJb,32k26u12eq14p7ktnmss8y5zd9bdv8,3u0srxb7chin5wsjuy6nsqoi8panra,xdelvHJb,2020-0188,2021-10-14,13:03:20,14:34:11,NA,incomplete,false,true,NA,3,30,NA,yellow,m_l_067.jpg,NA,NA,pleasant,unpleasant,NA,NA,NA,NA,NA,right,1341.5,true,NA,NA,NA,NA,NA
xdelvHJb,32k26u12eq14p7ktnmss8y5zd9bdv8,3u0srxb7chin5wsjuy6nsqoi8panra,xdelvHJb,2020-0188,2021-10-14,13:03:20,14:34:11,NA,incomplete,false,true,NA,3,31,NA,yellow,n_s_014.jpg,NA,NA,unpleasant,pleasant,NA,NA,NA,NA,NA,left,1290.70000000112,true,NA,NA,NA,NA,NA
xdelvHJb,32k26u12eq14p7ktnmss8y5zd9bdv8,3u0srxb7chin5wsjuy6nsqoi8panra,xdelvHJb,2020-0188,2021-10-14,13:03:20,14:34:11,NA,incomplete,false,true,NA,3,32,NA,yellow,n_l_067.jpg,NA,NA,pleasant,unpleasant,NA,NA,NA,NA,NA,right,1802.90000000037,true,NA,NA,NA,NA,NA
xdelvHJb,32k26u12eq14p7ktnmss8y5zd9bdv8,3u0srxb7chin5wsjuy6nsqoi8panra,xdelvHJb,2020-0188,2021-10-14,13:03:20,14:34:11,NA,incomplete,false,true,NA,3,33,NA,yellow,m_s_010.jpg,NA,NA,pleasant,unpleasant,NA,NA,NA,NA,NA,left,865.799999998882,true,NA,NA,NA,NA,NA
xdelvHJb,32k26u12eq14p7ktnmss8y5zd9bdv8,3u0srxb7chin5wsjuy6nsqoi8panra,xdelvHJb,2020-0188,2021-10-14,13:03:20,14:34:11,NA,incomplete,false,true,NA,3,34,NA,yellow,m_l_006.jpg,NA,NA,pleasant,unpleasant,NA,NA,NA,NA,NA,right,1590.80000000075,true,NA,NA,NA,NA,NA
xdelvHJb,32k26u12eq14p7ktnmss8y5zd9bdv8,3u0srxb7chin5wsjuy6nsqoi8panra,xdelvHJb,2020-0188,2021-10-14,13:03:20,14:34:11,NA,incomplete,false,true,NA,3,35,NA,yellow,m_l_114.jpg,NA,NA,pleasant,unpleasant,NA,NA,NA,NA,NA,left,962.800000000745,true,NA,NA,NA,NA,NA
xdelvHJb,32k26u12eq14p7ktnmss8y5zd9bdv8,3u0srxb7chin5wsjuy6nsqoi8panra,xdelvHJb,2020-0188,2021-10-14,13:03:20,14:34:11,NA,incomplete,false,NA,true,3,0,NA,NA,NA,left,absent,NA,NA,n_l_108.jpg,purple,m_l_038.jpg,purple,within,NA,NaN,NA,left,3194,1,2,1717
xdelvHJb,32k26u12eq14p7ktnmss8y5zd9bdv8,3u0srxb7chin5wsjuy6nsqoi8panra,xdelvHJb,2020-0188,2021-10-14,13:03:20,14:34:11,NA,incomplete,false,NA,true,3,1,NA,NA,NA,left,absent,NA,NA,n_s_089.jpg,red,n_l_077.jpg,black,between,NA,NaN,NA,right,5169.5,0,2,1744.4000000003725
xdelvHJb,32k26u12eq14p7ktnmss8y5zd9bdv8,3u0srxb7chin5wsjuy6nsqoi8panra,xdelvHJb,2020-0188,2021-10-14,13:03:20,14:34:11,NA,incomplete,false,NA,true,3,2,NA,NA,NA,right,absent,NA,NA,n_l_070.jpg,black,n_s_075.jpg,black,within,NA,NaN,NA,left,1993.5,0,2,2081.5999999996275
xdelvHJb,32k26u12eq14p7ktnmss8y5zd9bdv8,3u0srxb7chin5wsjuy6nsqoi8panra,xdelvHJb,2020-0188,2021-10-14,13:03:20,14:34:11,NA,incomplete,false,NA,true,3,3,NA,NA,NA,right,absent,NA,NA,n_s_054.jpg,white,n_l_068.jpg,black,between,NA,NaN,NA,right,3012.0999999996275,1,1,3653.5999999996275
xdelvHJb,32k26u12eq14p7ktnmss8y5zd9bdv8,3u0srxb7chin5wsjuy6nsqoi8panra,xdelvHJb,2020-0188,2021-10-14,13:03:20,14:34:11,NA,incomplete,false,NA,true,3,4,NA,NA,NA,right,absent,NA,NA,m_l_112.jpg,red,m_s_021.jpg,green,between,NA,NaN,NA,left,3440.199999999255,0,2,2471.199999999255
xdelvHJb,32k26u12eq14p7ktnmss8y5zd9bdv8,3u0srxb7chin5wsjuy6nsqoi8panra,xdelvHJb,2020-0188,2021-10-14,13:03:20,14:34:11,NA,incomplete,false,NA,true,3,5,NA,NA,NA,right,absent,NA,NA,n_s_034.jpg,white,n_l_058.jpg,white,within,NA,NaN,NA,left,3133.5,0,2,1624.5999999996275
xdelvHJb,32k26u12eq14p7ktnmss8y5zd9bdv8,3u0srxb7chin5wsjuy6nsqoi8panra,xdelvHJb,2020-0188,2021-10-14,13:03:20,14:34:11,NA,incomplete,false,NA,true,3,6,NA,NA,NA,left,absent,NA,NA,m_s_036.jpg,purple,n_l_067.jpg,yellow,between,NA,NaN,NA,left,3539,1,2,1479.4000000003725
xdelvHJb,32k26u12eq14p7ktnmss8y5zd9bdv8,3u0srxb7chin5wsjuy6nsqoi8panra,xdelvHJb,2020-0188,2021-10-14,13:03:20,14:34:11,NA,incomplete,false,NA,true,3,7,NA,NA,NA,right,absent,NA,NA,m_l_061.jpg,red,n_l_004.jpg,red,within,NA,NaN,NA,right,2760.2999999988824,1,2,1752.800000000745
xdelvHJb,32k26u12eq14p7ktnmss8y5zd9bdv8,3u0srxb7chin5wsjuy6nsqoi8panra,xdelvHJb,2020-0188,2021-10-14,13:03:20,14:34:11,NA,incomplete,false,NA,true,3,8,NA,NA,NA,left,absent,NA,NA,n_l_085.jpg,green,m_l_113.jpg,green,within,NA,NaN,NA,right,2276.699999999255,0,1,1595.800000000745
xdelvHJb,32k26u12eq14p7ktnmss8y5zd9bdv8,3u0srxb7chin5wsjuy6nsqoi8panra,xdelvHJb,2020-0188,2021-10-14,13:03:20,14:34:11,NA,incomplete,false,NA,true,3,9,NA,NA,NA,left,absent,NA,NA,n_s_014.jpg,yellow,m_l_114.jpg,yellow,within,NA,NaN,NA,left,4885.5999999996275,1,1,1406.3999999985099
xdelvHJb,32k26u12eq14p7ktnmss8y5zd9bdv8,3u0srxb7chin5wsjuy6nsqoi8panra,xdelvHJb,2020-0188,2021-10-14,13:03:20,14:34:11,NA,incomplete,false,NA,true,3,10,NA,NA,NA,right,absent,NA,NA,m_s_015.jpg,purple,n_l_049.jpg,white,between,NA,NaN,NA,right,2076.0999999996275,1,1,3657.7999999988824
xdelvHJb,32k26u12eq14p7ktnmss8y5zd9bdv8,3u0srxb7chin5wsjuy6nsqoi8panra,xdelvHJb,2020-0188,2021-10-14,13:03:20,14:34:11,NA,incomplete,false,true,NA,4,0,NA,gray,m_l_097.jpg,NA,NA,pleasant,unpleasant,NA,NA,NA,NA,NA,left,1562.19999999925,true,NA,NA,NA,NA,NA
xdelvHJb,32k26u12eq14p7ktnmss8y5zd9bdv8,3u0srxb7chin5wsjuy6nsqoi8panra,xdelvHJb,2020-0188,2021-10-14,13:03:20,14:34:11,NA,incomplete,false,true,NA,4,1,NA,gray,m_s_042.jpg,NA,NA,pleasant,unpleasant,NA,NA,NA,NA,NA,right,2158.59999999963,true,NA,NA,NA,NA,NA
xdelvHJb,32k26u12eq14p7ktnmss8y5zd9bdv8,3u0srxb7chin5wsjuy6nsqoi8panra,xdelvHJb,2020-0188,2021-10-14,13:03:20,14:34:11,NA,incomplete,false,true,NA,4,2,NA,gray,n_s_031.jpg,NA,NA,unpleasant,pleasant,NA,NA,NA,NA,NA,left,1079.79999999888,true,NA,NA,NA,NA,NA
xdelvHJb,32k26u12eq14p7ktnmss8y5zd9bdv8,3u0srxb7chin5wsjuy6nsqoi8panra,xdelvHJb,2020-0188,2021-10-14,13:03:20,14:34:11,NA,incomplete,false,true,NA,4,3,NA,gray,n_l_021.jpg,NA,NA,pleasant,unpleasant,NA,NA,NA,NA,NA,left,1019.10000000149,true,NA,NA,NA,NA,NA
xdelvHJb,32k26u12eq14p7ktnmss8y5zd9bdv8,3u0srxb7chin5wsjuy6nsqoi8panra,xdelvHJb,2020-0188,2021-10-14,13:03:20,14:34:11,NA,incomplete,false,true,NA,4,4,NA,gray,m_l_036.jpg,NA,NA,pleasant,unpleasant,NA,NA,NA,NA,NA,left,990.900000000373,true,NA,NA,NA,NA,NA
xdelvHJb,32k26u12eq14p7ktnmss8y5zd9bdv8,3u0srxb7chin5wsjuy6nsqoi8panra,xdelvHJb,2020-0188,2021-10-14,13:03:20,14:34:11,NA,incomplete,false,true,NA,4,5,NA,gray,m_s_072.jpg,NA,NA,unpleasant,pleasant,NA,NA,NA,NA,NA,right,1125.20000000112,true,NA,NA,NA,NA,NA
xdelvHJb,32k26u12eq14p7ktnmss8y5zd9bdv8,3u0srxb7chin5wsjuy6nsqoi8panra,xdelvHJb,2020-0188,2021-10-14,13:03:20,14:34:11,NA,incomplete,false,true,NA,4,6,NA,yellow,n_l_094.jpg,NA,NA,unpleasant,pleasant,NA,NA,NA,NA,NA,right,1148.89999999851,true,NA,NA,NA,NA,NA
xdelvHJb,32k26u12eq14p7ktnmss8y5zd9bdv8,3u0srxb7chin5wsjuy6nsqoi8panra,xdelvHJb,2020-0188,2021-10-14,13:03:20,14:34:11,NA,incomplete,false,true,NA,4,7,NA,yellow,n_l_033.jpg,NA,NA,pleasant,unpleasant,NA,NA,NA,NA,NA,right,1475.09999999963,true,NA,NA,NA,NA,NA
xdelvHJb,32k26u12eq14p7ktnmss8y5zd9bdv8,3u0srxb7chin5wsjuy6nsqoi8panra,xdelvHJb,2020-0188,2021-10-14,13:03:20,14:34:11,NA,incomplete,false,true,NA,4,8,NA,yellow,n_s_053.jpg,NA,NA,pleasant,unpleasant,NA,NA,NA,NA,NA,right,1171,true,NA,NA,NA,NA,NA
xdelvHJb,32k26u12eq14p7ktnmss8y5zd9bdv8,3u0srxb7chin5wsjuy6nsqoi8panra,xdelvHJb,2020-0188,2021-10-14,13:03:20,14:34:11,NA,incomplete,false,true,NA,4,9,NA,yellow,m_l_081.jpg,NA,NA,unpleasant,pleasant,NA,NA,NA,NA,NA,right,1076.40000000037,true,NA,NA,NA,NA,NA
xdelvHJb,32k26u12eq14p7ktnmss8y5zd9bdv8,3u0srxb7chin5wsjuy6nsqoi8panra,xdelvHJb,2020-0188,2021-10-14,13:03:20,14:34:11,NA,incomplete,false,true,NA,4,10,NA,yellow,m_l_044.jpg,NA,NA,pleasant,unpleasant,NA,NA,NA,NA,NA,left,1017.90000000037,true,NA,NA,NA,NA,NA
xdelvHJb,32k26u12eq14p7ktnmss8y5zd9bdv8,3u0srxb7chin5wsjuy6nsqoi8panra,xdelvHJb,2020-0188,2021-10-14,13:03:20,14:34:11,NA,incomplete,false,true,NA,4,11,NA,yellow,n_s_082.jpg,NA,NA,unpleasant,pleasant,NA,NA,NA,NA,NA,left,1033.5,true,NA,NA,NA,NA,NA
xdelvHJb,32k26u12eq14p7ktnmss8y5zd9bdv8,3u0srxb7chin5wsjuy6nsqoi8panra,xdelvHJb,2020-0188,2021-10-14,13:03:20,14:34:11,NA,incomplete,false,true,NA,4,12,NA,brown,n_l_065.jpg,NA,NA,pleasant,unpleasant,NA,NA,NA,NA,NA,left,1162.69999999925,true,NA,NA,NA,NA,NA
xdelvHJb,32k26u12eq14p7ktnmss8y5zd9bdv8,3u0srxb7chin5wsjuy6nsqoi8panra,xdelvHJb,2020-0188,2021-10-14,13:03:20,14:34:11,NA,incomplete,false,true,NA,4,13,NA,brown,n_l_024.jpg,NA,NA,pleasant,unpleasant,NA,NA,NA,NA,NA,left,1221.79999999888,true,NA,NA,NA,NA,NA
xdelvHJb,32k26u12eq14p7ktnmss8y5zd9bdv8,3u0srxb7chin5wsjuy6nsqoi8panra,xdelvHJb,2020-0188,2021-10-14,13:03:20,14:34:11,NA,incomplete,false,true,NA,4,14,NA,brown,m_s_085.jpg,NA,NA,pleasant,unpleasant,NA,NA,NA,NA,NA,right,1287.10000000149,true,NA,NA,NA,NA,NA
xdelvHJb,32k26u12eq14p7ktnmss8y5zd9bdv8,3u0srxb7chin5wsjuy6nsqoi8panra,xdelvHJb,2020-0188,2021-10-14,13:03:20,14:34:11,NA,incomplete,false,true,NA,4,15,NA,brown,n_s_049.jpg,NA,NA,pleasant,unpleasant,NA,NA,NA,NA,NA,right,939.799999998882,true,NA,NA,NA,NA,NA
xdelvHJb,32k26u12eq14p7ktnmss8y5zd9bdv8,3u0srxb7chin5wsjuy6nsqoi8panra,xdelvHJb,2020-0188,2021-10-14,13:03:20,14:34:11,NA,incomplete,false,true,NA,4,16,NA,brown,m_s_030.jpg,NA,NA,pleasant,unpleasant,NA,NA,NA,NA,NA,right,1608.90000000037,true,NA,NA,NA,NA,NA
xdelvHJb,32k26u12eq14p7ktnmss8y5zd9bdv8,3u0srxb7chin5wsjuy6nsqoi8panra,xdelvHJb,2020-0188,2021-10-14,13:03:20,14:34:11,NA,incomplete,false,true,NA,4,17,NA,brown,n_s_023.jpg,NA,NA,unpleasant,pleasant,NA,NA,NA,NA,NA,left,936.5,true,NA,NA,NA,NA,NA
xdelvHJb,32k26u12eq14p7ktnmss8y5zd9bdv8,3u0srxb7chin5wsjuy6nsqoi8panra,xdelvHJb,2020-0188,2021-10-14,13:03:20,14:34:11,NA,incomplete,false,true,NA,4,18,NA,blue,n_l_026.jpg,NA,NA,unpleasant,pleasant,NA,NA,NA,NA,NA,right,1469.80000000075,true,NA,NA,NA,NA,NA
xdelvHJb,32k26u12eq14p7ktnmss8y5zd9bdv8,3u0srxb7chin5wsjuy6nsqoi8panra,xdelvHJb,2020-0188,2021-10-14,13:03:20,14:34:11,NA,incomplete,false,true,NA,4,19,NA,blue,m_s_114.jpg,NA,NA,unpleasant,pleasant,NA,NA,NA,NA,NA,right,1646.40000000037,true,NA,NA,NA,NA,NA
xdelvHJb,32k26u12eq14p7ktnmss8y5zd9bdv8,3u0srxb7chin5wsjuy6nsqoi8panra,xdelvHJb,2020-0188,2021-10-14,13:03:20,14:34:11,NA,incomplete,false,true,NA,4,20,NA,blue,m_l_069.jpg,NA,NA,pleasant,unpleasant,NA,NA,NA,NA,NA,right,1674.90000000037,true,NA,NA,NA,NA,NA
xdelvHJb,32k26u12eq14p7ktnmss8y5zd9bdv8,3u0srxb7chin5wsjuy6nsqoi8panra,xdelvHJb,2020-0188,2021-10-14,13:03:20,14:34:11,NA,incomplete,false,true,NA,4,21,NA,blue,n_l_039.jpg,NA,NA,pleasant,unpleasant,NA,NA,NA,NA,NA,left,937.199999999255,true,NA,NA,NA,NA,NA
xdelvHJb,32k26u12eq14p7ktnmss8y5zd9bdv8,3u0srxb7chin5wsjuy6nsqoi8panra,xdelvHJb,2020-0188,2021-10-14,13:03:20,14:34:11,NA,incomplete,false,true,NA,4,22,NA,blue,m_s_084.jpg,NA,NA,pleasant,unpleasant,NA,NA,NA,NA,NA,left,1033.30000000075,true,NA,NA,NA,NA,NA
xdelvHJb,32k26u12eq14p7ktnmss8y5zd9bdv8,3u0srxb7chin5wsjuy6nsqoi8panra,xdelvHJb,2020-0188,2021-10-14,13:03:20,14:34:11,NA,incomplete,false,true,NA,4,23,NA,blue,m_s_065.jpg,NA,NA,unpleasant,pleasant,NA,NA,NA,NA,NA,right,1059,true,NA,NA,NA,NA,NA
xdelvHJb,32k26u12eq14p7ktnmss8y5zd9bdv8,3u0srxb7chin5wsjuy6nsqoi8panra,xdelvHJb,2020-0188,2021-10-14,13:03:20,14:34:11,NA,incomplete,false,true,NA,4,24,NA,orange,m_s_008.jpg,NA,NA,unpleasant,pleasant,NA,NA,NA,NA,NA,right,1194.90000000037,true,NA,NA,NA,NA,NA
xdelvHJb,32k26u12eq14p7ktnmss8y5zd9bdv8,3u0srxb7chin5wsjuy6nsqoi8panra,xdelvHJb,2020-0188,2021-10-14,13:03:20,14:34:11,NA,incomplete,false,true,NA,4,25,NA,orange,n_s_007.jpg,NA,NA,unpleasant,pleasant,NA,NA,NA,NA,NA,left,1395.60000000149,true,NA,NA,NA,NA,NA
xdelvHJb,32k26u12eq14p7ktnmss8y5zd9bdv8,3u0srxb7chin5wsjuy6nsqoi8panra,xdelvHJb,2020-0188,2021-10-14,13:03:20,14:34:11,NA,incomplete,false,true,NA,4,26,NA,orange,m_s_105.jpg,NA,NA,unpleasant,pleasant,NA,NA,NA,NA,NA,right,1230.69999999925,true,NA,NA,NA,NA,NA
xdelvHJb,32k26u12eq14p7ktnmss8y5zd9bdv8,3u0srxb7chin5wsjuy6nsqoi8panra,xdelvHJb,2020-0188,2021-10-14,13:03:20,14:34:11,NA,incomplete,false,true,NA,4,27,NA,orange,n_l_109.jpg,NA,NA,unpleasant,pleasant,NA,NA,NA,NA,NA,left,860.599999999627,true,NA,NA,NA,NA,NA
xdelvHJb,32k26u12eq14p7ktnmss8y5zd9bdv8,3u0srxb7chin5wsjuy6nsqoi8panra,xdelvHJb,2020-0188,2021-10-14,13:03:20,14:34:11,NA,incomplete,false,true,NA,4,28,NA,orange,m_s_026.jpg,NA,NA,pleasant,unpleasant,NA,NA,NA,NA,NA,left,1509.39999999851,true,NA,NA,NA,NA,NA
xdelvHJb,32k26u12eq14p7ktnmss8y5zd9bdv8,3u0srxb7chin5wsjuy6nsqoi8panra,xdelvHJb,2020-0188,2021-10-14,13:03:20,14:34:11,NA,incomplete,false,true,NA,4,29,NA,orange,n_l_015.jpg,NA,NA,unpleasant,pleasant,NA,NA,NA,NA,NA,right,1162.29999999888,true,NA,NA,NA,NA,NA
xdelvHJb,32k26u12eq14p7ktnmss8y5zd9bdv8,3u0srxb7chin5wsjuy6nsqoi8panra,xdelvHJb,2020-0188,2021-10-14,13:03:20,14:34:11,NA,incomplete,false,true,NA,4,30,NA,purple,m_l_075.jpg,NA,NA,pleasant,unpleasant,NA,NA,NA,NA,NA,left,1150.09999999963,true,NA,NA,NA,NA,NA
xdelvHJb,32k26u12eq14p7ktnmss8y5zd9bdv8,3u0srxb7chin5wsjuy6nsqoi8panra,xdelvHJb,2020-0188,2021-10-14,13:03:20,14:34:11,NA,incomplete,false,true,NA,4,31,NA,purple,n_s_111.jpg,NA,NA,pleasant,unpleasant,NA,NA,NA,NA,NA,right,1108.59999999963,true,NA,NA,NA,NA,NA
xdelvHJb,32k26u12eq14p7ktnmss8y5zd9bdv8,3u0srxb7chin5wsjuy6nsqoi8panra,xdelvHJb,2020-0188,2021-10-14,13:03:20,14:34:11,NA,incomplete,false,true,NA,4,32,NA,purple,n_l_088.jpg,NA,NA,pleasant,unpleasant,NA,NA,NA,NA,NA,left,920.300000000745,true,NA,NA,NA,NA,NA
xdelvHJb,32k26u12eq14p7ktnmss8y5zd9bdv8,3u0srxb7chin5wsjuy6nsqoi8panra,xdelvHJb,2020-0188,2021-10-14,13:03:20,14:34:11,NA,incomplete,false,true,NA,4,33,NA,purple,m_s_101.jpg,NA,NA,unpleasant,pleasant,NA,NA,NA,NA,NA,right,1301,true,NA,NA,NA,NA,NA
xdelvHJb,32k26u12eq14p7ktnmss8y5zd9bdv8,3u0srxb7chin5wsjuy6nsqoi8panra,xdelvHJb,2020-0188,2021-10-14,13:03:20,14:34:11,NA,incomplete,false,true,NA,4,34,NA,purple,n_l_089.jpg,NA,NA,pleasant,unpleasant,NA,NA,NA,NA,NA,left,920.5,true,NA,NA,NA,NA,NA
xdelvHJb,32k26u12eq14p7ktnmss8y5zd9bdv8,3u0srxb7chin5wsjuy6nsqoi8panra,xdelvHJb,2020-0188,2021-10-14,13:03:20,14:34:11,NA,incomplete,false,true,NA,4,35,NA,purple,n_s_047.jpg,NA,NA,pleasant,unpleasant,NA,NA,NA,NA,NA,right,1093.80000000075,true,NA,NA,NA,NA,NA
xdelvHJb,32k26u12eq14p7ktnmss8y5zd9bdv8,3u0srxb7chin5wsjuy6nsqoi8panra,xdelvHJb,2020-0188,2021-10-14,13:03:20,14:34:11,NA,incomplete,false,NA,true,4,0,NA,NA,NA,right,absent,NA,NA,n_l_015.jpg,orange,n_s_007.jpg,orange,within,NA,NaN,NA,left,3612.7999999988824,0,2,1634.2000000011176
xdelvHJb,32k26u12eq14p7ktnmss8y5zd9bdv8,3u0srxb7chin5wsjuy6nsqoi8panra,xdelvHJb,2020-0188,2021-10-14,13:03:20,14:34:11,NA,incomplete,false,NA,true,4,1,NA,NA,NA,right,absent,NA,NA,n_s_023.jpg,brown,n_l_024.jpg,brown,within,NA,NaN,NA,right,3782.300000000745,1,1,1503.5
xdelvHJb,32k26u12eq14p7ktnmss8y5zd9bdv8,3u0srxb7chin5wsjuy6nsqoi8panra,xdelvHJb,2020-0188,2021-10-14,13:03:20,14:34:11,NA,incomplete,false,NA,true,4,2,NA,NA,NA,left,absent,NA,NA,m_s_084.jpg,blue,m_s_105.jpg,orange,between,NA,NaN,NA,left,2039.1000000014901,1,1,1401.4000000003725
xdelvHJb,32k26u12eq14p7ktnmss8y5zd9bdv8,3u0srxb7chin5wsjuy6nsqoi8panra,xdelvHJb,2020-0188,2021-10-14,13:03:20,14:34:11,NA,incomplete,false,NA,true,4,3,NA,NA,NA,left,absent,NA,NA,n_s_111.jpg,purple,n_s_047.jpg,purple,within,NA,NaN,NA,right,5823.5999999996275,0,0,2281.5999999996275
xdelvHJb,32k26u12eq14p7ktnmss8y5zd9bdv8,3u0srxb7chin5wsjuy6nsqoi8panra,xdelvHJb,2020-0188,2021-10-14,13:03:20,14:34:11,NA,incomplete,false,NA,true,4,4,NA,NA,NA,left,absent,NA,NA,m_l_036.jpg,gray,n_s_053.jpg,yellow,between,NA,NaN,NA,right,2463.2999999988824,0,2,1489
xdelvHJb,32k26u12eq14p7ktnmss8y5zd9bdv8,3u0srxb7chin5wsjuy6nsqoi8panra,xdelvHJb,2020-0188,2021-10-14,13:03:20,14:34:11,NA,incomplete,false,NA,true,4,5,NA,NA,NA,right,absent,NA,NA,m_s_085.jpg,brown,m_l_044.jpg,yellow,between,NA,NaN,NA,right,2344.2000000011176,1,3,1043
xdelvHJb,32k26u12eq14p7ktnmss8y5zd9bdv8,3u0srxb7chin5wsjuy6nsqoi8panra,xdelvHJb,2020-0188,2021-10-14,13:03:20,14:34:11,NA,incomplete,false,NA,true,4,6,NA,NA,NA,right,absent,NA,NA,n_l_088.jpg,purple,m_s_026.jpg,orange,between,NA,NaN,NA,left,3278.800000000745,0,1,1308.2000000011176
xdelvHJb,32k26u12eq14p7ktnmss8y5zd9bdv8,3u0srxb7chin5wsjuy6nsqoi8panra,xdelvHJb,2020-0188,2021-10-14,13:03:20,14:34:11,NA,incomplete,false,NA,true,4,7,NA,NA,NA,left,absent,NA,NA,n_l_033.jpg,yellow,n_s_082.jpg,yellow,within,NA,NaN,NA,left,2641.699999999255,1,1,1175.9000000003725
xdelvHJb,32k26u12eq14p7ktnmss8y5zd9bdv8,3u0srxb7chin5wsjuy6nsqoi8panra,xdelvHJb,2020-0188,2021-10-14,13:03:20,14:34:11,NA,incomplete,false,NA,true,4,8,NA,NA,NA,left,absent,NA,NA,m_s_114.jpg,blue,m_s_065.jpg,blue,within,NA,NaN,NA,right,6389.4000000003725,0,1,1605.1000000014901
xdelvHJb,32k26u12eq14p7ktnmss8y5zd9bdv8,3u0srxb7chin5wsjuy6nsqoi8panra,xdelvHJb,2020-0188,2021-10-14,13:03:20,14:34:11,NA,incomplete,false,NA,true,4,9,NA,NA,NA,left,absent,NA,NA,m_s_042.jpg,gray,m_s_072.jpg,gray,within,NA,NaN,NA,left,2813.7999999988824,1,1,1396.300000000745
xdelvHJb,32k26u12eq14p7ktnmss8y5zd9bdv8,3u0srxb7chin5wsjuy6nsqoi8panra,xdelvHJb,2020-0188,2021-10-14,13:03:20,14:34:11,NA,incomplete,false,NA,true,4,10,NA,NA,NA,right,absent,NA,NA,m_l_069.jpg,blue,m_s_030.jpg,brown,between,NA,NaN,NA,left,3139.800000000745,0,2,1289.0999999996275
xdelvHJb,32k26u12eq14p7ktnmss8y5zd9bdv8,3u0srxb7chin5wsjuy6nsqoi8panra,xdelvHJb,2020-0188,2021-10-14,13:03:20,14:34:11,NA,incomplete,false,true,NA,5,0,NA,gray,m_s_023.jpg,NA,NA,unpleasant,pleasant,NA,NA,NA,NA,NA,right,1061.29999999888,true,NA,NA,NA,NA,NA
xdelvHJb,32k26u12eq14p7ktnmss8y5zd9bdv8,3u0srxb7chin5wsjuy6nsqoi8panra,xdelvHJb,2020-0188,2021-10-14,13:03:20,14:34:11,NA,incomplete,false,true,NA,5,1,NA,gray,n_s_078.jpg,NA,NA,unpleasant,pleasant,NA,NA,NA,NA,NA,left,1404.59999999963,true,NA,NA,NA,NA,NA
xdelvHJb,32k26u12eq14p7ktnmss8y5zd9bdv8,3u0srxb7chin5wsjuy6nsqoi8panra,xdelvHJb,2020-0188,2021-10-14,13:03:20,14:34:11,NA,incomplete,false,true,NA,5,2,NA,gray,m_s_066.jpg,NA,NA,unpleasant,pleasant,NA,NA,NA,NA,NA,right,1215.89999999851,true,NA,NA,NA,NA,NA
xdelvHJb,32k26u12eq14p7ktnmss8y5zd9bdv8,3u0srxb7chin5wsjuy6nsqoi8panra,xdelvHJb,2020-0188,2021-10-14,13:03:20,14:34:11,NA,incomplete,false,true,NA,5,3,NA,gray,m_s_053.jpg,NA,NA,unpleasant,pleasant,NA,NA,NA,NA,NA,right,1137.90000000037,true,NA,NA,NA,NA,NA
xdelvHJb,32k26u12eq14p7ktnmss8y5zd9bdv8,3u0srxb7chin5wsjuy6nsqoi8panra,xdelvHJb,2020-0188,2021-10-14,13:03:20,14:34:11,NA,incomplete,false,true,NA,5,4,NA,gray,m_l_024.jpg,NA,NA,pleasant,unpleasant,NA,NA,NA,NA,NA,left,1219.70000000112,true,NA,NA,NA,NA,NA
xdelvHJb,32k26u12eq14p7ktnmss8y5zd9bdv8,3u0srxb7chin5wsjuy6nsqoi8panra,xdelvHJb,2020-0188,2021-10-14,13:03:20,14:34:11,NA,incomplete,false,true,NA,5,5,NA,gray,m_l_088.jpg,NA,NA,pleasant,unpleasant,NA,NA,NA,NA,NA,left,1680.70000000112,true,NA,NA,NA,NA,NA
xdelvHJb,32k26u12eq14p7ktnmss8y5zd9bdv8,3u0srxb7chin5wsjuy6nsqoi8panra,xdelvHJb,2020-0188,2021-10-14,13:03:20,14:34:11,NA,incomplete,false,true,NA,5,6,NA,green,m_s_099.jpg,NA,NA,unpleasant,pleasant,NA,NA,NA,NA,NA,right,1395.20000000112,true,NA,NA,NA,NA,NA
xdelvHJb,32k26u12eq14p7ktnmss8y5zd9bdv8,3u0srxb7chin5wsjuy6nsqoi8panra,xdelvHJb,2020-0188,2021-10-14,13:03:20,14:34:11,NA,incomplete,false,true,NA,5,7,NA,green,n_s_116.jpg,NA,NA,unpleasant,pleasant,NA,NA,NA,NA,NA,left,926.900000000373,true,NA,NA,NA,NA,NA
xdelvHJb,32k26u12eq14p7ktnmss8y5zd9bdv8,3u0srxb7chin5wsjuy6nsqoi8panra,xdelvHJb,2020-0188,2021-10-14,13:03:20,14:34:11,NA,incomplete,false,true,NA,5,8,NA,green,m_l_054.jpg,NA,NA,pleasant,unpleasant,NA,NA,NA,NA,NA,left,1002.90000000037,true,NA,NA,NA,NA,NA
xdelvHJb,32k26u12eq14p7ktnmss8y5zd9bdv8,3u0srxb7chin5wsjuy6nsqoi8panra,xdelvHJb,2020-0188,2021-10-14,13:03:20,14:34:11,NA,incomplete,false,true,NA,5,9,NA,green,m_l_020.jpg,NA,NA,unpleasant,pleasant,NA,NA,NA,NA,NA,right,1352.40000000037,true,NA,NA,NA,NA,NA
xdelvHJb,32k26u12eq14p7ktnmss8y5zd9bdv8,3u0srxb7chin5wsjuy6nsqoi8panra,xdelvHJb,2020-0188,2021-10-14,13:03:20,14:34:11,NA,incomplete,false,true,NA,5,10,NA,green,n_s_091.jpg,NA,NA,unpleasant,pleasant,NA,NA,NA,NA,NA,left,912.39999999851,true,NA,NA,NA,NA,NA
xdelvHJb,32k26u12eq14p7ktnmss8y5zd9bdv8,3u0srxb7chin5wsjuy6nsqoi8panra,xdelvHJb,2020-0188,2021-10-14,13:03:20,14:34:11,NA,incomplete,false,true,NA,5,11,NA,green,m_s_037.jpg,NA,NA,unpleasant,pleasant,NA,NA,NA,NA,NA,right,1024.30000000075,true,NA,NA,NA,NA,NA
xdelvHJb,32k26u12eq14p7ktnmss8y5zd9bdv8,3u0srxb7chin5wsjuy6nsqoi8panra,xdelvHJb,2020-0188,2021-10-14,13:03:20,14:34:11,NA,incomplete,false,true,NA,5,12,NA,white,n_s_048.jpg,NA,NA,unpleasant,pleasant,NA,NA,NA,NA,NA,right,1189.90000000037,true,NA,NA,NA,NA,NA
xdelvHJb,32k26u12eq14p7ktnmss8y5zd9bdv8,3u0srxb7chin5wsjuy6nsqoi8panra,xdelvHJb,2020-0188,2021-10-14,13:03:20,14:34:11,NA,incomplete,false,true,NA,5,13,NA,white,m_s_103.jpg,NA,NA,pleasant,unpleasant,NA,NA,NA,NA,NA,left,1208.10000000149,true,NA,NA,NA,NA,NA
xdelvHJb,32k26u12eq14p7ktnmss8y5zd9bdv8,3u0srxb7chin5wsjuy6nsqoi8panra,xdelvHJb,2020-0188,2021-10-14,13:03:20,14:34:11,NA,incomplete,false,true,NA,5,14,NA,white,n_l_066.jpg,NA,NA,unpleasant,pleasant,NA,NA,NA,NA,NA,left,1642.20000000112,true,NA,NA,NA,NA,NA
xdelvHJb,32k26u12eq14p7ktnmss8y5zd9bdv8,3u0srxb7chin5wsjuy6nsqoi8panra,xdelvHJb,2020-0188,2021-10-14,13:03:20,14:34:11,NA,incomplete,false,true,NA,5,15,NA,white,m_l_014.jpg,NA,NA,unpleasant,pleasant,NA,NA,NA,NA,NA,right,1147.30000000075,true,NA,NA,NA,NA,NA
xdelvHJb,32k26u12eq14p7ktnmss8y5zd9bdv8,3u0srxb7chin5wsjuy6nsqoi8panra,xdelvHJb,2020-0188,2021-10-14,13:03:20,14:34:11,NA,incomplete,false,true,NA,5,16,NA,white,m_l_104.jpg,NA,NA,pleasant,unpleasant,NA,NA,NA,NA,NA,left,1340.19999999925,true,NA,NA,NA,NA,NA
xdelvHJb,32k26u12eq14p7ktnmss8y5zd9bdv8,3u0srxb7chin5wsjuy6nsqoi8panra,xdelvHJb,2020-0188,2021-10-14,13:03:20,14:34:11,NA,incomplete,false,true,NA,5,17,NA,white,m_s_017.jpg,NA,NA,pleasant,unpleasant,NA,NA,NA,NA,NA,left,1060.09999999963,true,NA,NA,NA,NA,NA
xdelvHJb,32k26u12eq14p7ktnmss8y5zd9bdv8,3u0srxb7chin5wsjuy6nsqoi8panra,xdelvHJb,2020-0188,2021-10-14,13:03:20,14:34:11,NA,incomplete,false,true,NA,5,18,NA,orange,m_l_032.jpg,NA,NA,unpleasant,pleasant,NA,NA,NA,NA,NA,right,1009.09999999963,true,NA,NA,NA,NA,NA
xdelvHJb,32k26u12eq14p7ktnmss8y5zd9bdv8,3u0srxb7chin5wsjuy6nsqoi8panra,xdelvHJb,2020-0188,2021-10-14,13:03:20,14:34:11,NA,incomplete,false,true,NA,5,19,NA,orange,m_l_007.jpg,NA,NA,unpleasant,pleasant,NA,NA,NA,NA,NA,right,1936.59999999963,true,NA,NA,NA,NA,NA
xdelvHJb,32k26u12eq14p7ktnmss8y5zd9bdv8,3u0srxb7chin5wsjuy6nsqoi8panra,xdelvHJb,2020-0188,2021-10-14,13:03:20,14:34:11,NA,incomplete,false,true,NA,5,20,NA,orange,n_l_022.jpg,NA,NA,unpleasant,pleasant,NA,NA,NA,NA,NA,right,971,true,NA,NA,NA,NA,NA
xdelvHJb,32k26u12eq14p7ktnmss8y5zd9bdv8,3u0srxb7chin5wsjuy6nsqoi8panra,xdelvHJb,2020-0188,2021-10-14,13:03:20,14:34:11,NA,incomplete,false,true,NA,5,21,NA,orange,m_s_086.jpg,NA,NA,unpleasant,pleasant,NA,NA,NA,NA,NA,right,1415.59999999963,true,NA,NA,NA,NA,NA
xdelvHJb,32k26u12eq14p7ktnmss8y5zd9bdv8,3u0srxb7chin5wsjuy6nsqoi8panra,xdelvHJb,2020-0188,2021-10-14,13:03:20,14:34:11,NA,incomplete,false,true,NA,5,22,NA,orange,m_l_077.jpg,NA,NA,unpleasant,pleasant,NA,NA,NA,NA,NA,right,1059.10000000149,true,NA,NA,NA,NA,NA
xdelvHJb,32k26u12eq14p7ktnmss8y5zd9bdv8,3u0srxb7chin5wsjuy6nsqoi8panra,xdelvHJb,2020-0188,2021-10-14,13:03:20,14:34:11,NA,incomplete,false,true,NA,5,23,NA,orange,m_s_082.jpg,NA,NA,unpleasant,pleasant,NA,NA,NA,NA,NA,left,1289.69999999925,true,NA,NA,NA,NA,NA
xdelvHJb,32k26u12eq14p7ktnmss8y5zd9bdv8,3u0srxb7chin5wsjuy6nsqoi8panra,xdelvHJb,2020-0188,2021-10-14,13:03:20,14:34:11,NA,incomplete,false,true,NA,5,24,NA,black,m_s_049.jpg,NA,NA,pleasant,unpleasant,NA,NA,NA,NA,NA,left,1134.90000000037,true,NA,NA,NA,NA,NA
xdelvHJb,32k26u12eq14p7ktnmss8y5zd9bdv8,3u0srxb7chin5wsjuy6nsqoi8panra,xdelvHJb,2020-0188,2021-10-14,13:03:20,14:34:11,NA,incomplete,false,true,NA,5,25,NA,black,m_l_022.jpg,NA,NA,pleasant,unpleasant,NA,NA,NA,NA,NA,left,804.5,true,NA,NA,NA,NA,NA
xdelvHJb,32k26u12eq14p7ktnmss8y5zd9bdv8,3u0srxb7chin5wsjuy6nsqoi8panra,xdelvHJb,2020-0188,2021-10-14,13:03:20,14:34:11,NA,incomplete,false,true,NA,5,26,NA,black,m_s_055.jpg,NA,NA,pleasant,unpleasant,NA,NA,NA,NA,NA,left,1133.40000000037,true,NA,NA,NA,NA,NA
xdelvHJb,32k26u12eq14p7ktnmss8y5zd9bdv8,3u0srxb7chin5wsjuy6nsqoi8panra,xdelvHJb,2020-0188,2021-10-14,13:03:20,14:34:11,NA,incomplete,false,true,NA,5,27,NA,black,m_l_102.jpg,NA,NA,pleasant,unpleasant,NA,NA,NA,NA,NA,left,959.700000001118,true,NA,NA,NA,NA,NA
xdelvHJb,32k26u12eq14p7ktnmss8y5zd9bdv8,3u0srxb7chin5wsjuy6nsqoi8panra,xdelvHJb,2020-0188,2021-10-14,13:03:20,14:34:11,NA,incomplete,false,true,NA,5,28,NA,black,n_l_005.jpg,NA,NA,pleasant,unpleasant,NA,NA,NA,NA,NA,left,778.699999999255,true,NA,NA,NA,NA,NA
xdelvHJb,32k26u12eq14p7ktnmss8y5zd9bdv8,3u0srxb7chin5wsjuy6nsqoi8panra,xdelvHJb,2020-0188,2021-10-14,13:03:20,14:34:11,NA,incomplete,false,true,NA,5,29,NA,black,m_l_091.jpg,NA,NA,unpleasant,pleasant,NA,NA,NA,NA,NA,right,989.900000000373,true,NA,NA,NA,NA,NA
xdelvHJb,32k26u12eq14p7ktnmss8y5zd9bdv8,3u0srxb7chin5wsjuy6nsqoi8panra,xdelvHJb,2020-0188,2021-10-14,13:03:20,14:34:11,NA,incomplete,false,true,NA,5,30,NA,yellow,n_s_080.jpg,NA,NA,unpleasant,pleasant,NA,NA,NA,NA,NA,left,1023.30000000075,true,NA,NA,NA,NA,NA
xdelvHJb,32k26u12eq14p7ktnmss8y5zd9bdv8,3u0srxb7chin5wsjuy6nsqoi8panra,xdelvHJb,2020-0188,2021-10-14,13:03:20,14:34:11,NA,incomplete,false,true,NA,5,31,NA,yellow,m_s_087.jpg,NA,NA,pleasant,unpleasant,NA,NA,NA,NA,NA,left,1675.90000000037,true,NA,NA,NA,NA,NA
xdelvHJb,32k26u12eq14p7ktnmss8y5zd9bdv8,3u0srxb7chin5wsjuy6nsqoi8panra,xdelvHJb,2020-0188,2021-10-14,13:03:20,14:34:11,NA,incomplete,false,true,NA,5,32,NA,yellow,n_s_060.jpg,NA,NA,unpleasant,pleasant,NA,NA,NA,NA,NA,right,886.300000000745,true,NA,NA,NA,NA,NA
xdelvHJb,32k26u12eq14p7ktnmss8y5zd9bdv8,3u0srxb7chin5wsjuy6nsqoi8panra,xdelvHJb,2020-0188,2021-10-14,13:03:20,14:34:11,NA,incomplete,false,true,NA,5,33,NA,yellow,n_s_004.jpg,NA,NA,unpleasant,pleasant,NA,NA,NA,NA,NA,left,974.799999998882,true,NA,NA,NA,NA,NA
xdelvHJb,32k26u12eq14p7ktnmss8y5zd9bdv8,3u0srxb7chin5wsjuy6nsqoi8panra,xdelvHJb,2020-0188,2021-10-14,13:03:20,14:34:11,NA,incomplete,false,true,NA,5,34,NA,yellow,m_l_051.jpg,NA,NA,unpleasant,pleasant,NA,NA,NA,NA,NA,right,1188.30000000075,true,NA,NA,NA,NA,NA
xdelvHJb,32k26u12eq14p7ktnmss8y5zd9bdv8,3u0srxb7chin5wsjuy6nsqoi8panra,xdelvHJb,2020-0188,2021-10-14,13:03:20,14:34:11,NA,incomplete,false,true,NA,5,35,NA,yellow,n_s_016.jpg,NA,NA,unpleasant,pleasant,NA,NA,NA,NA,NA,left,993.099999999627,true,NA,NA,NA,NA,NA
xdelvHJb,32k26u12eq14p7ktnmss8y5zd9bdv8,3u0srxb7chin5wsjuy6nsqoi8panra,xdelvHJb,2020-0188,2021-10-14,13:03:20,14:34:11,NA,incomplete,false,NA,true,5,0,NA,NA,NA,left,present,NA,NA,m_l_024.jpg,gray,m_l_054.jpg,green,between,NA,NaN,NA,left,2022.300000000745,1,2,4908
xdelvHJb,32k26u12eq14p7ktnmss8y5zd9bdv8,3u0srxb7chin5wsjuy6nsqoi8panra,xdelvHJb,2020-0188,2021-10-14,13:03:20,14:34:11,NA,incomplete,false,NA,true,5,1,NA,NA,NA,left,present,NA,NA,m_l_007.jpg,orange,m_s_082.jpg,orange,within,NA,NaN,NA,right,4902.9000000003725,0,0,1363.2000000011176
xdelvHJb,32k26u12eq14p7ktnmss8y5zd9bdv8,3u0srxb7chin5wsjuy6nsqoi8panra,xdelvHJb,2020-0188,2021-10-14,13:03:20,14:34:11,NA,incomplete,false,NA,true,5,2,NA,NA,NA,right,present,NA,NA,n_l_066.jpg,white,n_s_091.jpg,green,between,NA,NaN,NA,right,3463.10000000149,1,2,1225.300000000745
xdelvHJb,32k26u12eq14p7ktnmss8y5zd9bdv8,3u0srxb7chin5wsjuy6nsqoi8panra,xdelvHJb,2020-0188,2021-10-14,13:03:20,14:34:11,NA,incomplete,false,NA,true,5,3,NA,NA,NA,right,present,NA,NA,m_l_088.jpg,gray,n_s_078.jpg,gray,within,NA,NaN,NA,right,2353.5,1,1,1540.2999999988824
xdelvHJb,32k26u12eq14p7ktnmss8y5zd9bdv8,3u0srxb7chin5wsjuy6nsqoi8panra,xdelvHJb,2020-0188,2021-10-14,13:03:20,14:34:11,NA,incomplete,false,NA,true,5,4,NA,NA,NA,left,present,NA,NA,m_s_087.jpg,yellow,n_s_016.jpg,yellow,within,NA,NaN,NA,right,2761.39999999851,0,1,1751.7000000011176
xdelvHJb,32k26u12eq14p7ktnmss8y5zd9bdv8,3u0srxb7chin5wsjuy6nsqoi8panra,xdelvHJb,2020-0188,2021-10-14,13:03:20,14:34:11,NA,incomplete,false,NA,true,5,5,NA,NA,NA,right,present,NA,NA,m_l_091.jpg,black,m_l_022.jpg,black,within,NA,NaN,NA,right,2974.699999999255,1,0,1574.0999999996275
xdelvHJb,32k26u12eq14p7ktnmss8y5zd9bdv8,3u0srxb7chin5wsjuy6nsqoi8panra,xdelvHJb,2020-0188,2021-10-14,13:03:20,14:34:11,NA,incomplete,false,NA,true,5,6,NA,NA,NA,left,present,NA,NA,m_l_077.jpg,orange,m_s_055.jpg,black,between,NA,NaN,NA,left,4053.2000000011176,1,2,1519.9000000003725
xdelvHJb,32k26u12eq14p7ktnmss8y5zd9bdv8,3u0srxb7chin5wsjuy6nsqoi8panra,xdelvHJb,2020-0188,2021-10-14,13:03:20,14:34:11,NA,incomplete,false,NA,true,5,7,NA,NA,NA,right,present,NA,NA,m_s_037.jpg,green,n_s_116.jpg,green,within,NA,NaN,NA,right,2941.800000000745,1,0,1902.199999999255
xdelvHJb,32k26u12eq14p7ktnmss8y5zd9bdv8,3u0srxb7chin5wsjuy6nsqoi8panra,xdelvHJb,2020-0188,2021-10-14,13:03:20,14:34:11,NA,incomplete,false,NA,true,5,8,NA,NA,NA,left,present,NA,NA,n_l_005.jpg,black,n_s_060.jpg,yellow,between,NA,NaN,NA,left,2896.9000000003725,1,2,2109.5999999996275
xdelvHJb,32k26u12eq14p7ktnmss8y5zd9bdv8,3u0srxb7chin5wsjuy6nsqoi8panra,xdelvHJb,2020-0188,2021-10-14,13:03:20,14:34:11,NA,incomplete,false,NA,true,5,9,NA,NA,NA,right,present,NA,NA,n_l_022.jpg,orange,m_l_104.jpg,white,between,NA,NaN,NA,right,3768.300000000745,1,2,2964.199999999255
xdelvHJb,32k26u12eq14p7ktnmss8y5zd9bdv8,3u0srxb7chin5wsjuy6nsqoi8panra,xdelvHJb,2020-0188,2021-10-14,13:03:20,14:34:11,NA,incomplete,false,NA,true,5,10,NA,NA,NA,left,present,NA,NA,m_s_103.jpg,white,m_s_017.jpg,white,within,NA,NaN,NA,left,3207.60000000149,1,0,1312.800000000745
xdelvHJb,32k26u12eq14p7ktnmss8y5zd9bdv8,3u0srxb7chin5wsjuy6nsqoi8panra,xdelvHJb,2020-0188,2021-10-14,13:03:20,14:34:11,NA,incomplete,false,true,NA,6,0,NA,purple,m_s_116.jpg,NA,NA,unpleasant,pleasant,NA,NA,NA,NA,NA,right,1545.70000000112,true,NA,NA,NA,NA,NA
xdelvHJb,32k26u12eq14p7ktnmss8y5zd9bdv8,3u0srxb7chin5wsjuy6nsqoi8panra,xdelvHJb,2020-0188,2021-10-14,13:03:20,14:34:11,NA,incomplete,false,true,NA,6,1,NA,purple,n_s_114.jpg,NA,NA,unpleasant,pleasant,NA,NA,NA,NA,NA,left,1638.5,true,NA,NA,NA,NA,NA
xdelvHJb,32k26u12eq14p7ktnmss8y5zd9bdv8,3u0srxb7chin5wsjuy6nsqoi8panra,xdelvHJb,2020-0188,2021-10-14,13:03:20,14:34:11,NA,incomplete,false,true,NA,6,2,NA,purple,m_s_083.jpg,NA,NA,pleasant,unpleasant,NA,NA,NA,NA,NA,left,1505.09999999963,true,NA,NA,NA,NA,NA
xdelvHJb,32k26u12eq14p7ktnmss8y5zd9bdv8,3u0srxb7chin5wsjuy6nsqoi8panra,xdelvHJb,2020-0188,2021-10-14,13:03:20,14:34:11,NA,incomplete,false,true,NA,6,3,NA,purple,m_l_111.jpg,NA,NA,pleasant,unpleasant,NA,NA,NA,NA,NA,left,950.900000000373,true,NA,NA,NA,NA,NA
xdelvHJb,32k26u12eq14p7ktnmss8y5zd9bdv8,3u0srxb7chin5wsjuy6nsqoi8panra,xdelvHJb,2020-0188,2021-10-14,13:03:20,14:34:11,NA,incomplete,false,true,NA,6,4,NA,purple,n_s_099.jpg,NA,NA,unpleasant,pleasant,NA,NA,NA,NA,NA,right,1427,true,NA,NA,NA,NA,NA
xdelvHJb,32k26u12eq14p7ktnmss8y5zd9bdv8,3u0srxb7chin5wsjuy6nsqoi8panra,xdelvHJb,2020-0188,2021-10-14,13:03:20,14:34:11,NA,incomplete,false,true,NA,6,5,NA,purple,m_s_044.jpg,NA,NA,pleasant,unpleasant,NA,NA,NA,NA,NA,left,979.60000000149,true,NA,NA,NA,NA,NA
xdelvHJb,32k26u12eq14p7ktnmss8y5zd9bdv8,3u0srxb7chin5wsjuy6nsqoi8panra,xdelvHJb,2020-0188,2021-10-14,13:03:20,14:34:11,NA,incomplete,false,true,NA,6,6,NA,white,n_s_092.jpg,NA,NA,unpleasant,pleasant,NA,NA,NA,NA,NA,right,1293.79999999888,true,NA,NA,NA,NA,NA
xdelvHJb,32k26u12eq14p7ktnmss8y5zd9bdv8,3u0srxb7chin5wsjuy6nsqoi8panra,xdelvHJb,2020-0188,2021-10-14,13:03:20,14:34:11,NA,incomplete,false,true,NA,6,7,NA,white,m_l_108.jpg,NA,NA,unpleasant,pleasant,NA,NA,NA,NA,NA,right,1469.30000000075,true,NA,NA,NA,NA,NA
xdelvHJb,32k26u12eq14p7ktnmss8y5zd9bdv8,3u0srxb7chin5wsjuy6nsqoi8panra,xdelvHJb,2020-0188,2021-10-14,13:03:20,14:34:11,NA,incomplete,false,true,NA,6,8,NA,white,n_l_082.jpg,NA,NA,pleasant,unpleasant,NA,NA,NA,NA,NA,right,1577.90000000037,true,NA,NA,NA,NA,NA
xdelvHJb,32k26u12eq14p7ktnmss8y5zd9bdv8,3u0srxb7chin5wsjuy6nsqoi8panra,xdelvHJb,2020-0188,2021-10-14,13:03:20,14:34:11,NA,incomplete,false,true,NA,6,9,NA,white,m_l_116.jpg,NA,NA,pleasant,unpleasant,NA,NA,NA,NA,NA,left,1083.19999999925,true,NA,NA,NA,NA,NA
xdelvHJb,32k26u12eq14p7ktnmss8y5zd9bdv8,3u0srxb7chin5wsjuy6nsqoi8panra,xdelvHJb,2020-0188,2021-10-14,13:03:20,14:34:11,NA,incomplete,false,true,NA,6,10,NA,white,m_l_034.jpg,NA,NA,unpleasant,pleasant,NA,NA,NA,NA,NA,right,1391.79999999888,true,NA,NA,NA,NA,NA
xdelvHJb,32k26u12eq14p7ktnmss8y5zd9bdv8,3u0srxb7chin5wsjuy6nsqoi8panra,xdelvHJb,2020-0188,2021-10-14,13:03:20,14:34:11,NA,incomplete,false,true,NA,6,11,NA,white,n_l_104.jpg,NA,NA,pleasant,unpleasant,NA,NA,NA,NA,NA,right,1373.19999999925,true,NA,NA,NA,NA,NA
xdelvHJb,32k26u12eq14p7ktnmss8y5zd9bdv8,3u0srxb7chin5wsjuy6nsqoi8panra,xdelvHJb,2020-0188,2021-10-14,13:03:20,14:34:11,NA,incomplete,false,true,NA,6,12,NA,orange,m_l_107.jpg,NA,NA,unpleasant,pleasant,NA,NA,NA,NA,NA,left,1620.80000000075,true,NA,NA,NA,NA,NA
xdelvHJb,32k26u12eq14p7ktnmss8y5zd9bdv8,3u0srxb7chin5wsjuy6nsqoi8panra,xdelvHJb,2020-0188,2021-10-14,13:03:20,14:34:11,NA,incomplete,false,true,NA,6,13,NA,orange,m_s_027.jpg,NA,NA,pleasant,unpleasant,NA,NA,NA,NA,NA,left,1258.60000000149,true,NA,NA,NA,NA,NA
xdelvHJb,32k26u12eq14p7ktnmss8y5zd9bdv8,3u0srxb7chin5wsjuy6nsqoi8panra,xdelvHJb,2020-0188,2021-10-14,13:03:20,14:34:11,NA,incomplete,false,true,NA,6,14,NA,orange,n_s_015.jpg,NA,NA,pleasant,unpleasant,NA,NA,NA,NA,NA,left,993.900000000373,true,NA,NA,NA,NA,NA
xdelvHJb,32k26u12eq14p7ktnmss8y5zd9bdv8,3u0srxb7chin5wsjuy6nsqoi8panra,xdelvHJb,2020-0188,2021-10-14,13:03:20,14:34:11,NA,incomplete,false,true,NA,6,15,NA,orange,m_s_012.jpg,NA,NA,pleasant,unpleasant,NA,NA,NA,NA,NA,left,1038.5,true,NA,NA,NA,NA,NA
xdelvHJb,32k26u12eq14p7ktnmss8y5zd9bdv8,3u0srxb7chin5wsjuy6nsqoi8panra,xdelvHJb,2020-0188,2021-10-14,13:03:20,14:34:11,NA,incomplete,false,true,NA,6,16,NA,orange,n_l_062.jpg,NA,NA,pleasant,unpleasant,NA,NA,NA,NA,NA,left,1038.40000000037,true,NA,NA,NA,NA,NA
xdelvHJb,32k26u12eq14p7ktnmss8y5zd9bdv8,3u0srxb7chin5wsjuy6nsqoi8panra,xdelvHJb,2020-0188,2021-10-14,13:03:20,14:34:11,NA,incomplete,false,true,NA,6,17,NA,orange,m_s_108.jpg,NA,NA,unpleasant,pleasant,NA,NA,NA,NA,NA,right,2114.09999999963,true,NA,NA,NA,NA,NA
xdelvHJb,32k26u12eq14p7ktnmss8y5zd9bdv8,3u0srxb7chin5wsjuy6nsqoi8panra,xdelvHJb,2020-0188,2021-10-14,13:03:20,14:34:11,NA,incomplete,false,true,NA,6,18,NA,brown,m_l_025.jpg,NA,NA,pleasant,unpleasant,NA,NA,NA,NA,NA,left,1481.90000000037,true,NA,NA,NA,NA,NA
xdelvHJb,32k26u12eq14p7ktnmss8y5zd9bdv8,3u0srxb7chin5wsjuy6nsqoi8panra,xdelvHJb,2020-0188,2021-10-14,13:03:20,14:34:11,NA,incomplete,false,true,NA,6,19,NA,brown,m_l_099.jpg,NA,NA,pleasant,unpleasant,NA,NA,NA,NA,NA,left,1050.30000000075,true,NA,NA,NA,NA,NA
xdelvHJb,32k26u12eq14p7ktnmss8y5zd9bdv8,3u0srxb7chin5wsjuy6nsqoi8panra,xdelvHJb,2020-0188,2021-10-14,13:03:20,14:34:11,NA,incomplete,false,true,NA,6,20,NA,brown,n_l_074.jpg,NA,NA,unpleasant,pleasant,NA,NA,NA,NA,NA,right,1511.5,true,NA,NA,NA,NA,NA
xdelvHJb,32k26u12eq14p7ktnmss8y5zd9bdv8,3u0srxb7chin5wsjuy6nsqoi8panra,xdelvHJb,2020-0188,2021-10-14,13:03:20,14:34:11,NA,incomplete,false,true,NA,6,21,NA,brown,m_l_037.jpg,NA,NA,unpleasant,pleasant,NA,NA,NA,NA,NA,right,1405.79999999888,true,NA,NA,NA,NA,NA
xdelvHJb,32k26u12eq14p7ktnmss8y5zd9bdv8,3u0srxb7chin5wsjuy6nsqoi8panra,xdelvHJb,2020-0188,2021-10-14,13:03:20,14:34:11,NA,incomplete,false,true,NA,6,22,NA,brown,m_s_089.jpg,NA,NA,unpleasant,pleasant,NA,NA,NA,NA,NA,left,1763.20000000112,true,NA,NA,NA,NA,NA
xdelvHJb,32k26u12eq14p7ktnmss8y5zd9bdv8,3u0srxb7chin5wsjuy6nsqoi8panra,xdelvHJb,2020-0188,2021-10-14,13:03:20,14:34:11,NA,incomplete,false,true,NA,6,23,NA,brown,m_s_041.jpg,NA,NA,pleasant,unpleasant,NA,NA,NA,NA,NA,left,1340.09999999963,true,NA,NA,NA,NA,NA
xdelvHJb,32k26u12eq14p7ktnmss8y5zd9bdv8,3u0srxb7chin5wsjuy6nsqoi8panra,xdelvHJb,2020-0188,2021-10-14,13:03:20,14:34:11,NA,incomplete,false,true,NA,6,24,NA,red,n_l_087.jpg,NA,NA,unpleasant,pleasant,NA,NA,NA,NA,NA,right,1365.59999999963,true,NA,NA,NA,NA,NA
xdelvHJb,32k26u12eq14p7ktnmss8y5zd9bdv8,3u0srxb7chin5wsjuy6nsqoi8panra,xdelvHJb,2020-0188,2021-10-14,13:03:20,14:34:11,NA,incomplete,false,true,NA,6,25,NA,red,m_l_026.jpg,NA,NA,pleasant,unpleasant,NA,NA,NA,NA,NA,left,1201.5,true,NA,NA,NA,NA,NA
xdelvHJb,32k26u12eq14p7ktnmss8y5zd9bdv8,3u0srxb7chin5wsjuy6nsqoi8panra,xdelvHJb,2020-0188,2021-10-14,13:03:20,14:34:11,NA,incomplete,false,true,NA,6,26,NA,red,n_l_028.jpg,NA,NA,pleasant,unpleasant,NA,NA,NA,NA,NA,left,977.900000000373,true,NA,NA,NA,NA,NA
xdelvHJb,32k26u12eq14p7ktnmss8y5zd9bdv8,3u0srxb7chin5wsjuy6nsqoi8panra,xdelvHJb,2020-0188,2021-10-14,13:03:20,14:34:11,NA,incomplete,false,true,NA,6,27,NA,red,n_l_020.jpg,NA,NA,pleasant,unpleasant,NA,NA,NA,NA,NA,left,778.900000000373,true,NA,NA,NA,NA,NA
xdelvHJb,32k26u12eq14p7ktnmss8y5zd9bdv8,3u0srxb7chin5wsjuy6nsqoi8panra,xdelvHJb,2020-0188,2021-10-14,13:03:20,14:34:11,NA,incomplete,false,true,NA,6,28,NA,red,m_s_097.jpg,NA,NA,pleasant,unpleasant,NA,NA,NA,NA,NA,left,1243,true,NA,NA,NA,NA,NA
xdelvHJb,32k26u12eq14p7ktnmss8y5zd9bdv8,3u0srxb7chin5wsjuy6nsqoi8panra,xdelvHJb,2020-0188,2021-10-14,13:03:20,14:34:11,NA,incomplete,false,true,NA,6,29,NA,red,n_s_070.jpg,NA,NA,unpleasant,pleasant,NA,NA,NA,NA,NA,left,1615.10000000149,true,NA,NA,NA,NA,NA
xdelvHJb,32k26u12eq14p7ktnmss8y5zd9bdv8,3u0srxb7chin5wsjuy6nsqoi8panra,xdelvHJb,2020-0188,2021-10-14,13:03:20,14:34:11,NA,incomplete,false,true,NA,6,30,NA,gray,n_l_086.jpg,NA,NA,pleasant,unpleasant,NA,NA,NA,NA,NA,left,1945.40000000037,true,NA,NA,NA,NA,NA
xdelvHJb,32k26u12eq14p7ktnmss8y5zd9bdv8,3u0srxb7chin5wsjuy6nsqoi8panra,xdelvHJb,2020-0188,2021-10-14,13:03:20,14:34:11,NA,incomplete,false,true,NA,6,31,NA,gray,m_l_093.jpg,NA,NA,unpleasant,pleasant,NA,NA,NA,NA,NA,left,1192.30000000075,true,NA,NA,NA,NA,NA
xdelvHJb,32k26u12eq14p7ktnmss8y5zd9bdv8,3u0srxb7chin5wsjuy6nsqoi8panra,xdelvHJb,2020-0188,2021-10-14,13:03:20,14:34:11,NA,incomplete,false,true,NA,6,32,NA,gray,n_s_029.jpg,NA,NA,pleasant,unpleasant,NA,NA,NA,NA,NA,right,1466,true,NA,NA,NA,NA,NA
xdelvHJb,32k26u12eq14p7ktnmss8y5zd9bdv8,3u0srxb7chin5wsjuy6nsqoi8panra,xdelvHJb,2020-0188,2021-10-14,13:03:20,14:34:11,NA,incomplete,false,true,NA,6,33,NA,gray,n_l_059.jpg,NA,NA,unpleasant,pleasant,NA,NA,NA,NA,NA,left,1389.19999999925,true,NA,NA,NA,NA,NA
xdelvHJb,32k26u12eq14p7ktnmss8y5zd9bdv8,3u0srxb7chin5wsjuy6nsqoi8panra,xdelvHJb,2020-0188,2021-10-14,13:03:20,14:34:11,NA,incomplete,false,true,NA,6,34,NA,gray,n_s_045.jpg,NA,NA,pleasant,unpleasant,NA,NA,NA,NA,NA,left,1222.59999999963,true,NA,NA,NA,NA,NA
xdelvHJb,32k26u12eq14p7ktnmss8y5zd9bdv8,3u0srxb7chin5wsjuy6nsqoi8panra,xdelvHJb,2020-0188,2021-10-14,13:03:20,14:34:11,NA,incomplete,false,true,NA,6,35,NA,gray,m_l_115.jpg,NA,NA,pleasant,unpleasant,NA,NA,NA,NA,NA,left,834.799999998882,true,NA,NA,NA,NA,NA
xdelvHJb,32k26u12eq14p7ktnmss8y5zd9bdv8,3u0srxb7chin5wsjuy6nsqoi8panra,xdelvHJb,2020-0188,2021-10-14,13:03:20,14:34:11,NA,incomplete,false,NA,true,6,0,NA,NA,NA,left,absent,NA,NA,m_s_027.jpg,orange,m_s_108.jpg,orange,within,NA,NaN,NA,right,3969.5999999996275,0,2,3518.699999999255
xdelvHJb,32k26u12eq14p7ktnmss8y5zd9bdv8,3u0srxb7chin5wsjuy6nsqoi8panra,xdelvHJb,2020-0188,2021-10-14,13:03:20,14:34:11,NA,incomplete,false,NA,true,6,1,NA,NA,NA,right,absent,NA,NA,n_l_082.jpg,white,n_s_099.jpg,purple,between,NA,NaN,NA,right,7875.700000001118,1,2,4087.5
xdelvHJb,32k26u12eq14p7ktnmss8y5zd9bdv8,3u0srxb7chin5wsjuy6nsqoi8panra,xdelvHJb,2020-0188,2021-10-14,13:03:20,14:34:11,NA,incomplete,false,NA,true,6,2,NA,NA,NA,left,absent,NA,NA,m_l_099.jpg,brown,m_s_041.jpg,brown,within,NA,NaN,NA,left,3668.800000000745,1,0,3338.5999999996275
xdelvHJb,32k26u12eq14p7ktnmss8y5zd9bdv8,3u0srxb7chin5wsjuy6nsqoi8panra,xdelvHJb,2020-0188,2021-10-14,13:03:20,14:34:11,NA,incomplete,false,NA,true,6,3,NA,NA,NA,left,absent,NA,NA,n_l_062.jpg,orange,n_l_074.jpg,brown,between,NA,NaN,NA,left,3256,1,2,1793.4000000003725
xdelvHJb,32k26u12eq14p7ktnmss8y5zd9bdv8,3u0srxb7chin5wsjuy6nsqoi8panra,xdelvHJb,2020-0188,2021-10-14,13:03:20,14:34:11,NA,incomplete,false,NA,true,6,4,NA,NA,NA,left,absent,NA,NA,m_l_034.jpg,white,n_s_015.jpg,orange,between,NA,NaN,NA,left,6669.4000000003725,1,1,1916.9000000003725
xdelvHJb,32k26u12eq14p7ktnmss8y5zd9bdv8,3u0srxb7chin5wsjuy6nsqoi8panra,xdelvHJb,2020-0188,2021-10-14,13:03:20,14:34:11,NA,incomplete,false,NA,true,6,5,NA,NA,NA,left,absent,NA,NA,m_l_108.jpg,white,n_l_104.jpg,white,within,NA,NaN,NA,right,5330.699999999255,0,2,1709.5999999996275
xdelvHJb,32k26u12eq14p7ktnmss8y5zd9bdv8,3u0srxb7chin5wsjuy6nsqoi8panra,xdelvHJb,2020-0188,2021-10-14,13:03:20,14:34:11,NA,incomplete,false,NA,true,6,6,NA,NA,NA,left,absent,NA,NA,m_l_093.jpg,gray,m_l_115.jpg,gray,within,NA,NaN,NA,left,8074.0999999996275,1,1,2401.199999999255
xdelvHJb,32k26u12eq14p7ktnmss8y5zd9bdv8,3u0srxb7chin5wsjuy6nsqoi8panra,xdelvHJb,2020-0188,2021-10-14,13:03:20,14:34:11,NA,incomplete,false,NA,true,6,7,NA,NA,NA,right,absent,NA,NA,n_s_070.jpg,red,m_l_026.jpg,red,within,NA,NaN,NA,right,3835.800000000745,1,0,2017.5999999996275
xdelvHJb,32k26u12eq14p7ktnmss8y5zd9bdv8,3u0srxb7chin5wsjuy6nsqoi8panra,xdelvHJb,2020-0188,2021-10-14,13:03:20,14:34:11,NA,incomplete,false,NA,true,6,8,NA,NA,NA,right,absent,NA,NA,m_s_044.jpg,purple,n_s_114.jpg,purple,within,NA,NaN,NA,right,7746,1,1,3738.4000000003725
xdelvHJb,32k26u12eq14p7ktnmss8y5zd9bdv8,3u0srxb7chin5wsjuy6nsqoi8panra,xdelvHJb,2020-0188,2021-10-14,13:03:20,14:34:11,NA,incomplete,false,NA,true,6,9,NA,NA,NA,right,absent,NA,NA,n_s_029.jpg,gray,m_s_097.jpg,red,between,NA,NaN,NA,left,5224.9000000003725,0,2,2219.4000000003725
xdelvHJb,32k26u12eq14p7ktnmss8y5zd9bdv8,3u0srxb7chin5wsjuy6nsqoi8panra,xdelvHJb,2020-0188,2021-10-14,13:03:20,14:34:11,NA,incomplete,false,NA,true,6,10,NA,NA,NA,left,absent,NA,NA,m_s_089.jpg,brown,n_l_028.jpg,red,between,NA,NaN,NA,right,2126.9000000003725,0,2,2917.0999999996275
xdelvHJb,32k26u12eq14p7ktnmss8y5zd9bdv8,3u0srxb7chin5wsjuy6nsqoi8panra,xdelvHJb,2020-0188,2021-10-14,13:03:20,14:34:11,NA,incomplete,false,true,NA,7,0,NA,yellow,n_s_039.jpg,NA,NA,unpleasant,pleasant,NA,NA,NA,NA,NA,right,1721.80000000075,true,NA,NA,NA,NA,NA
xdelvHJb,32k26u12eq14p7ktnmss8y5zd9bdv8,3u0srxb7chin5wsjuy6nsqoi8panra,xdelvHJb,2020-0188,2021-10-14,13:03:20,14:34:11,NA,incomplete,false,true,NA,7,1,NA,yellow,n_l_014.jpg,NA,NA,pleasant,unpleasant,NA,NA,NA,NA,NA,left,1819,true,NA,NA,NA,NA,NA
xdelvHJb,32k26u12eq14p7ktnmss8y5zd9bdv8,3u0srxb7chin5wsjuy6nsqoi8panra,xdelvHJb,2020-0188,2021-10-14,13:03:20,14:34:11,NA,incomplete,false,true,NA,7,2,NA,yellow,n_l_069.jpg,NA,NA,pleasant,unpleasant,NA,NA,NA,NA,NA,left,1382.5,true,NA,NA,NA,NA,NA
xdelvHJb,32k26u12eq14p7ktnmss8y5zd9bdv8,3u0srxb7chin5wsjuy6nsqoi8panra,xdelvHJb,2020-0188,2021-10-14,13:03:20,14:34:11,NA,incomplete,false,true,NA,7,3,NA,yellow,m_s_019.jpg,NA,NA,pleasant,unpleasant,NA,NA,NA,NA,NA,left,1319.40000000037,true,NA,NA,NA,NA,NA
xdelvHJb,32k26u12eq14p7ktnmss8y5zd9bdv8,3u0srxb7chin5wsjuy6nsqoi8panra,xdelvHJb,2020-0188,2021-10-14,13:03:20,14:34:11,NA,incomplete,false,true,NA,7,4,NA,yellow,m_l_046.jpg,NA,NA,pleasant,unpleasant,NA,NA,NA,NA,NA,left,1104.20000000112,true,NA,NA,NA,NA,NA
xdelvHJb,32k26u12eq14p7ktnmss8y5zd9bdv8,3u0srxb7chin5wsjuy6nsqoi8panra,xdelvHJb,2020-0188,2021-10-14,13:03:20,14:34:11,NA,incomplete,false,true,NA,7,5,NA,yellow,n_l_040.jpg,NA,NA,unpleasant,pleasant,NA,NA,NA,NA,NA,left,1526.09999999963,true,NA,NA,NA,NA,NA
xdelvHJb,32k26u12eq14p7ktnmss8y5zd9bdv8,3u0srxb7chin5wsjuy6nsqoi8panra,xdelvHJb,2020-0188,2021-10-14,13:03:20,14:34:11,NA,incomplete,false,true,NA,7,6,NA,brown,n_s_112.jpg,NA,NA,pleasant,unpleasant,NA,NA,NA,NA,NA,right,1676.09999999963,true,NA,NA,NA,NA,NA
xdelvHJb,32k26u12eq14p7ktnmss8y5zd9bdv8,3u0srxb7chin5wsjuy6nsqoi8panra,xdelvHJb,2020-0188,2021-10-14,13:03:20,14:34:11,NA,incomplete,false,true,NA,7,7,NA,brown,n_s_022.jpg,NA,NA,pleasant,unpleasant,NA,NA,NA,NA,NA,left,1332.69999999925,true,NA,NA,NA,NA,NA
xdelvHJb,32k26u12eq14p7ktnmss8y5zd9bdv8,3u0srxb7chin5wsjuy6nsqoi8panra,xdelvHJb,2020-0188,2021-10-14,13:03:20,14:34:11,NA,incomplete,false,true,NA,7,8,NA,brown,m_l_085.jpg,NA,NA,unpleasant,pleasant,NA,NA,NA,NA,NA,left,1444.59999999963,true,NA,NA,NA,NA,NA
xdelvHJb,32k26u12eq14p7ktnmss8y5zd9bdv8,3u0srxb7chin5wsjuy6nsqoi8panra,xdelvHJb,2020-0188,2021-10-14,13:03:20,14:34:11,NA,incomplete,false,true,NA,7,9,NA,brown,n_l_093.jpg,NA,NA,pleasant,unpleasant,NA,NA,NA,NA,NA,right,2243.80000000075,true,NA,NA,NA,NA,NA
xdelvHJb,32k26u12eq14p7ktnmss8y5zd9bdv8,3u0srxb7chin5wsjuy6nsqoi8panra,xdelvHJb,2020-0188,2021-10-14,13:03:20,14:34:11,NA,incomplete,false,true,NA,7,10,NA,brown,n_s_028.jpg,NA,NA,unpleasant,pleasant,NA,NA,NA,NA,NA,right,1560.29999999888,true,NA,NA,NA,NA,NA
xdelvHJb,32k26u12eq14p7ktnmss8y5zd9bdv8,3u0srxb7chin5wsjuy6nsqoi8panra,xdelvHJb,2020-0188,2021-10-14,13:03:20,14:34:11,NA,incomplete,false,true,NA,7,11,NA,brown,n_l_096.jpg,NA,NA,unpleasant,pleasant,NA,NA,NA,NA,NA,right,1288.69999999925,true,NA,NA,NA,NA,NA
xdelvHJb,32k26u12eq14p7ktnmss8y5zd9bdv8,3u0srxb7chin5wsjuy6nsqoi8panra,xdelvHJb,2020-0188,2021-10-14,13:03:20,14:34:11,NA,incomplete,false,true,NA,7,12,NA,purple,n_l_101.jpg,NA,NA,unpleasant,pleasant,NA,NA,NA,NA,NA,left,1825.09999999963,true,NA,NA,NA,NA,NA
xdelvHJb,32k26u12eq14p7ktnmss8y5zd9bdv8,3u0srxb7chin5wsjuy6nsqoi8panra,xdelvHJb,2020-0188,2021-10-14,13:03:20,14:34:11,NA,incomplete,false,true,NA,7,13,NA,purple,n_l_107.jpg,NA,NA,unpleasant,pleasant,NA,NA,NA,NA,NA,left,1871,true,NA,NA,NA,NA,NA
xdelvHJb,32k26u12eq14p7ktnmss8y5zd9bdv8,3u0srxb7chin5wsjuy6nsqoi8panra,xdelvHJb,2020-0188,2021-10-14,13:03:20,14:34:11,NA,incomplete,false,true,NA,7,14,NA,purple,n_l_075.jpg,NA,NA,unpleasant,pleasant,NA,NA,NA,NA,NA,left,1101.59999999963,true,NA,NA,NA,NA,NA
xdelvHJb,32k26u12eq14p7ktnmss8y5zd9bdv8,3u0srxb7chin5wsjuy6nsqoi8panra,xdelvHJb,2020-0188,2021-10-14,13:03:20,14:34:11,NA,incomplete,false,true,NA,7,15,NA,purple,n_l_061.jpg,NA,NA,unpleasant,pleasant,NA,NA,NA,NA,NA,right,1313.30000000075,true,NA,NA,NA,NA,NA
xdelvHJb,32k26u12eq14p7ktnmss8y5zd9bdv8,3u0srxb7chin5wsjuy6nsqoi8panra,xdelvHJb,2020-0188,2021-10-14,13:03:20,14:34:11,NA,incomplete,false,true,NA,7,16,NA,purple,n_l_030.jpg,NA,NA,pleasant,unpleasant,NA,NA,NA,NA,NA,left,1228.30000000075,true,NA,NA,NA,NA,NA
xdelvHJb,32k26u12eq14p7ktnmss8y5zd9bdv8,3u0srxb7chin5wsjuy6nsqoi8panra,xdelvHJb,2020-0188,2021-10-14,13:03:20,14:34:11,NA,incomplete,false,true,NA,7,17,NA,purple,m_s_068.jpg,NA,NA,unpleasant,pleasant,NA,NA,NA,NA,NA,right,2540.69999999925,true,NA,NA,NA,NA,NA
xdelvHJb,32k26u12eq14p7ktnmss8y5zd9bdv8,3u0srxb7chin5wsjuy6nsqoi8panra,xdelvHJb,2020-0188,2021-10-14,13:03:20,14:34:11,NA,incomplete,false,true,NA,7,18,NA,black,m_l_011.jpg,NA,NA,pleasant,unpleasant,NA,NA,NA,NA,NA,right,2325.10000000149,true,NA,NA,NA,NA,NA
xdelvHJb,32k26u12eq14p7ktnmss8y5zd9bdv8,3u0srxb7chin5wsjuy6nsqoi8panra,xdelvHJb,2020-0188,2021-10-14,13:03:20,14:34:11,NA,incomplete,false,true,NA,7,19,NA,black,n_s_044.jpg,NA,NA,unpleasant,pleasant,NA,NA,NA,NA,NA,right,2038.80000000075,true,NA,NA,NA,NA,NA
xdelvHJb,32k26u12eq14p7ktnmss8y5zd9bdv8,3u0srxb7chin5wsjuy6nsqoi8panra,xdelvHJb,2020-0188,2021-10-14,13:03:20,14:34:11,NA,incomplete,false,true,NA,7,20,NA,black,m_s_090.jpg,NA,NA,unpleasant,pleasant,NA,NA,NA,NA,NA,right,1522.09999999963,true,NA,NA,NA,NA,NA
xdelvHJb,32k26u12eq14p7ktnmss8y5zd9bdv8,3u0srxb7chin5wsjuy6nsqoi8panra,xdelvHJb,2020-0188,2021-10-14,13:03:20,14:34:11,NA,incomplete,false,true,NA,7,21,NA,black,m_l_053.jpg,NA,NA,unpleasant,pleasant,NA,NA,NA,NA,NA,right,1473,true,NA,NA,NA,NA,NA
xdelvHJb,32k26u12eq14p7ktnmss8y5zd9bdv8,3u0srxb7chin5wsjuy6nsqoi8panra,xdelvHJb,2020-0188,2021-10-14,13:03:20,14:34:11,NA,incomplete,false,true,NA,7,22,NA,black,m_s_075.jpg,NA,NA,pleasant,unpleasant,NA,NA,NA,NA,NA,left,1194.29999999888,true,NA,NA,NA,NA,NA
xdelvHJb,32k26u12eq14p7ktnmss8y5zd9bdv8,3u0srxb7chin5wsjuy6nsqoi8panra,xdelvHJb,2020-0188,2021-10-14,13:03:20,14:34:11,NA,incomplete,false,true,NA,7,23,NA,black,m_l_079.jpg,NA,NA,unpleasant,pleasant,NA,NA,NA,NA,NA,left,1439.39999999851,true,NA,NA,NA,NA,NA
xdelvHJb,32k26u12eq14p7ktnmss8y5zd9bdv8,3u0srxb7chin5wsjuy6nsqoi8panra,xdelvHJb,2020-0188,2021-10-14,13:03:20,14:34:11,NA,incomplete,false,true,NA,7,24,NA,gray,n_s_025.jpg,NA,NA,unpleasant,pleasant,NA,NA,NA,NA,NA,left,1906,true,NA,NA,NA,NA,NA
xdelvHJb,32k26u12eq14p7ktnmss8y5zd9bdv8,3u0srxb7chin5wsjuy6nsqoi8panra,xdelvHJb,2020-0188,2021-10-14,13:03:20,14:34:11,NA,incomplete,false,true,NA,7,25,NA,gray,m_l_021.jpg,NA,NA,pleasant,unpleasant,NA,NA,NA,NA,NA,left,1307.59999999963,true,NA,NA,NA,NA,NA
xdelvHJb,32k26u12eq14p7ktnmss8y5zd9bdv8,3u0srxb7chin5wsjuy6nsqoi8panra,xdelvHJb,2020-0188,2021-10-14,13:03:20,14:34:11,NA,incomplete,false,true,NA,7,26,NA,gray,n_s_096.jpg,NA,NA,unpleasant,pleasant,NA,NA,NA,NA,NA,right,1367.59999999963,true,NA,NA,NA,NA,NA
xdelvHJb,32k26u12eq14p7ktnmss8y5zd9bdv8,3u0srxb7chin5wsjuy6nsqoi8panra,xdelvHJb,2020-0188,2021-10-14,13:03:20,14:34:11,NA,incomplete,false,true,NA,7,27,NA,gray,n_s_113.jpg,NA,NA,unpleasant,pleasant,NA,NA,NA,NA,NA,left,2048.19999999925,true,NA,NA,NA,NA,NA
xdelvHJb,32k26u12eq14p7ktnmss8y5zd9bdv8,3u0srxb7chin5wsjuy6nsqoi8panra,xdelvHJb,2020-0188,2021-10-14,13:03:20,14:34:11,NA,incomplete,false,true,NA,7,28,NA,gray,m_s_094.jpg,NA,NA,pleasant,unpleasant,NA,NA,NA,NA,NA,left,1448.59999999963,true,NA,NA,NA,NA,NA
xdelvHJb,32k26u12eq14p7ktnmss8y5zd9bdv8,3u0srxb7chin5wsjuy6nsqoi8panra,xdelvHJb,2020-0188,2021-10-14,13:03:20,14:34:11,NA,incomplete,false,true,NA,7,29,NA,gray,m_l_013.jpg,NA,NA,pleasant,unpleasant,NA,NA,NA,NA,NA,left,1360.59999999963,true,NA,NA,NA,NA,NA
xdelvHJb,32k26u12eq14p7ktnmss8y5zd9bdv8,3u0srxb7chin5wsjuy6nsqoi8panra,xdelvHJb,2020-0188,2021-10-14,13:03:20,14:34:11,NA,incomplete,false,true,NA,7,30,NA,orange,n_s_050.jpg,NA,NA,pleasant,unpleasant,NA,NA,NA,NA,NA,right,1838.19999999925,true,NA,NA,NA,NA,NA
xdelvHJb,32k26u12eq14p7ktnmss8y5zd9bdv8,3u0srxb7chin5wsjuy6nsqoi8panra,xdelvHJb,2020-0188,2021-10-14,13:03:20,14:34:11,NA,incomplete,false,true,NA,7,31,NA,orange,n_s_077.jpg,NA,NA,unpleasant,pleasant,NA,NA,NA,NA,NA,left,1433,true,NA,NA,NA,NA,NA
xdelvHJb,32k26u12eq14p7ktnmss8y5zd9bdv8,3u0srxb7chin5wsjuy6nsqoi8panra,xdelvHJb,2020-0188,2021-10-14,13:03:20,14:34:11,NA,incomplete,false,true,NA,7,32,NA,orange,m_s_076.jpg,NA,NA,unpleasant,pleasant,NA,NA,NA,NA,NA,left,1508.69999999925,true,NA,NA,NA,NA,NA
xdelvHJb,32k26u12eq14p7ktnmss8y5zd9bdv8,3u0srxb7chin5wsjuy6nsqoi8panra,xdelvHJb,2020-0188,2021-10-14,13:03:20,14:34:11,NA,incomplete,false,true,NA,7,33,NA,orange,m_l_106.jpg,NA,NA,pleasant,unpleasant,NA,NA,NA,NA,NA,left,1792.5,true,NA,NA,NA,NA,NA
xdelvHJb,32k26u12eq14p7ktnmss8y5zd9bdv8,3u0srxb7chin5wsjuy6nsqoi8panra,xdelvHJb,2020-0188,2021-10-14,13:03:20,14:34:11,NA,incomplete,false,true,NA,7,34,NA,orange,n_l_054.jpg,NA,NA,unpleasant,pleasant,NA,NA,NA,NA,NA,right,1849.19999999925,true,NA,NA,NA,NA,NA
xdelvHJb,32k26u12eq14p7ktnmss8y5zd9bdv8,3u0srxb7chin5wsjuy6nsqoi8panra,xdelvHJb,2020-0188,2021-10-14,13:03:20,14:34:11,NA,incomplete,false,true,NA,7,35,NA,orange,n_s_094.jpg,NA,NA,pleasant,unpleasant,NA,NA,NA,NA,NA,left,1464.79999999888,true,NA,NA,NA,NA,NA
xdelvHJb,32k26u12eq14p7ktnmss8y5zd9bdv8,3u0srxb7chin5wsjuy6nsqoi8panra,xdelvHJb,2020-0188,2021-10-14,13:03:20,14:34:11,NA,incomplete,false,NA,true,7,0,NA,NA,NA,left,present,NA,NA,n_s_028.jpg,brown,n_l_075.jpg,purple,between,NA,NaN,NA,right,11968.599999999627,0,2,2964.800000000745
xdelvHJb,32k26u12eq14p7ktnmss8y5zd9bdv8,3u0srxb7chin5wsjuy6nsqoi8panra,xdelvHJb,2020-0188,2021-10-14,13:03:20,14:34:11,NA,incomplete,false,NA,true,7,1,NA,NA,NA,right,present,NA,NA,n_l_040.jpg,yellow,n_l_014.jpg,yellow,within,NA,NaN,NA,right,2746.5999999996275,1,1,2413.2000000011176
xdelvHJb,32k26u12eq14p7ktnmss8y5zd9bdv8,3u0srxb7chin5wsjuy6nsqoi8panra,xdelvHJb,2020-0188,2021-10-14,13:03:20,14:34:11,NA,incomplete,false,NA,true,7,2,NA,NA,NA,left,present,NA,NA,m_s_094.jpg,gray,m_s_076.jpg,orange,between,NA,NaN,NA,left,13645.60000000149,1,2,2761.2999999988824
xdelvHJb,32k26u12eq14p7ktnmss8y5zd9bdv8,3u0srxb7chin5wsjuy6nsqoi8panra,xdelvHJb,2020-0188,2021-10-14,13:03:20,14:34:11,NA,incomplete,false,NA,true,7,3,NA,NA,NA,left,present,NA,NA,n_l_030.jpg,purple,m_s_090.jpg,black,between,NA,NaN,NA,left,4159,1,2,2449.199999999255
xdelvHJb,32k26u12eq14p7ktnmss8y5zd9bdv8,3u0srxb7chin5wsjuy6nsqoi8panra,xdelvHJb,2020-0188,2021-10-14,13:03:20,14:34:11,NA,incomplete,false,NA,true,7,4,NA,NA,NA,left,present,NA,NA,m_l_021.jpg,gray,m_l_013.jpg,gray,within,NA,NaN,NA,right,7615.4000000003725,0,0,1596.2999999988824
xdelvHJb,32k26u12eq14p7ktnmss8y5zd9bdv8,3u0srxb7chin5wsjuy6nsqoi8panra,xdelvHJb,2020-0188,2021-10-14,13:03:20,14:34:11,NA,incomplete,false,NA,true,7,5,NA,NA,NA,right,present,NA,NA,n_l_096.jpg,brown,n_s_022.jpg,brown,within,NA,NaN,NA,right,7793.9000000003725,1,0,7257
xdelvHJb,32k26u12eq14p7ktnmss8y5zd9bdv8,3u0srxb7chin5wsjuy6nsqoi8panra,xdelvHJb,2020-0188,2021-10-14,13:03:20,14:34:11,NA,incomplete,false,NA,true,7,6,NA,NA,NA,right,present,NA,NA,m_l_079.jpg,black,n_s_044.jpg,black,within,NA,NaN,NA,right,3248.60000000149,1,0,1892.2999999988824
xdelvHJb,32k26u12eq14p7ktnmss8y5zd9bdv8,3u0srxb7chin5wsjuy6nsqoi8panra,xdelvHJb,2020-0188,2021-10-14,13:03:20,14:34:11,NA,incomplete,false,NA,true,7,7,NA,NA,NA,left,present,NA,NA,n_s_077.jpg,orange,n_s_094.jpg,orange,within,NA,NaN,NA,right,2693.4000000003725,0,1,2180.9000000003725
xdelvHJb,32k26u12eq14p7ktnmss8y5zd9bdv8,3u0srxb7chin5wsjuy6nsqoi8panra,xdelvHJb,2020-0188,2021-10-14,13:03:20,14:34:11,NA,incomplete,false,NA,true,7,8,NA,NA,NA,right,present,NA,NA,m_s_068.jpg,purple,n_l_107.jpg,purple,within,NA,NaN,NA,right,2543,1,1,2198.0999999996275
xdelvHJb,32k26u12eq14p7ktnmss8y5zd9bdv8,3u0srxb7chin5wsjuy6nsqoi8panra,xdelvHJb,2020-0188,2021-10-14,13:03:20,14:34:11,NA,incomplete,false,NA,true,7,9,NA,NA,NA,left,present,NA,NA,m_s_075.jpg,black,n_s_096.jpg,gray,between,NA,NaN,NA,left,8700.900000000373,1,2,2373
xdelvHJb,32k26u12eq14p7ktnmss8y5zd9bdv8,3u0srxb7chin5wsjuy6nsqoi8panra,xdelvHJb,2020-0188,2021-10-14,13:03:20,14:34:11,NA,incomplete,false,NA,true,7,10,NA,NA,NA,right,present,NA,NA,m_l_085.jpg,brown,m_l_046.jpg,yellow,between,NA,NaN,NA,right,2900,1,2,3002.699999999255
xdelvHJb,32k26u12eq14p7ktnmss8y5zd9bdv8,3u0srxb7chin5wsjuy6nsqoi8panra,xdelvHJb,2020-0188,2021-10-14,13:03:20,14:34:11,NA,incomplete,false,true,NA,8,0,NA,brown,m_l_096.jpg,NA,NA,unpleasant,pleasant,NA,NA,NA,NA,NA,left,1367.30000000075,true,NA,NA,NA,NA,NA
xdelvHJb,32k26u12eq14p7ktnmss8y5zd9bdv8,3u0srxb7chin5wsjuy6nsqoi8panra,xdelvHJb,2020-0188,2021-10-14,13:03:20,14:34:11,NA,incomplete,false,true,NA,8,1,NA,brown,m_s_079.jpg,NA,NA,pleasant,unpleasant,NA,NA,NA,NA,NA,left,1075.80000000075,true,NA,NA,NA,NA,NA
xdelvHJb,32k26u12eq14p7ktnmss8y5zd9bdv8,3u0srxb7chin5wsjuy6nsqoi8panra,xdelvHJb,2020-0188,2021-10-14,13:03:20,14:34:11,NA,incomplete,false,true,NA,8,2,NA,brown,n_l_110.jpg,NA,NA,unpleasant,pleasant,NA,NA,NA,NA,NA,right,992.799999998882,true,NA,NA,NA,NA,NA
xdelvHJb,32k26u12eq14p7ktnmss8y5zd9bdv8,3u0srxb7chin5wsjuy6nsqoi8panra,xdelvHJb,2020-0188,2021-10-14,13:03:20,14:34:11,NA,incomplete,false,true,NA,8,3,NA,brown,n_s_086.jpg,NA,NA,pleasant,unpleasant,NA,NA,NA,NA,NA,right,1151.20000000112,true,NA,NA,NA,NA,NA
xdelvHJb,32k26u12eq14p7ktnmss8y5zd9bdv8,3u0srxb7chin5wsjuy6nsqoi8panra,xdelvHJb,2020-0188,2021-10-14,13:03:20,14:34:11,NA,incomplete,false,true,NA,8,4,NA,brown,n_l_105.jpg,NA,NA,pleasant,unpleasant,NA,NA,NA,NA,NA,left,1288.20000000112,true,NA,NA,NA,NA,NA
xdelvHJb,32k26u12eq14p7ktnmss8y5zd9bdv8,3u0srxb7chin5wsjuy6nsqoi8panra,xdelvHJb,2020-0188,2021-10-14,13:03:20,14:34:11,NA,incomplete,false,true,NA,8,5,NA,brown,m_l_074.jpg,NA,NA,unpleasant,pleasant,NA,NA,NA,NA,NA,right,1200,true,NA,NA,NA,NA,NA
xdelvHJb,32k26u12eq14p7ktnmss8y5zd9bdv8,3u0srxb7chin5wsjuy6nsqoi8panra,xdelvHJb,2020-0188,2021-10-14,13:03:20,14:34:11,NA,incomplete,false,true,NA,8,6,NA,yellow,m_l_056.jpg,NA,NA,pleasant,unpleasant,NA,NA,NA,NA,NA,left,1160.40000000037,true,NA,NA,NA,NA,NA
xdelvHJb,32k26u12eq14p7ktnmss8y5zd9bdv8,3u0srxb7chin5wsjuy6nsqoi8panra,xdelvHJb,2020-0188,2021-10-14,13:03:20,14:34:11,NA,incomplete,false,true,NA,8,7,NA,yellow,m_s_022.jpg,NA,NA,pleasant,unpleasant,NA,NA,NA,NA,NA,right,1683.69999999925,true,NA,NA,NA,NA,NA
