workerId,hitId,assignmentId,subject,studyid,exp_date,exp_start,exp_end,time_start,time_end,practice,encoding,memory,block,trial,event_order,event,stim,answer,context_type,label_left,label_right,left_image,left_event,right_image,right_event,condition,response,response_time,response_acc,order_response,order_response_time,order_acc,distance_response,distance_response_time
XiEfazE0,3r0wocg22pm4csvtiwincc3gz22duj,3f6kkywmnfet4m9ecxb3n17etomnd7,XiEfazE0,2020-0188,2021-10-14,09:22:15,10:16:47,NA,incomplete,true,true,NA,0,0,NA,green,m_s_078.jpg,NA,NA,unpleasant,pleasant,NA,NA,NA,NA,NA,right,760.300000011921,true,NA,NA,NA,NA,NA
XiEfazE0,3r0wocg22pm4csvtiwincc3gz22duj,3f6kkywmnfet4m9ecxb3n17etomnd7,XiEfazE0,2020-0188,2021-10-14,09:22:15,10:16:47,NA,incomplete,true,true,NA,0,1,NA,green,n_l_040.jpg,NA,NA,unpleasant,pleasant,NA,NA,NA,NA,NA,right,971.599999964237,true,NA,NA,NA,NA,NA
XiEfazE0,3r0wocg22pm4csvtiwincc3gz22duj,3f6kkywmnfet4m9ecxb3n17etomnd7,XiEfazE0,2020-0188,2021-10-14,09:22:15,10:16:47,NA,incomplete,true,true,NA,0,2,NA,green,n_s_091.jpg,NA,NA,unpleasant,pleasant,NA,NA,NA,NA,NA,left,1254.59999996424,true,NA,NA,NA,NA,NA
XiEfazE0,3r0wocg22pm4csvtiwincc3gz22duj,3f6kkywmnfet4m9ecxb3n17etomnd7,XiEfazE0,2020-0188,2021-10-14,09:22:15,10:16:47,NA,incomplete,true,true,NA,0,3,NA,green,m_l_080.jpg,NA,NA,pleasant,unpleasant,NA,NA,NA,NA,NA,right,776.5,true,NA,NA,NA,NA,NA
XiEfazE0,3r0wocg22pm4csvtiwincc3gz22duj,3f6kkywmnfet4m9ecxb3n17etomnd7,XiEfazE0,2020-0188,2021-10-14,09:22:15,10:16:47,NA,incomplete,true,true,NA,0,4,NA,green,n_l_042.jpg,NA,NA,unpleasant,pleasant,NA,NA,NA,NA,NA,left,1131.5,true,NA,NA,NA,NA,NA
XiEfazE0,3r0wocg22pm4csvtiwincc3gz22duj,3f6kkywmnfet4m9ecxb3n17etomnd7,XiEfazE0,2020-0188,2021-10-14,09:22:15,10:16:47,NA,incomplete,true,true,NA,0,5,NA,green,n_s_045.jpg,NA,NA,pleasant,unpleasant,NA,NA,NA,NA,NA,right,935.300000011921,true,NA,NA,NA,NA,NA
XiEfazE0,3r0wocg22pm4csvtiwincc3gz22duj,3f6kkywmnfet4m9ecxb3n17etomnd7,XiEfazE0,2020-0188,2021-10-14,09:22:15,10:16:47,NA,incomplete,true,true,NA,0,6,NA,purple,m_l_017.jpg,NA,NA,pleasant,unpleasant,NA,NA,NA,NA,NA,left,1809.09999996424,true,NA,NA,NA,NA,NA
XiEfazE0,3r0wocg22pm4csvtiwincc3gz22duj,3f6kkywmnfet4m9ecxb3n17etomnd7,XiEfazE0,2020-0188,2021-10-14,09:22:15,10:16:47,NA,incomplete,true,true,NA,0,7,NA,purple,n_l_002.jpg,NA,NA,pleasant,unpleasant,NA,NA,NA,NA,NA,left,1052.30000001192,true,NA,NA,NA,NA,NA
XiEfazE0,3r0wocg22pm4csvtiwincc3gz22duj,3f6kkywmnfet4m9ecxb3n17etomnd7,XiEfazE0,2020-0188,2021-10-14,09:22:15,10:16:47,NA,incomplete,true,true,NA,0,8,NA,purple,m_l_093.jpg,NA,NA,unpleasant,pleasant,NA,NA,NA,NA,NA,right,1903.19999998808,true,NA,NA,NA,NA,NA
XiEfazE0,3r0wocg22pm4csvtiwincc3gz22duj,3f6kkywmnfet4m9ecxb3n17etomnd7,XiEfazE0,2020-0188,2021-10-14,09:22:15,10:16:47,NA,incomplete,true,true,NA,0,9,NA,purple,m_l_096.jpg,NA,NA,pleasant,unpleasant,NA,NA,NA,NA,NA,left,1105.29999995232,true,NA,NA,NA,NA,NA
XiEfazE0,3r0wocg22pm4csvtiwincc3gz22duj,3f6kkywmnfet4m9ecxb3n17etomnd7,XiEfazE0,2020-0188,2021-10-14,09:22:15,10:16:47,NA,incomplete,true,true,NA,0,10,NA,purple,n_s_090.jpg,NA,NA,unpleasant,pleasant,NA,NA,NA,NA,NA,right,1003.30000001192,true,NA,NA,NA,NA,NA
XiEfazE0,3r0wocg22pm4csvtiwincc3gz22duj,3f6kkywmnfet4m9ecxb3n17etomnd7,XiEfazE0,2020-0188,2021-10-14,09:22:15,10:16:47,NA,incomplete,true,true,NA,0,11,NA,purple,m_s_016.jpg,NA,NA,unpleasant,pleasant,NA,NA,NA,NA,NA,right,870.300000011921,true,NA,NA,NA,NA,NA
XiEfazE0,3r0wocg22pm4csvtiwincc3gz22duj,3f6kkywmnfet4m9ecxb3n17etomnd7,XiEfazE0,2020-0188,2021-10-14,09:22:15,10:16:47,NA,incomplete,true,true,NA,0,12,NA,blue,m_s_051.jpg,NA,NA,unpleasant,pleasant,NA,NA,NA,NA,NA,left,1744.30000001192,true,NA,NA,NA,NA,NA
XiEfazE0,3r0wocg22pm4csvtiwincc3gz22duj,3f6kkywmnfet4m9ecxb3n17etomnd7,XiEfazE0,2020-0188,2021-10-14,09:22:15,10:16:47,NA,incomplete,true,true,NA,0,13,NA,blue,m_l_047.jpg,NA,NA,pleasant,unpleasant,NA,NA,NA,NA,NA,left,1227.39999997616,true,NA,NA,NA,NA,NA
XiEfazE0,3r0wocg22pm4csvtiwincc3gz22duj,3f6kkywmnfet4m9ecxb3n17etomnd7,XiEfazE0,2020-0188,2021-10-14,09:22:15,10:16:47,NA,incomplete,true,true,NA,0,14,NA,blue,m_l_109.jpg,NA,NA,pleasant,unpleasant,NA,NA,NA,NA,NA,left,1214.80000001192,true,NA,NA,NA,NA,NA
XiEfazE0,3r0wocg22pm4csvtiwincc3gz22duj,3f6kkywmnfet4m9ecxb3n17etomnd7,XiEfazE0,2020-0188,2021-10-14,09:22:15,10:16:47,NA,incomplete,true,true,NA,0,15,NA,blue,n_l_061.jpg,NA,NA,pleasant,unpleasant,NA,NA,NA,NA,NA,right,985.5,true,NA,NA,NA,NA,NA
XiEfazE0,3r0wocg22pm4csvtiwincc3gz22duj,3f6kkywmnfet4m9ecxb3n17etomnd7,XiEfazE0,2020-0188,2021-10-14,09:22:15,10:16:47,NA,incomplete,true,true,NA,0,16,NA,blue,m_l_033.jpg,NA,NA,pleasant,unpleasant,NA,NA,NA,NA,NA,left,995.800000011921,true,NA,NA,NA,NA,NA
XiEfazE0,3r0wocg22pm4csvtiwincc3gz22duj,3f6kkywmnfet4m9ecxb3n17etomnd7,XiEfazE0,2020-0188,2021-10-14,09:22:15,10:16:47,NA,incomplete,true,true,NA,0,17,NA,blue,m_l_035.jpg,NA,NA,unpleasant,pleasant,NA,NA,NA,NA,NA,right,1135.40000003576,true,NA,NA,NA,NA,NA
XiEfazE0,3r0wocg22pm4csvtiwincc3gz22duj,3f6kkywmnfet4m9ecxb3n17etomnd7,XiEfazE0,2020-0188,2021-10-14,09:22:15,10:16:47,NA,incomplete,true,true,NA,0,18,NA,gray,m_s_095.jpg,NA,NA,pleasant,unpleasant,NA,NA,NA,NA,NA,left,1153.5,true,NA,NA,NA,NA,NA
XiEfazE0,3r0wocg22pm4csvtiwincc3gz22duj,3f6kkywmnfet4m9ecxb3n17etomnd7,XiEfazE0,2020-0188,2021-10-14,09:22:15,10:16:47,NA,incomplete,true,true,NA,0,19,NA,gray,m_s_082.jpg,NA,NA,pleasant,unpleasant,NA,NA,NA,NA,NA,left,1131.89999997616,true,NA,NA,NA,NA,NA
XiEfazE0,3r0wocg22pm4csvtiwincc3gz22duj,3f6kkywmnfet4m9ecxb3n17etomnd7,XiEfazE0,2020-0188,2021-10-14,09:22:15,10:16:47,NA,incomplete,true,true,NA,0,20,NA,gray,m_l_058.jpg,NA,NA,unpleasant,pleasant,NA,NA,NA,NA,NA,right,975.399999976158,true,NA,NA,NA,NA,NA
XiEfazE0,3r0wocg22pm4csvtiwincc3gz22duj,3f6kkywmnfet4m9ecxb3n17etomnd7,XiEfazE0,2020-0188,2021-10-14,09:22:15,10:16:47,NA,incomplete,true,true,NA,0,21,NA,gray,n_s_019.jpg,NA,NA,pleasant,unpleasant,NA,NA,NA,NA,NA,left,1145.90000003576,true,NA,NA,NA,NA,NA
XiEfazE0,3r0wocg22pm4csvtiwincc3gz22duj,3f6kkywmnfet4m9ecxb3n17etomnd7,XiEfazE0,2020-0188,2021-10-14,09:22:15,10:16:47,NA,incomplete,true,true,NA,0,22,NA,gray,n_l_005.jpg,NA,NA,unpleasant,pleasant,NA,NA,NA,NA,NA,left,1404.80000001192,true,NA,NA,NA,NA,NA
XiEfazE0,3r0wocg22pm4csvtiwincc3gz22duj,3f6kkywmnfet4m9ecxb3n17etomnd7,XiEfazE0,2020-0188,2021-10-14,09:22:15,10:16:47,NA,incomplete,true,true,NA,0,23,NA,gray,m_l_064.jpg,NA,NA,pleasant,unpleasant,NA,NA,NA,NA,NA,left,831.900000035763,true,NA,NA,NA,NA,NA
XiEfazE0,3r0wocg22pm4csvtiwincc3gz22duj,3f6kkywmnfet4m9ecxb3n17etomnd7,XiEfazE0,2020-0188,2021-10-14,09:22:15,10:16:47,NA,incomplete,true,true,NA,0,24,NA,yellow,n_s_029.jpg,NA,NA,unpleasant,pleasant,NA,NA,NA,NA,NA,right,1010.5,true,NA,NA,NA,NA,NA
XiEfazE0,3r0wocg22pm4csvtiwincc3gz22duj,3f6kkywmnfet4m9ecxb3n17etomnd7,XiEfazE0,2020-0188,2021-10-14,09:22:15,10:16:47,NA,incomplete,true,true,NA,0,25,NA,yellow,n_l_025.jpg,NA,NA,pleasant,unpleasant,NA,NA,NA,NA,NA,left,1093.60000002384,true,NA,NA,NA,NA,NA
XiEfazE0,3r0wocg22pm4csvtiwincc3gz22duj,3f6kkywmnfet4m9ecxb3n17etomnd7,XiEfazE0,2020-0188,2021-10-14,09:22:15,10:16:47,NA,incomplete,true,true,NA,0,26,NA,yellow,m_s_003.jpg,NA,NA,pleasant,unpleasant,NA,NA,NA,NA,NA,right,1177.10000002384,true,NA,NA,NA,NA,NA
XiEfazE0,3r0wocg22pm4csvtiwincc3gz22duj,3f6kkywmnfet4m9ecxb3n17etomnd7,XiEfazE0,2020-0188,2021-10-14,09:22:15,10:16:47,NA,incomplete,true,true,NA,0,27,NA,yellow,n_s_072.jpg,NA,NA,pleasant,unpleasant,NA,NA,NA,NA,NA,left,1195.80000001192,true,NA,NA,NA,NA,NA
XiEfazE0,3r0wocg22pm4csvtiwincc3gz22duj,3f6kkywmnfet4m9ecxb3n17etomnd7,XiEfazE0,2020-0188,2021-10-14,09:22:15,10:16:47,NA,incomplete,true,true,NA,0,28,NA,yellow,n_s_103.jpg,NA,NA,unpleasant,pleasant,NA,NA,NA,NA,NA,right,942.800000011921,true,NA,NA,NA,NA,NA
XiEfazE0,3r0wocg22pm4csvtiwincc3gz22duj,3f6kkywmnfet4m9ecxb3n17etomnd7,XiEfazE0,2020-0188,2021-10-14,09:22:15,10:16:47,NA,incomplete,true,true,NA,0,29,NA,yellow,m_l_024.jpg,NA,NA,unpleasant,pleasant,NA,NA,NA,NA,NA,right,1170.40000003576,true,NA,NA,NA,NA,NA
XiEfazE0,3r0wocg22pm4csvtiwincc3gz22duj,3f6kkywmnfet4m9ecxb3n17etomnd7,XiEfazE0,2020-0188,2021-10-14,09:22:15,10:16:47,NA,incomplete,true,true,NA,0,30,NA,black,n_s_063.jpg,NA,NA,pleasant,unpleasant,NA,NA,NA,NA,NA,left,1124.39999997616,true,NA,NA,NA,NA,NA
XiEfazE0,3r0wocg22pm4csvtiwincc3gz22duj,3f6kkywmnfet4m9ecxb3n17etomnd7,XiEfazE0,2020-0188,2021-10-14,09:22:15,10:16:47,NA,incomplete,true,true,NA,0,31,NA,black,n_s_080.jpg,NA,NA,unpleasant,pleasant,NA,NA,NA,NA,NA,right,895.300000011921,true,NA,NA,NA,NA,NA
XiEfazE0,3r0wocg22pm4csvtiwincc3gz22duj,3f6kkywmnfet4m9ecxb3n17etomnd7,XiEfazE0,2020-0188,2021-10-14,09:22:15,10:16:47,NA,incomplete,true,true,NA,0,32,NA,black,n_s_042.jpg,NA,NA,unpleasant,pleasant,NA,NA,NA,NA,NA,right,1098.90000003576,true,NA,NA,NA,NA,NA
XiEfazE0,3r0wocg22pm4csvtiwincc3gz22duj,3f6kkywmnfet4m9ecxb3n17etomnd7,XiEfazE0,2020-0188,2021-10-14,09:22:15,10:16:47,NA,incomplete,true,true,NA,0,33,NA,black,n_s_062.jpg,NA,NA,unpleasant,pleasant,NA,NA,NA,NA,NA,right,941.399999976158,true,NA,NA,NA,NA,NA
XiEfazE0,3r0wocg22pm4csvtiwincc3gz22duj,3f6kkywmnfet4m9ecxb3n17etomnd7,XiEfazE0,2020-0188,2021-10-14,09:22:15,10:16:47,NA,incomplete,true,true,NA,0,34,NA,black,n_l_082.jpg,NA,NA,unpleasant,pleasant,NA,NA,NA,NA,NA,right,920.800000011921,true,NA,NA,NA,NA,NA
XiEfazE0,3r0wocg22pm4csvtiwincc3gz22duj,3f6kkywmnfet4m9ecxb3n17etomnd7,XiEfazE0,2020-0188,2021-10-14,09:22:15,10:16:47,NA,incomplete,true,true,NA,0,35,NA,black,n_l_110.jpg,NA,NA,unpleasant,pleasant,NA,NA,NA,NA,NA,right,779.399999976158,true,NA,NA,NA,NA,NA
XiEfazE0,3r0wocg22pm4csvtiwincc3gz22duj,3f6kkywmnfet4m9ecxb3n17etomnd7,XiEfazE0,2020-0188,2021-10-14,09:22:15,10:16:47,NA,incomplete,true,NA,true,0,0,NA,NA,NA,left,present,NA,NA,n_s_090.jpg,purple,m_l_109.jpg,blue,between,NA,NaN,NA,right,3306.699999988079,0,1,3488.599999964237
XiEfazE0,3r0wocg22pm4csvtiwincc3gz22duj,3f6kkywmnfet4m9ecxb3n17etomnd7,XiEfazE0,2020-0188,2021-10-14,09:22:15,10:16:47,NA,incomplete,true,NA,true,0,1,NA,NA,NA,left,present,NA,NA,n_s_103.jpg,yellow,n_s_042.jpg,black,between,NA,NaN,NA,left,3665.2000000476837,1,3,942.3000000119209
XiEfazE0,3r0wocg22pm4csvtiwincc3gz22duj,3f6kkywmnfet4m9ecxb3n17etomnd7,XiEfazE0,2020-0188,2021-10-14,09:22:15,10:16:47,NA,incomplete,true,NA,true,0,2,NA,NA,NA,left,present,NA,NA,m_s_082.jpg,gray,m_l_064.jpg,gray,within,NA,NaN,NA,left,2683.300000011921,1,1,1376.800000011921
XiEfazE0,3r0wocg22pm4csvtiwincc3gz22duj,3f6kkywmnfet4m9ecxb3n17etomnd7,XiEfazE0,2020-0188,2021-10-14,09:22:15,10:16:47,NA,incomplete,true,NA,true,0,3,NA,NA,NA,right,absent,NA,NA,n_l_110.jpg,black,n_s_080.jpg,black,within,NA,NaN,NA,right,2164.5,1,3,831.4000000357628
XiEfazE0,3r0wocg22pm4csvtiwincc3gz22duj,3f6kkywmnfet4m9ecxb3n17etomnd7,XiEfazE0,2020-0188,2021-10-14,09:22:15,10:16:47,NA,incomplete,true,NA,true,0,4,NA,NA,NA,left,present,NA,NA,n_l_042.jpg,green,m_l_093.jpg,purple,between,NA,NaN,NA,right,1379.2999999523163,0,3,1083.1000000238419
XiEfazE0,3r0wocg22pm4csvtiwincc3gz22duj,3f6kkywmnfet4m9ecxb3n17etomnd7,XiEfazE0,2020-0188,2021-10-14,09:22:15,10:16:47,NA,incomplete,true,NA,true,0,5,NA,NA,NA,left,present,NA,NA,n_l_002.jpg,purple,m_s_016.jpg,purple,within,NA,NaN,NA,right,1554.2000000476837,0,1,955.5
XiEfazE0,3r0wocg22pm4csvtiwincc3gz22duj,3f6kkywmnfet4m9ecxb3n17etomnd7,XiEfazE0,2020-0188,2021-10-14,09:22:15,10:16:47,NA,incomplete,true,NA,true,0,6,NA,NA,NA,left,absent,NA,NA,n_l_040.jpg,green,n_s_045.jpg,green,within,NA,NaN,NA,left,3080.099999964237,1,1,1155.5999999642372
XiEfazE0,3r0wocg22pm4csvtiwincc3gz22duj,3f6kkywmnfet4m9ecxb3n17etomnd7,XiEfazE0,2020-0188,2021-10-14,09:22:15,10:16:47,NA,incomplete,true,NA,true,0,7,NA,NA,NA,right,present,NA,NA,m_l_035.jpg,blue,m_l_047.jpg,blue,within,NA,NaN,NA,left,3144.400000035763,0,1,2095.399999976158
XiEfazE0,3r0wocg22pm4csvtiwincc3gz22duj,3f6kkywmnfet4m9ecxb3n17etomnd7,XiEfazE0,2020-0188,2021-10-14,09:22:15,10:16:47,NA,incomplete,true,NA,true,0,8,NA,NA,NA,left,present,NA,NA,n_l_025.jpg,yellow,m_l_024.jpg,yellow,within,NA,NaN,NA,left,2134.399999976158,1,1,984.4000000357628
XiEfazE0,3r0wocg22pm4csvtiwincc3gz22duj,3f6kkywmnfet4m9ecxb3n17etomnd7,XiEfazE0,2020-0188,2021-10-14,09:22:15,10:16:47,NA,incomplete,true,NA,true,0,9,NA,NA,NA,right,absent,NA,NA,m_l_058.jpg,gray,m_l_033.jpg,blue,between,NA,NaN,NA,right,1481.0999999642372,1,3,968.3000000119209
XiEfazE0,3r0wocg22pm4csvtiwincc3gz22duj,3f6kkywmnfet4m9ecxb3n17etomnd7,XiEfazE0,2020-0188,2021-10-14,09:22:15,10:16:47,NA,incomplete,true,NA,true,0,10,NA,NA,NA,right,absent,NA,NA,m_s_003.jpg,yellow,n_l_005.jpg,gray,between,NA,NaN,NA,left,1893.2999999523163,0,1,888.5
XiEfazE0,3r0wocg22pm4csvtiwincc3gz22duj,3f6kkywmnfet4m9ecxb3n17etomnd7,XiEfazE0,2020-0188,2021-10-14,09:22:15,10:16:47,NA,incomplete,false,true,NA,1,0,NA,white,m_l_098.jpg,NA,NA,unpleasant,pleasant,NA,NA,NA,NA,NA,right,830.600000023842,true,NA,NA,NA,NA,NA
XiEfazE0,3r0wocg22pm4csvtiwincc3gz22duj,3f6kkywmnfet4m9ecxb3n17etomnd7,XiEfazE0,2020-0188,2021-10-14,09:22:15,10:16:47,NA,incomplete,false,true,NA,1,1,NA,white,m_l_087.jpg,NA,NA,unpleasant,pleasant,NA,NA,NA,NA,NA,right,817.400000035763,true,NA,NA,NA,NA,NA
XiEfazE0,3r0wocg22pm4csvtiwincc3gz22duj,3f6kkywmnfet4m9ecxb3n17etomnd7,XiEfazE0,2020-0188,2021-10-14,09:22:15,10:16:47,NA,incomplete,false,true,NA,1,2,NA,white,m_l_049.jpg,NA,NA,pleasant,unpleasant,NA,NA,NA,NA,NA,left,1348.5,true,NA,NA,NA,NA,NA
XiEfazE0,3r0wocg22pm4csvtiwincc3gz22duj,3f6kkywmnfet4m9ecxb3n17etomnd7,XiEfazE0,2020-0188,2021-10-14,09:22:15,10:16:47,NA,incomplete,false,true,NA,1,3,NA,white,m_s_021.jpg,NA,NA,unpleasant,pleasant,NA,NA,NA,NA,NA,right,886.800000011921,true,NA,NA,NA,NA,NA
XiEfazE0,3r0wocg22pm4csvtiwincc3gz22duj,3f6kkywmnfet4m9ecxb3n17etomnd7,XiEfazE0,2020-0188,2021-10-14,09:22:15,10:16:47,NA,incomplete,false,true,NA,1,4,NA,white,n_l_093.jpg,NA,NA,pleasant,unpleasant,NA,NA,NA,NA,NA,right,1017.19999998808,true,NA,NA,NA,NA,NA
XiEfazE0,3r0wocg22pm4csvtiwincc3gz22duj,3f6kkywmnfet4m9ecxb3n17etomnd7,XiEfazE0,2020-0188,2021-10-14,09:22:15,10:16:47,NA,incomplete,false,true,NA,1,5,NA,white,n_l_032.jpg,NA,NA,unpleasant,pleasant,NA,NA,NA,NA,NA,right,868.199999988079,true,NA,NA,NA,NA,NA
XiEfazE0,3r0wocg22pm4csvtiwincc3gz22duj,3f6kkywmnfet4m9ecxb3n17etomnd7,XiEfazE0,2020-0188,2021-10-14,09:22:15,10:16:47,NA,incomplete,false,true,NA,1,6,NA,blue,m_l_082.jpg,NA,NA,pleasant,unpleasant,NA,NA,NA,NA,NA,left,798,true,NA,NA,NA,NA,NA
XiEfazE0,3r0wocg22pm4csvtiwincc3gz22duj,3f6kkywmnfet4m9ecxb3n17etomnd7,XiEfazE0,2020-0188,2021-10-14,09:22:15,10:16:47,NA,incomplete,false,true,NA,1,7,NA,blue,n_l_014.jpg,NA,NA,unpleasant,pleasant,NA,NA,NA,NA,NA,right,633.099999964237,true,NA,NA,NA,NA,NA
XiEfazE0,3r0wocg22pm4csvtiwincc3gz22duj,3f6kkywmnfet4m9ecxb3n17etomnd7,XiEfazE0,2020-0188,2021-10-14,09:22:15,10:16:47,NA,incomplete,false,true,NA,1,8,NA,blue,n_l_026.jpg,NA,NA,unpleasant,pleasant,NA,NA,NA,NA,NA,right,772.699999988079,true,NA,NA,NA,NA,NA
XiEfazE0,3r0wocg22pm4csvtiwincc3gz22duj,3f6kkywmnfet4m9ecxb3n17etomnd7,XiEfazE0,2020-0188,2021-10-14,09:22:15,10:16:47,NA,incomplete,false,true,NA,1,9,NA,blue,m_l_107.jpg,NA,NA,pleasant,unpleasant,NA,NA,NA,NA,NA,left,806.699999988079,true,NA,NA,NA,NA,NA
XiEfazE0,3r0wocg22pm4csvtiwincc3gz22duj,3f6kkywmnfet4m9ecxb3n17etomnd7,XiEfazE0,2020-0188,2021-10-14,09:22:15,10:16:47,NA,incomplete,false,true,NA,1,10,NA,blue,m_s_080.jpg,NA,NA,pleasant,unpleasant,NA,NA,NA,NA,NA,left,753.100000023842,true,NA,NA,NA,NA,NA
XiEfazE0,3r0wocg22pm4csvtiwincc3gz22duj,3f6kkywmnfet4m9ecxb3n17etomnd7,XiEfazE0,2020-0188,2021-10-14,09:22:15,10:16:47,NA,incomplete,false,true,NA,1,11,NA,blue,m_l_015.jpg,NA,NA,unpleasant,pleasant,NA,NA,NA,NA,NA,right,723.899999976158,true,NA,NA,NA,NA,NA
XiEfazE0,3r0wocg22pm4csvtiwincc3gz22duj,3f6kkywmnfet4m9ecxb3n17etomnd7,XiEfazE0,2020-0188,2021-10-14,09:22:15,10:16:47,NA,incomplete,false,true,NA,1,12,NA,gray,n_s_083.jpg,NA,NA,pleasant,unpleasant,NA,NA,NA,NA,NA,left,694,true,NA,NA,NA,NA,NA
XiEfazE0,3r0wocg22pm4csvtiwincc3gz22duj,3f6kkywmnfet4m9ecxb3n17etomnd7,XiEfazE0,2020-0188,2021-10-14,09:22:15,10:16:47,NA,incomplete,false,true,NA,1,13,NA,gray,n_s_006.jpg,NA,NA,unpleasant,pleasant,NA,NA,NA,NA,NA,right,929.199999988079,true,NA,NA,NA,NA,NA
XiEfazE0,3r0wocg22pm4csvtiwincc3gz22duj,3f6kkywmnfet4m9ecxb3n17etomnd7,XiEfazE0,2020-0188,2021-10-14,09:22:15,10:16:47,NA,incomplete,false,true,NA,1,14,NA,gray,m_s_007.jpg,NA,NA,pleasant,unpleasant,NA,NA,NA,NA,NA,left,844.399999976158,true,NA,NA,NA,NA,NA
XiEfazE0,3r0wocg22pm4csvtiwincc3gz22duj,3f6kkywmnfet4m9ecxb3n17etomnd7,XiEfazE0,2020-0188,2021-10-14,09:22:15,10:16:47,NA,incomplete,false,true,NA,1,15,NA,gray,n_s_010.jpg,NA,NA,unpleasant,pleasant,NA,NA,NA,NA,NA,right,830.899999976158,true,NA,NA,NA,NA,NA
XiEfazE0,3r0wocg22pm4csvtiwincc3gz22duj,3f6kkywmnfet4m9ecxb3n17etomnd7,XiEfazE0,2020-0188,2021-10-14,09:22:15,10:16:47,NA,incomplete,false,true,NA,1,16,NA,gray,n_s_030.jpg,NA,NA,unpleasant,pleasant,NA,NA,NA,NA,NA,right,906.100000023842,true,NA,NA,NA,NA,NA
XiEfazE0,3r0wocg22pm4csvtiwincc3gz22duj,3f6kkywmnfet4m9ecxb3n17etomnd7,XiEfazE0,2020-0188,2021-10-14,09:22:15,10:16:47,NA,incomplete,false,true,NA,1,17,NA,gray,m_s_104.jpg,NA,NA,unpleasant,pleasant,NA,NA,NA,NA,NA,right,933.299999952316,true,NA,NA,NA,NA,NA
XiEfazE0,3r0wocg22pm4csvtiwincc3gz22duj,3f6kkywmnfet4m9ecxb3n17etomnd7,XiEfazE0,2020-0188,2021-10-14,09:22:15,10:16:47,NA,incomplete,false,true,NA,1,18,NA,brown,m_l_042.jpg,NA,NA,pleasant,unpleasant,NA,NA,NA,NA,NA,left,671.699999988079,true,NA,NA,NA,NA,NA
XiEfazE0,3r0wocg22pm4csvtiwincc3gz22duj,3f6kkywmnfet4m9ecxb3n17etomnd7,XiEfazE0,2020-0188,2021-10-14,09:22:15,10:16:47,NA,incomplete,false,true,NA,1,19,NA,brown,n_l_009.jpg,NA,NA,unpleasant,pleasant,NA,NA,NA,NA,NA,right,833.900000035763,true,NA,NA,NA,NA,NA
XiEfazE0,3r0wocg22pm4csvtiwincc3gz22duj,3f6kkywmnfet4m9ecxb3n17etomnd7,XiEfazE0,2020-0188,2021-10-14,09:22:15,10:16:47,NA,incomplete,false,true,NA,1,20,NA,brown,n_l_037.jpg,NA,NA,unpleasant,pleasant,NA,NA,NA,NA,NA,left,1069.09999996424,true,NA,NA,NA,NA,NA
XiEfazE0,3r0wocg22pm4csvtiwincc3gz22duj,3f6kkywmnfet4m9ecxb3n17etomnd7,XiEfazE0,2020-0188,2021-10-14,09:22:15,10:16:47,NA,incomplete,false,true,NA,1,21,NA,brown,n_s_043.jpg,NA,NA,unpleasant,pleasant,NA,NA,NA,NA,NA,right,886.899999976158,true,NA,NA,NA,NA,NA
XiEfazE0,3r0wocg22pm4csvtiwincc3gz22duj,3f6kkywmnfet4m9ecxb3n17etomnd7,XiEfazE0,2020-0188,2021-10-14,09:22:15,10:16:47,NA,incomplete,false,true,NA,1,22,NA,brown,n_s_074.jpg,NA,NA,unpleasant,pleasant,NA,NA,NA,NA,NA,right,1065.20000004768,true,NA,NA,NA,NA,NA
XiEfazE0,3r0wocg22pm4csvtiwincc3gz22duj,3f6kkywmnfet4m9ecxb3n17etomnd7,XiEfazE0,2020-0188,2021-10-14,09:22:15,10:16:47,NA,incomplete,false,true,NA,1,23,NA,brown,n_s_066.jpg,NA,NA,unpleasant,pleasant,NA,NA,NA,NA,NA,right,868.899999976158,true,NA,NA,NA,NA,NA
XiEfazE0,3r0wocg22pm4csvtiwincc3gz22duj,3f6kkywmnfet4m9ecxb3n17etomnd7,XiEfazE0,2020-0188,2021-10-14,09:22:15,10:16:47,NA,incomplete,false,true,NA,1,24,NA,red,n_s_105.jpg,NA,NA,unpleasant,pleasant,NA,NA,NA,NA,NA,right,822.700000047684,true,NA,NA,NA,NA,NA
XiEfazE0,3r0wocg22pm4csvtiwincc3gz22duj,3f6kkywmnfet4m9ecxb3n17etomnd7,XiEfazE0,2020-0188,2021-10-14,09:22:15,10:16:47,NA,incomplete,false,true,NA,1,25,NA,red,m_s_076.jpg,NA,NA,unpleasant,pleasant,NA,NA,NA,NA,NA,right,825.100000023842,true,NA,NA,NA,NA,NA
XiEfazE0,3r0wocg22pm4csvtiwincc3gz22duj,3f6kkywmnfet4m9ecxb3n17etomnd7,XiEfazE0,2020-0188,2021-10-14,09:22:15,10:16:47,NA,incomplete,false,true,NA,1,26,NA,red,n_s_020.jpg,NA,NA,pleasant,unpleasant,NA,NA,NA,NA,NA,left,1324.80000001192,true,NA,NA,NA,NA,NA
XiEfazE0,3r0wocg22pm4csvtiwincc3gz22duj,3f6kkywmnfet4m9ecxb3n17etomnd7,XiEfazE0,2020-0188,2021-10-14,09:22:15,10:16:47,NA,incomplete,false,true,NA,1,27,NA,red,n_l_020.jpg,NA,NA,unpleasant,pleasant,NA,NA,NA,NA,NA,left,831.199999988079,true,NA,NA,NA,NA,NA
XiEfazE0,3r0wocg22pm4csvtiwincc3gz22duj,3f6kkywmnfet4m9ecxb3n17etomnd7,XiEfazE0,2020-0188,2021-10-14,09:22:15,10:16:47,NA,incomplete,false,true,NA,1,28,NA,red,m_s_038.jpg,NA,NA,pleasant,unpleasant,NA,NA,NA,NA,NA,left,1314.5,true,NA,NA,NA,NA,NA
XiEfazE0,3r0wocg22pm4csvtiwincc3gz22duj,3f6kkywmnfet4m9ecxb3n17etomnd7,XiEfazE0,2020-0188,2021-10-14,09:22:15,10:16:47,NA,incomplete,false,true,NA,1,29,NA,red,m_s_018.jpg,NA,NA,unpleasant,pleasant,NA,NA,NA,NA,NA,right,605.899999976158,true,NA,NA,NA,NA,NA
XiEfazE0,3r0wocg22pm4csvtiwincc3gz22duj,3f6kkywmnfet4m9ecxb3n17etomnd7,XiEfazE0,2020-0188,2021-10-14,09:22:15,10:16:47,NA,incomplete,false,true,NA,1,30,NA,black,m_s_111.jpg,NA,NA,unpleasant,pleasant,NA,NA,NA,NA,NA,right,671.800000011921,true,NA,NA,NA,NA,NA
XiEfazE0,3r0wocg22pm4csvtiwincc3gz22duj,3f6kkywmnfet4m9ecxb3n17etomnd7,XiEfazE0,2020-0188,2021-10-14,09:22:15,10:16:47,NA,incomplete,false,true,NA,1,31,NA,black,m_s_115.jpg,NA,NA,pleasant,unpleasant,NA,NA,NA,NA,NA,left,1154.39999997616,true,NA,NA,NA,NA,NA
XiEfazE0,3r0wocg22pm4csvtiwincc3gz22duj,3f6kkywmnfet4m9ecxb3n17etomnd7,XiEfazE0,2020-0188,2021-10-14,09:22:15,10:16:47,NA,incomplete,false,true,NA,1,32,NA,black,n_s_047.jpg,NA,NA,unpleasant,pleasant,NA,NA,NA,NA,NA,right,681.600000023842,true,NA,NA,NA,NA,NA
XiEfazE0,3r0wocg22pm4csvtiwincc3gz22duj,3f6kkywmnfet4m9ecxb3n17etomnd7,XiEfazE0,2020-0188,2021-10-14,09:22:15,10:16:47,NA,incomplete,false,true,NA,1,33,NA,black,n_s_050.jpg,NA,NA,pleasant,unpleasant,NA,NA,NA,NA,NA,left,1039.80000001192,true,NA,NA,NA,NA,NA
XiEfazE0,3r0wocg22pm4csvtiwincc3gz22duj,3f6kkywmnfet4m9ecxb3n17etomnd7,XiEfazE0,2020-0188,2021-10-14,09:22:15,10:16:47,NA,incomplete,false,true,NA,1,34,NA,black,m_l_075.jpg,NA,NA,unpleasant,pleasant,NA,NA,NA,NA,NA,right,834.200000047684,true,NA,NA,NA,NA,NA
XiEfazE0,3r0wocg22pm4csvtiwincc3gz22duj,3f6kkywmnfet4m9ecxb3n17etomnd7,XiEfazE0,2020-0188,2021-10-14,09:22:15,10:16:47,NA,incomplete,false,true,NA,1,35,NA,black,m_s_009.jpg,NA,NA,pleasant,unpleasant,NA,NA,NA,NA,NA,left,1005.20000004768,true,NA,NA,NA,NA,NA
XiEfazE0,3r0wocg22pm4csvtiwincc3gz22duj,3f6kkywmnfet4m9ecxb3n17etomnd7,XiEfazE0,2020-0188,2021-10-14,09:22:15,10:16:47,NA,incomplete,false,NA,true,1,0,NA,NA,NA,right,absent,NA,NA,n_s_047.jpg,black,m_s_038.jpg,red,between,NA,NaN,NA,left,3512.7000000476837,0,1,1181
XiEfazE0,3r0wocg22pm4csvtiwincc3gz22duj,3f6kkywmnfet4m9ecxb3n17etomnd7,XiEfazE0,2020-0188,2021-10-14,09:22:15,10:16:47,NA,incomplete,false,NA,true,1,1,NA,NA,NA,left,absent,NA,NA,n_l_009.jpg,brown,n_s_066.jpg,brown,within,NA,NaN,NA,right,1773.4000000357628,0,2,1155.5
XiEfazE0,3r0wocg22pm4csvtiwincc3gz22duj,3f6kkywmnfet4m9ecxb3n17etomnd7,XiEfazE0,2020-0188,2021-10-14,09:22:15,10:16:47,NA,incomplete,false,NA,true,1,2,NA,NA,NA,right,absent,NA,NA,m_s_009.jpg,black,m_s_115.jpg,black,within,NA,NaN,NA,right,1389.300000011921,1,1,1122.199999988079
XiEfazE0,3r0wocg22pm4csvtiwincc3gz22duj,3f6kkywmnfet4m9ecxb3n17etomnd7,XiEfazE0,2020-0188,2021-10-14,09:22:15,10:16:47,NA,incomplete,false,NA,true,1,3,NA,NA,NA,left,absent,NA,NA,n_s_074.jpg,brown,n_s_020.jpg,red,between,NA,NaN,NA,right,1606.300000011921,0,0,1155.5999999642372
XiEfazE0,3r0wocg22pm4csvtiwincc3gz22duj,3f6kkywmnfet4m9ecxb3n17etomnd7,XiEfazE0,2020-0188,2021-10-14,09:22:15,10:16:47,NA,incomplete,false,NA,true,1,4,NA,NA,NA,right,absent,NA,NA,n_l_037.jpg,brown,n_s_030.jpg,gray,between,NA,NaN,NA,right,1329.1000000238419,1,1,926.5
XiEfazE0,3r0wocg22pm4csvtiwincc3gz22duj,3f6kkywmnfet4m9ecxb3n17etomnd7,XiEfazE0,2020-0188,2021-10-14,09:22:15,10:16:47,NA,incomplete,false,NA,true,1,5,NA,NA,NA,right,absent,NA,NA,n_l_026.jpg,blue,n_l_093.jpg,white,between,NA,NaN,NA,right,1520.199999988079,1,2,1007.5
XiEfazE0,3r0wocg22pm4csvtiwincc3gz22duj,3f6kkywmnfet4m9ecxb3n17etomnd7,XiEfazE0,2020-0188,2021-10-14,09:22:15,10:16:47,NA,incomplete,false,NA,true,1,6,NA,NA,NA,left,absent,NA,NA,m_s_080.jpg,blue,m_s_007.jpg,gray,between,NA,NaN,NA,left,1384.300000011921,1,1,1194.5
XiEfazE0,3r0wocg22pm4csvtiwincc3gz22duj,3f6kkywmnfet4m9ecxb3n17etomnd7,XiEfazE0,2020-0188,2021-10-14,09:22:15,10:16:47,NA,incomplete,false,NA,true,1,7,NA,NA,NA,left,absent,NA,NA,m_s_076.jpg,red,m_s_018.jpg,red,within,NA,NaN,NA,right,1416.199999988079,0,1,1447.300000011921
XiEfazE0,3r0wocg22pm4csvtiwincc3gz22duj,3f6kkywmnfet4m9ecxb3n17etomnd7,XiEfazE0,2020-0188,2021-10-14,09:22:15,10:16:47,NA,incomplete,false,NA,true,1,8,NA,NA,NA,right,absent,NA,NA,n_l_032.jpg,white,m_l_087.jpg,white,within,NA,NaN,NA,right,1426.5,1,1,1103.5
XiEfazE0,3r0wocg22pm4csvtiwincc3gz22duj,3f6kkywmnfet4m9ecxb3n17etomnd7,XiEfazE0,2020-0188,2021-10-14,09:22:15,10:16:47,NA,incomplete,false,NA,true,1,9,NA,NA,NA,left,absent,NA,NA,n_l_014.jpg,blue,m_l_015.jpg,blue,within,NA,NaN,NA,right,1179.5,0,2,1808.300000011921
XiEfazE0,3r0wocg22pm4csvtiwincc3gz22duj,3f6kkywmnfet4m9ecxb3n17etomnd7,XiEfazE0,2020-0188,2021-10-14,09:22:15,10:16:47,NA,incomplete,false,NA,true,1,10,NA,NA,NA,right,absent,NA,NA,m_s_104.jpg,gray,n_s_006.jpg,gray,within,NA,NaN,NA,right,1335.3999999761581,1,1,1390.5
XiEfazE0,3r0wocg22pm4csvtiwincc3gz22duj,3f6kkywmnfet4m9ecxb3n17etomnd7,XiEfazE0,2020-0188,2021-10-14,09:22:15,10:16:47,NA,incomplete,false,true,NA,2,0,NA,blue,m_l_072.jpg,NA,NA,pleasant,unpleasant,NA,NA,NA,NA,NA,left,1077.89999997616,true,NA,NA,NA,NA,NA
XiEfazE0,3r0wocg22pm4csvtiwincc3gz22duj,3f6kkywmnfet4m9ecxb3n17etomnd7,XiEfazE0,2020-0188,2021-10-14,09:22:15,10:16:47,NA,incomplete,false,true,NA,2,1,NA,blue,m_l_054.jpg,NA,NA,unpleasant,pleasant,NA,NA,NA,NA,NA,right,632.699999988079,true,NA,NA,NA,NA,NA
XiEfazE0,3r0wocg22pm4csvtiwincc3gz22duj,3f6kkywmnfet4m9ecxb3n17etomnd7,XiEfazE0,2020-0188,2021-10-14,09:22:15,10:16:47,NA,incomplete,false,true,NA,2,2,NA,blue,n_s_057.jpg,NA,NA,pleasant,unpleasant,NA,NA,NA,NA,NA,left,971.899999976158,true,NA,NA,NA,NA,NA
XiEfazE0,3r0wocg22pm4csvtiwincc3gz22duj,3f6kkywmnfet4m9ecxb3n17etomnd7,XiEfazE0,2020-0188,2021-10-14,09:22:15,10:16:47,NA,incomplete,false,true,NA,2,3,NA,blue,n_s_015.jpg,NA,NA,pleasant,unpleasant,NA,NA,NA,NA,NA,left,886.699999988079,true,NA,NA,NA,NA,NA
XiEfazE0,3r0wocg22pm4csvtiwincc3gz22duj,3f6kkywmnfet4m9ecxb3n17etomnd7,XiEfazE0,2020-0188,2021-10-14,09:22:15,10:16:47,NA,incomplete,false,true,NA,2,4,NA,blue,n_l_010.jpg,NA,NA,pleasant,unpleasant,NA,NA,NA,NA,NA,left,1024.69999998808,true,NA,NA,NA,NA,NA
XiEfazE0,3r0wocg22pm4csvtiwincc3gz22duj,3f6kkywmnfet4m9ecxb3n17etomnd7,XiEfazE0,2020-0188,2021-10-14,09:22:15,10:16:47,NA,incomplete,false,true,NA,2,5,NA,blue,m_l_009.jpg,NA,NA,unpleasant,pleasant,NA,NA,NA,NA,NA,left,939.800000011921,true,NA,NA,NA,NA,NA
XiEfazE0,3r0wocg22pm4csvtiwincc3gz22duj,3f6kkywmnfet4m9ecxb3n17etomnd7,XiEfazE0,2020-0188,2021-10-14,09:22:15,10:16:47,NA,incomplete,false,true,NA,2,6,NA,red,m_l_037.jpg,NA,NA,pleasant,unpleasant,NA,NA,NA,NA,NA,left,990.699999988079,true,NA,NA,NA,NA,NA
XiEfazE0,3r0wocg22pm4csvtiwincc3gz22duj,3f6kkywmnfet4m9ecxb3n17etomnd7,XiEfazE0,2020-0188,2021-10-14,09:22:15,10:16:47,NA,incomplete,false,true,NA,2,7,NA,red,n_s_046.jpg,NA,NA,pleasant,unpleasant,NA,NA,NA,NA,NA,right,784.5,true,NA,NA,NA,NA,NA
XiEfazE0,3r0wocg22pm4csvtiwincc3gz22duj,3f6kkywmnfet4m9ecxb3n17etomnd7,XiEfazE0,2020-0188,2021-10-14,09:22:15,10:16:47,NA,incomplete,false,true,NA,2,8,NA,red,m_l_056.jpg,NA,NA,unpleasant,pleasant,NA,NA,NA,NA,NA,right,1147.09999996424,true,NA,NA,NA,NA,NA
XiEfazE0,3r0wocg22pm4csvtiwincc3gz22duj,3f6kkywmnfet4m9ecxb3n17etomnd7,XiEfazE0,2020-0188,2021-10-14,09:22:15,10:16:47,NA,incomplete,false,true,NA,2,9,NA,red,m_s_014.jpg,NA,NA,pleasant,unpleasant,NA,NA,NA,NA,NA,left,1158.5,true,NA,NA,NA,NA,NA
XiEfazE0,3r0wocg22pm4csvtiwincc3gz22duj,3f6kkywmnfet4m9ecxb3n17etomnd7,XiEfazE0,2020-0188,2021-10-14,09:22:15,10:16:47,NA,incomplete,false,true,NA,2,10,NA,red,m_l_084.jpg,NA,NA,unpleasant,pleasant,NA,NA,NA,NA,NA,right,1049.10000002384,true,NA,NA,NA,NA,NA
XiEfazE0,3r0wocg22pm4csvtiwincc3gz22duj,3f6kkywmnfet4m9ecxb3n17etomnd7,XiEfazE0,2020-0188,2021-10-14,09:22:15,10:16:47,NA,incomplete,false,true,NA,2,11,NA,red,n_s_079.jpg,NA,NA,pleasant,unpleasant,NA,NA,NA,NA,NA,left,1372.5,true,NA,NA,NA,NA,NA
XiEfazE0,3r0wocg22pm4csvtiwincc3gz22duj,3f6kkywmnfet4m9ecxb3n17etomnd7,XiEfazE0,2020-0188,2021-10-14,09:22:15,10:16:47,NA,incomplete,false,true,NA,2,12,NA,yellow,m_s_001.jpg,NA,NA,pleasant,unpleasant,NA,NA,NA,NA,NA,left,935.100000023842,true,NA,NA,NA,NA,NA
XiEfazE0,3r0wocg22pm4csvtiwincc3gz22duj,3f6kkywmnfet4m9ecxb3n17etomnd7,XiEfazE0,2020-0188,2021-10-14,09:22:15,10:16:47,NA,incomplete,false,true,NA,2,13,NA,yellow,n_l_017.jpg,NA,NA,pleasant,unpleasant,NA,NA,NA,NA,NA,left,865,true,NA,NA,NA,NA,NA
XiEfazE0,3r0wocg22pm4csvtiwincc3gz22duj,3f6kkywmnfet4m9ecxb3n17etomnd7,XiEfazE0,2020-0188,2021-10-14,09:22:15,10:16:47,NA,incomplete,false,true,NA,2,14,NA,yellow,n_s_085.jpg,NA,NA,unpleasant,pleasant,NA,NA,NA,NA,NA,right,964.199999988079,true,NA,NA,NA,NA,NA
XiEfazE0,3r0wocg22pm4csvtiwincc3gz22duj,3f6kkywmnfet4m9ecxb3n17etomnd7,XiEfazE0,2020-0188,2021-10-14,09:22:15,10:16:47,NA,incomplete,false,true,NA,2,15,NA,yellow,n_s_084.jpg,NA,NA,unpleasant,pleasant,NA,NA,NA,NA,NA,right,951.699999988079,true,NA,NA,NA,NA,NA
XiEfazE0,3r0wocg22pm4csvtiwincc3gz22duj,3f6kkywmnfet4m9ecxb3n17etomnd7,XiEfazE0,2020-0188,2021-10-14,09:22:15,10:16:47,NA,incomplete,false,true,NA,2,16,NA,yellow,n_l_011.jpg,NA,NA,pleasant,unpleasant,NA,NA,NA,NA,NA,left,857.600000023842,true,NA,NA,NA,NA,NA
XiEfazE0,3r0wocg22pm4csvtiwincc3gz22duj,3f6kkywmnfet4m9ecxb3n17etomnd7,XiEfazE0,2020-0188,2021-10-14,09:22:15,10:16:47,NA,incomplete,false,true,NA,2,17,NA,yellow,n_s_012.jpg,NA,NA,unpleasant,pleasant,NA,NA,NA,NA,NA,right,692.699999988079,true,NA,NA,NA,NA,NA
XiEfazE0,3r0wocg22pm4csvtiwincc3gz22duj,3f6kkywmnfet4m9ecxb3n17etomnd7,XiEfazE0,2020-0188,2021-10-14,09:22:15,10:16:47,NA,incomplete,false,true,NA,2,18,NA,black,n_s_081.jpg,NA,NA,unpleasant,pleasant,NA,NA,NA,NA,NA,right,616.199999988079,true,NA,NA,NA,NA,NA
XiEfazE0,3r0wocg22pm4csvtiwincc3gz22duj,3f6kkywmnfet4m9ecxb3n17etomnd7,XiEfazE0,2020-0188,2021-10-14,09:22:15,10:16:47,NA,incomplete,false,true,NA,2,19,NA,black,m_l_060.jpg,NA,NA,pleasant,unpleasant,NA,NA,NA,NA,NA,left,746.900000035763,true,NA,NA,NA,NA,NA
XiEfazE0,3r0wocg22pm4csvtiwincc3gz22duj,3f6kkywmnfet4m9ecxb3n17etomnd7,XiEfazE0,2020-0188,2021-10-14,09:22:15,10:16:47,NA,incomplete,false,true,NA,2,20,NA,black,n_l_113.jpg,NA,NA,pleasant,unpleasant,NA,NA,NA,NA,NA,right,1173.89999997616,true,NA,NA,NA,NA,NA
XiEfazE0,3r0wocg22pm4csvtiwincc3gz22duj,3f6kkywmnfet4m9ecxb3n17etomnd7,XiEfazE0,2020-0188,2021-10-14,09:22:15,10:16:47,NA,incomplete,false,true,NA,2,21,NA,black,m_s_069.jpg,NA,NA,unpleasant,pleasant,NA,NA,NA,NA,NA,right,848.600000023842,true,NA,NA,NA,NA,NA
XiEfazE0,3r0wocg22pm4csvtiwincc3gz22duj,3f6kkywmnfet4m9ecxb3n17etomnd7,XiEfazE0,2020-0188,2021-10-14,09:22:15,10:16:47,NA,incomplete,false,true,NA,2,22,NA,black,n_s_087.jpg,NA,NA,unpleasant,pleasant,NA,NA,NA,NA,NA,right,827.5,true,NA,NA,NA,NA,NA
XiEfazE0,3r0wocg22pm4csvtiwincc3gz22duj,3f6kkywmnfet4m9ecxb3n17etomnd7,XiEfazE0,2020-0188,2021-10-14,09:22:15,10:16:47,NA,incomplete,false,true,NA,2,23,NA,black,m_s_097.jpg,NA,NA,pleasant,unpleasant,NA,NA,NA,NA,NA,right,1070.5,true,NA,NA,NA,NA,NA
XiEfazE0,3r0wocg22pm4csvtiwincc3gz22duj,3f6kkywmnfet4m9ecxb3n17etomnd7,XiEfazE0,2020-0188,2021-10-14,09:22:15,10:16:47,NA,incomplete,false,true,NA,2,24,NA,purple,n_s_102.jpg,NA,NA,pleasant,unpleasant,NA,NA,NA,NA,NA,left,993.300000011921,true,NA,NA,NA,NA,NA
XiEfazE0,3r0wocg22pm4csvtiwincc3gz22duj,3f6kkywmnfet4m9ecxb3n17etomnd7,XiEfazE0,2020-0188,2021-10-14,09:22:15,10:16:47,NA,incomplete,false,true,NA,2,25,NA,purple,m_l_021.jpg,NA,NA,unpleasant,pleasant,NA,NA,NA,NA,NA,right,1147.80000001192,true,NA,NA,NA,NA,NA
XiEfazE0,3r0wocg22pm4csvtiwincc3gz22duj,3f6kkywmnfet4m9ecxb3n17etomnd7,XiEfazE0,2020-0188,2021-10-14,09:22:15,10:16:47,NA,incomplete,false,true,NA,2,26,NA,purple,n_s_076.jpg,NA,NA,unpleasant,pleasant,NA,NA,NA,NA,NA,right,687,true,NA,NA,NA,NA,NA
XiEfazE0,3r0wocg22pm4csvtiwincc3gz22duj,3f6kkywmnfet4m9ecxb3n17etomnd7,XiEfazE0,2020-0188,2021-10-14,09:22:15,10:16:47,NA,incomplete,false,true,NA,2,27,NA,purple,m_l_067.jpg,NA,NA,unpleasant,pleasant,NA,NA,NA,NA,NA,right,641.800000011921,true,NA,NA,NA,NA,NA
XiEfazE0,3r0wocg22pm4csvtiwincc3gz22duj,3f6kkywmnfet4m9ecxb3n17etomnd7,XiEfazE0,2020-0188,2021-10-14,09:22:15,10:16:47,NA,incomplete,false,true,NA,2,28,NA,purple,n_s_017.jpg,NA,NA,unpleasant,pleasant,NA,NA,NA,NA,NA,right,604.600000023842,true,NA,NA,NA,NA,NA
XiEfazE0,3r0wocg22pm4csvtiwincc3gz22duj,3f6kkywmnfet4m9ecxb3n17etomnd7,XiEfazE0,2020-0188,2021-10-14,09:22:15,10:16:47,NA,incomplete,false,true,NA,2,29,NA,purple,n_l_012.jpg,NA,NA,unpleasant,pleasant,NA,NA,NA,NA,NA,right,782.800000011921,true,NA,NA,NA,NA,NA
XiEfazE0,3r0wocg22pm4csvtiwincc3gz22duj,3f6kkywmnfet4m9ecxb3n17etomnd7,XiEfazE0,2020-0188,2021-10-14,09:22:15,10:16:47,NA,incomplete,false,true,NA,2,30,NA,green,n_l_046.jpg,NA,NA,unpleasant,pleasant,NA,NA,NA,NA,NA,right,578.5,true,NA,NA,NA,NA,NA
XiEfazE0,3r0wocg22pm4csvtiwincc3gz22duj,3f6kkywmnfet4m9ecxb3n17etomnd7,XiEfazE0,2020-0188,2021-10-14,09:22:15,10:16:47,NA,incomplete,false,true,NA,2,31,NA,green,n_l_065.jpg,NA,NA,unpleasant,pleasant,NA,NA,NA,NA,NA,right,733.099999964237,true,NA,NA,NA,NA,NA
XiEfazE0,3r0wocg22pm4csvtiwincc3gz22duj,3f6kkywmnfet4m9ecxb3n17etomnd7,XiEfazE0,2020-0188,2021-10-14,09:22:15,10:16:47,NA,incomplete,false,true,NA,2,32,NA,green,n_l_030.jpg,NA,NA,pleasant,unpleasant,NA,NA,NA,NA,NA,left,1008.30000001192,true,NA,NA,NA,NA,NA
XiEfazE0,3r0wocg22pm4csvtiwincc3gz22duj,3f6kkywmnfet4m9ecxb3n17etomnd7,XiEfazE0,2020-0188,2021-10-14,09:22:15,10:16:47,NA,incomplete,false,true,NA,2,33,NA,green,n_l_051.jpg,NA,NA,unpleasant,pleasant,NA,NA,NA,NA,NA,right,763.699999988079,true,NA,NA,NA,NA,NA
XiEfazE0,3r0wocg22pm4csvtiwincc3gz22duj,3f6kkywmnfet4m9ecxb3n17etomnd7,XiEfazE0,2020-0188,2021-10-14,09:22:15,10:16:47,NA,incomplete,false,true,NA,2,34,NA,green,n_s_110.jpg,NA,NA,pleasant,unpleasant,NA,NA,NA,NA,NA,left,1518.39999997616,true,NA,NA,NA,NA,NA
XiEfazE0,3r0wocg22pm4csvtiwincc3gz22duj,3f6kkywmnfet4m9ecxb3n17etomnd7,XiEfazE0,2020-0188,2021-10-14,09:22:15,10:16:47,NA,incomplete,false,true,NA,2,35,NA,green,n_l_078.jpg,NA,NA,unpleasant,pleasant,NA,NA,NA,NA,NA,right,832.600000023842,true,NA,NA,NA,NA,NA
XiEfazE0,3r0wocg22pm4csvtiwincc3gz22duj,3f6kkywmnfet4m9ecxb3n17etomnd7,XiEfazE0,2020-0188,2021-10-14,09:22:15,10:16:47,NA,incomplete,false,NA,true,2,0,NA,NA,NA,left,present,NA,NA,n_l_011.jpg,yellow,n_l_113.jpg,black,between,NA,NaN,NA,left,1626.5999999642372,1,1,1178.5999999642372
XiEfazE0,3r0wocg22pm4csvtiwincc3gz22duj,3f6kkywmnfet4m9ecxb3n17etomnd7,XiEfazE0,2020-0188,2021-10-14,09:22:15,10:16:47,NA,incomplete,false,NA,true,2,1,NA,NA,NA,right,present,NA,NA,n_s_079.jpg,red,n_s_046.jpg,red,within,NA,NaN,NA,left,1784.199999988079,0,2,915.4000000357628
XiEfazE0,3r0wocg22pm4csvtiwincc3gz22duj,3f6kkywmnfet4m9ecxb3n17etomnd7,XiEfazE0,2020-0188,2021-10-14,09:22:15,10:16:47,NA,incomplete,false,NA,true,2,2,NA,NA,NA,right,present,NA,NA,n_l_030.jpg,green,n_s_017.jpg,purple,between,NA,NaN,NA,right,2806.199999988079,1,0,2006.4000000357628
XiEfazE0,3r0wocg22pm4csvtiwincc3gz22duj,3f6kkywmnfet4m9ecxb3n17etomnd7,XiEfazE0,2020-0188,2021-10-14,09:22:15,10:16:47,NA,incomplete,false,NA,true,2,3,NA,NA,NA,left,present,NA,NA,n_l_010.jpg,blue,m_l_056.jpg,red,between,NA,NaN,NA,right,1390.2000000476837,0,1,1601.300000011921
XiEfazE0,3r0wocg22pm4csvtiwincc3gz22duj,3f6kkywmnfet4m9ecxb3n17etomnd7,XiEfazE0,2020-0188,2021-10-14,09:22:15,10:16:47,NA,incomplete,false,NA,true,2,4,NA,NA,NA,right,present,NA,NA,m_s_097.jpg,black,m_l_060.jpg,black,within,NA,NaN,NA,right,1256.199999988079,1,1,1312.5
XiEfazE0,3r0wocg22pm4csvtiwincc3gz22duj,3f6kkywmnfet4m9ecxb3n17etomnd7,XiEfazE0,2020-0188,2021-10-14,09:22:15,10:16:47,NA,incomplete,false,NA,true,2,5,NA,NA,NA,left,present,NA,NA,m_l_084.jpg,red,n_s_085.jpg,yellow,between,NA,NaN,NA,right,1541.300000011921,0,2,891.3000000119209
XiEfazE0,3r0wocg22pm4csvtiwincc3gz22duj,3f6kkywmnfet4m9ecxb3n17etomnd7,XiEfazE0,2020-0188,2021-10-14,09:22:15,10:16:47,NA,incomplete,false,NA,true,2,6,NA,NA,NA,right,present,NA,NA,n_s_012.jpg,yellow,n_l_017.jpg,yellow,within,NA,NaN,NA,right,1287.199999988079,1,0,1530
XiEfazE0,3r0wocg22pm4csvtiwincc3gz22duj,3f6kkywmnfet4m9ecxb3n17etomnd7,XiEfazE0,2020-0188,2021-10-14,09:22:15,10:16:47,NA,incomplete,false,NA,true,2,7,NA,NA,NA,right,present,NA,NA,m_l_009.jpg,blue,m_l_054.jpg,blue,within,NA,NaN,NA,left,1382,0,1,1710.4000000357628
XiEfazE0,3r0wocg22pm4csvtiwincc3gz22duj,3f6kkywmnfet4m9ecxb3n17etomnd7,XiEfazE0,2020-0188,2021-10-14,09:22:15,10:16:47,NA,incomplete,false,NA,true,2,8,NA,NA,NA,right,present,NA,NA,n_s_076.jpg,purple,n_s_087.jpg,black,between,NA,NaN,NA,left,1736.4000000357628,0,2,1492.1000000238419
XiEfazE0,3r0wocg22pm4csvtiwincc3gz22duj,3f6kkywmnfet4m9ecxb3n17etomnd7,XiEfazE0,2020-0188,2021-10-14,09:22:15,10:16:47,NA,incomplete,false,NA,true,2,9,NA,NA,NA,right,present,NA,NA,n_l_012.jpg,purple,m_l_021.jpg,purple,within,NA,NaN,NA,right,1210.300000011921,1,1,1035.5
XiEfazE0,3r0wocg22pm4csvtiwincc3gz22duj,3f6kkywmnfet4m9ecxb3n17etomnd7,XiEfazE0,2020-0188,2021-10-14,09:22:15,10:16:47,NA,incomplete,false,NA,true,2,10,NA,NA,NA,left,present,NA,NA,n_l_065.jpg,green,n_l_078.jpg,green,within,NA,NaN,NA,left,1849.300000011921,1,1,1031.199999988079
XiEfazE0,3r0wocg22pm4csvtiwincc3gz22duj,3f6kkywmnfet4m9ecxb3n17etomnd7,XiEfazE0,2020-0188,2021-10-14,09:22:15,10:16:47,NA,incomplete,false,true,NA,3,0,NA,green,n_s_111.jpg,NA,NA,unpleasant,pleasant,NA,NA,NA,NA,NA,right,1082.80000001192,true,NA,NA,NA,NA,NA
XiEfazE0,3r0wocg22pm4csvtiwincc3gz22duj,3f6kkywmnfet4m9ecxb3n17etomnd7,XiEfazE0,2020-0188,2021-10-14,09:22:15,10:16:47,NA,incomplete,false,true,NA,3,1,NA,green,m_l_090.jpg,NA,NA,unpleasant,pleasant,NA,NA,NA,NA,NA,right,774.199999988079,true,NA,NA,NA,NA,NA
XiEfazE0,3r0wocg22pm4csvtiwincc3gz22duj,3f6kkywmnfet4m9ecxb3n17etomnd7,XiEfazE0,2020-0188,2021-10-14,09:22:15,10:16:47,NA,incomplete,false,true,NA,3,2,NA,green,n_s_041.jpg,NA,NA,unpleasant,pleasant,NA,NA,NA,NA,NA,right,1074.19999998808,true,NA,NA,NA,NA,NA
XiEfazE0,3r0wocg22pm4csvtiwincc3gz22duj,3f6kkywmnfet4m9ecxb3n17etomnd7,XiEfazE0,2020-0188,2021-10-14,09:22:15,10:16:47,NA,incomplete,false,true,NA,3,3,NA,green,m_s_096.jpg,NA,NA,pleasant,unpleasant,NA,NA,NA,NA,NA,left,1100.19999998808,true,NA,NA,NA,NA,NA
XiEfazE0,3r0wocg22pm4csvtiwincc3gz22duj,3f6kkywmnfet4m9ecxb3n17etomnd7,XiEfazE0,2020-0188,2021-10-14,09:22:15,10:16:47,NA,incomplete,false,true,NA,3,4,NA,green,m_s_027.jpg,NA,NA,unpleasant,pleasant,NA,NA,NA,NA,NA,right,671.5,true,NA,NA,NA,NA,NA
XiEfazE0,3r0wocg22pm4csvtiwincc3gz22duj,3f6kkywmnfet4m9ecxb3n17etomnd7,XiEfazE0,2020-0188,2021-10-14,09:22:15,10:16:47,NA,incomplete,false,true,NA,3,5,NA,green,m_s_010.jpg,NA,NA,pleasant,unpleasant,NA,NA,NA,NA,NA,left,946.300000011921,true,NA,NA,NA,NA,NA
XiEfazE0,3r0wocg22pm4csvtiwincc3gz22duj,3f6kkywmnfet4m9ecxb3n17etomnd7,XiEfazE0,2020-0188,2021-10-14,09:22:15,10:16:47,NA,incomplete,false,true,NA,3,6,NA,yellow,m_s_015.jpg,NA,NA,unpleasant,pleasant,NA,NA,NA,NA,NA,right,804.899999976158,true,NA,NA,NA,NA,NA
XiEfazE0,3r0wocg22pm4csvtiwincc3gz22duj,3f6kkywmnfet4m9ecxb3n17etomnd7,XiEfazE0,2020-0188,2021-10-14,09:22:15,10:16:47,NA,incomplete,false,true,NA,3,7,NA,yellow,n_l_114.jpg,NA,NA,unpleasant,pleasant,NA,NA,NA,NA,NA,right,639.300000011921,true,NA,NA,NA,NA,NA
XiEfazE0,3r0wocg22pm4csvtiwincc3gz22duj,3f6kkywmnfet4m9ecxb3n17etomnd7,XiEfazE0,2020-0188,2021-10-14,09:22:15,10:16:47,NA,incomplete,false,true,NA,3,8,NA,yellow,m_s_046.jpg,NA,NA,unpleasant,pleasant,NA,NA,NA,NA,NA,right,690.199999988079,true,NA,NA,NA,NA,NA
XiEfazE0,3r0wocg22pm4csvtiwincc3gz22duj,3f6kkywmnfet4m9ecxb3n17etomnd7,XiEfazE0,2020-0188,2021-10-14,09:22:15,10:16:47,NA,incomplete,false,true,NA,3,9,NA,yellow,n_s_061.jpg,NA,NA,unpleasant,pleasant,NA,NA,NA,NA,NA,right,732,true,NA,NA,NA,NA,NA
XiEfazE0,3r0wocg22pm4csvtiwincc3gz22duj,3f6kkywmnfet4m9ecxb3n17etomnd7,XiEfazE0,2020-0188,2021-10-14,09:22:15,10:16:47,NA,incomplete,false,true,NA,3,10,NA,yellow,n_s_005.jpg,NA,NA,unpleasant,pleasant,NA,NA,NA,NA,NA,right,695.199999988079,true,NA,NA,NA,NA,NA
XiEfazE0,3r0wocg22pm4csvtiwincc3gz22duj,3f6kkywmnfet4m9ecxb3n17etomnd7,XiEfazE0,2020-0188,2021-10-14,09:22:15,10:16:47,NA,incomplete,false,true,NA,3,11,NA,yellow,m_s_102.jpg,NA,NA,unpleasant,pleasant,NA,NA,NA,NA,NA,right,914.600000023842,true,NA,NA,NA,NA,NA
XiEfazE0,3r0wocg22pm4csvtiwincc3gz22duj,3f6kkywmnfet4m9ecxb3n17etomnd7,XiEfazE0,2020-0188,2021-10-14,09:22:15,10:16:47,NA,incomplete,false,true,NA,3,12,NA,black,n_l_044.jpg,NA,NA,pleasant,unpleasant,NA,NA,NA,NA,NA,left,773.299999952316,true,NA,NA,NA,NA,NA
XiEfazE0,3r0wocg22pm4csvtiwincc3gz22duj,3f6kkywmnfet4m9ecxb3n17etomnd7,XiEfazE0,2020-0188,2021-10-14,09:22:15,10:16:47,NA,incomplete,false,true,NA,3,13,NA,black,n_s_100.jpg,NA,NA,pleasant,unpleasant,NA,NA,NA,NA,NA,left,727.699999988079,true,NA,NA,NA,NA,NA
XiEfazE0,3r0wocg22pm4csvtiwincc3gz22duj,3f6kkywmnfet4m9ecxb3n17etomnd7,XiEfazE0,2020-0188,2021-10-14,09:22:15,10:16:47,NA,incomplete,false,true,NA,3,14,NA,black,n_s_049.jpg,NA,NA,unpleasant,pleasant,NA,NA,NA,NA,NA,left,995.099999964237,true,NA,NA,NA,NA,NA
XiEfazE0,3r0wocg22pm4csvtiwincc3gz22duj,3f6kkywmnfet4m9ecxb3n17etomnd7,XiEfazE0,2020-0188,2021-10-14,09:22:15,10:16:47,NA,incomplete,false,true,NA,3,15,NA,black,n_l_094.jpg,NA,NA,pleasant,unpleasant,NA,NA,NA,NA,NA,left,1197.89999997616,true,NA,NA,NA,NA,NA
XiEfazE0,3r0wocg22pm4csvtiwincc3gz22duj,3f6kkywmnfet4m9ecxb3n17etomnd7,XiEfazE0,2020-0188,2021-10-14,09:22:15,10:16:47,NA,incomplete,false,true,NA,3,16,NA,black,m_l_094.jpg,NA,NA,pleasant,unpleasant,NA,NA,NA,NA,NA,right,993,true,NA,NA,NA,NA,NA
XiEfazE0,3r0wocg22pm4csvtiwincc3gz22duj,3f6kkywmnfet4m9ecxb3n17etomnd7,XiEfazE0,2020-0188,2021-10-14,09:22:15,10:16:47,NA,incomplete,false,true,NA,3,17,NA,black,m_s_020.jpg,NA,NA,unpleasant,pleasant,NA,NA,NA,NA,NA,right,812.600000023842,true,NA,NA,NA,NA,NA
XiEfazE0,3r0wocg22pm4csvtiwincc3gz22duj,3f6kkywmnfet4m9ecxb3n17etomnd7,XiEfazE0,2020-0188,2021-10-14,09:22:15,10:16:47,NA,incomplete,false,true,NA,3,18,NA,white,n_s_108.jpg,NA,NA,unpleasant,pleasant,NA,NA,NA,NA,NA,right,1199,true,NA,NA,NA,NA,NA
XiEfazE0,3r0wocg22pm4csvtiwincc3gz22duj,3f6kkywmnfet4m9ecxb3n17etomnd7,XiEfazE0,2020-0188,2021-10-14,09:22:15,10:16:47,NA,incomplete,false,true,NA,3,19,NA,white,n_s_018.jpg,NA,NA,pleasant,unpleasant,NA,NA,NA,NA,NA,left,962.099999964237,true,NA,NA,NA,NA,NA
XiEfazE0,3r0wocg22pm4csvtiwincc3gz22duj,3f6kkywmnfet4m9ecxb3n17etomnd7,XiEfazE0,2020-0188,2021-10-14,09:22:15,10:16:47,NA,incomplete,false,true,NA,3,20,NA,white,n_l_029.jpg,NA,NA,pleasant,unpleasant,NA,NA,NA,NA,NA,left,1373.80000001192,true,NA,NA,NA,NA,NA
XiEfazE0,3r0wocg22pm4csvtiwincc3gz22duj,3f6kkywmnfet4m9ecxb3n17etomnd7,XiEfazE0,2020-0188,2021-10-14,09:22:15,10:16:47,NA,incomplete,false,true,NA,3,21,NA,white,n_l_069.jpg,NA,NA,pleasant,unpleasant,NA,NA,NA,NA,NA,left,927.699999988079,true,NA,NA,NA,NA,NA
XiEfazE0,3r0wocg22pm4csvtiwincc3gz22duj,3f6kkywmnfet4m9ecxb3n17etomnd7,XiEfazE0,2020-0188,2021-10-14,09:22:15,10:16:47,NA,incomplete,false,true,NA,3,22,NA,white,n_l_101.jpg,NA,NA,pleasant,unpleasant,NA,NA,NA,NA,NA,right,1450.79999995232,true,NA,NA,NA,NA,NA
XiEfazE0,3r0wocg22pm4csvtiwincc3gz22duj,3f6kkywmnfet4m9ecxb3n17etomnd7,XiEfazE0,2020-0188,2021-10-14,09:22:15,10:16:47,NA,incomplete,false,true,NA,3,23,NA,white,m_s_101.jpg,NA,NA,pleasant,unpleasant,NA,NA,NA,NA,NA,left,701.600000023842,true,NA,NA,NA,NA,NA
XiEfazE0,3r0wocg22pm4csvtiwincc3gz22duj,3f6kkywmnfet4m9ecxb3n17etomnd7,XiEfazE0,2020-0188,2021-10-14,09:22:15,10:16:47,NA,incomplete,false,true,NA,3,24,NA,gray,n_l_019.jpg,NA,NA,pleasant,unpleasant,NA,NA,NA,NA,NA,left,767.5,true,NA,NA,NA,NA,NA
XiEfazE0,3r0wocg22pm4csvtiwincc3gz22duj,3f6kkywmnfet4m9ecxb3n17etomnd7,XiEfazE0,2020-0188,2021-10-14,09:22:15,10:16:47,NA,incomplete,false,true,NA,3,25,NA,gray,n_l_067.jpg,NA,NA,unpleasant,pleasant,NA,NA,NA,NA,NA,right,810,true,NA,NA,NA,NA,NA
XiEfazE0,3r0wocg22pm4csvtiwincc3gz22duj,3f6kkywmnfet4m9ecxb3n17etomnd7,XiEfazE0,2020-0188,2021-10-14,09:22:15,10:16:47,NA,incomplete,false,true,NA,3,26,NA,gray,m_l_010.jpg,NA,NA,pleasant,unpleasant,NA,NA,NA,NA,NA,left,909.599999964237,true,NA,NA,NA,NA,NA
XiEfazE0,3r0wocg22pm4csvtiwincc3gz22duj,3f6kkywmnfet4m9ecxb3n17etomnd7,XiEfazE0,2020-0188,2021-10-14,09:22:15,10:16:47,NA,incomplete,false,true,NA,3,27,NA,gray,m_s_066.jpg,NA,NA,pleasant,unpleasant,NA,NA,NA,NA,NA,left,984.199999988079,true,NA,NA,NA,NA,NA
XiEfazE0,3r0wocg22pm4csvtiwincc3gz22duj,3f6kkywmnfet4m9ecxb3n17etomnd7,XiEfazE0,2020-0188,2021-10-14,09:22:15,10:16:47,NA,incomplete,false,true,NA,3,28,NA,gray,m_l_106.jpg,NA,NA,pleasant,unpleasant,NA,NA,NA,NA,NA,left,882.399999976158,true,NA,NA,NA,NA,NA
XiEfazE0,3r0wocg22pm4csvtiwincc3gz22duj,3f6kkywmnfet4m9ecxb3n17etomnd7,XiEfazE0,2020-0188,2021-10-14,09:22:15,10:16:47,NA,incomplete,false,true,NA,3,29,NA,gray,m_l_111.jpg,NA,NA,unpleasant,pleasant,NA,NA,NA,NA,NA,right,574.100000023842,true,NA,NA,NA,NA,NA
XiEfazE0,3r0wocg22pm4csvtiwincc3gz22duj,3f6kkywmnfet4m9ecxb3n17etomnd7,XiEfazE0,2020-0188,2021-10-14,09:22:15,10:16:47,NA,incomplete,false,true,NA,3,30,NA,blue,n_s_011.jpg,NA,NA,unpleasant,pleasant,NA,NA,NA,NA,NA,right,960.600000023842,true,NA,NA,NA,NA,NA
XiEfazE0,3r0wocg22pm4csvtiwincc3gz22duj,3f6kkywmnfet4m9ecxb3n17etomnd7,XiEfazE0,2020-0188,2021-10-14,09:22:15,10:16:47,NA,incomplete,false,true,NA,3,31,NA,blue,m_l_045.jpg,NA,NA,pleasant,unpleasant,NA,NA,NA,NA,NA,left,923.699999988079,true,NA,NA,NA,NA,NA
XiEfazE0,3r0wocg22pm4csvtiwincc3gz22duj,3f6kkywmnfet4m9ecxb3n17etomnd7,XiEfazE0,2020-0188,2021-10-14,09:22:15,10:16:47,NA,incomplete,false,true,NA,3,32,NA,blue,m_s_117.jpg,NA,NA,pleasant,unpleasant,NA,NA,NA,NA,NA,left,694.599999964237,true,NA,NA,NA,NA,NA
XiEfazE0,3r0wocg22pm4csvtiwincc3gz22duj,3f6kkywmnfet4m9ecxb3n17etomnd7,XiEfazE0,2020-0188,2021-10-14,09:22:15,10:16:47,NA,incomplete,false,true,NA,3,33,NA,blue,m_s_085.jpg,NA,NA,pleasant,unpleasant,NA,NA,NA,NA,NA,left,817.099999964237,true,NA,NA,NA,NA,NA
XiEfazE0,3r0wocg22pm4csvtiwincc3gz22duj,3f6kkywmnfet4m9ecxb3n17etomnd7,XiEfazE0,2020-0188,2021-10-14,09:22:15,10:16:47,NA,incomplete,false,true,NA,3,34,NA,blue,n_l_073.jpg,NA,NA,unpleasant,pleasant,NA,NA,NA,NA,NA,right,699.699999988079,true,NA,NA,NA,NA,NA
XiEfazE0,3r0wocg22pm4csvtiwincc3gz22duj,3f6kkywmnfet4m9ecxb3n17etomnd7,XiEfazE0,2020-0188,2021-10-14,09:22:15,10:16:47,NA,incomplete,false,true,NA,3,35,NA,blue,n_l_076.jpg,NA,NA,pleasant,unpleasant,NA,NA,NA,NA,NA,right,823.300000011921,true,NA,NA,NA,NA,NA
XiEfazE0,3r0wocg22pm4csvtiwincc3gz22duj,3f6kkywmnfet4m9ecxb3n17etomnd7,XiEfazE0,2020-0188,2021-10-14,09:22:15,10:16:47,NA,incomplete,false,NA,true,3,0,NA,NA,NA,left,absent,NA,NA,n_s_005.jpg,yellow,n_s_049.jpg,black,between,NA,NaN,NA,left,1613.9000000357628,1,0,1243.300000011921
XiEfazE0,3r0wocg22pm4csvtiwincc3gz22duj,3f6kkywmnfet4m9ecxb3n17etomnd7,XiEfazE0,2020-0188,2021-10-14,09:22:15,10:16:47,NA,incomplete,false,NA,true,3,1,NA,NA,NA,right,absent,NA,NA,n_l_029.jpg,white,m_l_094.jpg,black,between,NA,NaN,NA,right,1596.199999988079,1,1,1190.300000011921
XiEfazE0,3r0wocg22pm4csvtiwincc3gz22duj,3f6kkywmnfet4m9ecxb3n17etomnd7,XiEfazE0,2020-0188,2021-10-14,09:22:15,10:16:47,NA,incomplete,false,NA,true,3,2,NA,NA,NA,right,absent,NA,NA,m_s_101.jpg,white,n_s_018.jpg,white,within,NA,NaN,NA,left,1843.199999988079,0,0,1912.2999999523163
XiEfazE0,3r0wocg22pm4csvtiwincc3gz22duj,3f6kkywmnfet4m9ecxb3n17etomnd7,XiEfazE0,2020-0188,2021-10-14,09:22:15,10:16:47,NA,incomplete,false,NA,true,3,3,NA,NA,NA,left,absent,NA,NA,n_l_067.jpg,gray,m_l_111.jpg,gray,within,NA,NaN,NA,right,1370.2999999523163,0,1,1020.5
XiEfazE0,3r0wocg22pm4csvtiwincc3gz22duj,3f6kkywmnfet4m9ecxb3n17etomnd7,XiEfazE0,2020-0188,2021-10-14,09:22:15,10:16:47,NA,incomplete,false,NA,true,3,4,NA,NA,NA,right,absent,NA,NA,m_s_117.jpg,blue,m_l_106.jpg,gray,between,NA,NaN,NA,left,1718.5,0,2,940.6000000238419
XiEfazE0,3r0wocg22pm4csvtiwincc3gz22duj,3f6kkywmnfet4m9ecxb3n17etomnd7,XiEfazE0,2020-0188,2021-10-14,09:22:15,10:16:47,NA,incomplete,false,NA,true,3,5,NA,NA,NA,right,absent,NA,NA,m_s_010.jpg,green,m_l_090.jpg,green,within,NA,NaN,NA,right,1214.199999988079,1,1,1519.199999988079
XiEfazE0,3r0wocg22pm4csvtiwincc3gz22duj,3f6kkywmnfet4m9ecxb3n17etomnd7,XiEfazE0,2020-0188,2021-10-14,09:22:15,10:16:47,NA,incomplete,false,NA,true,3,6,NA,NA,NA,left,absent,NA,NA,m_l_045.jpg,blue,n_l_076.jpg,blue,within,NA,NaN,NA,left,1370.300000011921,1,0,1523.5
XiEfazE0,3r0wocg22pm4csvtiwincc3gz22duj,3f6kkywmnfet4m9ecxb3n17etomnd7,XiEfazE0,2020-0188,2021-10-14,09:22:15,10:16:47,NA,incomplete,false,NA,true,3,7,NA,NA,NA,left,absent,NA,NA,n_l_114.jpg,yellow,m_s_102.jpg,yellow,within,NA,NaN,NA,right,1109.300000011921,0,1,1216.5
XiEfazE0,3r0wocg22pm4csvtiwincc3gz22duj,3f6kkywmnfet4m9ecxb3n17etomnd7,XiEfazE0,2020-0188,2021-10-14,09:22:15,10:16:47,NA,incomplete,false,NA,true,3,8,NA,NA,NA,left,absent,NA,NA,n_s_100.jpg,black,m_s_020.jpg,black,within,NA,NaN,NA,right,1202.6000000238419,0,1,1348.300000011921
XiEfazE0,3r0wocg22pm4csvtiwincc3gz22duj,3f6kkywmnfet4m9ecxb3n17etomnd7,XiEfazE0,2020-0188,2021-10-14,09:22:15,10:16:47,NA,incomplete,false,NA,true,3,9,NA,NA,NA,right,absent,NA,NA,m_l_010.jpg,gray,n_l_101.jpg,white,between,NA,NaN,NA,right,1149.300000011921,1,2,2470.400000035763
XiEfazE0,3r0wocg22pm4csvtiwincc3gz22duj,3f6kkywmnfet4m9ecxb3n17etomnd7,XiEfazE0,2020-0188,2021-10-14,09:22:15,10:16:47,NA,incomplete,false,NA,true,3,10,NA,NA,NA,right,absent,NA,NA,m_s_046.jpg,yellow,m_s_027.jpg,green,between,NA,NaN,NA,right,1105.300000011921,1,1,1065.199999988079
XiEfazE0,3r0wocg22pm4csvtiwincc3gz22duj,3f6kkywmnfet4m9ecxb3n17etomnd7,XiEfazE0,2020-0188,2021-10-14,09:22:15,10:16:47,NA,incomplete,false,true,NA,4,0,NA,black,n_s_051.jpg,NA,NA,pleasant,unpleasant,NA,NA,NA,NA,NA,left,1238,true,NA,NA,NA,NA,NA
XiEfazE0,3r0wocg22pm4csvtiwincc3gz22duj,3f6kkywmnfet4m9ecxb3n17etomnd7,XiEfazE0,2020-0188,2021-10-14,09:22:15,10:16:47,NA,incomplete,false,true,NA,4,1,NA,black,m_l_065.jpg,NA,NA,unpleasant,pleasant,NA,NA,NA,NA,NA,right,1031.80000001192,true,NA,NA,NA,NA,NA
XiEfazE0,3r0wocg22pm4csvtiwincc3gz22duj,3f6kkywmnfet4m9ecxb3n17etomnd7,XiEfazE0,2020-0188,2021-10-14,09:22:15,10:16:47,NA,incomplete,false,true,NA,4,2,NA,black,m_s_084.jpg,NA,NA,pleasant,unpleasant,NA,NA,NA,NA,NA,left,723.100000023842,true,NA,NA,NA,NA,NA
XiEfazE0,3r0wocg22pm4csvtiwincc3gz22duj,3f6kkywmnfet4m9ecxb3n17etomnd7,XiEfazE0,2020-0188,2021-10-14,09:22:15,10:16:47,NA,incomplete,false,true,NA,4,3,NA,black,n_s_055.jpg,NA,NA,unpleasant,pleasant,NA,NA,NA,NA,NA,right,1142,true,NA,NA,NA,NA,NA
XiEfazE0,3r0wocg22pm4csvtiwincc3gz22duj,3f6kkywmnfet4m9ecxb3n17etomnd7,XiEfazE0,2020-0188,2021-10-14,09:22:15,10:16:47,NA,incomplete,false,true,NA,4,4,NA,black,m_s_103.jpg,NA,NA,unpleasant,pleasant,NA,NA,NA,NA,NA,right,1136.5,true,NA,NA,NA,NA,NA
XiEfazE0,3r0wocg22pm4csvtiwincc3gz22duj,3f6kkywmnfet4m9ecxb3n17etomnd7,XiEfazE0,2020-0188,2021-10-14,09:22:15,10:16:47,NA,incomplete,false,true,NA,4,5,NA,black,n_s_003.jpg,NA,NA,pleasant,unpleasant,NA,NA,NA,NA,NA,right,1387,true,NA,NA,NA,NA,NA
XiEfazE0,3r0wocg22pm4csvtiwincc3gz22duj,3f6kkywmnfet4m9ecxb3n17etomnd7,XiEfazE0,2020-0188,2021-10-14,09:22:15,10:16:47,NA,incomplete,false,true,NA,4,6,NA,green,n_s_095.jpg,NA,NA,unpleasant,pleasant,NA,NA,NA,NA,NA,right,901.800000011921,true,NA,NA,NA,NA,NA
XiEfazE0,3r0wocg22pm4csvtiwincc3gz22duj,3f6kkywmnfet4m9ecxb3n17etomnd7,XiEfazE0,2020-0188,2021-10-14,09:22:15,10:16:47,NA,incomplete,false,true,NA,4,7,NA,green,m_l_114.jpg,NA,NA,unpleasant,pleasant,NA,NA,NA,NA,NA,right,695.800000011921,true,NA,NA,NA,NA,NA
XiEfazE0,3r0wocg22pm4csvtiwincc3gz22duj,3f6kkywmnfet4m9ecxb3n17etomnd7,XiEfazE0,2020-0188,2021-10-14,09:22:15,10:16:47,NA,incomplete,false,true,NA,4,8,NA,green,m_s_031.jpg,NA,NA,pleasant,unpleasant,NA,NA,NA,NA,NA,left,794.699999988079,true,NA,NA,NA,NA,NA
XiEfazE0,3r0wocg22pm4csvtiwincc3gz22duj,3f6kkywmnfet4m9ecxb3n17etomnd7,XiEfazE0,2020-0188,2021-10-14,09:22:15,10:16:47,NA,incomplete,false,true,NA,4,9,NA,green,m_l_038.jpg,NA,NA,unpleasant,pleasant,NA,NA,NA,NA,NA,right,766.300000011921,true,NA,NA,NA,NA,NA
XiEfazE0,3r0wocg22pm4csvtiwincc3gz22duj,3f6kkywmnfet4m9ecxb3n17etomnd7,XiEfazE0,2020-0188,2021-10-14,09:22:15,10:16:47,NA,incomplete,false,true,NA,4,10,NA,green,n_l_033.jpg,NA,NA,unpleasant,pleasant,NA,NA,NA,NA,NA,left,937,true,NA,NA,NA,NA,NA
XiEfazE0,3r0wocg22pm4csvtiwincc3gz22duj,3f6kkywmnfet4m9ecxb3n17etomnd7,XiEfazE0,2020-0188,2021-10-14,09:22:15,10:16:47,NA,incomplete,false,true,NA,4,11,NA,green,n_l_095.jpg,NA,NA,unpleasant,pleasant,NA,NA,NA,NA,NA,right,827.400000035763,true,NA,NA,NA,NA,NA
XiEfazE0,3r0wocg22pm4csvtiwincc3gz22duj,3f6kkywmnfet4m9ecxb3n17etomnd7,XiEfazE0,2020-0188,2021-10-14,09:22:15,10:16:47,NA,incomplete,false,true,NA,4,12,NA,gray,n_l_087.jpg,NA,NA,pleasant,unpleasant,NA,NA,NA,NA,NA,left,1335,true,NA,NA,NA,NA,NA
XiEfazE0,3r0wocg22pm4csvtiwincc3gz22duj,3f6kkywmnfet4m9ecxb3n17etomnd7,XiEfazE0,2020-0188,2021-10-14,09:22:15,10:16:47,NA,incomplete,false,true,NA,4,13,NA,gray,m_s_049.jpg,NA,NA,pleasant,unpleasant,NA,NA,NA,NA,NA,left,880.800000011921,true,NA,NA,NA,NA,NA
XiEfazE0,3r0wocg22pm4csvtiwincc3gz22duj,3f6kkywmnfet4m9ecxb3n17etomnd7,XiEfazE0,2020-0188,2021-10-14,09:22:15,10:16:47,NA,incomplete,false,true,NA,4,14,NA,gray,m_s_071.jpg,NA,NA,unpleasant,pleasant,NA,NA,NA,NA,NA,right,739.899999976158,true,NA,NA,NA,NA,NA
XiEfazE0,3r0wocg22pm4csvtiwincc3gz22duj,3f6kkywmnfet4m9ecxb3n17etomnd7,XiEfazE0,2020-0188,2021-10-14,09:22:15,10:16:47,NA,incomplete,false,true,NA,4,15,NA,gray,n_l_053.jpg,NA,NA,pleasant,unpleasant,NA,NA,NA,NA,NA,right,950.800000011921,true,NA,NA,NA,NA,NA
XiEfazE0,3r0wocg22pm4csvtiwincc3gz22duj,3f6kkywmnfet4m9ecxb3n17etomnd7,XiEfazE0,2020-0188,2021-10-14,09:22:15,10:16:47,NA,incomplete,false,true,NA,4,16,NA,gray,n_l_075.jpg,NA,NA,unpleasant,pleasant,NA,NA,NA,NA,NA,right,904.699999988079,true,NA,NA,NA,NA,NA
XiEfazE0,3r0wocg22pm4csvtiwincc3gz22duj,3f6kkywmnfet4m9ecxb3n17etomnd7,XiEfazE0,2020-0188,2021-10-14,09:22:15,10:16:47,NA,incomplete,false,true,NA,4,17,NA,gray,m_l_059.jpg,NA,NA,pleasant,unpleasant,NA,NA,NA,NA,NA,left,771.100000023842,true,NA,NA,NA,NA,NA
XiEfazE0,3r0wocg22pm4csvtiwincc3gz22duj,3f6kkywmnfet4m9ecxb3n17etomnd7,XiEfazE0,2020-0188,2021-10-14,09:22:15,10:16:47,NA,incomplete,false,true,NA,4,18,NA,purple,n_l_023.jpg,NA,NA,unpleasant,pleasant,NA,NA,NA,NA,NA,right,677.899999976158,true,NA,NA,NA,NA,NA
XiEfazE0,3r0wocg22pm4csvtiwincc3gz22duj,3f6kkywmnfet4m9ecxb3n17etomnd7,XiEfazE0,2020-0188,2021-10-14,09:22:15,10:16:47,NA,incomplete,false,true,NA,4,19,NA,purple,m_l_011.jpg,NA,NA,pleasant,unpleasant,NA,NA,NA,NA,NA,left,1600.80000001192,true,NA,NA,NA,NA,NA
XiEfazE0,3r0wocg22pm4csvtiwincc3gz22duj,3f6kkywmnfet4m9ecxb3n17etomnd7,XiEfazE0,2020-0188,2021-10-14,09:22:15,10:16:47,NA,incomplete,false,true,NA,4,20,NA,purple,n_s_021.jpg,NA,NA,unpleasant,pleasant,NA,NA,NA,NA,NA,right,931.800000011921,true,NA,NA,NA,NA,NA
XiEfazE0,3r0wocg22pm4csvtiwincc3gz22duj,3f6kkywmnfet4m9ecxb3n17etomnd7,XiEfazE0,2020-0188,2021-10-14,09:22:15,10:16:47,NA,incomplete,false,true,NA,4,21,NA,purple,m_s_039.jpg,NA,NA,unpleasant,pleasant,NA,NA,NA,NA,NA,right,983.300000011921,true,NA,NA,NA,NA,NA
XiEfazE0,3r0wocg22pm4csvtiwincc3gz22duj,3f6kkywmnfet4m9ecxb3n17etomnd7,XiEfazE0,2020-0188,2021-10-14,09:22:15,10:16:47,NA,incomplete,false,true,NA,4,22,NA,purple,n_l_047.jpg,NA,NA,unpleasant,pleasant,NA,NA,NA,NA,NA,right,1033.89999997616,true,NA,NA,NA,NA,NA
XiEfazE0,3r0wocg22pm4csvtiwincc3gz22duj,3f6kkywmnfet4m9ecxb3n17etomnd7,XiEfazE0,2020-0188,2021-10-14,09:22:15,10:16:47,NA,incomplete,false,true,NA,4,23,NA,purple,n_s_052.jpg,NA,NA,unpleasant,pleasant,NA,NA,NA,NA,NA,right,773,true,NA,NA,NA,NA,NA
XiEfazE0,3r0wocg22pm4csvtiwincc3gz22duj,3f6kkywmnfet4m9ecxb3n17etomnd7,XiEfazE0,2020-0188,2021-10-14,09:22:15,10:16:47,NA,incomplete,false,true,NA,4,24,NA,orange,m_s_106.jpg,NA,NA,unpleasant,pleasant,NA,NA,NA,NA,NA,right,759.699999988079,true,NA,NA,NA,NA,NA
XiEfazE0,3r0wocg22pm4csvtiwincc3gz22duj,3f6kkywmnfet4m9ecxb3n17etomnd7,XiEfazE0,2020-0188,2021-10-14,09:22:15,10:16:47,NA,incomplete,false,true,NA,4,25,NA,orange,m_l_053.jpg,NA,NA,unpleasant,pleasant,NA,NA,NA,NA,NA,right,770.299999952316,true,NA,NA,NA,NA,NA
XiEfazE0,3r0wocg22pm4csvtiwincc3gz22duj,3f6kkywmnfet4m9ecxb3n17etomnd7,XiEfazE0,2020-0188,2021-10-14,09:22:15,10:16:47,NA,incomplete,false,true,NA,4,26,NA,orange,m_l_050.jpg,NA,NA,unpleasant,pleasant,NA,NA,NA,NA,NA,right,740.799999952316,true,NA,NA,NA,NA,NA
XiEfazE0,3r0wocg22pm4csvtiwincc3gz22duj,3f6kkywmnfet4m9ecxb3n17etomnd7,XiEfazE0,2020-0188,2021-10-14,09:22:15,10:16:47,NA,incomplete,false,true,NA,4,27,NA,orange,n_l_074.jpg,NA,NA,unpleasant,pleasant,NA,NA,NA,NA,NA,right,528.399999976158,true,NA,NA,NA,NA,NA
XiEfazE0,3r0wocg22pm4csvtiwincc3gz22duj,3f6kkywmnfet4m9ecxb3n17etomnd7,XiEfazE0,2020-0188,2021-10-14,09:22:15,10:16:47,NA,incomplete,false,true,NA,4,28,NA,orange,n_l_064.jpg,NA,NA,pleasant,unpleasant,NA,NA,NA,NA,NA,left,832.700000047684,true,NA,NA,NA,NA,NA
XiEfazE0,3r0wocg22pm4csvtiwincc3gz22duj,3f6kkywmnfet4m9ecxb3n17etomnd7,XiEfazE0,2020-0188,2021-10-14,09:22:15,10:16:47,NA,incomplete,false,true,NA,4,29,NA,orange,n_s_035.jpg,NA,NA,pleasant,unpleasant,NA,NA,NA,NA,NA,left,734.099999964237,true,NA,NA,NA,NA,NA
XiEfazE0,3r0wocg22pm4csvtiwincc3gz22duj,3f6kkywmnfet4m9ecxb3n17etomnd7,XiEfazE0,2020-0188,2021-10-14,09:22:15,10:16:47,NA,incomplete,false,true,NA,4,30,NA,red,m_s_073.jpg,NA,NA,pleasant,unpleasant,NA,NA,NA,NA,NA,left,592.799999952316,true,NA,NA,NA,NA,NA
XiEfazE0,3r0wocg22pm4csvtiwincc3gz22duj,3f6kkywmnfet4m9ecxb3n17etomnd7,XiEfazE0,2020-0188,2021-10-14,09:22:15,10:16:47,NA,incomplete,false,true,NA,4,31,NA,red,m_s_058.jpg,NA,NA,unpleasant,pleasant,NA,NA,NA,NA,NA,right,867.599999964237,true,NA,NA,NA,NA,NA
XiEfazE0,3r0wocg22pm4csvtiwincc3gz22duj,3f6kkywmnfet4m9ecxb3n17etomnd7,XiEfazE0,2020-0188,2021-10-14,09:22:15,10:16:47,NA,incomplete,false,true,NA,4,32,NA,red,m_s_002.jpg,NA,NA,pleasant,unpleasant,NA,NA,NA,NA,NA,left,1222,true,NA,NA,NA,NA,NA
XiEfazE0,3r0wocg22pm4csvtiwincc3gz22duj,3f6kkywmnfet4m9ecxb3n17etomnd7,XiEfazE0,2020-0188,2021-10-14,09:22:15,10:16:47,NA,incomplete,false,true,NA,4,33,NA,red,n_s_075.jpg,NA,NA,pleasant,unpleasant,NA,NA,NA,NA,NA,left,1040.89999997616,true,NA,NA,NA,NA,NA
XiEfazE0,3r0wocg22pm4csvtiwincc3gz22duj,3f6kkywmnfet4m9ecxb3n17etomnd7,XiEfazE0,2020-0188,2021-10-14,09:22:15,10:16:47,NA,incomplete,false,true,NA,4,34,NA,red,m_s_088.jpg,NA,NA,pleasant,unpleasant,NA,NA,NA,NA,NA,left,619.5,true,NA,NA,NA,NA,NA
XiEfazE0,3r0wocg22pm4csvtiwincc3gz22duj,3f6kkywmnfet4m9ecxb3n17etomnd7,XiEfazE0,2020-0188,2021-10-14,09:22:15,10:16:47,NA,incomplete,false,true,NA,4,35,NA,red,m_l_063.jpg,NA,NA,unpleasant,pleasant,NA,NA,NA,NA,NA,right,733.699999988079,true,NA,NA,NA,NA,NA
XiEfazE0,3r0wocg22pm4csvtiwincc3gz22duj,3f6kkywmnfet4m9ecxb3n17etomnd7,XiEfazE0,2020-0188,2021-10-14,09:22:15,10:16:47,NA,incomplete,false,NA,true,4,0,NA,NA,NA,left,present,NA,NA,m_l_053.jpg,orange,n_s_035.jpg,orange,within,NA,NaN,NA,right,2655.2999999523163,0,1,1074.8999999761581
XiEfazE0,3r0wocg22pm4csvtiwincc3gz22duj,3f6kkywmnfet4m9ecxb3n17etomnd7,XiEfazE0,2020-0188,2021-10-14,09:22:15,10:16:47,NA,incomplete,false,NA,true,4,1,NA,NA,NA,left,present,NA,NA,m_l_114.jpg,green,n_l_095.jpg,green,within,NA,NaN,NA,left,966,1,1,1369.199999988079
XiEfazE0,3r0wocg22pm4csvtiwincc3gz22duj,3f6kkywmnfet4m9ecxb3n17etomnd7,XiEfazE0,2020-0188,2021-10-14,09:22:15,10:16:47,NA,incomplete,false,NA,true,4,2,NA,NA,NA,left,present,NA,NA,n_l_075.jpg,gray,n_s_021.jpg,purple,between,NA,NaN,NA,right,1125,0,2,1020.1000000238419
XiEfazE0,3r0wocg22pm4csvtiwincc3gz22duj,3f6kkywmnfet4m9ecxb3n17etomnd7,XiEfazE0,2020-0188,2021-10-14,09:22:15,10:16:47,NA,incomplete,false,NA,true,4,3,NA,NA,NA,right,present,NA,NA,m_l_063.jpg,red,m_s_058.jpg,red,within,NA,NaN,NA,left,1527.2999999523163,0,0,1131.3999999761581
XiEfazE0,3r0wocg22pm4csvtiwincc3gz22duj,3f6kkywmnfet4m9ecxb3n17etomnd7,XiEfazE0,2020-0188,2021-10-14,09:22:15,10:16:47,NA,incomplete,false,NA,true,4,4,NA,NA,NA,right,present,NA,NA,m_l_050.jpg,orange,n_l_047.jpg,purple,between,NA,NaN,NA,right,1039.1000000238419,1,1,960.3000000119209
XiEfazE0,3r0wocg22pm4csvtiwincc3gz22duj,3f6kkywmnfet4m9ecxb3n17etomnd7,XiEfazE0,2020-0188,2021-10-14,09:22:15,10:16:47,NA,incomplete,false,NA,true,4,5,NA,NA,NA,right,present,NA,NA,n_s_003.jpg,black,m_l_065.jpg,black,within,NA,NaN,NA,right,1654.800000011921,1,1,1077.3999999761581
XiEfazE0,3r0wocg22pm4csvtiwincc3gz22duj,3f6kkywmnfet4m9ecxb3n17etomnd7,XiEfazE0,2020-0188,2021-10-14,09:22:15,10:16:47,NA,incomplete,false,NA,true,4,6,NA,NA,NA,right,present,NA,NA,m_s_071.jpg,gray,n_l_033.jpg,green,between,NA,NaN,NA,right,1898.300000011921,1,0,1432.2999999523163
XiEfazE0,3r0wocg22pm4csvtiwincc3gz22duj,3f6kkywmnfet4m9ecxb3n17etomnd7,XiEfazE0,2020-0188,2021-10-14,09:22:15,10:16:47,NA,incomplete,false,NA,true,4,7,NA,NA,NA,left,present,NA,NA,n_l_064.jpg,orange,m_s_002.jpg,red,between,NA,NaN,NA,left,1250.3999999761581,1,1,1224.199999988079
XiEfazE0,3r0wocg22pm4csvtiwincc3gz22duj,3f6kkywmnfet4m9ecxb3n17etomnd7,XiEfazE0,2020-0188,2021-10-14,09:22:15,10:16:47,NA,incomplete,false,NA,true,4,8,NA,NA,NA,right,present,NA,NA,n_s_052.jpg,purple,m_l_011.jpg,purple,within,NA,NaN,NA,right,1166.199999988079,1,1,1136.199999988079
XiEfazE0,3r0wocg22pm4csvtiwincc3gz22duj,3f6kkywmnfet4m9ecxb3n17etomnd7,XiEfazE0,2020-0188,2021-10-14,09:22:15,10:16:47,NA,incomplete,false,NA,true,4,9,NA,NA,NA,right,present,NA,NA,m_l_059.jpg,gray,m_s_049.jpg,gray,within,NA,NaN,NA,right,1644.0999999642372,1,1,1106.4000000357628
XiEfazE0,3r0wocg22pm4csvtiwincc3gz22duj,3f6kkywmnfet4m9ecxb3n17etomnd7,XiEfazE0,2020-0188,2021-10-14,09:22:15,10:16:47,NA,incomplete,false,NA,true,4,10,NA,NA,NA,left,present,NA,NA,m_s_103.jpg,black,m_s_031.jpg,green,between,NA,NaN,NA,right,899.2999999523163,0,2,1723.6000000238419
XiEfazE0,3r0wocg22pm4csvtiwincc3gz22duj,3f6kkywmnfet4m9ecxb3n17etomnd7,XiEfazE0,2020-0188,2021-10-14,09:22:15,10:16:47,NA,incomplete,false,true,NA,5,0,NA,white,n_s_044.jpg,NA,NA,pleasant,unpleasant,NA,NA,NA,NA,NA,left,743.400000035763,true,NA,NA,NA,NA,NA
XiEfazE0,3r0wocg22pm4csvtiwincc3gz22duj,3f6kkywmnfet4m9ecxb3n17etomnd7,XiEfazE0,2020-0188,2021-10-14,09:22:15,10:16:47,NA,incomplete,false,true,NA,5,1,NA,white,m_l_031.jpg,NA,NA,unpleasant,pleasant,NA,NA,NA,NA,NA,right,762.300000011921,true,NA,NA,NA,NA,NA
XiEfazE0,3r0wocg22pm4csvtiwincc3gz22duj,3f6kkywmnfet4m9ecxb3n17etomnd7,XiEfazE0,2020-0188,2021-10-14,09:22:15,10:16:47,NA,incomplete,false,true,NA,5,2,NA,white,m_l_066.jpg,NA,NA,pleasant,unpleasant,NA,NA,NA,NA,NA,left,757.399999976158,true,NA,NA,NA,NA,NA
XiEfazE0,3r0wocg22pm4csvtiwincc3gz22duj,3f6kkywmnfet4m9ecxb3n17etomnd7,XiEfazE0,2020-0188,2021-10-14,09:22:15,10:16:47,NA,incomplete,false,true,NA,5,3,NA,white,n_l_092.jpg,NA,NA,unpleasant,pleasant,NA,NA,NA,NA,NA,right,664.899999976158,true,NA,NA,NA,NA,NA
XiEfazE0,3r0wocg22pm4csvtiwincc3gz22duj,3f6kkywmnfet4m9ecxb3n17etomnd7,XiEfazE0,2020-0188,2021-10-14,09:22:15,10:16:47,NA,incomplete,false,true,NA,5,4,NA,white,n_s_097.jpg,NA,NA,pleasant,unpleasant,NA,NA,NA,NA,NA,left,659.599999964237,true,NA,NA,NA,NA,NA
XiEfazE0,3r0wocg22pm4csvtiwincc3gz22duj,3f6kkywmnfet4m9ecxb3n17etomnd7,XiEfazE0,2020-0188,2021-10-14,09:22:15,10:16:47,NA,incomplete,false,true,NA,5,5,NA,white,n_s_098.jpg,NA,NA,unpleasant,pleasant,NA,NA,NA,NA,NA,right,670.699999988079,true,NA,NA,NA,NA,NA
XiEfazE0,3r0wocg22pm4csvtiwincc3gz22duj,3f6kkywmnfet4m9ecxb3n17etomnd7,XiEfazE0,2020-0188,2021-10-14,09:22:15,10:16:47,NA,incomplete,false,true,NA,5,6,NA,purple,n_l_018.jpg,NA,NA,pleasant,unpleasant,NA,NA,NA,NA,NA,left,753.5,true,NA,NA,NA,NA,NA
XiEfazE0,3r0wocg22pm4csvtiwincc3gz22duj,3f6kkywmnfet4m9ecxb3n17etomnd7,XiEfazE0,2020-0188,2021-10-14,09:22:15,10:16:47,NA,incomplete,false,true,NA,5,7,NA,purple,n_s_064.jpg,NA,NA,unpleasant,pleasant,NA,NA,NA,NA,NA,right,795.600000023842,true,NA,NA,NA,NA,NA
XiEfazE0,3r0wocg22pm4csvtiwincc3gz22duj,3f6kkywmnfet4m9ecxb3n17etomnd7,XiEfazE0,2020-0188,2021-10-14,09:22:15,10:16:47,NA,incomplete,false,true,NA,5,8,NA,purple,m_s_034.jpg,NA,NA,pleasant,unpleasant,NA,NA,NA,NA,NA,left,718.699999988079,true,NA,NA,NA,NA,NA
XiEfazE0,3r0wocg22pm4csvtiwincc3gz22duj,3f6kkywmnfet4m9ecxb3n17etomnd7,XiEfazE0,2020-0188,2021-10-14,09:22:15,10:16:47,NA,incomplete,false,true,NA,5,9,NA,purple,m_l_095.jpg,NA,NA,unpleasant,pleasant,NA,NA,NA,NA,NA,right,1073.5,true,NA,NA,NA,NA,NA
XiEfazE0,3r0wocg22pm4csvtiwincc3gz22duj,3f6kkywmnfet4m9ecxb3n17etomnd7,XiEfazE0,2020-0188,2021-10-14,09:22:15,10:16:47,NA,incomplete,false,true,NA,5,10,NA,purple,n_s_008.jpg,NA,NA,pleasant,unpleasant,NA,NA,NA,NA,NA,left,1035.39999997616,true,NA,NA,NA,NA,NA
XiEfazE0,3r0wocg22pm4csvtiwincc3gz22duj,3f6kkywmnfet4m9ecxb3n17etomnd7,XiEfazE0,2020-0188,2021-10-14,09:22:15,10:16:47,NA,incomplete,false,true,NA,5,11,NA,purple,m_l_081.jpg,NA,NA,unpleasant,pleasant,NA,NA,NA,NA,NA,right,829.600000023842,true,NA,NA,NA,NA,NA
XiEfazE0,3r0wocg22pm4csvtiwincc3gz22duj,3f6kkywmnfet4m9ecxb3n17etomnd7,XiEfazE0,2020-0188,2021-10-14,09:22:15,10:16:47,NA,incomplete,false,true,NA,5,12,NA,black,n_l_090.jpg,NA,NA,pleasant,unpleasant,NA,NA,NA,NA,NA,left,849.399999976158,true,NA,NA,NA,NA,NA
XiEfazE0,3r0wocg22pm4csvtiwincc3gz22duj,3f6kkywmnfet4m9ecxb3n17etomnd7,XiEfazE0,2020-0188,2021-10-14,09:22:15,10:16:47,NA,incomplete,false,true,NA,5,13,NA,black,n_l_045.jpg,NA,NA,unpleasant,pleasant,NA,NA,NA,NA,NA,right,852.100000023842,true,NA,NA,NA,NA,NA
XiEfazE0,3r0wocg22pm4csvtiwincc3gz22duj,3f6kkywmnfet4m9ecxb3n17etomnd7,XiEfazE0,2020-0188,2021-10-14,09:22:15,10:16:47,NA,incomplete,false,true,NA,5,14,NA,black,n_l_079.jpg,NA,NA,unpleasant,pleasant,NA,NA,NA,NA,NA,right,822.300000011921,true,NA,NA,NA,NA,NA
XiEfazE0,3r0wocg22pm4csvtiwincc3gz22duj,3f6kkywmnfet4m9ecxb3n17etomnd7,XiEfazE0,2020-0188,2021-10-14,09:22:15,10:16:47,NA,incomplete,false,true,NA,5,15,NA,black,m_l_023.jpg,NA,NA,unpleasant,pleasant,NA,NA,NA,NA,NA,right,1185.20000004768,true,NA,NA,NA,NA,NA
XiEfazE0,3r0wocg22pm4csvtiwincc3gz22duj,3f6kkywmnfet4m9ecxb3n17etomnd7,XiEfazE0,2020-0188,2021-10-14,09:22:15,10:16:47,NA,incomplete,false,true,NA,5,16,NA,black,m_s_083.jpg,NA,NA,pleasant,unpleasant,NA,NA,NA,NA,NA,left,867.199999988079,true,NA,NA,NA,NA,NA
XiEfazE0,3r0wocg22pm4csvtiwincc3gz22duj,3f6kkywmnfet4m9ecxb3n17etomnd7,XiEfazE0,2020-0188,2021-10-14,09:22:15,10:16:47,NA,incomplete,false,true,NA,5,17,NA,black,n_l_041.jpg,NA,NA,unpleasant,pleasant,NA,NA,NA,NA,NA,right,1014.39999997616,true,NA,NA,NA,NA,NA
XiEfazE0,3r0wocg22pm4csvtiwincc3gz22duj,3f6kkywmnfet4m9ecxb3n17etomnd7,XiEfazE0,2020-0188,2021-10-14,09:22:15,10:16:47,NA,incomplete,false,true,NA,5,18,NA,orange,m_s_081.jpg,NA,NA,pleasant,unpleasant,NA,NA,NA,NA,NA,left,785.800000011921,true,NA,NA,NA,NA,NA
XiEfazE0,3r0wocg22pm4csvtiwincc3gz22duj,3f6kkywmnfet4m9ecxb3n17etomnd7,XiEfazE0,2020-0188,2021-10-14,09:22:15,10:16:47,NA,incomplete,false,true,NA,5,19,NA,orange,m_l_018.jpg,NA,NA,pleasant,unpleasant,NA,NA,NA,NA,NA,left,923.800000011921,true,NA,NA,NA,NA,NA
XiEfazE0,3r0wocg22pm4csvtiwincc3gz22duj,3f6kkywmnfet4m9ecxb3n17etomnd7,XiEfazE0,2020-0188,2021-10-14,09:22:15,10:16:47,NA,incomplete,false,true,NA,5,20,NA,orange,m_s_056.jpg,NA,NA,pleasant,unpleasant,NA,NA,NA,NA,NA,left,694.199999988079,true,NA,NA,NA,NA,NA
XiEfazE0,3r0wocg22pm4csvtiwincc3gz22duj,3f6kkywmnfet4m9ecxb3n17etomnd7,XiEfazE0,2020-0188,2021-10-14,09:22:15,10:16:47,NA,incomplete,false,true,NA,5,21,NA,orange,n_s_048.jpg,NA,NA,unpleasant,pleasant,NA,NA,NA,NA,NA,right,657.700000047684,true,NA,NA,NA,NA,NA
XiEfazE0,3r0wocg22pm4csvtiwincc3gz22duj,3f6kkywmnfet4m9ecxb3n17etomnd7,XiEfazE0,2020-0188,2021-10-14,09:22:15,10:16:47,NA,incomplete,false,true,NA,5,22,NA,orange,m_l_057.jpg,NA,NA,pleasant,unpleasant,NA,NA,NA,NA,NA,left,740.200000047684,true,NA,NA,NA,NA,NA
XiEfazE0,3r0wocg22pm4csvtiwincc3gz22duj,3f6kkywmnfet4m9ecxb3n17etomnd7,XiEfazE0,2020-0188,2021-10-14,09:22:15,10:16:47,NA,incomplete,false,true,NA,5,23,NA,orange,m_l_019.jpg,NA,NA,unpleasant,pleasant,NA,NA,NA,NA,NA,right,614.800000011921,true,NA,NA,NA,NA,NA
XiEfazE0,3r0wocg22pm4csvtiwincc3gz22duj,3f6kkywmnfet4m9ecxb3n17etomnd7,XiEfazE0,2020-0188,2021-10-14,09:22:15,10:16:47,NA,incomplete,false,true,NA,5,24,NA,red,m_l_004.jpg,NA,NA,unpleasant,pleasant,NA,NA,NA,NA,NA,right,626.200000047684,true,NA,NA,NA,NA,NA
XiEfazE0,3r0wocg22pm4csvtiwincc3gz22duj,3f6kkywmnfet4m9ecxb3n17etomnd7,XiEfazE0,2020-0188,2021-10-14,09:22:15,10:16:47,NA,incomplete,false,true,NA,5,25,NA,red,n_l_088.jpg,NA,NA,unpleasant,pleasant,NA,NA,NA,NA,NA,right,556.900000035763,true,NA,NA,NA,NA,NA
XiEfazE0,3r0wocg22pm4csvtiwincc3gz22duj,3f6kkywmnfet4m9ecxb3n17etomnd7,XiEfazE0,2020-0188,2021-10-14,09:22:15,10:16:47,NA,incomplete,false,true,NA,5,26,NA,red,n_l_027.jpg,NA,NA,unpleasant,pleasant,NA,NA,NA,NA,NA,right,559.300000011921,true,NA,NA,NA,NA,NA
XiEfazE0,3r0wocg22pm4csvtiwincc3gz22duj,3f6kkywmnfet4m9ecxb3n17etomnd7,XiEfazE0,2020-0188,2021-10-14,09:22:15,10:16:47,NA,incomplete,false,true,NA,5,27,NA,red,m_l_005.jpg,NA,NA,unpleasant,pleasant,NA,NA,NA,NA,NA,right,514.800000011921,true,NA,NA,NA,NA,NA
XiEfazE0,3r0wocg22pm4csvtiwincc3gz22duj,3f6kkywmnfet4m9ecxb3n17etomnd7,XiEfazE0,2020-0188,2021-10-14,09:22:15,10:16:47,NA,incomplete,false,true,NA,5,28,NA,red,n_l_039.jpg,NA,NA,unpleasant,pleasant,NA,NA,NA,NA,NA,right,693.299999952316,true,NA,NA,NA,NA,NA
XiEfazE0,3r0wocg22pm4csvtiwincc3gz22duj,3f6kkywmnfet4m9ecxb3n17etomnd7,XiEfazE0,2020-0188,2021-10-14,09:22:15,10:16:47,NA,incomplete,false,true,NA,5,29,NA,red,m_l_070.jpg,NA,NA,unpleasant,pleasant,NA,NA,NA,NA,NA,left,976.399999976158,true,NA,NA,NA,NA,NA
XiEfazE0,3r0wocg22pm4csvtiwincc3gz22duj,3f6kkywmnfet4m9ecxb3n17etomnd7,XiEfazE0,2020-0188,2021-10-14,09:22:15,10:16:47,NA,incomplete,false,true,NA,5,30,NA,yellow,n_l_036.jpg,NA,NA,pleasant,unpleasant,NA,NA,NA,NA,NA,right,636.100000023842,true,NA,NA,NA,NA,NA
XiEfazE0,3r0wocg22pm4csvtiwincc3gz22duj,3f6kkywmnfet4m9ecxb3n17etomnd7,XiEfazE0,2020-0188,2021-10-14,09:22:15,10:16:47,NA,incomplete,false,true,NA,5,31,NA,yellow,m_s_099.jpg,NA,NA,pleasant,unpleasant,NA,NA,NA,NA,NA,left,845.899999976158,true,NA,NA,NA,NA,NA
XiEfazE0,3r0wocg22pm4csvtiwincc3gz22duj,3f6kkywmnfet4m9ecxb3n17etomnd7,XiEfazE0,2020-0188,2021-10-14,09:22:15,10:16:47,NA,incomplete,false,true,NA,5,32,NA,yellow,n_s_037.jpg,NA,NA,pleasant,unpleasant,NA,NA,NA,NA,NA,left,617.100000023842,true,NA,NA,NA,NA,NA
XiEfazE0,3r0wocg22pm4csvtiwincc3gz22duj,3f6kkywmnfet4m9ecxb3n17etomnd7,XiEfazE0,2020-0188,2021-10-14,09:22:15,10:16:47,NA,incomplete,false,true,NA,5,33,NA,yellow,n_l_022.jpg,NA,NA,pleasant,unpleasant,NA,NA,NA,NA,NA,right,924.699999988079,true,NA,NA,NA,NA,NA
XiEfazE0,3r0wocg22pm4csvtiwincc3gz22duj,3f6kkywmnfet4m9ecxb3n17etomnd7,XiEfazE0,2020-0188,2021-10-14,09:22:15,10:16:47,NA,incomplete,false,true,NA,5,34,NA,yellow,m_s_059.jpg,NA,NA,pleasant,unpleasant,NA,NA,NA,NA,NA,left,687.099999964237,true,NA,NA,NA,NA,NA
XiEfazE0,3r0wocg22pm4csvtiwincc3gz22duj,3f6kkywmnfet4m9ecxb3n17etomnd7,XiEfazE0,2020-0188,2021-10-14,09:22:15,10:16:47,NA,incomplete,false,true,NA,5,35,NA,yellow,n_l_034.jpg,NA,NA,unpleasant,pleasant,NA,NA,NA,NA,NA,right,833.800000011921,true,NA,NA,NA,NA,NA
XiEfazE0,3r0wocg22pm4csvtiwincc3gz22duj,3f6kkywmnfet4m9ecxb3n17etomnd7,XiEfazE0,2020-0188,2021-10-14,09:22:15,10:16:47,NA,incomplete,false,NA,true,5,0,NA,NA,NA,left,absent,NA,NA,n_s_008.jpg,purple,n_l_079.jpg,black,between,NA,NaN,NA,right,1140.9000000357628,0,1,859.5
XiEfazE0,3r0wocg22pm4csvtiwincc3gz22duj,3f6kkywmnfet4m9ecxb3n17etomnd7,XiEfazE0,2020-0188,2021-10-14,09:22:15,10:16:47,NA,incomplete,false,NA,true,5,1,NA,NA,NA,right,absent,NA,NA,n_s_098.jpg,white,m_l_031.jpg,white,within,NA,NaN,NA,left,1847.2000000476837,0,2,958.1000000238419
XiEfazE0,3r0wocg22pm4csvtiwincc3gz22duj,3f6kkywmnfet4m9ecxb3n17etomnd7,XiEfazE0,2020-0188,2021-10-14,09:22:15,10:16:47,NA,incomplete,false,NA,true,5,2,NA,NA,NA,left,absent,NA,NA,m_l_057.jpg,orange,n_l_027.jpg,red,between,NA,NaN,NA,left,1259.5,1,1,1246.8999999761581
XiEfazE0,3r0wocg22pm4csvtiwincc3gz22duj,3f6kkywmnfet4m9ecxb3n17etomnd7,XiEfazE0,2020-0188,2021-10-14,09:22:15,10:16:47,NA,incomplete,false,NA,true,5,3,NA,NA,NA,left,absent,NA,NA,n_l_088.jpg,red,m_l_070.jpg,red,within,NA,NaN,NA,right,1204.5,0,2,839.5999999642372
XiEfazE0,3r0wocg22pm4csvtiwincc3gz22duj,3f6kkywmnfet4m9ecxb3n17etomnd7,XiEfazE0,2020-0188,2021-10-14,09:22:15,10:16:47,NA,incomplete,false,NA,true,5,4,NA,NA,NA,right,absent,NA,NA,m_l_081.jpg,purple,n_s_064.jpg,purple,within,NA,NaN,NA,right,1224.300000011921,1,1,682.5
XiEfazE0,3r0wocg22pm4csvtiwincc3gz22duj,3f6kkywmnfet4m9ecxb3n17etomnd7,XiEfazE0,2020-0188,2021-10-14,09:22:15,10:16:47,NA,incomplete,false,NA,true,5,5,NA,NA,NA,right,absent,NA,NA,n_s_037.jpg,yellow,n_l_039.jpg,red,between,NA,NaN,NA,right,1267.3999999761581,1,1,1102.5
XiEfazE0,3r0wocg22pm4csvtiwincc3gz22duj,3f6kkywmnfet4m9ecxb3n17etomnd7,XiEfazE0,2020-0188,2021-10-14,09:22:15,10:16:47,NA,incomplete,false,NA,true,5,6,NA,NA,NA,right,absent,NA,NA,m_l_019.jpg,orange,m_l_018.jpg,orange,within,NA,NaN,NA,right,1860.4000000357628,1,1,783.4000000357628
XiEfazE0,3r0wocg22pm4csvtiwincc3gz22duj,3f6kkywmnfet4m9ecxb3n17etomnd7,XiEfazE0,2020-0188,2021-10-14,09:22:15,10:16:47,NA,incomplete,false,NA,true,5,7,NA,NA,NA,left,absent,NA,NA,m_s_083.jpg,black,m_s_056.jpg,orange,between,NA,NaN,NA,left,1252.6000000238419,1,2,959.3999999761581
XiEfazE0,3r0wocg22pm4csvtiwincc3gz22duj,3f6kkywmnfet4m9ecxb3n17etomnd7,XiEfazE0,2020-0188,2021-10-14,09:22:15,10:16:47,NA,incomplete,false,NA,true,5,8,NA,NA,NA,left,absent,NA,NA,n_s_097.jpg,white,m_s_034.jpg,purple,between,NA,NaN,NA,left,1526.4000000357628,1,1,730.3000000119209
XiEfazE0,3r0wocg22pm4csvtiwincc3gz22duj,3f6kkywmnfet4m9ecxb3n17etomnd7,XiEfazE0,2020-0188,2021-10-14,09:22:15,10:16:47,NA,incomplete,false,NA,true,5,9,NA,NA,NA,left,absent,NA,NA,n_l_045.jpg,black,n_l_041.jpg,black,within,NA,NaN,NA,left,1733.699999988079,1,1,1028.8999999761581
XiEfazE0,3r0wocg22pm4csvtiwincc3gz22duj,3f6kkywmnfet4m9ecxb3n17etomnd7,XiEfazE0,2020-0188,2021-10-14,09:22:15,10:16:47,NA,incomplete,false,NA,true,5,10,NA,NA,NA,left,absent,NA,NA,m_s_099.jpg,yellow,n_l_034.jpg,yellow,within,NA,NaN,NA,right,1178.6000000238419,0,2,789.5
XiEfazE0,3r0wocg22pm4csvtiwincc3gz22duj,3f6kkywmnfet4m9ecxb3n17etomnd7,XiEfazE0,2020-0188,2021-10-14,09:22:15,10:16:47,NA,incomplete,false,true,NA,6,0,NA,green,n_s_078.jpg,NA,NA,unpleasant,pleasant,NA,NA,NA,NA,NA,right,952.799999952316,true,NA,NA,NA,NA,NA
XiEfazE0,3r0wocg22pm4csvtiwincc3gz22duj,3f6kkywmnfet4m9ecxb3n17etomnd7,XiEfazE0,2020-0188,2021-10-14,09:22:15,10:16:47,NA,incomplete,false,true,NA,6,1,NA,green,m_l_013.jpg,NA,NA,pleasant,unpleasant,NA,NA,NA,NA,NA,left,963.699999988079,true,NA,NA,NA,NA,NA
XiEfazE0,3r0wocg22pm4csvtiwincc3gz22duj,3f6kkywmnfet4m9ecxb3n17etomnd7,XiEfazE0,2020-0188,2021-10-14,09:22:15,10:16:47,NA,incomplete,false,true,NA,6,2,NA,green,n_l_111.jpg,NA,NA,pleasant,unpleasant,NA,NA,NA,NA,NA,left,774.799999952316,true,NA,NA,NA,NA,NA
XiEfazE0,3r0wocg22pm4csvtiwincc3gz22duj,3f6kkywmnfet4m9ecxb3n17etomnd7,XiEfazE0,2020-0188,2021-10-14,09:22:15,10:16:47,NA,incomplete,false,true,NA,6,3,NA,green,m_l_116.jpg,NA,NA,unpleasant,pleasant,NA,NA,NA,NA,NA,right,618.399999976158,true,NA,NA,NA,NA,NA
XiEfazE0,3r0wocg22pm4csvtiwincc3gz22duj,3f6kkywmnfet4m9ecxb3n17etomnd7,XiEfazE0,2020-0188,2021-10-14,09:22:15,10:16:47,NA,incomplete,false,true,NA,6,4,NA,green,m_s_062.jpg,NA,NA,pleasant,unpleasant,NA,NA,NA,NA,NA,left,516.199999988079,true,NA,NA,NA,NA,NA
XiEfazE0,3r0wocg22pm4csvtiwincc3gz22duj,3f6kkywmnfet4m9ecxb3n17etomnd7,XiEfazE0,2020-0188,2021-10-14,09:22:15,10:16:47,NA,incomplete,false,true,NA,6,5,NA,green,m_l_103.jpg,NA,NA,pleasant,unpleasant,NA,NA,NA,NA,NA,left,927.399999976158,true,NA,NA,NA,NA,NA
XiEfazE0,3r0wocg22pm4csvtiwincc3gz22duj,3f6kkywmnfet4m9ecxb3n17etomnd7,XiEfazE0,2020-0188,2021-10-14,09:22:15,10:16:47,NA,incomplete,false,true,NA,6,6,NA,blue,m_s_109.jpg,NA,NA,pleasant,unpleasant,NA,NA,NA,NA,NA,left,643.100000023842,true,NA,NA,NA,NA,NA
XiEfazE0,3r0wocg22pm4csvtiwincc3gz22duj,3f6kkywmnfet4m9ecxb3n17etomnd7,XiEfazE0,2020-0188,2021-10-14,09:22:15,10:16:47,NA,incomplete,false,true,NA,6,7,NA,blue,m_l_048.jpg,NA,NA,pleasant,unpleasant,NA,NA,NA,NA,NA,left,1029.59999996424,true,NA,NA,NA,NA,NA
XiEfazE0,3r0wocg22pm4csvtiwincc3gz22duj,3f6kkywmnfet4m9ecxb3n17etomnd7,XiEfazE0,2020-0188,2021-10-14,09:22:15,10:16:47,NA,incomplete,false,true,NA,6,8,NA,blue,n_l_008.jpg,NA,NA,pleasant,unpleasant,NA,NA,NA,NA,NA,right,1496.59999996424,true,NA,NA,NA,NA,NA
XiEfazE0,3r0wocg22pm4csvtiwincc3gz22duj,3f6kkywmnfet4m9ecxb3n17etomnd7,XiEfazE0,2020-0188,2021-10-14,09:22:15,10:16:47,NA,incomplete,false,true,NA,6,9,NA,blue,n_l_050.jpg,NA,NA,pleasant,unpleasant,NA,NA,NA,NA,NA,left,700.100000023842,true,NA,NA,NA,NA,NA
XiEfazE0,3r0wocg22pm4csvtiwincc3gz22duj,3f6kkywmnfet4m9ecxb3n17etomnd7,XiEfazE0,2020-0188,2021-10-14,09:22:15,10:16:47,NA,incomplete,false,true,NA,6,10,NA,blue,n_s_039.jpg,NA,NA,pleasant,unpleasant,NA,NA,NA,NA,NA,left,910.699999988079,true,NA,NA,NA,NA,NA
XiEfazE0,3r0wocg22pm4csvtiwincc3gz22duj,3f6kkywmnfet4m9ecxb3n17etomnd7,XiEfazE0,2020-0188,2021-10-14,09:22:15,10:16:47,NA,incomplete,false,true,NA,6,11,NA,blue,n_s_028.jpg,NA,NA,pleasant,unpleasant,NA,NA,NA,NA,NA,left,969.800000011921,true,NA,NA,NA,NA,NA
XiEfazE0,3r0wocg22pm4csvtiwincc3gz22duj,3f6kkywmnfet4m9ecxb3n17etomnd7,XiEfazE0,2020-0188,2021-10-14,09:22:15,10:16:47,NA,incomplete,false,true,NA,6,12,NA,brown,m_s_030.jpg,NA,NA,pleasant,unpleasant,NA,NA,NA,NA,NA,left,1052.69999998808,true,NA,NA,NA,NA,NA
XiEfazE0,3r0wocg22pm4csvtiwincc3gz22duj,3f6kkywmnfet4m9ecxb3n17etomnd7,XiEfazE0,2020-0188,2021-10-14,09:22:15,10:16:47,NA,incomplete,false,true,NA,6,13,NA,brown,n_s_101.jpg,NA,NA,unpleasant,pleasant,NA,NA,NA,NA,NA,right,1326.69999998808,true,NA,NA,NA,NA,NA
XiEfazE0,3r0wocg22pm4csvtiwincc3gz22duj,3f6kkywmnfet4m9ecxb3n17etomnd7,XiEfazE0,2020-0188,2021-10-14,09:22:15,10:16:47,NA,incomplete,false,true,NA,6,14,NA,brown,n_s_032.jpg,NA,NA,unpleasant,pleasant,NA,NA,NA,NA,NA,right,1217.5,true,NA,NA,NA,NA,NA
XiEfazE0,3r0wocg22pm4csvtiwincc3gz22duj,3f6kkywmnfet4m9ecxb3n17etomnd7,XiEfazE0,2020-0188,2021-10-14,09:22:15,10:16:47,NA,incomplete,false,true,NA,6,15,NA,brown,m_l_113.jpg,NA,NA,pleasant,unpleasant,NA,NA,NA,NA,NA,left,1084.5,true,NA,NA,NA,NA,NA
XiEfazE0,3r0wocg22pm4csvtiwincc3gz22duj,3f6kkywmnfet4m9ecxb3n17etomnd7,XiEfazE0,2020-0188,2021-10-14,09:22:15,10:16:47,NA,incomplete,false,true,NA,6,16,NA,brown,n_s_068.jpg,NA,NA,pleasant,unpleasant,NA,NA,NA,NA,NA,left,798.5,true,NA,NA,NA,NA,NA
XiEfazE0,3r0wocg22pm4csvtiwincc3gz22duj,3f6kkywmnfet4m9ecxb3n17etomnd7,XiEfazE0,2020-0188,2021-10-14,09:22:15,10:16:47,NA,incomplete,false,true,NA,6,17,NA,brown,n_s_027.jpg,NA,NA,unpleasant,pleasant,NA,NA,NA,NA,NA,right,673.600000023842,true,NA,NA,NA,NA,NA
XiEfazE0,3r0wocg22pm4csvtiwincc3gz22duj,3f6kkywmnfet4m9ecxb3n17etomnd7,XiEfazE0,2020-0188,2021-10-14,09:22:15,10:16:47,NA,incomplete,false,true,NA,6,18,NA,yellow,m_s_006.jpg,NA,NA,unpleasant,pleasant,NA,NA,NA,NA,NA,left,1044.40000003576,true,NA,NA,NA,NA,NA
XiEfazE0,3r0wocg22pm4csvtiwincc3gz22duj,3f6kkywmnfet4m9ecxb3n17etomnd7,XiEfazE0,2020-0188,2021-10-14,09:22:15,10:16:47,NA,incomplete,false,true,NA,6,19,NA,yellow,n_s_001.jpg,NA,NA,unpleasant,pleasant,NA,NA,NA,NA,NA,left,1311.10000002384,true,NA,NA,NA,NA,NA
XiEfazE0,3r0wocg22pm4csvtiwincc3gz22duj,3f6kkywmnfet4m9ecxb3n17etomnd7,XiEfazE0,2020-0188,2021-10-14,09:22:15,10:16:47,NA,incomplete,false,true,NA,6,20,NA,yellow,m_s_061.jpg,NA,NA,pleasant,unpleasant,NA,NA,NA,NA,NA,left,1082.09999996424,true,NA,NA,NA,NA,NA
XiEfazE0,3r0wocg22pm4csvtiwincc3gz22duj,3f6kkywmnfet4m9ecxb3n17etomnd7,XiEfazE0,2020-0188,2021-10-14,09:22:15,10:16:47,NA,incomplete,false,true,NA,6,21,NA,yellow,m_s_053.jpg,NA,NA,unpleasant,pleasant,NA,NA,NA,NA,NA,right,701.600000023842,true,NA,NA,NA,NA,NA
XiEfazE0,3r0wocg22pm4csvtiwincc3gz22duj,3f6kkywmnfet4m9ecxb3n17etomnd7,XiEfazE0,2020-0188,2021-10-14,09:22:15,10:16:47,NA,incomplete,false,true,NA,6,22,NA,yellow,m_s_110.jpg,NA,NA,pleasant,unpleasant,NA,NA,NA,NA,NA,left,839.599999964237,true,NA,NA,NA,NA,NA
XiEfazE0,3r0wocg22pm4csvtiwincc3gz22duj,3f6kkywmnfet4m9ecxb3n17etomnd7,XiEfazE0,2020-0188,2021-10-14,09:22:15,10:16:47,NA,incomplete,false,true,NA,6,23,NA,yellow,m_s_033.jpg,NA,NA,pleasant,unpleasant,NA,NA,NA,NA,NA,left,858,true,NA,NA,NA,NA,NA
XiEfazE0,3r0wocg22pm4csvtiwincc3gz22duj,3f6kkywmnfet4m9ecxb3n17etomnd7,XiEfazE0,2020-0188,2021-10-14,09:22:15,10:16:47,NA,incomplete,false,true,NA,6,24,NA,white,m_l_071.jpg,NA,NA,pleasant,unpleasant,NA,NA,NA,NA,NA,left,869.599999964237,true,NA,NA,NA,NA,NA
XiEfazE0,3r0wocg22pm4csvtiwincc3gz22duj,3f6kkywmnfet4m9ecxb3n17etomnd7,XiEfazE0,2020-0188,2021-10-14,09:22:15,10:16:47,NA,incomplete,false,true,NA,6,25,NA,white,n_l_084.jpg,NA,NA,pleasant,unpleasant,NA,NA,NA,NA,NA,left,1447.60000002384,true,NA,NA,NA,NA,NA
XiEfazE0,3r0wocg22pm4csvtiwincc3gz22duj,3f6kkywmnfet4m9ecxb3n17etomnd7,XiEfazE0,2020-0188,2021-10-14,09:22:15,10:16:47,NA,incomplete,false,true,NA,6,26,NA,white,n_l_096.jpg,NA,NA,unpleasant,pleasant,NA,NA,NA,NA,NA,right,810.5,true,NA,NA,NA,NA,NA
XiEfazE0,3r0wocg22pm4csvtiwincc3gz22duj,3f6kkywmnfet4m9ecxb3n17etomnd7,XiEfazE0,2020-0188,2021-10-14,09:22:15,10:16:47,NA,incomplete,false,true,NA,6,27,NA,white,m_l_036.jpg,NA,NA,pleasant,unpleasant,NA,NA,NA,NA,NA,left,1150.19999998808,true,NA,NA,NA,NA,NA
XiEfazE0,3r0wocg22pm4csvtiwincc3gz22duj,3f6kkywmnfet4m9ecxb3n17etomnd7,XiEfazE0,2020-0188,2021-10-14,09:22:15,10:16:47,NA,incomplete,false,true,NA,6,28,NA,white,n_l_006.jpg,NA,NA,pleasant,unpleasant,NA,NA,NA,NA,NA,left,752.699999988079,true,NA,NA,NA,NA,NA
XiEfazE0,3r0wocg22pm4csvtiwincc3gz22duj,3f6kkywmnfet4m9ecxb3n17etomnd7,XiEfazE0,2020-0188,2021-10-14,09:22:15,10:16:47,NA,incomplete,false,true,NA,6,29,NA,white,m_l_088.jpg,NA,NA,unpleasant,pleasant,NA,NA,NA,NA,NA,right,955.099999964237,true,NA,NA,NA,NA,NA
XiEfazE0,3r0wocg22pm4csvtiwincc3gz22duj,3f6kkywmnfet4m9ecxb3n17etomnd7,XiEfazE0,2020-0188,2021-10-14,09:22:15,10:16:47,NA,incomplete,false,true,NA,6,30,NA,orange,n_s_086.jpg,NA,NA,unpleasant,pleasant,NA,NA,NA,NA,NA,right,902,true,NA,NA,NA,NA,NA
XiEfazE0,3r0wocg22pm4csvtiwincc3gz22duj,3f6kkywmnfet4m9ecxb3n17etomnd7,XiEfazE0,2020-0188,2021-10-14,09:22:15,10:16:47,NA,incomplete,false,true,NA,6,31,NA,orange,m_s_024.jpg,NA,NA,pleasant,unpleasant,NA,NA,NA,NA,NA,left,975.900000035763,true,NA,NA,NA,NA,NA
XiEfazE0,3r0wocg22pm4csvtiwincc3gz22duj,3f6kkywmnfet4m9ecxb3n17etomnd7,XiEfazE0,2020-0188,2021-10-14,09:22:15,10:16:47,NA,incomplete,false,true,NA,6,32,NA,orange,m_l_101.jpg,NA,NA,pleasant,unpleasant,NA,NA,NA,NA,NA,left,867.199999988079,true,NA,NA,NA,NA,NA
XiEfazE0,3r0wocg22pm4csvtiwincc3gz22duj,3f6kkywmnfet4m9ecxb3n17etomnd7,XiEfazE0,2020-0188,2021-10-14,09:22:15,10:16:47,NA,incomplete,false,true,NA,6,33,NA,orange,m_l_068.jpg,NA,NA,pleasant,unpleasant,NA,NA,NA,NA,NA,left,1046.60000002384,true,NA,NA,NA,NA,NA
XiEfazE0,3r0wocg22pm4csvtiwincc3gz22duj,3f6kkywmnfet4m9ecxb3n17etomnd7,XiEfazE0,2020-0188,2021-10-14,09:22:15,10:16:47,NA,incomplete,false,true,NA,6,34,NA,orange,n_l_001.jpg,NA,NA,unpleasant,pleasant,NA,NA,NA,NA,NA,right,697.199999988079,true,NA,NA,NA,NA,NA
XiEfazE0,3r0wocg22pm4csvtiwincc3gz22duj,3f6kkywmnfet4m9ecxb3n17etomnd7,XiEfazE0,2020-0188,2021-10-14,09:22:15,10:16:47,NA,incomplete,false,true,NA,6,35,NA,orange,n_l_004.jpg,NA,NA,unpleasant,pleasant,NA,NA,NA,NA,NA,right,604.200000047684,true,NA,NA,NA,NA,NA
XiEfazE0,3r0wocg22pm4csvtiwincc3gz22duj,3f6kkywmnfet4m9ecxb3n17etomnd7,XiEfazE0,2020-0188,2021-10-14,09:22:15,10:16:47,NA,incomplete,false,NA,true,6,0,NA,NA,NA,right,absent,NA,NA,n_l_004.jpg,orange,m_s_024.jpg,orange,within,NA,NaN,NA,right,1769.9000000357628,1,2,1835.199999988079
XiEfazE0,3r0wocg22pm4csvtiwincc3gz22duj,3f6kkywmnfet4m9ecxb3n17etomnd7,XiEfazE0,2020-0188,2021-10-14,09:22:15,10:16:47,NA,incomplete,false,NA,true,6,1,NA,NA,NA,right,absent,NA,NA,m_l_101.jpg,orange,n_l_006.jpg,white,between,NA,NaN,NA,right,1166.0999999642372,1,1,1419.2999999523163
XiEfazE0,3r0wocg22pm4csvtiwincc3gz22duj,3f6kkywmnfet4m9ecxb3n17etomnd7,XiEfazE0,2020-0188,2021-10-14,09:22:15,10:16:47,NA,incomplete,false,NA,true,6,2,NA,NA,NA,left,absent,NA,NA,n_s_068.jpg,brown,m_s_061.jpg,yellow,between,NA,NaN,NA,left,1157.300000011921,1,1,1088.3999999761581
XiEfazE0,3r0wocg22pm4csvtiwincc3gz22duj,3f6kkywmnfet4m9ecxb3n17etomnd7,XiEfazE0,2020-0188,2021-10-14,09:22:15,10:16:47,NA,incomplete,false,NA,true,6,3,NA,NA,NA,right,absent,NA,NA,m_l_103.jpg,green,m_l_013.jpg,green,within,NA,NaN,NA,left,1174.2000000476837,0,2,1174.6000000238419
XiEfazE0,3r0wocg22pm4csvtiwincc3gz22duj,3f6kkywmnfet4m9ecxb3n17etomnd7,XiEfazE0,2020-0188,2021-10-14,09:22:15,10:16:47,NA,incomplete,false,NA,true,6,4,NA,NA,NA,right,absent,NA,NA,n_s_028.jpg,blue,m_l_048.jpg,blue,within,NA,NaN,NA,right,1083.3999999761581,1,1,1012.6000000238419
XiEfazE0,3r0wocg22pm4csvtiwincc3gz22duj,3f6kkywmnfet4m9ecxb3n17etomnd7,XiEfazE0,2020-0188,2021-10-14,09:22:15,10:16:47,NA,incomplete,false,NA,true,6,5,NA,NA,NA,right,absent,NA,NA,m_l_088.jpg,white,n_l_084.jpg,white,within,NA,NaN,NA,left,1358.5,0,1,788.6999999880791
XiEfazE0,3r0wocg22pm4csvtiwincc3gz22duj,3f6kkywmnfet4m9ecxb3n17etomnd7,XiEfazE0,2020-0188,2021-10-14,09:22:15,10:16:47,NA,incomplete,false,NA,true,6,6,NA,NA,NA,right,absent,NA,NA,n_s_027.jpg,brown,n_s_101.jpg,brown,within,NA,NaN,NA,left,1349.5,0,2,681.3000000119209
XiEfazE0,3r0wocg22pm4csvtiwincc3gz22duj,3f6kkywmnfet4m9ecxb3n17etomnd7,XiEfazE0,2020-0188,2021-10-14,09:22:15,10:16:47,NA,incomplete,false,NA,true,6,7,NA,NA,NA,right,absent,NA,NA,m_s_033.jpg,yellow,n_s_001.jpg,yellow,within,NA,NaN,NA,right,1057.4000000357628,1,1,831.5999999642372
XiEfazE0,3r0wocg22pm4csvtiwincc3gz22duj,3f6kkywmnfet4m9ecxb3n17etomnd7,XiEfazE0,2020-0188,2021-10-14,09:22:15,10:16:47,NA,incomplete,false,NA,true,6,8,NA,NA,NA,right,absent,NA,NA,n_s_032.jpg,brown,n_s_039.jpg,blue,between,NA,NaN,NA,right,1412.3999999761581,1,1,980.3000000119209
XiEfazE0,3r0wocg22pm4csvtiwincc3gz22duj,3f6kkywmnfet4m9ecxb3n17etomnd7,XiEfazE0,2020-0188,2021-10-14,09:22:15,10:16:47,NA,incomplete,false,NA,true,6,9,NA,NA,NA,right,absent,NA,NA,n_l_096.jpg,white,m_s_110.jpg,yellow,between,NA,NaN,NA,left,1358.2000000476837,0,1,960.5
XiEfazE0,3r0wocg22pm4csvtiwincc3gz22duj,3f6kkywmnfet4m9ecxb3n17etomnd7,XiEfazE0,2020-0188,2021-10-14,09:22:15,10:16:47,NA,incomplete,false,NA,true,6,10,NA,NA,NA,left,absent,NA,NA,m_s_062.jpg,green,n_l_008.jpg,blue,between,NA,NaN,NA,right,1004.3999999761581,0,2,987.1000000238419
XiEfazE0,3r0wocg22pm4csvtiwincc3gz22duj,3f6kkywmnfet4m9ecxb3n17etomnd7,XiEfazE0,2020-0188,2021-10-14,09:22:15,10:16:47,NA,incomplete,false,true,NA,7,0,NA,black,n_l_007.jpg,NA,NA,unpleasant,pleasant,NA,NA,NA,NA,NA,right,853.599999964237,true,NA,NA,NA,NA,NA
XiEfazE0,3r0wocg22pm4csvtiwincc3gz22duj,3f6kkywmnfet4m9ecxb3n17etomnd7,XiEfazE0,2020-0188,2021-10-14,09:22:15,10:16:47,NA,incomplete,false,true,NA,7,1,NA,black,m_s_037.jpg,NA,NA,pleasant,unpleasant,NA,NA,NA,NA,NA,left,1254.40000003576,true,NA,NA,NA,NA,NA
XiEfazE0,3r0wocg22pm4csvtiwincc3gz22duj,3f6kkywmnfet4m9ecxb3n17etomnd7,XiEfazE0,2020-0188,2021-10-14,09:22:15,10:16:47,NA,incomplete,false,true,NA,7,2,NA,black,m_l_105.jpg,NA,NA,unpleasant,pleasant,NA,NA,NA,NA,NA,right,728.699999988079,true,NA,NA,NA,NA,NA
XiEfazE0,3r0wocg22pm4csvtiwincc3gz22duj,3f6kkywmnfet4m9ecxb3n17etomnd7,XiEfazE0,2020-0188,2021-10-14,09:22:15,10:16:47,NA,incomplete,false,true,NA,7,3,NA,black,m_s_057.jpg,NA,NA,unpleasant,pleasant,NA,NA,NA,NA,NA,right,844.300000011921,true,NA,NA,NA,NA,NA
XiEfazE0,3r0wocg22pm4csvtiwincc3gz22duj,3f6kkywmnfet4m9ecxb3n17etomnd7,XiEfazE0,2020-0188,2021-10-14,09:22:15,10:16:47,NA,incomplete,false,true,NA,7,4,NA,black,m_l_097.jpg,NA,NA,unpleasant,pleasant,NA,NA,NA,NA,NA,right,614.899999976158,true,NA,NA,NA,NA,NA
XiEfazE0,3r0wocg22pm4csvtiwincc3gz22duj,3f6kkywmnfet4m9ecxb3n17etomnd7,XiEfazE0,2020-0188,2021-10-14,09:22:15,10:16:47,NA,incomplete,false,true,NA,7,5,NA,black,n_l_054.jpg,NA,NA,pleasant,unpleasant,NA,NA,NA,NA,NA,left,665.599999964237,true,NA,NA,NA,NA,NA
XiEfazE0,3r0wocg22pm4csvtiwincc3gz22duj,3f6kkywmnfet4m9ecxb3n17etomnd7,XiEfazE0,2020-0188,2021-10-14,09:22:15,10:16:47,NA,incomplete,false,true,NA,7,6,NA,blue,m_l_014.jpg,NA,NA,unpleasant,pleasant,NA,NA,NA,NA,NA,right,741.700000047684,true,NA,NA,NA,NA,NA
XiEfazE0,3r0wocg22pm4csvtiwincc3gz22duj,3f6kkywmnfet4m9ecxb3n17etomnd7,XiEfazE0,2020-0188,2021-10-14,09:22:15,10:16:47,NA,incomplete,false,true,NA,7,7,NA,blue,n_s_007.jpg,NA,NA,unpleasant,pleasant,NA,NA,NA,NA,NA,right,712.100000023842,true,NA,NA,NA,NA,NA
XiEfazE0,3r0wocg22pm4csvtiwincc3gz22duj,3f6kkywmnfet4m9ecxb3n17etomnd7,XiEfazE0,2020-0188,2021-10-14,09:22:15,10:16:47,NA,incomplete,false,true,NA,7,8,NA,blue,m_l_062.jpg,NA,NA,pleasant,unpleasant,NA,NA,NA,NA,NA,left,963.099999964237,true,NA,NA,NA,NA,NA
XiEfazE0,3r0wocg22pm4csvtiwincc3gz22duj,3f6kkywmnfet4m9ecxb3n17etomnd7,XiEfazE0,2020-0188,2021-10-14,09:22:15,10:16:47,NA,incomplete,false,true,NA,7,9,NA,blue,n_l_066.jpg,NA,NA,unpleasant,pleasant,NA,NA,NA,NA,NA,right,742.800000011921,true,NA,NA,NA,NA,NA
XiEfazE0,3r0wocg22pm4csvtiwincc3gz22duj,3f6kkywmnfet4m9ecxb3n17etomnd7,XiEfazE0,2020-0188,2021-10-14,09:22:15,10:16:47,NA,incomplete,false,true,NA,7,10,NA,blue,m_s_029.jpg,NA,NA,unpleasant,pleasant,NA,NA,NA,NA,NA,right,777.299999952316,true,NA,NA,NA,NA,NA
XiEfazE0,3r0wocg22pm4csvtiwincc3gz22duj,3f6kkywmnfet4m9ecxb3n17etomnd7,XiEfazE0,2020-0188,2021-10-14,09:22:15,10:16:47,NA,incomplete,false,true,NA,7,11,NA,blue,m_s_064.jpg,NA,NA,pleasant,unpleasant,NA,NA,NA,NA,NA,left,988.199999988079,true,NA,NA,NA,NA,NA
XiEfazE0,3r0wocg22pm4csvtiwincc3gz22duj,3f6kkywmnfet4m9ecxb3n17etomnd7,XiEfazE0,2020-0188,2021-10-14,09:22:15,10:16:47,NA,incomplete,false,true,NA,7,12,NA,gray,m_l_003.jpg,NA,NA,pleasant,unpleasant,NA,NA,NA,NA,NA,left,927.5,true,NA,NA,NA,NA,NA
XiEfazE0,3r0wocg22pm4csvtiwincc3gz22duj,3f6kkywmnfet4m9ecxb3n17etomnd7,XiEfazE0,2020-0188,2021-10-14,09:22:15,10:16:47,NA,incomplete,false,true,NA,7,13,NA,gray,m_s_060.jpg,NA,NA,unpleasant,pleasant,NA,NA,NA,NA,NA,right,545.899999976158,true,NA,NA,NA,NA,NA
XiEfazE0,3r0wocg22pm4csvtiwincc3gz22duj,3f6kkywmnfet4m9ecxb3n17etomnd7,XiEfazE0,2020-0188,2021-10-14,09:22:15,10:16:47,NA,incomplete,false,true,NA,7,14,NA,gray,m_s_068.jpg,NA,NA,pleasant,unpleasant,NA,NA,NA,NA,NA,left,677,true,NA,NA,NA,NA,NA
XiEfazE0,3r0wocg22pm4csvtiwincc3gz22duj,3f6kkywmnfet4m9ecxb3n17etomnd7,XiEfazE0,2020-0188,2021-10-14,09:22:15,10:16:47,NA,incomplete,false,true,NA,7,15,NA,gray,n_s_031.jpg,NA,NA,pleasant,unpleasant,NA,NA,NA,NA,NA,left,936.599999964237,true,NA,NA,NA,NA,NA
XiEfazE0,3r0wocg22pm4csvtiwincc3gz22duj,3f6kkywmnfet4m9ecxb3n17etomnd7,XiEfazE0,2020-0188,2021-10-14,09:22:15,10:16:47,NA,incomplete,false,true,NA,7,16,NA,gray,n_s_092.jpg,NA,NA,pleasant,unpleasant,NA,NA,NA,NA,NA,left,714.5,true,NA,NA,NA,NA,NA
XiEfazE0,3r0wocg22pm4csvtiwincc3gz22duj,3f6kkywmnfet4m9ecxb3n17etomnd7,XiEfazE0,2020-0188,2021-10-14,09:22:15,10:16:47,NA,incomplete,false,true,NA,7,17,NA,gray,n_s_014.jpg,NA,NA,unpleasant,pleasant,NA,NA,NA,NA,NA,right,781.599999964237,true,NA,NA,NA,NA,NA
XiEfazE0,3r0wocg22pm4csvtiwincc3gz22duj,3f6kkywmnfet4m9ecxb3n17etomnd7,XiEfazE0,2020-0188,2021-10-14,09:22:15,10:16:47,NA,incomplete,false,true,NA,7,18,NA,green,m_s_045.jpg,NA,NA,pleasant,unpleasant,NA,NA,NA,NA,NA,left,641.099999964237,true,NA,NA,NA,NA,NA
XiEfazE0,3r0wocg22pm4csvtiwincc3gz22duj,3f6kkywmnfet4m9ecxb3n17etomnd7,XiEfazE0,2020-0188,2021-10-14,09:22:15,10:16:47,NA,incomplete,false,true,NA,7,19,NA,green,m_s_108.jpg,NA,NA,pleasant,unpleasant,NA,NA,NA,NA,NA,left,851.699999988079,true,NA,NA,NA,NA,NA
XiEfazE0,3r0wocg22pm4csvtiwincc3gz22duj,3f6kkywmnfet4m9ecxb3n17etomnd7,XiEfazE0,2020-0188,2021-10-14,09:22:15,10:16:47,NA,incomplete,false,true,NA,7,20,NA,green,n_s_033.jpg,NA,NA,unpleasant,pleasant,NA,NA,NA,NA,NA,right,758.199999988079,true,NA,NA,NA,NA,NA
XiEfazE0,3r0wocg22pm4csvtiwincc3gz22duj,3f6kkywmnfet4m9ecxb3n17etomnd7,XiEfazE0,2020-0188,2021-10-14,09:22:15,10:16:47,NA,incomplete,false,true,NA,7,21,NA,green,n_l_059.jpg,NA,NA,unpleasant,pleasant,NA,NA,NA,NA,NA,right,697.600000023842,true,NA,NA,NA,NA,NA
XiEfazE0,3r0wocg22pm4csvtiwincc3gz22duj,3f6kkywmnfet4m9ecxb3n17etomnd7,XiEfazE0,2020-0188,2021-10-14,09:22:15,10:16:47,NA,incomplete,false,true,NA,7,22,NA,green,n_s_038.jpg,NA,NA,pleasant,unpleasant,NA,NA,NA,NA,NA,right,1140.39999997616,true,NA,NA,NA,NA,NA
XiEfazE0,3r0wocg22pm4csvtiwincc3gz22duj,3f6kkywmnfet4m9ecxb3n17etomnd7,XiEfazE0,2020-0188,2021-10-14,09:22:15,10:16:47,NA,incomplete,false,true,NA,7,23,NA,green,n_l_016.jpg,NA,NA,unpleasant,pleasant,NA,NA,NA,NA,NA,right,742.699999988079,true,NA,NA,NA,NA,NA
XiEfazE0,3r0wocg22pm4csvtiwincc3gz22duj,3f6kkywmnfet4m9ecxb3n17etomnd7,XiEfazE0,2020-0188,2021-10-14,09:22:15,10:16:47,NA,incomplete,false,true,NA,7,24,NA,yellow,m_s_026.jpg,NA,NA,unpleasant,pleasant,NA,NA,NA,NA,NA,right,674.199999988079,true,NA,NA,NA,NA,NA
XiEfazE0,3r0wocg22pm4csvtiwincc3gz22duj,3f6kkywmnfet4m9ecxb3n17etomnd7,XiEfazE0,2020-0188,2021-10-14,09:22:15,10:16:47,NA,incomplete,false,true,NA,7,25,NA,yellow,m_s_105.jpg,NA,NA,pleasant,unpleasant,NA,NA,NA,NA,NA,left,772.899999976158,true,NA,NA,NA,NA,NA
XiEfazE0,3r0wocg22pm4csvtiwincc3gz22duj,3f6kkywmnfet4m9ecxb3n17etomnd7,XiEfazE0,2020-0188,2021-10-14,09:22:15,10:16:47,NA,incomplete,false,true,NA,7,26,NA,yellow,m_l_044.jpg,NA,NA,pleasant,unpleasant,NA,NA,NA,NA,NA,left,863.199999988079,true,NA,NA,NA,NA,NA
XiEfazE0,3r0wocg22pm4csvtiwincc3gz22duj,3f6kkywmnfet4m9ecxb3n17etomnd7,XiEfazE0,2020-0188,2021-10-14,09:22:15,10:16:47,NA,incomplete,false,true,NA,7,27,NA,yellow,m_s_008.jpg,NA,NA,unpleasant,pleasant,NA,NA,NA,NA,NA,right,586.799999952316,true,NA,NA,NA,NA,NA
XiEfazE0,3r0wocg22pm4csvtiwincc3gz22duj,3f6kkywmnfet4m9ecxb3n17etomnd7,XiEfazE0,2020-0188,2021-10-14,09:22:15,10:16:47,NA,incomplete,false,true,NA,7,28,NA,yellow,m_s_107.jpg,NA,NA,unpleasant,pleasant,NA,NA,NA,NA,NA,right,972.799999952316,true,NA,NA,NA,NA,NA
XiEfazE0,3r0wocg22pm4csvtiwincc3gz22duj,3f6kkywmnfet4m9ecxb3n17etomnd7,XiEfazE0,2020-0188,2021-10-14,09:22:15,10:16:47,NA,incomplete,false,true,NA,7,29,NA,yellow,m_l_051.jpg,NA,NA,pleasant,unpleasant,NA,NA,NA,NA,NA,left,703.199999988079,true,NA,NA,NA,NA,NA
XiEfazE0,3r0wocg22pm4csvtiwincc3gz22duj,3f6kkywmnfet4m9ecxb3n17etomnd7,XiEfazE0,2020-0188,2021-10-14,09:22:15,10:16:47,NA,incomplete,false,true,NA,7,30,NA,red,n_l_112.jpg,NA,NA,pleasant,unpleasant,NA,NA,NA,NA,NA,left,850,true,NA,NA,NA,NA,NA
XiEfazE0,3r0wocg22pm4csvtiwincc3gz22duj,3f6kkywmnfet4m9ecxb3n17etomnd7,XiEfazE0,2020-0188,2021-10-14,09:22:15,10:16:47,NA,incomplete,false,true,NA,7,31,NA,red,m_s_114.jpg,NA,NA,pleasant,unpleasant,NA,NA,NA,NA,NA,left,988.600000023842,true,NA,NA,NA,NA,NA
XiEfazE0,3r0wocg22pm4csvtiwincc3gz22duj,3f6kkywmnfet4m9ecxb3n17etomnd7,XiEfazE0,2020-0188,2021-10-14,09:22:15,10:16:47,NA,incomplete,false,true,NA,7,32,NA,red,n_l_062.jpg,NA,NA,unpleasant,pleasant,NA,NA,NA,NA,NA,right,910.899999976158,true,NA,NA,NA,NA,NA
XiEfazE0,3r0wocg22pm4csvtiwincc3gz22duj,3f6kkywmnfet4m9ecxb3n17etomnd7,XiEfazE0,2020-0188,2021-10-14,09:22:15,10:16:47,NA,incomplete,false,true,NA,7,33,NA,red,n_s_093.jpg,NA,NA,pleasant,unpleasant,NA,NA,NA,NA,NA,right,826.5,true,NA,NA,NA,NA,NA
XiEfazE0,3r0wocg22pm4csvtiwincc3gz22duj,3f6kkywmnfet4m9ecxb3n17etomnd7,XiEfazE0,2020-0188,2021-10-14,09:22:15,10:16:47,NA,incomplete,false,true,NA,7,34,NA,red,m_l_102.jpg,NA,NA,unpleasant,pleasant,NA,NA,NA,NA,NA,right,789.199999988079,true,NA,NA,NA,NA,NA
XiEfazE0,3r0wocg22pm4csvtiwincc3gz22duj,3f6kkywmnfet4m9ecxb3n17etomnd7,XiEfazE0,2020-0188,2021-10-14,09:22:15,10:16:47,NA,incomplete,false,true,NA,7,35,NA,red,n_s_117.jpg,NA,NA,unpleasant,pleasant,NA,NA,NA,NA,NA,right,1039.69999998808,true,NA,NA,NA,NA,NA
XiEfazE0,3r0wocg22pm4csvtiwincc3gz22duj,3f6kkywmnfet4m9ecxb3n17etomnd7,XiEfazE0,2020-0188,2021-10-14,09:22:15,10:16:47,NA,incomplete,false,NA,true,7,0,NA,NA,NA,left,present,NA,NA,m_s_114.jpg,red,n_s_117.jpg,red,within,NA,NaN,NA,left,1599.2999999523163,1,1,1169.2000000476837
XiEfazE0,3r0wocg22pm4csvtiwincc3gz22duj,3f6kkywmnfet4m9ecxb3n17etomnd7,XiEfazE0,2020-0188,2021-10-14,09:22:15,10:16:47,NA,incomplete,false,NA,true,7,1,NA,NA,NA,left,present,NA,NA,m_s_029.jpg,blue,m_s_068.jpg,gray,between,NA,NaN,NA,right,1156.199999988079,0,1,860.3000000119209
XiEfazE0,3r0wocg22pm4csvtiwincc3gz22duj,3f6kkywmnfet4m9ecxb3n17etomnd7,XiEfazE0,2020-0188,2021-10-14,09:22:15,10:16:47,NA,incomplete,false,NA,true,7,2,NA,NA,NA,right,present,NA,NA,n_l_016.jpg,green,m_s_108.jpg,green,within,NA,NaN,NA,left,1458,0,0,1223.5
XiEfazE0,3r0wocg22pm4csvtiwincc3gz22duj,3f6kkywmnfet4m9ecxb3n17etomnd7,XiEfazE0,2020-0188,2021-10-14,09:22:15,10:16:47,NA,incomplete,false,NA,true,7,3,NA,NA,NA,left,present,NA,NA,m_s_060.jpg,gray,n_s_014.jpg,gray,within,NA,NaN,NA,right,1049.6000000238419,0,1,975.6999999880791
XiEfazE0,3r0wocg22pm4csvtiwincc3gz22duj,3f6kkywmnfet4m9ecxb3n17etomnd7,XiEfazE0,2020-0188,2021-10-14,09:22:15,10:16:47,NA,incomplete,false,NA,true,7,4,NA,NA,NA,right,present,NA,NA,n_l_054.jpg,black,m_s_037.jpg,black,within,NA,NaN,NA,right,1499.5999999642372,1,0,1227.300000011921
XiEfazE0,3r0wocg22pm4csvtiwincc3gz22duj,3f6kkywmnfet4m9ecxb3n17etomnd7,XiEfazE0,2020-0188,2021-10-14,09:22:15,10:16:47,NA,incomplete,false,NA,true,7,5,NA,NA,NA,left,present,NA,NA,n_s_038.jpg,green,m_l_044.jpg,yellow,between,NA,NaN,NA,left,3190,1,2,891
XiEfazE0,3r0wocg22pm4csvtiwincc3gz22duj,3f6kkywmnfet4m9ecxb3n17etomnd7,XiEfazE0,2020-0188,2021-10-14,09:22:15,10:16:47,NA,incomplete,false,NA,true,7,6,NA,NA,NA,left,present,NA,NA,n_s_007.jpg,blue,m_s_064.jpg,blue,within,NA,NaN,NA,right,1121.5,0,1,741.5
XiEfazE0,3r0wocg22pm4csvtiwincc3gz22duj,3f6kkywmnfet4m9ecxb3n17etomnd7,XiEfazE0,2020-0188,2021-10-14,09:22:15,10:16:47,NA,incomplete,false,NA,true,7,7,NA,NA,NA,left,present,NA,NA,n_s_092.jpg,gray,n_s_033.jpg,green,between,NA,NaN,NA,right,1161.199999988079,0,2,906.5
XiEfazE0,3r0wocg22pm4csvtiwincc3gz22duj,3f6kkywmnfet4m9ecxb3n17etomnd7,XiEfazE0,2020-0188,2021-10-14,09:22:15,10:16:47,NA,incomplete,false,NA,true,7,8,NA,NA,NA,left,present,NA,NA,m_l_097.jpg,black,m_l_062.jpg,blue,between,NA,NaN,NA,right,1059.199999988079,0,1,1045.3999999761581
XiEfazE0,3r0wocg22pm4csvtiwincc3gz22duj,3f6kkywmnfet4m9ecxb3n17etomnd7,XiEfazE0,2020-0188,2021-10-14,09:22:15,10:16:47,NA,incomplete,false,NA,true,7,9,NA,NA,NA,left,present,NA,NA,m_s_107.jpg,yellow,n_l_062.jpg,red,between,NA,NaN,NA,right,1168.2999999523163,0,3,988.1999999880791
XiEfazE0,3r0wocg22pm4csvtiwincc3gz22duj,3f6kkywmnfet4m9ecxb3n17etomnd7,XiEfazE0,2020-0188,2021-10-14,09:22:15,10:16:47,NA,incomplete,false,NA,true,7,10,NA,NA,NA,right,present,NA,NA,m_l_051.jpg,yellow,m_s_105.jpg,yellow,within,NA,NaN,NA,left,1723.3999999761581,0,1,1024.3999999761581
XiEfazE0,3r0wocg22pm4csvtiwincc3gz22duj,3f6kkywmnfet4m9ecxb3n17etomnd7,XiEfazE0,2020-0188,2021-10-14,09:22:15,10:16:47,NA,incomplete,false,true,NA,8,0,NA,green,m_s_087.jpg,NA,NA,unpleasant,pleasant,NA,NA,NA,NA,NA,right,1039.39999997616,true,NA,NA,NA,NA,NA
XiEfazE0,3r0wocg22pm4csvtiwincc3gz22duj,3f6kkywmnfet4m9ecxb3n17etomnd7,XiEfazE0,2020-0188,2021-10-14,09:22:15,10:16:47,NA,incomplete,false,true,NA,8,1,NA,green,m_l_043.jpg,NA,NA,pleasant,unpleasant,NA,NA,NA,NA,NA,left,714,true,NA,NA,NA,NA,NA
XiEfazE0,3r0wocg22pm4csvtiwincc3gz22duj,3f6kkywmnfet4m9ecxb3n17etomnd7,XiEfazE0,2020-0188,2021-10-14,09:22:15,10:16:47,NA,incomplete,false,true,NA,8,2,NA,green,n_s_112.jpg,NA,NA,pleasant,unpleasant,NA,NA,NA,NA,NA,left,837.5,true,NA,NA,NA,NA,NA
XiEfazE0,3r0wocg22pm4csvtiwincc3gz22duj,3f6kkywmnfet4m9ecxb3n17etomnd7,XiEfazE0,2020-0188,2021-10-14,09:22:15,10:16:47,NA,incomplete,false,true,NA,8,3,NA,green,n_s_089.jpg,NA,NA,unpleasant,pleasant,NA,NA,NA,NA,NA,right,639.5,true,NA,NA,NA,NA,NA
XiEfazE0,3r0wocg22pm4csvtiwincc3gz22duj,3f6kkywmnfet4m9ecxb3n17etomnd7,XiEfazE0,2020-0188,2021-10-14,09:22:15,10:16:47,NA,incomplete,false,true,NA,8,4,NA,green,m_s_100.jpg,NA,NA,unpleasant,pleasant,NA,NA,NA,NA,NA,right,746,true,NA,NA,NA,NA,NA
XiEfazE0,3r0wocg22pm4csvtiwincc3gz22duj,3f6kkywmnfet4m9ecxb3n17etomnd7,XiEfazE0,2020-0188,2021-10-14,09:22:15,10:16:47,NA,incomplete,false,true,NA,8,5,NA,green,m_l_001.jpg,NA,NA,pleasant,unpleasant,NA,NA,NA,NA,NA,left,741.400000035763,true,NA,NA,NA,NA,NA
XiEfazE0,3r0wocg22pm4csvtiwincc3gz22duj,3f6kkywmnfet4m9ecxb3n17etomnd7,XiEfazE0,2020-0188,2021-10-14,09:22:15,10:16:47,NA,incomplete,false,true,NA,8,6,NA,brown,m_s_040.jpg,NA,NA,unpleasant,pleasant,NA,NA,NA,NA,NA,right,688.100000023842,true,NA,NA,NA,NA,NA
XiEfazE0,3r0wocg22pm4csvtiwincc3gz22duj,3f6kkywmnfet4m9ecxb3n17etomnd7,XiEfazE0,2020-0188,2021-10-14,09:22:15,10:16:47,NA,incomplete,false,true,NA,8,7,NA,brown,n_l_098.jpg,NA,NA,pleasant,unpleasant,NA,NA,NA,NA,NA,left,906.300000011921,true,NA,NA,NA,NA,NA
XiEfazE0,3r0wocg22pm4csvtiwincc3gz22duj,3f6kkywmnfet4m9ecxb3n17etomnd7,XiEfazE0,2020-0188,2021-10-14,09:22:15,10:16:47,NA,incomplete,false,true,NA,8,8,NA,brown,m_l_091.jpg,NA,NA,unpleasant,pleasant,NA,NA,NA,NA,NA,right,717.300000011921,true,NA,NA,NA,NA,NA
