workerId,hitId,assignmentId,subject,studyid,exp_date,exp_start,exp_end,time_start,time_end,practice,encoding,memory,block,trial,event_order,event,stim,answer,context_type,label_left,label_right,left_image,left_event,right_image,right_event,condition,response,response_time,response_acc,order_response,order_response_time,order_acc,distance_response,distance_response_time
yDzGzEPj,3t2hw4qdvykwn81ckpslwayk1hg9co,3luy3gc633ddqykh1zl9ry2d7tgp7a,yDzGzEPj,2020-0188,2021-10-14,13:00:06,14:05:29,NA,incomplete,true,true,NA,0,0,NA,orange,m_l_062.jpg,NA,NA,unpleasant,pleasant,NA,NA,NA,NA,NA,right,2086.59999999404,true,NA,NA,NA,NA,NA
yDzGzEPj,3t2hw4qdvykwn81ckpslwayk1hg9co,3luy3gc633ddqykh1zl9ry2d7tgp7a,yDzGzEPj,2020-0188,2021-10-14,13:00:06,14:05:29,NA,incomplete,true,true,NA,0,1,NA,orange,n_l_117.jpg,NA,NA,pleasant,unpleasant,NA,NA,NA,NA,NA,right,2742.19999998808,true,NA,NA,NA,NA,NA
yDzGzEPj,3t2hw4qdvykwn81ckpslwayk1hg9co,3luy3gc633ddqykh1zl9ry2d7tgp7a,yDzGzEPj,2020-0188,2021-10-14,13:00:06,14:05:29,NA,incomplete,true,true,NA,0,2,NA,orange,n_l_053.jpg,NA,NA,pleasant,unpleasant,NA,NA,NA,NA,NA,right,2231.79999998212,true,NA,NA,NA,NA,NA
yDzGzEPj,3t2hw4qdvykwn81ckpslwayk1hg9co,3luy3gc633ddqykh1zl9ry2d7tgp7a,yDzGzEPj,2020-0188,2021-10-14,13:00:06,14:05:29,NA,incomplete,true,true,NA,0,3,NA,orange,m_l_013.jpg,NA,NA,unpleasant,pleasant,NA,NA,NA,NA,NA,left,2729.30000001192,true,NA,NA,NA,NA,NA
yDzGzEPj,3t2hw4qdvykwn81ckpslwayk1hg9co,3luy3gc633ddqykh1zl9ry2d7tgp7a,yDzGzEPj,2020-0188,2021-10-14,13:00:06,14:05:29,NA,incomplete,true,true,NA,0,4,NA,orange,m_s_043.jpg,NA,NA,pleasant,unpleasant,NA,NA,NA,NA,NA,left,2777,true,NA,NA,NA,NA,NA
yDzGzEPj,3t2hw4qdvykwn81ckpslwayk1hg9co,3luy3gc633ddqykh1zl9ry2d7tgp7a,yDzGzEPj,2020-0188,2021-10-14,13:00:06,14:05:29,NA,incomplete,true,true,NA,0,5,NA,orange,n_s_052.jpg,NA,NA,pleasant,unpleasant,NA,NA,NA,NA,NA,right,2410.10000002384,true,NA,NA,NA,NA,NA
yDzGzEPj,3t2hw4qdvykwn81ckpslwayk1hg9co,3luy3gc633ddqykh1zl9ry2d7tgp7a,yDzGzEPj,2020-0188,2021-10-14,13:00:06,14:05:29,NA,incomplete,true,true,NA,0,6,NA,purple,n_s_116.jpg,NA,NA,unpleasant,pleasant,NA,NA,NA,NA,NA,left,2346.69999998808,true,NA,NA,NA,NA,NA
yDzGzEPj,3t2hw4qdvykwn81ckpslwayk1hg9co,3luy3gc633ddqykh1zl9ry2d7tgp7a,yDzGzEPj,2020-0188,2021-10-14,13:00:06,14:05:29,NA,incomplete,true,true,NA,0,7,NA,purple,n_s_061.jpg,NA,NA,pleasant,unpleasant,NA,NA,NA,NA,NA,right,1723.5,true,NA,NA,NA,NA,NA
yDzGzEPj,3t2hw4qdvykwn81ckpslwayk1hg9co,3luy3gc633ddqykh1zl9ry2d7tgp7a,yDzGzEPj,2020-0188,2021-10-14,13:00:06,14:05:29,NA,incomplete,true,true,NA,0,8,NA,purple,n_l_015.jpg,NA,NA,pleasant,unpleasant,NA,NA,NA,NA,NA,right,1786.5,true,NA,NA,NA,NA,NA
yDzGzEPj,3t2hw4qdvykwn81ckpslwayk1hg9co,3luy3gc633ddqykh1zl9ry2d7tgp7a,yDzGzEPj,2020-0188,2021-10-14,13:00:06,14:05:29,NA,incomplete,true,true,NA,0,9,NA,purple,m_s_084.jpg,NA,NA,pleasant,unpleasant,NA,NA,NA,NA,NA,left,2444.59999999404,true,NA,NA,NA,NA,NA
yDzGzEPj,3t2hw4qdvykwn81ckpslwayk1hg9co,3luy3gc633ddqykh1zl9ry2d7tgp7a,yDzGzEPj,2020-0188,2021-10-14,13:00:06,14:05:29,NA,incomplete,true,true,NA,0,10,NA,purple,m_s_103.jpg,NA,NA,pleasant,unpleasant,NA,NA,NA,NA,NA,left,2308.5,true,NA,NA,NA,NA,NA
yDzGzEPj,3t2hw4qdvykwn81ckpslwayk1hg9co,3luy3gc633ddqykh1zl9ry2d7tgp7a,yDzGzEPj,2020-0188,2021-10-14,13:00:06,14:05:29,NA,incomplete,true,true,NA,0,11,NA,purple,n_s_045.jpg,NA,NA,unpleasant,pleasant,NA,NA,NA,NA,NA,right,1933.29999998212,true,NA,NA,NA,NA,NA
yDzGzEPj,3t2hw4qdvykwn81ckpslwayk1hg9co,3luy3gc633ddqykh1zl9ry2d7tgp7a,yDzGzEPj,2020-0188,2021-10-14,13:00:06,14:05:29,NA,incomplete,true,true,NA,0,12,NA,black,m_s_027.jpg,NA,NA,pleasant,unpleasant,NA,NA,NA,NA,NA,right,3061.5,true,NA,NA,NA,NA,NA
yDzGzEPj,3t2hw4qdvykwn81ckpslwayk1hg9co,3luy3gc633ddqykh1zl9ry2d7tgp7a,yDzGzEPj,2020-0188,2021-10-14,13:00:06,14:05:29,NA,incomplete,true,true,NA,0,13,NA,black,m_l_101.jpg,NA,NA,pleasant,unpleasant,NA,NA,NA,NA,NA,left,1894.09999999404,true,NA,NA,NA,NA,NA
yDzGzEPj,3t2hw4qdvykwn81ckpslwayk1hg9co,3luy3gc633ddqykh1zl9ry2d7tgp7a,yDzGzEPj,2020-0188,2021-10-14,13:00:06,14:05:29,NA,incomplete,true,true,NA,0,14,NA,black,n_l_066.jpg,NA,NA,unpleasant,pleasant,NA,NA,NA,NA,NA,right,2815.40000000596,true,NA,NA,NA,NA,NA
yDzGzEPj,3t2hw4qdvykwn81ckpslwayk1hg9co,3luy3gc633ddqykh1zl9ry2d7tgp7a,yDzGzEPj,2020-0188,2021-10-14,13:00:06,14:05:29,NA,incomplete,true,true,NA,0,15,NA,black,m_l_079.jpg,NA,NA,unpleasant,pleasant,NA,NA,NA,NA,NA,right,2070.80000001192,true,NA,NA,NA,NA,NA
yDzGzEPj,3t2hw4qdvykwn81ckpslwayk1hg9co,3luy3gc633ddqykh1zl9ry2d7tgp7a,yDzGzEPj,2020-0188,2021-10-14,13:00:06,14:05:29,NA,incomplete,true,true,NA,0,16,NA,black,m_s_074.jpg,NA,NA,unpleasant,pleasant,NA,NA,NA,NA,NA,left,2694.80000001192,true,NA,NA,NA,NA,NA
yDzGzEPj,3t2hw4qdvykwn81ckpslwayk1hg9co,3luy3gc633ddqykh1zl9ry2d7tgp7a,yDzGzEPj,2020-0188,2021-10-14,13:00:06,14:05:29,NA,incomplete,true,true,NA,0,17,NA,black,m_s_015.jpg,NA,NA,pleasant,unpleasant,NA,NA,NA,NA,NA,left,1888.40000000596,true,NA,NA,NA,NA,NA
yDzGzEPj,3t2hw4qdvykwn81ckpslwayk1hg9co,3luy3gc633ddqykh1zl9ry2d7tgp7a,yDzGzEPj,2020-0188,2021-10-14,13:00:06,14:05:29,NA,incomplete,true,true,NA,0,18,NA,gray,m_s_108.jpg,NA,NA,unpleasant,pleasant,NA,NA,NA,NA,NA,right,2752.09999999404,true,NA,NA,NA,NA,NA
yDzGzEPj,3t2hw4qdvykwn81ckpslwayk1hg9co,3luy3gc633ddqykh1zl9ry2d7tgp7a,yDzGzEPj,2020-0188,2021-10-14,13:00:06,14:05:29,NA,incomplete,true,true,NA,0,19,NA,gray,n_l_028.jpg,NA,NA,unpleasant,pleasant,NA,NA,NA,NA,NA,left,2192.29999998212,true,NA,NA,NA,NA,NA
yDzGzEPj,3t2hw4qdvykwn81ckpslwayk1hg9co,3luy3gc633ddqykh1zl9ry2d7tgp7a,yDzGzEPj,2020-0188,2021-10-14,13:00:06,14:05:29,NA,incomplete,true,true,NA,0,20,NA,gray,m_l_099.jpg,NA,NA,unpleasant,pleasant,NA,NA,NA,NA,NA,right,2729.39999997616,true,NA,NA,NA,NA,NA
yDzGzEPj,3t2hw4qdvykwn81ckpslwayk1hg9co,3luy3gc633ddqykh1zl9ry2d7tgp7a,yDzGzEPj,2020-0188,2021-10-14,13:00:06,14:05:29,NA,incomplete,true,true,NA,0,21,NA,gray,m_s_001.jpg,NA,NA,pleasant,unpleasant,NA,NA,NA,NA,NA,left,2737.29999998212,true,NA,NA,NA,NA,NA
yDzGzEPj,3t2hw4qdvykwn81ckpslwayk1hg9co,3luy3gc633ddqykh1zl9ry2d7tgp7a,yDzGzEPj,2020-0188,2021-10-14,13:00:06,14:05:29,NA,incomplete,true,true,NA,0,22,NA,gray,n_l_077.jpg,NA,NA,unpleasant,pleasant,NA,NA,NA,NA,NA,right,2098.59999999404,true,NA,NA,NA,NA,NA
yDzGzEPj,3t2hw4qdvykwn81ckpslwayk1hg9co,3luy3gc633ddqykh1zl9ry2d7tgp7a,yDzGzEPj,2020-0188,2021-10-14,13:00:06,14:05:29,NA,incomplete,true,true,NA,0,23,NA,gray,n_s_060.jpg,NA,NA,pleasant,unpleasant,NA,NA,NA,NA,NA,right,2179.29999998212,true,NA,NA,NA,NA,NA
yDzGzEPj,3t2hw4qdvykwn81ckpslwayk1hg9co,3luy3gc633ddqykh1zl9ry2d7tgp7a,yDzGzEPj,2020-0188,2021-10-14,13:00:06,14:05:29,NA,incomplete,true,true,NA,0,24,NA,white,n_s_115.jpg,NA,NA,pleasant,unpleasant,NA,NA,NA,NA,NA,left,2771.09999999404,true,NA,NA,NA,NA,NA
yDzGzEPj,3t2hw4qdvykwn81ckpslwayk1hg9co,3luy3gc633ddqykh1zl9ry2d7tgp7a,yDzGzEPj,2020-0188,2021-10-14,13:00:06,14:05:29,NA,incomplete,true,true,NA,0,25,NA,white,m_s_051.jpg,NA,NA,pleasant,unpleasant,NA,NA,NA,NA,NA,left,2068,true,NA,NA,NA,NA,NA
yDzGzEPj,3t2hw4qdvykwn81ckpslwayk1hg9co,3luy3gc633ddqykh1zl9ry2d7tgp7a,yDzGzEPj,2020-0188,2021-10-14,13:00:06,14:05:29,NA,incomplete,true,true,NA,0,26,NA,white,m_s_050.jpg,NA,NA,pleasant,unpleasant,NA,NA,NA,NA,NA,left,1100.70000001788,true,NA,NA,NA,NA,NA
yDzGzEPj,3t2hw4qdvykwn81ckpslwayk1hg9co,3luy3gc633ddqykh1zl9ry2d7tgp7a,yDzGzEPj,2020-0188,2021-10-14,13:00:06,14:05:29,NA,incomplete,true,true,NA,0,27,NA,white,n_l_041.jpg,NA,NA,unpleasant,pleasant,NA,NA,NA,NA,NA,left,2604.40000000596,true,NA,NA,NA,NA,NA
yDzGzEPj,3t2hw4qdvykwn81ckpslwayk1hg9co,3luy3gc633ddqykh1zl9ry2d7tgp7a,yDzGzEPj,2020-0188,2021-10-14,13:00:06,14:05:29,NA,incomplete,true,true,NA,0,28,NA,white,n_s_068.jpg,NA,NA,unpleasant,pleasant,NA,NA,NA,NA,NA,right,2813,true,NA,NA,NA,NA,NA
yDzGzEPj,3t2hw4qdvykwn81ckpslwayk1hg9co,3luy3gc633ddqykh1zl9ry2d7tgp7a,yDzGzEPj,2020-0188,2021-10-14,13:00:06,14:05:29,NA,incomplete,true,true,NA,0,29,NA,white,m_s_059.jpg,NA,NA,pleasant,unpleasant,NA,NA,NA,NA,NA,left,2213.09999999404,true,NA,NA,NA,NA,NA
yDzGzEPj,3t2hw4qdvykwn81ckpslwayk1hg9co,3luy3gc633ddqykh1zl9ry2d7tgp7a,yDzGzEPj,2020-0188,2021-10-14,13:00:06,14:05:29,NA,incomplete,true,true,NA,0,30,NA,brown,m_s_080.jpg,NA,NA,unpleasant,pleasant,NA,NA,NA,NA,NA,right,2199,true,NA,NA,NA,NA,NA
yDzGzEPj,3t2hw4qdvykwn81ckpslwayk1hg9co,3luy3gc633ddqykh1zl9ry2d7tgp7a,yDzGzEPj,2020-0188,2021-10-14,13:00:06,14:05:29,NA,incomplete,true,true,NA,0,31,NA,brown,m_s_065.jpg,NA,NA,unpleasant,pleasant,NA,NA,NA,NA,NA,right,1966.89999997616,true,NA,NA,NA,NA,NA
yDzGzEPj,3t2hw4qdvykwn81ckpslwayk1hg9co,3luy3gc633ddqykh1zl9ry2d7tgp7a,yDzGzEPj,2020-0188,2021-10-14,13:00:06,14:05:29,NA,incomplete,true,true,NA,0,32,NA,brown,m_s_002.jpg,NA,NA,pleasant,unpleasant,NA,NA,NA,NA,NA,right,2847,true,NA,NA,NA,NA,NA
yDzGzEPj,3t2hw4qdvykwn81ckpslwayk1hg9co,3luy3gc633ddqykh1zl9ry2d7tgp7a,yDzGzEPj,2020-0188,2021-10-14,13:00:06,14:05:29,NA,incomplete,true,true,NA,0,33,NA,brown,m_l_004.jpg,NA,NA,pleasant,unpleasant,NA,NA,NA,NA,NA,left,1246.5,true,NA,NA,NA,NA,NA
yDzGzEPj,3t2hw4qdvykwn81ckpslwayk1hg9co,3luy3gc633ddqykh1zl9ry2d7tgp7a,yDzGzEPj,2020-0188,2021-10-14,13:00:06,14:05:29,NA,incomplete,true,true,NA,0,34,NA,brown,m_s_025.jpg,NA,NA,pleasant,unpleasant,NA,NA,NA,NA,NA,right,2201.09999999404,true,NA,NA,NA,NA,NA
yDzGzEPj,3t2hw4qdvykwn81ckpslwayk1hg9co,3luy3gc633ddqykh1zl9ry2d7tgp7a,yDzGzEPj,2020-0188,2021-10-14,13:00:06,14:05:29,NA,incomplete,true,true,NA,0,35,NA,brown,m_s_082.jpg,NA,NA,unpleasant,pleasant,NA,NA,NA,NA,NA,right,1703.10000002384,true,NA,NA,NA,NA,NA
yDzGzEPj,3t2hw4qdvykwn81ckpslwayk1hg9co,3luy3gc633ddqykh1zl9ry2d7tgp7a,yDzGzEPj,2020-0188,2021-10-14,13:00:06,14:05:29,NA,incomplete,true,NA,true,0,0,NA,NA,NA,right,absent,NA,NA,m_s_050.jpg,white,n_l_077.jpg,gray,between,NA,NaN,NA,right,6142.9000000059605,1,1,5294.899999976158
yDzGzEPj,3t2hw4qdvykwn81ckpslwayk1hg9co,3luy3gc633ddqykh1zl9ry2d7tgp7a,yDzGzEPj,2020-0188,2021-10-14,13:00:06,14:05:29,NA,incomplete,true,NA,true,0,1,NA,NA,NA,left,absent,NA,NA,m_s_065.jpg,brown,m_s_082.jpg,brown,within,NA,NaN,NA,left,3870.7999999821186,1,0,2674.699999988079
yDzGzEPj,3t2hw4qdvykwn81ckpslwayk1hg9co,3luy3gc633ddqykh1zl9ry2d7tgp7a,yDzGzEPj,2020-0188,2021-10-14,13:00:06,14:05:29,NA,incomplete,true,NA,true,0,2,NA,NA,NA,left,absent,NA,NA,n_l_028.jpg,gray,n_s_060.jpg,gray,within,NA,NaN,NA,right,13830.59999999404,0,1,1883
yDzGzEPj,3t2hw4qdvykwn81ckpslwayk1hg9co,3luy3gc633ddqykh1zl9ry2d7tgp7a,yDzGzEPj,2020-0188,2021-10-14,13:00:06,14:05:29,NA,incomplete,true,NA,true,0,3,NA,NA,NA,left,present,NA,NA,m_s_103.jpg,purple,n_l_066.jpg,black,between,NA,NaN,NA,left,5518.699999988079,1,2,1606.2999999821186
yDzGzEPj,3t2hw4qdvykwn81ckpslwayk1hg9co,3luy3gc633ddqykh1zl9ry2d7tgp7a,yDzGzEPj,2020-0188,2021-10-14,13:00:06,14:05:29,NA,incomplete,true,NA,true,0,4,NA,NA,NA,left,present,NA,NA,n_s_068.jpg,white,m_s_002.jpg,brown,between,NA,NaN,NA,left,3575.0999999940395,1,1,2299.0999999940395
yDzGzEPj,3t2hw4qdvykwn81ckpslwayk1hg9co,3luy3gc633ddqykh1zl9ry2d7tgp7a,yDzGzEPj,2020-0188,2021-10-14,13:00:06,14:05:29,NA,incomplete,true,NA,true,0,5,NA,NA,NA,right,absent,NA,NA,m_s_059.jpg,white,m_s_051.jpg,white,within,NA,NaN,NA,left,3310.7999999821186,0,0,1247.2999999821186
yDzGzEPj,3t2hw4qdvykwn81ckpslwayk1hg9co,3luy3gc633ddqykh1zl9ry2d7tgp7a,yDzGzEPj,2020-0188,2021-10-14,13:00:06,14:05:29,NA,incomplete,true,NA,true,0,6,NA,NA,NA,left,present,NA,NA,n_s_061.jpg,purple,n_s_045.jpg,purple,within,NA,NaN,NA,left,3199.2000000178814,1,0,2239.0999999940395
yDzGzEPj,3t2hw4qdvykwn81ckpslwayk1hg9co,3luy3gc633ddqykh1zl9ry2d7tgp7a,yDzGzEPj,2020-0188,2021-10-14,13:00:06,14:05:29,NA,incomplete,true,NA,true,0,7,NA,NA,NA,left,absent,NA,NA,m_l_101.jpg,black,m_s_015.jpg,black,within,NA,NaN,NA,left,3030.199999988079,1,2,1502.5999999940395
yDzGzEPj,3t2hw4qdvykwn81ckpslwayk1hg9co,3luy3gc633ddqykh1zl9ry2d7tgp7a,yDzGzEPj,2020-0188,2021-10-14,13:00:06,14:05:29,NA,incomplete,true,NA,true,0,8,NA,NA,NA,right,present,NA,NA,m_l_099.jpg,gray,m_s_074.jpg,black,between,NA,NaN,NA,right,11930.59999999404,1,1,1198.2000000178814
yDzGzEPj,3t2hw4qdvykwn81ckpslwayk1hg9co,3luy3gc633ddqykh1zl9ry2d7tgp7a,yDzGzEPj,2020-0188,2021-10-14,13:00:06,14:05:29,NA,incomplete,true,NA,true,0,9,NA,NA,NA,left,absent,NA,NA,m_s_043.jpg,orange,n_l_015.jpg,purple,between,NA,NaN,NA,right,7393.300000011921,0,1,1730.0999999940395
yDzGzEPj,3t2hw4qdvykwn81ckpslwayk1hg9co,3luy3gc633ddqykh1zl9ry2d7tgp7a,yDzGzEPj,2020-0188,2021-10-14,13:00:06,14:05:29,NA,incomplete,true,NA,true,0,10,NA,NA,NA,right,absent,NA,NA,n_s_052.jpg,orange,n_l_117.jpg,orange,within,NA,NaN,NA,left,4483,0,2,1590.800000011921
yDzGzEPj,3t2hw4qdvykwn81ckpslwayk1hg9co,3luy3gc633ddqykh1zl9ry2d7tgp7a,yDzGzEPj,2020-0188,2021-10-14,13:00:06,14:05:29,NA,incomplete,false,true,NA,1,0,NA,black,m_l_052.jpg,NA,NA,pleasant,unpleasant,NA,NA,NA,NA,NA,left,2861.69999998808,true,NA,NA,NA,NA,NA
yDzGzEPj,3t2hw4qdvykwn81ckpslwayk1hg9co,3luy3gc633ddqykh1zl9ry2d7tgp7a,yDzGzEPj,2020-0188,2021-10-14,13:00:06,14:05:29,NA,incomplete,false,true,NA,1,1,NA,black,n_l_105.jpg,NA,NA,unpleasant,pleasant,NA,NA,NA,NA,NA,right,2390.19999998808,true,NA,NA,NA,NA,NA
yDzGzEPj,3t2hw4qdvykwn81ckpslwayk1hg9co,3luy3gc633ddqykh1zl9ry2d7tgp7a,yDzGzEPj,2020-0188,2021-10-14,13:00:06,14:05:29,NA,incomplete,false,true,NA,1,2,NA,black,n_s_105.jpg,NA,NA,pleasant,unpleasant,NA,NA,NA,NA,NA,left,1967.30000001192,true,NA,NA,NA,NA,NA
yDzGzEPj,3t2hw4qdvykwn81ckpslwayk1hg9co,3luy3gc633ddqykh1zl9ry2d7tgp7a,yDzGzEPj,2020-0188,2021-10-14,13:00:06,14:05:29,NA,incomplete,false,true,NA,1,3,NA,black,n_s_090.jpg,NA,NA,unpleasant,pleasant,NA,NA,NA,NA,NA,left,2046.70000001788,true,NA,NA,NA,NA,NA
yDzGzEPj,3t2hw4qdvykwn81ckpslwayk1hg9co,3luy3gc633ddqykh1zl9ry2d7tgp7a,yDzGzEPj,2020-0188,2021-10-14,13:00:06,14:05:29,NA,incomplete,false,true,NA,1,4,NA,black,n_l_054.jpg,NA,NA,pleasant,unpleasant,NA,NA,NA,NA,NA,left,2559.69999998808,true,NA,NA,NA,NA,NA
yDzGzEPj,3t2hw4qdvykwn81ckpslwayk1hg9co,3luy3gc633ddqykh1zl9ry2d7tgp7a,yDzGzEPj,2020-0188,2021-10-14,13:00:06,14:05:29,NA,incomplete,false,true,NA,1,5,NA,black,n_l_027.jpg,NA,NA,pleasant,unpleasant,NA,NA,NA,NA,NA,left,1665.90000000596,true,NA,NA,NA,NA,NA
yDzGzEPj,3t2hw4qdvykwn81ckpslwayk1hg9co,3luy3gc633ddqykh1zl9ry2d7tgp7a,yDzGzEPj,2020-0188,2021-10-14,13:00:06,14:05:29,NA,incomplete,false,true,NA,1,6,NA,green,n_l_003.jpg,NA,NA,pleasant,unpleasant,NA,NA,NA,NA,NA,left,2063.70000001788,true,NA,NA,NA,NA,NA
yDzGzEPj,3t2hw4qdvykwn81ckpslwayk1hg9co,3luy3gc633ddqykh1zl9ry2d7tgp7a,yDzGzEPj,2020-0188,2021-10-14,13:00:06,14:05:29,NA,incomplete,false,true,NA,1,7,NA,green,m_l_018.jpg,NA,NA,unpleasant,pleasant,NA,NA,NA,NA,NA,right,1905.39999997616,true,NA,NA,NA,NA,NA
yDzGzEPj,3t2hw4qdvykwn81ckpslwayk1hg9co,3luy3gc633ddqykh1zl9ry2d7tgp7a,yDzGzEPj,2020-0188,2021-10-14,13:00:06,14:05:29,NA,incomplete,false,true,NA,1,8,NA,green,m_s_009.jpg,NA,NA,unpleasant,pleasant,NA,NA,NA,NA,NA,right,1682.5,true,NA,NA,NA,NA,NA
yDzGzEPj,3t2hw4qdvykwn81ckpslwayk1hg9co,3luy3gc633ddqykh1zl9ry2d7tgp7a,yDzGzEPj,2020-0188,2021-10-14,13:00:06,14:05:29,NA,incomplete,false,true,NA,1,9,NA,green,n_s_110.jpg,NA,NA,pleasant,unpleasant,NA,NA,NA,NA,NA,right,2098.5,true,NA,NA,NA,NA,NA
yDzGzEPj,3t2hw4qdvykwn81ckpslwayk1hg9co,3luy3gc633ddqykh1zl9ry2d7tgp7a,yDzGzEPj,2020-0188,2021-10-14,13:00:06,14:05:29,NA,incomplete,false,true,NA,1,10,NA,green,n_l_107.jpg,NA,NA,unpleasant,pleasant,NA,NA,NA,NA,NA,left,2570.19999998808,true,NA,NA,NA,NA,NA
yDzGzEPj,3t2hw4qdvykwn81ckpslwayk1hg9co,3luy3gc633ddqykh1zl9ry2d7tgp7a,yDzGzEPj,2020-0188,2021-10-14,13:00:06,14:05:29,NA,incomplete,false,true,NA,1,11,NA,green,n_s_092.jpg,NA,NA,unpleasant,pleasant,NA,NA,NA,NA,NA,left,1683.19999998808,true,NA,NA,NA,NA,NA
yDzGzEPj,3t2hw4qdvykwn81ckpslwayk1hg9co,3luy3gc633ddqykh1zl9ry2d7tgp7a,yDzGzEPj,2020-0188,2021-10-14,13:00:06,14:05:29,NA,incomplete,false,true,NA,1,12,NA,white,m_s_062.jpg,NA,NA,unpleasant,pleasant,NA,NA,NA,NA,NA,right,1889.5,true,NA,NA,NA,NA,NA
yDzGzEPj,3t2hw4qdvykwn81ckpslwayk1hg9co,3luy3gc633ddqykh1zl9ry2d7tgp7a,yDzGzEPj,2020-0188,2021-10-14,13:00:06,14:05:29,NA,incomplete,false,true,NA,1,13,NA,white,n_l_092.jpg,NA,NA,unpleasant,pleasant,NA,NA,NA,NA,NA,right,2354.5,true,NA,NA,NA,NA,NA
yDzGzEPj,3t2hw4qdvykwn81ckpslwayk1hg9co,3luy3gc633ddqykh1zl9ry2d7tgp7a,yDzGzEPj,2020-0188,2021-10-14,13:00:06,14:05:29,NA,incomplete,false,true,NA,1,14,NA,white,n_s_064.jpg,NA,NA,pleasant,unpleasant,NA,NA,NA,NA,NA,left,2155.59999999404,true,NA,NA,NA,NA,NA
yDzGzEPj,3t2hw4qdvykwn81ckpslwayk1hg9co,3luy3gc633ddqykh1zl9ry2d7tgp7a,yDzGzEPj,2020-0188,2021-10-14,13:00:06,14:05:29,NA,incomplete,false,true,NA,1,15,NA,white,m_l_011.jpg,NA,NA,pleasant,unpleasant,NA,NA,NA,NA,NA,left,2819.29999998212,true,NA,NA,NA,NA,NA
yDzGzEPj,3t2hw4qdvykwn81ckpslwayk1hg9co,3luy3gc633ddqykh1zl9ry2d7tgp7a,yDzGzEPj,2020-0188,2021-10-14,13:00:06,14:05:29,NA,incomplete,false,true,NA,1,16,NA,white,n_l_082.jpg,NA,NA,unpleasant,pleasant,NA,NA,NA,NA,NA,right,2499.90000000596,true,NA,NA,NA,NA,NA
yDzGzEPj,3t2hw4qdvykwn81ckpslwayk1hg9co,3luy3gc633ddqykh1zl9ry2d7tgp7a,yDzGzEPj,2020-0188,2021-10-14,13:00:06,14:05:29,NA,incomplete,false,true,NA,1,17,NA,white,m_l_117.jpg,NA,NA,pleasant,unpleasant,NA,NA,NA,NA,NA,left,1476.59999999404,true,NA,NA,NA,NA,NA
yDzGzEPj,3t2hw4qdvykwn81ckpslwayk1hg9co,3luy3gc633ddqykh1zl9ry2d7tgp7a,yDzGzEPj,2020-0188,2021-10-14,13:00:06,14:05:29,NA,incomplete,false,true,NA,1,18,NA,red,m_s_068.jpg,NA,NA,unpleasant,pleasant,NA,NA,NA,NA,NA,right,1964.09999999404,true,NA,NA,NA,NA,NA
yDzGzEPj,3t2hw4qdvykwn81ckpslwayk1hg9co,3luy3gc633ddqykh1zl9ry2d7tgp7a,yDzGzEPj,2020-0188,2021-10-14,13:00:06,14:05:29,NA,incomplete,false,true,NA,1,19,NA,red,m_s_078.jpg,NA,NA,unpleasant,pleasant,NA,NA,NA,NA,NA,left,2085,true,NA,NA,NA,NA,NA
yDzGzEPj,3t2hw4qdvykwn81ckpslwayk1hg9co,3luy3gc633ddqykh1zl9ry2d7tgp7a,yDzGzEPj,2020-0188,2021-10-14,13:00:06,14:05:29,NA,incomplete,false,true,NA,1,20,NA,red,n_l_020.jpg,NA,NA,unpleasant,pleasant,NA,NA,NA,NA,NA,left,1917.40000000596,true,NA,NA,NA,NA,NA
yDzGzEPj,3t2hw4qdvykwn81ckpslwayk1hg9co,3luy3gc633ddqykh1zl9ry2d7tgp7a,yDzGzEPj,2020-0188,2021-10-14,13:00:06,14:05:29,NA,incomplete,false,true,NA,1,21,NA,red,n_s_023.jpg,NA,NA,pleasant,unpleasant,NA,NA,NA,NA,NA,left,1733.20000001788,true,NA,NA,NA,NA,NA
yDzGzEPj,3t2hw4qdvykwn81ckpslwayk1hg9co,3luy3gc633ddqykh1zl9ry2d7tgp7a,yDzGzEPj,2020-0188,2021-10-14,13:00:06,14:05:29,NA,incomplete,false,true,NA,1,22,NA,red,n_s_048.jpg,NA,NA,unpleasant,pleasant,NA,NA,NA,NA,NA,left,2349.39999997616,true,NA,NA,NA,NA,NA
yDzGzEPj,3t2hw4qdvykwn81ckpslwayk1hg9co,3luy3gc633ddqykh1zl9ry2d7tgp7a,yDzGzEPj,2020-0188,2021-10-14,13:00:06,14:05:29,NA,incomplete,false,true,NA,1,23,NA,red,m_l_084.jpg,NA,NA,pleasant,unpleasant,NA,NA,NA,NA,NA,left,2575.19999998808,true,NA,NA,NA,NA,NA
yDzGzEPj,3t2hw4qdvykwn81ckpslwayk1hg9co,3luy3gc633ddqykh1zl9ry2d7tgp7a,yDzGzEPj,2020-0188,2021-10-14,13:00:06,14:05:29,NA,incomplete,false,true,NA,1,24,NA,brown,n_l_073.jpg,NA,NA,pleasant,unpleasant,NA,NA,NA,NA,NA,right,2574.29999998212,true,NA,NA,NA,NA,NA
yDzGzEPj,3t2hw4qdvykwn81ckpslwayk1hg9co,3luy3gc633ddqykh1zl9ry2d7tgp7a,yDzGzEPj,2020-0188,2021-10-14,13:00:06,14:05:29,NA,incomplete,false,true,NA,1,25,NA,brown,n_l_018.jpg,NA,NA,unpleasant,pleasant,NA,NA,NA,NA,NA,right,1526.5,true,NA,NA,NA,NA,NA
yDzGzEPj,3t2hw4qdvykwn81ckpslwayk1hg9co,3luy3gc633ddqykh1zl9ry2d7tgp7a,yDzGzEPj,2020-0188,2021-10-14,13:00:06,14:05:29,NA,incomplete,false,true,NA,1,26,NA,brown,m_s_016.jpg,NA,NA,pleasant,unpleasant,NA,NA,NA,NA,NA,right,2246.90000000596,true,NA,NA,NA,NA,NA
yDzGzEPj,3t2hw4qdvykwn81ckpslwayk1hg9co,3luy3gc633ddqykh1zl9ry2d7tgp7a,yDzGzEPj,2020-0188,2021-10-14,13:00:06,14:05:29,NA,incomplete,false,true,NA,1,27,NA,brown,n_s_101.jpg,NA,NA,pleasant,unpleasant,NA,NA,NA,NA,NA,left,2127.5,true,NA,NA,NA,NA,NA
yDzGzEPj,3t2hw4qdvykwn81ckpslwayk1hg9co,3luy3gc633ddqykh1zl9ry2d7tgp7a,yDzGzEPj,2020-0188,2021-10-14,13:00:06,14:05:29,NA,incomplete,false,true,NA,1,28,NA,brown,n_l_070.jpg,NA,NA,pleasant,unpleasant,NA,NA,NA,NA,NA,right,2616.40000000596,true,NA,NA,NA,NA,NA
yDzGzEPj,3t2hw4qdvykwn81ckpslwayk1hg9co,3luy3gc633ddqykh1zl9ry2d7tgp7a,yDzGzEPj,2020-0188,2021-10-14,13:00:06,14:05:29,NA,incomplete,false,true,NA,1,29,NA,brown,n_s_099.jpg,NA,NA,pleasant,unpleasant,NA,NA,NA,NA,NA,right,1696.5,true,NA,NA,NA,NA,NA
yDzGzEPj,3t2hw4qdvykwn81ckpslwayk1hg9co,3luy3gc633ddqykh1zl9ry2d7tgp7a,yDzGzEPj,2020-0188,2021-10-14,13:00:06,14:05:29,NA,incomplete,false,true,NA,1,30,NA,purple,m_l_091.jpg,NA,NA,unpleasant,pleasant,NA,NA,NA,NA,NA,right,2497.69999998808,true,NA,NA,NA,NA,NA
yDzGzEPj,3t2hw4qdvykwn81ckpslwayk1hg9co,3luy3gc633ddqykh1zl9ry2d7tgp7a,yDzGzEPj,2020-0188,2021-10-14,13:00:06,14:05:29,NA,incomplete,false,true,NA,1,31,NA,purple,m_s_052.jpg,NA,NA,pleasant,unpleasant,NA,NA,NA,NA,NA,left,1657.89999997616,true,NA,NA,NA,NA,NA
yDzGzEPj,3t2hw4qdvykwn81ckpslwayk1hg9co,3luy3gc633ddqykh1zl9ry2d7tgp7a,yDzGzEPj,2020-0188,2021-10-14,13:00:06,14:05:29,NA,incomplete,false,true,NA,1,32,NA,purple,n_l_013.jpg,NA,NA,unpleasant,pleasant,NA,NA,NA,NA,NA,left,2299.09999999404,true,NA,NA,NA,NA,NA
yDzGzEPj,3t2hw4qdvykwn81ckpslwayk1hg9co,3luy3gc633ddqykh1zl9ry2d7tgp7a,yDzGzEPj,2020-0188,2021-10-14,13:00:06,14:05:29,NA,incomplete,false,true,NA,1,33,NA,purple,m_s_099.jpg,NA,NA,pleasant,unpleasant,NA,NA,NA,NA,NA,left,1578.80000001192,true,NA,NA,NA,NA,NA
yDzGzEPj,3t2hw4qdvykwn81ckpslwayk1hg9co,3luy3gc633ddqykh1zl9ry2d7tgp7a,yDzGzEPj,2020-0188,2021-10-14,13:00:06,14:05:29,NA,incomplete,false,true,NA,1,34,NA,purple,m_l_107.jpg,NA,NA,unpleasant,pleasant,NA,NA,NA,NA,NA,left,2323.70000001788,true,NA,NA,NA,NA,NA
yDzGzEPj,3t2hw4qdvykwn81ckpslwayk1hg9co,3luy3gc633ddqykh1zl9ry2d7tgp7a,yDzGzEPj,2020-0188,2021-10-14,13:00:06,14:05:29,NA,incomplete,false,true,NA,1,35,NA,purple,n_l_005.jpg,NA,NA,pleasant,unpleasant,NA,NA,NA,NA,NA,right,1532.40000000596,true,NA,NA,NA,NA,NA
yDzGzEPj,3t2hw4qdvykwn81ckpslwayk1hg9co,3luy3gc633ddqykh1zl9ry2d7tgp7a,yDzGzEPj,2020-0188,2021-10-14,13:00:06,14:05:29,NA,incomplete,false,NA,true,1,0,NA,NA,NA,right,absent,NA,NA,m_s_016.jpg,brown,n_s_048.jpg,red,between,NA,NaN,NA,left,4827.4000000059605,0,2,2173.5
yDzGzEPj,3t2hw4qdvykwn81ckpslwayk1hg9co,3luy3gc633ddqykh1zl9ry2d7tgp7a,yDzGzEPj,2020-0188,2021-10-14,13:00:06,14:05:29,NA,incomplete,false,NA,true,1,1,NA,NA,NA,left,absent,NA,NA,n_l_105.jpg,black,n_l_027.jpg,black,within,NA,NaN,NA,left,3295,1,2,1526.5
yDzGzEPj,3t2hw4qdvykwn81ckpslwayk1hg9co,3luy3gc633ddqykh1zl9ry2d7tgp7a,yDzGzEPj,2020-0188,2021-10-14,13:00:06,14:05:29,NA,incomplete,false,NA,true,1,2,NA,NA,NA,right,absent,NA,NA,n_l_020.jpg,red,n_l_082.jpg,white,between,NA,NaN,NA,right,4998.799999982119,1,2,4177.300000011921
yDzGzEPj,3t2hw4qdvykwn81ckpslwayk1hg9co,3luy3gc633ddqykh1zl9ry2d7tgp7a,yDzGzEPj,2020-0188,2021-10-14,13:00:06,14:05:29,NA,incomplete,false,NA,true,1,3,NA,NA,NA,right,absent,NA,NA,n_s_092.jpg,green,m_l_018.jpg,green,within,NA,NaN,NA,right,3655.300000011921,1,1,4742.9000000059605
yDzGzEPj,3t2hw4qdvykwn81ckpslwayk1hg9co,3luy3gc633ddqykh1zl9ry2d7tgp7a,yDzGzEPj,2020-0188,2021-10-14,13:00:06,14:05:29,NA,incomplete,false,NA,true,1,4,NA,NA,NA,left,absent,NA,NA,n_l_070.jpg,brown,n_l_013.jpg,purple,between,NA,NaN,NA,right,6463,0,2,1774.4000000059605
yDzGzEPj,3t2hw4qdvykwn81ckpslwayk1hg9co,3luy3gc633ddqykh1zl9ry2d7tgp7a,yDzGzEPj,2020-0188,2021-10-14,13:00:06,14:05:29,NA,incomplete,false,NA,true,1,5,NA,NA,NA,right,absent,NA,NA,m_l_084.jpg,red,m_s_078.jpg,red,within,NA,NaN,NA,right,5250.9000000059605,1,1,9738.800000011921
yDzGzEPj,3t2hw4qdvykwn81ckpslwayk1hg9co,3luy3gc633ddqykh1zl9ry2d7tgp7a,yDzGzEPj,2020-0188,2021-10-14,13:00:06,14:05:29,NA,incomplete,false,NA,true,1,6,NA,NA,NA,right,absent,NA,NA,m_l_117.jpg,white,n_l_092.jpg,white,within,NA,NaN,NA,left,4170.800000011921,0,2,1707
yDzGzEPj,3t2hw4qdvykwn81ckpslwayk1hg9co,3luy3gc633ddqykh1zl9ry2d7tgp7a,yDzGzEPj,2020-0188,2021-10-14,13:00:06,14:05:29,NA,incomplete,false,NA,true,1,7,NA,NA,NA,right,absent,NA,NA,n_s_099.jpg,brown,n_l_018.jpg,brown,within,NA,NaN,NA,left,3698.800000011921,0,2,1078.2000000178814
yDzGzEPj,3t2hw4qdvykwn81ckpslwayk1hg9co,3luy3gc633ddqykh1zl9ry2d7tgp7a,yDzGzEPj,2020-0188,2021-10-14,13:00:06,14:05:29,NA,incomplete,false,NA,true,1,8,NA,NA,NA,right,absent,NA,NA,m_s_009.jpg,green,n_l_054.jpg,black,between,NA,NaN,NA,right,3063.5,1,2,2543
yDzGzEPj,3t2hw4qdvykwn81ckpslwayk1hg9co,3luy3gc633ddqykh1zl9ry2d7tgp7a,yDzGzEPj,2020-0188,2021-10-14,13:00:06,14:05:29,NA,incomplete,false,NA,true,1,9,NA,NA,NA,right,absent,NA,NA,n_s_064.jpg,white,n_l_107.jpg,green,between,NA,NaN,NA,left,2419.0999999940395,0,1,2518.9000000059605
yDzGzEPj,3t2hw4qdvykwn81ckpslwayk1hg9co,3luy3gc633ddqykh1zl9ry2d7tgp7a,yDzGzEPj,2020-0188,2021-10-14,13:00:06,14:05:29,NA,incomplete,false,NA,true,1,10,NA,NA,NA,left,absent,NA,NA,m_s_052.jpg,purple,n_l_005.jpg,purple,within,NA,NaN,NA,left,3319.2999999821186,1,1,1935
yDzGzEPj,3t2hw4qdvykwn81ckpslwayk1hg9co,3luy3gc633ddqykh1zl9ry2d7tgp7a,yDzGzEPj,2020-0188,2021-10-14,13:00:06,14:05:29,NA,incomplete,false,true,NA,2,0,NA,red,n_s_003.jpg,NA,NA,unpleasant,pleasant,NA,NA,NA,NA,NA,left,2657.10000002384,true,NA,NA,NA,NA,NA
yDzGzEPj,3t2hw4qdvykwn81ckpslwayk1hg9co,3luy3gc633ddqykh1zl9ry2d7tgp7a,yDzGzEPj,2020-0188,2021-10-14,13:00:06,14:05:29,NA,incomplete,false,true,NA,2,1,NA,red,n_l_010.jpg,NA,NA,pleasant,unpleasant,NA,NA,NA,NA,NA,right,2000.79999998212,true,NA,NA,NA,NA,NA
yDzGzEPj,3t2hw4qdvykwn81ckpslwayk1hg9co,3luy3gc633ddqykh1zl9ry2d7tgp7a,yDzGzEPj,2020-0188,2021-10-14,13:00:06,14:05:29,NA,incomplete,false,true,NA,2,2,NA,red,m_s_033.jpg,NA,NA,unpleasant,pleasant,NA,NA,NA,NA,NA,left,2545.60000002384,true,NA,NA,NA,NA,NA
yDzGzEPj,3t2hw4qdvykwn81ckpslwayk1hg9co,3luy3gc633ddqykh1zl9ry2d7tgp7a,yDzGzEPj,2020-0188,2021-10-14,13:00:06,14:05:29,NA,incomplete,false,true,NA,2,3,NA,red,m_l_059.jpg,NA,NA,pleasant,unpleasant,NA,NA,NA,NA,NA,right,2121.79999998212,true,NA,NA,NA,NA,NA
yDzGzEPj,3t2hw4qdvykwn81ckpslwayk1hg9co,3luy3gc633ddqykh1zl9ry2d7tgp7a,yDzGzEPj,2020-0188,2021-10-14,13:00:06,14:05:29,NA,incomplete,false,true,NA,2,4,NA,red,m_l_036.jpg,NA,NA,unpleasant,pleasant,NA,NA,NA,NA,NA,right,2018.5,true,NA,NA,NA,NA,NA
yDzGzEPj,3t2hw4qdvykwn81ckpslwayk1hg9co,3luy3gc633ddqykh1zl9ry2d7tgp7a,yDzGzEPj,2020-0188,2021-10-14,13:00:06,14:05:29,NA,incomplete,false,true,NA,2,5,NA,red,m_s_114.jpg,NA,NA,pleasant,unpleasant,NA,NA,NA,NA,NA,left,1786.80000001192,true,NA,NA,NA,NA,NA
yDzGzEPj,3t2hw4qdvykwn81ckpslwayk1hg9co,3luy3gc633ddqykh1zl9ry2d7tgp7a,yDzGzEPj,2020-0188,2021-10-14,13:00:06,14:05:29,NA,incomplete,false,true,NA,2,6,NA,black,n_s_008.jpg,NA,NA,pleasant,unpleasant,NA,NA,NA,NA,NA,left,2738.69999998808,true,NA,NA,NA,NA,NA
yDzGzEPj,3t2hw4qdvykwn81ckpslwayk1hg9co,3luy3gc633ddqykh1zl9ry2d7tgp7a,yDzGzEPj,2020-0188,2021-10-14,13:00:06,14:05:29,NA,incomplete,false,true,NA,2,7,NA,black,m_s_086.jpg,NA,NA,pleasant,unpleasant,NA,NA,NA,NA,NA,left,1955.5,true,NA,NA,NA,NA,NA
yDzGzEPj,3t2hw4qdvykwn81ckpslwayk1hg9co,3luy3gc633ddqykh1zl9ry2d7tgp7a,yDzGzEPj,2020-0188,2021-10-14,13:00:06,14:05:29,NA,incomplete,false,true,NA,2,8,NA,black,m_l_045.jpg,NA,NA,unpleasant,pleasant,NA,NA,NA,NA,NA,right,1843.59999999404,true,NA,NA,NA,NA,NA
yDzGzEPj,3t2hw4qdvykwn81ckpslwayk1hg9co,3luy3gc633ddqykh1zl9ry2d7tgp7a,yDzGzEPj,2020-0188,2021-10-14,13:00:06,14:05:29,NA,incomplete,false,true,NA,2,9,NA,black,m_s_056.jpg,NA,NA,unpleasant,pleasant,NA,NA,NA,NA,NA,right,2124.29999998212,true,NA,NA,NA,NA,NA
yDzGzEPj,3t2hw4qdvykwn81ckpslwayk1hg9co,3luy3gc633ddqykh1zl9ry2d7tgp7a,yDzGzEPj,2020-0188,2021-10-14,13:00:06,14:05:29,NA,incomplete,false,true,NA,2,10,NA,black,n_s_031.jpg,NA,NA,unpleasant,pleasant,NA,NA,NA,NA,NA,left,1812.5,true,NA,NA,NA,NA,NA
yDzGzEPj,3t2hw4qdvykwn81ckpslwayk1hg9co,3luy3gc633ddqykh1zl9ry2d7tgp7a,yDzGzEPj,2020-0188,2021-10-14,13:00:06,14:05:29,NA,incomplete,false,true,NA,2,11,NA,black,m_s_004.jpg,NA,NA,unpleasant,pleasant,NA,NA,NA,NA,NA,right,1382.40000000596,true,NA,NA,NA,NA,NA
yDzGzEPj,3t2hw4qdvykwn81ckpslwayk1hg9co,3luy3gc633ddqykh1zl9ry2d7tgp7a,yDzGzEPj,2020-0188,2021-10-14,13:00:06,14:05:29,NA,incomplete,false,true,NA,2,12,NA,white,n_l_101.jpg,NA,NA,unpleasant,pleasant,NA,NA,NA,NA,NA,right,2214.5,true,NA,NA,NA,NA,NA
yDzGzEPj,3t2hw4qdvykwn81ckpslwayk1hg9co,3luy3gc633ddqykh1zl9ry2d7tgp7a,yDzGzEPj,2020-0188,2021-10-14,13:00:06,14:05:29,NA,incomplete,false,true,NA,2,13,NA,white,n_s_067.jpg,NA,NA,pleasant,unpleasant,NA,NA,NA,NA,NA,left,1619.60000002384,true,NA,NA,NA,NA,NA
yDzGzEPj,3t2hw4qdvykwn81ckpslwayk1hg9co,3luy3gc633ddqykh1zl9ry2d7tgp7a,yDzGzEPj,2020-0188,2021-10-14,13:00:06,14:05:29,NA,incomplete,false,true,NA,2,14,NA,white,m_s_104.jpg,NA,NA,unpleasant,pleasant,NA,NA,NA,NA,NA,right,1389.90000000596,true,NA,NA,NA,NA,NA
yDzGzEPj,3t2hw4qdvykwn81ckpslwayk1hg9co,3luy3gc633ddqykh1zl9ry2d7tgp7a,yDzGzEPj,2020-0188,2021-10-14,13:00:06,14:05:29,NA,incomplete,false,true,NA,2,15,NA,white,n_s_036.jpg,NA,NA,pleasant,unpleasant,NA,NA,NA,NA,NA,right,1695.59999999404,true,NA,NA,NA,NA,NA
yDzGzEPj,3t2hw4qdvykwn81ckpslwayk1hg9co,3luy3gc633ddqykh1zl9ry2d7tgp7a,yDzGzEPj,2020-0188,2021-10-14,13:00:06,14:05:29,NA,incomplete,false,true,NA,2,16,NA,white,n_s_071.jpg,NA,NA,unpleasant,pleasant,NA,NA,NA,NA,NA,left,2024.40000000596,true,NA,NA,NA,NA,NA
yDzGzEPj,3t2hw4qdvykwn81ckpslwayk1hg9co,3luy3gc633ddqykh1zl9ry2d7tgp7a,yDzGzEPj,2020-0188,2021-10-14,13:00:06,14:05:29,NA,incomplete,false,true,NA,2,17,NA,white,n_s_070.jpg,NA,NA,pleasant,unpleasant,NA,NA,NA,NA,NA,right,2376.90000000596,true,NA,NA,NA,NA,NA
yDzGzEPj,3t2hw4qdvykwn81ckpslwayk1hg9co,3luy3gc633ddqykh1zl9ry2d7tgp7a,yDzGzEPj,2020-0188,2021-10-14,13:00:06,14:05:29,NA,incomplete,false,true,NA,2,18,NA,blue,n_l_110.jpg,NA,NA,pleasant,unpleasant,NA,NA,NA,NA,NA,left,2312.89999997616,true,NA,NA,NA,NA,NA
yDzGzEPj,3t2hw4qdvykwn81ckpslwayk1hg9co,3luy3gc633ddqykh1zl9ry2d7tgp7a,yDzGzEPj,2020-0188,2021-10-14,13:00:06,14:05:29,NA,incomplete,false,true,NA,2,19,NA,blue,m_l_030.jpg,NA,NA,pleasant,unpleasant,NA,NA,NA,NA,NA,left,1770.40000000596,true,NA,NA,NA,NA,NA
yDzGzEPj,3t2hw4qdvykwn81ckpslwayk1hg9co,3luy3gc633ddqykh1zl9ry2d7tgp7a,yDzGzEPj,2020-0188,2021-10-14,13:00:06,14:05:29,NA,incomplete,false,true,NA,2,20,NA,blue,m_l_038.jpg,NA,NA,unpleasant,pleasant,NA,NA,NA,NA,NA,right,1914.80000001192,true,NA,NA,NA,NA,NA
yDzGzEPj,3t2hw4qdvykwn81ckpslwayk1hg9co,3luy3gc633ddqykh1zl9ry2d7tgp7a,yDzGzEPj,2020-0188,2021-10-14,13:00:06,14:05:29,NA,incomplete,false,true,NA,2,21,NA,blue,n_s_041.jpg,NA,NA,pleasant,unpleasant,NA,NA,NA,NA,NA,right,1595.59999999404,true,NA,NA,NA,NA,NA
yDzGzEPj,3t2hw4qdvykwn81ckpslwayk1hg9co,3luy3gc633ddqykh1zl9ry2d7tgp7a,yDzGzEPj,2020-0188,2021-10-14,13:00:06,14:05:29,NA,incomplete,false,true,NA,2,22,NA,blue,n_l_019.jpg,NA,NA,unpleasant,pleasant,NA,NA,NA,NA,NA,left,1612.5,true,NA,NA,NA,NA,NA
yDzGzEPj,3t2hw4qdvykwn81ckpslwayk1hg9co,3luy3gc633ddqykh1zl9ry2d7tgp7a,yDzGzEPj,2020-0188,2021-10-14,13:00:06,14:05:29,NA,incomplete,false,true,NA,2,23,NA,blue,n_l_034.jpg,NA,NA,pleasant,unpleasant,NA,NA,NA,NA,NA,right,1453.69999998808,true,NA,NA,NA,NA,NA
yDzGzEPj,3t2hw4qdvykwn81ckpslwayk1hg9co,3luy3gc633ddqykh1zl9ry2d7tgp7a,yDzGzEPj,2020-0188,2021-10-14,13:00:06,14:05:29,NA,incomplete,false,true,NA,2,24,NA,gray,m_l_108.jpg,NA,NA,unpleasant,pleasant,NA,NA,NA,NA,NA,right,2037.70000001788,true,NA,NA,NA,NA,NA
yDzGzEPj,3t2hw4qdvykwn81ckpslwayk1hg9co,3luy3gc633ddqykh1zl9ry2d7tgp7a,yDzGzEPj,2020-0188,2021-10-14,13:00:06,14:05:29,NA,incomplete,false,true,NA,2,25,NA,gray,m_l_039.jpg,NA,NA,unpleasant,pleasant,NA,NA,NA,NA,NA,right,1885.59999999404,true,NA,NA,NA,NA,NA
yDzGzEPj,3t2hw4qdvykwn81ckpslwayk1hg9co,3luy3gc633ddqykh1zl9ry2d7tgp7a,yDzGzEPj,2020-0188,2021-10-14,13:00:06,14:05:29,NA,incomplete,false,true,NA,2,26,NA,gray,n_s_013.jpg,NA,NA,unpleasant,pleasant,NA,NA,NA,NA,NA,left,1326.09999999404,true,NA,NA,NA,NA,NA
yDzGzEPj,3t2hw4qdvykwn81ckpslwayk1hg9co,3luy3gc633ddqykh1zl9ry2d7tgp7a,yDzGzEPj,2020-0188,2021-10-14,13:00:06,14:05:29,NA,incomplete,false,true,NA,2,27,NA,gray,n_s_094.jpg,NA,NA,unpleasant,pleasant,NA,NA,NA,NA,NA,left,2156.5,true,NA,NA,NA,NA,NA
yDzGzEPj,3t2hw4qdvykwn81ckpslwayk1hg9co,3luy3gc633ddqykh1zl9ry2d7tgp7a,yDzGzEPj,2020-0188,2021-10-14,13:00:06,14:05:29,NA,incomplete,false,true,NA,2,28,NA,gray,m_s_032.jpg,NA,NA,unpleasant,pleasant,NA,NA,NA,NA,NA,right,1822.59999999404,true,NA,NA,NA,NA,NA
yDzGzEPj,3t2hw4qdvykwn81ckpslwayk1hg9co,3luy3gc633ddqykh1zl9ry2d7tgp7a,yDzGzEPj,2020-0188,2021-10-14,13:00:06,14:05:29,NA,incomplete,false,true,NA,2,29,NA,gray,m_l_014.jpg,NA,NA,pleasant,unpleasant,NA,NA,NA,NA,NA,left,1790.80000001192,true,NA,NA,NA,NA,NA
yDzGzEPj,3t2hw4qdvykwn81ckpslwayk1hg9co,3luy3gc633ddqykh1zl9ry2d7tgp7a,yDzGzEPj,2020-0188,2021-10-14,13:00:06,14:05:29,NA,incomplete,false,true,NA,2,30,NA,brown,m_l_075.jpg,NA,NA,pleasant,unpleasant,NA,NA,NA,NA,NA,left,2182.59999999404,true,NA,NA,NA,NA,NA
yDzGzEPj,3t2hw4qdvykwn81ckpslwayk1hg9co,3luy3gc633ddqykh1zl9ry2d7tgp7a,yDzGzEPj,2020-0188,2021-10-14,13:00:06,14:05:29,NA,incomplete,false,true,NA,2,31,NA,brown,m_s_040.jpg,NA,NA,unpleasant,pleasant,NA,NA,NA,NA,NA,right,1790.40000000596,true,NA,NA,NA,NA,NA
yDzGzEPj,3t2hw4qdvykwn81ckpslwayk1hg9co,3luy3gc633ddqykh1zl9ry2d7tgp7a,yDzGzEPj,2020-0188,2021-10-14,13:00:06,14:05:29,NA,incomplete,false,true,NA,2,32,NA,brown,m_s_035.jpg,NA,NA,pleasant,unpleasant,NA,NA,NA,NA,NA,right,1695.5,true,NA,NA,NA,NA,NA
yDzGzEPj,3t2hw4qdvykwn81ckpslwayk1hg9co,3luy3gc633ddqykh1zl9ry2d7tgp7a,yDzGzEPj,2020-0188,2021-10-14,13:00:06,14:05:29,NA,incomplete,false,true,NA,2,33,NA,brown,m_l_008.jpg,NA,NA,unpleasant,pleasant,NA,NA,NA,NA,NA,right,1278.30000001192,true,NA,NA,NA,NA,NA
yDzGzEPj,3t2hw4qdvykwn81ckpslwayk1hg9co,3luy3gc633ddqykh1zl9ry2d7tgp7a,yDzGzEPj,2020-0188,2021-10-14,13:00:06,14:05:29,NA,incomplete,false,true,NA,2,34,NA,brown,n_l_098.jpg,NA,NA,pleasant,unpleasant,NA,NA,NA,NA,NA,right,2344.79999998212,true,NA,NA,NA,NA,NA
yDzGzEPj,3t2hw4qdvykwn81ckpslwayk1hg9co,3luy3gc633ddqykh1zl9ry2d7tgp7a,yDzGzEPj,2020-0188,2021-10-14,13:00:06,14:05:29,NA,incomplete,false,true,NA,2,35,NA,brown,n_s_062.jpg,NA,NA,pleasant,unpleasant,NA,NA,NA,NA,NA,right,1460.10000002384,true,NA,NA,NA,NA,NA
yDzGzEPj,3t2hw4qdvykwn81ckpslwayk1hg9co,3luy3gc633ddqykh1zl9ry2d7tgp7a,yDzGzEPj,2020-0188,2021-10-14,13:00:06,14:05:29,NA,incomplete,false,NA,true,2,0,NA,NA,NA,left,present,NA,NA,n_s_071.jpg,white,m_l_038.jpg,blue,between,NA,NaN,NA,right,8194.100000023842,0,1,2926.800000011921
yDzGzEPj,3t2hw4qdvykwn81ckpslwayk1hg9co,3luy3gc633ddqykh1zl9ry2d7tgp7a,yDzGzEPj,2020-0188,2021-10-14,13:00:06,14:05:29,NA,incomplete,false,NA,true,2,1,NA,NA,NA,left,present,NA,NA,m_l_030.jpg,blue,n_l_034.jpg,blue,within,NA,NaN,NA,left,4378.700000017881,1,0,1735.0999999940395
yDzGzEPj,3t2hw4qdvykwn81ckpslwayk1hg9co,3luy3gc633ddqykh1zl9ry2d7tgp7a,yDzGzEPj,2020-0188,2021-10-14,13:00:06,14:05:29,NA,incomplete,false,NA,true,2,2,NA,NA,NA,right,present,NA,NA,n_s_070.jpg,white,n_s_067.jpg,white,within,NA,NaN,NA,right,3351.0999999940395,1,0,2702.7999999821186
yDzGzEPj,3t2hw4qdvykwn81ckpslwayk1hg9co,3luy3gc633ddqykh1zl9ry2d7tgp7a,yDzGzEPj,2020-0188,2021-10-14,13:00:06,14:05:29,NA,incomplete,false,NA,true,2,3,NA,NA,NA,left,present,NA,NA,m_l_039.jpg,gray,m_l_014.jpg,gray,within,NA,NaN,NA,left,3318.699999988079,1,0,1498.5
yDzGzEPj,3t2hw4qdvykwn81ckpslwayk1hg9co,3luy3gc633ddqykh1zl9ry2d7tgp7a,yDzGzEPj,2020-0188,2021-10-14,13:00:06,14:05:29,NA,incomplete,false,NA,true,2,4,NA,NA,NA,right,present,NA,NA,m_l_045.jpg,black,m_l_036.jpg,red,between,NA,NaN,NA,right,4754.5,1,2,2583
yDzGzEPj,3t2hw4qdvykwn81ckpslwayk1hg9co,3luy3gc633ddqykh1zl9ry2d7tgp7a,yDzGzEPj,2020-0188,2021-10-14,13:00:06,14:05:29,NA,incomplete,false,NA,true,2,5,NA,NA,NA,left,present,NA,NA,n_l_019.jpg,blue,n_s_013.jpg,gray,between,NA,NaN,NA,left,4239,1,2,1938.5
yDzGzEPj,3t2hw4qdvykwn81ckpslwayk1hg9co,3luy3gc633ddqykh1zl9ry2d7tgp7a,yDzGzEPj,2020-0188,2021-10-14,13:00:06,14:05:29,NA,incomplete,false,NA,true,2,6,NA,NA,NA,left,present,NA,NA,n_l_010.jpg,red,m_s_114.jpg,red,within,NA,NaN,NA,right,3762.7000000178814,0,0,1522.4000000059605
yDzGzEPj,3t2hw4qdvykwn81ckpslwayk1hg9co,3luy3gc633ddqykh1zl9ry2d7tgp7a,yDzGzEPj,2020-0188,2021-10-14,13:00:06,14:05:29,NA,incomplete,false,NA,true,2,7,NA,NA,NA,left,present,NA,NA,n_s_031.jpg,black,m_s_104.jpg,white,between,NA,NaN,NA,left,3569.4000000059605,1,1,2115.199999988079
yDzGzEPj,3t2hw4qdvykwn81ckpslwayk1hg9co,3luy3gc633ddqykh1zl9ry2d7tgp7a,yDzGzEPj,2020-0188,2021-10-14,13:00:06,14:05:29,NA,incomplete,false,NA,true,2,8,NA,NA,NA,left,present,NA,NA,m_s_086.jpg,black,m_s_004.jpg,black,within,NA,NaN,NA,right,3990.899999976158,0,0,1538.699999988079
yDzGzEPj,3t2hw4qdvykwn81ckpslwayk1hg9co,3luy3gc633ddqykh1zl9ry2d7tgp7a,yDzGzEPj,2020-0188,2021-10-14,13:00:06,14:05:29,NA,incomplete,false,NA,true,2,9,NA,NA,NA,right,present,NA,NA,n_s_062.jpg,brown,m_s_040.jpg,brown,within,NA,NaN,NA,right,3767.0999999940395,1,1,2663.5999999940395
yDzGzEPj,3t2hw4qdvykwn81ckpslwayk1hg9co,3luy3gc633ddqykh1zl9ry2d7tgp7a,yDzGzEPj,2020-0188,2021-10-14,13:00:06,14:05:29,NA,incomplete,false,NA,true,2,10,NA,NA,NA,left,present,NA,NA,m_s_032.jpg,gray,m_s_035.jpg,brown,between,NA,NaN,NA,left,3615.5999999940395,1,2,1947.199999988079
yDzGzEPj,3t2hw4qdvykwn81ckpslwayk1hg9co,3luy3gc633ddqykh1zl9ry2d7tgp7a,yDzGzEPj,2020-0188,2021-10-14,13:00:06,14:05:29,NA,incomplete,false,true,NA,3,0,NA,black,m_l_112.jpg,NA,NA,pleasant,unpleasant,NA,NA,NA,NA,NA,left,2361.90000000596,true,NA,NA,NA,NA,NA
yDzGzEPj,3t2hw4qdvykwn81ckpslwayk1hg9co,3luy3gc633ddqykh1zl9ry2d7tgp7a,yDzGzEPj,2020-0188,2021-10-14,13:00:06,14:05:29,NA,incomplete,false,true,NA,3,1,NA,black,m_l_063.jpg,NA,NA,pleasant,unpleasant,NA,NA,NA,NA,NA,left,1499.5,true,NA,NA,NA,NA,NA
yDzGzEPj,3t2hw4qdvykwn81ckpslwayk1hg9co,3luy3gc633ddqykh1zl9ry2d7tgp7a,yDzGzEPj,2020-0188,2021-10-14,13:00:06,14:05:29,NA,incomplete,false,true,NA,3,2,NA,black,n_s_093.jpg,NA,NA,unpleasant,pleasant,NA,NA,NA,NA,NA,right,2171.5,true,NA,NA,NA,NA,NA
yDzGzEPj,3t2hw4qdvykwn81ckpslwayk1hg9co,3luy3gc633ddqykh1zl9ry2d7tgp7a,yDzGzEPj,2020-0188,2021-10-14,13:00:06,14:05:29,NA,incomplete,false,true,NA,3,3,NA,black,n_s_051.jpg,NA,NA,unpleasant,pleasant,NA,NA,NA,NA,NA,left,1387.60000002384,true,NA,NA,NA,NA,NA
yDzGzEPj,3t2hw4qdvykwn81ckpslwayk1hg9co,3luy3gc633ddqykh1zl9ry2d7tgp7a,yDzGzEPj,2020-0188,2021-10-14,13:00:06,14:05:29,NA,incomplete,false,true,NA,3,4,NA,black,m_l_058.jpg,NA,NA,unpleasant,pleasant,NA,NA,NA,NA,NA,right,1403.90000000596,true,NA,NA,NA,NA,NA
yDzGzEPj,3t2hw4qdvykwn81ckpslwayk1hg9co,3luy3gc633ddqykh1zl9ry2d7tgp7a,yDzGzEPj,2020-0188,2021-10-14,13:00:06,14:05:29,NA,incomplete,false,true,NA,3,5,NA,black,m_l_105.jpg,NA,NA,pleasant,unpleasant,NA,NA,NA,NA,NA,left,1595.5,true,NA,NA,NA,NA,NA
yDzGzEPj,3t2hw4qdvykwn81ckpslwayk1hg9co,3luy3gc633ddqykh1zl9ry2d7tgp7a,yDzGzEPj,2020-0188,2021-10-14,13:00:06,14:05:29,NA,incomplete,false,true,NA,3,6,NA,purple,m_s_038.jpg,NA,NA,pleasant,unpleasant,NA,NA,NA,NA,NA,right,2061.10000002384,true,NA,NA,NA,NA,NA
yDzGzEPj,3t2hw4qdvykwn81ckpslwayk1hg9co,3luy3gc633ddqykh1zl9ry2d7tgp7a,yDzGzEPj,2020-0188,2021-10-14,13:00:06,14:05:29,NA,incomplete,false,true,NA,3,7,NA,purple,n_l_106.jpg,NA,NA,pleasant,unpleasant,NA,NA,NA,NA,NA,right,1198.09999999404,true,NA,NA,NA,NA,NA
yDzGzEPj,3t2hw4qdvykwn81ckpslwayk1hg9co,3luy3gc633ddqykh1zl9ry2d7tgp7a,yDzGzEPj,2020-0188,2021-10-14,13:00:06,14:05:29,NA,incomplete,false,true,NA,3,8,NA,purple,m_l_042.jpg,NA,NA,pleasant,unpleasant,NA,NA,NA,NA,NA,left,1454.5,true,NA,NA,NA,NA,NA
yDzGzEPj,3t2hw4qdvykwn81ckpslwayk1hg9co,3luy3gc633ddqykh1zl9ry2d7tgp7a,yDzGzEPj,2020-0188,2021-10-14,13:00:06,14:05:29,NA,incomplete,false,true,NA,3,9,NA,purple,n_l_046.jpg,NA,NA,unpleasant,pleasant,NA,NA,NA,NA,NA,right,1638.5,true,NA,NA,NA,NA,NA
yDzGzEPj,3t2hw4qdvykwn81ckpslwayk1hg9co,3luy3gc633ddqykh1zl9ry2d7tgp7a,yDzGzEPj,2020-0188,2021-10-14,13:00:06,14:05:29,NA,incomplete,false,true,NA,3,10,NA,purple,n_l_042.jpg,NA,NA,unpleasant,pleasant,NA,NA,NA,NA,NA,left,2079.30000001192,true,NA,NA,NA,NA,NA
yDzGzEPj,3t2hw4qdvykwn81ckpslwayk1hg9co,3luy3gc633ddqykh1zl9ry2d7tgp7a,yDzGzEPj,2020-0188,2021-10-14,13:00:06,14:05:29,NA,incomplete,false,true,NA,3,11,NA,purple,m_s_087.jpg,NA,NA,pleasant,unpleasant,NA,NA,NA,NA,NA,left,1375.90000000596,true,NA,NA,NA,NA,NA
yDzGzEPj,3t2hw4qdvykwn81ckpslwayk1hg9co,3luy3gc633ddqykh1zl9ry2d7tgp7a,yDzGzEPj,2020-0188,2021-10-14,13:00:06,14:05:29,NA,incomplete,false,true,NA,3,12,NA,yellow,n_l_049.jpg,NA,NA,unpleasant,pleasant,NA,NA,NA,NA,NA,left,1600.29999998212,true,NA,NA,NA,NA,NA
yDzGzEPj,3t2hw4qdvykwn81ckpslwayk1hg9co,3luy3gc633ddqykh1zl9ry2d7tgp7a,yDzGzEPj,2020-0188,2021-10-14,13:00:06,14:05:29,NA,incomplete,false,true,NA,3,13,NA,yellow,n_l_055.jpg,NA,NA,unpleasant,pleasant,NA,NA,NA,NA,NA,left,1640.69999998808,true,NA,NA,NA,NA,NA
yDzGzEPj,3t2hw4qdvykwn81ckpslwayk1hg9co,3luy3gc633ddqykh1zl9ry2d7tgp7a,yDzGzEPj,2020-0188,2021-10-14,13:00:06,14:05:29,NA,incomplete,false,true,NA,3,14,NA,yellow,m_s_029.jpg,NA,NA,pleasant,unpleasant,NA,NA,NA,NA,NA,right,1696.69999998808,true,NA,NA,NA,NA,NA
yDzGzEPj,3t2hw4qdvykwn81ckpslwayk1hg9co,3luy3gc633ddqykh1zl9ry2d7tgp7a,yDzGzEPj,2020-0188,2021-10-14,13:00:06,14:05:29,NA,incomplete,false,true,NA,3,15,NA,yellow,m_s_020.jpg,NA,NA,unpleasant,pleasant,NA,NA,NA,NA,NA,right,1441,true,NA,NA,NA,NA,NA
yDzGzEPj,3t2hw4qdvykwn81ckpslwayk1hg9co,3luy3gc633ddqykh1zl9ry2d7tgp7a,yDzGzEPj,2020-0188,2021-10-14,13:00:06,14:05:29,NA,incomplete,false,true,NA,3,16,NA,yellow,n_s_021.jpg,NA,NA,pleasant,unpleasant,NA,NA,NA,NA,NA,right,1233.69999998808,true,NA,NA,NA,NA,NA
yDzGzEPj,3t2hw4qdvykwn81ckpslwayk1hg9co,3luy3gc633ddqykh1zl9ry2d7tgp7a,yDzGzEPj,2020-0188,2021-10-14,13:00:06,14:05:29,NA,incomplete,false,true,NA,3,17,NA,yellow,n_s_007.jpg,NA,NA,unpleasant,pleasant,NA,NA,NA,NA,NA,left,2569.30000001192,true,NA,NA,NA,NA,NA
yDzGzEPj,3t2hw4qdvykwn81ckpslwayk1hg9co,3luy3gc633ddqykh1zl9ry2d7tgp7a,yDzGzEPj,2020-0188,2021-10-14,13:00:06,14:05:29,NA,incomplete,false,true,NA,3,18,NA,green,n_s_016.jpg,NA,NA,unpleasant,pleasant,NA,NA,NA,NA,NA,left,2346.5,true,NA,NA,NA,NA,NA
yDzGzEPj,3t2hw4qdvykwn81ckpslwayk1hg9co,3luy3gc633ddqykh1zl9ry2d7tgp7a,yDzGzEPj,2020-0188,2021-10-14,13:00:06,14:05:29,NA,incomplete,false,true,NA,3,19,NA,green,n_l_024.jpg,NA,NA,pleasant,unpleasant,NA,NA,NA,NA,NA,right,1602.79999998212,true,NA,NA,NA,NA,NA
yDzGzEPj,3t2hw4qdvykwn81ckpslwayk1hg9co,3luy3gc633ddqykh1zl9ry2d7tgp7a,yDzGzEPj,2020-0188,2021-10-14,13:00:06,14:05:29,NA,incomplete,false,true,NA,3,20,NA,green,m_l_095.jpg,NA,NA,pleasant,unpleasant,NA,NA,NA,NA,NA,right,1843,true,NA,NA,NA,NA,NA
yDzGzEPj,3t2hw4qdvykwn81ckpslwayk1hg9co,3luy3gc633ddqykh1zl9ry2d7tgp7a,yDzGzEPj,2020-0188,2021-10-14,13:00:06,14:05:29,NA,incomplete,false,true,NA,3,21,NA,green,m_l_025.jpg,NA,NA,unpleasant,pleasant,NA,NA,NA,NA,NA,right,1268.40000000596,true,NA,NA,NA,NA,NA
yDzGzEPj,3t2hw4qdvykwn81ckpslwayk1hg9co,3luy3gc633ddqykh1zl9ry2d7tgp7a,yDzGzEPj,2020-0188,2021-10-14,13:00:06,14:05:29,NA,incomplete,false,true,NA,3,22,NA,green,n_l_008.jpg,NA,NA,unpleasant,pleasant,NA,NA,NA,NA,NA,left,1292.59999999404,true,NA,NA,NA,NA,NA
yDzGzEPj,3t2hw4qdvykwn81ckpslwayk1hg9co,3luy3gc633ddqykh1zl9ry2d7tgp7a,yDzGzEPj,2020-0188,2021-10-14,13:00:06,14:05:29,NA,incomplete,false,true,NA,3,23,NA,green,m_l_031.jpg,NA,NA,unpleasant,pleasant,NA,NA,NA,NA,NA,right,1820.29999998212,true,NA,NA,NA,NA,NA
yDzGzEPj,3t2hw4qdvykwn81ckpslwayk1hg9co,3luy3gc633ddqykh1zl9ry2d7tgp7a,yDzGzEPj,2020-0188,2021-10-14,13:00:06,14:05:29,NA,incomplete,false,true,NA,3,24,NA,gray,m_s_092.jpg,NA,NA,pleasant,unpleasant,NA,NA,NA,NA,NA,left,2420.80000001192,true,NA,NA,NA,NA,NA
yDzGzEPj,3t2hw4qdvykwn81ckpslwayk1hg9co,3luy3gc633ddqykh1zl9ry2d7tgp7a,yDzGzEPj,2020-0188,2021-10-14,13:00:06,14:05:29,NA,incomplete,false,true,NA,3,25,NA,gray,m_l_100.jpg,NA,NA,unpleasant,pleasant,NA,NA,NA,NA,NA,left,1693.09999999404,true,NA,NA,NA,NA,NA
yDzGzEPj,3t2hw4qdvykwn81ckpslwayk1hg9co,3luy3gc633ddqykh1zl9ry2d7tgp7a,yDzGzEPj,2020-0188,2021-10-14,13:00:06,14:05:29,NA,incomplete,false,true,NA,3,26,NA,gray,n_s_049.jpg,NA,NA,pleasant,unpleasant,NA,NA,NA,NA,NA,left,1933.19999998808,true,NA,NA,NA,NA,NA
yDzGzEPj,3t2hw4qdvykwn81ckpslwayk1hg9co,3luy3gc633ddqykh1zl9ry2d7tgp7a,yDzGzEPj,2020-0188,2021-10-14,13:00:06,14:05:29,NA,incomplete,false,true,NA,3,27,NA,gray,n_l_067.jpg,NA,NA,unpleasant,pleasant,NA,NA,NA,NA,NA,right,2189.90000000596,true,NA,NA,NA,NA,NA
yDzGzEPj,3t2hw4qdvykwn81ckpslwayk1hg9co,3luy3gc633ddqykh1zl9ry2d7tgp7a,yDzGzEPj,2020-0188,2021-10-14,13:00:06,14:05:29,NA,incomplete,false,true,NA,3,28,NA,gray,m_s_093.jpg,NA,NA,pleasant,unpleasant,NA,NA,NA,NA,NA,left,2501.80000001192,true,NA,NA,NA,NA,NA
yDzGzEPj,3t2hw4qdvykwn81ckpslwayk1hg9co,3luy3gc633ddqykh1zl9ry2d7tgp7a,yDzGzEPj,2020-0188,2021-10-14,13:00:06,14:05:29,NA,incomplete,false,true,NA,3,29,NA,gray,m_l_086.jpg,NA,NA,unpleasant,pleasant,NA,NA,NA,NA,NA,right,1390,true,NA,NA,NA,NA,NA
yDzGzEPj,3t2hw4qdvykwn81ckpslwayk1hg9co,3luy3gc633ddqykh1zl9ry2d7tgp7a,yDzGzEPj,2020-0188,2021-10-14,13:00:06,14:05:29,NA,incomplete,false,true,NA,3,30,NA,blue,n_s_014.jpg,NA,NA,unpleasant,pleasant,NA,NA,NA,NA,NA,left,2062.29999998212,true,NA,NA,NA,NA,NA
yDzGzEPj,3t2hw4qdvykwn81ckpslwayk1hg9co,3luy3gc633ddqykh1zl9ry2d7tgp7a,yDzGzEPj,2020-0188,2021-10-14,13:00:06,14:05:29,NA,incomplete,false,true,NA,3,31,NA,blue,m_l_064.jpg,NA,NA,pleasant,unpleasant,NA,NA,NA,NA,NA,right,1238.90000000596,true,NA,NA,NA,NA,NA
yDzGzEPj,3t2hw4qdvykwn81ckpslwayk1hg9co,3luy3gc633ddqykh1zl9ry2d7tgp7a,yDzGzEPj,2020-0188,2021-10-14,13:00:06,14:05:29,NA,incomplete,false,true,NA,3,32,NA,blue,n_s_078.jpg,NA,NA,pleasant,unpleasant,NA,NA,NA,NA,NA,right,1806.79999998212,true,NA,NA,NA,NA,NA
yDzGzEPj,3t2hw4qdvykwn81ckpslwayk1hg9co,3luy3gc633ddqykh1zl9ry2d7tgp7a,yDzGzEPj,2020-0188,2021-10-14,13:00:06,14:05:29,NA,incomplete,false,true,NA,3,33,NA,blue,m_l_106.jpg,NA,NA,unpleasant,pleasant,NA,NA,NA,NA,NA,right,1240,true,NA,NA,NA,NA,NA
yDzGzEPj,3t2hw4qdvykwn81ckpslwayk1hg9co,3luy3gc633ddqykh1zl9ry2d7tgp7a,yDzGzEPj,2020-0188,2021-10-14,13:00:06,14:05:29,NA,incomplete,false,true,NA,3,34,NA,blue,n_l_033.jpg,NA,NA,unpleasant,pleasant,NA,NA,NA,NA,NA,left,1607.90000000596,true,NA,NA,NA,NA,NA
yDzGzEPj,3t2hw4qdvykwn81ckpslwayk1hg9co,3luy3gc633ddqykh1zl9ry2d7tgp7a,yDzGzEPj,2020-0188,2021-10-14,13:00:06,14:05:29,NA,incomplete,false,true,NA,3,35,NA,blue,n_l_009.jpg,NA,NA,pleasant,unpleasant,NA,NA,NA,NA,NA,right,1999.90000000596,true,NA,NA,NA,NA,NA
yDzGzEPj,3t2hw4qdvykwn81ckpslwayk1hg9co,3luy3gc633ddqykh1zl9ry2d7tgp7a,yDzGzEPj,2020-0188,2021-10-14,13:00:06,14:05:29,NA,incomplete,false,NA,true,3,0,NA,NA,NA,left,present,NA,NA,n_l_055.jpg,yellow,n_s_007.jpg,yellow,within,NA,NaN,NA,right,7078.700000017881,0,1,1258.4000000059605
yDzGzEPj,3t2hw4qdvykwn81ckpslwayk1hg9co,3luy3gc633ddqykh1zl9ry2d7tgp7a,yDzGzEPj,2020-0188,2021-10-14,13:00:06,14:05:29,NA,incomplete,false,NA,true,3,1,NA,NA,NA,right,present,NA,NA,n_l_009.jpg,blue,m_l_064.jpg,blue,within,NA,NaN,NA,right,3522.9000000059605,1,1,1670.2000000178814
yDzGzEPj,3t2hw4qdvykwn81ckpslwayk1hg9co,3luy3gc633ddqykh1zl9ry2d7tgp7a,yDzGzEPj,2020-0188,2021-10-14,13:00:06,14:05:29,NA,incomplete,false,NA,true,3,2,NA,NA,NA,right,present,NA,NA,m_l_095.jpg,green,n_s_021.jpg,yellow,between,NA,NaN,NA,right,3664.5,1,1,6829.9000000059605
yDzGzEPj,3t2hw4qdvykwn81ckpslwayk1hg9co,3luy3gc633ddqykh1zl9ry2d7tgp7a,yDzGzEPj,2020-0188,2021-10-14,13:00:06,14:05:29,NA,incomplete,false,NA,true,3,3,NA,NA,NA,left,present,NA,NA,n_l_024.jpg,green,m_l_031.jpg,green,within,NA,NaN,NA,left,3826.5,1,0,1426.5999999940395
yDzGzEPj,3t2hw4qdvykwn81ckpslwayk1hg9co,3luy3gc633ddqykh1zl9ry2d7tgp7a,yDzGzEPj,2020-0188,2021-10-14,13:00:06,14:05:29,NA,incomplete,false,NA,true,3,4,NA,NA,NA,left,present,NA,NA,n_l_106.jpg,purple,m_s_087.jpg,purple,within,NA,NaN,NA,right,2902.300000011921,0,1,1874.699999988079
yDzGzEPj,3t2hw4qdvykwn81ckpslwayk1hg9co,3luy3gc633ddqykh1zl9ry2d7tgp7a,yDzGzEPj,2020-0188,2021-10-14,13:00:06,14:05:29,NA,incomplete,false,NA,true,3,5,NA,NA,NA,right,present,NA,NA,m_l_086.jpg,gray,m_l_100.jpg,gray,within,NA,NaN,NA,left,9746.40000000596,0,0,2314.7000000178814
yDzGzEPj,3t2hw4qdvykwn81ckpslwayk1hg9co,3luy3gc633ddqykh1zl9ry2d7tgp7a,yDzGzEPj,2020-0188,2021-10-14,13:00:06,14:05:29,NA,incomplete,false,NA,true,3,6,NA,NA,NA,left,present,NA,NA,n_l_008.jpg,green,n_s_049.jpg,gray,between,NA,NaN,NA,left,2615.300000011921,1,2,1431
yDzGzEPj,3t2hw4qdvykwn81ckpslwayk1hg9co,3luy3gc633ddqykh1zl9ry2d7tgp7a,yDzGzEPj,2020-0188,2021-10-14,13:00:06,14:05:29,NA,incomplete,false,NA,true,3,7,NA,NA,NA,left,present,NA,NA,m_l_063.jpg,black,m_l_105.jpg,black,within,NA,NaN,NA,right,6146.5,0,0,1907.0999999940395
yDzGzEPj,3t2hw4qdvykwn81ckpslwayk1hg9co,3luy3gc633ddqykh1zl9ry2d7tgp7a,yDzGzEPj,2020-0188,2021-10-14,13:00:06,14:05:29,NA,incomplete,false,NA,true,3,8,NA,NA,NA,right,present,NA,NA,m_l_042.jpg,purple,m_l_058.jpg,black,between,NA,NaN,NA,right,2858.7999999821186,1,1,1874.800000011921
yDzGzEPj,3t2hw4qdvykwn81ckpslwayk1hg9co,3luy3gc633ddqykh1zl9ry2d7tgp7a,yDzGzEPj,2020-0188,2021-10-14,13:00:06,14:05:29,NA,incomplete,false,NA,true,3,9,NA,NA,NA,right,present,NA,NA,m_s_029.jpg,yellow,n_l_042.jpg,purple,between,NA,NaN,NA,right,2410.600000023842,1,1,1170.7999999821186
yDzGzEPj,3t2hw4qdvykwn81ckpslwayk1hg9co,3luy3gc633ddqykh1zl9ry2d7tgp7a,yDzGzEPj,2020-0188,2021-10-14,13:00:06,14:05:29,NA,incomplete,false,NA,true,3,10,NA,NA,NA,left,present,NA,NA,m_s_093.jpg,gray,n_s_078.jpg,blue,between,NA,NaN,NA,left,11839,1,1,1363.5
yDzGzEPj,3t2hw4qdvykwn81ckpslwayk1hg9co,3luy3gc633ddqykh1zl9ry2d7tgp7a,yDzGzEPj,2020-0188,2021-10-14,13:00:06,14:05:29,NA,incomplete,false,true,NA,4,0,NA,brown,n_s_077.jpg,NA,NA,unpleasant,pleasant,NA,NA,NA,NA,NA,left,2312.20000001788,true,NA,NA,NA,NA,NA
yDzGzEPj,3t2hw4qdvykwn81ckpslwayk1hg9co,3luy3gc633ddqykh1zl9ry2d7tgp7a,yDzGzEPj,2020-0188,2021-10-14,13:00:06,14:05:29,NA,incomplete,false,true,NA,4,1,NA,brown,m_l_116.jpg,NA,NA,unpleasant,pleasant,NA,NA,NA,NA,NA,right,2385.30000001192,true,NA,NA,NA,NA,NA
yDzGzEPj,3t2hw4qdvykwn81ckpslwayk1hg9co,3luy3gc633ddqykh1zl9ry2d7tgp7a,yDzGzEPj,2020-0188,2021-10-14,13:00:06,14:05:29,NA,incomplete,false,true,NA,4,2,NA,brown,n_s_054.jpg,NA,NA,unpleasant,pleasant,NA,NA,NA,NA,NA,left,1537.60000002384,true,NA,NA,NA,NA,NA
yDzGzEPj,3t2hw4qdvykwn81ckpslwayk1hg9co,3luy3gc633ddqykh1zl9ry2d7tgp7a,yDzGzEPj,2020-0188,2021-10-14,13:00:06,14:05:29,NA,incomplete,false,true,NA,4,3,NA,brown,n_l_062.jpg,NA,NA,unpleasant,pleasant,NA,NA,NA,NA,NA,right,1449.89999997616,true,NA,NA,NA,NA,NA
yDzGzEPj,3t2hw4qdvykwn81ckpslwayk1hg9co,3luy3gc633ddqykh1zl9ry2d7tgp7a,yDzGzEPj,2020-0188,2021-10-14,13:00:06,14:05:29,NA,incomplete,false,true,NA,4,4,NA,brown,n_l_093.jpg,NA,NA,unpleasant,pleasant,NA,NA,NA,NA,NA,left,1969,true,NA,NA,NA,NA,NA
yDzGzEPj,3t2hw4qdvykwn81ckpslwayk1hg9co,3luy3gc633ddqykh1zl9ry2d7tgp7a,yDzGzEPj,2020-0188,2021-10-14,13:00:06,14:05:29,NA,incomplete,false,true,NA,4,5,NA,brown,m_s_042.jpg,NA,NA,unpleasant,pleasant,NA,NA,NA,NA,NA,left,2514.70000001788,true,NA,NA,NA,NA,NA
yDzGzEPj,3t2hw4qdvykwn81ckpslwayk1hg9co,3luy3gc633ddqykh1zl9ry2d7tgp7a,yDzGzEPj,2020-0188,2021-10-14,13:00:06,14:05:29,NA,incomplete,false,true,NA,4,6,NA,orange,n_s_028.jpg,NA,NA,pleasant,unpleasant,NA,NA,NA,NA,NA,right,1746.90000000596,true,NA,NA,NA,NA,NA
yDzGzEPj,3t2hw4qdvykwn81ckpslwayk1hg9co,3luy3gc633ddqykh1zl9ry2d7tgp7a,yDzGzEPj,2020-0188,2021-10-14,13:00:06,14:05:29,NA,incomplete,false,true,NA,4,7,NA,orange,n_s_091.jpg,NA,NA,unpleasant,pleasant,NA,NA,NA,NA,NA,left,1635.80000001192,true,NA,NA,NA,NA,NA
yDzGzEPj,3t2hw4qdvykwn81ckpslwayk1hg9co,3luy3gc633ddqykh1zl9ry2d7tgp7a,yDzGzEPj,2020-0188,2021-10-14,13:00:06,14:05:29,NA,incomplete,false,true,NA,4,8,NA,orange,n_l_075.jpg,NA,NA,unpleasant,pleasant,NA,NA,NA,NA,NA,right,2372.20000001788,true,NA,NA,NA,NA,NA
yDzGzEPj,3t2hw4qdvykwn81ckpslwayk1hg9co,3luy3gc633ddqykh1zl9ry2d7tgp7a,yDzGzEPj,2020-0188,2021-10-14,13:00:06,14:05:29,NA,incomplete,false,true,NA,4,9,NA,orange,n_l_114.jpg,NA,NA,pleasant,unpleasant,NA,NA,NA,NA,NA,right,1835.69999998808,true,NA,NA,NA,NA,NA
yDzGzEPj,3t2hw4qdvykwn81ckpslwayk1hg9co,3luy3gc633ddqykh1zl9ry2d7tgp7a,yDzGzEPj,2020-0188,2021-10-14,13:00:06,14:05:29,NA,incomplete,false,true,NA,4,10,NA,orange,n_l_038.jpg,NA,NA,pleasant,unpleasant,NA,NA,NA,NA,NA,right,1380.09999999404,true,NA,NA,NA,NA,NA
yDzGzEPj,3t2hw4qdvykwn81ckpslwayk1hg9co,3luy3gc633ddqykh1zl9ry2d7tgp7a,yDzGzEPj,2020-0188,2021-10-14,13:00:06,14:05:29,NA,incomplete,false,true,NA,4,11,NA,orange,m_l_070.jpg,NA,NA,unpleasant,pleasant,NA,NA,NA,NA,NA,right,2269.70000001788,true,NA,NA,NA,NA,NA
yDzGzEPj,3t2hw4qdvykwn81ckpslwayk1hg9co,3luy3gc633ddqykh1zl9ry2d7tgp7a,yDzGzEPj,2020-0188,2021-10-14,13:00:06,14:05:29,NA,incomplete,false,true,NA,4,12,NA,blue,m_l_044.jpg,NA,NA,unpleasant,pleasant,NA,NA,NA,NA,NA,right,1885.59999999404,true,NA,NA,NA,NA,NA
yDzGzEPj,3t2hw4qdvykwn81ckpslwayk1hg9co,3luy3gc633ddqykh1zl9ry2d7tgp7a,yDzGzEPj,2020-0188,2021-10-14,13:00:06,14:05:29,NA,incomplete,false,true,NA,4,13,NA,blue,n_s_075.jpg,NA,NA,pleasant,unpleasant,NA,NA,NA,NA,NA,right,2101.79999998212,true,NA,NA,NA,NA,NA
yDzGzEPj,3t2hw4qdvykwn81ckpslwayk1hg9co,3luy3gc633ddqykh1zl9ry2d7tgp7a,yDzGzEPj,2020-0188,2021-10-14,13:00:06,14:05:29,NA,incomplete,false,true,NA,4,14,NA,blue,n_s_046.jpg,NA,NA,unpleasant,pleasant,NA,NA,NA,NA,NA,left,1718,true,NA,NA,NA,NA,NA
yDzGzEPj,3t2hw4qdvykwn81ckpslwayk1hg9co,3luy3gc633ddqykh1zl9ry2d7tgp7a,yDzGzEPj,2020-0188,2021-10-14,13:00:06,14:05:29,NA,incomplete,false,true,NA,4,15,NA,blue,m_l_057.jpg,NA,NA,unpleasant,pleasant,NA,NA,NA,NA,NA,right,1717.69999998808,true,NA,NA,NA,NA,NA
yDzGzEPj,3t2hw4qdvykwn81ckpslwayk1hg9co,3luy3gc633ddqykh1zl9ry2d7tgp7a,yDzGzEPj,2020-0188,2021-10-14,13:00:06,14:05:29,NA,incomplete,false,true,NA,4,16,NA,blue,m_s_031.jpg,NA,NA,pleasant,unpleasant,NA,NA,NA,NA,NA,left,1412.40000000596,true,NA,NA,NA,NA,NA
yDzGzEPj,3t2hw4qdvykwn81ckpslwayk1hg9co,3luy3gc633ddqykh1zl9ry2d7tgp7a,yDzGzEPj,2020-0188,2021-10-14,13:00:06,14:05:29,NA,incomplete,false,true,NA,4,17,NA,blue,n_l_016.jpg,NA,NA,unpleasant,pleasant,NA,NA,NA,NA,NA,left,1510.59999999404,true,NA,NA,NA,NA,NA
yDzGzEPj,3t2hw4qdvykwn81ckpslwayk1hg9co,3luy3gc633ddqykh1zl9ry2d7tgp7a,yDzGzEPj,2020-0188,2021-10-14,13:00:06,14:05:29,NA,incomplete,false,true,NA,4,18,NA,black,m_l_111.jpg,NA,NA,pleasant,unpleasant,NA,NA,NA,NA,NA,left,2216,true,NA,NA,NA,NA,NA
yDzGzEPj,3t2hw4qdvykwn81ckpslwayk1hg9co,3luy3gc633ddqykh1zl9ry2d7tgp7a,yDzGzEPj,2020-0188,2021-10-14,13:00:06,14:05:29,NA,incomplete,false,true,NA,4,19,NA,black,n_l_109.jpg,NA,NA,pleasant,unpleasant,NA,NA,NA,NA,NA,left,2112.20000001788,true,NA,NA,NA,NA,NA
yDzGzEPj,3t2hw4qdvykwn81ckpslwayk1hg9co,3luy3gc633ddqykh1zl9ry2d7tgp7a,yDzGzEPj,2020-0188,2021-10-14,13:00:06,14:05:29,NA,incomplete,false,true,NA,4,20,NA,black,n_s_111.jpg,NA,NA,unpleasant,pleasant,NA,NA,NA,NA,NA,left,1578,true,NA,NA,NA,NA,NA
yDzGzEPj,3t2hw4qdvykwn81ckpslwayk1hg9co,3luy3gc633ddqykh1zl9ry2d7tgp7a,yDzGzEPj,2020-0188,2021-10-14,13:00:06,14:05:29,NA,incomplete,false,true,NA,4,21,NA,black,n_l_102.jpg,NA,NA,unpleasant,pleasant,NA,NA,NA,NA,NA,right,2122.09999999404,true,NA,NA,NA,NA,NA
yDzGzEPj,3t2hw4qdvykwn81ckpslwayk1hg9co,3luy3gc633ddqykh1zl9ry2d7tgp7a,yDzGzEPj,2020-0188,2021-10-14,13:00:06,14:05:29,NA,incomplete,false,true,NA,4,22,NA,black,m_s_117.jpg,NA,NA,pleasant,unpleasant,NA,NA,NA,NA,NA,left,1386.19999998808,true,NA,NA,NA,NA,NA
yDzGzEPj,3t2hw4qdvykwn81ckpslwayk1hg9co,3luy3gc633ddqykh1zl9ry2d7tgp7a,yDzGzEPj,2020-0188,2021-10-14,13:00:06,14:05:29,NA,incomplete,false,true,NA,4,23,NA,black,m_l_081.jpg,NA,NA,unpleasant,pleasant,NA,NA,NA,NA,NA,right,2146.30000001192,true,NA,NA,NA,NA,NA
yDzGzEPj,3t2hw4qdvykwn81ckpslwayk1hg9co,3luy3gc633ddqykh1zl9ry2d7tgp7a,yDzGzEPj,2020-0188,2021-10-14,13:00:06,14:05:29,NA,incomplete,false,true,NA,4,24,NA,white,m_s_039.jpg,NA,NA,pleasant,unpleasant,NA,NA,NA,NA,NA,left,1771.5,true,NA,NA,NA,NA,NA
yDzGzEPj,3t2hw4qdvykwn81ckpslwayk1hg9co,3luy3gc633ddqykh1zl9ry2d7tgp7a,yDzGzEPj,2020-0188,2021-10-14,13:00:06,14:05:29,NA,incomplete,false,true,NA,4,25,NA,white,n_l_091.jpg,NA,NA,unpleasant,pleasant,NA,NA,NA,NA,NA,left,2243.59999999404,true,NA,NA,NA,NA,NA
yDzGzEPj,3t2hw4qdvykwn81ckpslwayk1hg9co,3luy3gc633ddqykh1zl9ry2d7tgp7a,yDzGzEPj,2020-0188,2021-10-14,13:00:06,14:05:29,NA,incomplete,false,true,NA,4,26,NA,white,n_s_113.jpg,NA,NA,unpleasant,pleasant,NA,NA,NA,NA,NA,right,2300.70000001788,true,NA,NA,NA,NA,NA
yDzGzEPj,3t2hw4qdvykwn81ckpslwayk1hg9co,3luy3gc633ddqykh1zl9ry2d7tgp7a,yDzGzEPj,2020-0188,2021-10-14,13:00:06,14:05:29,NA,incomplete,false,true,NA,4,27,NA,white,n_l_059.jpg,NA,NA,unpleasant,pleasant,NA,NA,NA,NA,NA,right,2228.59999999404,true,NA,NA,NA,NA,NA
yDzGzEPj,3t2hw4qdvykwn81ckpslwayk1hg9co,3luy3gc633ddqykh1zl9ry2d7tgp7a,yDzGzEPj,2020-0188,2021-10-14,13:00:06,14:05:29,NA,incomplete,false,true,NA,4,28,NA,white,m_l_103.jpg,NA,NA,unpleasant,pleasant,NA,NA,NA,NA,NA,right,2005.5,true,NA,NA,NA,NA,NA
yDzGzEPj,3t2hw4qdvykwn81ckpslwayk1hg9co,3luy3gc633ddqykh1zl9ry2d7tgp7a,yDzGzEPj,2020-0188,2021-10-14,13:00:06,14:05:29,NA,incomplete,false,true,NA,4,29,NA,white,n_s_072.jpg,NA,NA,pleasant,unpleasant,NA,NA,NA,NA,NA,left,1646.20000001788,true,NA,NA,NA,NA,NA
yDzGzEPj,3t2hw4qdvykwn81ckpslwayk1hg9co,3luy3gc633ddqykh1zl9ry2d7tgp7a,yDzGzEPj,2020-0188,2021-10-14,13:00:06,14:05:29,NA,incomplete,false,true,NA,4,30,NA,yellow,m_s_091.jpg,NA,NA,pleasant,unpleasant,NA,NA,NA,NA,NA,right,1678.19999998808,true,NA,NA,NA,NA,NA
yDzGzEPj,3t2hw4qdvykwn81ckpslwayk1hg9co,3luy3gc633ddqykh1zl9ry2d7tgp7a,yDzGzEPj,2020-0188,2021-10-14,13:00:06,14:05:29,NA,incomplete,false,true,NA,4,31,NA,yellow,m_l_060.jpg,NA,NA,pleasant,unpleasant,NA,NA,NA,NA,NA,left,1519.40000000596,true,NA,NA,NA,NA,NA
yDzGzEPj,3t2hw4qdvykwn81ckpslwayk1hg9co,3luy3gc633ddqykh1zl9ry2d7tgp7a,yDzGzEPj,2020-0188,2021-10-14,13:00:06,14:05:29,NA,incomplete,false,true,NA,4,32,NA,yellow,m_s_101.jpg,NA,NA,unpleasant,pleasant,NA,NA,NA,NA,NA,left,1584.79999998212,true,NA,NA,NA,NA,NA
yDzGzEPj,3t2hw4qdvykwn81ckpslwayk1hg9co,3luy3gc633ddqykh1zl9ry2d7tgp7a,yDzGzEPj,2020-0188,2021-10-14,13:00:06,14:05:29,NA,incomplete,false,true,NA,4,33,NA,yellow,n_s_097.jpg,NA,NA,pleasant,unpleasant,NA,NA,NA,NA,NA,right,1223.70000001788,true,NA,NA,NA,NA,NA
yDzGzEPj,3t2hw4qdvykwn81ckpslwayk1hg9co,3luy3gc633ddqykh1zl9ry2d7tgp7a,yDzGzEPj,2020-0188,2021-10-14,13:00:06,14:05:29,NA,incomplete,false,true,NA,4,34,NA,yellow,m_s_037.jpg,NA,NA,pleasant,unpleasant,NA,NA,NA,NA,NA,left,1288.59999999404,true,NA,NA,NA,NA,NA
yDzGzEPj,3t2hw4qdvykwn81ckpslwayk1hg9co,3luy3gc633ddqykh1zl9ry2d7tgp7a,yDzGzEPj,2020-0188,2021-10-14,13:00:06,14:05:29,NA,incomplete,false,true,NA,4,35,NA,yellow,m_s_049.jpg,NA,NA,unpleasant,pleasant,NA,NA,NA,NA,NA,left,1386.30000001192,true,NA,NA,NA,NA,NA
yDzGzEPj,3t2hw4qdvykwn81ckpslwayk1hg9co,3luy3gc633ddqykh1zl9ry2d7tgp7a,yDzGzEPj,2020-0188,2021-10-14,13:00:06,14:05:29,NA,incomplete,false,NA,true,4,0,NA,NA,NA,right,absent,NA,NA,n_l_075.jpg,orange,n_l_093.jpg,brown,between,NA,NaN,NA,right,4595.0999999940395,1,2,1542.0999999940395
yDzGzEPj,3t2hw4qdvykwn81ckpslwayk1hg9co,3luy3gc633ddqykh1zl9ry2d7tgp7a,yDzGzEPj,2020-0188,2021-10-14,13:00:06,14:05:29,NA,incomplete,false,NA,true,4,1,NA,NA,NA,left,absent,NA,NA,n_s_091.jpg,orange,m_l_070.jpg,orange,within,NA,NaN,NA,left,3327.2000000178814,1,2,2184.7999999821186
yDzGzEPj,3t2hw4qdvykwn81ckpslwayk1hg9co,3luy3gc633ddqykh1zl9ry2d7tgp7a,yDzGzEPj,2020-0188,2021-10-14,13:00:06,14:05:29,NA,incomplete,false,NA,true,4,2,NA,NA,NA,left,absent,NA,NA,m_l_116.jpg,brown,m_s_042.jpg,brown,within,NA,NaN,NA,left,3058.199999988079,1,2,1436.3999999761581
yDzGzEPj,3t2hw4qdvykwn81ckpslwayk1hg9co,3luy3gc633ddqykh1zl9ry2d7tgp7a,yDzGzEPj,2020-0188,2021-10-14,13:00:06,14:05:29,NA,incomplete,false,NA,true,4,3,NA,NA,NA,left,absent,NA,NA,m_l_103.jpg,white,m_s_101.jpg,yellow,between,NA,NaN,NA,left,3924.7999999821186,1,1,1609.9000000059605
yDzGzEPj,3t2hw4qdvykwn81ckpslwayk1hg9co,3luy3gc633ddqykh1zl9ry2d7tgp7a,yDzGzEPj,2020-0188,2021-10-14,13:00:06,14:05:29,NA,incomplete,false,NA,true,4,4,NA,NA,NA,left,absent,NA,NA,n_l_109.jpg,black,m_l_081.jpg,black,within,NA,NaN,NA,left,3239.4000000059605,1,1,1258.2999999821186
yDzGzEPj,3t2hw4qdvykwn81ckpslwayk1hg9co,3luy3gc633ddqykh1zl9ry2d7tgp7a,yDzGzEPj,2020-0188,2021-10-14,13:00:06,14:05:29,NA,incomplete,false,NA,true,4,5,NA,NA,NA,right,absent,NA,NA,n_s_111.jpg,black,m_s_031.jpg,blue,between,NA,NaN,NA,left,2703.0999999940395,0,1,2006.5
yDzGzEPj,3t2hw4qdvykwn81ckpslwayk1hg9co,3luy3gc633ddqykh1zl9ry2d7tgp7a,yDzGzEPj,2020-0188,2021-10-14,13:00:06,14:05:29,NA,incomplete,false,NA,true,4,6,NA,NA,NA,right,absent,NA,NA,n_s_072.jpg,white,n_l_091.jpg,white,within,NA,NaN,NA,left,2625.800000011921,0,2,1559
yDzGzEPj,3t2hw4qdvykwn81ckpslwayk1hg9co,3luy3gc633ddqykh1zl9ry2d7tgp7a,yDzGzEPj,2020-0188,2021-10-14,13:00:06,14:05:29,NA,incomplete,false,NA,true,4,7,NA,NA,NA,right,absent,NA,NA,n_s_046.jpg,blue,n_l_038.jpg,orange,between,NA,NaN,NA,left,2451.5,0,1,1582.800000011921
yDzGzEPj,3t2hw4qdvykwn81ckpslwayk1hg9co,3luy3gc633ddqykh1zl9ry2d7tgp7a,yDzGzEPj,2020-0188,2021-10-14,13:00:06,14:05:29,NA,incomplete,false,NA,true,4,8,NA,NA,NA,left,absent,NA,NA,n_s_075.jpg,blue,n_l_016.jpg,blue,within,NA,NaN,NA,right,2513.7999999821186,0,1,1852.5
yDzGzEPj,3t2hw4qdvykwn81ckpslwayk1hg9co,3luy3gc633ddqykh1zl9ry2d7tgp7a,yDzGzEPj,2020-0188,2021-10-14,13:00:06,14:05:29,NA,incomplete,false,NA,true,4,9,NA,NA,NA,left,absent,NA,NA,m_l_060.jpg,yellow,m_s_049.jpg,yellow,within,NA,NaN,NA,left,3211,1,2,1382.2000000178814
yDzGzEPj,3t2hw4qdvykwn81ckpslwayk1hg9co,3luy3gc633ddqykh1zl9ry2d7tgp7a,yDzGzEPj,2020-0188,2021-10-14,13:00:06,14:05:29,NA,incomplete,false,NA,true,4,10,NA,NA,NA,left,absent,NA,NA,m_s_117.jpg,black,n_s_113.jpg,white,between,NA,NaN,NA,right,7003.199999988079,0,1,2031.1000000238419
yDzGzEPj,3t2hw4qdvykwn81ckpslwayk1hg9co,3luy3gc633ddqykh1zl9ry2d7tgp7a,yDzGzEPj,2020-0188,2021-10-14,13:00:06,14:05:29,NA,incomplete,false,true,NA,5,0,NA,red,n_l_096.jpg,NA,NA,pleasant,unpleasant,NA,NA,NA,NA,NA,right,2255.69999998808,true,NA,NA,NA,NA,NA
yDzGzEPj,3t2hw4qdvykwn81ckpslwayk1hg9co,3luy3gc633ddqykh1zl9ry2d7tgp7a,yDzGzEPj,2020-0188,2021-10-14,13:00:06,14:05:29,NA,incomplete,false,true,NA,5,1,NA,red,n_s_083.jpg,NA,NA,unpleasant,pleasant,NA,NA,NA,NA,NA,right,1647.5,true,NA,NA,NA,NA,NA
yDzGzEPj,3t2hw4qdvykwn81ckpslwayk1hg9co,3luy3gc633ddqykh1zl9ry2d7tgp7a,yDzGzEPj,2020-0188,2021-10-14,13:00:06,14:05:29,NA,incomplete,false,true,NA,5,2,NA,red,m_l_065.jpg,NA,NA,pleasant,unpleasant,NA,NA,NA,NA,NA,right,1385.29999998212,true,NA,NA,NA,NA,NA
yDzGzEPj,3t2hw4qdvykwn81ckpslwayk1hg9co,3luy3gc633ddqykh1zl9ry2d7tgp7a,yDzGzEPj,2020-0188,2021-10-14,13:00:06,14:05:29,NA,incomplete,false,true,NA,5,3,NA,red,m_l_088.jpg,NA,NA,pleasant,unpleasant,NA,NA,NA,NA,NA,right,2032.90000000596,true,NA,NA,NA,NA,NA
yDzGzEPj,3t2hw4qdvykwn81ckpslwayk1hg9co,3luy3gc633ddqykh1zl9ry2d7tgp7a,yDzGzEPj,2020-0188,2021-10-14,13:00:06,14:05:29,NA,incomplete,false,true,NA,5,4,NA,red,m_l_037.jpg,NA,NA,pleasant,unpleasant,NA,NA,NA,NA,NA,right,1537.59999999404,true,NA,NA,NA,NA,NA
yDzGzEPj,3t2hw4qdvykwn81ckpslwayk1hg9co,3luy3gc633ddqykh1zl9ry2d7tgp7a,yDzGzEPj,2020-0188,2021-10-14,13:00:06,14:05:29,NA,incomplete,false,true,NA,5,5,NA,red,n_s_006.jpg,NA,NA,pleasant,unpleasant,NA,NA,NA,NA,NA,left,1346.29999998212,true,NA,NA,NA,NA,NA
yDzGzEPj,3t2hw4qdvykwn81ckpslwayk1hg9co,3luy3gc633ddqykh1zl9ry2d7tgp7a,yDzGzEPj,2020-0188,2021-10-14,13:00:06,14:05:29,NA,incomplete,false,true,NA,5,6,NA,black,n_s_050.jpg,NA,NA,pleasant,unpleasant,NA,NA,NA,NA,NA,right,2225.29999998212,true,NA,NA,NA,NA,NA
yDzGzEPj,3t2hw4qdvykwn81ckpslwayk1hg9co,3luy3gc633ddqykh1zl9ry2d7tgp7a,yDzGzEPj,2020-0188,2021-10-14,13:00:06,14:05:29,NA,incomplete,false,true,NA,5,7,NA,black,m_s_100.jpg,NA,NA,pleasant,unpleasant,NA,NA,NA,NA,NA,left,2236.69999998808,true,NA,NA,NA,NA,NA
yDzGzEPj,3t2hw4qdvykwn81ckpslwayk1hg9co,3luy3gc633ddqykh1zl9ry2d7tgp7a,yDzGzEPj,2020-0188,2021-10-14,13:00:06,14:05:29,NA,incomplete,false,true,NA,5,8,NA,black,m_s_024.jpg,NA,NA,unpleasant,pleasant,NA,NA,NA,NA,NA,left,1645.59999999404,true,NA,NA,NA,NA,NA
yDzGzEPj,3t2hw4qdvykwn81ckpslwayk1hg9co,3luy3gc633ddqykh1zl9ry2d7tgp7a,yDzGzEPj,2020-0188,2021-10-14,13:00:06,14:05:29,NA,incomplete,false,true,NA,5,9,NA,black,m_l_080.jpg,NA,NA,pleasant,unpleasant,NA,NA,NA,NA,NA,right,2277.59999999404,true,NA,NA,NA,NA,NA
yDzGzEPj,3t2hw4qdvykwn81ckpslwayk1hg9co,3luy3gc633ddqykh1zl9ry2d7tgp7a,yDzGzEPj,2020-0188,2021-10-14,13:00:06,14:05:29,NA,incomplete,false,true,NA,5,10,NA,black,n_l_083.jpg,NA,NA,pleasant,unpleasant,NA,NA,NA,NA,NA,left,1342.69999998808,true,NA,NA,NA,NA,NA
yDzGzEPj,3t2hw4qdvykwn81ckpslwayk1hg9co,3luy3gc633ddqykh1zl9ry2d7tgp7a,yDzGzEPj,2020-0188,2021-10-14,13:00:06,14:05:29,NA,incomplete,false,true,NA,5,11,NA,black,n_s_096.jpg,NA,NA,pleasant,unpleasant,NA,NA,NA,NA,NA,right,2308.5,true,NA,NA,NA,NA,NA
yDzGzEPj,3t2hw4qdvykwn81ckpslwayk1hg9co,3luy3gc633ddqykh1zl9ry2d7tgp7a,yDzGzEPj,2020-0188,2021-10-14,13:00:06,14:05:29,NA,incomplete,false,true,NA,5,12,NA,brown,m_s_014.jpg,NA,NA,pleasant,unpleasant,NA,NA,NA,NA,NA,left,1668.80000001192,true,NA,NA,NA,NA,NA
yDzGzEPj,3t2hw4qdvykwn81ckpslwayk1hg9co,3luy3gc633ddqykh1zl9ry2d7tgp7a,yDzGzEPj,2020-0188,2021-10-14,13:00:06,14:05:29,NA,incomplete,false,true,NA,5,13,NA,brown,n_s_089.jpg,NA,NA,unpleasant,pleasant,NA,NA,NA,NA,NA,right,1301.19999998808,true,NA,NA,NA,NA,NA
yDzGzEPj,3t2hw4qdvykwn81ckpslwayk1hg9co,3luy3gc633ddqykh1zl9ry2d7tgp7a,yDzGzEPj,2020-0188,2021-10-14,13:00:06,14:05:29,NA,incomplete,false,true,NA,5,14,NA,brown,m_s_094.jpg,NA,NA,pleasant,unpleasant,NA,NA,NA,NA,NA,right,1880.70000001788,true,NA,NA,NA,NA,NA
yDzGzEPj,3t2hw4qdvykwn81ckpslwayk1hg9co,3luy3gc633ddqykh1zl9ry2d7tgp7a,yDzGzEPj,2020-0188,2021-10-14,13:00:06,14:05:29,NA,incomplete,false,true,NA,5,15,NA,brown,m_l_104.jpg,NA,NA,unpleasant,pleasant,NA,NA,NA,NA,NA,right,1797.59999999404,true,NA,NA,NA,NA,NA
yDzGzEPj,3t2hw4qdvykwn81ckpslwayk1hg9co,3luy3gc633ddqykh1zl9ry2d7tgp7a,yDzGzEPj,2020-0188,2021-10-14,13:00:06,14:05:29,NA,incomplete,false,true,NA,5,16,NA,brown,m_s_098.jpg,NA,NA,pleasant,unpleasant,NA,NA,NA,NA,NA,right,1478.5,true,NA,NA,NA,NA,NA
yDzGzEPj,3t2hw4qdvykwn81ckpslwayk1hg9co,3luy3gc633ddqykh1zl9ry2d7tgp7a,yDzGzEPj,2020-0188,2021-10-14,13:00:06,14:05:29,NA,incomplete,false,true,NA,5,17,NA,brown,n_l_030.jpg,NA,NA,pleasant,unpleasant,NA,NA,NA,NA,NA,left,1335.80000001192,true,NA,NA,NA,NA,NA
yDzGzEPj,3t2hw4qdvykwn81ckpslwayk1hg9co,3luy3gc633ddqykh1zl9ry2d7tgp7a,yDzGzEPj,2020-0188,2021-10-14,13:00:06,14:05:29,NA,incomplete,false,true,NA,5,18,NA,orange,n_s_066.jpg,NA,NA,pleasant,unpleasant,NA,NA,NA,NA,NA,right,1888,true,NA,NA,NA,NA,NA
yDzGzEPj,3t2hw4qdvykwn81ckpslwayk1hg9co,3luy3gc633ddqykh1zl9ry2d7tgp7a,yDzGzEPj,2020-0188,2021-10-14,13:00:06,14:05:29,NA,incomplete,false,true,NA,5,19,NA,orange,m_s_116.jpg,NA,NA,unpleasant,pleasant,NA,NA,NA,NA,NA,right,1999.19999998808,true,NA,NA,NA,NA,NA
yDzGzEPj,3t2hw4qdvykwn81ckpslwayk1hg9co,3luy3gc633ddqykh1zl9ry2d7tgp7a,yDzGzEPj,2020-0188,2021-10-14,13:00:06,14:05:29,NA,incomplete,false,true,NA,5,20,NA,orange,m_l_083.jpg,NA,NA,unpleasant,pleasant,NA,NA,NA,NA,NA,right,1508.69999998808,true,NA,NA,NA,NA,NA
yDzGzEPj,3t2hw4qdvykwn81ckpslwayk1hg9co,3luy3gc633ddqykh1zl9ry2d7tgp7a,yDzGzEPj,2020-0188,2021-10-14,13:00:06,14:05:29,NA,incomplete,false,true,NA,5,21,NA,orange,m_s_073.jpg,NA,NA,unpleasant,pleasant,NA,NA,NA,NA,NA,right,1860.69999998808,true,NA,NA,NA,NA,NA
yDzGzEPj,3t2hw4qdvykwn81ckpslwayk1hg9co,3luy3gc633ddqykh1zl9ry2d7tgp7a,yDzGzEPj,2020-0188,2021-10-14,13:00:06,14:05:29,NA,incomplete,false,true,NA,5,22,NA,orange,m_l_043.jpg,NA,NA,pleasant,unpleasant,NA,NA,NA,NA,NA,left,1746.70000001788,true,NA,NA,NA,NA,NA
yDzGzEPj,3t2hw4qdvykwn81ckpslwayk1hg9co,3luy3gc633ddqykh1zl9ry2d7tgp7a,yDzGzEPj,2020-0188,2021-10-14,13:00:06,14:05:29,NA,incomplete,false,true,NA,5,23,NA,orange,n_l_014.jpg,NA,NA,unpleasant,pleasant,NA,NA,NA,NA,NA,right,1419.89999997616,true,NA,NA,NA,NA,NA
yDzGzEPj,3t2hw4qdvykwn81ckpslwayk1hg9co,3luy3gc633ddqykh1zl9ry2d7tgp7a,yDzGzEPj,2020-0188,2021-10-14,13:00:06,14:05:29,NA,incomplete,false,true,NA,5,24,NA,green,m_s_063.jpg,NA,NA,unpleasant,pleasant,NA,NA,NA,NA,NA,right,1843.69999998808,true,NA,NA,NA,NA,NA
yDzGzEPj,3t2hw4qdvykwn81ckpslwayk1hg9co,3luy3gc633ddqykh1zl9ry2d7tgp7a,yDzGzEPj,2020-0188,2021-10-14,13:00:06,14:05:29,NA,incomplete,false,true,NA,5,25,NA,green,n_s_069.jpg,NA,NA,unpleasant,pleasant,NA,NA,NA,NA,NA,right,1804.5,true,NA,NA,NA,NA,NA
yDzGzEPj,3t2hw4qdvykwn81ckpslwayk1hg9co,3luy3gc633ddqykh1zl9ry2d7tgp7a,yDzGzEPj,2020-0188,2021-10-14,13:00:06,14:05:29,NA,incomplete,false,true,NA,5,26,NA,green,n_l_006.jpg,NA,NA,pleasant,unpleasant,NA,NA,NA,NA,NA,right,1357.19999998808,true,NA,NA,NA,NA,NA
yDzGzEPj,3t2hw4qdvykwn81ckpslwayk1hg9co,3luy3gc633ddqykh1zl9ry2d7tgp7a,yDzGzEPj,2020-0188,2021-10-14,13:00:06,14:05:29,NA,incomplete,false,true,NA,5,27,NA,green,m_s_022.jpg,NA,NA,unpleasant,pleasant,NA,NA,NA,NA,NA,right,1884.89999997616,true,NA,NA,NA,NA,NA
yDzGzEPj,3t2hw4qdvykwn81ckpslwayk1hg9co,3luy3gc633ddqykh1zl9ry2d7tgp7a,yDzGzEPj,2020-0188,2021-10-14,13:00:06,14:05:29,NA,incomplete,false,true,NA,5,28,NA,green,n_l_048.jpg,NA,NA,pleasant,unpleasant,NA,NA,NA,NA,NA,right,1308.69999998808,true,NA,NA,NA,NA,NA
yDzGzEPj,3t2hw4qdvykwn81ckpslwayk1hg9co,3luy3gc633ddqykh1zl9ry2d7tgp7a,yDzGzEPj,2020-0188,2021-10-14,13:00:06,14:05:29,NA,incomplete,false,true,NA,5,29,NA,green,m_s_005.jpg,NA,NA,unpleasant,pleasant,NA,NA,NA,NA,NA,right,2382,true,NA,NA,NA,NA,NA
yDzGzEPj,3t2hw4qdvykwn81ckpslwayk1hg9co,3luy3gc633ddqykh1zl9ry2d7tgp7a,yDzGzEPj,2020-0188,2021-10-14,13:00:06,14:05:29,NA,incomplete,false,true,NA,5,30,NA,blue,n_l_103.jpg,NA,NA,unpleasant,pleasant,NA,NA,NA,NA,NA,left,1465.19999998808,true,NA,NA,NA,NA,NA
yDzGzEPj,3t2hw4qdvykwn81ckpslwayk1hg9co,3luy3gc633ddqykh1zl9ry2d7tgp7a,yDzGzEPj,2020-0188,2021-10-14,13:00:06,14:05:29,NA,incomplete,false,true,NA,5,31,NA,blue,n_l_031.jpg,NA,NA,pleasant,unpleasant,NA,NA,NA,NA,NA,right,1350.40000000596,true,NA,NA,NA,NA,NA
yDzGzEPj,3t2hw4qdvykwn81ckpslwayk1hg9co,3luy3gc633ddqykh1zl9ry2d7tgp7a,yDzGzEPj,2020-0188,2021-10-14,13:00:06,14:05:29,NA,incomplete,false,true,NA,5,32,NA,blue,m_s_055.jpg,NA,NA,pleasant,unpleasant,NA,NA,NA,NA,NA,left,1557.79999998212,true,NA,NA,NA,NA,NA
yDzGzEPj,3t2hw4qdvykwn81ckpslwayk1hg9co,3luy3gc633ddqykh1zl9ry2d7tgp7a,yDzGzEPj,2020-0188,2021-10-14,13:00:06,14:05:29,NA,incomplete,false,true,NA,5,33,NA,blue,m_s_107.jpg,NA,NA,unpleasant,pleasant,NA,NA,NA,NA,NA,left,2229,true,NA,NA,NA,NA,NA
yDzGzEPj,3t2hw4qdvykwn81ckpslwayk1hg9co,3luy3gc633ddqykh1zl9ry2d7tgp7a,yDzGzEPj,2020-0188,2021-10-14,13:00:06,14:05:29,NA,incomplete,false,true,NA,5,34,NA,blue,n_s_056.jpg,NA,NA,pleasant,unpleasant,NA,NA,NA,NA,NA,right,1446.20000001788,true,NA,NA,NA,NA,NA
yDzGzEPj,3t2hw4qdvykwn81ckpslwayk1hg9co,3luy3gc633ddqykh1zl9ry2d7tgp7a,yDzGzEPj,2020-0188,2021-10-14,13:00:06,14:05:29,NA,incomplete,false,true,NA,5,35,NA,blue,m_s_045.jpg,NA,NA,pleasant,unpleasant,NA,NA,NA,NA,NA,left,1503.79999998212,true,NA,NA,NA,NA,NA
yDzGzEPj,3t2hw4qdvykwn81ckpslwayk1hg9co,3luy3gc633ddqykh1zl9ry2d7tgp7a,yDzGzEPj,2020-0188,2021-10-14,13:00:06,14:05:29,NA,incomplete,false,NA,true,5,0,NA,NA,NA,right,absent,NA,NA,n_s_006.jpg,red,n_s_083.jpg,red,within,NA,NaN,NA,right,4571.0999999940395,1,1,1319
yDzGzEPj,3t2hw4qdvykwn81ckpslwayk1hg9co,3luy3gc633ddqykh1zl9ry2d7tgp7a,yDzGzEPj,2020-0188,2021-10-14,13:00:06,14:05:29,NA,incomplete,false,NA,true,5,1,NA,NA,NA,left,absent,NA,NA,m_s_098.jpg,brown,m_l_083.jpg,orange,between,NA,NaN,NA,right,3589,0,1,1171.699999988079
yDzGzEPj,3t2hw4qdvykwn81ckpslwayk1hg9co,3luy3gc633ddqykh1zl9ry2d7tgp7a,yDzGzEPj,2020-0188,2021-10-14,13:00:06,14:05:29,NA,incomplete,false,NA,true,5,2,NA,NA,NA,left,absent,NA,NA,m_s_116.jpg,orange,n_l_014.jpg,orange,within,NA,NaN,NA,left,3158.5,1,2,1935
yDzGzEPj,3t2hw4qdvykwn81ckpslwayk1hg9co,3luy3gc633ddqykh1zl9ry2d7tgp7a,yDzGzEPj,2020-0188,2021-10-14,13:00:06,14:05:29,NA,incomplete,false,NA,true,5,3,NA,NA,NA,right,absent,NA,NA,m_s_094.jpg,brown,n_l_083.jpg,black,between,NA,NaN,NA,right,2903.5999999940395,1,2,1707.199999988079
yDzGzEPj,3t2hw4qdvykwn81ckpslwayk1hg9co,3luy3gc633ddqykh1zl9ry2d7tgp7a,yDzGzEPj,2020-0188,2021-10-14,13:00:06,14:05:29,NA,incomplete,false,NA,true,5,4,NA,NA,NA,right,absent,NA,NA,n_s_096.jpg,black,m_s_100.jpg,black,within,NA,NaN,NA,left,2712.300000011921,0,2,1590.8999999761581
yDzGzEPj,3t2hw4qdvykwn81ckpslwayk1hg9co,3luy3gc633ddqykh1zl9ry2d7tgp7a,yDzGzEPj,2020-0188,2021-10-14,13:00:06,14:05:29,NA,incomplete,false,NA,true,5,5,NA,NA,NA,right,absent,NA,NA,m_s_045.jpg,blue,n_l_031.jpg,blue,within,NA,NaN,NA,right,3921.7000000178814,1,1,1158.300000011921
yDzGzEPj,3t2hw4qdvykwn81ckpslwayk1hg9co,3luy3gc633ddqykh1zl9ry2d7tgp7a,yDzGzEPj,2020-0188,2021-10-14,13:00:06,14:05:29,NA,incomplete,false,NA,true,5,6,NA,NA,NA,right,absent,NA,NA,m_s_055.jpg,blue,n_l_048.jpg,green,between,NA,NaN,NA,right,5316.699999988079,1,2,1358.5999999940395
yDzGzEPj,3t2hw4qdvykwn81ckpslwayk1hg9co,3luy3gc633ddqykh1zl9ry2d7tgp7a,yDzGzEPj,2020-0188,2021-10-14,13:00:06,14:05:29,NA,incomplete,false,NA,true,5,7,NA,NA,NA,right,absent,NA,NA,n_l_030.jpg,brown,n_s_089.jpg,brown,within,NA,NaN,NA,left,3478.7999999821186,0,1,1863.0999999940395
yDzGzEPj,3t2hw4qdvykwn81ckpslwayk1hg9co,3luy3gc633ddqykh1zl9ry2d7tgp7a,yDzGzEPj,2020-0188,2021-10-14,13:00:06,14:05:29,NA,incomplete,false,NA,true,5,8,NA,NA,NA,left,absent,NA,NA,m_l_043.jpg,orange,n_l_006.jpg,green,between,NA,NaN,NA,right,6461.5999999940395,0,1,1611.0999999940395
yDzGzEPj,3t2hw4qdvykwn81ckpslwayk1hg9co,3luy3gc633ddqykh1zl9ry2d7tgp7a,yDzGzEPj,2020-0188,2021-10-14,13:00:06,14:05:29,NA,incomplete,false,NA,true,5,9,NA,NA,NA,left,absent,NA,NA,n_s_069.jpg,green,m_s_005.jpg,green,within,NA,NaN,NA,left,2396,1,3,2562.5
yDzGzEPj,3t2hw4qdvykwn81ckpslwayk1hg9co,3luy3gc633ddqykh1zl9ry2d7tgp7a,yDzGzEPj,2020-0188,2021-10-14,13:00:06,14:05:29,NA,incomplete,false,NA,true,5,10,NA,NA,NA,left,absent,NA,NA,m_l_037.jpg,red,m_s_024.jpg,black,between,NA,NaN,NA,left,2745.4000000059605,1,2,1387
yDzGzEPj,3t2hw4qdvykwn81ckpslwayk1hg9co,3luy3gc633ddqykh1zl9ry2d7tgp7a,yDzGzEPj,2020-0188,2021-10-14,13:00:06,14:05:29,NA,incomplete,false,true,NA,6,0,NA,green,n_l_097.jpg,NA,NA,pleasant,unpleasant,NA,NA,NA,NA,NA,right,2274.40000000596,true,NA,NA,NA,NA,NA
yDzGzEPj,3t2hw4qdvykwn81ckpslwayk1hg9co,3luy3gc633ddqykh1zl9ry2d7tgp7a,yDzGzEPj,2020-0188,2021-10-14,13:00:06,14:05:29,NA,incomplete,false,true,NA,6,1,NA,green,m_l_035.jpg,NA,NA,unpleasant,pleasant,NA,NA,NA,NA,NA,right,2066.80000001192,true,NA,NA,NA,NA,NA
yDzGzEPj,3t2hw4qdvykwn81ckpslwayk1hg9co,3luy3gc633ddqykh1zl9ry2d7tgp7a,yDzGzEPj,2020-0188,2021-10-14,13:00:06,14:05:29,NA,incomplete,false,true,NA,6,2,NA,green,n_s_038.jpg,NA,NA,unpleasant,pleasant,NA,NA,NA,NA,NA,right,2155,true,NA,NA,NA,NA,NA
yDzGzEPj,3t2hw4qdvykwn81ckpslwayk1hg9co,3luy3gc633ddqykh1zl9ry2d7tgp7a,yDzGzEPj,2020-0188,2021-10-14,13:00:06,14:05:29,NA,incomplete,false,true,NA,6,3,NA,green,m_l_093.jpg,NA,NA,pleasant,unpleasant,NA,NA,NA,NA,NA,right,2107.09999999404,true,NA,NA,NA,NA,NA
yDzGzEPj,3t2hw4qdvykwn81ckpslwayk1hg9co,3luy3gc633ddqykh1zl9ry2d7tgp7a,yDzGzEPj,2020-0188,2021-10-14,13:00:06,14:05:29,NA,incomplete,false,true,NA,6,4,NA,green,n_l_040.jpg,NA,NA,pleasant,unpleasant,NA,NA,NA,NA,NA,left,1595,true,NA,NA,NA,NA,NA
yDzGzEPj,3t2hw4qdvykwn81ckpslwayk1hg9co,3luy3gc633ddqykh1zl9ry2d7tgp7a,yDzGzEPj,2020-0188,2021-10-14,13:00:06,14:05:29,NA,incomplete,false,true,NA,6,5,NA,green,n_l_007.jpg,NA,NA,unpleasant,pleasant,NA,NA,NA,NA,NA,right,1972.90000000596,true,NA,NA,NA,NA,NA
yDzGzEPj,3t2hw4qdvykwn81ckpslwayk1hg9co,3luy3gc633ddqykh1zl9ry2d7tgp7a,yDzGzEPj,2020-0188,2021-10-14,13:00:06,14:05:29,NA,incomplete,false,true,NA,6,6,NA,gray,m_s_011.jpg,NA,NA,pleasant,unpleasant,NA,NA,NA,NA,NA,left,2378.90000000596,true,NA,NA,NA,NA,NA
yDzGzEPj,3t2hw4qdvykwn81ckpslwayk1hg9co,3luy3gc633ddqykh1zl9ry2d7tgp7a,yDzGzEPj,2020-0188,2021-10-14,13:00:06,14:05:29,NA,incomplete,false,true,NA,6,7,NA,gray,n_l_050.jpg,NA,NA,pleasant,unpleasant,NA,NA,NA,NA,NA,right,1317.59999999404,true,NA,NA,NA,NA,NA
yDzGzEPj,3t2hw4qdvykwn81ckpslwayk1hg9co,3luy3gc633ddqykh1zl9ry2d7tgp7a,yDzGzEPj,2020-0188,2021-10-14,13:00:06,14:05:29,NA,incomplete,false,true,NA,6,8,NA,gray,n_l_017.jpg,NA,NA,unpleasant,pleasant,NA,NA,NA,NA,NA,right,1262.79999998212,true,NA,NA,NA,NA,NA
yDzGzEPj,3t2hw4qdvykwn81ckpslwayk1hg9co,3luy3gc633ddqykh1zl9ry2d7tgp7a,yDzGzEPj,2020-0188,2021-10-14,13:00:06,14:05:29,NA,incomplete,false,true,NA,6,9,NA,gray,m_s_017.jpg,NA,NA,unpleasant,pleasant,NA,NA,NA,NA,NA,right,1895.19999998808,true,NA,NA,NA,NA,NA
yDzGzEPj,3t2hw4qdvykwn81ckpslwayk1hg9co,3luy3gc633ddqykh1zl9ry2d7tgp7a,yDzGzEPj,2020-0188,2021-10-14,13:00:06,14:05:29,NA,incomplete,false,true,NA,6,10,NA,gray,n_s_107.jpg,NA,NA,pleasant,unpleasant,NA,NA,NA,NA,NA,right,1951.19999998808,true,NA,NA,NA,NA,NA
yDzGzEPj,3t2hw4qdvykwn81ckpslwayk1hg9co,3luy3gc633ddqykh1zl9ry2d7tgp7a,yDzGzEPj,2020-0188,2021-10-14,13:00:06,14:05:29,NA,incomplete,false,true,NA,6,11,NA,gray,m_s_109.jpg,NA,NA,pleasant,unpleasant,NA,NA,NA,NA,NA,right,1560.59999999404,true,NA,NA,NA,NA,NA
yDzGzEPj,3t2hw4qdvykwn81ckpslwayk1hg9co,3luy3gc633ddqykh1zl9ry2d7tgp7a,yDzGzEPj,2020-0188,2021-10-14,13:00:06,14:05:29,NA,incomplete,false,true,NA,6,12,NA,white,n_s_053.jpg,NA,NA,unpleasant,pleasant,NA,NA,NA,NA,NA,right,1777.30000001192,true,NA,NA,NA,NA,NA
yDzGzEPj,3t2hw4qdvykwn81ckpslwayk1hg9co,3luy3gc633ddqykh1zl9ry2d7tgp7a,yDzGzEPj,2020-0188,2021-10-14,13:00:06,14:05:29,NA,incomplete,false,true,NA,6,13,NA,white,m_s_083.jpg,NA,NA,unpleasant,pleasant,NA,NA,NA,NA,NA,right,1274,true,NA,NA,NA,NA,NA
yDzGzEPj,3t2hw4qdvykwn81ckpslwayk1hg9co,3luy3gc633ddqykh1zl9ry2d7tgp7a,yDzGzEPj,2020-0188,2021-10-14,13:00:06,14:05:29,NA,incomplete,false,true,NA,6,14,NA,white,n_l_080.jpg,NA,NA,pleasant,unpleasant,NA,NA,NA,NA,NA,right,1370.80000001192,true,NA,NA,NA,NA,NA
yDzGzEPj,3t2hw4qdvykwn81ckpslwayk1hg9co,3luy3gc633ddqykh1zl9ry2d7tgp7a,yDzGzEPj,2020-0188,2021-10-14,13:00:06,14:05:29,NA,incomplete,false,true,NA,6,15,NA,white,n_s_032.jpg,NA,NA,pleasant,unpleasant,NA,NA,NA,NA,NA,right,1610.59999999404,true,NA,NA,NA,NA,NA
yDzGzEPj,3t2hw4qdvykwn81ckpslwayk1hg9co,3luy3gc633ddqykh1zl9ry2d7tgp7a,yDzGzEPj,2020-0188,2021-10-14,13:00:06,14:05:29,NA,incomplete,false,true,NA,6,16,NA,white,m_l_092.jpg,NA,NA,pleasant,unpleasant,NA,NA,NA,NA,NA,left,1604.40000000596,true,NA,NA,NA,NA,NA
yDzGzEPj,3t2hw4qdvykwn81ckpslwayk1hg9co,3luy3gc633ddqykh1zl9ry2d7tgp7a,yDzGzEPj,2020-0188,2021-10-14,13:00:06,14:05:29,NA,incomplete,false,true,NA,6,17,NA,white,m_s_077.jpg,NA,NA,unpleasant,pleasant,NA,NA,NA,NA,NA,right,1971.90000000596,true,NA,NA,NA,NA,NA
yDzGzEPj,3t2hw4qdvykwn81ckpslwayk1hg9co,3luy3gc633ddqykh1zl9ry2d7tgp7a,yDzGzEPj,2020-0188,2021-10-14,13:00:06,14:05:29,NA,incomplete,false,true,NA,6,18,NA,brown,m_l_050.jpg,NA,NA,pleasant,unpleasant,NA,NA,NA,NA,NA,left,1387.80000001192,true,NA,NA,NA,NA,NA
yDzGzEPj,3t2hw4qdvykwn81ckpslwayk1hg9co,3luy3gc633ddqykh1zl9ry2d7tgp7a,yDzGzEPj,2020-0188,2021-10-14,13:00:06,14:05:29,NA,incomplete,false,true,NA,6,19,NA,brown,n_s_058.jpg,NA,NA,pleasant,unpleasant,NA,NA,NA,NA,NA,left,1620.09999999404,true,NA,NA,NA,NA,NA
yDzGzEPj,3t2hw4qdvykwn81ckpslwayk1hg9co,3luy3gc633ddqykh1zl9ry2d7tgp7a,yDzGzEPj,2020-0188,2021-10-14,13:00:06,14:05:29,NA,incomplete,false,true,NA,6,20,NA,brown,n_s_018.jpg,NA,NA,unpleasant,pleasant,NA,NA,NA,NA,NA,right,1278,true,NA,NA,NA,NA,NA
yDzGzEPj,3t2hw4qdvykwn81ckpslwayk1hg9co,3luy3gc633ddqykh1zl9ry2d7tgp7a,yDzGzEPj,2020-0188,2021-10-14,13:00:06,14:05:29,NA,incomplete,false,true,NA,6,21,NA,brown,n_s_117.jpg,NA,NA,unpleasant,pleasant,NA,NA,NA,NA,NA,right,1340.79999998212,true,NA,NA,NA,NA,NA
yDzGzEPj,3t2hw4qdvykwn81ckpslwayk1hg9co,3luy3gc633ddqykh1zl9ry2d7tgp7a,yDzGzEPj,2020-0188,2021-10-14,13:00:06,14:05:29,NA,incomplete,false,true,NA,6,22,NA,brown,m_s_008.jpg,NA,NA,unpleasant,pleasant,NA,NA,NA,NA,NA,right,1453.40000000596,true,NA,NA,NA,NA,NA
yDzGzEPj,3t2hw4qdvykwn81ckpslwayk1hg9co,3luy3gc633ddqykh1zl9ry2d7tgp7a,yDzGzEPj,2020-0188,2021-10-14,13:00:06,14:05:29,NA,incomplete,false,true,NA,6,23,NA,brown,n_s_104.jpg,NA,NA,unpleasant,pleasant,NA,NA,NA,NA,NA,left,1861.69999998808,true,NA,NA,NA,NA,NA
yDzGzEPj,3t2hw4qdvykwn81ckpslwayk1hg9co,3luy3gc633ddqykh1zl9ry2d7tgp7a,yDzGzEPj,2020-0188,2021-10-14,13:00:06,14:05:29,NA,incomplete,false,true,NA,6,24,NA,purple,m_l_054.jpg,NA,NA,unpleasant,pleasant,NA,NA,NA,NA,NA,right,2190.30000001192,true,NA,NA,NA,NA,NA
yDzGzEPj,3t2hw4qdvykwn81ckpslwayk1hg9co,3luy3gc633ddqykh1zl9ry2d7tgp7a,yDzGzEPj,2020-0188,2021-10-14,13:00:06,14:05:29,NA,incomplete,false,true,NA,6,25,NA,purple,n_s_010.jpg,NA,NA,pleasant,unpleasant,NA,NA,NA,NA,NA,left,1598.69999998808,true,NA,NA,NA,NA,NA
yDzGzEPj,3t2hw4qdvykwn81ckpslwayk1hg9co,3luy3gc633ddqykh1zl9ry2d7tgp7a,yDzGzEPj,2020-0188,2021-10-14,13:00:06,14:05:29,NA,incomplete,false,true,NA,6,26,NA,purple,m_l_017.jpg,NA,NA,unpleasant,pleasant,NA,NA,NA,NA,NA,right,1632.59999999404,true,NA,NA,NA,NA,NA
yDzGzEPj,3t2hw4qdvykwn81ckpslwayk1hg9co,3luy3gc633ddqykh1zl9ry2d7tgp7a,yDzGzEPj,2020-0188,2021-10-14,13:00:06,14:05:29,NA,incomplete,false,true,NA,6,27,NA,purple,m_l_078.jpg,NA,NA,unpleasant,pleasant,NA,NA,NA,NA,NA,right,1847.60000002384,true,NA,NA,NA,NA,NA
yDzGzEPj,3t2hw4qdvykwn81ckpslwayk1hg9co,3luy3gc633ddqykh1zl9ry2d7tgp7a,yDzGzEPj,2020-0188,2021-10-14,13:00:06,14:05:29,NA,incomplete,false,true,NA,6,28,NA,purple,n_l_036.jpg,NA,NA,unpleasant,pleasant,NA,NA,NA,NA,NA,right,1664.60000002384,true,NA,NA,NA,NA,NA
yDzGzEPj,3t2hw4qdvykwn81ckpslwayk1hg9co,3luy3gc633ddqykh1zl9ry2d7tgp7a,yDzGzEPj,2020-0188,2021-10-14,13:00:06,14:05:29,NA,incomplete,false,true,NA,6,29,NA,purple,m_s_113.jpg,NA,NA,unpleasant,pleasant,NA,NA,NA,NA,NA,right,1073.80000001192,true,NA,NA,NA,NA,NA
yDzGzEPj,3t2hw4qdvykwn81ckpslwayk1hg9co,3luy3gc633ddqykh1zl9ry2d7tgp7a,yDzGzEPj,2020-0188,2021-10-14,13:00:06,14:05:29,NA,incomplete,false,true,NA,6,30,NA,black,m_s_090.jpg,NA,NA,pleasant,unpleasant,NA,NA,NA,NA,NA,left,2066,true,NA,NA,NA,NA,NA
yDzGzEPj,3t2hw4qdvykwn81ckpslwayk1hg9co,3luy3gc633ddqykh1zl9ry2d7tgp7a,yDzGzEPj,2020-0188,2021-10-14,13:00:06,14:05:29,NA,incomplete,false,true,NA,6,31,NA,black,m_l_082.jpg,NA,NA,unpleasant,pleasant,NA,NA,NA,NA,NA,right,1154,true,NA,NA,NA,NA,NA
yDzGzEPj,3t2hw4qdvykwn81ckpslwayk1hg9co,3luy3gc633ddqykh1zl9ry2d7tgp7a,yDzGzEPj,2020-0188,2021-10-14,13:00:06,14:05:29,NA,incomplete,false,true,NA,6,32,NA,black,m_s_023.jpg,NA,NA,unpleasant,pleasant,NA,NA,NA,NA,NA,right,1114.59999999404,true,NA,NA,NA,NA,NA
yDzGzEPj,3t2hw4qdvykwn81ckpslwayk1hg9co,3luy3gc633ddqykh1zl9ry2d7tgp7a,yDzGzEPj,2020-0188,2021-10-14,13:00:06,14:05:29,NA,incomplete,false,true,NA,6,33,NA,black,n_l_068.jpg,NA,NA,pleasant,unpleasant,NA,NA,NA,NA,NA,left,2146.90000000596,true,NA,NA,NA,NA,NA
yDzGzEPj,3t2hw4qdvykwn81ckpslwayk1hg9co,3luy3gc633ddqykh1zl9ry2d7tgp7a,yDzGzEPj,2020-0188,2021-10-14,13:00:06,14:05:29,NA,incomplete,false,true,NA,6,34,NA,black,n_l_115.jpg,NA,NA,pleasant,unpleasant,NA,NA,NA,NA,NA,right,1732.20000001788,true,NA,NA,NA,NA,NA
yDzGzEPj,3t2hw4qdvykwn81ckpslwayk1hg9co,3luy3gc633ddqykh1zl9ry2d7tgp7a,yDzGzEPj,2020-0188,2021-10-14,13:00:06,14:05:29,NA,incomplete,false,true,NA,6,35,NA,black,m_l_015.jpg,NA,NA,unpleasant,pleasant,NA,NA,NA,NA,NA,right,1653.80000001192,true,NA,NA,NA,NA,NA
yDzGzEPj,3t2hw4qdvykwn81ckpslwayk1hg9co,3luy3gc633ddqykh1zl9ry2d7tgp7a,yDzGzEPj,2020-0188,2021-10-14,13:00:06,14:05:29,NA,incomplete,false,NA,true,6,0,NA,NA,NA,right,absent,NA,NA,n_l_007.jpg,green,m_l_035.jpg,green,within,NA,NaN,NA,left,5133.0999999940395,0,1,1252.1000000238419
yDzGzEPj,3t2hw4qdvykwn81ckpslwayk1hg9co,3luy3gc633ddqykh1zl9ry2d7tgp7a,yDzGzEPj,2020-0188,2021-10-14,13:00:06,14:05:29,NA,incomplete,false,NA,true,6,1,NA,NA,NA,right,absent,NA,NA,n_l_017.jpg,gray,n_l_040.jpg,green,between,NA,NaN,NA,left,6210.9000000059605,0,0,1381.9000000059605
yDzGzEPj,3t2hw4qdvykwn81ckpslwayk1hg9co,3luy3gc633ddqykh1zl9ry2d7tgp7a,yDzGzEPj,2020-0188,2021-10-14,13:00:06,14:05:29,NA,incomplete,false,NA,true,6,2,NA,NA,NA,left,absent,NA,NA,n_l_050.jpg,gray,m_s_109.jpg,gray,within,NA,NaN,NA,left,5801.700000017881,1,0,1036.800000011921
yDzGzEPj,3t2hw4qdvykwn81ckpslwayk1hg9co,3luy3gc633ddqykh1zl9ry2d7tgp7a,yDzGzEPj,2020-0188,2021-10-14,13:00:06,14:05:29,NA,incomplete,false,NA,true,6,3,NA,NA,NA,right,absent,NA,NA,n_s_018.jpg,brown,m_l_092.jpg,white,between,NA,NaN,NA,right,3178.5,1,2,1982.4000000059605
yDzGzEPj,3t2hw4qdvykwn81ckpslwayk1hg9co,3luy3gc633ddqykh1zl9ry2d7tgp7a,yDzGzEPj,2020-0188,2021-10-14,13:00:06,14:05:29,NA,incomplete,false,NA,true,6,4,NA,NA,NA,left,absent,NA,NA,n_s_058.jpg,brown,n_s_104.jpg,brown,within,NA,NaN,NA,left,2624.5999999940395,1,2,1639
yDzGzEPj,3t2hw4qdvykwn81ckpslwayk1hg9co,3luy3gc633ddqykh1zl9ry2d7tgp7a,yDzGzEPj,2020-0188,2021-10-14,13:00:06,14:05:29,NA,incomplete,false,NA,true,6,5,NA,NA,NA,right,absent,NA,NA,m_s_077.jpg,white,m_s_083.jpg,white,within,NA,NaN,NA,right,2599.4000000059605,1,1,3247.2000000178814
yDzGzEPj,3t2hw4qdvykwn81ckpslwayk1hg9co,3luy3gc633ddqykh1zl9ry2d7tgp7a,yDzGzEPj,2020-0188,2021-10-14,13:00:06,14:05:29,NA,incomplete,false,NA,true,6,6,NA,NA,NA,right,absent,NA,NA,m_s_113.jpg,purple,n_s_010.jpg,purple,within,NA,NaN,NA,right,6599.0999999940395,1,2,1599.5
yDzGzEPj,3t2hw4qdvykwn81ckpslwayk1hg9co,3luy3gc633ddqykh1zl9ry2d7tgp7a,yDzGzEPj,2020-0188,2021-10-14,13:00:06,14:05:29,NA,incomplete,false,NA,true,6,7,NA,NA,NA,right,absent,NA,NA,n_l_080.jpg,white,n_s_107.jpg,gray,between,NA,NaN,NA,right,3663.300000011921,1,2,1198.5
yDzGzEPj,3t2hw4qdvykwn81ckpslwayk1hg9co,3luy3gc633ddqykh1zl9ry2d7tgp7a,yDzGzEPj,2020-0188,2021-10-14,13:00:06,14:05:29,NA,incomplete,false,NA,true,6,8,NA,NA,NA,left,absent,NA,NA,m_s_008.jpg,brown,m_l_017.jpg,purple,between,NA,NaN,NA,right,2663.300000011921,0,2,1399.0999999940395
yDzGzEPj,3t2hw4qdvykwn81ckpslwayk1hg9co,3luy3gc633ddqykh1zl9ry2d7tgp7a,yDzGzEPj,2020-0188,2021-10-14,13:00:06,14:05:29,NA,incomplete,false,NA,true,6,9,NA,NA,NA,left,absent,NA,NA,n_l_036.jpg,purple,m_s_023.jpg,black,between,NA,NaN,NA,left,2231.2000000178814,1,2,4543
yDzGzEPj,3t2hw4qdvykwn81ckpslwayk1hg9co,3luy3gc633ddqykh1zl9ry2d7tgp7a,yDzGzEPj,2020-0188,2021-10-14,13:00:06,14:05:29,NA,incomplete,false,NA,true,6,10,NA,NA,NA,left,absent,NA,NA,m_l_082.jpg,black,m_l_015.jpg,black,within,NA,NaN,NA,left,2350.5999999940395,1,2,1503
yDzGzEPj,3t2hw4qdvykwn81ckpslwayk1hg9co,3luy3gc633ddqykh1zl9ry2d7tgp7a,yDzGzEPj,2020-0188,2021-10-14,13:00:06,14:05:29,NA,incomplete,false,true,NA,7,0,NA,purple,n_l_113.jpg,NA,NA,pleasant,unpleasant,NA,NA,NA,NA,NA,left,2235.19999998808,true,NA,NA,NA,NA,NA
yDzGzEPj,3t2hw4qdvykwn81ckpslwayk1hg9co,3luy3gc633ddqykh1zl9ry2d7tgp7a,yDzGzEPj,2020-0188,2021-10-14,13:00:06,14:05:29,NA,incomplete,false,true,NA,7,1,NA,purple,n_s_015.jpg,NA,NA,pleasant,unpleasant,NA,NA,NA,NA,NA,left,1083.69999998808,true,NA,NA,NA,NA,NA
yDzGzEPj,3t2hw4qdvykwn81ckpslwayk1hg9co,3luy3gc633ddqykh1zl9ry2d7tgp7a,yDzGzEPj,2020-0188,2021-10-14,13:00:06,14:05:29,NA,incomplete,false,true,NA,7,2,NA,purple,m_s_048.jpg,NA,NA,pleasant,unpleasant,NA,NA,NA,NA,NA,left,1364.30000001192,true,NA,NA,NA,NA,NA
yDzGzEPj,3t2hw4qdvykwn81ckpslwayk1hg9co,3luy3gc633ddqykh1zl9ry2d7tgp7a,yDzGzEPj,2020-0188,2021-10-14,13:00:06,14:05:29,NA,incomplete,false,true,NA,7,3,NA,purple,n_s_100.jpg,NA,NA,unpleasant,pleasant,NA,NA,NA,NA,NA,left,1300.39999997616,true,NA,NA,NA,NA,NA
yDzGzEPj,3t2hw4qdvykwn81ckpslwayk1hg9co,3luy3gc633ddqykh1zl9ry2d7tgp7a,yDzGzEPj,2020-0188,2021-10-14,13:00:06,14:05:29,NA,incomplete,false,true,NA,7,4,NA,purple,n_s_102.jpg,NA,NA,pleasant,unpleasant,NA,NA,NA,NA,NA,left,1741,true,NA,NA,NA,NA,NA
yDzGzEPj,3t2hw4qdvykwn81ckpslwayk1hg9co,3luy3gc633ddqykh1zl9ry2d7tgp7a,yDzGzEPj,2020-0188,2021-10-14,13:00:06,14:05:29,NA,incomplete,false,true,NA,7,5,NA,purple,m_l_097.jpg,NA,NA,pleasant,unpleasant,NA,NA,NA,NA,NA,right,1766,true,NA,NA,NA,NA,NA
yDzGzEPj,3t2hw4qdvykwn81ckpslwayk1hg9co,3luy3gc633ddqykh1zl9ry2d7tgp7a,yDzGzEPj,2020-0188,2021-10-14,13:00:06,14:05:29,NA,incomplete,false,true,NA,7,6,NA,brown,n_s_095.jpg,NA,NA,unpleasant,pleasant,NA,NA,NA,NA,NA,right,1429.90000000596,true,NA,NA,NA,NA,NA
yDzGzEPj,3t2hw4qdvykwn81ckpslwayk1hg9co,3luy3gc633ddqykh1zl9ry2d7tgp7a,yDzGzEPj,2020-0188,2021-10-14,13:00:06,14:05:29,NA,incomplete,false,true,NA,7,7,NA,brown,n_l_026.jpg,NA,NA,pleasant,unpleasant,NA,NA,NA,NA,NA,right,1662.90000000596,true,NA,NA,NA,NA,NA
yDzGzEPj,3t2hw4qdvykwn81ckpslwayk1hg9co,3luy3gc633ddqykh1zl9ry2d7tgp7a,yDzGzEPj,2020-0188,2021-10-14,13:00:06,14:05:29,NA,incomplete,false,true,NA,7,8,NA,brown,n_l_095.jpg,NA,NA,unpleasant,pleasant,NA,NA,NA,NA,NA,right,1376.30000001192,true,NA,NA,NA,NA,NA
yDzGzEPj,3t2hw4qdvykwn81ckpslwayk1hg9co,3luy3gc633ddqykh1zl9ry2d7tgp7a,yDzGzEPj,2020-0188,2021-10-14,13:00:06,14:05:29,NA,incomplete,false,true,NA,7,9,NA,brown,m_l_066.jpg,NA,NA,pleasant,unpleasant,NA,NA,NA,NA,NA,left,1928.09999999404,true,NA,NA,NA,NA,NA
yDzGzEPj,3t2hw4qdvykwn81ckpslwayk1hg9co,3luy3gc633ddqykh1zl9ry2d7tgp7a,yDzGzEPj,2020-0188,2021-10-14,13:00:06,14:05:29,NA,incomplete,false,true,NA,7,10,NA,brown,n_l_086.jpg,NA,NA,pleasant,unpleasant,NA,NA,NA,NA,NA,left,1745.09999999404,true,NA,NA,NA,NA,NA
yDzGzEPj,3t2hw4qdvykwn81ckpslwayk1hg9co,3luy3gc633ddqykh1zl9ry2d7tgp7a,yDzGzEPj,2020-0188,2021-10-14,13:00:06,14:05:29,NA,incomplete,false,true,NA,7,11,NA,brown,m_s_081.jpg,NA,NA,pleasant,unpleasant,NA,NA,NA,NA,NA,left,1442.20000001788,true,NA,NA,NA,NA,NA
yDzGzEPj,3t2hw4qdvykwn81ckpslwayk1hg9co,3luy3gc633ddqykh1zl9ry2d7tgp7a,yDzGzEPj,2020-0188,2021-10-14,13:00:06,14:05:29,NA,incomplete,false,true,NA,7,12,NA,green,m_l_102.jpg,NA,NA,pleasant,unpleasant,NA,NA,NA,NA,NA,right,1849.80000001192,true,NA,NA,NA,NA,NA
yDzGzEPj,3t2hw4qdvykwn81ckpslwayk1hg9co,3luy3gc633ddqykh1zl9ry2d7tgp7a,yDzGzEPj,2020-0188,2021-10-14,13:00:06,14:05:29,NA,incomplete,false,true,NA,7,13,NA,green,m_s_058.jpg,NA,NA,unpleasant,pleasant,NA,NA,NA,NA,NA,right,1217.40000000596,true,NA,NA,NA,NA,NA
yDzGzEPj,3t2hw4qdvykwn81ckpslwayk1hg9co,3luy3gc633ddqykh1zl9ry2d7tgp7a,yDzGzEPj,2020-0188,2021-10-14,13:00:06,14:05:29,NA,incomplete,false,true,NA,7,14,NA,green,m_s_007.jpg,NA,NA,unpleasant,pleasant,NA,NA,NA,NA,NA,right,1378.09999999404,true,NA,NA,NA,NA,NA
yDzGzEPj,3t2hw4qdvykwn81ckpslwayk1hg9co,3luy3gc633ddqykh1zl9ry2d7tgp7a,yDzGzEPj,2020-0188,2021-10-14,13:00:06,14:05:29,NA,incomplete,false,true,NA,7,15,NA,green,m_l_051.jpg,NA,NA,pleasant,unpleasant,NA,NA,NA,NA,NA,right,2195.19999998808,true,NA,NA,NA,NA,NA
yDzGzEPj,3t2hw4qdvykwn81ckpslwayk1hg9co,3luy3gc633ddqykh1zl9ry2d7tgp7a,yDzGzEPj,2020-0188,2021-10-14,13:00:06,14:05:29,NA,incomplete,false,true,NA,7,16,NA,green,n_s_042.jpg,NA,NA,unpleasant,pleasant,NA,NA,NA,NA,NA,left,2195.5,true,NA,NA,NA,NA,NA
yDzGzEPj,3t2hw4qdvykwn81ckpslwayk1hg9co,3luy3gc633ddqykh1zl9ry2d7tgp7a,yDzGzEPj,2020-0188,2021-10-14,13:00:06,14:05:29,NA,incomplete,false,true,NA,7,17,NA,green,n_s_057.jpg,NA,NA,unpleasant,pleasant,NA,NA,NA,NA,NA,left,2244.80000001192,true,NA,NA,NA,NA,NA
yDzGzEPj,3t2hw4qdvykwn81ckpslwayk1hg9co,3luy3gc633ddqykh1zl9ry2d7tgp7a,yDzGzEPj,2020-0188,2021-10-14,13:00:06,14:05:29,NA,incomplete,false,true,NA,7,18,NA,white,m_s_046.jpg,NA,NA,pleasant,unpleasant,NA,NA,NA,NA,NA,left,1669.30000001192,true,NA,NA,NA,NA,NA
yDzGzEPj,3t2hw4qdvykwn81ckpslwayk1hg9co,3luy3gc633ddqykh1zl9ry2d7tgp7a,yDzGzEPj,2020-0188,2021-10-14,13:00:06,14:05:29,NA,incomplete,false,true,NA,7,19,NA,white,m_l_007.jpg,NA,NA,pleasant,unpleasant,NA,NA,NA,NA,NA,left,1964.59999999404,true,NA,NA,NA,NA,NA
yDzGzEPj,3t2hw4qdvykwn81ckpslwayk1hg9co,3luy3gc633ddqykh1zl9ry2d7tgp7a,yDzGzEPj,2020-0188,2021-10-14,13:00:06,14:05:29,NA,incomplete,false,true,NA,7,20,NA,white,n_s_017.jpg,NA,NA,pleasant,unpleasant,NA,NA,NA,NA,NA,right,1894.20000001788,true,NA,NA,NA,NA,NA
yDzGzEPj,3t2hw4qdvykwn81ckpslwayk1hg9co,3luy3gc633ddqykh1zl9ry2d7tgp7a,yDzGzEPj,2020-0188,2021-10-14,13:00:06,14:05:29,NA,incomplete,false,true,NA,7,21,NA,white,n_l_074.jpg,NA,NA,unpleasant,pleasant,NA,NA,NA,NA,NA,left,1854.29999998212,true,NA,NA,NA,NA,NA
yDzGzEPj,3t2hw4qdvykwn81ckpslwayk1hg9co,3luy3gc633ddqykh1zl9ry2d7tgp7a,yDzGzEPj,2020-0188,2021-10-14,13:00:06,14:05:29,NA,incomplete,false,true,NA,7,22,NA,white,n_l_012.jpg,NA,NA,pleasant,unpleasant,NA,NA,NA,NA,NA,right,1310.89999997616,true,NA,NA,NA,NA,NA
yDzGzEPj,3t2hw4qdvykwn81ckpslwayk1hg9co,3luy3gc633ddqykh1zl9ry2d7tgp7a,yDzGzEPj,2020-0188,2021-10-14,13:00:06,14:05:29,NA,incomplete,false,true,NA,7,23,NA,white,n_s_044.jpg,NA,NA,pleasant,unpleasant,NA,NA,NA,NA,NA,left,1520.10000002384,true,NA,NA,NA,NA,NA
yDzGzEPj,3t2hw4qdvykwn81ckpslwayk1hg9co,3luy3gc633ddqykh1zl9ry2d7tgp7a,yDzGzEPj,2020-0188,2021-10-14,13:00:06,14:05:29,NA,incomplete,false,true,NA,7,24,NA,yellow,n_s_063.jpg,NA,NA,pleasant,unpleasant,NA,NA,NA,NA,NA,right,2159.69999998808,true,NA,NA,NA,NA,NA
yDzGzEPj,3t2hw4qdvykwn81ckpslwayk1hg9co,3luy3gc633ddqykh1zl9ry2d7tgp7a,yDzGzEPj,2020-0188,2021-10-14,13:00:06,14:05:29,NA,incomplete,false,true,NA,7,25,NA,yellow,n_l_089.jpg,NA,NA,unpleasant,pleasant,NA,NA,NA,NA,NA,left,1399.19999998808,true,NA,NA,NA,NA,NA
yDzGzEPj,3t2hw4qdvykwn81ckpslwayk1hg9co,3luy3gc633ddqykh1zl9ry2d7tgp7a,yDzGzEPj,2020-0188,2021-10-14,13:00:06,14:05:29,NA,incomplete,false,true,NA,7,26,NA,yellow,m_l_009.jpg,NA,NA,pleasant,unpleasant,NA,NA,NA,NA,NA,right,1481.09999999404,true,NA,NA,NA,NA,NA
yDzGzEPj,3t2hw4qdvykwn81ckpslwayk1hg9co,3luy3gc633ddqykh1zl9ry2d7tgp7a,yDzGzEPj,2020-0188,2021-10-14,13:00:06,14:05:29,NA,incomplete,false,true,NA,7,27,NA,yellow,m_l_089.jpg,NA,NA,unpleasant,pleasant,NA,NA,NA,NA,NA,left,2159.59999999404,true,NA,NA,NA,NA,NA
yDzGzEPj,3t2hw4qdvykwn81ckpslwayk1hg9co,3luy3gc633ddqykh1zl9ry2d7tgp7a,yDzGzEPj,2020-0188,2021-10-14,13:00:06,14:05:29,NA,incomplete,false,true,NA,7,28,NA,yellow,m_s_112.jpg,NA,NA,pleasant,unpleasant,NA,NA,NA,NA,NA,right,1802.79999998212,true,NA,NA,NA,NA,NA
yDzGzEPj,3t2hw4qdvykwn81ckpslwayk1hg9co,3luy3gc633ddqykh1zl9ry2d7tgp7a,yDzGzEPj,2020-0188,2021-10-14,13:00:06,14:05:29,NA,incomplete,false,true,NA,7,29,NA,yellow,m_s_105.jpg,NA,NA,pleasant,unpleasant,NA,NA,NA,NA,NA,left,1436.59999999404,true,NA,NA,NA,NA,NA
yDzGzEPj,3t2hw4qdvykwn81ckpslwayk1hg9co,3luy3gc633ddqykh1zl9ry2d7tgp7a,yDzGzEPj,2020-0188,2021-10-14,13:00:06,14:05:29,NA,incomplete,false,true,NA,7,30,NA,black,m_s_076.jpg,NA,NA,unpleasant,pleasant,NA,NA,NA,NA,NA,right,2123.09999999404,true,NA,NA,NA,NA,NA
yDzGzEPj,3t2hw4qdvykwn81ckpslwayk1hg9co,3luy3gc633ddqykh1zl9ry2d7tgp7a,yDzGzEPj,2020-0188,2021-10-14,13:00:06,14:05:29,NA,incomplete,false,true,NA,7,31,NA,black,n_s_027.jpg,NA,NA,pleasant,unpleasant,NA,NA,NA,NA,NA,right,1603.09999999404,true,NA,NA,NA,NA,NA
yDzGzEPj,3t2hw4qdvykwn81ckpslwayk1hg9co,3luy3gc633ddqykh1zl9ry2d7tgp7a,yDzGzEPj,2020-0188,2021-10-14,13:00:06,14:05:29,NA,incomplete,false,true,NA,7,32,NA,black,m_s_060.jpg,NA,NA,pleasant,unpleasant,NA,NA,NA,NA,NA,left,1444.19999998808,true,NA,NA,NA,NA,NA
yDzGzEPj,3t2hw4qdvykwn81ckpslwayk1hg9co,3luy3gc633ddqykh1zl9ry2d7tgp7a,yDzGzEPj,2020-0188,2021-10-14,13:00:06,14:05:29,NA,incomplete,false,true,NA,7,33,NA,black,m_s_041.jpg,NA,NA,pleasant,unpleasant,NA,NA,NA,NA,NA,left,1827,true,NA,NA,NA,NA,NA
yDzGzEPj,3t2hw4qdvykwn81ckpslwayk1hg9co,3luy3gc633ddqykh1zl9ry2d7tgp7a,yDzGzEPj,2020-0188,2021-10-14,13:00:06,14:05:29,NA,incomplete,false,true,NA,7,34,NA,black,m_s_036.jpg,NA,NA,unpleasant,pleasant,NA,NA,NA,NA,NA,left,2189,true,NA,NA,NA,NA,NA
yDzGzEPj,3t2hw4qdvykwn81ckpslwayk1hg9co,3luy3gc633ddqykh1zl9ry2d7tgp7a,yDzGzEPj,2020-0188,2021-10-14,13:00:06,14:05:29,NA,incomplete,false,true,NA,7,35,NA,black,n_s_043.jpg,NA,NA,unpleasant,pleasant,NA,NA,NA,NA,NA,left,1582.19999998808,true,NA,NA,NA,NA,NA
yDzGzEPj,3t2hw4qdvykwn81ckpslwayk1hg9co,3luy3gc633ddqykh1zl9ry2d7tgp7a,yDzGzEPj,2020-0188,2021-10-14,13:00:06,14:05:29,NA,incomplete,false,NA,true,7,0,NA,NA,NA,left,present,NA,NA,n_s_015.jpg,purple,m_l_097.jpg,purple,within,NA,NaN,NA,left,3722.600000023842,1,0,2390.5
yDzGzEPj,3t2hw4qdvykwn81ckpslwayk1hg9co,3luy3gc633ddqykh1zl9ry2d7tgp7a,yDzGzEPj,2020-0188,2021-10-14,13:00:06,14:05:29,NA,incomplete,false,NA,true,7,1,NA,NA,NA,left,present,NA,NA,n_s_102.jpg,purple,n_l_095.jpg,brown,between,NA,NaN,NA,left,2834.5,1,1,2318.5999999940395
yDzGzEPj,3t2hw4qdvykwn81ckpslwayk1hg9co,3luy3gc633ddqykh1zl9ry2d7tgp7a,yDzGzEPj,2020-0188,2021-10-14,13:00:06,14:05:29,NA,incomplete,false,NA,true,7,2,NA,NA,NA,left,present,NA,NA,m_s_112.jpg,yellow,m_s_060.jpg,black,between,NA,NaN,NA,left,4054.800000011921,1,1,1290.8999999761581
yDzGzEPj,3t2hw4qdvykwn81ckpslwayk1hg9co,3luy3gc633ddqykh1zl9ry2d7tgp7a,yDzGzEPj,2020-0188,2021-10-14,13:00:06,14:05:29,NA,incomplete,false,NA,true,7,3,NA,NA,NA,left,present,NA,NA,n_l_012.jpg,white,m_l_009.jpg,yellow,between,NA,NaN,NA,left,3303.699999988079,1,1,1457.4000000059605
yDzGzEPj,3t2hw4qdvykwn81ckpslwayk1hg9co,3luy3gc633ddqykh1zl9ry2d7tgp7a,yDzGzEPj,2020-0188,2021-10-14,13:00:06,14:05:29,NA,incomplete,false,NA,true,7,4,NA,NA,NA,left,present,NA,NA,n_s_027.jpg,black,n_s_043.jpg,black,within,NA,NaN,NA,left,4661.5,1,0,1518.699999988079
yDzGzEPj,3t2hw4qdvykwn81ckpslwayk1hg9co,3luy3gc633ddqykh1zl9ry2d7tgp7a,yDzGzEPj,2020-0188,2021-10-14,13:00:06,14:05:29,NA,incomplete,false,NA,true,7,5,NA,NA,NA,left,present,NA,NA,m_l_007.jpg,white,n_s_044.jpg,white,within,NA,NaN,NA,right,2152.800000011921,0,0,1490.800000011921
yDzGzEPj,3t2hw4qdvykwn81ckpslwayk1hg9co,3luy3gc633ddqykh1zl9ry2d7tgp7a,yDzGzEPj,2020-0188,2021-10-14,13:00:06,14:05:29,NA,incomplete,false,NA,true,7,6,NA,NA,NA,left,present,NA,NA,n_l_089.jpg,yellow,m_s_105.jpg,yellow,within,NA,NaN,NA,left,5379.5,1,0,1223.0999999940395
yDzGzEPj,3t2hw4qdvykwn81ckpslwayk1hg9co,3luy3gc633ddqykh1zl9ry2d7tgp7a,yDzGzEPj,2020-0188,2021-10-14,13:00:06,14:05:29,NA,incomplete,false,NA,true,7,7,NA,NA,NA,right,present,NA,NA,n_s_017.jpg,white,n_s_042.jpg,green,between,NA,NaN,NA,right,2291,1,1,1710.5
yDzGzEPj,3t2hw4qdvykwn81ckpslwayk1hg9co,3luy3gc633ddqykh1zl9ry2d7tgp7a,yDzGzEPj,2020-0188,2021-10-14,13:00:06,14:05:29,NA,incomplete,false,NA,true,7,8,NA,NA,NA,right,present,NA,NA,m_s_081.jpg,brown,n_l_026.jpg,brown,within,NA,NaN,NA,right,5939,1,0,1194.300000011921
yDzGzEPj,3t2hw4qdvykwn81ckpslwayk1hg9co,3luy3gc633ddqykh1zl9ry2d7tgp7a,yDzGzEPj,2020-0188,2021-10-14,13:00:06,14:05:29,NA,incomplete,false,NA,true,7,9,NA,NA,NA,right,present,NA,NA,m_s_007.jpg,green,n_l_086.jpg,brown,between,NA,NaN,NA,right,5182.5,1,1,1662.8999999761581
yDzGzEPj,3t2hw4qdvykwn81ckpslwayk1hg9co,3luy3gc633ddqykh1zl9ry2d7tgp7a,yDzGzEPj,2020-0188,2021-10-14,13:00:06,14:05:29,NA,incomplete,false,NA,true,7,10,NA,NA,NA,right,present,NA,NA,n_s_057.jpg,green,m_s_058.jpg,green,within,NA,NaN,NA,left,7646.4000000059605,0,0,1343
yDzGzEPj,3t2hw4qdvykwn81ckpslwayk1hg9co,3luy3gc633ddqykh1zl9ry2d7tgp7a,yDzGzEPj,2020-0188,2021-10-14,13:00:06,14:05:29,NA,incomplete,false,true,NA,8,0,NA,gray,m_l_010.jpg,NA,NA,unpleasant,pleasant,NA,NA,NA,NA,NA,right,2363.09999999404,true,NA,NA,NA,NA,NA
yDzGzEPj,3t2hw4qdvykwn81ckpslwayk1hg9co,3luy3gc633ddqykh1zl9ry2d7tgp7a,yDzGzEPj,2020-0188,2021-10-14,13:00:06,14:05:29,NA,incomplete,false,true,NA,8,1,NA,gray,n_s_012.jpg,NA,NA,pleasant,unpleasant,NA,NA,NA,NA,NA,right,1916.5,true,NA,NA,NA,NA,NA
yDzGzEPj,3t2hw4qdvykwn81ckpslwayk1hg9co,3luy3gc633ddqykh1zl9ry2d7tgp7a,yDzGzEPj,2020-0188,2021-10-14,13:00:06,14:05:29,NA,incomplete,false,true,NA,8,2,NA,gray,n_s_030.jpg,NA,NA,pleasant,unpleasant,NA,NA,NA,NA,NA,right,1603.80000001192,true,NA,NA,NA,NA,NA
yDzGzEPj,3t2hw4qdvykwn81ckpslwayk1hg9co,3luy3gc633ddqykh1zl9ry2d7tgp7a,yDzGzEPj,2020-0188,2021-10-14,13:00:06,14:05:29,NA,incomplete,false,true,NA,8,3,NA,gray,m_l_033.jpg,NA,NA,unpleasant,pleasant,NA,NA,NA,NA,NA,right,1932.69999998808,true,NA,NA,NA,NA,NA
yDzGzEPj,3t2hw4qdvykwn81ckpslwayk1hg9co,3luy3gc633ddqykh1zl9ry2d7tgp7a,yDzGzEPj,2020-0188,2021-10-14,13:00:06,14:05:29,NA,incomplete,false,true,NA,8,4,NA,gray,m_s_066.jpg,NA,NA,unpleasant,pleasant,NA,NA,NA,NA,NA,right,1517.59999999404,true,NA,NA,NA,NA,NA
yDzGzEPj,3t2hw4qdvykwn81ckpslwayk1hg9co,3luy3gc633ddqykh1zl9ry2d7tgp7a,yDzGzEPj,2020-0188,2021-10-14,13:00:06,14:05:29,NA,incomplete,false,true,NA,8,5,NA,gray,n_l_021.jpg,NA,NA,unpleasant,pleasant,NA,NA,NA,NA,NA,left,1180.30000001192,true,NA,NA,NA,NA,NA
yDzGzEPj,3t2hw4qdvykwn81ckpslwayk1hg9co,3luy3gc633ddqykh1zl9ry2d7tgp7a,yDzGzEPj,2020-0188,2021-10-14,13:00:06,14:05:29,NA,incomplete,false,true,NA,8,6,NA,purple,m_s_012.jpg,NA,NA,unpleasant,pleasant,NA,NA,NA,NA,NA,right,1437.30000001192,true,NA,NA,NA,NA,NA
yDzGzEPj,3t2hw4qdvykwn81ckpslwayk1hg9co,3luy3gc633ddqykh1zl9ry2d7tgp7a,yDzGzEPj,2020-0188,2021-10-14,13:00:06,14:05:29,NA,incomplete,false,true,NA,8,7,NA,purple,n_s_024.jpg,NA,NA,pleasant,unpleasant,NA,NA,NA,NA,NA,right,1189.90000000596,true,NA,NA,NA,NA,NA
yDzGzEPj,3t2hw4qdvykwn81ckpslwayk1hg9co,3luy3gc633ddqykh1zl9ry2d7tgp7a,yDzGzEPj,2020-0188,2021-10-14,13:00:06,14:05:29,NA,incomplete,false,true,NA,8,8,NA,purple,n_l_045.jpg,NA,NA,pleasant,unpleasant,NA,NA,NA,NA,NA,right,1325.80000001192,true,NA,NA,NA,NA,NA
yDzGzEPj,3t2hw4qdvykwn81ckpslwayk1hg9co,3luy3gc633ddqykh1zl9ry2d7tgp7a,yDzGzEPj,2020-0188,2021-10-14,13:00:06,14:05:29,NA,incomplete,false,true,NA,8,9,NA,purple,n_s_109.jpg,NA,NA,pleasant,unpleasant,NA,NA,NA,NA,NA,right,1341.90000000596,true,NA,NA,NA,NA,NA
