workerId,hitId,assignmentId,subject,studyid,exp_date,exp_start,exp_end,time_start,time_end,practice,encoding,memory,block,trial,event_order,event,stim,answer,context_type,label_left,label_right,left_image,left_event,right_image,right_event,condition,response,response_time,response_acc,order_response,order_response_time,order_acc,distance_response,distance_response_time
yf6ohy8O,3o4vwc1gfzjxgki2d88xs18tr9fj3v,3d8you6s9ix7e3e8zbfbvqpgkypu6b,yf6ohy8O,2020-0188,2021-10-14,09:46:16,10:54:27,NA,incomplete,true,true,NA,0,0,NA,gray,n_s_114.jpg,NA,NA,pleasant,unpleasant,NA,NA,NA,NA,NA,right,1869.5,true,NA,NA,NA,NA,NA
yf6ohy8O,3o4vwc1gfzjxgki2d88xs18tr9fj3v,3d8you6s9ix7e3e8zbfbvqpgkypu6b,yf6ohy8O,2020-0188,2021-10-14,09:46:16,10:54:27,NA,incomplete,true,true,NA,0,1,NA,gray,m_l_035.jpg,NA,NA,unpleasant,pleasant,NA,NA,NA,NA,NA,right,2875.79999999702,true,NA,NA,NA,NA,NA
yf6ohy8O,3o4vwc1gfzjxgki2d88xs18tr9fj3v,3d8you6s9ix7e3e8zbfbvqpgkypu6b,yf6ohy8O,2020-0188,2021-10-14,09:46:16,10:54:27,NA,incomplete,true,true,NA,0,2,NA,gray,m_s_096.jpg,NA,NA,unpleasant,pleasant,NA,NA,NA,NA,NA,right,2702.60000000149,true,NA,NA,NA,NA,NA
yf6ohy8O,3o4vwc1gfzjxgki2d88xs18tr9fj3v,3d8you6s9ix7e3e8zbfbvqpgkypu6b,yf6ohy8O,2020-0188,2021-10-14,09:46:16,10:54:27,NA,incomplete,true,true,NA,0,3,NA,gray,n_s_086.jpg,NA,NA,unpleasant,pleasant,NA,NA,NA,NA,NA,left,1227.70000000298,true,NA,NA,NA,NA,NA
yf6ohy8O,3o4vwc1gfzjxgki2d88xs18tr9fj3v,3d8you6s9ix7e3e8zbfbvqpgkypu6b,yf6ohy8O,2020-0188,2021-10-14,09:46:16,10:54:27,NA,incomplete,true,true,NA,0,4,NA,gray,m_s_113.jpg,NA,NA,pleasant,unpleasant,NA,NA,NA,NA,NA,right,2447.19999999553,true,NA,NA,NA,NA,NA
yf6ohy8O,3o4vwc1gfzjxgki2d88xs18tr9fj3v,3d8you6s9ix7e3e8zbfbvqpgkypu6b,yf6ohy8O,2020-0188,2021-10-14,09:46:16,10:54:27,NA,incomplete,true,true,NA,0,5,NA,gray,n_s_095.jpg,NA,NA,pleasant,unpleasant,NA,NA,NA,NA,NA,right,1836.20000000298,true,NA,NA,NA,NA,NA
yf6ohy8O,3o4vwc1gfzjxgki2d88xs18tr9fj3v,3d8you6s9ix7e3e8zbfbvqpgkypu6b,yf6ohy8O,2020-0188,2021-10-14,09:46:16,10:54:27,NA,incomplete,true,true,NA,0,6,NA,blue,n_s_051.jpg,NA,NA,pleasant,unpleasant,NA,NA,NA,NA,NA,right,2535,true,NA,NA,NA,NA,NA
yf6ohy8O,3o4vwc1gfzjxgki2d88xs18tr9fj3v,3d8you6s9ix7e3e8zbfbvqpgkypu6b,yf6ohy8O,2020-0188,2021-10-14,09:46:16,10:54:27,NA,incomplete,true,true,NA,0,7,NA,blue,m_s_005.jpg,NA,NA,pleasant,unpleasant,NA,NA,NA,NA,NA,left,2082.89999999851,true,NA,NA,NA,NA,NA
yf6ohy8O,3o4vwc1gfzjxgki2d88xs18tr9fj3v,3d8you6s9ix7e3e8zbfbvqpgkypu6b,yf6ohy8O,2020-0188,2021-10-14,09:46:16,10:54:27,NA,incomplete,true,true,NA,0,8,NA,blue,m_l_050.jpg,NA,NA,unpleasant,pleasant,NA,NA,NA,NA,NA,right,1678.5,true,NA,NA,NA,NA,NA
yf6ohy8O,3o4vwc1gfzjxgki2d88xs18tr9fj3v,3d8you6s9ix7e3e8zbfbvqpgkypu6b,yf6ohy8O,2020-0188,2021-10-14,09:46:16,10:54:27,NA,incomplete,true,true,NA,0,9,NA,blue,m_l_115.jpg,NA,NA,pleasant,unpleasant,NA,NA,NA,NA,NA,left,2243.5,true,NA,NA,NA,NA,NA
yf6ohy8O,3o4vwc1gfzjxgki2d88xs18tr9fj3v,3d8you6s9ix7e3e8zbfbvqpgkypu6b,yf6ohy8O,2020-0188,2021-10-14,09:46:16,10:54:27,NA,incomplete,true,true,NA,0,10,NA,blue,n_l_109.jpg,NA,NA,unpleasant,pleasant,NA,NA,NA,NA,NA,left,2648.79999999702,true,NA,NA,NA,NA,NA
yf6ohy8O,3o4vwc1gfzjxgki2d88xs18tr9fj3v,3d8you6s9ix7e3e8zbfbvqpgkypu6b,yf6ohy8O,2020-0188,2021-10-14,09:46:16,10:54:27,NA,incomplete,true,true,NA,0,11,NA,blue,n_l_088.jpg,NA,NA,unpleasant,pleasant,NA,NA,NA,NA,NA,left,2186.09999999404,true,NA,NA,NA,NA,NA
yf6ohy8O,3o4vwc1gfzjxgki2d88xs18tr9fj3v,3d8you6s9ix7e3e8zbfbvqpgkypu6b,yf6ohy8O,2020-0188,2021-10-14,09:46:16,10:54:27,NA,incomplete,true,true,NA,0,12,NA,white,n_s_074.jpg,NA,NA,unpleasant,pleasant,NA,NA,NA,NA,NA,left,1871.70000000298,true,NA,NA,NA,NA,NA
yf6ohy8O,3o4vwc1gfzjxgki2d88xs18tr9fj3v,3d8you6s9ix7e3e8zbfbvqpgkypu6b,yf6ohy8O,2020-0188,2021-10-14,09:46:16,10:54:27,NA,incomplete,true,true,NA,0,13,NA,white,m_l_076.jpg,NA,NA,unpleasant,pleasant,NA,NA,NA,NA,NA,right,2125.10000000149,true,NA,NA,NA,NA,NA
yf6ohy8O,3o4vwc1gfzjxgki2d88xs18tr9fj3v,3d8you6s9ix7e3e8zbfbvqpgkypu6b,yf6ohy8O,2020-0188,2021-10-14,09:46:16,10:54:27,NA,incomplete,true,true,NA,0,14,NA,white,n_s_016.jpg,NA,NA,unpleasant,pleasant,NA,NA,NA,NA,NA,left,2088.30000000447,true,NA,NA,NA,NA,NA
yf6ohy8O,3o4vwc1gfzjxgki2d88xs18tr9fj3v,3d8you6s9ix7e3e8zbfbvqpgkypu6b,yf6ohy8O,2020-0188,2021-10-14,09:46:16,10:54:27,NA,incomplete,true,true,NA,0,15,NA,white,n_l_018.jpg,NA,NA,unpleasant,pleasant,NA,NA,NA,NA,NA,right,1938.90000000596,true,NA,NA,NA,NA,NA
yf6ohy8O,3o4vwc1gfzjxgki2d88xs18tr9fj3v,3d8you6s9ix7e3e8zbfbvqpgkypu6b,yf6ohy8O,2020-0188,2021-10-14,09:46:16,10:54:27,NA,incomplete,true,true,NA,0,16,NA,white,n_l_085.jpg,NA,NA,pleasant,unpleasant,NA,NA,NA,NA,NA,right,2204.39999999851,true,NA,NA,NA,NA,NA
yf6ohy8O,3o4vwc1gfzjxgki2d88xs18tr9fj3v,3d8you6s9ix7e3e8zbfbvqpgkypu6b,yf6ohy8O,2020-0188,2021-10-14,09:46:16,10:54:27,NA,incomplete,true,true,NA,0,17,NA,white,m_s_034.jpg,NA,NA,pleasant,unpleasant,NA,NA,NA,NA,NA,left,2661.5,true,NA,NA,NA,NA,NA
yf6ohy8O,3o4vwc1gfzjxgki2d88xs18tr9fj3v,3d8you6s9ix7e3e8zbfbvqpgkypu6b,yf6ohy8O,2020-0188,2021-10-14,09:46:16,10:54:27,NA,incomplete,true,true,NA,0,18,NA,black,n_s_084.jpg,NA,NA,pleasant,unpleasant,NA,NA,NA,NA,NA,right,2561.69999999553,true,NA,NA,NA,NA,NA
yf6ohy8O,3o4vwc1gfzjxgki2d88xs18tr9fj3v,3d8you6s9ix7e3e8zbfbvqpgkypu6b,yf6ohy8O,2020-0188,2021-10-14,09:46:16,10:54:27,NA,incomplete,true,true,NA,0,19,NA,black,n_l_094.jpg,NA,NA,pleasant,unpleasant,NA,NA,NA,NA,NA,left,2222,true,NA,NA,NA,NA,NA
yf6ohy8O,3o4vwc1gfzjxgki2d88xs18tr9fj3v,3d8you6s9ix7e3e8zbfbvqpgkypu6b,yf6ohy8O,2020-0188,2021-10-14,09:46:16,10:54:27,NA,incomplete,true,true,NA,0,20,NA,black,m_l_107.jpg,NA,NA,unpleasant,pleasant,NA,NA,NA,NA,NA,left,2079.19999999553,true,NA,NA,NA,NA,NA
yf6ohy8O,3o4vwc1gfzjxgki2d88xs18tr9fj3v,3d8you6s9ix7e3e8zbfbvqpgkypu6b,yf6ohy8O,2020-0188,2021-10-14,09:46:16,10:54:27,NA,incomplete,true,true,NA,0,21,NA,black,m_l_083.jpg,NA,NA,pleasant,unpleasant,NA,NA,NA,NA,NA,right,2375.39999999851,true,NA,NA,NA,NA,NA
yf6ohy8O,3o4vwc1gfzjxgki2d88xs18tr9fj3v,3d8you6s9ix7e3e8zbfbvqpgkypu6b,yf6ohy8O,2020-0188,2021-10-14,09:46:16,10:54:27,NA,incomplete,true,true,NA,0,22,NA,black,m_s_076.jpg,NA,NA,pleasant,unpleasant,NA,NA,NA,NA,NA,left,2527.10000000149,true,NA,NA,NA,NA,NA
yf6ohy8O,3o4vwc1gfzjxgki2d88xs18tr9fj3v,3d8you6s9ix7e3e8zbfbvqpgkypu6b,yf6ohy8O,2020-0188,2021-10-14,09:46:16,10:54:27,NA,incomplete,true,true,NA,0,23,NA,black,n_l_074.jpg,NA,NA,pleasant,unpleasant,NA,NA,NA,NA,NA,right,1793,true,NA,NA,NA,NA,NA
yf6ohy8O,3o4vwc1gfzjxgki2d88xs18tr9fj3v,3d8you6s9ix7e3e8zbfbvqpgkypu6b,yf6ohy8O,2020-0188,2021-10-14,09:46:16,10:54:27,NA,incomplete,true,true,NA,0,24,NA,orange,m_l_093.jpg,NA,NA,unpleasant,pleasant,NA,NA,NA,NA,NA,left,2639.40000000596,true,NA,NA,NA,NA,NA
yf6ohy8O,3o4vwc1gfzjxgki2d88xs18tr9fj3v,3d8you6s9ix7e3e8zbfbvqpgkypu6b,yf6ohy8O,2020-0188,2021-10-14,09:46:16,10:54:27,NA,incomplete,true,true,NA,0,25,NA,orange,n_s_080.jpg,NA,NA,pleasant,unpleasant,NA,NA,NA,NA,NA,right,2070.80000000447,true,NA,NA,NA,NA,NA
yf6ohy8O,3o4vwc1gfzjxgki2d88xs18tr9fj3v,3d8you6s9ix7e3e8zbfbvqpgkypu6b,yf6ohy8O,2020-0188,2021-10-14,09:46:16,10:54:27,NA,incomplete,true,true,NA,0,26,NA,orange,n_l_084.jpg,NA,NA,pleasant,unpleasant,NA,NA,NA,NA,NA,right,2270.39999999851,true,NA,NA,NA,NA,NA
yf6ohy8O,3o4vwc1gfzjxgki2d88xs18tr9fj3v,3d8you6s9ix7e3e8zbfbvqpgkypu6b,yf6ohy8O,2020-0188,2021-10-14,09:46:16,10:54:27,NA,incomplete,true,true,NA,0,27,NA,orange,n_l_107.jpg,NA,NA,pleasant,unpleasant,NA,NA,NA,NA,NA,right,2147.5,true,NA,NA,NA,NA,NA
yf6ohy8O,3o4vwc1gfzjxgki2d88xs18tr9fj3v,3d8you6s9ix7e3e8zbfbvqpgkypu6b,yf6ohy8O,2020-0188,2021-10-14,09:46:16,10:54:27,NA,incomplete,true,true,NA,0,28,NA,orange,n_l_046.jpg,NA,NA,unpleasant,pleasant,NA,NA,NA,NA,NA,right,2660.09999999404,true,NA,NA,NA,NA,NA
yf6ohy8O,3o4vwc1gfzjxgki2d88xs18tr9fj3v,3d8you6s9ix7e3e8zbfbvqpgkypu6b,yf6ohy8O,2020-0188,2021-10-14,09:46:16,10:54:27,NA,incomplete,true,true,NA,0,29,NA,orange,m_s_041.jpg,NA,NA,unpleasant,pleasant,NA,NA,NA,NA,NA,right,2438.20000000298,true,NA,NA,NA,NA,NA
yf6ohy8O,3o4vwc1gfzjxgki2d88xs18tr9fj3v,3d8you6s9ix7e3e8zbfbvqpgkypu6b,yf6ohy8O,2020-0188,2021-10-14,09:46:16,10:54:27,NA,incomplete,true,true,NA,0,30,NA,brown,n_s_032.jpg,NA,NA,pleasant,unpleasant,NA,NA,NA,NA,NA,left,2130.59999999404,true,NA,NA,NA,NA,NA
yf6ohy8O,3o4vwc1gfzjxgki2d88xs18tr9fj3v,3d8you6s9ix7e3e8zbfbvqpgkypu6b,yf6ohy8O,2020-0188,2021-10-14,09:46:16,10:54:27,NA,incomplete,true,true,NA,0,31,NA,brown,m_l_042.jpg,NA,NA,pleasant,unpleasant,NA,NA,NA,NA,NA,left,2634.39999999851,true,NA,NA,NA,NA,NA
yf6ohy8O,3o4vwc1gfzjxgki2d88xs18tr9fj3v,3d8you6s9ix7e3e8zbfbvqpgkypu6b,yf6ohy8O,2020-0188,2021-10-14,09:46:16,10:54:27,NA,incomplete,true,true,NA,0,32,NA,brown,n_s_050.jpg,NA,NA,pleasant,unpleasant,NA,NA,NA,NA,NA,left,2779.5,true,NA,NA,NA,NA,NA
yf6ohy8O,3o4vwc1gfzjxgki2d88xs18tr9fj3v,3d8you6s9ix7e3e8zbfbvqpgkypu6b,yf6ohy8O,2020-0188,2021-10-14,09:46:16,10:54:27,NA,incomplete,true,true,NA,0,33,NA,brown,m_s_074.jpg,NA,NA,pleasant,unpleasant,NA,NA,NA,NA,NA,right,2558.39999999851,true,NA,NA,NA,NA,NA
yf6ohy8O,3o4vwc1gfzjxgki2d88xs18tr9fj3v,3d8you6s9ix7e3e8zbfbvqpgkypu6b,yf6ohy8O,2020-0188,2021-10-14,09:46:16,10:54:27,NA,incomplete,true,true,NA,0,34,NA,brown,n_l_066.jpg,NA,NA,pleasant,unpleasant,NA,NA,NA,NA,NA,right,2610.39999999851,true,NA,NA,NA,NA,NA
yf6ohy8O,3o4vwc1gfzjxgki2d88xs18tr9fj3v,3d8you6s9ix7e3e8zbfbvqpgkypu6b,yf6ohy8O,2020-0188,2021-10-14,09:46:16,10:54:27,NA,incomplete,true,true,NA,0,35,NA,brown,n_s_101.jpg,NA,NA,unpleasant,pleasant,NA,NA,NA,NA,NA,left,1880.5,true,NA,NA,NA,NA,NA
yf6ohy8O,3o4vwc1gfzjxgki2d88xs18tr9fj3v,3d8you6s9ix7e3e8zbfbvqpgkypu6b,yf6ohy8O,2020-0188,2021-10-14,09:46:16,10:54:27,NA,incomplete,true,NA,true,0,0,NA,NA,NA,left,absent,NA,NA,m_s_076.jpg,black,n_l_084.jpg,orange,between,NA,NaN,NA,left,7158,1,1,4392.10000000149
yf6ohy8O,3o4vwc1gfzjxgki2d88xs18tr9fj3v,3d8you6s9ix7e3e8zbfbvqpgkypu6b,yf6ohy8O,2020-0188,2021-10-14,09:46:16,10:54:27,NA,incomplete,true,NA,true,0,1,NA,NA,NA,left,absent,NA,NA,n_l_085.jpg,white,m_l_107.jpg,black,between,NA,NaN,NA,right,4245.19999999553,0,2,4830.20000000298
yf6ohy8O,3o4vwc1gfzjxgki2d88xs18tr9fj3v,3d8you6s9ix7e3e8zbfbvqpgkypu6b,yf6ohy8O,2020-0188,2021-10-14,09:46:16,10:54:27,NA,incomplete,true,NA,true,0,2,NA,NA,NA,right,present,NA,NA,m_l_050.jpg,blue,m_s_113.jpg,gray,between,NA,NaN,NA,right,9175,1,1,3029.1999999955297
yf6ohy8O,3o4vwc1gfzjxgki2d88xs18tr9fj3v,3d8you6s9ix7e3e8zbfbvqpgkypu6b,yf6ohy8O,2020-0188,2021-10-14,09:46:16,10:54:27,NA,incomplete,true,NA,true,0,3,NA,NA,NA,left,present,NA,NA,m_l_076.jpg,white,m_s_034.jpg,white,within,NA,NaN,NA,left,4636.89999999851,1,0,1626.5999999940395
yf6ohy8O,3o4vwc1gfzjxgki2d88xs18tr9fj3v,3d8you6s9ix7e3e8zbfbvqpgkypu6b,yf6ohy8O,2020-0188,2021-10-14,09:46:16,10:54:27,NA,incomplete,true,NA,true,0,4,NA,NA,NA,left,absent,NA,NA,m_l_042.jpg,brown,n_s_101.jpg,brown,within,NA,NaN,NA,left,6901.5,1,1,1453.2999999970198
yf6ohy8O,3o4vwc1gfzjxgki2d88xs18tr9fj3v,3d8you6s9ix7e3e8zbfbvqpgkypu6b,yf6ohy8O,2020-0188,2021-10-14,09:46:16,10:54:27,NA,incomplete,true,NA,true,0,5,NA,NA,NA,left,present,NA,NA,n_l_094.jpg,black,n_l_074.jpg,black,within,NA,NaN,NA,right,6213.60000000149,0,0,2565.9000000059605
yf6ohy8O,3o4vwc1gfzjxgki2d88xs18tr9fj3v,3d8you6s9ix7e3e8zbfbvqpgkypu6b,yf6ohy8O,2020-0188,2021-10-14,09:46:16,10:54:27,NA,incomplete,true,NA,true,0,6,NA,NA,NA,left,present,NA,NA,n_l_109.jpg,blue,n_s_016.jpg,white,between,NA,NaN,NA,left,5804.89999999851,1,2,1541.1000000014901
yf6ohy8O,3o4vwc1gfzjxgki2d88xs18tr9fj3v,3d8you6s9ix7e3e8zbfbvqpgkypu6b,yf6ohy8O,2020-0188,2021-10-14,09:46:16,10:54:27,NA,incomplete,true,NA,true,0,7,NA,NA,NA,right,absent,NA,NA,m_s_041.jpg,orange,n_s_080.jpg,orange,within,NA,NaN,NA,right,6317.89999999851,1,2,2646.7000000029802
yf6ohy8O,3o4vwc1gfzjxgki2d88xs18tr9fj3v,3d8you6s9ix7e3e8zbfbvqpgkypu6b,yf6ohy8O,2020-0188,2021-10-14,09:46:16,10:54:27,NA,incomplete,true,NA,true,0,8,NA,NA,NA,left,absent,NA,NA,n_l_046.jpg,orange,n_s_050.jpg,brown,between,NA,NaN,NA,left,4172.4000000059605,1,1,2055
yf6ohy8O,3o4vwc1gfzjxgki2d88xs18tr9fj3v,3d8you6s9ix7e3e8zbfbvqpgkypu6b,yf6ohy8O,2020-0188,2021-10-14,09:46:16,10:54:27,NA,incomplete,true,NA,true,0,9,NA,NA,NA,right,absent,NA,NA,n_s_095.jpg,gray,m_l_035.jpg,gray,within,NA,NaN,NA,right,3501.7999999970198,1,1,2006.5999999940395
yf6ohy8O,3o4vwc1gfzjxgki2d88xs18tr9fj3v,3d8you6s9ix7e3e8zbfbvqpgkypu6b,yf6ohy8O,2020-0188,2021-10-14,09:46:16,10:54:27,NA,incomplete,true,NA,true,0,10,NA,NA,NA,left,absent,NA,NA,m_s_005.jpg,blue,n_l_088.jpg,blue,within,NA,NaN,NA,right,7669.39999999851,0,1,2611.5
yf6ohy8O,3o4vwc1gfzjxgki2d88xs18tr9fj3v,3d8you6s9ix7e3e8zbfbvqpgkypu6b,yf6ohy8O,2020-0188,2021-10-14,09:46:16,10:54:27,NA,incomplete,false,true,NA,1,0,NA,red,n_l_007.jpg,NA,NA,unpleasant,pleasant,NA,NA,NA,NA,NA,right,1720.80000000447,true,NA,NA,NA,NA,NA
yf6ohy8O,3o4vwc1gfzjxgki2d88xs18tr9fj3v,3d8you6s9ix7e3e8zbfbvqpgkypu6b,yf6ohy8O,2020-0188,2021-10-14,09:46:16,10:54:27,NA,incomplete,false,true,NA,1,1,NA,red,n_s_064.jpg,NA,NA,pleasant,unpleasant,NA,NA,NA,NA,NA,right,2625.29999999702,true,NA,NA,NA,NA,NA
yf6ohy8O,3o4vwc1gfzjxgki2d88xs18tr9fj3v,3d8you6s9ix7e3e8zbfbvqpgkypu6b,yf6ohy8O,2020-0188,2021-10-14,09:46:16,10:54:27,NA,incomplete,false,true,NA,1,2,NA,red,n_s_012.jpg,NA,NA,unpleasant,pleasant,NA,NA,NA,NA,NA,left,3013.90000000596,true,NA,NA,NA,NA,NA
yf6ohy8O,3o4vwc1gfzjxgki2d88xs18tr9fj3v,3d8you6s9ix7e3e8zbfbvqpgkypu6b,yf6ohy8O,2020-0188,2021-10-14,09:46:16,10:54:27,NA,incomplete,false,true,NA,1,3,NA,red,m_s_009.jpg,NA,NA,unpleasant,pleasant,NA,NA,NA,NA,NA,left,2026.90000000596,true,NA,NA,NA,NA,NA
yf6ohy8O,3o4vwc1gfzjxgki2d88xs18tr9fj3v,3d8you6s9ix7e3e8zbfbvqpgkypu6b,yf6ohy8O,2020-0188,2021-10-14,09:46:16,10:54:27,NA,incomplete,false,true,NA,1,4,NA,red,n_s_115.jpg,NA,NA,unpleasant,pleasant,NA,NA,NA,NA,NA,right,2281.79999999702,true,NA,NA,NA,NA,NA
yf6ohy8O,3o4vwc1gfzjxgki2d88xs18tr9fj3v,3d8you6s9ix7e3e8zbfbvqpgkypu6b,yf6ohy8O,2020-0188,2021-10-14,09:46:16,10:54:27,NA,incomplete,false,true,NA,1,5,NA,red,m_l_102.jpg,NA,NA,unpleasant,pleasant,NA,NA,NA,NA,NA,left,2198.20000000298,true,NA,NA,NA,NA,NA
yf6ohy8O,3o4vwc1gfzjxgki2d88xs18tr9fj3v,3d8you6s9ix7e3e8zbfbvqpgkypu6b,yf6ohy8O,2020-0188,2021-10-14,09:46:16,10:54:27,NA,incomplete,false,true,NA,1,6,NA,yellow,n_l_106.jpg,NA,NA,pleasant,unpleasant,NA,NA,NA,NA,NA,right,2334.29999999702,true,NA,NA,NA,NA,NA
yf6ohy8O,3o4vwc1gfzjxgki2d88xs18tr9fj3v,3d8you6s9ix7e3e8zbfbvqpgkypu6b,yf6ohy8O,2020-0188,2021-10-14,09:46:16,10:54:27,NA,incomplete,false,true,NA,1,7,NA,yellow,n_l_034.jpg,NA,NA,unpleasant,pleasant,NA,NA,NA,NA,NA,left,1470.20000000298,true,NA,NA,NA,NA,NA
yf6ohy8O,3o4vwc1gfzjxgki2d88xs18tr9fj3v,3d8you6s9ix7e3e8zbfbvqpgkypu6b,yf6ohy8O,2020-0188,2021-10-14,09:46:16,10:54:27,NA,incomplete,false,true,NA,1,8,NA,yellow,m_l_098.jpg,NA,NA,pleasant,unpleasant,NA,NA,NA,NA,NA,right,2050.19999999553,true,NA,NA,NA,NA,NA
yf6ohy8O,3o4vwc1gfzjxgki2d88xs18tr9fj3v,3d8you6s9ix7e3e8zbfbvqpgkypu6b,yf6ohy8O,2020-0188,2021-10-14,09:46:16,10:54:27,NA,incomplete,false,true,NA,1,9,NA,yellow,m_l_090.jpg,NA,NA,unpleasant,pleasant,NA,NA,NA,NA,NA,left,2050.5,true,NA,NA,NA,NA,NA
yf6ohy8O,3o4vwc1gfzjxgki2d88xs18tr9fj3v,3d8you6s9ix7e3e8zbfbvqpgkypu6b,yf6ohy8O,2020-0188,2021-10-14,09:46:16,10:54:27,NA,incomplete,false,true,NA,1,10,NA,yellow,m_l_074.jpg,NA,NA,pleasant,unpleasant,NA,NA,NA,NA,NA,left,2587.89999999851,true,NA,NA,NA,NA,NA
yf6ohy8O,3o4vwc1gfzjxgki2d88xs18tr9fj3v,3d8you6s9ix7e3e8zbfbvqpgkypu6b,yf6ohy8O,2020-0188,2021-10-14,09:46:16,10:54:27,NA,incomplete,false,true,NA,1,11,NA,yellow,m_s_089.jpg,NA,NA,unpleasant,pleasant,NA,NA,NA,NA,NA,left,2528.10000000149,true,NA,NA,NA,NA,NA
yf6ohy8O,3o4vwc1gfzjxgki2d88xs18tr9fj3v,3d8you6s9ix7e3e8zbfbvqpgkypu6b,yf6ohy8O,2020-0188,2021-10-14,09:46:16,10:54:27,NA,incomplete,false,true,NA,1,12,NA,blue,m_l_007.jpg,NA,NA,pleasant,unpleasant,NA,NA,NA,NA,NA,left,2544.80000000447,true,NA,NA,NA,NA,NA
yf6ohy8O,3o4vwc1gfzjxgki2d88xs18tr9fj3v,3d8you6s9ix7e3e8zbfbvqpgkypu6b,yf6ohy8O,2020-0188,2021-10-14,09:46:16,10:54:27,NA,incomplete,false,true,NA,1,13,NA,blue,n_s_014.jpg,NA,NA,unpleasant,pleasant,NA,NA,NA,NA,NA,left,1794.09999999404,true,NA,NA,NA,NA,NA
yf6ohy8O,3o4vwc1gfzjxgki2d88xs18tr9fj3v,3d8you6s9ix7e3e8zbfbvqpgkypu6b,yf6ohy8O,2020-0188,2021-10-14,09:46:16,10:54:27,NA,incomplete,false,true,NA,1,14,NA,blue,m_s_030.jpg,NA,NA,unpleasant,pleasant,NA,NA,NA,NA,NA,right,1831,true,NA,NA,NA,NA,NA
yf6ohy8O,3o4vwc1gfzjxgki2d88xs18tr9fj3v,3d8you6s9ix7e3e8zbfbvqpgkypu6b,yf6ohy8O,2020-0188,2021-10-14,09:46:16,10:54:27,NA,incomplete,false,true,NA,1,15,NA,blue,m_s_013.jpg,NA,NA,unpleasant,pleasant,NA,NA,NA,NA,NA,right,2687.39999999851,true,NA,NA,NA,NA,NA
yf6ohy8O,3o4vwc1gfzjxgki2d88xs18tr9fj3v,3d8you6s9ix7e3e8zbfbvqpgkypu6b,yf6ohy8O,2020-0188,2021-10-14,09:46:16,10:54:27,NA,incomplete,false,true,NA,1,16,NA,blue,n_s_053.jpg,NA,NA,pleasant,unpleasant,NA,NA,NA,NA,NA,right,2362.79999999702,true,NA,NA,NA,NA,NA
yf6ohy8O,3o4vwc1gfzjxgki2d88xs18tr9fj3v,3d8you6s9ix7e3e8zbfbvqpgkypu6b,yf6ohy8O,2020-0188,2021-10-14,09:46:16,10:54:27,NA,incomplete,false,true,NA,1,17,NA,blue,n_s_103.jpg,NA,NA,pleasant,unpleasant,NA,NA,NA,NA,NA,right,2154.19999999553,true,NA,NA,NA,NA,NA
yf6ohy8O,3o4vwc1gfzjxgki2d88xs18tr9fj3v,3d8you6s9ix7e3e8zbfbvqpgkypu6b,yf6ohy8O,2020-0188,2021-10-14,09:46:16,10:54:27,NA,incomplete,false,true,NA,1,18,NA,black,n_l_001.jpg,NA,NA,pleasant,unpleasant,NA,NA,NA,NA,NA,left,1705.39999999851,true,NA,NA,NA,NA,NA
yf6ohy8O,3o4vwc1gfzjxgki2d88xs18tr9fj3v,3d8you6s9ix7e3e8zbfbvqpgkypu6b,yf6ohy8O,2020-0188,2021-10-14,09:46:16,10:54:27,NA,incomplete,false,true,NA,1,19,NA,black,n_l_013.jpg,NA,NA,unpleasant,pleasant,NA,NA,NA,NA,NA,right,2303.39999999851,true,NA,NA,NA,NA,NA
yf6ohy8O,3o4vwc1gfzjxgki2d88xs18tr9fj3v,3d8you6s9ix7e3e8zbfbvqpgkypu6b,yf6ohy8O,2020-0188,2021-10-14,09:46:16,10:54:27,NA,incomplete,false,true,NA,1,20,NA,black,m_l_080.jpg,NA,NA,unpleasant,pleasant,NA,NA,NA,NA,NA,left,1396,true,NA,NA,NA,NA,NA
yf6ohy8O,3o4vwc1gfzjxgki2d88xs18tr9fj3v,3d8you6s9ix7e3e8zbfbvqpgkypu6b,yf6ohy8O,2020-0188,2021-10-14,09:46:16,10:54:27,NA,incomplete,false,true,NA,1,21,NA,black,m_s_015.jpg,NA,NA,unpleasant,pleasant,NA,NA,NA,NA,NA,right,1970.39999999851,true,NA,NA,NA,NA,NA
yf6ohy8O,3o4vwc1gfzjxgki2d88xs18tr9fj3v,3d8you6s9ix7e3e8zbfbvqpgkypu6b,yf6ohy8O,2020-0188,2021-10-14,09:46:16,10:54:27,NA,incomplete,false,true,NA,1,22,NA,black,n_s_002.jpg,NA,NA,pleasant,unpleasant,NA,NA,NA,NA,NA,left,1646.20000000298,true,NA,NA,NA,NA,NA
yf6ohy8O,3o4vwc1gfzjxgki2d88xs18tr9fj3v,3d8you6s9ix7e3e8zbfbvqpgkypu6b,yf6ohy8O,2020-0188,2021-10-14,09:46:16,10:54:27,NA,incomplete,false,true,NA,1,23,NA,black,m_s_065.jpg,NA,NA,pleasant,unpleasant,NA,NA,NA,NA,NA,left,1539.60000000149,true,NA,NA,NA,NA,NA
yf6ohy8O,3o4vwc1gfzjxgki2d88xs18tr9fj3v,3d8you6s9ix7e3e8zbfbvqpgkypu6b,yf6ohy8O,2020-0188,2021-10-14,09:46:16,10:54:27,NA,incomplete,false,true,NA,1,24,NA,purple,m_l_058.jpg,NA,NA,unpleasant,pleasant,NA,NA,NA,NA,NA,left,2822.69999999553,true,NA,NA,NA,NA,NA
yf6ohy8O,3o4vwc1gfzjxgki2d88xs18tr9fj3v,3d8you6s9ix7e3e8zbfbvqpgkypu6b,yf6ohy8O,2020-0188,2021-10-14,09:46:16,10:54:27,NA,incomplete,false,true,NA,1,25,NA,purple,n_l_042.jpg,NA,NA,unpleasant,pleasant,NA,NA,NA,NA,NA,right,2380.79999999702,true,NA,NA,NA,NA,NA
yf6ohy8O,3o4vwc1gfzjxgki2d88xs18tr9fj3v,3d8you6s9ix7e3e8zbfbvqpgkypu6b,yf6ohy8O,2020-0188,2021-10-14,09:46:16,10:54:27,NA,incomplete,false,true,NA,1,26,NA,purple,m_l_067.jpg,NA,NA,unpleasant,pleasant,NA,NA,NA,NA,NA,right,1990.60000000149,true,NA,NA,NA,NA,NA
yf6ohy8O,3o4vwc1gfzjxgki2d88xs18tr9fj3v,3d8you6s9ix7e3e8zbfbvqpgkypu6b,yf6ohy8O,2020-0188,2021-10-14,09:46:16,10:54:27,NA,incomplete,false,true,NA,1,27,NA,purple,m_l_012.jpg,NA,NA,unpleasant,pleasant,NA,NA,NA,NA,NA,left,1549.79999999702,true,NA,NA,NA,NA,NA
yf6ohy8O,3o4vwc1gfzjxgki2d88xs18tr9fj3v,3d8you6s9ix7e3e8zbfbvqpgkypu6b,yf6ohy8O,2020-0188,2021-10-14,09:46:16,10:54:27,NA,incomplete,false,true,NA,1,28,NA,purple,n_l_070.jpg,NA,NA,pleasant,unpleasant,NA,NA,NA,NA,NA,none,0,false,NA,NA,NA,NA,NA
yf6ohy8O,3o4vwc1gfzjxgki2d88xs18tr9fj3v,3d8you6s9ix7e3e8zbfbvqpgkypu6b,yf6ohy8O,2020-0188,2021-10-14,09:46:16,10:54:27,NA,incomplete,false,true,NA,1,29,NA,purple,m_l_075.jpg,NA,NA,pleasant,unpleasant,NA,NA,NA,NA,NA,left,1591.20000000298,true,NA,NA,NA,NA,NA
yf6ohy8O,3o4vwc1gfzjxgki2d88xs18tr9fj3v,3d8you6s9ix7e3e8zbfbvqpgkypu6b,yf6ohy8O,2020-0188,2021-10-14,09:46:16,10:54:27,NA,incomplete,false,true,NA,1,30,NA,brown,n_s_072.jpg,NA,NA,unpleasant,pleasant,NA,NA,NA,NA,NA,left,2369.29999999702,true,NA,NA,NA,NA,NA
yf6ohy8O,3o4vwc1gfzjxgki2d88xs18tr9fj3v,3d8you6s9ix7e3e8zbfbvqpgkypu6b,yf6ohy8O,2020-0188,2021-10-14,09:46:16,10:54:27,NA,incomplete,false,true,NA,1,31,NA,brown,n_s_019.jpg,NA,NA,unpleasant,pleasant,NA,NA,NA,NA,NA,right,1749.89999999851,true,NA,NA,NA,NA,NA
yf6ohy8O,3o4vwc1gfzjxgki2d88xs18tr9fj3v,3d8you6s9ix7e3e8zbfbvqpgkypu6b,yf6ohy8O,2020-0188,2021-10-14,09:46:16,10:54:27,NA,incomplete,false,true,NA,1,32,NA,brown,n_s_023.jpg,NA,NA,pleasant,unpleasant,NA,NA,NA,NA,NA,right,1605.30000000447,true,NA,NA,NA,NA,NA
yf6ohy8O,3o4vwc1gfzjxgki2d88xs18tr9fj3v,3d8you6s9ix7e3e8zbfbvqpgkypu6b,yf6ohy8O,2020-0188,2021-10-14,09:46:16,10:54:27,NA,incomplete,false,true,NA,1,33,NA,brown,m_s_080.jpg,NA,NA,pleasant,unpleasant,NA,NA,NA,NA,NA,right,2045.29999999702,true,NA,NA,NA,NA,NA
yf6ohy8O,3o4vwc1gfzjxgki2d88xs18tr9fj3v,3d8you6s9ix7e3e8zbfbvqpgkypu6b,yf6ohy8O,2020-0188,2021-10-14,09:46:16,10:54:27,NA,incomplete,false,true,NA,1,34,NA,brown,m_l_049.jpg,NA,NA,pleasant,unpleasant,NA,NA,NA,NA,NA,right,2190.70000000298,true,NA,NA,NA,NA,NA
yf6ohy8O,3o4vwc1gfzjxgki2d88xs18tr9fj3v,3d8you6s9ix7e3e8zbfbvqpgkypu6b,yf6ohy8O,2020-0188,2021-10-14,09:46:16,10:54:27,NA,incomplete,false,true,NA,1,35,NA,brown,n_s_081.jpg,NA,NA,unpleasant,pleasant,NA,NA,NA,NA,NA,left,1698.79999999702,true,NA,NA,NA,NA,NA
yf6ohy8O,3o4vwc1gfzjxgki2d88xs18tr9fj3v,3d8you6s9ix7e3e8zbfbvqpgkypu6b,yf6ohy8O,2020-0188,2021-10-14,09:46:16,10:54:27,NA,incomplete,false,NA,true,1,0,NA,NA,NA,left,present,NA,NA,n_l_034.jpg,yellow,m_s_089.jpg,yellow,within,NA,NaN,NA,left,4640.10000000149,1,1,3481.10000000149
yf6ohy8O,3o4vwc1gfzjxgki2d88xs18tr9fj3v,3d8you6s9ix7e3e8zbfbvqpgkypu6b,yf6ohy8O,2020-0188,2021-10-14,09:46:16,10:54:27,NA,incomplete,false,NA,true,1,1,NA,NA,NA,left,present,NA,NA,n_l_070.jpg,purple,n_s_023.jpg,brown,between,NA,NaN,NA,left,4175.10000000149,1,2,2891.60000000149
yf6ohy8O,3o4vwc1gfzjxgki2d88xs18tr9fj3v,3d8you6s9ix7e3e8zbfbvqpgkypu6b,yf6ohy8O,2020-0188,2021-10-14,09:46:16,10:54:27,NA,incomplete,false,NA,true,1,2,NA,NA,NA,right,present,NA,NA,n_s_081.jpg,brown,n_s_019.jpg,brown,within,NA,NaN,NA,right,4844.5,1,1,1589.5
yf6ohy8O,3o4vwc1gfzjxgki2d88xs18tr9fj3v,3d8you6s9ix7e3e8zbfbvqpgkypu6b,yf6ohy8O,2020-0188,2021-10-14,09:46:16,10:54:27,NA,incomplete,false,NA,true,1,3,NA,NA,NA,left,present,NA,NA,n_s_014.jpg,blue,n_s_103.jpg,blue,within,NA,NaN,NA,left,3669.60000000149,1,1,1395.8999999985099
yf6ohy8O,3o4vwc1gfzjxgki2d88xs18tr9fj3v,3d8you6s9ix7e3e8zbfbvqpgkypu6b,yf6ohy8O,2020-0188,2021-10-14,09:46:16,10:54:27,NA,incomplete,false,NA,true,1,4,NA,NA,NA,right,present,NA,NA,m_l_098.jpg,yellow,n_s_115.jpg,red,between,NA,NaN,NA,right,7315.9000000059605,1,2,1326.7999999970198
yf6ohy8O,3o4vwc1gfzjxgki2d88xs18tr9fj3v,3d8you6s9ix7e3e8zbfbvqpgkypu6b,yf6ohy8O,2020-0188,2021-10-14,09:46:16,10:54:27,NA,incomplete,false,NA,true,1,5,NA,NA,NA,right,present,NA,NA,m_l_080.jpg,black,n_s_053.jpg,blue,between,NA,NaN,NA,right,7109.4000000059605,1,2,1461.7000000029802
yf6ohy8O,3o4vwc1gfzjxgki2d88xs18tr9fj3v,3d8you6s9ix7e3e8zbfbvqpgkypu6b,yf6ohy8O,2020-0188,2021-10-14,09:46:16,10:54:27,NA,incomplete,false,NA,true,1,6,NA,NA,NA,left,present,NA,NA,n_l_042.jpg,purple,m_l_075.jpg,purple,within,NA,NaN,NA,left,8292.60000000149,1,1,1549.2999999970198
yf6ohy8O,3o4vwc1gfzjxgki2d88xs18tr9fj3v,3d8you6s9ix7e3e8zbfbvqpgkypu6b,yf6ohy8O,2020-0188,2021-10-14,09:46:16,10:54:27,NA,incomplete,false,NA,true,1,7,NA,NA,NA,left,present,NA,NA,n_s_002.jpg,black,m_l_067.jpg,purple,between,NA,NaN,NA,right,4630.19999999553,0,2,1519.1000000014901
yf6ohy8O,3o4vwc1gfzjxgki2d88xs18tr9fj3v,3d8you6s9ix7e3e8zbfbvqpgkypu6b,yf6ohy8O,2020-0188,2021-10-14,09:46:16,10:54:27,NA,incomplete,false,NA,true,1,8,NA,NA,NA,right,present,NA,NA,m_s_030.jpg,blue,m_l_074.jpg,yellow,between,NA,NaN,NA,right,5172.20000000298,1,2,1236.2999999970198
yf6ohy8O,3o4vwc1gfzjxgki2d88xs18tr9fj3v,3d8you6s9ix7e3e8zbfbvqpgkypu6b,yf6ohy8O,2020-0188,2021-10-14,09:46:16,10:54:27,NA,incomplete,false,NA,true,1,9,NA,NA,NA,right,present,NA,NA,m_l_102.jpg,red,n_s_064.jpg,red,within,NA,NaN,NA,left,4245.4000000059605,0,1,1535
yf6ohy8O,3o4vwc1gfzjxgki2d88xs18tr9fj3v,3d8you6s9ix7e3e8zbfbvqpgkypu6b,yf6ohy8O,2020-0188,2021-10-14,09:46:16,10:54:27,NA,incomplete,false,NA,true,1,10,NA,NA,NA,right,present,NA,NA,m_s_065.jpg,black,n_l_013.jpg,black,within,NA,NaN,NA,right,4974.39999999851,1,1,1491.7000000029802
yf6ohy8O,3o4vwc1gfzjxgki2d88xs18tr9fj3v,3d8you6s9ix7e3e8zbfbvqpgkypu6b,yf6ohy8O,2020-0188,2021-10-14,09:46:16,10:54:27,NA,incomplete,false,true,NA,2,0,NA,yellow,n_s_112.jpg,NA,NA,pleasant,unpleasant,NA,NA,NA,NA,NA,left,2522.60000000149,true,NA,NA,NA,NA,NA
yf6ohy8O,3o4vwc1gfzjxgki2d88xs18tr9fj3v,3d8you6s9ix7e3e8zbfbvqpgkypu6b,yf6ohy8O,2020-0188,2021-10-14,09:46:16,10:54:27,NA,incomplete,false,true,NA,2,1,NA,yellow,n_s_087.jpg,NA,NA,pleasant,unpleasant,NA,NA,NA,NA,NA,right,1608.19999999553,true,NA,NA,NA,NA,NA
yf6ohy8O,3o4vwc1gfzjxgki2d88xs18tr9fj3v,3d8you6s9ix7e3e8zbfbvqpgkypu6b,yf6ohy8O,2020-0188,2021-10-14,09:46:16,10:54:27,NA,incomplete,false,true,NA,2,2,NA,yellow,m_l_082.jpg,NA,NA,unpleasant,pleasant,NA,NA,NA,NA,NA,left,1905.19999999553,true,NA,NA,NA,NA,NA
yf6ohy8O,3o4vwc1gfzjxgki2d88xs18tr9fj3v,3d8you6s9ix7e3e8zbfbvqpgkypu6b,yf6ohy8O,2020-0188,2021-10-14,09:46:16,10:54:27,NA,incomplete,false,true,NA,2,3,NA,yellow,n_l_038.jpg,NA,NA,unpleasant,pleasant,NA,NA,NA,NA,NA,left,1788.69999999553,true,NA,NA,NA,NA,NA
yf6ohy8O,3o4vwc1gfzjxgki2d88xs18tr9fj3v,3d8you6s9ix7e3e8zbfbvqpgkypu6b,yf6ohy8O,2020-0188,2021-10-14,09:46:16,10:54:27,NA,incomplete,false,true,NA,2,4,NA,yellow,m_s_102.jpg,NA,NA,unpleasant,pleasant,NA,NA,NA,NA,NA,left,2660.09999999404,true,NA,NA,NA,NA,NA
yf6ohy8O,3o4vwc1gfzjxgki2d88xs18tr9fj3v,3d8you6s9ix7e3e8zbfbvqpgkypu6b,yf6ohy8O,2020-0188,2021-10-14,09:46:16,10:54:27,NA,incomplete,false,true,NA,2,5,NA,yellow,n_s_006.jpg,NA,NA,pleasant,unpleasant,NA,NA,NA,NA,NA,right,2363.39999999851,true,NA,NA,NA,NA,NA
yf6ohy8O,3o4vwc1gfzjxgki2d88xs18tr9fj3v,3d8you6s9ix7e3e8zbfbvqpgkypu6b,yf6ohy8O,2020-0188,2021-10-14,09:46:16,10:54:27,NA,incomplete,false,true,NA,2,6,NA,white,m_s_067.jpg,NA,NA,unpleasant,pleasant,NA,NA,NA,NA,NA,right,1251.69999999553,true,NA,NA,NA,NA,NA
yf6ohy8O,3o4vwc1gfzjxgki2d88xs18tr9fj3v,3d8you6s9ix7e3e8zbfbvqpgkypu6b,yf6ohy8O,2020-0188,2021-10-14,09:46:16,10:54:27,NA,incomplete,false,true,NA,2,7,NA,white,n_l_072.jpg,NA,NA,pleasant,unpleasant,NA,NA,NA,NA,NA,right,1575.70000000298,true,NA,NA,NA,NA,NA
yf6ohy8O,3o4vwc1gfzjxgki2d88xs18tr9fj3v,3d8you6s9ix7e3e8zbfbvqpgkypu6b,yf6ohy8O,2020-0188,2021-10-14,09:46:16,10:54:27,NA,incomplete,false,true,NA,2,8,NA,white,n_l_112.jpg,NA,NA,pleasant,unpleasant,NA,NA,NA,NA,NA,right,1578.29999999702,true,NA,NA,NA,NA,NA
yf6ohy8O,3o4vwc1gfzjxgki2d88xs18tr9fj3v,3d8you6s9ix7e3e8zbfbvqpgkypu6b,yf6ohy8O,2020-0188,2021-10-14,09:46:16,10:54:27,NA,incomplete,false,true,NA,2,9,NA,white,n_l_060.jpg,NA,NA,pleasant,unpleasant,NA,NA,NA,NA,NA,right,1584.30000000447,true,NA,NA,NA,NA,NA
yf6ohy8O,3o4vwc1gfzjxgki2d88xs18tr9fj3v,3d8you6s9ix7e3e8zbfbvqpgkypu6b,yf6ohy8O,2020-0188,2021-10-14,09:46:16,10:54:27,NA,incomplete,false,true,NA,2,10,NA,white,m_s_077.jpg,NA,NA,pleasant,unpleasant,NA,NA,NA,NA,NA,left,1748.30000000447,true,NA,NA,NA,NA,NA
yf6ohy8O,3o4vwc1gfzjxgki2d88xs18tr9fj3v,3d8you6s9ix7e3e8zbfbvqpgkypu6b,yf6ohy8O,2020-0188,2021-10-14,09:46:16,10:54:27,NA,incomplete,false,true,NA,2,11,NA,white,n_s_005.jpg,NA,NA,unpleasant,pleasant,NA,NA,NA,NA,NA,right,1641,true,NA,NA,NA,NA,NA
yf6ohy8O,3o4vwc1gfzjxgki2d88xs18tr9fj3v,3d8you6s9ix7e3e8zbfbvqpgkypu6b,yf6ohy8O,2020-0188,2021-10-14,09:46:16,10:54:27,NA,incomplete,false,true,NA,2,12,NA,red,m_s_050.jpg,NA,NA,pleasant,unpleasant,NA,NA,NA,NA,NA,left,1817.40000000596,true,NA,NA,NA,NA,NA
yf6ohy8O,3o4vwc1gfzjxgki2d88xs18tr9fj3v,3d8you6s9ix7e3e8zbfbvqpgkypu6b,yf6ohy8O,2020-0188,2021-10-14,09:46:16,10:54:27,NA,incomplete,false,true,NA,2,13,NA,red,n_l_093.jpg,NA,NA,unpleasant,pleasant,NA,NA,NA,NA,NA,left,2071.70000000298,true,NA,NA,NA,NA,NA
yf6ohy8O,3o4vwc1gfzjxgki2d88xs18tr9fj3v,3d8you6s9ix7e3e8zbfbvqpgkypu6b,yf6ohy8O,2020-0188,2021-10-14,09:46:16,10:54:27,NA,incomplete,false,true,NA,2,14,NA,red,n_s_083.jpg,NA,NA,pleasant,unpleasant,NA,NA,NA,NA,NA,right,1813.79999999702,true,NA,NA,NA,NA,NA
yf6ohy8O,3o4vwc1gfzjxgki2d88xs18tr9fj3v,3d8you6s9ix7e3e8zbfbvqpgkypu6b,yf6ohy8O,2020-0188,2021-10-14,09:46:16,10:54:27,NA,incomplete,false,true,NA,2,15,NA,red,m_s_019.jpg,NA,NA,unpleasant,pleasant,NA,NA,NA,NA,NA,right,1984,true,NA,NA,NA,NA,NA
yf6ohy8O,3o4vwc1gfzjxgki2d88xs18tr9fj3v,3d8you6s9ix7e3e8zbfbvqpgkypu6b,yf6ohy8O,2020-0188,2021-10-14,09:46:16,10:54:27,NA,incomplete,false,true,NA,2,16,NA,red,m_l_112.jpg,NA,NA,unpleasant,pleasant,NA,NA,NA,NA,NA,right,1596.79999999702,true,NA,NA,NA,NA,NA
yf6ohy8O,3o4vwc1gfzjxgki2d88xs18tr9fj3v,3d8you6s9ix7e3e8zbfbvqpgkypu6b,yf6ohy8O,2020-0188,2021-10-14,09:46:16,10:54:27,NA,incomplete,false,true,NA,2,17,NA,red,n_l_015.jpg,NA,NA,unpleasant,pleasant,NA,NA,NA,NA,NA,right,1932.69999999553,true,NA,NA,NA,NA,NA
yf6ohy8O,3o4vwc1gfzjxgki2d88xs18tr9fj3v,3d8you6s9ix7e3e8zbfbvqpgkypu6b,yf6ohy8O,2020-0188,2021-10-14,09:46:16,10:54:27,NA,incomplete,false,true,NA,2,18,NA,brown,n_l_002.jpg,NA,NA,pleasant,unpleasant,NA,NA,NA,NA,NA,left,1734.69999999553,true,NA,NA,NA,NA,NA
yf6ohy8O,3o4vwc1gfzjxgki2d88xs18tr9fj3v,3d8you6s9ix7e3e8zbfbvqpgkypu6b,yf6ohy8O,2020-0188,2021-10-14,09:46:16,10:54:27,NA,incomplete,false,true,NA,2,19,NA,brown,m_s_042.jpg,NA,NA,pleasant,unpleasant,NA,NA,NA,NA,NA,right,1534.80000000447,true,NA,NA,NA,NA,NA
yf6ohy8O,3o4vwc1gfzjxgki2d88xs18tr9fj3v,3d8you6s9ix7e3e8zbfbvqpgkypu6b,yf6ohy8O,2020-0188,2021-10-14,09:46:16,10:54:27,NA,incomplete,false,true,NA,2,20,NA,brown,n_s_107.jpg,NA,NA,pleasant,unpleasant,NA,NA,NA,NA,NA,right,2154.40000000596,true,NA,NA,NA,NA,NA
yf6ohy8O,3o4vwc1gfzjxgki2d88xs18tr9fj3v,3d8you6s9ix7e3e8zbfbvqpgkypu6b,yf6ohy8O,2020-0188,2021-10-14,09:46:16,10:54:27,NA,incomplete,false,true,NA,2,21,NA,brown,n_s_100.jpg,NA,NA,pleasant,unpleasant,NA,NA,NA,NA,NA,right,1532.69999999553,true,NA,NA,NA,NA,NA
yf6ohy8O,3o4vwc1gfzjxgki2d88xs18tr9fj3v,3d8you6s9ix7e3e8zbfbvqpgkypu6b,yf6ohy8O,2020-0188,2021-10-14,09:46:16,10:54:27,NA,incomplete,false,true,NA,2,22,NA,brown,m_l_005.jpg,NA,NA,unpleasant,pleasant,NA,NA,NA,NA,NA,left,1483.59999999404,true,NA,NA,NA,NA,NA
yf6ohy8O,3o4vwc1gfzjxgki2d88xs18tr9fj3v,3d8you6s9ix7e3e8zbfbvqpgkypu6b,yf6ohy8O,2020-0188,2021-10-14,09:46:16,10:54:27,NA,incomplete,false,true,NA,2,23,NA,brown,n_l_051.jpg,NA,NA,pleasant,unpleasant,NA,NA,NA,NA,NA,left,1751.20000000298,true,NA,NA,NA,NA,NA
yf6ohy8O,3o4vwc1gfzjxgki2d88xs18tr9fj3v,3d8you6s9ix7e3e8zbfbvqpgkypu6b,yf6ohy8O,2020-0188,2021-10-14,09:46:16,10:54:27,NA,incomplete,false,true,NA,2,24,NA,gray,n_s_088.jpg,NA,NA,pleasant,unpleasant,NA,NA,NA,NA,NA,right,2274.79999999702,true,NA,NA,NA,NA,NA
yf6ohy8O,3o4vwc1gfzjxgki2d88xs18tr9fj3v,3d8you6s9ix7e3e8zbfbvqpgkypu6b,yf6ohy8O,2020-0188,2021-10-14,09:46:16,10:54:27,NA,incomplete,false,true,NA,2,25,NA,gray,n_s_061.jpg,NA,NA,pleasant,unpleasant,NA,NA,NA,NA,NA,right,1562.10000000149,true,NA,NA,NA,NA,NA
yf6ohy8O,3o4vwc1gfzjxgki2d88xs18tr9fj3v,3d8you6s9ix7e3e8zbfbvqpgkypu6b,yf6ohy8O,2020-0188,2021-10-14,09:46:16,10:54:27,NA,incomplete,false,true,NA,2,26,NA,gray,n_l_087.jpg,NA,NA,pleasant,unpleasant,NA,NA,NA,NA,NA,left,1530.5,true,NA,NA,NA,NA,NA
yf6ohy8O,3o4vwc1gfzjxgki2d88xs18tr9fj3v,3d8you6s9ix7e3e8zbfbvqpgkypu6b,yf6ohy8O,2020-0188,2021-10-14,09:46:16,10:54:27,NA,incomplete,false,true,NA,2,27,NA,gray,m_s_033.jpg,NA,NA,unpleasant,pleasant,NA,NA,NA,NA,NA,left,1675.20000000298,true,NA,NA,NA,NA,NA
yf6ohy8O,3o4vwc1gfzjxgki2d88xs18tr9fj3v,3d8you6s9ix7e3e8zbfbvqpgkypu6b,yf6ohy8O,2020-0188,2021-10-14,09:46:16,10:54:27,NA,incomplete,false,true,NA,2,28,NA,gray,m_l_015.jpg,NA,NA,pleasant,unpleasant,NA,NA,NA,NA,NA,left,1999.79999999702,true,NA,NA,NA,NA,NA
yf6ohy8O,3o4vwc1gfzjxgki2d88xs18tr9fj3v,3d8you6s9ix7e3e8zbfbvqpgkypu6b,yf6ohy8O,2020-0188,2021-10-14,09:46:16,10:54:27,NA,incomplete,false,true,NA,2,29,NA,gray,n_s_009.jpg,NA,NA,unpleasant,pleasant,NA,NA,NA,NA,NA,left,1464.69999999553,true,NA,NA,NA,NA,NA
yf6ohy8O,3o4vwc1gfzjxgki2d88xs18tr9fj3v,3d8you6s9ix7e3e8zbfbvqpgkypu6b,yf6ohy8O,2020-0188,2021-10-14,09:46:16,10:54:27,NA,incomplete,false,true,NA,2,30,NA,green,n_s_010.jpg,NA,NA,unpleasant,pleasant,NA,NA,NA,NA,NA,left,2349.29999999702,true,NA,NA,NA,NA,NA
yf6ohy8O,3o4vwc1gfzjxgki2d88xs18tr9fj3v,3d8you6s9ix7e3e8zbfbvqpgkypu6b,yf6ohy8O,2020-0188,2021-10-14,09:46:16,10:54:27,NA,incomplete,false,true,NA,2,31,NA,green,n_l_033.jpg,NA,NA,pleasant,unpleasant,NA,NA,NA,NA,NA,right,1387.20000000298,true,NA,NA,NA,NA,NA
yf6ohy8O,3o4vwc1gfzjxgki2d88xs18tr9fj3v,3d8you6s9ix7e3e8zbfbvqpgkypu6b,yf6ohy8O,2020-0188,2021-10-14,09:46:16,10:54:27,NA,incomplete,false,true,NA,2,32,NA,green,n_s_035.jpg,NA,NA,unpleasant,pleasant,NA,NA,NA,NA,NA,left,1949.10000000149,true,NA,NA,NA,NA,NA
yf6ohy8O,3o4vwc1gfzjxgki2d88xs18tr9fj3v,3d8you6s9ix7e3e8zbfbvqpgkypu6b,yf6ohy8O,2020-0188,2021-10-14,09:46:16,10:54:27,NA,incomplete,false,true,NA,2,33,NA,green,m_s_014.jpg,NA,NA,pleasant,unpleasant,NA,NA,NA,NA,NA,right,2564.90000000596,true,NA,NA,NA,NA,NA
yf6ohy8O,3o4vwc1gfzjxgki2d88xs18tr9fj3v,3d8you6s9ix7e3e8zbfbvqpgkypu6b,yf6ohy8O,2020-0188,2021-10-14,09:46:16,10:54:27,NA,incomplete,false,true,NA,2,34,NA,green,m_l_061.jpg,NA,NA,pleasant,unpleasant,NA,NA,NA,NA,NA,right,1445.20000000298,true,NA,NA,NA,NA,NA
yf6ohy8O,3o4vwc1gfzjxgki2d88xs18tr9fj3v,3d8you6s9ix7e3e8zbfbvqpgkypu6b,yf6ohy8O,2020-0188,2021-10-14,09:46:16,10:54:27,NA,incomplete,false,true,NA,2,35,NA,green,n_s_058.jpg,NA,NA,unpleasant,pleasant,NA,NA,NA,NA,NA,right,2053.80000000447,true,NA,NA,NA,NA,NA
yf6ohy8O,3o4vwc1gfzjxgki2d88xs18tr9fj3v,3d8you6s9ix7e3e8zbfbvqpgkypu6b,yf6ohy8O,2020-0188,2021-10-14,09:46:16,10:54:27,NA,incomplete,false,NA,true,2,0,NA,NA,NA,right,absent,NA,NA,n_l_051.jpg,brown,m_s_042.jpg,brown,within,NA,NaN,NA,right,2763.3000000044703,1,3,2837.10000000149
yf6ohy8O,3o4vwc1gfzjxgki2d88xs18tr9fj3v,3d8you6s9ix7e3e8zbfbvqpgkypu6b,yf6ohy8O,2020-0188,2021-10-14,09:46:16,10:54:27,NA,incomplete,false,NA,true,2,1,NA,NA,NA,left,absent,NA,NA,n_l_033.jpg,green,n_s_058.jpg,green,within,NA,NaN,NA,left,4129.69999999553,1,2,2434.1999999955297
yf6ohy8O,3o4vwc1gfzjxgki2d88xs18tr9fj3v,3d8you6s9ix7e3e8zbfbvqpgkypu6b,yf6ohy8O,2020-0188,2021-10-14,09:46:16,10:54:27,NA,incomplete,false,NA,true,2,2,NA,NA,NA,left,absent,NA,NA,m_l_112.jpg,red,n_s_107.jpg,brown,between,NA,NaN,NA,left,2315.39999999851,1,1,1746.7000000029802
yf6ohy8O,3o4vwc1gfzjxgki2d88xs18tr9fj3v,3d8you6s9ix7e3e8zbfbvqpgkypu6b,yf6ohy8O,2020-0188,2021-10-14,09:46:16,10:54:27,NA,incomplete,false,NA,true,2,3,NA,NA,NA,left,absent,NA,NA,n_l_072.jpg,white,n_s_005.jpg,white,within,NA,NaN,NA,right,3403.60000000149,0,2,1166
yf6ohy8O,3o4vwc1gfzjxgki2d88xs18tr9fj3v,3d8you6s9ix7e3e8zbfbvqpgkypu6b,yf6ohy8O,2020-0188,2021-10-14,09:46:16,10:54:27,NA,incomplete,false,NA,true,2,4,NA,NA,NA,right,absent,NA,NA,n_l_112.jpg,white,m_s_102.jpg,yellow,between,NA,NaN,NA,left,3177.60000000149,0,1,1206.3999999985099
yf6ohy8O,3o4vwc1gfzjxgki2d88xs18tr9fj3v,3d8you6s9ix7e3e8zbfbvqpgkypu6b,yf6ohy8O,2020-0188,2021-10-14,09:46:16,10:54:27,NA,incomplete,false,NA,true,2,5,NA,NA,NA,left,absent,NA,NA,m_l_005.jpg,brown,n_l_087.jpg,gray,between,NA,NaN,NA,left,3581.89999999851,1,2,1334.1000000014901
yf6ohy8O,3o4vwc1gfzjxgki2d88xs18tr9fj3v,3d8you6s9ix7e3e8zbfbvqpgkypu6b,yf6ohy8O,2020-0188,2021-10-14,09:46:16,10:54:27,NA,incomplete,false,NA,true,2,6,NA,NA,NA,left,absent,NA,NA,n_l_093.jpg,red,n_l_015.jpg,red,within,NA,NaN,NA,left,8086.29999999702,1,1,1534.8000000044703
yf6ohy8O,3o4vwc1gfzjxgki2d88xs18tr9fj3v,3d8you6s9ix7e3e8zbfbvqpgkypu6b,yf6ohy8O,2020-0188,2021-10-14,09:46:16,10:54:27,NA,incomplete,false,NA,true,2,7,NA,NA,NA,left,absent,NA,NA,m_s_077.jpg,white,n_s_083.jpg,red,between,NA,NaN,NA,right,5349.89999999851,0,1,1398
yf6ohy8O,3o4vwc1gfzjxgki2d88xs18tr9fj3v,3d8you6s9ix7e3e8zbfbvqpgkypu6b,yf6ohy8O,2020-0188,2021-10-14,09:46:16,10:54:27,NA,incomplete,false,NA,true,2,8,NA,NA,NA,right,absent,NA,NA,n_s_035.jpg,green,m_l_015.jpg,gray,between,NA,NaN,NA,right,2725,1,1,1581.3999999985099
yf6ohy8O,3o4vwc1gfzjxgki2d88xs18tr9fj3v,3d8you6s9ix7e3e8zbfbvqpgkypu6b,yf6ohy8O,2020-0188,2021-10-14,09:46:16,10:54:27,NA,incomplete,false,NA,true,2,9,NA,NA,NA,right,absent,NA,NA,n_s_006.jpg,yellow,n_s_087.jpg,yellow,within,NA,NaN,NA,left,2636.89999999851,0,0,1637.7999999970198
yf6ohy8O,3o4vwc1gfzjxgki2d88xs18tr9fj3v,3d8you6s9ix7e3e8zbfbvqpgkypu6b,yf6ohy8O,2020-0188,2021-10-14,09:46:16,10:54:27,NA,incomplete,false,NA,true,2,10,NA,NA,NA,right,absent,NA,NA,n_s_009.jpg,gray,n_s_061.jpg,gray,within,NA,NaN,NA,right,3630.2000000029802,1,1,1645.7000000029802
yf6ohy8O,3o4vwc1gfzjxgki2d88xs18tr9fj3v,3d8you6s9ix7e3e8zbfbvqpgkypu6b,yf6ohy8O,2020-0188,2021-10-14,09:46:16,10:54:27,NA,incomplete,false,true,NA,3,0,NA,orange,n_s_024.jpg,NA,NA,pleasant,unpleasant,NA,NA,NA,NA,NA,right,2711.10000000149,true,NA,NA,NA,NA,NA
yf6ohy8O,3o4vwc1gfzjxgki2d88xs18tr9fj3v,3d8you6s9ix7e3e8zbfbvqpgkypu6b,yf6ohy8O,2020-0188,2021-10-14,09:46:16,10:54:27,NA,incomplete,false,true,NA,3,1,NA,orange,n_s_110.jpg,NA,NA,pleasant,unpleasant,NA,NA,NA,NA,NA,right,2410.89999999851,true,NA,NA,NA,NA,NA
yf6ohy8O,3o4vwc1gfzjxgki2d88xs18tr9fj3v,3d8you6s9ix7e3e8zbfbvqpgkypu6b,yf6ohy8O,2020-0188,2021-10-14,09:46:16,10:54:27,NA,incomplete,false,true,NA,3,2,NA,orange,m_l_113.jpg,NA,NA,pleasant,unpleasant,NA,NA,NA,NA,NA,left,2912.39999999851,true,NA,NA,NA,NA,NA
yf6ohy8O,3o4vwc1gfzjxgki2d88xs18tr9fj3v,3d8you6s9ix7e3e8zbfbvqpgkypu6b,yf6ohy8O,2020-0188,2021-10-14,09:46:16,10:54:27,NA,incomplete,false,true,NA,3,3,NA,orange,n_s_094.jpg,NA,NA,unpleasant,pleasant,NA,NA,NA,NA,NA,right,1648.70000000298,true,NA,NA,NA,NA,NA
yf6ohy8O,3o4vwc1gfzjxgki2d88xs18tr9fj3v,3d8you6s9ix7e3e8zbfbvqpgkypu6b,yf6ohy8O,2020-0188,2021-10-14,09:46:16,10:54:27,NA,incomplete,false,true,NA,3,4,NA,orange,m_l_055.jpg,NA,NA,pleasant,unpleasant,NA,NA,NA,NA,NA,right,1906.10000000149,true,NA,NA,NA,NA,NA
yf6ohy8O,3o4vwc1gfzjxgki2d88xs18tr9fj3v,3d8you6s9ix7e3e8zbfbvqpgkypu6b,yf6ohy8O,2020-0188,2021-10-14,09:46:16,10:54:27,NA,incomplete,false,true,NA,3,5,NA,orange,n_l_032.jpg,NA,NA,pleasant,unpleasant,NA,NA,NA,NA,NA,left,2010.39999999851,true,NA,NA,NA,NA,NA
yf6ohy8O,3o4vwc1gfzjxgki2d88xs18tr9fj3v,3d8you6s9ix7e3e8zbfbvqpgkypu6b,yf6ohy8O,2020-0188,2021-10-14,09:46:16,10:54:27,NA,incomplete,false,true,NA,3,6,NA,yellow,m_s_071.jpg,NA,NA,unpleasant,pleasant,NA,NA,NA,NA,NA,left,2012.70000000298,true,NA,NA,NA,NA,NA
yf6ohy8O,3o4vwc1gfzjxgki2d88xs18tr9fj3v,3d8you6s9ix7e3e8zbfbvqpgkypu6b,yf6ohy8O,2020-0188,2021-10-14,09:46:16,10:54:27,NA,incomplete,false,true,NA,3,7,NA,yellow,n_s_044.jpg,NA,NA,pleasant,unpleasant,NA,NA,NA,NA,NA,right,1636.5,true,NA,NA,NA,NA,NA
yf6ohy8O,3o4vwc1gfzjxgki2d88xs18tr9fj3v,3d8you6s9ix7e3e8zbfbvqpgkypu6b,yf6ohy8O,2020-0188,2021-10-14,09:46:16,10:54:27,NA,incomplete,false,true,NA,3,8,NA,yellow,m_s_062.jpg,NA,NA,pleasant,unpleasant,NA,NA,NA,NA,NA,right,2152.60000000149,true,NA,NA,NA,NA,NA
yf6ohy8O,3o4vwc1gfzjxgki2d88xs18tr9fj3v,3d8you6s9ix7e3e8zbfbvqpgkypu6b,yf6ohy8O,2020-0188,2021-10-14,09:46:16,10:54:27,NA,incomplete,false,true,NA,3,9,NA,yellow,m_s_066.jpg,NA,NA,pleasant,unpleasant,NA,NA,NA,NA,NA,right,2190,true,NA,NA,NA,NA,NA
yf6ohy8O,3o4vwc1gfzjxgki2d88xs18tr9fj3v,3d8you6s9ix7e3e8zbfbvqpgkypu6b,yf6ohy8O,2020-0188,2021-10-14,09:46:16,10:54:27,NA,incomplete,false,true,NA,3,10,NA,yellow,n_s_108.jpg,NA,NA,unpleasant,pleasant,NA,NA,NA,NA,NA,left,1748,true,NA,NA,NA,NA,NA
yf6ohy8O,3o4vwc1gfzjxgki2d88xs18tr9fj3v,3d8you6s9ix7e3e8zbfbvqpgkypu6b,yf6ohy8O,2020-0188,2021-10-14,09:46:16,10:54:27,NA,incomplete,false,true,NA,3,11,NA,yellow,m_l_060.jpg,NA,NA,pleasant,unpleasant,NA,NA,NA,NA,NA,left,1705.39999999851,true,NA,NA,NA,NA,NA
yf6ohy8O,3o4vwc1gfzjxgki2d88xs18tr9fj3v,3d8you6s9ix7e3e8zbfbvqpgkypu6b,yf6ohy8O,2020-0188,2021-10-14,09:46:16,10:54:27,NA,incomplete,false,true,NA,3,12,NA,purple,m_s_068.jpg,NA,NA,unpleasant,pleasant,NA,NA,NA,NA,NA,right,2545.39999999851,true,NA,NA,NA,NA,NA
yf6ohy8O,3o4vwc1gfzjxgki2d88xs18tr9fj3v,3d8you6s9ix7e3e8zbfbvqpgkypu6b,yf6ohy8O,2020-0188,2021-10-14,09:46:16,10:54:27,NA,incomplete,false,true,NA,3,13,NA,purple,m_l_079.jpg,NA,NA,pleasant,unpleasant,NA,NA,NA,NA,NA,right,1690.69999999553,true,NA,NA,NA,NA,NA
yf6ohy8O,3o4vwc1gfzjxgki2d88xs18tr9fj3v,3d8you6s9ix7e3e8zbfbvqpgkypu6b,yf6ohy8O,2020-0188,2021-10-14,09:46:16,10:54:27,NA,incomplete,false,true,NA,3,14,NA,purple,m_s_091.jpg,NA,NA,pleasant,unpleasant,NA,NA,NA,NA,NA,left,1902.80000000447,true,NA,NA,NA,NA,NA
yf6ohy8O,3o4vwc1gfzjxgki2d88xs18tr9fj3v,3d8you6s9ix7e3e8zbfbvqpgkypu6b,yf6ohy8O,2020-0188,2021-10-14,09:46:16,10:54:27,NA,incomplete,false,true,NA,3,15,NA,purple,n_l_073.jpg,NA,NA,pleasant,unpleasant,NA,NA,NA,NA,NA,left,2255.79999999702,true,NA,NA,NA,NA,NA
yf6ohy8O,3o4vwc1gfzjxgki2d88xs18tr9fj3v,3d8you6s9ix7e3e8zbfbvqpgkypu6b,yf6ohy8O,2020-0188,2021-10-14,09:46:16,10:54:27,NA,incomplete,false,true,NA,3,16,NA,purple,n_l_095.jpg,NA,NA,pleasant,unpleasant,NA,NA,NA,NA,NA,left,2897.80000000447,true,NA,NA,NA,NA,NA
yf6ohy8O,3o4vwc1gfzjxgki2d88xs18tr9fj3v,3d8you6s9ix7e3e8zbfbvqpgkypu6b,yf6ohy8O,2020-0188,2021-10-14,09:46:16,10:54:27,NA,incomplete,false,true,NA,3,17,NA,purple,m_l_038.jpg,NA,NA,pleasant,unpleasant,NA,NA,NA,NA,NA,right,1592.5,true,NA,NA,NA,NA,NA
yf6ohy8O,3o4vwc1gfzjxgki2d88xs18tr9fj3v,3d8you6s9ix7e3e8zbfbvqpgkypu6b,yf6ohy8O,2020-0188,2021-10-14,09:46:16,10:54:27,NA,incomplete,false,true,NA,3,18,NA,red,m_s_057.jpg,NA,NA,pleasant,unpleasant,NA,NA,NA,NA,NA,right,2133.30000000447,true,NA,NA,NA,NA,NA
yf6ohy8O,3o4vwc1gfzjxgki2d88xs18tr9fj3v,3d8you6s9ix7e3e8zbfbvqpgkypu6b,yf6ohy8O,2020-0188,2021-10-14,09:46:16,10:54:27,NA,incomplete,false,true,NA,3,19,NA,red,n_l_058.jpg,NA,NA,pleasant,unpleasant,NA,NA,NA,NA,NA,right,2166.89999999851,true,NA,NA,NA,NA,NA
yf6ohy8O,3o4vwc1gfzjxgki2d88xs18tr9fj3v,3d8you6s9ix7e3e8zbfbvqpgkypu6b,yf6ohy8O,2020-0188,2021-10-14,09:46:16,10:54:27,NA,incomplete,false,true,NA,3,20,NA,red,m_l_010.jpg,NA,NA,pleasant,unpleasant,NA,NA,NA,NA,NA,left,1360.10000000149,true,NA,NA,NA,NA,NA
yf6ohy8O,3o4vwc1gfzjxgki2d88xs18tr9fj3v,3d8you6s9ix7e3e8zbfbvqpgkypu6b,yf6ohy8O,2020-0188,2021-10-14,09:46:16,10:54:27,NA,incomplete,false,true,NA,3,21,NA,red,m_s_004.jpg,NA,NA,pleasant,unpleasant,NA,NA,NA,NA,NA,left,3180.70000000298,true,NA,NA,NA,NA,NA
yf6ohy8O,3o4vwc1gfzjxgki2d88xs18tr9fj3v,3d8you6s9ix7e3e8zbfbvqpgkypu6b,yf6ohy8O,2020-0188,2021-10-14,09:46:16,10:54:27,NA,incomplete,false,true,NA,3,22,NA,red,m_s_022.jpg,NA,NA,unpleasant,pleasant,NA,NA,NA,NA,NA,right,1909.70000000298,true,NA,NA,NA,NA,NA
yf6ohy8O,3o4vwc1gfzjxgki2d88xs18tr9fj3v,3d8you6s9ix7e3e8zbfbvqpgkypu6b,yf6ohy8O,2020-0188,2021-10-14,09:46:16,10:54:27,NA,incomplete,false,true,NA,3,23,NA,red,n_s_077.jpg,NA,NA,unpleasant,pleasant,NA,NA,NA,NA,NA,left,2059,true,NA,NA,NA,NA,NA
yf6ohy8O,3o4vwc1gfzjxgki2d88xs18tr9fj3v,3d8you6s9ix7e3e8zbfbvqpgkypu6b,yf6ohy8O,2020-0188,2021-10-14,09:46:16,10:54:27,NA,incomplete,false,true,NA,3,24,NA,blue,m_l_021.jpg,NA,NA,pleasant,unpleasant,NA,NA,NA,NA,NA,left,1677.39999999851,true,NA,NA,NA,NA,NA
yf6ohy8O,3o4vwc1gfzjxgki2d88xs18tr9fj3v,3d8you6s9ix7e3e8zbfbvqpgkypu6b,yf6ohy8O,2020-0188,2021-10-14,09:46:16,10:54:27,NA,incomplete,false,true,NA,3,25,NA,blue,m_s_114.jpg,NA,NA,unpleasant,pleasant,NA,NA,NA,NA,NA,right,2265.20000000298,true,NA,NA,NA,NA,NA
yf6ohy8O,3o4vwc1gfzjxgki2d88xs18tr9fj3v,3d8you6s9ix7e3e8zbfbvqpgkypu6b,yf6ohy8O,2020-0188,2021-10-14,09:46:16,10:54:27,NA,incomplete,false,true,NA,3,26,NA,blue,m_s_048.jpg,NA,NA,unpleasant,pleasant,NA,NA,NA,NA,NA,right,2309,true,NA,NA,NA,NA,NA
yf6ohy8O,3o4vwc1gfzjxgki2d88xs18tr9fj3v,3d8you6s9ix7e3e8zbfbvqpgkypu6b,yf6ohy8O,2020-0188,2021-10-14,09:46:16,10:54:27,NA,incomplete,false,true,NA,3,27,NA,blue,m_l_062.jpg,NA,NA,unpleasant,pleasant,NA,NA,NA,NA,NA,right,1630.89999999851,true,NA,NA,NA,NA,NA
yf6ohy8O,3o4vwc1gfzjxgki2d88xs18tr9fj3v,3d8you6s9ix7e3e8zbfbvqpgkypu6b,yf6ohy8O,2020-0188,2021-10-14,09:46:16,10:54:27,NA,incomplete,false,true,NA,3,28,NA,blue,m_l_023.jpg,NA,NA,pleasant,unpleasant,NA,NA,NA,NA,NA,left,2809.39999999851,true,NA,NA,NA,NA,NA
yf6ohy8O,3o4vwc1gfzjxgki2d88xs18tr9fj3v,3d8you6s9ix7e3e8zbfbvqpgkypu6b,yf6ohy8O,2020-0188,2021-10-14,09:46:16,10:54:27,NA,incomplete,false,true,NA,3,29,NA,blue,m_s_100.jpg,NA,NA,unpleasant,pleasant,NA,NA,NA,NA,NA,right,1829.10000000149,true,NA,NA,NA,NA,NA
yf6ohy8O,3o4vwc1gfzjxgki2d88xs18tr9fj3v,3d8you6s9ix7e3e8zbfbvqpgkypu6b,yf6ohy8O,2020-0188,2021-10-14,09:46:16,10:54:27,NA,incomplete,false,true,NA,3,30,NA,green,n_l_108.jpg,NA,NA,unpleasant,pleasant,NA,NA,NA,NA,NA,right,1845,true,NA,NA,NA,NA,NA
yf6ohy8O,3o4vwc1gfzjxgki2d88xs18tr9fj3v,3d8you6s9ix7e3e8zbfbvqpgkypu6b,yf6ohy8O,2020-0188,2021-10-14,09:46:16,10:54:27,NA,incomplete,false,true,NA,3,31,NA,green,n_l_116.jpg,NA,NA,unpleasant,pleasant,NA,NA,NA,NA,NA,right,1639.89999999851,true,NA,NA,NA,NA,NA
yf6ohy8O,3o4vwc1gfzjxgki2d88xs18tr9fj3v,3d8you6s9ix7e3e8zbfbvqpgkypu6b,yf6ohy8O,2020-0188,2021-10-14,09:46:16,10:54:27,NA,incomplete,false,true,NA,3,32,NA,green,n_s_073.jpg,NA,NA,unpleasant,pleasant,NA,NA,NA,NA,NA,left,2272.60000000149,true,NA,NA,NA,NA,NA
yf6ohy8O,3o4vwc1gfzjxgki2d88xs18tr9fj3v,3d8you6s9ix7e3e8zbfbvqpgkypu6b,yf6ohy8O,2020-0188,2021-10-14,09:46:16,10:54:27,NA,incomplete,false,true,NA,3,33,NA,green,n_l_111.jpg,NA,NA,pleasant,unpleasant,NA,NA,NA,NA,NA,left,2305.39999999851,true,NA,NA,NA,NA,NA
yf6ohy8O,3o4vwc1gfzjxgki2d88xs18tr9fj3v,3d8you6s9ix7e3e8zbfbvqpgkypu6b,yf6ohy8O,2020-0188,2021-10-14,09:46:16,10:54:27,NA,incomplete,false,true,NA,3,34,NA,green,m_s_069.jpg,NA,NA,unpleasant,pleasant,NA,NA,NA,NA,NA,left,2274.29999999702,true,NA,NA,NA,NA,NA
yf6ohy8O,3o4vwc1gfzjxgki2d88xs18tr9fj3v,3d8you6s9ix7e3e8zbfbvqpgkypu6b,yf6ohy8O,2020-0188,2021-10-14,09:46:16,10:54:27,NA,incomplete,false,true,NA,3,35,NA,green,n_l_063.jpg,NA,NA,pleasant,unpleasant,NA,NA,NA,NA,NA,left,2813.89999999851,true,NA,NA,NA,NA,NA
yf6ohy8O,3o4vwc1gfzjxgki2d88xs18tr9fj3v,3d8you6s9ix7e3e8zbfbvqpgkypu6b,yf6ohy8O,2020-0188,2021-10-14,09:46:16,10:54:27,NA,incomplete,false,NA,true,3,0,NA,NA,NA,left,absent,NA,NA,n_l_116.jpg,green,n_l_063.jpg,green,within,NA,NaN,NA,left,3024.10000000149,1,1,2024.1000000014901
yf6ohy8O,3o4vwc1gfzjxgki2d88xs18tr9fj3v,3d8you6s9ix7e3e8zbfbvqpgkypu6b,yf6ohy8O,2020-0188,2021-10-14,09:46:16,10:54:27,NA,incomplete,false,NA,true,3,1,NA,NA,NA,right,absent,NA,NA,m_l_060.jpg,yellow,n_s_044.jpg,yellow,within,NA,NaN,NA,left,5077.89999999851,0,1,1245.6999999955297
yf6ohy8O,3o4vwc1gfzjxgki2d88xs18tr9fj3v,3d8you6s9ix7e3e8zbfbvqpgkypu6b,yf6ohy8O,2020-0188,2021-10-14,09:46:16,10:54:27,NA,incomplete,false,NA,true,3,2,NA,NA,NA,left,absent,NA,NA,m_l_055.jpg,orange,m_s_062.jpg,yellow,between,NA,NaN,NA,right,3247.2999999970198,0,1,1533.1999999955297
yf6ohy8O,3o4vwc1gfzjxgki2d88xs18tr9fj3v,3d8you6s9ix7e3e8zbfbvqpgkypu6b,yf6ohy8O,2020-0188,2021-10-14,09:46:16,10:54:27,NA,incomplete,false,NA,true,3,3,NA,NA,NA,left,absent,NA,NA,m_l_023.jpg,blue,n_s_073.jpg,green,between,NA,NaN,NA,left,3219.39999999851,1,1,1610.8000000044703
yf6ohy8O,3o4vwc1gfzjxgki2d88xs18tr9fj3v,3d8you6s9ix7e3e8zbfbvqpgkypu6b,yf6ohy8O,2020-0188,2021-10-14,09:46:16,10:54:27,NA,incomplete,false,NA,true,3,4,NA,NA,NA,right,absent,NA,NA,m_s_091.jpg,purple,n_s_108.jpg,yellow,between,NA,NaN,NA,left,3863.89999999851,0,1,1190.6000000014901
yf6ohy8O,3o4vwc1gfzjxgki2d88xs18tr9fj3v,3d8you6s9ix7e3e8zbfbvqpgkypu6b,yf6ohy8O,2020-0188,2021-10-14,09:46:16,10:54:27,NA,incomplete,false,NA,true,3,5,NA,NA,NA,right,absent,NA,NA,m_s_048.jpg,blue,m_s_022.jpg,red,between,NA,NaN,NA,right,2668.2999999970198,1,2,1700
yf6ohy8O,3o4vwc1gfzjxgki2d88xs18tr9fj3v,3d8you6s9ix7e3e8zbfbvqpgkypu6b,yf6ohy8O,2020-0188,2021-10-14,09:46:16,10:54:27,NA,incomplete,false,NA,true,3,6,NA,NA,NA,right,absent,NA,NA,m_s_100.jpg,blue,m_s_114.jpg,blue,within,NA,NaN,NA,right,4021.5,1,1,1398.2999999970198
yf6ohy8O,3o4vwc1gfzjxgki2d88xs18tr9fj3v,3d8you6s9ix7e3e8zbfbvqpgkypu6b,yf6ohy8O,2020-0188,2021-10-14,09:46:16,10:54:27,NA,incomplete,false,NA,true,3,7,NA,NA,NA,left,absent,NA,NA,m_l_079.jpg,purple,m_l_038.jpg,purple,within,NA,NaN,NA,left,4181.60000000149,1,1,2244.39999999851
yf6ohy8O,3o4vwc1gfzjxgki2d88xs18tr9fj3v,3d8you6s9ix7e3e8zbfbvqpgkypu6b,yf6ohy8O,2020-0188,2021-10-14,09:46:16,10:54:27,NA,incomplete,false,NA,true,3,8,NA,NA,NA,left,absent,NA,NA,n_s_110.jpg,orange,n_l_032.jpg,orange,within,NA,NaN,NA,left,2901.60000000149,1,1,1254.6999999955297
yf6ohy8O,3o4vwc1gfzjxgki2d88xs18tr9fj3v,3d8you6s9ix7e3e8zbfbvqpgkypu6b,yf6ohy8O,2020-0188,2021-10-14,09:46:16,10:54:27,NA,incomplete,false,NA,true,3,9,NA,NA,NA,left,absent,NA,NA,n_l_095.jpg,purple,m_l_010.jpg,red,between,NA,NaN,NA,right,5189.39999999851,0,1,1492.3999999985099
yf6ohy8O,3o4vwc1gfzjxgki2d88xs18tr9fj3v,3d8you6s9ix7e3e8zbfbvqpgkypu6b,yf6ohy8O,2020-0188,2021-10-14,09:46:16,10:54:27,NA,incomplete,false,NA,true,3,10,NA,NA,NA,left,absent,NA,NA,n_l_058.jpg,red,n_s_077.jpg,red,within,NA,NaN,NA,right,4014.89999999851,0,1,1612.2000000029802
yf6ohy8O,3o4vwc1gfzjxgki2d88xs18tr9fj3v,3d8you6s9ix7e3e8zbfbvqpgkypu6b,yf6ohy8O,2020-0188,2021-10-14,09:46:16,10:54:27,NA,incomplete,false,true,NA,4,0,NA,yellow,m_s_090.jpg,NA,NA,unpleasant,pleasant,NA,NA,NA,NA,NA,right,3274.40000000596,true,NA,NA,NA,NA,NA
yf6ohy8O,3o4vwc1gfzjxgki2d88xs18tr9fj3v,3d8you6s9ix7e3e8zbfbvqpgkypu6b,yf6ohy8O,2020-0188,2021-10-14,09:46:16,10:54:27,NA,incomplete,false,true,NA,4,1,NA,yellow,n_l_076.jpg,NA,NA,unpleasant,pleasant,NA,NA,NA,NA,NA,left,1924,true,NA,NA,NA,NA,NA
yf6ohy8O,3o4vwc1gfzjxgki2d88xs18tr9fj3v,3d8you6s9ix7e3e8zbfbvqpgkypu6b,yf6ohy8O,2020-0188,2021-10-14,09:46:16,10:54:27,NA,incomplete,false,true,NA,4,2,NA,yellow,n_s_048.jpg,NA,NA,unpleasant,pleasant,NA,NA,NA,NA,NA,right,2215.10000000149,true,NA,NA,NA,NA,NA
yf6ohy8O,3o4vwc1gfzjxgki2d88xs18tr9fj3v,3d8you6s9ix7e3e8zbfbvqpgkypu6b,yf6ohy8O,2020-0188,2021-10-14,09:46:16,10:54:27,NA,incomplete,false,true,NA,4,3,NA,yellow,n_s_031.jpg,NA,NA,pleasant,unpleasant,NA,NA,NA,NA,NA,right,1916.60000000149,true,NA,NA,NA,NA,NA
yf6ohy8O,3o4vwc1gfzjxgki2d88xs18tr9fj3v,3d8you6s9ix7e3e8zbfbvqpgkypu6b,yf6ohy8O,2020-0188,2021-10-14,09:46:16,10:54:27,NA,incomplete,false,true,NA,4,4,NA,yellow,m_l_034.jpg,NA,NA,unpleasant,pleasant,NA,NA,NA,NA,NA,right,2930.89999999851,true,NA,NA,NA,NA,NA
yf6ohy8O,3o4vwc1gfzjxgki2d88xs18tr9fj3v,3d8you6s9ix7e3e8zbfbvqpgkypu6b,yf6ohy8O,2020-0188,2021-10-14,09:46:16,10:54:27,NA,incomplete,false,true,NA,4,5,NA,yellow,n_s_047.jpg,NA,NA,unpleasant,pleasant,NA,NA,NA,NA,NA,right,1629.60000000149,true,NA,NA,NA,NA,NA
yf6ohy8O,3o4vwc1gfzjxgki2d88xs18tr9fj3v,3d8you6s9ix7e3e8zbfbvqpgkypu6b,yf6ohy8O,2020-0188,2021-10-14,09:46:16,10:54:27,NA,incomplete,false,true,NA,4,6,NA,orange,m_l_086.jpg,NA,NA,pleasant,unpleasant,NA,NA,NA,NA,NA,left,2145.39999999851,true,NA,NA,NA,NA,NA
yf6ohy8O,3o4vwc1gfzjxgki2d88xs18tr9fj3v,3d8you6s9ix7e3e8zbfbvqpgkypu6b,yf6ohy8O,2020-0188,2021-10-14,09:46:16,10:54:27,NA,incomplete,false,true,NA,4,7,NA,orange,m_l_064.jpg,NA,NA,pleasant,unpleasant,NA,NA,NA,NA,NA,left,2293.70000000298,true,NA,NA,NA,NA,NA
yf6ohy8O,3o4vwc1gfzjxgki2d88xs18tr9fj3v,3d8you6s9ix7e3e8zbfbvqpgkypu6b,yf6ohy8O,2020-0188,2021-10-14,09:46:16,10:54:27,NA,incomplete,false,true,NA,4,8,NA,orange,m_l_045.jpg,NA,NA,unpleasant,pleasant,NA,NA,NA,NA,NA,right,2164.70000000298,true,NA,NA,NA,NA,NA
yf6ohy8O,3o4vwc1gfzjxgki2d88xs18tr9fj3v,3d8you6s9ix7e3e8zbfbvqpgkypu6b,yf6ohy8O,2020-0188,2021-10-14,09:46:16,10:54:27,NA,incomplete,false,true,NA,4,9,NA,orange,n_l_100.jpg,NA,NA,pleasant,unpleasant,NA,NA,NA,NA,NA,left,1708.70000000298,true,NA,NA,NA,NA,NA
yf6ohy8O,3o4vwc1gfzjxgki2d88xs18tr9fj3v,3d8you6s9ix7e3e8zbfbvqpgkypu6b,yf6ohy8O,2020-0188,2021-10-14,09:46:16,10:54:27,NA,incomplete,false,true,NA,4,10,NA,orange,m_l_063.jpg,NA,NA,unpleasant,pleasant,NA,NA,NA,NA,NA,right,2800,true,NA,NA,NA,NA,NA
yf6ohy8O,3o4vwc1gfzjxgki2d88xs18tr9fj3v,3d8you6s9ix7e3e8zbfbvqpgkypu6b,yf6ohy8O,2020-0188,2021-10-14,09:46:16,10:54:27,NA,incomplete,false,true,NA,4,11,NA,orange,m_l_056.jpg,NA,NA,unpleasant,pleasant,NA,NA,NA,NA,NA,right,2855.29999999702,true,NA,NA,NA,NA,NA
yf6ohy8O,3o4vwc1gfzjxgki2d88xs18tr9fj3v,3d8you6s9ix7e3e8zbfbvqpgkypu6b,yf6ohy8O,2020-0188,2021-10-14,09:46:16,10:54:27,NA,incomplete,false,true,NA,4,12,NA,red,n_l_052.jpg,NA,NA,pleasant,unpleasant,NA,NA,NA,NA,NA,left,1723.29999999702,true,NA,NA,NA,NA,NA
yf6ohy8O,3o4vwc1gfzjxgki2d88xs18tr9fj3v,3d8you6s9ix7e3e8zbfbvqpgkypu6b,yf6ohy8O,2020-0188,2021-10-14,09:46:16,10:54:27,NA,incomplete,false,true,NA,4,13,NA,red,n_l_043.jpg,NA,NA,unpleasant,pleasant,NA,NA,NA,NA,NA,left,2930.89999999851,true,NA,NA,NA,NA,NA
yf6ohy8O,3o4vwc1gfzjxgki2d88xs18tr9fj3v,3d8you6s9ix7e3e8zbfbvqpgkypu6b,yf6ohy8O,2020-0188,2021-10-14,09:46:16,10:54:27,NA,incomplete,false,true,NA,4,14,NA,red,n_l_036.jpg,NA,NA,pleasant,unpleasant,NA,NA,NA,NA,NA,left,2061.70000000298,true,NA,NA,NA,NA,NA
yf6ohy8O,3o4vwc1gfzjxgki2d88xs18tr9fj3v,3d8you6s9ix7e3e8zbfbvqpgkypu6b,yf6ohy8O,2020-0188,2021-10-14,09:46:16,10:54:27,NA,incomplete,false,true,NA,4,15,NA,red,m_s_010.jpg,NA,NA,unpleasant,pleasant,NA,NA,NA,NA,NA,right,2283.30000000447,true,NA,NA,NA,NA,NA
yf6ohy8O,3o4vwc1gfzjxgki2d88xs18tr9fj3v,3d8you6s9ix7e3e8zbfbvqpgkypu6b,yf6ohy8O,2020-0188,2021-10-14,09:46:16,10:54:27,NA,incomplete,false,true,NA,4,16,NA,red,n_l_029.jpg,NA,NA,pleasant,unpleasant,NA,NA,NA,NA,NA,left,2401.89999999851,true,NA,NA,NA,NA,NA
yf6ohy8O,3o4vwc1gfzjxgki2d88xs18tr9fj3v,3d8you6s9ix7e3e8zbfbvqpgkypu6b,yf6ohy8O,2020-0188,2021-10-14,09:46:16,10:54:27,NA,incomplete,false,true,NA,4,17,NA,red,m_l_071.jpg,NA,NA,pleasant,unpleasant,NA,NA,NA,NA,NA,left,1387.20000000298,true,NA,NA,NA,NA,NA
yf6ohy8O,3o4vwc1gfzjxgki2d88xs18tr9fj3v,3d8you6s9ix7e3e8zbfbvqpgkypu6b,yf6ohy8O,2020-0188,2021-10-14,09:46:16,10:54:27,NA,incomplete,false,true,NA,4,18,NA,gray,m_s_099.jpg,NA,NA,unpleasant,pleasant,NA,NA,NA,NA,NA,right,2317.60000000149,true,NA,NA,NA,NA,NA
yf6ohy8O,3o4vwc1gfzjxgki2d88xs18tr9fj3v,3d8you6s9ix7e3e8zbfbvqpgkypu6b,yf6ohy8O,2020-0188,2021-10-14,09:46:16,10:54:27,NA,incomplete,false,true,NA,4,19,NA,gray,m_l_057.jpg,NA,NA,unpleasant,pleasant,NA,NA,NA,NA,NA,left,2074.60000000149,true,NA,NA,NA,NA,NA
yf6ohy8O,3o4vwc1gfzjxgki2d88xs18tr9fj3v,3d8you6s9ix7e3e8zbfbvqpgkypu6b,yf6ohy8O,2020-0188,2021-10-14,09:46:16,10:54:27,NA,incomplete,false,true,NA,4,20,NA,gray,n_l_113.jpg,NA,NA,pleasant,unpleasant,NA,NA,NA,NA,NA,right,1870,true,NA,NA,NA,NA,NA
yf6ohy8O,3o4vwc1gfzjxgki2d88xs18tr9fj3v,3d8you6s9ix7e3e8zbfbvqpgkypu6b,yf6ohy8O,2020-0188,2021-10-14,09:46:16,10:54:27,NA,incomplete,false,true,NA,4,21,NA,gray,m_l_070.jpg,NA,NA,unpleasant,pleasant,NA,NA,NA,NA,NA,right,2255.29999999702,true,NA,NA,NA,NA,NA
yf6ohy8O,3o4vwc1gfzjxgki2d88xs18tr9fj3v,3d8you6s9ix7e3e8zbfbvqpgkypu6b,yf6ohy8O,2020-0188,2021-10-14,09:46:16,10:54:27,NA,incomplete,false,true,NA,4,22,NA,gray,m_s_116.jpg,NA,NA,unpleasant,pleasant,NA,NA,NA,NA,NA,left,3044.09999999404,true,NA,NA,NA,NA,NA
yf6ohy8O,3o4vwc1gfzjxgki2d88xs18tr9fj3v,3d8you6s9ix7e3e8zbfbvqpgkypu6b,yf6ohy8O,2020-0188,2021-10-14,09:46:16,10:54:27,NA,incomplete,false,true,NA,4,23,NA,gray,m_s_060.jpg,NA,NA,unpleasant,pleasant,NA,NA,NA,NA,NA,right,2130.30000000447,true,NA,NA,NA,NA,NA
yf6ohy8O,3o4vwc1gfzjxgki2d88xs18tr9fj3v,3d8you6s9ix7e3e8zbfbvqpgkypu6b,yf6ohy8O,2020-0188,2021-10-14,09:46:16,10:54:27,NA,incomplete,false,true,NA,4,24,NA,blue,n_l_056.jpg,NA,NA,unpleasant,pleasant,NA,NA,NA,NA,NA,right,1802.69999999553,true,NA,NA,NA,NA,NA
yf6ohy8O,3o4vwc1gfzjxgki2d88xs18tr9fj3v,3d8you6s9ix7e3e8zbfbvqpgkypu6b,yf6ohy8O,2020-0188,2021-10-14,09:46:16,10:54:27,NA,incomplete,false,true,NA,4,25,NA,blue,n_l_092.jpg,NA,NA,unpleasant,pleasant,NA,NA,NA,NA,NA,right,2238,true,NA,NA,NA,NA,NA
yf6ohy8O,3o4vwc1gfzjxgki2d88xs18tr9fj3v,3d8you6s9ix7e3e8zbfbvqpgkypu6b,yf6ohy8O,2020-0188,2021-10-14,09:46:16,10:54:27,NA,incomplete,false,true,NA,4,26,NA,blue,n_l_075.jpg,NA,NA,pleasant,unpleasant,NA,NA,NA,NA,NA,right,2137,true,NA,NA,NA,NA,NA
yf6ohy8O,3o4vwc1gfzjxgki2d88xs18tr9fj3v,3d8you6s9ix7e3e8zbfbvqpgkypu6b,yf6ohy8O,2020-0188,2021-10-14,09:46:16,10:54:27,NA,incomplete,false,true,NA,4,27,NA,blue,m_l_106.jpg,NA,NA,unpleasant,pleasant,NA,NA,NA,NA,NA,right,1782.09999999404,true,NA,NA,NA,NA,NA
yf6ohy8O,3o4vwc1gfzjxgki2d88xs18tr9fj3v,3d8you6s9ix7e3e8zbfbvqpgkypu6b,yf6ohy8O,2020-0188,2021-10-14,09:46:16,10:54:27,NA,incomplete,false,true,NA,4,28,NA,blue,n_l_057.jpg,NA,NA,pleasant,unpleasant,NA,NA,NA,NA,NA,left,1288.60000000149,true,NA,NA,NA,NA,NA
yf6ohy8O,3o4vwc1gfzjxgki2d88xs18tr9fj3v,3d8you6s9ix7e3e8zbfbvqpgkypu6b,yf6ohy8O,2020-0188,2021-10-14,09:46:16,10:54:27,NA,incomplete,false,true,NA,4,29,NA,blue,m_l_077.jpg,NA,NA,unpleasant,pleasant,NA,NA,NA,NA,NA,left,2046.79999999702,true,NA,NA,NA,NA,NA
yf6ohy8O,3o4vwc1gfzjxgki2d88xs18tr9fj3v,3d8you6s9ix7e3e8zbfbvqpgkypu6b,yf6ohy8O,2020-0188,2021-10-14,09:46:16,10:54:27,NA,incomplete,false,true,NA,4,30,NA,brown,m_l_041.jpg,NA,NA,unpleasant,pleasant,NA,NA,NA,NA,NA,left,1381.5,true,NA,NA,NA,NA,NA
yf6ohy8O,3o4vwc1gfzjxgki2d88xs18tr9fj3v,3d8you6s9ix7e3e8zbfbvqpgkypu6b,yf6ohy8O,2020-0188,2021-10-14,09:46:16,10:54:27,NA,incomplete,false,true,NA,4,31,NA,brown,m_s_117.jpg,NA,NA,unpleasant,pleasant,NA,NA,NA,NA,NA,right,1422.20000000298,true,NA,NA,NA,NA,NA
yf6ohy8O,3o4vwc1gfzjxgki2d88xs18tr9fj3v,3d8you6s9ix7e3e8zbfbvqpgkypu6b,yf6ohy8O,2020-0188,2021-10-14,09:46:16,10:54:27,NA,incomplete,false,true,NA,4,32,NA,brown,m_s_058.jpg,NA,NA,unpleasant,pleasant,NA,NA,NA,NA,NA,right,1532.5,true,NA,NA,NA,NA,NA
yf6ohy8O,3o4vwc1gfzjxgki2d88xs18tr9fj3v,3d8you6s9ix7e3e8zbfbvqpgkypu6b,yf6ohy8O,2020-0188,2021-10-14,09:46:16,10:54:27,NA,incomplete,false,true,NA,4,33,NA,brown,m_s_049.jpg,NA,NA,pleasant,unpleasant,NA,NA,NA,NA,NA,left,1388.19999999553,true,NA,NA,NA,NA,NA
yf6ohy8O,3o4vwc1gfzjxgki2d88xs18tr9fj3v,3d8you6s9ix7e3e8zbfbvqpgkypu6b,yf6ohy8O,2020-0188,2021-10-14,09:46:16,10:54:27,NA,incomplete,false,true,NA,4,34,NA,brown,n_s_042.jpg,NA,NA,pleasant,unpleasant,NA,NA,NA,NA,NA,right,1808.80000000447,true,NA,NA,NA,NA,NA
yf6ohy8O,3o4vwc1gfzjxgki2d88xs18tr9fj3v,3d8you6s9ix7e3e8zbfbvqpgkypu6b,yf6ohy8O,2020-0188,2021-10-14,09:46:16,10:54:27,NA,incomplete,false,true,NA,4,35,NA,brown,n_l_089.jpg,NA,NA,unpleasant,pleasant,NA,NA,NA,NA,NA,right,2538.60000000149,true,NA,NA,NA,NA,NA
yf6ohy8O,3o4vwc1gfzjxgki2d88xs18tr9fj3v,3d8you6s9ix7e3e8zbfbvqpgkypu6b,yf6ohy8O,2020-0188,2021-10-14,09:46:16,10:54:27,NA,incomplete,false,NA,true,4,0,NA,NA,NA,right,absent,NA,NA,n_s_047.jpg,yellow,n_l_076.jpg,yellow,within,NA,NaN,NA,right,3017.8000000044703,1,1,1704.1000000014901
yf6ohy8O,3o4vwc1gfzjxgki2d88xs18tr9fj3v,3d8you6s9ix7e3e8zbfbvqpgkypu6b,yf6ohy8O,2020-0188,2021-10-14,09:46:16,10:54:27,NA,incomplete,false,NA,true,4,1,NA,NA,NA,right,absent,NA,NA,n_l_036.jpg,red,m_l_063.jpg,orange,between,NA,NaN,NA,right,2803.10000000149,1,1,2195.5
yf6ohy8O,3o4vwc1gfzjxgki2d88xs18tr9fj3v,3d8you6s9ix7e3e8zbfbvqpgkypu6b,yf6ohy8O,2020-0188,2021-10-14,09:46:16,10:54:27,NA,incomplete,false,NA,true,4,2,NA,NA,NA,left,absent,NA,NA,m_s_117.jpg,brown,n_l_089.jpg,brown,within,NA,NaN,NA,left,2929.4000000059605,1,1,2058.6999999955297
yf6ohy8O,3o4vwc1gfzjxgki2d88xs18tr9fj3v,3d8you6s9ix7e3e8zbfbvqpgkypu6b,yf6ohy8O,2020-0188,2021-10-14,09:46:16,10:54:27,NA,incomplete,false,NA,true,4,3,NA,NA,NA,left,absent,NA,NA,m_l_064.jpg,orange,m_l_056.jpg,orange,within,NA,NaN,NA,left,4878.70000000298,1,1,1565.2999999970198
yf6ohy8O,3o4vwc1gfzjxgki2d88xs18tr9fj3v,3d8you6s9ix7e3e8zbfbvqpgkypu6b,yf6ohy8O,2020-0188,2021-10-14,09:46:16,10:54:27,NA,incomplete,false,NA,true,4,4,NA,NA,NA,left,absent,NA,NA,m_s_116.jpg,gray,n_l_075.jpg,blue,between,NA,NaN,NA,right,4135.79999999702,0,1,1951.7000000029802
yf6ohy8O,3o4vwc1gfzjxgki2d88xs18tr9fj3v,3d8you6s9ix7e3e8zbfbvqpgkypu6b,yf6ohy8O,2020-0188,2021-10-14,09:46:16,10:54:27,NA,incomplete,false,NA,true,4,5,NA,NA,NA,right,absent,NA,NA,m_l_045.jpg,orange,m_l_034.jpg,yellow,between,NA,NaN,NA,left,7989.60000000149,0,1,3494.89999999851
yf6ohy8O,3o4vwc1gfzjxgki2d88xs18tr9fj3v,3d8you6s9ix7e3e8zbfbvqpgkypu6b,yf6ohy8O,2020-0188,2021-10-14,09:46:16,10:54:27,NA,incomplete,false,NA,true,4,6,NA,NA,NA,right,absent,NA,NA,m_l_077.jpg,blue,n_l_092.jpg,blue,within,NA,NaN,NA,right,4842.70000000298,1,2,1573.3000000044703
yf6ohy8O,3o4vwc1gfzjxgki2d88xs18tr9fj3v,3d8you6s9ix7e3e8zbfbvqpgkypu6b,yf6ohy8O,2020-0188,2021-10-14,09:46:16,10:54:27,NA,incomplete,false,NA,true,4,7,NA,NA,NA,right,absent,NA,NA,m_s_060.jpg,gray,m_l_057.jpg,gray,within,NA,NaN,NA,right,2622,1,2,1374.3999999985099
yf6ohy8O,3o4vwc1gfzjxgki2d88xs18tr9fj3v,3d8you6s9ix7e3e8zbfbvqpgkypu6b,yf6ohy8O,2020-0188,2021-10-14,09:46:16,10:54:27,NA,incomplete,false,NA,true,4,8,NA,NA,NA,right,absent,NA,NA,m_s_058.jpg,brown,n_l_057.jpg,blue,between,NA,NaN,NA,right,2854.60000000149,1,1,2341.7000000029802
yf6ohy8O,3o4vwc1gfzjxgki2d88xs18tr9fj3v,3d8you6s9ix7e3e8zbfbvqpgkypu6b,yf6ohy8O,2020-0188,2021-10-14,09:46:16,10:54:27,NA,incomplete,false,NA,true,4,9,NA,NA,NA,right,absent,NA,NA,m_l_071.jpg,red,n_l_043.jpg,red,within,NA,NaN,NA,left,4710.89999999851,0,2,1453.7999999970198
yf6ohy8O,3o4vwc1gfzjxgki2d88xs18tr9fj3v,3d8you6s9ix7e3e8zbfbvqpgkypu6b,yf6ohy8O,2020-0188,2021-10-14,09:46:16,10:54:27,NA,incomplete,false,NA,true,4,10,NA,NA,NA,left,absent,NA,NA,n_l_029.jpg,red,n_l_113.jpg,gray,between,NA,NaN,NA,left,5182.5,1,1,1404.2000000029802
yf6ohy8O,3o4vwc1gfzjxgki2d88xs18tr9fj3v,3d8you6s9ix7e3e8zbfbvqpgkypu6b,yf6ohy8O,2020-0188,2021-10-14,09:46:16,10:54:27,NA,incomplete,false,true,NA,5,0,NA,black,m_s_110.jpg,NA,NA,unpleasant,pleasant,NA,NA,NA,NA,NA,right,2723.10000000149,true,NA,NA,NA,NA,NA
yf6ohy8O,3o4vwc1gfzjxgki2d88xs18tr9fj3v,3d8you6s9ix7e3e8zbfbvqpgkypu6b,yf6ohy8O,2020-0188,2021-10-14,09:46:16,10:54:27,NA,incomplete,false,true,NA,5,1,NA,black,n_l_027.jpg,NA,NA,unpleasant,pleasant,NA,NA,NA,NA,NA,right,2017.10000000149,true,NA,NA,NA,NA,NA
yf6ohy8O,3o4vwc1gfzjxgki2d88xs18tr9fj3v,3d8you6s9ix7e3e8zbfbvqpgkypu6b,yf6ohy8O,2020-0188,2021-10-14,09:46:16,10:54:27,NA,incomplete,false,true,NA,5,2,NA,black,n_l_065.jpg,NA,NA,unpleasant,pleasant,NA,NA,NA,NA,NA,right,1606.79999999702,true,NA,NA,NA,NA,NA
yf6ohy8O,3o4vwc1gfzjxgki2d88xs18tr9fj3v,3d8you6s9ix7e3e8zbfbvqpgkypu6b,yf6ohy8O,2020-0188,2021-10-14,09:46:16,10:54:27,NA,incomplete,false,true,NA,5,3,NA,black,m_l_084.jpg,NA,NA,pleasant,unpleasant,NA,NA,NA,NA,NA,left,1858.60000000149,true,NA,NA,NA,NA,NA
yf6ohy8O,3o4vwc1gfzjxgki2d88xs18tr9fj3v,3d8you6s9ix7e3e8zbfbvqpgkypu6b,yf6ohy8O,2020-0188,2021-10-14,09:46:16,10:54:27,NA,incomplete,false,true,NA,5,4,NA,black,m_l_097.jpg,NA,NA,unpleasant,pleasant,NA,NA,NA,NA,NA,right,1733.5,true,NA,NA,NA,NA,NA
yf6ohy8O,3o4vwc1gfzjxgki2d88xs18tr9fj3v,3d8you6s9ix7e3e8zbfbvqpgkypu6b,yf6ohy8O,2020-0188,2021-10-14,09:46:16,10:54:27,NA,incomplete,false,true,NA,5,5,NA,black,n_l_071.jpg,NA,NA,pleasant,unpleasant,NA,NA,NA,NA,NA,left,1566.5,true,NA,NA,NA,NA,NA
yf6ohy8O,3o4vwc1gfzjxgki2d88xs18tr9fj3v,3d8you6s9ix7e3e8zbfbvqpgkypu6b,yf6ohy8O,2020-0188,2021-10-14,09:46:16,10:54:27,NA,incomplete,false,true,NA,5,6,NA,purple,m_s_085.jpg,NA,NA,pleasant,unpleasant,NA,NA,NA,NA,NA,right,1727.30000000447,true,NA,NA,NA,NA,NA
yf6ohy8O,3o4vwc1gfzjxgki2d88xs18tr9fj3v,3d8you6s9ix7e3e8zbfbvqpgkypu6b,yf6ohy8O,2020-0188,2021-10-14,09:46:16,10:54:27,NA,incomplete,false,true,NA,5,7,NA,purple,n_l_026.jpg,NA,NA,unpleasant,pleasant,NA,NA,NA,NA,NA,right,1493.29999999702,true,NA,NA,NA,NA,NA
yf6ohy8O,3o4vwc1gfzjxgki2d88xs18tr9fj3v,3d8you6s9ix7e3e8zbfbvqpgkypu6b,yf6ohy8O,2020-0188,2021-10-14,09:46:16,10:54:27,NA,incomplete,false,true,NA,5,8,NA,purple,m_s_026.jpg,NA,NA,unpleasant,pleasant,NA,NA,NA,NA,NA,right,2697.39999999851,true,NA,NA,NA,NA,NA
yf6ohy8O,3o4vwc1gfzjxgki2d88xs18tr9fj3v,3d8you6s9ix7e3e8zbfbvqpgkypu6b,yf6ohy8O,2020-0188,2021-10-14,09:46:16,10:54:27,NA,incomplete,false,true,NA,5,9,NA,purple,m_s_020.jpg,NA,NA,pleasant,unpleasant,NA,NA,NA,NA,NA,right,1934.19999999553,true,NA,NA,NA,NA,NA
yf6ohy8O,3o4vwc1gfzjxgki2d88xs18tr9fj3v,3d8you6s9ix7e3e8zbfbvqpgkypu6b,yf6ohy8O,2020-0188,2021-10-14,09:46:16,10:54:27,NA,incomplete,false,true,NA,5,10,NA,purple,m_l_032.jpg,NA,NA,unpleasant,pleasant,NA,NA,NA,NA,NA,right,1910.89999999851,true,NA,NA,NA,NA,NA
yf6ohy8O,3o4vwc1gfzjxgki2d88xs18tr9fj3v,3d8you6s9ix7e3e8zbfbvqpgkypu6b,yf6ohy8O,2020-0188,2021-10-14,09:46:16,10:54:27,NA,incomplete,false,true,NA,5,11,NA,purple,m_l_031.jpg,NA,NA,pleasant,unpleasant,NA,NA,NA,NA,NA,right,1868.70000000298,true,NA,NA,NA,NA,NA
yf6ohy8O,3o4vwc1gfzjxgki2d88xs18tr9fj3v,3d8you6s9ix7e3e8zbfbvqpgkypu6b,yf6ohy8O,2020-0188,2021-10-14,09:46:16,10:54:27,NA,incomplete,false,true,NA,5,12,NA,red,n_l_115.jpg,NA,NA,pleasant,unpleasant,NA,NA,NA,NA,NA,left,1518.29999999702,true,NA,NA,NA,NA,NA
yf6ohy8O,3o4vwc1gfzjxgki2d88xs18tr9fj3v,3d8you6s9ix7e3e8zbfbvqpgkypu6b,yf6ohy8O,2020-0188,2021-10-14,09:46:16,10:54:27,NA,incomplete,false,true,NA,5,13,NA,red,n_s_043.jpg,NA,NA,unpleasant,pleasant,NA,NA,NA,NA,NA,left,2920.70000000298,true,NA,NA,NA,NA,NA
yf6ohy8O,3o4vwc1gfzjxgki2d88xs18tr9fj3v,3d8you6s9ix7e3e8zbfbvqpgkypu6b,yf6ohy8O,2020-0188,2021-10-14,09:46:16,10:54:27,NA,incomplete,false,true,NA,5,14,NA,red,m_l_088.jpg,NA,NA,pleasant,unpleasant,NA,NA,NA,NA,NA,left,1883.09999999404,true,NA,NA,NA,NA,NA
yf6ohy8O,3o4vwc1gfzjxgki2d88xs18tr9fj3v,3d8you6s9ix7e3e8zbfbvqpgkypu6b,yf6ohy8O,2020-0188,2021-10-14,09:46:16,10:54:27,NA,incomplete,false,true,NA,5,15,NA,red,n_l_024.jpg,NA,NA,unpleasant,pleasant,NA,NA,NA,NA,NA,left,2249.19999999553,true,NA,NA,NA,NA,NA
yf6ohy8O,3o4vwc1gfzjxgki2d88xs18tr9fj3v,3d8you6s9ix7e3e8zbfbvqpgkypu6b,yf6ohy8O,2020-0188,2021-10-14,09:46:16,10:54:27,NA,incomplete,false,true,NA,5,16,NA,red,m_s_008.jpg,NA,NA,unpleasant,pleasant,NA,NA,NA,NA,NA,right,1591.59999999404,true,NA,NA,NA,NA,NA
yf6ohy8O,3o4vwc1gfzjxgki2d88xs18tr9fj3v,3d8you6s9ix7e3e8zbfbvqpgkypu6b,yf6ohy8O,2020-0188,2021-10-14,09:46:16,10:54:27,NA,incomplete,false,true,NA,5,17,NA,red,m_l_066.jpg,NA,NA,pleasant,unpleasant,NA,NA,NA,NA,NA,left,1846.19999999553,true,NA,NA,NA,NA,NA
yf6ohy8O,3o4vwc1gfzjxgki2d88xs18tr9fj3v,3d8you6s9ix7e3e8zbfbvqpgkypu6b,yf6ohy8O,2020-0188,2021-10-14,09:46:16,10:54:27,NA,incomplete,false,true,NA,5,18,NA,gray,m_s_082.jpg,NA,NA,unpleasant,pleasant,NA,NA,NA,NA,NA,right,1951,true,NA,NA,NA,NA,NA
yf6ohy8O,3o4vwc1gfzjxgki2d88xs18tr9fj3v,3d8you6s9ix7e3e8zbfbvqpgkypu6b,yf6ohy8O,2020-0188,2021-10-14,09:46:16,10:54:27,NA,incomplete,false,true,NA,5,19,NA,gray,n_s_017.jpg,NA,NA,unpleasant,pleasant,NA,NA,NA,NA,NA,right,2118.30000000447,true,NA,NA,NA,NA,NA
yf6ohy8O,3o4vwc1gfzjxgki2d88xs18tr9fj3v,3d8you6s9ix7e3e8zbfbvqpgkypu6b,yf6ohy8O,2020-0188,2021-10-14,09:46:16,10:54:27,NA,incomplete,false,true,NA,5,20,NA,gray,n_l_045.jpg,NA,NA,pleasant,unpleasant,NA,NA,NA,NA,NA,right,2051.30000000447,true,NA,NA,NA,NA,NA
yf6ohy8O,3o4vwc1gfzjxgki2d88xs18tr9fj3v,3d8you6s9ix7e3e8zbfbvqpgkypu6b,yf6ohy8O,2020-0188,2021-10-14,09:46:16,10:54:27,NA,incomplete,false,true,NA,5,21,NA,gray,m_l_095.jpg,NA,NA,pleasant,unpleasant,NA,NA,NA,NA,NA,left,1846.30000000447,true,NA,NA,NA,NA,NA
yf6ohy8O,3o4vwc1gfzjxgki2d88xs18tr9fj3v,3d8you6s9ix7e3e8zbfbvqpgkypu6b,yf6ohy8O,2020-0188,2021-10-14,09:46:16,10:54:27,NA,incomplete,false,true,NA,5,22,NA,gray,n_s_071.jpg,NA,NA,pleasant,unpleasant,NA,NA,NA,NA,NA,right,3312.80000000447,true,NA,NA,NA,NA,NA
yf6ohy8O,3o4vwc1gfzjxgki2d88xs18tr9fj3v,3d8you6s9ix7e3e8zbfbvqpgkypu6b,yf6ohy8O,2020-0188,2021-10-14,09:46:16,10:54:27,NA,incomplete,false,true,NA,5,23,NA,gray,m_l_052.jpg,NA,NA,unpleasant,pleasant,NA,NA,NA,NA,NA,left,1922.5,true,NA,NA,NA,NA,NA
yf6ohy8O,3o4vwc1gfzjxgki2d88xs18tr9fj3v,3d8you6s9ix7e3e8zbfbvqpgkypu6b,yf6ohy8O,2020-0188,2021-10-14,09:46:16,10:54:27,NA,incomplete,false,true,NA,5,24,NA,orange,m_l_111.jpg,NA,NA,pleasant,unpleasant,NA,NA,NA,NA,NA,left,1804,true,NA,NA,NA,NA,NA
yf6ohy8O,3o4vwc1gfzjxgki2d88xs18tr9fj3v,3d8you6s9ix7e3e8zbfbvqpgkypu6b,yf6ohy8O,2020-0188,2021-10-14,09:46:16,10:54:27,NA,incomplete,false,true,NA,5,25,NA,orange,m_l_029.jpg,NA,NA,unpleasant,pleasant,NA,NA,NA,NA,NA,right,1428.89999999851,true,NA,NA,NA,NA,NA
yf6ohy8O,3o4vwc1gfzjxgki2d88xs18tr9fj3v,3d8you6s9ix7e3e8zbfbvqpgkypu6b,yf6ohy8O,2020-0188,2021-10-14,09:46:16,10:54:27,NA,incomplete,false,true,NA,5,26,NA,orange,m_l_089.jpg,NA,NA,unpleasant,pleasant,NA,NA,NA,NA,NA,left,2507.19999999553,true,NA,NA,NA,NA,NA
yf6ohy8O,3o4vwc1gfzjxgki2d88xs18tr9fj3v,3d8you6s9ix7e3e8zbfbvqpgkypu6b,yf6ohy8O,2020-0188,2021-10-14,09:46:16,10:54:27,NA,incomplete,false,true,NA,5,27,NA,orange,n_l_105.jpg,NA,NA,pleasant,unpleasant,NA,NA,NA,NA,NA,left,1611.70000000298,true,NA,NA,NA,NA,NA
yf6ohy8O,3o4vwc1gfzjxgki2d88xs18tr9fj3v,3d8you6s9ix7e3e8zbfbvqpgkypu6b,yf6ohy8O,2020-0188,2021-10-14,09:46:16,10:54:27,NA,incomplete,false,true,NA,5,28,NA,orange,n_l_030.jpg,NA,NA,unpleasant,pleasant,NA,NA,NA,NA,NA,right,1560.19999999553,true,NA,NA,NA,NA,NA
yf6ohy8O,3o4vwc1gfzjxgki2d88xs18tr9fj3v,3d8you6s9ix7e3e8zbfbvqpgkypu6b,yf6ohy8O,2020-0188,2021-10-14,09:46:16,10:54:27,NA,incomplete,false,true,NA,5,29,NA,orange,m_s_079.jpg,NA,NA,pleasant,unpleasant,NA,NA,NA,NA,NA,left,1350.39999999851,true,NA,NA,NA,NA,NA
yf6ohy8O,3o4vwc1gfzjxgki2d88xs18tr9fj3v,3d8you6s9ix7e3e8zbfbvqpgkypu6b,yf6ohy8O,2020-0188,2021-10-14,09:46:16,10:54:27,NA,incomplete,false,true,NA,5,30,NA,green,m_s_040.jpg,NA,NA,pleasant,unpleasant,NA,NA,NA,NA,NA,right,2141.79999999702,true,NA,NA,NA,NA,NA
yf6ohy8O,3o4vwc1gfzjxgki2d88xs18tr9fj3v,3d8you6s9ix7e3e8zbfbvqpgkypu6b,yf6ohy8O,2020-0188,2021-10-14,09:46:16,10:54:27,NA,incomplete,false,true,NA,5,31,NA,green,n_l_059.jpg,NA,NA,pleasant,unpleasant,NA,NA,NA,NA,NA,right,1640.89999999851,true,NA,NA,NA,NA,NA
yf6ohy8O,3o4vwc1gfzjxgki2d88xs18tr9fj3v,3d8you6s9ix7e3e8zbfbvqpgkypu6b,yf6ohy8O,2020-0188,2021-10-14,09:46:16,10:54:27,NA,incomplete,false,true,NA,5,32,NA,green,n_l_101.jpg,NA,NA,pleasant,unpleasant,NA,NA,NA,NA,NA,left,1246.79999999702,true,NA,NA,NA,NA,NA
yf6ohy8O,3o4vwc1gfzjxgki2d88xs18tr9fj3v,3d8you6s9ix7e3e8zbfbvqpgkypu6b,yf6ohy8O,2020-0188,2021-10-14,09:46:16,10:54:27,NA,incomplete,false,true,NA,5,33,NA,green,n_l_004.jpg,NA,NA,unpleasant,pleasant,NA,NA,NA,NA,NA,right,1758.60000000149,true,NA,NA,NA,NA,NA
yf6ohy8O,3o4vwc1gfzjxgki2d88xs18tr9fj3v,3d8you6s9ix7e3e8zbfbvqpgkypu6b,yf6ohy8O,2020-0188,2021-10-14,09:46:16,10:54:27,NA,incomplete,false,true,NA,5,34,NA,green,n_s_037.jpg,NA,NA,unpleasant,pleasant,NA,NA,NA,NA,NA,right,1615,true,NA,NA,NA,NA,NA
yf6ohy8O,3o4vwc1gfzjxgki2d88xs18tr9fj3v,3d8you6s9ix7e3e8zbfbvqpgkypu6b,yf6ohy8O,2020-0188,2021-10-14,09:46:16,10:54:27,NA,incomplete,false,true,NA,5,35,NA,green,m_l_105.jpg,NA,NA,unpleasant,pleasant,NA,NA,NA,NA,NA,right,1536.89999999851,true,NA,NA,NA,NA,NA
yf6ohy8O,3o4vwc1gfzjxgki2d88xs18tr9fj3v,3d8you6s9ix7e3e8zbfbvqpgkypu6b,yf6ohy8O,2020-0188,2021-10-14,09:46:16,10:54:27,NA,incomplete,false,NA,true,5,0,NA,NA,NA,right,absent,NA,NA,n_l_071.jpg,black,n_l_027.jpg,black,within,NA,NaN,NA,right,2925.7000000029802,1,1,1510.1999999955297
yf6ohy8O,3o4vwc1gfzjxgki2d88xs18tr9fj3v,3d8you6s9ix7e3e8zbfbvqpgkypu6b,yf6ohy8O,2020-0188,2021-10-14,09:46:16,10:54:27,NA,incomplete,false,NA,true,5,1,NA,NA,NA,right,absent,NA,NA,m_l_088.jpg,red,m_l_032.jpg,purple,between,NA,NaN,NA,left,3804.6999999955297,0,1,1431.5
yf6ohy8O,3o4vwc1gfzjxgki2d88xs18tr9fj3v,3d8you6s9ix7e3e8zbfbvqpgkypu6b,yf6ohy8O,2020-0188,2021-10-14,09:46:16,10:54:27,NA,incomplete,false,NA,true,5,2,NA,NA,NA,left,absent,NA,NA,n_l_030.jpg,orange,n_l_101.jpg,green,between,NA,NaN,NA,left,2399,1,2,4966.30000000447
yf6ohy8O,3o4vwc1gfzjxgki2d88xs18tr9fj3v,3d8you6s9ix7e3e8zbfbvqpgkypu6b,yf6ohy8O,2020-0188,2021-10-14,09:46:16,10:54:27,NA,incomplete,false,NA,true,5,3,NA,NA,NA,left,absent,NA,NA,m_l_097.jpg,black,m_s_026.jpg,purple,between,NA,NaN,NA,right,2716.60000000149,0,2,2292.2999999970198
yf6ohy8O,3o4vwc1gfzjxgki2d88xs18tr9fj3v,3d8you6s9ix7e3e8zbfbvqpgkypu6b,yf6ohy8O,2020-0188,2021-10-14,09:46:16,10:54:27,NA,incomplete,false,NA,true,5,4,NA,NA,NA,left,absent,NA,NA,n_s_071.jpg,gray,m_l_089.jpg,orange,between,NA,NaN,NA,right,5158.5,0,2,1484.2999999970198
yf6ohy8O,3o4vwc1gfzjxgki2d88xs18tr9fj3v,3d8you6s9ix7e3e8zbfbvqpgkypu6b,yf6ohy8O,2020-0188,2021-10-14,09:46:16,10:54:27,NA,incomplete,false,NA,true,5,5,NA,NA,NA,right,absent,NA,NA,m_l_031.jpg,purple,n_l_026.jpg,purple,within,NA,NaN,NA,right,2317,1,1,1711.4000000059605
yf6ohy8O,3o4vwc1gfzjxgki2d88xs18tr9fj3v,3d8you6s9ix7e3e8zbfbvqpgkypu6b,yf6ohy8O,2020-0188,2021-10-14,09:46:16,10:54:27,NA,incomplete,false,NA,true,5,6,NA,NA,NA,left,absent,NA,NA,n_s_017.jpg,gray,m_l_052.jpg,gray,within,NA,NaN,NA,left,4284.9000000059605,1,1,1421.7999999970198
yf6ohy8O,3o4vwc1gfzjxgki2d88xs18tr9fj3v,3d8you6s9ix7e3e8zbfbvqpgkypu6b,yf6ohy8O,2020-0188,2021-10-14,09:46:16,10:54:27,NA,incomplete,false,NA,true,5,7,NA,NA,NA,right,absent,NA,NA,m_l_105.jpg,green,n_l_059.jpg,green,within,NA,NaN,NA,left,4725.19999999553,0,2,1238.9000000059605
yf6ohy8O,3o4vwc1gfzjxgki2d88xs18tr9fj3v,3d8you6s9ix7e3e8zbfbvqpgkypu6b,yf6ohy8O,2020-0188,2021-10-14,09:46:16,10:54:27,NA,incomplete,false,NA,true,5,8,NA,NA,NA,left,absent,NA,NA,n_s_043.jpg,red,m_l_066.jpg,red,within,NA,NaN,NA,right,5789,0,2,1255.8000000044703
yf6ohy8O,3o4vwc1gfzjxgki2d88xs18tr9fj3v,3d8you6s9ix7e3e8zbfbvqpgkypu6b,yf6ohy8O,2020-0188,2021-10-14,09:46:16,10:54:27,NA,incomplete,false,NA,true,5,9,NA,NA,NA,right,absent,NA,NA,n_l_045.jpg,gray,m_s_008.jpg,red,between,NA,NaN,NA,right,3957.2999999970198,1,1,1901.6000000014901
yf6ohy8O,3o4vwc1gfzjxgki2d88xs18tr9fj3v,3d8you6s9ix7e3e8zbfbvqpgkypu6b,yf6ohy8O,2020-0188,2021-10-14,09:46:16,10:54:27,NA,incomplete,false,NA,true,5,10,NA,NA,NA,left,absent,NA,NA,m_l_029.jpg,orange,m_s_079.jpg,orange,within,NA,NaN,NA,left,3481,1,2,1416.1000000014901
yf6ohy8O,3o4vwc1gfzjxgki2d88xs18tr9fj3v,3d8you6s9ix7e3e8zbfbvqpgkypu6b,yf6ohy8O,2020-0188,2021-10-14,09:46:16,10:54:27,NA,incomplete,false,true,NA,6,0,NA,white,m_s_037.jpg,NA,NA,pleasant,unpleasant,NA,NA,NA,NA,NA,left,3158.20000000298,true,NA,NA,NA,NA,NA
yf6ohy8O,3o4vwc1gfzjxgki2d88xs18tr9fj3v,3d8you6s9ix7e3e8zbfbvqpgkypu6b,yf6ohy8O,2020-0188,2021-10-14,09:46:16,10:54:27,NA,incomplete,false,true,NA,6,1,NA,white,n_s_038.jpg,NA,NA,pleasant,unpleasant,NA,NA,NA,NA,NA,right,1811.39999999851,true,NA,NA,NA,NA,NA
yf6ohy8O,3o4vwc1gfzjxgki2d88xs18tr9fj3v,3d8you6s9ix7e3e8zbfbvqpgkypu6b,yf6ohy8O,2020-0188,2021-10-14,09:46:16,10:54:27,NA,incomplete,false,true,NA,6,2,NA,white,n_l_011.jpg,NA,NA,unpleasant,pleasant,NA,NA,NA,NA,NA,left,1804.5,true,NA,NA,NA,NA,NA
yf6ohy8O,3o4vwc1gfzjxgki2d88xs18tr9fj3v,3d8you6s9ix7e3e8zbfbvqpgkypu6b,yf6ohy8O,2020-0188,2021-10-14,09:46:16,10:54:27,NA,incomplete,false,true,NA,6,3,NA,white,n_s_090.jpg,NA,NA,pleasant,unpleasant,NA,NA,NA,NA,NA,right,2229,true,NA,NA,NA,NA,NA
yf6ohy8O,3o4vwc1gfzjxgki2d88xs18tr9fj3v,3d8you6s9ix7e3e8zbfbvqpgkypu6b,yf6ohy8O,2020-0188,2021-10-14,09:46:16,10:54:27,NA,incomplete,false,true,NA,6,4,NA,white,n_l_096.jpg,NA,NA,unpleasant,pleasant,NA,NA,NA,NA,NA,right,1288.39999999851,true,NA,NA,NA,NA,NA
yf6ohy8O,3o4vwc1gfzjxgki2d88xs18tr9fj3v,3d8you6s9ix7e3e8zbfbvqpgkypu6b,yf6ohy8O,2020-0188,2021-10-14,09:46:16,10:54:27,NA,incomplete,false,true,NA,6,5,NA,white,m_l_104.jpg,NA,NA,unpleasant,pleasant,NA,NA,NA,NA,NA,right,1677.5,true,NA,NA,NA,NA,NA
yf6ohy8O,3o4vwc1gfzjxgki2d88xs18tr9fj3v,3d8you6s9ix7e3e8zbfbvqpgkypu6b,yf6ohy8O,2020-0188,2021-10-14,09:46:16,10:54:27,NA,incomplete,false,true,NA,6,6,NA,brown,m_l_008.jpg,NA,NA,pleasant,unpleasant,NA,NA,NA,NA,NA,left,1393.30000000447,true,NA,NA,NA,NA,NA
yf6ohy8O,3o4vwc1gfzjxgki2d88xs18tr9fj3v,3d8you6s9ix7e3e8zbfbvqpgkypu6b,yf6ohy8O,2020-0188,2021-10-14,09:46:16,10:54:27,NA,incomplete,false,true,NA,6,7,NA,brown,m_l_047.jpg,NA,NA,pleasant,unpleasant,NA,NA,NA,NA,NA,right,1762.29999999702,true,NA,NA,NA,NA,NA
yf6ohy8O,3o4vwc1gfzjxgki2d88xs18tr9fj3v,3d8you6s9ix7e3e8zbfbvqpgkypu6b,yf6ohy8O,2020-0188,2021-10-14,09:46:16,10:54:27,NA,incomplete,false,true,NA,6,8,NA,brown,m_s_064.jpg,NA,NA,unpleasant,pleasant,NA,NA,NA,NA,NA,right,2319.89999999851,true,NA,NA,NA,NA,NA
yf6ohy8O,3o4vwc1gfzjxgki2d88xs18tr9fj3v,3d8you6s9ix7e3e8zbfbvqpgkypu6b,yf6ohy8O,2020-0188,2021-10-14,09:46:16,10:54:27,NA,incomplete,false,true,NA,6,9,NA,brown,n_l_086.jpg,NA,NA,pleasant,unpleasant,NA,NA,NA,NA,NA,left,1227.10000000149,true,NA,NA,NA,NA,NA
yf6ohy8O,3o4vwc1gfzjxgki2d88xs18tr9fj3v,3d8you6s9ix7e3e8zbfbvqpgkypu6b,yf6ohy8O,2020-0188,2021-10-14,09:46:16,10:54:27,NA,incomplete,false,true,NA,6,10,NA,brown,m_s_078.jpg,NA,NA,pleasant,unpleasant,NA,NA,NA,NA,NA,left,1184.40000000596,true,NA,NA,NA,NA,NA
yf6ohy8O,3o4vwc1gfzjxgki2d88xs18tr9fj3v,3d8you6s9ix7e3e8zbfbvqpgkypu6b,yf6ohy8O,2020-0188,2021-10-14,09:46:16,10:54:27,NA,incomplete,false,true,NA,6,11,NA,brown,n_l_039.jpg,NA,NA,unpleasant,pleasant,NA,NA,NA,NA,NA,left,2241.89999999851,true,NA,NA,NA,NA,NA
yf6ohy8O,3o4vwc1gfzjxgki2d88xs18tr9fj3v,3d8you6s9ix7e3e8zbfbvqpgkypu6b,yf6ohy8O,2020-0188,2021-10-14,09:46:16,10:54:27,NA,incomplete,false,true,NA,6,12,NA,yellow,m_l_028.jpg,NA,NA,pleasant,unpleasant,NA,NA,NA,NA,NA,left,2192.20000000298,true,NA,NA,NA,NA,NA
yf6ohy8O,3o4vwc1gfzjxgki2d88xs18tr9fj3v,3d8you6s9ix7e3e8zbfbvqpgkypu6b,yf6ohy8O,2020-0188,2021-10-14,09:46:16,10:54:27,NA,incomplete,false,true,NA,6,13,NA,yellow,n_s_052.jpg,NA,NA,unpleasant,pleasant,NA,NA,NA,NA,NA,right,1608.5,true,NA,NA,NA,NA,NA
yf6ohy8O,3o4vwc1gfzjxgki2d88xs18tr9fj3v,3d8you6s9ix7e3e8zbfbvqpgkypu6b,yf6ohy8O,2020-0188,2021-10-14,09:46:16,10:54:27,NA,incomplete,false,true,NA,6,14,NA,yellow,n_s_055.jpg,NA,NA,unpleasant,pleasant,NA,NA,NA,NA,NA,right,2036.79999999702,true,NA,NA,NA,NA,NA
yf6ohy8O,3o4vwc1gfzjxgki2d88xs18tr9fj3v,3d8you6s9ix7e3e8zbfbvqpgkypu6b,yf6ohy8O,2020-0188,2021-10-14,09:46:16,10:54:27,NA,incomplete,false,true,NA,6,15,NA,yellow,n_s_026.jpg,NA,NA,pleasant,unpleasant,NA,NA,NA,NA,NA,right,1417.29999999702,true,NA,NA,NA,NA,NA
yf6ohy8O,3o4vwc1gfzjxgki2d88xs18tr9fj3v,3d8you6s9ix7e3e8zbfbvqpgkypu6b,yf6ohy8O,2020-0188,2021-10-14,09:46:16,10:54:27,NA,incomplete,false,true,NA,6,16,NA,yellow,m_s_087.jpg,NA,NA,unpleasant,pleasant,NA,NA,NA,NA,NA,right,1626.60000000149,true,NA,NA,NA,NA,NA
yf6ohy8O,3o4vwc1gfzjxgki2d88xs18tr9fj3v,3d8you6s9ix7e3e8zbfbvqpgkypu6b,yf6ohy8O,2020-0188,2021-10-14,09:46:16,10:54:27,NA,incomplete,false,true,NA,6,17,NA,yellow,m_s_017.jpg,NA,NA,unpleasant,pleasant,NA,NA,NA,NA,NA,left,1940.89999999851,true,NA,NA,NA,NA,NA
yf6ohy8O,3o4vwc1gfzjxgki2d88xs18tr9fj3v,3d8you6s9ix7e3e8zbfbvqpgkypu6b,yf6ohy8O,2020-0188,2021-10-14,09:46:16,10:54:27,NA,incomplete,false,true,NA,6,18,NA,red,n_l_090.jpg,NA,NA,pleasant,unpleasant,NA,NA,NA,NA,NA,right,2028.20000000298,true,NA,NA,NA,NA,NA
yf6ohy8O,3o4vwc1gfzjxgki2d88xs18tr9fj3v,3d8you6s9ix7e3e8zbfbvqpgkypu6b,yf6ohy8O,2020-0188,2021-10-14,09:46:16,10:54:27,NA,incomplete,false,true,NA,6,19,NA,red,n_s_059.jpg,NA,NA,pleasant,unpleasant,NA,NA,NA,NA,NA,right,2665.70000000298,true,NA,NA,NA,NA,NA
yf6ohy8O,3o4vwc1gfzjxgki2d88xs18tr9fj3v,3d8you6s9ix7e3e8zbfbvqpgkypu6b,yf6ohy8O,2020-0188,2021-10-14,09:46:16,10:54:27,NA,incomplete,false,true,NA,6,20,NA,red,m_s_029.jpg,NA,NA,unpleasant,pleasant,NA,NA,NA,NA,NA,right,1814.80000000447,true,NA,NA,NA,NA,NA
yf6ohy8O,3o4vwc1gfzjxgki2d88xs18tr9fj3v,3d8you6s9ix7e3e8zbfbvqpgkypu6b,yf6ohy8O,2020-0188,2021-10-14,09:46:16,10:54:27,NA,incomplete,false,true,NA,6,21,NA,red,n_l_031.jpg,NA,NA,unpleasant,pleasant,NA,NA,NA,NA,NA,right,1371.90000000596,true,NA,NA,NA,NA,NA
yf6ohy8O,3o4vwc1gfzjxgki2d88xs18tr9fj3v,3d8you6s9ix7e3e8zbfbvqpgkypu6b,yf6ohy8O,2020-0188,2021-10-14,09:46:16,10:54:27,NA,incomplete,false,true,NA,6,22,NA,red,n_l_008.jpg,NA,NA,unpleasant,pleasant,NA,NA,NA,NA,NA,left,2433.30000000447,true,NA,NA,NA,NA,NA
yf6ohy8O,3o4vwc1gfzjxgki2d88xs18tr9fj3v,3d8you6s9ix7e3e8zbfbvqpgkypu6b,yf6ohy8O,2020-0188,2021-10-14,09:46:16,10:54:27,NA,incomplete,false,true,NA,6,23,NA,red,n_l_067.jpg,NA,NA,pleasant,unpleasant,NA,NA,NA,NA,NA,left,1609.29999999702,true,NA,NA,NA,NA,NA
yf6ohy8O,3o4vwc1gfzjxgki2d88xs18tr9fj3v,3d8you6s9ix7e3e8zbfbvqpgkypu6b,yf6ohy8O,2020-0188,2021-10-14,09:46:16,10:54:27,NA,incomplete,false,true,NA,6,24,NA,orange,n_l_055.jpg,NA,NA,pleasant,unpleasant,NA,NA,NA,NA,NA,left,1635.19999999553,true,NA,NA,NA,NA,NA
yf6ohy8O,3o4vwc1gfzjxgki2d88xs18tr9fj3v,3d8you6s9ix7e3e8zbfbvqpgkypu6b,yf6ohy8O,2020-0188,2021-10-14,09:46:16,10:54:27,NA,incomplete,false,true,NA,6,25,NA,orange,n_l_049.jpg,NA,NA,pleasant,unpleasant,NA,NA,NA,NA,NA,left,1693.90000000596,true,NA,NA,NA,NA,NA
yf6ohy8O,3o4vwc1gfzjxgki2d88xs18tr9fj3v,3d8you6s9ix7e3e8zbfbvqpgkypu6b,yf6ohy8O,2020-0188,2021-10-14,09:46:16,10:54:27,NA,incomplete,false,true,NA,6,26,NA,orange,m_l_033.jpg,NA,NA,pleasant,unpleasant,NA,NA,NA,NA,NA,right,1591.39999999851,true,NA,NA,NA,NA,NA
yf6ohy8O,3o4vwc1gfzjxgki2d88xs18tr9fj3v,3d8you6s9ix7e3e8zbfbvqpgkypu6b,yf6ohy8O,2020-0188,2021-10-14,09:46:16,10:54:27,NA,incomplete,false,true,NA,6,27,NA,orange,m_s_088.jpg,NA,NA,pleasant,unpleasant,NA,NA,NA,NA,NA,right,1433.10000000149,true,NA,NA,NA,NA,NA
yf6ohy8O,3o4vwc1gfzjxgki2d88xs18tr9fj3v,3d8you6s9ix7e3e8zbfbvqpgkypu6b,yf6ohy8O,2020-0188,2021-10-14,09:46:16,10:54:27,NA,incomplete,false,true,NA,6,28,NA,orange,m_l_001.jpg,NA,NA,pleasant,unpleasant,NA,NA,NA,NA,NA,right,1684.5,true,NA,NA,NA,NA,NA
yf6ohy8O,3o4vwc1gfzjxgki2d88xs18tr9fj3v,3d8you6s9ix7e3e8zbfbvqpgkypu6b,yf6ohy8O,2020-0188,2021-10-14,09:46:16,10:54:27,NA,incomplete,false,true,NA,6,29,NA,orange,m_s_051.jpg,NA,NA,unpleasant,pleasant,NA,NA,NA,NA,NA,right,1493.20000000298,true,NA,NA,NA,NA,NA
yf6ohy8O,3o4vwc1gfzjxgki2d88xs18tr9fj3v,3d8you6s9ix7e3e8zbfbvqpgkypu6b,yf6ohy8O,2020-0188,2021-10-14,09:46:16,10:54:27,NA,incomplete,false,true,NA,6,30,NA,gray,m_s_084.jpg,NA,NA,pleasant,unpleasant,NA,NA,NA,NA,NA,left,1782.5,true,NA,NA,NA,NA,NA
yf6ohy8O,3o4vwc1gfzjxgki2d88xs18tr9fj3v,3d8you6s9ix7e3e8zbfbvqpgkypu6b,yf6ohy8O,2020-0188,2021-10-14,09:46:16,10:54:27,NA,incomplete,false,true,NA,6,31,NA,gray,n_s_113.jpg,NA,NA,unpleasant,pleasant,NA,NA,NA,NA,NA,right,2027.5,true,NA,NA,NA,NA,NA
yf6ohy8O,3o4vwc1gfzjxgki2d88xs18tr9fj3v,3d8you6s9ix7e3e8zbfbvqpgkypu6b,yf6ohy8O,2020-0188,2021-10-14,09:46:16,10:54:27,NA,incomplete,false,true,NA,6,32,NA,gray,m_s_072.jpg,NA,NA,pleasant,unpleasant,NA,NA,NA,NA,NA,right,1708,true,NA,NA,NA,NA,NA
yf6ohy8O,3o4vwc1gfzjxgki2d88xs18tr9fj3v,3d8you6s9ix7e3e8zbfbvqpgkypu6b,yf6ohy8O,2020-0188,2021-10-14,09:46:16,10:54:27,NA,incomplete,false,true,NA,6,33,NA,gray,m_s_011.jpg,NA,NA,unpleasant,pleasant,NA,NA,NA,NA,NA,left,2360.20000000298,true,NA,NA,NA,NA,NA
yf6ohy8O,3o4vwc1gfzjxgki2d88xs18tr9fj3v,3d8you6s9ix7e3e8zbfbvqpgkypu6b,yf6ohy8O,2020-0188,2021-10-14,09:46:16,10:54:27,NA,incomplete,false,true,NA,6,34,NA,gray,n_l_104.jpg,NA,NA,pleasant,unpleasant,NA,NA,NA,NA,NA,right,2051.5,true,NA,NA,NA,NA,NA
yf6ohy8O,3o4vwc1gfzjxgki2d88xs18tr9fj3v,3d8you6s9ix7e3e8zbfbvqpgkypu6b,yf6ohy8O,2020-0188,2021-10-14,09:46:16,10:54:27,NA,incomplete,false,true,NA,6,35,NA,gray,m_l_065.jpg,NA,NA,unpleasant,pleasant,NA,NA,NA,NA,NA,right,1299,true,NA,NA,NA,NA,NA
yf6ohy8O,3o4vwc1gfzjxgki2d88xs18tr9fj3v,3d8you6s9ix7e3e8zbfbvqpgkypu6b,yf6ohy8O,2020-0188,2021-10-14,09:46:16,10:54:27,NA,incomplete,false,NA,true,6,0,NA,NA,NA,right,absent,NA,NA,n_l_039.jpg,brown,m_l_047.jpg,brown,within,NA,NaN,NA,left,7846.89999999851,0,1,1226.1999999955297
yf6ohy8O,3o4vwc1gfzjxgki2d88xs18tr9fj3v,3d8you6s9ix7e3e8zbfbvqpgkypu6b,yf6ohy8O,2020-0188,2021-10-14,09:46:16,10:54:27,NA,incomplete,false,NA,true,6,1,NA,NA,NA,right,absent,NA,NA,m_s_017.jpg,yellow,n_s_052.jpg,yellow,within,NA,NaN,NA,right,2530.39999999851,1,2,2171.5
yf6ohy8O,3o4vwc1gfzjxgki2d88xs18tr9fj3v,3d8you6s9ix7e3e8zbfbvqpgkypu6b,yf6ohy8O,2020-0188,2021-10-14,09:46:16,10:54:27,NA,incomplete,false,NA,true,6,2,NA,NA,NA,right,absent,NA,NA,m_s_029.jpg,red,m_s_087.jpg,yellow,between,NA,NaN,NA,right,8803.30000000447,1,1,1625.4000000059605
yf6ohy8O,3o4vwc1gfzjxgki2d88xs18tr9fj3v,3d8you6s9ix7e3e8zbfbvqpgkypu6b,yf6ohy8O,2020-0188,2021-10-14,09:46:16,10:54:27,NA,incomplete,false,NA,true,6,3,NA,NA,NA,left,absent,NA,NA,m_s_078.jpg,brown,n_s_055.jpg,yellow,between,NA,NaN,NA,left,3180.10000000149,1,2,1357.7000000029802
yf6ohy8O,3o4vwc1gfzjxgki2d88xs18tr9fj3v,3d8you6s9ix7e3e8zbfbvqpgkypu6b,yf6ohy8O,2020-0188,2021-10-14,09:46:16,10:54:27,NA,incomplete,false,NA,true,6,4,NA,NA,NA,right,absent,NA,NA,n_l_067.jpg,red,n_s_059.jpg,red,within,NA,NaN,NA,left,3964.39999999851,0,2,1190.6000000014901
yf6ohy8O,3o4vwc1gfzjxgki2d88xs18tr9fj3v,3d8you6s9ix7e3e8zbfbvqpgkypu6b,yf6ohy8O,2020-0188,2021-10-14,09:46:16,10:54:27,NA,incomplete,false,NA,true,6,5,NA,NA,NA,right,absent,NA,NA,m_l_065.jpg,gray,n_s_113.jpg,gray,within,NA,NaN,NA,left,2620.2000000029802,0,1,1572.7000000029802
yf6ohy8O,3o4vwc1gfzjxgki2d88xs18tr9fj3v,3d8you6s9ix7e3e8zbfbvqpgkypu6b,yf6ohy8O,2020-0188,2021-10-14,09:46:16,10:54:27,NA,incomplete,false,NA,true,6,6,NA,NA,NA,left,absent,NA,NA,n_s_038.jpg,white,m_l_104.jpg,white,within,NA,NaN,NA,left,3509.89999999851,1,1,1331.8999999985099
yf6ohy8O,3o4vwc1gfzjxgki2d88xs18tr9fj3v,3d8you6s9ix7e3e8zbfbvqpgkypu6b,yf6ohy8O,2020-0188,2021-10-14,09:46:16,10:54:27,NA,incomplete,false,NA,true,6,7,NA,NA,NA,left,absent,NA,NA,n_l_008.jpg,red,m_l_033.jpg,orange,between,NA,NaN,NA,right,5647.0999999940395,0,1,1230.1000000014901
yf6ohy8O,3o4vwc1gfzjxgki2d88xs18tr9fj3v,3d8you6s9ix7e3e8zbfbvqpgkypu6b,yf6ohy8O,2020-0188,2021-10-14,09:46:16,10:54:27,NA,incomplete,false,NA,true,6,8,NA,NA,NA,right,absent,NA,NA,m_s_064.jpg,brown,n_l_096.jpg,white,between,NA,NaN,NA,left,4574.70000000298,0,1,1755.6999999955297
yf6ohy8O,3o4vwc1gfzjxgki2d88xs18tr9fj3v,3d8you6s9ix7e3e8zbfbvqpgkypu6b,yf6ohy8O,2020-0188,2021-10-14,09:46:16,10:54:27,NA,incomplete,false,NA,true,6,9,NA,NA,NA,right,absent,NA,NA,m_s_051.jpg,orange,n_l_049.jpg,orange,within,NA,NaN,NA,right,3486.10000000149,1,1,1375.3999999985099
yf6ohy8O,3o4vwc1gfzjxgki2d88xs18tr9fj3v,3d8you6s9ix7e3e8zbfbvqpgkypu6b,yf6ohy8O,2020-0188,2021-10-14,09:46:16,10:54:27,NA,incomplete,false,NA,true,6,10,NA,NA,NA,right,absent,NA,NA,m_s_072.jpg,gray,m_l_001.jpg,orange,between,NA,NaN,NA,left,4093,0,1,1141.8000000044703
yf6ohy8O,3o4vwc1gfzjxgki2d88xs18tr9fj3v,3d8you6s9ix7e3e8zbfbvqpgkypu6b,yf6ohy8O,2020-0188,2021-10-14,09:46:16,10:54:27,NA,incomplete,false,true,NA,7,0,NA,yellow,m_l_026.jpg,NA,NA,pleasant,unpleasant,NA,NA,NA,NA,NA,left,2845.70000000298,true,NA,NA,NA,NA,NA
yf6ohy8O,3o4vwc1gfzjxgki2d88xs18tr9fj3v,3d8you6s9ix7e3e8zbfbvqpgkypu6b,yf6ohy8O,2020-0188,2021-10-14,09:46:16,10:54:27,NA,incomplete,false,true,NA,7,1,NA,yellow,m_l_030.jpg,NA,NA,unpleasant,pleasant,NA,NA,NA,NA,NA,left,2109,true,NA,NA,NA,NA,NA
yf6ohy8O,3o4vwc1gfzjxgki2d88xs18tr9fj3v,3d8you6s9ix7e3e8zbfbvqpgkypu6b,yf6ohy8O,2020-0188,2021-10-14,09:46:16,10:54:27,NA,incomplete,false,true,NA,7,2,NA,yellow,m_l_022.jpg,NA,NA,unpleasant,pleasant,NA,NA,NA,NA,NA,right,1350.20000000298,true,NA,NA,NA,NA,NA
yf6ohy8O,3o4vwc1gfzjxgki2d88xs18tr9fj3v,3d8you6s9ix7e3e8zbfbvqpgkypu6b,yf6ohy8O,2020-0188,2021-10-14,09:46:16,10:54:27,NA,incomplete,false,true,NA,7,3,NA,yellow,n_s_027.jpg,NA,NA,pleasant,unpleasant,NA,NA,NA,NA,NA,right,1563.89999999851,true,NA,NA,NA,NA,NA
yf6ohy8O,3o4vwc1gfzjxgki2d88xs18tr9fj3v,3d8you6s9ix7e3e8zbfbvqpgkypu6b,yf6ohy8O,2020-0188,2021-10-14,09:46:16,10:54:27,NA,incomplete,false,true,NA,7,4,NA,yellow,n_l_006.jpg,NA,NA,pleasant,unpleasant,NA,NA,NA,NA,NA,left,1056.10000000149,true,NA,NA,NA,NA,NA
yf6ohy8O,3o4vwc1gfzjxgki2d88xs18tr9fj3v,3d8you6s9ix7e3e8zbfbvqpgkypu6b,yf6ohy8O,2020-0188,2021-10-14,09:46:16,10:54:27,NA,incomplete,false,true,NA,7,5,NA,yellow,n_l_009.jpg,NA,NA,pleasant,unpleasant,NA,NA,NA,NA,NA,left,1419,true,NA,NA,NA,NA,NA
yf6ohy8O,3o4vwc1gfzjxgki2d88xs18tr9fj3v,3d8you6s9ix7e3e8zbfbvqpgkypu6b,yf6ohy8O,2020-0188,2021-10-14,09:46:16,10:54:27,NA,incomplete,false,true,NA,7,6,NA,black,n_s_106.jpg,NA,NA,unpleasant,pleasant,NA,NA,NA,NA,NA,right,2049,true,NA,NA,NA,NA,NA
yf6ohy8O,3o4vwc1gfzjxgki2d88xs18tr9fj3v,3d8you6s9ix7e3e8zbfbvqpgkypu6b,yf6ohy8O,2020-0188,2021-10-14,09:46:16,10:54:27,NA,incomplete,false,true,NA,7,7,NA,black,m_s_018.jpg,NA,NA,unpleasant,pleasant,NA,NA,NA,NA,NA,right,1485.20000000298,true,NA,NA,NA,NA,NA
yf6ohy8O,3o4vwc1gfzjxgki2d88xs18tr9fj3v,3d8you6s9ix7e3e8zbfbvqpgkypu6b,yf6ohy8O,2020-0188,2021-10-14,09:46:16,10:54:27,NA,incomplete,false,true,NA,7,8,NA,black,m_s_101.jpg,NA,NA,unpleasant,pleasant,NA,NA,NA,NA,NA,right,1856.89999999851,true,NA,NA,NA,NA,NA
yf6ohy8O,3o4vwc1gfzjxgki2d88xs18tr9fj3v,3d8you6s9ix7e3e8zbfbvqpgkypu6b,yf6ohy8O,2020-0188,2021-10-14,09:46:16,10:54:27,NA,incomplete,false,true,NA,7,9,NA,black,n_s_096.jpg,NA,NA,pleasant,unpleasant,NA,NA,NA,NA,NA,left,1248,true,NA,NA,NA,NA,NA
yf6ohy8O,3o4vwc1gfzjxgki2d88xs18tr9fj3v,3d8you6s9ix7e3e8zbfbvqpgkypu6b,yf6ohy8O,2020-0188,2021-10-14,09:46:16,10:54:27,NA,incomplete,false,true,NA,7,10,NA,black,m_s_111.jpg,NA,NA,unpleasant,pleasant,NA,NA,NA,NA,NA,right,1393.69999999553,true,NA,NA,NA,NA,NA
yf6ohy8O,3o4vwc1gfzjxgki2d88xs18tr9fj3v,3d8you6s9ix7e3e8zbfbvqpgkypu6b,yf6ohy8O,2020-0188,2021-10-14,09:46:16,10:54:27,NA,incomplete,false,true,NA,7,11,NA,black,n_l_061.jpg,NA,NA,pleasant,unpleasant,NA,NA,NA,NA,NA,right,1955.10000000149,true,NA,NA,NA,NA,NA
yf6ohy8O,3o4vwc1gfzjxgki2d88xs18tr9fj3v,3d8you6s9ix7e3e8zbfbvqpgkypu6b,yf6ohy8O,2020-0188,2021-10-14,09:46:16,10:54:27,NA,incomplete,false,true,NA,7,12,NA,white,m_s_006.jpg,NA,NA,unpleasant,pleasant,NA,NA,NA,NA,NA,right,1679,true,NA,NA,NA,NA,NA
yf6ohy8O,3o4vwc1gfzjxgki2d88xs18tr9fj3v,3d8you6s9ix7e3e8zbfbvqpgkypu6b,yf6ohy8O,2020-0188,2021-10-14,09:46:16,10:54:27,NA,incomplete,false,true,NA,7,13,NA,white,n_s_099.jpg,NA,NA,unpleasant,pleasant,NA,NA,NA,NA,NA,right,1774.30000000447,true,NA,NA,NA,NA,NA
yf6ohy8O,3o4vwc1gfzjxgki2d88xs18tr9fj3v,3d8you6s9ix7e3e8zbfbvqpgkypu6b,yf6ohy8O,2020-0188,2021-10-14,09:46:16,10:54:27,NA,incomplete,false,true,NA,7,14,NA,white,m_l_003.jpg,NA,NA,pleasant,unpleasant,NA,NA,NA,NA,NA,left,1848.80000000447,true,NA,NA,NA,NA,NA
yf6ohy8O,3o4vwc1gfzjxgki2d88xs18tr9fj3v,3d8you6s9ix7e3e8zbfbvqpgkypu6b,yf6ohy8O,2020-0188,2021-10-14,09:46:16,10:54:27,NA,incomplete,false,true,NA,7,15,NA,white,n_l_099.jpg,NA,NA,pleasant,unpleasant,NA,NA,NA,NA,NA,right,1657.60000000149,true,NA,NA,NA,NA,NA
yf6ohy8O,3o4vwc1gfzjxgki2d88xs18tr9fj3v,3d8you6s9ix7e3e8zbfbvqpgkypu6b,yf6ohy8O,2020-0188,2021-10-14,09:46:16,10:54:27,NA,incomplete,false,true,NA,7,16,NA,white,n_s_046.jpg,NA,NA,unpleasant,pleasant,NA,NA,NA,NA,NA,left,1439.5,true,NA,NA,NA,NA,NA
yf6ohy8O,3o4vwc1gfzjxgki2d88xs18tr9fj3v,3d8you6s9ix7e3e8zbfbvqpgkypu6b,yf6ohy8O,2020-0188,2021-10-14,09:46:16,10:54:27,NA,incomplete,false,true,NA,7,17,NA,white,m_l_094.jpg,NA,NA,unpleasant,pleasant,NA,NA,NA,NA,NA,left,1949.89999999851,true,NA,NA,NA,NA,NA
yf6ohy8O,3o4vwc1gfzjxgki2d88xs18tr9fj3v,3d8you6s9ix7e3e8zbfbvqpgkypu6b,yf6ohy8O,2020-0188,2021-10-14,09:46:16,10:54:27,NA,incomplete,false,true,NA,7,18,NA,blue,m_s_002.jpg,NA,NA,unpleasant,pleasant,NA,NA,NA,NA,NA,right,2155.79999999702,true,NA,NA,NA,NA,NA
yf6ohy8O,3o4vwc1gfzjxgki2d88xs18tr9fj3v,3d8you6s9ix7e3e8zbfbvqpgkypu6b,yf6ohy8O,2020-0188,2021-10-14,09:46:16,10:54:27,NA,incomplete,false,true,NA,7,19,NA,blue,n_l_010.jpg,NA,NA,pleasant,unpleasant,NA,NA,NA,NA,NA,left,1357.5,true,NA,NA,NA,NA,NA
yf6ohy8O,3o4vwc1gfzjxgki2d88xs18tr9fj3v,3d8you6s9ix7e3e8zbfbvqpgkypu6b,yf6ohy8O,2020-0188,2021-10-14,09:46:16,10:54:27,NA,incomplete,false,true,NA,7,20,NA,blue,m_l_054.jpg,NA,NA,pleasant,unpleasant,NA,NA,NA,NA,NA,right,1934.89999999851,true,NA,NA,NA,NA,NA
yf6ohy8O,3o4vwc1gfzjxgki2d88xs18tr9fj3v,3d8you6s9ix7e3e8zbfbvqpgkypu6b,yf6ohy8O,2020-0188,2021-10-14,09:46:16,10:54:27,NA,incomplete,false,true,NA,7,21,NA,blue,n_l_083.jpg,NA,NA,unpleasant,pleasant,NA,NA,NA,NA,NA,right,1933.10000000149,true,NA,NA,NA,NA,NA
yf6ohy8O,3o4vwc1gfzjxgki2d88xs18tr9fj3v,3d8you6s9ix7e3e8zbfbvqpgkypu6b,yf6ohy8O,2020-0188,2021-10-14,09:46:16,10:54:27,NA,incomplete,false,true,NA,7,22,NA,blue,n_s_092.jpg,NA,NA,unpleasant,pleasant,NA,NA,NA,NA,NA,right,1568.39999999851,true,NA,NA,NA,NA,NA
yf6ohy8O,3o4vwc1gfzjxgki2d88xs18tr9fj3v,3d8you6s9ix7e3e8zbfbvqpgkypu6b,yf6ohy8O,2020-0188,2021-10-14,09:46:16,10:54:27,NA,incomplete,false,true,NA,7,23,NA,blue,m_s_106.jpg,NA,NA,pleasant,unpleasant,NA,NA,NA,NA,NA,left,1508.70000000298,true,NA,NA,NA,NA,NA
yf6ohy8O,3o4vwc1gfzjxgki2d88xs18tr9fj3v,3d8you6s9ix7e3e8zbfbvqpgkypu6b,yf6ohy8O,2020-0188,2021-10-14,09:46:16,10:54:27,NA,incomplete,false,true,NA,7,24,NA,red,m_l_025.jpg,NA,NA,unpleasant,pleasant,NA,NA,NA,NA,NA,left,1718.89999999851,true,NA,NA,NA,NA,NA
yf6ohy8O,3o4vwc1gfzjxgki2d88xs18tr9fj3v,3d8you6s9ix7e3e8zbfbvqpgkypu6b,yf6ohy8O,2020-0188,2021-10-14,09:46:16,10:54:27,NA,incomplete,false,true,NA,7,25,NA,red,n_l_047.jpg,NA,NA,unpleasant,pleasant,NA,NA,NA,NA,NA,right,1570.59999999404,true,NA,NA,NA,NA,NA
yf6ohy8O,3o4vwc1gfzjxgki2d88xs18tr9fj3v,3d8you6s9ix7e3e8zbfbvqpgkypu6b,yf6ohy8O,2020-0188,2021-10-14,09:46:16,10:54:27,NA,incomplete,false,true,NA,7,26,NA,red,m_l_036.jpg,NA,NA,pleasant,unpleasant,NA,NA,NA,NA,NA,right,1802.60000000149,true,NA,NA,NA,NA,NA
yf6ohy8O,3o4vwc1gfzjxgki2d88xs18tr9fj3v,3d8you6s9ix7e3e8zbfbvqpgkypu6b,yf6ohy8O,2020-0188,2021-10-14,09:46:16,10:54:27,NA,incomplete,false,true,NA,7,27,NA,red,n_s_040.jpg,NA,NA,pleasant,unpleasant,NA,NA,NA,NA,NA,right,1768.89999999851,true,NA,NA,NA,NA,NA
yf6ohy8O,3o4vwc1gfzjxgki2d88xs18tr9fj3v,3d8you6s9ix7e3e8zbfbvqpgkypu6b,yf6ohy8O,2020-0188,2021-10-14,09:46:16,10:54:27,NA,incomplete,false,true,NA,7,28,NA,red,m_s_052.jpg,NA,NA,unpleasant,pleasant,NA,NA,NA,NA,NA,right,1486.5,true,NA,NA,NA,NA,NA
yf6ohy8O,3o4vwc1gfzjxgki2d88xs18tr9fj3v,3d8you6s9ix7e3e8zbfbvqpgkypu6b,yf6ohy8O,2020-0188,2021-10-14,09:46:16,10:54:27,NA,incomplete,false,true,NA,7,29,NA,red,m_l_085.jpg,NA,NA,pleasant,unpleasant,NA,NA,NA,NA,NA,left,1827.39999999851,true,NA,NA,NA,NA,NA
yf6ohy8O,3o4vwc1gfzjxgki2d88xs18tr9fj3v,3d8you6s9ix7e3e8zbfbvqpgkypu6b,yf6ohy8O,2020-0188,2021-10-14,09:46:16,10:54:27,NA,incomplete,false,true,NA,7,30,NA,green,m_l_110.jpg,NA,NA,pleasant,unpleasant,NA,NA,NA,NA,NA,left,1457.60000000149,true,NA,NA,NA,NA,NA
yf6ohy8O,3o4vwc1gfzjxgki2d88xs18tr9fj3v,3d8you6s9ix7e3e8zbfbvqpgkypu6b,yf6ohy8O,2020-0188,2021-10-14,09:46:16,10:54:27,NA,incomplete,false,true,NA,7,31,NA,green,n_s_098.jpg,NA,NA,unpleasant,pleasant,NA,NA,NA,NA,NA,left,2156.39999999851,true,NA,NA,NA,NA,NA
yf6ohy8O,3o4vwc1gfzjxgki2d88xs18tr9fj3v,3d8you6s9ix7e3e8zbfbvqpgkypu6b,yf6ohy8O,2020-0188,2021-10-14,09:46:16,10:54:27,NA,incomplete,false,true,NA,7,32,NA,green,n_s_039.jpg,NA,NA,unpleasant,pleasant,NA,NA,NA,NA,NA,right,1339.89999999851,true,NA,NA,NA,NA,NA
yf6ohy8O,3o4vwc1gfzjxgki2d88xs18tr9fj3v,3d8you6s9ix7e3e8zbfbvqpgkypu6b,yf6ohy8O,2020-0188,2021-10-14,09:46:16,10:54:27,NA,incomplete,false,true,NA,7,33,NA,green,n_s_029.jpg,NA,NA,pleasant,unpleasant,NA,NA,NA,NA,NA,right,2270,true,NA,NA,NA,NA,NA
yf6ohy8O,3o4vwc1gfzjxgki2d88xs18tr9fj3v,3d8you6s9ix7e3e8zbfbvqpgkypu6b,yf6ohy8O,2020-0188,2021-10-14,09:46:16,10:54:27,NA,incomplete,false,true,NA,7,34,NA,green,m_l_059.jpg,NA,NA,unpleasant,pleasant,NA,NA,NA,NA,NA,left,1479.30000000447,true,NA,NA,NA,NA,NA
yf6ohy8O,3o4vwc1gfzjxgki2d88xs18tr9fj3v,3d8you6s9ix7e3e8zbfbvqpgkypu6b,yf6ohy8O,2020-0188,2021-10-14,09:46:16,10:54:27,NA,incomplete,false,true,NA,7,35,NA,green,n_l_014.jpg,NA,NA,pleasant,unpleasant,NA,NA,NA,NA,NA,left,1281.09999999404,true,NA,NA,NA,NA,NA
yf6ohy8O,3o4vwc1gfzjxgki2d88xs18tr9fj3v,3d8you6s9ix7e3e8zbfbvqpgkypu6b,yf6ohy8O,2020-0188,2021-10-14,09:46:16,10:54:27,NA,incomplete,false,NA,true,7,0,NA,NA,NA,left,present,NA,NA,n_s_099.jpg,white,m_l_094.jpg,white,within,NA,NaN,NA,left,5563.10000000149,1,1,1633.3000000044703
yf6ohy8O,3o4vwc1gfzjxgki2d88xs18tr9fj3v,3d8you6s9ix7e3e8zbfbvqpgkypu6b,yf6ohy8O,2020-0188,2021-10-14,09:46:16,10:54:27,NA,incomplete,false,NA,true,7,1,NA,NA,NA,left,present,NA,NA,m_s_052.jpg,red,n_s_039.jpg,green,between,NA,NaN,NA,left,4096.10000000149,1,2,1687.1000000014901
yf6ohy8O,3o4vwc1gfzjxgki2d88xs18tr9fj3v,3d8you6s9ix7e3e8zbfbvqpgkypu6b,yf6ohy8O,2020-0188,2021-10-14,09:46:16,10:54:27,NA,incomplete,false,NA,true,7,2,NA,NA,NA,right,present,NA,NA,m_s_101.jpg,black,n_l_006.jpg,yellow,between,NA,NaN,NA,left,4894.29999999702,0,2,1508.9000000059605
yf6ohy8O,3o4vwc1gfzjxgki2d88xs18tr9fj3v,3d8you6s9ix7e3e8zbfbvqpgkypu6b,yf6ohy8O,2020-0188,2021-10-14,09:46:16,10:54:27,NA,incomplete,false,NA,true,7,3,NA,NA,NA,left,present,NA,NA,n_l_047.jpg,red,m_l_085.jpg,red,within,NA,NaN,NA,left,5214.30000000447,1,1,1284.2999999970198
yf6ohy8O,3o4vwc1gfzjxgki2d88xs18tr9fj3v,3d8you6s9ix7e3e8zbfbvqpgkypu6b,yf6ohy8O,2020-0188,2021-10-14,09:46:16,10:54:27,NA,incomplete,false,NA,true,7,4,NA,NA,NA,right,present,NA,NA,n_l_014.jpg,green,n_s_098.jpg,green,within,NA,NaN,NA,left,3309.60000000149,0,1,1445.2999999970198
yf6ohy8O,3o4vwc1gfzjxgki2d88xs18tr9fj3v,3d8you6s9ix7e3e8zbfbvqpgkypu6b,yf6ohy8O,2020-0188,2021-10-14,09:46:16,10:54:27,NA,incomplete,false,NA,true,7,5,NA,NA,NA,right,present,NA,NA,m_l_003.jpg,white,m_s_111.jpg,black,between,NA,NaN,NA,right,3477.10000000149,1,2,1355.6000000014901
yf6ohy8O,3o4vwc1gfzjxgki2d88xs18tr9fj3v,3d8you6s9ix7e3e8zbfbvqpgkypu6b,yf6ohy8O,2020-0188,2021-10-14,09:46:16,10:54:27,NA,incomplete,false,NA,true,7,6,NA,NA,NA,left,present,NA,NA,m_s_018.jpg,black,n_l_061.jpg,black,within,NA,NaN,NA,left,4219.70000000298,1,1,1604.8000000044703
yf6ohy8O,3o4vwc1gfzjxgki2d88xs18tr9fj3v,3d8you6s9ix7e3e8zbfbvqpgkypu6b,yf6ohy8O,2020-0188,2021-10-14,09:46:16,10:54:27,NA,incomplete,false,NA,true,7,7,NA,NA,NA,right,present,NA,NA,m_l_054.jpg,blue,n_s_046.jpg,white,between,NA,NaN,NA,right,3221.60000000149,1,2,1737.1000000014901
yf6ohy8O,3o4vwc1gfzjxgki2d88xs18tr9fj3v,3d8you6s9ix7e3e8zbfbvqpgkypu6b,yf6ohy8O,2020-0188,2021-10-14,09:46:16,10:54:27,NA,incomplete,false,NA,true,7,8,NA,NA,NA,left,present,NA,NA,n_s_092.jpg,blue,m_l_036.jpg,red,between,NA,NaN,NA,left,6199.10000000149,1,2,1620.2999999970198
yf6ohy8O,3o4vwc1gfzjxgki2d88xs18tr9fj3v,3d8you6s9ix7e3e8zbfbvqpgkypu6b,yf6ohy8O,2020-0188,2021-10-14,09:46:16,10:54:27,NA,incomplete,false,NA,true,7,9,NA,NA,NA,left,present,NA,NA,n_l_010.jpg,blue,m_s_106.jpg,blue,within,NA,NaN,NA,left,2414.39999999851,1,1,1333.6000000014901
yf6ohy8O,3o4vwc1gfzjxgki2d88xs18tr9fj3v,3d8you6s9ix7e3e8zbfbvqpgkypu6b,yf6ohy8O,2020-0188,2021-10-14,09:46:16,10:54:27,NA,incomplete,false,NA,true,7,10,NA,NA,NA,right,present,NA,NA,n_l_009.jpg,yellow,m_l_030.jpg,yellow,within,NA,NaN,NA,right,5021.79999999702,1,0,1396
yf6ohy8O,3o4vwc1gfzjxgki2d88xs18tr9fj3v,3d8you6s9ix7e3e8zbfbvqpgkypu6b,yf6ohy8O,2020-0188,2021-10-14,09:46:16,10:54:27,NA,incomplete,false,true,NA,8,0,NA,orange,m_l_096.jpg,NA,NA,pleasant,unpleasant,NA,NA,NA,NA,NA,left,2581.5,true,NA,NA,NA,NA,NA
yf6ohy8O,3o4vwc1gfzjxgki2d88xs18tr9fj3v,3d8you6s9ix7e3e8zbfbvqpgkypu6b,yf6ohy8O,2020-0188,2021-10-14,09:46:16,10:54:27,NA,incomplete,false,true,NA,8,1,NA,orange,n_l_114.jpg,NA,NA,pleasant,unpleasant,NA,NA,NA,NA,NA,right,2131.60000000149,true,NA,NA,NA,NA,NA
yf6ohy8O,3o4vwc1gfzjxgki2d88xs18tr9fj3v,3d8you6s9ix7e3e8zbfbvqpgkypu6b,yf6ohy8O,2020-0188,2021-10-14,09:46:16,10:54:27,NA,incomplete,false,true,NA,8,2,NA,orange,m_s_007.jpg,NA,NA,unpleasant,pleasant,NA,NA,NA,NA,NA,right,1774.79999999702,true,NA,NA,NA,NA,NA
yf6ohy8O,3o4vwc1gfzjxgki2d88xs18tr9fj3v,3d8you6s9ix7e3e8zbfbvqpgkypu6b,yf6ohy8O,2020-0188,2021-10-14,09:46:16,10:54:27,NA,incomplete,false,true,NA,8,3,NA,orange,n_s_093.jpg,NA,NA,pleasant,unpleasant,NA,NA,NA,NA,NA,right,1706.60000000149,true,NA,NA,NA,NA,NA
yf6ohy8O,3o4vwc1gfzjxgki2d88xs18tr9fj3v,3d8you6s9ix7e3e8zbfbvqpgkypu6b,yf6ohy8O,2020-0188,2021-10-14,09:46:16,10:54:27,NA,incomplete,false,true,NA,8,4,NA,orange,m_l_020.jpg,NA,NA,pleasant,unpleasant,NA,NA,NA,NA,NA,left,1470.10000000149,true,NA,NA,NA,NA,NA
yf6ohy8O,3o4vwc1gfzjxgki2d88xs18tr9fj3v,3d8you6s9ix7e3e8zbfbvqpgkypu6b,yf6ohy8O,2020-0188,2021-10-14,09:46:16,10:54:27,NA,incomplete,false,true,NA,8,5,NA,orange,n_l_080.jpg,NA,NA,unpleasant,pleasant,NA,NA,NA,NA,NA,right,1207.89999999851,true,NA,NA,NA,NA,NA
yf6ohy8O,3o4vwc1gfzjxgki2d88xs18tr9fj3v,3d8you6s9ix7e3e8zbfbvqpgkypu6b,yf6ohy8O,2020-0188,2021-10-14,09:46:16,10:54:27,NA,incomplete,false,true,NA,8,6,NA,gray,m_l_006.jpg,NA,NA,unpleasant,pleasant,NA,NA,NA,NA,NA,right,2011.60000000149,true,NA,NA,NA,NA,NA
yf6ohy8O,3o4vwc1gfzjxgki2d88xs18tr9fj3v,3d8you6s9ix7e3e8zbfbvqpgkypu6b,yf6ohy8O,2020-0188,2021-10-14,09:46:16,10:54:27,NA,incomplete,false,true,NA,8,7,NA,gray,m_l_114.jpg,NA,NA,unpleasant,pleasant,NA,NA,NA,NA,NA,right,1242.5,true,NA,NA,NA,NA,NA
yf6ohy8O,3o4vwc1gfzjxgki2d88xs18tr9fj3v,3d8you6s9ix7e3e8zbfbvqpgkypu6b,yf6ohy8O,2020-0188,2021-10-14,09:46:16,10:54:27,NA,incomplete,false,true,NA,8,8,NA,gray,m_l_103.jpg,NA,NA,unpleasant,pleasant,NA,NA,NA,NA,NA,right,1408.39999999851,true,NA,NA,NA,NA,NA
