workerId,hitId,assignmentId,subject,studyid,exp_date,exp_start,exp_end,time_start,time_end,practice,encoding,memory,block,trial,event_order,event,stim,answer,context_type,label_left,label_right,left_image,left_event,right_image,right_event,condition,response,response_time,response_acc,order_response,order_response_time,order_acc,distance_response,distance_response_time
yjgKw5he,322zsn9z6jxccjxbpgrk4cn83gtt4w,3cp1to84pxe2bn5sb8v0x1go5hm25m,yjgKw5he,2020-0188,2021-10-15,10:00:28,11:20:30,NA,incomplete,true,true,NA,0,0,NA,yellow,m_s_026.jpg,NA,NA,pleasant,unpleasant,NA,NA,NA,NA,NA,left,1521.29999998212,true,NA,NA,NA,NA,NA
yjgKw5he,322zsn9z6jxccjxbpgrk4cn83gtt4w,3cp1to84pxe2bn5sb8v0x1go5hm25m,yjgKw5he,2020-0188,2021-10-15,10:00:28,11:20:30,NA,incomplete,true,true,NA,0,1,NA,yellow,n_s_039.jpg,NA,NA,pleasant,unpleasant,NA,NA,NA,NA,NA,left,1282.40000000596,true,NA,NA,NA,NA,NA
yjgKw5he,322zsn9z6jxccjxbpgrk4cn83gtt4w,3cp1to84pxe2bn5sb8v0x1go5hm25m,yjgKw5he,2020-0188,2021-10-15,10:00:28,11:20:30,NA,incomplete,true,true,NA,0,2,NA,yellow,m_s_047.jpg,NA,NA,pleasant,unpleasant,NA,NA,NA,NA,NA,right,1298.09999999404,true,NA,NA,NA,NA,NA
yjgKw5he,322zsn9z6jxccjxbpgrk4cn83gtt4w,3cp1to84pxe2bn5sb8v0x1go5hm25m,yjgKw5he,2020-0188,2021-10-15,10:00:28,11:20:30,NA,incomplete,true,true,NA,0,3,NA,yellow,n_l_014.jpg,NA,NA,unpleasant,pleasant,NA,NA,NA,NA,NA,right,1485.60000002384,true,NA,NA,NA,NA,NA
yjgKw5he,322zsn9z6jxccjxbpgrk4cn83gtt4w,3cp1to84pxe2bn5sb8v0x1go5hm25m,yjgKw5he,2020-0188,2021-10-15,10:00:28,11:20:30,NA,incomplete,true,true,NA,0,4,NA,yellow,n_s_091.jpg,NA,NA,pleasant,unpleasant,NA,NA,NA,NA,NA,left,1435.69999998808,true,NA,NA,NA,NA,NA
yjgKw5he,322zsn9z6jxccjxbpgrk4cn83gtt4w,3cp1to84pxe2bn5sb8v0x1go5hm25m,yjgKw5he,2020-0188,2021-10-15,10:00:28,11:20:30,NA,incomplete,true,true,NA,0,5,NA,yellow,m_s_015.jpg,NA,NA,pleasant,unpleasant,NA,NA,NA,NA,NA,right,1451.40000000596,true,NA,NA,NA,NA,NA
yjgKw5he,322zsn9z6jxccjxbpgrk4cn83gtt4w,3cp1to84pxe2bn5sb8v0x1go5hm25m,yjgKw5he,2020-0188,2021-10-15,10:00:28,11:20:30,NA,incomplete,true,true,NA,0,6,NA,brown,m_s_038.jpg,NA,NA,pleasant,unpleasant,NA,NA,NA,NA,NA,left,1338.29999998212,true,NA,NA,NA,NA,NA
yjgKw5he,322zsn9z6jxccjxbpgrk4cn83gtt4w,3cp1to84pxe2bn5sb8v0x1go5hm25m,yjgKw5he,2020-0188,2021-10-15,10:00:28,11:20:30,NA,incomplete,true,true,NA,0,7,NA,brown,m_s_053.jpg,NA,NA,unpleasant,pleasant,NA,NA,NA,NA,NA,left,1542.09999999404,true,NA,NA,NA,NA,NA
yjgKw5he,322zsn9z6jxccjxbpgrk4cn83gtt4w,3cp1to84pxe2bn5sb8v0x1go5hm25m,yjgKw5he,2020-0188,2021-10-15,10:00:28,11:20:30,NA,incomplete,true,true,NA,0,8,NA,brown,m_s_065.jpg,NA,NA,unpleasant,pleasant,NA,NA,NA,NA,NA,left,1590.29999998212,true,NA,NA,NA,NA,NA
yjgKw5he,322zsn9z6jxccjxbpgrk4cn83gtt4w,3cp1to84pxe2bn5sb8v0x1go5hm25m,yjgKw5he,2020-0188,2021-10-15,10:00:28,11:20:30,NA,incomplete,true,true,NA,0,9,NA,brown,n_l_105.jpg,NA,NA,pleasant,unpleasant,NA,NA,NA,NA,NA,left,1345.30000001192,true,NA,NA,NA,NA,NA
yjgKw5he,322zsn9z6jxccjxbpgrk4cn83gtt4w,3cp1to84pxe2bn5sb8v0x1go5hm25m,yjgKw5he,2020-0188,2021-10-15,10:00:28,11:20:30,NA,incomplete,true,true,NA,0,10,NA,brown,n_l_001.jpg,NA,NA,unpleasant,pleasant,NA,NA,NA,NA,NA,left,1406.80000001192,true,NA,NA,NA,NA,NA
yjgKw5he,322zsn9z6jxccjxbpgrk4cn83gtt4w,3cp1to84pxe2bn5sb8v0x1go5hm25m,yjgKw5he,2020-0188,2021-10-15,10:00:28,11:20:30,NA,incomplete,true,true,NA,0,11,NA,brown,n_s_026.jpg,NA,NA,unpleasant,pleasant,NA,NA,NA,NA,NA,right,1696.30000001192,true,NA,NA,NA,NA,NA
yjgKw5he,322zsn9z6jxccjxbpgrk4cn83gtt4w,3cp1to84pxe2bn5sb8v0x1go5hm25m,yjgKw5he,2020-0188,2021-10-15,10:00:28,11:20:30,NA,incomplete,true,true,NA,0,12,NA,blue,m_s_032.jpg,NA,NA,unpleasant,pleasant,NA,NA,NA,NA,NA,left,1453.90000000596,true,NA,NA,NA,NA,NA
yjgKw5he,322zsn9z6jxccjxbpgrk4cn83gtt4w,3cp1to84pxe2bn5sb8v0x1go5hm25m,yjgKw5he,2020-0188,2021-10-15,10:00:28,11:20:30,NA,incomplete,true,true,NA,0,13,NA,blue,m_s_080.jpg,NA,NA,unpleasant,pleasant,NA,NA,NA,NA,NA,right,1094.39999997616,true,NA,NA,NA,NA,NA
yjgKw5he,322zsn9z6jxccjxbpgrk4cn83gtt4w,3cp1to84pxe2bn5sb8v0x1go5hm25m,yjgKw5he,2020-0188,2021-10-15,10:00:28,11:20:30,NA,incomplete,true,true,NA,0,14,NA,blue,m_s_042.jpg,NA,NA,pleasant,unpleasant,NA,NA,NA,NA,NA,right,1271.29999998212,true,NA,NA,NA,NA,NA
yjgKw5he,322zsn9z6jxccjxbpgrk4cn83gtt4w,3cp1to84pxe2bn5sb8v0x1go5hm25m,yjgKw5he,2020-0188,2021-10-15,10:00:28,11:20:30,NA,incomplete,true,true,NA,0,15,NA,blue,n_l_007.jpg,NA,NA,pleasant,unpleasant,NA,NA,NA,NA,NA,left,1015.90000000596,true,NA,NA,NA,NA,NA
yjgKw5he,322zsn9z6jxccjxbpgrk4cn83gtt4w,3cp1to84pxe2bn5sb8v0x1go5hm25m,yjgKw5he,2020-0188,2021-10-15,10:00:28,11:20:30,NA,incomplete,true,true,NA,0,16,NA,blue,m_s_040.jpg,NA,NA,pleasant,unpleasant,NA,NA,NA,NA,NA,right,1177.20000001788,true,NA,NA,NA,NA,NA
yjgKw5he,322zsn9z6jxccjxbpgrk4cn83gtt4w,3cp1to84pxe2bn5sb8v0x1go5hm25m,yjgKw5he,2020-0188,2021-10-15,10:00:28,11:20:30,NA,incomplete,true,true,NA,0,17,NA,blue,m_l_061.jpg,NA,NA,unpleasant,pleasant,NA,NA,NA,NA,NA,left,1444.39999997616,true,NA,NA,NA,NA,NA
yjgKw5he,322zsn9z6jxccjxbpgrk4cn83gtt4w,3cp1to84pxe2bn5sb8v0x1go5hm25m,yjgKw5he,2020-0188,2021-10-15,10:00:28,11:20:30,NA,incomplete,true,true,NA,0,18,NA,gray,m_s_103.jpg,NA,NA,pleasant,unpleasant,NA,NA,NA,NA,NA,left,1305.90000000596,true,NA,NA,NA,NA,NA
yjgKw5he,322zsn9z6jxccjxbpgrk4cn83gtt4w,3cp1to84pxe2bn5sb8v0x1go5hm25m,yjgKw5he,2020-0188,2021-10-15,10:00:28,11:20:30,NA,incomplete,true,true,NA,0,19,NA,gray,n_l_011.jpg,NA,NA,unpleasant,pleasant,NA,NA,NA,NA,NA,left,1649.80000001192,true,NA,NA,NA,NA,NA
yjgKw5he,322zsn9z6jxccjxbpgrk4cn83gtt4w,3cp1to84pxe2bn5sb8v0x1go5hm25m,yjgKw5he,2020-0188,2021-10-15,10:00:28,11:20:30,NA,incomplete,true,true,NA,0,20,NA,gray,n_l_077.jpg,NA,NA,unpleasant,pleasant,NA,NA,NA,NA,NA,left,1981.40000000596,true,NA,NA,NA,NA,NA
yjgKw5he,322zsn9z6jxccjxbpgrk4cn83gtt4w,3cp1to84pxe2bn5sb8v0x1go5hm25m,yjgKw5he,2020-0188,2021-10-15,10:00:28,11:20:30,NA,incomplete,true,true,NA,0,21,NA,gray,m_s_116.jpg,NA,NA,unpleasant,pleasant,NA,NA,NA,NA,NA,right,1692.80000001192,true,NA,NA,NA,NA,NA
yjgKw5he,322zsn9z6jxccjxbpgrk4cn83gtt4w,3cp1to84pxe2bn5sb8v0x1go5hm25m,yjgKw5he,2020-0188,2021-10-15,10:00:28,11:20:30,NA,incomplete,true,true,NA,0,22,NA,gray,n_s_034.jpg,NA,NA,unpleasant,pleasant,NA,NA,NA,NA,NA,right,921,true,NA,NA,NA,NA,NA
yjgKw5he,322zsn9z6jxccjxbpgrk4cn83gtt4w,3cp1to84pxe2bn5sb8v0x1go5hm25m,yjgKw5he,2020-0188,2021-10-15,10:00:28,11:20:30,NA,incomplete,true,true,NA,0,23,NA,gray,n_l_054.jpg,NA,NA,unpleasant,pleasant,NA,NA,NA,NA,NA,right,1142.29999998212,true,NA,NA,NA,NA,NA
yjgKw5he,322zsn9z6jxccjxbpgrk4cn83gtt4w,3cp1to84pxe2bn5sb8v0x1go5hm25m,yjgKw5he,2020-0188,2021-10-15,10:00:28,11:20:30,NA,incomplete,true,true,NA,0,24,NA,white,m_s_021.jpg,NA,NA,unpleasant,pleasant,NA,NA,NA,NA,NA,left,1057.09999999404,true,NA,NA,NA,NA,NA
yjgKw5he,322zsn9z6jxccjxbpgrk4cn83gtt4w,3cp1to84pxe2bn5sb8v0x1go5hm25m,yjgKw5he,2020-0188,2021-10-15,10:00:28,11:20:30,NA,incomplete,true,true,NA,0,25,NA,white,n_l_117.jpg,NA,NA,unpleasant,pleasant,NA,NA,NA,NA,NA,left,1063.10000002384,true,NA,NA,NA,NA,NA
yjgKw5he,322zsn9z6jxccjxbpgrk4cn83gtt4w,3cp1to84pxe2bn5sb8v0x1go5hm25m,yjgKw5he,2020-0188,2021-10-15,10:00:28,11:20:30,NA,incomplete,true,true,NA,0,26,NA,white,m_l_109.jpg,NA,NA,unpleasant,pleasant,NA,NA,NA,NA,NA,right,1340.10000002384,true,NA,NA,NA,NA,NA
yjgKw5he,322zsn9z6jxccjxbpgrk4cn83gtt4w,3cp1to84pxe2bn5sb8v0x1go5hm25m,yjgKw5he,2020-0188,2021-10-15,10:00:28,11:20:30,NA,incomplete,true,true,NA,0,27,NA,white,m_s_057.jpg,NA,NA,unpleasant,pleasant,NA,NA,NA,NA,NA,right,1353.20000001788,true,NA,NA,NA,NA,NA
yjgKw5he,322zsn9z6jxccjxbpgrk4cn83gtt4w,3cp1to84pxe2bn5sb8v0x1go5hm25m,yjgKw5he,2020-0188,2021-10-15,10:00:28,11:20:30,NA,incomplete,true,true,NA,0,28,NA,white,n_l_090.jpg,NA,NA,pleasant,unpleasant,NA,NA,NA,NA,NA,right,1953.80000001192,true,NA,NA,NA,NA,NA
yjgKw5he,322zsn9z6jxccjxbpgrk4cn83gtt4w,3cp1to84pxe2bn5sb8v0x1go5hm25m,yjgKw5he,2020-0188,2021-10-15,10:00:28,11:20:30,NA,incomplete,true,true,NA,0,29,NA,white,m_l_080.jpg,NA,NA,pleasant,unpleasant,NA,NA,NA,NA,NA,left,1764.90000000596,true,NA,NA,NA,NA,NA
yjgKw5he,322zsn9z6jxccjxbpgrk4cn83gtt4w,3cp1to84pxe2bn5sb8v0x1go5hm25m,yjgKw5he,2020-0188,2021-10-15,10:00:28,11:20:30,NA,incomplete,true,true,NA,0,30,NA,black,n_s_006.jpg,NA,NA,pleasant,unpleasant,NA,NA,NA,NA,NA,left,1672.09999999404,true,NA,NA,NA,NA,NA
yjgKw5he,322zsn9z6jxccjxbpgrk4cn83gtt4w,3cp1to84pxe2bn5sb8v0x1go5hm25m,yjgKw5he,2020-0188,2021-10-15,10:00:28,11:20:30,NA,incomplete,true,true,NA,0,31,NA,black,n_s_110.jpg,NA,NA,unpleasant,pleasant,NA,NA,NA,NA,NA,left,1820.30000001192,true,NA,NA,NA,NA,NA
yjgKw5he,322zsn9z6jxccjxbpgrk4cn83gtt4w,3cp1to84pxe2bn5sb8v0x1go5hm25m,yjgKw5he,2020-0188,2021-10-15,10:00:28,11:20:30,NA,incomplete,true,true,NA,0,32,NA,black,m_s_092.jpg,NA,NA,unpleasant,pleasant,NA,NA,NA,NA,NA,right,1366.59999999404,true,NA,NA,NA,NA,NA
yjgKw5he,322zsn9z6jxccjxbpgrk4cn83gtt4w,3cp1to84pxe2bn5sb8v0x1go5hm25m,yjgKw5he,2020-0188,2021-10-15,10:00:28,11:20:30,NA,incomplete,true,true,NA,0,33,NA,black,n_l_101.jpg,NA,NA,pleasant,unpleasant,NA,NA,NA,NA,NA,right,1476.40000000596,true,NA,NA,NA,NA,NA
yjgKw5he,322zsn9z6jxccjxbpgrk4cn83gtt4w,3cp1to84pxe2bn5sb8v0x1go5hm25m,yjgKw5he,2020-0188,2021-10-15,10:00:28,11:20:30,NA,incomplete,true,true,NA,0,34,NA,black,n_l_051.jpg,NA,NA,unpleasant,pleasant,NA,NA,NA,NA,NA,right,1074.90000000596,true,NA,NA,NA,NA,NA
yjgKw5he,322zsn9z6jxccjxbpgrk4cn83gtt4w,3cp1to84pxe2bn5sb8v0x1go5hm25m,yjgKw5he,2020-0188,2021-10-15,10:00:28,11:20:30,NA,incomplete,true,true,NA,0,35,NA,black,m_s_089.jpg,NA,NA,pleasant,unpleasant,NA,NA,NA,NA,NA,left,861.59999999404,true,NA,NA,NA,NA,NA
yjgKw5he,322zsn9z6jxccjxbpgrk4cn83gtt4w,3cp1to84pxe2bn5sb8v0x1go5hm25m,yjgKw5he,2020-0188,2021-10-15,10:00:28,11:20:30,NA,incomplete,true,NA,true,0,0,NA,NA,NA,left,absent,NA,NA,m_s_080.jpg,blue,m_l_061.jpg,blue,within,NA,NaN,NA,left,3523,1,2,2802
yjgKw5he,322zsn9z6jxccjxbpgrk4cn83gtt4w,3cp1to84pxe2bn5sb8v0x1go5hm25m,yjgKw5he,2020-0188,2021-10-15,10:00:28,11:20:30,NA,incomplete,true,NA,true,0,1,NA,NA,NA,right,present,NA,NA,m_s_015.jpg,yellow,n_s_039.jpg,yellow,within,NA,NaN,NA,right,5946.300000011921,1,1,1827
yjgKw5he,322zsn9z6jxccjxbpgrk4cn83gtt4w,3cp1to84pxe2bn5sb8v0x1go5hm25m,yjgKw5he,2020-0188,2021-10-15,10:00:28,11:20:30,NA,incomplete,true,NA,true,0,2,NA,NA,NA,right,present,NA,NA,m_s_092.jpg,black,n_l_090.jpg,white,between,NA,NaN,NA,right,3904.699999988079,1,2,1515
yjgKw5he,322zsn9z6jxccjxbpgrk4cn83gtt4w,3cp1to84pxe2bn5sb8v0x1go5hm25m,yjgKw5he,2020-0188,2021-10-15,10:00:28,11:20:30,NA,incomplete,true,NA,true,0,3,NA,NA,NA,left,absent,NA,NA,m_s_053.jpg,brown,n_s_026.jpg,brown,within,NA,NaN,NA,right,3059.7999999821186,0,2,1789.9000000059605
yjgKw5he,322zsn9z6jxccjxbpgrk4cn83gtt4w,3cp1to84pxe2bn5sb8v0x1go5hm25m,yjgKw5he,2020-0188,2021-10-15,10:00:28,11:20:30,NA,incomplete,true,NA,true,0,4,NA,NA,NA,right,absent,NA,NA,m_s_042.jpg,blue,n_l_001.jpg,brown,between,NA,NaN,NA,right,2899.5,1,2,1358.199999988079
yjgKw5he,322zsn9z6jxccjxbpgrk4cn83gtt4w,3cp1to84pxe2bn5sb8v0x1go5hm25m,yjgKw5he,2020-0188,2021-10-15,10:00:28,11:20:30,NA,incomplete,true,NA,true,0,5,NA,NA,NA,right,absent,NA,NA,m_s_065.jpg,brown,n_s_091.jpg,yellow,between,NA,NaN,NA,right,2036.9000000059605,1,2,1165.3999999761581
yjgKw5he,322zsn9z6jxccjxbpgrk4cn83gtt4w,3cp1to84pxe2bn5sb8v0x1go5hm25m,yjgKw5he,2020-0188,2021-10-15,10:00:28,11:20:30,NA,incomplete,true,NA,true,0,6,NA,NA,NA,right,absent,NA,NA,m_s_089.jpg,black,n_s_110.jpg,black,within,NA,NaN,NA,left,3608.5999999940395,0,3,2181.4000000059605
yjgKw5he,322zsn9z6jxccjxbpgrk4cn83gtt4w,3cp1to84pxe2bn5sb8v0x1go5hm25m,yjgKw5he,2020-0188,2021-10-15,10:00:28,11:20:30,NA,incomplete,true,NA,true,0,7,NA,NA,NA,left,absent,NA,NA,n_l_011.jpg,gray,n_l_054.jpg,gray,within,NA,NaN,NA,left,4199.5,1,2,1153.300000011921
yjgKw5he,322zsn9z6jxccjxbpgrk4cn83gtt4w,3cp1to84pxe2bn5sb8v0x1go5hm25m,yjgKw5he,2020-0188,2021-10-15,10:00:28,11:20:30,NA,incomplete,true,NA,true,0,8,NA,NA,NA,right,present,NA,NA,n_l_077.jpg,gray,m_s_040.jpg,blue,between,NA,NaN,NA,left,2930.199999988079,0,2,985.5999999940395
yjgKw5he,322zsn9z6jxccjxbpgrk4cn83gtt4w,3cp1to84pxe2bn5sb8v0x1go5hm25m,yjgKw5he,2020-0188,2021-10-15,10:00:28,11:20:30,NA,incomplete,true,NA,true,0,9,NA,NA,NA,left,present,NA,NA,n_l_117.jpg,white,m_l_080.jpg,white,within,NA,NaN,NA,left,5071.200000017881,1,2,1126.699999988079
yjgKw5he,322zsn9z6jxccjxbpgrk4cn83gtt4w,3cp1to84pxe2bn5sb8v0x1go5hm25m,yjgKw5he,2020-0188,2021-10-15,10:00:28,11:20:30,NA,incomplete,true,NA,true,0,10,NA,NA,NA,left,absent,NA,NA,n_s_034.jpg,gray,m_l_109.jpg,white,between,NA,NaN,NA,right,3103.7000000178814,0,2,1864.5
yjgKw5he,322zsn9z6jxccjxbpgrk4cn83gtt4w,3cp1to84pxe2bn5sb8v0x1go5hm25m,yjgKw5he,2020-0188,2021-10-15,10:00:28,11:20:30,NA,incomplete,false,true,NA,1,0,NA,green,n_l_070.jpg,NA,NA,pleasant,unpleasant,NA,NA,NA,NA,NA,left,2143.29999998212,true,NA,NA,NA,NA,NA
yjgKw5he,322zsn9z6jxccjxbpgrk4cn83gtt4w,3cp1to84pxe2bn5sb8v0x1go5hm25m,yjgKw5he,2020-0188,2021-10-15,10:00:28,11:20:30,NA,incomplete,false,true,NA,1,1,NA,green,n_s_051.jpg,NA,NA,unpleasant,pleasant,NA,NA,NA,NA,NA,right,1310.30000001192,true,NA,NA,NA,NA,NA
yjgKw5he,322zsn9z6jxccjxbpgrk4cn83gtt4w,3cp1to84pxe2bn5sb8v0x1go5hm25m,yjgKw5he,2020-0188,2021-10-15,10:00:28,11:20:30,NA,incomplete,false,true,NA,1,2,NA,green,m_l_022.jpg,NA,NA,unpleasant,pleasant,NA,NA,NA,NA,NA,right,1748.30000001192,true,NA,NA,NA,NA,NA
yjgKw5he,322zsn9z6jxccjxbpgrk4cn83gtt4w,3cp1to84pxe2bn5sb8v0x1go5hm25m,yjgKw5he,2020-0188,2021-10-15,10:00:28,11:20:30,NA,incomplete,false,true,NA,1,3,NA,green,n_s_049.jpg,NA,NA,pleasant,unpleasant,NA,NA,NA,NA,NA,left,1430.09999999404,true,NA,NA,NA,NA,NA
yjgKw5he,322zsn9z6jxccjxbpgrk4cn83gtt4w,3cp1to84pxe2bn5sb8v0x1go5hm25m,yjgKw5he,2020-0188,2021-10-15,10:00:28,11:20:30,NA,incomplete,false,true,NA,1,4,NA,green,n_s_048.jpg,NA,NA,unpleasant,pleasant,NA,NA,NA,NA,NA,right,1268,true,NA,NA,NA,NA,NA
yjgKw5he,322zsn9z6jxccjxbpgrk4cn83gtt4w,3cp1to84pxe2bn5sb8v0x1go5hm25m,yjgKw5he,2020-0188,2021-10-15,10:00:28,11:20:30,NA,incomplete,false,true,NA,1,5,NA,green,m_l_052.jpg,NA,NA,unpleasant,pleasant,NA,NA,NA,NA,NA,right,1521.90000000596,true,NA,NA,NA,NA,NA
yjgKw5he,322zsn9z6jxccjxbpgrk4cn83gtt4w,3cp1to84pxe2bn5sb8v0x1go5hm25m,yjgKw5he,2020-0188,2021-10-15,10:00:28,11:20:30,NA,incomplete,false,true,NA,1,6,NA,red,m_l_046.jpg,NA,NA,pleasant,unpleasant,NA,NA,NA,NA,NA,left,1713.39999997616,true,NA,NA,NA,NA,NA
yjgKw5he,322zsn9z6jxccjxbpgrk4cn83gtt4w,3cp1to84pxe2bn5sb8v0x1go5hm25m,yjgKw5he,2020-0188,2021-10-15,10:00:28,11:20:30,NA,incomplete,false,true,NA,1,7,NA,red,m_l_020.jpg,NA,NA,unpleasant,pleasant,NA,NA,NA,NA,NA,right,1279.59999999404,true,NA,NA,NA,NA,NA
yjgKw5he,322zsn9z6jxccjxbpgrk4cn83gtt4w,3cp1to84pxe2bn5sb8v0x1go5hm25m,yjgKw5he,2020-0188,2021-10-15,10:00:28,11:20:30,NA,incomplete,false,true,NA,1,8,NA,red,m_l_054.jpg,NA,NA,unpleasant,pleasant,NA,NA,NA,NA,NA,right,1296.90000000596,true,NA,NA,NA,NA,NA
yjgKw5he,322zsn9z6jxccjxbpgrk4cn83gtt4w,3cp1to84pxe2bn5sb8v0x1go5hm25m,yjgKw5he,2020-0188,2021-10-15,10:00:28,11:20:30,NA,incomplete,false,true,NA,1,9,NA,red,m_l_092.jpg,NA,NA,unpleasant,pleasant,NA,NA,NA,NA,NA,right,1651.90000000596,true,NA,NA,NA,NA,NA
yjgKw5he,322zsn9z6jxccjxbpgrk4cn83gtt4w,3cp1to84pxe2bn5sb8v0x1go5hm25m,yjgKw5he,2020-0188,2021-10-15,10:00:28,11:20:30,NA,incomplete,false,true,NA,1,10,NA,red,m_l_078.jpg,NA,NA,pleasant,unpleasant,NA,NA,NA,NA,NA,left,1767.30000001192,true,NA,NA,NA,NA,NA
yjgKw5he,322zsn9z6jxccjxbpgrk4cn83gtt4w,3cp1to84pxe2bn5sb8v0x1go5hm25m,yjgKw5he,2020-0188,2021-10-15,10:00:28,11:20:30,NA,incomplete,false,true,NA,1,11,NA,red,n_s_094.jpg,NA,NA,pleasant,unpleasant,NA,NA,NA,NA,NA,left,1557,true,NA,NA,NA,NA,NA
yjgKw5he,322zsn9z6jxccjxbpgrk4cn83gtt4w,3cp1to84pxe2bn5sb8v0x1go5hm25m,yjgKw5he,2020-0188,2021-10-15,10:00:28,11:20:30,NA,incomplete,false,true,NA,1,12,NA,purple,m_s_012.jpg,NA,NA,pleasant,unpleasant,NA,NA,NA,NA,NA,left,1422.80000001192,true,NA,NA,NA,NA,NA
yjgKw5he,322zsn9z6jxccjxbpgrk4cn83gtt4w,3cp1to84pxe2bn5sb8v0x1go5hm25m,yjgKw5he,2020-0188,2021-10-15,10:00:28,11:20:30,NA,incomplete,false,true,NA,1,13,NA,purple,m_s_109.jpg,NA,NA,pleasant,unpleasant,NA,NA,NA,NA,NA,left,1364.59999999404,true,NA,NA,NA,NA,NA
yjgKw5he,322zsn9z6jxccjxbpgrk4cn83gtt4w,3cp1to84pxe2bn5sb8v0x1go5hm25m,yjgKw5he,2020-0188,2021-10-15,10:00:28,11:20:30,NA,incomplete,false,true,NA,1,14,NA,purple,n_s_100.jpg,NA,NA,unpleasant,pleasant,NA,NA,NA,NA,NA,right,1155,true,NA,NA,NA,NA,NA
yjgKw5he,322zsn9z6jxccjxbpgrk4cn83gtt4w,3cp1to84pxe2bn5sb8v0x1go5hm25m,yjgKw5he,2020-0188,2021-10-15,10:00:28,11:20:30,NA,incomplete,false,true,NA,1,15,NA,purple,n_l_032.jpg,NA,NA,pleasant,unpleasant,NA,NA,NA,NA,NA,right,1375.90000000596,true,NA,NA,NA,NA,NA
yjgKw5he,322zsn9z6jxccjxbpgrk4cn83gtt4w,3cp1to84pxe2bn5sb8v0x1go5hm25m,yjgKw5he,2020-0188,2021-10-15,10:00:28,11:20:30,NA,incomplete,false,true,NA,1,16,NA,purple,m_l_069.jpg,NA,NA,pleasant,unpleasant,NA,NA,NA,NA,NA,left,1096.60000002384,true,NA,NA,NA,NA,NA
yjgKw5he,322zsn9z6jxccjxbpgrk4cn83gtt4w,3cp1to84pxe2bn5sb8v0x1go5hm25m,yjgKw5he,2020-0188,2021-10-15,10:00:28,11:20:30,NA,incomplete,false,true,NA,1,17,NA,purple,m_l_032.jpg,NA,NA,pleasant,unpleasant,NA,NA,NA,NA,NA,left,1123.90000000596,true,NA,NA,NA,NA,NA
yjgKw5he,322zsn9z6jxccjxbpgrk4cn83gtt4w,3cp1to84pxe2bn5sb8v0x1go5hm25m,yjgKw5he,2020-0188,2021-10-15,10:00:28,11:20:30,NA,incomplete,false,true,NA,1,18,NA,yellow,m_s_070.jpg,NA,NA,unpleasant,pleasant,NA,NA,NA,NA,NA,right,1891.80000001192,true,NA,NA,NA,NA,NA
yjgKw5he,322zsn9z6jxccjxbpgrk4cn83gtt4w,3cp1to84pxe2bn5sb8v0x1go5hm25m,yjgKw5he,2020-0188,2021-10-15,10:00:28,11:20:30,NA,incomplete,false,true,NA,1,19,NA,yellow,m_l_028.jpg,NA,NA,pleasant,unpleasant,NA,NA,NA,NA,NA,right,1360,true,NA,NA,NA,NA,NA
yjgKw5he,322zsn9z6jxccjxbpgrk4cn83gtt4w,3cp1to84pxe2bn5sb8v0x1go5hm25m,yjgKw5he,2020-0188,2021-10-15,10:00:28,11:20:30,NA,incomplete,false,true,NA,1,20,NA,yellow,m_l_035.jpg,NA,NA,pleasant,unpleasant,NA,NA,NA,NA,NA,left,1374.60000002384,true,NA,NA,NA,NA,NA
yjgKw5he,322zsn9z6jxccjxbpgrk4cn83gtt4w,3cp1to84pxe2bn5sb8v0x1go5hm25m,yjgKw5he,2020-0188,2021-10-15,10:00:28,11:20:30,NA,incomplete,false,true,NA,1,21,NA,yellow,n_l_078.jpg,NA,NA,pleasant,unpleasant,NA,NA,NA,NA,NA,left,1199.70000001788,true,NA,NA,NA,NA,NA
yjgKw5he,322zsn9z6jxccjxbpgrk4cn83gtt4w,3cp1to84pxe2bn5sb8v0x1go5hm25m,yjgKw5he,2020-0188,2021-10-15,10:00:28,11:20:30,NA,incomplete,false,true,NA,1,22,NA,yellow,m_l_015.jpg,NA,NA,pleasant,unpleasant,NA,NA,NA,NA,NA,left,1370.69999998808,true,NA,NA,NA,NA,NA
yjgKw5he,322zsn9z6jxccjxbpgrk4cn83gtt4w,3cp1to84pxe2bn5sb8v0x1go5hm25m,yjgKw5he,2020-0188,2021-10-15,10:00:28,11:20:30,NA,incomplete,false,true,NA,1,23,NA,yellow,n_l_059.jpg,NA,NA,pleasant,unpleasant,NA,NA,NA,NA,NA,left,1181.30000001192,true,NA,NA,NA,NA,NA
yjgKw5he,322zsn9z6jxccjxbpgrk4cn83gtt4w,3cp1to84pxe2bn5sb8v0x1go5hm25m,yjgKw5he,2020-0188,2021-10-15,10:00:28,11:20:30,NA,incomplete,false,true,NA,1,24,NA,brown,n_l_023.jpg,NA,NA,pleasant,unpleasant,NA,NA,NA,NA,NA,left,1631.20000001788,true,NA,NA,NA,NA,NA
yjgKw5he,322zsn9z6jxccjxbpgrk4cn83gtt4w,3cp1to84pxe2bn5sb8v0x1go5hm25m,yjgKw5he,2020-0188,2021-10-15,10:00:28,11:20:30,NA,incomplete,false,true,NA,1,25,NA,brown,m_s_020.jpg,NA,NA,unpleasant,pleasant,NA,NA,NA,NA,NA,right,1464,true,NA,NA,NA,NA,NA
yjgKw5he,322zsn9z6jxccjxbpgrk4cn83gtt4w,3cp1to84pxe2bn5sb8v0x1go5hm25m,yjgKw5he,2020-0188,2021-10-15,10:00:28,11:20:30,NA,incomplete,false,true,NA,1,26,NA,brown,n_l_096.jpg,NA,NA,unpleasant,pleasant,NA,NA,NA,NA,NA,right,1274.59999999404,true,NA,NA,NA,NA,NA
yjgKw5he,322zsn9z6jxccjxbpgrk4cn83gtt4w,3cp1to84pxe2bn5sb8v0x1go5hm25m,yjgKw5he,2020-0188,2021-10-15,10:00:28,11:20:30,NA,incomplete,false,true,NA,1,27,NA,brown,n_l_065.jpg,NA,NA,pleasant,unpleasant,NA,NA,NA,NA,NA,left,1423.59999999404,true,NA,NA,NA,NA,NA
yjgKw5he,322zsn9z6jxccjxbpgrk4cn83gtt4w,3cp1to84pxe2bn5sb8v0x1go5hm25m,yjgKw5he,2020-0188,2021-10-15,10:00:28,11:20:30,NA,incomplete,false,true,NA,1,28,NA,brown,m_l_063.jpg,NA,NA,unpleasant,pleasant,NA,NA,NA,NA,NA,left,1888.90000000596,true,NA,NA,NA,NA,NA
yjgKw5he,322zsn9z6jxccjxbpgrk4cn83gtt4w,3cp1to84pxe2bn5sb8v0x1go5hm25m,yjgKw5he,2020-0188,2021-10-15,10:00:28,11:20:30,NA,incomplete,false,true,NA,1,29,NA,brown,m_l_089.jpg,NA,NA,pleasant,unpleasant,NA,NA,NA,NA,NA,left,1368,true,NA,NA,NA,NA,NA
yjgKw5he,322zsn9z6jxccjxbpgrk4cn83gtt4w,3cp1to84pxe2bn5sb8v0x1go5hm25m,yjgKw5he,2020-0188,2021-10-15,10:00:28,11:20:30,NA,incomplete,false,true,NA,1,30,NA,gray,m_l_074.jpg,NA,NA,unpleasant,pleasant,NA,NA,NA,NA,NA,right,1940.89999997616,true,NA,NA,NA,NA,NA
yjgKw5he,322zsn9z6jxccjxbpgrk4cn83gtt4w,3cp1to84pxe2bn5sb8v0x1go5hm25m,yjgKw5he,2020-0188,2021-10-15,10:00:28,11:20:30,NA,incomplete,false,true,NA,1,31,NA,gray,m_l_056.jpg,NA,NA,pleasant,unpleasant,NA,NA,NA,NA,NA,left,1672.19999998808,true,NA,NA,NA,NA,NA
yjgKw5he,322zsn9z6jxccjxbpgrk4cn83gtt4w,3cp1to84pxe2bn5sb8v0x1go5hm25m,yjgKw5he,2020-0188,2021-10-15,10:00:28,11:20:30,NA,incomplete,false,true,NA,1,32,NA,gray,m_l_037.jpg,NA,NA,pleasant,unpleasant,NA,NA,NA,NA,NA,left,1081.5,true,NA,NA,NA,NA,NA
yjgKw5he,322zsn9z6jxccjxbpgrk4cn83gtt4w,3cp1to84pxe2bn5sb8v0x1go5hm25m,yjgKw5he,2020-0188,2021-10-15,10:00:28,11:20:30,NA,incomplete,false,true,NA,1,33,NA,gray,m_l_103.jpg,NA,NA,pleasant,unpleasant,NA,NA,NA,NA,NA,left,1217.69999998808,true,NA,NA,NA,NA,NA
yjgKw5he,322zsn9z6jxccjxbpgrk4cn83gtt4w,3cp1to84pxe2bn5sb8v0x1go5hm25m,yjgKw5he,2020-0188,2021-10-15,10:00:28,11:20:30,NA,incomplete,false,true,NA,1,34,NA,gray,n_l_066.jpg,NA,NA,unpleasant,pleasant,NA,NA,NA,NA,NA,right,1597.09999999404,true,NA,NA,NA,NA,NA
yjgKw5he,322zsn9z6jxccjxbpgrk4cn83gtt4w,3cp1to84pxe2bn5sb8v0x1go5hm25m,yjgKw5he,2020-0188,2021-10-15,10:00:28,11:20:30,NA,incomplete,false,true,NA,1,35,NA,gray,n_l_050.jpg,NA,NA,unpleasant,pleasant,NA,NA,NA,NA,NA,right,1153.5,true,NA,NA,NA,NA,NA
yjgKw5he,322zsn9z6jxccjxbpgrk4cn83gtt4w,3cp1to84pxe2bn5sb8v0x1go5hm25m,yjgKw5he,2020-0188,2021-10-15,10:00:28,11:20:30,NA,incomplete,false,NA,true,1,0,NA,NA,NA,right,present,NA,NA,m_l_037.jpg,gray,m_l_063.jpg,brown,between,NA,NaN,NA,left,5938.5999999940395,0,2,1880.3999999761581
yjgKw5he,322zsn9z6jxccjxbpgrk4cn83gtt4w,3cp1to84pxe2bn5sb8v0x1go5hm25m,yjgKw5he,2020-0188,2021-10-15,10:00:28,11:20:30,NA,incomplete,false,NA,true,1,1,NA,NA,NA,left,present,NA,NA,m_l_078.jpg,red,n_s_100.jpg,purple,between,NA,NaN,NA,right,5830.299999982119,0,1,2390.4000000059605
yjgKw5he,322zsn9z6jxccjxbpgrk4cn83gtt4w,3cp1to84pxe2bn5sb8v0x1go5hm25m,yjgKw5he,2020-0188,2021-10-15,10:00:28,11:20:30,NA,incomplete,false,NA,true,1,2,NA,NA,NA,right,present,NA,NA,n_l_059.jpg,yellow,m_l_028.jpg,yellow,within,NA,NaN,NA,right,3936.300000011921,1,3,1584.2999999821186
yjgKw5he,322zsn9z6jxccjxbpgrk4cn83gtt4w,3cp1to84pxe2bn5sb8v0x1go5hm25m,yjgKw5he,2020-0188,2021-10-15,10:00:28,11:20:30,NA,incomplete,false,NA,true,1,3,NA,NA,NA,right,present,NA,NA,n_s_094.jpg,red,m_l_020.jpg,red,within,NA,NaN,NA,right,1652.4000000059605,1,2,1130.5
yjgKw5he,322zsn9z6jxccjxbpgrk4cn83gtt4w,3cp1to84pxe2bn5sb8v0x1go5hm25m,yjgKw5he,2020-0188,2021-10-15,10:00:28,11:20:30,NA,incomplete,false,NA,true,1,4,NA,NA,NA,right,present,NA,NA,n_l_096.jpg,brown,m_l_015.jpg,yellow,between,NA,NaN,NA,right,2923.100000023842,1,2,1067.699999988079
yjgKw5he,322zsn9z6jxccjxbpgrk4cn83gtt4w,3cp1to84pxe2bn5sb8v0x1go5hm25m,yjgKw5he,2020-0188,2021-10-15,10:00:28,11:20:30,NA,incomplete,false,NA,true,1,5,NA,NA,NA,right,present,NA,NA,m_l_052.jpg,green,n_s_051.jpg,green,within,NA,NaN,NA,right,1513.4000000059605,1,1,1994.2000000178814
yjgKw5he,322zsn9z6jxccjxbpgrk4cn83gtt4w,3cp1to84pxe2bn5sb8v0x1go5hm25m,yjgKw5he,2020-0188,2021-10-15,10:00:28,11:20:30,NA,incomplete,false,NA,true,1,6,NA,NA,NA,left,present,NA,NA,n_s_048.jpg,green,m_l_054.jpg,red,between,NA,NaN,NA,left,2277,1,1,1619.0999999940395
yjgKw5he,322zsn9z6jxccjxbpgrk4cn83gtt4w,3cp1to84pxe2bn5sb8v0x1go5hm25m,yjgKw5he,2020-0188,2021-10-15,10:00:28,11:20:30,NA,incomplete,false,NA,true,1,7,NA,NA,NA,left,present,NA,NA,m_s_020.jpg,brown,m_l_089.jpg,brown,within,NA,NaN,NA,right,2624.199999988079,0,2,1430.0999999940395
yjgKw5he,322zsn9z6jxccjxbpgrk4cn83gtt4w,3cp1to84pxe2bn5sb8v0x1go5hm25m,yjgKw5he,2020-0188,2021-10-15,10:00:28,11:20:30,NA,incomplete,false,NA,true,1,8,NA,NA,NA,left,present,NA,NA,m_s_109.jpg,purple,m_l_032.jpg,purple,within,NA,NaN,NA,left,3412.199999988079,1,1,1009.5999999940395
yjgKw5he,322zsn9z6jxccjxbpgrk4cn83gtt4w,3cp1to84pxe2bn5sb8v0x1go5hm25m,yjgKw5he,2020-0188,2021-10-15,10:00:28,11:20:30,NA,incomplete,false,NA,true,1,9,NA,NA,NA,right,present,NA,NA,n_l_050.jpg,gray,m_l_056.jpg,gray,within,NA,NaN,NA,right,2776.300000011921,1,1,1130.300000011921
yjgKw5he,322zsn9z6jxccjxbpgrk4cn83gtt4w,3cp1to84pxe2bn5sb8v0x1go5hm25m,yjgKw5he,2020-0188,2021-10-15,10:00:28,11:20:30,NA,incomplete,false,NA,true,1,10,NA,NA,NA,right,present,NA,NA,m_l_035.jpg,yellow,m_l_069.jpg,purple,between,NA,NaN,NA,right,2024.800000011921,1,1,1930.0999999940395
yjgKw5he,322zsn9z6jxccjxbpgrk4cn83gtt4w,3cp1to84pxe2bn5sb8v0x1go5hm25m,yjgKw5he,2020-0188,2021-10-15,10:00:28,11:20:30,NA,incomplete,false,true,NA,2,0,NA,yellow,m_l_033.jpg,NA,NA,pleasant,unpleasant,NA,NA,NA,NA,NA,right,2763.10000002384,true,NA,NA,NA,NA,NA
yjgKw5he,322zsn9z6jxccjxbpgrk4cn83gtt4w,3cp1to84pxe2bn5sb8v0x1go5hm25m,yjgKw5he,2020-0188,2021-10-15,10:00:28,11:20:30,NA,incomplete,false,true,NA,2,1,NA,yellow,n_s_070.jpg,NA,NA,unpleasant,pleasant,NA,NA,NA,NA,NA,right,1903.69999998808,true,NA,NA,NA,NA,NA
yjgKw5he,322zsn9z6jxccjxbpgrk4cn83gtt4w,3cp1to84pxe2bn5sb8v0x1go5hm25m,yjgKw5he,2020-0188,2021-10-15,10:00:28,11:20:30,NA,incomplete,false,true,NA,2,2,NA,yellow,m_s_095.jpg,NA,NA,unpleasant,pleasant,NA,NA,NA,NA,NA,right,2278.19999998808,true,NA,NA,NA,NA,NA
yjgKw5he,322zsn9z6jxccjxbpgrk4cn83gtt4w,3cp1to84pxe2bn5sb8v0x1go5hm25m,yjgKw5he,2020-0188,2021-10-15,10:00:28,11:20:30,NA,incomplete,false,true,NA,2,3,NA,yellow,m_l_087.jpg,NA,NA,unpleasant,pleasant,NA,NA,NA,NA,NA,right,1327.79999998212,true,NA,NA,NA,NA,NA
yjgKw5he,322zsn9z6jxccjxbpgrk4cn83gtt4w,3cp1to84pxe2bn5sb8v0x1go5hm25m,yjgKw5he,2020-0188,2021-10-15,10:00:28,11:20:30,NA,incomplete,false,true,NA,2,4,NA,yellow,n_s_066.jpg,NA,NA,pleasant,unpleasant,NA,NA,NA,NA,NA,left,1167.59999999404,true,NA,NA,NA,NA,NA
yjgKw5he,322zsn9z6jxccjxbpgrk4cn83gtt4w,3cp1to84pxe2bn5sb8v0x1go5hm25m,yjgKw5he,2020-0188,2021-10-15,10:00:28,11:20:30,NA,incomplete,false,true,NA,2,5,NA,yellow,n_l_015.jpg,NA,NA,unpleasant,pleasant,NA,NA,NA,NA,NA,right,998.40000000596,true,NA,NA,NA,NA,NA
yjgKw5he,322zsn9z6jxccjxbpgrk4cn83gtt4w,3cp1to84pxe2bn5sb8v0x1go5hm25m,yjgKw5he,2020-0188,2021-10-15,10:00:28,11:20:30,NA,incomplete,false,true,NA,2,6,NA,green,n_l_062.jpg,NA,NA,unpleasant,pleasant,NA,NA,NA,NA,NA,right,1223.20000001788,true,NA,NA,NA,NA,NA
yjgKw5he,322zsn9z6jxccjxbpgrk4cn83gtt4w,3cp1to84pxe2bn5sb8v0x1go5hm25m,yjgKw5he,2020-0188,2021-10-15,10:00:28,11:20:30,NA,incomplete,false,true,NA,2,7,NA,green,n_l_016.jpg,NA,NA,pleasant,unpleasant,NA,NA,NA,NA,NA,left,1358.39999997616,true,NA,NA,NA,NA,NA
yjgKw5he,322zsn9z6jxccjxbpgrk4cn83gtt4w,3cp1to84pxe2bn5sb8v0x1go5hm25m,yjgKw5he,2020-0188,2021-10-15,10:00:28,11:20:30,NA,incomplete,false,true,NA,2,8,NA,green,n_s_056.jpg,NA,NA,unpleasant,pleasant,NA,NA,NA,NA,NA,right,1098.30000001192,true,NA,NA,NA,NA,NA
yjgKw5he,322zsn9z6jxccjxbpgrk4cn83gtt4w,3cp1to84pxe2bn5sb8v0x1go5hm25m,yjgKw5he,2020-0188,2021-10-15,10:00:28,11:20:30,NA,incomplete,false,true,NA,2,9,NA,green,m_s_009.jpg,NA,NA,pleasant,unpleasant,NA,NA,NA,NA,NA,right,1923.30000001192,true,NA,NA,NA,NA,NA
yjgKw5he,322zsn9z6jxccjxbpgrk4cn83gtt4w,3cp1to84pxe2bn5sb8v0x1go5hm25m,yjgKw5he,2020-0188,2021-10-15,10:00:28,11:20:30,NA,incomplete,false,true,NA,2,10,NA,green,n_s_106.jpg,NA,NA,pleasant,unpleasant,NA,NA,NA,NA,NA,left,1069.39999997616,true,NA,NA,NA,NA,NA
yjgKw5he,322zsn9z6jxccjxbpgrk4cn83gtt4w,3cp1to84pxe2bn5sb8v0x1go5hm25m,yjgKw5he,2020-0188,2021-10-15,10:00:28,11:20:30,NA,incomplete,false,true,NA,2,11,NA,green,m_s_112.jpg,NA,NA,unpleasant,pleasant,NA,NA,NA,NA,NA,right,1203.59999999404,true,NA,NA,NA,NA,NA
yjgKw5he,322zsn9z6jxccjxbpgrk4cn83gtt4w,3cp1to84pxe2bn5sb8v0x1go5hm25m,yjgKw5he,2020-0188,2021-10-15,10:00:28,11:20:30,NA,incomplete,false,true,NA,2,12,NA,purple,n_s_058.jpg,NA,NA,unpleasant,pleasant,NA,NA,NA,NA,NA,left,1935.90000000596,true,NA,NA,NA,NA,NA
yjgKw5he,322zsn9z6jxccjxbpgrk4cn83gtt4w,3cp1to84pxe2bn5sb8v0x1go5hm25m,yjgKw5he,2020-0188,2021-10-15,10:00:28,11:20:30,NA,incomplete,false,true,NA,2,13,NA,purple,n_l_031.jpg,NA,NA,pleasant,unpleasant,NA,NA,NA,NA,NA,left,872.300000011921,true,NA,NA,NA,NA,NA
yjgKw5he,322zsn9z6jxccjxbpgrk4cn83gtt4w,3cp1to84pxe2bn5sb8v0x1go5hm25m,yjgKw5he,2020-0188,2021-10-15,10:00:28,11:20:30,NA,incomplete,false,true,NA,2,14,NA,purple,n_s_027.jpg,NA,NA,unpleasant,pleasant,NA,NA,NA,NA,NA,right,907.799999982119,true,NA,NA,NA,NA,NA
yjgKw5he,322zsn9z6jxccjxbpgrk4cn83gtt4w,3cp1to84pxe2bn5sb8v0x1go5hm25m,yjgKw5he,2020-0188,2021-10-15,10:00:28,11:20:30,NA,incomplete,false,true,NA,2,15,NA,purple,m_s_084.jpg,NA,NA,unpleasant,pleasant,NA,NA,NA,NA,NA,right,828.5,true,NA,NA,NA,NA,NA
yjgKw5he,322zsn9z6jxccjxbpgrk4cn83gtt4w,3cp1to84pxe2bn5sb8v0x1go5hm25m,yjgKw5he,2020-0188,2021-10-15,10:00:28,11:20:30,NA,incomplete,false,true,NA,2,16,NA,purple,m_l_116.jpg,NA,NA,unpleasant,pleasant,NA,NA,NA,NA,NA,right,897.800000011921,true,NA,NA,NA,NA,NA
yjgKw5he,322zsn9z6jxccjxbpgrk4cn83gtt4w,3cp1to84pxe2bn5sb8v0x1go5hm25m,yjgKw5he,2020-0188,2021-10-15,10:00:28,11:20:30,NA,incomplete,false,true,NA,2,17,NA,purple,m_s_072.jpg,NA,NA,pleasant,unpleasant,NA,NA,NA,NA,NA,left,1189.79999998212,true,NA,NA,NA,NA,NA
yjgKw5he,322zsn9z6jxccjxbpgrk4cn83gtt4w,3cp1to84pxe2bn5sb8v0x1go5hm25m,yjgKw5he,2020-0188,2021-10-15,10:00:28,11:20:30,NA,incomplete,false,true,NA,2,18,NA,black,m_l_075.jpg,NA,NA,pleasant,unpleasant,NA,NA,NA,NA,NA,left,1028.70000001788,true,NA,NA,NA,NA,NA
yjgKw5he,322zsn9z6jxccjxbpgrk4cn83gtt4w,3cp1to84pxe2bn5sb8v0x1go5hm25m,yjgKw5he,2020-0188,2021-10-15,10:00:28,11:20:30,NA,incomplete,false,true,NA,2,19,NA,black,n_s_065.jpg,NA,NA,unpleasant,pleasant,NA,NA,NA,NA,NA,left,1499.79999998212,true,NA,NA,NA,NA,NA
yjgKw5he,322zsn9z6jxccjxbpgrk4cn83gtt4w,3cp1to84pxe2bn5sb8v0x1go5hm25m,yjgKw5he,2020-0188,2021-10-15,10:00:28,11:20:30,NA,incomplete,false,true,NA,2,20,NA,black,n_l_081.jpg,NA,NA,unpleasant,pleasant,NA,NA,NA,NA,NA,right,966.90000000596,true,NA,NA,NA,NA,NA
yjgKw5he,322zsn9z6jxccjxbpgrk4cn83gtt4w,3cp1to84pxe2bn5sb8v0x1go5hm25m,yjgKw5he,2020-0188,2021-10-15,10:00:28,11:20:30,NA,incomplete,false,true,NA,2,21,NA,black,m_l_042.jpg,NA,NA,unpleasant,pleasant,NA,NA,NA,NA,NA,right,1153.90000000596,true,NA,NA,NA,NA,NA
yjgKw5he,322zsn9z6jxccjxbpgrk4cn83gtt4w,3cp1to84pxe2bn5sb8v0x1go5hm25m,yjgKw5he,2020-0188,2021-10-15,10:00:28,11:20:30,NA,incomplete,false,true,NA,2,22,NA,black,m_l_072.jpg,NA,NA,pleasant,unpleasant,NA,NA,NA,NA,NA,left,1326.5,true,NA,NA,NA,NA,NA
yjgKw5he,322zsn9z6jxccjxbpgrk4cn83gtt4w,3cp1to84pxe2bn5sb8v0x1go5hm25m,yjgKw5he,2020-0188,2021-10-15,10:00:28,11:20:30,NA,incomplete,false,true,NA,2,23,NA,black,n_s_047.jpg,NA,NA,unpleasant,pleasant,NA,NA,NA,NA,NA,right,1706.59999999404,true,NA,NA,NA,NA,NA
yjgKw5he,322zsn9z6jxccjxbpgrk4cn83gtt4w,3cp1to84pxe2bn5sb8v0x1go5hm25m,yjgKw5he,2020-0188,2021-10-15,10:00:28,11:20:30,NA,incomplete,false,true,NA,2,24,NA,brown,n_s_041.jpg,NA,NA,pleasant,unpleasant,NA,NA,NA,NA,NA,left,943.699999988079,true,NA,NA,NA,NA,NA
yjgKw5he,322zsn9z6jxccjxbpgrk4cn83gtt4w,3cp1to84pxe2bn5sb8v0x1go5hm25m,yjgKw5he,2020-0188,2021-10-15,10:00:28,11:20:30,NA,incomplete,false,true,NA,2,25,NA,brown,n_l_079.jpg,NA,NA,unpleasant,pleasant,NA,NA,NA,NA,NA,right,1398.80000001192,true,NA,NA,NA,NA,NA
yjgKw5he,322zsn9z6jxccjxbpgrk4cn83gtt4w,3cp1to84pxe2bn5sb8v0x1go5hm25m,yjgKw5he,2020-0188,2021-10-15,10:00:28,11:20:30,NA,incomplete,false,true,NA,2,26,NA,brown,m_s_064.jpg,NA,NA,unpleasant,pleasant,NA,NA,NA,NA,NA,left,1220.09999999404,true,NA,NA,NA,NA,NA
yjgKw5he,322zsn9z6jxccjxbpgrk4cn83gtt4w,3cp1to84pxe2bn5sb8v0x1go5hm25m,yjgKw5he,2020-0188,2021-10-15,10:00:28,11:20:30,NA,incomplete,false,true,NA,2,27,NA,brown,m_s_091.jpg,NA,NA,unpleasant,pleasant,NA,NA,NA,NA,NA,right,930.800000011921,true,NA,NA,NA,NA,NA
yjgKw5he,322zsn9z6jxccjxbpgrk4cn83gtt4w,3cp1to84pxe2bn5sb8v0x1go5hm25m,yjgKw5he,2020-0188,2021-10-15,10:00:28,11:20:30,NA,incomplete,false,true,NA,2,28,NA,brown,m_s_087.jpg,NA,NA,pleasant,unpleasant,NA,NA,NA,NA,NA,right,1775,true,NA,NA,NA,NA,NA
yjgKw5he,322zsn9z6jxccjxbpgrk4cn83gtt4w,3cp1to84pxe2bn5sb8v0x1go5hm25m,yjgKw5he,2020-0188,2021-10-15,10:00:28,11:20:30,NA,incomplete,false,true,NA,2,29,NA,brown,n_s_062.jpg,NA,NA,pleasant,unpleasant,NA,NA,NA,NA,NA,left,723,true,NA,NA,NA,NA,NA
yjgKw5he,322zsn9z6jxccjxbpgrk4cn83gtt4w,3cp1to84pxe2bn5sb8v0x1go5hm25m,yjgKw5he,2020-0188,2021-10-15,10:00:28,11:20:30,NA,incomplete,false,true,NA,2,30,NA,orange,m_s_077.jpg,NA,NA,unpleasant,pleasant,NA,NA,NA,NA,NA,right,1610.29999998212,true,NA,NA,NA,NA,NA
yjgKw5he,322zsn9z6jxccjxbpgrk4cn83gtt4w,3cp1to84pxe2bn5sb8v0x1go5hm25m,yjgKw5he,2020-0188,2021-10-15,10:00:28,11:20:30,NA,incomplete,false,true,NA,2,31,NA,orange,m_s_030.jpg,NA,NA,unpleasant,pleasant,NA,NA,NA,NA,NA,right,1063,true,NA,NA,NA,NA,NA
yjgKw5he,322zsn9z6jxccjxbpgrk4cn83gtt4w,3cp1to84pxe2bn5sb8v0x1go5hm25m,yjgKw5he,2020-0188,2021-10-15,10:00:28,11:20:30,NA,incomplete,false,true,NA,2,32,NA,orange,n_l_057.jpg,NA,NA,pleasant,unpleasant,NA,NA,NA,NA,NA,left,1114.90000000596,true,NA,NA,NA,NA,NA
yjgKw5he,322zsn9z6jxccjxbpgrk4cn83gtt4w,3cp1to84pxe2bn5sb8v0x1go5hm25m,yjgKw5he,2020-0188,2021-10-15,10:00:28,11:20:30,NA,incomplete,false,true,NA,2,33,NA,orange,m_l_041.jpg,NA,NA,unpleasant,pleasant,NA,NA,NA,NA,NA,left,1066.60000002384,true,NA,NA,NA,NA,NA
yjgKw5he,322zsn9z6jxccjxbpgrk4cn83gtt4w,3cp1to84pxe2bn5sb8v0x1go5hm25m,yjgKw5he,2020-0188,2021-10-15,10:00:28,11:20:30,NA,incomplete,false,true,NA,2,34,NA,orange,m_s_059.jpg,NA,NA,unpleasant,pleasant,NA,NA,NA,NA,NA,left,1940.30000001192,true,NA,NA,NA,NA,NA
yjgKw5he,322zsn9z6jxccjxbpgrk4cn83gtt4w,3cp1to84pxe2bn5sb8v0x1go5hm25m,yjgKw5he,2020-0188,2021-10-15,10:00:28,11:20:30,NA,incomplete,false,true,NA,2,35,NA,orange,m_s_027.jpg,NA,NA,unpleasant,pleasant,NA,NA,NA,NA,NA,right,1171.69999998808,true,NA,NA,NA,NA,NA
yjgKw5he,322zsn9z6jxccjxbpgrk4cn83gtt4w,3cp1to84pxe2bn5sb8v0x1go5hm25m,yjgKw5he,2020-0188,2021-10-15,10:00:28,11:20:30,NA,incomplete,false,NA,true,2,0,NA,NA,NA,left,absent,NA,NA,n_s_065.jpg,black,n_s_047.jpg,black,within,NA,NaN,NA,right,4064.5,0,2,2025.699999988079
yjgKw5he,322zsn9z6jxccjxbpgrk4cn83gtt4w,3cp1to84pxe2bn5sb8v0x1go5hm25m,yjgKw5he,2020-0188,2021-10-15,10:00:28,11:20:30,NA,incomplete,false,NA,true,2,1,NA,NA,NA,left,absent,NA,NA,n_l_016.jpg,green,m_s_112.jpg,green,within,NA,NaN,NA,left,2959.9000000059605,1,2,1673.2999999821186
yjgKw5he,322zsn9z6jxccjxbpgrk4cn83gtt4w,3cp1to84pxe2bn5sb8v0x1go5hm25m,yjgKw5he,2020-0188,2021-10-15,10:00:28,11:20:30,NA,incomplete,false,NA,true,2,2,NA,NA,NA,left,absent,NA,NA,n_l_031.jpg,purple,m_s_072.jpg,purple,within,NA,NaN,NA,right,4201.300000011921,0,2,1598
yjgKw5he,322zsn9z6jxccjxbpgrk4cn83gtt4w,3cp1to84pxe2bn5sb8v0x1go5hm25m,yjgKw5he,2020-0188,2021-10-15,10:00:28,11:20:30,NA,incomplete,false,NA,true,2,3,NA,NA,NA,left,absent,NA,NA,m_l_072.jpg,black,m_s_064.jpg,brown,between,NA,NaN,NA,right,2948,0,2,1027.9000000059605
yjgKw5he,322zsn9z6jxccjxbpgrk4cn83gtt4w,3cp1to84pxe2bn5sb8v0x1go5hm25m,yjgKw5he,2020-0188,2021-10-15,10:00:28,11:20:30,NA,incomplete,false,NA,true,2,4,NA,NA,NA,right,absent,NA,NA,n_l_015.jpg,yellow,n_s_070.jpg,yellow,within,NA,NaN,NA,left,1658.2000000178814,0,2,1679.699999988079
yjgKw5he,322zsn9z6jxccjxbpgrk4cn83gtt4w,3cp1to84pxe2bn5sb8v0x1go5hm25m,yjgKw5he,2020-0188,2021-10-15,10:00:28,11:20:30,NA,incomplete,false,NA,true,2,5,NA,NA,NA,right,absent,NA,NA,n_s_056.jpg,green,n_s_066.jpg,yellow,between,NA,NaN,NA,left,2908.300000011921,0,0,994.0999999940395
yjgKw5he,322zsn9z6jxccjxbpgrk4cn83gtt4w,3cp1to84pxe2bn5sb8v0x1go5hm25m,yjgKw5he,2020-0188,2021-10-15,10:00:28,11:20:30,NA,incomplete,false,NA,true,2,6,NA,NA,NA,left,absent,NA,NA,m_l_116.jpg,purple,n_l_081.jpg,black,between,NA,NaN,NA,left,3348.699999988079,1,2,2013.2000000178814
yjgKw5he,322zsn9z6jxccjxbpgrk4cn83gtt4w,3cp1to84pxe2bn5sb8v0x1go5hm25m,yjgKw5he,2020-0188,2021-10-15,10:00:28,11:20:30,NA,incomplete,false,NA,true,2,7,NA,NA,NA,right,absent,NA,NA,n_l_057.jpg,orange,m_s_087.jpg,brown,between,NA,NaN,NA,right,3011,1,2,2037.800000011921
yjgKw5he,322zsn9z6jxccjxbpgrk4cn83gtt4w,3cp1to84pxe2bn5sb8v0x1go5hm25m,yjgKw5he,2020-0188,2021-10-15,10:00:28,11:20:30,NA,incomplete,false,NA,true,2,8,NA,NA,NA,right,absent,NA,NA,m_s_027.jpg,orange,m_s_030.jpg,orange,within,NA,NaN,NA,right,3476.899999976158,1,2,1576.300000011921
yjgKw5he,322zsn9z6jxccjxbpgrk4cn83gtt4w,3cp1to84pxe2bn5sb8v0x1go5hm25m,yjgKw5he,2020-0188,2021-10-15,10:00:28,11:20:30,NA,incomplete,false,NA,true,2,9,NA,NA,NA,right,absent,NA,NA,n_s_062.jpg,brown,n_l_079.jpg,brown,within,NA,NaN,NA,right,3629.399999976158,1,2,1585.2999999821186
yjgKw5he,322zsn9z6jxccjxbpgrk4cn83gtt4w,3cp1to84pxe2bn5sb8v0x1go5hm25m,yjgKw5he,2020-0188,2021-10-15,10:00:28,11:20:30,NA,incomplete,false,NA,true,2,10,NA,NA,NA,right,absent,NA,NA,n_s_027.jpg,purple,n_s_106.jpg,green,between,NA,NaN,NA,right,3046.800000011921,1,2,1158.8999999761581
yjgKw5he,322zsn9z6jxccjxbpgrk4cn83gtt4w,3cp1to84pxe2bn5sb8v0x1go5hm25m,yjgKw5he,2020-0188,2021-10-15,10:00:28,11:20:30,NA,incomplete,false,true,NA,3,0,NA,red,n_l_006.jpg,NA,NA,pleasant,unpleasant,NA,NA,NA,NA,NA,left,1172.80000001192,true,NA,NA,NA,NA,NA
yjgKw5he,322zsn9z6jxccjxbpgrk4cn83gtt4w,3cp1to84pxe2bn5sb8v0x1go5hm25m,yjgKw5he,2020-0188,2021-10-15,10:00:28,11:20:30,NA,incomplete,false,true,NA,3,1,NA,red,m_l_030.jpg,NA,NA,unpleasant,pleasant,NA,NA,NA,NA,NA,left,1299.80000001192,true,NA,NA,NA,NA,NA
yjgKw5he,322zsn9z6jxccjxbpgrk4cn83gtt4w,3cp1to84pxe2bn5sb8v0x1go5hm25m,yjgKw5he,2020-0188,2021-10-15,10:00:28,11:20:30,NA,incomplete,false,true,NA,3,2,NA,red,m_l_094.jpg,NA,NA,pleasant,unpleasant,NA,NA,NA,NA,NA,right,1654.5,true,NA,NA,NA,NA,NA
yjgKw5he,322zsn9z6jxccjxbpgrk4cn83gtt4w,3cp1to84pxe2bn5sb8v0x1go5hm25m,yjgKw5he,2020-0188,2021-10-15,10:00:28,11:20:30,NA,incomplete,false,true,NA,3,3,NA,red,m_l_044.jpg,NA,NA,unpleasant,pleasant,NA,NA,NA,NA,NA,right,1434.80000001192,true,NA,NA,NA,NA,NA
yjgKw5he,322zsn9z6jxccjxbpgrk4cn83gtt4w,3cp1to84pxe2bn5sb8v0x1go5hm25m,yjgKw5he,2020-0188,2021-10-15,10:00:28,11:20:30,NA,incomplete,false,true,NA,3,4,NA,red,m_l_065.jpg,NA,NA,pleasant,unpleasant,NA,NA,NA,NA,NA,left,1017.59999999404,true,NA,NA,NA,NA,NA
yjgKw5he,322zsn9z6jxccjxbpgrk4cn83gtt4w,3cp1to84pxe2bn5sb8v0x1go5hm25m,yjgKw5he,2020-0188,2021-10-15,10:00:28,11:20:30,NA,incomplete,false,true,NA,3,5,NA,red,n_l_084.jpg,NA,NA,unpleasant,pleasant,NA,NA,NA,NA,NA,right,1650.09999999404,true,NA,NA,NA,NA,NA
yjgKw5he,322zsn9z6jxccjxbpgrk4cn83gtt4w,3cp1to84pxe2bn5sb8v0x1go5hm25m,yjgKw5he,2020-0188,2021-10-15,10:00:28,11:20:30,NA,incomplete,false,true,NA,3,6,NA,orange,n_s_011.jpg,NA,NA,unpleasant,pleasant,NA,NA,NA,NA,NA,right,2199.30000001192,true,NA,NA,NA,NA,NA
yjgKw5he,322zsn9z6jxccjxbpgrk4cn83gtt4w,3cp1to84pxe2bn5sb8v0x1go5hm25m,yjgKw5he,2020-0188,2021-10-15,10:00:28,11:20:30,NA,incomplete,false,true,NA,3,7,NA,orange,n_s_095.jpg,NA,NA,pleasant,unpleasant,NA,NA,NA,NA,NA,left,1282.19999998808,true,NA,NA,NA,NA,NA
yjgKw5he,322zsn9z6jxccjxbpgrk4cn83gtt4w,3cp1to84pxe2bn5sb8v0x1go5hm25m,yjgKw5he,2020-0188,2021-10-15,10:00:28,11:20:30,NA,incomplete,false,true,NA,3,8,NA,orange,n_s_014.jpg,NA,NA,pleasant,unpleasant,NA,NA,NA,NA,NA,left,1064.20000001788,true,NA,NA,NA,NA,NA
yjgKw5he,322zsn9z6jxccjxbpgrk4cn83gtt4w,3cp1to84pxe2bn5sb8v0x1go5hm25m,yjgKw5he,2020-0188,2021-10-15,10:00:28,11:20:30,NA,incomplete,false,true,NA,3,9,NA,orange,n_l_110.jpg,NA,NA,pleasant,unpleasant,NA,NA,NA,NA,NA,left,1135.80000001192,true,NA,NA,NA,NA,NA
yjgKw5he,322zsn9z6jxccjxbpgrk4cn83gtt4w,3cp1to84pxe2bn5sb8v0x1go5hm25m,yjgKw5he,2020-0188,2021-10-15,10:00:28,11:20:30,NA,incomplete,false,true,NA,3,10,NA,orange,n_s_077.jpg,NA,NA,pleasant,unpleasant,NA,NA,NA,NA,NA,left,1204.19999998808,true,NA,NA,NA,NA,NA
yjgKw5he,322zsn9z6jxccjxbpgrk4cn83gtt4w,3cp1to84pxe2bn5sb8v0x1go5hm25m,yjgKw5he,2020-0188,2021-10-15,10:00:28,11:20:30,NA,incomplete,false,true,NA,3,11,NA,orange,m_s_115.jpg,NA,NA,unpleasant,pleasant,NA,NA,NA,NA,NA,right,888.800000011921,true,NA,NA,NA,NA,NA
yjgKw5he,322zsn9z6jxccjxbpgrk4cn83gtt4w,3cp1to84pxe2bn5sb8v0x1go5hm25m,yjgKw5he,2020-0188,2021-10-15,10:00:28,11:20:30,NA,incomplete,false,true,NA,3,12,NA,gray,m_l_082.jpg,NA,NA,unpleasant,pleasant,NA,NA,NA,NA,NA,left,1153.89999997616,true,NA,NA,NA,NA,NA
yjgKw5he,322zsn9z6jxccjxbpgrk4cn83gtt4w,3cp1to84pxe2bn5sb8v0x1go5hm25m,yjgKw5he,2020-0188,2021-10-15,10:00:28,11:20:30,NA,incomplete,false,true,NA,3,13,NA,gray,n_l_005.jpg,NA,NA,pleasant,unpleasant,NA,NA,NA,NA,NA,left,937.59999999404,true,NA,NA,NA,NA,NA
yjgKw5he,322zsn9z6jxccjxbpgrk4cn83gtt4w,3cp1to84pxe2bn5sb8v0x1go5hm25m,yjgKw5he,2020-0188,2021-10-15,10:00:28,11:20:30,NA,incomplete,false,true,NA,3,14,NA,gray,m_l_068.jpg,NA,NA,unpleasant,pleasant,NA,NA,NA,NA,NA,right,1106.09999999404,true,NA,NA,NA,NA,NA
yjgKw5he,322zsn9z6jxccjxbpgrk4cn83gtt4w,3cp1to84pxe2bn5sb8v0x1go5hm25m,yjgKw5he,2020-0188,2021-10-15,10:00:28,11:20:30,NA,incomplete,false,true,NA,3,15,NA,gray,n_l_111.jpg,NA,NA,unpleasant,pleasant,NA,NA,NA,NA,NA,right,1117.19999998808,true,NA,NA,NA,NA,NA
yjgKw5he,322zsn9z6jxccjxbpgrk4cn83gtt4w,3cp1to84pxe2bn5sb8v0x1go5hm25m,yjgKw5he,2020-0188,2021-10-15,10:00:28,11:20:30,NA,incomplete,false,true,NA,3,16,NA,gray,m_s_073.jpg,NA,NA,unpleasant,pleasant,NA,NA,NA,NA,NA,right,1789.30000001192,true,NA,NA,NA,NA,NA
yjgKw5he,322zsn9z6jxccjxbpgrk4cn83gtt4w,3cp1to84pxe2bn5sb8v0x1go5hm25m,yjgKw5he,2020-0188,2021-10-15,10:00:28,11:20:30,NA,incomplete,false,true,NA,3,17,NA,gray,n_s_044.jpg,NA,NA,unpleasant,pleasant,NA,NA,NA,NA,NA,right,1270.5,true,NA,NA,NA,NA,NA
yjgKw5he,322zsn9z6jxccjxbpgrk4cn83gtt4w,3cp1to84pxe2bn5sb8v0x1go5hm25m,yjgKw5he,2020-0188,2021-10-15,10:00:28,11:20:30,NA,incomplete,false,true,NA,3,18,NA,white,n_s_101.jpg,NA,NA,unpleasant,pleasant,NA,NA,NA,NA,NA,right,1065.30000001192,true,NA,NA,NA,NA,NA
yjgKw5he,322zsn9z6jxccjxbpgrk4cn83gtt4w,3cp1to84pxe2bn5sb8v0x1go5hm25m,yjgKw5he,2020-0188,2021-10-15,10:00:28,11:20:30,NA,incomplete,false,true,NA,3,19,NA,white,n_l_041.jpg,NA,NA,unpleasant,pleasant,NA,NA,NA,NA,NA,right,1644.89999997616,true,NA,NA,NA,NA,NA
yjgKw5he,322zsn9z6jxccjxbpgrk4cn83gtt4w,3cp1to84pxe2bn5sb8v0x1go5hm25m,yjgKw5he,2020-0188,2021-10-15,10:00:28,11:20:30,NA,incomplete,false,true,NA,3,20,NA,white,m_l_100.jpg,NA,NA,pleasant,unpleasant,NA,NA,NA,NA,NA,left,1826.30000001192,true,NA,NA,NA,NA,NA
yjgKw5he,322zsn9z6jxccjxbpgrk4cn83gtt4w,3cp1to84pxe2bn5sb8v0x1go5hm25m,yjgKw5he,2020-0188,2021-10-15,10:00:28,11:20:30,NA,incomplete,false,true,NA,3,21,NA,white,m_l_024.jpg,NA,NA,unpleasant,pleasant,NA,NA,NA,NA,NA,right,1712.70000001788,true,NA,NA,NA,NA,NA
yjgKw5he,322zsn9z6jxccjxbpgrk4cn83gtt4w,3cp1to84pxe2bn5sb8v0x1go5hm25m,yjgKw5he,2020-0188,2021-10-15,10:00:28,11:20:30,NA,incomplete,false,true,NA,3,22,NA,white,n_s_018.jpg,NA,NA,unpleasant,pleasant,NA,NA,NA,NA,NA,right,906.600000023842,true,NA,NA,NA,NA,NA
yjgKw5he,322zsn9z6jxccjxbpgrk4cn83gtt4w,3cp1to84pxe2bn5sb8v0x1go5hm25m,yjgKw5he,2020-0188,2021-10-15,10:00:28,11:20:30,NA,incomplete,false,true,NA,3,23,NA,white,m_s_022.jpg,NA,NA,pleasant,unpleasant,NA,NA,NA,NA,NA,left,1366.5,true,NA,NA,NA,NA,NA
yjgKw5he,322zsn9z6jxccjxbpgrk4cn83gtt4w,3cp1to84pxe2bn5sb8v0x1go5hm25m,yjgKw5he,2020-0188,2021-10-15,10:00:28,11:20:30,NA,incomplete,false,true,NA,3,24,NA,black,n_s_059.jpg,NA,NA,pleasant,unpleasant,NA,NA,NA,NA,NA,left,2013.70000001788,true,NA,NA,NA,NA,NA
yjgKw5he,322zsn9z6jxccjxbpgrk4cn83gtt4w,3cp1to84pxe2bn5sb8v0x1go5hm25m,yjgKw5he,2020-0188,2021-10-15,10:00:28,11:20:30,NA,incomplete,false,true,NA,3,25,NA,black,m_s_010.jpg,NA,NA,unpleasant,pleasant,NA,NA,NA,NA,NA,right,831,true,NA,NA,NA,NA,NA
yjgKw5he,322zsn9z6jxccjxbpgrk4cn83gtt4w,3cp1to84pxe2bn5sb8v0x1go5hm25m,yjgKw5he,2020-0188,2021-10-15,10:00:28,11:20:30,NA,incomplete,false,true,NA,3,26,NA,black,n_s_102.jpg,NA,NA,unpleasant,pleasant,NA,NA,NA,NA,NA,right,1096.79999998212,true,NA,NA,NA,NA,NA
yjgKw5he,322zsn9z6jxccjxbpgrk4cn83gtt4w,3cp1to84pxe2bn5sb8v0x1go5hm25m,yjgKw5he,2020-0188,2021-10-15,10:00:28,11:20:30,NA,incomplete,false,true,NA,3,27,NA,black,n_l_053.jpg,NA,NA,pleasant,unpleasant,NA,NA,NA,NA,NA,left,1783.29999998212,true,NA,NA,NA,NA,NA
yjgKw5he,322zsn9z6jxccjxbpgrk4cn83gtt4w,3cp1to84pxe2bn5sb8v0x1go5hm25m,yjgKw5he,2020-0188,2021-10-15,10:00:28,11:20:30,NA,incomplete,false,true,NA,3,28,NA,black,n_s_096.jpg,NA,NA,pleasant,unpleasant,NA,NA,NA,NA,NA,left,1019.29999998212,true,NA,NA,NA,NA,NA
yjgKw5he,322zsn9z6jxccjxbpgrk4cn83gtt4w,3cp1to84pxe2bn5sb8v0x1go5hm25m,yjgKw5he,2020-0188,2021-10-15,10:00:28,11:20:30,NA,incomplete,false,true,NA,3,29,NA,black,m_l_064.jpg,NA,NA,unpleasant,pleasant,NA,NA,NA,NA,NA,right,1117.40000000596,true,NA,NA,NA,NA,NA
yjgKw5he,322zsn9z6jxccjxbpgrk4cn83gtt4w,3cp1to84pxe2bn5sb8v0x1go5hm25m,yjgKw5he,2020-0188,2021-10-15,10:00:28,11:20:30,NA,incomplete,false,true,NA,3,30,NA,green,m_s_002.jpg,NA,NA,pleasant,unpleasant,NA,NA,NA,NA,NA,right,1651.70000001788,true,NA,NA,NA,NA,NA
yjgKw5he,322zsn9z6jxccjxbpgrk4cn83gtt4w,3cp1to84pxe2bn5sb8v0x1go5hm25m,yjgKw5he,2020-0188,2021-10-15,10:00:28,11:20:30,NA,incomplete,false,true,NA,3,31,NA,green,m_s_049.jpg,NA,NA,unpleasant,pleasant,NA,NA,NA,NA,NA,right,837.40000000596,true,NA,NA,NA,NA,NA
yjgKw5he,322zsn9z6jxccjxbpgrk4cn83gtt4w,3cp1to84pxe2bn5sb8v0x1go5hm25m,yjgKw5he,2020-0188,2021-10-15,10:00:28,11:20:30,NA,incomplete,false,true,NA,3,32,NA,green,n_l_093.jpg,NA,NA,unpleasant,pleasant,NA,NA,NA,NA,NA,right,1032.90000000596,true,NA,NA,NA,NA,NA
yjgKw5he,322zsn9z6jxccjxbpgrk4cn83gtt4w,3cp1to84pxe2bn5sb8v0x1go5hm25m,yjgKw5he,2020-0188,2021-10-15,10:00:28,11:20:30,NA,incomplete,false,true,NA,3,33,NA,green,n_l_045.jpg,NA,NA,unpleasant,pleasant,NA,NA,NA,NA,NA,right,1034,true,NA,NA,NA,NA,NA
yjgKw5he,322zsn9z6jxccjxbpgrk4cn83gtt4w,3cp1to84pxe2bn5sb8v0x1go5hm25m,yjgKw5he,2020-0188,2021-10-15,10:00:28,11:20:30,NA,incomplete,false,true,NA,3,34,NA,green,m_l_013.jpg,NA,NA,pleasant,unpleasant,NA,NA,NA,NA,NA,left,784.5,true,NA,NA,NA,NA,NA
yjgKw5he,322zsn9z6jxccjxbpgrk4cn83gtt4w,3cp1to84pxe2bn5sb8v0x1go5hm25m,yjgKw5he,2020-0188,2021-10-15,10:00:28,11:20:30,NA,incomplete,false,true,NA,3,35,NA,green,m_l_043.jpg,NA,NA,unpleasant,pleasant,NA,NA,NA,NA,NA,right,844.5,true,NA,NA,NA,NA,NA
yjgKw5he,322zsn9z6jxccjxbpgrk4cn83gtt4w,3cp1to84pxe2bn5sb8v0x1go5hm25m,yjgKw5he,2020-0188,2021-10-15,10:00:28,11:20:30,NA,incomplete,false,NA,true,3,0,NA,NA,NA,left,absent,NA,NA,n_s_096.jpg,black,n_l_093.jpg,green,between,NA,NaN,NA,left,5008.800000011921,1,2,1302.4000000059605
yjgKw5he,322zsn9z6jxccjxbpgrk4cn83gtt4w,3cp1to84pxe2bn5sb8v0x1go5hm25m,yjgKw5he,2020-0188,2021-10-15,10:00:28,11:20:30,NA,incomplete,false,NA,true,3,1,NA,NA,NA,left,absent,NA,NA,m_s_073.jpg,gray,m_l_100.jpg,white,between,NA,NaN,NA,right,3668,0,2,995.8000000119209
yjgKw5he,322zsn9z6jxccjxbpgrk4cn83gtt4w,3cp1to84pxe2bn5sb8v0x1go5hm25m,yjgKw5he,2020-0188,2021-10-15,10:00:28,11:20:30,NA,incomplete,false,NA,true,3,2,NA,NA,NA,left,absent,NA,NA,m_l_030.jpg,red,n_l_084.jpg,red,within,NA,NaN,NA,left,4745.9000000059605,1,1,2546.5
yjgKw5he,322zsn9z6jxccjxbpgrk4cn83gtt4w,3cp1to84pxe2bn5sb8v0x1go5hm25m,yjgKw5he,2020-0188,2021-10-15,10:00:28,11:20:30,NA,incomplete,false,NA,true,3,3,NA,NA,NA,left,absent,NA,NA,n_s_018.jpg,white,n_s_102.jpg,black,between,NA,NaN,NA,left,2530.300000011921,1,2,1228.300000011921
yjgKw5he,322zsn9z6jxccjxbpgrk4cn83gtt4w,3cp1to84pxe2bn5sb8v0x1go5hm25m,yjgKw5he,2020-0188,2021-10-15,10:00:28,11:20:30,NA,incomplete,false,NA,true,3,4,NA,NA,NA,right,absent,NA,NA,m_l_068.jpg,gray,n_s_077.jpg,orange,between,NA,NaN,NA,right,1636.699999988079,1,2,1082.2000000178814
yjgKw5he,322zsn9z6jxccjxbpgrk4cn83gtt4w,3cp1to84pxe2bn5sb8v0x1go5hm25m,yjgKw5he,2020-0188,2021-10-15,10:00:28,11:20:30,NA,incomplete,false,NA,true,3,5,NA,NA,NA,right,absent,NA,NA,n_s_014.jpg,orange,m_l_065.jpg,red,between,NA,NaN,NA,left,2170.7999999821186,0,1,2453.4000000059605
yjgKw5he,322zsn9z6jxccjxbpgrk4cn83gtt4w,3cp1to84pxe2bn5sb8v0x1go5hm25m,yjgKw5he,2020-0188,2021-10-15,10:00:28,11:20:30,NA,incomplete,false,NA,true,3,6,NA,NA,NA,left,absent,NA,NA,n_s_095.jpg,orange,m_s_115.jpg,orange,within,NA,NaN,NA,left,2006.9000000059605,1,2,850.1000000238419
yjgKw5he,322zsn9z6jxccjxbpgrk4cn83gtt4w,3cp1to84pxe2bn5sb8v0x1go5hm25m,yjgKw5he,2020-0188,2021-10-15,10:00:28,11:20:30,NA,incomplete,false,NA,true,3,7,NA,NA,NA,right,absent,NA,NA,m_l_064.jpg,black,m_s_010.jpg,black,within,NA,NaN,NA,left,3358.4000000059605,0,2,1057.6000000238419
yjgKw5he,322zsn9z6jxccjxbpgrk4cn83gtt4w,3cp1to84pxe2bn5sb8v0x1go5hm25m,yjgKw5he,2020-0188,2021-10-15,10:00:28,11:20:30,NA,incomplete,false,NA,true,3,8,NA,NA,NA,left,absent,NA,NA,m_s_049.jpg,green,m_l_043.jpg,green,within,NA,NaN,NA,left,2448.800000011921,1,2,1198.300000011921
yjgKw5he,322zsn9z6jxccjxbpgrk4cn83gtt4w,3cp1to84pxe2bn5sb8v0x1go5hm25m,yjgKw5he,2020-0188,2021-10-15,10:00:28,11:20:30,NA,incomplete,false,NA,true,3,9,NA,NA,NA,left,absent,NA,NA,n_l_005.jpg,gray,n_s_044.jpg,gray,within,NA,NaN,NA,right,1701.199999988079,0,2,1021.5999999940395
yjgKw5he,322zsn9z6jxccjxbpgrk4cn83gtt4w,3cp1to84pxe2bn5sb8v0x1go5hm25m,yjgKw5he,2020-0188,2021-10-15,10:00:28,11:20:30,NA,incomplete,false,NA,true,3,10,NA,NA,NA,left,absent,NA,NA,n_l_041.jpg,white,m_s_022.jpg,white,within,NA,NaN,NA,left,4575.800000011921,1,1,1791.5999999940395
yjgKw5he,322zsn9z6jxccjxbpgrk4cn83gtt4w,3cp1to84pxe2bn5sb8v0x1go5hm25m,yjgKw5he,2020-0188,2021-10-15,10:00:28,11:20:30,NA,incomplete,false,true,NA,4,0,NA,green,n_l_115.jpg,NA,NA,pleasant,unpleasant,NA,NA,NA,NA,NA,left,1310.80000001192,true,NA,NA,NA,NA,NA
yjgKw5he,322zsn9z6jxccjxbpgrk4cn83gtt4w,3cp1to84pxe2bn5sb8v0x1go5hm25m,yjgKw5he,2020-0188,2021-10-15,10:00:28,11:20:30,NA,incomplete,false,true,NA,4,1,NA,green,m_l_060.jpg,NA,NA,pleasant,unpleasant,NA,NA,NA,NA,NA,left,1247.80000001192,true,NA,NA,NA,NA,NA
yjgKw5he,322zsn9z6jxccjxbpgrk4cn83gtt4w,3cp1to84pxe2bn5sb8v0x1go5hm25m,yjgKw5he,2020-0188,2021-10-15,10:00:28,11:20:30,NA,incomplete,false,true,NA,4,2,NA,green,n_l_055.jpg,NA,NA,unpleasant,pleasant,NA,NA,NA,NA,NA,right,1064.5,true,NA,NA,NA,NA,NA
yjgKw5he,322zsn9z6jxccjxbpgrk4cn83gtt4w,3cp1to84pxe2bn5sb8v0x1go5hm25m,yjgKw5he,2020-0188,2021-10-15,10:00:28,11:20:30,NA,incomplete,false,true,NA,4,3,NA,green,n_l_052.jpg,NA,NA,pleasant,unpleasant,NA,NA,NA,NA,NA,left,1035,true,NA,NA,NA,NA,NA
yjgKw5he,322zsn9z6jxccjxbpgrk4cn83gtt4w,3cp1to84pxe2bn5sb8v0x1go5hm25m,yjgKw5he,2020-0188,2021-10-15,10:00:28,11:20:30,NA,incomplete,false,true,NA,4,4,NA,green,m_l_098.jpg,NA,NA,unpleasant,pleasant,NA,NA,NA,NA,NA,right,1139.80000001192,true,NA,NA,NA,NA,NA
yjgKw5he,322zsn9z6jxccjxbpgrk4cn83gtt4w,3cp1to84pxe2bn5sb8v0x1go5hm25m,yjgKw5he,2020-0188,2021-10-15,10:00:28,11:20:30,NA,incomplete,false,true,NA,4,5,NA,green,n_s_008.jpg,NA,NA,pleasant,unpleasant,NA,NA,NA,NA,NA,left,1020.20000001788,true,NA,NA,NA,NA,NA
yjgKw5he,322zsn9z6jxccjxbpgrk4cn83gtt4w,3cp1to84pxe2bn5sb8v0x1go5hm25m,yjgKw5he,2020-0188,2021-10-15,10:00:28,11:20:30,NA,incomplete,false,true,NA,4,6,NA,brown,m_s_078.jpg,NA,NA,unpleasant,pleasant,NA,NA,NA,NA,NA,left,1387.79999998212,true,NA,NA,NA,NA,NA
yjgKw5he,322zsn9z6jxccjxbpgrk4cn83gtt4w,3cp1to84pxe2bn5sb8v0x1go5hm25m,yjgKw5he,2020-0188,2021-10-15,10:00:28,11:20:30,NA,incomplete,false,true,NA,4,7,NA,brown,n_l_036.jpg,NA,NA,unpleasant,pleasant,NA,NA,NA,NA,NA,right,997.5,true,NA,NA,NA,NA,NA
yjgKw5he,322zsn9z6jxccjxbpgrk4cn83gtt4w,3cp1to84pxe2bn5sb8v0x1go5hm25m,yjgKw5he,2020-0188,2021-10-15,10:00:28,11:20:30,NA,incomplete,false,true,NA,4,8,NA,brown,m_l_073.jpg,NA,NA,unpleasant,pleasant,NA,NA,NA,NA,NA,right,1054.90000000596,true,NA,NA,NA,NA,NA
yjgKw5he,322zsn9z6jxccjxbpgrk4cn83gtt4w,3cp1to84pxe2bn5sb8v0x1go5hm25m,yjgKw5he,2020-0188,2021-10-15,10:00:28,11:20:30,NA,incomplete,false,true,NA,4,9,NA,brown,m_l_104.jpg,NA,NA,pleasant,unpleasant,NA,NA,NA,NA,NA,left,959.899999976158,true,NA,NA,NA,NA,NA
yjgKw5he,322zsn9z6jxccjxbpgrk4cn83gtt4w,3cp1to84pxe2bn5sb8v0x1go5hm25m,yjgKw5he,2020-0188,2021-10-15,10:00:28,11:20:30,NA,incomplete,false,true,NA,4,10,NA,brown,m_s_101.jpg,NA,NA,unpleasant,pleasant,NA,NA,NA,NA,NA,right,1234.79999998212,true,NA,NA,NA,NA,NA
yjgKw5he,322zsn9z6jxccjxbpgrk4cn83gtt4w,3cp1to84pxe2bn5sb8v0x1go5hm25m,yjgKw5he,2020-0188,2021-10-15,10:00:28,11:20:30,NA,incomplete,false,true,NA,4,11,NA,brown,n_l_042.jpg,NA,NA,pleasant,unpleasant,NA,NA,NA,NA,NA,left,1006,true,NA,NA,NA,NA,NA
yjgKw5he,322zsn9z6jxccjxbpgrk4cn83gtt4w,3cp1to84pxe2bn5sb8v0x1go5hm25m,yjgKw5he,2020-0188,2021-10-15,10:00:28,11:20:30,NA,incomplete,false,true,NA,4,12,NA,gray,m_l_053.jpg,NA,NA,pleasant,unpleasant,NA,NA,NA,NA,NA,left,894.5,true,NA,NA,NA,NA,NA
yjgKw5he,322zsn9z6jxccjxbpgrk4cn83gtt4w,3cp1to84pxe2bn5sb8v0x1go5hm25m,yjgKw5he,2020-0188,2021-10-15,10:00:28,11:20:30,NA,incomplete,false,true,NA,4,13,NA,gray,n_l_103.jpg,NA,NA,pleasant,unpleasant,NA,NA,NA,NA,NA,left,778,true,NA,NA,NA,NA,NA
yjgKw5he,322zsn9z6jxccjxbpgrk4cn83gtt4w,3cp1to84pxe2bn5sb8v0x1go5hm25m,yjgKw5he,2020-0188,2021-10-15,10:00:28,11:20:30,NA,incomplete,false,true,NA,4,14,NA,gray,m_l_066.jpg,NA,NA,pleasant,unpleasant,NA,NA,NA,NA,NA,left,1168.09999999404,true,NA,NA,NA,NA,NA
yjgKw5he,322zsn9z6jxccjxbpgrk4cn83gtt4w,3cp1to84pxe2bn5sb8v0x1go5hm25m,yjgKw5he,2020-0188,2021-10-15,10:00:28,11:20:30,NA,incomplete,false,true,NA,4,15,NA,gray,n_s_104.jpg,NA,NA,unpleasant,pleasant,NA,NA,NA,NA,NA,right,1252.20000001788,true,NA,NA,NA,NA,NA
yjgKw5he,322zsn9z6jxccjxbpgrk4cn83gtt4w,3cp1to84pxe2bn5sb8v0x1go5hm25m,yjgKw5he,2020-0188,2021-10-15,10:00:28,11:20:30,NA,incomplete,false,true,NA,4,16,NA,gray,n_s_032.jpg,NA,NA,pleasant,unpleasant,NA,NA,NA,NA,NA,left,991.40000000596,true,NA,NA,NA,NA,NA
yjgKw5he,322zsn9z6jxccjxbpgrk4cn83gtt4w,3cp1to84pxe2bn5sb8v0x1go5hm25m,yjgKw5he,2020-0188,2021-10-15,10:00:28,11:20:30,NA,incomplete,false,true,NA,4,17,NA,gray,m_s_099.jpg,NA,NA,unpleasant,pleasant,NA,NA,NA,NA,NA,right,1006.90000000596,true,NA,NA,NA,NA,NA
yjgKw5he,322zsn9z6jxccjxbpgrk4cn83gtt4w,3cp1to84pxe2bn5sb8v0x1go5hm25m,yjgKw5he,2020-0188,2021-10-15,10:00:28,11:20:30,NA,incomplete,false,true,NA,4,18,NA,red,n_l_013.jpg,NA,NA,pleasant,unpleasant,NA,NA,NA,NA,NA,left,951.199999988079,true,NA,NA,NA,NA,NA
yjgKw5he,322zsn9z6jxccjxbpgrk4cn83gtt4w,3cp1to84pxe2bn5sb8v0x1go5hm25m,yjgKw5he,2020-0188,2021-10-15,10:00:28,11:20:30,NA,incomplete,false,true,NA,4,19,NA,red,n_s_038.jpg,NA,NA,pleasant,unpleasant,NA,NA,NA,NA,NA,left,1281.80000001192,true,NA,NA,NA,NA,NA
yjgKw5he,322zsn9z6jxccjxbpgrk4cn83gtt4w,3cp1to84pxe2bn5sb8v0x1go5hm25m,yjgKw5he,2020-0188,2021-10-15,10:00:28,11:20:30,NA,incomplete,false,true,NA,4,20,NA,red,m_s_062.jpg,NA,NA,pleasant,unpleasant,NA,NA,NA,NA,NA,left,1421.10000002384,true,NA,NA,NA,NA,NA
yjgKw5he,322zsn9z6jxccjxbpgrk4cn83gtt4w,3cp1to84pxe2bn5sb8v0x1go5hm25m,yjgKw5he,2020-0188,2021-10-15,10:00:28,11:20:30,NA,incomplete,false,true,NA,4,21,NA,red,m_l_034.jpg,NA,NA,pleasant,unpleasant,NA,NA,NA,NA,NA,left,1071.10000002384,true,NA,NA,NA,NA,NA
yjgKw5he,322zsn9z6jxccjxbpgrk4cn83gtt4w,3cp1to84pxe2bn5sb8v0x1go5hm25m,yjgKw5he,2020-0188,2021-10-15,10:00:28,11:20:30,NA,incomplete,false,true,NA,4,22,NA,red,n_l_064.jpg,NA,NA,unpleasant,pleasant,NA,NA,NA,NA,NA,right,1065,true,NA,NA,NA,NA,NA
yjgKw5he,322zsn9z6jxccjxbpgrk4cn83gtt4w,3cp1to84pxe2bn5sb8v0x1go5hm25m,yjgKw5he,2020-0188,2021-10-15,10:00:28,11:20:30,NA,incomplete,false,true,NA,4,23,NA,red,n_l_021.jpg,NA,NA,pleasant,unpleasant,NA,NA,NA,NA,NA,left,1426.39999997616,true,NA,NA,NA,NA,NA
yjgKw5he,322zsn9z6jxccjxbpgrk4cn83gtt4w,3cp1to84pxe2bn5sb8v0x1go5hm25m,yjgKw5he,2020-0188,2021-10-15,10:00:28,11:20:30,NA,incomplete,false,true,NA,4,24,NA,white,m_l_101.jpg,NA,NA,pleasant,unpleasant,NA,NA,NA,NA,NA,left,1001.79999998212,true,NA,NA,NA,NA,NA
yjgKw5he,322zsn9z6jxccjxbpgrk4cn83gtt4w,3cp1to84pxe2bn5sb8v0x1go5hm25m,yjgKw5he,2020-0188,2021-10-15,10:00:28,11:20:30,NA,incomplete,false,true,NA,4,25,NA,white,n_l_025.jpg,NA,NA,unpleasant,pleasant,NA,NA,NA,NA,NA,right,667.40000000596,true,NA,NA,NA,NA,NA
yjgKw5he,322zsn9z6jxccjxbpgrk4cn83gtt4w,3cp1to84pxe2bn5sb8v0x1go5hm25m,yjgKw5he,2020-0188,2021-10-15,10:00:28,11:20:30,NA,incomplete,false,true,NA,4,26,NA,white,n_s_021.jpg,NA,NA,pleasant,unpleasant,NA,NA,NA,NA,NA,left,937.600000023842,true,NA,NA,NA,NA,NA
yjgKw5he,322zsn9z6jxccjxbpgrk4cn83gtt4w,3cp1to84pxe2bn5sb8v0x1go5hm25m,yjgKw5he,2020-0188,2021-10-15,10:00:28,11:20:30,NA,incomplete,false,true,NA,4,27,NA,white,m_s_041.jpg,NA,NA,unpleasant,pleasant,NA,NA,NA,NA,NA,left,1241.90000000596,true,NA,NA,NA,NA,NA
yjgKw5he,322zsn9z6jxccjxbpgrk4cn83gtt4w,3cp1to84pxe2bn5sb8v0x1go5hm25m,yjgKw5he,2020-0188,2021-10-15,10:00:28,11:20:30,NA,incomplete,false,true,NA,4,28,NA,white,m_l_086.jpg,NA,NA,unpleasant,pleasant,NA,NA,NA,NA,NA,right,1011.5,true,NA,NA,NA,NA,NA
yjgKw5he,322zsn9z6jxccjxbpgrk4cn83gtt4w,3cp1to84pxe2bn5sb8v0x1go5hm25m,yjgKw5he,2020-0188,2021-10-15,10:00:28,11:20:30,NA,incomplete,false,true,NA,4,29,NA,white,n_s_081.jpg,NA,NA,pleasant,unpleasant,NA,NA,NA,NA,NA,left,969,true,NA,NA,NA,NA,NA
yjgKw5he,322zsn9z6jxccjxbpgrk4cn83gtt4w,3cp1to84pxe2bn5sb8v0x1go5hm25m,yjgKw5he,2020-0188,2021-10-15,10:00:28,11:20:30,NA,incomplete,false,true,NA,4,30,NA,orange,n_l_114.jpg,NA,NA,unpleasant,pleasant,NA,NA,NA,NA,NA,right,1001.59999999404,true,NA,NA,NA,NA,NA
yjgKw5he,322zsn9z6jxccjxbpgrk4cn83gtt4w,3cp1to84pxe2bn5sb8v0x1go5hm25m,yjgKw5he,2020-0188,2021-10-15,10:00:28,11:20:30,NA,incomplete,false,true,NA,4,31,NA,orange,n_s_067.jpg,NA,NA,pleasant,unpleasant,NA,NA,NA,NA,NA,right,1381.29999998212,true,NA,NA,NA,NA,NA
yjgKw5he,322zsn9z6jxccjxbpgrk4cn83gtt4w,3cp1to84pxe2bn5sb8v0x1go5hm25m,yjgKw5he,2020-0188,2021-10-15,10:00:28,11:20:30,NA,incomplete,false,true,NA,4,32,NA,orange,m_l_081.jpg,NA,NA,pleasant,unpleasant,NA,NA,NA,NA,NA,left,843.90000000596,true,NA,NA,NA,NA,NA
yjgKw5he,322zsn9z6jxccjxbpgrk4cn83gtt4w,3cp1to84pxe2bn5sb8v0x1go5hm25m,yjgKw5he,2020-0188,2021-10-15,10:00:28,11:20:30,NA,incomplete,false,true,NA,4,33,NA,orange,m_l_031.jpg,NA,NA,pleasant,unpleasant,NA,NA,NA,NA,NA,right,1318,true,NA,NA,NA,NA,NA
yjgKw5he,322zsn9z6jxccjxbpgrk4cn83gtt4w,3cp1to84pxe2bn5sb8v0x1go5hm25m,yjgKw5he,2020-0188,2021-10-15,10:00:28,11:20:30,NA,incomplete,false,true,NA,4,34,NA,orange,m_l_111.jpg,NA,NA,pleasant,unpleasant,NA,NA,NA,NA,NA,left,893.600000023842,true,NA,NA,NA,NA,NA
yjgKw5he,322zsn9z6jxccjxbpgrk4cn83gtt4w,3cp1to84pxe2bn5sb8v0x1go5hm25m,yjgKw5he,2020-0188,2021-10-15,10:00:28,11:20:30,NA,incomplete,false,true,NA,4,35,NA,orange,n_l_049.jpg,NA,NA,unpleasant,pleasant,NA,NA,NA,NA,NA,right,875.300000011921,true,NA,NA,NA,NA,NA
yjgKw5he,322zsn9z6jxccjxbpgrk4cn83gtt4w,3cp1to84pxe2bn5sb8v0x1go5hm25m,yjgKw5he,2020-0188,2021-10-15,10:00:28,11:20:30,NA,incomplete,false,NA,true,4,0,NA,NA,NA,right,present,NA,NA,n_l_021.jpg,red,n_s_038.jpg,red,within,NA,NaN,NA,left,3289.4000000059605,0,2,1234.300000011921
yjgKw5he,322zsn9z6jxccjxbpgrk4cn83gtt4w,3cp1to84pxe2bn5sb8v0x1go5hm25m,yjgKw5he,2020-0188,2021-10-15,10:00:28,11:20:30,NA,incomplete,false,NA,true,4,1,NA,NA,NA,left,present,NA,NA,n_l_036.jpg,brown,n_l_042.jpg,brown,within,NA,NaN,NA,left,2122.5999999940395,1,2,1454.5
yjgKw5he,322zsn9z6jxccjxbpgrk4cn83gtt4w,3cp1to84pxe2bn5sb8v0x1go5hm25m,yjgKw5he,2020-0188,2021-10-15,10:00:28,11:20:30,NA,incomplete,false,NA,true,4,2,NA,NA,NA,right,present,NA,NA,m_l_081.jpg,orange,m_l_086.jpg,white,between,NA,NaN,NA,right,3929.2000000178814,1,2,1214.5999999940395
yjgKw5he,322zsn9z6jxccjxbpgrk4cn83gtt4w,3cp1to84pxe2bn5sb8v0x1go5hm25m,yjgKw5he,2020-0188,2021-10-15,10:00:28,11:20:30,NA,incomplete,false,NA,true,4,3,NA,NA,NA,left,present,NA,NA,n_s_067.jpg,orange,n_l_049.jpg,orange,within,NA,NaN,NA,right,5326.5,0,3,1361.300000011921
yjgKw5he,322zsn9z6jxccjxbpgrk4cn83gtt4w,3cp1to84pxe2bn5sb8v0x1go5hm25m,yjgKw5he,2020-0188,2021-10-15,10:00:28,11:20:30,NA,incomplete,false,NA,true,4,4,NA,NA,NA,left,present,NA,NA,n_l_103.jpg,gray,m_s_099.jpg,gray,within,NA,NaN,NA,right,5363.300000011921,0,2,1058.5999999940395
yjgKw5he,322zsn9z6jxccjxbpgrk4cn83gtt4w,3cp1to84pxe2bn5sb8v0x1go5hm25m,yjgKw5he,2020-0188,2021-10-15,10:00:28,11:20:30,NA,incomplete,false,NA,true,4,5,NA,NA,NA,left,present,NA,NA,n_l_025.jpg,white,n_s_081.jpg,white,within,NA,NaN,NA,left,3189,1,2,1007.5999999940395
yjgKw5he,322zsn9z6jxccjxbpgrk4cn83gtt4w,3cp1to84pxe2bn5sb8v0x1go5hm25m,yjgKw5he,2020-0188,2021-10-15,10:00:28,11:20:30,NA,incomplete,false,NA,true,4,6,NA,NA,NA,right,present,NA,NA,n_s_021.jpg,white,n_l_064.jpg,red,between,NA,NaN,NA,right,3589.300000011921,1,3,3116
yjgKw5he,322zsn9z6jxccjxbpgrk4cn83gtt4w,3cp1to84pxe2bn5sb8v0x1go5hm25m,yjgKw5he,2020-0188,2021-10-15,10:00:28,11:20:30,NA,incomplete,false,NA,true,4,7,NA,NA,NA,left,present,NA,NA,m_s_101.jpg,brown,m_l_066.jpg,gray,between,NA,NaN,NA,left,2909.5999999940395,1,1,2086.4000000059605
yjgKw5he,322zsn9z6jxccjxbpgrk4cn83gtt4w,3cp1to84pxe2bn5sb8v0x1go5hm25m,yjgKw5he,2020-0188,2021-10-15,10:00:28,11:20:30,NA,incomplete,false,NA,true,4,8,NA,NA,NA,right,present,NA,NA,m_s_062.jpg,red,n_s_032.jpg,gray,between,NA,NaN,NA,right,1951.300000011921,1,2,1743.0999999940395
yjgKw5he,322zsn9z6jxccjxbpgrk4cn83gtt4w,3cp1to84pxe2bn5sb8v0x1go5hm25m,yjgKw5he,2020-0188,2021-10-15,10:00:28,11:20:30,NA,incomplete,false,NA,true,4,9,NA,NA,NA,left,present,NA,NA,m_l_098.jpg,green,m_l_073.jpg,brown,between,NA,NaN,NA,left,5805.199999988079,1,2,1171
yjgKw5he,322zsn9z6jxccjxbpgrk4cn83gtt4w,3cp1to84pxe2bn5sb8v0x1go5hm25m,yjgKw5he,2020-0188,2021-10-15,10:00:28,11:20:30,NA,incomplete,false,NA,true,4,10,NA,NA,NA,right,present,NA,NA,n_s_008.jpg,green,m_l_060.jpg,green,within,NA,NaN,NA,right,2004,1,2,1975.4000000059605
yjgKw5he,322zsn9z6jxccjxbpgrk4cn83gtt4w,3cp1to84pxe2bn5sb8v0x1go5hm25m,yjgKw5he,2020-0188,2021-10-15,10:00:28,11:20:30,NA,incomplete,false,true,NA,5,0,NA,orange,m_s_037.jpg,NA,NA,unpleasant,pleasant,NA,NA,NA,NA,NA,right,1595,true,NA,NA,NA,NA,NA
yjgKw5he,322zsn9z6jxccjxbpgrk4cn83gtt4w,3cp1to84pxe2bn5sb8v0x1go5hm25m,yjgKw5he,2020-0188,2021-10-15,10:00:28,11:20:30,NA,incomplete,false,true,NA,5,1,NA,orange,m_s_090.jpg,NA,NA,unpleasant,pleasant,NA,NA,NA,NA,NA,right,1365.79999998212,true,NA,NA,NA,NA,NA
yjgKw5he,322zsn9z6jxccjxbpgrk4cn83gtt4w,3cp1to84pxe2bn5sb8v0x1go5hm25m,yjgKw5he,2020-0188,2021-10-15,10:00:28,11:20:30,NA,incomplete,false,true,NA,5,2,NA,orange,n_s_097.jpg,NA,NA,pleasant,unpleasant,NA,NA,NA,NA,NA,left,1058.59999999404,true,NA,NA,NA,NA,NA
yjgKw5he,322zsn9z6jxccjxbpgrk4cn83gtt4w,3cp1to84pxe2bn5sb8v0x1go5hm25m,yjgKw5he,2020-0188,2021-10-15,10:00:28,11:20:30,NA,incomplete,false,true,NA,5,3,NA,orange,m_l_117.jpg,NA,NA,pleasant,unpleasant,NA,NA,NA,NA,NA,left,1162.69999998808,true,NA,NA,NA,NA,NA
yjgKw5he,322zsn9z6jxccjxbpgrk4cn83gtt4w,3cp1to84pxe2bn5sb8v0x1go5hm25m,yjgKw5he,2020-0188,2021-10-15,10:00:28,11:20:30,NA,incomplete,false,true,NA,5,4,NA,orange,m_s_055.jpg,NA,NA,pleasant,unpleasant,NA,NA,NA,NA,NA,left,1557.69999998808,true,NA,NA,NA,NA,NA
yjgKw5he,322zsn9z6jxccjxbpgrk4cn83gtt4w,3cp1to84pxe2bn5sb8v0x1go5hm25m,yjgKw5he,2020-0188,2021-10-15,10:00:28,11:20:30,NA,incomplete,false,true,NA,5,5,NA,orange,n_s_083.jpg,NA,NA,pleasant,unpleasant,NA,NA,NA,NA,NA,left,948.59999999404,true,NA,NA,NA,NA,NA
yjgKw5he,322zsn9z6jxccjxbpgrk4cn83gtt4w,3cp1to84pxe2bn5sb8v0x1go5hm25m,yjgKw5he,2020-0188,2021-10-15,10:00:28,11:20:30,NA,incomplete,false,true,NA,5,6,NA,white,m_l_017.jpg,NA,NA,pleasant,unpleasant,NA,NA,NA,NA,NA,left,984,true,NA,NA,NA,NA,NA
yjgKw5he,322zsn9z6jxccjxbpgrk4cn83gtt4w,3cp1to84pxe2bn5sb8v0x1go5hm25m,yjgKw5he,2020-0188,2021-10-15,10:00:28,11:20:30,NA,incomplete,false,true,NA,5,7,NA,white,m_s_079.jpg,NA,NA,unpleasant,pleasant,NA,NA,NA,NA,NA,right,1180,true,NA,NA,NA,NA,NA
yjgKw5he,322zsn9z6jxccjxbpgrk4cn83gtt4w,3cp1to84pxe2bn5sb8v0x1go5hm25m,yjgKw5he,2020-0188,2021-10-15,10:00:28,11:20:30,NA,incomplete,false,true,NA,5,8,NA,white,m_l_106.jpg,NA,NA,unpleasant,pleasant,NA,NA,NA,NA,NA,right,1015.69999998808,true,NA,NA,NA,NA,NA
yjgKw5he,322zsn9z6jxccjxbpgrk4cn83gtt4w,3cp1to84pxe2bn5sb8v0x1go5hm25m,yjgKw5he,2020-0188,2021-10-15,10:00:28,11:20:30,NA,incomplete,false,true,NA,5,9,NA,white,n_s_115.jpg,NA,NA,unpleasant,pleasant,NA,NA,NA,NA,NA,right,991.59999999404,true,NA,NA,NA,NA,NA
yjgKw5he,322zsn9z6jxccjxbpgrk4cn83gtt4w,3cp1to84pxe2bn5sb8v0x1go5hm25m,yjgKw5he,2020-0188,2021-10-15,10:00:28,11:20:30,NA,incomplete,false,true,NA,5,10,NA,white,m_l_107.jpg,NA,NA,pleasant,unpleasant,NA,NA,NA,NA,NA,right,1247.5,true,NA,NA,NA,NA,NA
yjgKw5he,322zsn9z6jxccjxbpgrk4cn83gtt4w,3cp1to84pxe2bn5sb8v0x1go5hm25m,yjgKw5he,2020-0188,2021-10-15,10:00:28,11:20:30,NA,incomplete,false,true,NA,5,11,NA,white,m_s_082.jpg,NA,NA,pleasant,unpleasant,NA,NA,NA,NA,NA,left,913.799999982119,true,NA,NA,NA,NA,NA
yjgKw5he,322zsn9z6jxccjxbpgrk4cn83gtt4w,3cp1to84pxe2bn5sb8v0x1go5hm25m,yjgKw5he,2020-0188,2021-10-15,10:00:28,11:20:30,NA,incomplete,false,true,NA,5,12,NA,brown,n_l_044.jpg,NA,NA,pleasant,unpleasant,NA,NA,NA,NA,NA,left,948.199999988079,true,NA,NA,NA,NA,NA
yjgKw5he,322zsn9z6jxccjxbpgrk4cn83gtt4w,3cp1to84pxe2bn5sb8v0x1go5hm25m,yjgKw5he,2020-0188,2021-10-15,10:00:28,11:20:30,NA,incomplete,false,true,NA,5,13,NA,brown,n_s_063.jpg,NA,NA,unpleasant,pleasant,NA,NA,NA,NA,NA,right,929.699999988079,true,NA,NA,NA,NA,NA
yjgKw5he,322zsn9z6jxccjxbpgrk4cn83gtt4w,3cp1to84pxe2bn5sb8v0x1go5hm25m,yjgKw5he,2020-0188,2021-10-15,10:00:28,11:20:30,NA,incomplete,false,true,NA,5,14,NA,brown,n_l_113.jpg,NA,NA,pleasant,unpleasant,NA,NA,NA,NA,NA,left,1086,true,NA,NA,NA,NA,NA
yjgKw5he,322zsn9z6jxccjxbpgrk4cn83gtt4w,3cp1to84pxe2bn5sb8v0x1go5hm25m,yjgKw5he,2020-0188,2021-10-15,10:00:28,11:20:30,NA,incomplete,false,true,NA,5,15,NA,brown,m_s_023.jpg,NA,NA,unpleasant,pleasant,NA,NA,NA,NA,NA,right,1190.19999998808,true,NA,NA,NA,NA,NA
yjgKw5he,322zsn9z6jxccjxbpgrk4cn83gtt4w,3cp1to84pxe2bn5sb8v0x1go5hm25m,yjgKw5he,2020-0188,2021-10-15,10:00:28,11:20:30,NA,incomplete,false,true,NA,5,16,NA,brown,m_s_016.jpg,NA,NA,pleasant,unpleasant,NA,NA,NA,NA,NA,left,1115.5,true,NA,NA,NA,NA,NA
yjgKw5he,322zsn9z6jxccjxbpgrk4cn83gtt4w,3cp1to84pxe2bn5sb8v0x1go5hm25m,yjgKw5he,2020-0188,2021-10-15,10:00:28,11:20:30,NA,incomplete,false,true,NA,5,17,NA,brown,m_l_090.jpg,NA,NA,unpleasant,pleasant,NA,NA,NA,NA,NA,right,997.300000011921,true,NA,NA,NA,NA,NA
yjgKw5he,322zsn9z6jxccjxbpgrk4cn83gtt4w,3cp1to84pxe2bn5sb8v0x1go5hm25m,yjgKw5he,2020-0188,2021-10-15,10:00:28,11:20:30,NA,incomplete,false,true,NA,5,18,NA,black,m_s_054.jpg,NA,NA,pleasant,unpleasant,NA,NA,NA,NA,NA,right,1167.59999999404,true,NA,NA,NA,NA,NA
yjgKw5he,322zsn9z6jxccjxbpgrk4cn83gtt4w,3cp1to84pxe2bn5sb8v0x1go5hm25m,yjgKw5he,2020-0188,2021-10-15,10:00:28,11:20:30,NA,incomplete,false,true,NA,5,19,NA,black,n_s_108.jpg,NA,NA,pleasant,unpleasant,NA,NA,NA,NA,NA,left,813.5,true,NA,NA,NA,NA,NA
yjgKw5he,322zsn9z6jxccjxbpgrk4cn83gtt4w,3cp1to84pxe2bn5sb8v0x1go5hm25m,yjgKw5he,2020-0188,2021-10-15,10:00:28,11:20:30,NA,incomplete,false,true,NA,5,20,NA,black,m_s_074.jpg,NA,NA,unpleasant,pleasant,NA,NA,NA,NA,NA,right,1068.89999997616,true,NA,NA,NA,NA,NA
yjgKw5he,322zsn9z6jxccjxbpgrk4cn83gtt4w,3cp1to84pxe2bn5sb8v0x1go5hm25m,yjgKw5he,2020-0188,2021-10-15,10:00:28,11:20:30,NA,incomplete,false,true,NA,5,21,NA,black,n_s_069.jpg,NA,NA,pleasant,unpleasant,NA,NA,NA,NA,NA,left,610.100000023842,true,NA,NA,NA,NA,NA
yjgKw5he,322zsn9z6jxccjxbpgrk4cn83gtt4w,3cp1to84pxe2bn5sb8v0x1go5hm25m,yjgKw5he,2020-0188,2021-10-15,10:00:28,11:20:30,NA,incomplete,false,true,NA,5,22,NA,black,n_s_117.jpg,NA,NA,pleasant,unpleasant,NA,NA,NA,NA,NA,left,850.200000017881,true,NA,NA,NA,NA,NA
yjgKw5he,322zsn9z6jxccjxbpgrk4cn83gtt4w,3cp1to84pxe2bn5sb8v0x1go5hm25m,yjgKw5he,2020-0188,2021-10-15,10:00:28,11:20:30,NA,incomplete,false,true,NA,5,23,NA,black,m_l_113.jpg,NA,NA,pleasant,unpleasant,NA,NA,NA,NA,NA,left,890.300000011921,true,NA,NA,NA,NA,NA
yjgKw5he,322zsn9z6jxccjxbpgrk4cn83gtt4w,3cp1to84pxe2bn5sb8v0x1go5hm25m,yjgKw5he,2020-0188,2021-10-15,10:00:28,11:20:30,NA,incomplete,false,true,NA,5,24,NA,purple,m_s_051.jpg,NA,NA,unpleasant,pleasant,NA,NA,NA,NA,NA,left,1733.40000000596,true,NA,NA,NA,NA,NA
yjgKw5he,322zsn9z6jxccjxbpgrk4cn83gtt4w,3cp1to84pxe2bn5sb8v0x1go5hm25m,yjgKw5he,2020-0188,2021-10-15,10:00:28,11:20:30,NA,incomplete,false,true,NA,5,25,NA,purple,n_l_112.jpg,NA,NA,unpleasant,pleasant,NA,NA,NA,NA,NA,right,1005.90000000596,true,NA,NA,NA,NA,NA
yjgKw5he,322zsn9z6jxccjxbpgrk4cn83gtt4w,3cp1to84pxe2bn5sb8v0x1go5hm25m,yjgKw5he,2020-0188,2021-10-15,10:00:28,11:20:30,NA,incomplete,false,true,NA,5,26,NA,purple,m_l_062.jpg,NA,NA,unpleasant,pleasant,NA,NA,NA,NA,NA,right,975.40000000596,true,NA,NA,NA,NA,NA
yjgKw5he,322zsn9z6jxccjxbpgrk4cn83gtt4w,3cp1to84pxe2bn5sb8v0x1go5hm25m,yjgKw5he,2020-0188,2021-10-15,10:00:28,11:20:30,NA,incomplete,false,true,NA,5,27,NA,purple,n_s_042.jpg,NA,NA,unpleasant,pleasant,NA,NA,NA,NA,NA,right,1993.89999997616,true,NA,NA,NA,NA,NA
yjgKw5he,322zsn9z6jxccjxbpgrk4cn83gtt4w,3cp1to84pxe2bn5sb8v0x1go5hm25m,yjgKw5he,2020-0188,2021-10-15,10:00:28,11:20:30,NA,incomplete,false,true,NA,5,28,NA,purple,n_s_001.jpg,NA,NA,unpleasant,pleasant,NA,NA,NA,NA,NA,right,1158,true,NA,NA,NA,NA,NA
yjgKw5he,322zsn9z6jxccjxbpgrk4cn83gtt4w,3cp1to84pxe2bn5sb8v0x1go5hm25m,yjgKw5he,2020-0188,2021-10-15,10:00:28,11:20:30,NA,incomplete,false,true,NA,5,29,NA,purple,n_l_037.jpg,NA,NA,pleasant,unpleasant,NA,NA,NA,NA,NA,left,1062.09999999404,true,NA,NA,NA,NA,NA
yjgKw5he,322zsn9z6jxccjxbpgrk4cn83gtt4w,3cp1to84pxe2bn5sb8v0x1go5hm25m,yjgKw5he,2020-0188,2021-10-15,10:00:28,11:20:30,NA,incomplete,false,true,NA,5,30,NA,green,m_l_002.jpg,NA,NA,unpleasant,pleasant,NA,NA,NA,NA,NA,left,877.699999988079,true,NA,NA,NA,NA,NA
yjgKw5he,322zsn9z6jxccjxbpgrk4cn83gtt4w,3cp1to84pxe2bn5sb8v0x1go5hm25m,yjgKw5he,2020-0188,2021-10-15,10:00:28,11:20:30,NA,incomplete,false,true,NA,5,31,NA,green,m_l_050.jpg,NA,NA,pleasant,unpleasant,NA,NA,NA,NA,NA,left,839.200000017881,true,NA,NA,NA,NA,NA
yjgKw5he,322zsn9z6jxccjxbpgrk4cn83gtt4w,3cp1to84pxe2bn5sb8v0x1go5hm25m,yjgKw5he,2020-0188,2021-10-15,10:00:28,11:20:30,NA,incomplete,false,true,NA,5,32,NA,green,n_l_074.jpg,NA,NA,pleasant,unpleasant,NA,NA,NA,NA,NA,left,1008.19999998808,true,NA,NA,NA,NA,NA
yjgKw5he,322zsn9z6jxccjxbpgrk4cn83gtt4w,3cp1to84pxe2bn5sb8v0x1go5hm25m,yjgKw5he,2020-0188,2021-10-15,10:00:28,11:20:30,NA,incomplete,false,true,NA,5,33,NA,green,m_s_085.jpg,NA,NA,pleasant,unpleasant,NA,NA,NA,NA,NA,right,1104.59999999404,true,NA,NA,NA,NA,NA
yjgKw5he,322zsn9z6jxccjxbpgrk4cn83gtt4w,3cp1to84pxe2bn5sb8v0x1go5hm25m,yjgKw5he,2020-0188,2021-10-15,10:00:28,11:20:30,NA,incomplete,false,true,NA,5,34,NA,green,n_s_092.jpg,NA,NA,pleasant,unpleasant,NA,NA,NA,NA,NA,left,776.299999982119,true,NA,NA,NA,NA,NA
yjgKw5he,322zsn9z6jxccjxbpgrk4cn83gtt4w,3cp1to84pxe2bn5sb8v0x1go5hm25m,yjgKw5he,2020-0188,2021-10-15,10:00:28,11:20:30,NA,incomplete,false,true,NA,5,35,NA,green,m_s_031.jpg,NA,NA,unpleasant,pleasant,NA,NA,NA,NA,NA,left,970.100000023842,true,NA,NA,NA,NA,NA
yjgKw5he,322zsn9z6jxccjxbpgrk4cn83gtt4w,3cp1to84pxe2bn5sb8v0x1go5hm25m,yjgKw5he,2020-0188,2021-10-15,10:00:28,11:20:30,NA,incomplete,false,NA,true,5,0,NA,NA,NA,right,present,NA,NA,m_l_106.jpg,white,m_s_055.jpg,orange,between,NA,NaN,NA,right,2572.5,1,2,1154.0999999940395
yjgKw5he,322zsn9z6jxccjxbpgrk4cn83gtt4w,3cp1to84pxe2bn5sb8v0x1go5hm25m,yjgKw5he,2020-0188,2021-10-15,10:00:28,11:20:30,NA,incomplete,false,NA,true,5,1,NA,NA,NA,right,present,NA,NA,m_s_074.jpg,black,m_s_016.jpg,brown,between,NA,NaN,NA,right,3366.0999999940395,1,1,1520.0999999940395
yjgKw5he,322zsn9z6jxccjxbpgrk4cn83gtt4w,3cp1to84pxe2bn5sb8v0x1go5hm25m,yjgKw5he,2020-0188,2021-10-15,10:00:28,11:20:30,NA,incomplete,false,NA,true,5,2,NA,NA,NA,right,present,NA,NA,m_l_062.jpg,purple,n_s_117.jpg,black,between,NA,NaN,NA,left,8796.699999988079,0,1,1432.5999999940395
yjgKw5he,322zsn9z6jxccjxbpgrk4cn83gtt4w,3cp1to84pxe2bn5sb8v0x1go5hm25m,yjgKw5he,2020-0188,2021-10-15,10:00:28,11:20:30,NA,incomplete,false,NA,true,5,3,NA,NA,NA,left,present,NA,NA,n_l_112.jpg,purple,n_l_037.jpg,purple,within,NA,NaN,NA,left,5716.5,1,1,1826.699999988079
yjgKw5he,322zsn9z6jxccjxbpgrk4cn83gtt4w,3cp1to84pxe2bn5sb8v0x1go5hm25m,yjgKw5he,2020-0188,2021-10-15,10:00:28,11:20:30,NA,incomplete,false,NA,true,5,4,NA,NA,NA,right,present,NA,NA,m_l_090.jpg,brown,n_s_063.jpg,brown,within,NA,NaN,NA,right,2176.699999988079,1,2,986.8000000119209
yjgKw5he,322zsn9z6jxccjxbpgrk4cn83gtt4w,3cp1to84pxe2bn5sb8v0x1go5hm25m,yjgKw5he,2020-0188,2021-10-15,10:00:28,11:20:30,NA,incomplete,false,NA,true,5,5,NA,NA,NA,left,present,NA,NA,m_s_079.jpg,white,m_s_082.jpg,white,within,NA,NaN,NA,right,1884,0,1,1607.9000000059605
yjgKw5he,322zsn9z6jxccjxbpgrk4cn83gtt4w,3cp1to84pxe2bn5sb8v0x1go5hm25m,yjgKw5he,2020-0188,2021-10-15,10:00:28,11:20:30,NA,incomplete,false,NA,true,5,6,NA,NA,NA,left,present,NA,NA,m_l_050.jpg,green,m_s_031.jpg,green,within,NA,NaN,NA,left,3247.300000011921,1,2,1261.5
yjgKw5he,322zsn9z6jxccjxbpgrk4cn83gtt4w,3cp1to84pxe2bn5sb8v0x1go5hm25m,yjgKw5he,2020-0188,2021-10-15,10:00:28,11:20:30,NA,incomplete,false,NA,true,5,7,NA,NA,NA,left,present,NA,NA,m_s_090.jpg,orange,n_s_083.jpg,orange,within,NA,NaN,NA,left,2036.699999988079,1,1,1593
yjgKw5he,322zsn9z6jxccjxbpgrk4cn83gtt4w,3cp1to84pxe2bn5sb8v0x1go5hm25m,yjgKw5he,2020-0188,2021-10-15,10:00:28,11:20:30,NA,incomplete,false,NA,true,5,8,NA,NA,NA,right,present,NA,NA,m_l_113.jpg,black,n_s_108.jpg,black,within,NA,NaN,NA,right,1867.7000000178814,1,2,1541.800000011921
yjgKw5he,322zsn9z6jxccjxbpgrk4cn83gtt4w,3cp1to84pxe2bn5sb8v0x1go5hm25m,yjgKw5he,2020-0188,2021-10-15,10:00:28,11:20:30,NA,incomplete,false,NA,true,5,9,NA,NA,NA,right,present,NA,NA,n_l_113.jpg,brown,m_l_107.jpg,white,between,NA,NaN,NA,right,5708.0999999940395,1,1,1625.699999988079
yjgKw5he,322zsn9z6jxccjxbpgrk4cn83gtt4w,3cp1to84pxe2bn5sb8v0x1go5hm25m,yjgKw5he,2020-0188,2021-10-15,10:00:28,11:20:30,NA,incomplete,false,NA,true,5,10,NA,NA,NA,left,present,NA,NA,n_s_001.jpg,purple,n_l_074.jpg,green,between,NA,NaN,NA,right,2345.2999999821186,0,1,1200
yjgKw5he,322zsn9z6jxccjxbpgrk4cn83gtt4w,3cp1to84pxe2bn5sb8v0x1go5hm25m,yjgKw5he,2020-0188,2021-10-15,10:00:28,11:20:30,NA,incomplete,false,true,NA,6,0,NA,orange,n_s_054.jpg,NA,NA,unpleasant,pleasant,NA,NA,NA,NA,NA,right,1420.70000001788,true,NA,NA,NA,NA,NA
yjgKw5he,322zsn9z6jxccjxbpgrk4cn83gtt4w,3cp1to84pxe2bn5sb8v0x1go5hm25m,yjgKw5he,2020-0188,2021-10-15,10:00:28,11:20:30,NA,incomplete,false,true,NA,6,1,NA,orange,n_s_116.jpg,NA,NA,pleasant,unpleasant,NA,NA,NA,NA,NA,right,1030.40000000596,true,NA,NA,NA,NA,NA
yjgKw5he,322zsn9z6jxccjxbpgrk4cn83gtt4w,3cp1to84pxe2bn5sb8v0x1go5hm25m,yjgKw5he,2020-0188,2021-10-15,10:00:28,11:20:30,NA,incomplete,false,true,NA,6,2,NA,orange,n_s_076.jpg,NA,NA,unpleasant,pleasant,NA,NA,NA,NA,NA,right,1162.69999998808,true,NA,NA,NA,NA,NA
yjgKw5he,322zsn9z6jxccjxbpgrk4cn83gtt4w,3cp1to84pxe2bn5sb8v0x1go5hm25m,yjgKw5he,2020-0188,2021-10-15,10:00:28,11:20:30,NA,incomplete,false,true,NA,6,3,NA,orange,n_s_055.jpg,NA,NA,pleasant,unpleasant,NA,NA,NA,NA,NA,left,1292.59999999404,true,NA,NA,NA,NA,NA
yjgKw5he,322zsn9z6jxccjxbpgrk4cn83gtt4w,3cp1to84pxe2bn5sb8v0x1go5hm25m,yjgKw5he,2020-0188,2021-10-15,10:00:28,11:20:30,NA,incomplete,false,true,NA,6,4,NA,orange,m_s_086.jpg,NA,NA,pleasant,unpleasant,NA,NA,NA,NA,NA,right,1371.70000001788,true,NA,NA,NA,NA,NA
yjgKw5he,322zsn9z6jxccjxbpgrk4cn83gtt4w,3cp1to84pxe2bn5sb8v0x1go5hm25m,yjgKw5he,2020-0188,2021-10-15,10:00:28,11:20:30,NA,incomplete,false,true,NA,6,5,NA,orange,n_l_075.jpg,NA,NA,unpleasant,pleasant,NA,NA,NA,NA,NA,right,1278.10000002384,true,NA,NA,NA,NA,NA
yjgKw5he,322zsn9z6jxccjxbpgrk4cn83gtt4w,3cp1to84pxe2bn5sb8v0x1go5hm25m,yjgKw5he,2020-0188,2021-10-15,10:00:28,11:20:30,NA,incomplete,false,true,NA,6,6,NA,yellow,m_s_096.jpg,NA,NA,pleasant,unpleasant,NA,NA,NA,NA,NA,left,1483.40000000596,true,NA,NA,NA,NA,NA
yjgKw5he,322zsn9z6jxccjxbpgrk4cn83gtt4w,3cp1to84pxe2bn5sb8v0x1go5hm25m,yjgKw5he,2020-0188,2021-10-15,10:00:28,11:20:30,NA,incomplete,false,true,NA,6,7,NA,yellow,m_l_059.jpg,NA,NA,pleasant,unpleasant,NA,NA,NA,NA,NA,right,1694.20000001788,true,NA,NA,NA,NA,NA
yjgKw5he,322zsn9z6jxccjxbpgrk4cn83gtt4w,3cp1to84pxe2bn5sb8v0x1go5hm25m,yjgKw5he,2020-0188,2021-10-15,10:00:28,11:20:30,NA,incomplete,false,true,NA,6,8,NA,yellow,m_s_106.jpg,NA,NA,pleasant,unpleasant,NA,NA,NA,NA,NA,left,977,true,NA,NA,NA,NA,NA
yjgKw5he,322zsn9z6jxccjxbpgrk4cn83gtt4w,3cp1to84pxe2bn5sb8v0x1go5hm25m,yjgKw5he,2020-0188,2021-10-15,10:00:28,11:20:30,NA,incomplete,false,true,NA,6,9,NA,yellow,n_s_053.jpg,NA,NA,pleasant,unpleasant,NA,NA,NA,NA,NA,left,1586.69999998808,true,NA,NA,NA,NA,NA
yjgKw5he,322zsn9z6jxccjxbpgrk4cn83gtt4w,3cp1to84pxe2bn5sb8v0x1go5hm25m,yjgKw5he,2020-0188,2021-10-15,10:00:28,11:20:30,NA,incomplete,false,true,NA,6,10,NA,yellow,m_l_006.jpg,NA,NA,unpleasant,pleasant,NA,NA,NA,NA,NA,left,1547,true,NA,NA,NA,NA,NA
yjgKw5he,322zsn9z6jxccjxbpgrk4cn83gtt4w,3cp1to84pxe2bn5sb8v0x1go5hm25m,yjgKw5he,2020-0188,2021-10-15,10:00:28,11:20:30,NA,incomplete,false,true,NA,6,11,NA,yellow,m_l_038.jpg,NA,NA,pleasant,unpleasant,NA,NA,NA,NA,NA,right,1129.20000001788,true,NA,NA,NA,NA,NA
yjgKw5he,322zsn9z6jxccjxbpgrk4cn83gtt4w,3cp1to84pxe2bn5sb8v0x1go5hm25m,yjgKw5he,2020-0188,2021-10-15,10:00:28,11:20:30,NA,incomplete,false,true,NA,6,12,NA,brown,m_l_051.jpg,NA,NA,pleasant,unpleasant,NA,NA,NA,NA,NA,left,869.700000017881,true,NA,NA,NA,NA,NA
yjgKw5he,322zsn9z6jxccjxbpgrk4cn83gtt4w,3cp1to84pxe2bn5sb8v0x1go5hm25m,yjgKw5he,2020-0188,2021-10-15,10:00:28,11:20:30,NA,incomplete,false,true,NA,6,13,NA,brown,m_s_069.jpg,NA,NA,pleasant,unpleasant,NA,NA,NA,NA,NA,left,1419,true,NA,NA,NA,NA,NA
yjgKw5he,322zsn9z6jxccjxbpgrk4cn83gtt4w,3cp1to84pxe2bn5sb8v0x1go5hm25m,yjgKw5he,2020-0188,2021-10-15,10:00:28,11:20:30,NA,incomplete,false,true,NA,6,14,NA,brown,m_s_003.jpg,NA,NA,unpleasant,pleasant,NA,NA,NA,NA,NA,right,1068.90000000596,true,NA,NA,NA,NA,NA
yjgKw5he,322zsn9z6jxccjxbpgrk4cn83gtt4w,3cp1to84pxe2bn5sb8v0x1go5hm25m,yjgKw5he,2020-0188,2021-10-15,10:00:28,11:20:30,NA,incomplete,false,true,NA,6,15,NA,brown,n_s_002.jpg,NA,NA,pleasant,unpleasant,NA,NA,NA,NA,NA,left,1886.09999999404,true,NA,NA,NA,NA,NA
yjgKw5he,322zsn9z6jxccjxbpgrk4cn83gtt4w,3cp1to84pxe2bn5sb8v0x1go5hm25m,yjgKw5he,2020-0188,2021-10-15,10:00:28,11:20:30,NA,incomplete,false,true,NA,6,16,NA,brown,m_l_076.jpg,NA,NA,pleasant,unpleasant,NA,NA,NA,NA,NA,left,1415.79999998212,true,NA,NA,NA,NA,NA
yjgKw5he,322zsn9z6jxccjxbpgrk4cn83gtt4w,3cp1to84pxe2bn5sb8v0x1go5hm25m,yjgKw5he,2020-0188,2021-10-15,10:00:28,11:20:30,NA,incomplete,false,true,NA,6,17,NA,brown,m_s_060.jpg,NA,NA,unpleasant,pleasant,NA,NA,NA,NA,NA,right,2708.60000002384,true,NA,NA,NA,NA,NA
yjgKw5he,322zsn9z6jxccjxbpgrk4cn83gtt4w,3cp1to84pxe2bn5sb8v0x1go5hm25m,yjgKw5he,2020-0188,2021-10-15,10:00:28,11:20:30,NA,incomplete,false,true,NA,6,18,NA,black,m_s_008.jpg,NA,NA,unpleasant,pleasant,NA,NA,NA,NA,NA,right,1251.69999998808,true,NA,NA,NA,NA,NA
yjgKw5he,322zsn9z6jxccjxbpgrk4cn83gtt4w,3cp1to84pxe2bn5sb8v0x1go5hm25m,yjgKw5he,2020-0188,2021-10-15,10:00:28,11:20:30,NA,incomplete,false,true,NA,6,19,NA,black,m_l_029.jpg,NA,NA,pleasant,unpleasant,NA,NA,NA,NA,NA,left,992.299999982119,true,NA,NA,NA,NA,NA
yjgKw5he,322zsn9z6jxccjxbpgrk4cn83gtt4w,3cp1to84pxe2bn5sb8v0x1go5hm25m,yjgKw5he,2020-0188,2021-10-15,10:00:28,11:20:30,NA,incomplete,false,true,NA,6,20,NA,black,n_s_028.jpg,NA,NA,pleasant,unpleasant,NA,NA,NA,NA,NA,left,1129.69999998808,true,NA,NA,NA,NA,NA
yjgKw5he,322zsn9z6jxccjxbpgrk4cn83gtt4w,3cp1to84pxe2bn5sb8v0x1go5hm25m,yjgKw5he,2020-0188,2021-10-15,10:00:28,11:20:30,NA,incomplete,false,true,NA,6,21,NA,black,m_l_008.jpg,NA,NA,unpleasant,pleasant,NA,NA,NA,NA,NA,right,999.5,true,NA,NA,NA,NA,NA
yjgKw5he,322zsn9z6jxccjxbpgrk4cn83gtt4w,3cp1to84pxe2bn5sb8v0x1go5hm25m,yjgKw5he,2020-0188,2021-10-15,10:00:28,11:20:30,NA,incomplete,false,true,NA,6,22,NA,black,n_s_079.jpg,NA,NA,unpleasant,pleasant,NA,NA,NA,NA,NA,right,1041.5,true,NA,NA,NA,NA,NA
yjgKw5he,322zsn9z6jxccjxbpgrk4cn83gtt4w,3cp1to84pxe2bn5sb8v0x1go5hm25m,yjgKw5he,2020-0188,2021-10-15,10:00:28,11:20:30,NA,incomplete,false,true,NA,6,23,NA,black,m_s_017.jpg,NA,NA,pleasant,unpleasant,NA,NA,NA,NA,NA,left,2307.5,true,NA,NA,NA,NA,NA
yjgKw5he,322zsn9z6jxccjxbpgrk4cn83gtt4w,3cp1to84pxe2bn5sb8v0x1go5hm25m,yjgKw5he,2020-0188,2021-10-15,10:00:28,11:20:30,NA,incomplete,false,true,NA,6,24,NA,red,n_s_068.jpg,NA,NA,pleasant,unpleasant,NA,NA,NA,NA,NA,left,1269.70000001788,true,NA,NA,NA,NA,NA
yjgKw5he,322zsn9z6jxccjxbpgrk4cn83gtt4w,3cp1to84pxe2bn5sb8v0x1go5hm25m,yjgKw5he,2020-0188,2021-10-15,10:00:28,11:20:30,NA,incomplete,false,true,NA,6,25,NA,red,n_s_057.jpg,NA,NA,unpleasant,pleasant,NA,NA,NA,NA,NA,right,1170.5,true,NA,NA,NA,NA,NA
yjgKw5he,322zsn9z6jxccjxbpgrk4cn83gtt4w,3cp1to84pxe2bn5sb8v0x1go5hm25m,yjgKw5he,2020-0188,2021-10-15,10:00:28,11:20:30,NA,incomplete,false,true,NA,6,26,NA,red,m_s_056.jpg,NA,NA,unpleasant,pleasant,NA,NA,NA,NA,NA,right,1203.40000000596,true,NA,NA,NA,NA,NA
yjgKw5he,322zsn9z6jxccjxbpgrk4cn83gtt4w,3cp1to84pxe2bn5sb8v0x1go5hm25m,yjgKw5he,2020-0188,2021-10-15,10:00:28,11:20:30,NA,incomplete,false,true,NA,6,27,NA,red,n_l_106.jpg,NA,NA,unpleasant,pleasant,NA,NA,NA,NA,NA,left,371.799999982119,true,NA,NA,NA,NA,NA
yjgKw5he,322zsn9z6jxccjxbpgrk4cn83gtt4w,3cp1to84pxe2bn5sb8v0x1go5hm25m,yjgKw5he,2020-0188,2021-10-15,10:00:28,11:20:30,NA,incomplete,false,true,NA,6,28,NA,red,n_s_033.jpg,NA,NA,unpleasant,pleasant,NA,NA,NA,NA,NA,left,1498.30000001192,true,NA,NA,NA,NA,NA
yjgKw5he,322zsn9z6jxccjxbpgrk4cn83gtt4w,3cp1to84pxe2bn5sb8v0x1go5hm25m,yjgKw5he,2020-0188,2021-10-15,10:00:28,11:20:30,NA,incomplete,false,true,NA,6,29,NA,red,n_s_112.jpg,NA,NA,pleasant,unpleasant,NA,NA,NA,NA,NA,left,927.299999982119,true,NA,NA,NA,NA,NA
yjgKw5he,322zsn9z6jxccjxbpgrk4cn83gtt4w,3cp1to84pxe2bn5sb8v0x1go5hm25m,yjgKw5he,2020-0188,2021-10-15,10:00:28,11:20:30,NA,incomplete,false,true,NA,6,30,NA,white,m_s_024.jpg,NA,NA,unpleasant,pleasant,NA,NA,NA,NA,NA,left,1530.89999997616,true,NA,NA,NA,NA,NA
yjgKw5he,322zsn9z6jxccjxbpgrk4cn83gtt4w,3cp1to84pxe2bn5sb8v0x1go5hm25m,yjgKw5he,2020-0188,2021-10-15,10:00:28,11:20:30,NA,incomplete,false,true,NA,6,31,NA,white,m_l_079.jpg,NA,NA,pleasant,unpleasant,NA,NA,NA,NA,NA,right,873,true,NA,NA,NA,NA,NA
yjgKw5he,322zsn9z6jxccjxbpgrk4cn83gtt4w,3cp1to84pxe2bn5sb8v0x1go5hm25m,yjgKw5he,2020-0188,2021-10-15,10:00:28,11:20:30,NA,incomplete,false,true,NA,6,32,NA,white,m_l_016.jpg,NA,NA,unpleasant,pleasant,NA,NA,NA,NA,NA,right,872.90000000596,true,NA,NA,NA,NA,NA
yjgKw5he,322zsn9z6jxccjxbpgrk4cn83gtt4w,3cp1to84pxe2bn5sb8v0x1go5hm25m,yjgKw5he,2020-0188,2021-10-15,10:00:28,11:20:30,NA,incomplete,false,true,NA,6,33,NA,white,m_l_026.jpg,NA,NA,unpleasant,pleasant,NA,NA,NA,NA,NA,right,1072.90000000596,true,NA,NA,NA,NA,NA
yjgKw5he,322zsn9z6jxccjxbpgrk4cn83gtt4w,3cp1to84pxe2bn5sb8v0x1go5hm25m,yjgKw5he,2020-0188,2021-10-15,10:00:28,11:20:30,NA,incomplete,false,true,NA,6,34,NA,white,n_s_082.jpg,NA,NA,unpleasant,pleasant,NA,NA,NA,NA,NA,right,1036.5,true,NA,NA,NA,NA,NA
yjgKw5he,322zsn9z6jxccjxbpgrk4cn83gtt4w,3cp1to84pxe2bn5sb8v0x1go5hm25m,yjgKw5he,2020-0188,2021-10-15,10:00:28,11:20:30,NA,incomplete,false,true,NA,6,35,NA,white,n_l_092.jpg,NA,NA,pleasant,unpleasant,NA,NA,NA,NA,NA,left,986.40000000596,true,NA,NA,NA,NA,NA
yjgKw5he,322zsn9z6jxccjxbpgrk4cn83gtt4w,3cp1to84pxe2bn5sb8v0x1go5hm25m,yjgKw5he,2020-0188,2021-10-15,10:00:28,11:20:30,NA,incomplete,false,NA,true,6,0,NA,NA,NA,left,absent,NA,NA,m_s_086.jpg,orange,m_s_106.jpg,yellow,between,NA,NaN,NA,left,2645.899999976158,1,2,1227.3999999761581
yjgKw5he,322zsn9z6jxccjxbpgrk4cn83gtt4w,3cp1to84pxe2bn5sb8v0x1go5hm25m,yjgKw5he,2020-0188,2021-10-15,10:00:28,11:20:30,NA,incomplete,false,NA,true,6,1,NA,NA,NA,left,absent,NA,NA,n_s_079.jpg,black,m_s_056.jpg,red,between,NA,NaN,NA,right,3045.300000011921,0,2,1829.5
yjgKw5he,322zsn9z6jxccjxbpgrk4cn83gtt4w,3cp1to84pxe2bn5sb8v0x1go5hm25m,yjgKw5he,2020-0188,2021-10-15,10:00:28,11:20:30,NA,incomplete,false,NA,true,6,2,NA,NA,NA,left,absent,NA,NA,n_s_116.jpg,orange,n_l_075.jpg,orange,within,NA,NaN,NA,left,2195.199999988079,1,3,1192
yjgKw5he,322zsn9z6jxccjxbpgrk4cn83gtt4w,3cp1to84pxe2bn5sb8v0x1go5hm25m,yjgKw5he,2020-0188,2021-10-15,10:00:28,11:20:30,NA,incomplete,false,NA,true,6,3,NA,NA,NA,left,absent,NA,NA,m_l_029.jpg,black,m_s_017.jpg,black,within,NA,NaN,NA,right,6115.300000011921,0,1,1179.800000011921
yjgKw5he,322zsn9z6jxccjxbpgrk4cn83gtt4w,3cp1to84pxe2bn5sb8v0x1go5hm25m,yjgKw5he,2020-0188,2021-10-15,10:00:28,11:20:30,NA,incomplete,false,NA,true,6,4,NA,NA,NA,right,absent,NA,NA,m_l_038.jpg,yellow,m_l_059.jpg,yellow,within,NA,NaN,NA,right,2274.9000000059605,1,1,1365
yjgKw5he,322zsn9z6jxccjxbpgrk4cn83gtt4w,3cp1to84pxe2bn5sb8v0x1go5hm25m,yjgKw5he,2020-0188,2021-10-15,10:00:28,11:20:30,NA,incomplete,false,NA,true,6,5,NA,NA,NA,right,absent,NA,NA,m_s_003.jpg,brown,m_l_006.jpg,yellow,between,NA,NaN,NA,right,2914,1,1,1605.4000000059605
yjgKw5he,322zsn9z6jxccjxbpgrk4cn83gtt4w,3cp1to84pxe2bn5sb8v0x1go5hm25m,yjgKw5he,2020-0188,2021-10-15,10:00:28,11:20:30,NA,incomplete,false,NA,true,6,6,NA,NA,NA,right,absent,NA,NA,n_l_092.jpg,white,m_l_079.jpg,white,within,NA,NaN,NA,left,2356.399999976158,0,2,1014.9000000059605
yjgKw5he,322zsn9z6jxccjxbpgrk4cn83gtt4w,3cp1to84pxe2bn5sb8v0x1go5hm25m,yjgKw5he,2020-0188,2021-10-15,10:00:28,11:20:30,NA,incomplete,false,NA,true,6,7,NA,NA,NA,left,absent,NA,NA,n_s_057.jpg,red,n_s_112.jpg,red,within,NA,NaN,NA,right,6002.5,0,2,1453.0999999940395
yjgKw5he,322zsn9z6jxccjxbpgrk4cn83gtt4w,3cp1to84pxe2bn5sb8v0x1go5hm25m,yjgKw5he,2020-0188,2021-10-15,10:00:28,11:20:30,NA,incomplete,false,NA,true,6,8,NA,NA,NA,left,absent,NA,NA,m_s_069.jpg,brown,m_s_060.jpg,brown,within,NA,NaN,NA,left,7367.4000000059605,1,2,925
yjgKw5he,322zsn9z6jxccjxbpgrk4cn83gtt4w,3cp1to84pxe2bn5sb8v0x1go5hm25m,yjgKw5he,2020-0188,2021-10-15,10:00:28,11:20:30,NA,incomplete,false,NA,true,6,9,NA,NA,NA,left,absent,NA,NA,n_s_033.jpg,red,m_l_016.jpg,white,between,NA,NaN,NA,right,2378.300000011921,0,1,8163.0999999940395
yjgKw5he,322zsn9z6jxccjxbpgrk4cn83gtt4w,3cp1to84pxe2bn5sb8v0x1go5hm25m,yjgKw5he,2020-0188,2021-10-15,10:00:28,11:20:30,NA,incomplete,false,NA,true,6,10,NA,NA,NA,right,absent,NA,NA,n_s_028.jpg,black,m_l_076.jpg,brown,between,NA,NaN,NA,left,1873.2000000178814,0,2,995
yjgKw5he,322zsn9z6jxccjxbpgrk4cn83gtt4w,3cp1to84pxe2bn5sb8v0x1go5hm25m,yjgKw5he,2020-0188,2021-10-15,10:00:28,11:20:30,NA,incomplete,false,true,NA,7,0,NA,yellow,n_l_082.jpg,NA,NA,unpleasant,pleasant,NA,NA,NA,NA,NA,left,1175.89999997616,true,NA,NA,NA,NA,NA
yjgKw5he,322zsn9z6jxccjxbpgrk4cn83gtt4w,3cp1to84pxe2bn5sb8v0x1go5hm25m,yjgKw5he,2020-0188,2021-10-15,10:00:28,11:20:30,NA,incomplete,false,true,NA,7,1,NA,yellow,m_s_044.jpg,NA,NA,unpleasant,pleasant,NA,NA,NA,NA,NA,right,1473.90000000596,true,NA,NA,NA,NA,NA
yjgKw5he,322zsn9z6jxccjxbpgrk4cn83gtt4w,3cp1to84pxe2bn5sb8v0x1go5hm25m,yjgKw5he,2020-0188,2021-10-15,10:00:28,11:20:30,NA,incomplete,false,true,NA,7,2,NA,yellow,n_s_103.jpg,NA,NA,unpleasant,pleasant,NA,NA,NA,NA,NA,right,1101.19999998808,true,NA,NA,NA,NA,NA
yjgKw5he,322zsn9z6jxccjxbpgrk4cn83gtt4w,3cp1to84pxe2bn5sb8v0x1go5hm25m,yjgKw5he,2020-0188,2021-10-15,10:00:28,11:20:30,NA,incomplete,false,true,NA,7,3,NA,yellow,n_s_105.jpg,NA,NA,unpleasant,pleasant,NA,NA,NA,NA,NA,right,1146.79999998212,true,NA,NA,NA,NA,NA
yjgKw5he,322zsn9z6jxccjxbpgrk4cn83gtt4w,3cp1to84pxe2bn5sb8v0x1go5hm25m,yjgKw5he,2020-0188,2021-10-15,10:00:28,11:20:30,NA,incomplete,false,true,NA,7,4,NA,yellow,m_s_029.jpg,NA,NA,unpleasant,pleasant,NA,NA,NA,NA,NA,right,1602.40000000596,true,NA,NA,NA,NA,NA
yjgKw5he,322zsn9z6jxccjxbpgrk4cn83gtt4w,3cp1to84pxe2bn5sb8v0x1go5hm25m,yjgKw5he,2020-0188,2021-10-15,10:00:28,11:20:30,NA,incomplete,false,true,NA,7,5,NA,yellow,m_l_095.jpg,NA,NA,unpleasant,pleasant,NA,NA,NA,NA,NA,right,968.100000023842,true,NA,NA,NA,NA,NA
yjgKw5he,322zsn9z6jxccjxbpgrk4cn83gtt4w,3cp1to84pxe2bn5sb8v0x1go5hm25m,yjgKw5he,2020-0188,2021-10-15,10:00:28,11:20:30,NA,incomplete,false,true,NA,7,6,NA,gray,m_s_004.jpg,NA,NA,pleasant,unpleasant,NA,NA,NA,NA,NA,right,1701,true,NA,NA,NA,NA,NA
yjgKw5he,322zsn9z6jxccjxbpgrk4cn83gtt4w,3cp1to84pxe2bn5sb8v0x1go5hm25m,yjgKw5he,2020-0188,2021-10-15,10:00:28,11:20:30,NA,incomplete,false,true,NA,7,7,NA,gray,n_l_089.jpg,NA,NA,pleasant,unpleasant,NA,NA,NA,NA,NA,left,1182.19999998808,true,NA,NA,NA,NA,NA
yjgKw5he,322zsn9z6jxccjxbpgrk4cn83gtt4w,3cp1to84pxe2bn5sb8v0x1go5hm25m,yjgKw5he,2020-0188,2021-10-15,10:00:28,11:20:30,NA,incomplete,false,true,NA,7,8,NA,gray,n_l_046.jpg,NA,NA,unpleasant,pleasant,NA,NA,NA,NA,NA,right,1128.40000000596,true,NA,NA,NA,NA,NA
yjgKw5he,322zsn9z6jxccjxbpgrk4cn83gtt4w,3cp1to84pxe2bn5sb8v0x1go5hm25m,yjgKw5he,2020-0188,2021-10-15,10:00:28,11:20:30,NA,incomplete,false,true,NA,7,9,NA,gray,m_s_050.jpg,NA,NA,pleasant,unpleasant,NA,NA,NA,NA,NA,right,1203.20000001788,true,NA,NA,NA,NA,NA
yjgKw5he,322zsn9z6jxccjxbpgrk4cn83gtt4w,3cp1to84pxe2bn5sb8v0x1go5hm25m,yjgKw5he,2020-0188,2021-10-15,10:00:28,11:20:30,NA,incomplete,false,true,NA,7,10,NA,gray,n_s_099.jpg,NA,NA,pleasant,unpleasant,NA,NA,NA,NA,NA,left,875.699999988079,true,NA,NA,NA,NA,NA
yjgKw5he,322zsn9z6jxccjxbpgrk4cn83gtt4w,3cp1to84pxe2bn5sb8v0x1go5hm25m,yjgKw5he,2020-0188,2021-10-15,10:00:28,11:20:30,NA,incomplete,false,true,NA,7,11,NA,gray,n_l_076.jpg,NA,NA,unpleasant,pleasant,NA,NA,NA,NA,NA,right,990.800000011921,true,NA,NA,NA,NA,NA
yjgKw5he,322zsn9z6jxccjxbpgrk4cn83gtt4w,3cp1to84pxe2bn5sb8v0x1go5hm25m,yjgKw5he,2020-0188,2021-10-15,10:00:28,11:20:30,NA,incomplete,false,true,NA,7,12,NA,blue,n_s_107.jpg,NA,NA,pleasant,unpleasant,NA,NA,NA,NA,NA,left,830.90000000596,true,NA,NA,NA,NA,NA
yjgKw5he,322zsn9z6jxccjxbpgrk4cn83gtt4w,3cp1to84pxe2bn5sb8v0x1go5hm25m,yjgKw5he,2020-0188,2021-10-15,10:00:28,11:20:30,NA,incomplete,false,true,NA,7,13,NA,blue,m_l_067.jpg,NA,NA,pleasant,unpleasant,NA,NA,NA,NA,NA,left,1146.19999998808,true,NA,NA,NA,NA,NA
yjgKw5he,322zsn9z6jxccjxbpgrk4cn83gtt4w,3cp1to84pxe2bn5sb8v0x1go5hm25m,yjgKw5he,2020-0188,2021-10-15,10:00:28,11:20:30,NA,incomplete,false,true,NA,7,14,NA,blue,n_l_009.jpg,NA,NA,unpleasant,pleasant,NA,NA,NA,NA,NA,right,1022,true,NA,NA,NA,NA,NA
yjgKw5he,322zsn9z6jxccjxbpgrk4cn83gtt4w,3cp1to84pxe2bn5sb8v0x1go5hm25m,yjgKw5he,2020-0188,2021-10-15,10:00:28,11:20:30,NA,incomplete,false,true,NA,7,15,NA,blue,n_l_043.jpg,NA,NA,unpleasant,pleasant,NA,NA,NA,NA,NA,right,1201.40000000596,true,NA,NA,NA,NA,NA
yjgKw5he,322zsn9z6jxccjxbpgrk4cn83gtt4w,3cp1to84pxe2bn5sb8v0x1go5hm25m,yjgKw5he,2020-0188,2021-10-15,10:00:28,11:20:30,NA,incomplete,false,true,NA,7,16,NA,blue,n_s_029.jpg,NA,NA,unpleasant,pleasant,NA,NA,NA,NA,NA,right,897.90000000596,true,NA,NA,NA,NA,NA
yjgKw5he,322zsn9z6jxccjxbpgrk4cn83gtt4w,3cp1to84pxe2bn5sb8v0x1go5hm25m,yjgKw5he,2020-0188,2021-10-15,10:00:28,11:20:30,NA,incomplete,false,true,NA,7,17,NA,blue,n_s_052.jpg,NA,NA,pleasant,unpleasant,NA,NA,NA,NA,NA,left,1282.70000001788,true,NA,NA,NA,NA,NA
yjgKw5he,322zsn9z6jxccjxbpgrk4cn83gtt4w,3cp1to84pxe2bn5sb8v0x1go5hm25m,yjgKw5he,2020-0188,2021-10-15,10:00:28,11:20:30,NA,incomplete,false,true,NA,7,18,NA,red,n_l_073.jpg,NA,NA,pleasant,unpleasant,NA,NA,NA,NA,NA,left,1114.90000000596,true,NA,NA,NA,NA,NA
yjgKw5he,322zsn9z6jxccjxbpgrk4cn83gtt4w,3cp1to84pxe2bn5sb8v0x1go5hm25m,yjgKw5he,2020-0188,2021-10-15,10:00:28,11:20:30,NA,incomplete,false,true,NA,7,19,NA,red,m_s_088.jpg,NA,NA,unpleasant,pleasant,NA,NA,NA,NA,NA,right,1739.89999997616,true,NA,NA,NA,NA,NA
yjgKw5he,322zsn9z6jxccjxbpgrk4cn83gtt4w,3cp1to84pxe2bn5sb8v0x1go5hm25m,yjgKw5he,2020-0188,2021-10-15,10:00:28,11:20:30,NA,incomplete,false,true,NA,7,20,NA,red,n_s_036.jpg,NA,NA,unpleasant,pleasant,NA,NA,NA,NA,NA,right,1105,true,NA,NA,NA,NA,NA
yjgKw5he,322zsn9z6jxccjxbpgrk4cn83gtt4w,3cp1to84pxe2bn5sb8v0x1go5hm25m,yjgKw5he,2020-0188,2021-10-15,10:00:28,11:20:30,NA,incomplete,false,true,NA,7,21,NA,red,n_l_072.jpg,NA,NA,unpleasant,pleasant,NA,NA,NA,NA,NA,right,1768.09999999404,true,NA,NA,NA,NA,NA
yjgKw5he,322zsn9z6jxccjxbpgrk4cn83gtt4w,3cp1to84pxe2bn5sb8v0x1go5hm25m,yjgKw5he,2020-0188,2021-10-15,10:00:28,11:20:30,NA,incomplete,false,true,NA,7,22,NA,red,n_l_068.jpg,NA,NA,unpleasant,pleasant,NA,NA,NA,NA,NA,right,1034.80000001192,true,NA,NA,NA,NA,NA
yjgKw5he,322zsn9z6jxccjxbpgrk4cn83gtt4w,3cp1to84pxe2bn5sb8v0x1go5hm25m,yjgKw5he,2020-0188,2021-10-15,10:00:28,11:20:30,NA,incomplete,false,true,NA,7,23,NA,red,n_l_104.jpg,NA,NA,unpleasant,pleasant,NA,NA,NA,NA,NA,right,1058.5,true,NA,NA,NA,NA,NA
yjgKw5he,322zsn9z6jxccjxbpgrk4cn83gtt4w,3cp1to84pxe2bn5sb8v0x1go5hm25m,yjgKw5he,2020-0188,2021-10-15,10:00:28,11:20:30,NA,incomplete,false,true,NA,7,24,NA,white,n_s_078.jpg,NA,NA,unpleasant,pleasant,NA,NA,NA,NA,NA,left,1639,true,NA,NA,NA,NA,NA
yjgKw5he,322zsn9z6jxccjxbpgrk4cn83gtt4w,3cp1to84pxe2bn5sb8v0x1go5hm25m,yjgKw5he,2020-0188,2021-10-15,10:00:28,11:20:30,NA,incomplete,false,true,NA,7,25,NA,white,m_s_045.jpg,NA,NA,unpleasant,pleasant,NA,NA,NA,NA,NA,right,861,true,NA,NA,NA,NA,NA
yjgKw5he,322zsn9z6jxccjxbpgrk4cn83gtt4w,3cp1to84pxe2bn5sb8v0x1go5hm25m,yjgKw5he,2020-0188,2021-10-15,10:00:28,11:20:30,NA,incomplete,false,true,NA,7,26,NA,white,n_l_099.jpg,NA,NA,pleasant,unpleasant,NA,NA,NA,NA,NA,left,941.59999999404,true,NA,NA,NA,NA,NA
yjgKw5he,322zsn9z6jxccjxbpgrk4cn83gtt4w,3cp1to84pxe2bn5sb8v0x1go5hm25m,yjgKw5he,2020-0188,2021-10-15,10:00:28,11:20:30,NA,incomplete,false,true,NA,7,27,NA,white,m_s_105.jpg,NA,NA,unpleasant,pleasant,NA,NA,NA,NA,NA,right,931.59999999404,true,NA,NA,NA,NA,NA
yjgKw5he,322zsn9z6jxccjxbpgrk4cn83gtt4w,3cp1to84pxe2bn5sb8v0x1go5hm25m,yjgKw5he,2020-0188,2021-10-15,10:00:28,11:20:30,NA,incomplete,false,true,NA,7,28,NA,white,n_l_108.jpg,NA,NA,pleasant,unpleasant,NA,NA,NA,NA,NA,left,994.40000000596,true,NA,NA,NA,NA,NA
yjgKw5he,322zsn9z6jxccjxbpgrk4cn83gtt4w,3cp1to84pxe2bn5sb8v0x1go5hm25m,yjgKw5he,2020-0188,2021-10-15,10:00:28,11:20:30,NA,incomplete,false,true,NA,7,29,NA,white,n_l_116.jpg,NA,NA,pleasant,unpleasant,NA,NA,NA,NA,NA,left,959.200000017881,true,NA,NA,NA,NA,NA
yjgKw5he,322zsn9z6jxccjxbpgrk4cn83gtt4w,3cp1to84pxe2bn5sb8v0x1go5hm25m,yjgKw5he,2020-0188,2021-10-15,10:00:28,11:20:30,NA,incomplete,false,true,NA,7,30,NA,black,n_l_033.jpg,NA,NA,pleasant,unpleasant,NA,NA,NA,NA,NA,left,926.40000000596,true,NA,NA,NA,NA,NA
yjgKw5he,322zsn9z6jxccjxbpgrk4cn83gtt4w,3cp1to84pxe2bn5sb8v0x1go5hm25m,yjgKw5he,2020-0188,2021-10-15,10:00:28,11:20:30,NA,incomplete,false,true,NA,7,31,NA,black,n_l_058.jpg,NA,NA,unpleasant,pleasant,NA,NA,NA,NA,NA,right,1017.09999999404,true,NA,NA,NA,NA,NA
yjgKw5he,322zsn9z6jxccjxbpgrk4cn83gtt4w,3cp1to84pxe2bn5sb8v0x1go5hm25m,yjgKw5he,2020-0188,2021-10-15,10:00:28,11:20:30,NA,incomplete,false,true,NA,7,32,NA,black,m_l_010.jpg,NA,NA,pleasant,unpleasant,NA,NA,NA,NA,NA,left,827.299999982119,true,NA,NA,NA,NA,NA
yjgKw5he,322zsn9z6jxccjxbpgrk4cn83gtt4w,3cp1to84pxe2bn5sb8v0x1go5hm25m,yjgKw5he,2020-0188,2021-10-15,10:00:28,11:20:30,NA,incomplete,false,true,NA,7,33,NA,black,m_s_036.jpg,NA,NA,pleasant,unpleasant,NA,NA,NA,NA,NA,left,1081.90000000596,true,NA,NA,NA,NA,NA
yjgKw5he,322zsn9z6jxccjxbpgrk4cn83gtt4w,3cp1to84pxe2bn5sb8v0x1go5hm25m,yjgKw5he,2020-0188,2021-10-15,10:00:28,11:20:30,NA,incomplete,false,true,NA,7,34,NA,black,m_l_011.jpg,NA,NA,pleasant,unpleasant,NA,NA,NA,NA,NA,left,888.800000011921,true,NA,NA,NA,NA,NA
yjgKw5he,322zsn9z6jxccjxbpgrk4cn83gtt4w,3cp1to84pxe2bn5sb8v0x1go5hm25m,yjgKw5he,2020-0188,2021-10-15,10:00:28,11:20:30,NA,incomplete,false,true,NA,7,35,NA,black,m_l_039.jpg,NA,NA,pleasant,unpleasant,NA,NA,NA,NA,NA,left,754,true,NA,NA,NA,NA,NA
yjgKw5he,322zsn9z6jxccjxbpgrk4cn83gtt4w,3cp1to84pxe2bn5sb8v0x1go5hm25m,yjgKw5he,2020-0188,2021-10-15,10:00:28,11:20:30,NA,incomplete,false,NA,true,7,0,NA,NA,NA,left,absent,NA,NA,n_s_099.jpg,gray,n_l_009.jpg,blue,between,NA,NaN,NA,right,2105.800000011921,0,2,1118
yjgKw5he,322zsn9z6jxccjxbpgrk4cn83gtt4w,3cp1to84pxe2bn5sb8v0x1go5hm25m,yjgKw5he,2020-0188,2021-10-15,10:00:28,11:20:30,NA,incomplete,false,NA,true,7,1,NA,NA,NA,right,absent,NA,NA,n_l_076.jpg,gray,n_l_089.jpg,gray,within,NA,NaN,NA,right,4297.200000017881,1,1,994
yjgKw5he,322zsn9z6jxccjxbpgrk4cn83gtt4w,3cp1to84pxe2bn5sb8v0x1go5hm25m,yjgKw5he,2020-0188,2021-10-15,10:00:28,11:20:30,NA,incomplete,false,NA,true,7,2,NA,NA,NA,left,absent,NA,NA,m_s_088.jpg,red,n_l_104.jpg,red,within,NA,NaN,NA,left,3210.7000000178814,1,2,2634.0999999940395
yjgKw5he,322zsn9z6jxccjxbpgrk4cn83gtt4w,3cp1to84pxe2bn5sb8v0x1go5hm25m,yjgKw5he,2020-0188,2021-10-15,10:00:28,11:20:30,NA,incomplete,false,NA,true,7,3,NA,NA,NA,right,absent,NA,NA,m_l_095.jpg,yellow,m_s_044.jpg,yellow,within,NA,NaN,NA,right,3671.199999988079,1,3,1694.800000011921
yjgKw5he,322zsn9z6jxccjxbpgrk4cn83gtt4w,3cp1to84pxe2bn5sb8v0x1go5hm25m,yjgKw5he,2020-0188,2021-10-15,10:00:28,11:20:30,NA,incomplete,false,NA,true,7,4,NA,NA,NA,left,absent,NA,NA,m_s_045.jpg,white,n_l_116.jpg,white,within,NA,NaN,NA,left,2038.300000011921,1,2,1226.5
yjgKw5he,322zsn9z6jxccjxbpgrk4cn83gtt4w,3cp1to84pxe2bn5sb8v0x1go5hm25m,yjgKw5he,2020-0188,2021-10-15,10:00:28,11:20:30,NA,incomplete,false,NA,true,7,5,NA,NA,NA,left,absent,NA,NA,n_l_058.jpg,black,m_l_039.jpg,black,within,NA,NaN,NA,left,2983.5,1,2,1126.7000000178814
yjgKw5he,322zsn9z6jxccjxbpgrk4cn83gtt4w,3cp1to84pxe2bn5sb8v0x1go5hm25m,yjgKw5he,2020-0188,2021-10-15,10:00:28,11:20:30,NA,incomplete,false,NA,true,7,6,NA,NA,NA,left,absent,NA,NA,n_s_029.jpg,blue,n_s_036.jpg,red,between,NA,NaN,NA,right,2585.5999999940395,0,1,1276.2000000178814
yjgKw5he,322zsn9z6jxccjxbpgrk4cn83gtt4w,3cp1to84pxe2bn5sb8v0x1go5hm25m,yjgKw5he,2020-0188,2021-10-15,10:00:28,11:20:30,NA,incomplete,false,NA,true,7,7,NA,NA,NA,left,absent,NA,NA,n_l_068.jpg,red,n_l_099.jpg,white,between,NA,NaN,NA,left,4121,1,1,1172.300000011921
yjgKw5he,322zsn9z6jxccjxbpgrk4cn83gtt4w,3cp1to84pxe2bn5sb8v0x1go5hm25m,yjgKw5he,2020-0188,2021-10-15,10:00:28,11:20:30,NA,incomplete,false,NA,true,7,8,NA,NA,NA,right,absent,NA,NA,n_s_052.jpg,blue,m_l_067.jpg,blue,within,NA,NaN,NA,left,3004,0,2,1164.0999999940395
yjgKw5he,322zsn9z6jxccjxbpgrk4cn83gtt4w,3cp1to84pxe2bn5sb8v0x1go5hm25m,yjgKw5he,2020-0188,2021-10-15,10:00:28,11:20:30,NA,incomplete,false,NA,true,7,9,NA,NA,NA,right,absent,NA,NA,n_l_046.jpg,gray,m_s_029.jpg,yellow,between,NA,NaN,NA,right,2529.5,1,2,1420
yjgKw5he,322zsn9z6jxccjxbpgrk4cn83gtt4w,3cp1to84pxe2bn5sb8v0x1go5hm25m,yjgKw5he,2020-0188,2021-10-15,10:00:28,11:20:30,NA,incomplete,false,NA,true,7,10,NA,NA,NA,right,absent,NA,NA,m_l_010.jpg,black,n_l_108.jpg,white,between,NA,NaN,NA,right,2634.0999999940395,1,2,1756.5999999940395
yjgKw5he,322zsn9z6jxccjxbpgrk4cn83gtt4w,3cp1to84pxe2bn5sb8v0x1go5hm25m,yjgKw5he,2020-0188,2021-10-15,10:00:28,11:20:30,NA,incomplete,false,true,NA,8,0,NA,white,n_l_048.jpg,NA,NA,pleasant,unpleasant,NA,NA,NA,NA,NA,left,1172.40000000596,true,NA,NA,NA,NA,NA
yjgKw5he,322zsn9z6jxccjxbpgrk4cn83gtt4w,3cp1to84pxe2bn5sb8v0x1go5hm25m,yjgKw5he,2020-0188,2021-10-15,10:00:28,11:20:30,NA,incomplete,false,true,NA,8,1,NA,white,m_s_098.jpg,NA,NA,unpleasant,pleasant,NA,NA,NA,NA,NA,right,1561.60000002384,true,NA,NA,NA,NA,NA
yjgKw5he,322zsn9z6jxccjxbpgrk4cn83gtt4w,3cp1to84pxe2bn5sb8v0x1go5hm25m,yjgKw5he,2020-0188,2021-10-15,10:00:28,11:20:30,NA,incomplete,false,true,NA,8,2,NA,white,m_s_063.jpg,NA,NA,pleasant,unpleasant,NA,NA,NA,NA,NA,left,904.300000011921,true,NA,NA,NA,NA,NA
yjgKw5he,322zsn9z6jxccjxbpgrk4cn83gtt4w,3cp1to84pxe2bn5sb8v0x1go5hm25m,yjgKw5he,2020-0188,2021-10-15,10:00:28,11:20:30,NA,incomplete,false,true,NA,8,3,NA,white,n_s_035.jpg,NA,NA,unpleasant,pleasant,NA,NA,NA,NA,NA,right,1123.69999998808,true,NA,NA,NA,NA,NA
yjgKw5he,322zsn9z6jxccjxbpgrk4cn83gtt4w,3cp1to84pxe2bn5sb8v0x1go5hm25m,yjgKw5he,2020-0188,2021-10-15,10:00:28,11:20:30,NA,incomplete,false,true,NA,8,4,NA,white,n_s_015.jpg,NA,NA,pleasant,unpleasant,NA,NA,NA,NA,NA,left,1072.90000000596,true,NA,NA,NA,NA,NA
yjgKw5he,322zsn9z6jxccjxbpgrk4cn83gtt4w,3cp1to84pxe2bn5sb8v0x1go5hm25m,yjgKw5he,2020-0188,2021-10-15,10:00:28,11:20:30,NA,incomplete,false,true,NA,8,5,NA,white,n_l_088.jpg,NA,NA,unpleasant,pleasant,NA,NA,NA,NA,NA,right,1057.90000000596,true,NA,NA,NA,NA,NA
yjgKw5he,322zsn9z6jxccjxbpgrk4cn83gtt4w,3cp1to84pxe2bn5sb8v0x1go5hm25m,yjgKw5he,2020-0188,2021-10-15,10:00:28,11:20:30,NA,incomplete,false,true,NA,8,6,NA,brown,n_l_002.jpg,NA,NA,pleasant,unpleasant,NA,NA,NA,NA,NA,left,791.600000023842,true,NA,NA,NA,NA,NA
yjgKw5he,322zsn9z6jxccjxbpgrk4cn83gtt4w,3cp1to84pxe2bn5sb8v0x1go5hm25m,yjgKw5he,2020-0188,2021-10-15,10:00:28,11:20:30,NA,incomplete,false,true,NA,8,7,NA,brown,n_l_010.jpg,NA,NA,pleasant,unpleasant,NA,NA,NA,NA,NA,left,889.300000011921,true,NA,NA,NA,NA,NA
yjgKw5he,322zsn9z6jxccjxbpgrk4cn83gtt4w,3cp1to84pxe2bn5sb8v0x1go5hm25m,yjgKw5he,2020-0188,2021-10-15,10:00:28,11:20:30,NA,incomplete,false,true,NA,8,8,NA,brown,n_s_089.jpg,NA,NA,pleasant,unpleasant,NA,NA,NA,NA,NA,left,850.59999999404,true,NA,NA,NA,NA,NA
yjgKw5he,322zsn9z6jxccjxbpgrk4cn83gtt4w,3cp1to84pxe2bn5sb8v0x1go5hm25m,yjgKw5he,2020-0188,2021-10-15,10:00:28,11:20:30,NA,incomplete,false,true,NA,8,9,NA,brown,n_l_026.jpg,NA,NA,pleasant,unpleasant,NA,NA,NA,NA,NA,left,889.5,true,NA,NA,NA,NA,NA
