workerId,hitId,assignmentId,subject,studyid,exp_date,exp_start,exp_end,time_start,time_end,practice,encoding,memory,block,trial,event_order,event,stim,answer,context_type,label_left,label_right,left_image,left_event,right_image,right_event,condition,response,response_time,response_acc,order_response,order_response_time,order_acc,distance_response,distance_response_time
yk5LeYia,3o4vwc1gfzjxgki2d88xs18tr9fj3v,3n2bf7y2vu74yktgmsft17xcgsuhm3,yk5LeYia,2020-0188,2021-10-14,14:57:26,16:22:37,NA,incomplete,true,true,NA,0,0,NA,white,m_s_068.jpg,NA,NA,unpleasant,pleasant,NA,NA,NA,NA,NA,right,1489.09999999404,true,NA,NA,NA,NA,NA
yk5LeYia,3o4vwc1gfzjxgki2d88xs18tr9fj3v,3n2bf7y2vu74yktgmsft17xcgsuhm3,yk5LeYia,2020-0188,2021-10-14,14:57:26,16:22:37,NA,incomplete,true,true,NA,0,1,NA,white,m_s_093.jpg,NA,NA,unpleasant,pleasant,NA,NA,NA,NA,NA,right,905.800000011921,true,NA,NA,NA,NA,NA
yk5LeYia,3o4vwc1gfzjxgki2d88xs18tr9fj3v,3n2bf7y2vu74yktgmsft17xcgsuhm3,yk5LeYia,2020-0188,2021-10-14,14:57:26,16:22:37,NA,incomplete,true,true,NA,0,2,NA,white,m_l_028.jpg,NA,NA,pleasant,unpleasant,NA,NA,NA,NA,NA,right,1812.5,true,NA,NA,NA,NA,NA
yk5LeYia,3o4vwc1gfzjxgki2d88xs18tr9fj3v,3n2bf7y2vu74yktgmsft17xcgsuhm3,yk5LeYia,2020-0188,2021-10-14,14:57:26,16:22:37,NA,incomplete,true,true,NA,0,3,NA,white,n_s_084.jpg,NA,NA,pleasant,unpleasant,NA,NA,NA,NA,NA,right,747.300000011921,true,NA,NA,NA,NA,NA
yk5LeYia,3o4vwc1gfzjxgki2d88xs18tr9fj3v,3n2bf7y2vu74yktgmsft17xcgsuhm3,yk5LeYia,2020-0188,2021-10-14,14:57:26,16:22:37,NA,incomplete,true,true,NA,0,4,NA,white,n_s_116.jpg,NA,NA,unpleasant,pleasant,NA,NA,NA,NA,NA,left,901.399999991059,true,NA,NA,NA,NA,NA
yk5LeYia,3o4vwc1gfzjxgki2d88xs18tr9fj3v,3n2bf7y2vu74yktgmsft17xcgsuhm3,yk5LeYia,2020-0188,2021-10-14,14:57:26,16:22:37,NA,incomplete,true,true,NA,0,5,NA,white,m_s_080.jpg,NA,NA,pleasant,unpleasant,NA,NA,NA,NA,NA,right,919.09999999404,true,NA,NA,NA,NA,NA
yk5LeYia,3o4vwc1gfzjxgki2d88xs18tr9fj3v,3n2bf7y2vu74yktgmsft17xcgsuhm3,yk5LeYia,2020-0188,2021-10-14,14:57:26,16:22:37,NA,incomplete,true,true,NA,0,6,NA,orange,m_s_007.jpg,NA,NA,unpleasant,pleasant,NA,NA,NA,NA,NA,right,1456.59999999404,true,NA,NA,NA,NA,NA
yk5LeYia,3o4vwc1gfzjxgki2d88xs18tr9fj3v,3n2bf7y2vu74yktgmsft17xcgsuhm3,yk5LeYia,2020-0188,2021-10-14,14:57:26,16:22:37,NA,incomplete,true,true,NA,0,7,NA,orange,n_s_039.jpg,NA,NA,pleasant,unpleasant,NA,NA,NA,NA,NA,none,0,false,NA,NA,NA,NA,NA
yk5LeYia,3o4vwc1gfzjxgki2d88xs18tr9fj3v,3n2bf7y2vu74yktgmsft17xcgsuhm3,yk5LeYia,2020-0188,2021-10-14,14:57:26,16:22:37,NA,incomplete,true,true,NA,0,8,NA,orange,m_s_074.jpg,NA,NA,unpleasant,pleasant,NA,NA,NA,NA,NA,left,3059.39999999106,true,NA,NA,NA,NA,NA
yk5LeYia,3o4vwc1gfzjxgki2d88xs18tr9fj3v,3n2bf7y2vu74yktgmsft17xcgsuhm3,yk5LeYia,2020-0188,2021-10-14,14:57:26,16:22:37,NA,incomplete,true,true,NA,0,9,NA,orange,m_s_072.jpg,NA,NA,unpleasant,pleasant,NA,NA,NA,NA,NA,left,2133.40000000596,true,NA,NA,NA,NA,NA
yk5LeYia,3o4vwc1gfzjxgki2d88xs18tr9fj3v,3n2bf7y2vu74yktgmsft17xcgsuhm3,yk5LeYia,2020-0188,2021-10-14,14:57:26,16:22:37,NA,incomplete,true,true,NA,0,10,NA,orange,m_s_061.jpg,NA,NA,pleasant,unpleasant,NA,NA,NA,NA,NA,right,1763.29999999702,true,NA,NA,NA,NA,NA
yk5LeYia,3o4vwc1gfzjxgki2d88xs18tr9fj3v,3n2bf7y2vu74yktgmsft17xcgsuhm3,yk5LeYia,2020-0188,2021-10-14,14:57:26,16:22:37,NA,incomplete,true,true,NA,0,11,NA,orange,m_s_106.jpg,NA,NA,unpleasant,pleasant,NA,NA,NA,NA,NA,right,3471.09999999404,true,NA,NA,NA,NA,NA
yk5LeYia,3o4vwc1gfzjxgki2d88xs18tr9fj3v,3n2bf7y2vu74yktgmsft17xcgsuhm3,yk5LeYia,2020-0188,2021-10-14,14:57:26,16:22:37,NA,incomplete,true,true,NA,0,12,NA,brown,m_s_015.jpg,NA,NA,unpleasant,pleasant,NA,NA,NA,NA,NA,left,2444.29999999702,true,NA,NA,NA,NA,NA
yk5LeYia,3o4vwc1gfzjxgki2d88xs18tr9fj3v,3n2bf7y2vu74yktgmsft17xcgsuhm3,yk5LeYia,2020-0188,2021-10-14,14:57:26,16:22:37,NA,incomplete,true,true,NA,0,13,NA,brown,n_l_110.jpg,NA,NA,pleasant,unpleasant,NA,NA,NA,NA,NA,right,1903.30000001192,true,NA,NA,NA,NA,NA
yk5LeYia,3o4vwc1gfzjxgki2d88xs18tr9fj3v,3n2bf7y2vu74yktgmsft17xcgsuhm3,yk5LeYia,2020-0188,2021-10-14,14:57:26,16:22:37,NA,incomplete,true,true,NA,0,14,NA,brown,m_l_044.jpg,NA,NA,unpleasant,pleasant,NA,NA,NA,NA,NA,left,2231.60000000894,true,NA,NA,NA,NA,NA
yk5LeYia,3o4vwc1gfzjxgki2d88xs18tr9fj3v,3n2bf7y2vu74yktgmsft17xcgsuhm3,yk5LeYia,2020-0188,2021-10-14,14:57:26,16:22:37,NA,incomplete,true,true,NA,0,15,NA,brown,n_s_056.jpg,NA,NA,unpleasant,pleasant,NA,NA,NA,NA,NA,right,2878.70000000298,true,NA,NA,NA,NA,NA
yk5LeYia,3o4vwc1gfzjxgki2d88xs18tr9fj3v,3n2bf7y2vu74yktgmsft17xcgsuhm3,yk5LeYia,2020-0188,2021-10-14,14:57:26,16:22:37,NA,incomplete,true,true,NA,0,16,NA,brown,n_l_091.jpg,NA,NA,unpleasant,pleasant,NA,NA,NA,NA,NA,right,2193.20000000298,true,NA,NA,NA,NA,NA
yk5LeYia,3o4vwc1gfzjxgki2d88xs18tr9fj3v,3n2bf7y2vu74yktgmsft17xcgsuhm3,yk5LeYia,2020-0188,2021-10-14,14:57:26,16:22:37,NA,incomplete,true,true,NA,0,17,NA,brown,m_s_086.jpg,NA,NA,unpleasant,pleasant,NA,NA,NA,NA,NA,left,1976.70000000298,true,NA,NA,NA,NA,NA
yk5LeYia,3o4vwc1gfzjxgki2d88xs18tr9fj3v,3n2bf7y2vu74yktgmsft17xcgsuhm3,yk5LeYia,2020-0188,2021-10-14,14:57:26,16:22:37,NA,incomplete,true,true,NA,0,18,NA,blue,n_s_009.jpg,NA,NA,pleasant,unpleasant,NA,NA,NA,NA,NA,left,2914.59999999404,true,NA,NA,NA,NA,NA
yk5LeYia,3o4vwc1gfzjxgki2d88xs18tr9fj3v,3n2bf7y2vu74yktgmsft17xcgsuhm3,yk5LeYia,2020-0188,2021-10-14,14:57:26,16:22:37,NA,incomplete,true,true,NA,0,19,NA,blue,m_l_082.jpg,NA,NA,unpleasant,pleasant,NA,NA,NA,NA,NA,right,3303.89999999106,true,NA,NA,NA,NA,NA
yk5LeYia,3o4vwc1gfzjxgki2d88xs18tr9fj3v,3n2bf7y2vu74yktgmsft17xcgsuhm3,yk5LeYia,2020-0188,2021-10-14,14:57:26,16:22:37,NA,incomplete,true,true,NA,0,20,NA,blue,n_l_108.jpg,NA,NA,unpleasant,pleasant,NA,NA,NA,NA,NA,right,1359.5,true,NA,NA,NA,NA,NA
yk5LeYia,3o4vwc1gfzjxgki2d88xs18tr9fj3v,3n2bf7y2vu74yktgmsft17xcgsuhm3,yk5LeYia,2020-0188,2021-10-14,14:57:26,16:22:37,NA,incomplete,true,true,NA,0,21,NA,blue,m_s_060.jpg,NA,NA,unpleasant,pleasant,NA,NA,NA,NA,NA,left,2206.90000000596,true,NA,NA,NA,NA,NA
yk5LeYia,3o4vwc1gfzjxgki2d88xs18tr9fj3v,3n2bf7y2vu74yktgmsft17xcgsuhm3,yk5LeYia,2020-0188,2021-10-14,14:57:26,16:22:37,NA,incomplete,true,true,NA,0,22,NA,blue,n_l_052.jpg,NA,NA,unpleasant,pleasant,NA,NA,NA,NA,NA,none,0,false,NA,NA,NA,NA,NA
yk5LeYia,3o4vwc1gfzjxgki2d88xs18tr9fj3v,3n2bf7y2vu74yktgmsft17xcgsuhm3,yk5LeYia,2020-0188,2021-10-14,14:57:26,16:22:37,NA,incomplete,true,true,NA,0,23,NA,blue,n_l_082.jpg,NA,NA,unpleasant,pleasant,NA,NA,NA,NA,NA,right,1337.40000000596,true,NA,NA,NA,NA,NA
yk5LeYia,3o4vwc1gfzjxgki2d88xs18tr9fj3v,3n2bf7y2vu74yktgmsft17xcgsuhm3,yk5LeYia,2020-0188,2021-10-14,14:57:26,16:22:37,NA,incomplete,true,true,NA,0,24,NA,green,n_l_023.jpg,NA,NA,pleasant,unpleasant,NA,NA,NA,NA,NA,left,1591.39999999106,true,NA,NA,NA,NA,NA
yk5LeYia,3o4vwc1gfzjxgki2d88xs18tr9fj3v,3n2bf7y2vu74yktgmsft17xcgsuhm3,yk5LeYia,2020-0188,2021-10-14,14:57:26,16:22:37,NA,incomplete,true,true,NA,0,25,NA,green,m_s_048.jpg,NA,NA,pleasant,unpleasant,NA,NA,NA,NA,NA,right,2981.79999999702,true,NA,NA,NA,NA,NA
yk5LeYia,3o4vwc1gfzjxgki2d88xs18tr9fj3v,3n2bf7y2vu74yktgmsft17xcgsuhm3,yk5LeYia,2020-0188,2021-10-14,14:57:26,16:22:37,NA,incomplete,true,true,NA,0,26,NA,green,n_s_077.jpg,NA,NA,pleasant,unpleasant,NA,NA,NA,NA,NA,right,1659.20000000298,true,NA,NA,NA,NA,NA
yk5LeYia,3o4vwc1gfzjxgki2d88xs18tr9fj3v,3n2bf7y2vu74yktgmsft17xcgsuhm3,yk5LeYia,2020-0188,2021-10-14,14:57:26,16:22:37,NA,incomplete,true,true,NA,0,27,NA,green,n_s_043.jpg,NA,NA,unpleasant,pleasant,NA,NA,NA,NA,NA,left,1578.40000000596,true,NA,NA,NA,NA,NA
yk5LeYia,3o4vwc1gfzjxgki2d88xs18tr9fj3v,3n2bf7y2vu74yktgmsft17xcgsuhm3,yk5LeYia,2020-0188,2021-10-14,14:57:26,16:22:37,NA,incomplete,true,true,NA,0,28,NA,green,m_l_069.jpg,NA,NA,pleasant,unpleasant,NA,NA,NA,NA,NA,right,1451.69999998808,true,NA,NA,NA,NA,NA
yk5LeYia,3o4vwc1gfzjxgki2d88xs18tr9fj3v,3n2bf7y2vu74yktgmsft17xcgsuhm3,yk5LeYia,2020-0188,2021-10-14,14:57:26,16:22:37,NA,incomplete,true,true,NA,0,29,NA,green,m_l_046.jpg,NA,NA,unpleasant,pleasant,NA,NA,NA,NA,NA,left,3454.70000000298,true,NA,NA,NA,NA,NA
yk5LeYia,3o4vwc1gfzjxgki2d88xs18tr9fj3v,3n2bf7y2vu74yktgmsft17xcgsuhm3,yk5LeYia,2020-0188,2021-10-14,14:57:26,16:22:37,NA,incomplete,true,true,NA,0,30,NA,black,m_s_107.jpg,NA,NA,unpleasant,pleasant,NA,NA,NA,NA,NA,right,2485.5,true,NA,NA,NA,NA,NA
yk5LeYia,3o4vwc1gfzjxgki2d88xs18tr9fj3v,3n2bf7y2vu74yktgmsft17xcgsuhm3,yk5LeYia,2020-0188,2021-10-14,14:57:26,16:22:37,NA,incomplete,true,true,NA,0,31,NA,black,n_s_088.jpg,NA,NA,pleasant,unpleasant,NA,NA,NA,NA,NA,left,1997.5,true,NA,NA,NA,NA,NA
yk5LeYia,3o4vwc1gfzjxgki2d88xs18tr9fj3v,3n2bf7y2vu74yktgmsft17xcgsuhm3,yk5LeYia,2020-0188,2021-10-14,14:57:26,16:22:37,NA,incomplete,true,true,NA,0,32,NA,black,m_l_100.jpg,NA,NA,unpleasant,pleasant,NA,NA,NA,NA,NA,right,2723.89999999106,true,NA,NA,NA,NA,NA
yk5LeYia,3o4vwc1gfzjxgki2d88xs18tr9fj3v,3n2bf7y2vu74yktgmsft17xcgsuhm3,yk5LeYia,2020-0188,2021-10-14,14:57:26,16:22:37,NA,incomplete,true,true,NA,0,33,NA,black,m_s_078.jpg,NA,NA,pleasant,unpleasant,NA,NA,NA,NA,NA,left,1868.39999999106,true,NA,NA,NA,NA,NA
yk5LeYia,3o4vwc1gfzjxgki2d88xs18tr9fj3v,3n2bf7y2vu74yktgmsft17xcgsuhm3,yk5LeYia,2020-0188,2021-10-14,14:57:26,16:22:37,NA,incomplete,true,true,NA,0,34,NA,black,m_s_062.jpg,NA,NA,pleasant,unpleasant,NA,NA,NA,NA,NA,left,1631.5,true,NA,NA,NA,NA,NA
yk5LeYia,3o4vwc1gfzjxgki2d88xs18tr9fj3v,3n2bf7y2vu74yktgmsft17xcgsuhm3,yk5LeYia,2020-0188,2021-10-14,14:57:26,16:22:37,NA,incomplete,true,true,NA,0,35,NA,black,n_l_096.jpg,NA,NA,pleasant,unpleasant,NA,NA,NA,NA,NA,left,1742.70000000298,true,NA,NA,NA,NA,NA
yk5LeYia,3o4vwc1gfzjxgki2d88xs18tr9fj3v,3n2bf7y2vu74yktgmsft17xcgsuhm3,yk5LeYia,2020-0188,2021-10-14,14:57:26,16:22:37,NA,incomplete,true,NA,true,0,0,NA,NA,NA,left,present,NA,NA,n_l_091.jpg,brown,n_l_108.jpg,blue,between,NA,NaN,NA,left,10884.79999999702,1,1,10644.90000000596
yk5LeYia,3o4vwc1gfzjxgki2d88xs18tr9fj3v,3n2bf7y2vu74yktgmsft17xcgsuhm3,yk5LeYia,2020-0188,2021-10-14,14:57:26,16:22:37,NA,incomplete,true,NA,true,0,1,NA,NA,NA,right,absent,NA,NA,m_s_080.jpg,white,m_s_093.jpg,white,within,NA,NaN,NA,right,4387.29999999702,1,1,6991.70000000298
yk5LeYia,3o4vwc1gfzjxgki2d88xs18tr9fj3v,3n2bf7y2vu74yktgmsft17xcgsuhm3,yk5LeYia,2020-0188,2021-10-14,14:57:26,16:22:37,NA,incomplete,true,NA,true,0,2,NA,NA,NA,right,absent,NA,NA,m_s_074.jpg,orange,n_s_116.jpg,white,between,NA,NaN,NA,right,8132.100000008941,1,1,2547.0999999940395
yk5LeYia,3o4vwc1gfzjxgki2d88xs18tr9fj3v,3n2bf7y2vu74yktgmsft17xcgsuhm3,yk5LeYia,2020-0188,2021-10-14,14:57:26,16:22:37,NA,incomplete,true,NA,true,0,3,NA,NA,NA,right,absent,NA,NA,m_l_100.jpg,black,m_l_069.jpg,green,between,NA,NaN,NA,left,3607.3999999910593,0,0,5034.9000000059605
yk5LeYia,3o4vwc1gfzjxgki2d88xs18tr9fj3v,3n2bf7y2vu74yktgmsft17xcgsuhm3,yk5LeYia,2020-0188,2021-10-14,14:57:26,16:22:37,NA,incomplete,true,NA,true,0,4,NA,NA,NA,right,present,NA,NA,m_l_046.jpg,green,m_s_048.jpg,green,within,NA,NaN,NA,left,6500.5999999940395,0,1,2257
yk5LeYia,3o4vwc1gfzjxgki2d88xs18tr9fj3v,3n2bf7y2vu74yktgmsft17xcgsuhm3,yk5LeYia,2020-0188,2021-10-14,14:57:26,16:22:37,NA,incomplete,true,NA,true,0,5,NA,NA,NA,left,absent,NA,NA,m_s_061.jpg,orange,m_l_044.jpg,brown,between,NA,NaN,NA,left,3789.800000011921,1,1,2662
yk5LeYia,3o4vwc1gfzjxgki2d88xs18tr9fj3v,3n2bf7y2vu74yktgmsft17xcgsuhm3,yk5LeYia,2020-0188,2021-10-14,14:57:26,16:22:37,NA,incomplete,true,NA,true,0,6,NA,NA,NA,left,present,NA,NA,n_s_088.jpg,black,n_l_096.jpg,black,within,NA,NaN,NA,left,4712.5999999940395,1,2,1917.5999999940395
yk5LeYia,3o4vwc1gfzjxgki2d88xs18tr9fj3v,3n2bf7y2vu74yktgmsft17xcgsuhm3,yk5LeYia,2020-0188,2021-10-14,14:57:26,16:22:37,NA,incomplete,true,NA,true,0,7,NA,NA,NA,right,present,NA,NA,n_l_082.jpg,blue,m_l_082.jpg,blue,within,NA,NaN,NA,left,5616.70000000298,0,1,3443.5999999940395
yk5LeYia,3o4vwc1gfzjxgki2d88xs18tr9fj3v,3n2bf7y2vu74yktgmsft17xcgsuhm3,yk5LeYia,2020-0188,2021-10-14,14:57:26,16:22:37,NA,incomplete,true,NA,true,0,8,NA,NA,NA,left,absent,NA,NA,n_l_110.jpg,brown,m_s_086.jpg,brown,within,NA,NaN,NA,left,6695,1,2,1624.7000000029802
yk5LeYia,3o4vwc1gfzjxgki2d88xs18tr9fj3v,3n2bf7y2vu74yktgmsft17xcgsuhm3,yk5LeYia,2020-0188,2021-10-14,14:57:26,16:22:37,NA,incomplete,true,NA,true,0,9,NA,NA,NA,left,present,NA,NA,n_l_052.jpg,blue,n_s_077.jpg,green,between,NA,NaN,NA,left,8863.20000000298,1,1,5990.4000000059605
yk5LeYia,3o4vwc1gfzjxgki2d88xs18tr9fj3v,3n2bf7y2vu74yktgmsft17xcgsuhm3,yk5LeYia,2020-0188,2021-10-14,14:57:26,16:22:37,NA,incomplete,true,NA,true,0,10,NA,NA,NA,left,absent,NA,NA,n_s_039.jpg,orange,m_s_106.jpg,orange,within,NA,NaN,NA,right,2150,0,1,2620.7999999970198
yk5LeYia,3o4vwc1gfzjxgki2d88xs18tr9fj3v,3n2bf7y2vu74yktgmsft17xcgsuhm3,yk5LeYia,2020-0188,2021-10-14,14:57:26,16:22:37,NA,incomplete,false,true,NA,1,0,NA,blue,n_s_002.jpg,NA,NA,pleasant,unpleasant,NA,NA,NA,NA,NA,none,0,false,NA,NA,NA,NA,NA
yk5LeYia,3o4vwc1gfzjxgki2d88xs18tr9fj3v,3n2bf7y2vu74yktgmsft17xcgsuhm3,yk5LeYia,2020-0188,2021-10-14,14:57:26,16:22:37,NA,incomplete,false,true,NA,1,1,NA,blue,m_s_091.jpg,NA,NA,unpleasant,pleasant,NA,NA,NA,NA,NA,left,1489.70000000298,true,NA,NA,NA,NA,NA
yk5LeYia,3o4vwc1gfzjxgki2d88xs18tr9fj3v,3n2bf7y2vu74yktgmsft17xcgsuhm3,yk5LeYia,2020-0188,2021-10-14,14:57:26,16:22:37,NA,incomplete,false,true,NA,1,2,NA,blue,m_l_001.jpg,NA,NA,unpleasant,pleasant,NA,NA,NA,NA,NA,right,2242,true,NA,NA,NA,NA,NA
yk5LeYia,3o4vwc1gfzjxgki2d88xs18tr9fj3v,3n2bf7y2vu74yktgmsft17xcgsuhm3,yk5LeYia,2020-0188,2021-10-14,14:57:26,16:22:37,NA,incomplete,false,true,NA,1,3,NA,blue,m_s_034.jpg,NA,NA,pleasant,unpleasant,NA,NA,NA,NA,NA,left,1602.10000000894,true,NA,NA,NA,NA,NA
yk5LeYia,3o4vwc1gfzjxgki2d88xs18tr9fj3v,3n2bf7y2vu74yktgmsft17xcgsuhm3,yk5LeYia,2020-0188,2021-10-14,14:57:26,16:22:37,NA,incomplete,false,true,NA,1,4,NA,blue,n_s_014.jpg,NA,NA,unpleasant,pleasant,NA,NA,NA,NA,NA,right,2047.40000000596,true,NA,NA,NA,NA,NA
yk5LeYia,3o4vwc1gfzjxgki2d88xs18tr9fj3v,3n2bf7y2vu74yktgmsft17xcgsuhm3,yk5LeYia,2020-0188,2021-10-14,14:57:26,16:22:37,NA,incomplete,false,true,NA,1,5,NA,blue,n_l_046.jpg,NA,NA,pleasant,unpleasant,NA,NA,NA,NA,NA,left,2017.90000000596,true,NA,NA,NA,NA,NA
yk5LeYia,3o4vwc1gfzjxgki2d88xs18tr9fj3v,3n2bf7y2vu74yktgmsft17xcgsuhm3,yk5LeYia,2020-0188,2021-10-14,14:57:26,16:22:37,NA,incomplete,false,true,NA,1,6,NA,yellow,m_s_075.jpg,NA,NA,unpleasant,pleasant,NA,NA,NA,NA,NA,right,1900.89999999106,true,NA,NA,NA,NA,NA
yk5LeYia,3o4vwc1gfzjxgki2d88xs18tr9fj3v,3n2bf7y2vu74yktgmsft17xcgsuhm3,yk5LeYia,2020-0188,2021-10-14,14:57:26,16:22:37,NA,incomplete,false,true,NA,1,7,NA,yellow,n_l_111.jpg,NA,NA,unpleasant,pleasant,NA,NA,NA,NA,NA,left,1529,true,NA,NA,NA,NA,NA
yk5LeYia,3o4vwc1gfzjxgki2d88xs18tr9fj3v,3n2bf7y2vu74yktgmsft17xcgsuhm3,yk5LeYia,2020-0188,2021-10-14,14:57:26,16:22:37,NA,incomplete,false,true,NA,1,8,NA,yellow,n_l_036.jpg,NA,NA,unpleasant,pleasant,NA,NA,NA,NA,NA,right,2271.69999998808,true,NA,NA,NA,NA,NA
yk5LeYia,3o4vwc1gfzjxgki2d88xs18tr9fj3v,3n2bf7y2vu74yktgmsft17xcgsuhm3,yk5LeYia,2020-0188,2021-10-14,14:57:26,16:22:37,NA,incomplete,false,true,NA,1,9,NA,yellow,n_s_060.jpg,NA,NA,unpleasant,pleasant,NA,NA,NA,NA,NA,right,1602.90000000596,true,NA,NA,NA,NA,NA
yk5LeYia,3o4vwc1gfzjxgki2d88xs18tr9fj3v,3n2bf7y2vu74yktgmsft17xcgsuhm3,yk5LeYia,2020-0188,2021-10-14,14:57:26,16:22:37,NA,incomplete,false,true,NA,1,10,NA,yellow,n_l_050.jpg,NA,NA,pleasant,unpleasant,NA,NA,NA,NA,NA,left,2246.19999998808,true,NA,NA,NA,NA,NA
yk5LeYia,3o4vwc1gfzjxgki2d88xs18tr9fj3v,3n2bf7y2vu74yktgmsft17xcgsuhm3,yk5LeYia,2020-0188,2021-10-14,14:57:26,16:22:37,NA,incomplete,false,true,NA,1,11,NA,yellow,n_s_018.jpg,NA,NA,unpleasant,pleasant,NA,NA,NA,NA,NA,right,1257.60000000894,true,NA,NA,NA,NA,NA
yk5LeYia,3o4vwc1gfzjxgki2d88xs18tr9fj3v,3n2bf7y2vu74yktgmsft17xcgsuhm3,yk5LeYia,2020-0188,2021-10-14,14:57:26,16:22:37,NA,incomplete,false,true,NA,1,12,NA,black,m_l_021.jpg,NA,NA,pleasant,unpleasant,NA,NA,NA,NA,NA,right,1778.40000000596,true,NA,NA,NA,NA,NA
yk5LeYia,3o4vwc1gfzjxgki2d88xs18tr9fj3v,3n2bf7y2vu74yktgmsft17xcgsuhm3,yk5LeYia,2020-0188,2021-10-14,14:57:26,16:22:37,NA,incomplete,false,true,NA,1,13,NA,black,n_s_103.jpg,NA,NA,pleasant,unpleasant,NA,NA,NA,NA,NA,left,1311,true,NA,NA,NA,NA,NA
yk5LeYia,3o4vwc1gfzjxgki2d88xs18tr9fj3v,3n2bf7y2vu74yktgmsft17xcgsuhm3,yk5LeYia,2020-0188,2021-10-14,14:57:26,16:22:37,NA,incomplete,false,true,NA,1,14,NA,black,n_l_100.jpg,NA,NA,pleasant,unpleasant,NA,NA,NA,NA,NA,left,1268.20000000298,true,NA,NA,NA,NA,NA
yk5LeYia,3o4vwc1gfzjxgki2d88xs18tr9fj3v,3n2bf7y2vu74yktgmsft17xcgsuhm3,yk5LeYia,2020-0188,2021-10-14,14:57:26,16:22:37,NA,incomplete,false,true,NA,1,15,NA,black,n_l_092.jpg,NA,NA,unpleasant,pleasant,NA,NA,NA,NA,NA,right,1520,true,NA,NA,NA,NA,NA
yk5LeYia,3o4vwc1gfzjxgki2d88xs18tr9fj3v,3n2bf7y2vu74yktgmsft17xcgsuhm3,yk5LeYia,2020-0188,2021-10-14,14:57:26,16:22:37,NA,incomplete,false,true,NA,1,16,NA,black,n_s_016.jpg,NA,NA,pleasant,unpleasant,NA,NA,NA,NA,NA,left,1667.20000000298,true,NA,NA,NA,NA,NA
yk5LeYia,3o4vwc1gfzjxgki2d88xs18tr9fj3v,3n2bf7y2vu74yktgmsft17xcgsuhm3,yk5LeYia,2020-0188,2021-10-14,14:57:26,16:22:37,NA,incomplete,false,true,NA,1,17,NA,black,m_l_019.jpg,NA,NA,pleasant,unpleasant,NA,NA,NA,NA,NA,left,1503.70000000298,true,NA,NA,NA,NA,NA
yk5LeYia,3o4vwc1gfzjxgki2d88xs18tr9fj3v,3n2bf7y2vu74yktgmsft17xcgsuhm3,yk5LeYia,2020-0188,2021-10-14,14:57:26,16:22:37,NA,incomplete,false,true,NA,1,18,NA,red,m_l_042.jpg,NA,NA,unpleasant,pleasant,NA,NA,NA,NA,NA,right,1442.69999998808,true,NA,NA,NA,NA,NA
yk5LeYia,3o4vwc1gfzjxgki2d88xs18tr9fj3v,3n2bf7y2vu74yktgmsft17xcgsuhm3,yk5LeYia,2020-0188,2021-10-14,14:57:26,16:22:37,NA,incomplete,false,true,NA,1,19,NA,red,n_l_024.jpg,NA,NA,pleasant,unpleasant,NA,NA,NA,NA,NA,left,1674,true,NA,NA,NA,NA,NA
yk5LeYia,3o4vwc1gfzjxgki2d88xs18tr9fj3v,3n2bf7y2vu74yktgmsft17xcgsuhm3,yk5LeYia,2020-0188,2021-10-14,14:57:26,16:22:37,NA,incomplete,false,true,NA,1,20,NA,red,m_l_032.jpg,NA,NA,pleasant,unpleasant,NA,NA,NA,NA,NA,left,1554.19999998808,true,NA,NA,NA,NA,NA
yk5LeYia,3o4vwc1gfzjxgki2d88xs18tr9fj3v,3n2bf7y2vu74yktgmsft17xcgsuhm3,yk5LeYia,2020-0188,2021-10-14,14:57:26,16:22:37,NA,incomplete,false,true,NA,1,21,NA,red,n_l_099.jpg,NA,NA,unpleasant,pleasant,NA,NA,NA,NA,NA,right,1316.20000000298,true,NA,NA,NA,NA,NA
yk5LeYia,3o4vwc1gfzjxgki2d88xs18tr9fj3v,3n2bf7y2vu74yktgmsft17xcgsuhm3,yk5LeYia,2020-0188,2021-10-14,14:57:26,16:22:37,NA,incomplete,false,true,NA,1,22,NA,red,m_l_089.jpg,NA,NA,unpleasant,pleasant,NA,NA,NA,NA,NA,left,1519.59999999404,true,NA,NA,NA,NA,NA
yk5LeYia,3o4vwc1gfzjxgki2d88xs18tr9fj3v,3n2bf7y2vu74yktgmsft17xcgsuhm3,yk5LeYia,2020-0188,2021-10-14,14:57:26,16:22:37,NA,incomplete,false,true,NA,1,23,NA,red,m_l_066.jpg,NA,NA,pleasant,unpleasant,NA,NA,NA,NA,NA,right,1618.29999999702,true,NA,NA,NA,NA,NA
yk5LeYia,3o4vwc1gfzjxgki2d88xs18tr9fj3v,3n2bf7y2vu74yktgmsft17xcgsuhm3,yk5LeYia,2020-0188,2021-10-14,14:57:26,16:22:37,NA,incomplete,false,true,NA,1,24,NA,green,m_s_035.jpg,NA,NA,unpleasant,pleasant,NA,NA,NA,NA,NA,left,2349.79999999702,true,NA,NA,NA,NA,NA
yk5LeYia,3o4vwc1gfzjxgki2d88xs18tr9fj3v,3n2bf7y2vu74yktgmsft17xcgsuhm3,yk5LeYia,2020-0188,2021-10-14,14:57:26,16:22:37,NA,incomplete,false,true,NA,1,25,NA,green,m_l_031.jpg,NA,NA,unpleasant,pleasant,NA,NA,NA,NA,NA,left,1956.89999999106,true,NA,NA,NA,NA,NA
yk5LeYia,3o4vwc1gfzjxgki2d88xs18tr9fj3v,3n2bf7y2vu74yktgmsft17xcgsuhm3,yk5LeYia,2020-0188,2021-10-14,14:57:26,16:22:37,NA,incomplete,false,true,NA,1,26,NA,green,n_l_097.jpg,NA,NA,unpleasant,pleasant,NA,NA,NA,NA,NA,right,1736.40000000596,true,NA,NA,NA,NA,NA
yk5LeYia,3o4vwc1gfzjxgki2d88xs18tr9fj3v,3n2bf7y2vu74yktgmsft17xcgsuhm3,yk5LeYia,2020-0188,2021-10-14,14:57:26,16:22:37,NA,incomplete,false,true,NA,1,27,NA,green,n_s_004.jpg,NA,NA,unpleasant,pleasant,NA,NA,NA,NA,NA,left,1840.20000000298,true,NA,NA,NA,NA,NA
yk5LeYia,3o4vwc1gfzjxgki2d88xs18tr9fj3v,3n2bf7y2vu74yktgmsft17xcgsuhm3,yk5LeYia,2020-0188,2021-10-14,14:57:26,16:22:37,NA,incomplete,false,true,NA,1,28,NA,green,n_l_076.jpg,NA,NA,pleasant,unpleasant,NA,NA,NA,NA,NA,left,1820.09999999404,true,NA,NA,NA,NA,NA
yk5LeYia,3o4vwc1gfzjxgki2d88xs18tr9fj3v,3n2bf7y2vu74yktgmsft17xcgsuhm3,yk5LeYia,2020-0188,2021-10-14,14:57:26,16:22:37,NA,incomplete,false,true,NA,1,29,NA,green,n_l_078.jpg,NA,NA,pleasant,unpleasant,NA,NA,NA,NA,NA,left,1444.5,true,NA,NA,NA,NA,NA
yk5LeYia,3o4vwc1gfzjxgki2d88xs18tr9fj3v,3n2bf7y2vu74yktgmsft17xcgsuhm3,yk5LeYia,2020-0188,2021-10-14,14:57:26,16:22:37,NA,incomplete,false,true,NA,1,30,NA,purple,n_l_031.jpg,NA,NA,unpleasant,pleasant,NA,NA,NA,NA,NA,right,1405.79999999702,true,NA,NA,NA,NA,NA
yk5LeYia,3o4vwc1gfzjxgki2d88xs18tr9fj3v,3n2bf7y2vu74yktgmsft17xcgsuhm3,yk5LeYia,2020-0188,2021-10-14,14:57:26,16:22:37,NA,incomplete,false,true,NA,1,31,NA,purple,n_s_071.jpg,NA,NA,pleasant,unpleasant,NA,NA,NA,NA,NA,left,1448.29999999702,true,NA,NA,NA,NA,NA
yk5LeYia,3o4vwc1gfzjxgki2d88xs18tr9fj3v,3n2bf7y2vu74yktgmsft17xcgsuhm3,yk5LeYia,2020-0188,2021-10-14,14:57:26,16:22:37,NA,incomplete,false,true,NA,1,32,NA,purple,n_s_012.jpg,NA,NA,unpleasant,pleasant,NA,NA,NA,NA,NA,right,1554.90000000596,true,NA,NA,NA,NA,NA
yk5LeYia,3o4vwc1gfzjxgki2d88xs18tr9fj3v,3n2bf7y2vu74yktgmsft17xcgsuhm3,yk5LeYia,2020-0188,2021-10-14,14:57:26,16:22:37,NA,incomplete,false,true,NA,1,33,NA,purple,m_l_059.jpg,NA,NA,pleasant,unpleasant,NA,NA,NA,NA,NA,left,2044.90000000596,true,NA,NA,NA,NA,NA
yk5LeYia,3o4vwc1gfzjxgki2d88xs18tr9fj3v,3n2bf7y2vu74yktgmsft17xcgsuhm3,yk5LeYia,2020-0188,2021-10-14,14:57:26,16:22:37,NA,incomplete,false,true,NA,1,34,NA,purple,n_l_115.jpg,NA,NA,unpleasant,pleasant,NA,NA,NA,NA,NA,right,1775.79999999702,true,NA,NA,NA,NA,NA
yk5LeYia,3o4vwc1gfzjxgki2d88xs18tr9fj3v,3n2bf7y2vu74yktgmsft17xcgsuhm3,yk5LeYia,2020-0188,2021-10-14,14:57:26,16:22:37,NA,incomplete,false,true,NA,1,35,NA,purple,m_l_068.jpg,NA,NA,pleasant,unpleasant,NA,NA,NA,NA,NA,left,2416.5,true,NA,NA,NA,NA,NA
yk5LeYia,3o4vwc1gfzjxgki2d88xs18tr9fj3v,3n2bf7y2vu74yktgmsft17xcgsuhm3,yk5LeYia,2020-0188,2021-10-14,14:57:26,16:22:37,NA,incomplete,false,NA,true,1,0,NA,NA,NA,right,present,NA,NA,n_s_018.jpg,yellow,n_l_111.jpg,yellow,within,NA,NaN,NA,right,7521.5,1,1,2202.7999999970198
yk5LeYia,3o4vwc1gfzjxgki2d88xs18tr9fj3v,3n2bf7y2vu74yktgmsft17xcgsuhm3,yk5LeYia,2020-0188,2021-10-14,14:57:26,16:22:37,NA,incomplete,false,NA,true,1,1,NA,NA,NA,left,present,NA,NA,m_l_089.jpg,red,n_l_097.jpg,green,between,NA,NaN,NA,left,4490.300000011921,1,0,1595.4000000059605
yk5LeYia,3o4vwc1gfzjxgki2d88xs18tr9fj3v,3n2bf7y2vu74yktgmsft17xcgsuhm3,yk5LeYia,2020-0188,2021-10-14,14:57:26,16:22:37,NA,incomplete,false,NA,true,1,2,NA,NA,NA,right,present,NA,NA,m_l_068.jpg,purple,n_s_071.jpg,purple,within,NA,NaN,NA,left,3391,0,0,1599.6000000089407
yk5LeYia,3o4vwc1gfzjxgki2d88xs18tr9fj3v,3n2bf7y2vu74yktgmsft17xcgsuhm3,yk5LeYia,2020-0188,2021-10-14,14:57:26,16:22:37,NA,incomplete,false,NA,true,1,3,NA,NA,NA,left,present,NA,NA,m_s_091.jpg,blue,n_l_046.jpg,blue,within,NA,NaN,NA,left,4542.4000000059605,1,1,1144.2000000029802
yk5LeYia,3o4vwc1gfzjxgki2d88xs18tr9fj3v,3n2bf7y2vu74yktgmsft17xcgsuhm3,yk5LeYia,2020-0188,2021-10-14,14:57:26,16:22:37,NA,incomplete,false,NA,true,1,4,NA,NA,NA,left,present,NA,NA,n_l_050.jpg,yellow,n_l_100.jpg,black,between,NA,NaN,NA,right,2865.2999999970198,0,1,1185.0999999940395
yk5LeYia,3o4vwc1gfzjxgki2d88xs18tr9fj3v,3n2bf7y2vu74yktgmsft17xcgsuhm3,yk5LeYia,2020-0188,2021-10-14,14:57:26,16:22:37,NA,incomplete,false,NA,true,1,5,NA,NA,NA,left,present,NA,NA,n_s_016.jpg,black,m_l_032.jpg,red,between,NA,NaN,NA,left,3875.2999999970198,1,1,1329.7000000029802
yk5LeYia,3o4vwc1gfzjxgki2d88xs18tr9fj3v,3n2bf7y2vu74yktgmsft17xcgsuhm3,yk5LeYia,2020-0188,2021-10-14,14:57:26,16:22:37,NA,incomplete,false,NA,true,1,6,NA,NA,NA,left,present,NA,NA,n_s_103.jpg,black,m_l_019.jpg,black,within,NA,NaN,NA,left,6439.9000000059605,1,1,1288
yk5LeYia,3o4vwc1gfzjxgki2d88xs18tr9fj3v,3n2bf7y2vu74yktgmsft17xcgsuhm3,yk5LeYia,2020-0188,2021-10-14,14:57:26,16:22:37,NA,incomplete,false,NA,true,1,7,NA,NA,NA,right,present,NA,NA,n_l_078.jpg,green,m_l_031.jpg,green,within,NA,NaN,NA,left,4075.2000000029802,0,1,1028.4000000059605
yk5LeYia,3o4vwc1gfzjxgki2d88xs18tr9fj3v,3n2bf7y2vu74yktgmsft17xcgsuhm3,yk5LeYia,2020-0188,2021-10-14,14:57:26,16:22:37,NA,incomplete,false,NA,true,1,8,NA,NA,NA,left,present,NA,NA,n_l_024.jpg,red,m_l_066.jpg,red,within,NA,NaN,NA,right,4097.899999991059,0,1,1359
yk5LeYia,3o4vwc1gfzjxgki2d88xs18tr9fj3v,3n2bf7y2vu74yktgmsft17xcgsuhm3,yk5LeYia,2020-0188,2021-10-14,14:57:26,16:22:37,NA,incomplete,false,NA,true,1,9,NA,NA,NA,left,present,NA,NA,n_s_014.jpg,blue,n_l_036.jpg,yellow,between,NA,NaN,NA,left,4146.399999991059,1,1,1051.5999999940395
yk5LeYia,3o4vwc1gfzjxgki2d88xs18tr9fj3v,3n2bf7y2vu74yktgmsft17xcgsuhm3,yk5LeYia,2020-0188,2021-10-14,14:57:26,16:22:37,NA,incomplete,false,NA,true,1,10,NA,NA,NA,right,present,NA,NA,n_s_012.jpg,purple,n_l_076.jpg,green,between,NA,NaN,NA,right,2755.800000011921,1,1,1746.1000000089407
yk5LeYia,3o4vwc1gfzjxgki2d88xs18tr9fj3v,3n2bf7y2vu74yktgmsft17xcgsuhm3,yk5LeYia,2020-0188,2021-10-14,14:57:26,16:22:37,NA,incomplete,false,true,NA,2,0,NA,black,m_l_052.jpg,NA,NA,unpleasant,pleasant,NA,NA,NA,NA,NA,right,2312.20000000298,true,NA,NA,NA,NA,NA
yk5LeYia,3o4vwc1gfzjxgki2d88xs18tr9fj3v,3n2bf7y2vu74yktgmsft17xcgsuhm3,yk5LeYia,2020-0188,2021-10-14,14:57:26,16:22:37,NA,incomplete,false,true,NA,2,1,NA,black,n_l_012.jpg,NA,NA,pleasant,unpleasant,NA,NA,NA,NA,NA,left,1134.90000000596,true,NA,NA,NA,NA,NA
yk5LeYia,3o4vwc1gfzjxgki2d88xs18tr9fj3v,3n2bf7y2vu74yktgmsft17xcgsuhm3,yk5LeYia,2020-0188,2021-10-14,14:57:26,16:22:37,NA,incomplete,false,true,NA,2,2,NA,black,n_l_067.jpg,NA,NA,pleasant,unpleasant,NA,NA,NA,NA,NA,left,2026.5,true,NA,NA,NA,NA,NA
yk5LeYia,3o4vwc1gfzjxgki2d88xs18tr9fj3v,3n2bf7y2vu74yktgmsft17xcgsuhm3,yk5LeYia,2020-0188,2021-10-14,14:57:26,16:22:37,NA,incomplete,false,true,NA,2,3,NA,black,n_s_033.jpg,NA,NA,unpleasant,pleasant,NA,NA,NA,NA,NA,right,1919,true,NA,NA,NA,NA,NA
yk5LeYia,3o4vwc1gfzjxgki2d88xs18tr9fj3v,3n2bf7y2vu74yktgmsft17xcgsuhm3,yk5LeYia,2020-0188,2021-10-14,14:57:26,16:22:37,NA,incomplete,false,true,NA,2,4,NA,black,m_s_085.jpg,NA,NA,pleasant,unpleasant,NA,NA,NA,NA,NA,right,2302.90000000596,true,NA,NA,NA,NA,NA
yk5LeYia,3o4vwc1gfzjxgki2d88xs18tr9fj3v,3n2bf7y2vu74yktgmsft17xcgsuhm3,yk5LeYia,2020-0188,2021-10-14,14:57:26,16:22:37,NA,incomplete,false,true,NA,2,5,NA,black,m_l_036.jpg,NA,NA,pleasant,unpleasant,NA,NA,NA,NA,NA,right,2118.59999999404,true,NA,NA,NA,NA,NA
yk5LeYia,3o4vwc1gfzjxgki2d88xs18tr9fj3v,3n2bf7y2vu74yktgmsft17xcgsuhm3,yk5LeYia,2020-0188,2021-10-14,14:57:26,16:22:37,NA,incomplete,false,true,NA,2,6,NA,red,n_s_097.jpg,NA,NA,pleasant,unpleasant,NA,NA,NA,NA,NA,left,1565,true,NA,NA,NA,NA,NA
yk5LeYia,3o4vwc1gfzjxgki2d88xs18tr9fj3v,3n2bf7y2vu74yktgmsft17xcgsuhm3,yk5LeYia,2020-0188,2021-10-14,14:57:26,16:22:37,NA,incomplete,false,true,NA,2,7,NA,red,m_l_063.jpg,NA,NA,unpleasant,pleasant,NA,NA,NA,NA,NA,left,1822.39999999106,true,NA,NA,NA,NA,NA
yk5LeYia,3o4vwc1gfzjxgki2d88xs18tr9fj3v,3n2bf7y2vu74yktgmsft17xcgsuhm3,yk5LeYia,2020-0188,2021-10-14,14:57:26,16:22:37,NA,incomplete,false,true,NA,2,8,NA,red,n_s_030.jpg,NA,NA,pleasant,unpleasant,NA,NA,NA,NA,NA,left,2255.79999999702,true,NA,NA,NA,NA,NA
yk5LeYia,3o4vwc1gfzjxgki2d88xs18tr9fj3v,3n2bf7y2vu74yktgmsft17xcgsuhm3,yk5LeYia,2020-0188,2021-10-14,14:57:26,16:22:37,NA,incomplete,false,true,NA,2,9,NA,red,n_s_040.jpg,NA,NA,pleasant,unpleasant,NA,NA,NA,NA,NA,left,1940.40000000596,true,NA,NA,NA,NA,NA
yk5LeYia,3o4vwc1gfzjxgki2d88xs18tr9fj3v,3n2bf7y2vu74yktgmsft17xcgsuhm3,yk5LeYia,2020-0188,2021-10-14,14:57:26,16:22:37,NA,incomplete,false,true,NA,2,10,NA,red,n_l_101.jpg,NA,NA,unpleasant,pleasant,NA,NA,NA,NA,NA,left,1877.09999999404,true,NA,NA,NA,NA,NA
yk5LeYia,3o4vwc1gfzjxgki2d88xs18tr9fj3v,3n2bf7y2vu74yktgmsft17xcgsuhm3,yk5LeYia,2020-0188,2021-10-14,14:57:26,16:22:37,NA,incomplete,false,true,NA,2,11,NA,red,m_s_054.jpg,NA,NA,unpleasant,pleasant,NA,NA,NA,NA,NA,left,1550.5,true,NA,NA,NA,NA,NA
yk5LeYia,3o4vwc1gfzjxgki2d88xs18tr9fj3v,3n2bf7y2vu74yktgmsft17xcgsuhm3,yk5LeYia,2020-0188,2021-10-14,14:57:26,16:22:37,NA,incomplete,false,true,NA,2,12,NA,white,m_s_094.jpg,NA,NA,unpleasant,pleasant,NA,NA,NA,NA,NA,left,2496.79999999702,true,NA,NA,NA,NA,NA
yk5LeYia,3o4vwc1gfzjxgki2d88xs18tr9fj3v,3n2bf7y2vu74yktgmsft17xcgsuhm3,yk5LeYia,2020-0188,2021-10-14,14:57:26,16:22:37,NA,incomplete,false,true,NA,2,13,NA,white,n_l_026.jpg,NA,NA,pleasant,unpleasant,NA,NA,NA,NA,NA,left,1988.29999999702,true,NA,NA,NA,NA,NA
yk5LeYia,3o4vwc1gfzjxgki2d88xs18tr9fj3v,3n2bf7y2vu74yktgmsft17xcgsuhm3,yk5LeYia,2020-0188,2021-10-14,14:57:26,16:22:37,NA,incomplete,false,true,NA,2,14,NA,white,n_s_053.jpg,NA,NA,pleasant,unpleasant,NA,NA,NA,NA,NA,left,2009.59999999404,true,NA,NA,NA,NA,NA
yk5LeYia,3o4vwc1gfzjxgki2d88xs18tr9fj3v,3n2bf7y2vu74yktgmsft17xcgsuhm3,yk5LeYia,2020-0188,2021-10-14,14:57:26,16:22:37,NA,incomplete,false,true,NA,2,15,NA,white,m_l_020.jpg,NA,NA,unpleasant,pleasant,NA,NA,NA,NA,NA,left,1888.29999999702,true,NA,NA,NA,NA,NA
yk5LeYia,3o4vwc1gfzjxgki2d88xs18tr9fj3v,3n2bf7y2vu74yktgmsft17xcgsuhm3,yk5LeYia,2020-0188,2021-10-14,14:57:26,16:22:37,NA,incomplete,false,true,NA,2,16,NA,white,m_s_018.jpg,NA,NA,unpleasant,pleasant,NA,NA,NA,NA,NA,right,2214.89999999106,true,NA,NA,NA,NA,NA
yk5LeYia,3o4vwc1gfzjxgki2d88xs18tr9fj3v,3n2bf7y2vu74yktgmsft17xcgsuhm3,yk5LeYia,2020-0188,2021-10-14,14:57:26,16:22:37,NA,incomplete,false,true,NA,2,17,NA,white,m_l_116.jpg,NA,NA,pleasant,unpleasant,NA,NA,NA,NA,NA,left,1565,true,NA,NA,NA,NA,NA
yk5LeYia,3o4vwc1gfzjxgki2d88xs18tr9fj3v,3n2bf7y2vu74yktgmsft17xcgsuhm3,yk5LeYia,2020-0188,2021-10-14,14:57:26,16:22:37,NA,incomplete,false,true,NA,2,18,NA,blue,n_s_058.jpg,NA,NA,unpleasant,pleasant,NA,NA,NA,NA,NA,left,1882.09999999404,true,NA,NA,NA,NA,NA
yk5LeYia,3o4vwc1gfzjxgki2d88xs18tr9fj3v,3n2bf7y2vu74yktgmsft17xcgsuhm3,yk5LeYia,2020-0188,2021-10-14,14:57:26,16:22:37,NA,incomplete,false,true,NA,2,19,NA,blue,m_l_029.jpg,NA,NA,unpleasant,pleasant,NA,NA,NA,NA,NA,right,2348.29999999702,true,NA,NA,NA,NA,NA
yk5LeYia,3o4vwc1gfzjxgki2d88xs18tr9fj3v,3n2bf7y2vu74yktgmsft17xcgsuhm3,yk5LeYia,2020-0188,2021-10-14,14:57:26,16:22:37,NA,incomplete,false,true,NA,2,20,NA,blue,m_l_007.jpg,NA,NA,unpleasant,pleasant,NA,NA,NA,NA,NA,left,2073.19999998808,true,NA,NA,NA,NA,NA
yk5LeYia,3o4vwc1gfzjxgki2d88xs18tr9fj3v,3n2bf7y2vu74yktgmsft17xcgsuhm3,yk5LeYia,2020-0188,2021-10-14,14:57:26,16:22:37,NA,incomplete,false,true,NA,2,21,NA,blue,n_l_103.jpg,NA,NA,unpleasant,pleasant,NA,NA,NA,NA,NA,right,1364,true,NA,NA,NA,NA,NA
yk5LeYia,3o4vwc1gfzjxgki2d88xs18tr9fj3v,3n2bf7y2vu74yktgmsft17xcgsuhm3,yk5LeYia,2020-0188,2021-10-14,14:57:26,16:22:37,NA,incomplete,false,true,NA,2,22,NA,blue,m_s_067.jpg,NA,NA,pleasant,unpleasant,NA,NA,NA,NA,NA,right,1243.60000000894,true,NA,NA,NA,NA,NA
yk5LeYia,3o4vwc1gfzjxgki2d88xs18tr9fj3v,3n2bf7y2vu74yktgmsft17xcgsuhm3,yk5LeYia,2020-0188,2021-10-14,14:57:26,16:22:37,NA,incomplete,false,true,NA,2,23,NA,blue,m_s_011.jpg,NA,NA,pleasant,unpleasant,NA,NA,NA,NA,NA,left,1623.70000000298,true,NA,NA,NA,NA,NA
yk5LeYia,3o4vwc1gfzjxgki2d88xs18tr9fj3v,3n2bf7y2vu74yktgmsft17xcgsuhm3,yk5LeYia,2020-0188,2021-10-14,14:57:26,16:22:37,NA,incomplete,false,true,NA,2,24,NA,orange,m_s_066.jpg,NA,NA,unpleasant,pleasant,NA,NA,NA,NA,NA,right,2070,true,NA,NA,NA,NA,NA
yk5LeYia,3o4vwc1gfzjxgki2d88xs18tr9fj3v,3n2bf7y2vu74yktgmsft17xcgsuhm3,yk5LeYia,2020-0188,2021-10-14,14:57:26,16:22:37,NA,incomplete,false,true,NA,2,25,NA,orange,m_s_010.jpg,NA,NA,unpleasant,pleasant,NA,NA,NA,NA,NA,right,1549.09999999404,true,NA,NA,NA,NA,NA
yk5LeYia,3o4vwc1gfzjxgki2d88xs18tr9fj3v,3n2bf7y2vu74yktgmsft17xcgsuhm3,yk5LeYia,2020-0188,2021-10-14,14:57:26,16:22:37,NA,incomplete,false,true,NA,2,26,NA,orange,m_s_026.jpg,NA,NA,unpleasant,pleasant,NA,NA,NA,NA,NA,left,2015.90000000596,true,NA,NA,NA,NA,NA
yk5LeYia,3o4vwc1gfzjxgki2d88xs18tr9fj3v,3n2bf7y2vu74yktgmsft17xcgsuhm3,yk5LeYia,2020-0188,2021-10-14,14:57:26,16:22:37,NA,incomplete,false,true,NA,2,27,NA,orange,m_l_040.jpg,NA,NA,unpleasant,pleasant,NA,NA,NA,NA,NA,right,2054,true,NA,NA,NA,NA,NA
yk5LeYia,3o4vwc1gfzjxgki2d88xs18tr9fj3v,3n2bf7y2vu74yktgmsft17xcgsuhm3,yk5LeYia,2020-0188,2021-10-14,14:57:26,16:22:37,NA,incomplete,false,true,NA,2,28,NA,orange,m_l_088.jpg,NA,NA,pleasant,unpleasant,NA,NA,NA,NA,NA,right,2297,true,NA,NA,NA,NA,NA
yk5LeYia,3o4vwc1gfzjxgki2d88xs18tr9fj3v,3n2bf7y2vu74yktgmsft17xcgsuhm3,yk5LeYia,2020-0188,2021-10-14,14:57:26,16:22:37,NA,incomplete,false,true,NA,2,29,NA,orange,n_l_065.jpg,NA,NA,unpleasant,pleasant,NA,NA,NA,NA,NA,right,2471.40000000596,true,NA,NA,NA,NA,NA
yk5LeYia,3o4vwc1gfzjxgki2d88xs18tr9fj3v,3n2bf7y2vu74yktgmsft17xcgsuhm3,yk5LeYia,2020-0188,2021-10-14,14:57:26,16:22:37,NA,incomplete,false,true,NA,2,30,NA,purple,n_l_013.jpg,NA,NA,unpleasant,pleasant,NA,NA,NA,NA,NA,right,2742.40000000596,true,NA,NA,NA,NA,NA
yk5LeYia,3o4vwc1gfzjxgki2d88xs18tr9fj3v,3n2bf7y2vu74yktgmsft17xcgsuhm3,yk5LeYia,2020-0188,2021-10-14,14:57:26,16:22:37,NA,incomplete,false,true,NA,2,31,NA,purple,m_s_044.jpg,NA,NA,unpleasant,pleasant,NA,NA,NA,NA,NA,left,1029.90000000596,true,NA,NA,NA,NA,NA
yk5LeYia,3o4vwc1gfzjxgki2d88xs18tr9fj3v,3n2bf7y2vu74yktgmsft17xcgsuhm3,yk5LeYia,2020-0188,2021-10-14,14:57:26,16:22:37,NA,incomplete,false,true,NA,2,32,NA,purple,m_l_038.jpg,NA,NA,unpleasant,pleasant,NA,NA,NA,NA,NA,right,1680.59999999404,true,NA,NA,NA,NA,NA
yk5LeYia,3o4vwc1gfzjxgki2d88xs18tr9fj3v,3n2bf7y2vu74yktgmsft17xcgsuhm3,yk5LeYia,2020-0188,2021-10-14,14:57:26,16:22:37,NA,incomplete,false,true,NA,2,33,NA,purple,m_s_021.jpg,NA,NA,unpleasant,pleasant,NA,NA,NA,NA,NA,left,1744.79999999702,true,NA,NA,NA,NA,NA
yk5LeYia,3o4vwc1gfzjxgki2d88xs18tr9fj3v,3n2bf7y2vu74yktgmsft17xcgsuhm3,yk5LeYia,2020-0188,2021-10-14,14:57:26,16:22:37,NA,incomplete,false,true,NA,2,34,NA,purple,n_s_107.jpg,NA,NA,pleasant,unpleasant,NA,NA,NA,NA,NA,left,2270.30000001192,true,NA,NA,NA,NA,NA
yk5LeYia,3o4vwc1gfzjxgki2d88xs18tr9fj3v,3n2bf7y2vu74yktgmsft17xcgsuhm3,yk5LeYia,2020-0188,2021-10-14,14:57:26,16:22:37,NA,incomplete,false,true,NA,2,35,NA,purple,n_l_039.jpg,NA,NA,pleasant,unpleasant,NA,NA,NA,NA,NA,right,1600.70000000298,true,NA,NA,NA,NA,NA
yk5LeYia,3o4vwc1gfzjxgki2d88xs18tr9fj3v,3n2bf7y2vu74yktgmsft17xcgsuhm3,yk5LeYia,2020-0188,2021-10-14,14:57:26,16:22:37,NA,incomplete,false,NA,true,2,0,NA,NA,NA,left,present,NA,NA,m_s_018.jpg,white,m_l_007.jpg,blue,between,NA,NaN,NA,right,3009.5,0,1,1672.9000000059605
yk5LeYia,3o4vwc1gfzjxgki2d88xs18tr9fj3v,3n2bf7y2vu74yktgmsft17xcgsuhm3,yk5LeYia,2020-0188,2021-10-14,14:57:26,16:22:37,NA,incomplete,false,NA,true,2,1,NA,NA,NA,left,present,NA,NA,m_l_088.jpg,orange,m_l_038.jpg,purple,between,NA,NaN,NA,left,1774.0999999940395,1,2,2628.8999999910593
yk5LeYia,3o4vwc1gfzjxgki2d88xs18tr9fj3v,3n2bf7y2vu74yktgmsft17xcgsuhm3,yk5LeYia,2020-0188,2021-10-14,14:57:26,16:22:37,NA,incomplete,false,NA,true,2,2,NA,NA,NA,left,present,NA,NA,m_s_044.jpg,purple,n_l_039.jpg,purple,within,NA,NaN,NA,left,4252.5999999940395,1,0,2171.9000000059605
yk5LeYia,3o4vwc1gfzjxgki2d88xs18tr9fj3v,3n2bf7y2vu74yktgmsft17xcgsuhm3,yk5LeYia,2020-0188,2021-10-14,14:57:26,16:22:37,NA,incomplete,false,NA,true,2,3,NA,NA,NA,left,present,NA,NA,n_l_101.jpg,red,n_s_053.jpg,white,between,NA,NaN,NA,left,5994.5,1,1,2844.3999999910593
yk5LeYia,3o4vwc1gfzjxgki2d88xs18tr9fj3v,3n2bf7y2vu74yktgmsft17xcgsuhm3,yk5LeYia,2020-0188,2021-10-14,14:57:26,16:22:37,NA,incomplete,false,NA,true,2,4,NA,NA,NA,right,present,NA,NA,m_l_036.jpg,black,n_l_012.jpg,black,within,NA,NaN,NA,right,3749,1,1,2396.0999999940395
yk5LeYia,3o4vwc1gfzjxgki2d88xs18tr9fj3v,3n2bf7y2vu74yktgmsft17xcgsuhm3,yk5LeYia,2020-0188,2021-10-14,14:57:26,16:22:37,NA,incomplete,false,NA,true,2,5,NA,NA,NA,left,present,NA,NA,n_l_026.jpg,white,m_l_116.jpg,white,within,NA,NaN,NA,right,5751.600000008941,0,1,1156.2000000029802
yk5LeYia,3o4vwc1gfzjxgki2d88xs18tr9fj3v,3n2bf7y2vu74yktgmsft17xcgsuhm3,yk5LeYia,2020-0188,2021-10-14,14:57:26,16:22:37,NA,incomplete,false,NA,true,2,6,NA,NA,NA,right,present,NA,NA,m_s_054.jpg,red,m_l_063.jpg,red,within,NA,NaN,NA,right,4313.600000008941,1,1,1068.4000000059605
yk5LeYia,3o4vwc1gfzjxgki2d88xs18tr9fj3v,3n2bf7y2vu74yktgmsft17xcgsuhm3,yk5LeYia,2020-0188,2021-10-14,14:57:26,16:22:37,NA,incomplete,false,NA,true,2,7,NA,NA,NA,right,present,NA,NA,n_s_030.jpg,red,m_s_085.jpg,black,between,NA,NaN,NA,right,4037.7999999970198,1,2,2661.7999999970198
yk5LeYia,3o4vwc1gfzjxgki2d88xs18tr9fj3v,3n2bf7y2vu74yktgmsft17xcgsuhm3,yk5LeYia,2020-0188,2021-10-14,14:57:26,16:22:37,NA,incomplete,false,NA,true,2,8,NA,NA,NA,left,present,NA,NA,m_s_010.jpg,orange,n_l_065.jpg,orange,within,NA,NaN,NA,left,2926.7999999970198,1,1,4317.70000000298
yk5LeYia,3o4vwc1gfzjxgki2d88xs18tr9fj3v,3n2bf7y2vu74yktgmsft17xcgsuhm3,yk5LeYia,2020-0188,2021-10-14,14:57:26,16:22:37,NA,incomplete,false,NA,true,2,9,NA,NA,NA,right,present,NA,NA,m_s_026.jpg,orange,m_s_067.jpg,blue,between,NA,NaN,NA,left,11977.20000000298,0,1,1985.4000000059605
yk5LeYia,3o4vwc1gfzjxgki2d88xs18tr9fj3v,3n2bf7y2vu74yktgmsft17xcgsuhm3,yk5LeYia,2020-0188,2021-10-14,14:57:26,16:22:37,NA,incomplete,false,NA,true,2,10,NA,NA,NA,right,present,NA,NA,m_s_011.jpg,blue,m_l_029.jpg,blue,within,NA,NaN,NA,left,2284.2000000029802,0,1,967.1000000089407
yk5LeYia,3o4vwc1gfzjxgki2d88xs18tr9fj3v,3n2bf7y2vu74yktgmsft17xcgsuhm3,yk5LeYia,2020-0188,2021-10-14,14:57:26,16:22:37,NA,incomplete,false,true,NA,3,0,NA,purple,n_s_024.jpg,NA,NA,pleasant,unpleasant,NA,NA,NA,NA,NA,right,3069,true,NA,NA,NA,NA,NA
yk5LeYia,3o4vwc1gfzjxgki2d88xs18tr9fj3v,3n2bf7y2vu74yktgmsft17xcgsuhm3,yk5LeYia,2020-0188,2021-10-14,14:57:26,16:22:37,NA,incomplete,false,true,NA,3,1,NA,purple,n_s_068.jpg,NA,NA,pleasant,unpleasant,NA,NA,NA,NA,NA,left,961.79999999702,true,NA,NA,NA,NA,NA
yk5LeYia,3o4vwc1gfzjxgki2d88xs18tr9fj3v,3n2bf7y2vu74yktgmsft17xcgsuhm3,yk5LeYia,2020-0188,2021-10-14,14:57:26,16:22:37,NA,incomplete,false,true,NA,3,2,NA,purple,n_l_020.jpg,NA,NA,pleasant,unpleasant,NA,NA,NA,NA,NA,left,1357.09999999404,true,NA,NA,NA,NA,NA
yk5LeYia,3o4vwc1gfzjxgki2d88xs18tr9fj3v,3n2bf7y2vu74yktgmsft17xcgsuhm3,yk5LeYia,2020-0188,2021-10-14,14:57:26,16:22:37,NA,incomplete,false,true,NA,3,3,NA,purple,m_l_033.jpg,NA,NA,pleasant,unpleasant,NA,NA,NA,NA,NA,right,1940.79999999702,true,NA,NA,NA,NA,NA
yk5LeYia,3o4vwc1gfzjxgki2d88xs18tr9fj3v,3n2bf7y2vu74yktgmsft17xcgsuhm3,yk5LeYia,2020-0188,2021-10-14,14:57:26,16:22:37,NA,incomplete,false,true,NA,3,4,NA,purple,n_s_013.jpg,NA,NA,unpleasant,pleasant,NA,NA,NA,NA,NA,right,2385.59999999404,true,NA,NA,NA,NA,NA
yk5LeYia,3o4vwc1gfzjxgki2d88xs18tr9fj3v,3n2bf7y2vu74yktgmsft17xcgsuhm3,yk5LeYia,2020-0188,2021-10-14,14:57:26,16:22:37,NA,incomplete,false,true,NA,3,5,NA,purple,n_s_003.jpg,NA,NA,pleasant,unpleasant,NA,NA,NA,NA,NA,left,2185.5,true,NA,NA,NA,NA,NA
yk5LeYia,3o4vwc1gfzjxgki2d88xs18tr9fj3v,3n2bf7y2vu74yktgmsft17xcgsuhm3,yk5LeYia,2020-0188,2021-10-14,14:57:26,16:22:37,NA,incomplete,false,true,NA,3,6,NA,red,n_s_019.jpg,NA,NA,unpleasant,pleasant,NA,NA,NA,NA,NA,right,2083.40000000596,true,NA,NA,NA,NA,NA
yk5LeYia,3o4vwc1gfzjxgki2d88xs18tr9fj3v,3n2bf7y2vu74yktgmsft17xcgsuhm3,yk5LeYia,2020-0188,2021-10-14,14:57:26,16:22:37,NA,incomplete,false,true,NA,3,7,NA,red,m_l_018.jpg,NA,NA,unpleasant,pleasant,NA,NA,NA,NA,NA,right,1839.69999998808,true,NA,NA,NA,NA,NA
yk5LeYia,3o4vwc1gfzjxgki2d88xs18tr9fj3v,3n2bf7y2vu74yktgmsft17xcgsuhm3,yk5LeYia,2020-0188,2021-10-14,14:57:26,16:22:37,NA,incomplete,false,true,NA,3,8,NA,red,m_l_097.jpg,NA,NA,pleasant,unpleasant,NA,NA,NA,NA,NA,left,1323.29999999702,true,NA,NA,NA,NA,NA
yk5LeYia,3o4vwc1gfzjxgki2d88xs18tr9fj3v,3n2bf7y2vu74yktgmsft17xcgsuhm3,yk5LeYia,2020-0188,2021-10-14,14:57:26,16:22:37,NA,incomplete,false,true,NA,3,9,NA,red,n_s_075.jpg,NA,NA,pleasant,unpleasant,NA,NA,NA,NA,NA,left,1492.70000000298,true,NA,NA,NA,NA,NA
yk5LeYia,3o4vwc1gfzjxgki2d88xs18tr9fj3v,3n2bf7y2vu74yktgmsft17xcgsuhm3,yk5LeYia,2020-0188,2021-10-14,14:57:26,16:22:37,NA,incomplete,false,true,NA,3,10,NA,red,n_l_116.jpg,NA,NA,unpleasant,pleasant,NA,NA,NA,NA,NA,left,2061.29999999702,true,NA,NA,NA,NA,NA
yk5LeYia,3o4vwc1gfzjxgki2d88xs18tr9fj3v,3n2bf7y2vu74yktgmsft17xcgsuhm3,yk5LeYia,2020-0188,2021-10-14,14:57:26,16:22:37,NA,incomplete,false,true,NA,3,11,NA,red,m_l_058.jpg,NA,NA,pleasant,unpleasant,NA,NA,NA,NA,NA,right,1766.79999999702,true,NA,NA,NA,NA,NA
yk5LeYia,3o4vwc1gfzjxgki2d88xs18tr9fj3v,3n2bf7y2vu74yktgmsft17xcgsuhm3,yk5LeYia,2020-0188,2021-10-14,14:57:26,16:22:37,NA,incomplete,false,true,NA,3,12,NA,black,n_l_010.jpg,NA,NA,pleasant,unpleasant,NA,NA,NA,NA,NA,left,1627.20000000298,true,NA,NA,NA,NA,NA
yk5LeYia,3o4vwc1gfzjxgki2d88xs18tr9fj3v,3n2bf7y2vu74yktgmsft17xcgsuhm3,yk5LeYia,2020-0188,2021-10-14,14:57:26,16:22:37,NA,incomplete,false,true,NA,3,13,NA,black,m_l_023.jpg,NA,NA,pleasant,unpleasant,NA,NA,NA,NA,NA,left,1389.20000000298,true,NA,NA,NA,NA,NA
yk5LeYia,3o4vwc1gfzjxgki2d88xs18tr9fj3v,3n2bf7y2vu74yktgmsft17xcgsuhm3,yk5LeYia,2020-0188,2021-10-14,14:57:26,16:22:37,NA,incomplete,false,true,NA,3,14,NA,black,m_l_008.jpg,NA,NA,pleasant,unpleasant,NA,NA,NA,NA,NA,left,2008.70000000298,true,NA,NA,NA,NA,NA
yk5LeYia,3o4vwc1gfzjxgki2d88xs18tr9fj3v,3n2bf7y2vu74yktgmsft17xcgsuhm3,yk5LeYia,2020-0188,2021-10-14,14:57:26,16:22:37,NA,incomplete,false,true,NA,3,15,NA,black,n_l_093.jpg,NA,NA,unpleasant,pleasant,NA,NA,NA,NA,NA,right,1948.90000000596,true,NA,NA,NA,NA,NA
yk5LeYia,3o4vwc1gfzjxgki2d88xs18tr9fj3v,3n2bf7y2vu74yktgmsft17xcgsuhm3,yk5LeYia,2020-0188,2021-10-14,14:57:26,16:22:37,NA,incomplete,false,true,NA,3,16,NA,black,m_s_046.jpg,NA,NA,unpleasant,pleasant,NA,NA,NA,NA,NA,right,1575.40000000596,true,NA,NA,NA,NA,NA
yk5LeYia,3o4vwc1gfzjxgki2d88xs18tr9fj3v,3n2bf7y2vu74yktgmsft17xcgsuhm3,yk5LeYia,2020-0188,2021-10-14,14:57:26,16:22:37,NA,incomplete,false,true,NA,3,17,NA,black,m_s_098.jpg,NA,NA,unpleasant,pleasant,NA,NA,NA,NA,NA,right,1820.20000000298,true,NA,NA,NA,NA,NA
yk5LeYia,3o4vwc1gfzjxgki2d88xs18tr9fj3v,3n2bf7y2vu74yktgmsft17xcgsuhm3,yk5LeYia,2020-0188,2021-10-14,14:57:26,16:22:37,NA,incomplete,false,true,NA,3,18,NA,green,n_l_104.jpg,NA,NA,pleasant,unpleasant,NA,NA,NA,NA,NA,left,1921.10000000894,true,NA,NA,NA,NA,NA
yk5LeYia,3o4vwc1gfzjxgki2d88xs18tr9fj3v,3n2bf7y2vu74yktgmsft17xcgsuhm3,yk5LeYia,2020-0188,2021-10-14,14:57:26,16:22:37,NA,incomplete,false,true,NA,3,19,NA,green,n_l_079.jpg,NA,NA,pleasant,unpleasant,NA,NA,NA,NA,NA,left,1305.39999999106,true,NA,NA,NA,NA,NA
yk5LeYia,3o4vwc1gfzjxgki2d88xs18tr9fj3v,3n2bf7y2vu74yktgmsft17xcgsuhm3,yk5LeYia,2020-0188,2021-10-14,14:57:26,16:22:37,NA,incomplete,false,true,NA,3,20,NA,green,m_l_112.jpg,NA,NA,pleasant,unpleasant,NA,NA,NA,NA,NA,left,1093.5,true,NA,NA,NA,NA,NA
yk5LeYia,3o4vwc1gfzjxgki2d88xs18tr9fj3v,3n2bf7y2vu74yktgmsft17xcgsuhm3,yk5LeYia,2020-0188,2021-10-14,14:57:26,16:22:37,NA,incomplete,false,true,NA,3,21,NA,green,n_l_004.jpg,NA,NA,unpleasant,pleasant,NA,NA,NA,NA,NA,left,1079.5,true,NA,NA,NA,NA,NA
yk5LeYia,3o4vwc1gfzjxgki2d88xs18tr9fj3v,3n2bf7y2vu74yktgmsft17xcgsuhm3,yk5LeYia,2020-0188,2021-10-14,14:57:26,16:22:37,NA,incomplete,false,true,NA,3,22,NA,green,m_l_108.jpg,NA,NA,unpleasant,pleasant,NA,NA,NA,NA,NA,left,1690.20000000298,true,NA,NA,NA,NA,NA
yk5LeYia,3o4vwc1gfzjxgki2d88xs18tr9fj3v,3n2bf7y2vu74yktgmsft17xcgsuhm3,yk5LeYia,2020-0188,2021-10-14,14:57:26,16:22:37,NA,incomplete,false,true,NA,3,23,NA,green,n_l_042.jpg,NA,NA,unpleasant,pleasant,NA,NA,NA,NA,NA,right,2547.60000000894,true,NA,NA,NA,NA,NA
yk5LeYia,3o4vwc1gfzjxgki2d88xs18tr9fj3v,3n2bf7y2vu74yktgmsft17xcgsuhm3,yk5LeYia,2020-0188,2021-10-14,14:57:26,16:22:37,NA,incomplete,false,true,NA,3,24,NA,white,m_l_111.jpg,NA,NA,pleasant,unpleasant,NA,NA,NA,NA,NA,left,1822.60000000894,true,NA,NA,NA,NA,NA
yk5LeYia,3o4vwc1gfzjxgki2d88xs18tr9fj3v,3n2bf7y2vu74yktgmsft17xcgsuhm3,yk5LeYia,2020-0188,2021-10-14,14:57:26,16:22:37,NA,incomplete,false,true,NA,3,25,NA,white,m_s_009.jpg,NA,NA,unpleasant,pleasant,NA,NA,NA,NA,NA,right,1906.59999999404,true,NA,NA,NA,NA,NA
yk5LeYia,3o4vwc1gfzjxgki2d88xs18tr9fj3v,3n2bf7y2vu74yktgmsft17xcgsuhm3,yk5LeYia,2020-0188,2021-10-14,14:57:26,16:22:37,NA,incomplete,false,true,NA,3,26,NA,white,m_s_024.jpg,NA,NA,unpleasant,pleasant,NA,NA,NA,NA,NA,left,1697.40000000596,true,NA,NA,NA,NA,NA
yk5LeYia,3o4vwc1gfzjxgki2d88xs18tr9fj3v,3n2bf7y2vu74yktgmsft17xcgsuhm3,yk5LeYia,2020-0188,2021-10-14,14:57:26,16:22:37,NA,incomplete,false,true,NA,3,27,NA,white,n_l_007.jpg,NA,NA,pleasant,unpleasant,NA,NA,NA,NA,NA,left,1042.09999999404,true,NA,NA,NA,NA,NA
yk5LeYia,3o4vwc1gfzjxgki2d88xs18tr9fj3v,3n2bf7y2vu74yktgmsft17xcgsuhm3,yk5LeYia,2020-0188,2021-10-14,14:57:26,16:22:37,NA,incomplete,false,true,NA,3,28,NA,white,n_s_007.jpg,NA,NA,pleasant,unpleasant,NA,NA,NA,NA,NA,left,1156.20000000298,true,NA,NA,NA,NA,NA
yk5LeYia,3o4vwc1gfzjxgki2d88xs18tr9fj3v,3n2bf7y2vu74yktgmsft17xcgsuhm3,yk5LeYia,2020-0188,2021-10-14,14:57:26,16:22:37,NA,incomplete,false,true,NA,3,29,NA,white,m_s_056.jpg,NA,NA,unpleasant,pleasant,NA,NA,NA,NA,NA,right,1751,true,NA,NA,NA,NA,NA
yk5LeYia,3o4vwc1gfzjxgki2d88xs18tr9fj3v,3n2bf7y2vu74yktgmsft17xcgsuhm3,yk5LeYia,2020-0188,2021-10-14,14:57:26,16:22:37,NA,incomplete,false,true,NA,3,30,NA,blue,m_l_048.jpg,NA,NA,unpleasant,pleasant,NA,NA,NA,NA,NA,right,1727.90000000596,true,NA,NA,NA,NA,NA
yk5LeYia,3o4vwc1gfzjxgki2d88xs18tr9fj3v,3n2bf7y2vu74yktgmsft17xcgsuhm3,yk5LeYia,2020-0188,2021-10-14,14:57:26,16:22:37,NA,incomplete,false,true,NA,3,31,NA,blue,n_l_008.jpg,NA,NA,unpleasant,pleasant,NA,NA,NA,NA,NA,right,1803.09999999404,true,NA,NA,NA,NA,NA
yk5LeYia,3o4vwc1gfzjxgki2d88xs18tr9fj3v,3n2bf7y2vu74yktgmsft17xcgsuhm3,yk5LeYia,2020-0188,2021-10-14,14:57:26,16:22:37,NA,incomplete,false,true,NA,3,32,NA,blue,n_l_087.jpg,NA,NA,unpleasant,pleasant,NA,NA,NA,NA,NA,none,0,false,NA,NA,NA,NA,NA
yk5LeYia,3o4vwc1gfzjxgki2d88xs18tr9fj3v,3n2bf7y2vu74yktgmsft17xcgsuhm3,yk5LeYia,2020-0188,2021-10-14,14:57:26,16:22:37,NA,incomplete,false,true,NA,3,33,NA,blue,n_l_055.jpg,NA,NA,pleasant,unpleasant,NA,NA,NA,NA,NA,right,1858.70000000298,true,NA,NA,NA,NA,NA
yk5LeYia,3o4vwc1gfzjxgki2d88xs18tr9fj3v,3n2bf7y2vu74yktgmsft17xcgsuhm3,yk5LeYia,2020-0188,2021-10-14,14:57:26,16:22:37,NA,incomplete,false,true,NA,3,34,NA,blue,n_l_112.jpg,NA,NA,pleasant,unpleasant,NA,NA,NA,NA,NA,right,1522.20000000298,true,NA,NA,NA,NA,NA
yk5LeYia,3o4vwc1gfzjxgki2d88xs18tr9fj3v,3n2bf7y2vu74yktgmsft17xcgsuhm3,yk5LeYia,2020-0188,2021-10-14,14:57:26,16:22:37,NA,incomplete,false,true,NA,3,35,NA,blue,n_s_052.jpg,NA,NA,unpleasant,pleasant,NA,NA,NA,NA,NA,left,1874.59999999404,true,NA,NA,NA,NA,NA
yk5LeYia,3o4vwc1gfzjxgki2d88xs18tr9fj3v,3n2bf7y2vu74yktgmsft17xcgsuhm3,yk5LeYia,2020-0188,2021-10-14,14:57:26,16:22:37,NA,incomplete,false,NA,true,3,0,NA,NA,NA,right,present,NA,NA,m_l_097.jpg,red,n_s_013.jpg,purple,between,NA,NaN,NA,right,12297.20000000298,1,1,1459.7999999970198
yk5LeYia,3o4vwc1gfzjxgki2d88xs18tr9fj3v,3n2bf7y2vu74yktgmsft17xcgsuhm3,yk5LeYia,2020-0188,2021-10-14,14:57:26,16:22:37,NA,incomplete,false,NA,true,3,1,NA,NA,NA,left,present,NA,NA,m_l_108.jpg,green,m_s_024.jpg,white,between,NA,NaN,NA,left,2342.9000000059605,1,1,1503.300000011921
yk5LeYia,3o4vwc1gfzjxgki2d88xs18tr9fj3v,3n2bf7y2vu74yktgmsft17xcgsuhm3,yk5LeYia,2020-0188,2021-10-14,14:57:26,16:22:37,NA,incomplete,false,NA,true,3,2,NA,NA,NA,left,present,NA,NA,m_l_018.jpg,red,m_l_058.jpg,red,within,NA,NaN,NA,left,2040.699999988079,1,1,863
yk5LeYia,3o4vwc1gfzjxgki2d88xs18tr9fj3v,3n2bf7y2vu74yktgmsft17xcgsuhm3,yk5LeYia,2020-0188,2021-10-14,14:57:26,16:22:37,NA,incomplete,false,NA,true,3,3,NA,NA,NA,right,present,NA,NA,m_l_008.jpg,black,n_l_116.jpg,red,between,NA,NaN,NA,left,4048,0,1,1856.199999988079
yk5LeYia,3o4vwc1gfzjxgki2d88xs18tr9fj3v,3n2bf7y2vu74yktgmsft17xcgsuhm3,yk5LeYia,2020-0188,2021-10-14,14:57:26,16:22:37,NA,incomplete,false,NA,true,3,4,NA,NA,NA,right,present,NA,NA,n_l_042.jpg,green,n_l_079.jpg,green,within,NA,NaN,NA,left,2001.5999999940395,0,1,1623.2999999970198
yk5LeYia,3o4vwc1gfzjxgki2d88xs18tr9fj3v,3n2bf7y2vu74yktgmsft17xcgsuhm3,yk5LeYia,2020-0188,2021-10-14,14:57:26,16:22:37,NA,incomplete,false,NA,true,3,5,NA,NA,NA,right,present,NA,NA,n_s_003.jpg,purple,n_s_068.jpg,purple,within,NA,NaN,NA,left,2968.7999999970198,0,1,1741.5999999940395
yk5LeYia,3o4vwc1gfzjxgki2d88xs18tr9fj3v,3n2bf7y2vu74yktgmsft17xcgsuhm3,yk5LeYia,2020-0188,2021-10-14,14:57:26,16:22:37,NA,incomplete,false,NA,true,3,6,NA,NA,NA,left,present,NA,NA,n_l_008.jpg,blue,n_s_052.jpg,blue,within,NA,NaN,NA,left,4688.29999999702,1,1,1451.2000000029802
yk5LeYia,3o4vwc1gfzjxgki2d88xs18tr9fj3v,3n2bf7y2vu74yktgmsft17xcgsuhm3,yk5LeYia,2020-0188,2021-10-14,14:57:26,16:22:37,NA,incomplete,false,NA,true,3,7,NA,NA,NA,right,present,NA,NA,m_s_098.jpg,black,m_l_023.jpg,black,within,NA,NaN,NA,left,2255.7999999970198,0,1,919.4000000059605
yk5LeYia,3o4vwc1gfzjxgki2d88xs18tr9fj3v,3n2bf7y2vu74yktgmsft17xcgsuhm3,yk5LeYia,2020-0188,2021-10-14,14:57:26,16:22:37,NA,incomplete,false,NA,true,3,8,NA,NA,NA,right,present,NA,NA,m_l_112.jpg,green,m_s_046.jpg,black,between,NA,NaN,NA,right,1439.3999999910593,1,1,1450.7000000029802
yk5LeYia,3o4vwc1gfzjxgki2d88xs18tr9fj3v,3n2bf7y2vu74yktgmsft17xcgsuhm3,yk5LeYia,2020-0188,2021-10-14,14:57:26,16:22:37,NA,incomplete,false,NA,true,3,9,NA,NA,NA,left,present,NA,NA,n_s_007.jpg,white,n_l_087.jpg,blue,between,NA,NaN,NA,right,3321.2000000029802,0,1,1608.2999999970198
yk5LeYia,3o4vwc1gfzjxgki2d88xs18tr9fj3v,3n2bf7y2vu74yktgmsft17xcgsuhm3,yk5LeYia,2020-0188,2021-10-14,14:57:26,16:22:37,NA,incomplete,false,NA,true,3,10,NA,NA,NA,right,present,NA,NA,m_s_056.jpg,white,m_s_009.jpg,white,within,NA,NaN,NA,left,1178.5999999940395,0,1,921.3999999910593
yk5LeYia,3o4vwc1gfzjxgki2d88xs18tr9fj3v,3n2bf7y2vu74yktgmsft17xcgsuhm3,yk5LeYia,2020-0188,2021-10-14,14:57:26,16:22:37,NA,incomplete,false,true,NA,4,0,NA,black,m_l_103.jpg,NA,NA,unpleasant,pleasant,NA,NA,NA,NA,NA,right,2115.90000000596,true,NA,NA,NA,NA,NA
yk5LeYia,3o4vwc1gfzjxgki2d88xs18tr9fj3v,3n2bf7y2vu74yktgmsft17xcgsuhm3,yk5LeYia,2020-0188,2021-10-14,14:57:26,16:22:37,NA,incomplete,false,true,NA,4,1,NA,black,m_l_090.jpg,NA,NA,pleasant,unpleasant,NA,NA,NA,NA,NA,left,1326.79999999702,true,NA,NA,NA,NA,NA
yk5LeYia,3o4vwc1gfzjxgki2d88xs18tr9fj3v,3n2bf7y2vu74yktgmsft17xcgsuhm3,yk5LeYia,2020-0188,2021-10-14,14:57:26,16:22:37,NA,incomplete,false,true,NA,4,2,NA,black,m_s_090.jpg,NA,NA,unpleasant,pleasant,NA,NA,NA,NA,NA,right,1653.59999999404,true,NA,NA,NA,NA,NA
yk5LeYia,3o4vwc1gfzjxgki2d88xs18tr9fj3v,3n2bf7y2vu74yktgmsft17xcgsuhm3,yk5LeYia,2020-0188,2021-10-14,14:57:26,16:22:37,NA,incomplete,false,true,NA,4,3,NA,black,m_s_099.jpg,NA,NA,unpleasant,pleasant,NA,NA,NA,NA,NA,right,1914.5,true,NA,NA,NA,NA,NA
yk5LeYia,3o4vwc1gfzjxgki2d88xs18tr9fj3v,3n2bf7y2vu74yktgmsft17xcgsuhm3,yk5LeYia,2020-0188,2021-10-14,14:57:26,16:22:37,NA,incomplete,false,true,NA,4,4,NA,black,n_s_025.jpg,NA,NA,unpleasant,pleasant,NA,NA,NA,NA,NA,right,1098.80000001192,true,NA,NA,NA,NA,NA
yk5LeYia,3o4vwc1gfzjxgki2d88xs18tr9fj3v,3n2bf7y2vu74yktgmsft17xcgsuhm3,yk5LeYia,2020-0188,2021-10-14,14:57:26,16:22:37,NA,incomplete,false,true,NA,4,5,NA,black,m_s_063.jpg,NA,NA,pleasant,unpleasant,NA,NA,NA,NA,NA,left,1510.39999999106,true,NA,NA,NA,NA,NA
yk5LeYia,3o4vwc1gfzjxgki2d88xs18tr9fj3v,3n2bf7y2vu74yktgmsft17xcgsuhm3,yk5LeYia,2020-0188,2021-10-14,14:57:26,16:22:37,NA,incomplete,false,true,NA,4,6,NA,blue,n_s_094.jpg,NA,NA,unpleasant,pleasant,NA,NA,NA,NA,NA,right,2098.20000000298,true,NA,NA,NA,NA,NA
yk5LeYia,3o4vwc1gfzjxgki2d88xs18tr9fj3v,3n2bf7y2vu74yktgmsft17xcgsuhm3,yk5LeYia,2020-0188,2021-10-14,14:57:26,16:22:37,NA,incomplete,false,true,NA,4,7,NA,blue,n_s_089.jpg,NA,NA,unpleasant,pleasant,NA,NA,NA,NA,NA,right,1448.60000000894,true,NA,NA,NA,NA,NA
yk5LeYia,3o4vwc1gfzjxgki2d88xs18tr9fj3v,3n2bf7y2vu74yktgmsft17xcgsuhm3,yk5LeYia,2020-0188,2021-10-14,14:57:26,16:22:37,NA,incomplete,false,true,NA,4,8,NA,blue,n_l_047.jpg,NA,NA,unpleasant,pleasant,NA,NA,NA,NA,NA,none,0,false,NA,NA,NA,NA,NA
yk5LeYia,3o4vwc1gfzjxgki2d88xs18tr9fj3v,3n2bf7y2vu74yktgmsft17xcgsuhm3,yk5LeYia,2020-0188,2021-10-14,14:57:26,16:22:37,NA,incomplete,false,true,NA,4,9,NA,blue,n_s_091.jpg,NA,NA,pleasant,unpleasant,NA,NA,NA,NA,NA,none,0,false,NA,NA,NA,NA,NA
yk5LeYia,3o4vwc1gfzjxgki2d88xs18tr9fj3v,3n2bf7y2vu74yktgmsft17xcgsuhm3,yk5LeYia,2020-0188,2021-10-14,14:57:26,16:22:37,NA,incomplete,false,true,NA,4,10,NA,blue,m_s_047.jpg,NA,NA,unpleasant,pleasant,NA,NA,NA,NA,NA,left,1721.40000000596,true,NA,NA,NA,NA,NA
yk5LeYia,3o4vwc1gfzjxgki2d88xs18tr9fj3v,3n2bf7y2vu74yktgmsft17xcgsuhm3,yk5LeYia,2020-0188,2021-10-14,14:57:26,16:22:37,NA,incomplete,false,true,NA,4,11,NA,blue,m_l_054.jpg,NA,NA,pleasant,unpleasant,NA,NA,NA,NA,NA,right,2117.40000000596,true,NA,NA,NA,NA,NA
yk5LeYia,3o4vwc1gfzjxgki2d88xs18tr9fj3v,3n2bf7y2vu74yktgmsft17xcgsuhm3,yk5LeYia,2020-0188,2021-10-14,14:57:26,16:22:37,NA,incomplete,false,true,NA,4,12,NA,purple,n_s_113.jpg,NA,NA,pleasant,unpleasant,NA,NA,NA,NA,NA,right,1915.29999999702,true,NA,NA,NA,NA,NA
yk5LeYia,3o4vwc1gfzjxgki2d88xs18tr9fj3v,3n2bf7y2vu74yktgmsft17xcgsuhm3,yk5LeYia,2020-0188,2021-10-14,14:57:26,16:22:37,NA,incomplete,false,true,NA,4,13,NA,purple,m_s_001.jpg,NA,NA,pleasant,unpleasant,NA,NA,NA,NA,NA,right,1740.89999999106,true,NA,NA,NA,NA,NA
yk5LeYia,3o4vwc1gfzjxgki2d88xs18tr9fj3v,3n2bf7y2vu74yktgmsft17xcgsuhm3,yk5LeYia,2020-0188,2021-10-14,14:57:26,16:22:37,NA,incomplete,false,true,NA,4,14,NA,purple,m_s_070.jpg,NA,NA,unpleasant,pleasant,NA,NA,NA,NA,NA,left,1454.5,true,NA,NA,NA,NA,NA
yk5LeYia,3o4vwc1gfzjxgki2d88xs18tr9fj3v,3n2bf7y2vu74yktgmsft17xcgsuhm3,yk5LeYia,2020-0188,2021-10-14,14:57:26,16:22:37,NA,incomplete,false,true,NA,4,15,NA,purple,n_s_062.jpg,NA,NA,pleasant,unpleasant,NA,NA,NA,NA,NA,left,2664.20000000298,true,NA,NA,NA,NA,NA
yk5LeYia,3o4vwc1gfzjxgki2d88xs18tr9fj3v,3n2bf7y2vu74yktgmsft17xcgsuhm3,yk5LeYia,2020-0188,2021-10-14,14:57:26,16:22:37,NA,incomplete,false,true,NA,4,16,NA,purple,n_l_073.jpg,NA,NA,unpleasant,pleasant,NA,NA,NA,NA,NA,right,1498.89999999106,true,NA,NA,NA,NA,NA
yk5LeYia,3o4vwc1gfzjxgki2d88xs18tr9fj3v,3n2bf7y2vu74yktgmsft17xcgsuhm3,yk5LeYia,2020-0188,2021-10-14,14:57:26,16:22:37,NA,incomplete,false,true,NA,4,17,NA,purple,n_l_037.jpg,NA,NA,pleasant,unpleasant,NA,NA,NA,NA,NA,left,1201.79999999702,true,NA,NA,NA,NA,NA
yk5LeYia,3o4vwc1gfzjxgki2d88xs18tr9fj3v,3n2bf7y2vu74yktgmsft17xcgsuhm3,yk5LeYia,2020-0188,2021-10-14,14:57:26,16:22:37,NA,incomplete,false,true,NA,4,18,NA,green,m_l_056.jpg,NA,NA,unpleasant,pleasant,NA,NA,NA,NA,NA,left,2477.60000000894,true,NA,NA,NA,NA,NA
yk5LeYia,3o4vwc1gfzjxgki2d88xs18tr9fj3v,3n2bf7y2vu74yktgmsft17xcgsuhm3,yk5LeYia,2020-0188,2021-10-14,14:57:26,16:22:37,NA,incomplete,false,true,NA,4,19,NA,green,n_l_027.jpg,NA,NA,unpleasant,pleasant,NA,NA,NA,NA,NA,right,1912.89999999106,true,NA,NA,NA,NA,NA
yk5LeYia,3o4vwc1gfzjxgki2d88xs18tr9fj3v,3n2bf7y2vu74yktgmsft17xcgsuhm3,yk5LeYia,2020-0188,2021-10-14,14:57:26,16:22:37,NA,incomplete,false,true,NA,4,20,NA,green,m_s_102.jpg,NA,NA,unpleasant,pleasant,NA,NA,NA,NA,NA,right,1436.59999999404,true,NA,NA,NA,NA,NA
yk5LeYia,3o4vwc1gfzjxgki2d88xs18tr9fj3v,3n2bf7y2vu74yktgmsft17xcgsuhm3,yk5LeYia,2020-0188,2021-10-14,14:57:26,16:22:37,NA,incomplete,false,true,NA,4,21,NA,green,n_l_098.jpg,NA,NA,unpleasant,pleasant,NA,NA,NA,NA,NA,right,1866.70000000298,true,NA,NA,NA,NA,NA
yk5LeYia,3o4vwc1gfzjxgki2d88xs18tr9fj3v,3n2bf7y2vu74yktgmsft17xcgsuhm3,yk5LeYia,2020-0188,2021-10-14,14:57:26,16:22:37,NA,incomplete,false,true,NA,4,22,NA,green,n_s_006.jpg,NA,NA,pleasant,unpleasant,NA,NA,NA,NA,NA,left,1135.59999999404,true,NA,NA,NA,NA,NA
yk5LeYia,3o4vwc1gfzjxgki2d88xs18tr9fj3v,3n2bf7y2vu74yktgmsft17xcgsuhm3,yk5LeYia,2020-0188,2021-10-14,14:57:26,16:22:37,NA,incomplete,false,true,NA,4,23,NA,green,m_l_016.jpg,NA,NA,pleasant,unpleasant,NA,NA,NA,NA,NA,left,2860.79999999702,true,NA,NA,NA,NA,NA
yk5LeYia,3o4vwc1gfzjxgki2d88xs18tr9fj3v,3n2bf7y2vu74yktgmsft17xcgsuhm3,yk5LeYia,2020-0188,2021-10-14,14:57:26,16:22:37,NA,incomplete,false,true,NA,4,24,NA,yellow,m_s_008.jpg,NA,NA,unpleasant,pleasant,NA,NA,NA,NA,NA,right,2569,true,NA,NA,NA,NA,NA
yk5LeYia,3o4vwc1gfzjxgki2d88xs18tr9fj3v,3n2bf7y2vu74yktgmsft17xcgsuhm3,yk5LeYia,2020-0188,2021-10-14,14:57:26,16:22:37,NA,incomplete,false,true,NA,4,25,NA,yellow,m_s_037.jpg,NA,NA,pleasant,unpleasant,NA,NA,NA,NA,NA,left,1362.40000000596,true,NA,NA,NA,NA,NA
yk5LeYia,3o4vwc1gfzjxgki2d88xs18tr9fj3v,3n2bf7y2vu74yktgmsft17xcgsuhm3,yk5LeYia,2020-0188,2021-10-14,14:57:26,16:22:37,NA,incomplete,false,true,NA,4,26,NA,yellow,m_l_098.jpg,NA,NA,pleasant,unpleasant,NA,NA,NA,NA,NA,left,2516,true,NA,NA,NA,NA,NA
yk5LeYia,3o4vwc1gfzjxgki2d88xs18tr9fj3v,3n2bf7y2vu74yktgmsft17xcgsuhm3,yk5LeYia,2020-0188,2021-10-14,14:57:26,16:22:37,NA,incomplete,false,true,NA,4,27,NA,yellow,m_l_045.jpg,NA,NA,pleasant,unpleasant,NA,NA,NA,NA,NA,left,1000.60000000894,true,NA,NA,NA,NA,NA
yk5LeYia,3o4vwc1gfzjxgki2d88xs18tr9fj3v,3n2bf7y2vu74yktgmsft17xcgsuhm3,yk5LeYia,2020-0188,2021-10-14,14:57:26,16:22:37,NA,incomplete,false,true,NA,4,28,NA,yellow,n_l_028.jpg,NA,NA,pleasant,unpleasant,NA,NA,NA,NA,NA,right,1553.39999999106,true,NA,NA,NA,NA,NA
yk5LeYia,3o4vwc1gfzjxgki2d88xs18tr9fj3v,3n2bf7y2vu74yktgmsft17xcgsuhm3,yk5LeYia,2020-0188,2021-10-14,14:57:26,16:22:37,NA,incomplete,false,true,NA,4,29,NA,yellow,n_s_085.jpg,NA,NA,unpleasant,pleasant,NA,NA,NA,NA,NA,left,1416.80000001192,true,NA,NA,NA,NA,NA
yk5LeYia,3o4vwc1gfzjxgki2d88xs18tr9fj3v,3n2bf7y2vu74yktgmsft17xcgsuhm3,yk5LeYia,2020-0188,2021-10-14,14:57:26,16:22:37,NA,incomplete,false,true,NA,4,30,NA,red,m_s_041.jpg,NA,NA,unpleasant,pleasant,NA,NA,NA,NA,NA,right,1364.29999999702,true,NA,NA,NA,NA,NA
yk5LeYia,3o4vwc1gfzjxgki2d88xs18tr9fj3v,3n2bf7y2vu74yktgmsft17xcgsuhm3,yk5LeYia,2020-0188,2021-10-14,14:57:26,16:22:37,NA,incomplete,false,true,NA,4,31,NA,red,n_s_090.jpg,NA,NA,pleasant,unpleasant,NA,NA,NA,NA,NA,left,1407.59999999404,true,NA,NA,NA,NA,NA
yk5LeYia,3o4vwc1gfzjxgki2d88xs18tr9fj3v,3n2bf7y2vu74yktgmsft17xcgsuhm3,yk5LeYia,2020-0188,2021-10-14,14:57:26,16:22:37,NA,incomplete,false,true,NA,4,32,NA,red,n_l_094.jpg,NA,NA,unpleasant,pleasant,NA,NA,NA,NA,NA,right,2979.89999999106,true,NA,NA,NA,NA,NA
yk5LeYia,3o4vwc1gfzjxgki2d88xs18tr9fj3v,3n2bf7y2vu74yktgmsft17xcgsuhm3,yk5LeYia,2020-0188,2021-10-14,14:57:26,16:22:37,NA,incomplete,false,true,NA,4,33,NA,red,m_l_003.jpg,NA,NA,unpleasant,pleasant,NA,NA,NA,NA,NA,right,1261.59999999404,true,NA,NA,NA,NA,NA
yk5LeYia,3o4vwc1gfzjxgki2d88xs18tr9fj3v,3n2bf7y2vu74yktgmsft17xcgsuhm3,yk5LeYia,2020-0188,2021-10-14,14:57:26,16:22:37,NA,incomplete,false,true,NA,4,34,NA,red,m_l_034.jpg,NA,NA,pleasant,unpleasant,NA,NA,NA,NA,NA,left,1268.30000001192,true,NA,NA,NA,NA,NA
yk5LeYia,3o4vwc1gfzjxgki2d88xs18tr9fj3v,3n2bf7y2vu74yktgmsft17xcgsuhm3,yk5LeYia,2020-0188,2021-10-14,14:57:26,16:22:37,NA,incomplete,false,true,NA,4,35,NA,red,m_s_020.jpg,NA,NA,pleasant,unpleasant,NA,NA,NA,NA,NA,left,1765.20000000298,true,NA,NA,NA,NA,NA
yk5LeYia,3o4vwc1gfzjxgki2d88xs18tr9fj3v,3n2bf7y2vu74yktgmsft17xcgsuhm3,yk5LeYia,2020-0188,2021-10-14,14:57:26,16:22:37,NA,incomplete,false,NA,true,4,0,NA,NA,NA,left,absent,NA,NA,n_s_089.jpg,blue,m_l_054.jpg,blue,within,NA,NaN,NA,left,3436.0999999940395,1,1,1908
yk5LeYia,3o4vwc1gfzjxgki2d88xs18tr9fj3v,3n2bf7y2vu74yktgmsft17xcgsuhm3,yk5LeYia,2020-0188,2021-10-14,14:57:26,16:22:37,NA,incomplete,false,NA,true,4,1,NA,NA,NA,left,absent,NA,NA,n_s_025.jpg,black,n_l_047.jpg,blue,between,NA,NaN,NA,left,2140.9000000059605,1,1,997.1000000089407
yk5LeYia,3o4vwc1gfzjxgki2d88xs18tr9fj3v,3n2bf7y2vu74yktgmsft17xcgsuhm3,yk5LeYia,2020-0188,2021-10-14,14:57:26,16:22:37,NA,incomplete,false,NA,true,4,2,NA,NA,NA,left,absent,NA,NA,n_s_006.jpg,green,m_l_098.jpg,yellow,between,NA,NaN,NA,left,2257.1000000089407,1,1,2036.2999999970198
yk5LeYia,3o4vwc1gfzjxgki2d88xs18tr9fj3v,3n2bf7y2vu74yktgmsft17xcgsuhm3,yk5LeYia,2020-0188,2021-10-14,14:57:26,16:22:37,NA,incomplete,false,NA,true,4,3,NA,NA,NA,right,absent,NA,NA,n_l_094.jpg,red,n_l_028.jpg,yellow,between,NA,NaN,NA,left,2486.5,0,1,992.9000000059605
yk5LeYia,3o4vwc1gfzjxgki2d88xs18tr9fj3v,3n2bf7y2vu74yktgmsft17xcgsuhm3,yk5LeYia,2020-0188,2021-10-14,14:57:26,16:22:37,NA,incomplete,false,NA,true,4,4,NA,NA,NA,left,absent,NA,NA,m_s_047.jpg,blue,m_s_070.jpg,purple,between,NA,NaN,NA,right,2481.9000000059605,0,1,2155.2999999970198
yk5LeYia,3o4vwc1gfzjxgki2d88xs18tr9fj3v,3n2bf7y2vu74yktgmsft17xcgsuhm3,yk5LeYia,2020-0188,2021-10-14,14:57:26,16:22:37,NA,incomplete,false,NA,true,4,5,NA,NA,NA,right,absent,NA,NA,m_s_020.jpg,red,n_s_090.jpg,red,within,NA,NaN,NA,left,2631.2999999970198,0,1,815.2999999970198
yk5LeYia,3o4vwc1gfzjxgki2d88xs18tr9fj3v,3n2bf7y2vu74yktgmsft17xcgsuhm3,yk5LeYia,2020-0188,2021-10-14,14:57:26,16:22:37,NA,incomplete,false,NA,true,4,6,NA,NA,NA,right,absent,NA,NA,m_s_063.jpg,black,m_l_090.jpg,black,within,NA,NaN,NA,right,2692.9000000059605,1,2,1997.7000000029802
yk5LeYia,3o4vwc1gfzjxgki2d88xs18tr9fj3v,3n2bf7y2vu74yktgmsft17xcgsuhm3,yk5LeYia,2020-0188,2021-10-14,14:57:26,16:22:37,NA,incomplete,false,NA,true,4,7,NA,NA,NA,right,absent,NA,NA,n_s_085.jpg,yellow,m_s_037.jpg,yellow,within,NA,NaN,NA,left,1870.2999999970198,0,1,1116.9000000059605
yk5LeYia,3o4vwc1gfzjxgki2d88xs18tr9fj3v,3n2bf7y2vu74yktgmsft17xcgsuhm3,yk5LeYia,2020-0188,2021-10-14,14:57:26,16:22:37,NA,incomplete,false,NA,true,4,8,NA,NA,NA,right,absent,NA,NA,m_s_102.jpg,green,n_l_073.jpg,purple,between,NA,NaN,NA,left,1376.6000000089407,0,1,958.4000000059605
yk5LeYia,3o4vwc1gfzjxgki2d88xs18tr9fj3v,3n2bf7y2vu74yktgmsft17xcgsuhm3,yk5LeYia,2020-0188,2021-10-14,14:57:26,16:22:37,NA,incomplete,false,NA,true,4,9,NA,NA,NA,left,absent,NA,NA,n_l_027.jpg,green,m_l_016.jpg,green,within,NA,NaN,NA,right,4014.2000000029802,0,1,1046.300000011921
yk5LeYia,3o4vwc1gfzjxgki2d88xs18tr9fj3v,3n2bf7y2vu74yktgmsft17xcgsuhm3,yk5LeYia,2020-0188,2021-10-14,14:57:26,16:22:37,NA,incomplete,false,NA,true,4,10,NA,NA,NA,left,absent,NA,NA,m_s_001.jpg,purple,n_l_037.jpg,purple,within,NA,NaN,NA,right,3566.4000000059605,0,1,827.5
yk5LeYia,3o4vwc1gfzjxgki2d88xs18tr9fj3v,3n2bf7y2vu74yktgmsft17xcgsuhm3,yk5LeYia,2020-0188,2021-10-14,14:57:26,16:22:37,NA,incomplete,false,true,NA,5,0,NA,black,m_l_093.jpg,NA,NA,unpleasant,pleasant,NA,NA,NA,NA,NA,right,2523.20000000298,true,NA,NA,NA,NA,NA
yk5LeYia,3o4vwc1gfzjxgki2d88xs18tr9fj3v,3n2bf7y2vu74yktgmsft17xcgsuhm3,yk5LeYia,2020-0188,2021-10-14,14:57:26,16:22:37,NA,incomplete,false,true,NA,5,1,NA,black,m_l_101.jpg,NA,NA,unpleasant,pleasant,NA,NA,NA,NA,NA,left,1409.5,true,NA,NA,NA,NA,NA
yk5LeYia,3o4vwc1gfzjxgki2d88xs18tr9fj3v,3n2bf7y2vu74yktgmsft17xcgsuhm3,yk5LeYia,2020-0188,2021-10-14,14:57:26,16:22:37,NA,incomplete,false,true,NA,5,2,NA,black,n_l_016.jpg,NA,NA,unpleasant,pleasant,NA,NA,NA,NA,NA,right,1077.80000001192,true,NA,NA,NA,NA,NA
yk5LeYia,3o4vwc1gfzjxgki2d88xs18tr9fj3v,3n2bf7y2vu74yktgmsft17xcgsuhm3,yk5LeYia,2020-0188,2021-10-14,14:57:26,16:22:37,NA,incomplete,false,true,NA,5,3,NA,black,m_l_094.jpg,NA,NA,pleasant,unpleasant,NA,NA,NA,NA,NA,left,1684,true,NA,NA,NA,NA,NA
yk5LeYia,3o4vwc1gfzjxgki2d88xs18tr9fj3v,3n2bf7y2vu74yktgmsft17xcgsuhm3,yk5LeYia,2020-0188,2021-10-14,14:57:26,16:22:37,NA,incomplete,false,true,NA,5,4,NA,black,m_s_103.jpg,NA,NA,unpleasant,pleasant,NA,NA,NA,NA,NA,right,1586.60000000894,true,NA,NA,NA,NA,NA
yk5LeYia,3o4vwc1gfzjxgki2d88xs18tr9fj3v,3n2bf7y2vu74yktgmsft17xcgsuhm3,yk5LeYia,2020-0188,2021-10-14,14:57:26,16:22:37,NA,incomplete,false,true,NA,5,5,NA,black,m_l_110.jpg,NA,NA,pleasant,unpleasant,NA,NA,NA,NA,NA,left,1297.5,true,NA,NA,NA,NA,NA
yk5LeYia,3o4vwc1gfzjxgki2d88xs18tr9fj3v,3n2bf7y2vu74yktgmsft17xcgsuhm3,yk5LeYia,2020-0188,2021-10-14,14:57:26,16:22:37,NA,incomplete,false,true,NA,5,6,NA,yellow,m_s_111.jpg,NA,NA,pleasant,unpleasant,NA,NA,NA,NA,NA,left,1600.5,true,NA,NA,NA,NA,NA
yk5LeYia,3o4vwc1gfzjxgki2d88xs18tr9fj3v,3n2bf7y2vu74yktgmsft17xcgsuhm3,yk5LeYia,2020-0188,2021-10-14,14:57:26,16:22:37,NA,incomplete,false,true,NA,5,7,NA,yellow,m_s_003.jpg,NA,NA,unpleasant,pleasant,NA,NA,NA,NA,NA,right,1279.20000000298,true,NA,NA,NA,NA,NA
yk5LeYia,3o4vwc1gfzjxgki2d88xs18tr9fj3v,3n2bf7y2vu74yktgmsft17xcgsuhm3,yk5LeYia,2020-0188,2021-10-14,14:57:26,16:22:37,NA,incomplete,false,true,NA,5,8,NA,yellow,n_l_021.jpg,NA,NA,pleasant,unpleasant,NA,NA,NA,NA,NA,left,1427.5,true,NA,NA,NA,NA,NA
yk5LeYia,3o4vwc1gfzjxgki2d88xs18tr9fj3v,3n2bf7y2vu74yktgmsft17xcgsuhm3,yk5LeYia,2020-0188,2021-10-14,14:57:26,16:22:37,NA,incomplete,false,true,NA,5,9,NA,yellow,m_l_102.jpg,NA,NA,unpleasant,pleasant,NA,NA,NA,NA,NA,right,2139.09999999404,true,NA,NA,NA,NA,NA
yk5LeYia,3o4vwc1gfzjxgki2d88xs18tr9fj3v,3n2bf7y2vu74yktgmsft17xcgsuhm3,yk5LeYia,2020-0188,2021-10-14,14:57:26,16:22:37,NA,incomplete,false,true,NA,5,10,NA,yellow,n_s_080.jpg,NA,NA,unpleasant,pleasant,NA,NA,NA,NA,NA,right,1506.59999999404,true,NA,NA,NA,NA,NA
yk5LeYia,3o4vwc1gfzjxgki2d88xs18tr9fj3v,3n2bf7y2vu74yktgmsft17xcgsuhm3,yk5LeYia,2020-0188,2021-10-14,14:57:26,16:22:37,NA,incomplete,false,true,NA,5,11,NA,yellow,n_s_057.jpg,NA,NA,unpleasant,pleasant,NA,NA,NA,NA,NA,right,1453.09999999404,true,NA,NA,NA,NA,NA
yk5LeYia,3o4vwc1gfzjxgki2d88xs18tr9fj3v,3n2bf7y2vu74yktgmsft17xcgsuhm3,yk5LeYia,2020-0188,2021-10-14,14:57:26,16:22:37,NA,incomplete,false,true,NA,5,12,NA,gray,m_s_082.jpg,NA,NA,unpleasant,pleasant,NA,NA,NA,NA,NA,right,957.70000000298,true,NA,NA,NA,NA,NA
yk5LeYia,3o4vwc1gfzjxgki2d88xs18tr9fj3v,3n2bf7y2vu74yktgmsft17xcgsuhm3,yk5LeYia,2020-0188,2021-10-14,14:57:26,16:22:37,NA,incomplete,false,true,NA,5,13,NA,gray,m_l_099.jpg,NA,NA,unpleasant,pleasant,NA,NA,NA,NA,NA,right,1204.90000000596,true,NA,NA,NA,NA,NA
yk5LeYia,3o4vwc1gfzjxgki2d88xs18tr9fj3v,3n2bf7y2vu74yktgmsft17xcgsuhm3,yk5LeYia,2020-0188,2021-10-14,14:57:26,16:22:37,NA,incomplete,false,true,NA,5,14,NA,gray,n_l_070.jpg,NA,NA,pleasant,unpleasant,NA,NA,NA,NA,NA,left,1882.89999999106,true,NA,NA,NA,NA,NA
yk5LeYia,3o4vwc1gfzjxgki2d88xs18tr9fj3v,3n2bf7y2vu74yktgmsft17xcgsuhm3,yk5LeYia,2020-0188,2021-10-14,14:57:26,16:22:37,NA,incomplete,false,true,NA,5,15,NA,gray,m_l_077.jpg,NA,NA,pleasant,unpleasant,NA,NA,NA,NA,NA,left,1196.69999998808,true,NA,NA,NA,NA,NA
yk5LeYia,3o4vwc1gfzjxgki2d88xs18tr9fj3v,3n2bf7y2vu74yktgmsft17xcgsuhm3,yk5LeYia,2020-0188,2021-10-14,14:57:26,16:22:37,NA,incomplete,false,true,NA,5,16,NA,gray,m_s_115.jpg,NA,NA,pleasant,unpleasant,NA,NA,NA,NA,NA,left,1471.70000000298,true,NA,NA,NA,NA,NA
yk5LeYia,3o4vwc1gfzjxgki2d88xs18tr9fj3v,3n2bf7y2vu74yktgmsft17xcgsuhm3,yk5LeYia,2020-0188,2021-10-14,14:57:26,16:22:37,NA,incomplete,false,true,NA,5,17,NA,gray,n_s_017.jpg,NA,NA,unpleasant,pleasant,NA,NA,NA,NA,NA,right,1926.69999998808,true,NA,NA,NA,NA,NA
yk5LeYia,3o4vwc1gfzjxgki2d88xs18tr9fj3v,3n2bf7y2vu74yktgmsft17xcgsuhm3,yk5LeYia,2020-0188,2021-10-14,14:57:26,16:22:37,NA,incomplete,false,true,NA,5,18,NA,blue,n_s_111.jpg,NA,NA,pleasant,unpleasant,NA,NA,NA,NA,NA,left,1121.09999999404,true,NA,NA,NA,NA,NA
yk5LeYia,3o4vwc1gfzjxgki2d88xs18tr9fj3v,3n2bf7y2vu74yktgmsft17xcgsuhm3,yk5LeYia,2020-0188,2021-10-14,14:57:26,16:22:37,NA,incomplete,false,true,NA,5,19,NA,blue,n_l_006.jpg,NA,NA,pleasant,unpleasant,NA,NA,NA,NA,NA,left,969.5,true,NA,NA,NA,NA,NA
yk5LeYia,3o4vwc1gfzjxgki2d88xs18tr9fj3v,3n2bf7y2vu74yktgmsft17xcgsuhm3,yk5LeYia,2020-0188,2021-10-14,14:57:26,16:22:37,NA,incomplete,false,true,NA,5,20,NA,blue,m_l_107.jpg,NA,NA,unpleasant,pleasant,NA,NA,NA,NA,NA,right,1064.60000000894,true,NA,NA,NA,NA,NA
yk5LeYia,3o4vwc1gfzjxgki2d88xs18tr9fj3v,3n2bf7y2vu74yktgmsft17xcgsuhm3,yk5LeYia,2020-0188,2021-10-14,14:57:26,16:22:37,NA,incomplete,false,true,NA,5,21,NA,blue,n_l_060.jpg,NA,NA,unpleasant,pleasant,NA,NA,NA,NA,NA,right,1218.09999999404,true,NA,NA,NA,NA,NA
yk5LeYia,3o4vwc1gfzjxgki2d88xs18tr9fj3v,3n2bf7y2vu74yktgmsft17xcgsuhm3,yk5LeYia,2020-0188,2021-10-14,14:57:26,16:22:37,NA,incomplete,false,true,NA,5,22,NA,blue,m_l_087.jpg,NA,NA,pleasant,unpleasant,NA,NA,NA,NA,NA,left,1335,true,NA,NA,NA,NA,NA
yk5LeYia,3o4vwc1gfzjxgki2d88xs18tr9fj3v,3n2bf7y2vu74yktgmsft17xcgsuhm3,yk5LeYia,2020-0188,2021-10-14,14:57:26,16:22:37,NA,incomplete,false,true,NA,5,23,NA,blue,n_l_033.jpg,NA,NA,pleasant,unpleasant,NA,NA,NA,NA,NA,left,1848.59999999404,true,NA,NA,NA,NA,NA
yk5LeYia,3o4vwc1gfzjxgki2d88xs18tr9fj3v,3n2bf7y2vu74yktgmsft17xcgsuhm3,yk5LeYia,2020-0188,2021-10-14,14:57:26,16:22:37,NA,incomplete,false,true,NA,5,24,NA,orange,n_s_074.jpg,NA,NA,pleasant,unpleasant,NA,NA,NA,NA,NA,left,1216.79999999702,true,NA,NA,NA,NA,NA
yk5LeYia,3o4vwc1gfzjxgki2d88xs18tr9fj3v,3n2bf7y2vu74yktgmsft17xcgsuhm3,yk5LeYia,2020-0188,2021-10-14,14:57:26,16:22:37,NA,incomplete,false,true,NA,5,25,NA,orange,m_l_009.jpg,NA,NA,pleasant,unpleasant,NA,NA,NA,NA,NA,left,1314.20000000298,true,NA,NA,NA,NA,NA
yk5LeYia,3o4vwc1gfzjxgki2d88xs18tr9fj3v,3n2bf7y2vu74yktgmsft17xcgsuhm3,yk5LeYia,2020-0188,2021-10-14,14:57:26,16:22:37,NA,incomplete,false,true,NA,5,26,NA,orange,n_s_035.jpg,NA,NA,unpleasant,pleasant,NA,NA,NA,NA,NA,right,1076.09999999404,true,NA,NA,NA,NA,NA
yk5LeYia,3o4vwc1gfzjxgki2d88xs18tr9fj3v,3n2bf7y2vu74yktgmsft17xcgsuhm3,yk5LeYia,2020-0188,2021-10-14,14:57:26,16:22:37,NA,incomplete,false,true,NA,5,27,NA,orange,n_s_086.jpg,NA,NA,unpleasant,pleasant,NA,NA,NA,NA,NA,right,2009.39999999106,true,NA,NA,NA,NA,NA
yk5LeYia,3o4vwc1gfzjxgki2d88xs18tr9fj3v,3n2bf7y2vu74yktgmsft17xcgsuhm3,yk5LeYia,2020-0188,2021-10-14,14:57:26,16:22:37,NA,incomplete,false,true,NA,5,28,NA,orange,n_l_084.jpg,NA,NA,unpleasant,pleasant,NA,NA,NA,NA,NA,right,1423,true,NA,NA,NA,NA,NA
yk5LeYia,3o4vwc1gfzjxgki2d88xs18tr9fj3v,3n2bf7y2vu74yktgmsft17xcgsuhm3,yk5LeYia,2020-0188,2021-10-14,14:57:26,16:22:37,NA,incomplete,false,true,NA,5,29,NA,orange,m_l_080.jpg,NA,NA,unpleasant,pleasant,NA,NA,NA,NA,NA,right,909.90000000596,true,NA,NA,NA,NA,NA
yk5LeYia,3o4vwc1gfzjxgki2d88xs18tr9fj3v,3n2bf7y2vu74yktgmsft17xcgsuhm3,yk5LeYia,2020-0188,2021-10-14,14:57:26,16:22:37,NA,incomplete,false,true,NA,5,30,NA,white,m_l_115.jpg,NA,NA,pleasant,unpleasant,NA,NA,NA,NA,NA,left,1402.5,true,NA,NA,NA,NA,NA
yk5LeYia,3o4vwc1gfzjxgki2d88xs18tr9fj3v,3n2bf7y2vu74yktgmsft17xcgsuhm3,yk5LeYia,2020-0188,2021-10-14,14:57:26,16:22:37,NA,incomplete,false,true,NA,5,31,NA,white,m_s_023.jpg,NA,NA,pleasant,unpleasant,NA,NA,NA,NA,NA,left,1240.59999999404,true,NA,NA,NA,NA,NA
yk5LeYia,3o4vwc1gfzjxgki2d88xs18tr9fj3v,3n2bf7y2vu74yktgmsft17xcgsuhm3,yk5LeYia,2020-0188,2021-10-14,14:57:26,16:22:37,NA,incomplete,false,true,NA,5,32,NA,white,m_l_113.jpg,NA,NA,unpleasant,pleasant,NA,NA,NA,NA,NA,right,1397.89999999106,true,NA,NA,NA,NA,NA
yk5LeYia,3o4vwc1gfzjxgki2d88xs18tr9fj3v,3n2bf7y2vu74yktgmsft17xcgsuhm3,yk5LeYia,2020-0188,2021-10-14,14:57:26,16:22:37,NA,incomplete,false,true,NA,5,33,NA,white,n_s_078.jpg,NA,NA,unpleasant,pleasant,NA,NA,NA,NA,NA,right,1185.29999999702,true,NA,NA,NA,NA,NA
yk5LeYia,3o4vwc1gfzjxgki2d88xs18tr9fj3v,3n2bf7y2vu74yktgmsft17xcgsuhm3,yk5LeYia,2020-0188,2021-10-14,14:57:26,16:22:37,NA,incomplete,false,true,NA,5,34,NA,white,m_s_022.jpg,NA,NA,pleasant,unpleasant,NA,NA,NA,NA,NA,left,1352.10000000894,true,NA,NA,NA,NA,NA
yk5LeYia,3o4vwc1gfzjxgki2d88xs18tr9fj3v,3n2bf7y2vu74yktgmsft17xcgsuhm3,yk5LeYia,2020-0188,2021-10-14,14:57:26,16:22:37,NA,incomplete,false,true,NA,5,35,NA,white,m_l_067.jpg,NA,NA,unpleasant,pleasant,NA,NA,NA,NA,NA,right,1256.5,true,NA,NA,NA,NA,NA
yk5LeYia,3o4vwc1gfzjxgki2d88xs18tr9fj3v,3n2bf7y2vu74yktgmsft17xcgsuhm3,yk5LeYia,2020-0188,2021-10-14,14:57:26,16:22:37,NA,incomplete,false,NA,true,5,0,NA,NA,NA,left,present,NA,NA,m_l_099.jpg,gray,n_s_017.jpg,gray,within,NA,NaN,NA,left,5474.20000000298,1,1,1391
yk5LeYia,3o4vwc1gfzjxgki2d88xs18tr9fj3v,3n2bf7y2vu74yktgmsft17xcgsuhm3,yk5LeYia,2020-0188,2021-10-14,14:57:26,16:22:37,NA,incomplete,false,NA,true,5,1,NA,NA,NA,left,present,NA,NA,m_s_023.jpg,white,m_l_067.jpg,white,within,NA,NaN,NA,left,2106.1000000089407,1,2,1936.6000000089407
yk5LeYia,3o4vwc1gfzjxgki2d88xs18tr9fj3v,3n2bf7y2vu74yktgmsft17xcgsuhm3,yk5LeYia,2020-0188,2021-10-14,14:57:26,16:22:37,NA,incomplete,false,NA,true,5,2,NA,NA,NA,left,present,NA,NA,n_s_080.jpg,yellow,n_l_070.jpg,gray,between,NA,NaN,NA,left,1562.3999999910593,1,1,762.7999999970198
yk5LeYia,3o4vwc1gfzjxgki2d88xs18tr9fj3v,3n2bf7y2vu74yktgmsft17xcgsuhm3,yk5LeYia,2020-0188,2021-10-14,14:57:26,16:22:37,NA,incomplete,false,NA,true,5,3,NA,NA,NA,left,present,NA,NA,n_l_084.jpg,orange,m_l_113.jpg,white,between,NA,NaN,NA,left,1702.5999999940395,1,1,1031.0999999940395
yk5LeYia,3o4vwc1gfzjxgki2d88xs18tr9fj3v,3n2bf7y2vu74yktgmsft17xcgsuhm3,yk5LeYia,2020-0188,2021-10-14,14:57:26,16:22:37,NA,incomplete,false,NA,true,5,4,NA,NA,NA,right,present,NA,NA,n_s_035.jpg,orange,m_l_087.jpg,blue,between,NA,NaN,NA,left,2215.800000011921,0,1,2404
yk5LeYia,3o4vwc1gfzjxgki2d88xs18tr9fj3v,3n2bf7y2vu74yktgmsft17xcgsuhm3,yk5LeYia,2020-0188,2021-10-14,14:57:26,16:22:37,NA,incomplete,false,NA,true,5,5,NA,NA,NA,left,present,NA,NA,m_s_003.jpg,yellow,n_s_057.jpg,yellow,within,NA,NaN,NA,right,2551.7000000029802,0,1,1440.800000011921
yk5LeYia,3o4vwc1gfzjxgki2d88xs18tr9fj3v,3n2bf7y2vu74yktgmsft17xcgsuhm3,yk5LeYia,2020-0188,2021-10-14,14:57:26,16:22:37,NA,incomplete,false,NA,true,5,6,NA,NA,NA,right,present,NA,NA,n_l_033.jpg,blue,n_l_006.jpg,blue,within,NA,NaN,NA,left,2078.0999999940395,0,1,928.5
yk5LeYia,3o4vwc1gfzjxgki2d88xs18tr9fj3v,3n2bf7y2vu74yktgmsft17xcgsuhm3,yk5LeYia,2020-0188,2021-10-14,14:57:26,16:22:37,NA,incomplete,false,NA,true,5,7,NA,NA,NA,left,present,NA,NA,m_l_009.jpg,orange,m_l_080.jpg,orange,within,NA,NaN,NA,right,1653.5,0,1,2039.800000011921
yk5LeYia,3o4vwc1gfzjxgki2d88xs18tr9fj3v,3n2bf7y2vu74yktgmsft17xcgsuhm3,yk5LeYia,2020-0188,2021-10-14,14:57:26,16:22:37,NA,incomplete,false,NA,true,5,8,NA,NA,NA,left,present,NA,NA,m_l_101.jpg,black,m_l_110.jpg,black,within,NA,NaN,NA,left,2498.5,1,1,1527.8999999910593
yk5LeYia,3o4vwc1gfzjxgki2d88xs18tr9fj3v,3n2bf7y2vu74yktgmsft17xcgsuhm3,yk5LeYia,2020-0188,2021-10-14,14:57:26,16:22:37,NA,incomplete,false,NA,true,5,9,NA,NA,NA,right,present,NA,NA,m_l_107.jpg,blue,m_s_115.jpg,gray,between,NA,NaN,NA,left,2431.5999999940395,0,1,1874.0999999940395
yk5LeYia,3o4vwc1gfzjxgki2d88xs18tr9fj3v,3n2bf7y2vu74yktgmsft17xcgsuhm3,yk5LeYia,2020-0188,2021-10-14,14:57:26,16:22:37,NA,incomplete,false,NA,true,5,10,NA,NA,NA,right,present,NA,NA,n_l_021.jpg,yellow,m_s_103.jpg,black,between,NA,NaN,NA,right,2047.6000000089407,1,1,2247.8999999910593
yk5LeYia,3o4vwc1gfzjxgki2d88xs18tr9fj3v,3n2bf7y2vu74yktgmsft17xcgsuhm3,yk5LeYia,2020-0188,2021-10-14,14:57:26,16:22:37,NA,incomplete,false,true,NA,6,0,NA,brown,m_l_073.jpg,NA,NA,pleasant,unpleasant,NA,NA,NA,NA,NA,left,2134.60000000894,true,NA,NA,NA,NA,NA
yk5LeYia,3o4vwc1gfzjxgki2d88xs18tr9fj3v,3n2bf7y2vu74yktgmsft17xcgsuhm3,yk5LeYia,2020-0188,2021-10-14,14:57:26,16:22:37,NA,incomplete,false,true,NA,6,1,NA,brown,m_s_036.jpg,NA,NA,unpleasant,pleasant,NA,NA,NA,NA,NA,right,1376.40000000596,true,NA,NA,NA,NA,NA
yk5LeYia,3o4vwc1gfzjxgki2d88xs18tr9fj3v,3n2bf7y2vu74yktgmsft17xcgsuhm3,yk5LeYia,2020-0188,2021-10-14,14:57:26,16:22:37,NA,incomplete,false,true,NA,6,2,NA,brown,n_l_045.jpg,NA,NA,pleasant,unpleasant,NA,NA,NA,NA,NA,left,1127.29999999702,true,NA,NA,NA,NA,NA
yk5LeYia,3o4vwc1gfzjxgki2d88xs18tr9fj3v,3n2bf7y2vu74yktgmsft17xcgsuhm3,yk5LeYia,2020-0188,2021-10-14,14:57:26,16:22:37,NA,incomplete,false,true,NA,6,3,NA,brown,n_l_044.jpg,NA,NA,pleasant,unpleasant,NA,NA,NA,NA,NA,left,931.20000000298,true,NA,NA,NA,NA,NA
yk5LeYia,3o4vwc1gfzjxgki2d88xs18tr9fj3v,3n2bf7y2vu74yktgmsft17xcgsuhm3,yk5LeYia,2020-0188,2021-10-14,14:57:26,16:22:37,NA,incomplete,false,true,NA,6,4,NA,brown,n_l_086.jpg,NA,NA,pleasant,unpleasant,NA,NA,NA,NA,NA,left,1561.90000000596,true,NA,NA,NA,NA,NA
yk5LeYia,3o4vwc1gfzjxgki2d88xs18tr9fj3v,3n2bf7y2vu74yktgmsft17xcgsuhm3,yk5LeYia,2020-0188,2021-10-14,14:57:26,16:22:37,NA,incomplete,false,true,NA,6,5,NA,brown,n_l_038.jpg,NA,NA,unpleasant,pleasant,NA,NA,NA,NA,NA,right,2206.5,true,NA,NA,NA,NA,NA
yk5LeYia,3o4vwc1gfzjxgki2d88xs18tr9fj3v,3n2bf7y2vu74yktgmsft17xcgsuhm3,yk5LeYia,2020-0188,2021-10-14,14:57:26,16:22:37,NA,incomplete,false,true,NA,6,6,NA,green,m_s_105.jpg,NA,NA,unpleasant,pleasant,NA,NA,NA,NA,NA,right,1390.20000000298,true,NA,NA,NA,NA,NA
yk5LeYia,3o4vwc1gfzjxgki2d88xs18tr9fj3v,3n2bf7y2vu74yktgmsft17xcgsuhm3,yk5LeYia,2020-0188,2021-10-14,14:57:26,16:22:37,NA,incomplete,false,true,NA,6,7,NA,green,n_s_050.jpg,NA,NA,pleasant,unpleasant,NA,NA,NA,NA,NA,left,1301.10000000894,true,NA,NA,NA,NA,NA
yk5LeYia,3o4vwc1gfzjxgki2d88xs18tr9fj3v,3n2bf7y2vu74yktgmsft17xcgsuhm3,yk5LeYia,2020-0188,2021-10-14,14:57:26,16:22:37,NA,incomplete,false,true,NA,6,8,NA,green,m_l_084.jpg,NA,NA,pleasant,unpleasant,NA,NA,NA,NA,NA,left,1342,true,NA,NA,NA,NA,NA
yk5LeYia,3o4vwc1gfzjxgki2d88xs18tr9fj3v,3n2bf7y2vu74yktgmsft17xcgsuhm3,yk5LeYia,2020-0188,2021-10-14,14:57:26,16:22:37,NA,incomplete,false,true,NA,6,9,NA,green,m_s_110.jpg,NA,NA,unpleasant,pleasant,NA,NA,NA,NA,NA,right,1402.39999999106,true,NA,NA,NA,NA,NA
yk5LeYia,3o4vwc1gfzjxgki2d88xs18tr9fj3v,3n2bf7y2vu74yktgmsft17xcgsuhm3,yk5LeYia,2020-0188,2021-10-14,14:57:26,16:22:37,NA,incomplete,false,true,NA,6,10,NA,green,m_l_047.jpg,NA,NA,unpleasant,pleasant,NA,NA,NA,NA,NA,right,1380.79999999702,true,NA,NA,NA,NA,NA
yk5LeYia,3o4vwc1gfzjxgki2d88xs18tr9fj3v,3n2bf7y2vu74yktgmsft17xcgsuhm3,yk5LeYia,2020-0188,2021-10-14,14:57:26,16:22:37,NA,incomplete,false,true,NA,6,11,NA,green,n_l_090.jpg,NA,NA,unpleasant,pleasant,NA,NA,NA,NA,NA,right,1286.5,true,NA,NA,NA,NA,NA
yk5LeYia,3o4vwc1gfzjxgki2d88xs18tr9fj3v,3n2bf7y2vu74yktgmsft17xcgsuhm3,yk5LeYia,2020-0188,2021-10-14,14:57:26,16:22:37,NA,incomplete,false,true,NA,6,12,NA,red,n_l_088.jpg,NA,NA,pleasant,unpleasant,NA,NA,NA,NA,NA,left,1933.29999999702,true,NA,NA,NA,NA,NA
yk5LeYia,3o4vwc1gfzjxgki2d88xs18tr9fj3v,3n2bf7y2vu74yktgmsft17xcgsuhm3,yk5LeYia,2020-0188,2021-10-14,14:57:26,16:22:37,NA,incomplete,false,true,NA,6,13,NA,red,m_s_083.jpg,NA,NA,unpleasant,pleasant,NA,NA,NA,NA,NA,right,1344.20000000298,true,NA,NA,NA,NA,NA
yk5LeYia,3o4vwc1gfzjxgki2d88xs18tr9fj3v,3n2bf7y2vu74yktgmsft17xcgsuhm3,yk5LeYia,2020-0188,2021-10-14,14:57:26,16:22:37,NA,incomplete,false,true,NA,6,14,NA,red,n_s_008.jpg,NA,NA,pleasant,unpleasant,NA,NA,NA,NA,NA,left,1100,true,NA,NA,NA,NA,NA
yk5LeYia,3o4vwc1gfzjxgki2d88xs18tr9fj3v,3n2bf7y2vu74yktgmsft17xcgsuhm3,yk5LeYia,2020-0188,2021-10-14,14:57:26,16:22:37,NA,incomplete,false,true,NA,6,15,NA,red,m_s_057.jpg,NA,NA,pleasant,unpleasant,NA,NA,NA,NA,NA,left,1118.89999999106,true,NA,NA,NA,NA,NA
yk5LeYia,3o4vwc1gfzjxgki2d88xs18tr9fj3v,3n2bf7y2vu74yktgmsft17xcgsuhm3,yk5LeYia,2020-0188,2021-10-14,14:57:26,16:22:37,NA,incomplete,false,true,NA,6,16,NA,red,n_s_114.jpg,NA,NA,pleasant,unpleasant,NA,NA,NA,NA,NA,left,1214.29999999702,true,NA,NA,NA,NA,NA
yk5LeYia,3o4vwc1gfzjxgki2d88xs18tr9fj3v,3n2bf7y2vu74yktgmsft17xcgsuhm3,yk5LeYia,2020-0188,2021-10-14,14:57:26,16:22:37,NA,incomplete,false,true,NA,6,17,NA,red,m_s_004.jpg,NA,NA,pleasant,unpleasant,NA,NA,NA,NA,NA,left,1646.30000001192,true,NA,NA,NA,NA,NA
yk5LeYia,3o4vwc1gfzjxgki2d88xs18tr9fj3v,3n2bf7y2vu74yktgmsft17xcgsuhm3,yk5LeYia,2020-0188,2021-10-14,14:57:26,16:22:37,NA,incomplete,false,true,NA,6,18,NA,blue,m_l_070.jpg,NA,NA,pleasant,unpleasant,NA,NA,NA,NA,NA,left,1334.60000000894,true,NA,NA,NA,NA,NA
yk5LeYia,3o4vwc1gfzjxgki2d88xs18tr9fj3v,3n2bf7y2vu74yktgmsft17xcgsuhm3,yk5LeYia,2020-0188,2021-10-14,14:57:26,16:22:37,NA,incomplete,false,true,NA,6,19,NA,blue,m_l_062.jpg,NA,NA,pleasant,unpleasant,NA,NA,NA,NA,NA,right,1094.90000000596,true,NA,NA,NA,NA,NA
yk5LeYia,3o4vwc1gfzjxgki2d88xs18tr9fj3v,3n2bf7y2vu74yktgmsft17xcgsuhm3,yk5LeYia,2020-0188,2021-10-14,14:57:26,16:22:37,NA,incomplete,false,true,NA,6,20,NA,blue,n_l_049.jpg,NA,NA,pleasant,unpleasant,NA,NA,NA,NA,NA,left,1068.10000000894,true,NA,NA,NA,NA,NA
yk5LeYia,3o4vwc1gfzjxgki2d88xs18tr9fj3v,3n2bf7y2vu74yktgmsft17xcgsuhm3,yk5LeYia,2020-0188,2021-10-14,14:57:26,16:22:37,NA,incomplete,false,true,NA,6,21,NA,blue,n_l_072.jpg,NA,NA,unpleasant,pleasant,NA,NA,NA,NA,NA,right,1123.20000000298,true,NA,NA,NA,NA,NA
yk5LeYia,3o4vwc1gfzjxgki2d88xs18tr9fj3v,3n2bf7y2vu74yktgmsft17xcgsuhm3,yk5LeYia,2020-0188,2021-10-14,14:57:26,16:22:37,NA,incomplete,false,true,NA,6,22,NA,blue,m_s_101.jpg,NA,NA,pleasant,unpleasant,NA,NA,NA,NA,NA,none,0,false,NA,NA,NA,NA,NA
yk5LeYia,3o4vwc1gfzjxgki2d88xs18tr9fj3v,3n2bf7y2vu74yktgmsft17xcgsuhm3,yk5LeYia,2020-0188,2021-10-14,14:57:26,16:22:37,NA,incomplete,false,true,NA,6,23,NA,blue,n_s_001.jpg,NA,NA,unpleasant,pleasant,NA,NA,NA,NA,NA,right,1391.29999999702,true,NA,NA,NA,NA,NA
yk5LeYia,3o4vwc1gfzjxgki2d88xs18tr9fj3v,3n2bf7y2vu74yktgmsft17xcgsuhm3,yk5LeYia,2020-0188,2021-10-14,14:57:26,16:22:37,NA,incomplete,false,true,NA,6,24,NA,purple,m_s_033.jpg,NA,NA,pleasant,unpleasant,NA,NA,NA,NA,NA,left,1584.09999999404,true,NA,NA,NA,NA,NA
yk5LeYia,3o4vwc1gfzjxgki2d88xs18tr9fj3v,3n2bf7y2vu74yktgmsft17xcgsuhm3,yk5LeYia,2020-0188,2021-10-14,14:57:26,16:22:37,NA,incomplete,false,true,NA,6,25,NA,purple,m_l_051.jpg,NA,NA,unpleasant,pleasant,NA,NA,NA,NA,NA,right,1385.59999999404,true,NA,NA,NA,NA,NA
yk5LeYia,3o4vwc1gfzjxgki2d88xs18tr9fj3v,3n2bf7y2vu74yktgmsft17xcgsuhm3,yk5LeYia,2020-0188,2021-10-14,14:57:26,16:22:37,NA,incomplete,false,true,NA,6,26,NA,purple,n_s_073.jpg,NA,NA,unpleasant,pleasant,NA,NA,NA,NA,NA,right,1028.5,true,NA,NA,NA,NA,NA
yk5LeYia,3o4vwc1gfzjxgki2d88xs18tr9fj3v,3n2bf7y2vu74yktgmsft17xcgsuhm3,yk5LeYia,2020-0188,2021-10-14,14:57:26,16:22:37,NA,incomplete,false,true,NA,6,27,NA,purple,m_l_106.jpg,NA,NA,pleasant,unpleasant,NA,NA,NA,NA,NA,left,1571.59999999404,true,NA,NA,NA,NA,NA
yk5LeYia,3o4vwc1gfzjxgki2d88xs18tr9fj3v,3n2bf7y2vu74yktgmsft17xcgsuhm3,yk5LeYia,2020-0188,2021-10-14,14:57:26,16:22:37,NA,incomplete,false,true,NA,6,28,NA,purple,m_l_002.jpg,NA,NA,pleasant,unpleasant,NA,NA,NA,NA,NA,right,3159.59999999404,true,NA,NA,NA,NA,NA
yk5LeYia,3o4vwc1gfzjxgki2d88xs18tr9fj3v,3n2bf7y2vu74yktgmsft17xcgsuhm3,yk5LeYia,2020-0188,2021-10-14,14:57:26,16:22:37,NA,incomplete,false,true,NA,6,29,NA,purple,m_s_104.jpg,NA,NA,pleasant,unpleasant,NA,NA,NA,NA,NA,none,0,false,NA,NA,NA,NA,NA
yk5LeYia,3o4vwc1gfzjxgki2d88xs18tr9fj3v,3n2bf7y2vu74yktgmsft17xcgsuhm3,yk5LeYia,2020-0188,2021-10-14,14:57:26,16:22:37,NA,incomplete,false,true,NA,6,30,NA,white,m_l_083.jpg,NA,NA,pleasant,unpleasant,NA,NA,NA,NA,NA,left,1489.60000000894,true,NA,NA,NA,NA,NA
yk5LeYia,3o4vwc1gfzjxgki2d88xs18tr9fj3v,3n2bf7y2vu74yktgmsft17xcgsuhm3,yk5LeYia,2020-0188,2021-10-14,14:57:26,16:22:37,NA,incomplete,false,true,NA,6,31,NA,white,n_s_015.jpg,NA,NA,pleasant,unpleasant,NA,NA,NA,NA,NA,left,1347.09999999404,true,NA,NA,NA,NA,NA
yk5LeYia,3o4vwc1gfzjxgki2d88xs18tr9fj3v,3n2bf7y2vu74yktgmsft17xcgsuhm3,yk5LeYia,2020-0188,2021-10-14,14:57:26,16:22:37,NA,incomplete,false,true,NA,6,32,NA,white,n_s_096.jpg,NA,NA,unpleasant,pleasant,NA,NA,NA,NA,NA,right,1794.39999999106,true,NA,NA,NA,NA,NA
yk5LeYia,3o4vwc1gfzjxgki2d88xs18tr9fj3v,3n2bf7y2vu74yktgmsft17xcgsuhm3,yk5LeYia,2020-0188,2021-10-14,14:57:26,16:22:37,NA,incomplete,false,true,NA,6,33,NA,white,m_l_012.jpg,NA,NA,unpleasant,pleasant,NA,NA,NA,NA,NA,left,1100,true,NA,NA,NA,NA,NA
yk5LeYia,3o4vwc1gfzjxgki2d88xs18tr9fj3v,3n2bf7y2vu74yktgmsft17xcgsuhm3,yk5LeYia,2020-0188,2021-10-14,14:57:26,16:22:37,NA,incomplete,false,true,NA,6,34,NA,white,m_s_042.jpg,NA,NA,unpleasant,pleasant,NA,NA,NA,NA,NA,right,1677,true,NA,NA,NA,NA,NA
yk5LeYia,3o4vwc1gfzjxgki2d88xs18tr9fj3v,3n2bf7y2vu74yktgmsft17xcgsuhm3,yk5LeYia,2020-0188,2021-10-14,14:57:26,16:22:37,NA,incomplete,false,true,NA,6,35,NA,white,n_s_048.jpg,NA,NA,pleasant,unpleasant,NA,NA,NA,NA,NA,left,1204.60000000894,true,NA,NA,NA,NA,NA
yk5LeYia,3o4vwc1gfzjxgki2d88xs18tr9fj3v,3n2bf7y2vu74yktgmsft17xcgsuhm3,yk5LeYia,2020-0188,2021-10-14,14:57:26,16:22:37,NA,incomplete,false,NA,true,6,0,NA,NA,NA,right,absent,NA,NA,m_s_004.jpg,red,m_s_083.jpg,red,within,NA,NaN,NA,left,2939.0999999940395,0,1,1188
yk5LeYia,3o4vwc1gfzjxgki2d88xs18tr9fj3v,3n2bf7y2vu74yktgmsft17xcgsuhm3,yk5LeYia,2020-0188,2021-10-14,14:57:26,16:22:37,NA,incomplete,false,NA,true,6,1,NA,NA,NA,right,absent,NA,NA,m_l_084.jpg,green,n_l_086.jpg,brown,between,NA,NaN,NA,left,2261.9000000059605,0,1,1008.2000000029802
yk5LeYia,3o4vwc1gfzjxgki2d88xs18tr9fj3v,3n2bf7y2vu74yktgmsft17xcgsuhm3,yk5LeYia,2020-0188,2021-10-14,14:57:26,16:22:37,NA,incomplete,false,NA,true,6,2,NA,NA,NA,left,absent,NA,NA,m_l_002.jpg,purple,n_s_096.jpg,white,between,NA,NaN,NA,left,1626.0999999940395,1,2,1960.0999999940395
yk5LeYia,3o4vwc1gfzjxgki2d88xs18tr9fj3v,3n2bf7y2vu74yktgmsft17xcgsuhm3,yk5LeYia,2020-0188,2021-10-14,14:57:26,16:22:37,NA,incomplete,false,NA,true,6,3,NA,NA,NA,left,absent,NA,NA,m_s_036.jpg,brown,n_l_038.jpg,brown,within,NA,NaN,NA,left,1870.9000000059605,1,1,3003.2999999970198
yk5LeYia,3o4vwc1gfzjxgki2d88xs18tr9fj3v,3n2bf7y2vu74yktgmsft17xcgsuhm3,yk5LeYia,2020-0188,2021-10-14,14:57:26,16:22:37,NA,incomplete,false,NA,true,6,4,NA,NA,NA,left,absent,NA,NA,m_l_051.jpg,purple,m_s_104.jpg,purple,within,NA,NaN,NA,left,4534.29999999702,1,1,1898.300000011921
yk5LeYia,3o4vwc1gfzjxgki2d88xs18tr9fj3v,3n2bf7y2vu74yktgmsft17xcgsuhm3,yk5LeYia,2020-0188,2021-10-14,14:57:26,16:22:37,NA,incomplete,false,NA,true,6,5,NA,NA,NA,right,absent,NA,NA,n_s_048.jpg,white,n_s_015.jpg,white,within,NA,NaN,NA,left,2696.0999999940395,0,1,1242
yk5LeYia,3o4vwc1gfzjxgki2d88xs18tr9fj3v,3n2bf7y2vu74yktgmsft17xcgsuhm3,yk5LeYia,2020-0188,2021-10-14,14:57:26,16:22:37,NA,incomplete,false,NA,true,6,6,NA,NA,NA,left,absent,NA,NA,m_l_062.jpg,blue,n_s_001.jpg,blue,within,NA,NaN,NA,left,3402.7999999970198,1,1,1020.6000000089407
yk5LeYia,3o4vwc1gfzjxgki2d88xs18tr9fj3v,3n2bf7y2vu74yktgmsft17xcgsuhm3,yk5LeYia,2020-0188,2021-10-14,14:57:26,16:22:37,NA,incomplete,false,NA,true,6,7,NA,NA,NA,right,absent,NA,NA,n_l_049.jpg,blue,n_s_114.jpg,red,between,NA,NaN,NA,left,1675,0,1,4059.2000000029802
yk5LeYia,3o4vwc1gfzjxgki2d88xs18tr9fj3v,3n2bf7y2vu74yktgmsft17xcgsuhm3,yk5LeYia,2020-0188,2021-10-14,14:57:26,16:22:37,NA,incomplete,false,NA,true,6,8,NA,NA,NA,left,absent,NA,NA,m_l_047.jpg,green,n_s_008.jpg,red,between,NA,NaN,NA,right,2247.199999988079,0,1,1125.6000000089407
yk5LeYia,3o4vwc1gfzjxgki2d88xs18tr9fj3v,3n2bf7y2vu74yktgmsft17xcgsuhm3,yk5LeYia,2020-0188,2021-10-14,14:57:26,16:22:37,NA,incomplete,false,NA,true,6,9,NA,NA,NA,right,absent,NA,NA,n_s_073.jpg,purple,m_s_101.jpg,blue,between,NA,NaN,NA,right,2227.9000000059605,1,1,2307.5
yk5LeYia,3o4vwc1gfzjxgki2d88xs18tr9fj3v,3n2bf7y2vu74yktgmsft17xcgsuhm3,yk5LeYia,2020-0188,2021-10-14,14:57:26,16:22:37,NA,incomplete,false,NA,true,6,10,NA,NA,NA,left,absent,NA,NA,n_s_050.jpg,green,n_l_090.jpg,green,within,NA,NaN,NA,left,2266.2000000029802,1,1,1773.5
yk5LeYia,3o4vwc1gfzjxgki2d88xs18tr9fj3v,3n2bf7y2vu74yktgmsft17xcgsuhm3,yk5LeYia,2020-0188,2021-10-14,14:57:26,16:22:37,NA,incomplete,false,true,NA,7,0,NA,brown,m_s_079.jpg,NA,NA,unpleasant,pleasant,NA,NA,NA,NA,NA,left,2564.29999999702,true,NA,NA,NA,NA,NA
yk5LeYia,3o4vwc1gfzjxgki2d88xs18tr9fj3v,3n2bf7y2vu74yktgmsft17xcgsuhm3,yk5LeYia,2020-0188,2021-10-14,14:57:26,16:22:37,NA,incomplete,false,true,NA,7,1,NA,brown,m_l_096.jpg,NA,NA,unpleasant,pleasant,NA,NA,NA,NA,NA,right,1672.59999999404,true,NA,NA,NA,NA,NA
yk5LeYia,3o4vwc1gfzjxgki2d88xs18tr9fj3v,3n2bf7y2vu74yktgmsft17xcgsuhm3,yk5LeYia,2020-0188,2021-10-14,14:57:26,16:22:37,NA,incomplete,false,true,NA,7,2,NA,brown,m_s_014.jpg,NA,NA,pleasant,unpleasant,NA,NA,NA,NA,NA,left,2296.79999999702,true,NA,NA,NA,NA,NA
yk5LeYia,3o4vwc1gfzjxgki2d88xs18tr9fj3v,3n2bf7y2vu74yktgmsft17xcgsuhm3,yk5LeYia,2020-0188,2021-10-14,14:57:26,16:22:37,NA,incomplete,false,true,NA,7,3,NA,brown,n_s_069.jpg,NA,NA,unpleasant,pleasant,NA,NA,NA,NA,NA,right,1090.29999999702,true,NA,NA,NA,NA,NA
yk5LeYia,3o4vwc1gfzjxgki2d88xs18tr9fj3v,3n2bf7y2vu74yktgmsft17xcgsuhm3,yk5LeYia,2020-0188,2021-10-14,14:57:26,16:22:37,NA,incomplete,false,true,NA,7,4,NA,brown,m_s_064.jpg,NA,NA,pleasant,unpleasant,NA,NA,NA,NA,NA,left,1337.60000000894,true,NA,NA,NA,NA,NA
yk5LeYia,3o4vwc1gfzjxgki2d88xs18tr9fj3v,3n2bf7y2vu74yktgmsft17xcgsuhm3,yk5LeYia,2020-0188,2021-10-14,14:57:26,16:22:37,NA,incomplete,false,true,NA,7,5,NA,brown,n_s_031.jpg,NA,NA,unpleasant,pleasant,NA,NA,NA,NA,NA,right,1365.39999999106,true,NA,NA,NA,NA,NA
yk5LeYia,3o4vwc1gfzjxgki2d88xs18tr9fj3v,3n2bf7y2vu74yktgmsft17xcgsuhm3,yk5LeYia,2020-0188,2021-10-14,14:57:26,16:22:37,NA,incomplete,false,true,NA,7,6,NA,purple,m_s_028.jpg,NA,NA,pleasant,unpleasant,NA,NA,NA,NA,NA,left,1164.59999999404,true,NA,NA,NA,NA,NA
yk5LeYia,3o4vwc1gfzjxgki2d88xs18tr9fj3v,3n2bf7y2vu74yktgmsft17xcgsuhm3,yk5LeYia,2020-0188,2021-10-14,14:57:26,16:22:37,NA,incomplete,false,true,NA,7,7,NA,purple,n_l_009.jpg,NA,NA,unpleasant,pleasant,NA,NA,NA,NA,NA,right,1012.19999998808,true,NA,NA,NA,NA,NA
yk5LeYia,3o4vwc1gfzjxgki2d88xs18tr9fj3v,3n2bf7y2vu74yktgmsft17xcgsuhm3,yk5LeYia,2020-0188,2021-10-14,14:57:26,16:22:37,NA,incomplete,false,true,NA,7,8,NA,purple,n_s_047.jpg,NA,NA,unpleasant,pleasant,NA,NA,NA,NA,NA,right,1191.29999999702,true,NA,NA,NA,NA,NA
yk5LeYia,3o4vwc1gfzjxgki2d88xs18tr9fj3v,3n2bf7y2vu74yktgmsft17xcgsuhm3,yk5LeYia,2020-0188,2021-10-14,14:57:26,16:22:37,NA,incomplete,false,true,NA,7,9,NA,purple,m_l_043.jpg,NA,NA,pleasant,unpleasant,NA,NA,NA,NA,NA,left,2512.29999999702,true,NA,NA,NA,NA,NA
yk5LeYia,3o4vwc1gfzjxgki2d88xs18tr9fj3v,3n2bf7y2vu74yktgmsft17xcgsuhm3,yk5LeYia,2020-0188,2021-10-14,14:57:26,16:22:37,NA,incomplete,false,true,NA,7,10,NA,purple,n_l_059.jpg,NA,NA,unpleasant,pleasant,NA,NA,NA,NA,NA,right,2407.09999999404,true,NA,NA,NA,NA,NA
yk5LeYia,3o4vwc1gfzjxgki2d88xs18tr9fj3v,3n2bf7y2vu74yktgmsft17xcgsuhm3,yk5LeYia,2020-0188,2021-10-14,14:57:26,16:22:37,NA,incomplete,false,true,NA,7,11,NA,purple,m_s_005.jpg,NA,NA,pleasant,unpleasant,NA,NA,NA,NA,NA,left,1668.29999999702,true,NA,NA,NA,NA,NA
yk5LeYia,3o4vwc1gfzjxgki2d88xs18tr9fj3v,3n2bf7y2vu74yktgmsft17xcgsuhm3,yk5LeYia,2020-0188,2021-10-14,14:57:26,16:22:37,NA,incomplete,false,true,NA,7,12,NA,gray,n_s_108.jpg,NA,NA,unpleasant,pleasant,NA,NA,NA,NA,NA,right,2384.90000000596,true,NA,NA,NA,NA,NA
yk5LeYia,3o4vwc1gfzjxgki2d88xs18tr9fj3v,3n2bf7y2vu74yktgmsft17xcgsuhm3,yk5LeYia,2020-0188,2021-10-14,14:57:26,16:22:37,NA,incomplete,false,true,NA,7,13,NA,gray,n_s_082.jpg,NA,NA,unpleasant,pleasant,NA,NA,NA,NA,NA,right,1033.69999998808,true,NA,NA,NA,NA,NA
yk5LeYia,3o4vwc1gfzjxgki2d88xs18tr9fj3v,3n2bf7y2vu74yktgmsft17xcgsuhm3,yk5LeYia,2020-0188,2021-10-14,14:57:26,16:22:37,NA,incomplete,false,true,NA,7,14,NA,gray,n_l_062.jpg,NA,NA,unpleasant,pleasant,NA,NA,NA,NA,NA,left,1709.89999999106,true,NA,NA,NA,NA,NA
yk5LeYia,3o4vwc1gfzjxgki2d88xs18tr9fj3v,3n2bf7y2vu74yktgmsft17xcgsuhm3,yk5LeYia,2020-0188,2021-10-14,14:57:26,16:22:37,NA,incomplete,false,true,NA,7,15,NA,gray,m_s_116.jpg,NA,NA,unpleasant,pleasant,NA,NA,NA,NA,NA,left,1849.80000001192,true,NA,NA,NA,NA,NA
yk5LeYia,3o4vwc1gfzjxgki2d88xs18tr9fj3v,3n2bf7y2vu74yktgmsft17xcgsuhm3,yk5LeYia,2020-0188,2021-10-14,14:57:26,16:22:37,NA,incomplete,false,true,NA,7,16,NA,gray,n_s_042.jpg,NA,NA,unpleasant,pleasant,NA,NA,NA,NA,NA,left,2817.70000000298,true,NA,NA,NA,NA,NA
yk5LeYia,3o4vwc1gfzjxgki2d88xs18tr9fj3v,3n2bf7y2vu74yktgmsft17xcgsuhm3,yk5LeYia,2020-0188,2021-10-14,14:57:26,16:22:37,NA,incomplete,false,true,NA,7,17,NA,gray,n_l_030.jpg,NA,NA,unpleasant,pleasant,NA,NA,NA,NA,NA,right,1372.20000000298,true,NA,NA,NA,NA,NA
yk5LeYia,3o4vwc1gfzjxgki2d88xs18tr9fj3v,3n2bf7y2vu74yktgmsft17xcgsuhm3,yk5LeYia,2020-0188,2021-10-14,14:57:26,16:22:37,NA,incomplete,false,true,NA,7,18,NA,black,n_l_035.jpg,NA,NA,pleasant,unpleasant,NA,NA,NA,NA,NA,right,1123.70000000298,true,NA,NA,NA,NA,NA
yk5LeYia,3o4vwc1gfzjxgki2d88xs18tr9fj3v,3n2bf7y2vu74yktgmsft17xcgsuhm3,yk5LeYia,2020-0188,2021-10-14,14:57:26,16:22:37,NA,incomplete,false,true,NA,7,19,NA,black,m_l_014.jpg,NA,NA,pleasant,unpleasant,NA,NA,NA,NA,NA,left,1899.09999999404,true,NA,NA,NA,NA,NA
yk5LeYia,3o4vwc1gfzjxgki2d88xs18tr9fj3v,3n2bf7y2vu74yktgmsft17xcgsuhm3,yk5LeYia,2020-0188,2021-10-14,14:57:26,16:22:37,NA,incomplete,false,true,NA,7,20,NA,black,m_s_055.jpg,NA,NA,pleasant,unpleasant,NA,NA,NA,NA,NA,left,2060.90000000596,true,NA,NA,NA,NA,NA
yk5LeYia,3o4vwc1gfzjxgki2d88xs18tr9fj3v,3n2bf7y2vu74yktgmsft17xcgsuhm3,yk5LeYia,2020-0188,2021-10-14,14:57:26,16:22:37,NA,incomplete,false,true,NA,7,21,NA,black,n_s_036.jpg,NA,NA,pleasant,unpleasant,NA,NA,NA,NA,NA,left,2494.5,true,NA,NA,NA,NA,NA
yk5LeYia,3o4vwc1gfzjxgki2d88xs18tr9fj3v,3n2bf7y2vu74yktgmsft17xcgsuhm3,yk5LeYia,2020-0188,2021-10-14,14:57:26,16:22:37,NA,incomplete,false,true,NA,7,22,NA,black,m_l_079.jpg,NA,NA,unpleasant,pleasant,NA,NA,NA,NA,NA,right,1448.70000000298,true,NA,NA,NA,NA,NA
yk5LeYia,3o4vwc1gfzjxgki2d88xs18tr9fj3v,3n2bf7y2vu74yktgmsft17xcgsuhm3,yk5LeYia,2020-0188,2021-10-14,14:57:26,16:22:37,NA,incomplete,false,true,NA,7,23,NA,black,n_s_079.jpg,NA,NA,unpleasant,pleasant,NA,NA,NA,NA,NA,right,1267.5,true,NA,NA,NA,NA,NA
yk5LeYia,3o4vwc1gfzjxgki2d88xs18tr9fj3v,3n2bf7y2vu74yktgmsft17xcgsuhm3,yk5LeYia,2020-0188,2021-10-14,14:57:26,16:22:37,NA,incomplete,false,true,NA,7,24,NA,blue,n_s_099.jpg,NA,NA,pleasant,unpleasant,NA,NA,NA,NA,NA,left,1851.79999999702,true,NA,NA,NA,NA,NA
yk5LeYia,3o4vwc1gfzjxgki2d88xs18tr9fj3v,3n2bf7y2vu74yktgmsft17xcgsuhm3,yk5LeYia,2020-0188,2021-10-14,14:57:26,16:22:37,NA,incomplete,false,true,NA,7,25,NA,blue,m_l_027.jpg,NA,NA,unpleasant,pleasant,NA,NA,NA,NA,NA,right,995.09999999404,true,NA,NA,NA,NA,NA
yk5LeYia,3o4vwc1gfzjxgki2d88xs18tr9fj3v,3n2bf7y2vu74yktgmsft17xcgsuhm3,yk5LeYia,2020-0188,2021-10-14,14:57:26,16:22:37,NA,incomplete,false,true,NA,7,26,NA,blue,n_s_104.jpg,NA,NA,pleasant,unpleasant,NA,NA,NA,NA,NA,left,1759.60000000894,true,NA,NA,NA,NA,NA
yk5LeYia,3o4vwc1gfzjxgki2d88xs18tr9fj3v,3n2bf7y2vu74yktgmsft17xcgsuhm3,yk5LeYia,2020-0188,2021-10-14,14:57:26,16:22:37,NA,incomplete,false,true,NA,7,27,NA,blue,m_l_024.jpg,NA,NA,unpleasant,pleasant,NA,NA,NA,NA,NA,left,1993.79999999702,true,NA,NA,NA,NA,NA
yk5LeYia,3o4vwc1gfzjxgki2d88xs18tr9fj3v,3n2bf7y2vu74yktgmsft17xcgsuhm3,yk5LeYia,2020-0188,2021-10-14,14:57:26,16:22:37,NA,incomplete,false,true,NA,7,28,NA,blue,n_s_087.jpg,NA,NA,unpleasant,pleasant,NA,NA,NA,NA,NA,right,1443.90000000596,true,NA,NA,NA,NA,NA
yk5LeYia,3o4vwc1gfzjxgki2d88xs18tr9fj3v,3n2bf7y2vu74yktgmsft17xcgsuhm3,yk5LeYia,2020-0188,2021-10-14,14:57:26,16:22:37,NA,incomplete,false,true,NA,7,29,NA,blue,m_l_117.jpg,NA,NA,unpleasant,pleasant,NA,NA,NA,NA,NA,right,2015.39999999106,true,NA,NA,NA,NA,NA
yk5LeYia,3o4vwc1gfzjxgki2d88xs18tr9fj3v,3n2bf7y2vu74yktgmsft17xcgsuhm3,yk5LeYia,2020-0188,2021-10-14,14:57:26,16:22:37,NA,incomplete,false,true,NA,7,30,NA,orange,n_l_105.jpg,NA,NA,unpleasant,pleasant,NA,NA,NA,NA,NA,right,1778.70000000298,true,NA,NA,NA,NA,NA
yk5LeYia,3o4vwc1gfzjxgki2d88xs18tr9fj3v,3n2bf7y2vu74yktgmsft17xcgsuhm3,yk5LeYia,2020-0188,2021-10-14,14:57:26,16:22:37,NA,incomplete,false,true,NA,7,31,NA,orange,m_s_096.jpg,NA,NA,pleasant,unpleasant,NA,NA,NA,NA,NA,left,2588.20000000298,true,NA,NA,NA,NA,NA
yk5LeYia,3o4vwc1gfzjxgki2d88xs18tr9fj3v,3n2bf7y2vu74yktgmsft17xcgsuhm3,yk5LeYia,2020-0188,2021-10-14,14:57:26,16:22:37,NA,incomplete,false,true,NA,7,32,NA,orange,n_l_074.jpg,NA,NA,pleasant,unpleasant,NA,NA,NA,NA,NA,none,0,false,NA,NA,NA,NA,NA
yk5LeYia,3o4vwc1gfzjxgki2d88xs18tr9fj3v,3n2bf7y2vu74yktgmsft17xcgsuhm3,yk5LeYia,2020-0188,2021-10-14,14:57:26,16:22:37,NA,incomplete,false,true,NA,7,33,NA,orange,n_l_029.jpg,NA,NA,pleasant,unpleasant,NA,NA,NA,NA,NA,left,1525.09999999404,true,NA,NA,NA,NA,NA
yk5LeYia,3o4vwc1gfzjxgki2d88xs18tr9fj3v,3n2bf7y2vu74yktgmsft17xcgsuhm3,yk5LeYia,2020-0188,2021-10-14,14:57:26,16:22:37,NA,incomplete,false,true,NA,7,34,NA,orange,m_s_016.jpg,NA,NA,unpleasant,pleasant,NA,NA,NA,NA,NA,right,1208.70000000298,true,NA,NA,NA,NA,NA
yk5LeYia,3o4vwc1gfzjxgki2d88xs18tr9fj3v,3n2bf7y2vu74yktgmsft17xcgsuhm3,yk5LeYia,2020-0188,2021-10-14,14:57:26,16:22:37,NA,incomplete,false,true,NA,7,35,NA,orange,n_l_109.jpg,NA,NA,pleasant,unpleasant,NA,NA,NA,NA,NA,right,1661.29999999702,true,NA,NA,NA,NA,NA
yk5LeYia,3o4vwc1gfzjxgki2d88xs18tr9fj3v,3n2bf7y2vu74yktgmsft17xcgsuhm3,yk5LeYia,2020-0188,2021-10-14,14:57:26,16:22:37,NA,incomplete,false,NA,true,7,0,NA,NA,NA,right,absent,NA,NA,n_l_062.jpg,gray,n_l_059.jpg,purple,between,NA,NaN,NA,right,3285.2000000029802,1,2,1420.7999999970198
yk5LeYia,3o4vwc1gfzjxgki2d88xs18tr9fj3v,3n2bf7y2vu74yktgmsft17xcgsuhm3,yk5LeYia,2020-0188,2021-10-14,14:57:26,16:22:37,NA,incomplete,false,NA,true,7,1,NA,NA,NA,right,absent,NA,NA,m_s_005.jpg,purple,n_l_009.jpg,purple,within,NA,NaN,NA,right,5122.600000008941,1,1,2353.0999999940395
yk5LeYia,3o4vwc1gfzjxgki2d88xs18tr9fj3v,3n2bf7y2vu74yktgmsft17xcgsuhm3,yk5LeYia,2020-0188,2021-10-14,14:57:26,16:22:37,NA,incomplete,false,NA,true,7,2,NA,NA,NA,right,absent,NA,NA,n_l_074.jpg,orange,n_s_087.jpg,blue,between,NA,NaN,NA,right,1849.2000000029802,1,1,4817.70000000298
yk5LeYia,3o4vwc1gfzjxgki2d88xs18tr9fj3v,3n2bf7y2vu74yktgmsft17xcgsuhm3,yk5LeYia,2020-0188,2021-10-14,14:57:26,16:22:37,NA,incomplete,false,NA,true,7,3,NA,NA,NA,left,absent,NA,NA,m_l_027.jpg,blue,m_l_117.jpg,blue,within,NA,NaN,NA,right,1193.300000011921,0,1,2731.4000000059605
yk5LeYia,3o4vwc1gfzjxgki2d88xs18tr9fj3v,3n2bf7y2vu74yktgmsft17xcgsuhm3,yk5LeYia,2020-0188,2021-10-14,14:57:26,16:22:37,NA,incomplete,false,NA,true,7,4,NA,NA,NA,left,absent,NA,NA,n_s_042.jpg,gray,m_s_055.jpg,black,between,NA,NaN,NA,right,1830.300000011921,0,2,1410.7999999970198
yk5LeYia,3o4vwc1gfzjxgki2d88xs18tr9fj3v,3n2bf7y2vu74yktgmsft17xcgsuhm3,yk5LeYia,2020-0188,2021-10-14,14:57:26,16:22:37,NA,incomplete,false,NA,true,7,5,NA,NA,NA,left,absent,NA,NA,n_s_082.jpg,gray,n_l_030.jpg,gray,within,NA,NaN,NA,right,2028.0999999940395,0,1,1780.1000000089407
yk5LeYia,3o4vwc1gfzjxgki2d88xs18tr9fj3v,3n2bf7y2vu74yktgmsft17xcgsuhm3,yk5LeYia,2020-0188,2021-10-14,14:57:26,16:22:37,NA,incomplete,false,NA,true,7,6,NA,NA,NA,right,absent,NA,NA,n_s_031.jpg,brown,m_l_096.jpg,brown,within,NA,NaN,NA,right,1800.3999999910593,1,1,1273.3999999910593
yk5LeYia,3o4vwc1gfzjxgki2d88xs18tr9fj3v,3n2bf7y2vu74yktgmsft17xcgsuhm3,yk5LeYia,2020-0188,2021-10-14,14:57:26,16:22:37,NA,incomplete,false,NA,true,7,7,NA,NA,NA,right,absent,NA,NA,n_s_047.jpg,purple,m_s_064.jpg,brown,between,NA,NaN,NA,right,1522.7999999970198,1,1,1005.5999999940395
yk5LeYia,3o4vwc1gfzjxgki2d88xs18tr9fj3v,3n2bf7y2vu74yktgmsft17xcgsuhm3,yk5LeYia,2020-0188,2021-10-14,14:57:26,16:22:37,NA,incomplete,false,NA,true,7,8,NA,NA,NA,left,absent,NA,NA,m_l_014.jpg,black,n_s_079.jpg,black,within,NA,NaN,NA,right,1671.8999999910593,0,1,1719.300000011921
yk5LeYia,3o4vwc1gfzjxgki2d88xs18tr9fj3v,3n2bf7y2vu74yktgmsft17xcgsuhm3,yk5LeYia,2020-0188,2021-10-14,14:57:26,16:22:37,NA,incomplete,false,NA,true,7,9,NA,NA,NA,right,absent,NA,NA,n_s_104.jpg,blue,m_l_079.jpg,black,between,NA,NaN,NA,left,1831.0999999940395,0,1,1001.7999999970198
yk5LeYia,3o4vwc1gfzjxgki2d88xs18tr9fj3v,3n2bf7y2vu74yktgmsft17xcgsuhm3,yk5LeYia,2020-0188,2021-10-14,14:57:26,16:22:37,NA,incomplete,false,NA,true,7,10,NA,NA,NA,left,absent,NA,NA,m_s_096.jpg,orange,n_l_109.jpg,orange,within,NA,NaN,NA,right,1306.6000000089407,0,1,1114.8999999910593
yk5LeYia,3o4vwc1gfzjxgki2d88xs18tr9fj3v,3n2bf7y2vu74yktgmsft17xcgsuhm3,yk5LeYia,2020-0188,2021-10-14,14:57:26,16:22:37,NA,incomplete,false,true,NA,8,0,NA,green,m_s_071.jpg,NA,NA,unpleasant,pleasant,NA,NA,NA,NA,NA,right,2683,true,NA,NA,NA,NA,NA
yk5LeYia,3o4vwc1gfzjxgki2d88xs18tr9fj3v,3n2bf7y2vu74yktgmsft17xcgsuhm3,yk5LeYia,2020-0188,2021-10-14,14:57:26,16:22:37,NA,incomplete,false,true,NA,8,1,NA,green,m_s_030.jpg,NA,NA,pleasant,unpleasant,NA,NA,NA,NA,NA,right,1661.5,true,NA,NA,NA,NA,NA
yk5LeYia,3o4vwc1gfzjxgki2d88xs18tr9fj3v,3n2bf7y2vu74yktgmsft17xcgsuhm3,yk5LeYia,2020-0188,2021-10-14,14:57:26,16:22:37,NA,incomplete,false,true,NA,8,2,NA,green,n_l_113.jpg,NA,NA,pleasant,unpleasant,NA,NA,NA,NA,NA,left,1341.70000000298,true,NA,NA,NA,NA,NA
yk5LeYia,3o4vwc1gfzjxgki2d88xs18tr9fj3v,3n2bf7y2vu74yktgmsft17xcgsuhm3,yk5LeYia,2020-0188,2021-10-14,14:57:26,16:22:37,NA,incomplete,false,true,NA,8,3,NA,green,n_s_092.jpg,NA,NA,pleasant,unpleasant,NA,NA,NA,NA,NA,right,1506.19999998808,true,NA,NA,NA,NA,NA
yk5LeYia,3o4vwc1gfzjxgki2d88xs18tr9fj3v,3n2bf7y2vu74yktgmsft17xcgsuhm3,yk5LeYia,2020-0188,2021-10-14,14:57:26,16:22:37,NA,incomplete,false,true,NA,8,4,NA,green,m_s_076.jpg,NA,NA,pleasant,unpleasant,NA,NA,NA,NA,NA,left,1662.90000000596,true,NA,NA,NA,NA,NA
yk5LeYia,3o4vwc1gfzjxgki2d88xs18tr9fj3v,3n2bf7y2vu74yktgmsft17xcgsuhm3,yk5LeYia,2020-0188,2021-10-14,14:57:26,16:22:37,NA,incomplete,false,true,NA,8,5,NA,green,n_s_101.jpg,NA,NA,unpleasant,pleasant,NA,NA,NA,NA,NA,right,1154.70000000298,true,NA,NA,NA,NA,NA
yk5LeYia,3o4vwc1gfzjxgki2d88xs18tr9fj3v,3n2bf7y2vu74yktgmsft17xcgsuhm3,yk5LeYia,2020-0188,2021-10-14,14:57:26,16:22:37,NA,incomplete,false,true,NA,8,6,NA,black,m_s_017.jpg,NA,NA,unpleasant,pleasant,NA,NA,NA,NA,NA,left,1068.79999999702,true,NA,NA,NA,NA,NA
yk5LeYia,3o4vwc1gfzjxgki2d88xs18tr9fj3v,3n2bf7y2vu74yktgmsft17xcgsuhm3,yk5LeYia,2020-0188,2021-10-14,14:57:26,16:22:37,NA,incomplete,false,true,NA,8,7,NA,black,n_l_041.jpg,NA,NA,unpleasant,pleasant,NA,NA,NA,NA,NA,right,1246.09999999404,true,NA,NA,NA,NA,NA
yk5LeYia,3o4vwc1gfzjxgki2d88xs18tr9fj3v,3n2bf7y2vu74yktgmsft17xcgsuhm3,yk5LeYia,2020-0188,2021-10-14,14:57:26,16:22:37,NA,incomplete,false,true,NA,8,8,NA,black,n_s_102.jpg,NA,NA,unpleasant,pleasant,NA,NA,NA,NA,NA,right,1381.10000000894,true,NA,NA,NA,NA,NA
