workerId,hitId,assignmentId,subject,studyid,exp_date,exp_start,exp_end,time_start,time_end,practice,encoding,memory,block,trial,event_order,event,stim,answer,context_type,label_left,label_right,left_image,left_event,right_image,right_event,condition,response,response_time,response_acc,order_response,order_response_time,order_acc,distance_response,distance_response_time
YvNbaUVN,33tgb4g0msu3alll9rtp1nk6wbyxtf,3f1567xtn0i24t9pg9yi5zjt7jiq9e,YvNbaUVN,2020-0188,2021-10-15,13:41:03,14:53:14,NA,incomplete,true,true,NA,0,0,NA,green,m_s_011.jpg,NA,NA,unpleasant,pleasant,NA,NA,NA,NA,NA,right,1308.70000000019,true,NA,NA,NA,NA,NA
YvNbaUVN,33tgb4g0msu3alll9rtp1nk6wbyxtf,3f1567xtn0i24t9pg9yi5zjt7jiq9e,YvNbaUVN,2020-0188,2021-10-15,13:41:03,14:53:14,NA,incomplete,true,true,NA,0,1,NA,green,m_s_078.jpg,NA,NA,pleasant,unpleasant,NA,NA,NA,NA,NA,left,2023.69999999925,true,NA,NA,NA,NA,NA
YvNbaUVN,33tgb4g0msu3alll9rtp1nk6wbyxtf,3f1567xtn0i24t9pg9yi5zjt7jiq9e,YvNbaUVN,2020-0188,2021-10-15,13:41:03,14:53:14,NA,incomplete,true,true,NA,0,2,NA,green,n_l_035.jpg,NA,NA,unpleasant,pleasant,NA,NA,NA,NA,NA,left,1070.39999999944,true,NA,NA,NA,NA,NA
YvNbaUVN,33tgb4g0msu3alll9rtp1nk6wbyxtf,3f1567xtn0i24t9pg9yi5zjt7jiq9e,YvNbaUVN,2020-0188,2021-10-15,13:41:03,14:53:14,NA,incomplete,true,true,NA,0,3,NA,green,m_l_031.jpg,NA,NA,unpleasant,pleasant,NA,NA,NA,NA,NA,left,578.600000000559,true,NA,NA,NA,NA,NA
YvNbaUVN,33tgb4g0msu3alll9rtp1nk6wbyxtf,3f1567xtn0i24t9pg9yi5zjt7jiq9e,YvNbaUVN,2020-0188,2021-10-15,13:41:03,14:53:14,NA,incomplete,true,true,NA,0,4,NA,green,n_s_089.jpg,NA,NA,pleasant,unpleasant,NA,NA,NA,NA,NA,left,1266.89999999944,true,NA,NA,NA,NA,NA
YvNbaUVN,33tgb4g0msu3alll9rtp1nk6wbyxtf,3f1567xtn0i24t9pg9yi5zjt7jiq9e,YvNbaUVN,2020-0188,2021-10-15,13:41:03,14:53:14,NA,incomplete,true,true,NA,0,5,NA,green,m_l_014.jpg,NA,NA,pleasant,unpleasant,NA,NA,NA,NA,NA,right,200.600000000559,true,NA,NA,NA,NA,NA
YvNbaUVN,33tgb4g0msu3alll9rtp1nk6wbyxtf,3f1567xtn0i24t9pg9yi5zjt7jiq9e,YvNbaUVN,2020-0188,2021-10-15,13:41:03,14:53:14,NA,incomplete,true,true,NA,0,6,NA,yellow,n_s_112.jpg,NA,NA,unpleasant,pleasant,NA,NA,NA,NA,NA,left,799.799999999814,true,NA,NA,NA,NA,NA
YvNbaUVN,33tgb4g0msu3alll9rtp1nk6wbyxtf,3f1567xtn0i24t9pg9yi5zjt7jiq9e,YvNbaUVN,2020-0188,2021-10-15,13:41:03,14:53:14,NA,incomplete,true,true,NA,0,7,NA,yellow,m_s_109.jpg,NA,NA,unpleasant,pleasant,NA,NA,NA,NA,NA,right,710,true,NA,NA,NA,NA,NA
YvNbaUVN,33tgb4g0msu3alll9rtp1nk6wbyxtf,3f1567xtn0i24t9pg9yi5zjt7jiq9e,YvNbaUVN,2020-0188,2021-10-15,13:41:03,14:53:14,NA,incomplete,true,true,NA,0,8,NA,yellow,n_l_041.jpg,NA,NA,pleasant,unpleasant,NA,NA,NA,NA,NA,left,315.5,true,NA,NA,NA,NA,NA
YvNbaUVN,33tgb4g0msu3alll9rtp1nk6wbyxtf,3f1567xtn0i24t9pg9yi5zjt7jiq9e,YvNbaUVN,2020-0188,2021-10-15,13:41:03,14:53:14,NA,incomplete,true,true,NA,0,9,NA,yellow,n_s_071.jpg,NA,NA,pleasant,unpleasant,NA,NA,NA,NA,NA,left,166.100000000559,true,NA,NA,NA,NA,NA
YvNbaUVN,33tgb4g0msu3alll9rtp1nk6wbyxtf,3f1567xtn0i24t9pg9yi5zjt7jiq9e,YvNbaUVN,2020-0188,2021-10-15,13:41:03,14:53:14,NA,incomplete,true,true,NA,0,10,NA,yellow,m_l_049.jpg,NA,NA,unpleasant,pleasant,NA,NA,NA,NA,NA,right,393,true,NA,NA,NA,NA,NA
YvNbaUVN,33tgb4g0msu3alll9rtp1nk6wbyxtf,3f1567xtn0i24t9pg9yi5zjt7jiq9e,YvNbaUVN,2020-0188,2021-10-15,13:41:03,14:53:14,NA,incomplete,true,true,NA,0,11,NA,yellow,n_l_033.jpg,NA,NA,pleasant,unpleasant,NA,NA,NA,NA,NA,left,70.6000000005588,true,NA,NA,NA,NA,NA
YvNbaUVN,33tgb4g0msu3alll9rtp1nk6wbyxtf,3f1567xtn0i24t9pg9yi5zjt7jiq9e,YvNbaUVN,2020-0188,2021-10-15,13:41:03,14:53:14,NA,incomplete,true,true,NA,0,12,NA,black,n_s_009.jpg,NA,NA,pleasant,unpleasant,NA,NA,NA,NA,NA,left,61.3000000007451,true,NA,NA,NA,NA,NA
YvNbaUVN,33tgb4g0msu3alll9rtp1nk6wbyxtf,3f1567xtn0i24t9pg9yi5zjt7jiq9e,YvNbaUVN,2020-0188,2021-10-15,13:41:03,14:53:14,NA,incomplete,true,true,NA,0,13,NA,black,n_s_076.jpg,NA,NA,unpleasant,pleasant,NA,NA,NA,NA,NA,right,19.0999999996275,true,NA,NA,NA,NA,NA
YvNbaUVN,33tgb4g0msu3alll9rtp1nk6wbyxtf,3f1567xtn0i24t9pg9yi5zjt7jiq9e,YvNbaUVN,2020-0188,2021-10-15,13:41:03,14:53:14,NA,incomplete,true,true,NA,0,14,NA,black,n_l_081.jpg,NA,NA,unpleasant,pleasant,NA,NA,NA,NA,NA,left,201.700000000186,true,NA,NA,NA,NA,NA
YvNbaUVN,33tgb4g0msu3alll9rtp1nk6wbyxtf,3f1567xtn0i24t9pg9yi5zjt7jiq9e,YvNbaUVN,2020-0188,2021-10-15,13:41:03,14:53:14,NA,incomplete,true,true,NA,0,15,NA,black,n_s_040.jpg,NA,NA,unpleasant,pleasant,NA,NA,NA,NA,NA,right,80.5999999996275,true,NA,NA,NA,NA,NA
YvNbaUVN,33tgb4g0msu3alll9rtp1nk6wbyxtf,3f1567xtn0i24t9pg9yi5zjt7jiq9e,YvNbaUVN,2020-0188,2021-10-15,13:41:03,14:53:14,NA,incomplete,true,true,NA,0,16,NA,black,n_s_065.jpg,NA,NA,pleasant,unpleasant,NA,NA,NA,NA,NA,left,157.799999999814,true,NA,NA,NA,NA,NA
YvNbaUVN,33tgb4g0msu3alll9rtp1nk6wbyxtf,3f1567xtn0i24t9pg9yi5zjt7jiq9e,YvNbaUVN,2020-0188,2021-10-15,13:41:03,14:53:14,NA,incomplete,true,true,NA,0,17,NA,black,m_l_096.jpg,NA,NA,unpleasant,pleasant,NA,NA,NA,NA,NA,left,117.099999999627,true,NA,NA,NA,NA,NA
YvNbaUVN,33tgb4g0msu3alll9rtp1nk6wbyxtf,3f1567xtn0i24t9pg9yi5zjt7jiq9e,YvNbaUVN,2020-0188,2021-10-15,13:41:03,14:53:14,NA,incomplete,true,true,NA,0,18,NA,purple,m_s_079.jpg,NA,NA,unpleasant,pleasant,NA,NA,NA,NA,NA,right,42.5,true,NA,NA,NA,NA,NA
YvNbaUVN,33tgb4g0msu3alll9rtp1nk6wbyxtf,3f1567xtn0i24t9pg9yi5zjt7jiq9e,YvNbaUVN,2020-0188,2021-10-15,13:41:03,14:53:14,NA,incomplete,true,true,NA,0,19,NA,purple,m_s_018.jpg,NA,NA,unpleasant,pleasant,NA,NA,NA,NA,NA,right,97.5,true,NA,NA,NA,NA,NA
YvNbaUVN,33tgb4g0msu3alll9rtp1nk6wbyxtf,3f1567xtn0i24t9pg9yi5zjt7jiq9e,YvNbaUVN,2020-0188,2021-10-15,13:41:03,14:53:14,NA,incomplete,true,true,NA,0,20,NA,purple,m_l_067.jpg,NA,NA,unpleasant,pleasant,NA,NA,NA,NA,NA,right,70.7000000001863,true,NA,NA,NA,NA,NA
YvNbaUVN,33tgb4g0msu3alll9rtp1nk6wbyxtf,3f1567xtn0i24t9pg9yi5zjt7jiq9e,YvNbaUVN,2020-0188,2021-10-15,13:41:03,14:53:14,NA,incomplete,true,true,NA,0,21,NA,purple,m_s_006.jpg,NA,NA,unpleasant,pleasant,NA,NA,NA,NA,NA,right,30.7000000001863,true,NA,NA,NA,NA,NA
YvNbaUVN,33tgb4g0msu3alll9rtp1nk6wbyxtf,3f1567xtn0i24t9pg9yi5zjt7jiq9e,YvNbaUVN,2020-0188,2021-10-15,13:41:03,14:53:14,NA,incomplete,true,true,NA,0,22,NA,purple,n_l_069.jpg,NA,NA,pleasant,unpleasant,NA,NA,NA,NA,NA,left,155.900000000373,true,NA,NA,NA,NA,NA
YvNbaUVN,33tgb4g0msu3alll9rtp1nk6wbyxtf,3f1567xtn0i24t9pg9yi5zjt7jiq9e,YvNbaUVN,2020-0188,2021-10-15,13:41:03,14:53:14,NA,incomplete,true,true,NA,0,23,NA,purple,m_l_022.jpg,NA,NA,unpleasant,pleasant,NA,NA,NA,NA,NA,left,82.0999999996275,true,NA,NA,NA,NA,NA
YvNbaUVN,33tgb4g0msu3alll9rtp1nk6wbyxtf,3f1567xtn0i24t9pg9yi5zjt7jiq9e,YvNbaUVN,2020-0188,2021-10-15,13:41:03,14:53:14,NA,incomplete,true,true,NA,0,24,NA,brown,m_s_083.jpg,NA,NA,pleasant,unpleasant,NA,NA,NA,NA,NA,right,40,true,NA,NA,NA,NA,NA
YvNbaUVN,33tgb4g0msu3alll9rtp1nk6wbyxtf,3f1567xtn0i24t9pg9yi5zjt7jiq9e,YvNbaUVN,2020-0188,2021-10-15,13:41:03,14:53:14,NA,incomplete,true,true,NA,0,25,NA,brown,n_l_016.jpg,NA,NA,pleasant,unpleasant,NA,NA,NA,NA,NA,left,62.6999999992549,true,NA,NA,NA,NA,NA
YvNbaUVN,33tgb4g0msu3alll9rtp1nk6wbyxtf,3f1567xtn0i24t9pg9yi5zjt7jiq9e,YvNbaUVN,2020-0188,2021-10-15,13:41:03,14:53:14,NA,incomplete,true,true,NA,0,26,NA,brown,n_l_023.jpg,NA,NA,unpleasant,pleasant,NA,NA,NA,NA,NA,left,100,true,NA,NA,NA,NA,NA
YvNbaUVN,33tgb4g0msu3alll9rtp1nk6wbyxtf,3f1567xtn0i24t9pg9yi5zjt7jiq9e,YvNbaUVN,2020-0188,2021-10-15,13:41:03,14:53:14,NA,incomplete,true,true,NA,0,27,NA,brown,n_s_100.jpg,NA,NA,pleasant,unpleasant,NA,NA,NA,NA,NA,left,108.200000000186,true,NA,NA,NA,NA,NA
YvNbaUVN,33tgb4g0msu3alll9rtp1nk6wbyxtf,3f1567xtn0i24t9pg9yi5zjt7jiq9e,YvNbaUVN,2020-0188,2021-10-15,13:41:03,14:53:14,NA,incomplete,true,true,NA,0,28,NA,brown,m_l_104.jpg,NA,NA,unpleasant,pleasant,NA,NA,NA,NA,NA,right,34.2999999998137,true,NA,NA,NA,NA,NA
YvNbaUVN,33tgb4g0msu3alll9rtp1nk6wbyxtf,3f1567xtn0i24t9pg9yi5zjt7jiq9e,YvNbaUVN,2020-0188,2021-10-15,13:41:03,14:53:14,NA,incomplete,true,true,NA,0,29,NA,brown,n_s_098.jpg,NA,NA,unpleasant,pleasant,NA,NA,NA,NA,NA,left,49.4000000003725,true,NA,NA,NA,NA,NA
YvNbaUVN,33tgb4g0msu3alll9rtp1nk6wbyxtf,3f1567xtn0i24t9pg9yi5zjt7jiq9e,YvNbaUVN,2020-0188,2021-10-15,13:41:03,14:53:14,NA,incomplete,true,true,NA,0,30,NA,red,n_l_068.jpg,NA,NA,pleasant,unpleasant,NA,NA,NA,NA,NA,right,791.5,true,NA,NA,NA,NA,NA
YvNbaUVN,33tgb4g0msu3alll9rtp1nk6wbyxtf,3f1567xtn0i24t9pg9yi5zjt7jiq9e,YvNbaUVN,2020-0188,2021-10-15,13:41:03,14:53:14,NA,incomplete,true,true,NA,0,31,NA,red,m_s_025.jpg,NA,NA,pleasant,unpleasant,NA,NA,NA,NA,NA,right,692.699999999255,true,NA,NA,NA,NA,NA
YvNbaUVN,33tgb4g0msu3alll9rtp1nk6wbyxtf,3f1567xtn0i24t9pg9yi5zjt7jiq9e,YvNbaUVN,2020-0188,2021-10-15,13:41:03,14:53:14,NA,incomplete,true,true,NA,0,32,NA,red,n_s_067.jpg,NA,NA,unpleasant,pleasant,NA,NA,NA,NA,NA,left,491.5,true,NA,NA,NA,NA,NA
YvNbaUVN,33tgb4g0msu3alll9rtp1nk6wbyxtf,3f1567xtn0i24t9pg9yi5zjt7jiq9e,YvNbaUVN,2020-0188,2021-10-15,13:41:03,14:53:14,NA,incomplete,true,true,NA,0,33,NA,red,m_l_101.jpg,NA,NA,unpleasant,pleasant,NA,NA,NA,NA,NA,left,1217.19999999925,true,NA,NA,NA,NA,NA
YvNbaUVN,33tgb4g0msu3alll9rtp1nk6wbyxtf,3f1567xtn0i24t9pg9yi5zjt7jiq9e,YvNbaUVN,2020-0188,2021-10-15,13:41:03,14:53:14,NA,incomplete,true,true,NA,0,34,NA,red,n_l_087.jpg,NA,NA,pleasant,unpleasant,NA,NA,NA,NA,NA,left,831.799999999814,true,NA,NA,NA,NA,NA
YvNbaUVN,33tgb4g0msu3alll9rtp1nk6wbyxtf,3f1567xtn0i24t9pg9yi5zjt7jiq9e,YvNbaUVN,2020-0188,2021-10-15,13:41:03,14:53:14,NA,incomplete,true,true,NA,0,35,NA,red,m_l_099.jpg,NA,NA,pleasant,unpleasant,NA,NA,NA,NA,NA,right,733.900000000373,true,NA,NA,NA,NA,NA
YvNbaUVN,33tgb4g0msu3alll9rtp1nk6wbyxtf,3f1567xtn0i24t9pg9yi5zjt7jiq9e,YvNbaUVN,2020-0188,2021-10-15,13:41:03,14:53:14,NA,incomplete,true,NA,true,0,0,NA,NA,NA,left,absent,NA,NA,m_s_025.jpg,red,m_l_099.jpg,red,within,NA,NaN,NA,left,4891.4000000003725,1,1,1821.5
YvNbaUVN,33tgb4g0msu3alll9rtp1nk6wbyxtf,3f1567xtn0i24t9pg9yi5zjt7jiq9e,YvNbaUVN,2020-0188,2021-10-15,13:41:03,14:53:14,NA,incomplete,true,NA,true,0,1,NA,NA,NA,right,absent,NA,NA,m_l_014.jpg,green,m_s_078.jpg,green,within,NA,NaN,NA,right,2069.7000000001863,1,3,1238.0999999996275
YvNbaUVN,33tgb4g0msu3alll9rtp1nk6wbyxtf,3f1567xtn0i24t9pg9yi5zjt7jiq9e,YvNbaUVN,2020-0188,2021-10-15,13:41:03,14:53:14,NA,incomplete,true,NA,true,0,2,NA,NA,NA,left,present,NA,NA,n_s_065.jpg,black,m_l_067.jpg,purple,between,NA,NaN,NA,right,1789.2999999998137,0,1,1765
YvNbaUVN,33tgb4g0msu3alll9rtp1nk6wbyxtf,3f1567xtn0i24t9pg9yi5zjt7jiq9e,YvNbaUVN,2020-0188,2021-10-15,13:41:03,14:53:14,NA,incomplete,true,NA,true,0,3,NA,NA,NA,left,absent,NA,NA,n_l_069.jpg,purple,n_l_023.jpg,brown,between,NA,NaN,NA,left,1897.199999999255,1,3,2685.300000000745
YvNbaUVN,33tgb4g0msu3alll9rtp1nk6wbyxtf,3f1567xtn0i24t9pg9yi5zjt7jiq9e,YvNbaUVN,2020-0188,2021-10-15,13:41:03,14:53:14,NA,incomplete,true,NA,true,0,4,NA,NA,NA,left,absent,NA,NA,n_s_076.jpg,black,m_l_096.jpg,black,within,NA,NaN,NA,right,4213.699999999255,0,2,2404
YvNbaUVN,33tgb4g0msu3alll9rtp1nk6wbyxtf,3f1567xtn0i24t9pg9yi5zjt7jiq9e,YvNbaUVN,2020-0188,2021-10-15,13:41:03,14:53:14,NA,incomplete,true,NA,true,0,5,NA,NA,NA,left,absent,NA,NA,m_l_049.jpg,yellow,n_l_081.jpg,black,between,NA,NaN,NA,left,1566.2999999998137,1,2,1805.2999999998137
YvNbaUVN,33tgb4g0msu3alll9rtp1nk6wbyxtf,3f1567xtn0i24t9pg9yi5zjt7jiq9e,YvNbaUVN,2020-0188,2021-10-15,13:41:03,14:53:14,NA,incomplete,true,NA,true,0,6,NA,NA,NA,left,present,NA,NA,m_l_104.jpg,brown,n_s_067.jpg,red,between,NA,NaN,NA,right,1781,0,1,1285.800000000745
YvNbaUVN,33tgb4g0msu3alll9rtp1nk6wbyxtf,3f1567xtn0i24t9pg9yi5zjt7jiq9e,YvNbaUVN,2020-0188,2021-10-15,13:41:03,14:53:14,NA,incomplete,true,NA,true,0,7,NA,NA,NA,left,absent,NA,NA,m_s_109.jpg,yellow,n_l_033.jpg,yellow,within,NA,NaN,NA,left,1557.3999999994412,1,2,2668.4000000003725
YvNbaUVN,33tgb4g0msu3alll9rtp1nk6wbyxtf,3f1567xtn0i24t9pg9yi5zjt7jiq9e,YvNbaUVN,2020-0188,2021-10-15,13:41:03,14:53:14,NA,incomplete,true,NA,true,0,8,NA,NA,NA,right,present,NA,NA,n_l_041.jpg,yellow,n_s_089.jpg,green,between,NA,NaN,NA,right,1524.7000000001863,1,2,1585.5
YvNbaUVN,33tgb4g0msu3alll9rtp1nk6wbyxtf,3f1567xtn0i24t9pg9yi5zjt7jiq9e,YvNbaUVN,2020-0188,2021-10-15,13:41:03,14:53:14,NA,incomplete,true,NA,true,0,9,NA,NA,NA,left,present,NA,NA,n_l_016.jpg,brown,n_s_098.jpg,brown,within,NA,NaN,NA,left,2672.7999999998137,1,0,1837.1000000005588
YvNbaUVN,33tgb4g0msu3alll9rtp1nk6wbyxtf,3f1567xtn0i24t9pg9yi5zjt7jiq9e,YvNbaUVN,2020-0188,2021-10-15,13:41:03,14:53:14,NA,incomplete,true,NA,true,0,10,NA,NA,NA,left,present,NA,NA,m_s_018.jpg,purple,m_l_022.jpg,purple,within,NA,NaN,NA,right,1556.7000000001863,0,2,2180.5
YvNbaUVN,33tgb4g0msu3alll9rtp1nk6wbyxtf,3f1567xtn0i24t9pg9yi5zjt7jiq9e,YvNbaUVN,2020-0188,2021-10-15,13:41:03,14:53:14,NA,incomplete,false,true,NA,1,0,NA,green,m_s_114.jpg,NA,NA,unpleasant,pleasant,NA,NA,NA,NA,NA,right,3370.19999999925,true,NA,NA,NA,NA,NA
YvNbaUVN,33tgb4g0msu3alll9rtp1nk6wbyxtf,3f1567xtn0i24t9pg9yi5zjt7jiq9e,YvNbaUVN,2020-0188,2021-10-15,13:41:03,14:53:14,NA,incomplete,false,true,NA,1,1,NA,green,n_s_057.jpg,NA,NA,unpleasant,pleasant,NA,NA,NA,NA,NA,right,1825.39999999944,true,NA,NA,NA,NA,NA
YvNbaUVN,33tgb4g0msu3alll9rtp1nk6wbyxtf,3f1567xtn0i24t9pg9yi5zjt7jiq9e,YvNbaUVN,2020-0188,2021-10-15,13:41:03,14:53:14,NA,incomplete,false,true,NA,1,2,NA,green,n_s_063.jpg,NA,NA,pleasant,unpleasant,NA,NA,NA,NA,NA,left,640.600000000559,true,NA,NA,NA,NA,NA
YvNbaUVN,33tgb4g0msu3alll9rtp1nk6wbyxtf,3f1567xtn0i24t9pg9yi5zjt7jiq9e,YvNbaUVN,2020-0188,2021-10-15,13:41:03,14:53:14,NA,incomplete,false,true,NA,1,3,NA,green,n_s_029.jpg,NA,NA,unpleasant,pleasant,NA,NA,NA,NA,NA,right,750.099999999627,true,NA,NA,NA,NA,NA
YvNbaUVN,33tgb4g0msu3alll9rtp1nk6wbyxtf,3f1567xtn0i24t9pg9yi5zjt7jiq9e,YvNbaUVN,2020-0188,2021-10-15,13:41:03,14:53:14,NA,incomplete,false,true,NA,1,4,NA,green,m_l_064.jpg,NA,NA,unpleasant,pleasant,NA,NA,NA,NA,NA,right,1052.70000000019,true,NA,NA,NA,NA,NA
YvNbaUVN,33tgb4g0msu3alll9rtp1nk6wbyxtf,3f1567xtn0i24t9pg9yi5zjt7jiq9e,YvNbaUVN,2020-0188,2021-10-15,13:41:03,14:53:14,NA,incomplete,false,true,NA,1,5,NA,green,n_s_017.jpg,NA,NA,pleasant,unpleasant,NA,NA,NA,NA,NA,left,698.600000000559,true,NA,NA,NA,NA,NA
YvNbaUVN,33tgb4g0msu3alll9rtp1nk6wbyxtf,3f1567xtn0i24t9pg9yi5zjt7jiq9e,YvNbaUVN,2020-0188,2021-10-15,13:41:03,14:53:14,NA,incomplete,false,true,NA,1,6,NA,black,m_s_093.jpg,NA,NA,unpleasant,pleasant,NA,NA,NA,NA,NA,right,1256.29999999981,true,NA,NA,NA,NA,NA
YvNbaUVN,33tgb4g0msu3alll9rtp1nk6wbyxtf,3f1567xtn0i24t9pg9yi5zjt7jiq9e,YvNbaUVN,2020-0188,2021-10-15,13:41:03,14:53:14,NA,incomplete,false,true,NA,1,7,NA,black,n_s_079.jpg,NA,NA,pleasant,unpleasant,NA,NA,NA,NA,NA,left,793,true,NA,NA,NA,NA,NA
YvNbaUVN,33tgb4g0msu3alll9rtp1nk6wbyxtf,3f1567xtn0i24t9pg9yi5zjt7jiq9e,YvNbaUVN,2020-0188,2021-10-15,13:41:03,14:53:14,NA,incomplete,false,true,NA,1,8,NA,black,m_l_058.jpg,NA,NA,pleasant,unpleasant,NA,NA,NA,NA,NA,right,869.699999999255,true,NA,NA,NA,NA,NA
YvNbaUVN,33tgb4g0msu3alll9rtp1nk6wbyxtf,3f1567xtn0i24t9pg9yi5zjt7jiq9e,YvNbaUVN,2020-0188,2021-10-15,13:41:03,14:53:14,NA,incomplete,false,true,NA,1,9,NA,black,n_l_012.jpg,NA,NA,pleasant,unpleasant,NA,NA,NA,NA,NA,right,1300.20000000019,true,NA,NA,NA,NA,NA
YvNbaUVN,33tgb4g0msu3alll9rtp1nk6wbyxtf,3f1567xtn0i24t9pg9yi5zjt7jiq9e,YvNbaUVN,2020-0188,2021-10-15,13:41:03,14:53:14,NA,incomplete,false,true,NA,1,10,NA,black,n_s_094.jpg,NA,NA,unpleasant,pleasant,NA,NA,NA,NA,NA,left,753.5,true,NA,NA,NA,NA,NA
YvNbaUVN,33tgb4g0msu3alll9rtp1nk6wbyxtf,3f1567xtn0i24t9pg9yi5zjt7jiq9e,YvNbaUVN,2020-0188,2021-10-15,13:41:03,14:53:14,NA,incomplete,false,true,NA,1,11,NA,black,m_l_112.jpg,NA,NA,unpleasant,pleasant,NA,NA,NA,NA,NA,left,808.5,true,NA,NA,NA,NA,NA
YvNbaUVN,33tgb4g0msu3alll9rtp1nk6wbyxtf,3f1567xtn0i24t9pg9yi5zjt7jiq9e,YvNbaUVN,2020-0188,2021-10-15,13:41:03,14:53:14,NA,incomplete,false,true,NA,1,12,NA,brown,n_l_029.jpg,NA,NA,pleasant,unpleasant,NA,NA,NA,NA,NA,right,607.200000000186,true,NA,NA,NA,NA,NA
YvNbaUVN,33tgb4g0msu3alll9rtp1nk6wbyxtf,3f1567xtn0i24t9pg9yi5zjt7jiq9e,YvNbaUVN,2020-0188,2021-10-15,13:41:03,14:53:14,NA,incomplete,false,true,NA,1,13,NA,brown,m_l_029.jpg,NA,NA,unpleasant,pleasant,NA,NA,NA,NA,NA,left,549.299999999814,true,NA,NA,NA,NA,NA
YvNbaUVN,33tgb4g0msu3alll9rtp1nk6wbyxtf,3f1567xtn0i24t9pg9yi5zjt7jiq9e,YvNbaUVN,2020-0188,2021-10-15,13:41:03,14:53:14,NA,incomplete,false,true,NA,1,14,NA,brown,n_l_090.jpg,NA,NA,unpleasant,pleasant,NA,NA,NA,NA,NA,right,19,true,NA,NA,NA,NA,NA
YvNbaUVN,33tgb4g0msu3alll9rtp1nk6wbyxtf,3f1567xtn0i24t9pg9yi5zjt7jiq9e,YvNbaUVN,2020-0188,2021-10-15,13:41:03,14:53:14,NA,incomplete,false,true,NA,1,15,NA,brown,n_l_077.jpg,NA,NA,unpleasant,pleasant,NA,NA,NA,NA,NA,right,97.4000000003725,true,NA,NA,NA,NA,NA
YvNbaUVN,33tgb4g0msu3alll9rtp1nk6wbyxtf,3f1567xtn0i24t9pg9yi5zjt7jiq9e,YvNbaUVN,2020-0188,2021-10-15,13:41:03,14:53:14,NA,incomplete,false,true,NA,1,16,NA,brown,m_s_102.jpg,NA,NA,unpleasant,pleasant,NA,NA,NA,NA,NA,right,64,true,NA,NA,NA,NA,NA
YvNbaUVN,33tgb4g0msu3alll9rtp1nk6wbyxtf,3f1567xtn0i24t9pg9yi5zjt7jiq9e,YvNbaUVN,2020-0188,2021-10-15,13:41:03,14:53:14,NA,incomplete,false,true,NA,1,17,NA,brown,m_s_064.jpg,NA,NA,pleasant,unpleasant,NA,NA,NA,NA,NA,right,1272.29999999981,true,NA,NA,NA,NA,NA
YvNbaUVN,33tgb4g0msu3alll9rtp1nk6wbyxtf,3f1567xtn0i24t9pg9yi5zjt7jiq9e,YvNbaUVN,2020-0188,2021-10-15,13:41:03,14:53:14,NA,incomplete,false,true,NA,1,18,NA,yellow,m_s_017.jpg,NA,NA,unpleasant,pleasant,NA,NA,NA,NA,NA,right,84.2999999998137,true,NA,NA,NA,NA,NA
YvNbaUVN,33tgb4g0msu3alll9rtp1nk6wbyxtf,3f1567xtn0i24t9pg9yi5zjt7jiq9e,YvNbaUVN,2020-0188,2021-10-15,13:41:03,14:53:14,NA,incomplete,false,true,NA,1,19,NA,yellow,n_l_063.jpg,NA,NA,pleasant,unpleasant,NA,NA,NA,NA,NA,right,42.2999999998137,true,NA,NA,NA,NA,NA
YvNbaUVN,33tgb4g0msu3alll9rtp1nk6wbyxtf,3f1567xtn0i24t9pg9yi5zjt7jiq9e,YvNbaUVN,2020-0188,2021-10-15,13:41:03,14:53:14,NA,incomplete,false,true,NA,1,20,NA,yellow,n_s_028.jpg,NA,NA,pleasant,unpleasant,NA,NA,NA,NA,NA,right,18,true,NA,NA,NA,NA,NA
YvNbaUVN,33tgb4g0msu3alll9rtp1nk6wbyxtf,3f1567xtn0i24t9pg9yi5zjt7jiq9e,YvNbaUVN,2020-0188,2021-10-15,13:41:03,14:53:14,NA,incomplete,false,true,NA,1,21,NA,yellow,n_s_051.jpg,NA,NA,unpleasant,pleasant,NA,NA,NA,NA,NA,left,71.3999999994412,true,NA,NA,NA,NA,NA
YvNbaUVN,33tgb4g0msu3alll9rtp1nk6wbyxtf,3f1567xtn0i24t9pg9yi5zjt7jiq9e,YvNbaUVN,2020-0188,2021-10-15,13:41:03,14:53:14,NA,incomplete,false,true,NA,1,22,NA,yellow,n_s_088.jpg,NA,NA,unpleasant,pleasant,NA,NA,NA,NA,NA,right,206.200000000186,true,NA,NA,NA,NA,NA
YvNbaUVN,33tgb4g0msu3alll9rtp1nk6wbyxtf,3f1567xtn0i24t9pg9yi5zjt7jiq9e,YvNbaUVN,2020-0188,2021-10-15,13:41:03,14:53:14,NA,incomplete,false,true,NA,1,23,NA,yellow,n_l_006.jpg,NA,NA,unpleasant,pleasant,NA,NA,NA,NA,NA,right,163.900000000373,true,NA,NA,NA,NA,NA
YvNbaUVN,33tgb4g0msu3alll9rtp1nk6wbyxtf,3f1567xtn0i24t9pg9yi5zjt7jiq9e,YvNbaUVN,2020-0188,2021-10-15,13:41:03,14:53:14,NA,incomplete,false,true,NA,1,24,NA,gray,m_l_038.jpg,NA,NA,pleasant,unpleasant,NA,NA,NA,NA,NA,right,145.299999999814,true,NA,NA,NA,NA,NA
YvNbaUVN,33tgb4g0msu3alll9rtp1nk6wbyxtf,3f1567xtn0i24t9pg9yi5zjt7jiq9e,YvNbaUVN,2020-0188,2021-10-15,13:41:03,14:53:14,NA,incomplete,false,true,NA,1,25,NA,gray,n_l_014.jpg,NA,NA,pleasant,unpleasant,NA,NA,NA,NA,NA,right,88.2000000001863,true,NA,NA,NA,NA,NA
YvNbaUVN,33tgb4g0msu3alll9rtp1nk6wbyxtf,3f1567xtn0i24t9pg9yi5zjt7jiq9e,YvNbaUVN,2020-0188,2021-10-15,13:41:03,14:53:14,NA,incomplete,false,true,NA,1,26,NA,gray,n_s_104.jpg,NA,NA,pleasant,unpleasant,NA,NA,NA,NA,NA,right,1520.59999999963,true,NA,NA,NA,NA,NA
YvNbaUVN,33tgb4g0msu3alll9rtp1nk6wbyxtf,3f1567xtn0i24t9pg9yi5zjt7jiq9e,YvNbaUVN,2020-0188,2021-10-15,13:41:03,14:53:14,NA,incomplete,false,true,NA,1,27,NA,gray,m_l_045.jpg,NA,NA,unpleasant,pleasant,NA,NA,NA,NA,NA,right,172.5,true,NA,NA,NA,NA,NA
YvNbaUVN,33tgb4g0msu3alll9rtp1nk6wbyxtf,3f1567xtn0i24t9pg9yi5zjt7jiq9e,YvNbaUVN,2020-0188,2021-10-15,13:41:03,14:53:14,NA,incomplete,false,true,NA,1,28,NA,gray,m_s_048.jpg,NA,NA,unpleasant,pleasant,NA,NA,NA,NA,NA,right,66.2999999998137,true,NA,NA,NA,NA,NA
YvNbaUVN,33tgb4g0msu3alll9rtp1nk6wbyxtf,3f1567xtn0i24t9pg9yi5zjt7jiq9e,YvNbaUVN,2020-0188,2021-10-15,13:41:03,14:53:14,NA,incomplete,false,true,NA,1,29,NA,gray,n_l_108.jpg,NA,NA,unpleasant,pleasant,NA,NA,NA,NA,NA,left,209.5,true,NA,NA,NA,NA,NA
YvNbaUVN,33tgb4g0msu3alll9rtp1nk6wbyxtf,3f1567xtn0i24t9pg9yi5zjt7jiq9e,YvNbaUVN,2020-0188,2021-10-15,13:41:03,14:53:14,NA,incomplete,false,true,NA,1,30,NA,red,m_s_012.jpg,NA,NA,unpleasant,pleasant,NA,NA,NA,NA,NA,left,32.3000000007451,true,NA,NA,NA,NA,NA
YvNbaUVN,33tgb4g0msu3alll9rtp1nk6wbyxtf,3f1567xtn0i24t9pg9yi5zjt7jiq9e,YvNbaUVN,2020-0188,2021-10-15,13:41:03,14:53:14,NA,incomplete,false,true,NA,1,31,NA,red,m_s_107.jpg,NA,NA,pleasant,unpleasant,NA,NA,NA,NA,NA,left,22.8999999994412,true,NA,NA,NA,NA,NA
YvNbaUVN,33tgb4g0msu3alll9rtp1nk6wbyxtf,3f1567xtn0i24t9pg9yi5zjt7jiq9e,YvNbaUVN,2020-0188,2021-10-15,13:41:03,14:53:14,NA,incomplete,false,true,NA,1,32,NA,red,m_l_033.jpg,NA,NA,pleasant,unpleasant,NA,NA,NA,NA,NA,left,12.5999999996275,true,NA,NA,NA,NA,NA
YvNbaUVN,33tgb4g0msu3alll9rtp1nk6wbyxtf,3f1567xtn0i24t9pg9yi5zjt7jiq9e,YvNbaUVN,2020-0188,2021-10-15,13:41:03,14:53:14,NA,incomplete,false,true,NA,1,33,NA,red,m_s_068.jpg,NA,NA,pleasant,unpleasant,NA,NA,NA,NA,NA,left,97.8999999994412,true,NA,NA,NA,NA,NA
YvNbaUVN,33tgb4g0msu3alll9rtp1nk6wbyxtf,3f1567xtn0i24t9pg9yi5zjt7jiq9e,YvNbaUVN,2020-0188,2021-10-15,13:41:03,14:53:14,NA,incomplete,false,true,NA,1,34,NA,red,m_s_021.jpg,NA,NA,pleasant,unpleasant,NA,NA,NA,NA,NA,right,48.5999999996275,true,NA,NA,NA,NA,NA
YvNbaUVN,33tgb4g0msu3alll9rtp1nk6wbyxtf,3f1567xtn0i24t9pg9yi5zjt7jiq9e,YvNbaUVN,2020-0188,2021-10-15,13:41:03,14:53:14,NA,incomplete,false,true,NA,1,35,NA,red,n_s_033.jpg,NA,NA,pleasant,unpleasant,NA,NA,NA,NA,NA,left,138.700000000186,true,NA,NA,NA,NA,NA
YvNbaUVN,33tgb4g0msu3alll9rtp1nk6wbyxtf,3f1567xtn0i24t9pg9yi5zjt7jiq9e,YvNbaUVN,2020-0188,2021-10-15,13:41:03,14:53:14,NA,incomplete,false,NA,true,1,0,NA,NA,NA,right,present,NA,NA,n_s_028.jpg,yellow,m_s_102.jpg,brown,between,NA,NaN,NA,right,1904.5,1,1,1746.5
YvNbaUVN,33tgb4g0msu3alll9rtp1nk6wbyxtf,3f1567xtn0i24t9pg9yi5zjt7jiq9e,YvNbaUVN,2020-0188,2021-10-15,13:41:03,14:53:14,NA,incomplete,false,NA,true,1,1,NA,NA,NA,left,present,NA,NA,n_s_094.jpg,black,n_l_090.jpg,brown,between,NA,NaN,NA,right,1356,0,0,1045.0999999996275
YvNbaUVN,33tgb4g0msu3alll9rtp1nk6wbyxtf,3f1567xtn0i24t9pg9yi5zjt7jiq9e,YvNbaUVN,2020-0188,2021-10-15,13:41:03,14:53:14,NA,incomplete,false,NA,true,1,2,NA,NA,NA,left,present,NA,NA,n_l_014.jpg,gray,n_l_108.jpg,gray,within,NA,NaN,NA,left,1269.2000000001863,1,2,1332.6000000005588
YvNbaUVN,33tgb4g0msu3alll9rtp1nk6wbyxtf,3f1567xtn0i24t9pg9yi5zjt7jiq9e,YvNbaUVN,2020-0188,2021-10-15,13:41:03,14:53:14,NA,incomplete,false,NA,true,1,3,NA,NA,NA,left,present,NA,NA,m_l_064.jpg,green,m_l_058.jpg,black,between,NA,NaN,NA,left,1541.7000000001863,1,3,1140
YvNbaUVN,33tgb4g0msu3alll9rtp1nk6wbyxtf,3f1567xtn0i24t9pg9yi5zjt7jiq9e,YvNbaUVN,2020-0188,2021-10-15,13:41:03,14:53:14,NA,incomplete,false,NA,true,1,4,NA,NA,NA,right,present,NA,NA,n_s_017.jpg,green,n_s_057.jpg,green,within,NA,NaN,NA,right,3205,1,1,1531.7999999998137
YvNbaUVN,33tgb4g0msu3alll9rtp1nk6wbyxtf,3f1567xtn0i24t9pg9yi5zjt7jiq9e,YvNbaUVN,2020-0188,2021-10-15,13:41:03,14:53:14,NA,incomplete,false,NA,true,1,5,NA,NA,NA,right,present,NA,NA,m_l_112.jpg,black,n_s_079.jpg,black,within,NA,NaN,NA,right,2940.5,1,3,1275.7000000001863
YvNbaUVN,33tgb4g0msu3alll9rtp1nk6wbyxtf,3f1567xtn0i24t9pg9yi5zjt7jiq9e,YvNbaUVN,2020-0188,2021-10-15,13:41:03,14:53:14,NA,incomplete,false,NA,true,1,6,NA,NA,NA,left,present,NA,NA,m_s_048.jpg,gray,m_l_033.jpg,red,between,NA,NaN,NA,right,2662.0999999996275,0,1,1044.7999999998137
YvNbaUVN,33tgb4g0msu3alll9rtp1nk6wbyxtf,3f1567xtn0i24t9pg9yi5zjt7jiq9e,YvNbaUVN,2020-0188,2021-10-15,13:41:03,14:53:14,NA,incomplete,false,NA,true,1,7,NA,NA,NA,right,present,NA,NA,m_s_064.jpg,brown,m_l_029.jpg,brown,within,NA,NaN,NA,right,1572.6000000005588,1,2,1300.5
YvNbaUVN,33tgb4g0msu3alll9rtp1nk6wbyxtf,3f1567xtn0i24t9pg9yi5zjt7jiq9e,YvNbaUVN,2020-0188,2021-10-15,13:41:03,14:53:14,NA,incomplete,false,NA,true,1,8,NA,NA,NA,left,present,NA,NA,n_l_063.jpg,yellow,n_l_006.jpg,yellow,within,NA,NaN,NA,right,1780.699999999255,0,3,1058.7999999998137
YvNbaUVN,33tgb4g0msu3alll9rtp1nk6wbyxtf,3f1567xtn0i24t9pg9yi5zjt7jiq9e,YvNbaUVN,2020-0188,2021-10-15,13:41:03,14:53:14,NA,incomplete,false,NA,true,1,9,NA,NA,NA,left,present,NA,NA,m_s_107.jpg,red,n_s_033.jpg,red,within,NA,NaN,NA,left,1243.800000000745,1,1,1004.2000000001863
YvNbaUVN,33tgb4g0msu3alll9rtp1nk6wbyxtf,3f1567xtn0i24t9pg9yi5zjt7jiq9e,YvNbaUVN,2020-0188,2021-10-15,13:41:03,14:53:14,NA,incomplete,false,NA,true,1,10,NA,NA,NA,right,present,NA,NA,n_s_104.jpg,gray,n_s_088.jpg,yellow,between,NA,NaN,NA,left,1590,0,2,1877
YvNbaUVN,33tgb4g0msu3alll9rtp1nk6wbyxtf,3f1567xtn0i24t9pg9yi5zjt7jiq9e,YvNbaUVN,2020-0188,2021-10-15,13:41:03,14:53:14,NA,incomplete,false,true,NA,2,0,NA,yellow,m_s_113.jpg,NA,NA,pleasant,unpleasant,NA,NA,NA,NA,NA,right,1189,true,NA,NA,NA,NA,NA
YvNbaUVN,33tgb4g0msu3alll9rtp1nk6wbyxtf,3f1567xtn0i24t9pg9yi5zjt7jiq9e,YvNbaUVN,2020-0188,2021-10-15,13:41:03,14:53:14,NA,incomplete,false,true,NA,2,1,NA,yellow,m_l_070.jpg,NA,NA,pleasant,unpleasant,NA,NA,NA,NA,NA,left,175.600000000559,true,NA,NA,NA,NA,NA
YvNbaUVN,33tgb4g0msu3alll9rtp1nk6wbyxtf,3f1567xtn0i24t9pg9yi5zjt7jiq9e,YvNbaUVN,2020-0188,2021-10-15,13:41:03,14:53:14,NA,incomplete,false,true,NA,2,2,NA,yellow,n_s_044.jpg,NA,NA,pleasant,unpleasant,NA,NA,NA,NA,NA,left,101.200000000186,true,NA,NA,NA,NA,NA
YvNbaUVN,33tgb4g0msu3alll9rtp1nk6wbyxtf,3f1567xtn0i24t9pg9yi5zjt7jiq9e,YvNbaUVN,2020-0188,2021-10-15,13:41:03,14:53:14,NA,incomplete,false,true,NA,2,3,NA,yellow,n_s_087.jpg,NA,NA,unpleasant,pleasant,NA,NA,NA,NA,NA,left,28,true,NA,NA,NA,NA,NA
YvNbaUVN,33tgb4g0msu3alll9rtp1nk6wbyxtf,3f1567xtn0i24t9pg9yi5zjt7jiq9e,YvNbaUVN,2020-0188,2021-10-15,13:41:03,14:53:14,NA,incomplete,false,true,NA,2,4,NA,yellow,m_l_113.jpg,NA,NA,unpleasant,pleasant,NA,NA,NA,NA,NA,left,129.5,true,NA,NA,NA,NA,NA
YvNbaUVN,33tgb4g0msu3alll9rtp1nk6wbyxtf,3f1567xtn0i24t9pg9yi5zjt7jiq9e,YvNbaUVN,2020-0188,2021-10-15,13:41:03,14:53:14,NA,incomplete,false,true,NA,2,5,NA,yellow,m_l_044.jpg,NA,NA,unpleasant,pleasant,NA,NA,NA,NA,NA,right,16.3999999994412,true,NA,NA,NA,NA,NA
YvNbaUVN,33tgb4g0msu3alll9rtp1nk6wbyxtf,3f1567xtn0i24t9pg9yi5zjt7jiq9e,YvNbaUVN,2020-0188,2021-10-15,13:41:03,14:53:14,NA,incomplete,false,true,NA,2,6,NA,purple,n_s_045.jpg,NA,NA,unpleasant,pleasant,NA,NA,NA,NA,NA,left,142.800000000745,true,NA,NA,NA,NA,NA
YvNbaUVN,33tgb4g0msu3alll9rtp1nk6wbyxtf,3f1567xtn0i24t9pg9yi5zjt7jiq9e,YvNbaUVN,2020-0188,2021-10-15,13:41:03,14:53:14,NA,incomplete,false,true,NA,2,7,NA,purple,n_s_099.jpg,NA,NA,unpleasant,pleasant,NA,NA,NA,NA,NA,right,92.2000000001863,true,NA,NA,NA,NA,NA
YvNbaUVN,33tgb4g0msu3alll9rtp1nk6wbyxtf,3f1567xtn0i24t9pg9yi5zjt7jiq9e,YvNbaUVN,2020-0188,2021-10-15,13:41:03,14:53:14,NA,incomplete,false,true,NA,2,8,NA,purple,n_l_084.jpg,NA,NA,unpleasant,pleasant,NA,NA,NA,NA,NA,left,117.5,true,NA,NA,NA,NA,NA
YvNbaUVN,33tgb4g0msu3alll9rtp1nk6wbyxtf,3f1567xtn0i24t9pg9yi5zjt7jiq9e,YvNbaUVN,2020-0188,2021-10-15,13:41:03,14:53:14,NA,incomplete,false,true,NA,2,9,NA,purple,m_s_015.jpg,NA,NA,unpleasant,pleasant,NA,NA,NA,NA,NA,left,154.300000000745,true,NA,NA,NA,NA,NA
YvNbaUVN,33tgb4g0msu3alll9rtp1nk6wbyxtf,3f1567xtn0i24t9pg9yi5zjt7jiq9e,YvNbaUVN,2020-0188,2021-10-15,13:41:03,14:53:14,NA,incomplete,false,true,NA,2,10,NA,purple,m_s_051.jpg,NA,NA,unpleasant,pleasant,NA,NA,NA,NA,NA,left,79.7999999998137,true,NA,NA,NA,NA,NA
YvNbaUVN,33tgb4g0msu3alll9rtp1nk6wbyxtf,3f1567xtn0i24t9pg9yi5zjt7jiq9e,YvNbaUVN,2020-0188,2021-10-15,13:41:03,14:53:14,NA,incomplete,false,true,NA,2,11,NA,purple,n_l_061.jpg,NA,NA,pleasant,unpleasant,NA,NA,NA,NA,NA,left,46.9000000003725,true,NA,NA,NA,NA,NA
YvNbaUVN,33tgb4g0msu3alll9rtp1nk6wbyxtf,3f1567xtn0i24t9pg9yi5zjt7jiq9e,YvNbaUVN,2020-0188,2021-10-15,13:41:03,14:53:14,NA,incomplete,false,true,NA,2,12,NA,green,m_l_066.jpg,NA,NA,unpleasant,pleasant,NA,NA,NA,NA,NA,right,140.099999999627,true,NA,NA,NA,NA,NA
YvNbaUVN,33tgb4g0msu3alll9rtp1nk6wbyxtf,3f1567xtn0i24t9pg9yi5zjt7jiq9e,YvNbaUVN,2020-0188,2021-10-15,13:41:03,14:53:14,NA,incomplete,false,true,NA,2,13,NA,green,n_l_086.jpg,NA,NA,pleasant,unpleasant,NA,NA,NA,NA,NA,right,595.100000000559,true,NA,NA,NA,NA,NA
YvNbaUVN,33tgb4g0msu3alll9rtp1nk6wbyxtf,3f1567xtn0i24t9pg9yi5zjt7jiq9e,YvNbaUVN,2020-0188,2021-10-15,13:41:03,14:53:14,NA,incomplete,false,true,NA,2,14,NA,green,m_s_075.jpg,NA,NA,pleasant,unpleasant,NA,NA,NA,NA,NA,right,632.699999999255,true,NA,NA,NA,NA,NA
YvNbaUVN,33tgb4g0msu3alll9rtp1nk6wbyxtf,3f1567xtn0i24t9pg9yi5zjt7jiq9e,YvNbaUVN,2020-0188,2021-10-15,13:41:03,14:53:14,NA,incomplete,false,true,NA,2,15,NA,green,n_s_035.jpg,NA,NA,pleasant,unpleasant,NA,NA,NA,NA,NA,right,680.100000000559,true,NA,NA,NA,NA,NA
YvNbaUVN,33tgb4g0msu3alll9rtp1nk6wbyxtf,3f1567xtn0i24t9pg9yi5zjt7jiq9e,YvNbaUVN,2020-0188,2021-10-15,13:41:03,14:53:14,NA,incomplete,false,true,NA,2,16,NA,green,n_l_056.jpg,NA,NA,unpleasant,pleasant,NA,NA,NA,NA,NA,left,351.199999999255,true,NA,NA,NA,NA,NA
YvNbaUVN,33tgb4g0msu3alll9rtp1nk6wbyxtf,3f1567xtn0i24t9pg9yi5zjt7jiq9e,YvNbaUVN,2020-0188,2021-10-15,13:41:03,14:53:14,NA,incomplete,false,true,NA,2,17,NA,green,n_s_086.jpg,NA,NA,pleasant,unpleasant,NA,NA,NA,NA,NA,right,437.200000000186,true,NA,NA,NA,NA,NA
YvNbaUVN,33tgb4g0msu3alll9rtp1nk6wbyxtf,3f1567xtn0i24t9pg9yi5zjt7jiq9e,YvNbaUVN,2020-0188,2021-10-15,13:41:03,14:53:14,NA,incomplete,false,true,NA,2,18,NA,red,n_s_022.jpg,NA,NA,unpleasant,pleasant,NA,NA,NA,NA,NA,right,948,true,NA,NA,NA,NA,NA
YvNbaUVN,33tgb4g0msu3alll9rtp1nk6wbyxtf,3f1567xtn0i24t9pg9yi5zjt7jiq9e,YvNbaUVN,2020-0188,2021-10-15,13:41:03,14:53:14,NA,incomplete,false,true,NA,2,19,NA,red,n_l_038.jpg,NA,NA,pleasant,unpleasant,NA,NA,NA,NA,NA,left,873.399999999441,true,NA,NA,NA,NA,NA
YvNbaUVN,33tgb4g0msu3alll9rtp1nk6wbyxtf,3f1567xtn0i24t9pg9yi5zjt7jiq9e,YvNbaUVN,2020-0188,2021-10-15,13:41:03,14:53:14,NA,incomplete,false,true,NA,2,20,NA,red,n_l_062.jpg,NA,NA,pleasant,unpleasant,NA,NA,NA,NA,NA,left,16.4000000003725,true,NA,NA,NA,NA,NA
YvNbaUVN,33tgb4g0msu3alll9rtp1nk6wbyxtf,3f1567xtn0i24t9pg9yi5zjt7jiq9e,YvNbaUVN,2020-0188,2021-10-15,13:41:03,14:53:14,NA,incomplete,false,true,NA,2,21,NA,red,m_s_014.jpg,NA,NA,pleasant,unpleasant,NA,NA,NA,NA,NA,right,183,true,NA,NA,NA,NA,NA
YvNbaUVN,33tgb4g0msu3alll9rtp1nk6wbyxtf,3f1567xtn0i24t9pg9yi5zjt7jiq9e,YvNbaUVN,2020-0188,2021-10-15,13:41:03,14:53:14,NA,incomplete,false,true,NA,2,22,NA,red,m_s_050.jpg,NA,NA,unpleasant,pleasant,NA,NA,NA,NA,NA,left,69.3999999994412,true,NA,NA,NA,NA,NA
YvNbaUVN,33tgb4g0msu3alll9rtp1nk6wbyxtf,3f1567xtn0i24t9pg9yi5zjt7jiq9e,YvNbaUVN,2020-0188,2021-10-15,13:41:03,14:53:14,NA,incomplete,false,true,NA,2,23,NA,red,m_s_054.jpg,NA,NA,pleasant,unpleasant,NA,NA,NA,NA,NA,right,50.7999999998137,true,NA,NA,NA,NA,NA
YvNbaUVN,33tgb4g0msu3alll9rtp1nk6wbyxtf,3f1567xtn0i24t9pg9yi5zjt7jiq9e,YvNbaUVN,2020-0188,2021-10-15,13:41:03,14:53:14,NA,incomplete,false,true,NA,2,24,NA,black,n_s_080.jpg,NA,NA,unpleasant,pleasant,NA,NA,NA,NA,NA,right,201.600000000559,true,NA,NA,NA,NA,NA
YvNbaUVN,33tgb4g0msu3alll9rtp1nk6wbyxtf,3f1567xtn0i24t9pg9yi5zjt7jiq9e,YvNbaUVN,2020-0188,2021-10-15,13:41:03,14:53:14,NA,incomplete,false,true,NA,2,25,NA,black,n_s_047.jpg,NA,NA,unpleasant,pleasant,NA,NA,NA,NA,NA,left,79.4000000003725,true,NA,NA,NA,NA,NA
YvNbaUVN,33tgb4g0msu3alll9rtp1nk6wbyxtf,3f1567xtn0i24t9pg9yi5zjt7jiq9e,YvNbaUVN,2020-0188,2021-10-15,13:41:03,14:53:14,NA,incomplete,false,true,NA,2,26,NA,black,m_s_070.jpg,NA,NA,pleasant,unpleasant,NA,NA,NA,NA,NA,left,30.8000000007451,true,NA,NA,NA,NA,NA
YvNbaUVN,33tgb4g0msu3alll9rtp1nk6wbyxtf,3f1567xtn0i24t9pg9yi5zjt7jiq9e,YvNbaUVN,2020-0188,2021-10-15,13:41:03,14:53:14,NA,incomplete,false,true,NA,2,27,NA,black,m_s_001.jpg,NA,NA,pleasant,unpleasant,NA,NA,NA,NA,NA,right,99.9000000003725,true,NA,NA,NA,NA,NA
YvNbaUVN,33tgb4g0msu3alll9rtp1nk6wbyxtf,3f1567xtn0i24t9pg9yi5zjt7jiq9e,YvNbaUVN,2020-0188,2021-10-15,13:41:03,14:53:14,NA,incomplete,false,true,NA,2,28,NA,black,m_s_066.jpg,NA,NA,unpleasant,pleasant,NA,NA,NA,NA,NA,right,90.2000000001863,true,NA,NA,NA,NA,NA
YvNbaUVN,33tgb4g0msu3alll9rtp1nk6wbyxtf,3f1567xtn0i24t9pg9yi5zjt7jiq9e,YvNbaUVN,2020-0188,2021-10-15,13:41:03,14:53:14,NA,incomplete,false,true,NA,2,29,NA,black,n_s_007.jpg,NA,NA,pleasant,unpleasant,NA,NA,NA,NA,NA,left,176.899999999441,true,NA,NA,NA,NA,NA
YvNbaUVN,33tgb4g0msu3alll9rtp1nk6wbyxtf,3f1567xtn0i24t9pg9yi5zjt7jiq9e,YvNbaUVN,2020-0188,2021-10-15,13:41:03,14:53:14,NA,incomplete,false,true,NA,2,30,NA,white,n_l_055.jpg,NA,NA,unpleasant,pleasant,NA,NA,NA,NA,NA,right,17.5,true,NA,NA,NA,NA,NA
YvNbaUVN,33tgb4g0msu3alll9rtp1nk6wbyxtf,3f1567xtn0i24t9pg9yi5zjt7jiq9e,YvNbaUVN,2020-0188,2021-10-15,13:41:03,14:53:14,NA,incomplete,false,true,NA,2,31,NA,white,n_s_050.jpg,NA,NA,pleasant,unpleasant,NA,NA,NA,NA,NA,left,46,true,NA,NA,NA,NA,NA
YvNbaUVN,33tgb4g0msu3alll9rtp1nk6wbyxtf,3f1567xtn0i24t9pg9yi5zjt7jiq9e,YvNbaUVN,2020-0188,2021-10-15,13:41:03,14:53:14,NA,incomplete,false,true,NA,2,32,NA,white,n_s_005.jpg,NA,NA,unpleasant,pleasant,NA,NA,NA,NA,NA,right,60.7999999998137,true,NA,NA,NA,NA,NA
YvNbaUVN,33tgb4g0msu3alll9rtp1nk6wbyxtf,3f1567xtn0i24t9pg9yi5zjt7jiq9e,YvNbaUVN,2020-0188,2021-10-15,13:41:03,14:53:14,NA,incomplete,false,true,NA,2,33,NA,white,m_l_098.jpg,NA,NA,unpleasant,pleasant,NA,NA,NA,NA,NA,left,187,true,NA,NA,NA,NA,NA
YvNbaUVN,33tgb4g0msu3alll9rtp1nk6wbyxtf,3f1567xtn0i24t9pg9yi5zjt7jiq9e,YvNbaUVN,2020-0188,2021-10-15,13:41:03,14:53:14,NA,incomplete,false,true,NA,2,34,NA,white,n_l_105.jpg,NA,NA,unpleasant,pleasant,NA,NA,NA,NA,NA,right,8.5,true,NA,NA,NA,NA,NA
YvNbaUVN,33tgb4g0msu3alll9rtp1nk6wbyxtf,3f1567xtn0i24t9pg9yi5zjt7jiq9e,YvNbaUVN,2020-0188,2021-10-15,13:41:03,14:53:14,NA,incomplete,false,true,NA,2,35,NA,white,n_l_076.jpg,NA,NA,unpleasant,pleasant,NA,NA,NA,NA,NA,right,39.5,true,NA,NA,NA,NA,NA
YvNbaUVN,33tgb4g0msu3alll9rtp1nk6wbyxtf,3f1567xtn0i24t9pg9yi5zjt7jiq9e,YvNbaUVN,2020-0188,2021-10-15,13:41:03,14:53:14,NA,incomplete,false,NA,true,2,0,NA,NA,NA,left,absent,NA,NA,n_l_056.jpg,green,n_l_062.jpg,red,between,NA,NaN,NA,right,5721.700000001118,0,1,1868.2999999988824
YvNbaUVN,33tgb4g0msu3alll9rtp1nk6wbyxtf,3f1567xtn0i24t9pg9yi5zjt7jiq9e,YvNbaUVN,2020-0188,2021-10-15,13:41:03,14:53:14,NA,incomplete,false,NA,true,2,1,NA,NA,NA,right,absent,NA,NA,n_l_084.jpg,purple,m_l_113.jpg,yellow,between,NA,NaN,NA,left,1293.699999999255,0,3,1067.8999999985099
YvNbaUVN,33tgb4g0msu3alll9rtp1nk6wbyxtf,3f1567xtn0i24t9pg9yi5zjt7jiq9e,YvNbaUVN,2020-0188,2021-10-15,13:41:03,14:53:14,NA,incomplete,false,NA,true,2,2,NA,NA,NA,left,absent,NA,NA,m_s_066.jpg,black,n_s_005.jpg,white,between,NA,NaN,NA,right,2875.300000000745,0,1,1180.300000000745
YvNbaUVN,33tgb4g0msu3alll9rtp1nk6wbyxtf,3f1567xtn0i24t9pg9yi5zjt7jiq9e,YvNbaUVN,2020-0188,2021-10-15,13:41:03,14:53:14,NA,incomplete,false,NA,true,2,3,NA,NA,NA,right,absent,NA,NA,n_s_007.jpg,black,n_s_047.jpg,black,within,NA,NaN,NA,left,1228.5,0,2,1069.2000000011176
YvNbaUVN,33tgb4g0msu3alll9rtp1nk6wbyxtf,3f1567xtn0i24t9pg9yi5zjt7jiq9e,YvNbaUVN,2020-0188,2021-10-15,13:41:03,14:53:14,NA,incomplete,false,NA,true,2,4,NA,NA,NA,right,absent,NA,NA,m_s_075.jpg,green,m_s_051.jpg,purple,between,NA,NaN,NA,right,1164.5,1,2,979.8000000007451
YvNbaUVN,33tgb4g0msu3alll9rtp1nk6wbyxtf,3f1567xtn0i24t9pg9yi5zjt7jiq9e,YvNbaUVN,2020-0188,2021-10-15,13:41:03,14:53:14,NA,incomplete,false,NA,true,2,5,NA,NA,NA,right,absent,NA,NA,n_s_086.jpg,green,n_l_086.jpg,green,within,NA,NaN,NA,right,1845.699999999255,1,1,1036.5
YvNbaUVN,33tgb4g0msu3alll9rtp1nk6wbyxtf,3f1567xtn0i24t9pg9yi5zjt7jiq9e,YvNbaUVN,2020-0188,2021-10-15,13:41:03,14:53:14,NA,incomplete,false,NA,true,2,6,NA,NA,NA,left,absent,NA,NA,n_s_050.jpg,white,n_l_076.jpg,white,within,NA,NaN,NA,left,1772.9000000003725,1,2,2092.0999999996275
YvNbaUVN,33tgb4g0msu3alll9rtp1nk6wbyxtf,3f1567xtn0i24t9pg9yi5zjt7jiq9e,YvNbaUVN,2020-0188,2021-10-15,13:41:03,14:53:14,NA,incomplete,false,NA,true,2,7,NA,NA,NA,left,absent,NA,NA,n_s_099.jpg,purple,n_l_061.jpg,purple,within,NA,NaN,NA,right,869.8000000007451,0,0,1309.5999999996275
YvNbaUVN,33tgb4g0msu3alll9rtp1nk6wbyxtf,3f1567xtn0i24t9pg9yi5zjt7jiq9e,YvNbaUVN,2020-0188,2021-10-15,13:41:03,14:53:14,NA,incomplete,false,NA,true,2,8,NA,NA,NA,right,absent,NA,NA,m_s_054.jpg,red,n_l_038.jpg,red,within,NA,NaN,NA,left,2525.4000000003725,0,3,1005.8000000007451
YvNbaUVN,33tgb4g0msu3alll9rtp1nk6wbyxtf,3f1567xtn0i24t9pg9yi5zjt7jiq9e,YvNbaUVN,2020-0188,2021-10-15,13:41:03,14:53:14,NA,incomplete,false,NA,true,2,9,NA,NA,NA,left,absent,NA,NA,m_s_050.jpg,red,m_s_070.jpg,black,between,NA,NaN,NA,right,1221.5,0,3,957.9000000003725
YvNbaUVN,33tgb4g0msu3alll9rtp1nk6wbyxtf,3f1567xtn0i24t9pg9yi5zjt7jiq9e,YvNbaUVN,2020-0188,2021-10-15,13:41:03,14:53:14,NA,incomplete,false,NA,true,2,10,NA,NA,NA,right,absent,NA,NA,m_l_044.jpg,yellow,m_l_070.jpg,yellow,within,NA,NaN,NA,right,1197.199999999255,1,3,981.2000000011176
YvNbaUVN,33tgb4g0msu3alll9rtp1nk6wbyxtf,3f1567xtn0i24t9pg9yi5zjt7jiq9e,YvNbaUVN,2020-0188,2021-10-15,13:41:03,14:53:14,NA,incomplete,false,true,NA,3,0,NA,red,n_l_071.jpg,NA,NA,pleasant,unpleasant,NA,NA,NA,NA,NA,right,1808.5,true,NA,NA,NA,NA,NA
YvNbaUVN,33tgb4g0msu3alll9rtp1nk6wbyxtf,3f1567xtn0i24t9pg9yi5zjt7jiq9e,YvNbaUVN,2020-0188,2021-10-15,13:41:03,14:53:14,NA,incomplete,false,true,NA,3,1,NA,red,n_l_032.jpg,NA,NA,pleasant,unpleasant,NA,NA,NA,NA,NA,left,287,true,NA,NA,NA,NA,NA
YvNbaUVN,33tgb4g0msu3alll9rtp1nk6wbyxtf,3f1567xtn0i24t9pg9yi5zjt7jiq9e,YvNbaUVN,2020-0188,2021-10-15,13:41:03,14:53:14,NA,incomplete,false,true,NA,3,2,NA,red,n_s_046.jpg,NA,NA,unpleasant,pleasant,NA,NA,NA,NA,NA,right,1139.90000000037,true,NA,NA,NA,NA,NA
YvNbaUVN,33tgb4g0msu3alll9rtp1nk6wbyxtf,3f1567xtn0i24t9pg9yi5zjt7jiq9e,YvNbaUVN,2020-0188,2021-10-15,13:41:03,14:53:14,NA,incomplete,false,true,NA,3,3,NA,red,m_l_100.jpg,NA,NA,unpleasant,pleasant,NA,NA,NA,NA,NA,right,1417.70000000112,true,NA,NA,NA,NA,NA
YvNbaUVN,33tgb4g0msu3alll9rtp1nk6wbyxtf,3f1567xtn0i24t9pg9yi5zjt7jiq9e,YvNbaUVN,2020-0188,2021-10-15,13:41:03,14:53:14,NA,incomplete,false,true,NA,3,4,NA,red,n_l_050.jpg,NA,NA,pleasant,unpleasant,NA,NA,NA,NA,NA,left,328.799999998882,true,NA,NA,NA,NA,NA
YvNbaUVN,33tgb4g0msu3alll9rtp1nk6wbyxtf,3f1567xtn0i24t9pg9yi5zjt7jiq9e,YvNbaUVN,2020-0188,2021-10-15,13:41:03,14:53:14,NA,incomplete,false,true,NA,3,5,NA,red,m_s_069.jpg,NA,NA,unpleasant,pleasant,NA,NA,NA,NA,NA,right,319.799999998882,true,NA,NA,NA,NA,NA
YvNbaUVN,33tgb4g0msu3alll9rtp1nk6wbyxtf,3f1567xtn0i24t9pg9yi5zjt7jiq9e,YvNbaUVN,2020-0188,2021-10-15,13:41:03,14:53:14,NA,incomplete,false,true,NA,3,6,NA,black,n_l_098.jpg,NA,NA,pleasant,unpleasant,NA,NA,NA,NA,NA,left,1153.90000000037,true,NA,NA,NA,NA,NA
YvNbaUVN,33tgb4g0msu3alll9rtp1nk6wbyxtf,3f1567xtn0i24t9pg9yi5zjt7jiq9e,YvNbaUVN,2020-0188,2021-10-15,13:41:03,14:53:14,NA,incomplete,false,true,NA,3,7,NA,black,m_l_055.jpg,NA,NA,unpleasant,pleasant,NA,NA,NA,NA,NA,right,691.299999998882,true,NA,NA,NA,NA,NA
YvNbaUVN,33tgb4g0msu3alll9rtp1nk6wbyxtf,3f1567xtn0i24t9pg9yi5zjt7jiq9e,YvNbaUVN,2020-0188,2021-10-15,13:41:03,14:53:14,NA,incomplete,false,true,NA,3,8,NA,black,n_s_010.jpg,NA,NA,pleasant,unpleasant,NA,NA,NA,NA,NA,left,794.199999999255,true,NA,NA,NA,NA,NA
YvNbaUVN,33tgb4g0msu3alll9rtp1nk6wbyxtf,3f1567xtn0i24t9pg9yi5zjt7jiq9e,YvNbaUVN,2020-0188,2021-10-15,13:41:03,14:53:14,NA,incomplete,false,true,NA,3,9,NA,black,m_l_106.jpg,NA,NA,pleasant,unpleasant,NA,NA,NA,NA,NA,right,383.39999999851,true,NA,NA,NA,NA,NA
YvNbaUVN,33tgb4g0msu3alll9rtp1nk6wbyxtf,3f1567xtn0i24t9pg9yi5zjt7jiq9e,YvNbaUVN,2020-0188,2021-10-15,13:41:03,14:53:14,NA,incomplete,false,true,NA,3,10,NA,black,m_s_043.jpg,NA,NA,pleasant,unpleasant,NA,NA,NA,NA,NA,left,2471,true,NA,NA,NA,NA,NA
YvNbaUVN,33tgb4g0msu3alll9rtp1nk6wbyxtf,3f1567xtn0i24t9pg9yi5zjt7jiq9e,YvNbaUVN,2020-0188,2021-10-15,13:41:03,14:53:14,NA,incomplete,false,true,NA,3,11,NA,black,n_l_048.jpg,NA,NA,pleasant,unpleasant,NA,NA,NA,NA,NA,right,3052.09999999963,true,NA,NA,NA,NA,NA
YvNbaUVN,33tgb4g0msu3alll9rtp1nk6wbyxtf,3f1567xtn0i24t9pg9yi5zjt7jiq9e,YvNbaUVN,2020-0188,2021-10-15,13:41:03,14:53:14,NA,incomplete,false,true,NA,3,12,NA,blue,m_l_084.jpg,NA,NA,unpleasant,pleasant,NA,NA,NA,NA,NA,left,426.599999999627,true,NA,NA,NA,NA,NA
YvNbaUVN,33tgb4g0msu3alll9rtp1nk6wbyxtf,3f1567xtn0i24t9pg9yi5zjt7jiq9e,YvNbaUVN,2020-0188,2021-10-15,13:41:03,14:53:14,NA,incomplete,false,true,NA,3,13,NA,blue,n_s_036.jpg,NA,NA,pleasant,unpleasant,NA,NA,NA,NA,NA,right,144.200000001118,true,NA,NA,NA,NA,NA
YvNbaUVN,33tgb4g0msu3alll9rtp1nk6wbyxtf,3f1567xtn0i24t9pg9yi5zjt7jiq9e,YvNbaUVN,2020-0188,2021-10-15,13:41:03,14:53:14,NA,incomplete,false,true,NA,3,14,NA,blue,n_s_026.jpg,NA,NA,pleasant,unpleasant,NA,NA,NA,NA,NA,left,2343.40000000037,true,NA,NA,NA,NA,NA
YvNbaUVN,33tgb4g0msu3alll9rtp1nk6wbyxtf,3f1567xtn0i24t9pg9yi5zjt7jiq9e,YvNbaUVN,2020-0188,2021-10-15,13:41:03,14:53:14,NA,incomplete,false,true,NA,3,15,NA,blue,m_l_037.jpg,NA,NA,unpleasant,pleasant,NA,NA,NA,NA,NA,left,8.30000000074506,true,NA,NA,NA,NA,NA
YvNbaUVN,33tgb4g0msu3alll9rtp1nk6wbyxtf,3f1567xtn0i24t9pg9yi5zjt7jiq9e,YvNbaUVN,2020-0188,2021-10-15,13:41:03,14:53:14,NA,incomplete,false,true,NA,3,16,NA,blue,n_l_079.jpg,NA,NA,pleasant,unpleasant,NA,NA,NA,NA,NA,right,11.5,true,NA,NA,NA,NA,NA
YvNbaUVN,33tgb4g0msu3alll9rtp1nk6wbyxtf,3f1567xtn0i24t9pg9yi5zjt7jiq9e,YvNbaUVN,2020-0188,2021-10-15,13:41:03,14:53:14,NA,incomplete,false,true,NA,3,17,NA,blue,n_l_042.jpg,NA,NA,unpleasant,pleasant,NA,NA,NA,NA,NA,left,272.700000001118,true,NA,NA,NA,NA,NA
YvNbaUVN,33tgb4g0msu3alll9rtp1nk6wbyxtf,3f1567xtn0i24t9pg9yi5zjt7jiq9e,YvNbaUVN,2020-0188,2021-10-15,13:41:03,14:53:14,NA,incomplete,false,true,NA,3,18,NA,brown,n_l_067.jpg,NA,NA,unpleasant,pleasant,NA,NA,NA,NA,NA,right,167.699999999255,true,NA,NA,NA,NA,NA
YvNbaUVN,33tgb4g0msu3alll9rtp1nk6wbyxtf,3f1567xtn0i24t9pg9yi5zjt7jiq9e,YvNbaUVN,2020-0188,2021-10-15,13:41:03,14:53:14,NA,incomplete,false,true,NA,3,19,NA,brown,m_s_044.jpg,NA,NA,unpleasant,pleasant,NA,NA,NA,NA,NA,left,101.199999999255,true,NA,NA,NA,NA,NA
YvNbaUVN,33tgb4g0msu3alll9rtp1nk6wbyxtf,3f1567xtn0i24t9pg9yi5zjt7jiq9e,YvNbaUVN,2020-0188,2021-10-15,13:41:03,14:53:14,NA,incomplete,false,true,NA,3,20,NA,brown,n_l_093.jpg,NA,NA,unpleasant,pleasant,NA,NA,NA,NA,NA,left,1140.59999999963,true,NA,NA,NA,NA,NA
YvNbaUVN,33tgb4g0msu3alll9rtp1nk6wbyxtf,3f1567xtn0i24t9pg9yi5zjt7jiq9e,YvNbaUVN,2020-0188,2021-10-15,13:41:03,14:53:14,NA,incomplete,false,true,NA,3,21,NA,brown,m_s_026.jpg,NA,NA,pleasant,unpleasant,NA,NA,NA,NA,NA,left,26.5999999996275,true,NA,NA,NA,NA,NA
YvNbaUVN,33tgb4g0msu3alll9rtp1nk6wbyxtf,3f1567xtn0i24t9pg9yi5zjt7jiq9e,YvNbaUVN,2020-0188,2021-10-15,13:41:03,14:53:14,NA,incomplete,false,true,NA,3,22,NA,brown,n_l_089.jpg,NA,NA,unpleasant,pleasant,NA,NA,NA,NA,NA,right,80.6999999992549,true,NA,NA,NA,NA,NA
YvNbaUVN,33tgb4g0msu3alll9rtp1nk6wbyxtf,3f1567xtn0i24t9pg9yi5zjt7jiq9e,YvNbaUVN,2020-0188,2021-10-15,13:41:03,14:53:14,NA,incomplete,false,true,NA,3,23,NA,brown,m_s_046.jpg,NA,NA,pleasant,unpleasant,NA,NA,NA,NA,NA,right,133.800000000745,true,NA,NA,NA,NA,NA
YvNbaUVN,33tgb4g0msu3alll9rtp1nk6wbyxtf,3f1567xtn0i24t9pg9yi5zjt7jiq9e,YvNbaUVN,2020-0188,2021-10-15,13:41:03,14:53:14,NA,incomplete,false,true,NA,3,24,NA,green,m_s_057.jpg,NA,NA,pleasant,unpleasant,NA,NA,NA,NA,NA,left,147.800000000745,true,NA,NA,NA,NA,NA
YvNbaUVN,33tgb4g0msu3alll9rtp1nk6wbyxtf,3f1567xtn0i24t9pg9yi5zjt7jiq9e,YvNbaUVN,2020-0188,2021-10-15,13:41:03,14:53:14,NA,incomplete,false,true,NA,3,25,NA,green,m_s_034.jpg,NA,NA,unpleasant,pleasant,NA,NA,NA,NA,NA,right,162.400000000373,true,NA,NA,NA,NA,NA
YvNbaUVN,33tgb4g0msu3alll9rtp1nk6wbyxtf,3f1567xtn0i24t9pg9yi5zjt7jiq9e,YvNbaUVN,2020-0188,2021-10-15,13:41:03,14:53:14,NA,incomplete,false,true,NA,3,26,NA,green,m_s_073.jpg,NA,NA,pleasant,unpleasant,NA,NA,NA,NA,NA,left,168.799999998882,true,NA,NA,NA,NA,NA
YvNbaUVN,33tgb4g0msu3alll9rtp1nk6wbyxtf,3f1567xtn0i24t9pg9yi5zjt7jiq9e,YvNbaUVN,2020-0188,2021-10-15,13:41:03,14:53:14,NA,incomplete,false,true,NA,3,27,NA,green,n_s_074.jpg,NA,NA,unpleasant,pleasant,NA,NA,NA,NA,NA,right,303.89999999851,true,NA,NA,NA,NA,NA
YvNbaUVN,33tgb4g0msu3alll9rtp1nk6wbyxtf,3f1567xtn0i24t9pg9yi5zjt7jiq9e,YvNbaUVN,2020-0188,2021-10-15,13:41:03,14:53:14,NA,incomplete,false,true,NA,3,28,NA,green,n_l_114.jpg,NA,NA,pleasant,unpleasant,NA,NA,NA,NA,NA,left,317,true,NA,NA,NA,NA,NA
YvNbaUVN,33tgb4g0msu3alll9rtp1nk6wbyxtf,3f1567xtn0i24t9pg9yi5zjt7jiq9e,YvNbaUVN,2020-0188,2021-10-15,13:41:03,14:53:14,NA,incomplete,false,true,NA,3,29,NA,green,n_s_096.jpg,NA,NA,pleasant,unpleasant,NA,NA,NA,NA,NA,right,340,true,NA,NA,NA,NA,NA
YvNbaUVN,33tgb4g0msu3alll9rtp1nk6wbyxtf,3f1567xtn0i24t9pg9yi5zjt7jiq9e,YvNbaUVN,2020-0188,2021-10-15,13:41:03,14:53:14,NA,incomplete,false,true,NA,3,30,NA,white,m_s_036.jpg,NA,NA,pleasant,unpleasant,NA,NA,NA,NA,NA,left,409.200000001118,true,NA,NA,NA,NA,NA
YvNbaUVN,33tgb4g0msu3alll9rtp1nk6wbyxtf,3f1567xtn0i24t9pg9yi5zjt7jiq9e,YvNbaUVN,2020-0188,2021-10-15,13:41:03,14:53:14,NA,incomplete,false,true,NA,3,31,NA,white,n_l_070.jpg,NA,NA,unpleasant,pleasant,NA,NA,NA,NA,NA,right,2264,true,NA,NA,NA,NA,NA
YvNbaUVN,33tgb4g0msu3alll9rtp1nk6wbyxtf,3f1567xtn0i24t9pg9yi5zjt7jiq9e,YvNbaUVN,2020-0188,2021-10-15,13:41:03,14:53:14,NA,incomplete,false,true,NA,3,32,NA,white,m_l_068.jpg,NA,NA,pleasant,unpleasant,NA,NA,NA,NA,NA,right,2528.90000000037,true,NA,NA,NA,NA,NA
YvNbaUVN,33tgb4g0msu3alll9rtp1nk6wbyxtf,3f1567xtn0i24t9pg9yi5zjt7jiq9e,YvNbaUVN,2020-0188,2021-10-15,13:41:03,14:53:14,NA,incomplete,false,true,NA,3,33,NA,white,n_s_114.jpg,NA,NA,unpleasant,pleasant,NA,NA,NA,NA,NA,right,1085.70000000112,true,NA,NA,NA,NA,NA
YvNbaUVN,33tgb4g0msu3alll9rtp1nk6wbyxtf,3f1567xtn0i24t9pg9yi5zjt7jiq9e,YvNbaUVN,2020-0188,2021-10-15,13:41:03,14:53:14,NA,incomplete,false,true,NA,3,34,NA,white,m_s_091.jpg,NA,NA,unpleasant,pleasant,NA,NA,NA,NA,NA,left,545.900000000373,true,NA,NA,NA,NA,NA
YvNbaUVN,33tgb4g0msu3alll9rtp1nk6wbyxtf,3f1567xtn0i24t9pg9yi5zjt7jiq9e,YvNbaUVN,2020-0188,2021-10-15,13:41:03,14:53:14,NA,incomplete,false,true,NA,3,35,NA,white,m_s_097.jpg,NA,NA,pleasant,unpleasant,NA,NA,NA,NA,NA,right,610,true,NA,NA,NA,NA,NA
YvNbaUVN,33tgb4g0msu3alll9rtp1nk6wbyxtf,3f1567xtn0i24t9pg9yi5zjt7jiq9e,YvNbaUVN,2020-0188,2021-10-15,13:41:03,14:53:14,NA,incomplete,false,NA,true,3,0,NA,NA,NA,right,absent,NA,NA,m_s_097.jpg,white,n_l_070.jpg,white,within,NA,NaN,NA,right,2722.5999999996275,1,2,1344.800000000745
YvNbaUVN,33tgb4g0msu3alll9rtp1nk6wbyxtf,3f1567xtn0i24t9pg9yi5zjt7jiq9e,YvNbaUVN,2020-0188,2021-10-15,13:41:03,14:53:14,NA,incomplete,false,NA,true,3,1,NA,NA,NA,right,absent,NA,NA,n_s_096.jpg,green,m_s_034.jpg,green,within,NA,NaN,NA,left,2123.5,0,2,2124.300000000745
YvNbaUVN,33tgb4g0msu3alll9rtp1nk6wbyxtf,3f1567xtn0i24t9pg9yi5zjt7jiq9e,YvNbaUVN,2020-0188,2021-10-15,13:41:03,14:53:14,NA,incomplete,false,NA,true,3,2,NA,NA,NA,left,absent,NA,NA,n_l_050.jpg,red,n_s_010.jpg,black,between,NA,NaN,NA,right,1187.699999999255,0,3,2325.39999999851
YvNbaUVN,33tgb4g0msu3alll9rtp1nk6wbyxtf,3f1567xtn0i24t9pg9yi5zjt7jiq9e,YvNbaUVN,2020-0188,2021-10-15,13:41:03,14:53:14,NA,incomplete,false,NA,true,3,3,NA,NA,NA,right,absent,NA,NA,m_s_069.jpg,red,n_l_032.jpg,red,within,NA,NaN,NA,right,1487,1,1,955
YvNbaUVN,33tgb4g0msu3alll9rtp1nk6wbyxtf,3f1567xtn0i24t9pg9yi5zjt7jiq9e,YvNbaUVN,2020-0188,2021-10-15,13:41:03,14:53:14,NA,incomplete,false,NA,true,3,4,NA,NA,NA,right,absent,NA,NA,n_l_048.jpg,black,m_l_055.jpg,black,within,NA,NaN,NA,left,2828.0999999996275,0,1,1420.4000000003725
YvNbaUVN,33tgb4g0msu3alll9rtp1nk6wbyxtf,3f1567xtn0i24t9pg9yi5zjt7jiq9e,YvNbaUVN,2020-0188,2021-10-15,13:41:03,14:53:14,NA,incomplete,false,NA,true,3,5,NA,NA,NA,left,absent,NA,NA,m_s_044.jpg,brown,m_s_046.jpg,brown,within,NA,NaN,NA,left,1524,1,3,1645.7000000011176
YvNbaUVN,33tgb4g0msu3alll9rtp1nk6wbyxtf,3f1567xtn0i24t9pg9yi5zjt7jiq9e,YvNbaUVN,2020-0188,2021-10-15,13:41:03,14:53:14,NA,incomplete,false,NA,true,3,6,NA,NA,NA,right,absent,NA,NA,n_s_026.jpg,blue,m_s_043.jpg,black,between,NA,NaN,NA,left,2221.5999999996275,0,1,1108.7000000011176
YvNbaUVN,33tgb4g0msu3alll9rtp1nk6wbyxtf,3f1567xtn0i24t9pg9yi5zjt7jiq9e,YvNbaUVN,2020-0188,2021-10-15,13:41:03,14:53:14,NA,incomplete,false,NA,true,3,7,NA,NA,NA,left,absent,NA,NA,n_l_114.jpg,green,m_l_068.jpg,white,between,NA,NaN,NA,right,3141.699999999255,0,3,1933.0999999996275
YvNbaUVN,33tgb4g0msu3alll9rtp1nk6wbyxtf,3f1567xtn0i24t9pg9yi5zjt7jiq9e,YvNbaUVN,2020-0188,2021-10-15,13:41:03,14:53:14,NA,incomplete,false,NA,true,3,8,NA,NA,NA,left,absent,NA,NA,n_l_089.jpg,brown,m_s_073.jpg,green,between,NA,NaN,NA,left,2125.699999999255,1,1,1036.699999999255
YvNbaUVN,33tgb4g0msu3alll9rtp1nk6wbyxtf,3f1567xtn0i24t9pg9yi5zjt7jiq9e,YvNbaUVN,2020-0188,2021-10-15,13:41:03,14:53:14,NA,incomplete,false,NA,true,3,9,NA,NA,NA,left,absent,NA,NA,n_s_036.jpg,blue,n_l_042.jpg,blue,within,NA,NaN,NA,left,1926.2999999988824,1,1,1157
YvNbaUVN,33tgb4g0msu3alll9rtp1nk6wbyxtf,3f1567xtn0i24t9pg9yi5zjt7jiq9e,YvNbaUVN,2020-0188,2021-10-15,13:41:03,14:53:14,NA,incomplete,false,NA,true,3,10,NA,NA,NA,left,absent,NA,NA,n_l_079.jpg,blue,n_l_093.jpg,brown,between,NA,NaN,NA,right,1309.5,0,3,789.2999999988824
YvNbaUVN,33tgb4g0msu3alll9rtp1nk6wbyxtf,3f1567xtn0i24t9pg9yi5zjt7jiq9e,YvNbaUVN,2020-0188,2021-10-15,13:41:03,14:53:14,NA,incomplete,false,true,NA,4,0,NA,green,n_s_015.jpg,NA,NA,pleasant,unpleasant,NA,NA,NA,NA,NA,right,1254.20000000112,true,NA,NA,NA,NA,NA
YvNbaUVN,33tgb4g0msu3alll9rtp1nk6wbyxtf,3f1567xtn0i24t9pg9yi5zjt7jiq9e,YvNbaUVN,2020-0188,2021-10-15,13:41:03,14:53:14,NA,incomplete,false,true,NA,4,1,NA,green,n_l_044.jpg,NA,NA,unpleasant,pleasant,NA,NA,NA,NA,NA,left,439.900000000373,true,NA,NA,NA,NA,NA
YvNbaUVN,33tgb4g0msu3alll9rtp1nk6wbyxtf,3f1567xtn0i24t9pg9yi5zjt7jiq9e,YvNbaUVN,2020-0188,2021-10-15,13:41:03,14:53:14,NA,incomplete,false,true,NA,4,2,NA,green,m_l_083.jpg,NA,NA,pleasant,unpleasant,NA,NA,NA,NA,NA,right,374.900000000373,true,NA,NA,NA,NA,NA
YvNbaUVN,33tgb4g0msu3alll9rtp1nk6wbyxtf,3f1567xtn0i24t9pg9yi5zjt7jiq9e,YvNbaUVN,2020-0188,2021-10-15,13:41:03,14:53:14,NA,incomplete,false,true,NA,4,3,NA,green,n_l_074.jpg,NA,NA,unpleasant,pleasant,NA,NA,NA,NA,NA,left,316.400000000373,true,NA,NA,NA,NA,NA
YvNbaUVN,33tgb4g0msu3alll9rtp1nk6wbyxtf,3f1567xtn0i24t9pg9yi5zjt7jiq9e,YvNbaUVN,2020-0188,2021-10-15,13:41:03,14:53:14,NA,incomplete,false,true,NA,4,4,NA,green,m_s_084.jpg,NA,NA,unpleasant,pleasant,NA,NA,NA,NA,NA,right,323.099999999627,true,NA,NA,NA,NA,NA
YvNbaUVN,33tgb4g0msu3alll9rtp1nk6wbyxtf,3f1567xtn0i24t9pg9yi5zjt7jiq9e,YvNbaUVN,2020-0188,2021-10-15,13:41:03,14:53:14,NA,incomplete,false,true,NA,4,5,NA,green,m_l_019.jpg,NA,NA,unpleasant,pleasant,NA,NA,NA,NA,NA,left,514.800000000745,true,NA,NA,NA,NA,NA
YvNbaUVN,33tgb4g0msu3alll9rtp1nk6wbyxtf,3f1567xtn0i24t9pg9yi5zjt7jiq9e,YvNbaUVN,2020-0188,2021-10-15,13:41:03,14:53:14,NA,incomplete,false,true,NA,4,6,NA,purple,n_s_068.jpg,NA,NA,unpleasant,pleasant,NA,NA,NA,NA,NA,right,943.400000000373,true,NA,NA,NA,NA,NA
YvNbaUVN,33tgb4g0msu3alll9rtp1nk6wbyxtf,3f1567xtn0i24t9pg9yi5zjt7jiq9e,YvNbaUVN,2020-0188,2021-10-15,13:41:03,14:53:14,NA,incomplete,false,true,NA,4,7,NA,purple,m_l_089.jpg,NA,NA,unpleasant,pleasant,NA,NA,NA,NA,NA,right,1061.19999999925,true,NA,NA,NA,NA,NA
YvNbaUVN,33tgb4g0msu3alll9rtp1nk6wbyxtf,3f1567xtn0i24t9pg9yi5zjt7jiq9e,YvNbaUVN,2020-0188,2021-10-15,13:41:03,14:53:14,NA,incomplete,false,true,NA,4,8,NA,purple,n_s_034.jpg,NA,NA,pleasant,unpleasant,NA,NA,NA,NA,NA,left,364.900000000373,true,NA,NA,NA,NA,NA
YvNbaUVN,33tgb4g0msu3alll9rtp1nk6wbyxtf,3f1567xtn0i24t9pg9yi5zjt7jiq9e,YvNbaUVN,2020-0188,2021-10-15,13:41:03,14:53:14,NA,incomplete,false,true,NA,4,9,NA,purple,m_l_030.jpg,NA,NA,pleasant,unpleasant,NA,NA,NA,NA,NA,right,66.0999999996275,true,NA,NA,NA,NA,NA
YvNbaUVN,33tgb4g0msu3alll9rtp1nk6wbyxtf,3f1567xtn0i24t9pg9yi5zjt7jiq9e,YvNbaUVN,2020-0188,2021-10-15,13:41:03,14:53:14,NA,incomplete,false,true,NA,4,10,NA,purple,m_s_077.jpg,NA,NA,pleasant,unpleasant,NA,NA,NA,NA,NA,left,408.599999999627,true,NA,NA,NA,NA,NA
YvNbaUVN,33tgb4g0msu3alll9rtp1nk6wbyxtf,3f1567xtn0i24t9pg9yi5zjt7jiq9e,YvNbaUVN,2020-0188,2021-10-15,13:41:03,14:53:14,NA,incomplete,false,true,NA,4,11,NA,purple,n_s_011.jpg,NA,NA,unpleasant,pleasant,NA,NA,NA,NA,NA,right,879.099999999627,true,NA,NA,NA,NA,NA
YvNbaUVN,33tgb4g0msu3alll9rtp1nk6wbyxtf,3f1567xtn0i24t9pg9yi5zjt7jiq9e,YvNbaUVN,2020-0188,2021-10-15,13:41:03,14:53:14,NA,incomplete,false,true,NA,4,12,NA,red,n_l_066.jpg,NA,NA,unpleasant,pleasant,NA,NA,NA,NA,NA,left,479.60000000149,true,NA,NA,NA,NA,NA
YvNbaUVN,33tgb4g0msu3alll9rtp1nk6wbyxtf,3f1567xtn0i24t9pg9yi5zjt7jiq9e,YvNbaUVN,2020-0188,2021-10-15,13:41:03,14:53:14,NA,incomplete,false,true,NA,4,13,NA,red,m_s_104.jpg,NA,NA,unpleasant,pleasant,NA,NA,NA,NA,NA,right,627.400000000373,true,NA,NA,NA,NA,NA
YvNbaUVN,33tgb4g0msu3alll9rtp1nk6wbyxtf,3f1567xtn0i24t9pg9yi5zjt7jiq9e,YvNbaUVN,2020-0188,2021-10-15,13:41:03,14:53:14,NA,incomplete,false,true,NA,4,14,NA,red,m_l_003.jpg,NA,NA,pleasant,unpleasant,NA,NA,NA,NA,NA,right,377.799999998882,true,NA,NA,NA,NA,NA
YvNbaUVN,33tgb4g0msu3alll9rtp1nk6wbyxtf,3f1567xtn0i24t9pg9yi5zjt7jiq9e,YvNbaUVN,2020-0188,2021-10-15,13:41:03,14:53:14,NA,incomplete,false,true,NA,4,15,NA,red,m_l_080.jpg,NA,NA,pleasant,unpleasant,NA,NA,NA,NA,NA,left,444.900000000373,true,NA,NA,NA,NA,NA
YvNbaUVN,33tgb4g0msu3alll9rtp1nk6wbyxtf,3f1567xtn0i24t9pg9yi5zjt7jiq9e,YvNbaUVN,2020-0188,2021-10-15,13:41:03,14:53:14,NA,incomplete,false,true,NA,4,16,NA,red,n_l_013.jpg,NA,NA,unpleasant,pleasant,NA,NA,NA,NA,NA,right,343.5,true,NA,NA,NA,NA,NA
YvNbaUVN,33tgb4g0msu3alll9rtp1nk6wbyxtf,3f1567xtn0i24t9pg9yi5zjt7jiq9e,YvNbaUVN,2020-0188,2021-10-15,13:41:03,14:53:14,NA,incomplete,false,true,NA,4,17,NA,red,m_s_082.jpg,NA,NA,unpleasant,pleasant,NA,NA,NA,NA,NA,left,387.700000001118,true,NA,NA,NA,NA,NA
YvNbaUVN,33tgb4g0msu3alll9rtp1nk6wbyxtf,3f1567xtn0i24t9pg9yi5zjt7jiq9e,YvNbaUVN,2020-0188,2021-10-15,13:41:03,14:53:14,NA,incomplete,false,true,NA,4,18,NA,brown,n_l_117.jpg,NA,NA,unpleasant,pleasant,NA,NA,NA,NA,NA,right,291.400000000373,true,NA,NA,NA,NA,NA
YvNbaUVN,33tgb4g0msu3alll9rtp1nk6wbyxtf,3f1567xtn0i24t9pg9yi5zjt7jiq9e,YvNbaUVN,2020-0188,2021-10-15,13:41:03,14:53:14,NA,incomplete,false,true,NA,4,19,NA,brown,m_l_065.jpg,NA,NA,pleasant,unpleasant,NA,NA,NA,NA,NA,left,626.200000001118,true,NA,NA,NA,NA,NA
YvNbaUVN,33tgb4g0msu3alll9rtp1nk6wbyxtf,3f1567xtn0i24t9pg9yi5zjt7jiq9e,YvNbaUVN,2020-0188,2021-10-15,13:41:03,14:53:14,NA,incomplete,false,true,NA,4,20,NA,brown,m_s_074.jpg,NA,NA,unpleasant,pleasant,NA,NA,NA,NA,NA,right,583.400000000373,true,NA,NA,NA,NA,NA
YvNbaUVN,33tgb4g0msu3alll9rtp1nk6wbyxtf,3f1567xtn0i24t9pg9yi5zjt7jiq9e,YvNbaUVN,2020-0188,2021-10-15,13:41:03,14:53:14,NA,incomplete,false,true,NA,4,21,NA,brown,m_l_109.jpg,NA,NA,pleasant,unpleasant,NA,NA,NA,NA,NA,left,157.5,true,NA,NA,NA,NA,NA
YvNbaUVN,33tgb4g0msu3alll9rtp1nk6wbyxtf,3f1567xtn0i24t9pg9yi5zjt7jiq9e,YvNbaUVN,2020-0188,2021-10-15,13:41:03,14:53:14,NA,incomplete,false,true,NA,4,22,NA,brown,m_l_077.jpg,NA,NA,unpleasant,pleasant,NA,NA,NA,NA,NA,left,12,true,NA,NA,NA,NA,NA
YvNbaUVN,33tgb4g0msu3alll9rtp1nk6wbyxtf,3f1567xtn0i24t9pg9yi5zjt7jiq9e,YvNbaUVN,2020-0188,2021-10-15,13:41:03,14:53:14,NA,incomplete,false,true,NA,4,23,NA,brown,m_s_016.jpg,NA,NA,unpleasant,pleasant,NA,NA,NA,NA,NA,left,105.099999999627,true,NA,NA,NA,NA,NA
YvNbaUVN,33tgb4g0msu3alll9rtp1nk6wbyxtf,3f1567xtn0i24t9pg9yi5zjt7jiq9e,YvNbaUVN,2020-0188,2021-10-15,13:41:03,14:53:14,NA,incomplete,false,true,NA,4,24,NA,blue,n_s_069.jpg,NA,NA,unpleasant,pleasant,NA,NA,NA,NA,NA,right,32.4000000003725,true,NA,NA,NA,NA,NA
YvNbaUVN,33tgb4g0msu3alll9rtp1nk6wbyxtf,3f1567xtn0i24t9pg9yi5zjt7jiq9e,YvNbaUVN,2020-0188,2021-10-15,13:41:03,14:53:14,NA,incomplete,false,true,NA,4,25,NA,blue,m_s_056.jpg,NA,NA,pleasant,unpleasant,NA,NA,NA,NA,NA,left,125.89999999851,true,NA,NA,NA,NA,NA
YvNbaUVN,33tgb4g0msu3alll9rtp1nk6wbyxtf,3f1567xtn0i24t9pg9yi5zjt7jiq9e,YvNbaUVN,2020-0188,2021-10-15,13:41:03,14:53:14,NA,incomplete,false,true,NA,4,26,NA,blue,n_l_109.jpg,NA,NA,unpleasant,pleasant,NA,NA,NA,NA,NA,left,115.300000000745,true,NA,NA,NA,NA,NA
YvNbaUVN,33tgb4g0msu3alll9rtp1nk6wbyxtf,3f1567xtn0i24t9pg9yi5zjt7jiq9e,YvNbaUVN,2020-0188,2021-10-15,13:41:03,14:53:14,NA,incomplete,false,true,NA,4,27,NA,blue,n_s_091.jpg,NA,NA,unpleasant,pleasant,NA,NA,NA,NA,NA,left,874.39999999851,true,NA,NA,NA,NA,NA
YvNbaUVN,33tgb4g0msu3alll9rtp1nk6wbyxtf,3f1567xtn0i24t9pg9yi5zjt7jiq9e,YvNbaUVN,2020-0188,2021-10-15,13:41:03,14:53:14,NA,incomplete,false,true,NA,4,28,NA,blue,n_s_085.jpg,NA,NA,unpleasant,pleasant,NA,NA,NA,NA,NA,right,168.699999999255,true,NA,NA,NA,NA,NA
YvNbaUVN,33tgb4g0msu3alll9rtp1nk6wbyxtf,3f1567xtn0i24t9pg9yi5zjt7jiq9e,YvNbaUVN,2020-0188,2021-10-15,13:41:03,14:53:14,NA,incomplete,false,true,NA,4,29,NA,blue,n_l_080.jpg,NA,NA,pleasant,unpleasant,NA,NA,NA,NA,NA,left,102.300000000745,true,NA,NA,NA,NA,NA
YvNbaUVN,33tgb4g0msu3alll9rtp1nk6wbyxtf,3f1567xtn0i24t9pg9yi5zjt7jiq9e,YvNbaUVN,2020-0188,2021-10-15,13:41:03,14:53:14,NA,incomplete,false,true,NA,4,30,NA,orange,m_l_102.jpg,NA,NA,unpleasant,pleasant,NA,NA,NA,NA,NA,right,31.6000000014901,true,NA,NA,NA,NA,NA
YvNbaUVN,33tgb4g0msu3alll9rtp1nk6wbyxtf,3f1567xtn0i24t9pg9yi5zjt7jiq9e,YvNbaUVN,2020-0188,2021-10-15,13:41:03,14:53:14,NA,incomplete,false,true,NA,4,31,NA,orange,m_s_007.jpg,NA,NA,pleasant,unpleasant,NA,NA,NA,NA,NA,right,234.599999999627,true,NA,NA,NA,NA,NA
YvNbaUVN,33tgb4g0msu3alll9rtp1nk6wbyxtf,3f1567xtn0i24t9pg9yi5zjt7jiq9e,YvNbaUVN,2020-0188,2021-10-15,13:41:03,14:53:14,NA,incomplete,false,true,NA,4,32,NA,orange,m_l_060.jpg,NA,NA,unpleasant,pleasant,NA,NA,NA,NA,NA,right,224,true,NA,NA,NA,NA,NA
YvNbaUVN,33tgb4g0msu3alll9rtp1nk6wbyxtf,3f1567xtn0i24t9pg9yi5zjt7jiq9e,YvNbaUVN,2020-0188,2021-10-15,13:41:03,14:53:14,NA,incomplete,false,true,NA,4,33,NA,orange,m_l_008.jpg,NA,NA,unpleasant,pleasant,NA,NA,NA,NA,NA,right,67,true,NA,NA,NA,NA,NA
YvNbaUVN,33tgb4g0msu3alll9rtp1nk6wbyxtf,3f1567xtn0i24t9pg9yi5zjt7jiq9e,YvNbaUVN,2020-0188,2021-10-15,13:41:03,14:53:14,NA,incomplete,false,true,NA,4,34,NA,orange,n_s_081.jpg,NA,NA,pleasant,unpleasant,NA,NA,NA,NA,NA,right,48.8000000007451,true,NA,NA,NA,NA,NA
YvNbaUVN,33tgb4g0msu3alll9rtp1nk6wbyxtf,3f1567xtn0i24t9pg9yi5zjt7jiq9e,YvNbaUVN,2020-0188,2021-10-15,13:41:03,14:53:14,NA,incomplete,false,true,NA,4,35,NA,orange,m_l_069.jpg,NA,NA,pleasant,unpleasant,NA,NA,NA,NA,NA,left,182.900000000373,true,NA,NA,NA,NA,NA
YvNbaUVN,33tgb4g0msu3alll9rtp1nk6wbyxtf,3f1567xtn0i24t9pg9yi5zjt7jiq9e,YvNbaUVN,2020-0188,2021-10-15,13:41:03,14:53:14,NA,incomplete,false,NA,true,4,0,NA,NA,NA,right,absent,NA,NA,m_s_016.jpg,brown,m_l_065.jpg,brown,within,NA,NaN,NA,right,1818.699999999255,1,2,1195.5
YvNbaUVN,33tgb4g0msu3alll9rtp1nk6wbyxtf,3f1567xtn0i24t9pg9yi5zjt7jiq9e,YvNbaUVN,2020-0188,2021-10-15,13:41:03,14:53:14,NA,incomplete,false,NA,true,4,1,NA,NA,NA,left,absent,NA,NA,m_s_007.jpg,orange,m_l_069.jpg,orange,within,NA,NaN,NA,right,1354.5999999996275,0,3,1003.0999999996275
YvNbaUVN,33tgb4g0msu3alll9rtp1nk6wbyxtf,3f1567xtn0i24t9pg9yi5zjt7jiq9e,YvNbaUVN,2020-0188,2021-10-15,13:41:03,14:53:14,NA,incomplete,false,NA,true,4,2,NA,NA,NA,right,absent,NA,NA,n_l_080.jpg,blue,m_s_056.jpg,blue,within,NA,NaN,NA,left,2435.199999999255,0,1,1011.0999999996275
YvNbaUVN,33tgb4g0msu3alll9rtp1nk6wbyxtf,3f1567xtn0i24t9pg9yi5zjt7jiq9e,YvNbaUVN,2020-0188,2021-10-15,13:41:03,14:53:14,NA,incomplete,false,NA,true,4,3,NA,NA,NA,left,absent,NA,NA,m_s_077.jpg,purple,m_l_003.jpg,red,between,NA,NaN,NA,right,1747.300000000745,0,3,1161
YvNbaUVN,33tgb4g0msu3alll9rtp1nk6wbyxtf,3f1567xtn0i24t9pg9yi5zjt7jiq9e,YvNbaUVN,2020-0188,2021-10-15,13:41:03,14:53:14,NA,incomplete,false,NA,true,4,4,NA,NA,NA,left,absent,NA,NA,n_l_013.jpg,red,m_s_074.jpg,brown,between,NA,NaN,NA,left,1139,1,2,1077.2000000011176
YvNbaUVN,33tgb4g0msu3alll9rtp1nk6wbyxtf,3f1567xtn0i24t9pg9yi5zjt7jiq9e,YvNbaUVN,2020-0188,2021-10-15,13:41:03,14:53:14,NA,incomplete,false,NA,true,4,5,NA,NA,NA,right,absent,NA,NA,n_s_011.jpg,purple,m_l_089.jpg,purple,within,NA,NaN,NA,left,1421.300000000745,0,3,901.3000000007451
YvNbaUVN,33tgb4g0msu3alll9rtp1nk6wbyxtf,3f1567xtn0i24t9pg9yi5zjt7jiq9e,YvNbaUVN,2020-0188,2021-10-15,13:41:03,14:53:14,NA,incomplete,false,NA,true,4,6,NA,NA,NA,right,absent,NA,NA,m_l_019.jpg,green,n_l_044.jpg,green,within,NA,NaN,NA,right,1342.699999999255,1,1,1229.5
YvNbaUVN,33tgb4g0msu3alll9rtp1nk6wbyxtf,3f1567xtn0i24t9pg9yi5zjt7jiq9e,YvNbaUVN,2020-0188,2021-10-15,13:41:03,14:53:14,NA,incomplete,false,NA,true,4,7,NA,NA,NA,left,absent,NA,NA,m_l_077.jpg,brown,n_l_109.jpg,blue,between,NA,NaN,NA,right,1677.5999999996275,0,1,1077.0999999996275
YvNbaUVN,33tgb4g0msu3alll9rtp1nk6wbyxtf,3f1567xtn0i24t9pg9yi5zjt7jiq9e,YvNbaUVN,2020-0188,2021-10-15,13:41:03,14:53:14,NA,incomplete,false,NA,true,4,8,NA,NA,NA,right,absent,NA,NA,m_l_060.jpg,orange,n_s_085.jpg,blue,between,NA,NaN,NA,right,1781.5,1,3,1357
YvNbaUVN,33tgb4g0msu3alll9rtp1nk6wbyxtf,3f1567xtn0i24t9pg9yi5zjt7jiq9e,YvNbaUVN,2020-0188,2021-10-15,13:41:03,14:53:14,NA,incomplete,false,NA,true,4,9,NA,NA,NA,left,absent,NA,NA,m_s_084.jpg,green,n_s_034.jpg,purple,between,NA,NaN,NA,right,2837.4000000003725,0,1,1053.5
YvNbaUVN,33tgb4g0msu3alll9rtp1nk6wbyxtf,3f1567xtn0i24t9pg9yi5zjt7jiq9e,YvNbaUVN,2020-0188,2021-10-15,13:41:03,14:53:14,NA,incomplete,false,NA,true,4,10,NA,NA,NA,right,absent,NA,NA,m_s_082.jpg,red,m_s_104.jpg,red,within,NA,NaN,NA,left,1507.199999999255,0,2,1285.8999999985099
YvNbaUVN,33tgb4g0msu3alll9rtp1nk6wbyxtf,3f1567xtn0i24t9pg9yi5zjt7jiq9e,YvNbaUVN,2020-0188,2021-10-15,13:41:03,14:53:14,NA,incomplete,false,true,NA,5,0,NA,blue,n_l_111.jpg,NA,NA,unpleasant,pleasant,NA,NA,NA,NA,NA,right,1067.09999999963,true,NA,NA,NA,NA,NA
YvNbaUVN,33tgb4g0msu3alll9rtp1nk6wbyxtf,3f1567xtn0i24t9pg9yi5zjt7jiq9e,YvNbaUVN,2020-0188,2021-10-15,13:41:03,14:53:14,NA,incomplete,false,true,NA,5,1,NA,blue,n_l_022.jpg,NA,NA,pleasant,unpleasant,NA,NA,NA,NA,NA,left,453.799999998882,true,NA,NA,NA,NA,NA
YvNbaUVN,33tgb4g0msu3alll9rtp1nk6wbyxtf,3f1567xtn0i24t9pg9yi5zjt7jiq9e,YvNbaUVN,2020-0188,2021-10-15,13:41:03,14:53:14,NA,incomplete,false,true,NA,5,2,NA,blue,m_l_086.jpg,NA,NA,pleasant,unpleasant,NA,NA,NA,NA,NA,right,1038,true,NA,NA,NA,NA,NA
YvNbaUVN,33tgb4g0msu3alll9rtp1nk6wbyxtf,3f1567xtn0i24t9pg9yi5zjt7jiq9e,YvNbaUVN,2020-0188,2021-10-15,13:41:03,14:53:14,NA,incomplete,false,true,NA,5,3,NA,blue,m_s_041.jpg,NA,NA,unpleasant,pleasant,NA,NA,NA,NA,NA,left,1412.5,true,NA,NA,NA,NA,NA
YvNbaUVN,33tgb4g0msu3alll9rtp1nk6wbyxtf,3f1567xtn0i24t9pg9yi5zjt7jiq9e,YvNbaUVN,2020-0188,2021-10-15,13:41:03,14:53:14,NA,incomplete,false,true,NA,5,4,NA,blue,m_l_028.jpg,NA,NA,unpleasant,pleasant,NA,NA,NA,NA,NA,right,1402.5,true,NA,NA,NA,NA,NA
YvNbaUVN,33tgb4g0msu3alll9rtp1nk6wbyxtf,3f1567xtn0i24t9pg9yi5zjt7jiq9e,YvNbaUVN,2020-0188,2021-10-15,13:41:03,14:53:14,NA,incomplete,false,true,NA,5,5,NA,blue,m_s_047.jpg,NA,NA,pleasant,unpleasant,NA,NA,NA,NA,NA,left,379.599999999627,true,NA,NA,NA,NA,NA
YvNbaUVN,33tgb4g0msu3alll9rtp1nk6wbyxtf,3f1567xtn0i24t9pg9yi5zjt7jiq9e,YvNbaUVN,2020-0188,2021-10-15,13:41:03,14:53:14,NA,incomplete,false,true,NA,5,6,NA,gray,m_l_039.jpg,NA,NA,unpleasant,pleasant,NA,NA,NA,NA,NA,right,359.10000000149,true,NA,NA,NA,NA,NA
YvNbaUVN,33tgb4g0msu3alll9rtp1nk6wbyxtf,3f1567xtn0i24t9pg9yi5zjt7jiq9e,YvNbaUVN,2020-0188,2021-10-15,13:41:03,14:53:14,NA,incomplete,false,true,NA,5,7,NA,gray,m_s_096.jpg,NA,NA,pleasant,unpleasant,NA,NA,NA,NA,NA,left,524.699999999255,true,NA,NA,NA,NA,NA
YvNbaUVN,33tgb4g0msu3alll9rtp1nk6wbyxtf,3f1567xtn0i24t9pg9yi5zjt7jiq9e,YvNbaUVN,2020-0188,2021-10-15,13:41:03,14:53:14,NA,incomplete,false,true,NA,5,8,NA,gray,m_s_086.jpg,NA,NA,unpleasant,pleasant,NA,NA,NA,NA,NA,right,372.099999999627,true,NA,NA,NA,NA,NA
YvNbaUVN,33tgb4g0msu3alll9rtp1nk6wbyxtf,3f1567xtn0i24t9pg9yi5zjt7jiq9e,YvNbaUVN,2020-0188,2021-10-15,13:41:03,14:53:14,NA,incomplete,false,true,NA,5,9,NA,gray,m_s_053.jpg,NA,NA,unpleasant,pleasant,NA,NA,NA,NA,NA,left,745.200000001118,true,NA,NA,NA,NA,NA
YvNbaUVN,33tgb4g0msu3alll9rtp1nk6wbyxtf,3f1567xtn0i24t9pg9yi5zjt7jiq9e,YvNbaUVN,2020-0188,2021-10-15,13:41:03,14:53:14,NA,incomplete,false,true,NA,5,10,NA,gray,n_l_004.jpg,NA,NA,pleasant,unpleasant,NA,NA,NA,NA,NA,right,327.800000000745,true,NA,NA,NA,NA,NA
YvNbaUVN,33tgb4g0msu3alll9rtp1nk6wbyxtf,3f1567xtn0i24t9pg9yi5zjt7jiq9e,YvNbaUVN,2020-0188,2021-10-15,13:41:03,14:53:14,NA,incomplete,false,true,NA,5,11,NA,gray,m_l_094.jpg,NA,NA,unpleasant,pleasant,NA,NA,NA,NA,NA,right,2078.29999999888,true,NA,NA,NA,NA,NA
YvNbaUVN,33tgb4g0msu3alll9rtp1nk6wbyxtf,3f1567xtn0i24t9pg9yi5zjt7jiq9e,YvNbaUVN,2020-0188,2021-10-15,13:41:03,14:53:14,NA,incomplete,false,true,NA,5,12,NA,black,m_l_116.jpg,NA,NA,pleasant,unpleasant,NA,NA,NA,NA,NA,left,386.900000000373,true,NA,NA,NA,NA,NA
YvNbaUVN,33tgb4g0msu3alll9rtp1nk6wbyxtf,3f1567xtn0i24t9pg9yi5zjt7jiq9e,YvNbaUVN,2020-0188,2021-10-15,13:41:03,14:53:14,NA,incomplete,false,true,NA,5,13,NA,black,m_l_051.jpg,NA,NA,unpleasant,pleasant,NA,NA,NA,NA,NA,right,42.4000000003725,true,NA,NA,NA,NA,NA
YvNbaUVN,33tgb4g0msu3alll9rtp1nk6wbyxtf,3f1567xtn0i24t9pg9yi5zjt7jiq9e,YvNbaUVN,2020-0188,2021-10-15,13:41:03,14:53:14,NA,incomplete,false,true,NA,5,14,NA,black,m_s_061.jpg,NA,NA,pleasant,unpleasant,NA,NA,NA,NA,NA,right,672.400000000373,true,NA,NA,NA,NA,NA
YvNbaUVN,33tgb4g0msu3alll9rtp1nk6wbyxtf,3f1567xtn0i24t9pg9yi5zjt7jiq9e,YvNbaUVN,2020-0188,2021-10-15,13:41:03,14:53:14,NA,incomplete,false,true,NA,5,15,NA,black,n_s_019.jpg,NA,NA,pleasant,unpleasant,NA,NA,NA,NA,NA,left,366.599999999627,true,NA,NA,NA,NA,NA
YvNbaUVN,33tgb4g0msu3alll9rtp1nk6wbyxtf,3f1567xtn0i24t9pg9yi5zjt7jiq9e,YvNbaUVN,2020-0188,2021-10-15,13:41:03,14:53:14,NA,incomplete,false,true,NA,5,16,NA,black,m_s_049.jpg,NA,NA,pleasant,unpleasant,NA,NA,NA,NA,NA,right,327.800000000745,true,NA,NA,NA,NA,NA
YvNbaUVN,33tgb4g0msu3alll9rtp1nk6wbyxtf,3f1567xtn0i24t9pg9yi5zjt7jiq9e,YvNbaUVN,2020-0188,2021-10-15,13:41:03,14:53:14,NA,incomplete,false,true,NA,5,17,NA,black,m_s_027.jpg,NA,NA,unpleasant,pleasant,NA,NA,NA,NA,NA,left,511.200000001118,true,NA,NA,NA,NA,NA
YvNbaUVN,33tgb4g0msu3alll9rtp1nk6wbyxtf,3f1567xtn0i24t9pg9yi5zjt7jiq9e,YvNbaUVN,2020-0188,2021-10-15,13:41:03,14:53:14,NA,incomplete,false,true,NA,5,18,NA,purple,n_s_107.jpg,NA,NA,unpleasant,pleasant,NA,NA,NA,NA,NA,right,338.5,true,NA,NA,NA,NA,NA
YvNbaUVN,33tgb4g0msu3alll9rtp1nk6wbyxtf,3f1567xtn0i24t9pg9yi5zjt7jiq9e,YvNbaUVN,2020-0188,2021-10-15,13:41:03,14:53:14,NA,incomplete,false,true,NA,5,19,NA,purple,n_s_038.jpg,NA,NA,unpleasant,pleasant,NA,NA,NA,NA,NA,left,780.5,true,NA,NA,NA,NA,NA
YvNbaUVN,33tgb4g0msu3alll9rtp1nk6wbyxtf,3f1567xtn0i24t9pg9yi5zjt7jiq9e,YvNbaUVN,2020-0188,2021-10-15,13:41:03,14:53:14,NA,incomplete,false,true,NA,5,20,NA,purple,m_s_106.jpg,NA,NA,pleasant,unpleasant,NA,NA,NA,NA,NA,right,92.5999999996275,true,NA,NA,NA,NA,NA
YvNbaUVN,33tgb4g0msu3alll9rtp1nk6wbyxtf,3f1567xtn0i24t9pg9yi5zjt7jiq9e,YvNbaUVN,2020-0188,2021-10-15,13:41:03,14:53:14,NA,incomplete,false,true,NA,5,21,NA,purple,n_l_113.jpg,NA,NA,unpleasant,pleasant,NA,NA,NA,NA,NA,left,627.5,true,NA,NA,NA,NA,NA
YvNbaUVN,33tgb4g0msu3alll9rtp1nk6wbyxtf,3f1567xtn0i24t9pg9yi5zjt7jiq9e,YvNbaUVN,2020-0188,2021-10-15,13:41:03,14:53:14,NA,incomplete,false,true,NA,5,22,NA,purple,m_s_038.jpg,NA,NA,unpleasant,pleasant,NA,NA,NA,NA,NA,right,786,true,NA,NA,NA,NA,NA
YvNbaUVN,33tgb4g0msu3alll9rtp1nk6wbyxtf,3f1567xtn0i24t9pg9yi5zjt7jiq9e,YvNbaUVN,2020-0188,2021-10-15,13:41:03,14:53:14,NA,incomplete,false,true,NA,5,23,NA,purple,n_l_065.jpg,NA,NA,pleasant,unpleasant,NA,NA,NA,NA,NA,right,2151.70000000112,true,NA,NA,NA,NA,NA
YvNbaUVN,33tgb4g0msu3alll9rtp1nk6wbyxtf,3f1567xtn0i24t9pg9yi5zjt7jiq9e,YvNbaUVN,2020-0188,2021-10-15,13:41:03,14:53:14,NA,incomplete,false,true,NA,5,24,NA,brown,m_s_062.jpg,NA,NA,pleasant,unpleasant,NA,NA,NA,NA,NA,right,253.800000000745,true,NA,NA,NA,NA,NA
YvNbaUVN,33tgb4g0msu3alll9rtp1nk6wbyxtf,3f1567xtn0i24t9pg9yi5zjt7jiq9e,YvNbaUVN,2020-0188,2021-10-15,13:41:03,14:53:14,NA,incomplete,false,true,NA,5,25,NA,brown,n_l_085.jpg,NA,NA,unpleasant,pleasant,NA,NA,NA,NA,NA,left,505.300000000745,true,NA,NA,NA,NA,NA
YvNbaUVN,33tgb4g0msu3alll9rtp1nk6wbyxtf,3f1567xtn0i24t9pg9yi5zjt7jiq9e,YvNbaUVN,2020-0188,2021-10-15,13:41:03,14:53:14,NA,incomplete,false,true,NA,5,26,NA,brown,m_l_079.jpg,NA,NA,unpleasant,pleasant,NA,NA,NA,NA,NA,right,602.5,true,NA,NA,NA,NA,NA
YvNbaUVN,33tgb4g0msu3alll9rtp1nk6wbyxtf,3f1567xtn0i24t9pg9yi5zjt7jiq9e,YvNbaUVN,2020-0188,2021-10-15,13:41:03,14:53:14,NA,incomplete,false,true,NA,5,27,NA,brown,n_l_057.jpg,NA,NA,pleasant,unpleasant,NA,NA,NA,NA,NA,left,87.5,true,NA,NA,NA,NA,NA
YvNbaUVN,33tgb4g0msu3alll9rtp1nk6wbyxtf,3f1567xtn0i24t9pg9yi5zjt7jiq9e,YvNbaUVN,2020-0188,2021-10-15,13:41:03,14:53:14,NA,incomplete,false,true,NA,5,28,NA,brown,n_s_006.jpg,NA,NA,unpleasant,pleasant,NA,NA,NA,NA,NA,right,174,true,NA,NA,NA,NA,NA
YvNbaUVN,33tgb4g0msu3alll9rtp1nk6wbyxtf,3f1567xtn0i24t9pg9yi5zjt7jiq9e,YvNbaUVN,2020-0188,2021-10-15,13:41:03,14:53:14,NA,incomplete,false,true,NA,5,29,NA,brown,n_s_013.jpg,NA,NA,unpleasant,pleasant,NA,NA,NA,NA,NA,right,116.39999999851,true,NA,NA,NA,NA,NA
YvNbaUVN,33tgb4g0msu3alll9rtp1nk6wbyxtf,3f1567xtn0i24t9pg9yi5zjt7jiq9e,YvNbaUVN,2020-0188,2021-10-15,13:41:03,14:53:14,NA,incomplete,false,true,NA,5,30,NA,green,n_l_028.jpg,NA,NA,unpleasant,pleasant,NA,NA,NA,NA,NA,right,52.9000000003725,true,NA,NA,NA,NA,NA
YvNbaUVN,33tgb4g0msu3alll9rtp1nk6wbyxtf,3f1567xtn0i24t9pg9yi5zjt7jiq9e,YvNbaUVN,2020-0188,2021-10-15,13:41:03,14:53:14,NA,incomplete,false,true,NA,5,31,NA,green,m_s_035.jpg,NA,NA,pleasant,unpleasant,NA,NA,NA,NA,NA,right,56.6999999992549,true,NA,NA,NA,NA,NA
YvNbaUVN,33tgb4g0msu3alll9rtp1nk6wbyxtf,3f1567xtn0i24t9pg9yi5zjt7jiq9e,YvNbaUVN,2020-0188,2021-10-15,13:41:03,14:53:14,NA,incomplete,false,true,NA,5,32,NA,green,m_l_073.jpg,NA,NA,unpleasant,pleasant,NA,NA,NA,NA,NA,right,23.4000000003725,true,NA,NA,NA,NA,NA
YvNbaUVN,33tgb4g0msu3alll9rtp1nk6wbyxtf,3f1567xtn0i24t9pg9yi5zjt7jiq9e,YvNbaUVN,2020-0188,2021-10-15,13:41:03,14:53:14,NA,incomplete,false,true,NA,5,33,NA,green,m_s_099.jpg,NA,NA,pleasant,unpleasant,NA,NA,NA,NA,NA,left,172.800000000745,true,NA,NA,NA,NA,NA
YvNbaUVN,33tgb4g0msu3alll9rtp1nk6wbyxtf,3f1567xtn0i24t9pg9yi5zjt7jiq9e,YvNbaUVN,2020-0188,2021-10-15,13:41:03,14:53:14,NA,incomplete,false,true,NA,5,34,NA,green,n_l_030.jpg,NA,NA,unpleasant,pleasant,NA,NA,NA,NA,NA,none,0,false,NA,NA,NA,NA,NA
YvNbaUVN,33tgb4g0msu3alll9rtp1nk6wbyxtf,3f1567xtn0i24t9pg9yi5zjt7jiq9e,YvNbaUVN,2020-0188,2021-10-15,13:41:03,14:53:14,NA,incomplete,false,true,NA,5,35,NA,green,n_s_103.jpg,NA,NA,unpleasant,pleasant,NA,NA,NA,NA,NA,right,105.400000000373,true,NA,NA,NA,NA,NA
YvNbaUVN,33tgb4g0msu3alll9rtp1nk6wbyxtf,3f1567xtn0i24t9pg9yi5zjt7jiq9e,YvNbaUVN,2020-0188,2021-10-15,13:41:03,14:53:14,NA,incomplete,false,NA,true,5,0,NA,NA,NA,right,present,NA,NA,m_l_094.jpg,gray,m_s_096.jpg,gray,within,NA,NaN,NA,right,1976.9000000003725,1,1,1761
YvNbaUVN,33tgb4g0msu3alll9rtp1nk6wbyxtf,3f1567xtn0i24t9pg9yi5zjt7jiq9e,YvNbaUVN,2020-0188,2021-10-15,13:41:03,14:53:14,NA,incomplete,false,NA,true,5,1,NA,NA,NA,left,present,NA,NA,n_s_006.jpg,brown,m_l_073.jpg,green,between,NA,NaN,NA,right,1851.300000000745,0,3,1433.5
YvNbaUVN,33tgb4g0msu3alll9rtp1nk6wbyxtf,3f1567xtn0i24t9pg9yi5zjt7jiq9e,YvNbaUVN,2020-0188,2021-10-15,13:41:03,14:53:14,NA,incomplete,false,NA,true,5,2,NA,NA,NA,left,present,NA,NA,n_l_004.jpg,gray,m_s_061.jpg,black,between,NA,NaN,NA,right,9037.699999999255,0,3,1409.7999999988824
YvNbaUVN,33tgb4g0msu3alll9rtp1nk6wbyxtf,3f1567xtn0i24t9pg9yi5zjt7jiq9e,YvNbaUVN,2020-0188,2021-10-15,13:41:03,14:53:14,NA,incomplete,false,NA,true,5,3,NA,NA,NA,right,present,NA,NA,m_s_086.jpg,gray,m_l_028.jpg,blue,between,NA,NaN,NA,left,2494.0999999996275,0,1,1626.5
YvNbaUVN,33tgb4g0msu3alll9rtp1nk6wbyxtf,3f1567xtn0i24t9pg9yi5zjt7jiq9e,YvNbaUVN,2020-0188,2021-10-15,13:41:03,14:53:14,NA,incomplete,false,NA,true,5,4,NA,NA,NA,right,present,NA,NA,m_l_079.jpg,brown,m_s_038.jpg,purple,between,NA,NaN,NA,right,1209.9000000003725,1,3,1058.4000000003725
YvNbaUVN,33tgb4g0msu3alll9rtp1nk6wbyxtf,3f1567xtn0i24t9pg9yi5zjt7jiq9e,YvNbaUVN,2020-0188,2021-10-15,13:41:03,14:53:14,NA,incomplete,false,NA,true,5,5,NA,NA,NA,right,present,NA,NA,m_s_047.jpg,blue,n_l_022.jpg,blue,within,NA,NaN,NA,left,1621.5,0,3,804.6000000014901
YvNbaUVN,33tgb4g0msu3alll9rtp1nk6wbyxtf,3f1567xtn0i24t9pg9yi5zjt7jiq9e,YvNbaUVN,2020-0188,2021-10-15,13:41:03,14:53:14,NA,incomplete,false,NA,true,5,6,NA,NA,NA,right,present,NA,NA,n_s_013.jpg,brown,n_l_085.jpg,brown,within,NA,NaN,NA,left,2709.0999999996275,0,1,795.8000000007451
YvNbaUVN,33tgb4g0msu3alll9rtp1nk6wbyxtf,3f1567xtn0i24t9pg9yi5zjt7jiq9e,YvNbaUVN,2020-0188,2021-10-15,13:41:03,14:53:14,NA,incomplete,false,NA,true,5,7,NA,NA,NA,right,present,NA,NA,m_s_106.jpg,purple,m_s_049.jpg,black,between,NA,NaN,NA,left,1373,0,2,980.8000000007451
YvNbaUVN,33tgb4g0msu3alll9rtp1nk6wbyxtf,3f1567xtn0i24t9pg9yi5zjt7jiq9e,YvNbaUVN,2020-0188,2021-10-15,13:41:03,14:53:14,NA,incomplete,false,NA,true,5,8,NA,NA,NA,left,present,NA,NA,m_s_035.jpg,green,n_s_103.jpg,green,within,NA,NaN,NA,left,1533.5,1,3,964.4000000003725
YvNbaUVN,33tgb4g0msu3alll9rtp1nk6wbyxtf,3f1567xtn0i24t9pg9yi5zjt7jiq9e,YvNbaUVN,2020-0188,2021-10-15,13:41:03,14:53:14,NA,incomplete,false,NA,true,5,9,NA,NA,NA,right,present,NA,NA,n_l_065.jpg,purple,n_s_038.jpg,purple,within,NA,NaN,NA,right,1228.7999999988824,1,2,1300.5999999996275
YvNbaUVN,33tgb4g0msu3alll9rtp1nk6wbyxtf,3f1567xtn0i24t9pg9yi5zjt7jiq9e,YvNbaUVN,2020-0188,2021-10-15,13:41:03,14:53:14,NA,incomplete,false,NA,true,5,10,NA,NA,NA,right,present,NA,NA,m_s_027.jpg,black,m_l_051.jpg,black,within,NA,NaN,NA,left,1612.2999999988824,0,3,1100.7000000011176
YvNbaUVN,33tgb4g0msu3alll9rtp1nk6wbyxtf,3f1567xtn0i24t9pg9yi5zjt7jiq9e,YvNbaUVN,2020-0188,2021-10-15,13:41:03,14:53:14,NA,incomplete,false,true,NA,6,0,NA,gray,n_s_078.jpg,NA,NA,unpleasant,pleasant,NA,NA,NA,NA,NA,right,1775.10000000149,true,NA,NA,NA,NA,NA
YvNbaUVN,33tgb4g0msu3alll9rtp1nk6wbyxtf,3f1567xtn0i24t9pg9yi5zjt7jiq9e,YvNbaUVN,2020-0188,2021-10-15,13:41:03,14:53:14,NA,incomplete,false,true,NA,6,1,NA,gray,m_l_078.jpg,NA,NA,pleasant,unpleasant,NA,NA,NA,NA,NA,right,700.5,true,NA,NA,NA,NA,NA
YvNbaUVN,33tgb4g0msu3alll9rtp1nk6wbyxtf,3f1567xtn0i24t9pg9yi5zjt7jiq9e,YvNbaUVN,2020-0188,2021-10-15,13:41:03,14:53:14,NA,incomplete,false,true,NA,6,2,NA,gray,m_s_032.jpg,NA,NA,unpleasant,pleasant,NA,NA,NA,NA,NA,right,362.60000000149,true,NA,NA,NA,NA,NA
YvNbaUVN,33tgb4g0msu3alll9rtp1nk6wbyxtf,3f1567xtn0i24t9pg9yi5zjt7jiq9e,YvNbaUVN,2020-0188,2021-10-15,13:41:03,14:53:14,NA,incomplete,false,true,NA,6,3,NA,gray,n_l_043.jpg,NA,NA,unpleasant,pleasant,NA,NA,NA,NA,NA,left,321.299999998882,true,NA,NA,NA,NA,NA
YvNbaUVN,33tgb4g0msu3alll9rtp1nk6wbyxtf,3f1567xtn0i24t9pg9yi5zjt7jiq9e,YvNbaUVN,2020-0188,2021-10-15,13:41:03,14:53:14,NA,incomplete,false,true,NA,6,4,NA,gray,m_l_054.jpg,NA,NA,unpleasant,pleasant,NA,NA,NA,NA,NA,right,130.699999999255,true,NA,NA,NA,NA,NA
YvNbaUVN,33tgb4g0msu3alll9rtp1nk6wbyxtf,3f1567xtn0i24t9pg9yi5zjt7jiq9e,YvNbaUVN,2020-0188,2021-10-15,13:41:03,14:53:14,NA,incomplete,false,true,NA,6,5,NA,gray,m_s_042.jpg,NA,NA,unpleasant,pleasant,NA,NA,NA,NA,NA,left,341.400000000373,true,NA,NA,NA,NA,NA
YvNbaUVN,33tgb4g0msu3alll9rtp1nk6wbyxtf,3f1567xtn0i24t9pg9yi5zjt7jiq9e,YvNbaUVN,2020-0188,2021-10-15,13:41:03,14:53:14,NA,incomplete,false,true,NA,6,6,NA,brown,m_s_033.jpg,NA,NA,unpleasant,pleasant,NA,NA,NA,NA,NA,right,404.099999999627,true,NA,NA,NA,NA,NA
YvNbaUVN,33tgb4g0msu3alll9rtp1nk6wbyxtf,3f1567xtn0i24t9pg9yi5zjt7jiq9e,YvNbaUVN,2020-0188,2021-10-15,13:41:03,14:53:14,NA,incomplete,false,true,NA,6,7,NA,brown,n_s_073.jpg,NA,NA,unpleasant,pleasant,NA,NA,NA,NA,NA,left,377.700000001118,true,NA,NA,NA,NA,NA
YvNbaUVN,33tgb4g0msu3alll9rtp1nk6wbyxtf,3f1567xtn0i24t9pg9yi5zjt7jiq9e,YvNbaUVN,2020-0188,2021-10-15,13:41:03,14:53:14,NA,incomplete,false,true,NA,6,8,NA,brown,n_l_072.jpg,NA,NA,unpleasant,pleasant,NA,NA,NA,NA,NA,right,375.300000000745,true,NA,NA,NA,NA,NA
YvNbaUVN,33tgb4g0msu3alll9rtp1nk6wbyxtf,3f1567xtn0i24t9pg9yi5zjt7jiq9e,YvNbaUVN,2020-0188,2021-10-15,13:41:03,14:53:14,NA,incomplete,false,true,NA,6,9,NA,brown,m_l_088.jpg,NA,NA,unpleasant,pleasant,NA,NA,NA,NA,NA,left,1206.69999999925,true,NA,NA,NA,NA,NA
YvNbaUVN,33tgb4g0msu3alll9rtp1nk6wbyxtf,3f1567xtn0i24t9pg9yi5zjt7jiq9e,YvNbaUVN,2020-0188,2021-10-15,13:41:03,14:53:14,NA,incomplete,false,true,NA,6,10,NA,brown,n_s_101.jpg,NA,NA,unpleasant,pleasant,NA,NA,NA,NA,NA,right,467.5,true,NA,NA,NA,NA,NA
YvNbaUVN,33tgb4g0msu3alll9rtp1nk6wbyxtf,3f1567xtn0i24t9pg9yi5zjt7jiq9e,YvNbaUVN,2020-0188,2021-10-15,13:41:03,14:53:14,NA,incomplete,false,true,NA,6,11,NA,brown,m_s_022.jpg,NA,NA,pleasant,unpleasant,NA,NA,NA,NA,NA,left,938.39999999851,true,NA,NA,NA,NA,NA
YvNbaUVN,33tgb4g0msu3alll9rtp1nk6wbyxtf,3f1567xtn0i24t9pg9yi5zjt7jiq9e,YvNbaUVN,2020-0188,2021-10-15,13:41:03,14:53:14,NA,incomplete,false,true,NA,6,12,NA,black,m_s_095.jpg,NA,NA,unpleasant,pleasant,NA,NA,NA,NA,NA,right,352,true,NA,NA,NA,NA,NA
YvNbaUVN,33tgb4g0msu3alll9rtp1nk6wbyxtf,3f1567xtn0i24t9pg9yi5zjt7jiq9e,YvNbaUVN,2020-0188,2021-10-15,13:41:03,14:53:14,NA,incomplete,false,true,NA,6,13,NA,black,m_l_001.jpg,NA,NA,pleasant,unpleasant,NA,NA,NA,NA,NA,left,351.400000000373,true,NA,NA,NA,NA,NA
YvNbaUVN,33tgb4g0msu3alll9rtp1nk6wbyxtf,3f1567xtn0i24t9pg9yi5zjt7jiq9e,YvNbaUVN,2020-0188,2021-10-15,13:41:03,14:53:14,NA,incomplete,false,true,NA,6,14,NA,black,m_s_085.jpg,NA,NA,pleasant,unpleasant,NA,NA,NA,NA,NA,right,365.699999999255,true,NA,NA,NA,NA,NA
YvNbaUVN,33tgb4g0msu3alll9rtp1nk6wbyxtf,3f1567xtn0i24t9pg9yi5zjt7jiq9e,YvNbaUVN,2020-0188,2021-10-15,13:41:03,14:53:14,NA,incomplete,false,true,NA,6,15,NA,black,n_s_052.jpg,NA,NA,unpleasant,pleasant,NA,NA,NA,NA,NA,right,1116.59999999963,true,NA,NA,NA,NA,NA
YvNbaUVN,33tgb4g0msu3alll9rtp1nk6wbyxtf,3f1567xtn0i24t9pg9yi5zjt7jiq9e,YvNbaUVN,2020-0188,2021-10-15,13:41:03,14:53:14,NA,incomplete,false,true,NA,6,16,NA,black,m_s_028.jpg,NA,NA,pleasant,unpleasant,NA,NA,NA,NA,NA,left,474.299999998882,true,NA,NA,NA,NA,NA
YvNbaUVN,33tgb4g0msu3alll9rtp1nk6wbyxtf,3f1567xtn0i24t9pg9yi5zjt7jiq9e,YvNbaUVN,2020-0188,2021-10-15,13:41:03,14:53:14,NA,incomplete,false,true,NA,6,17,NA,black,m_l_012.jpg,NA,NA,unpleasant,pleasant,NA,NA,NA,NA,NA,right,112.199999999255,true,NA,NA,NA,NA,NA
YvNbaUVN,33tgb4g0msu3alll9rtp1nk6wbyxtf,3f1567xtn0i24t9pg9yi5zjt7jiq9e,YvNbaUVN,2020-0188,2021-10-15,13:41:03,14:53:14,NA,incomplete,false,true,NA,6,18,NA,yellow,m_l_015.jpg,NA,NA,unpleasant,pleasant,NA,NA,NA,NA,NA,left,110,true,NA,NA,NA,NA,NA
YvNbaUVN,33tgb4g0msu3alll9rtp1nk6wbyxtf,3f1567xtn0i24t9pg9yi5zjt7jiq9e,YvNbaUVN,2020-0188,2021-10-15,13:41:03,14:53:14,NA,incomplete,false,true,NA,6,19,NA,yellow,m_s_076.jpg,NA,NA,unpleasant,pleasant,NA,NA,NA,NA,NA,left,460.599999999627,true,NA,NA,NA,NA,NA
YvNbaUVN,33tgb4g0msu3alll9rtp1nk6wbyxtf,3f1567xtn0i24t9pg9yi5zjt7jiq9e,YvNbaUVN,2020-0188,2021-10-15,13:41:03,14:53:14,NA,incomplete,false,true,NA,6,20,NA,yellow,n_l_034.jpg,NA,NA,unpleasant,pleasant,NA,NA,NA,NA,NA,right,146.5,true,NA,NA,NA,NA,NA
YvNbaUVN,33tgb4g0msu3alll9rtp1nk6wbyxtf,3f1567xtn0i24t9pg9yi5zjt7jiq9e,YvNbaUVN,2020-0188,2021-10-15,13:41:03,14:53:14,NA,incomplete,false,true,NA,6,21,NA,yellow,m_l_085.jpg,NA,NA,pleasant,unpleasant,NA,NA,NA,NA,NA,right,238.599999999627,true,NA,NA,NA,NA,NA
YvNbaUVN,33tgb4g0msu3alll9rtp1nk6wbyxtf,3f1567xtn0i24t9pg9yi5zjt7jiq9e,YvNbaUVN,2020-0188,2021-10-15,13:41:03,14:53:14,NA,incomplete,false,true,NA,6,22,NA,yellow,m_s_029.jpg,NA,NA,pleasant,unpleasant,NA,NA,NA,NA,NA,right,312.099999999627,true,NA,NA,NA,NA,NA
YvNbaUVN,33tgb4g0msu3alll9rtp1nk6wbyxtf,3f1567xtn0i24t9pg9yi5zjt7jiq9e,YvNbaUVN,2020-0188,2021-10-15,13:41:03,14:53:14,NA,incomplete,false,true,NA,6,23,NA,yellow,n_l_104.jpg,NA,NA,unpleasant,pleasant,NA,NA,NA,NA,NA,left,389.5,true,NA,NA,NA,NA,NA
YvNbaUVN,33tgb4g0msu3alll9rtp1nk6wbyxtf,3f1567xtn0i24t9pg9yi5zjt7jiq9e,YvNbaUVN,2020-0188,2021-10-15,13:41:03,14:53:14,NA,incomplete,false,true,NA,6,24,NA,blue,n_l_112.jpg,NA,NA,pleasant,unpleasant,NA,NA,NA,NA,NA,right,75.1999999992549,true,NA,NA,NA,NA,NA
YvNbaUVN,33tgb4g0msu3alll9rtp1nk6wbyxtf,3f1567xtn0i24t9pg9yi5zjt7jiq9e,YvNbaUVN,2020-0188,2021-10-15,13:41:03,14:53:14,NA,incomplete,false,true,NA,6,25,NA,blue,n_s_064.jpg,NA,NA,unpleasant,pleasant,NA,NA,NA,NA,NA,left,217.900000000373,true,NA,NA,NA,NA,NA
YvNbaUVN,33tgb4g0msu3alll9rtp1nk6wbyxtf,3f1567xtn0i24t9pg9yi5zjt7jiq9e,YvNbaUVN,2020-0188,2021-10-15,13:41:03,14:53:14,NA,incomplete,false,true,NA,6,26,NA,blue,n_s_095.jpg,NA,NA,unpleasant,pleasant,NA,NA,NA,NA,NA,right,768.60000000149,true,NA,NA,NA,NA,NA
YvNbaUVN,33tgb4g0msu3alll9rtp1nk6wbyxtf,3f1567xtn0i24t9pg9yi5zjt7jiq9e,YvNbaUVN,2020-0188,2021-10-15,13:41:03,14:53:14,NA,incomplete,false,true,NA,6,27,NA,blue,n_l_115.jpg,NA,NA,unpleasant,pleasant,NA,NA,NA,NA,NA,right,870.5,true,NA,NA,NA,NA,NA
YvNbaUVN,33tgb4g0msu3alll9rtp1nk6wbyxtf,3f1567xtn0i24t9pg9yi5zjt7jiq9e,YvNbaUVN,2020-0188,2021-10-15,13:41:03,14:53:14,NA,incomplete,false,true,NA,6,28,NA,blue,m_s_098.jpg,NA,NA,pleasant,unpleasant,NA,NA,NA,NA,NA,right,629.099999999627,true,NA,NA,NA,NA,NA
YvNbaUVN,33tgb4g0msu3alll9rtp1nk6wbyxtf,3f1567xtn0i24t9pg9yi5zjt7jiq9e,YvNbaUVN,2020-0188,2021-10-15,13:41:03,14:53:14,NA,incomplete,false,true,NA,6,29,NA,blue,n_s_113.jpg,NA,NA,unpleasant,pleasant,NA,NA,NA,NA,NA,left,32.1999999992549,true,NA,NA,NA,NA,NA
YvNbaUVN,33tgb4g0msu3alll9rtp1nk6wbyxtf,3f1567xtn0i24t9pg9yi5zjt7jiq9e,YvNbaUVN,2020-0188,2021-10-15,13:41:03,14:53:14,NA,incomplete,false,true,NA,6,30,NA,red,n_l_095.jpg,NA,NA,unpleasant,pleasant,NA,NA,NA,NA,NA,right,265.599999999627,true,NA,NA,NA,NA,NA
YvNbaUVN,33tgb4g0msu3alll9rtp1nk6wbyxtf,3f1567xtn0i24t9pg9yi5zjt7jiq9e,YvNbaUVN,2020-0188,2021-10-15,13:41:03,14:53:14,NA,incomplete,false,true,NA,6,31,NA,red,n_s_105.jpg,NA,NA,pleasant,unpleasant,NA,NA,NA,NA,NA,left,384.5,true,NA,NA,NA,NA,NA
YvNbaUVN,33tgb4g0msu3alll9rtp1nk6wbyxtf,3f1567xtn0i24t9pg9yi5zjt7jiq9e,YvNbaUVN,2020-0188,2021-10-15,13:41:03,14:53:14,NA,incomplete,false,true,NA,6,32,NA,red,n_s_025.jpg,NA,NA,pleasant,unpleasant,NA,NA,NA,NA,NA,right,338.599999999627,true,NA,NA,NA,NA,NA
YvNbaUVN,33tgb4g0msu3alll9rtp1nk6wbyxtf,3f1567xtn0i24t9pg9yi5zjt7jiq9e,YvNbaUVN,2020-0188,2021-10-15,13:41:03,14:53:14,NA,incomplete,false,true,NA,6,33,NA,red,m_l_027.jpg,NA,NA,unpleasant,pleasant,NA,NA,NA,NA,NA,left,1116.30000000075,true,NA,NA,NA,NA,NA
YvNbaUVN,33tgb4g0msu3alll9rtp1nk6wbyxtf,3f1567xtn0i24t9pg9yi5zjt7jiq9e,YvNbaUVN,2020-0188,2021-10-15,13:41:03,14:53:14,NA,incomplete,false,true,NA,6,34,NA,red,n_s_059.jpg,NA,NA,pleasant,unpleasant,NA,NA,NA,NA,NA,right,329.5,true,NA,NA,NA,NA,NA
YvNbaUVN,33tgb4g0msu3alll9rtp1nk6wbyxtf,3f1567xtn0i24t9pg9yi5zjt7jiq9e,YvNbaUVN,2020-0188,2021-10-15,13:41:03,14:53:14,NA,incomplete,false,true,NA,6,35,NA,red,m_l_072.jpg,NA,NA,unpleasant,pleasant,NA,NA,NA,NA,NA,right,696.300000000745,true,NA,NA,NA,NA,NA
YvNbaUVN,33tgb4g0msu3alll9rtp1nk6wbyxtf,3f1567xtn0i24t9pg9yi5zjt7jiq9e,YvNbaUVN,2020-0188,2021-10-15,13:41:03,14:53:14,NA,incomplete,false,NA,true,6,0,NA,NA,NA,left,absent,NA,NA,m_l_078.jpg,gray,m_s_042.jpg,gray,within,NA,NaN,NA,left,2113.2000000011176,1,3,1546.5999999996275
YvNbaUVN,33tgb4g0msu3alll9rtp1nk6wbyxtf,3f1567xtn0i24t9pg9yi5zjt7jiq9e,YvNbaUVN,2020-0188,2021-10-15,13:41:03,14:53:14,NA,incomplete,false,NA,true,6,1,NA,NA,NA,left,absent,NA,NA,n_s_105.jpg,red,m_l_072.jpg,red,within,NA,NaN,NA,right,1514.4000000003725,0,1,1217.800000000745
YvNbaUVN,33tgb4g0msu3alll9rtp1nk6wbyxtf,3f1567xtn0i24t9pg9yi5zjt7jiq9e,YvNbaUVN,2020-0188,2021-10-15,13:41:03,14:53:14,NA,incomplete,false,NA,true,6,2,NA,NA,NA,right,absent,NA,NA,n_s_025.jpg,red,m_s_098.jpg,blue,between,NA,NaN,NA,right,2531.199999999255,1,2,866
YvNbaUVN,33tgb4g0msu3alll9rtp1nk6wbyxtf,3f1567xtn0i24t9pg9yi5zjt7jiq9e,YvNbaUVN,2020-0188,2021-10-15,13:41:03,14:53:14,NA,incomplete,false,NA,true,6,3,NA,NA,NA,right,absent,NA,NA,m_s_022.jpg,brown,n_s_073.jpg,brown,within,NA,NaN,NA,left,1387.5,0,1,2269.0999999996275
YvNbaUVN,33tgb4g0msu3alll9rtp1nk6wbyxtf,3f1567xtn0i24t9pg9yi5zjt7jiq9e,YvNbaUVN,2020-0188,2021-10-15,13:41:03,14:53:14,NA,incomplete,false,NA,true,6,4,NA,NA,NA,right,absent,NA,NA,n_l_104.jpg,yellow,m_s_076.jpg,yellow,within,NA,NaN,NA,right,1869.5999999996275,1,3,1085.5
YvNbaUVN,33tgb4g0msu3alll9rtp1nk6wbyxtf,3f1567xtn0i24t9pg9yi5zjt7jiq9e,YvNbaUVN,2020-0188,2021-10-15,13:41:03,14:53:14,NA,incomplete,false,NA,true,6,5,NA,NA,NA,right,absent,NA,NA,n_s_113.jpg,blue,n_s_064.jpg,blue,within,NA,NaN,NA,left,1781.5,0,0,925.4000000003725
YvNbaUVN,33tgb4g0msu3alll9rtp1nk6wbyxtf,3f1567xtn0i24t9pg9yi5zjt7jiq9e,YvNbaUVN,2020-0188,2021-10-15,13:41:03,14:53:14,NA,incomplete,false,NA,true,6,6,NA,NA,NA,right,absent,NA,NA,n_l_072.jpg,brown,m_l_054.jpg,gray,between,NA,NaN,NA,left,2505.5,0,1,1276.6000000014901
YvNbaUVN,33tgb4g0msu3alll9rtp1nk6wbyxtf,3f1567xtn0i24t9pg9yi5zjt7jiq9e,YvNbaUVN,2020-0188,2021-10-15,13:41:03,14:53:14,NA,incomplete,false,NA,true,6,7,NA,NA,NA,right,absent,NA,NA,m_s_085.jpg,black,n_s_101.jpg,brown,between,NA,NaN,NA,left,1765.0999999996275,0,3,1021.1000000014901
YvNbaUVN,33tgb4g0msu3alll9rtp1nk6wbyxtf,3f1567xtn0i24t9pg9yi5zjt7jiq9e,YvNbaUVN,2020-0188,2021-10-15,13:41:03,14:53:14,NA,incomplete,false,NA,true,6,8,NA,NA,NA,left,absent,NA,NA,m_s_028.jpg,black,n_l_034.jpg,yellow,between,NA,NaN,NA,left,1197.199999999255,1,1,1181.3999999985099
YvNbaUVN,33tgb4g0msu3alll9rtp1nk6wbyxtf,3f1567xtn0i24t9pg9yi5zjt7jiq9e,YvNbaUVN,2020-0188,2021-10-15,13:41:03,14:53:14,NA,incomplete,false,NA,true,6,9,NA,NA,NA,right,absent,NA,NA,n_s_095.jpg,blue,m_s_029.jpg,yellow,between,NA,NaN,NA,left,1901.2999999988824,0,3,932.9000000003725
YvNbaUVN,33tgb4g0msu3alll9rtp1nk6wbyxtf,3f1567xtn0i24t9pg9yi5zjt7jiq9e,YvNbaUVN,2020-0188,2021-10-15,13:41:03,14:53:14,NA,incomplete,false,NA,true,6,10,NA,NA,NA,left,absent,NA,NA,m_l_001.jpg,black,m_l_012.jpg,black,within,NA,NaN,NA,left,1301.7000000011176,1,1,3268.699999999255
YvNbaUVN,33tgb4g0msu3alll9rtp1nk6wbyxtf,3f1567xtn0i24t9pg9yi5zjt7jiq9e,YvNbaUVN,2020-0188,2021-10-15,13:41:03,14:53:14,NA,incomplete,false,true,NA,7,0,NA,blue,m_l_048.jpg,NA,NA,unpleasant,pleasant,NA,NA,NA,NA,NA,right,1338.40000000037,true,NA,NA,NA,NA,NA
YvNbaUVN,33tgb4g0msu3alll9rtp1nk6wbyxtf,3f1567xtn0i24t9pg9yi5zjt7jiq9e,YvNbaUVN,2020-0188,2021-10-15,13:41:03,14:53:14,NA,incomplete,false,true,NA,7,1,NA,blue,n_l_094.jpg,NA,NA,pleasant,unpleasant,NA,NA,NA,NA,NA,left,147.800000000745,true,NA,NA,NA,NA,NA
YvNbaUVN,33tgb4g0msu3alll9rtp1nk6wbyxtf,3f1567xtn0i24t9pg9yi5zjt7jiq9e,YvNbaUVN,2020-0188,2021-10-15,13:41:03,14:53:14,NA,incomplete,false,true,NA,7,2,NA,blue,n_s_061.jpg,NA,NA,pleasant,unpleasant,NA,NA,NA,NA,NA,left,307.39999999851,true,NA,NA,NA,NA,NA
YvNbaUVN,33tgb4g0msu3alll9rtp1nk6wbyxtf,3f1567xtn0i24t9pg9yi5zjt7jiq9e,YvNbaUVN,2020-0188,2021-10-15,13:41:03,14:53:14,NA,incomplete,false,true,NA,7,3,NA,blue,m_l_004.jpg,NA,NA,pleasant,unpleasant,NA,NA,NA,NA,NA,right,321.199999999255,true,NA,NA,NA,NA,NA
YvNbaUVN,33tgb4g0msu3alll9rtp1nk6wbyxtf,3f1567xtn0i24t9pg9yi5zjt7jiq9e,YvNbaUVN,2020-0188,2021-10-15,13:41:03,14:53:14,NA,incomplete,false,true,NA,7,4,NA,blue,m_s_008.jpg,NA,NA,unpleasant,pleasant,NA,NA,NA,NA,NA,left,352.400000000373,true,NA,NA,NA,NA,NA
YvNbaUVN,33tgb4g0msu3alll9rtp1nk6wbyxtf,3f1567xtn0i24t9pg9yi5zjt7jiq9e,YvNbaUVN,2020-0188,2021-10-15,13:41:03,14:53:14,NA,incomplete,false,true,NA,7,5,NA,blue,n_l_116.jpg,NA,NA,pleasant,unpleasant,NA,NA,NA,NA,NA,right,357.60000000149,true,NA,NA,NA,NA,NA
YvNbaUVN,33tgb4g0msu3alll9rtp1nk6wbyxtf,3f1567xtn0i24t9pg9yi5zjt7jiq9e,YvNbaUVN,2020-0188,2021-10-15,13:41:03,14:53:14,NA,incomplete,false,true,NA,7,6,NA,brown,n_s_031.jpg,NA,NA,unpleasant,pleasant,NA,NA,NA,NA,NA,left,465.5,true,NA,NA,NA,NA,NA
YvNbaUVN,33tgb4g0msu3alll9rtp1nk6wbyxtf,3f1567xtn0i24t9pg9yi5zjt7jiq9e,YvNbaUVN,2020-0188,2021-10-15,13:41:03,14:53:14,NA,incomplete,false,true,NA,7,7,NA,brown,m_s_052.jpg,NA,NA,pleasant,unpleasant,NA,NA,NA,NA,NA,left,392.599999999627,true,NA,NA,NA,NA,NA
YvNbaUVN,33tgb4g0msu3alll9rtp1nk6wbyxtf,3f1567xtn0i24t9pg9yi5zjt7jiq9e,YvNbaUVN,2020-0188,2021-10-15,13:41:03,14:53:14,NA,incomplete,false,true,NA,7,8,NA,brown,n_s_090.jpg,NA,NA,pleasant,unpleasant,NA,NA,NA,NA,NA,right,342.5,true,NA,NA,NA,NA,NA
YvNbaUVN,33tgb4g0msu3alll9rtp1nk6wbyxtf,3f1567xtn0i24t9pg9yi5zjt7jiq9e,YvNbaUVN,2020-0188,2021-10-15,13:41:03,14:53:14,NA,incomplete,false,true,NA,7,9,NA,brown,m_l_018.jpg,NA,NA,unpleasant,pleasant,NA,NA,NA,NA,NA,left,417.900000000373,true,NA,NA,NA,NA,NA
YvNbaUVN,33tgb4g0msu3alll9rtp1nk6wbyxtf,3f1567xtn0i24t9pg9yi5zjt7jiq9e,YvNbaUVN,2020-0188,2021-10-15,13:41:03,14:53:14,NA,incomplete,false,true,NA,7,10,NA,brown,n_l_027.jpg,NA,NA,unpleasant,pleasant,NA,NA,NA,NA,NA,right,39.0999999996275,true,NA,NA,NA,NA,NA
YvNbaUVN,33tgb4g0msu3alll9rtp1nk6wbyxtf,3f1567xtn0i24t9pg9yi5zjt7jiq9e,YvNbaUVN,2020-0188,2021-10-15,13:41:03,14:53:14,NA,incomplete,false,true,NA,7,11,NA,brown,n_l_064.jpg,NA,NA,unpleasant,pleasant,NA,NA,NA,NA,NA,left,290.599999999627,true,NA,NA,NA,NA,NA
YvNbaUVN,33tgb4g0msu3alll9rtp1nk6wbyxtf,3f1567xtn0i24t9pg9yi5zjt7jiq9e,YvNbaUVN,2020-0188,2021-10-15,13:41:03,14:53:14,NA,incomplete,false,true,NA,7,12,NA,red,m_l_020.jpg,NA,NA,pleasant,unpleasant,NA,NA,NA,NA,NA,right,370.800000000745,true,NA,NA,NA,NA,NA
YvNbaUVN,33tgb4g0msu3alll9rtp1nk6wbyxtf,3f1567xtn0i24t9pg9yi5zjt7jiq9e,YvNbaUVN,2020-0188,2021-10-15,13:41:03,14:53:14,NA,incomplete,false,true,NA,7,13,NA,red,m_l_032.jpg,NA,NA,pleasant,unpleasant,NA,NA,NA,NA,NA,left,470.900000000373,true,NA,NA,NA,NA,NA
YvNbaUVN,33tgb4g0msu3alll9rtp1nk6wbyxtf,3f1567xtn0i24t9pg9yi5zjt7jiq9e,YvNbaUVN,2020-0188,2021-10-15,13:41:03,14:53:14,NA,incomplete,false,true,NA,7,14,NA,red,n_l_021.jpg,NA,NA,pleasant,unpleasant,NA,NA,NA,NA,NA,right,342.099999999627,true,NA,NA,NA,NA,NA
YvNbaUVN,33tgb4g0msu3alll9rtp1nk6wbyxtf,3f1567xtn0i24t9pg9yi5zjt7jiq9e,YvNbaUVN,2020-0188,2021-10-15,13:41:03,14:53:14,NA,incomplete,false,true,NA,7,15,NA,red,m_l_082.jpg,NA,NA,pleasant,unpleasant,NA,NA,NA,NA,NA,left,357.200000001118,true,NA,NA,NA,NA,NA
YvNbaUVN,33tgb4g0msu3alll9rtp1nk6wbyxtf,3f1567xtn0i24t9pg9yi5zjt7jiq9e,YvNbaUVN,2020-0188,2021-10-15,13:41:03,14:53:14,NA,incomplete,false,true,NA,7,16,NA,red,n_l_039.jpg,NA,NA,pleasant,unpleasant,NA,NA,NA,NA,NA,right,370.099999999627,true,NA,NA,NA,NA,NA
YvNbaUVN,33tgb4g0msu3alll9rtp1nk6wbyxtf,3f1567xtn0i24t9pg9yi5zjt7jiq9e,YvNbaUVN,2020-0188,2021-10-15,13:41:03,14:53:14,NA,incomplete,false,true,NA,7,17,NA,red,m_s_024.jpg,NA,NA,pleasant,unpleasant,NA,NA,NA,NA,NA,left,103.800000000745,true,NA,NA,NA,NA,NA
YvNbaUVN,33tgb4g0msu3alll9rtp1nk6wbyxtf,3f1567xtn0i24t9pg9yi5zjt7jiq9e,YvNbaUVN,2020-0188,2021-10-15,13:41:03,14:53:14,NA,incomplete,false,true,NA,7,18,NA,black,m_s_030.jpg,NA,NA,pleasant,unpleasant,NA,NA,NA,NA,NA,right,214.60000000149,true,NA,NA,NA,NA,NA
YvNbaUVN,33tgb4g0msu3alll9rtp1nk6wbyxtf,3f1567xtn0i24t9pg9yi5zjt7jiq9e,YvNbaUVN,2020-0188,2021-10-15,13:41:03,14:53:14,NA,incomplete,false,true,NA,7,19,NA,black,m_l_090.jpg,NA,NA,pleasant,unpleasant,NA,NA,NA,NA,NA,left,356.099999999627,true,NA,NA,NA,NA,NA
YvNbaUVN,33tgb4g0msu3alll9rtp1nk6wbyxtf,3f1567xtn0i24t9pg9yi5zjt7jiq9e,YvNbaUVN,2020-0188,2021-10-15,13:41:03,14:53:14,NA,incomplete,false,true,NA,7,20,NA,black,n_l_037.jpg,NA,NA,pleasant,unpleasant,NA,NA,NA,NA,NA,right,98.9000000003725,true,NA,NA,NA,NA,NA
YvNbaUVN,33tgb4g0msu3alll9rtp1nk6wbyxtf,3f1567xtn0i24t9pg9yi5zjt7jiq9e,YvNbaUVN,2020-0188,2021-10-15,13:41:03,14:53:14,NA,incomplete,false,true,NA,7,21,NA,black,m_l_006.jpg,NA,NA,pleasant,unpleasant,NA,NA,NA,NA,NA,left,56.6999999992549,true,NA,NA,NA,NA,NA
YvNbaUVN,33tgb4g0msu3alll9rtp1nk6wbyxtf,3f1567xtn0i24t9pg9yi5zjt7jiq9e,YvNbaUVN,2020-0188,2021-10-15,13:41:03,14:53:14,NA,incomplete,false,true,NA,7,22,NA,black,n_l_007.jpg,NA,NA,pleasant,unpleasant,NA,NA,NA,NA,NA,right,327.700000001118,true,NA,NA,NA,NA,NA
YvNbaUVN,33tgb4g0msu3alll9rtp1nk6wbyxtf,3f1567xtn0i24t9pg9yi5zjt7jiq9e,YvNbaUVN,2020-0188,2021-10-15,13:41:03,14:53:14,NA,incomplete,false,true,NA,7,23,NA,black,m_s_072.jpg,NA,NA,pleasant,unpleasant,NA,NA,NA,NA,NA,left,197.300000000745,true,NA,NA,NA,NA,NA
YvNbaUVN,33tgb4g0msu3alll9rtp1nk6wbyxtf,3f1567xtn0i24t9pg9yi5zjt7jiq9e,YvNbaUVN,2020-0188,2021-10-15,13:41:03,14:53:14,NA,incomplete,false,true,NA,7,24,NA,gray,m_l_081.jpg,NA,NA,pleasant,unpleasant,NA,NA,NA,NA,NA,right,387.200000001118,true,NA,NA,NA,NA,NA
YvNbaUVN,33tgb4g0msu3alll9rtp1nk6wbyxtf,3f1567xtn0i24t9pg9yi5zjt7jiq9e,YvNbaUVN,2020-0188,2021-10-15,13:41:03,14:53:14,NA,incomplete,false,true,NA,7,25,NA,gray,m_s_115.jpg,NA,NA,unpleasant,pleasant,NA,NA,NA,NA,NA,left,411.099999999627,true,NA,NA,NA,NA,NA
YvNbaUVN,33tgb4g0msu3alll9rtp1nk6wbyxtf,3f1567xtn0i24t9pg9yi5zjt7jiq9e,YvNbaUVN,2020-0188,2021-10-15,13:41:03,14:53:14,NA,incomplete,false,true,NA,7,26,NA,gray,n_l_052.jpg,NA,NA,unpleasant,pleasant,NA,NA,NA,NA,NA,right,1151.90000000037,true,NA,NA,NA,NA,NA
YvNbaUVN,33tgb4g0msu3alll9rtp1nk6wbyxtf,3f1567xtn0i24t9pg9yi5zjt7jiq9e,YvNbaUVN,2020-0188,2021-10-15,13:41:03,14:53:14,NA,incomplete,false,true,NA,7,27,NA,gray,n_l_017.jpg,NA,NA,pleasant,unpleasant,NA,NA,NA,NA,NA,left,1062.19999999925,true,NA,NA,NA,NA,NA
YvNbaUVN,33tgb4g0msu3alll9rtp1nk6wbyxtf,3f1567xtn0i24t9pg9yi5zjt7jiq9e,YvNbaUVN,2020-0188,2021-10-15,13:41:03,14:53:14,NA,incomplete,false,true,NA,7,28,NA,gray,n_s_018.jpg,NA,NA,pleasant,unpleasant,NA,NA,NA,NA,NA,right,347.599999999627,true,NA,NA,NA,NA,NA
YvNbaUVN,33tgb4g0msu3alll9rtp1nk6wbyxtf,3f1567xtn0i24t9pg9yi5zjt7jiq9e,YvNbaUVN,2020-0188,2021-10-15,13:41:03,14:53:14,NA,incomplete,false,true,NA,7,29,NA,gray,m_l_095.jpg,NA,NA,pleasant,unpleasant,NA,NA,NA,NA,NA,left,338.700000001118,true,NA,NA,NA,NA,NA
YvNbaUVN,33tgb4g0msu3alll9rtp1nk6wbyxtf,3f1567xtn0i24t9pg9yi5zjt7jiq9e,YvNbaUVN,2020-0188,2021-10-15,13:41:03,14:53:14,NA,incomplete,false,true,NA,7,30,NA,purple,m_l_053.jpg,NA,NA,pleasant,unpleasant,NA,NA,NA,NA,NA,right,393.900000000373,true,NA,NA,NA,NA,NA
YvNbaUVN,33tgb4g0msu3alll9rtp1nk6wbyxtf,3f1567xtn0i24t9pg9yi5zjt7jiq9e,YvNbaUVN,2020-0188,2021-10-15,13:41:03,14:53:14,NA,incomplete,false,true,NA,7,31,NA,purple,n_l_083.jpg,NA,NA,unpleasant,pleasant,NA,NA,NA,NA,NA,left,434.39999999851,true,NA,NA,NA,NA,NA
YvNbaUVN,33tgb4g0msu3alll9rtp1nk6wbyxtf,3f1567xtn0i24t9pg9yi5zjt7jiq9e,YvNbaUVN,2020-0188,2021-10-15,13:41:03,14:53:14,NA,incomplete,false,true,NA,7,32,NA,purple,m_l_097.jpg,NA,NA,unpleasant,pleasant,NA,NA,NA,NA,NA,right,718.099999999627,true,NA,NA,NA,NA,NA
YvNbaUVN,33tgb4g0msu3alll9rtp1nk6wbyxtf,3f1567xtn0i24t9pg9yi5zjt7jiq9e,YvNbaUVN,2020-0188,2021-10-15,13:41:03,14:53:14,NA,incomplete,false,true,NA,7,33,NA,purple,n_s_097.jpg,NA,NA,pleasant,unpleasant,NA,NA,NA,NA,NA,left,555.900000000373,true,NA,NA,NA,NA,NA
YvNbaUVN,33tgb4g0msu3alll9rtp1nk6wbyxtf,3f1567xtn0i24t9pg9yi5zjt7jiq9e,YvNbaUVN,2020-0188,2021-10-15,13:41:03,14:53:14,NA,incomplete,false,true,NA,7,34,NA,purple,n_l_059.jpg,NA,NA,unpleasant,pleasant,NA,NA,NA,NA,NA,right,466.5,true,NA,NA,NA,NA,NA
YvNbaUVN,33tgb4g0msu3alll9rtp1nk6wbyxtf,3f1567xtn0i24t9pg9yi5zjt7jiq9e,YvNbaUVN,2020-0188,2021-10-15,13:41:03,14:53:14,NA,incomplete,false,true,NA,7,35,NA,purple,m_l_035.jpg,NA,NA,unpleasant,pleasant,NA,NA,NA,NA,NA,right,714.10000000149,true,NA,NA,NA,NA,NA
YvNbaUVN,33tgb4g0msu3alll9rtp1nk6wbyxtf,3f1567xtn0i24t9pg9yi5zjt7jiq9e,YvNbaUVN,2020-0188,2021-10-15,13:41:03,14:53:14,NA,incomplete,false,NA,true,7,0,NA,NA,NA,right,absent,NA,NA,m_l_035.jpg,purple,n_l_083.jpg,purple,within,NA,NaN,NA,right,1584.300000000745,1,1,1250.0999999996275
YvNbaUVN,33tgb4g0msu3alll9rtp1nk6wbyxtf,3f1567xtn0i24t9pg9yi5zjt7jiq9e,YvNbaUVN,2020-0188,2021-10-15,13:41:03,14:53:14,NA,incomplete,false,NA,true,7,1,NA,NA,NA,right,absent,NA,NA,n_l_037.jpg,black,n_l_039.jpg,red,between,NA,NaN,NA,right,880.7000000011176,1,2,1129.699999999255
YvNbaUVN,33tgb4g0msu3alll9rtp1nk6wbyxtf,3f1567xtn0i24t9pg9yi5zjt7jiq9e,YvNbaUVN,2020-0188,2021-10-15,13:41:03,14:53:14,NA,incomplete,false,NA,true,7,2,NA,NA,NA,right,absent,NA,NA,n_s_090.jpg,brown,m_s_008.jpg,blue,between,NA,NaN,NA,left,1314.2000000011176,0,3,997.5
YvNbaUVN,33tgb4g0msu3alll9rtp1nk6wbyxtf,3f1567xtn0i24t9pg9yi5zjt7jiq9e,YvNbaUVN,2020-0188,2021-10-15,13:41:03,14:53:14,NA,incomplete,false,NA,true,7,3,NA,NA,NA,right,absent,NA,NA,n_l_116.jpg,blue,n_l_094.jpg,blue,within,NA,NaN,NA,left,1373.2999999988824,0,3,1015.8999999985099
YvNbaUVN,33tgb4g0msu3alll9rtp1nk6wbyxtf,3f1567xtn0i24t9pg9yi5zjt7jiq9e,YvNbaUVN,2020-0188,2021-10-15,13:41:03,14:53:14,NA,incomplete,false,NA,true,7,4,NA,NA,NA,right,absent,NA,NA,n_l_052.jpg,gray,n_l_007.jpg,black,between,NA,NaN,NA,left,2565.699999999255,0,1,2365.9000000003725
YvNbaUVN,33tgb4g0msu3alll9rtp1nk6wbyxtf,3f1567xtn0i24t9pg9yi5zjt7jiq9e,YvNbaUVN,2020-0188,2021-10-15,13:41:03,14:53:14,NA,incomplete,false,NA,true,7,5,NA,NA,NA,left,absent,NA,NA,m_s_115.jpg,gray,m_l_095.jpg,gray,within,NA,NaN,NA,right,1317.5,0,3,1157.199999999255
YvNbaUVN,33tgb4g0msu3alll9rtp1nk6wbyxtf,3f1567xtn0i24t9pg9yi5zjt7jiq9e,YvNbaUVN,2020-0188,2021-10-15,13:41:03,14:53:14,NA,incomplete,false,NA,true,7,6,NA,NA,NA,right,absent,NA,NA,m_s_024.jpg,red,m_l_032.jpg,red,within,NA,NaN,NA,left,1973.800000000745,0,3,1164.800000000745
YvNbaUVN,33tgb4g0msu3alll9rtp1nk6wbyxtf,3f1567xtn0i24t9pg9yi5zjt7jiq9e,YvNbaUVN,2020-0188,2021-10-15,13:41:03,14:53:14,NA,incomplete,false,NA,true,7,7,NA,NA,NA,left,absent,NA,NA,m_s_052.jpg,brown,n_l_064.jpg,brown,within,NA,NaN,NA,right,1989.5,0,2,933.4000000003725
YvNbaUVN,33tgb4g0msu3alll9rtp1nk6wbyxtf,3f1567xtn0i24t9pg9yi5zjt7jiq9e,YvNbaUVN,2020-0188,2021-10-15,13:41:03,14:53:14,NA,incomplete,false,NA,true,7,8,NA,NA,NA,right,absent,NA,NA,m_l_097.jpg,purple,n_s_018.jpg,gray,between,NA,NaN,NA,left,1277.4000000003725,0,3,1149.5
YvNbaUVN,33tgb4g0msu3alll9rtp1nk6wbyxtf,3f1567xtn0i24t9pg9yi5zjt7jiq9e,YvNbaUVN,2020-0188,2021-10-15,13:41:03,14:53:14,NA,incomplete,false,NA,true,7,9,NA,NA,NA,left,absent,NA,NA,m_l_090.jpg,black,m_s_072.jpg,black,within,NA,NaN,NA,left,1093.5,1,1,923.6999999992549
YvNbaUVN,33tgb4g0msu3alll9rtp1nk6wbyxtf,3f1567xtn0i24t9pg9yi5zjt7jiq9e,YvNbaUVN,2020-0188,2021-10-15,13:41:03,14:53:14,NA,incomplete,false,NA,true,7,10,NA,NA,NA,left,absent,NA,NA,n_l_027.jpg,brown,n_l_021.jpg,red,between,NA,NaN,NA,left,1877.2000000011176,1,1,852.1999999992549
YvNbaUVN,33tgb4g0msu3alll9rtp1nk6wbyxtf,3f1567xtn0i24t9pg9yi5zjt7jiq9e,YvNbaUVN,2020-0188,2021-10-15,13:41:03,14:53:14,NA,incomplete,false,true,NA,8,0,NA,green,m_l_002.jpg,NA,NA,pleasant,unpleasant,NA,NA,NA,NA,NA,right,995.400000000373,true,NA,NA,NA,NA,NA
YvNbaUVN,33tgb4g0msu3alll9rtp1nk6wbyxtf,3f1567xtn0i24t9pg9yi5zjt7jiq9e,YvNbaUVN,2020-0188,2021-10-15,13:41:03,14:53:14,NA,incomplete,false,true,NA,8,1,NA,green,m_s_055.jpg,NA,NA,pleasant,unpleasant,NA,NA,NA,NA,NA,left,362.799999998882,true,NA,NA,NA,NA,NA
YvNbaUVN,33tgb4g0msu3alll9rtp1nk6wbyxtf,3f1567xtn0i24t9pg9yi5zjt7jiq9e,YvNbaUVN,2020-0188,2021-10-15,13:41:03,14:53:14,NA,incomplete,false,true,NA,8,2,NA,green,n_l_024.jpg,NA,NA,unpleasant,pleasant,NA,NA,NA,NA,NA,right,409.199999999255,true,NA,NA,NA,NA,NA
YvNbaUVN,33tgb4g0msu3alll9rtp1nk6wbyxtf,3f1567xtn0i24t9pg9yi5zjt7jiq9e,YvNbaUVN,2020-0188,2021-10-15,13:41:03,14:53:14,NA,incomplete,false,true,NA,8,3,NA,green,m_s_103.jpg,NA,NA,unpleasant,pleasant,NA,NA,NA,NA,NA,left,106.300000000745,true,NA,NA,NA,NA,NA
YvNbaUVN,33tgb4g0msu3alll9rtp1nk6wbyxtf,3f1567xtn0i24t9pg9yi5zjt7jiq9e,YvNbaUVN,2020-0188,2021-10-15,13:41:03,14:53:14,NA,incomplete,false,true,NA,8,4,NA,green,m_l_062.jpg,NA,NA,unpleasant,pleasant,NA,NA,NA,NA,NA,right,389.199999999255,true,NA,NA,NA,NA,NA
YvNbaUVN,33tgb4g0msu3alll9rtp1nk6wbyxtf,3f1567xtn0i24t9pg9yi5zjt7jiq9e,YvNbaUVN,2020-0188,2021-10-15,13:41:03,14:53:14,NA,incomplete,false,true,NA,8,5,NA,green,m_l_026.jpg,NA,NA,pleasant,unpleasant,NA,NA,NA,NA,NA,left,468,true,NA,NA,NA,NA,NA
YvNbaUVN,33tgb4g0msu3alll9rtp1nk6wbyxtf,3f1567xtn0i24t9pg9yi5zjt7jiq9e,YvNbaUVN,2020-0188,2021-10-15,13:41:03,14:53:14,NA,incomplete,false,true,NA,8,6,NA,white,n_l_025.jpg,NA,NA,unpleasant,pleasant,NA,NA,NA,NA,NA,right,502.900000000373,true,NA,NA,NA,NA,NA
YvNbaUVN,33tgb4g0msu3alll9rtp1nk6wbyxtf,3f1567xtn0i24t9pg9yi5zjt7jiq9e,YvNbaUVN,2020-0188,2021-10-15,13:41:03,14:53:14,NA,incomplete,false,true,NA,8,7,NA,white,m_l_010.jpg,NA,NA,pleasant,unpleasant,NA,NA,NA,NA,NA,left,391.199999999255,true,NA,NA,NA,NA,NA
YvNbaUVN,33tgb4g0msu3alll9rtp1nk6wbyxtf,3f1567xtn0i24t9pg9yi5zjt7jiq9e,YvNbaUVN,2020-0188,2021-10-15,13:41:03,14:53:14,NA,incomplete,false,true,NA,8,8,NA,white,m_s_108.jpg,NA,NA,pleasant,unpleasant,NA,NA,NA,NA,NA,right,493.900000000373,true,NA,NA,NA,NA,NA
YvNbaUVN,33tgb4g0msu3alll9rtp1nk6wbyxtf,3f1567xtn0i24t9pg9yi5zjt7jiq9e,YvNbaUVN,2020-0188,2021-10-15,13:41:03,14:53:14,NA,incomplete,false,true,NA,8,9,NA,white,n_s_093.jpg,NA,NA,pleasant,unpleasant,NA,NA,NA,NA,NA,left,171.599999999627,true,NA,NA,NA,NA,NA
YvNbaUVN,33tgb4g0msu3alll9rtp1nk6wbyxtf,3f1567xtn0i24t9pg9yi5zjt7jiq9e,YvNbaUVN,2020-0188,2021-10-15,13:41:03,14:53:14,NA,incomplete,false,true,NA,8,10,NA,white,n_s_048.jpg,NA,NA,unpleasant,pleasant,NA,NA,NA,NA,NA,left,946.400000000373,true,NA,NA,NA,NA,NA
