workerId,hitId,assignmentId,subject,studyid,exp_date,exp_start,exp_end,time_start,time_end,practice,encoding,memory,association,block,trial,event_order,event,stim,answer,object,left_context,right_context,context_type,label_left,label_right,left_image,left_event,right_image,right_event,condition,response,response_time,response_acc,association_response_time,association_response,association_acc,order_response,order_response_time,order_acc,distance_response,distance_response_time
B5t66gVi,3fk4g712o0duz4m7qhicsa7sfszsso,304sm51wa7hx523z6x1jr5tkgkosbq,B5t66gVi,2020-0188,2021-11-01,00:19:11,01:54:19,NA,incomplete,true,true,NA,NA,0,0,NA,gray,n_s_081.jpg,NA,NA,NA,NA,NA,unpleasant,pleasant,NA,NA,NA,NA,NA,right,2168.09999996424,true,NA,NA,NA,NA,NA,NA,NA,NA
B5t66gVi,3fk4g712o0duz4m7qhicsa7sfszsso,304sm51wa7hx523z6x1jr5tkgkosbq,B5t66gVi,2020-0188,2021-11-01,00:19:11,01:54:19,NA,incomplete,true,true,NA,NA,0,1,NA,gray,m_s_014.jpg,NA,NA,NA,NA,NA,pleasant,unpleasant,NA,NA,NA,NA,NA,left,1770,true,NA,NA,NA,NA,NA,NA,NA,NA
B5t66gVi,3fk4g712o0duz4m7qhicsa7sfszsso,304sm51wa7hx523z6x1jr5tkgkosbq,B5t66gVi,2020-0188,2021-11-01,00:19:11,01:54:19,NA,incomplete,true,true,NA,NA,0,2,NA,gray,m_l_096.jpg,NA,NA,NA,NA,NA,unpleasant,pleasant,NA,NA,NA,NA,NA,right,1230,true,NA,NA,NA,NA,NA,NA,NA,NA
B5t66gVi,3fk4g712o0duz4m7qhicsa7sfszsso,304sm51wa7hx523z6x1jr5tkgkosbq,B5t66gVi,2020-0188,2021-11-01,00:19:11,01:54:19,NA,incomplete,true,true,NA,NA,0,3,NA,gray,n_s_069.jpg,NA,NA,NA,NA,NA,unpleasant,pleasant,NA,NA,NA,NA,NA,right,939,true,NA,NA,NA,NA,NA,NA,NA,NA
B5t66gVi,3fk4g712o0duz4m7qhicsa7sfszsso,304sm51wa7hx523z6x1jr5tkgkosbq,B5t66gVi,2020-0188,2021-11-01,00:19:11,01:54:19,NA,incomplete,true,true,NA,NA,0,4,NA,gray,m_l_033.jpg,NA,NA,NA,NA,NA,pleasant,unpleasant,NA,NA,NA,NA,NA,left,1014.80000001192,true,NA,NA,NA,NA,NA,NA,NA,NA
B5t66gVi,3fk4g712o0duz4m7qhicsa7sfszsso,304sm51wa7hx523z6x1jr5tkgkosbq,B5t66gVi,2020-0188,2021-11-01,00:19:11,01:54:19,NA,incomplete,true,true,NA,NA,0,5,NA,gray,m_s_115.jpg,NA,NA,NA,NA,NA,pleasant,unpleasant,NA,NA,NA,NA,NA,left,971.400000035763,true,NA,NA,NA,NA,NA,NA,NA,NA
B5t66gVi,3fk4g712o0duz4m7qhicsa7sfszsso,304sm51wa7hx523z6x1jr5tkgkosbq,B5t66gVi,2020-0188,2021-11-01,00:19:11,01:54:19,NA,incomplete,true,true,NA,NA,0,6,NA,yellow,n_l_014.jpg,NA,NA,NA,NA,NA,pleasant,unpleasant,NA,NA,NA,NA,NA,left,1567.30000001192,true,NA,NA,NA,NA,NA,NA,NA,NA
B5t66gVi,3fk4g712o0duz4m7qhicsa7sfszsso,304sm51wa7hx523z6x1jr5tkgkosbq,B5t66gVi,2020-0188,2021-11-01,00:19:11,01:54:19,NA,incomplete,true,true,NA,NA,0,7,NA,yellow,m_l_071.jpg,NA,NA,NA,NA,NA,pleasant,unpleasant,NA,NA,NA,NA,NA,left,731.300000011921,true,NA,NA,NA,NA,NA,NA,NA,NA
B5t66gVi,3fk4g712o0duz4m7qhicsa7sfszsso,304sm51wa7hx523z6x1jr5tkgkosbq,B5t66gVi,2020-0188,2021-11-01,00:19:11,01:54:19,NA,incomplete,true,true,NA,NA,0,8,NA,yellow,m_s_005.jpg,NA,NA,NA,NA,NA,unpleasant,pleasant,NA,NA,NA,NA,NA,right,823.199999988079,true,NA,NA,NA,NA,NA,NA,NA,NA
B5t66gVi,3fk4g712o0duz4m7qhicsa7sfszsso,304sm51wa7hx523z6x1jr5tkgkosbq,B5t66gVi,2020-0188,2021-11-01,00:19:11,01:54:19,NA,incomplete,true,true,NA,NA,0,9,NA,yellow,n_s_088.jpg,NA,NA,NA,NA,NA,unpleasant,pleasant,NA,NA,NA,NA,NA,right,780,true,NA,NA,NA,NA,NA,NA,NA,NA
B5t66gVi,3fk4g712o0duz4m7qhicsa7sfszsso,304sm51wa7hx523z6x1jr5tkgkosbq,B5t66gVi,2020-0188,2021-11-01,00:19:11,01:54:19,NA,incomplete,true,true,NA,NA,0,10,NA,yellow,n_s_062.jpg,NA,NA,NA,NA,NA,pleasant,unpleasant,NA,NA,NA,NA,NA,left,784.5,true,NA,NA,NA,NA,NA,NA,NA,NA
B5t66gVi,3fk4g712o0duz4m7qhicsa7sfszsso,304sm51wa7hx523z6x1jr5tkgkosbq,B5t66gVi,2020-0188,2021-11-01,00:19:11,01:54:19,NA,incomplete,true,true,NA,NA,0,11,NA,yellow,n_l_110.jpg,NA,NA,NA,NA,NA,pleasant,unpleasant,NA,NA,NA,NA,NA,left,1124.70000004768,true,NA,NA,NA,NA,NA,NA,NA,NA
B5t66gVi,3fk4g712o0duz4m7qhicsa7sfszsso,304sm51wa7hx523z6x1jr5tkgkosbq,B5t66gVi,2020-0188,2021-11-01,00:19:11,01:54:19,NA,incomplete,true,true,NA,NA,0,12,NA,red,n_s_053.jpg,NA,NA,NA,NA,NA,unpleasant,pleasant,NA,NA,NA,NA,NA,right,1088.60000002384,true,NA,NA,NA,NA,NA,NA,NA,NA
B5t66gVi,3fk4g712o0duz4m7qhicsa7sfszsso,304sm51wa7hx523z6x1jr5tkgkosbq,B5t66gVi,2020-0188,2021-11-01,00:19:11,01:54:19,NA,incomplete,true,true,NA,NA,0,13,NA,red,m_s_062.jpg,NA,NA,NA,NA,NA,pleasant,unpleasant,NA,NA,NA,NA,NA,left,932.699999988079,true,NA,NA,NA,NA,NA,NA,NA,NA
B5t66gVi,3fk4g712o0duz4m7qhicsa7sfszsso,304sm51wa7hx523z6x1jr5tkgkosbq,B5t66gVi,2020-0188,2021-11-01,00:19:11,01:54:19,NA,incomplete,true,true,NA,NA,0,14,NA,red,n_l_043.jpg,NA,NA,NA,NA,NA,unpleasant,pleasant,NA,NA,NA,NA,NA,right,913.300000011921,true,NA,NA,NA,NA,NA,NA,NA,NA
B5t66gVi,3fk4g712o0duz4m7qhicsa7sfszsso,304sm51wa7hx523z6x1jr5tkgkosbq,B5t66gVi,2020-0188,2021-11-01,00:19:11,01:54:19,NA,incomplete,true,true,NA,NA,0,15,NA,red,m_s_083.jpg,NA,NA,NA,NA,NA,pleasant,unpleasant,NA,NA,NA,NA,NA,left,1197.69999998808,true,NA,NA,NA,NA,NA,NA,NA,NA
B5t66gVi,3fk4g712o0duz4m7qhicsa7sfszsso,304sm51wa7hx523z6x1jr5tkgkosbq,B5t66gVi,2020-0188,2021-11-01,00:19:11,01:54:19,NA,incomplete,true,true,NA,NA,0,16,NA,red,m_l_009.jpg,NA,NA,NA,NA,NA,pleasant,unpleasant,NA,NA,NA,NA,NA,left,730.5,true,NA,NA,NA,NA,NA,NA,NA,NA
B5t66gVi,3fk4g712o0duz4m7qhicsa7sfszsso,304sm51wa7hx523z6x1jr5tkgkosbq,B5t66gVi,2020-0188,2021-11-01,00:19:11,01:54:19,NA,incomplete,true,true,NA,NA,0,17,NA,red,m_s_022.jpg,NA,NA,NA,NA,NA,pleasant,unpleasant,NA,NA,NA,NA,NA,left,727.300000011921,true,NA,NA,NA,NA,NA,NA,NA,NA
B5t66gVi,3fk4g712o0duz4m7qhicsa7sfszsso,304sm51wa7hx523z6x1jr5tkgkosbq,B5t66gVi,2020-0188,2021-11-01,00:19:11,01:54:19,NA,incomplete,true,true,NA,NA,0,18,NA,green,m_l_109.jpg,NA,NA,NA,NA,NA,pleasant,unpleasant,NA,NA,NA,NA,NA,left,707.899999976158,true,NA,NA,NA,NA,NA,NA,NA,NA
B5t66gVi,3fk4g712o0duz4m7qhicsa7sfszsso,304sm51wa7hx523z6x1jr5tkgkosbq,B5t66gVi,2020-0188,2021-11-01,00:19:11,01:54:19,NA,incomplete,true,true,NA,NA,0,19,NA,green,n_l_052.jpg,NA,NA,NA,NA,NA,unpleasant,pleasant,NA,NA,NA,NA,NA,right,1176,true,NA,NA,NA,NA,NA,NA,NA,NA
B5t66gVi,3fk4g712o0duz4m7qhicsa7sfszsso,304sm51wa7hx523z6x1jr5tkgkosbq,B5t66gVi,2020-0188,2021-11-01,00:19:11,01:54:19,NA,incomplete,true,true,NA,NA,0,20,NA,green,m_l_092.jpg,NA,NA,NA,NA,NA,pleasant,unpleasant,NA,NA,NA,NA,NA,left,772.800000011921,true,NA,NA,NA,NA,NA,NA,NA,NA
B5t66gVi,3fk4g712o0duz4m7qhicsa7sfszsso,304sm51wa7hx523z6x1jr5tkgkosbq,B5t66gVi,2020-0188,2021-11-01,00:19:11,01:54:19,NA,incomplete,true,true,NA,NA,0,21,NA,green,n_s_060.jpg,NA,NA,NA,NA,NA,unpleasant,pleasant,NA,NA,NA,NA,NA,right,704.5,true,NA,NA,NA,NA,NA,NA,NA,NA
B5t66gVi,3fk4g712o0duz4m7qhicsa7sfszsso,304sm51wa7hx523z6x1jr5tkgkosbq,B5t66gVi,2020-0188,2021-11-01,00:19:11,01:54:19,NA,incomplete,true,true,NA,NA,0,22,NA,green,m_s_038.jpg,NA,NA,NA,NA,NA,pleasant,unpleasant,NA,NA,NA,NA,NA,left,724.5,true,NA,NA,NA,NA,NA,NA,NA,NA
B5t66gVi,3fk4g712o0duz4m7qhicsa7sfszsso,304sm51wa7hx523z6x1jr5tkgkosbq,B5t66gVi,2020-0188,2021-11-01,00:19:11,01:54:19,NA,incomplete,true,true,NA,NA,0,23,NA,green,m_l_091.jpg,NA,NA,NA,NA,NA,pleasant,unpleasant,NA,NA,NA,NA,NA,left,1832.39999997616,true,NA,NA,NA,NA,NA,NA,NA,NA
B5t66gVi,3fk4g712o0duz4m7qhicsa7sfszsso,304sm51wa7hx523z6x1jr5tkgkosbq,B5t66gVi,2020-0188,2021-11-01,00:19:11,01:54:19,NA,incomplete,true,true,NA,NA,0,24,NA,orange,m_s_056.jpg,NA,NA,NA,NA,NA,unpleasant,pleasant,NA,NA,NA,NA,NA,right,869.300000011921,true,NA,NA,NA,NA,NA,NA,NA,NA
B5t66gVi,3fk4g712o0duz4m7qhicsa7sfszsso,304sm51wa7hx523z6x1jr5tkgkosbq,B5t66gVi,2020-0188,2021-11-01,00:19:11,01:54:19,NA,incomplete,true,true,NA,NA,0,25,NA,orange,m_l_001.jpg,NA,NA,NA,NA,NA,pleasant,unpleasant,NA,NA,NA,NA,NA,left,977.400000035763,true,NA,NA,NA,NA,NA,NA,NA,NA
B5t66gVi,3fk4g712o0duz4m7qhicsa7sfszsso,304sm51wa7hx523z6x1jr5tkgkosbq,B5t66gVi,2020-0188,2021-11-01,00:19:11,01:54:19,NA,incomplete,true,true,NA,NA,0,26,NA,orange,m_s_084.jpg,NA,NA,NA,NA,NA,pleasant,unpleasant,NA,NA,NA,NA,NA,left,1405.79999995232,true,NA,NA,NA,NA,NA,NA,NA,NA
B5t66gVi,3fk4g712o0duz4m7qhicsa7sfszsso,304sm51wa7hx523z6x1jr5tkgkosbq,B5t66gVi,2020-0188,2021-11-01,00:19:11,01:54:19,NA,incomplete,true,true,NA,NA,0,27,NA,orange,n_s_073.jpg,NA,NA,NA,NA,NA,pleasant,unpleasant,NA,NA,NA,NA,NA,left,1641.80000001192,true,NA,NA,NA,NA,NA,NA,NA,NA
B5t66gVi,3fk4g712o0duz4m7qhicsa7sfszsso,304sm51wa7hx523z6x1jr5tkgkosbq,B5t66gVi,2020-0188,2021-11-01,00:19:11,01:54:19,NA,incomplete,true,true,NA,NA,0,28,NA,orange,m_l_087.jpg,NA,NA,NA,NA,NA,unpleasant,pleasant,NA,NA,NA,NA,NA,right,654.699999988079,true,NA,NA,NA,NA,NA,NA,NA,NA
B5t66gVi,3fk4g712o0duz4m7qhicsa7sfszsso,304sm51wa7hx523z6x1jr5tkgkosbq,B5t66gVi,2020-0188,2021-11-01,00:19:11,01:54:19,NA,incomplete,true,true,NA,NA,0,29,NA,orange,n_s_116.jpg,NA,NA,NA,NA,NA,unpleasant,pleasant,NA,NA,NA,NA,NA,right,643.300000011921,true,NA,NA,NA,NA,NA,NA,NA,NA
B5t66gVi,3fk4g712o0duz4m7qhicsa7sfszsso,304sm51wa7hx523z6x1jr5tkgkosbq,B5t66gVi,2020-0188,2021-11-01,00:19:11,01:54:19,NA,incomplete,true,true,NA,NA,0,30,NA,black,n_l_107.jpg,NA,NA,NA,NA,NA,unpleasant,pleasant,NA,NA,NA,NA,NA,left,1623.39999997616,true,NA,NA,NA,NA,NA,NA,NA,NA
B5t66gVi,3fk4g712o0duz4m7qhicsa7sfszsso,304sm51wa7hx523z6x1jr5tkgkosbq,B5t66gVi,2020-0188,2021-11-01,00:19:11,01:54:19,NA,incomplete,true,true,NA,NA,0,31,NA,black,m_s_095.jpg,NA,NA,NA,NA,NA,unpleasant,pleasant,NA,NA,NA,NA,NA,right,963.399999976158,true,NA,NA,NA,NA,NA,NA,NA,NA
B5t66gVi,3fk4g712o0duz4m7qhicsa7sfszsso,304sm51wa7hx523z6x1jr5tkgkosbq,B5t66gVi,2020-0188,2021-11-01,00:19:11,01:54:19,NA,incomplete,true,true,NA,NA,0,32,NA,black,m_l_060.jpg,NA,NA,NA,NA,NA,unpleasant,pleasant,NA,NA,NA,NA,NA,right,831.799999952316,true,NA,NA,NA,NA,NA,NA,NA,NA
B5t66gVi,3fk4g712o0duz4m7qhicsa7sfszsso,304sm51wa7hx523z6x1jr5tkgkosbq,B5t66gVi,2020-0188,2021-11-01,00:19:11,01:54:19,NA,incomplete,true,true,NA,NA,0,33,NA,black,n_l_066.jpg,NA,NA,NA,NA,NA,unpleasant,pleasant,NA,NA,NA,NA,NA,left,1436.60000002384,true,NA,NA,NA,NA,NA,NA,NA,NA
B5t66gVi,3fk4g712o0duz4m7qhicsa7sfszsso,304sm51wa7hx523z6x1jr5tkgkosbq,B5t66gVi,2020-0188,2021-11-01,00:19:11,01:54:19,NA,incomplete,true,true,NA,NA,0,34,NA,black,m_s_027.jpg,NA,NA,NA,NA,NA,pleasant,unpleasant,NA,NA,NA,NA,NA,left,880.5,true,NA,NA,NA,NA,NA,NA,NA,NA
B5t66gVi,3fk4g712o0duz4m7qhicsa7sfszsso,304sm51wa7hx523z6x1jr5tkgkosbq,B5t66gVi,2020-0188,2021-11-01,00:19:11,01:54:19,NA,incomplete,true,true,NA,NA,0,35,NA,black,m_s_100.jpg,NA,NA,NA,NA,NA,unpleasant,pleasant,NA,NA,NA,NA,NA,right,1669.39999997616,true,NA,NA,NA,NA,NA,NA,NA,NA
B5t66gVi,3fk4g712o0duz4m7qhicsa7sfszsso,304sm51wa7hx523z6x1jr5tkgkosbq,B5t66gVi,2020-0188,2021-11-01,00:19:11,01:54:19,NA,incomplete,true,NA,NA,true,0,0,NA,NA,NA,right,m_l_087.jpg,black,orange,NA,NA,NA,NA,NA,NA,NA,NA,NA,NaN,NA,2743.199999988079,right,1,NA,NA,NA,NA,NA
B5t66gVi,3fk4g712o0duz4m7qhicsa7sfszsso,304sm51wa7hx523z6x1jr5tkgkosbq,B5t66gVi,2020-0188,2021-11-01,00:19:11,01:54:19,NA,incomplete,true,NA,NA,true,0,1,NA,NA,NA,left,m_s_022.jpg,red,yellow,NA,NA,NA,NA,NA,NA,NA,NA,NA,NaN,NA,2487.399999976158,left,1,NA,NA,NA,NA,NA
B5t66gVi,3fk4g712o0duz4m7qhicsa7sfszsso,304sm51wa7hx523z6x1jr5tkgkosbq,B5t66gVi,2020-0188,2021-11-01,00:19:11,01:54:19,NA,incomplete,true,NA,NA,true,0,2,NA,NA,NA,left,m_l_092.jpg,green,orange,NA,NA,NA,NA,NA,NA,NA,NA,NA,NaN,NA,1919.1000000238419,left,1,NA,NA,NA,NA,NA
B5t66gVi,3fk4g712o0duz4m7qhicsa7sfszsso,304sm51wa7hx523z6x1jr5tkgkosbq,B5t66gVi,2020-0188,2021-11-01,00:19:11,01:54:19,NA,incomplete,true,NA,NA,true,0,3,NA,NA,NA,right,m_l_009.jpg,yellow,red,NA,NA,NA,NA,NA,NA,NA,NA,NA,NaN,NA,3055.399999976158,left,0,NA,NA,NA,NA,NA
B5t66gVi,3fk4g712o0duz4m7qhicsa7sfszsso,304sm51wa7hx523z6x1jr5tkgkosbq,B5t66gVi,2020-0188,2021-11-01,00:19:11,01:54:19,NA,incomplete,true,NA,NA,true,0,4,NA,NA,NA,left,m_l_060.jpg,black,orange,NA,NA,NA,NA,NA,NA,NA,NA,NA,NaN,NA,1271.4000000357628,right,0,NA,NA,NA,NA,NA
B5t66gVi,3fk4g712o0duz4m7qhicsa7sfszsso,304sm51wa7hx523z6x1jr5tkgkosbq,B5t66gVi,2020-0188,2021-11-01,00:19:11,01:54:19,NA,incomplete,true,NA,NA,true,0,5,NA,NA,NA,right,n_l_043.jpg,yellow,red,NA,NA,NA,NA,NA,NA,NA,NA,NA,NaN,NA,5551.400000035763,left,0,NA,NA,NA,NA,NA
B5t66gVi,3fk4g712o0duz4m7qhicsa7sfszsso,304sm51wa7hx523z6x1jr5tkgkosbq,B5t66gVi,2020-0188,2021-11-01,00:19:11,01:54:19,NA,incomplete,true,NA,NA,true,0,6,NA,NA,NA,right,m_s_038.jpg,red,green,NA,NA,NA,NA,NA,NA,NA,NA,NA,NaN,NA,3591.399999976158,right,1,NA,NA,NA,NA,NA
B5t66gVi,3fk4g712o0duz4m7qhicsa7sfszsso,304sm51wa7hx523z6x1jr5tkgkosbq,B5t66gVi,2020-0188,2021-11-01,00:19:11,01:54:19,NA,incomplete,true,NA,NA,true,0,7,NA,NA,NA,right,m_s_005.jpg,gray,yellow,NA,NA,NA,NA,NA,NA,NA,NA,NA,NaN,NA,3887.5,left,0,NA,NA,NA,NA,NA
B5t66gVi,3fk4g712o0duz4m7qhicsa7sfszsso,304sm51wa7hx523z6x1jr5tkgkosbq,B5t66gVi,2020-0188,2021-11-01,00:19:11,01:54:19,NA,incomplete,true,NA,NA,true,0,8,NA,NA,NA,right,n_s_062.jpg,gray,yellow,NA,NA,NA,NA,NA,NA,NA,NA,NA,NaN,NA,2271.399999976158,left,0,NA,NA,NA,NA,NA
B5t66gVi,3fk4g712o0duz4m7qhicsa7sfszsso,304sm51wa7hx523z6x1jr5tkgkosbq,B5t66gVi,2020-0188,2021-11-01,00:19:11,01:54:19,NA,incomplete,true,NA,NA,true,0,9,NA,NA,NA,right,n_l_052.jpg,red,green,NA,NA,NA,NA,NA,NA,NA,NA,NA,NaN,NA,2343.099999964237,left,0,NA,NA,NA,NA,NA
B5t66gVi,3fk4g712o0duz4m7qhicsa7sfszsso,304sm51wa7hx523z6x1jr5tkgkosbq,B5t66gVi,2020-0188,2021-11-01,00:19:11,01:54:19,NA,incomplete,true,NA,NA,true,0,10,NA,NA,NA,left,n_s_116.jpg,orange,black,NA,NA,NA,NA,NA,NA,NA,NA,NA,NaN,NA,2127.199999988079,right,0,NA,NA,NA,NA,NA
B5t66gVi,3fk4g712o0duz4m7qhicsa7sfszsso,304sm51wa7hx523z6x1jr5tkgkosbq,B5t66gVi,2020-0188,2021-11-01,00:19:11,01:54:19,NA,incomplete,true,NA,NA,true,0,11,NA,NA,NA,right,m_l_033.jpg,yellow,gray,NA,NA,NA,NA,NA,NA,NA,NA,NA,NaN,NA,3599.2999999523163,right,1,NA,NA,NA,NA,NA
B5t66gVi,3fk4g712o0duz4m7qhicsa7sfszsso,304sm51wa7hx523z6x1jr5tkgkosbq,B5t66gVi,2020-0188,2021-11-01,00:19:11,01:54:19,NA,incomplete,true,NA,NA,true,0,12,NA,NA,NA,right,m_s_100.jpg,orange,black,NA,NA,NA,NA,NA,NA,NA,NA,NA,NaN,NA,1631.199999988079,right,1,NA,NA,NA,NA,NA
B5t66gVi,3fk4g712o0duz4m7qhicsa7sfszsso,304sm51wa7hx523z6x1jr5tkgkosbq,B5t66gVi,2020-0188,2021-11-01,00:19:11,01:54:19,NA,incomplete,true,NA,NA,true,0,13,NA,NA,NA,right,m_s_084.jpg,green,orange,NA,NA,NA,NA,NA,NA,NA,NA,NA,NaN,NA,4583.299999952316,right,1,NA,NA,NA,NA,NA
B5t66gVi,3fk4g712o0duz4m7qhicsa7sfszsso,304sm51wa7hx523z6x1jr5tkgkosbq,B5t66gVi,2020-0188,2021-11-01,00:19:11,01:54:19,NA,incomplete,true,NA,NA,true,0,14,NA,NA,NA,left,m_l_091.jpg,green,orange,NA,NA,NA,NA,NA,NA,NA,NA,NA,NaN,NA,2079.600000023842,left,1,NA,NA,NA,NA,NA
B5t66gVi,3fk4g712o0duz4m7qhicsa7sfszsso,304sm51wa7hx523z6x1jr5tkgkosbq,B5t66gVi,2020-0188,2021-11-01,00:19:11,01:54:19,NA,incomplete,true,NA,NA,true,0,15,NA,NA,NA,left,m_l_001.jpg,orange,green,NA,NA,NA,NA,NA,NA,NA,NA,NA,NaN,NA,1343.5,right,0,NA,NA,NA,NA,NA
B5t66gVi,3fk4g712o0duz4m7qhicsa7sfszsso,304sm51wa7hx523z6x1jr5tkgkosbq,B5t66gVi,2020-0188,2021-11-01,00:19:11,01:54:19,NA,incomplete,true,NA,NA,true,0,16,NA,NA,NA,left,m_s_095.jpg,black,orange,NA,NA,NA,NA,NA,NA,NA,NA,NA,NaN,NA,2207.300000011921,left,1,NA,NA,NA,NA,NA
B5t66gVi,3fk4g712o0duz4m7qhicsa7sfszsso,304sm51wa7hx523z6x1jr5tkgkosbq,B5t66gVi,2020-0188,2021-11-01,00:19:11,01:54:19,NA,incomplete,true,NA,NA,true,0,17,NA,NA,NA,right,m_s_115.jpg,yellow,gray,NA,NA,NA,NA,NA,NA,NA,NA,NA,NaN,NA,1655.199999988079,left,0,NA,NA,NA,NA,NA
B5t66gVi,3fk4g712o0duz4m7qhicsa7sfszsso,304sm51wa7hx523z6x1jr5tkgkosbq,B5t66gVi,2020-0188,2021-11-01,00:19:11,01:54:19,NA,incomplete,true,NA,NA,true,0,18,NA,NA,NA,right,m_s_062.jpg,green,red,NA,NA,NA,NA,NA,NA,NA,NA,NA,NaN,NA,2231.400000035763,left,0,NA,NA,NA,NA,NA
B5t66gVi,3fk4g712o0duz4m7qhicsa7sfszsso,304sm51wa7hx523z6x1jr5tkgkosbq,B5t66gVi,2020-0188,2021-11-01,00:19:11,01:54:19,NA,incomplete,true,NA,NA,true,0,19,NA,NA,NA,left,m_l_071.jpg,yellow,gray,NA,NA,NA,NA,NA,NA,NA,NA,NA,NaN,NA,1711.4000000357628,right,0,NA,NA,NA,NA,NA
B5t66gVi,3fk4g712o0duz4m7qhicsa7sfszsso,304sm51wa7hx523z6x1jr5tkgkosbq,B5t66gVi,2020-0188,2021-11-01,00:19:11,01:54:19,NA,incomplete,true,NA,NA,true,0,20,NA,NA,NA,right,n_l_110.jpg,red,yellow,NA,NA,NA,NA,NA,NA,NA,NA,NA,NaN,NA,1551.199999988079,right,1,NA,NA,NA,NA,NA
B5t66gVi,3fk4g712o0duz4m7qhicsa7sfszsso,304sm51wa7hx523z6x1jr5tkgkosbq,B5t66gVi,2020-0188,2021-11-01,00:19:11,01:54:19,NA,incomplete,true,NA,NA,true,0,21,NA,NA,NA,left,m_s_014.jpg,gray,yellow,NA,NA,NA,NA,NA,NA,NA,NA,NA,NaN,NA,2671.300000011921,left,1,NA,NA,NA,NA,NA
B5t66gVi,3fk4g712o0duz4m7qhicsa7sfszsso,304sm51wa7hx523z6x1jr5tkgkosbq,B5t66gVi,2020-0188,2021-11-01,00:19:11,01:54:19,NA,incomplete,true,NA,true,NA,0,0,NA,NA,NA,right,NA,NA,NA,absent,NA,NA,m_s_005.jpg,yellow,m_l_033.jpg,gray,between,NA,NaN,NA,NA,NA,NA,left,4791.300000011921,0,2,2535.599999964237
B5t66gVi,3fk4g712o0duz4m7qhicsa7sfszsso,304sm51wa7hx523z6x1jr5tkgkosbq,B5t66gVi,2020-0188,2021-11-01,00:19:11,01:54:19,NA,incomplete,true,NA,true,NA,0,1,NA,NA,NA,left,NA,NA,NA,absent,NA,NA,m_l_071.jpg,yellow,n_l_110.jpg,yellow,within,NA,NaN,NA,NA,NA,NA,right,3439.199999988079,0,1,2039.6000000238419
B5t66gVi,3fk4g712o0duz4m7qhicsa7sfszsso,304sm51wa7hx523z6x1jr5tkgkosbq,B5t66gVi,2020-0188,2021-11-01,00:19:11,01:54:19,NA,incomplete,true,NA,true,NA,0,2,NA,NA,NA,right,NA,NA,NA,absent,NA,NA,m_s_084.jpg,orange,m_s_038.jpg,green,between,NA,NaN,NA,NA,NA,NA,left,3215.600000023842,0,2,3071.399999976158
B5t66gVi,3fk4g712o0duz4m7qhicsa7sfszsso,304sm51wa7hx523z6x1jr5tkgkosbq,B5t66gVi,2020-0188,2021-11-01,00:19:11,01:54:19,NA,incomplete,true,NA,true,NA,0,3,NA,NA,NA,right,NA,NA,NA,absent,NA,NA,m_l_091.jpg,green,n_l_052.jpg,green,within,NA,NaN,NA,NA,NA,NA,left,2895.099999964237,0,2,1479.300000011921
B5t66gVi,3fk4g712o0duz4m7qhicsa7sfszsso,304sm51wa7hx523z6x1jr5tkgkosbq,B5t66gVi,2020-0188,2021-11-01,00:19:11,01:54:19,NA,incomplete,true,NA,true,NA,0,4,NA,NA,NA,left,NA,NA,NA,absent,NA,NA,m_s_062.jpg,red,m_s_022.jpg,red,within,NA,NaN,NA,NA,NA,NA,left,2047.2999999523163,1,2,1951.6000000238419
B5t66gVi,3fk4g712o0duz4m7qhicsa7sfszsso,304sm51wa7hx523z6x1jr5tkgkosbq,B5t66gVi,2020-0188,2021-11-01,00:19:11,01:54:19,NA,incomplete,true,NA,true,NA,0,5,NA,NA,NA,left,NA,NA,NA,absent,NA,NA,m_l_009.jpg,red,m_l_092.jpg,green,between,NA,NaN,NA,NA,NA,NA,right,4303.299999952316,0,0,2663.300000011921
B5t66gVi,3fk4g712o0duz4m7qhicsa7sfszsso,304sm51wa7hx523z6x1jr5tkgkosbq,B5t66gVi,2020-0188,2021-11-01,00:19:11,01:54:19,NA,incomplete,true,NA,true,NA,0,6,NA,NA,NA,left,NA,NA,NA,absent,NA,NA,m_l_001.jpg,orange,n_s_116.jpg,orange,within,NA,NaN,NA,NA,NA,NA,left,1599.1000000238419,1,1,1639.3999999761581
B5t66gVi,3fk4g712o0duz4m7qhicsa7sfszsso,304sm51wa7hx523z6x1jr5tkgkosbq,B5t66gVi,2020-0188,2021-11-01,00:19:11,01:54:19,NA,incomplete,true,NA,true,NA,0,7,NA,NA,NA,left,NA,NA,NA,absent,NA,NA,m_s_014.jpg,gray,m_s_115.jpg,gray,within,NA,NaN,NA,NA,NA,NA,left,8439.199999988079,1,0,1911.199999988079
B5t66gVi,3fk4g712o0duz4m7qhicsa7sfszsso,304sm51wa7hx523z6x1jr5tkgkosbq,B5t66gVi,2020-0188,2021-11-01,00:19:11,01:54:19,NA,incomplete,true,NA,true,NA,0,8,NA,NA,NA,left,NA,NA,NA,absent,NA,NA,m_s_095.jpg,black,m_s_100.jpg,black,within,NA,NaN,NA,NA,NA,NA,left,2135.199999988079,1,2,1847.300000011921
B5t66gVi,3fk4g712o0duz4m7qhicsa7sfszsso,304sm51wa7hx523z6x1jr5tkgkosbq,B5t66gVi,2020-0188,2021-11-01,00:19:11,01:54:19,NA,incomplete,true,NA,true,NA,0,9,NA,NA,NA,left,NA,NA,NA,absent,NA,NA,m_l_087.jpg,orange,m_l_060.jpg,black,between,NA,NaN,NA,NA,NA,NA,left,2079.300000011921,1,3,1327.5
B5t66gVi,3fk4g712o0duz4m7qhicsa7sfszsso,304sm51wa7hx523z6x1jr5tkgkosbq,B5t66gVi,2020-0188,2021-11-01,00:19:11,01:54:19,NA,incomplete,true,NA,true,NA,0,10,NA,NA,NA,right,NA,NA,NA,absent,NA,NA,n_l_043.jpg,red,n_s_062.jpg,yellow,between,NA,NaN,NA,NA,NA,NA,right,12591.299999952316,1,1,1599.1000000238419
B5t66gVi,3fk4g712o0duz4m7qhicsa7sfszsso,304sm51wa7hx523z6x1jr5tkgkosbq,B5t66gVi,2020-0188,2021-11-01,00:19:11,01:54:19,NA,incomplete,false,true,NA,NA,1,0,NA,white,n_s_051.jpg,NA,NA,NA,NA,NA,unpleasant,pleasant,NA,NA,NA,NA,NA,right,2669.59999996424,true,NA,NA,NA,NA,NA,NA,NA,NA
B5t66gVi,3fk4g712o0duz4m7qhicsa7sfszsso,304sm51wa7hx523z6x1jr5tkgkosbq,B5t66gVi,2020-0188,2021-11-01,00:19:11,01:54:19,NA,incomplete,false,true,NA,NA,1,1,NA,white,m_l_095.jpg,NA,NA,NA,NA,NA,pleasant,unpleasant,NA,NA,NA,NA,NA,left,1505.69999998808,true,NA,NA,NA,NA,NA,NA,NA,NA
B5t66gVi,3fk4g712o0duz4m7qhicsa7sfszsso,304sm51wa7hx523z6x1jr5tkgkosbq,B5t66gVi,2020-0188,2021-11-01,00:19:11,01:54:19,NA,incomplete,false,true,NA,NA,1,2,NA,white,n_s_019.jpg,NA,NA,NA,NA,NA,unpleasant,pleasant,NA,NA,NA,NA,NA,right,1213.60000002384,true,NA,NA,NA,NA,NA,NA,NA,NA
B5t66gVi,3fk4g712o0duz4m7qhicsa7sfszsso,304sm51wa7hx523z6x1jr5tkgkosbq,B5t66gVi,2020-0188,2021-11-01,00:19:11,01:54:19,NA,incomplete,false,true,NA,NA,1,3,NA,white,n_s_018.jpg,NA,NA,NA,NA,NA,unpleasant,pleasant,NA,NA,NA,NA,NA,right,1354.19999998808,true,NA,NA,NA,NA,NA,NA,NA,NA
B5t66gVi,3fk4g712o0duz4m7qhicsa7sfszsso,304sm51wa7hx523z6x1jr5tkgkosbq,B5t66gVi,2020-0188,2021-11-01,00:19:11,01:54:19,NA,incomplete,false,true,NA,NA,1,4,NA,white,m_l_044.jpg,NA,NA,NA,NA,NA,pleasant,unpleasant,NA,NA,NA,NA,NA,left,950.400000035763,true,NA,NA,NA,NA,NA,NA,NA,NA
B5t66gVi,3fk4g712o0duz4m7qhicsa7sfszsso,304sm51wa7hx523z6x1jr5tkgkosbq,B5t66gVi,2020-0188,2021-11-01,00:19:11,01:54:19,NA,incomplete,false,true,NA,NA,1,5,NA,white,m_s_076.jpg,NA,NA,NA,NA,NA,unpleasant,pleasant,NA,NA,NA,NA,NA,right,1121.60000002384,true,NA,NA,NA,NA,NA,NA,NA,NA
B5t66gVi,3fk4g712o0duz4m7qhicsa7sfszsso,304sm51wa7hx523z6x1jr5tkgkosbq,B5t66gVi,2020-0188,2021-11-01,00:19:11,01:54:19,NA,incomplete,false,true,NA,NA,1,6,NA,gray,n_l_028.jpg,NA,NA,NA,NA,NA,unpleasant,pleasant,NA,NA,NA,NA,NA,right,726.699999988079,true,NA,NA,NA,NA,NA,NA,NA,NA
B5t66gVi,3fk4g712o0duz4m7qhicsa7sfszsso,304sm51wa7hx523z6x1jr5tkgkosbq,B5t66gVi,2020-0188,2021-11-01,00:19:11,01:54:19,NA,incomplete,false,true,NA,NA,1,7,NA,gray,n_l_076.jpg,NA,NA,NA,NA,NA,pleasant,unpleasant,NA,NA,NA,NA,NA,left,1035.39999997616,true,NA,NA,NA,NA,NA,NA,NA,NA
B5t66gVi,3fk4g712o0duz4m7qhicsa7sfszsso,304sm51wa7hx523z6x1jr5tkgkosbq,B5t66gVi,2020-0188,2021-11-01,00:19:11,01:54:19,NA,incomplete,false,true,NA,NA,1,8,NA,gray,m_l_103.jpg,NA,NA,NA,NA,NA,pleasant,unpleasant,NA,NA,NA,NA,NA,left,1287.60000002384,true,NA,NA,NA,NA,NA,NA,NA,NA
B5t66gVi,3fk4g712o0duz4m7qhicsa7sfszsso,304sm51wa7hx523z6x1jr5tkgkosbq,B5t66gVi,2020-0188,2021-11-01,00:19:11,01:54:19,NA,incomplete,false,true,NA,NA,1,9,NA,gray,n_s_057.jpg,NA,NA,NA,NA,NA,pleasant,unpleasant,NA,NA,NA,NA,NA,left,1179.59999996424,true,NA,NA,NA,NA,NA,NA,NA,NA
B5t66gVi,3fk4g712o0duz4m7qhicsa7sfszsso,304sm51wa7hx523z6x1jr5tkgkosbq,B5t66gVi,2020-0188,2021-11-01,00:19:11,01:54:19,NA,incomplete,false,true,NA,NA,1,10,NA,gray,m_s_002.jpg,NA,NA,NA,NA,NA,pleasant,unpleasant,NA,NA,NA,NA,NA,left,752.299999952316,true,NA,NA,NA,NA,NA,NA,NA,NA
B5t66gVi,3fk4g712o0duz4m7qhicsa7sfszsso,304sm51wa7hx523z6x1jr5tkgkosbq,B5t66gVi,2020-0188,2021-11-01,00:19:11,01:54:19,NA,incomplete,false,true,NA,NA,1,11,NA,gray,m_s_025.jpg,NA,NA,NA,NA,NA,pleasant,unpleasant,NA,NA,NA,NA,NA,left,564.100000023842,true,NA,NA,NA,NA,NA,NA,NA,NA
B5t66gVi,3fk4g712o0duz4m7qhicsa7sfszsso,304sm51wa7hx523z6x1jr5tkgkosbq,B5t66gVi,2020-0188,2021-11-01,00:19:11,01:54:19,NA,incomplete,false,true,NA,NA,1,12,NA,black,m_s_071.jpg,NA,NA,NA,NA,NA,pleasant,unpleasant,NA,NA,NA,NA,NA,left,1280.80000001192,true,NA,NA,NA,NA,NA,NA,NA,NA
B5t66gVi,3fk4g712o0duz4m7qhicsa7sfszsso,304sm51wa7hx523z6x1jr5tkgkosbq,B5t66gVi,2020-0188,2021-11-01,00:19:11,01:54:19,NA,incomplete,false,true,NA,NA,1,13,NA,black,n_s_050.jpg,NA,NA,NA,NA,NA,pleasant,unpleasant,NA,NA,NA,NA,NA,left,981.400000035763,true,NA,NA,NA,NA,NA,NA,NA,NA
B5t66gVi,3fk4g712o0duz4m7qhicsa7sfszsso,304sm51wa7hx523z6x1jr5tkgkosbq,B5t66gVi,2020-0188,2021-11-01,00:19:11,01:54:19,NA,incomplete,false,true,NA,NA,1,14,NA,black,n_l_051.jpg,NA,NA,NA,NA,NA,pleasant,unpleasant,NA,NA,NA,NA,NA,left,690.199999988079,true,NA,NA,NA,NA,NA,NA,NA,NA
B5t66gVi,3fk4g712o0duz4m7qhicsa7sfszsso,304sm51wa7hx523z6x1jr5tkgkosbq,B5t66gVi,2020-0188,2021-11-01,00:19:11,01:54:19,NA,incomplete,false,true,NA,NA,1,15,NA,black,n_l_007.jpg,NA,NA,NA,NA,NA,unpleasant,pleasant,NA,NA,NA,NA,NA,right,1030.19999998808,true,NA,NA,NA,NA,NA,NA,NA,NA
B5t66gVi,3fk4g712o0duz4m7qhicsa7sfszsso,304sm51wa7hx523z6x1jr5tkgkosbq,B5t66gVi,2020-0188,2021-11-01,00:19:11,01:54:19,NA,incomplete,false,true,NA,NA,1,16,NA,black,m_s_112.jpg,NA,NA,NA,NA,NA,unpleasant,pleasant,NA,NA,NA,NA,NA,right,754.800000011921,true,NA,NA,NA,NA,NA,NA,NA,NA
B5t66gVi,3fk4g712o0duz4m7qhicsa7sfszsso,304sm51wa7hx523z6x1jr5tkgkosbq,B5t66gVi,2020-0188,2021-11-01,00:19:11,01:54:19,NA,incomplete,false,true,NA,NA,1,17,NA,black,m_l_022.jpg,NA,NA,NA,NA,NA,pleasant,unpleasant,NA,NA,NA,NA,NA,left,783,true,NA,NA,NA,NA,NA,NA,NA,NA
B5t66gVi,3fk4g712o0duz4m7qhicsa7sfszsso,304sm51wa7hx523z6x1jr5tkgkosbq,B5t66gVi,2020-0188,2021-11-01,00:19:11,01:54:19,NA,incomplete,false,true,NA,NA,1,18,NA,blue,n_l_111.jpg,NA,NA,NA,NA,NA,pleasant,unpleasant,NA,NA,NA,NA,NA,left,691.399999976158,true,NA,NA,NA,NA,NA,NA,NA,NA
B5t66gVi,3fk4g712o0duz4m7qhicsa7sfszsso,304sm51wa7hx523z6x1jr5tkgkosbq,B5t66gVi,2020-0188,2021-11-01,00:19:11,01:54:19,NA,incomplete,false,true,NA,NA,1,19,NA,blue,n_s_098.jpg,NA,NA,NA,NA,NA,unpleasant,pleasant,NA,NA,NA,NA,NA,right,767.300000011921,true,NA,NA,NA,NA,NA,NA,NA,NA
B5t66gVi,3fk4g712o0duz4m7qhicsa7sfszsso,304sm51wa7hx523z6x1jr5tkgkosbq,B5t66gVi,2020-0188,2021-11-01,00:19:11,01:54:19,NA,incomplete,false,true,NA,NA,1,20,NA,blue,m_l_053.jpg,NA,NA,NA,NA,NA,pleasant,unpleasant,NA,NA,NA,NA,NA,left,755.400000035763,true,NA,NA,NA,NA,NA,NA,NA,NA
B5t66gVi,3fk4g712o0duz4m7qhicsa7sfszsso,304sm51wa7hx523z6x1jr5tkgkosbq,B5t66gVi,2020-0188,2021-11-01,00:19:11,01:54:19,NA,incomplete,false,true,NA,NA,1,21,NA,blue,n_l_003.jpg,NA,NA,NA,NA,NA,pleasant,unpleasant,NA,NA,NA,NA,NA,left,671.5,true,NA,NA,NA,NA,NA,NA,NA,NA
B5t66gVi,3fk4g712o0duz4m7qhicsa7sfszsso,304sm51wa7hx523z6x1jr5tkgkosbq,B5t66gVi,2020-0188,2021-11-01,00:19:11,01:54:19,NA,incomplete,false,true,NA,NA,1,22,NA,blue,m_l_048.jpg,NA,NA,NA,NA,NA,pleasant,unpleasant,NA,NA,NA,NA,NA,left,1035.40000003576,true,NA,NA,NA,NA,NA,NA,NA,NA
B5t66gVi,3fk4g712o0duz4m7qhicsa7sfszsso,304sm51wa7hx523z6x1jr5tkgkosbq,B5t66gVi,2020-0188,2021-11-01,00:19:11,01:54:19,NA,incomplete,false,true,NA,NA,1,23,NA,blue,m_s_019.jpg,NA,NA,NA,NA,NA,pleasant,unpleasant,NA,NA,NA,NA,NA,left,919.799999952316,true,NA,NA,NA,NA,NA,NA,NA,NA
B5t66gVi,3fk4g712o0duz4m7qhicsa7sfszsso,304sm51wa7hx523z6x1jr5tkgkosbq,B5t66gVi,2020-0188,2021-11-01,00:19:11,01:54:19,NA,incomplete,false,true,NA,NA,1,24,NA,red,n_s_068.jpg,NA,NA,NA,NA,NA,pleasant,unpleasant,NA,NA,NA,NA,NA,left,1051.5,true,NA,NA,NA,NA,NA,NA,NA,NA
B5t66gVi,3fk4g712o0duz4m7qhicsa7sfszsso,304sm51wa7hx523z6x1jr5tkgkosbq,B5t66gVi,2020-0188,2021-11-01,00:19:11,01:54:19,NA,incomplete,false,true,NA,NA,1,25,NA,red,m_l_069.jpg,NA,NA,NA,NA,NA,unpleasant,pleasant,NA,NA,NA,NA,NA,right,919.5,true,NA,NA,NA,NA,NA,NA,NA,NA
B5t66gVi,3fk4g712o0duz4m7qhicsa7sfszsso,304sm51wa7hx523z6x1jr5tkgkosbq,B5t66gVi,2020-0188,2021-11-01,00:19:11,01:54:19,NA,incomplete,false,true,NA,NA,1,26,NA,red,m_s_053.jpg,NA,NA,NA,NA,NA,pleasant,unpleasant,NA,NA,NA,NA,NA,left,859.699999988079,true,NA,NA,NA,NA,NA,NA,NA,NA
B5t66gVi,3fk4g712o0duz4m7qhicsa7sfszsso,304sm51wa7hx523z6x1jr5tkgkosbq,B5t66gVi,2020-0188,2021-11-01,00:19:11,01:54:19,NA,incomplete,false,true,NA,NA,1,27,NA,red,m_s_090.jpg,NA,NA,NA,NA,NA,unpleasant,pleasant,NA,NA,NA,NA,NA,right,951.899999976158,true,NA,NA,NA,NA,NA,NA,NA,NA
B5t66gVi,3fk4g712o0duz4m7qhicsa7sfszsso,304sm51wa7hx523z6x1jr5tkgkosbq,B5t66gVi,2020-0188,2021-11-01,00:19:11,01:54:19,NA,incomplete,false,true,NA,NA,1,28,NA,red,n_s_092.jpg,NA,NA,NA,NA,NA,unpleasant,pleasant,NA,NA,NA,NA,NA,right,1355.80000001192,true,NA,NA,NA,NA,NA,NA,NA,NA
B5t66gVi,3fk4g712o0duz4m7qhicsa7sfszsso,304sm51wa7hx523z6x1jr5tkgkosbq,B5t66gVi,2020-0188,2021-11-01,00:19:11,01:54:19,NA,incomplete,false,true,NA,NA,1,29,NA,red,m_s_008.jpg,NA,NA,NA,NA,NA,pleasant,unpleasant,NA,NA,NA,NA,NA,left,704.300000011921,true,NA,NA,NA,NA,NA,NA,NA,NA
B5t66gVi,3fk4g712o0duz4m7qhicsa7sfszsso,304sm51wa7hx523z6x1jr5tkgkosbq,B5t66gVi,2020-0188,2021-11-01,00:19:11,01:54:19,NA,incomplete,false,true,NA,NA,1,30,NA,orange,m_l_110.jpg,NA,NA,NA,NA,NA,unpleasant,pleasant,NA,NA,NA,NA,NA,right,764,true,NA,NA,NA,NA,NA,NA,NA,NA
B5t66gVi,3fk4g712o0duz4m7qhicsa7sfszsso,304sm51wa7hx523z6x1jr5tkgkosbq,B5t66gVi,2020-0188,2021-11-01,00:19:11,01:54:19,NA,incomplete,false,true,NA,NA,1,31,NA,orange,m_s_037.jpg,NA,NA,NA,NA,NA,unpleasant,pleasant,NA,NA,NA,NA,NA,right,624.600000023842,true,NA,NA,NA,NA,NA,NA,NA,NA
B5t66gVi,3fk4g712o0duz4m7qhicsa7sfszsso,304sm51wa7hx523z6x1jr5tkgkosbq,B5t66gVi,2020-0188,2021-11-01,00:19:11,01:54:19,NA,incomplete,false,true,NA,NA,1,32,NA,orange,m_l_056.jpg,NA,NA,NA,NA,NA,pleasant,unpleasant,NA,NA,NA,NA,NA,left,828.600000023842,true,NA,NA,NA,NA,NA,NA,NA,NA
B5t66gVi,3fk4g712o0duz4m7qhicsa7sfszsso,304sm51wa7hx523z6x1jr5tkgkosbq,B5t66gVi,2020-0188,2021-11-01,00:19:11,01:54:19,NA,incomplete,false,true,NA,NA,1,33,NA,orange,m_s_075.jpg,NA,NA,NA,NA,NA,pleasant,unpleasant,NA,NA,NA,NA,NA,left,737.5,true,NA,NA,NA,NA,NA,NA,NA,NA
B5t66gVi,3fk4g712o0duz4m7qhicsa7sfszsso,304sm51wa7hx523z6x1jr5tkgkosbq,B5t66gVi,2020-0188,2021-11-01,00:19:11,01:54:19,NA,incomplete,false,true,NA,NA,1,34,NA,orange,m_l_052.jpg,NA,NA,NA,NA,NA,pleasant,unpleasant,NA,NA,NA,NA,NA,left,757.400000035763,true,NA,NA,NA,NA,NA,NA,NA,NA
B5t66gVi,3fk4g712o0duz4m7qhicsa7sfszsso,304sm51wa7hx523z6x1jr5tkgkosbq,B5t66gVi,2020-0188,2021-11-01,00:19:11,01:54:19,NA,incomplete,false,true,NA,NA,1,35,NA,orange,n_s_110.jpg,NA,NA,NA,NA,NA,pleasant,unpleasant,NA,NA,NA,NA,NA,left,721.399999976158,true,NA,NA,NA,NA,NA,NA,NA,NA
B5t66gVi,3fk4g712o0duz4m7qhicsa7sfszsso,304sm51wa7hx523z6x1jr5tkgkosbq,B5t66gVi,2020-0188,2021-11-01,00:19:11,01:54:19,NA,incomplete,false,NA,NA,true,1,0,NA,NA,NA,right,m_l_048.jpg,black,blue,NA,NA,NA,NA,NA,NA,NA,NA,NA,NaN,NA,1583.300000011921,right,1,NA,NA,NA,NA,NA
B5t66gVi,3fk4g712o0duz4m7qhicsa7sfszsso,304sm51wa7hx523z6x1jr5tkgkosbq,B5t66gVi,2020-0188,2021-11-01,00:19:11,01:54:19,NA,incomplete,false,NA,NA,true,1,1,NA,NA,NA,left,n_s_098.jpg,blue,black,NA,NA,NA,NA,NA,NA,NA,NA,NA,NaN,NA,2135.599999964237,left,1,NA,NA,NA,NA,NA
B5t66gVi,3fk4g712o0duz4m7qhicsa7sfszsso,304sm51wa7hx523z6x1jr5tkgkosbq,B5t66gVi,2020-0188,2021-11-01,00:19:11,01:54:19,NA,incomplete,false,NA,NA,true,1,2,NA,NA,NA,right,m_l_095.jpg,gray,white,NA,NA,NA,NA,NA,NA,NA,NA,NA,NaN,NA,1919.6000000238419,left,0,NA,NA,NA,NA,NA
B5t66gVi,3fk4g712o0duz4m7qhicsa7sfszsso,304sm51wa7hx523z6x1jr5tkgkosbq,B5t66gVi,2020-0188,2021-11-01,00:19:11,01:54:19,NA,incomplete,false,NA,NA,true,1,3,NA,NA,NA,right,m_l_069.jpg,blue,red,NA,NA,NA,NA,NA,NA,NA,NA,NA,NaN,NA,3359.300000011921,right,1,NA,NA,NA,NA,NA
B5t66gVi,3fk4g712o0duz4m7qhicsa7sfszsso,304sm51wa7hx523z6x1jr5tkgkosbq,B5t66gVi,2020-0188,2021-11-01,00:19:11,01:54:19,NA,incomplete,false,NA,NA,true,1,4,NA,NA,NA,right,m_s_002.jpg,white,gray,NA,NA,NA,NA,NA,NA,NA,NA,NA,NaN,NA,3623.5,right,1,NA,NA,NA,NA,NA
B5t66gVi,3fk4g712o0duz4m7qhicsa7sfszsso,304sm51wa7hx523z6x1jr5tkgkosbq,B5t66gVi,2020-0188,2021-11-01,00:19:11,01:54:19,NA,incomplete,false,NA,NA,true,1,5,NA,NA,NA,right,m_s_112.jpg,gray,black,NA,NA,NA,NA,NA,NA,NA,NA,NA,NaN,NA,1576,left,0,NA,NA,NA,NA,NA
B5t66gVi,3fk4g712o0duz4m7qhicsa7sfszsso,304sm51wa7hx523z6x1jr5tkgkosbq,B5t66gVi,2020-0188,2021-11-01,00:19:11,01:54:19,NA,incomplete,false,NA,NA,true,1,6,NA,NA,NA,right,n_l_051.jpg,gray,black,NA,NA,NA,NA,NA,NA,NA,NA,NA,NaN,NA,1903.3999999761581,right,1,NA,NA,NA,NA,NA
B5t66gVi,3fk4g712o0duz4m7qhicsa7sfszsso,304sm51wa7hx523z6x1jr5tkgkosbq,B5t66gVi,2020-0188,2021-11-01,00:19:11,01:54:19,NA,incomplete,false,NA,NA,true,1,7,NA,NA,NA,left,m_s_037.jpg,orange,red,NA,NA,NA,NA,NA,NA,NA,NA,NA,NaN,NA,2735.2000000476837,right,0,NA,NA,NA,NA,NA
B5t66gVi,3fk4g712o0duz4m7qhicsa7sfszsso,304sm51wa7hx523z6x1jr5tkgkosbq,B5t66gVi,2020-0188,2021-11-01,00:19:11,01:54:19,NA,incomplete,false,NA,NA,true,1,8,NA,NA,NA,left,m_l_022.jpg,black,gray,NA,NA,NA,NA,NA,NA,NA,NA,NA,NaN,NA,1703.5999999642372,left,1,NA,NA,NA,NA,NA
B5t66gVi,3fk4g712o0duz4m7qhicsa7sfszsso,304sm51wa7hx523z6x1jr5tkgkosbq,B5t66gVi,2020-0188,2021-11-01,00:19:11,01:54:19,NA,incomplete,false,NA,NA,true,1,9,NA,NA,NA,left,m_s_025.jpg,gray,white,NA,NA,NA,NA,NA,NA,NA,NA,NA,NaN,NA,3087.099999964237,right,0,NA,NA,NA,NA,NA
B5t66gVi,3fk4g712o0duz4m7qhicsa7sfszsso,304sm51wa7hx523z6x1jr5tkgkosbq,B5t66gVi,2020-0188,2021-11-01,00:19:11,01:54:19,NA,incomplete,false,NA,NA,true,1,10,NA,NA,NA,left,m_l_053.jpg,blue,red,NA,NA,NA,NA,NA,NA,NA,NA,NA,NaN,NA,2871.199999988079,left,1,NA,NA,NA,NA,NA
B5t66gVi,3fk4g712o0duz4m7qhicsa7sfszsso,304sm51wa7hx523z6x1jr5tkgkosbq,B5t66gVi,2020-0188,2021-11-01,00:19:11,01:54:19,NA,incomplete,false,NA,NA,true,1,11,NA,NA,NA,right,n_s_050.jpg,blue,black,NA,NA,NA,NA,NA,NA,NA,NA,NA,NaN,NA,1943.6000000238419,right,1,NA,NA,NA,NA,NA
B5t66gVi,3fk4g712o0duz4m7qhicsa7sfszsso,304sm51wa7hx523z6x1jr5tkgkosbq,B5t66gVi,2020-0188,2021-11-01,00:19:11,01:54:19,NA,incomplete,false,NA,NA,true,1,12,NA,NA,NA,right,m_s_019.jpg,red,blue,NA,NA,NA,NA,NA,NA,NA,NA,NA,NaN,NA,3303.300000011921,left,0,NA,NA,NA,NA,NA
B5t66gVi,3fk4g712o0duz4m7qhicsa7sfszsso,304sm51wa7hx523z6x1jr5tkgkosbq,B5t66gVi,2020-0188,2021-11-01,00:19:11,01:54:19,NA,incomplete,false,NA,NA,true,1,13,NA,NA,NA,left,m_s_053.jpg,red,orange,NA,NA,NA,NA,NA,NA,NA,NA,NA,NaN,NA,2535.199999988079,left,1,NA,NA,NA,NA,NA
B5t66gVi,3fk4g712o0duz4m7qhicsa7sfszsso,304sm51wa7hx523z6x1jr5tkgkosbq,B5t66gVi,2020-0188,2021-11-01,00:19:11,01:54:19,NA,incomplete,false,NA,NA,true,1,14,NA,NA,NA,left,m_l_103.jpg,gray,black,NA,NA,NA,NA,NA,NA,NA,NA,NA,NaN,NA,3935.600000023842,left,1,NA,NA,NA,NA,NA
B5t66gVi,3fk4g712o0duz4m7qhicsa7sfszsso,304sm51wa7hx523z6x1jr5tkgkosbq,B5t66gVi,2020-0188,2021-11-01,00:19:11,01:54:19,NA,incomplete,false,NA,NA,true,1,15,NA,NA,NA,left,m_s_076.jpg,white,gray,NA,NA,NA,NA,NA,NA,NA,NA,NA,NaN,NA,1991.5,left,1,NA,NA,NA,NA,NA
B5t66gVi,3fk4g712o0duz4m7qhicsa7sfszsso,304sm51wa7hx523z6x1jr5tkgkosbq,B5t66gVi,2020-0188,2021-11-01,00:19:11,01:54:19,NA,incomplete,false,NA,NA,true,1,16,NA,NA,NA,right,m_l_056.jpg,red,orange,NA,NA,NA,NA,NA,NA,NA,NA,NA,NaN,NA,2919.5,left,0,NA,NA,NA,NA,NA
B5t66gVi,3fk4g712o0duz4m7qhicsa7sfszsso,304sm51wa7hx523z6x1jr5tkgkosbq,B5t66gVi,2020-0188,2021-11-01,00:19:11,01:54:19,NA,incomplete,false,NA,NA,true,1,17,NA,NA,NA,left,n_l_076.jpg,gray,white,NA,NA,NA,NA,NA,NA,NA,NA,NA,NaN,NA,4927.199999988079,right,0,NA,NA,NA,NA,NA
B5t66gVi,3fk4g712o0duz4m7qhicsa7sfszsso,304sm51wa7hx523z6x1jr5tkgkosbq,B5t66gVi,2020-0188,2021-11-01,00:19:11,01:54:19,NA,incomplete,false,NA,NA,true,1,18,NA,NA,NA,left,n_s_092.jpg,red,blue,NA,NA,NA,NA,NA,NA,NA,NA,NA,NaN,NA,2487.400000035763,left,1,NA,NA,NA,NA,NA
B5t66gVi,3fk4g712o0duz4m7qhicsa7sfszsso,304sm51wa7hx523z6x1jr5tkgkosbq,B5t66gVi,2020-0188,2021-11-01,00:19:11,01:54:19,NA,incomplete,false,NA,NA,true,1,19,NA,NA,NA,right,m_l_044.jpg,gray,white,NA,NA,NA,NA,NA,NA,NA,NA,NA,NaN,NA,4895.200000047684,left,0,NA,NA,NA,NA,NA
B5t66gVi,3fk4g712o0duz4m7qhicsa7sfszsso,304sm51wa7hx523z6x1jr5tkgkosbq,B5t66gVi,2020-0188,2021-11-01,00:19:11,01:54:19,NA,incomplete,false,NA,NA,true,1,20,NA,NA,NA,right,n_s_110.jpg,red,orange,NA,NA,NA,NA,NA,NA,NA,NA,NA,NaN,NA,3543,left,0,NA,NA,NA,NA,NA
B5t66gVi,3fk4g712o0duz4m7qhicsa7sfszsso,304sm51wa7hx523z6x1jr5tkgkosbq,B5t66gVi,2020-0188,2021-11-01,00:19:11,01:54:19,NA,incomplete,false,NA,NA,true,1,21,NA,NA,NA,right,m_s_008.jpg,orange,red,NA,NA,NA,NA,NA,NA,NA,NA,NA,NaN,NA,9687.5,left,0,NA,NA,NA,NA,NA
B5t66gVi,3fk4g712o0duz4m7qhicsa7sfszsso,304sm51wa7hx523z6x1jr5tkgkosbq,B5t66gVi,2020-0188,2021-11-01,00:19:11,01:54:19,NA,incomplete,false,NA,true,NA,1,0,NA,NA,NA,left,NA,NA,NA,absent,NA,NA,m_l_069.jpg,red,m_s_008.jpg,red,within,NA,NaN,NA,NA,NA,NA,right,3743.300000011921,0,2,8751
B5t66gVi,3fk4g712o0duz4m7qhicsa7sfszsso,304sm51wa7hx523z6x1jr5tkgkosbq,B5t66gVi,2020-0188,2021-11-01,00:19:11,01:54:19,NA,incomplete,false,NA,true,NA,1,1,NA,NA,NA,left,NA,NA,NA,absent,NA,NA,m_s_037.jpg,orange,n_s_110.jpg,orange,within,NA,NaN,NA,NA,NA,NA,left,2982.800000011921,1,2,1695.1000000238419
B5t66gVi,3fk4g712o0duz4m7qhicsa7sfszsso,304sm51wa7hx523z6x1jr5tkgkosbq,B5t66gVi,2020-0188,2021-11-01,00:19:11,01:54:19,NA,incomplete,false,NA,true,NA,1,2,NA,NA,NA,left,NA,NA,NA,absent,NA,NA,n_l_076.jpg,gray,m_s_025.jpg,gray,within,NA,NaN,NA,NA,NA,NA,left,3383.099999964237,1,1,1671.3999999761581
B5t66gVi,3fk4g712o0duz4m7qhicsa7sfszsso,304sm51wa7hx523z6x1jr5tkgkosbq,B5t66gVi,2020-0188,2021-11-01,00:19:11,01:54:19,NA,incomplete,false,NA,true,NA,1,3,NA,NA,NA,right,NA,NA,NA,absent,NA,NA,m_l_022.jpg,black,n_s_050.jpg,black,within,NA,NaN,NA,NA,NA,NA,left,2470.599999964237,0,0,2199.5
B5t66gVi,3fk4g712o0duz4m7qhicsa7sfszsso,304sm51wa7hx523z6x1jr5tkgkosbq,B5t66gVi,2020-0188,2021-11-01,00:19:11,01:54:19,NA,incomplete,false,NA,true,NA,1,4,NA,NA,NA,right,NA,NA,NA,absent,NA,NA,m_l_103.jpg,gray,m_l_044.jpg,white,between,NA,NaN,NA,NA,NA,NA,left,3863.5,0,1,1127.300000011921
B5t66gVi,3fk4g712o0duz4m7qhicsa7sfszsso,304sm51wa7hx523z6x1jr5tkgkosbq,B5t66gVi,2020-0188,2021-11-01,00:19:11,01:54:19,NA,incomplete,false,NA,true,NA,1,5,NA,NA,NA,right,NA,NA,NA,absent,NA,NA,m_l_053.jpg,blue,m_s_112.jpg,black,between,NA,NaN,NA,NA,NA,NA,left,2871.5,0,1,2344
B5t66gVi,3fk4g712o0duz4m7qhicsa7sfszsso,304sm51wa7hx523z6x1jr5tkgkosbq,B5t66gVi,2020-0188,2021-11-01,00:19:11,01:54:19,NA,incomplete,false,NA,true,NA,1,6,NA,NA,NA,left,NA,NA,NA,absent,NA,NA,m_s_002.jpg,gray,n_l_051.jpg,black,between,NA,NaN,NA,NA,NA,NA,right,3087.699999988079,0,2,2135.399999976158
B5t66gVi,3fk4g712o0duz4m7qhicsa7sfszsso,304sm51wa7hx523z6x1jr5tkgkosbq,B5t66gVi,2020-0188,2021-11-01,00:19:11,01:54:19,NA,incomplete,false,NA,true,NA,1,7,NA,NA,NA,right,NA,NA,NA,absent,NA,NA,m_s_053.jpg,red,m_l_048.jpg,blue,between,NA,NaN,NA,NA,NA,NA,left,4087.199999988079,0,1,1511
B5t66gVi,3fk4g712o0duz4m7qhicsa7sfszsso,304sm51wa7hx523z6x1jr5tkgkosbq,B5t66gVi,2020-0188,2021-11-01,00:19:11,01:54:19,NA,incomplete,false,NA,true,NA,1,8,NA,NA,NA,right,NA,NA,NA,absent,NA,NA,m_s_019.jpg,blue,n_s_098.jpg,blue,within,NA,NaN,NA,NA,NA,NA,left,2014.800000011921,0,2,1359.5
B5t66gVi,3fk4g712o0duz4m7qhicsa7sfszsso,304sm51wa7hx523z6x1jr5tkgkosbq,B5t66gVi,2020-0188,2021-11-01,00:19:11,01:54:19,NA,incomplete,false,NA,true,NA,1,9,NA,NA,NA,right,NA,NA,NA,absent,NA,NA,m_l_056.jpg,orange,n_s_092.jpg,red,between,NA,NaN,NA,NA,NA,NA,right,2807.399999976158,1,0,1295.5999999642372
B5t66gVi,3fk4g712o0duz4m7qhicsa7sfszsso,304sm51wa7hx523z6x1jr5tkgkosbq,B5t66gVi,2020-0188,2021-11-01,00:19:11,01:54:19,NA,incomplete,false,NA,true,NA,1,10,NA,NA,NA,right,NA,NA,NA,absent,NA,NA,m_s_076.jpg,white,m_l_095.jpg,white,within,NA,NaN,NA,NA,NA,NA,right,2095.199999988079,1,0,1695.3999999761581
B5t66gVi,3fk4g712o0duz4m7qhicsa7sfszsso,304sm51wa7hx523z6x1jr5tkgkosbq,B5t66gVi,2020-0188,2021-11-01,00:19:11,01:54:19,NA,incomplete,false,true,NA,NA,2,0,NA,black,m_l_055.jpg,NA,NA,NA,NA,NA,pleasant,unpleasant,NA,NA,NA,NA,NA,right,2077.69999998808,true,NA,NA,NA,NA,NA,NA,NA,NA
B5t66gVi,3fk4g712o0duz4m7qhicsa7sfszsso,304sm51wa7hx523z6x1jr5tkgkosbq,B5t66gVi,2020-0188,2021-11-01,00:19:11,01:54:19,NA,incomplete,false,true,NA,NA,2,1,NA,black,n_l_008.jpg,NA,NA,NA,NA,NA,pleasant,unpleasant,NA,NA,NA,NA,NA,left,1178.39999997616,true,NA,NA,NA,NA,NA,NA,NA,NA
B5t66gVi,3fk4g712o0duz4m7qhicsa7sfszsso,304sm51wa7hx523z6x1jr5tkgkosbq,B5t66gVi,2020-0188,2021-11-01,00:19:11,01:54:19,NA,incomplete,false,true,NA,NA,2,2,NA,black,m_s_070.jpg,NA,NA,NA,NA,NA,pleasant,unpleasant,NA,NA,NA,NA,NA,left,855.099999964237,true,NA,NA,NA,NA,NA,NA,NA,NA
B5t66gVi,3fk4g712o0duz4m7qhicsa7sfszsso,304sm51wa7hx523z6x1jr5tkgkosbq,B5t66gVi,2020-0188,2021-11-01,00:19:11,01:54:19,NA,incomplete,false,true,NA,NA,2,3,NA,black,n_s_085.jpg,NA,NA,NA,NA,NA,unpleasant,pleasant,NA,NA,NA,NA,NA,right,1547.40000003576,true,NA,NA,NA,NA,NA,NA,NA,NA
B5t66gVi,3fk4g712o0duz4m7qhicsa7sfszsso,304sm51wa7hx523z6x1jr5tkgkosbq,B5t66gVi,2020-0188,2021-11-01,00:19:11,01:54:19,NA,incomplete,false,true,NA,NA,2,4,NA,black,n_s_078.jpg,NA,NA,NA,NA,NA,unpleasant,pleasant,NA,NA,NA,NA,NA,right,1455.40000003576,true,NA,NA,NA,NA,NA,NA,NA,NA
B5t66gVi,3fk4g712o0duz4m7qhicsa7sfszsso,304sm51wa7hx523z6x1jr5tkgkosbq,B5t66gVi,2020-0188,2021-11-01,00:19:11,01:54:19,NA,incomplete,false,true,NA,NA,2,5,NA,black,n_l_001.jpg,NA,NA,NA,NA,NA,unpleasant,pleasant,NA,NA,NA,NA,NA,right,1179.69999998808,true,NA,NA,NA,NA,NA,NA,NA,NA
B5t66gVi,3fk4g712o0duz4m7qhicsa7sfszsso,304sm51wa7hx523z6x1jr5tkgkosbq,B5t66gVi,2020-0188,2021-11-01,00:19:11,01:54:19,NA,incomplete,false,true,NA,NA,2,6,NA,red,m_l_003.jpg,NA,NA,NA,NA,NA,pleasant,unpleasant,NA,NA,NA,NA,NA,left,1056.30000001192,true,NA,NA,NA,NA,NA,NA,NA,NA
B5t66gVi,3fk4g712o0duz4m7qhicsa7sfszsso,304sm51wa7hx523z6x1jr5tkgkosbq,B5t66gVi,2020-0188,2021-11-01,00:19:11,01:54:19,NA,incomplete,false,true,NA,NA,2,7,NA,red,n_s_015.jpg,NA,NA,NA,NA,NA,unpleasant,pleasant,NA,NA,NA,NA,NA,right,812.199999988079,true,NA,NA,NA,NA,NA,NA,NA,NA
B5t66gVi,3fk4g712o0duz4m7qhicsa7sfszsso,304sm51wa7hx523z6x1jr5tkgkosbq,B5t66gVi,2020-0188,2021-11-01,00:19:11,01:54:19,NA,incomplete,false,true,NA,NA,2,8,NA,red,n_l_039.jpg,NA,NA,NA,NA,NA,pleasant,unpleasant,NA,NA,NA,NA,NA,left,753.300000011921,true,NA,NA,NA,NA,NA,NA,NA,NA
B5t66gVi,3fk4g712o0duz4m7qhicsa7sfszsso,304sm51wa7hx523z6x1jr5tkgkosbq,B5t66gVi,2020-0188,2021-11-01,00:19:11,01:54:19,NA,incomplete,false,true,NA,NA,2,9,NA,red,m_s_036.jpg,NA,NA,NA,NA,NA,unpleasant,pleasant,NA,NA,NA,NA,NA,right,1005.30000001192,true,NA,NA,NA,NA,NA,NA,NA,NA
B5t66gVi,3fk4g712o0duz4m7qhicsa7sfszsso,304sm51wa7hx523z6x1jr5tkgkosbq,B5t66gVi,2020-0188,2021-11-01,00:19:11,01:54:19,NA,incomplete,false,true,NA,NA,2,10,NA,red,n_s_010.jpg,NA,NA,NA,NA,NA,pleasant,unpleasant,NA,NA,NA,NA,NA,right,1720.80000001192,true,NA,NA,NA,NA,NA,NA,NA,NA
B5t66gVi,3fk4g712o0duz4m7qhicsa7sfszsso,304sm51wa7hx523z6x1jr5tkgkosbq,B5t66gVi,2020-0188,2021-11-01,00:19:11,01:54:19,NA,incomplete,false,true,NA,NA,2,11,NA,red,n_l_013.jpg,NA,NA,NA,NA,NA,unpleasant,pleasant,NA,NA,NA,NA,NA,right,788.900000035763,true,NA,NA,NA,NA,NA,NA,NA,NA
B5t66gVi,3fk4g712o0duz4m7qhicsa7sfszsso,304sm51wa7hx523z6x1jr5tkgkosbq,B5t66gVi,2020-0188,2021-11-01,00:19:11,01:54:19,NA,incomplete,false,true,NA,NA,2,12,NA,yellow,n_l_025.jpg,NA,NA,NA,NA,NA,unpleasant,pleasant,NA,NA,NA,NA,NA,right,768.900000035763,true,NA,NA,NA,NA,NA,NA,NA,NA
B5t66gVi,3fk4g712o0duz4m7qhicsa7sfszsso,304sm51wa7hx523z6x1jr5tkgkosbq,B5t66gVi,2020-0188,2021-11-01,00:19:11,01:54:19,NA,incomplete,false,true,NA,NA,2,13,NA,yellow,m_l_059.jpg,NA,NA,NA,NA,NA,pleasant,unpleasant,NA,NA,NA,NA,NA,left,869,true,NA,NA,NA,NA,NA,NA,NA,NA
B5t66gVi,3fk4g712o0duz4m7qhicsa7sfszsso,304sm51wa7hx523z6x1jr5tkgkosbq,B5t66gVi,2020-0188,2021-11-01,00:19:11,01:54:19,NA,incomplete,false,true,NA,NA,2,14,NA,yellow,m_l_050.jpg,NA,NA,NA,NA,NA,unpleasant,pleasant,NA,NA,NA,NA,NA,right,1000.89999997616,true,NA,NA,NA,NA,NA,NA,NA,NA
B5t66gVi,3fk4g712o0duz4m7qhicsa7sfszsso,304sm51wa7hx523z6x1jr5tkgkosbq,B5t66gVi,2020-0188,2021-11-01,00:19:11,01:54:19,NA,incomplete,false,true,NA,NA,2,15,NA,yellow,m_l_007.jpg,NA,NA,NA,NA,NA,unpleasant,pleasant,NA,NA,NA,NA,NA,right,829.100000023842,true,NA,NA,NA,NA,NA,NA,NA,NA
B5t66gVi,3fk4g712o0duz4m7qhicsa7sfszsso,304sm51wa7hx523z6x1jr5tkgkosbq,B5t66gVi,2020-0188,2021-11-01,00:19:11,01:54:19,NA,incomplete,false,true,NA,NA,2,16,NA,yellow,m_s_010.jpg,NA,NA,NA,NA,NA,unpleasant,pleasant,NA,NA,NA,NA,NA,right,1585.69999998808,true,NA,NA,NA,NA,NA,NA,NA,NA
B5t66gVi,3fk4g712o0duz4m7qhicsa7sfszsso,304sm51wa7hx523z6x1jr5tkgkosbq,B5t66gVi,2020-0188,2021-11-01,00:19:11,01:54:19,NA,incomplete,false,true,NA,NA,2,17,NA,yellow,n_s_067.jpg,NA,NA,NA,NA,NA,pleasant,unpleasant,NA,NA,NA,NA,NA,right,934.100000023842,true,NA,NA,NA,NA,NA,NA,NA,NA
B5t66gVi,3fk4g712o0duz4m7qhicsa7sfszsso,304sm51wa7hx523z6x1jr5tkgkosbq,B5t66gVi,2020-0188,2021-11-01,00:19:11,01:54:19,NA,incomplete,false,true,NA,NA,2,18,NA,blue,n_l_062.jpg,NA,NA,NA,NA,NA,pleasant,unpleasant,NA,NA,NA,NA,NA,right,1297.60000002384,true,NA,NA,NA,NA,NA,NA,NA,NA
B5t66gVi,3fk4g712o0duz4m7qhicsa7sfszsso,304sm51wa7hx523z6x1jr5tkgkosbq,B5t66gVi,2020-0188,2021-11-01,00:19:11,01:54:19,NA,incomplete,false,true,NA,NA,2,19,NA,blue,n_l_082.jpg,NA,NA,NA,NA,NA,pleasant,unpleasant,NA,NA,NA,NA,NA,left,1110.60000002384,true,NA,NA,NA,NA,NA,NA,NA,NA
B5t66gVi,3fk4g712o0duz4m7qhicsa7sfszsso,304sm51wa7hx523z6x1jr5tkgkosbq,B5t66gVi,2020-0188,2021-11-01,00:19:11,01:54:19,NA,incomplete,false,true,NA,NA,2,20,NA,blue,m_l_062.jpg,NA,NA,NA,NA,NA,unpleasant,pleasant,NA,NA,NA,NA,NA,right,1083.10000002384,true,NA,NA,NA,NA,NA,NA,NA,NA
B5t66gVi,3fk4g712o0duz4m7qhicsa7sfszsso,304sm51wa7hx523z6x1jr5tkgkosbq,B5t66gVi,2020-0188,2021-11-01,00:19:11,01:54:19,NA,incomplete,false,true,NA,NA,2,21,NA,blue,n_s_007.jpg,NA,NA,NA,NA,NA,pleasant,unpleasant,NA,NA,NA,NA,NA,left,1719.60000002384,true,NA,NA,NA,NA,NA,NA,NA,NA
B5t66gVi,3fk4g712o0duz4m7qhicsa7sfszsso,304sm51wa7hx523z6x1jr5tkgkosbq,B5t66gVi,2020-0188,2021-11-01,00:19:11,01:54:19,NA,incomplete,false,true,NA,NA,2,22,NA,blue,m_s_058.jpg,NA,NA,NA,NA,NA,pleasant,unpleasant,NA,NA,NA,NA,NA,left,1075.5,true,NA,NA,NA,NA,NA,NA,NA,NA
B5t66gVi,3fk4g712o0duz4m7qhicsa7sfszsso,304sm51wa7hx523z6x1jr5tkgkosbq,B5t66gVi,2020-0188,2021-11-01,00:19:11,01:54:19,NA,incomplete,false,true,NA,NA,2,23,NA,blue,n_l_060.jpg,NA,NA,NA,NA,NA,pleasant,unpleasant,NA,NA,NA,NA,NA,left,808.399999976158,true,NA,NA,NA,NA,NA,NA,NA,NA
B5t66gVi,3fk4g712o0duz4m7qhicsa7sfszsso,304sm51wa7hx523z6x1jr5tkgkosbq,B5t66gVi,2020-0188,2021-11-01,00:19:11,01:54:19,NA,incomplete,false,true,NA,NA,2,24,NA,purple,n_l_009.jpg,NA,NA,NA,NA,NA,pleasant,unpleasant,NA,NA,NA,NA,NA,left,725,true,NA,NA,NA,NA,NA,NA,NA,NA
B5t66gVi,3fk4g712o0duz4m7qhicsa7sfszsso,304sm51wa7hx523z6x1jr5tkgkosbq,B5t66gVi,2020-0188,2021-11-01,00:19:11,01:54:19,NA,incomplete,false,true,NA,NA,2,25,NA,purple,n_l_105.jpg,NA,NA,NA,NA,NA,pleasant,unpleasant,NA,NA,NA,NA,NA,right,1353.60000002384,true,NA,NA,NA,NA,NA,NA,NA,NA
B5t66gVi,3fk4g712o0duz4m7qhicsa7sfszsso,304sm51wa7hx523z6x1jr5tkgkosbq,B5t66gVi,2020-0188,2021-11-01,00:19:11,01:54:19,NA,incomplete,false,true,NA,NA,2,26,NA,purple,m_s_024.jpg,NA,NA,NA,NA,NA,pleasant,unpleasant,NA,NA,NA,NA,NA,left,1109.69999998808,true,NA,NA,NA,NA,NA,NA,NA,NA
B5t66gVi,3fk4g712o0duz4m7qhicsa7sfszsso,304sm51wa7hx523z6x1jr5tkgkosbq,B5t66gVi,2020-0188,2021-11-01,00:19:11,01:54:19,NA,incomplete,false,true,NA,NA,2,27,NA,purple,n_l_108.jpg,NA,NA,NA,NA,NA,pleasant,unpleasant,NA,NA,NA,NA,NA,left,738.099999964237,true,NA,NA,NA,NA,NA,NA,NA,NA
B5t66gVi,3fk4g712o0duz4m7qhicsa7sfszsso,304sm51wa7hx523z6x1jr5tkgkosbq,B5t66gVi,2020-0188,2021-11-01,00:19:11,01:54:19,NA,incomplete,false,true,NA,NA,2,28,NA,purple,n_l_088.jpg,NA,NA,NA,NA,NA,unpleasant,pleasant,NA,NA,NA,NA,NA,right,974,true,NA,NA,NA,NA,NA,NA,NA,NA
B5t66gVi,3fk4g712o0duz4m7qhicsa7sfszsso,304sm51wa7hx523z6x1jr5tkgkosbq,B5t66gVi,2020-0188,2021-11-01,00:19:11,01:54:19,NA,incomplete,false,true,NA,NA,2,29,NA,purple,n_l_047.jpg,NA,NA,NA,NA,NA,unpleasant,pleasant,NA,NA,NA,NA,NA,left,1106.29999995232,true,NA,NA,NA,NA,NA,NA,NA,NA
B5t66gVi,3fk4g712o0duz4m7qhicsa7sfszsso,304sm51wa7hx523z6x1jr5tkgkosbq,B5t66gVi,2020-0188,2021-11-01,00:19:11,01:54:19,NA,incomplete,false,true,NA,NA,2,30,NA,white,n_l_017.jpg,NA,NA,NA,NA,NA,unpleasant,pleasant,NA,NA,NA,NA,NA,left,1806,true,NA,NA,NA,NA,NA,NA,NA,NA
B5t66gVi,3fk4g712o0duz4m7qhicsa7sfszsso,304sm51wa7hx523z6x1jr5tkgkosbq,B5t66gVi,2020-0188,2021-11-01,00:19:11,01:54:19,NA,incomplete,false,true,NA,NA,2,31,NA,white,n_s_084.jpg,NA,NA,NA,NA,NA,unpleasant,pleasant,NA,NA,NA,NA,NA,right,1474.19999998808,true,NA,NA,NA,NA,NA,NA,NA,NA
B5t66gVi,3fk4g712o0duz4m7qhicsa7sfszsso,304sm51wa7hx523z6x1jr5tkgkosbq,B5t66gVi,2020-0188,2021-11-01,00:19:11,01:54:19,NA,incomplete,false,true,NA,NA,2,32,NA,white,n_s_113.jpg,NA,NA,NA,NA,NA,unpleasant,pleasant,NA,NA,NA,NA,NA,right,966.599999964237,true,NA,NA,NA,NA,NA,NA,NA,NA
B5t66gVi,3fk4g712o0duz4m7qhicsa7sfszsso,304sm51wa7hx523z6x1jr5tkgkosbq,B5t66gVi,2020-0188,2021-11-01,00:19:11,01:54:19,NA,incomplete,false,true,NA,NA,2,33,NA,white,m_s_004.jpg,NA,NA,NA,NA,NA,unpleasant,pleasant,NA,NA,NA,NA,NA,right,1627,true,NA,NA,NA,NA,NA,NA,NA,NA
B5t66gVi,3fk4g712o0duz4m7qhicsa7sfszsso,304sm51wa7hx523z6x1jr5tkgkosbq,B5t66gVi,2020-0188,2021-11-01,00:19:11,01:54:19,NA,incomplete,false,true,NA,NA,2,34,NA,white,n_l_016.jpg,NA,NA,NA,NA,NA,unpleasant,pleasant,NA,NA,NA,NA,NA,right,1023.39999997616,true,NA,NA,NA,NA,NA,NA,NA,NA
B5t66gVi,3fk4g712o0duz4m7qhicsa7sfszsso,304sm51wa7hx523z6x1jr5tkgkosbq,B5t66gVi,2020-0188,2021-11-01,00:19:11,01:54:19,NA,incomplete,false,true,NA,NA,2,35,NA,white,n_l_065.jpg,NA,NA,NA,NA,NA,unpleasant,pleasant,NA,NA,NA,NA,NA,left,1004,true,NA,NA,NA,NA,NA,NA,NA,NA
B5t66gVi,3fk4g712o0duz4m7qhicsa7sfszsso,304sm51wa7hx523z6x1jr5tkgkosbq,B5t66gVi,2020-0188,2021-11-01,00:19:11,01:54:19,NA,incomplete,false,NA,NA,true,2,0,NA,NA,NA,left,m_s_024.jpg,purple,white,NA,NA,NA,NA,NA,NA,NA,NA,NA,NaN,NA,2191.100000023842,left,1,NA,NA,NA,NA,NA
B5t66gVi,3fk4g712o0duz4m7qhicsa7sfszsso,304sm51wa7hx523z6x1jr5tkgkosbq,B5t66gVi,2020-0188,2021-11-01,00:19:11,01:54:19,NA,incomplete,false,NA,NA,true,2,1,NA,NA,NA,left,m_l_059.jpg,yellow,red,NA,NA,NA,NA,NA,NA,NA,NA,NA,NaN,NA,2423.400000035763,right,0,NA,NA,NA,NA,NA
B5t66gVi,3fk4g712o0duz4m7qhicsa7sfszsso,304sm51wa7hx523z6x1jr5tkgkosbq,B5t66gVi,2020-0188,2021-11-01,00:19:11,01:54:19,NA,incomplete,false,NA,NA,true,2,2,NA,NA,NA,left,n_s_015.jpg,red,yellow,NA,NA,NA,NA,NA,NA,NA,NA,NA,NaN,NA,2383.300000011921,left,1,NA,NA,NA,NA,NA
B5t66gVi,3fk4g712o0duz4m7qhicsa7sfszsso,304sm51wa7hx523z6x1jr5tkgkosbq,B5t66gVi,2020-0188,2021-11-01,00:19:11,01:54:19,NA,incomplete,false,NA,NA,true,2,3,NA,NA,NA,right,n_s_067.jpg,blue,yellow,NA,NA,NA,NA,NA,NA,NA,NA,NA,NaN,NA,1527.1000000238419,left,0,NA,NA,NA,NA,NA
B5t66gVi,3fk4g712o0duz4m7qhicsa7sfszsso,304sm51wa7hx523z6x1jr5tkgkosbq,B5t66gVi,2020-0188,2021-11-01,00:19:11,01:54:19,NA,incomplete,false,NA,NA,true,2,4,NA,NA,NA,right,m_s_058.jpg,yellow,blue,NA,NA,NA,NA,NA,NA,NA,NA,NA,NaN,NA,2046.8999999761581,right,1,NA,NA,NA,NA,NA
B5t66gVi,3fk4g712o0duz4m7qhicsa7sfszsso,304sm51wa7hx523z6x1jr5tkgkosbq,B5t66gVi,2020-0188,2021-11-01,00:19:11,01:54:19,NA,incomplete,false,NA,NA,true,2,5,NA,NA,NA,right,n_l_105.jpg,white,purple,NA,NA,NA,NA,NA,NA,NA,NA,NA,NaN,NA,2743.199999988079,left,0,NA,NA,NA,NA,NA
B5t66gVi,3fk4g712o0duz4m7qhicsa7sfszsso,304sm51wa7hx523z6x1jr5tkgkosbq,B5t66gVi,2020-0188,2021-11-01,00:19:11,01:54:19,NA,incomplete,false,NA,NA,true,2,6,NA,NA,NA,right,n_s_084.jpg,purple,white,NA,NA,NA,NA,NA,NA,NA,NA,NA,NaN,NA,3311.5,right,1,NA,NA,NA,NA,NA
B5t66gVi,3fk4g712o0duz4m7qhicsa7sfszsso,304sm51wa7hx523z6x1jr5tkgkosbq,B5t66gVi,2020-0188,2021-11-01,00:19:11,01:54:19,NA,incomplete,false,NA,NA,true,2,7,NA,NA,NA,right,n_l_039.jpg,black,red,NA,NA,NA,NA,NA,NA,NA,NA,NA,NaN,NA,2599.399999976158,right,1,NA,NA,NA,NA,NA
B5t66gVi,3fk4g712o0duz4m7qhicsa7sfszsso,304sm51wa7hx523z6x1jr5tkgkosbq,B5t66gVi,2020-0188,2021-11-01,00:19:11,01:54:19,NA,incomplete,false,NA,NA,true,2,8,NA,NA,NA,right,n_s_113.jpg,purple,white,NA,NA,NA,NA,NA,NA,NA,NA,NA,NaN,NA,3935.300000011921,right,1,NA,NA,NA,NA,NA
B5t66gVi,3fk4g712o0duz4m7qhicsa7sfszsso,304sm51wa7hx523z6x1jr5tkgkosbq,B5t66gVi,2020-0188,2021-11-01,00:19:11,01:54:19,NA,incomplete,false,NA,NA,true,2,9,NA,NA,NA,right,n_l_001.jpg,red,black,NA,NA,NA,NA,NA,NA,NA,NA,NA,NaN,NA,4031.300000011921,left,0,NA,NA,NA,NA,NA
B5t66gVi,3fk4g712o0duz4m7qhicsa7sfszsso,304sm51wa7hx523z6x1jr5tkgkosbq,B5t66gVi,2020-0188,2021-11-01,00:19:11,01:54:19,NA,incomplete,false,NA,NA,true,2,10,NA,NA,NA,left,n_s_078.jpg,black,red,NA,NA,NA,NA,NA,NA,NA,NA,NA,NaN,NA,2511,right,0,NA,NA,NA,NA,NA
B5t66gVi,3fk4g712o0duz4m7qhicsa7sfszsso,304sm51wa7hx523z6x1jr5tkgkosbq,B5t66gVi,2020-0188,2021-11-01,00:19:11,01:54:19,NA,incomplete,false,NA,NA,true,2,11,NA,NA,NA,right,n_l_047.jpg,white,purple,NA,NA,NA,NA,NA,NA,NA,NA,NA,NaN,NA,1975.4000000357628,left,0,NA,NA,NA,NA,NA
B5t66gVi,3fk4g712o0duz4m7qhicsa7sfszsso,304sm51wa7hx523z6x1jr5tkgkosbq,B5t66gVi,2020-0188,2021-11-01,00:19:11,01:54:19,NA,incomplete,false,NA,NA,true,2,12,NA,NA,NA,left,m_s_010.jpg,yellow,red,NA,NA,NA,NA,NA,NA,NA,NA,NA,NaN,NA,1998.699999988079,right,0,NA,NA,NA,NA,NA
B5t66gVi,3fk4g712o0duz4m7qhicsa7sfszsso,304sm51wa7hx523z6x1jr5tkgkosbq,B5t66gVi,2020-0188,2021-11-01,00:19:11,01:54:19,NA,incomplete,false,NA,NA,true,2,13,NA,NA,NA,right,n_l_013.jpg,yellow,red,NA,NA,NA,NA,NA,NA,NA,NA,NA,NaN,NA,2799.399999976158,right,1,NA,NA,NA,NA,NA
B5t66gVi,3fk4g712o0duz4m7qhicsa7sfszsso,304sm51wa7hx523z6x1jr5tkgkosbq,B5t66gVi,2020-0188,2021-11-01,00:19:11,01:54:19,NA,incomplete,false,NA,NA,true,2,14,NA,NA,NA,left,n_s_010.jpg,red,black,NA,NA,NA,NA,NA,NA,NA,NA,NA,NaN,NA,2823.600000023842,left,1,NA,NA,NA,NA,NA
B5t66gVi,3fk4g712o0duz4m7qhicsa7sfszsso,304sm51wa7hx523z6x1jr5tkgkosbq,B5t66gVi,2020-0188,2021-11-01,00:19:11,01:54:19,NA,incomplete,false,NA,NA,true,2,15,NA,NA,NA,right,n_l_088.jpg,blue,purple,NA,NA,NA,NA,NA,NA,NA,NA,NA,NaN,NA,3265.199999988079,left,0,NA,NA,NA,NA,NA
B5t66gVi,3fk4g712o0duz4m7qhicsa7sfszsso,304sm51wa7hx523z6x1jr5tkgkosbq,B5t66gVi,2020-0188,2021-11-01,00:19:11,01:54:19,NA,incomplete,false,NA,NA,true,2,16,NA,NA,NA,right,m_l_062.jpg,purple,blue,NA,NA,NA,NA,NA,NA,NA,NA,NA,NaN,NA,2423.199999988079,right,1,NA,NA,NA,NA,NA
B5t66gVi,3fk4g712o0duz4m7qhicsa7sfszsso,304sm51wa7hx523z6x1jr5tkgkosbq,B5t66gVi,2020-0188,2021-11-01,00:19:11,01:54:19,NA,incomplete,false,NA,NA,true,2,17,NA,NA,NA,left,n_l_060.jpg,blue,yellow,NA,NA,NA,NA,NA,NA,NA,NA,NA,NaN,NA,1439.699999988079,right,0,NA,NA,NA,NA,NA
B5t66gVi,3fk4g712o0duz4m7qhicsa7sfszsso,304sm51wa7hx523z6x1jr5tkgkosbq,B5t66gVi,2020-0188,2021-11-01,00:19:11,01:54:19,NA,incomplete,false,NA,NA,true,2,18,NA,NA,NA,left,n_l_008.jpg,black,red,NA,NA,NA,NA,NA,NA,NA,NA,NA,NaN,NA,3719.400000035763,right,0,NA,NA,NA,NA,NA
B5t66gVi,3fk4g712o0duz4m7qhicsa7sfszsso,304sm51wa7hx523z6x1jr5tkgkosbq,B5t66gVi,2020-0188,2021-11-01,00:19:11,01:54:19,NA,incomplete,false,NA,NA,true,2,19,NA,NA,NA,right,n_l_065.jpg,purple,white,NA,NA,NA,NA,NA,NA,NA,NA,NA,NaN,NA,2207.600000023842,right,1,NA,NA,NA,NA,NA
B5t66gVi,3fk4g712o0duz4m7qhicsa7sfszsso,304sm51wa7hx523z6x1jr5tkgkosbq,B5t66gVi,2020-0188,2021-11-01,00:19:11,01:54:19,NA,incomplete,false,NA,NA,true,2,20,NA,NA,NA,left,m_l_050.jpg,yellow,blue,NA,NA,NA,NA,NA,NA,NA,NA,NA,NaN,NA,4071.5,left,1,NA,NA,NA,NA,NA
B5t66gVi,3fk4g712o0duz4m7qhicsa7sfszsso,304sm51wa7hx523z6x1jr5tkgkosbq,B5t66gVi,2020-0188,2021-11-01,00:19:11,01:54:19,NA,incomplete,false,NA,NA,true,2,21,NA,NA,NA,right,n_l_082.jpg,yellow,blue,NA,NA,NA,NA,NA,NA,NA,NA,NA,NaN,NA,2783.399999976158,right,1,NA,NA,NA,NA,NA
B5t66gVi,3fk4g712o0duz4m7qhicsa7sfszsso,304sm51wa7hx523z6x1jr5tkgkosbq,B5t66gVi,2020-0188,2021-11-01,00:19:11,01:54:19,NA,incomplete,false,NA,true,NA,2,0,NA,NA,NA,left,NA,NA,NA,absent,NA,NA,n_l_008.jpg,black,n_l_001.jpg,black,within,NA,NaN,NA,NA,NA,NA,right,2046.699999988079,0,1,1446.800000011921
B5t66gVi,3fk4g712o0duz4m7qhicsa7sfszsso,304sm51wa7hx523z6x1jr5tkgkosbq,B5t66gVi,2020-0188,2021-11-01,00:19:11,01:54:19,NA,incomplete,false,NA,true,NA,2,1,NA,NA,NA,right,NA,NA,NA,absent,NA,NA,n_l_013.jpg,red,n_s_015.jpg,red,within,NA,NaN,NA,NA,NA,NA,right,6607.300000011921,1,2,2758.199999988079
B5t66gVi,3fk4g712o0duz4m7qhicsa7sfszsso,304sm51wa7hx523z6x1jr5tkgkosbq,B5t66gVi,2020-0188,2021-11-01,00:19:11,01:54:19,NA,incomplete,false,NA,true,NA,2,2,NA,NA,NA,right,NA,NA,NA,absent,NA,NA,m_l_050.jpg,yellow,n_s_010.jpg,red,between,NA,NaN,NA,NA,NA,NA,left,1614.3999999761581,0,1,1767
B5t66gVi,3fk4g712o0duz4m7qhicsa7sfszsso,304sm51wa7hx523z6x1jr5tkgkosbq,B5t66gVi,2020-0188,2021-11-01,00:19:11,01:54:19,NA,incomplete,false,NA,true,NA,2,3,NA,NA,NA,left,NA,NA,NA,absent,NA,NA,n_l_105.jpg,purple,n_l_047.jpg,purple,within,NA,NaN,NA,NA,NA,NA,right,1575.300000011921,0,0,2599.5
B5t66gVi,3fk4g712o0duz4m7qhicsa7sfszsso,304sm51wa7hx523z6x1jr5tkgkosbq,B5t66gVi,2020-0188,2021-11-01,00:19:11,01:54:19,NA,incomplete,false,NA,true,NA,2,4,NA,NA,NA,right,NA,NA,NA,absent,NA,NA,m_s_024.jpg,purple,m_s_058.jpg,blue,between,NA,NaN,NA,NA,NA,NA,left,1935.300000011921,0,1,2559.300000011921
B5t66gVi,3fk4g712o0duz4m7qhicsa7sfszsso,304sm51wa7hx523z6x1jr5tkgkosbq,B5t66gVi,2020-0188,2021-11-01,00:19:11,01:54:19,NA,incomplete,false,NA,true,NA,2,5,NA,NA,NA,left,NA,NA,NA,absent,NA,NA,m_s_010.jpg,yellow,m_l_062.jpg,blue,between,NA,NaN,NA,NA,NA,NA,right,5191.200000047684,0,1,1759.4000000357628
B5t66gVi,3fk4g712o0duz4m7qhicsa7sfszsso,304sm51wa7hx523z6x1jr5tkgkosbq,B5t66gVi,2020-0188,2021-11-01,00:19:11,01:54:19,NA,incomplete,false,NA,true,NA,2,6,NA,NA,NA,right,NA,NA,NA,absent,NA,NA,n_s_113.jpg,white,n_l_088.jpg,purple,between,NA,NaN,NA,NA,NA,NA,right,2567.5,1,3,3103.300000011921
B5t66gVi,3fk4g712o0duz4m7qhicsa7sfszsso,304sm51wa7hx523z6x1jr5tkgkosbq,B5t66gVi,2020-0188,2021-11-01,00:19:11,01:54:19,NA,incomplete,false,NA,true,NA,2,7,NA,NA,NA,left,NA,NA,NA,absent,NA,NA,m_l_059.jpg,yellow,n_s_067.jpg,yellow,within,NA,NaN,NA,NA,NA,NA,right,4279.300000011921,0,1,1503.4000000357628
B5t66gVi,3fk4g712o0duz4m7qhicsa7sfszsso,304sm51wa7hx523z6x1jr5tkgkosbq,B5t66gVi,2020-0188,2021-11-01,00:19:11,01:54:19,NA,incomplete,false,NA,true,NA,2,8,NA,NA,NA,right,NA,NA,NA,absent,NA,NA,n_l_065.jpg,white,n_s_084.jpg,white,within,NA,NaN,NA,NA,NA,NA,right,1847.5,1,2,2711.099999964237
B5t66gVi,3fk4g712o0duz4m7qhicsa7sfszsso,304sm51wa7hx523z6x1jr5tkgkosbq,B5t66gVi,2020-0188,2021-11-01,00:19:11,01:54:19,NA,incomplete,false,NA,true,NA,2,9,NA,NA,NA,left,NA,NA,NA,absent,NA,NA,n_l_082.jpg,blue,n_l_060.jpg,blue,within,NA,NaN,NA,NA,NA,NA,right,2903.199999988079,0,0,2286.800000011921
B5t66gVi,3fk4g712o0duz4m7qhicsa7sfszsso,304sm51wa7hx523z6x1jr5tkgkosbq,B5t66gVi,2020-0188,2021-11-01,00:19:11,01:54:19,NA,incomplete,false,NA,true,NA,2,10,NA,NA,NA,left,NA,NA,NA,absent,NA,NA,n_s_078.jpg,black,n_l_039.jpg,red,between,NA,NaN,NA,NA,NA,NA,left,9015,1,1,3311.5
B5t66gVi,3fk4g712o0duz4m7qhicsa7sfszsso,304sm51wa7hx523z6x1jr5tkgkosbq,B5t66gVi,2020-0188,2021-11-01,00:19:11,01:54:19,NA,incomplete,false,true,NA,NA,3,0,NA,red,n_s_107.jpg,NA,NA,NA,NA,NA,pleasant,unpleasant,NA,NA,NA,NA,NA,left,1687.19999998808,true,NA,NA,NA,NA,NA,NA,NA,NA
B5t66gVi,3fk4g712o0duz4m7qhicsa7sfszsso,304sm51wa7hx523z6x1jr5tkgkosbq,B5t66gVi,2020-0188,2021-11-01,00:19:11,01:54:19,NA,incomplete,false,true,NA,NA,3,1,NA,red,m_l_068.jpg,NA,NA,NA,NA,NA,pleasant,unpleasant,NA,NA,NA,NA,NA,left,1170.89999997616,true,NA,NA,NA,NA,NA,NA,NA,NA
B5t66gVi,3fk4g712o0duz4m7qhicsa7sfszsso,304sm51wa7hx523z6x1jr5tkgkosbq,B5t66gVi,2020-0188,2021-11-01,00:19:11,01:54:19,NA,incomplete,false,true,NA,NA,3,2,NA,red,m_s_034.jpg,NA,NA,NA,NA,NA,unpleasant,pleasant,NA,NA,NA,NA,NA,right,1055.30000001192,true,NA,NA,NA,NA,NA,NA,NA,NA
B5t66gVi,3fk4g712o0duz4m7qhicsa7sfszsso,304sm51wa7hx523z6x1jr5tkgkosbq,B5t66gVi,2020-0188,2021-11-01,00:19:11,01:54:19,NA,incomplete,false,true,NA,NA,3,3,NA,red,m_s_104.jpg,NA,NA,NA,NA,NA,unpleasant,pleasant,NA,NA,NA,NA,NA,right,1275.20000004768,true,NA,NA,NA,NA,NA,NA,NA,NA
B5t66gVi,3fk4g712o0duz4m7qhicsa7sfszsso,304sm51wa7hx523z6x1jr5tkgkosbq,B5t66gVi,2020-0188,2021-11-01,00:19:11,01:54:19,NA,incomplete,false,true,NA,NA,3,4,NA,red,n_s_038.jpg,NA,NA,NA,NA,NA,pleasant,unpleasant,NA,NA,NA,NA,NA,left,912,true,NA,NA,NA,NA,NA,NA,NA,NA
B5t66gVi,3fk4g712o0duz4m7qhicsa7sfszsso,304sm51wa7hx523z6x1jr5tkgkosbq,B5t66gVi,2020-0188,2021-11-01,00:19:11,01:54:19,NA,incomplete,false,true,NA,NA,3,5,NA,red,n_l_010.jpg,NA,NA,NA,NA,NA,pleasant,unpleasant,NA,NA,NA,NA,NA,left,1596.80000001192,true,NA,NA,NA,NA,NA,NA,NA,NA
B5t66gVi,3fk4g712o0duz4m7qhicsa7sfszsso,304sm51wa7hx523z6x1jr5tkgkosbq,B5t66gVi,2020-0188,2021-11-01,00:19:11,01:54:19,NA,incomplete,false,true,NA,NA,3,6,NA,yellow,m_s_110.jpg,NA,NA,NA,NA,NA,unpleasant,pleasant,NA,NA,NA,NA,NA,right,961,true,NA,NA,NA,NA,NA,NA,NA,NA
B5t66gVi,3fk4g712o0duz4m7qhicsa7sfszsso,304sm51wa7hx523z6x1jr5tkgkosbq,B5t66gVi,2020-0188,2021-11-01,00:19:11,01:54:19,NA,incomplete,false,true,NA,NA,3,7,NA,yellow,m_l_023.jpg,NA,NA,NA,NA,NA,unpleasant,pleasant,NA,NA,NA,NA,NA,right,1069.89999997616,true,NA,NA,NA,NA,NA,NA,NA,NA
B5t66gVi,3fk4g712o0duz4m7qhicsa7sfszsso,304sm51wa7hx523z6x1jr5tkgkosbq,B5t66gVi,2020-0188,2021-11-01,00:19:11,01:54:19,NA,incomplete,false,true,NA,NA,3,8,NA,yellow,n_s_046.jpg,NA,NA,NA,NA,NA,pleasant,unpleasant,NA,NA,NA,NA,NA,left,1442.29999995232,true,NA,NA,NA,NA,NA,NA,NA,NA
B5t66gVi,3fk4g712o0duz4m7qhicsa7sfszsso,304sm51wa7hx523z6x1jr5tkgkosbq,B5t66gVi,2020-0188,2021-11-01,00:19:11,01:54:19,NA,incomplete,false,true,NA,NA,3,9,NA,yellow,m_l_054.jpg,NA,NA,NA,NA,NA,unpleasant,pleasant,NA,NA,NA,NA,NA,right,1006.30000001192,true,NA,NA,NA,NA,NA,NA,NA,NA
B5t66gVi,3fk4g712o0duz4m7qhicsa7sfszsso,304sm51wa7hx523z6x1jr5tkgkosbq,B5t66gVi,2020-0188,2021-11-01,00:19:11,01:54:19,NA,incomplete,false,true,NA,NA,3,10,NA,yellow,m_l_089.jpg,NA,NA,NA,NA,NA,unpleasant,pleasant,NA,NA,NA,NA,NA,right,1378.5,true,NA,NA,NA,NA,NA,NA,NA,NA
B5t66gVi,3fk4g712o0duz4m7qhicsa7sfszsso,304sm51wa7hx523z6x1jr5tkgkosbq,B5t66gVi,2020-0188,2021-11-01,00:19:11,01:54:19,NA,incomplete,false,true,NA,NA,3,11,NA,yellow,n_l_038.jpg,NA,NA,NA,NA,NA,pleasant,unpleasant,NA,NA,NA,NA,NA,left,1631.30000001192,true,NA,NA,NA,NA,NA,NA,NA,NA
B5t66gVi,3fk4g712o0duz4m7qhicsa7sfszsso,304sm51wa7hx523z6x1jr5tkgkosbq,B5t66gVi,2020-0188,2021-11-01,00:19:11,01:54:19,NA,incomplete,false,true,NA,NA,3,12,NA,white,n_s_083.jpg,NA,NA,NA,NA,NA,unpleasant,pleasant,NA,NA,NA,NA,NA,right,1355.89999997616,true,NA,NA,NA,NA,NA,NA,NA,NA
B5t66gVi,3fk4g712o0duz4m7qhicsa7sfszsso,304sm51wa7hx523z6x1jr5tkgkosbq,B5t66gVi,2020-0188,2021-11-01,00:19:11,01:54:19,NA,incomplete,false,true,NA,NA,3,13,NA,white,n_l_092.jpg,NA,NA,NA,NA,NA,unpleasant,pleasant,NA,NA,NA,NA,NA,left,1240.10000002384,true,NA,NA,NA,NA,NA,NA,NA,NA
B5t66gVi,3fk4g712o0duz4m7qhicsa7sfszsso,304sm51wa7hx523z6x1jr5tkgkosbq,B5t66gVi,2020-0188,2021-11-01,00:19:11,01:54:19,NA,incomplete,false,true,NA,NA,3,14,NA,white,m_l_107.jpg,NA,NA,NA,NA,NA,unpleasant,pleasant,NA,NA,NA,NA,NA,right,940.100000023842,true,NA,NA,NA,NA,NA,NA,NA,NA
B5t66gVi,3fk4g712o0duz4m7qhicsa7sfszsso,304sm51wa7hx523z6x1jr5tkgkosbq,B5t66gVi,2020-0188,2021-11-01,00:19:11,01:54:19,NA,incomplete,false,true,NA,NA,3,15,NA,white,n_l_059.jpg,NA,NA,NA,NA,NA,pleasant,unpleasant,NA,NA,NA,NA,NA,right,1527.80000001192,true,NA,NA,NA,NA,NA,NA,NA,NA
B5t66gVi,3fk4g712o0duz4m7qhicsa7sfszsso,304sm51wa7hx523z6x1jr5tkgkosbq,B5t66gVi,2020-0188,2021-11-01,00:19:11,01:54:19,NA,incomplete,false,true,NA,NA,3,16,NA,white,n_l_095.jpg,NA,NA,NA,NA,NA,unpleasant,pleasant,NA,NA,NA,NA,NA,right,1356.39999997616,true,NA,NA,NA,NA,NA,NA,NA,NA
B5t66gVi,3fk4g712o0duz4m7qhicsa7sfszsso,304sm51wa7hx523z6x1jr5tkgkosbq,B5t66gVi,2020-0188,2021-11-01,00:19:11,01:54:19,NA,incomplete,false,true,NA,NA,3,17,NA,white,m_s_023.jpg,NA,NA,NA,NA,NA,pleasant,unpleasant,NA,NA,NA,NA,NA,left,1064.80000001192,true,NA,NA,NA,NA,NA,NA,NA,NA
B5t66gVi,3fk4g712o0duz4m7qhicsa7sfszsso,304sm51wa7hx523z6x1jr5tkgkosbq,B5t66gVi,2020-0188,2021-11-01,00:19:11,01:54:19,NA,incomplete,false,true,NA,NA,3,18,NA,brown,m_l_013.jpg,NA,NA,NA,NA,NA,unpleasant,pleasant,NA,NA,NA,NA,NA,right,877.400000035763,true,NA,NA,NA,NA,NA,NA,NA,NA
B5t66gVi,3fk4g712o0duz4m7qhicsa7sfszsso,304sm51wa7hx523z6x1jr5tkgkosbq,B5t66gVi,2020-0188,2021-11-01,00:19:11,01:54:19,NA,incomplete,false,true,NA,NA,3,19,NA,brown,n_l_011.jpg,NA,NA,NA,NA,NA,unpleasant,pleasant,NA,NA,NA,NA,NA,right,826.199999988079,true,NA,NA,NA,NA,NA,NA,NA,NA
B5t66gVi,3fk4g712o0duz4m7qhicsa7sfszsso,304sm51wa7hx523z6x1jr5tkgkosbq,B5t66gVi,2020-0188,2021-11-01,00:19:11,01:54:19,NA,incomplete,false,true,NA,NA,3,20,NA,brown,n_s_045.jpg,NA,NA,NA,NA,NA,unpleasant,pleasant,NA,NA,NA,NA,NA,right,951,true,NA,NA,NA,NA,NA,NA,NA,NA
B5t66gVi,3fk4g712o0duz4m7qhicsa7sfszsso,304sm51wa7hx523z6x1jr5tkgkosbq,B5t66gVi,2020-0188,2021-11-01,00:19:11,01:54:19,NA,incomplete,false,true,NA,NA,3,21,NA,brown,m_s_079.jpg,NA,NA,NA,NA,NA,unpleasant,pleasant,NA,NA,NA,NA,NA,right,762.800000011921,true,NA,NA,NA,NA,NA,NA,NA,NA
B5t66gVi,3fk4g712o0duz4m7qhicsa7sfszsso,304sm51wa7hx523z6x1jr5tkgkosbq,B5t66gVi,2020-0188,2021-11-01,00:19:11,01:54:19,NA,incomplete,false,true,NA,NA,3,22,NA,brown,n_l_071.jpg,NA,NA,NA,NA,NA,unpleasant,pleasant,NA,NA,NA,NA,NA,right,575.099999964237,true,NA,NA,NA,NA,NA,NA,NA,NA
B5t66gVi,3fk4g712o0duz4m7qhicsa7sfszsso,304sm51wa7hx523z6x1jr5tkgkosbq,B5t66gVi,2020-0188,2021-11-01,00:19:11,01:54:19,NA,incomplete,false,true,NA,NA,3,23,NA,brown,n_l_073.jpg,NA,NA,NA,NA,NA,unpleasant,pleasant,NA,NA,NA,NA,NA,right,891.900000035763,true,NA,NA,NA,NA,NA,NA,NA,NA
B5t66gVi,3fk4g712o0duz4m7qhicsa7sfszsso,304sm51wa7hx523z6x1jr5tkgkosbq,B5t66gVi,2020-0188,2021-11-01,00:19:11,01:54:19,NA,incomplete,false,true,NA,NA,3,24,NA,green,m_l_085.jpg,NA,NA,NA,NA,NA,unpleasant,pleasant,NA,NA,NA,NA,NA,right,1033,true,NA,NA,NA,NA,NA,NA,NA,NA
B5t66gVi,3fk4g712o0duz4m7qhicsa7sfszsso,304sm51wa7hx523z6x1jr5tkgkosbq,B5t66gVi,2020-0188,2021-11-01,00:19:11,01:54:19,NA,incomplete,false,true,NA,NA,3,25,NA,green,n_s_043.jpg,NA,NA,NA,NA,NA,pleasant,unpleasant,NA,NA,NA,NA,NA,left,1389.19999998808,true,NA,NA,NA,NA,NA,NA,NA,NA
B5t66gVi,3fk4g712o0duz4m7qhicsa7sfszsso,304sm51wa7hx523z6x1jr5tkgkosbq,B5t66gVi,2020-0188,2021-11-01,00:19:11,01:54:19,NA,incomplete,false,true,NA,NA,3,26,NA,green,m_l_012.jpg,NA,NA,NA,NA,NA,pleasant,unpleasant,NA,NA,NA,NA,NA,left,967.600000023842,true,NA,NA,NA,NA,NA,NA,NA,NA
B5t66gVi,3fk4g712o0duz4m7qhicsa7sfszsso,304sm51wa7hx523z6x1jr5tkgkosbq,B5t66gVi,2020-0188,2021-11-01,00:19:11,01:54:19,NA,incomplete,false,true,NA,NA,3,27,NA,green,n_l_098.jpg,NA,NA,NA,NA,NA,unpleasant,pleasant,NA,NA,NA,NA,NA,right,948.900000035763,true,NA,NA,NA,NA,NA,NA,NA,NA
B5t66gVi,3fk4g712o0duz4m7qhicsa7sfszsso,304sm51wa7hx523z6x1jr5tkgkosbq,B5t66gVi,2020-0188,2021-11-01,00:19:11,01:54:19,NA,incomplete,false,true,NA,NA,3,28,NA,green,n_l_030.jpg,NA,NA,NA,NA,NA,pleasant,unpleasant,NA,NA,NA,NA,NA,left,1337.69999998808,true,NA,NA,NA,NA,NA,NA,NA,NA
B5t66gVi,3fk4g712o0duz4m7qhicsa7sfszsso,304sm51wa7hx523z6x1jr5tkgkosbq,B5t66gVi,2020-0188,2021-11-01,00:19:11,01:54:19,NA,incomplete,false,true,NA,NA,3,29,NA,green,m_s_108.jpg,NA,NA,NA,NA,NA,unpleasant,pleasant,NA,NA,NA,NA,NA,right,845.800000011921,true,NA,NA,NA,NA,NA,NA,NA,NA
B5t66gVi,3fk4g712o0duz4m7qhicsa7sfszsso,304sm51wa7hx523z6x1jr5tkgkosbq,B5t66gVi,2020-0188,2021-11-01,00:19:11,01:54:19,NA,incomplete,false,true,NA,NA,3,30,NA,purple,n_l_085.jpg,NA,NA,NA,NA,NA,pleasant,unpleasant,NA,NA,NA,NA,NA,right,1370.60000002384,true,NA,NA,NA,NA,NA,NA,NA,NA
B5t66gVi,3fk4g712o0duz4m7qhicsa7sfszsso,304sm51wa7hx523z6x1jr5tkgkosbq,B5t66gVi,2020-0188,2021-11-01,00:19:11,01:54:19,NA,incomplete,false,true,NA,NA,3,31,NA,purple,m_s_045.jpg,NA,NA,NA,NA,NA,pleasant,unpleasant,NA,NA,NA,NA,NA,left,1094.30000001192,true,NA,NA,NA,NA,NA,NA,NA,NA
B5t66gVi,3fk4g712o0duz4m7qhicsa7sfszsso,304sm51wa7hx523z6x1jr5tkgkosbq,B5t66gVi,2020-0188,2021-11-01,00:19:11,01:54:19,NA,incomplete,false,true,NA,NA,3,32,NA,purple,m_l_043.jpg,NA,NA,NA,NA,NA,unpleasant,pleasant,NA,NA,NA,NA,NA,left,1939.20000004768,true,NA,NA,NA,NA,NA,NA,NA,NA
B5t66gVi,3fk4g712o0duz4m7qhicsa7sfszsso,304sm51wa7hx523z6x1jr5tkgkosbq,B5t66gVi,2020-0188,2021-11-01,00:19:11,01:54:19,NA,incomplete,false,true,NA,NA,3,33,NA,purple,n_l_004.jpg,NA,NA,NA,NA,NA,unpleasant,pleasant,NA,NA,NA,NA,NA,right,839.800000011921,true,NA,NA,NA,NA,NA,NA,NA,NA
B5t66gVi,3fk4g712o0duz4m7qhicsa7sfszsso,304sm51wa7hx523z6x1jr5tkgkosbq,B5t66gVi,2020-0188,2021-11-01,00:19:11,01:54:19,NA,incomplete,false,true,NA,NA,3,34,NA,purple,n_s_025.jpg,NA,NA,NA,NA,NA,unpleasant,pleasant,NA,NA,NA,NA,NA,right,755.100000023842,true,NA,NA,NA,NA,NA,NA,NA,NA
B5t66gVi,3fk4g712o0duz4m7qhicsa7sfszsso,304sm51wa7hx523z6x1jr5tkgkosbq,B5t66gVi,2020-0188,2021-11-01,00:19:11,01:54:19,NA,incomplete,false,true,NA,NA,3,35,NA,purple,n_s_106.jpg,NA,NA,NA,NA,NA,unpleasant,pleasant,NA,NA,NA,NA,NA,right,783.199999988079,true,NA,NA,NA,NA,NA,NA,NA,NA
B5t66gVi,3fk4g712o0duz4m7qhicsa7sfszsso,304sm51wa7hx523z6x1jr5tkgkosbq,B5t66gVi,2020-0188,2021-11-01,00:19:11,01:54:19,NA,incomplete,false,NA,NA,true,3,0,NA,NA,NA,left,n_l_092.jpg,white,brown,NA,NA,NA,NA,NA,NA,NA,NA,NA,NaN,NA,3614.899999976158,left,1,NA,NA,NA,NA,NA
B5t66gVi,3fk4g712o0duz4m7qhicsa7sfszsso,304sm51wa7hx523z6x1jr5tkgkosbq,B5t66gVi,2020-0188,2021-11-01,00:19:11,01:54:19,NA,incomplete,false,NA,NA,true,3,1,NA,NA,NA,left,n_l_095.jpg,white,brown,NA,NA,NA,NA,NA,NA,NA,NA,NA,NaN,NA,1647.199999988079,left,1,NA,NA,NA,NA,NA
B5t66gVi,3fk4g712o0duz4m7qhicsa7sfszsso,304sm51wa7hx523z6x1jr5tkgkosbq,B5t66gVi,2020-0188,2021-11-01,00:19:11,01:54:19,NA,incomplete,false,NA,NA,true,3,2,NA,NA,NA,right,n_s_046.jpg,red,yellow,NA,NA,NA,NA,NA,NA,NA,NA,NA,NaN,NA,2471.199999988079,right,1,NA,NA,NA,NA,NA
B5t66gVi,3fk4g712o0duz4m7qhicsa7sfszsso,304sm51wa7hx523z6x1jr5tkgkosbq,B5t66gVi,2020-0188,2021-11-01,00:19:11,01:54:19,NA,incomplete,false,NA,NA,true,3,3,NA,NA,NA,right,n_s_038.jpg,yellow,red,NA,NA,NA,NA,NA,NA,NA,NA,NA,NaN,NA,1631.5,right,1,NA,NA,NA,NA,NA
B5t66gVi,3fk4g712o0duz4m7qhicsa7sfszsso,304sm51wa7hx523z6x1jr5tkgkosbq,B5t66gVi,2020-0188,2021-11-01,00:19:11,01:54:19,NA,incomplete,false,NA,NA,true,3,4,NA,NA,NA,right,m_l_089.jpg,red,yellow,NA,NA,NA,NA,NA,NA,NA,NA,NA,NaN,NA,3455.5,left,0,NA,NA,NA,NA,NA
B5t66gVi,3fk4g712o0duz4m7qhicsa7sfszsso,304sm51wa7hx523z6x1jr5tkgkosbq,B5t66gVi,2020-0188,2021-11-01,00:19:11,01:54:19,NA,incomplete,false,NA,NA,true,3,5,NA,NA,NA,right,n_s_043.jpg,purple,green,NA,NA,NA,NA,NA,NA,NA,NA,NA,NaN,NA,4439.300000011921,right,1,NA,NA,NA,NA,NA
B5t66gVi,3fk4g712o0duz4m7qhicsa7sfszsso,304sm51wa7hx523z6x1jr5tkgkosbq,B5t66gVi,2020-0188,2021-11-01,00:19:11,01:54:19,NA,incomplete,false,NA,NA,true,3,6,NA,NA,NA,left,m_s_108.jpg,green,brown,NA,NA,NA,NA,NA,NA,NA,NA,NA,NaN,NA,2679.199999988079,right,0,NA,NA,NA,NA,NA
B5t66gVi,3fk4g712o0duz4m7qhicsa7sfszsso,304sm51wa7hx523z6x1jr5tkgkosbq,B5t66gVi,2020-0188,2021-11-01,00:19:11,01:54:19,NA,incomplete,false,NA,NA,true,3,7,NA,NA,NA,left,n_l_038.jpg,yellow,red,NA,NA,NA,NA,NA,NA,NA,NA,NA,NaN,NA,2151.599999964237,left,1,NA,NA,NA,NA,NA
B5t66gVi,3fk4g712o0duz4m7qhicsa7sfszsso,304sm51wa7hx523z6x1jr5tkgkosbq,B5t66gVi,2020-0188,2021-11-01,00:19:11,01:54:19,NA,incomplete,false,NA,NA,true,3,8,NA,NA,NA,left,m_l_068.jpg,red,yellow,NA,NA,NA,NA,NA,NA,NA,NA,NA,NaN,NA,1575.2999999523163,right,0,NA,NA,NA,NA,NA
B5t66gVi,3fk4g712o0duz4m7qhicsa7sfszsso,304sm51wa7hx523z6x1jr5tkgkosbq,B5t66gVi,2020-0188,2021-11-01,00:19:11,01:54:19,NA,incomplete,false,NA,NA,true,3,9,NA,NA,NA,right,n_l_010.jpg,yellow,red,NA,NA,NA,NA,NA,NA,NA,NA,NA,NaN,NA,2135.199999988079,right,1,NA,NA,NA,NA,NA
B5t66gVi,3fk4g712o0duz4m7qhicsa7sfszsso,304sm51wa7hx523z6x1jr5tkgkosbq,B5t66gVi,2020-0188,2021-11-01,00:19:11,01:54:19,NA,incomplete,false,NA,NA,true,3,10,NA,NA,NA,left,n_l_011.jpg,brown,white,NA,NA,NA,NA,NA,NA,NA,NA,NA,NaN,NA,2287.099999964237,right,0,NA,NA,NA,NA,NA
B5t66gVi,3fk4g712o0duz4m7qhicsa7sfszsso,304sm51wa7hx523z6x1jr5tkgkosbq,B5t66gVi,2020-0188,2021-11-01,00:19:11,01:54:19,NA,incomplete,false,NA,NA,true,3,11,NA,NA,NA,right,n_l_030.jpg,brown,green,NA,NA,NA,NA,NA,NA,NA,NA,NA,NaN,NA,2559.7000000476837,right,1,NA,NA,NA,NA,NA
B5t66gVi,3fk4g712o0duz4m7qhicsa7sfszsso,304sm51wa7hx523z6x1jr5tkgkosbq,B5t66gVi,2020-0188,2021-11-01,00:19:11,01:54:19,NA,incomplete,false,NA,NA,true,3,12,NA,NA,NA,left,n_l_071.jpg,brown,green,NA,NA,NA,NA,NA,NA,NA,NA,NA,NaN,NA,1343.199999988079,right,0,NA,NA,NA,NA,NA
B5t66gVi,3fk4g712o0duz4m7qhicsa7sfszsso,304sm51wa7hx523z6x1jr5tkgkosbq,B5t66gVi,2020-0188,2021-11-01,00:19:11,01:54:19,NA,incomplete,false,NA,NA,true,3,13,NA,NA,NA,left,m_s_045.jpg,purple,green,NA,NA,NA,NA,NA,NA,NA,NA,NA,NaN,NA,2591.199999988079,left,1,NA,NA,NA,NA,NA
B5t66gVi,3fk4g712o0duz4m7qhicsa7sfszsso,304sm51wa7hx523z6x1jr5tkgkosbq,B5t66gVi,2020-0188,2021-11-01,00:19:11,01:54:19,NA,incomplete,false,NA,NA,true,3,14,NA,NA,NA,right,m_l_012.jpg,purple,green,NA,NA,NA,NA,NA,NA,NA,NA,NA,NaN,NA,2607,right,1,NA,NA,NA,NA,NA
B5t66gVi,3fk4g712o0duz4m7qhicsa7sfszsso,304sm51wa7hx523z6x1jr5tkgkosbq,B5t66gVi,2020-0188,2021-11-01,00:19:11,01:54:19,NA,incomplete,false,NA,NA,true,3,15,NA,NA,NA,left,n_l_073.jpg,brown,green,NA,NA,NA,NA,NA,NA,NA,NA,NA,NaN,NA,2399.300000011921,right,0,NA,NA,NA,NA,NA
B5t66gVi,3fk4g712o0duz4m7qhicsa7sfszsso,304sm51wa7hx523z6x1jr5tkgkosbq,B5t66gVi,2020-0188,2021-11-01,00:19:11,01:54:19,NA,incomplete,false,NA,NA,true,3,16,NA,NA,NA,right,m_l_107.jpg,yellow,white,NA,NA,NA,NA,NA,NA,NA,NA,NA,NaN,NA,1703.300000011921,right,1,NA,NA,NA,NA,NA
B5t66gVi,3fk4g712o0duz4m7qhicsa7sfszsso,304sm51wa7hx523z6x1jr5tkgkosbq,B5t66gVi,2020-0188,2021-11-01,00:19:11,01:54:19,NA,incomplete,false,NA,NA,true,3,17,NA,NA,NA,right,m_l_043.jpg,green,purple,NA,NA,NA,NA,NA,NA,NA,NA,NA,NaN,NA,1879.199999988079,right,1,NA,NA,NA,NA,NA
B5t66gVi,3fk4g712o0duz4m7qhicsa7sfszsso,304sm51wa7hx523z6x1jr5tkgkosbq,B5t66gVi,2020-0188,2021-11-01,00:19:11,01:54:19,NA,incomplete,false,NA,NA,true,3,18,NA,NA,NA,right,m_s_023.jpg,yellow,white,NA,NA,NA,NA,NA,NA,NA,NA,NA,NaN,NA,3607.300000011921,left,0,NA,NA,NA,NA,NA
B5t66gVi,3fk4g712o0duz4m7qhicsa7sfszsso,304sm51wa7hx523z6x1jr5tkgkosbq,B5t66gVi,2020-0188,2021-11-01,00:19:11,01:54:19,NA,incomplete,false,NA,NA,true,3,19,NA,NA,NA,right,n_s_045.jpg,green,brown,NA,NA,NA,NA,NA,NA,NA,NA,NA,NaN,NA,3679.600000023842,left,0,NA,NA,NA,NA,NA
B5t66gVi,3fk4g712o0duz4m7qhicsa7sfszsso,304sm51wa7hx523z6x1jr5tkgkosbq,B5t66gVi,2020-0188,2021-11-01,00:19:11,01:54:19,NA,incomplete,false,NA,NA,true,3,20,NA,NA,NA,left,m_l_023.jpg,yellow,white,NA,NA,NA,NA,NA,NA,NA,NA,NA,NaN,NA,4799.199999988079,right,0,NA,NA,NA,NA,NA
B5t66gVi,3fk4g712o0duz4m7qhicsa7sfszsso,304sm51wa7hx523z6x1jr5tkgkosbq,B5t66gVi,2020-0188,2021-11-01,00:19:11,01:54:19,NA,incomplete,false,NA,NA,true,3,21,NA,NA,NA,right,n_s_106.jpg,green,purple,NA,NA,NA,NA,NA,NA,NA,NA,NA,NaN,NA,2815.399999976158,right,1,NA,NA,NA,NA,NA
B5t66gVi,3fk4g712o0duz4m7qhicsa7sfszsso,304sm51wa7hx523z6x1jr5tkgkosbq,B5t66gVi,2020-0188,2021-11-01,00:19:11,01:54:19,NA,incomplete,false,NA,true,NA,3,0,NA,NA,NA,left,NA,NA,NA,absent,NA,NA,n_s_038.jpg,red,n_s_046.jpg,yellow,between,NA,NaN,NA,NA,NA,NA,left,2422.5,1,2,1742.6000000238419
B5t66gVi,3fk4g712o0duz4m7qhicsa7sfszsso,304sm51wa7hx523z6x1jr5tkgkosbq,B5t66gVi,2020-0188,2021-11-01,00:19:11,01:54:19,NA,incomplete,false,NA,true,NA,3,1,NA,NA,NA,right,NA,NA,NA,absent,NA,NA,m_s_108.jpg,green,n_s_043.jpg,green,within,NA,NaN,NA,NA,NA,NA,right,2591,1,3,2270.099999964237
B5t66gVi,3fk4g712o0duz4m7qhicsa7sfszsso,304sm51wa7hx523z6x1jr5tkgkosbq,B5t66gVi,2020-0188,2021-11-01,00:19:11,01:54:19,NA,incomplete,false,NA,true,NA,3,2,NA,NA,NA,left,NA,NA,NA,absent,NA,NA,m_s_045.jpg,purple,n_s_106.jpg,purple,within,NA,NaN,NA,NA,NA,NA,right,2696,0,1,1407.3999999761581
B5t66gVi,3fk4g712o0duz4m7qhicsa7sfszsso,304sm51wa7hx523z6x1jr5tkgkosbq,B5t66gVi,2020-0188,2021-11-01,00:19:11,01:54:19,NA,incomplete,false,NA,true,NA,3,3,NA,NA,NA,right,NA,NA,NA,absent,NA,NA,m_l_012.jpg,green,n_l_071.jpg,brown,between,NA,NaN,NA,NA,NA,NA,right,2879.5,1,2,2495.599999964237
B5t66gVi,3fk4g712o0duz4m7qhicsa7sfszsso,304sm51wa7hx523z6x1jr5tkgkosbq,B5t66gVi,2020-0188,2021-11-01,00:19:11,01:54:19,NA,incomplete,false,NA,true,NA,3,4,NA,NA,NA,left,NA,NA,NA,absent,NA,NA,n_l_092.jpg,white,m_s_023.jpg,white,within,NA,NaN,NA,NA,NA,NA,left,4807.199999988079,1,1,1911.6000000238419
B5t66gVi,3fk4g712o0duz4m7qhicsa7sfszsso,304sm51wa7hx523z6x1jr5tkgkosbq,B5t66gVi,2020-0188,2021-11-01,00:19:11,01:54:19,NA,incomplete,false,NA,true,NA,3,5,NA,NA,NA,left,NA,NA,NA,absent,NA,NA,m_l_089.jpg,yellow,m_l_107.jpg,white,between,NA,NaN,NA,NA,NA,NA,left,3895.100000023842,1,1,2711.5
B5t66gVi,3fk4g712o0duz4m7qhicsa7sfszsso,304sm51wa7hx523z6x1jr5tkgkosbq,B5t66gVi,2020-0188,2021-11-01,00:19:11,01:54:19,NA,incomplete,false,NA,true,NA,3,6,NA,NA,NA,left,NA,NA,NA,absent,NA,NA,m_l_068.jpg,red,n_l_010.jpg,red,within,NA,NaN,NA,NA,NA,NA,left,2759.5,1,1,3959.2999999523163
B5t66gVi,3fk4g712o0duz4m7qhicsa7sfszsso,304sm51wa7hx523z6x1jr5tkgkosbq,B5t66gVi,2020-0188,2021-11-01,00:19:11,01:54:19,NA,incomplete,false,NA,true,NA,3,7,NA,NA,NA,left,NA,NA,NA,absent,NA,NA,n_l_095.jpg,white,n_s_045.jpg,brown,between,NA,NaN,NA,NA,NA,NA,left,2431.100000023842,1,0,2719.399999976158
B5t66gVi,3fk4g712o0duz4m7qhicsa7sfszsso,304sm51wa7hx523z6x1jr5tkgkosbq,B5t66gVi,2020-0188,2021-11-01,00:19:11,01:54:19,NA,incomplete,false,NA,true,NA,3,8,NA,NA,NA,right,NA,NA,NA,absent,NA,NA,n_l_073.jpg,brown,n_l_011.jpg,brown,within,NA,NaN,NA,NA,NA,NA,left,2759.399999976158,0,2,2407.399999976158
B5t66gVi,3fk4g712o0duz4m7qhicsa7sfszsso,304sm51wa7hx523z6x1jr5tkgkosbq,B5t66gVi,2020-0188,2021-11-01,00:19:11,01:54:19,NA,incomplete,false,NA,true,NA,3,9,NA,NA,NA,left,NA,NA,NA,absent,NA,NA,m_l_023.jpg,yellow,n_l_038.jpg,yellow,within,NA,NaN,NA,NA,NA,NA,right,2167.5,0,1,1464
B5t66gVi,3fk4g712o0duz4m7qhicsa7sfszsso,304sm51wa7hx523z6x1jr5tkgkosbq,B5t66gVi,2020-0188,2021-11-01,00:19:11,01:54:19,NA,incomplete,false,NA,true,NA,3,10,NA,NA,NA,right,NA,NA,NA,absent,NA,NA,m_l_043.jpg,purple,n_l_030.jpg,green,between,NA,NaN,NA,NA,NA,NA,right,2431.199999988079,1,1,1111.199999988079
B5t66gVi,3fk4g712o0duz4m7qhicsa7sfszsso,304sm51wa7hx523z6x1jr5tkgkosbq,B5t66gVi,2020-0188,2021-11-01,00:19:11,01:54:19,NA,incomplete,false,true,NA,NA,4,0,NA,gray,n_s_032.jpg,NA,NA,NA,NA,NA,unpleasant,pleasant,NA,NA,NA,NA,NA,right,1893.90000003576,true,NA,NA,NA,NA,NA,NA,NA,NA
B5t66gVi,3fk4g712o0duz4m7qhicsa7sfszsso,304sm51wa7hx523z6x1jr5tkgkosbq,B5t66gVi,2020-0188,2021-11-01,00:19:11,01:54:19,NA,incomplete,false,true,NA,NA,4,1,NA,gray,n_s_048.jpg,NA,NA,NA,NA,NA,pleasant,unpleasant,NA,NA,NA,NA,NA,left,1161.79999995232,true,NA,NA,NA,NA,NA,NA,NA,NA
B5t66gVi,3fk4g712o0duz4m7qhicsa7sfszsso,304sm51wa7hx523z6x1jr5tkgkosbq,B5t66gVi,2020-0188,2021-11-01,00:19:11,01:54:19,NA,incomplete,false,true,NA,NA,4,2,NA,gray,m_s_028.jpg,NA,NA,NA,NA,NA,unpleasant,pleasant,NA,NA,NA,NA,NA,right,942.900000035763,true,NA,NA,NA,NA,NA,NA,NA,NA
B5t66gVi,3fk4g712o0duz4m7qhicsa7sfszsso,304sm51wa7hx523z6x1jr5tkgkosbq,B5t66gVi,2020-0188,2021-11-01,00:19:11,01:54:19,NA,incomplete,false,true,NA,NA,4,3,NA,gray,m_s_043.jpg,NA,NA,NA,NA,NA,unpleasant,pleasant,NA,NA,NA,NA,NA,right,979.599999964237,true,NA,NA,NA,NA,NA,NA,NA,NA
B5t66gVi,3fk4g712o0duz4m7qhicsa7sfszsso,304sm51wa7hx523z6x1jr5tkgkosbq,B5t66gVi,2020-0188,2021-11-01,00:19:11,01:54:19,NA,incomplete,false,true,NA,NA,4,4,NA,gray,n_s_087.jpg,NA,NA,NA,NA,NA,pleasant,unpleasant,NA,NA,NA,NA,NA,left,992.400000035763,true,NA,NA,NA,NA,NA,NA,NA,NA
B5t66gVi,3fk4g712o0duz4m7qhicsa7sfszsso,304sm51wa7hx523z6x1jr5tkgkosbq,B5t66gVi,2020-0188,2021-11-01,00:19:11,01:54:19,NA,incomplete,false,true,NA,NA,4,5,NA,gray,m_l_100.jpg,NA,NA,NA,NA,NA,pleasant,unpleasant,NA,NA,NA,NA,NA,left,861.099999964237,true,NA,NA,NA,NA,NA,NA,NA,NA
B5t66gVi,3fk4g712o0duz4m7qhicsa7sfszsso,304sm51wa7hx523z6x1jr5tkgkosbq,B5t66gVi,2020-0188,2021-11-01,00:19:11,01:54:19,NA,incomplete,false,true,NA,NA,4,6,NA,yellow,m_l_021.jpg,NA,NA,NA,NA,NA,unpleasant,pleasant,NA,NA,NA,NA,NA,right,1537.19999998808,true,NA,NA,NA,NA,NA,NA,NA,NA
B5t66gVi,3fk4g712o0duz4m7qhicsa7sfszsso,304sm51wa7hx523z6x1jr5tkgkosbq,B5t66gVi,2020-0188,2021-11-01,00:19:11,01:54:19,NA,incomplete,false,true,NA,NA,4,7,NA,yellow,n_l_100.jpg,NA,NA,NA,NA,NA,pleasant,unpleasant,NA,NA,NA,NA,NA,left,917.5,true,NA,NA,NA,NA,NA,NA,NA,NA
B5t66gVi,3fk4g712o0duz4m7qhicsa7sfszsso,304sm51wa7hx523z6x1jr5tkgkosbq,B5t66gVi,2020-0188,2021-11-01,00:19:11,01:54:19,NA,incomplete,false,true,NA,NA,4,8,NA,yellow,m_s_097.jpg,NA,NA,NA,NA,NA,pleasant,unpleasant,NA,NA,NA,NA,NA,left,945.599999964237,true,NA,NA,NA,NA,NA,NA,NA,NA
B5t66gVi,3fk4g712o0duz4m7qhicsa7sfszsso,304sm51wa7hx523z6x1jr5tkgkosbq,B5t66gVi,2020-0188,2021-11-01,00:19:11,01:54:19,NA,incomplete,false,true,NA,NA,4,9,NA,yellow,m_s_033.jpg,NA,NA,NA,NA,NA,pleasant,unpleasant,NA,NA,NA,NA,NA,left,846.300000011921,true,NA,NA,NA,NA,NA,NA,NA,NA
B5t66gVi,3fk4g712o0duz4m7qhicsa7sfszsso,304sm51wa7hx523z6x1jr5tkgkosbq,B5t66gVi,2020-0188,2021-11-01,00:19:11,01:54:19,NA,incomplete,false,true,NA,NA,4,10,NA,yellow,m_l_070.jpg,NA,NA,NA,NA,NA,pleasant,unpleasant,NA,NA,NA,NA,NA,left,691,true,NA,NA,NA,NA,NA,NA,NA,NA
B5t66gVi,3fk4g712o0duz4m7qhicsa7sfszsso,304sm51wa7hx523z6x1jr5tkgkosbq,B5t66gVi,2020-0188,2021-11-01,00:19:11,01:54:19,NA,incomplete,false,true,NA,NA,4,11,NA,yellow,n_s_077.jpg,NA,NA,NA,NA,NA,unpleasant,pleasant,NA,NA,NA,NA,NA,right,815,true,NA,NA,NA,NA,NA,NA,NA,NA
B5t66gVi,3fk4g712o0duz4m7qhicsa7sfszsso,304sm51wa7hx523z6x1jr5tkgkosbq,B5t66gVi,2020-0188,2021-11-01,00:19:11,01:54:19,NA,incomplete,false,true,NA,NA,4,12,NA,brown,m_l_015.jpg,NA,NA,NA,NA,NA,pleasant,unpleasant,NA,NA,NA,NA,NA,left,1811.60000002384,true,NA,NA,NA,NA,NA,NA,NA,NA
B5t66gVi,3fk4g712o0duz4m7qhicsa7sfszsso,304sm51wa7hx523z6x1jr5tkgkosbq,B5t66gVi,2020-0188,2021-11-01,00:19:11,01:54:19,NA,incomplete,false,true,NA,NA,4,13,NA,brown,m_s_098.jpg,NA,NA,NA,NA,NA,unpleasant,pleasant,NA,NA,NA,NA,NA,right,1480.30000001192,true,NA,NA,NA,NA,NA,NA,NA,NA
B5t66gVi,3fk4g712o0duz4m7qhicsa7sfszsso,304sm51wa7hx523z6x1jr5tkgkosbq,B5t66gVi,2020-0188,2021-11-01,00:19:11,01:54:19,NA,incomplete,false,true,NA,NA,4,14,NA,brown,n_l_012.jpg,NA,NA,NA,NA,NA,pleasant,unpleasant,NA,NA,NA,NA,NA,left,1236.89999997616,true,NA,NA,NA,NA,NA,NA,NA,NA
B5t66gVi,3fk4g712o0duz4m7qhicsa7sfszsso,304sm51wa7hx523z6x1jr5tkgkosbq,B5t66gVi,2020-0188,2021-11-01,00:19:11,01:54:19,NA,incomplete,false,true,NA,NA,4,15,NA,brown,n_l_113.jpg,NA,NA,NA,NA,NA,unpleasant,pleasant,NA,NA,NA,NA,NA,right,840.900000035763,true,NA,NA,NA,NA,NA,NA,NA,NA
B5t66gVi,3fk4g712o0duz4m7qhicsa7sfszsso,304sm51wa7hx523z6x1jr5tkgkosbq,B5t66gVi,2020-0188,2021-11-01,00:19:11,01:54:19,NA,incomplete,false,true,NA,NA,4,16,NA,brown,m_l_098.jpg,NA,NA,NA,NA,NA,unpleasant,pleasant,NA,NA,NA,NA,NA,right,996.900000035763,true,NA,NA,NA,NA,NA,NA,NA,NA
B5t66gVi,3fk4g712o0duz4m7qhicsa7sfszsso,304sm51wa7hx523z6x1jr5tkgkosbq,B5t66gVi,2020-0188,2021-11-01,00:19:11,01:54:19,NA,incomplete,false,true,NA,NA,4,17,NA,brown,n_l_054.jpg,NA,NA,NA,NA,NA,unpleasant,pleasant,NA,NA,NA,NA,NA,right,1281.20000004768,true,NA,NA,NA,NA,NA,NA,NA,NA
B5t66gVi,3fk4g712o0duz4m7qhicsa7sfszsso,304sm51wa7hx523z6x1jr5tkgkosbq,B5t66gVi,2020-0188,2021-11-01,00:19:11,01:54:19,NA,incomplete,false,true,NA,NA,4,18,NA,black,n_s_033.jpg,NA,NA,NA,NA,NA,unpleasant,pleasant,NA,NA,NA,NA,NA,right,838.300000011921,true,NA,NA,NA,NA,NA,NA,NA,NA
B5t66gVi,3fk4g712o0duz4m7qhicsa7sfszsso,304sm51wa7hx523z6x1jr5tkgkosbq,B5t66gVi,2020-0188,2021-11-01,00:19:11,01:54:19,NA,incomplete,false,true,NA,NA,4,19,NA,black,n_s_064.jpg,NA,NA,NA,NA,NA,unpleasant,pleasant,NA,NA,NA,NA,NA,right,906.199999988079,true,NA,NA,NA,NA,NA,NA,NA,NA
B5t66gVi,3fk4g712o0duz4m7qhicsa7sfszsso,304sm51wa7hx523z6x1jr5tkgkosbq,B5t66gVi,2020-0188,2021-11-01,00:19:11,01:54:19,NA,incomplete,false,true,NA,NA,4,20,NA,black,n_s_034.jpg,NA,NA,NA,NA,NA,unpleasant,pleasant,NA,NA,NA,NA,NA,right,950.099999964237,true,NA,NA,NA,NA,NA,NA,NA,NA
B5t66gVi,3fk4g712o0duz4m7qhicsa7sfszsso,304sm51wa7hx523z6x1jr5tkgkosbq,B5t66gVi,2020-0188,2021-11-01,00:19:11,01:54:19,NA,incomplete,false,true,NA,NA,4,21,NA,black,m_s_066.jpg,NA,NA,NA,NA,NA,unpleasant,pleasant,NA,NA,NA,NA,NA,right,1138.90000003576,true,NA,NA,NA,NA,NA,NA,NA,NA
B5t66gVi,3fk4g712o0duz4m7qhicsa7sfszsso,304sm51wa7hx523z6x1jr5tkgkosbq,B5t66gVi,2020-0188,2021-11-01,00:19:11,01:54:19,NA,incomplete,false,true,NA,NA,4,22,NA,black,m_s_018.jpg,NA,NA,NA,NA,NA,pleasant,unpleasant,NA,NA,NA,NA,NA,left,1102.70000004768,true,NA,NA,NA,NA,NA,NA,NA,NA
B5t66gVi,3fk4g712o0duz4m7qhicsa7sfszsso,304sm51wa7hx523z6x1jr5tkgkosbq,B5t66gVi,2020-0188,2021-11-01,00:19:11,01:54:19,NA,incomplete,false,true,NA,NA,4,23,NA,black,m_l_008.jpg,NA,NA,NA,NA,NA,pleasant,unpleasant,NA,NA,NA,NA,NA,left,1498.80000001192,true,NA,NA,NA,NA,NA,NA,NA,NA
B5t66gVi,3fk4g712o0duz4m7qhicsa7sfszsso,304sm51wa7hx523z6x1jr5tkgkosbq,B5t66gVi,2020-0188,2021-11-01,00:19:11,01:54:19,NA,incomplete,false,true,NA,NA,4,24,NA,orange,n_l_096.jpg,NA,NA,NA,NA,NA,unpleasant,pleasant,NA,NA,NA,NA,NA,right,1014.5,true,NA,NA,NA,NA,NA,NA,NA,NA
B5t66gVi,3fk4g712o0duz4m7qhicsa7sfszsso,304sm51wa7hx523z6x1jr5tkgkosbq,B5t66gVi,2020-0188,2021-11-01,00:19:11,01:54:19,NA,incomplete,false,true,NA,NA,4,25,NA,orange,n_l_114.jpg,NA,NA,NA,NA,NA,pleasant,unpleasant,NA,NA,NA,NA,NA,left,1131.89999997616,true,NA,NA,NA,NA,NA,NA,NA,NA
B5t66gVi,3fk4g712o0duz4m7qhicsa7sfszsso,304sm51wa7hx523z6x1jr5tkgkosbq,B5t66gVi,2020-0188,2021-11-01,00:19:11,01:54:19,NA,incomplete,false,true,NA,NA,4,26,NA,orange,n_l_027.jpg,NA,NA,NA,NA,NA,unpleasant,pleasant,NA,NA,NA,NA,NA,right,896.5,true,NA,NA,NA,NA,NA,NA,NA,NA
B5t66gVi,3fk4g712o0duz4m7qhicsa7sfszsso,304sm51wa7hx523z6x1jr5tkgkosbq,B5t66gVi,2020-0188,2021-11-01,00:19:11,01:54:19,NA,incomplete,false,true,NA,NA,4,27,NA,orange,m_s_035.jpg,NA,NA,NA,NA,NA,pleasant,unpleasant,NA,NA,NA,NA,NA,left,1109.5,true,NA,NA,NA,NA,NA,NA,NA,NA
B5t66gVi,3fk4g712o0duz4m7qhicsa7sfszsso,304sm51wa7hx523z6x1jr5tkgkosbq,B5t66gVi,2020-0188,2021-11-01,00:19:11,01:54:19,NA,incomplete,false,true,NA,NA,4,28,NA,orange,n_s_082.jpg,NA,NA,NA,NA,NA,unpleasant,pleasant,NA,NA,NA,NA,NA,right,1393.79999995232,true,NA,NA,NA,NA,NA,NA,NA,NA
B5t66gVi,3fk4g712o0duz4m7qhicsa7sfszsso,304sm51wa7hx523z6x1jr5tkgkosbq,B5t66gVi,2020-0188,2021-11-01,00:19:11,01:54:19,NA,incomplete,false,true,NA,NA,4,29,NA,orange,m_l_084.jpg,NA,NA,NA,NA,NA,pleasant,unpleasant,NA,NA,NA,NA,NA,left,1022.60000002384,true,NA,NA,NA,NA,NA,NA,NA,NA
B5t66gVi,3fk4g712o0duz4m7qhicsa7sfszsso,304sm51wa7hx523z6x1jr5tkgkosbq,B5t66gVi,2020-0188,2021-11-01,00:19:11,01:54:19,NA,incomplete,false,true,NA,NA,4,30,NA,red,n_s_074.jpg,NA,NA,NA,NA,NA,unpleasant,pleasant,NA,NA,NA,NA,NA,right,866.899999976158,true,NA,NA,NA,NA,NA,NA,NA,NA
B5t66gVi,3fk4g712o0duz4m7qhicsa7sfszsso,304sm51wa7hx523z6x1jr5tkgkosbq,B5t66gVi,2020-0188,2021-11-01,00:19:11,01:54:19,NA,incomplete,false,true,NA,NA,4,31,NA,red,n_s_091.jpg,NA,NA,NA,NA,NA,unpleasant,pleasant,NA,NA,NA,NA,NA,right,1006.60000002384,true,NA,NA,NA,NA,NA,NA,NA,NA
B5t66gVi,3fk4g712o0duz4m7qhicsa7sfszsso,304sm51wa7hx523z6x1jr5tkgkosbq,B5t66gVi,2020-0188,2021-11-01,00:19:11,01:54:19,NA,incomplete,false,true,NA,NA,4,32,NA,red,n_l_024.jpg,NA,NA,NA,NA,NA,pleasant,unpleasant,NA,NA,NA,NA,NA,left,970.5,true,NA,NA,NA,NA,NA,NA,NA,NA
B5t66gVi,3fk4g712o0duz4m7qhicsa7sfszsso,304sm51wa7hx523z6x1jr5tkgkosbq,B5t66gVi,2020-0188,2021-11-01,00:19:11,01:54:19,NA,incomplete,false,true,NA,NA,4,33,NA,red,n_l_056.jpg,NA,NA,NA,NA,NA,unpleasant,pleasant,NA,NA,NA,NA,NA,right,1054.69999998808,true,NA,NA,NA,NA,NA,NA,NA,NA
B5t66gVi,3fk4g712o0duz4m7qhicsa7sfszsso,304sm51wa7hx523z6x1jr5tkgkosbq,B5t66gVi,2020-0188,2021-11-01,00:19:11,01:54:19,NA,incomplete,false,true,NA,NA,4,34,NA,red,n_l_090.jpg,NA,NA,NA,NA,NA,pleasant,unpleasant,NA,NA,NA,NA,NA,left,1098.89999997616,true,NA,NA,NA,NA,NA,NA,NA,NA
B5t66gVi,3fk4g712o0duz4m7qhicsa7sfszsso,304sm51wa7hx523z6x1jr5tkgkosbq,B5t66gVi,2020-0188,2021-11-01,00:19:11,01:54:19,NA,incomplete,false,true,NA,NA,4,35,NA,red,m_s_048.jpg,NA,NA,NA,NA,NA,unpleasant,pleasant,NA,NA,NA,NA,NA,right,1151.30000001192,true,NA,NA,NA,NA,NA,NA,NA,NA
B5t66gVi,3fk4g712o0duz4m7qhicsa7sfszsso,304sm51wa7hx523z6x1jr5tkgkosbq,B5t66gVi,2020-0188,2021-11-01,00:19:11,01:54:19,NA,incomplete,false,NA,NA,true,4,0,NA,NA,NA,left,m_s_018.jpg,black,orange,NA,NA,NA,NA,NA,NA,NA,NA,NA,NaN,NA,2223,right,0,NA,NA,NA,NA,NA
B5t66gVi,3fk4g712o0duz4m7qhicsa7sfszsso,304sm51wa7hx523z6x1jr5tkgkosbq,B5t66gVi,2020-0188,2021-11-01,00:19:11,01:54:19,NA,incomplete,false,NA,NA,true,4,1,NA,NA,NA,right,m_s_097.jpg,gray,yellow,NA,NA,NA,NA,NA,NA,NA,NA,NA,NaN,NA,2687.400000035763,right,1,NA,NA,NA,NA,NA
B5t66gVi,3fk4g712o0duz4m7qhicsa7sfszsso,304sm51wa7hx523z6x1jr5tkgkosbq,B5t66gVi,2020-0188,2021-11-01,00:19:11,01:54:19,NA,incomplete,false,NA,NA,true,4,2,NA,NA,NA,right,m_l_084.jpg,black,orange,NA,NA,NA,NA,NA,NA,NA,NA,NA,NaN,NA,2847.2999999523163,right,1,NA,NA,NA,NA,NA
B5t66gVi,3fk4g712o0duz4m7qhicsa7sfszsso,304sm51wa7hx523z6x1jr5tkgkosbq,B5t66gVi,2020-0188,2021-11-01,00:19:11,01:54:19,NA,incomplete,false,NA,NA,true,4,3,NA,NA,NA,right,m_s_048.jpg,orange,red,NA,NA,NA,NA,NA,NA,NA,NA,NA,NaN,NA,2063.5,left,0,NA,NA,NA,NA,NA
B5t66gVi,3fk4g712o0duz4m7qhicsa7sfszsso,304sm51wa7hx523z6x1jr5tkgkosbq,B5t66gVi,2020-0188,2021-11-01,00:19:11,01:54:19,NA,incomplete,false,NA,NA,true,4,4,NA,NA,NA,right,m_s_098.jpg,yellow,brown,NA,NA,NA,NA,NA,NA,NA,NA,NA,NaN,NA,2823.300000011921,left,0,NA,NA,NA,NA,NA
B5t66gVi,3fk4g712o0duz4m7qhicsa7sfszsso,304sm51wa7hx523z6x1jr5tkgkosbq,B5t66gVi,2020-0188,2021-11-01,00:19:11,01:54:19,NA,incomplete,false,NA,NA,true,4,5,NA,NA,NA,left,n_s_082.jpg,orange,red,NA,NA,NA,NA,NA,NA,NA,NA,NA,NaN,NA,1974.8999999761581,left,1,NA,NA,NA,NA,NA
B5t66gVi,3fk4g712o0duz4m7qhicsa7sfszsso,304sm51wa7hx523z6x1jr5tkgkosbq,B5t66gVi,2020-0188,2021-11-01,00:19:11,01:54:19,NA,incomplete,false,NA,NA,true,4,6,NA,NA,NA,right,n_s_091.jpg,orange,red,NA,NA,NA,NA,NA,NA,NA,NA,NA,NaN,NA,1543.3999999761581,right,1,NA,NA,NA,NA,NA
B5t66gVi,3fk4g712o0duz4m7qhicsa7sfszsso,304sm51wa7hx523z6x1jr5tkgkosbq,B5t66gVi,2020-0188,2021-11-01,00:19:11,01:54:19,NA,incomplete,false,NA,NA,true,4,7,NA,NA,NA,left,n_l_024.jpg,red,orange,NA,NA,NA,NA,NA,NA,NA,NA,NA,NaN,NA,2606.900000035763,left,1,NA,NA,NA,NA,NA
B5t66gVi,3fk4g712o0duz4m7qhicsa7sfszsso,304sm51wa7hx523z6x1jr5tkgkosbq,B5t66gVi,2020-0188,2021-11-01,00:19:11,01:54:19,NA,incomplete,false,NA,NA,true,4,8,NA,NA,NA,right,n_s_034.jpg,brown,black,NA,NA,NA,NA,NA,NA,NA,NA,NA,NaN,NA,2175.399999976158,right,1,NA,NA,NA,NA,NA
B5t66gVi,3fk4g712o0duz4m7qhicsa7sfszsso,304sm51wa7hx523z6x1jr5tkgkosbq,B5t66gVi,2020-0188,2021-11-01,00:19:11,01:54:19,NA,incomplete,false,NA,NA,true,4,9,NA,NA,NA,right,n_l_054.jpg,yellow,brown,NA,NA,NA,NA,NA,NA,NA,NA,NA,NaN,NA,2999,left,0,NA,NA,NA,NA,NA
B5t66gVi,3fk4g712o0duz4m7qhicsa7sfszsso,304sm51wa7hx523z6x1jr5tkgkosbq,B5t66gVi,2020-0188,2021-11-01,00:19:11,01:54:19,NA,incomplete,false,NA,NA,true,4,10,NA,NA,NA,left,n_s_064.jpg,black,brown,NA,NA,NA,NA,NA,NA,NA,NA,NA,NaN,NA,2263.600000023842,left,1,NA,NA,NA,NA,NA
B5t66gVi,3fk4g712o0duz4m7qhicsa7sfszsso,304sm51wa7hx523z6x1jr5tkgkosbq,B5t66gVi,2020-0188,2021-11-01,00:19:11,01:54:19,NA,incomplete,false,NA,NA,true,4,11,NA,NA,NA,left,n_s_048.jpg,gray,yellow,NA,NA,NA,NA,NA,NA,NA,NA,NA,NaN,NA,2103.899999976158,left,1,NA,NA,NA,NA,NA
B5t66gVi,3fk4g712o0duz4m7qhicsa7sfszsso,304sm51wa7hx523z6x1jr5tkgkosbq,B5t66gVi,2020-0188,2021-11-01,00:19:11,01:54:19,NA,incomplete,false,NA,NA,true,4,12,NA,NA,NA,left,n_l_027.jpg,orange,black,NA,NA,NA,NA,NA,NA,NA,NA,NA,NaN,NA,2367.5,right,0,NA,NA,NA,NA,NA
B5t66gVi,3fk4g712o0duz4m7qhicsa7sfszsso,304sm51wa7hx523z6x1jr5tkgkosbq,B5t66gVi,2020-0188,2021-11-01,00:19:11,01:54:19,NA,incomplete,false,NA,NA,true,4,13,NA,NA,NA,left,m_l_100.jpg,gray,yellow,NA,NA,NA,NA,NA,NA,NA,NA,NA,NaN,NA,4407.200000047684,left,1,NA,NA,NA,NA,NA
B5t66gVi,3fk4g712o0duz4m7qhicsa7sfszsso,304sm51wa7hx523z6x1jr5tkgkosbq,B5t66gVi,2020-0188,2021-11-01,00:19:11,01:54:19,NA,incomplete,false,NA,NA,true,4,14,NA,NA,NA,left,n_l_100.jpg,yellow,brown,NA,NA,NA,NA,NA,NA,NA,NA,NA,NaN,NA,1471.3999999761581,right,0,NA,NA,NA,NA,NA
B5t66gVi,3fk4g712o0duz4m7qhicsa7sfszsso,304sm51wa7hx523z6x1jr5tkgkosbq,B5t66gVi,2020-0188,2021-11-01,00:19:11,01:54:19,NA,incomplete,false,NA,NA,true,4,15,NA,NA,NA,left,m_l_070.jpg,yellow,gray,NA,NA,NA,NA,NA,NA,NA,NA,NA,NaN,NA,4175.5,left,1,NA,NA,NA,NA,NA
B5t66gVi,3fk4g712o0duz4m7qhicsa7sfszsso,304sm51wa7hx523z6x1jr5tkgkosbq,B5t66gVi,2020-0188,2021-11-01,00:19:11,01:54:19,NA,incomplete,false,NA,NA,true,4,16,NA,NA,NA,right,n_l_012.jpg,black,brown,NA,NA,NA,NA,NA,NA,NA,NA,NA,NaN,NA,3111.099999964237,right,1,NA,NA,NA,NA,NA
B5t66gVi,3fk4g712o0duz4m7qhicsa7sfszsso,304sm51wa7hx523z6x1jr5tkgkosbq,B5t66gVi,2020-0188,2021-11-01,00:19:11,01:54:19,NA,incomplete,false,NA,NA,true,4,17,NA,NA,NA,right,n_s_077.jpg,brown,yellow,NA,NA,NA,NA,NA,NA,NA,NA,NA,NaN,NA,2279.2999999523163,left,0,NA,NA,NA,NA,NA
B5t66gVi,3fk4g712o0duz4m7qhicsa7sfszsso,304sm51wa7hx523z6x1jr5tkgkosbq,B5t66gVi,2020-0188,2021-11-01,00:19:11,01:54:19,NA,incomplete,false,NA,NA,true,4,18,NA,NA,NA,right,m_l_098.jpg,black,brown,NA,NA,NA,NA,NA,NA,NA,NA,NA,NaN,NA,3751.199999988079,left,0,NA,NA,NA,NA,NA
B5t66gVi,3fk4g712o0duz4m7qhicsa7sfszsso,304sm51wa7hx523z6x1jr5tkgkosbq,B5t66gVi,2020-0188,2021-11-01,00:19:11,01:54:19,NA,incomplete,false,NA,NA,true,4,19,NA,NA,NA,left,n_l_114.jpg,orange,red,NA,NA,NA,NA,NA,NA,NA,NA,NA,NaN,NA,2911.099999964237,right,0,NA,NA,NA,NA,NA
B5t66gVi,3fk4g712o0duz4m7qhicsa7sfszsso,304sm51wa7hx523z6x1jr5tkgkosbq,B5t66gVi,2020-0188,2021-11-01,00:19:11,01:54:19,NA,incomplete,false,NA,NA,true,4,20,NA,NA,NA,left,n_s_087.jpg,gray,yellow,NA,NA,NA,NA,NA,NA,NA,NA,NA,NaN,NA,1599.1000000238419,right,0,NA,NA,NA,NA,NA
B5t66gVi,3fk4g712o0duz4m7qhicsa7sfszsso,304sm51wa7hx523z6x1jr5tkgkosbq,B5t66gVi,2020-0188,2021-11-01,00:19:11,01:54:19,NA,incomplete,false,NA,NA,true,4,21,NA,NA,NA,left,m_l_008.jpg,black,brown,NA,NA,NA,NA,NA,NA,NA,NA,NA,NaN,NA,3326.7000000476837,left,1,NA,NA,NA,NA,NA
B5t66gVi,3fk4g712o0duz4m7qhicsa7sfszsso,304sm51wa7hx523z6x1jr5tkgkosbq,B5t66gVi,2020-0188,2021-11-01,00:19:11,01:54:19,NA,incomplete,false,NA,true,NA,4,0,NA,NA,NA,right,NA,NA,NA,absent,NA,NA,m_l_008.jpg,black,n_s_064.jpg,black,within,NA,NaN,NA,NA,NA,NA,right,5582.699999988079,1,3,3645.699999988079
B5t66gVi,3fk4g712o0duz4m7qhicsa7sfszsso,304sm51wa7hx523z6x1jr5tkgkosbq,B5t66gVi,2020-0188,2021-11-01,00:19:11,01:54:19,NA,incomplete,false,NA,true,NA,4,1,NA,NA,NA,right,NA,NA,NA,absent,NA,NA,n_s_077.jpg,yellow,n_l_100.jpg,yellow,within,NA,NaN,NA,NA,NA,NA,right,3718.600000023842,1,2,2071.199999988079
B5t66gVi,3fk4g712o0duz4m7qhicsa7sfszsso,304sm51wa7hx523z6x1jr5tkgkosbq,B5t66gVi,2020-0188,2021-11-01,00:19:11,01:54:19,NA,incomplete,false,NA,true,NA,4,2,NA,NA,NA,left,NA,NA,NA,absent,NA,NA,m_s_098.jpg,brown,n_l_054.jpg,brown,within,NA,NaN,NA,NA,NA,NA,right,3711.199999988079,0,1,1647
B5t66gVi,3fk4g712o0duz4m7qhicsa7sfszsso,304sm51wa7hx523z6x1jr5tkgkosbq,B5t66gVi,2020-0188,2021-11-01,00:19:11,01:54:19,NA,incomplete,false,NA,true,NA,4,3,NA,NA,NA,left,NA,NA,NA,absent,NA,NA,m_l_070.jpg,yellow,n_l_012.jpg,brown,between,NA,NaN,NA,NA,NA,NA,left,2191.199999988079,1,1,1983.3999999761581
B5t66gVi,3fk4g712o0duz4m7qhicsa7sfszsso,304sm51wa7hx523z6x1jr5tkgkosbq,B5t66gVi,2020-0188,2021-11-01,00:19:11,01:54:19,NA,incomplete,false,NA,true,NA,4,4,NA,NA,NA,right,NA,NA,NA,absent,NA,NA,m_l_084.jpg,orange,n_l_114.jpg,orange,within,NA,NaN,NA,NA,NA,NA,right,7439.600000023842,1,1,2623.600000023842
B5t66gVi,3fk4g712o0duz4m7qhicsa7sfszsso,304sm51wa7hx523z6x1jr5tkgkosbq,B5t66gVi,2020-0188,2021-11-01,00:19:11,01:54:19,NA,incomplete,false,NA,true,NA,4,5,NA,NA,NA,right,NA,NA,NA,absent,NA,NA,m_s_097.jpg,yellow,n_s_087.jpg,gray,between,NA,NaN,NA,NA,NA,NA,right,1950.9000000357628,1,1,4231.600000023842
B5t66gVi,3fk4g712o0duz4m7qhicsa7sfszsso,304sm51wa7hx523z6x1jr5tkgkosbq,B5t66gVi,2020-0188,2021-11-01,00:19:11,01:54:19,NA,incomplete,false,NA,true,NA,4,6,NA,NA,NA,right,NA,NA,NA,absent,NA,NA,n_s_034.jpg,black,m_l_098.jpg,brown,between,NA,NaN,NA,NA,NA,NA,left,2526.7000000476837,0,1,1999.5
B5t66gVi,3fk4g712o0duz4m7qhicsa7sfszsso,304sm51wa7hx523z6x1jr5tkgkosbq,B5t66gVi,2020-0188,2021-11-01,00:19:11,01:54:19,NA,incomplete,false,NA,true,NA,4,7,NA,NA,NA,left,NA,NA,NA,absent,NA,NA,n_s_082.jpg,orange,n_l_024.jpg,red,between,NA,NaN,NA,NA,NA,NA,left,3031.300000011921,1,0,1431.4000000357628
B5t66gVi,3fk4g712o0duz4m7qhicsa7sfszsso,304sm51wa7hx523z6x1jr5tkgkosbq,B5t66gVi,2020-0188,2021-11-01,00:19:11,01:54:19,NA,incomplete,false,NA,true,NA,4,8,NA,NA,NA,left,NA,NA,NA,absent,NA,NA,n_s_048.jpg,gray,m_l_100.jpg,gray,within,NA,NaN,NA,NA,NA,NA,left,1535.4000000357628,1,0,1423.5999999642372
B5t66gVi,3fk4g712o0duz4m7qhicsa7sfszsso,304sm51wa7hx523z6x1jr5tkgkosbq,B5t66gVi,2020-0188,2021-11-01,00:19:11,01:54:19,NA,incomplete,false,NA,true,NA,4,9,NA,NA,NA,left,NA,NA,NA,absent,NA,NA,m_s_018.jpg,black,n_l_027.jpg,orange,between,NA,NaN,NA,NA,NA,NA,right,1687.5,0,2,1503.5
B5t66gVi,3fk4g712o0duz4m7qhicsa7sfszsso,304sm51wa7hx523z6x1jr5tkgkosbq,B5t66gVi,2020-0188,2021-11-01,00:19:11,01:54:19,NA,incomplete,false,NA,true,NA,4,10,NA,NA,NA,left,NA,NA,NA,absent,NA,NA,n_s_091.jpg,red,m_s_048.jpg,red,within,NA,NaN,NA,NA,NA,NA,left,1783.300000011921,1,3,2143.5
B5t66gVi,3fk4g712o0duz4m7qhicsa7sfszsso,304sm51wa7hx523z6x1jr5tkgkosbq,B5t66gVi,2020-0188,2021-11-01,00:19:11,01:54:19,NA,incomplete,false,true,NA,NA,5,0,NA,orange,n_l_087.jpg,NA,NA,NA,NA,NA,pleasant,unpleasant,NA,NA,NA,NA,NA,left,1794.80000001192,true,NA,NA,NA,NA,NA,NA,NA,NA
B5t66gVi,3fk4g712o0duz4m7qhicsa7sfszsso,304sm51wa7hx523z6x1jr5tkgkosbq,B5t66gVi,2020-0188,2021-11-01,00:19:11,01:54:19,NA,incomplete,false,true,NA,NA,5,1,NA,orange,m_s_016.jpg,NA,NA,NA,NA,NA,unpleasant,pleasant,NA,NA,NA,NA,NA,right,1319.60000002384,true,NA,NA,NA,NA,NA,NA,NA,NA
B5t66gVi,3fk4g712o0duz4m7qhicsa7sfszsso,304sm51wa7hx523z6x1jr5tkgkosbq,B5t66gVi,2020-0188,2021-11-01,00:19:11,01:54:19,NA,incomplete,false,true,NA,NA,5,2,NA,orange,m_s_059.jpg,NA,NA,NA,NA,NA,unpleasant,pleasant,NA,NA,NA,NA,NA,right,1707.80000001192,true,NA,NA,NA,NA,NA,NA,NA,NA
B5t66gVi,3fk4g712o0duz4m7qhicsa7sfszsso,304sm51wa7hx523z6x1jr5tkgkosbq,B5t66gVi,2020-0188,2021-11-01,00:19:11,01:54:19,NA,incomplete,false,true,NA,NA,5,3,NA,orange,n_l_032.jpg,NA,NA,NA,NA,NA,unpleasant,pleasant,NA,NA,NA,NA,NA,right,879.699999988079,true,NA,NA,NA,NA,NA,NA,NA,NA
B5t66gVi,3fk4g712o0duz4m7qhicsa7sfszsso,304sm51wa7hx523z6x1jr5tkgkosbq,B5t66gVi,2020-0188,2021-11-01,00:19:11,01:54:19,NA,incomplete,false,true,NA,NA,5,4,NA,orange,m_s_044.jpg,NA,NA,NA,NA,NA,pleasant,unpleasant,NA,NA,NA,NA,NA,right,788,true,NA,NA,NA,NA,NA,NA,NA,NA
B5t66gVi,3fk4g712o0duz4m7qhicsa7sfszsso,304sm51wa7hx523z6x1jr5tkgkosbq,B5t66gVi,2020-0188,2021-11-01,00:19:11,01:54:19,NA,incomplete,false,true,NA,NA,5,5,NA,orange,n_s_028.jpg,NA,NA,NA,NA,NA,unpleasant,pleasant,NA,NA,NA,NA,NA,right,1416.5,true,NA,NA,NA,NA,NA,NA,NA,NA
B5t66gVi,3fk4g712o0duz4m7qhicsa7sfszsso,304sm51wa7hx523z6x1jr5tkgkosbq,B5t66gVi,2020-0188,2021-11-01,00:19:11,01:54:19,NA,incomplete,false,true,NA,NA,5,6,NA,gray,m_s_085.jpg,NA,NA,NA,NA,NA,unpleasant,pleasant,NA,NA,NA,NA,NA,right,1725,true,NA,NA,NA,NA,NA,NA,NA,NA
B5t66gVi,3fk4g712o0duz4m7qhicsa7sfszsso,304sm51wa7hx523z6x1jr5tkgkosbq,B5t66gVi,2020-0188,2021-11-01,00:19:11,01:54:19,NA,incomplete,false,true,NA,NA,5,7,NA,gray,n_l_069.jpg,NA,NA,NA,NA,NA,unpleasant,pleasant,NA,NA,NA,NA,NA,left,1209.39999997616,true,NA,NA,NA,NA,NA,NA,NA,NA
B5t66gVi,3fk4g712o0duz4m7qhicsa7sfszsso,304sm51wa7hx523z6x1jr5tkgkosbq,B5t66gVi,2020-0188,2021-11-01,00:19:11,01:54:19,NA,incomplete,false,true,NA,NA,5,8,NA,gray,n_s_029.jpg,NA,NA,NA,NA,NA,pleasant,unpleasant,NA,NA,NA,NA,NA,left,1062.30000001192,true,NA,NA,NA,NA,NA,NA,NA,NA
B5t66gVi,3fk4g712o0duz4m7qhicsa7sfszsso,304sm51wa7hx523z6x1jr5tkgkosbq,B5t66gVi,2020-0188,2021-11-01,00:19:11,01:54:19,NA,incomplete,false,true,NA,NA,5,9,NA,gray,n_l_026.jpg,NA,NA,NA,NA,NA,unpleasant,pleasant,NA,NA,NA,NA,NA,right,1274.89999997616,true,NA,NA,NA,NA,NA,NA,NA,NA
B5t66gVi,3fk4g712o0duz4m7qhicsa7sfszsso,304sm51wa7hx523z6x1jr5tkgkosbq,B5t66gVi,2020-0188,2021-11-01,00:19:11,01:54:19,NA,incomplete,false,true,NA,NA,5,10,NA,gray,n_s_072.jpg,NA,NA,NA,NA,NA,unpleasant,pleasant,NA,NA,NA,NA,NA,right,1167.09999996424,true,NA,NA,NA,NA,NA,NA,NA,NA
B5t66gVi,3fk4g712o0duz4m7qhicsa7sfszsso,304sm51wa7hx523z6x1jr5tkgkosbq,B5t66gVi,2020-0188,2021-11-01,00:19:11,01:54:19,NA,incomplete,false,true,NA,NA,5,11,NA,gray,m_l_049.jpg,NA,NA,NA,NA,NA,unpleasant,pleasant,NA,NA,NA,NA,NA,right,1080.09999996424,true,NA,NA,NA,NA,NA,NA,NA,NA
B5t66gVi,3fk4g712o0duz4m7qhicsa7sfszsso,304sm51wa7hx523z6x1jr5tkgkosbq,B5t66gVi,2020-0188,2021-11-01,00:19:11,01:54:19,NA,incomplete,false,true,NA,NA,5,12,NA,yellow,m_s_029.jpg,NA,NA,NA,NA,NA,unpleasant,pleasant,NA,NA,NA,NA,NA,right,1687.69999998808,true,NA,NA,NA,NA,NA,NA,NA,NA
B5t66gVi,3fk4g712o0duz4m7qhicsa7sfszsso,304sm51wa7hx523z6x1jr5tkgkosbq,B5t66gVi,2020-0188,2021-11-01,00:19:11,01:54:19,NA,incomplete,false,true,NA,NA,5,13,NA,yellow,n_s_093.jpg,NA,NA,NA,NA,NA,pleasant,unpleasant,NA,NA,NA,NA,NA,right,1395.59999996424,true,NA,NA,NA,NA,NA,NA,NA,NA
B5t66gVi,3fk4g712o0duz4m7qhicsa7sfszsso,304sm51wa7hx523z6x1jr5tkgkosbq,B5t66gVi,2020-0188,2021-11-01,00:19:11,01:54:19,NA,incomplete,false,true,NA,NA,5,14,NA,yellow,n_s_089.jpg,NA,NA,NA,NA,NA,pleasant,unpleasant,NA,NA,NA,NA,NA,left,1680.30000001192,true,NA,NA,NA,NA,NA,NA,NA,NA
B5t66gVi,3fk4g712o0duz4m7qhicsa7sfszsso,304sm51wa7hx523z6x1jr5tkgkosbq,B5t66gVi,2020-0188,2021-11-01,00:19:11,01:54:19,NA,incomplete,false,true,NA,NA,5,15,NA,yellow,m_l_010.jpg,NA,NA,NA,NA,NA,unpleasant,pleasant,NA,NA,NA,NA,NA,right,1773,true,NA,NA,NA,NA,NA,NA,NA,NA
B5t66gVi,3fk4g712o0duz4m7qhicsa7sfszsso,304sm51wa7hx523z6x1jr5tkgkosbq,B5t66gVi,2020-0188,2021-11-01,00:19:11,01:54:19,NA,incomplete,false,true,NA,NA,5,16,NA,yellow,n_l_116.jpg,NA,NA,NA,NA,NA,pleasant,unpleasant,NA,NA,NA,NA,NA,left,1217.19999998808,true,NA,NA,NA,NA,NA,NA,NA,NA
