workerId,hitId,assignmentId,subject,studyid,exp_date,exp_start,exp_end,time_start,time_end,practice,encoding,memory,association,block,trial,event_order,event,stim,answer,object,left_context,right_context,context_type,label_left,label_right,left_image,left_event,right_image,right_event,condition,response,response_time,response_acc,association_response_time,association_response,association_acc,order_response,order_response_time,order_acc,distance_response,distance_response_time
MrreSbXV,3ac6mfv6anv2a7u5af0lkpxttwbhzq,31lvtdxblbnxhwpyilq8fykt58zrlv,MrreSbXV,2020-0188,2021-10-30,20:39:44,22:13:32,NA,incomplete,true,true,NA,NA,0,0,NA,green,m_s_006.jpg,NA,NA,NA,NA,NA,pleasant,unpleasant,NA,NA,NA,NA,NA,none,0,false,NA,NA,NA,NA,NA,NA,NA,NA
MrreSbXV,3ac6mfv6anv2a7u5af0lkpxttwbhzq,31lvtdxblbnxhwpyilq8fykt58zrlv,MrreSbXV,2020-0188,2021-10-30,20:39:44,22:13:32,NA,incomplete,true,true,NA,NA,0,1,NA,green,m_l_025.jpg,NA,NA,NA,NA,NA,pleasant,unpleasant,NA,NA,NA,NA,NA,none,0,false,NA,NA,NA,NA,NA,NA,NA,NA
MrreSbXV,3ac6mfv6anv2a7u5af0lkpxttwbhzq,31lvtdxblbnxhwpyilq8fykt58zrlv,MrreSbXV,2020-0188,2021-10-30,20:39:44,22:13:32,NA,incomplete,true,true,NA,NA,0,2,NA,green,m_l_034.jpg,NA,NA,NA,NA,NA,unpleasant,pleasant,NA,NA,NA,NA,NA,left,1847.89999985695,true,NA,NA,NA,NA,NA,NA,NA,NA
MrreSbXV,3ac6mfv6anv2a7u5af0lkpxttwbhzq,31lvtdxblbnxhwpyilq8fykt58zrlv,MrreSbXV,2020-0188,2021-10-30,20:39:44,22:13:32,NA,incomplete,true,true,NA,NA,0,3,NA,green,m_l_042.jpg,NA,NA,NA,NA,NA,pleasant,unpleasant,NA,NA,NA,NA,NA,right,2220,true,NA,NA,NA,NA,NA,NA,NA,NA
MrreSbXV,3ac6mfv6anv2a7u5af0lkpxttwbhzq,31lvtdxblbnxhwpyilq8fykt58zrlv,MrreSbXV,2020-0188,2021-10-30,20:39:44,22:13:32,NA,incomplete,true,true,NA,NA,0,4,NA,green,n_s_111.jpg,NA,NA,NA,NA,NA,pleasant,unpleasant,NA,NA,NA,NA,NA,left,1728.60000014305,true,NA,NA,NA,NA,NA,NA,NA,NA
MrreSbXV,3ac6mfv6anv2a7u5af0lkpxttwbhzq,31lvtdxblbnxhwpyilq8fykt58zrlv,MrreSbXV,2020-0188,2021-10-30,20:39:44,22:13:32,NA,incomplete,true,true,NA,NA,0,5,NA,green,n_s_021.jpg,NA,NA,NA,NA,NA,unpleasant,pleasant,NA,NA,NA,NA,NA,left,1477.09999990463,true,NA,NA,NA,NA,NA,NA,NA,NA
MrreSbXV,3ac6mfv6anv2a7u5af0lkpxttwbhzq,31lvtdxblbnxhwpyilq8fykt58zrlv,MrreSbXV,2020-0188,2021-10-30,20:39:44,22:13:32,NA,incomplete,true,true,NA,NA,0,6,NA,purple,m_s_107.jpg,NA,NA,NA,NA,NA,pleasant,unpleasant,NA,NA,NA,NA,NA,right,1481.39999985695,true,NA,NA,NA,NA,NA,NA,NA,NA
MrreSbXV,3ac6mfv6anv2a7u5af0lkpxttwbhzq,31lvtdxblbnxhwpyilq8fykt58zrlv,MrreSbXV,2020-0188,2021-10-30,20:39:44,22:13:32,NA,incomplete,true,true,NA,NA,0,7,NA,purple,n_s_022.jpg,NA,NA,NA,NA,NA,pleasant,unpleasant,NA,NA,NA,NA,NA,right,1006.40000009537,true,NA,NA,NA,NA,NA,NA,NA,NA
MrreSbXV,3ac6mfv6anv2a7u5af0lkpxttwbhzq,31lvtdxblbnxhwpyilq8fykt58zrlv,MrreSbXV,2020-0188,2021-10-30,20:39:44,22:13:32,NA,incomplete,true,true,NA,NA,0,8,NA,purple,n_s_089.jpg,NA,NA,NA,NA,NA,pleasant,unpleasant,NA,NA,NA,NA,NA,left,1330.5,true,NA,NA,NA,NA,NA,NA,NA,NA
MrreSbXV,3ac6mfv6anv2a7u5af0lkpxttwbhzq,31lvtdxblbnxhwpyilq8fykt58zrlv,MrreSbXV,2020-0188,2021-10-30,20:39:44,22:13:32,NA,incomplete,true,true,NA,NA,0,9,NA,purple,n_l_072.jpg,NA,NA,NA,NA,NA,unpleasant,pleasant,NA,NA,NA,NA,NA,left,1934.90000009537,true,NA,NA,NA,NA,NA,NA,NA,NA
MrreSbXV,3ac6mfv6anv2a7u5af0lkpxttwbhzq,31lvtdxblbnxhwpyilq8fykt58zrlv,MrreSbXV,2020-0188,2021-10-30,20:39:44,22:13:32,NA,incomplete,true,true,NA,NA,0,10,NA,purple,m_l_068.jpg,NA,NA,NA,NA,NA,unpleasant,pleasant,NA,NA,NA,NA,NA,right,2019.29999995232,true,NA,NA,NA,NA,NA,NA,NA,NA
MrreSbXV,3ac6mfv6anv2a7u5af0lkpxttwbhzq,31lvtdxblbnxhwpyilq8fykt58zrlv,MrreSbXV,2020-0188,2021-10-30,20:39:44,22:13:32,NA,incomplete,true,true,NA,NA,0,11,NA,purple,m_l_072.jpg,NA,NA,NA,NA,NA,unpleasant,pleasant,NA,NA,NA,NA,NA,left,1671.5,true,NA,NA,NA,NA,NA,NA,NA,NA
MrreSbXV,3ac6mfv6anv2a7u5af0lkpxttwbhzq,31lvtdxblbnxhwpyilq8fykt58zrlv,MrreSbXV,2020-0188,2021-10-30,20:39:44,22:13:32,NA,incomplete,true,true,NA,NA,0,12,NA,red,n_s_099.jpg,NA,NA,NA,NA,NA,pleasant,unpleasant,NA,NA,NA,NA,NA,left,1971.20000004768,true,NA,NA,NA,NA,NA,NA,NA,NA
MrreSbXV,3ac6mfv6anv2a7u5af0lkpxttwbhzq,31lvtdxblbnxhwpyilq8fykt58zrlv,MrreSbXV,2020-0188,2021-10-30,20:39:44,22:13:32,NA,incomplete,true,true,NA,NA,0,13,NA,red,m_l_048.jpg,NA,NA,NA,NA,NA,unpleasant,pleasant,NA,NA,NA,NA,NA,left,1199,true,NA,NA,NA,NA,NA,NA,NA,NA
MrreSbXV,3ac6mfv6anv2a7u5af0lkpxttwbhzq,31lvtdxblbnxhwpyilq8fykt58zrlv,MrreSbXV,2020-0188,2021-10-30,20:39:44,22:13:32,NA,incomplete,true,true,NA,NA,0,14,NA,red,n_s_053.jpg,NA,NA,NA,NA,NA,unpleasant,pleasant,NA,NA,NA,NA,NA,left,1548.40000009537,true,NA,NA,NA,NA,NA,NA,NA,NA
MrreSbXV,3ac6mfv6anv2a7u5af0lkpxttwbhzq,31lvtdxblbnxhwpyilq8fykt58zrlv,MrreSbXV,2020-0188,2021-10-30,20:39:44,22:13:32,NA,incomplete,true,true,NA,NA,0,15,NA,red,m_l_008.jpg,NA,NA,NA,NA,NA,pleasant,unpleasant,NA,NA,NA,NA,NA,left,1744.20000004768,true,NA,NA,NA,NA,NA,NA,NA,NA
MrreSbXV,3ac6mfv6anv2a7u5af0lkpxttwbhzq,31lvtdxblbnxhwpyilq8fykt58zrlv,MrreSbXV,2020-0188,2021-10-30,20:39:44,22:13:32,NA,incomplete,true,true,NA,NA,0,16,NA,red,m_s_080.jpg,NA,NA,NA,NA,NA,unpleasant,pleasant,NA,NA,NA,NA,NA,left,1532.70000004768,true,NA,NA,NA,NA,NA,NA,NA,NA
MrreSbXV,3ac6mfv6anv2a7u5af0lkpxttwbhzq,31lvtdxblbnxhwpyilq8fykt58zrlv,MrreSbXV,2020-0188,2021-10-30,20:39:44,22:13:32,NA,incomplete,true,true,NA,NA,0,17,NA,red,m_s_091.jpg,NA,NA,NA,NA,NA,pleasant,unpleasant,NA,NA,NA,NA,NA,right,1969.69999980927,true,NA,NA,NA,NA,NA,NA,NA,NA
MrreSbXV,3ac6mfv6anv2a7u5af0lkpxttwbhzq,31lvtdxblbnxhwpyilq8fykt58zrlv,MrreSbXV,2020-0188,2021-10-30,20:39:44,22:13:32,NA,incomplete,true,true,NA,NA,0,18,NA,blue,n_l_004.jpg,NA,NA,NA,NA,NA,pleasant,unpleasant,NA,NA,NA,NA,NA,left,2149.09999990463,true,NA,NA,NA,NA,NA,NA,NA,NA
MrreSbXV,3ac6mfv6anv2a7u5af0lkpxttwbhzq,31lvtdxblbnxhwpyilq8fykt58zrlv,MrreSbXV,2020-0188,2021-10-30,20:39:44,22:13:32,NA,incomplete,true,true,NA,NA,0,19,NA,blue,n_s_075.jpg,NA,NA,NA,NA,NA,pleasant,unpleasant,NA,NA,NA,NA,NA,right,1848.79999995232,true,NA,NA,NA,NA,NA,NA,NA,NA
MrreSbXV,3ac6mfv6anv2a7u5af0lkpxttwbhzq,31lvtdxblbnxhwpyilq8fykt58zrlv,MrreSbXV,2020-0188,2021-10-30,20:39:44,22:13:32,NA,incomplete,true,true,NA,NA,0,20,NA,blue,m_s_109.jpg,NA,NA,NA,NA,NA,pleasant,unpleasant,NA,NA,NA,NA,NA,left,1614.90000009537,true,NA,NA,NA,NA,NA,NA,NA,NA
MrreSbXV,3ac6mfv6anv2a7u5af0lkpxttwbhzq,31lvtdxblbnxhwpyilq8fykt58zrlv,MrreSbXV,2020-0188,2021-10-30,20:39:44,22:13:32,NA,incomplete,true,true,NA,NA,0,21,NA,blue,m_s_093.jpg,NA,NA,NA,NA,NA,pleasant,unpleasant,NA,NA,NA,NA,NA,left,1515,true,NA,NA,NA,NA,NA,NA,NA,NA
MrreSbXV,3ac6mfv6anv2a7u5af0lkpxttwbhzq,31lvtdxblbnxhwpyilq8fykt58zrlv,MrreSbXV,2020-0188,2021-10-30,20:39:44,22:13:32,NA,incomplete,true,true,NA,NA,0,22,NA,blue,n_l_046.jpg,NA,NA,NA,NA,NA,unpleasant,pleasant,NA,NA,NA,NA,NA,left,1215.59999990463,true,NA,NA,NA,NA,NA,NA,NA,NA
MrreSbXV,3ac6mfv6anv2a7u5af0lkpxttwbhzq,31lvtdxblbnxhwpyilq8fykt58zrlv,MrreSbXV,2020-0188,2021-10-30,20:39:44,22:13:32,NA,incomplete,true,true,NA,NA,0,23,NA,blue,n_l_016.jpg,NA,NA,NA,NA,NA,pleasant,unpleasant,NA,NA,NA,NA,NA,left,1724.89999985695,true,NA,NA,NA,NA,NA,NA,NA,NA
MrreSbXV,3ac6mfv6anv2a7u5af0lkpxttwbhzq,31lvtdxblbnxhwpyilq8fykt58zrlv,MrreSbXV,2020-0188,2021-10-30,20:39:44,22:13:32,NA,incomplete,true,true,NA,NA,0,24,NA,orange,n_s_046.jpg,NA,NA,NA,NA,NA,unpleasant,pleasant,NA,NA,NA,NA,NA,left,1521,true,NA,NA,NA,NA,NA,NA,NA,NA
MrreSbXV,3ac6mfv6anv2a7u5af0lkpxttwbhzq,31lvtdxblbnxhwpyilq8fykt58zrlv,MrreSbXV,2020-0188,2021-10-30,20:39:44,22:13:32,NA,incomplete,true,true,NA,NA,0,25,NA,orange,m_l_096.jpg,NA,NA,NA,NA,NA,unpleasant,pleasant,NA,NA,NA,NA,NA,right,2148.80000019073,true,NA,NA,NA,NA,NA,NA,NA,NA
MrreSbXV,3ac6mfv6anv2a7u5af0lkpxttwbhzq,31lvtdxblbnxhwpyilq8fykt58zrlv,MrreSbXV,2020-0188,2021-10-30,20:39:44,22:13:32,NA,incomplete,true,true,NA,NA,0,26,NA,orange,m_s_049.jpg,NA,NA,NA,NA,NA,pleasant,unpleasant,NA,NA,NA,NA,NA,left,1520.70000004768,true,NA,NA,NA,NA,NA,NA,NA,NA
MrreSbXV,3ac6mfv6anv2a7u5af0lkpxttwbhzq,31lvtdxblbnxhwpyilq8fykt58zrlv,MrreSbXV,2020-0188,2021-10-30,20:39:44,22:13:32,NA,incomplete,true,true,NA,NA,0,27,NA,orange,m_l_032.jpg,NA,NA,NA,NA,NA,pleasant,unpleasant,NA,NA,NA,NA,NA,right,1693.59999990463,true,NA,NA,NA,NA,NA,NA,NA,NA
MrreSbXV,3ac6mfv6anv2a7u5af0lkpxttwbhzq,31lvtdxblbnxhwpyilq8fykt58zrlv,MrreSbXV,2020-0188,2021-10-30,20:39:44,22:13:32,NA,incomplete,true,true,NA,NA,0,28,NA,orange,n_l_103.jpg,NA,NA,NA,NA,NA,pleasant,unpleasant,NA,NA,NA,NA,NA,right,1794.09999990463,true,NA,NA,NA,NA,NA,NA,NA,NA
MrreSbXV,3ac6mfv6anv2a7u5af0lkpxttwbhzq,31lvtdxblbnxhwpyilq8fykt58zrlv,MrreSbXV,2020-0188,2021-10-30,20:39:44,22:13:32,NA,incomplete,true,true,NA,NA,0,29,NA,orange,n_l_063.jpg,NA,NA,NA,NA,NA,unpleasant,pleasant,NA,NA,NA,NA,NA,left,1607.20000004768,true,NA,NA,NA,NA,NA,NA,NA,NA
MrreSbXV,3ac6mfv6anv2a7u5af0lkpxttwbhzq,31lvtdxblbnxhwpyilq8fykt58zrlv,MrreSbXV,2020-0188,2021-10-30,20:39:44,22:13:32,NA,incomplete,true,true,NA,NA,0,30,NA,black,n_s_004.jpg,NA,NA,NA,NA,NA,pleasant,unpleasant,NA,NA,NA,NA,NA,right,1786.79999995232,true,NA,NA,NA,NA,NA,NA,NA,NA
MrreSbXV,3ac6mfv6anv2a7u5af0lkpxttwbhzq,31lvtdxblbnxhwpyilq8fykt58zrlv,MrreSbXV,2020-0188,2021-10-30,20:39:44,22:13:32,NA,incomplete,true,true,NA,NA,0,31,NA,black,m_l_018.jpg,NA,NA,NA,NA,NA,pleasant,unpleasant,NA,NA,NA,NA,NA,left,1606.60000014305,true,NA,NA,NA,NA,NA,NA,NA,NA
MrreSbXV,3ac6mfv6anv2a7u5af0lkpxttwbhzq,31lvtdxblbnxhwpyilq8fykt58zrlv,MrreSbXV,2020-0188,2021-10-30,20:39:44,22:13:32,NA,incomplete,true,true,NA,NA,0,32,NA,black,n_s_058.jpg,NA,NA,NA,NA,NA,unpleasant,pleasant,NA,NA,NA,NA,NA,left,1955.5,true,NA,NA,NA,NA,NA,NA,NA,NA
MrreSbXV,3ac6mfv6anv2a7u5af0lkpxttwbhzq,31lvtdxblbnxhwpyilq8fykt58zrlv,MrreSbXV,2020-0188,2021-10-30,20:39:44,22:13:32,NA,incomplete,true,true,NA,NA,0,33,NA,black,m_s_108.jpg,NA,NA,NA,NA,NA,unpleasant,pleasant,NA,NA,NA,NA,NA,left,3270.59999990463,true,NA,NA,NA,NA,NA,NA,NA,NA
MrreSbXV,3ac6mfv6anv2a7u5af0lkpxttwbhzq,31lvtdxblbnxhwpyilq8fykt58zrlv,MrreSbXV,2020-0188,2021-10-30,20:39:44,22:13:32,NA,incomplete,true,true,NA,NA,0,34,NA,black,n_l_102.jpg,NA,NA,NA,NA,NA,pleasant,unpleasant,NA,NA,NA,NA,NA,left,1506.39999985695,true,NA,NA,NA,NA,NA,NA,NA,NA
MrreSbXV,3ac6mfv6anv2a7u5af0lkpxttwbhzq,31lvtdxblbnxhwpyilq8fykt58zrlv,MrreSbXV,2020-0188,2021-10-30,20:39:44,22:13:32,NA,incomplete,true,true,NA,NA,0,35,NA,black,m_l_037.jpg,NA,NA,NA,NA,NA,pleasant,unpleasant,NA,NA,NA,NA,NA,left,1366.70000004768,true,NA,NA,NA,NA,NA,NA,NA,NA
MrreSbXV,3ac6mfv6anv2a7u5af0lkpxttwbhzq,31lvtdxblbnxhwpyilq8fykt58zrlv,MrreSbXV,2020-0188,2021-10-30,20:39:44,22:13:32,NA,incomplete,true,NA,NA,true,0,0,NA,NA,NA,left,m_l_068.jpg,purple,red,NA,NA,NA,NA,NA,NA,NA,NA,NA,NaN,NA,5461.899999856949,left,1,NA,NA,NA,NA,NA
MrreSbXV,3ac6mfv6anv2a7u5af0lkpxttwbhzq,31lvtdxblbnxhwpyilq8fykt58zrlv,MrreSbXV,2020-0188,2021-10-30,20:39:44,22:13:32,NA,incomplete,true,NA,NA,true,0,1,NA,NA,NA,left,m_s_109.jpg,blue,orange,NA,NA,NA,NA,NA,NA,NA,NA,NA,NaN,NA,3025.4000000953674,left,1,NA,NA,NA,NA,NA
MrreSbXV,3ac6mfv6anv2a7u5af0lkpxttwbhzq,31lvtdxblbnxhwpyilq8fykt58zrlv,MrreSbXV,2020-0188,2021-10-30,20:39:44,22:13:32,NA,incomplete,true,NA,NA,true,0,2,NA,NA,NA,right,m_l_048.jpg,blue,red,NA,NA,NA,NA,NA,NA,NA,NA,NA,NaN,NA,4365.600000143051,left,0,NA,NA,NA,NA,NA
MrreSbXV,3ac6mfv6anv2a7u5af0lkpxttwbhzq,31lvtdxblbnxhwpyilq8fykt58zrlv,MrreSbXV,2020-0188,2021-10-30,20:39:44,22:13:32,NA,incomplete,true,NA,NA,true,0,3,NA,NA,NA,left,n_l_046.jpg,blue,orange,NA,NA,NA,NA,NA,NA,NA,NA,NA,NaN,NA,3072.4000000953674,left,1,NA,NA,NA,NA,NA
MrreSbXV,3ac6mfv6anv2a7u5af0lkpxttwbhzq,31lvtdxblbnxhwpyilq8fykt58zrlv,MrreSbXV,2020-0188,2021-10-30,20:39:44,22:13:32,NA,incomplete,true,NA,NA,true,0,4,NA,NA,NA,left,n_s_022.jpg,purple,green,NA,NA,NA,NA,NA,NA,NA,NA,NA,NaN,NA,3529.5999999046326,left,1,NA,NA,NA,NA,NA
MrreSbXV,3ac6mfv6anv2a7u5af0lkpxttwbhzq,31lvtdxblbnxhwpyilq8fykt58zrlv,MrreSbXV,2020-0188,2021-10-30,20:39:44,22:13:32,NA,incomplete,true,NA,NA,true,0,5,NA,NA,NA,left,m_l_037.jpg,black,orange,NA,NA,NA,NA,NA,NA,NA,NA,NA,NaN,NA,3207.0999999046326,right,0,NA,NA,NA,NA,NA
MrreSbXV,3ac6mfv6anv2a7u5af0lkpxttwbhzq,31lvtdxblbnxhwpyilq8fykt58zrlv,MrreSbXV,2020-0188,2021-10-30,20:39:44,22:13:32,NA,incomplete,true,NA,NA,true,0,6,NA,NA,NA,right,n_s_058.jpg,orange,black,NA,NA,NA,NA,NA,NA,NA,NA,NA,NaN,NA,3811.2999999523163,left,0,NA,NA,NA,NA,NA
MrreSbXV,3ac6mfv6anv2a7u5af0lkpxttwbhzq,31lvtdxblbnxhwpyilq8fykt58zrlv,MrreSbXV,2020-0188,2021-10-30,20:39:44,22:13:32,NA,incomplete,true,NA,NA,true,0,7,NA,NA,NA,left,n_s_089.jpg,purple,red,NA,NA,NA,NA,NA,NA,NA,NA,NA,NaN,NA,4428.900000095367,right,0,NA,NA,NA,NA,NA
MrreSbXV,3ac6mfv6anv2a7u5af0lkpxttwbhzq,31lvtdxblbnxhwpyilq8fykt58zrlv,MrreSbXV,2020-0188,2021-10-30,20:39:44,22:13:32,NA,incomplete,true,NA,NA,true,0,8,NA,NA,NA,right,n_s_111.jpg,purple,green,NA,NA,NA,NA,NA,NA,NA,NA,NA,NaN,NA,5744.700000047684,right,1,NA,NA,NA,NA,NA
MrreSbXV,3ac6mfv6anv2a7u5af0lkpxttwbhzq,31lvtdxblbnxhwpyilq8fykt58zrlv,MrreSbXV,2020-0188,2021-10-30,20:39:44,22:13:32,NA,incomplete,true,NA,NA,true,0,9,NA,NA,NA,right,n_s_053.jpg,purple,red,NA,NA,NA,NA,NA,NA,NA,NA,NA,NaN,NA,4482.5,left,0,NA,NA,NA,NA,NA
MrreSbXV,3ac6mfv6anv2a7u5af0lkpxttwbhzq,31lvtdxblbnxhwpyilq8fykt58zrlv,MrreSbXV,2020-0188,2021-10-30,20:39:44,22:13:32,NA,incomplete,true,NA,NA,true,0,10,NA,NA,NA,right,m_l_072.jpg,green,purple,NA,NA,NA,NA,NA,NA,NA,NA,NA,NaN,NA,4775.200000047684,left,0,NA,NA,NA,NA,NA
MrreSbXV,3ac6mfv6anv2a7u5af0lkpxttwbhzq,31lvtdxblbnxhwpyilq8fykt58zrlv,MrreSbXV,2020-0188,2021-10-30,20:39:44,22:13:32,NA,incomplete,true,NA,NA,true,0,11,NA,NA,NA,right,m_l_018.jpg,orange,black,NA,NA,NA,NA,NA,NA,NA,NA,NA,NaN,NA,2539.0999999046326,right,1,NA,NA,NA,NA,NA
MrreSbXV,3ac6mfv6anv2a7u5af0lkpxttwbhzq,31lvtdxblbnxhwpyilq8fykt58zrlv,MrreSbXV,2020-0188,2021-10-30,20:39:44,22:13:32,NA,incomplete,true,NA,NA,true,0,12,NA,NA,NA,left,m_s_080.jpg,red,purple,NA,NA,NA,NA,NA,NA,NA,NA,NA,NaN,NA,3119.300000190735,right,0,NA,NA,NA,NA,NA
MrreSbXV,3ac6mfv6anv2a7u5af0lkpxttwbhzq,31lvtdxblbnxhwpyilq8fykt58zrlv,MrreSbXV,2020-0188,2021-10-30,20:39:44,22:13:32,NA,incomplete,true,NA,NA,true,0,13,NA,NA,NA,left,n_s_021.jpg,green,purple,NA,NA,NA,NA,NA,NA,NA,NA,NA,NaN,NA,3517.4000000953674,right,0,NA,NA,NA,NA,NA
MrreSbXV,3ac6mfv6anv2a7u5af0lkpxttwbhzq,31lvtdxblbnxhwpyilq8fykt58zrlv,MrreSbXV,2020-0188,2021-10-30,20:39:44,22:13:32,NA,incomplete,true,NA,NA,true,0,14,NA,NA,NA,right,m_l_096.jpg,black,orange,NA,NA,NA,NA,NA,NA,NA,NA,NA,NaN,NA,2415.2999999523163,right,1,NA,NA,NA,NA,NA
MrreSbXV,3ac6mfv6anv2a7u5af0lkpxttwbhzq,31lvtdxblbnxhwpyilq8fykt58zrlv,MrreSbXV,2020-0188,2021-10-30,20:39:44,22:13:32,NA,incomplete,true,NA,NA,true,0,15,NA,NA,NA,right,m_s_049.jpg,black,orange,NA,NA,NA,NA,NA,NA,NA,NA,NA,NaN,NA,3803.2999999523163,right,1,NA,NA,NA,NA,NA
MrreSbXV,3ac6mfv6anv2a7u5af0lkpxttwbhzq,31lvtdxblbnxhwpyilq8fykt58zrlv,MrreSbXV,2020-0188,2021-10-30,20:39:44,22:13:32,NA,incomplete,true,NA,NA,true,0,16,NA,NA,NA,right,m_l_025.jpg,purple,green,NA,NA,NA,NA,NA,NA,NA,NA,NA,NaN,NA,3081.7000000476837,right,1,NA,NA,NA,NA,NA
MrreSbXV,3ac6mfv6anv2a7u5af0lkpxttwbhzq,31lvtdxblbnxhwpyilq8fykt58zrlv,MrreSbXV,2020-0188,2021-10-30,20:39:44,22:13:32,NA,incomplete,true,NA,NA,true,0,17,NA,NA,NA,right,n_l_063.jpg,blue,orange,NA,NA,NA,NA,NA,NA,NA,NA,NA,NaN,NA,5119.700000047684,left,0,NA,NA,NA,NA,NA
MrreSbXV,3ac6mfv6anv2a7u5af0lkpxttwbhzq,31lvtdxblbnxhwpyilq8fykt58zrlv,MrreSbXV,2020-0188,2021-10-30,20:39:44,22:13:32,NA,incomplete,true,NA,NA,true,0,18,NA,NA,NA,left,n_s_075.jpg,blue,red,NA,NA,NA,NA,NA,NA,NA,NA,NA,NaN,NA,4583.900000095367,left,1,NA,NA,NA,NA,NA
MrreSbXV,3ac6mfv6anv2a7u5af0lkpxttwbhzq,31lvtdxblbnxhwpyilq8fykt58zrlv,MrreSbXV,2020-0188,2021-10-30,20:39:44,22:13:32,NA,incomplete,true,NA,NA,true,0,19,NA,NA,NA,right,n_l_016.jpg,orange,blue,NA,NA,NA,NA,NA,NA,NA,NA,NA,NaN,NA,3150.9000000953674,left,0,NA,NA,NA,NA,NA
MrreSbXV,3ac6mfv6anv2a7u5af0lkpxttwbhzq,31lvtdxblbnxhwpyilq8fykt58zrlv,MrreSbXV,2020-0188,2021-10-30,20:39:44,22:13:32,NA,incomplete,true,NA,NA,true,0,20,NA,NA,NA,right,m_s_091.jpg,purple,red,NA,NA,NA,NA,NA,NA,NA,NA,NA,NaN,NA,3094.7999999523163,right,1,NA,NA,NA,NA,NA
MrreSbXV,3ac6mfv6anv2a7u5af0lkpxttwbhzq,31lvtdxblbnxhwpyilq8fykt58zrlv,MrreSbXV,2020-0188,2021-10-30,20:39:44,22:13:32,NA,incomplete,true,NA,NA,true,0,21,NA,NA,NA,left,n_l_103.jpg,orange,black,NA,NA,NA,NA,NA,NA,NA,NA,NA,NaN,NA,5205.199999809265,left,1,NA,NA,NA,NA,NA
MrreSbXV,3ac6mfv6anv2a7u5af0lkpxttwbhzq,31lvtdxblbnxhwpyilq8fykt58zrlv,MrreSbXV,2020-0188,2021-10-30,20:39:44,22:13:32,NA,incomplete,true,NA,true,NA,0,0,NA,NA,NA,right,NA,NA,NA,absent,NA,NA,m_s_091.jpg,red,m_l_048.jpg,red,within,NA,NaN,NA,NA,NA,NA,right,3709.2999999523163,1,2,5559.099999904633
MrreSbXV,3ac6mfv6anv2a7u5af0lkpxttwbhzq,31lvtdxblbnxhwpyilq8fykt58zrlv,MrreSbXV,2020-0188,2021-10-30,20:39:44,22:13:32,NA,incomplete,true,NA,true,NA,0,1,NA,NA,NA,right,NA,NA,NA,absent,NA,NA,n_s_053.jpg,red,m_l_068.jpg,purple,between,NA,NaN,NA,NA,NA,NA,right,3379.100000143051,1,1,4639.100000143051
MrreSbXV,3ac6mfv6anv2a7u5af0lkpxttwbhzq,31lvtdxblbnxhwpyilq8fykt58zrlv,MrreSbXV,2020-0188,2021-10-30,20:39:44,22:13:32,NA,incomplete,true,NA,true,NA,0,2,NA,NA,NA,right,NA,NA,NA,absent,NA,NA,n_s_021.jpg,green,m_l_025.jpg,green,within,NA,NaN,NA,NA,NA,NA,left,3252.2999999523163,0,1,1937.2999999523163
MrreSbXV,3ac6mfv6anv2a7u5af0lkpxttwbhzq,31lvtdxblbnxhwpyilq8fykt58zrlv,MrreSbXV,2020-0188,2021-10-30,20:39:44,22:13:32,NA,incomplete,true,NA,true,NA,0,3,NA,NA,NA,right,NA,NA,NA,absent,NA,NA,n_l_063.jpg,orange,m_l_096.jpg,orange,within,NA,NaN,NA,NA,NA,NA,right,4547.5,1,1,1897.7999999523163
MrreSbXV,3ac6mfv6anv2a7u5af0lkpxttwbhzq,31lvtdxblbnxhwpyilq8fykt58zrlv,MrreSbXV,2020-0188,2021-10-30,20:39:44,22:13:32,NA,incomplete,true,NA,true,NA,0,4,NA,NA,NA,left,NA,NA,NA,absent,NA,NA,n_s_022.jpg,purple,m_l_072.jpg,purple,within,NA,NaN,NA,NA,NA,NA,left,3793,1,1,3526.2000000476837
MrreSbXV,3ac6mfv6anv2a7u5af0lkpxttwbhzq,31lvtdxblbnxhwpyilq8fykt58zrlv,MrreSbXV,2020-0188,2021-10-30,20:39:44,22:13:32,NA,incomplete,true,NA,true,NA,0,5,NA,NA,NA,left,NA,NA,NA,absent,NA,NA,n_s_075.jpg,blue,n_l_016.jpg,blue,within,NA,NaN,NA,NA,NA,NA,right,5769.100000143051,0,2,4125
MrreSbXV,3ac6mfv6anv2a7u5af0lkpxttwbhzq,31lvtdxblbnxhwpyilq8fykt58zrlv,MrreSbXV,2020-0188,2021-10-30,20:39:44,22:13:32,NA,incomplete,true,NA,true,NA,0,6,NA,NA,NA,right,NA,NA,NA,absent,NA,NA,m_s_109.jpg,blue,m_s_080.jpg,red,between,NA,NaN,NA,NA,NA,NA,left,3159,0,1,1504.1000001430511
MrreSbXV,3ac6mfv6anv2a7u5af0lkpxttwbhzq,31lvtdxblbnxhwpyilq8fykt58zrlv,MrreSbXV,2020-0188,2021-10-30,20:39:44,22:13:32,NA,incomplete,true,NA,true,NA,0,7,NA,NA,NA,right,NA,NA,NA,absent,NA,NA,m_l_037.jpg,black,m_l_018.jpg,black,within,NA,NaN,NA,NA,NA,NA,left,5851.700000047684,0,1,1771.2000000476837
MrreSbXV,3ac6mfv6anv2a7u5af0lkpxttwbhzq,31lvtdxblbnxhwpyilq8fykt58zrlv,MrreSbXV,2020-0188,2021-10-30,20:39:44,22:13:32,NA,incomplete,true,NA,true,NA,0,8,NA,NA,NA,left,NA,NA,NA,absent,NA,NA,n_l_046.jpg,blue,m_s_049.jpg,orange,between,NA,NaN,NA,NA,NA,NA,right,2297.7000000476837,0,1,2202.800000190735
MrreSbXV,3ac6mfv6anv2a7u5af0lkpxttwbhzq,31lvtdxblbnxhwpyilq8fykt58zrlv,MrreSbXV,2020-0188,2021-10-30,20:39:44,22:13:32,NA,incomplete,true,NA,true,NA,0,9,NA,NA,NA,left,NA,NA,NA,absent,NA,NA,n_s_111.jpg,green,n_s_089.jpg,purple,between,NA,NaN,NA,NA,NA,NA,left,6719.5,1,1,1372.9000000953674
MrreSbXV,3ac6mfv6anv2a7u5af0lkpxttwbhzq,31lvtdxblbnxhwpyilq8fykt58zrlv,MrreSbXV,2020-0188,2021-10-30,20:39:44,22:13:32,NA,incomplete,true,NA,true,NA,0,10,NA,NA,NA,left,NA,NA,NA,absent,NA,NA,n_l_103.jpg,orange,n_s_058.jpg,black,between,NA,NaN,NA,NA,NA,NA,left,4759,1,2,2085.4000000953674
MrreSbXV,3ac6mfv6anv2a7u5af0lkpxttwbhzq,31lvtdxblbnxhwpyilq8fykt58zrlv,MrreSbXV,2020-0188,2021-10-30,20:39:44,22:13:32,NA,incomplete,false,true,NA,NA,1,0,NA,brown,m_l_114.jpg,NA,NA,NA,NA,NA,unpleasant,pleasant,NA,NA,NA,NA,NA,none,0,false,NA,NA,NA,NA,NA,NA,NA,NA
MrreSbXV,3ac6mfv6anv2a7u5af0lkpxttwbhzq,31lvtdxblbnxhwpyilq8fykt58zrlv,MrreSbXV,2020-0188,2021-10-30,20:39:44,22:13:32,NA,incomplete,false,true,NA,NA,1,1,NA,brown,n_s_027.jpg,NA,NA,NA,NA,NA,pleasant,unpleasant,NA,NA,NA,NA,NA,left,2372.09999990463,true,NA,NA,NA,NA,NA,NA,NA,NA
MrreSbXV,3ac6mfv6anv2a7u5af0lkpxttwbhzq,31lvtdxblbnxhwpyilq8fykt58zrlv,MrreSbXV,2020-0188,2021-10-30,20:39:44,22:13:32,NA,incomplete,false,true,NA,NA,1,2,NA,brown,n_s_001.jpg,NA,NA,NA,NA,NA,pleasant,unpleasant,NA,NA,NA,NA,NA,left,2223.60000014305,true,NA,NA,NA,NA,NA,NA,NA,NA
MrreSbXV,3ac6mfv6anv2a7u5af0lkpxttwbhzq,31lvtdxblbnxhwpyilq8fykt58zrlv,MrreSbXV,2020-0188,2021-10-30,20:39:44,22:13:32,NA,incomplete,false,true,NA,NA,1,3,NA,brown,m_l_013.jpg,NA,NA,NA,NA,NA,pleasant,unpleasant,NA,NA,NA,NA,NA,left,2155.79999995232,true,NA,NA,NA,NA,NA,NA,NA,NA
MrreSbXV,3ac6mfv6anv2a7u5af0lkpxttwbhzq,31lvtdxblbnxhwpyilq8fykt58zrlv,MrreSbXV,2020-0188,2021-10-30,20:39:44,22:13:32,NA,incomplete,false,true,NA,NA,1,4,NA,brown,n_s_055.jpg,NA,NA,NA,NA,NA,pleasant,unpleasant,NA,NA,NA,NA,NA,right,2743,true,NA,NA,NA,NA,NA,NA,NA,NA
MrreSbXV,3ac6mfv6anv2a7u5af0lkpxttwbhzq,31lvtdxblbnxhwpyilq8fykt58zrlv,MrreSbXV,2020-0188,2021-10-30,20:39:44,22:13:32,NA,incomplete,false,true,NA,NA,1,5,NA,brown,m_l_084.jpg,NA,NA,NA,NA,NA,unpleasant,pleasant,NA,NA,NA,NA,NA,right,2020.39999985695,true,NA,NA,NA,NA,NA,NA,NA,NA
MrreSbXV,3ac6mfv6anv2a7u5af0lkpxttwbhzq,31lvtdxblbnxhwpyilq8fykt58zrlv,MrreSbXV,2020-0188,2021-10-30,20:39:44,22:13:32,NA,incomplete,false,true,NA,NA,1,6,NA,gray,n_l_113.jpg,NA,NA,NA,NA,NA,unpleasant,pleasant,NA,NA,NA,NA,NA,left,1784.19999980927,true,NA,NA,NA,NA,NA,NA,NA,NA
MrreSbXV,3ac6mfv6anv2a7u5af0lkpxttwbhzq,31lvtdxblbnxhwpyilq8fykt58zrlv,MrreSbXV,2020-0188,2021-10-30,20:39:44,22:13:32,NA,incomplete,false,true,NA,NA,1,7,NA,gray,n_l_084.jpg,NA,NA,NA,NA,NA,unpleasant,pleasant,NA,NA,NA,NA,NA,left,2146.90000009537,true,NA,NA,NA,NA,NA,NA,NA,NA
MrreSbXV,3ac6mfv6anv2a7u5af0lkpxttwbhzq,31lvtdxblbnxhwpyilq8fykt58zrlv,MrreSbXV,2020-0188,2021-10-30,20:39:44,22:13:32,NA,incomplete,false,true,NA,NA,1,8,NA,gray,n_l_077.jpg,NA,NA,NA,NA,NA,pleasant,unpleasant,NA,NA,NA,NA,NA,right,2225.5,true,NA,NA,NA,NA,NA,NA,NA,NA
MrreSbXV,3ac6mfv6anv2a7u5af0lkpxttwbhzq,31lvtdxblbnxhwpyilq8fykt58zrlv,MrreSbXV,2020-0188,2021-10-30,20:39:44,22:13:32,NA,incomplete,false,true,NA,NA,1,9,NA,gray,m_l_098.jpg,NA,NA,NA,NA,NA,unpleasant,pleasant,NA,NA,NA,NA,NA,left,1869.70000004768,true,NA,NA,NA,NA,NA,NA,NA,NA
MrreSbXV,3ac6mfv6anv2a7u5af0lkpxttwbhzq,31lvtdxblbnxhwpyilq8fykt58zrlv,MrreSbXV,2020-0188,2021-10-30,20:39:44,22:13:32,NA,incomplete,false,true,NA,NA,1,10,NA,gray,n_s_067.jpg,NA,NA,NA,NA,NA,pleasant,unpleasant,NA,NA,NA,NA,NA,left,1898.20000004768,true,NA,NA,NA,NA,NA,NA,NA,NA
MrreSbXV,3ac6mfv6anv2a7u5af0lkpxttwbhzq,31lvtdxblbnxhwpyilq8fykt58zrlv,MrreSbXV,2020-0188,2021-10-30,20:39:44,22:13:32,NA,incomplete,false,true,NA,NA,1,11,NA,gray,n_l_009.jpg,NA,NA,NA,NA,NA,unpleasant,pleasant,NA,NA,NA,NA,NA,right,1663.29999995232,true,NA,NA,NA,NA,NA,NA,NA,NA
MrreSbXV,3ac6mfv6anv2a7u5af0lkpxttwbhzq,31lvtdxblbnxhwpyilq8fykt58zrlv,MrreSbXV,2020-0188,2021-10-30,20:39:44,22:13:32,NA,incomplete,false,true,NA,NA,1,12,NA,black,m_s_103.jpg,NA,NA,NA,NA,NA,pleasant,unpleasant,NA,NA,NA,NA,NA,left,2042.90000009537,true,NA,NA,NA,NA,NA,NA,NA,NA
MrreSbXV,3ac6mfv6anv2a7u5af0lkpxttwbhzq,31lvtdxblbnxhwpyilq8fykt58zrlv,MrreSbXV,2020-0188,2021-10-30,20:39:44,22:13:32,NA,incomplete,false,true,NA,NA,1,13,NA,black,m_l_070.jpg,NA,NA,NA,NA,NA,pleasant,unpleasant,NA,NA,NA,NA,NA,left,2191.60000014305,true,NA,NA,NA,NA,NA,NA,NA,NA
MrreSbXV,3ac6mfv6anv2a7u5af0lkpxttwbhzq,31lvtdxblbnxhwpyilq8fykt58zrlv,MrreSbXV,2020-0188,2021-10-30,20:39:44,22:13:32,NA,incomplete,false,true,NA,NA,1,14,NA,black,n_s_010.jpg,NA,NA,NA,NA,NA,pleasant,unpleasant,NA,NA,NA,NA,NA,right,2307.79999995232,true,NA,NA,NA,NA,NA,NA,NA,NA
MrreSbXV,3ac6mfv6anv2a7u5af0lkpxttwbhzq,31lvtdxblbnxhwpyilq8fykt58zrlv,MrreSbXV,2020-0188,2021-10-30,20:39:44,22:13:32,NA,incomplete,false,true,NA,NA,1,15,NA,black,m_s_102.jpg,NA,NA,NA,NA,NA,unpleasant,pleasant,NA,NA,NA,NA,NA,right,2007.5,true,NA,NA,NA,NA,NA,NA,NA,NA
MrreSbXV,3ac6mfv6anv2a7u5af0lkpxttwbhzq,31lvtdxblbnxhwpyilq8fykt58zrlv,MrreSbXV,2020-0188,2021-10-30,20:39:44,22:13:32,NA,incomplete,false,true,NA,NA,1,16,NA,black,n_l_045.jpg,NA,NA,NA,NA,NA,pleasant,unpleasant,NA,NA,NA,NA,NA,left,1867.5,true,NA,NA,NA,NA,NA,NA,NA,NA
MrreSbXV,3ac6mfv6anv2a7u5af0lkpxttwbhzq,31lvtdxblbnxhwpyilq8fykt58zrlv,MrreSbXV,2020-0188,2021-10-30,20:39:44,22:13:32,NA,incomplete,false,true,NA,NA,1,17,NA,black,n_s_070.jpg,NA,NA,NA,NA,NA,unpleasant,pleasant,NA,NA,NA,NA,NA,right,2503,true,NA,NA,NA,NA,NA,NA,NA,NA
MrreSbXV,3ac6mfv6anv2a7u5af0lkpxttwbhzq,31lvtdxblbnxhwpyilq8fykt58zrlv,MrreSbXV,2020-0188,2021-10-30,20:39:44,22:13:32,NA,incomplete,false,true,NA,NA,1,18,NA,orange,n_s_083.jpg,NA,NA,NA,NA,NA,unpleasant,pleasant,NA,NA,NA,NA,NA,right,2291.40000009537,true,NA,NA,NA,NA,NA,NA,NA,NA
MrreSbXV,3ac6mfv6anv2a7u5af0lkpxttwbhzq,31lvtdxblbnxhwpyilq8fykt58zrlv,MrreSbXV,2020-0188,2021-10-30,20:39:44,22:13:32,NA,incomplete,false,true,NA,NA,1,19,NA,orange,n_l_055.jpg,NA,NA,NA,NA,NA,unpleasant,pleasant,NA,NA,NA,NA,NA,right,1727.79999995232,true,NA,NA,NA,NA,NA,NA,NA,NA
MrreSbXV,3ac6mfv6anv2a7u5af0lkpxttwbhzq,31lvtdxblbnxhwpyilq8fykt58zrlv,MrreSbXV,2020-0188,2021-10-30,20:39:44,22:13:32,NA,incomplete,false,true,NA,NA,1,20,NA,orange,n_s_037.jpg,NA,NA,NA,NA,NA,unpleasant,pleasant,NA,NA,NA,NA,NA,right,1516.89999985695,true,NA,NA,NA,NA,NA,NA,NA,NA
MrreSbXV,3ac6mfv6anv2a7u5af0lkpxttwbhzq,31lvtdxblbnxhwpyilq8fykt58zrlv,MrreSbXV,2020-0188,2021-10-30,20:39:44,22:13:32,NA,incomplete,false,true,NA,NA,1,21,NA,orange,n_l_069.jpg,NA,NA,NA,NA,NA,unpleasant,pleasant,NA,NA,NA,NA,NA,right,1337.10000014305,true,NA,NA,NA,NA,NA,NA,NA,NA
MrreSbXV,3ac6mfv6anv2a7u5af0lkpxttwbhzq,31lvtdxblbnxhwpyilq8fykt58zrlv,MrreSbXV,2020-0188,2021-10-30,20:39:44,22:13:32,NA,incomplete,false,true,NA,NA,1,22,NA,orange,m_s_082.jpg,NA,NA,NA,NA,NA,pleasant,unpleasant,NA,NA,NA,NA,NA,left,2965.90000009537,true,NA,NA,NA,NA,NA,NA,NA,NA
MrreSbXV,3ac6mfv6anv2a7u5af0lkpxttwbhzq,31lvtdxblbnxhwpyilq8fykt58zrlv,MrreSbXV,2020-0188,2021-10-30,20:39:44,22:13:32,NA,incomplete,false,true,NA,NA,1,23,NA,orange,m_l_049.jpg,NA,NA,NA,NA,NA,unpleasant,pleasant,NA,NA,NA,NA,NA,left,2329,true,NA,NA,NA,NA,NA,NA,NA,NA
MrreSbXV,3ac6mfv6anv2a7u5af0lkpxttwbhzq,31lvtdxblbnxhwpyilq8fykt58zrlv,MrreSbXV,2020-0188,2021-10-30,20:39:44,22:13:32,NA,incomplete,false,true,NA,NA,1,24,NA,yellow,n_l_037.jpg,NA,NA,NA,NA,NA,pleasant,unpleasant,NA,NA,NA,NA,NA,right,1765.80000019073,true,NA,NA,NA,NA,NA,NA,NA,NA
MrreSbXV,3ac6mfv6anv2a7u5af0lkpxttwbhzq,31lvtdxblbnxhwpyilq8fykt58zrlv,MrreSbXV,2020-0188,2021-10-30,20:39:44,22:13:32,NA,incomplete,false,true,NA,NA,1,25,NA,yellow,m_s_034.jpg,NA,NA,NA,NA,NA,pleasant,unpleasant,NA,NA,NA,NA,NA,right,2883.20000004768,true,NA,NA,NA,NA,NA,NA,NA,NA
MrreSbXV,3ac6mfv6anv2a7u5af0lkpxttwbhzq,31lvtdxblbnxhwpyilq8fykt58zrlv,MrreSbXV,2020-0188,2021-10-30,20:39:44,22:13:32,NA,incomplete,false,true,NA,NA,1,26,NA,yellow,n_s_110.jpg,NA,NA,NA,NA,NA,pleasant,unpleasant,NA,NA,NA,NA,NA,right,1815.70000004768,true,NA,NA,NA,NA,NA,NA,NA,NA
MrreSbXV,3ac6mfv6anv2a7u5af0lkpxttwbhzq,31lvtdxblbnxhwpyilq8fykt58zrlv,MrreSbXV,2020-0188,2021-10-30,20:39:44,22:13:32,NA,incomplete,false,true,NA,NA,1,27,NA,yellow,m_s_084.jpg,NA,NA,NA,NA,NA,unpleasant,pleasant,NA,NA,NA,NA,NA,right,3236.29999995232,true,NA,NA,NA,NA,NA,NA,NA,NA
MrreSbXV,3ac6mfv6anv2a7u5af0lkpxttwbhzq,31lvtdxblbnxhwpyilq8fykt58zrlv,MrreSbXV,2020-0188,2021-10-30,20:39:44,22:13:32,NA,incomplete,false,true,NA,NA,1,28,NA,yellow,n_l_054.jpg,NA,NA,NA,NA,NA,unpleasant,pleasant,NA,NA,NA,NA,NA,right,1864.09999990463,true,NA,NA,NA,NA,NA,NA,NA,NA
MrreSbXV,3ac6mfv6anv2a7u5af0lkpxttwbhzq,31lvtdxblbnxhwpyilq8fykt58zrlv,MrreSbXV,2020-0188,2021-10-30,20:39:44,22:13:32,NA,incomplete,false,true,NA,NA,1,29,NA,yellow,m_s_099.jpg,NA,NA,NA,NA,NA,unpleasant,pleasant,NA,NA,NA,NA,NA,right,1492.89999985695,true,NA,NA,NA,NA,NA,NA,NA,NA
MrreSbXV,3ac6mfv6anv2a7u5af0lkpxttwbhzq,31lvtdxblbnxhwpyilq8fykt58zrlv,MrreSbXV,2020-0188,2021-10-30,20:39:44,22:13:32,NA,incomplete,false,true,NA,NA,1,30,NA,red,n_l_081.jpg,NA,NA,NA,NA,NA,pleasant,unpleasant,NA,NA,NA,NA,NA,right,1234.30000019073,true,NA,NA,NA,NA,NA,NA,NA,NA
MrreSbXV,3ac6mfv6anv2a7u5af0lkpxttwbhzq,31lvtdxblbnxhwpyilq8fykt58zrlv,MrreSbXV,2020-0188,2021-10-30,20:39:44,22:13:32,NA,incomplete,false,true,NA,NA,1,31,NA,red,m_s_089.jpg,NA,NA,NA,NA,NA,pleasant,unpleasant,NA,NA,NA,NA,NA,left,3221.5,true,NA,NA,NA,NA,NA,NA,NA,NA
MrreSbXV,3ac6mfv6anv2a7u5af0lkpxttwbhzq,31lvtdxblbnxhwpyilq8fykt58zrlv,MrreSbXV,2020-0188,2021-10-30,20:39:44,22:13:32,NA,incomplete,false,true,NA,NA,1,32,NA,red,n_l_057.jpg,NA,NA,NA,NA,NA,pleasant,unpleasant,NA,NA,NA,NA,NA,left,1271.89999985695,true,NA,NA,NA,NA,NA,NA,NA,NA
MrreSbXV,3ac6mfv6anv2a7u5af0lkpxttwbhzq,31lvtdxblbnxhwpyilq8fykt58zrlv,MrreSbXV,2020-0188,2021-10-30,20:39:44,22:13:32,NA,incomplete,false,true,NA,NA,1,33,NA,red,m_s_097.jpg,NA,NA,NA,NA,NA,pleasant,unpleasant,NA,NA,NA,NA,NA,right,1691.80000019073,true,NA,NA,NA,NA,NA,NA,NA,NA
MrreSbXV,3ac6mfv6anv2a7u5af0lkpxttwbhzq,31lvtdxblbnxhwpyilq8fykt58zrlv,MrreSbXV,2020-0188,2021-10-30,20:39:44,22:13:32,NA,incomplete,false,true,NA,NA,1,34,NA,red,n_s_060.jpg,NA,NA,NA,NA,NA,pleasant,unpleasant,NA,NA,NA,NA,NA,left,1601.80000019073,true,NA,NA,NA,NA,NA,NA,NA,NA
MrreSbXV,3ac6mfv6anv2a7u5af0lkpxttwbhzq,31lvtdxblbnxhwpyilq8fykt58zrlv,MrreSbXV,2020-0188,2021-10-30,20:39:44,22:13:32,NA,incomplete,false,true,NA,NA,1,35,NA,red,m_s_057.jpg,NA,NA,NA,NA,NA,unpleasant,pleasant,NA,NA,NA,NA,NA,right,1893.20000004768,true,NA,NA,NA,NA,NA,NA,NA,NA
MrreSbXV,3ac6mfv6anv2a7u5af0lkpxttwbhzq,31lvtdxblbnxhwpyilq8fykt58zrlv,MrreSbXV,2020-0188,2021-10-30,20:39:44,22:13:32,NA,incomplete,false,NA,NA,true,1,0,NA,NA,NA,right,m_l_070.jpg,gray,black,NA,NA,NA,NA,NA,NA,NA,NA,NA,NaN,NA,2885.699999809265,right,1,NA,NA,NA,NA,NA
MrreSbXV,3ac6mfv6anv2a7u5af0lkpxttwbhzq,31lvtdxblbnxhwpyilq8fykt58zrlv,MrreSbXV,2020-0188,2021-10-30,20:39:44,22:13:32,NA,incomplete,false,NA,NA,true,1,1,NA,NA,NA,left,n_l_084.jpg,gray,brown,NA,NA,NA,NA,NA,NA,NA,NA,NA,NaN,NA,2940,right,0,NA,NA,NA,NA,NA
MrreSbXV,3ac6mfv6anv2a7u5af0lkpxttwbhzq,31lvtdxblbnxhwpyilq8fykt58zrlv,MrreSbXV,2020-0188,2021-10-30,20:39:44,22:13:32,NA,incomplete,false,NA,NA,true,1,2,NA,NA,NA,left,n_s_070.jpg,black,orange,NA,NA,NA,NA,NA,NA,NA,NA,NA,NaN,NA,3025.0999999046326,left,1,NA,NA,NA,NA,NA
MrreSbXV,3ac6mfv6anv2a7u5af0lkpxttwbhzq,31lvtdxblbnxhwpyilq8fykt58zrlv,MrreSbXV,2020-0188,2021-10-30,20:39:44,22:13:32,NA,incomplete,false,NA,NA,true,1,3,NA,NA,NA,right,m_s_082.jpg,black,orange,NA,NA,NA,NA,NA,NA,NA,NA,NA,NaN,NA,3919.2000000476837,right,1,NA,NA,NA,NA,NA
MrreSbXV,3ac6mfv6anv2a7u5af0lkpxttwbhzq,31lvtdxblbnxhwpyilq8fykt58zrlv,MrreSbXV,2020-0188,2021-10-30,20:39:44,22:13:32,NA,incomplete,false,NA,NA,true,1,4,NA,NA,NA,right,m_l_084.jpg,gray,brown,NA,NA,NA,NA,NA,NA,NA,NA,NA,NaN,NA,3478.5,right,1,NA,NA,NA,NA,NA
MrreSbXV,3ac6mfv6anv2a7u5af0lkpxttwbhzq,31lvtdxblbnxhwpyilq8fykt58zrlv,MrreSbXV,2020-0188,2021-10-30,20:39:44,22:13:32,NA,incomplete,false,NA,NA,true,1,5,NA,NA,NA,right,n_s_027.jpg,gray,brown,NA,NA,NA,NA,NA,NA,NA,NA,NA,NaN,NA,3315,right,1,NA,NA,NA,NA,NA
MrreSbXV,3ac6mfv6anv2a7u5af0lkpxttwbhzq,31lvtdxblbnxhwpyilq8fykt58zrlv,MrreSbXV,2020-0188,2021-10-30,20:39:44,22:13:32,NA,incomplete,false,NA,NA,true,1,6,NA,NA,NA,left,n_s_010.jpg,black,gray,NA,NA,NA,NA,NA,NA,NA,NA,NA,NaN,NA,4091.4000000953674,right,0,NA,NA,NA,NA,NA
MrreSbXV,3ac6mfv6anv2a7u5af0lkpxttwbhzq,31lvtdxblbnxhwpyilq8fykt58zrlv,MrreSbXV,2020-0188,2021-10-30,20:39:44,22:13:32,NA,incomplete,false,NA,NA,true,1,7,NA,NA,NA,left,n_l_045.jpg,black,orange,NA,NA,NA,NA,NA,NA,NA,NA,NA,NaN,NA,5242.899999856949,left,1,NA,NA,NA,NA,NA
MrreSbXV,3ac6mfv6anv2a7u5af0lkpxttwbhzq,31lvtdxblbnxhwpyilq8fykt58zrlv,MrreSbXV,2020-0188,2021-10-30,20:39:44,22:13:32,NA,incomplete,false,NA,NA,true,1,8,NA,NA,NA,left,m_l_049.jpg,orange,yellow,NA,NA,NA,NA,NA,NA,NA,NA,NA,NaN,NA,3752.7999999523163,left,1,NA,NA,NA,NA,NA
MrreSbXV,3ac6mfv6anv2a7u5af0lkpxttwbhzq,31lvtdxblbnxhwpyilq8fykt58zrlv,MrreSbXV,2020-0188,2021-10-30,20:39:44,22:13:32,NA,incomplete,false,NA,NA,true,1,9,NA,NA,NA,left,n_s_110.jpg,yellow,orange,NA,NA,NA,NA,NA,NA,NA,NA,NA,NaN,NA,4515.299999952316,left,1,NA,NA,NA,NA,NA
MrreSbXV,3ac6mfv6anv2a7u5af0lkpxttwbhzq,31lvtdxblbnxhwpyilq8fykt58zrlv,MrreSbXV,2020-0188,2021-10-30,20:39:44,22:13:32,NA,incomplete,false,NA,NA,true,1,10,NA,NA,NA,left,n_l_057.jpg,red,yellow,NA,NA,NA,NA,NA,NA,NA,NA,NA,NaN,NA,3927.4000000953674,left,1,NA,NA,NA,NA,NA
MrreSbXV,3ac6mfv6anv2a7u5af0lkpxttwbhzq,31lvtdxblbnxhwpyilq8fykt58zrlv,MrreSbXV,2020-0188,2021-10-30,20:39:44,22:13:32,NA,incomplete,false,NA,NA,true,1,11,NA,NA,NA,right,n_s_055.jpg,gray,brown,NA,NA,NA,NA,NA,NA,NA,NA,NA,NaN,NA,4937.5,right,1,NA,NA,NA,NA,NA
MrreSbXV,3ac6mfv6anv2a7u5af0lkpxttwbhzq,31lvtdxblbnxhwpyilq8fykt58zrlv,MrreSbXV,2020-0188,2021-10-30,20:39:44,22:13:32,NA,incomplete,false,NA,NA,true,1,12,NA,NA,NA,left,m_s_034.jpg,yellow,red,NA,NA,NA,NA,NA,NA,NA,NA,NA,NaN,NA,4123.200000047684,left,1,NA,NA,NA,NA,NA
MrreSbXV,3ac6mfv6anv2a7u5af0lkpxttwbhzq,31lvtdxblbnxhwpyilq8fykt58zrlv,MrreSbXV,2020-0188,2021-10-30,20:39:44,22:13:32,NA,incomplete,false,NA,NA,true,1,13,NA,NA,NA,left,n_s_067.jpg,gray,black,NA,NA,NA,NA,NA,NA,NA,NA,NA,NaN,NA,3379.2000000476837,right,0,NA,NA,NA,NA,NA
MrreSbXV,3ac6mfv6anv2a7u5af0lkpxttwbhzq,31lvtdxblbnxhwpyilq8fykt58zrlv,MrreSbXV,2020-0188,2021-10-30,20:39:44,22:13:32,NA,incomplete,false,NA,NA,true,1,14,NA,NA,NA,left,m_s_089.jpg,red,yellow,NA,NA,NA,NA,NA,NA,NA,NA,NA,NaN,NA,2995.100000143051,right,0,NA,NA,NA,NA,NA
MrreSbXV,3ac6mfv6anv2a7u5af0lkpxttwbhzq,31lvtdxblbnxhwpyilq8fykt58zrlv,MrreSbXV,2020-0188,2021-10-30,20:39:44,22:13:32,NA,incomplete,false,NA,NA,true,1,15,NA,NA,NA,right,n_l_055.jpg,yellow,orange,NA,NA,NA,NA,NA,NA,NA,NA,NA,NaN,NA,3706.800000190735,right,1,NA,NA,NA,NA,NA
MrreSbXV,3ac6mfv6anv2a7u5af0lkpxttwbhzq,31lvtdxblbnxhwpyilq8fykt58zrlv,MrreSbXV,2020-0188,2021-10-30,20:39:44,22:13:32,NA,incomplete,false,NA,NA,true,1,16,NA,NA,NA,right,n_l_009.jpg,black,gray,NA,NA,NA,NA,NA,NA,NA,NA,NA,NaN,NA,2326.899999856949,right,1,NA,NA,NA,NA,NA
MrreSbXV,3ac6mfv6anv2a7u5af0lkpxttwbhzq,31lvtdxblbnxhwpyilq8fykt58zrlv,MrreSbXV,2020-0188,2021-10-30,20:39:44,22:13:32,NA,incomplete,false,NA,NA,true,1,17,NA,NA,NA,left,m_s_099.jpg,yellow,orange,NA,NA,NA,NA,NA,NA,NA,NA,NA,NaN,NA,3840.5,right,0,NA,NA,NA,NA,NA
MrreSbXV,3ac6mfv6anv2a7u5af0lkpxttwbhzq,31lvtdxblbnxhwpyilq8fykt58zrlv,MrreSbXV,2020-0188,2021-10-30,20:39:44,22:13:32,NA,incomplete,false,NA,NA,true,1,18,NA,NA,NA,left,n_l_077.jpg,gray,black,NA,NA,NA,NA,NA,NA,NA,NA,NA,NaN,NA,2907.0999999046326,left,1,NA,NA,NA,NA,NA
MrreSbXV,3ac6mfv6anv2a7u5af0lkpxttwbhzq,31lvtdxblbnxhwpyilq8fykt58zrlv,MrreSbXV,2020-0188,2021-10-30,20:39:44,22:13:32,NA,incomplete,false,NA,NA,true,1,19,NA,NA,NA,right,n_l_054.jpg,orange,yellow,NA,NA,NA,NA,NA,NA,NA,NA,NA,NaN,NA,4663.800000190735,left,0,NA,NA,NA,NA,NA
MrreSbXV,3ac6mfv6anv2a7u5af0lkpxttwbhzq,31lvtdxblbnxhwpyilq8fykt58zrlv,MrreSbXV,2020-0188,2021-10-30,20:39:44,22:13:32,NA,incomplete,false,NA,NA,true,1,20,NA,NA,NA,left,n_s_037.jpg,orange,black,NA,NA,NA,NA,NA,NA,NA,NA,NA,NaN,NA,2187.399999856949,left,1,NA,NA,NA,NA,NA
MrreSbXV,3ac6mfv6anv2a7u5af0lkpxttwbhzq,31lvtdxblbnxhwpyilq8fykt58zrlv,MrreSbXV,2020-0188,2021-10-30,20:39:44,22:13:32,NA,incomplete,false,NA,NA,true,1,21,NA,NA,NA,left,m_s_057.jpg,red,yellow,NA,NA,NA,NA,NA,NA,NA,NA,NA,NaN,NA,4765.200000047684,left,1,NA,NA,NA,NA,NA
MrreSbXV,3ac6mfv6anv2a7u5af0lkpxttwbhzq,31lvtdxblbnxhwpyilq8fykt58zrlv,MrreSbXV,2020-0188,2021-10-30,20:39:44,22:13:32,NA,incomplete,false,NA,true,NA,1,0,NA,NA,NA,right,NA,NA,NA,absent,NA,NA,n_s_037.jpg,orange,n_l_045.jpg,black,between,NA,NaN,NA,NA,NA,NA,left,3501.2000000476837,0,2,2673.300000190735
MrreSbXV,3ac6mfv6anv2a7u5af0lkpxttwbhzq,31lvtdxblbnxhwpyilq8fykt58zrlv,MrreSbXV,2020-0188,2021-10-30,20:39:44,22:13:32,NA,incomplete,false,NA,true,NA,1,1,NA,NA,NA,left,NA,NA,NA,absent,NA,NA,n_l_084.jpg,gray,n_l_009.jpg,gray,within,NA,NaN,NA,NA,NA,NA,right,5589.5,0,2,2719.2999999523163
MrreSbXV,3ac6mfv6anv2a7u5af0lkpxttwbhzq,31lvtdxblbnxhwpyilq8fykt58zrlv,MrreSbXV,2020-0188,2021-10-30,20:39:44,22:13:32,NA,incomplete,false,NA,true,NA,1,2,NA,NA,NA,left,NA,NA,NA,absent,NA,NA,n_s_055.jpg,brown,n_l_077.jpg,gray,between,NA,NaN,NA,NA,NA,NA,left,3387.4000000953674,1,2,2501
MrreSbXV,3ac6mfv6anv2a7u5af0lkpxttwbhzq,31lvtdxblbnxhwpyilq8fykt58zrlv,MrreSbXV,2020-0188,2021-10-30,20:39:44,22:13:32,NA,incomplete,false,NA,true,NA,1,3,NA,NA,NA,right,NA,NA,NA,absent,NA,NA,m_s_099.jpg,yellow,m_s_034.jpg,yellow,within,NA,NaN,NA,NA,NA,NA,right,9949.200000047684,1,1,3156.7999999523163
MrreSbXV,3ac6mfv6anv2a7u5af0lkpxttwbhzq,31lvtdxblbnxhwpyilq8fykt58zrlv,MrreSbXV,2020-0188,2021-10-30,20:39:44,22:13:32,NA,incomplete,false,NA,true,NA,1,4,NA,NA,NA,right,NA,NA,NA,absent,NA,NA,n_s_010.jpg,black,n_s_067.jpg,gray,between,NA,NaN,NA,NA,NA,NA,right,2985.5,1,1,3371.4000000953674
MrreSbXV,3ac6mfv6anv2a7u5af0lkpxttwbhzq,31lvtdxblbnxhwpyilq8fykt58zrlv,MrreSbXV,2020-0188,2021-10-30,20:39:44,22:13:32,NA,incomplete,false,NA,true,NA,1,5,NA,NA,NA,left,NA,NA,NA,absent,NA,NA,n_s_027.jpg,brown,m_l_084.jpg,brown,within,NA,NaN,NA,NA,NA,NA,right,2986.2000000476837,0,2,3567.2999999523163
MrreSbXV,3ac6mfv6anv2a7u5af0lkpxttwbhzq,31lvtdxblbnxhwpyilq8fykt58zrlv,MrreSbXV,2020-0188,2021-10-30,20:39:44,22:13:32,NA,incomplete,false,NA,true,NA,1,6,NA,NA,NA,right,NA,NA,NA,absent,NA,NA,m_l_049.jpg,orange,n_l_055.jpg,orange,within,NA,NaN,NA,NA,NA,NA,left,6773,0,2,3401.5
MrreSbXV,3ac6mfv6anv2a7u5af0lkpxttwbhzq,31lvtdxblbnxhwpyilq8fykt58zrlv,MrreSbXV,2020-0188,2021-10-30,20:39:44,22:13:32,NA,incomplete,false,NA,true,NA,1,7,NA,NA,NA,left,NA,NA,NA,absent,NA,NA,m_s_089.jpg,red,m_s_057.jpg,red,within,NA,NaN,NA,NA,NA,NA,right,4145.300000190735,0,2,1833.2999999523163
MrreSbXV,3ac6mfv6anv2a7u5af0lkpxttwbhzq,31lvtdxblbnxhwpyilq8fykt58zrlv,MrreSbXV,2020-0188,2021-10-30,20:39:44,22:13:32,NA,incomplete,false,NA,true,NA,1,8,NA,NA,NA,left,NA,NA,NA,absent,NA,NA,m_l_070.jpg,black,n_s_070.jpg,black,within,NA,NaN,NA,NA,NA,NA,left,3199.5,1,2,3308.5
MrreSbXV,3ac6mfv6anv2a7u5af0lkpxttwbhzq,31lvtdxblbnxhwpyilq8fykt58zrlv,MrreSbXV,2020-0188,2021-10-30,20:39:44,22:13:32,NA,incomplete,false,NA,true,NA,1,9,NA,NA,NA,right,NA,NA,NA,absent,NA,NA,n_s_110.jpg,yellow,m_s_082.jpg,orange,between,NA,NaN,NA,NA,NA,NA,right,2735.5999999046326,1,2,1419.1000001430511
MrreSbXV,3ac6mfv6anv2a7u5af0lkpxttwbhzq,31lvtdxblbnxhwpyilq8fykt58zrlv,MrreSbXV,2020-0188,2021-10-30,20:39:44,22:13:32,NA,incomplete,false,NA,true,NA,1,10,NA,NA,NA,left,NA,NA,NA,absent,NA,NA,n_l_054.jpg,yellow,n_l_057.jpg,red,between,NA,NaN,NA,NA,NA,NA,left,6333.299999952316,1,1,3283
MrreSbXV,3ac6mfv6anv2a7u5af0lkpxttwbhzq,31lvtdxblbnxhwpyilq8fykt58zrlv,MrreSbXV,2020-0188,2021-10-30,20:39:44,22:13:32,NA,incomplete,false,true,NA,NA,2,0,NA,red,m_l_089.jpg,NA,NA,NA,NA,NA,unpleasant,pleasant,NA,NA,NA,NA,NA,none,0,false,NA,NA,NA,NA,NA,NA,NA,NA
MrreSbXV,3ac6mfv6anv2a7u5af0lkpxttwbhzq,31lvtdxblbnxhwpyilq8fykt58zrlv,MrreSbXV,2020-0188,2021-10-30,20:39:44,22:13:32,NA,incomplete,false,true,NA,NA,2,1,NA,red,m_s_029.jpg,NA,NA,NA,NA,NA,unpleasant,pleasant,NA,NA,NA,NA,NA,none,0,false,NA,NA,NA,NA,NA,NA,NA,NA
MrreSbXV,3ac6mfv6anv2a7u5af0lkpxttwbhzq,31lvtdxblbnxhwpyilq8fykt58zrlv,MrreSbXV,2020-0188,2021-10-30,20:39:44,22:13:32,NA,incomplete,false,true,NA,NA,2,2,NA,red,n_l_076.jpg,NA,NA,NA,NA,NA,pleasant,unpleasant,NA,NA,NA,NA,NA,right,1960,true,NA,NA,NA,NA,NA,NA,NA,NA
MrreSbXV,3ac6mfv6anv2a7u5af0lkpxttwbhzq,31lvtdxblbnxhwpyilq8fykt58zrlv,MrreSbXV,2020-0188,2021-10-30,20:39:44,22:13:32,NA,incomplete,false,true,NA,NA,2,3,NA,red,n_l_117.jpg,NA,NA,NA,NA,NA,unpleasant,pleasant,NA,NA,NA,NA,NA,right,1940.79999995232,true,NA,NA,NA,NA,NA,NA,NA,NA
MrreSbXV,3ac6mfv6anv2a7u5af0lkpxttwbhzq,31lvtdxblbnxhwpyilq8fykt58zrlv,MrreSbXV,2020-0188,2021-10-30,20:39:44,22:13:32,NA,incomplete,false,true,NA,NA,2,4,NA,red,m_l_039.jpg,NA,NA,NA,NA,NA,unpleasant,pleasant,NA,NA,NA,NA,NA,right,1623.40000009537,true,NA,NA,NA,NA,NA,NA,NA,NA
MrreSbXV,3ac6mfv6anv2a7u5af0lkpxttwbhzq,31lvtdxblbnxhwpyilq8fykt58zrlv,MrreSbXV,2020-0188,2021-10-30,20:39:44,22:13:32,NA,incomplete,false,true,NA,NA,2,5,NA,red,n_l_042.jpg,NA,NA,NA,NA,NA,unpleasant,pleasant,NA,NA,NA,NA,NA,right,2060.89999985695,true,NA,NA,NA,NA,NA,NA,NA,NA
MrreSbXV,3ac6mfv6anv2a7u5af0lkpxttwbhzq,31lvtdxblbnxhwpyilq8fykt58zrlv,MrreSbXV,2020-0188,2021-10-30,20:39:44,22:13:32,NA,incomplete,false,true,NA,NA,2,6,NA,gray,n_l_090.jpg,NA,NA,NA,NA,NA,pleasant,unpleasant,NA,NA,NA,NA,NA,right,1864.20000004768,true,NA,NA,NA,NA,NA,NA,NA,NA
MrreSbXV,3ac6mfv6anv2a7u5af0lkpxttwbhzq,31lvtdxblbnxhwpyilq8fykt58zrlv,MrreSbXV,2020-0188,2021-10-30,20:39:44,22:13:32,NA,incomplete,false,true,NA,NA,2,7,NA,gray,n_l_108.jpg,NA,NA,NA,NA,NA,pleasant,unpleasant,NA,NA,NA,NA,NA,left,2165.90000009537,true,NA,NA,NA,NA,NA,NA,NA,NA
MrreSbXV,3ac6mfv6anv2a7u5af0lkpxttwbhzq,31lvtdxblbnxhwpyilq8fykt58zrlv,MrreSbXV,2020-0188,2021-10-30,20:39:44,22:13:32,NA,incomplete,false,true,NA,NA,2,8,NA,gray,n_s_015.jpg,NA,NA,NA,NA,NA,pleasant,unpleasant,NA,NA,NA,NA,NA,left,1570.79999995232,true,NA,NA,NA,NA,NA,NA,NA,NA
MrreSbXV,3ac6mfv6anv2a7u5af0lkpxttwbhzq,31lvtdxblbnxhwpyilq8fykt58zrlv,MrreSbXV,2020-0188,2021-10-30,20:39:44,22:13:32,NA,incomplete,false,true,NA,NA,2,9,NA,gray,m_s_025.jpg,NA,NA,NA,NA,NA,unpleasant,pleasant,NA,NA,NA,NA,NA,right,1670.40000009537,true,NA,NA,NA,NA,NA,NA,NA,NA
MrreSbXV,3ac6mfv6anv2a7u5af0lkpxttwbhzq,31lvtdxblbnxhwpyilq8fykt58zrlv,MrreSbXV,2020-0188,2021-10-30,20:39:44,22:13:32,NA,incomplete,false,true,NA,NA,2,10,NA,gray,m_s_056.jpg,NA,NA,NA,NA,NA,unpleasant,pleasant,NA,NA,NA,NA,NA,right,2226.29999995232,true,NA,NA,NA,NA,NA,NA,NA,NA
MrreSbXV,3ac6mfv6anv2a7u5af0lkpxttwbhzq,31lvtdxblbnxhwpyilq8fykt58zrlv,MrreSbXV,2020-0188,2021-10-30,20:39:44,22:13:32,NA,incomplete,false,true,NA,NA,2,11,NA,gray,n_l_109.jpg,NA,NA,NA,NA,NA,unpleasant,pleasant,NA,NA,NA,NA,NA,left,1487.30000019073,true,NA,NA,NA,NA,NA,NA,NA,NA
MrreSbXV,3ac6mfv6anv2a7u5af0lkpxttwbhzq,31lvtdxblbnxhwpyilq8fykt58zrlv,MrreSbXV,2020-0188,2021-10-30,20:39:44,22:13:32,NA,incomplete,false,true,NA,NA,2,12,NA,yellow,n_s_102.jpg,NA,NA,NA,NA,NA,unpleasant,pleasant,NA,NA,NA,NA,NA,right,1458.79999995232,true,NA,NA,NA,NA,NA,NA,NA,NA
MrreSbXV,3ac6mfv6anv2a7u5af0lkpxttwbhzq,31lvtdxblbnxhwpyilq8fykt58zrlv,MrreSbXV,2020-0188,2021-10-30,20:39:44,22:13:32,NA,incomplete,false,true,NA,NA,2,13,NA,yellow,m_l_106.jpg,NA,NA,NA,NA,NA,unpleasant,pleasant,NA,NA,NA,NA,NA,right,1271.5,true,NA,NA,NA,NA,NA,NA,NA,NA
MrreSbXV,3ac6mfv6anv2a7u5af0lkpxttwbhzq,31lvtdxblbnxhwpyilq8fykt58zrlv,MrreSbXV,2020-0188,2021-10-30,20:39:44,22:13:32,NA,incomplete,false,true,NA,NA,2,14,NA,yellow,n_s_114.jpg,NA,NA,NA,NA,NA,pleasant,unpleasant,NA,NA,NA,NA,NA,left,1754.30000019073,true,NA,NA,NA,NA,NA,NA,NA,NA
MrreSbXV,3ac6mfv6anv2a7u5af0lkpxttwbhzq,31lvtdxblbnxhwpyilq8fykt58zrlv,MrreSbXV,2020-0188,2021-10-30,20:39:44,22:13:32,NA,incomplete,false,true,NA,NA,2,15,NA,yellow,m_l_069.jpg,NA,NA,NA,NA,NA,unpleasant,pleasant,NA,NA,NA,NA,NA,left,2511.40000009537,true,NA,NA,NA,NA,NA,NA,NA,NA
MrreSbXV,3ac6mfv6anv2a7u5af0lkpxttwbhzq,31lvtdxblbnxhwpyilq8fykt58zrlv,MrreSbXV,2020-0188,2021-10-30,20:39:44,22:13:32,NA,incomplete,false,true,NA,NA,2,16,NA,yellow,n_l_106.jpg,NA,NA,NA,NA,NA,unpleasant,pleasant,NA,NA,NA,NA,NA,right,2204.20000004768,true,NA,NA,NA,NA,NA,NA,NA,NA
MrreSbXV,3ac6mfv6anv2a7u5af0lkpxttwbhzq,31lvtdxblbnxhwpyilq8fykt58zrlv,MrreSbXV,2020-0188,2021-10-30,20:39:44,22:13:32,NA,incomplete,false,true,NA,NA,2,17,NA,yellow,n_s_023.jpg,NA,NA,NA,NA,NA,unpleasant,pleasant,NA,NA,NA,NA,NA,right,1416.30000019073,true,NA,NA,NA,NA,NA,NA,NA,NA
MrreSbXV,3ac6mfv6anv2a7u5af0lkpxttwbhzq,31lvtdxblbnxhwpyilq8fykt58zrlv,MrreSbXV,2020-0188,2021-10-30,20:39:44,22:13:32,NA,incomplete,false,true,NA,NA,2,18,NA,blue,m_s_074.jpg,NA,NA,NA,NA,NA,unpleasant,pleasant,NA,NA,NA,NA,NA,right,1403.39999985695,true,NA,NA,NA,NA,NA,NA,NA,NA
MrreSbXV,3ac6mfv6anv2a7u5af0lkpxttwbhzq,31lvtdxblbnxhwpyilq8fykt58zrlv,MrreSbXV,2020-0188,2021-10-30,20:39:44,22:13:32,NA,incomplete,false,true,NA,NA,2,19,NA,blue,m_s_042.jpg,NA,NA,NA,NA,NA,pleasant,unpleasant,NA,NA,NA,NA,NA,left,1824.5,true,NA,NA,NA,NA,NA,NA,NA,NA
MrreSbXV,3ac6mfv6anv2a7u5af0lkpxttwbhzq,31lvtdxblbnxhwpyilq8fykt58zrlv,MrreSbXV,2020-0188,2021-10-30,20:39:44,22:13:32,NA,incomplete,false,true,NA,NA,2,20,NA,blue,m_l_097.jpg,NA,NA,NA,NA,NA,unpleasant,pleasant,NA,NA,NA,NA,NA,right,1676.70000004768,true,NA,NA,NA,NA,NA,NA,NA,NA
MrreSbXV,3ac6mfv6anv2a7u5af0lkpxttwbhzq,31lvtdxblbnxhwpyilq8fykt58zrlv,MrreSbXV,2020-0188,2021-10-30,20:39:44,22:13:32,NA,incomplete,false,true,NA,NA,2,21,NA,blue,m_s_064.jpg,NA,NA,NA,NA,NA,unpleasant,pleasant,NA,NA,NA,NA,NA,right,2145.59999990463,true,NA,NA,NA,NA,NA,NA,NA,NA
MrreSbXV,3ac6mfv6anv2a7u5af0lkpxttwbhzq,31lvtdxblbnxhwpyilq8fykt58zrlv,MrreSbXV,2020-0188,2021-10-30,20:39:44,22:13:32,NA,incomplete,false,true,NA,NA,2,22,NA,blue,m_s_071.jpg,NA,NA,NA,NA,NA,pleasant,unpleasant,NA,NA,NA,NA,NA,right,2509.70000004768,true,NA,NA,NA,NA,NA,NA,NA,NA
MrreSbXV,3ac6mfv6anv2a7u5af0lkpxttwbhzq,31lvtdxblbnxhwpyilq8fykt58zrlv,MrreSbXV,2020-0188,2021-10-30,20:39:44,22:13:32,NA,incomplete,false,true,NA,NA,2,23,NA,blue,m_s_017.jpg,NA,NA,NA,NA,NA,pleasant,unpleasant,NA,NA,NA,NA,NA,left,2626.70000004768,true,NA,NA,NA,NA,NA,NA,NA,NA
MrreSbXV,3ac6mfv6anv2a7u5af0lkpxttwbhzq,31lvtdxblbnxhwpyilq8fykt58zrlv,MrreSbXV,2020-0188,2021-10-30,20:39:44,22:13:32,NA,incomplete,false,true,NA,NA,2,24,NA,white,m_l_092.jpg,NA,NA,NA,NA,NA,pleasant,unpleasant,NA,NA,NA,NA,NA,left,1438.79999995232,true,NA,NA,NA,NA,NA,NA,NA,NA
MrreSbXV,3ac6mfv6anv2a7u5af0lkpxttwbhzq,31lvtdxblbnxhwpyilq8fykt58zrlv,MrreSbXV,2020-0188,2021-10-30,20:39:44,22:13:32,NA,incomplete,false,true,NA,NA,2,25,NA,white,m_l_052.jpg,NA,NA,NA,NA,NA,pleasant,unpleasant,NA,NA,NA,NA,NA,left,1786.39999985695,true,NA,NA,NA,NA,NA,NA,NA,NA
MrreSbXV,3ac6mfv6anv2a7u5af0lkpxttwbhzq,31lvtdxblbnxhwpyilq8fykt58zrlv,MrreSbXV,2020-0188,2021-10-30,20:39:44,22:13:32,NA,incomplete,false,true,NA,NA,2,26,NA,white,m_l_074.jpg,NA,NA,NA,NA,NA,unpleasant,pleasant,NA,NA,NA,NA,NA,right,1822.70000004768,true,NA,NA,NA,NA,NA,NA,NA,NA
MrreSbXV,3ac6mfv6anv2a7u5af0lkpxttwbhzq,31lvtdxblbnxhwpyilq8fykt58zrlv,MrreSbXV,2020-0188,2021-10-30,20:39:44,22:13:32,NA,incomplete,false,true,NA,NA,2,27,NA,white,n_l_010.jpg,NA,NA,NA,NA,NA,pleasant,unpleasant,NA,NA,NA,NA,NA,left,1514.70000004768,true,NA,NA,NA,NA,NA,NA,NA,NA
MrreSbXV,3ac6mfv6anv2a7u5af0lkpxttwbhzq,31lvtdxblbnxhwpyilq8fykt58zrlv,MrreSbXV,2020-0188,2021-10-30,20:39:44,22:13:32,NA,incomplete,false,true,NA,NA,2,28,NA,white,n_l_023.jpg,NA,NA,NA,NA,NA,unpleasant,pleasant,NA,NA,NA,NA,NA,right,1447.29999995232,true,NA,NA,NA,NA,NA,NA,NA,NA
MrreSbXV,3ac6mfv6anv2a7u5af0lkpxttwbhzq,31lvtdxblbnxhwpyilq8fykt58zrlv,MrreSbXV,2020-0188,2021-10-30,20:39:44,22:13:32,NA,incomplete,false,true,NA,NA,2,29,NA,white,n_s_041.jpg,NA,NA,NA,NA,NA,unpleasant,pleasant,NA,NA,NA,NA,NA,right,1724.40000009537,true,NA,NA,NA,NA,NA,NA,NA,NA
MrreSbXV,3ac6mfv6anv2a7u5af0lkpxttwbhzq,31lvtdxblbnxhwpyilq8fykt58zrlv,MrreSbXV,2020-0188,2021-10-30,20:39:44,22:13:32,NA,incomplete,false,true,NA,NA,2,30,NA,orange,n_s_093.jpg,NA,NA,NA,NA,NA,unpleasant,pleasant,NA,NA,NA,NA,NA,left,1551.20000004768,true,NA,NA,NA,NA,NA,NA,NA,NA
MrreSbXV,3ac6mfv6anv2a7u5af0lkpxttwbhzq,31lvtdxblbnxhwpyilq8fykt58zrlv,MrreSbXV,2020-0188,2021-10-30,20:39:44,22:13:32,NA,incomplete,false,true,NA,NA,2,31,NA,orange,n_s_028.jpg,NA,NA,NA,NA,NA,unpleasant,pleasant,NA,NA,NA,NA,NA,right,1227.89999985695,true,NA,NA,NA,NA,NA,NA,NA,NA
MrreSbXV,3ac6mfv6anv2a7u5af0lkpxttwbhzq,31lvtdxblbnxhwpyilq8fykt58zrlv,MrreSbXV,2020-0188,2021-10-30,20:39:44,22:13:32,NA,incomplete,false,true,NA,NA,2,32,NA,orange,m_s_009.jpg,NA,NA,NA,NA,NA,pleasant,unpleasant,NA,NA,NA,NA,NA,left,1608.80000019073,true,NA,NA,NA,NA,NA,NA,NA,NA
MrreSbXV,3ac6mfv6anv2a7u5af0lkpxttwbhzq,31lvtdxblbnxhwpyilq8fykt58zrlv,MrreSbXV,2020-0188,2021-10-30,20:39:44,22:13:32,NA,incomplete,false,true,NA,NA,2,33,NA,orange,n_s_032.jpg,NA,NA,NA,NA,NA,unpleasant,pleasant,NA,NA,NA,NA,NA,right,1549.20000004768,true,NA,NA,NA,NA,NA,NA,NA,NA
MrreSbXV,3ac6mfv6anv2a7u5af0lkpxttwbhzq,31lvtdxblbnxhwpyilq8fykt58zrlv,MrreSbXV,2020-0188,2021-10-30,20:39:44,22:13:32,NA,incomplete,false,true,NA,NA,2,34,NA,orange,n_l_074.jpg,NA,NA,NA,NA,NA,pleasant,unpleasant,NA,NA,NA,NA,NA,left,1617.40000009537,true,NA,NA,NA,NA,NA,NA,NA,NA
MrreSbXV,3ac6mfv6anv2a7u5af0lkpxttwbhzq,31lvtdxblbnxhwpyilq8fykt58zrlv,MrreSbXV,2020-0188,2021-10-30,20:39:44,22:13:32,NA,incomplete,false,true,NA,NA,2,35,NA,orange,n_s_048.jpg,NA,NA,NA,NA,NA,pleasant,unpleasant,NA,NA,NA,NA,NA,left,1622.09999990463,true,NA,NA,NA,NA,NA,NA,NA,NA
MrreSbXV,3ac6mfv6anv2a7u5af0lkpxttwbhzq,31lvtdxblbnxhwpyilq8fykt58zrlv,MrreSbXV,2020-0188,2021-10-30,20:39:44,22:13:32,NA,incomplete,false,NA,NA,true,2,0,NA,NA,NA,right,m_s_029.jpg,gray,red,NA,NA,NA,NA,NA,NA,NA,NA,NA,NaN,NA,5769.799999952316,left,0,NA,NA,NA,NA,NA
MrreSbXV,3ac6mfv6anv2a7u5af0lkpxttwbhzq,31lvtdxblbnxhwpyilq8fykt58zrlv,MrreSbXV,2020-0188,2021-10-30,20:39:44,22:13:32,NA,incomplete,false,NA,NA,true,2,1,NA,NA,NA,right,n_s_114.jpg,gray,yellow,NA,NA,NA,NA,NA,NA,NA,NA,NA,NaN,NA,6655.200000047684,right,1,NA,NA,NA,NA,NA
MrreSbXV,3ac6mfv6anv2a7u5af0lkpxttwbhzq,31lvtdxblbnxhwpyilq8fykt58zrlv,MrreSbXV,2020-0188,2021-10-30,20:39:44,22:13:32,NA,incomplete,false,NA,NA,true,2,2,NA,NA,NA,right,n_l_023.jpg,orange,white,NA,NA,NA,NA,NA,NA,NA,NA,NA,NaN,NA,3111.2000000476837,right,1,NA,NA,NA,NA,NA
MrreSbXV,3ac6mfv6anv2a7u5af0lkpxttwbhzq,31lvtdxblbnxhwpyilq8fykt58zrlv,MrreSbXV,2020-0188,2021-10-30,20:39:44,22:13:32,NA,incomplete,false,NA,NA,true,2,3,NA,NA,NA,left,m_l_097.jpg,blue,white,NA,NA,NA,NA,NA,NA,NA,NA,NA,NaN,NA,2502,right,0,NA,NA,NA,NA,NA
MrreSbXV,3ac6mfv6anv2a7u5af0lkpxttwbhzq,31lvtdxblbnxhwpyilq8fykt58zrlv,MrreSbXV,2020-0188,2021-10-30,20:39:44,22:13:32,NA,incomplete,false,NA,NA,true,2,4,NA,NA,NA,left,n_s_041.jpg,white,blue,NA,NA,NA,NA,NA,NA,NA,NA,NA,NaN,NA,2546.7999999523163,left,1,NA,NA,NA,NA,NA
MrreSbXV,3ac6mfv6anv2a7u5af0lkpxttwbhzq,31lvtdxblbnxhwpyilq8fykt58zrlv,MrreSbXV,2020-0188,2021-10-30,20:39:44,22:13:32,NA,incomplete,false,NA,NA,true,2,5,NA,NA,NA,right,n_s_023.jpg,gray,yellow,NA,NA,NA,NA,NA,NA,NA,NA,NA,NaN,NA,3840.9000000953674,left,0,NA,NA,NA,NA,NA
MrreSbXV,3ac6mfv6anv2a7u5af0lkpxttwbhzq,31lvtdxblbnxhwpyilq8fykt58zrlv,MrreSbXV,2020-0188,2021-10-30,20:39:44,22:13:32,NA,incomplete,false,NA,NA,true,2,6,NA,NA,NA,right,n_l_109.jpg,yellow,gray,NA,NA,NA,NA,NA,NA,NA,NA,NA,NaN,NA,3150.7999999523163,right,1,NA,NA,NA,NA,NA
MrreSbXV,3ac6mfv6anv2a7u5af0lkpxttwbhzq,31lvtdxblbnxhwpyilq8fykt58zrlv,MrreSbXV,2020-0188,2021-10-30,20:39:44,22:13:32,NA,incomplete,false,NA,NA,true,2,7,NA,NA,NA,left,n_l_042.jpg,red,gray,NA,NA,NA,NA,NA,NA,NA,NA,NA,NaN,NA,5049.599999904633,left,1,NA,NA,NA,NA,NA
MrreSbXV,3ac6mfv6anv2a7u5af0lkpxttwbhzq,31lvtdxblbnxhwpyilq8fykt58zrlv,MrreSbXV,2020-0188,2021-10-30,20:39:44,22:13:32,NA,incomplete,false,NA,NA,true,2,8,NA,NA,NA,left,m_l_106.jpg,yellow,gray,NA,NA,NA,NA,NA,NA,NA,NA,NA,NaN,NA,4397.700000047684,right,0,NA,NA,NA,NA,NA
MrreSbXV,3ac6mfv6anv2a7u5af0lkpxttwbhzq,31lvtdxblbnxhwpyilq8fykt58zrlv,MrreSbXV,2020-0188,2021-10-30,20:39:44,22:13:32,NA,incomplete,false,NA,NA,true,2,9,NA,NA,NA,right,n_l_108.jpg,red,gray,NA,NA,NA,NA,NA,NA,NA,NA,NA,NaN,NA,4788.899999856949,right,1,NA,NA,NA,NA,NA
MrreSbXV,3ac6mfv6anv2a7u5af0lkpxttwbhzq,31lvtdxblbnxhwpyilq8fykt58zrlv,MrreSbXV,2020-0188,2021-10-30,20:39:44,22:13:32,NA,incomplete,false,NA,NA,true,2,10,NA,NA,NA,right,n_l_106.jpg,gray,yellow,NA,NA,NA,NA,NA,NA,NA,NA,NA,NaN,NA,3403.5,left,0,NA,NA,NA,NA,NA
MrreSbXV,3ac6mfv6anv2a7u5af0lkpxttwbhzq,31lvtdxblbnxhwpyilq8fykt58zrlv,MrreSbXV,2020-0188,2021-10-30,20:39:44,22:13:32,NA,incomplete,false,NA,NA,true,2,11,NA,NA,NA,right,n_s_048.jpg,white,orange,NA,NA,NA,NA,NA,NA,NA,NA,NA,NaN,NA,2561.7000000476837,right,1,NA,NA,NA,NA,NA
MrreSbXV,3ac6mfv6anv2a7u5af0lkpxttwbhzq,31lvtdxblbnxhwpyilq8fykt58zrlv,MrreSbXV,2020-0188,2021-10-30,20:39:44,22:13:32,NA,incomplete,false,NA,NA,true,2,12,NA,NA,NA,left,m_s_056.jpg,gray,yellow,NA,NA,NA,NA,NA,NA,NA,NA,NA,NaN,NA,4415,right,0,NA,NA,NA,NA,NA
MrreSbXV,3ac6mfv6anv2a7u5af0lkpxttwbhzq,31lvtdxblbnxhwpyilq8fykt58zrlv,MrreSbXV,2020-0188,2021-10-30,20:39:44,22:13:32,NA,incomplete,false,NA,NA,true,2,13,NA,NA,NA,right,m_s_071.jpg,yellow,blue,NA,NA,NA,NA,NA,NA,NA,NA,NA,NaN,NA,2539.5,left,0,NA,NA,NA,NA,NA
MrreSbXV,3ac6mfv6anv2a7u5af0lkpxttwbhzq,31lvtdxblbnxhwpyilq8fykt58zrlv,MrreSbXV,2020-0188,2021-10-30,20:39:44,22:13:32,NA,incomplete,false,NA,NA,true,2,14,NA,NA,NA,right,m_s_017.jpg,white,blue,NA,NA,NA,NA,NA,NA,NA,NA,NA,NaN,NA,6403.299999952316,right,1,NA,NA,NA,NA,NA
MrreSbXV,3ac6mfv6anv2a7u5af0lkpxttwbhzq,31lvtdxblbnxhwpyilq8fykt58zrlv,MrreSbXV,2020-0188,2021-10-30,20:39:44,22:13:32,NA,incomplete,false,NA,NA,true,2,15,NA,NA,NA,right,n_s_028.jpg,white,orange,NA,NA,NA,NA,NA,NA,NA,NA,NA,NaN,NA,3284.5,right,1,NA,NA,NA,NA,NA
MrreSbXV,3ac6mfv6anv2a7u5af0lkpxttwbhzq,31lvtdxblbnxhwpyilq8fykt58zrlv,MrreSbXV,2020-0188,2021-10-30,20:39:44,22:13:32,NA,incomplete,false,NA,NA,true,2,16,NA,NA,NA,left,m_l_074.jpg,white,orange,NA,NA,NA,NA,NA,NA,NA,NA,NA,NaN,NA,4169.099999904633,right,0,NA,NA,NA,NA,NA
MrreSbXV,3ac6mfv6anv2a7u5af0lkpxttwbhzq,31lvtdxblbnxhwpyilq8fykt58zrlv,MrreSbXV,2020-0188,2021-10-30,20:39:44,22:13:32,NA,incomplete,false,NA,NA,true,2,17,NA,NA,NA,right,m_l_052.jpg,blue,white,NA,NA,NA,NA,NA,NA,NA,NA,NA,NaN,NA,4688.799999952316,left,0,NA,NA,NA,NA,NA
MrreSbXV,3ac6mfv6anv2a7u5af0lkpxttwbhzq,31lvtdxblbnxhwpyilq8fykt58zrlv,MrreSbXV,2020-0188,2021-10-30,20:39:44,22:13:32,NA,incomplete,false,NA,NA,true,2,18,NA,NA,NA,left,n_s_015.jpg,gray,red,NA,NA,NA,NA,NA,NA,NA,NA,NA,NaN,NA,2721.4000000953674,left,1,NA,NA,NA,NA,NA
MrreSbXV,3ac6mfv6anv2a7u5af0lkpxttwbhzq,31lvtdxblbnxhwpyilq8fykt58zrlv,MrreSbXV,2020-0188,2021-10-30,20:39:44,22:13:32,NA,incomplete,false,NA,NA,true,2,19,NA,NA,NA,left,m_s_009.jpg,orange,white,NA,NA,NA,NA,NA,NA,NA,NA,NA,NaN,NA,2415.2999999523163,left,1,NA,NA,NA,NA,NA
MrreSbXV,3ac6mfv6anv2a7u5af0lkpxttwbhzq,31lvtdxblbnxhwpyilq8fykt58zrlv,MrreSbXV,2020-0188,2021-10-30,20:39:44,22:13:32,NA,incomplete,false,NA,NA,true,2,20,NA,NA,NA,right,m_l_039.jpg,gray,red,NA,NA,NA,NA,NA,NA,NA,NA,NA,NaN,NA,3333.600000143051,right,1,NA,NA,NA,NA,NA
MrreSbXV,3ac6mfv6anv2a7u5af0lkpxttwbhzq,31lvtdxblbnxhwpyilq8fykt58zrlv,MrreSbXV,2020-0188,2021-10-30,20:39:44,22:13:32,NA,incomplete,false,NA,NA,true,2,21,NA,NA,NA,right,m_s_042.jpg,yellow,blue,NA,NA,NA,NA,NA,NA,NA,NA,NA,NaN,NA,2171.5,right,1,NA,NA,NA,NA,NA
MrreSbXV,3ac6mfv6anv2a7u5af0lkpxttwbhzq,31lvtdxblbnxhwpyilq8fykt58zrlv,MrreSbXV,2020-0188,2021-10-30,20:39:44,22:13:32,NA,incomplete,false,NA,true,NA,2,0,NA,NA,NA,left,NA,NA,NA,absent,NA,NA,n_s_028.jpg,orange,n_s_048.jpg,orange,within,NA,NaN,NA,NA,NA,NA,right,3870.5,0,2,2898.5
MrreSbXV,3ac6mfv6anv2a7u5af0lkpxttwbhzq,31lvtdxblbnxhwpyilq8fykt58zrlv,MrreSbXV,2020-0188,2021-10-30,20:39:44,22:13:32,NA,incomplete,false,NA,true,NA,2,1,NA,NA,NA,right,NA,NA,NA,absent,NA,NA,n_l_109.jpg,gray,n_l_108.jpg,gray,within,NA,NaN,NA,NA,NA,NA,right,2884.9000000953674,1,2,1889.5999999046326
MrreSbXV,3ac6mfv6anv2a7u5af0lkpxttwbhzq,31lvtdxblbnxhwpyilq8fykt58zrlv,MrreSbXV,2020-0188,2021-10-30,20:39:44,22:13:32,NA,incomplete,false,NA,true,NA,2,2,NA,NA,NA,left,NA,NA,NA,absent,NA,NA,m_s_056.jpg,gray,n_s_114.jpg,yellow,between,NA,NaN,NA,NA,NA,NA,right,4412.5,0,1,1661.1000001430511
MrreSbXV,3ac6mfv6anv2a7u5af0lkpxttwbhzq,31lvtdxblbnxhwpyilq8fykt58zrlv,MrreSbXV,2020-0188,2021-10-30,20:39:44,22:13:32,NA,incomplete,false,NA,true,NA,2,3,NA,NA,NA,left,NA,NA,NA,absent,NA,NA,m_s_029.jpg,red,n_l_042.jpg,red,within,NA,NaN,NA,NA,NA,NA,right,3141.2000000476837,0,2,4043.5999999046326
MrreSbXV,3ac6mfv6anv2a7u5af0lkpxttwbhzq,31lvtdxblbnxhwpyilq8fykt58zrlv,MrreSbXV,2020-0188,2021-10-30,20:39:44,22:13:32,NA,incomplete,false,NA,true,NA,2,4,NA,NA,NA,right,NA,NA,NA,absent,NA,NA,n_s_041.jpg,white,m_l_052.jpg,white,within,NA,NaN,NA,NA,NA,NA,left,4082.9000000953674,0,1,1762.8000001907349
MrreSbXV,3ac6mfv6anv2a7u5af0lkpxttwbhzq,31lvtdxblbnxhwpyilq8fykt58zrlv,MrreSbXV,2020-0188,2021-10-30,20:39:44,22:13:32,NA,incomplete,false,NA,true,NA,2,5,NA,NA,NA,right,NA,NA,NA,absent,NA,NA,m_l_097.jpg,blue,n_l_106.jpg,yellow,between,NA,NaN,NA,NA,NA,NA,right,3143,1,2,1434.9000000953674
MrreSbXV,3ac6mfv6anv2a7u5af0lkpxttwbhzq,31lvtdxblbnxhwpyilq8fykt58zrlv,MrreSbXV,2020-0188,2021-10-30,20:39:44,22:13:32,NA,incomplete,false,NA,true,NA,2,6,NA,NA,NA,left,NA,NA,NA,absent,NA,NA,m_l_106.jpg,yellow,n_s_023.jpg,yellow,within,NA,NaN,NA,NA,NA,NA,left,4470.200000047684,1,2,4719.400000095367
MrreSbXV,3ac6mfv6anv2a7u5af0lkpxttwbhzq,31lvtdxblbnxhwpyilq8fykt58zrlv,MrreSbXV,2020-0188,2021-10-30,20:39:44,22:13:32,NA,incomplete,false,NA,true,NA,2,7,NA,NA,NA,left,NA,NA,NA,absent,NA,NA,m_s_042.jpg,blue,m_s_017.jpg,blue,within,NA,NaN,NA,NA,NA,NA,right,2712.5999999046326,0,1,2743.600000143051
MrreSbXV,3ac6mfv6anv2a7u5af0lkpxttwbhzq,31lvtdxblbnxhwpyilq8fykt58zrlv,MrreSbXV,2020-0188,2021-10-30,20:39:44,22:13:32,NA,incomplete,false,NA,true,NA,2,8,NA,NA,NA,right,NA,NA,NA,absent,NA,NA,m_s_009.jpg,orange,n_l_023.jpg,white,between,NA,NaN,NA,NA,NA,NA,right,3621.5,1,2,3337.7999999523163
MrreSbXV,3ac6mfv6anv2a7u5af0lkpxttwbhzq,31lvtdxblbnxhwpyilq8fykt58zrlv,MrreSbXV,2020-0188,2021-10-30,20:39:44,22:13:32,NA,incomplete,false,NA,true,NA,2,9,NA,NA,NA,right,NA,NA,NA,absent,NA,NA,m_l_074.jpg,white,m_s_071.jpg,blue,between,NA,NaN,NA,NA,NA,NA,left,4961.700000047684,0,2,1253.0999999046326
MrreSbXV,3ac6mfv6anv2a7u5af0lkpxttwbhzq,31lvtdxblbnxhwpyilq8fykt58zrlv,MrreSbXV,2020-0188,2021-10-30,20:39:44,22:13:32,NA,incomplete,false,NA,true,NA,2,10,NA,NA,NA,left,NA,NA,NA,absent,NA,NA,m_l_039.jpg,red,n_s_015.jpg,gray,between,NA,NaN,NA,NA,NA,NA,left,8237.200000047684,1,2,2743.2000000476837
MrreSbXV,3ac6mfv6anv2a7u5af0lkpxttwbhzq,31lvtdxblbnxhwpyilq8fykt58zrlv,MrreSbXV,2020-0188,2021-10-30,20:39:44,22:13:32,NA,incomplete,false,true,NA,NA,3,0,NA,yellow,m_s_079.jpg,NA,NA,NA,NA,NA,unpleasant,pleasant,NA,NA,NA,NA,NA,none,0,false,NA,NA,NA,NA,NA,NA,NA,NA
MrreSbXV,3ac6mfv6anv2a7u5af0lkpxttwbhzq,31lvtdxblbnxhwpyilq8fykt58zrlv,MrreSbXV,2020-0188,2021-10-30,20:39:44,22:13:32,NA,incomplete,false,true,NA,NA,3,1,NA,yellow,m_s_011.jpg,NA,NA,NA,NA,NA,unpleasant,pleasant,NA,NA,NA,NA,NA,none,0,false,NA,NA,NA,NA,NA,NA,NA,NA
MrreSbXV,3ac6mfv6anv2a7u5af0lkpxttwbhzq,31lvtdxblbnxhwpyilq8fykt58zrlv,MrreSbXV,2020-0188,2021-10-30,20:39:44,22:13:32,NA,incomplete,false,true,NA,NA,3,2,NA,yellow,n_s_100.jpg,NA,NA,NA,NA,NA,unpleasant,pleasant,NA,NA,NA,NA,NA,right,1972.90000009537,true,NA,NA,NA,NA,NA,NA,NA,NA
MrreSbXV,3ac6mfv6anv2a7u5af0lkpxttwbhzq,31lvtdxblbnxhwpyilq8fykt58zrlv,MrreSbXV,2020-0188,2021-10-30,20:39:44,22:13:32,NA,incomplete,false,true,NA,NA,3,3,NA,yellow,n_s_042.jpg,NA,NA,NA,NA,NA,pleasant,unpleasant,NA,NA,NA,NA,NA,right,2000.89999985695,true,NA,NA,NA,NA,NA,NA,NA,NA
MrreSbXV,3ac6mfv6anv2a7u5af0lkpxttwbhzq,31lvtdxblbnxhwpyilq8fykt58zrlv,MrreSbXV,2020-0188,2021-10-30,20:39:44,22:13:32,NA,incomplete,false,true,NA,NA,3,4,NA,yellow,m_l_083.jpg,NA,NA,NA,NA,NA,unpleasant,pleasant,NA,NA,NA,NA,NA,right,1684.60000014305,true,NA,NA,NA,NA,NA,NA,NA,NA
MrreSbXV,3ac6mfv6anv2a7u5af0lkpxttwbhzq,31lvtdxblbnxhwpyilq8fykt58zrlv,MrreSbXV,2020-0188,2021-10-30,20:39:44,22:13:32,NA,incomplete,false,true,NA,NA,3,5,NA,yellow,m_s_101.jpg,NA,NA,NA,NA,NA,unpleasant,pleasant,NA,NA,NA,NA,NA,right,1833.30000019073,true,NA,NA,NA,NA,NA,NA,NA,NA
MrreSbXV,3ac6mfv6anv2a7u5af0lkpxttwbhzq,31lvtdxblbnxhwpyilq8fykt58zrlv,MrreSbXV,2020-0188,2021-10-30,20:39:44,22:13:32,NA,incomplete,false,true,NA,NA,3,6,NA,red,m_l_086.jpg,NA,NA,NA,NA,NA,unpleasant,pleasant,NA,NA,NA,NA,NA,right,1534.5,true,NA,NA,NA,NA,NA,NA,NA,NA
MrreSbXV,3ac6mfv6anv2a7u5af0lkpxttwbhzq,31lvtdxblbnxhwpyilq8fykt58zrlv,MrreSbXV,2020-0188,2021-10-30,20:39:44,22:13:32,NA,incomplete,false,true,NA,NA,3,7,NA,red,m_s_078.jpg,NA,NA,NA,NA,NA,unpleasant,pleasant,NA,NA,NA,NA,NA,right,1312.20000004768,true,NA,NA,NA,NA,NA,NA,NA,NA
MrreSbXV,3ac6mfv6anv2a7u5af0lkpxttwbhzq,31lvtdxblbnxhwpyilq8fykt58zrlv,MrreSbXV,2020-0188,2021-10-30,20:39:44,22:13:32,NA,incomplete,false,true,NA,NA,3,8,NA,red,m_l_044.jpg,NA,NA,NA,NA,NA,pleasant,unpleasant,NA,NA,NA,NA,NA,left,1766.10000014305,true,NA,NA,NA,NA,NA,NA,NA,NA
MrreSbXV,3ac6mfv6anv2a7u5af0lkpxttwbhzq,31lvtdxblbnxhwpyilq8fykt58zrlv,MrreSbXV,2020-0188,2021-10-30,20:39:44,22:13:32,NA,incomplete,false,true,NA,NA,3,9,NA,red,n_l_005.jpg,NA,NA,NA,NA,NA,unpleasant,pleasant,NA,NA,NA,NA,NA,right,1457.90000009537,true,NA,NA,NA,NA,NA,NA,NA,NA
MrreSbXV,3ac6mfv6anv2a7u5af0lkpxttwbhzq,31lvtdxblbnxhwpyilq8fykt58zrlv,MrreSbXV,2020-0188,2021-10-30,20:39:44,22:13:32,NA,incomplete,false,true,NA,NA,3,10,NA,red,m_s_090.jpg,NA,NA,NA,NA,NA,pleasant,unpleasant,NA,NA,NA,NA,NA,left,1694.70000004768,true,NA,NA,NA,NA,NA,NA,NA,NA
MrreSbXV,3ac6mfv6anv2a7u5af0lkpxttwbhzq,31lvtdxblbnxhwpyilq8fykt58zrlv,MrreSbXV,2020-0188,2021-10-30,20:39:44,22:13:32,NA,incomplete,false,true,NA,NA,3,11,NA,red,n_l_086.jpg,NA,NA,NA,NA,NA,unpleasant,pleasant,NA,NA,NA,NA,NA,right,2091.09999990463,true,NA,NA,NA,NA,NA,NA,NA,NA
MrreSbXV,3ac6mfv6anv2a7u5af0lkpxttwbhzq,31lvtdxblbnxhwpyilq8fykt58zrlv,MrreSbXV,2020-0188,2021-10-30,20:39:44,22:13:32,NA,incomplete,false,true,NA,NA,3,12,NA,orange,n_s_035.jpg,NA,NA,NA,NA,NA,unpleasant,pleasant,NA,NA,NA,NA,NA,right,1534.30000019073,true,NA,NA,NA,NA,NA,NA,NA,NA
MrreSbXV,3ac6mfv6anv2a7u5af0lkpxttwbhzq,31lvtdxblbnxhwpyilq8fykt58zrlv,MrreSbXV,2020-0188,2021-10-30,20:39:44,22:13:32,NA,incomplete,false,true,NA,NA,3,13,NA,orange,n_l_101.jpg,NA,NA,NA,NA,NA,unpleasant,pleasant,NA,NA,NA,NA,NA,right,1459.20000004768,true,NA,NA,NA,NA,NA,NA,NA,NA
MrreSbXV,3ac6mfv6anv2a7u5af0lkpxttwbhzq,31lvtdxblbnxhwpyilq8fykt58zrlv,MrreSbXV,2020-0188,2021-10-30,20:39:44,22:13:32,NA,incomplete,false,true,NA,NA,3,14,NA,orange,m_s_005.jpg,NA,NA,NA,NA,NA,unpleasant,pleasant,NA,NA,NA,NA,NA,right,1656.39999985695,true,NA,NA,NA,NA,NA,NA,NA,NA
MrreSbXV,3ac6mfv6anv2a7u5af0lkpxttwbhzq,31lvtdxblbnxhwpyilq8fykt58zrlv,MrreSbXV,2020-0188,2021-10-30,20:39:44,22:13:32,NA,incomplete,false,true,NA,NA,3,15,NA,orange,m_l_065.jpg,NA,NA,NA,NA,NA,pleasant,unpleasant,NA,NA,NA,NA,NA,left,1523.70000004768,true,NA,NA,NA,NA,NA,NA,NA,NA
MrreSbXV,3ac6mfv6anv2a7u5af0lkpxttwbhzq,31lvtdxblbnxhwpyilq8fykt58zrlv,MrreSbXV,2020-0188,2021-10-30,20:39:44,22:13:32,NA,incomplete,false,true,NA,NA,3,16,NA,orange,m_s_021.jpg,NA,NA,NA,NA,NA,unpleasant,pleasant,NA,NA,NA,NA,NA,right,1751.59999990463,true,NA,NA,NA,NA,NA,NA,NA,NA
MrreSbXV,3ac6mfv6anv2a7u5af0lkpxttwbhzq,31lvtdxblbnxhwpyilq8fykt58zrlv,MrreSbXV,2020-0188,2021-10-30,20:39:44,22:13:32,NA,incomplete,false,true,NA,NA,3,17,NA,orange,m_l_075.jpg,NA,NA,NA,NA,NA,pleasant,unpleasant,NA,NA,NA,NA,NA,left,1668,true,NA,NA,NA,NA,NA,NA,NA,NA
MrreSbXV,3ac6mfv6anv2a7u5af0lkpxttwbhzq,31lvtdxblbnxhwpyilq8fykt58zrlv,MrreSbXV,2020-0188,2021-10-30,20:39:44,22:13:32,NA,incomplete,false,true,NA,NA,3,18,NA,white,m_s_024.jpg,NA,NA,NA,NA,NA,pleasant,unpleasant,NA,NA,NA,NA,NA,left,2295.59999990463,true,NA,NA,NA,NA,NA,NA,NA,NA
MrreSbXV,3ac6mfv6anv2a7u5af0lkpxttwbhzq,31lvtdxblbnxhwpyilq8fykt58zrlv,MrreSbXV,2020-0188,2021-10-30,20:39:44,22:13:32,NA,incomplete,false,true,NA,NA,3,19,NA,white,n_l_030.jpg,NA,NA,NA,NA,NA,pleasant,unpleasant,NA,NA,NA,NA,NA,left,1618.5,true,NA,NA,NA,NA,NA,NA,NA,NA
MrreSbXV,3ac6mfv6anv2a7u5af0lkpxttwbhzq,31lvtdxblbnxhwpyilq8fykt58zrlv,MrreSbXV,2020-0188,2021-10-30,20:39:44,22:13:32,NA,incomplete,false,true,NA,NA,3,20,NA,white,m_s_054.jpg,NA,NA,NA,NA,NA,unpleasant,pleasant,NA,NA,NA,NA,NA,right,1296.89999985695,true,NA,NA,NA,NA,NA,NA,NA,NA
MrreSbXV,3ac6mfv6anv2a7u5af0lkpxttwbhzq,31lvtdxblbnxhwpyilq8fykt58zrlv,MrreSbXV,2020-0188,2021-10-30,20:39:44,22:13:32,NA,incomplete,false,true,NA,NA,3,21,NA,white,m_s_076.jpg,NA,NA,NA,NA,NA,unpleasant,pleasant,NA,NA,NA,NA,NA,right,2916.89999985695,true,NA,NA,NA,NA,NA,NA,NA,NA
MrreSbXV,3ac6mfv6anv2a7u5af0lkpxttwbhzq,31lvtdxblbnxhwpyilq8fykt58zrlv,MrreSbXV,2020-0188,2021-10-30,20:39:44,22:13:32,NA,incomplete,false,true,NA,NA,3,22,NA,white,m_l_030.jpg,NA,NA,NA,NA,NA,unpleasant,pleasant,NA,NA,NA,NA,NA,left,1817.5,true,NA,NA,NA,NA,NA,NA,NA,NA
MrreSbXV,3ac6mfv6anv2a7u5af0lkpxttwbhzq,31lvtdxblbnxhwpyilq8fykt58zrlv,MrreSbXV,2020-0188,2021-10-30,20:39:44,22:13:32,NA,incomplete,false,true,NA,NA,3,23,NA,white,m_l_024.jpg,NA,NA,NA,NA,NA,unpleasant,pleasant,NA,NA,NA,NA,NA,right,1525.90000009537,true,NA,NA,NA,NA,NA,NA,NA,NA
MrreSbXV,3ac6mfv6anv2a7u5af0lkpxttwbhzq,31lvtdxblbnxhwpyilq8fykt58zrlv,MrreSbXV,2020-0188,2021-10-30,20:39:44,22:13:32,NA,incomplete,false,true,NA,NA,3,24,NA,blue,n_s_014.jpg,NA,NA,NA,NA,NA,pleasant,unpleasant,NA,NA,NA,NA,NA,left,1464.5,true,NA,NA,NA,NA,NA,NA,NA,NA
MrreSbXV,3ac6mfv6anv2a7u5af0lkpxttwbhzq,31lvtdxblbnxhwpyilq8fykt58zrlv,MrreSbXV,2020-0188,2021-10-30,20:39:44,22:13:32,NA,incomplete,false,true,NA,NA,3,25,NA,blue,m_l_006.jpg,NA,NA,NA,NA,NA,pleasant,unpleasant,NA,NA,NA,NA,NA,left,1493,true,NA,NA,NA,NA,NA,NA,NA,NA
MrreSbXV,3ac6mfv6anv2a7u5af0lkpxttwbhzq,31lvtdxblbnxhwpyilq8fykt58zrlv,MrreSbXV,2020-0188,2021-10-30,20:39:44,22:13:32,NA,incomplete,false,true,NA,NA,3,26,NA,blue,m_s_041.jpg,NA,NA,NA,NA,NA,pleasant,unpleasant,NA,NA,NA,NA,NA,left,1339.5,true,NA,NA,NA,NA,NA,NA,NA,NA
MrreSbXV,3ac6mfv6anv2a7u5af0lkpxttwbhzq,31lvtdxblbnxhwpyilq8fykt58zrlv,MrreSbXV,2020-0188,2021-10-30,20:39:44,22:13:32,NA,incomplete,false,true,NA,NA,3,27,NA,blue,m_s_037.jpg,NA,NA,NA,NA,NA,unpleasant,pleasant,NA,NA,NA,NA,NA,right,1647.40000009537,true,NA,NA,NA,NA,NA,NA,NA,NA
MrreSbXV,3ac6mfv6anv2a7u5af0lkpxttwbhzq,31lvtdxblbnxhwpyilq8fykt58zrlv,MrreSbXV,2020-0188,2021-10-30,20:39:44,22:13:32,NA,incomplete,false,true,NA,NA,3,28,NA,blue,m_s_018.jpg,NA,NA,NA,NA,NA,unpleasant,pleasant,NA,NA,NA,NA,NA,right,1579.70000004768,true,NA,NA,NA,NA,NA,NA,NA,NA
MrreSbXV,3ac6mfv6anv2a7u5af0lkpxttwbhzq,31lvtdxblbnxhwpyilq8fykt58zrlv,MrreSbXV,2020-0188,2021-10-30,20:39:44,22:13:32,NA,incomplete,false,true,NA,NA,3,29,NA,blue,n_l_105.jpg,NA,NA,NA,NA,NA,pleasant,unpleasant,NA,NA,NA,NA,NA,left,1688.70000004768,true,NA,NA,NA,NA,NA,NA,NA,NA
MrreSbXV,3ac6mfv6anv2a7u5af0lkpxttwbhzq,31lvtdxblbnxhwpyilq8fykt58zrlv,MrreSbXV,2020-0188,2021-10-30,20:39:44,22:13:32,NA,incomplete,false,true,NA,NA,3,30,NA,gray,n_l_040.jpg,NA,NA,NA,NA,NA,unpleasant,pleasant,NA,NA,NA,NA,NA,right,1748.09999990463,true,NA,NA,NA,NA,NA,NA,NA,NA
MrreSbXV,3ac6mfv6anv2a7u5af0lkpxttwbhzq,31lvtdxblbnxhwpyilq8fykt58zrlv,MrreSbXV,2020-0188,2021-10-30,20:39:44,22:13:32,NA,incomplete,false,true,NA,NA,3,31,NA,gray,n_l_002.jpg,NA,NA,NA,NA,NA,pleasant,unpleasant,NA,NA,NA,NA,NA,left,1424.70000004768,true,NA,NA,NA,NA,NA,NA,NA,NA
MrreSbXV,3ac6mfv6anv2a7u5af0lkpxttwbhzq,31lvtdxblbnxhwpyilq8fykt58zrlv,MrreSbXV,2020-0188,2021-10-30,20:39:44,22:13:32,NA,incomplete,false,true,NA,NA,3,32,NA,gray,n_s_008.jpg,NA,NA,NA,NA,NA,pleasant,unpleasant,NA,NA,NA,NA,NA,right,2117.29999995232,true,NA,NA,NA,NA,NA,NA,NA,NA
MrreSbXV,3ac6mfv6anv2a7u5af0lkpxttwbhzq,31lvtdxblbnxhwpyilq8fykt58zrlv,MrreSbXV,2020-0188,2021-10-30,20:39:44,22:13:32,NA,incomplete,false,true,NA,NA,3,33,NA,gray,n_l_039.jpg,NA,NA,NA,NA,NA,pleasant,unpleasant,NA,NA,NA,NA,NA,left,1272.59999990463,true,NA,NA,NA,NA,NA,NA,NA,NA
MrreSbXV,3ac6mfv6anv2a7u5af0lkpxttwbhzq,31lvtdxblbnxhwpyilq8fykt58zrlv,MrreSbXV,2020-0188,2021-10-30,20:39:44,22:13:32,NA,incomplete,false,true,NA,NA,3,34,NA,gray,m_l_107.jpg,NA,NA,NA,NA,NA,pleasant,unpleasant,NA,NA,NA,NA,NA,right,2020.79999995232,true,NA,NA,NA,NA,NA,NA,NA,NA
MrreSbXV,3ac6mfv6anv2a7u5af0lkpxttwbhzq,31lvtdxblbnxhwpyilq8fykt58zrlv,MrreSbXV,2020-0188,2021-10-30,20:39:44,22:13:32,NA,incomplete,false,true,NA,NA,3,35,NA,gray,m_s_066.jpg,NA,NA,NA,NA,NA,unpleasant,pleasant,NA,NA,NA,NA,NA,right,2088.90000009537,true,NA,NA,NA,NA,NA,NA,NA,NA
MrreSbXV,3ac6mfv6anv2a7u5af0lkpxttwbhzq,31lvtdxblbnxhwpyilq8fykt58zrlv,MrreSbXV,2020-0188,2021-10-30,20:39:44,22:13:32,NA,incomplete,false,NA,NA,true,3,0,NA,NA,NA,right,n_l_105.jpg,white,blue,NA,NA,NA,NA,NA,NA,NA,NA,NA,NaN,NA,6396.799999952316,right,1,NA,NA,NA,NA,NA
MrreSbXV,3ac6mfv6anv2a7u5af0lkpxttwbhzq,31lvtdxblbnxhwpyilq8fykt58zrlv,MrreSbXV,2020-0188,2021-10-30,20:39:44,22:13:32,NA,incomplete,false,NA,NA,true,3,1,NA,NA,NA,left,m_l_024.jpg,white,blue,NA,NA,NA,NA,NA,NA,NA,NA,NA,NaN,NA,5895.199999809265,left,1,NA,NA,NA,NA,NA
MrreSbXV,3ac6mfv6anv2a7u5af0lkpxttwbhzq,31lvtdxblbnxhwpyilq8fykt58zrlv,MrreSbXV,2020-0188,2021-10-30,20:39:44,22:13:32,NA,incomplete,false,NA,NA,true,3,2,NA,NA,NA,left,m_l_075.jpg,orange,red,NA,NA,NA,NA,NA,NA,NA,NA,NA,NaN,NA,3921.5,left,1,NA,NA,NA,NA,NA
MrreSbXV,3ac6mfv6anv2a7u5af0lkpxttwbhzq,31lvtdxblbnxhwpyilq8fykt58zrlv,MrreSbXV,2020-0188,2021-10-30,20:39:44,22:13:32,NA,incomplete,false,NA,NA,true,3,3,NA,NA,NA,right,m_l_044.jpg,orange,red,NA,NA,NA,NA,NA,NA,NA,NA,NA,NaN,NA,6812.799999952316,left,0,NA,NA,NA,NA,NA
MrreSbXV,3ac6mfv6anv2a7u5af0lkpxttwbhzq,31lvtdxblbnxhwpyilq8fykt58zrlv,MrreSbXV,2020-0188,2021-10-30,20:39:44,22:13:32,NA,incomplete,false,NA,NA,true,3,4,NA,NA,NA,left,n_l_030.jpg,white,blue,NA,NA,NA,NA,NA,NA,NA,NA,NA,NaN,NA,4961.5,left,1,NA,NA,NA,NA,NA
MrreSbXV,3ac6mfv6anv2a7u5af0lkpxttwbhzq,31lvtdxblbnxhwpyilq8fykt58zrlv,MrreSbXV,2020-0188,2021-10-30,20:39:44,22:13:32,NA,incomplete,false,NA,NA,true,3,5,NA,NA,NA,right,m_s_078.jpg,yellow,red,NA,NA,NA,NA,NA,NA,NA,NA,NA,NaN,NA,4160.5,left,0,NA,NA,NA,NA,NA
MrreSbXV,3ac6mfv6anv2a7u5af0lkpxttwbhzq,31lvtdxblbnxhwpyilq8fykt58zrlv,MrreSbXV,2020-0188,2021-10-30,20:39:44,22:13:32,NA,incomplete,false,NA,NA,true,3,6,NA,NA,NA,right,m_s_041.jpg,white,blue,NA,NA,NA,NA,NA,NA,NA,NA,NA,NaN,NA,2202.9000000953674,right,1,NA,NA,NA,NA,NA
MrreSbXV,3ac6mfv6anv2a7u5af0lkpxttwbhzq,31lvtdxblbnxhwpyilq8fykt58zrlv,MrreSbXV,2020-0188,2021-10-30,20:39:44,22:13:32,NA,incomplete,false,NA,NA,true,3,7,NA,NA,NA,right,m_s_101.jpg,red,yellow,NA,NA,NA,NA,NA,NA,NA,NA,NA,NaN,NA,5575.5,right,1,NA,NA,NA,NA,NA
MrreSbXV,3ac6mfv6anv2a7u5af0lkpxttwbhzq,31lvtdxblbnxhwpyilq8fykt58zrlv,MrreSbXV,2020-0188,2021-10-30,20:39:44,22:13:32,NA,incomplete,false,NA,NA,true,3,8,NA,NA,NA,right,m_s_018.jpg,gray,blue,NA,NA,NA,NA,NA,NA,NA,NA,NA,NaN,NA,3551.2000000476837,right,1,NA,NA,NA,NA,NA
MrreSbXV,3ac6mfv6anv2a7u5af0lkpxttwbhzq,31lvtdxblbnxhwpyilq8fykt58zrlv,MrreSbXV,2020-0188,2021-10-30,20:39:44,22:13:32,NA,incomplete,false,NA,NA,true,3,9,NA,NA,NA,left,n_l_086.jpg,red,orange,NA,NA,NA,NA,NA,NA,NA,NA,NA,NaN,NA,2579.399999856949,right,0,NA,NA,NA,NA,NA
MrreSbXV,3ac6mfv6anv2a7u5af0lkpxttwbhzq,31lvtdxblbnxhwpyilq8fykt58zrlv,MrreSbXV,2020-0188,2021-10-30,20:39:44,22:13:32,NA,incomplete,false,NA,NA,true,3,10,NA,NA,NA,right,m_s_054.jpg,blue,white,NA,NA,NA,NA,NA,NA,NA,NA,NA,NaN,NA,3340,left,0,NA,NA,NA,NA,NA
MrreSbXV,3ac6mfv6anv2a7u5af0lkpxttwbhzq,31lvtdxblbnxhwpyilq8fykt58zrlv,MrreSbXV,2020-0188,2021-10-30,20:39:44,22:13:32,NA,incomplete,false,NA,NA,true,3,11,NA,NA,NA,right,m_l_083.jpg,red,yellow,NA,NA,NA,NA,NA,NA,NA,NA,NA,NaN,NA,4727.200000047684,right,1,NA,NA,NA,NA,NA
MrreSbXV,3ac6mfv6anv2a7u5af0lkpxttwbhzq,31lvtdxblbnxhwpyilq8fykt58zrlv,MrreSbXV,2020-0188,2021-10-30,20:39:44,22:13:32,NA,incomplete,false,NA,NA,true,3,12,NA,NA,NA,left,m_l_006.jpg,blue,gray,NA,NA,NA,NA,NA,NA,NA,NA,NA,NaN,NA,2461.2999999523163,left,1,NA,NA,NA,NA,NA
MrreSbXV,3ac6mfv6anv2a7u5af0lkpxttwbhzq,31lvtdxblbnxhwpyilq8fykt58zrlv,MrreSbXV,2020-0188,2021-10-30,20:39:44,22:13:32,NA,incomplete,false,NA,NA,true,3,13,NA,NA,NA,right,n_l_101.jpg,red,orange,NA,NA,NA,NA,NA,NA,NA,NA,NA,NaN,NA,3920.9000000953674,right,1,NA,NA,NA,NA,NA
MrreSbXV,3ac6mfv6anv2a7u5af0lkpxttwbhzq,31lvtdxblbnxhwpyilq8fykt58zrlv,MrreSbXV,2020-0188,2021-10-30,20:39:44,22:13:32,NA,incomplete,false,NA,NA,true,3,14,NA,NA,NA,right,n_l_002.jpg,blue,gray,NA,NA,NA,NA,NA,NA,NA,NA,NA,NaN,NA,5103.299999952316,left,0,NA,NA,NA,NA,NA
MrreSbXV,3ac6mfv6anv2a7u5af0lkpxttwbhzq,31lvtdxblbnxhwpyilq8fykt58zrlv,MrreSbXV,2020-0188,2021-10-30,20:39:44,22:13:32,NA,incomplete,false,NA,NA,true,3,15,NA,NA,NA,left,n_s_008.jpg,gray,blue,NA,NA,NA,NA,NA,NA,NA,NA,NA,NaN,NA,2686.7000000476837,left,1,NA,NA,NA,NA,NA
MrreSbXV,3ac6mfv6anv2a7u5af0lkpxttwbhzq,31lvtdxblbnxhwpyilq8fykt58zrlv,MrreSbXV,2020-0188,2021-10-30,20:39:44,22:13:32,NA,incomplete,false,NA,NA,true,3,16,NA,NA,NA,right,m_s_005.jpg,white,orange,NA,NA,NA,NA,NA,NA,NA,NA,NA,NaN,NA,4993.599999904633,right,1,NA,NA,NA,NA,NA
MrreSbXV,3ac6mfv6anv2a7u5af0lkpxttwbhzq,31lvtdxblbnxhwpyilq8fykt58zrlv,MrreSbXV,2020-0188,2021-10-30,20:39:44,22:13:32,NA,incomplete,false,NA,NA,true,3,17,NA,NA,NA,left,m_s_011.jpg,yellow,red,NA,NA,NA,NA,NA,NA,NA,NA,NA,NaN,NA,3811.2000000476837,right,0,NA,NA,NA,NA,NA
MrreSbXV,3ac6mfv6anv2a7u5af0lkpxttwbhzq,31lvtdxblbnxhwpyilq8fykt58zrlv,MrreSbXV,2020-0188,2021-10-30,20:39:44,22:13:32,NA,incomplete,false,NA,NA,true,3,18,NA,NA,NA,right,m_s_066.jpg,blue,gray,NA,NA,NA,NA,NA,NA,NA,NA,NA,NaN,NA,2828.7000000476837,left,0,NA,NA,NA,NA,NA
MrreSbXV,3ac6mfv6anv2a7u5af0lkpxttwbhzq,31lvtdxblbnxhwpyilq8fykt58zrlv,MrreSbXV,2020-0188,2021-10-30,20:39:44,22:13:32,NA,incomplete,false,NA,NA,true,3,19,NA,NA,NA,right,m_l_030.jpg,blue,white,NA,NA,NA,NA,NA,NA,NA,NA,NA,NaN,NA,2898,right,1,NA,NA,NA,NA,NA
MrreSbXV,3ac6mfv6anv2a7u5af0lkpxttwbhzq,31lvtdxblbnxhwpyilq8fykt58zrlv,MrreSbXV,2020-0188,2021-10-30,20:39:44,22:13:32,NA,incomplete,false,NA,NA,true,3,20,NA,NA,NA,left,m_s_090.jpg,red,orange,NA,NA,NA,NA,NA,NA,NA,NA,NA,NaN,NA,2555.5,right,0,NA,NA,NA,NA,NA
MrreSbXV,3ac6mfv6anv2a7u5af0lkpxttwbhzq,31lvtdxblbnxhwpyilq8fykt58zrlv,MrreSbXV,2020-0188,2021-10-30,20:39:44,22:13:32,NA,incomplete,false,NA,NA,true,3,21,NA,NA,NA,right,m_s_021.jpg,red,orange,NA,NA,NA,NA,NA,NA,NA,NA,NA,NaN,NA,3545.9000000953674,right,1,NA,NA,NA,NA,NA
MrreSbXV,3ac6mfv6anv2a7u5af0lkpxttwbhzq,31lvtdxblbnxhwpyilq8fykt58zrlv,MrreSbXV,2020-0188,2021-10-30,20:39:44,22:13:32,NA,incomplete,false,NA,true,NA,3,0,NA,NA,NA,left,NA,NA,NA,absent,NA,NA,m_s_018.jpg,blue,n_s_008.jpg,gray,between,NA,NaN,NA,NA,NA,NA,right,10602,0,2,3127
MrreSbXV,3ac6mfv6anv2a7u5af0lkpxttwbhzq,31lvtdxblbnxhwpyilq8fykt58zrlv,MrreSbXV,2020-0188,2021-10-30,20:39:44,22:13:32,NA,incomplete,false,NA,true,NA,3,1,NA,NA,NA,left,NA,NA,NA,absent,NA,NA,m_l_006.jpg,blue,n_l_105.jpg,blue,within,NA,NaN,NA,NA,NA,NA,right,2985.5999999046326,0,2,1951.2000000476837
MrreSbXV,3ac6mfv6anv2a7u5af0lkpxttwbhzq,31lvtdxblbnxhwpyilq8fykt58zrlv,MrreSbXV,2020-0188,2021-10-30,20:39:44,22:13:32,NA,incomplete,false,NA,true,NA,3,2,NA,NA,NA,left,NA,NA,NA,absent,NA,NA,m_s_021.jpg,orange,m_s_054.jpg,white,between,NA,NaN,NA,NA,NA,NA,right,4029.4000000953674,0,2,3740
MrreSbXV,3ac6mfv6anv2a7u5af0lkpxttwbhzq,31lvtdxblbnxhwpyilq8fykt58zrlv,MrreSbXV,2020-0188,2021-10-30,20:39:44,22:13:32,NA,incomplete,false,NA,true,NA,3,3,NA,NA,NA,right,NA,NA,NA,absent,NA,NA,m_l_024.jpg,white,n_l_030.jpg,white,within,NA,NaN,NA,NA,NA,NA,left,7997.299999952316,0,1,2571.4000000953674
MrreSbXV,3ac6mfv6anv2a7u5af0lkpxttwbhzq,31lvtdxblbnxhwpyilq8fykt58zrlv,MrreSbXV,2020-0188,2021-10-30,20:39:44,22:13:32,NA,incomplete,false,NA,true,NA,3,4,NA,NA,NA,right,NA,NA,NA,absent,NA,NA,n_l_086.jpg,red,m_s_078.jpg,red,within,NA,NaN,NA,NA,NA,NA,left,3655.5,0,2,5481.300000190735
MrreSbXV,3ac6mfv6anv2a7u5af0lkpxttwbhzq,31lvtdxblbnxhwpyilq8fykt58zrlv,MrreSbXV,2020-0188,2021-10-30,20:39:44,22:13:32,NA,incomplete,false,NA,true,NA,3,5,NA,NA,NA,right,NA,NA,NA,absent,NA,NA,m_s_041.jpg,blue,m_l_030.jpg,white,between,NA,NaN,NA,NA,NA,NA,left,3033.4000000953674,0,2,1693.5
MrreSbXV,3ac6mfv6anv2a7u5af0lkpxttwbhzq,31lvtdxblbnxhwpyilq8fykt58zrlv,MrreSbXV,2020-0188,2021-10-30,20:39:44,22:13:32,NA,incomplete,false,NA,true,NA,3,6,NA,NA,NA,right,NA,NA,NA,absent,NA,NA,m_s_005.jpg,orange,m_s_090.jpg,red,between,NA,NaN,NA,NA,NA,NA,left,2875.5,0,1,3167.2000000476837
MrreSbXV,3ac6mfv6anv2a7u5af0lkpxttwbhzq,31lvtdxblbnxhwpyilq8fykt58zrlv,MrreSbXV,2020-0188,2021-10-30,20:39:44,22:13:32,NA,incomplete,false,NA,true,NA,3,7,NA,NA,NA,right,NA,NA,NA,absent,NA,NA,m_s_066.jpg,gray,n_l_002.jpg,gray,within,NA,NaN,NA,NA,NA,NA,right,2861,1,2,3559.899999856949
MrreSbXV,3ac6mfv6anv2a7u5af0lkpxttwbhzq,31lvtdxblbnxhwpyilq8fykt58zrlv,MrreSbXV,2020-0188,2021-10-30,20:39:44,22:13:32,NA,incomplete,false,NA,true,NA,3,8,NA,NA,NA,right,NA,NA,NA,absent,NA,NA,m_l_044.jpg,red,m_l_083.jpg,yellow,between,NA,NaN,NA,NA,NA,NA,right,4806.200000047684,1,1,1967.2999999523163
MrreSbXV,3ac6mfv6anv2a7u5af0lkpxttwbhzq,31lvtdxblbnxhwpyilq8fykt58zrlv,MrreSbXV,2020-0188,2021-10-30,20:39:44,22:13:32,NA,incomplete,false,NA,true,NA,3,9,NA,NA,NA,left,NA,NA,NA,absent,NA,NA,n_l_101.jpg,orange,m_l_075.jpg,orange,within,NA,NaN,NA,NA,NA,NA,right,3097.5,0,2,2485.2000000476837
MrreSbXV,3ac6mfv6anv2a7u5af0lkpxttwbhzq,31lvtdxblbnxhwpyilq8fykt58zrlv,MrreSbXV,2020-0188,2021-10-30,20:39:44,22:13:32,NA,incomplete,false,NA,true,NA,3,10,NA,NA,NA,right,NA,NA,NA,absent,NA,NA,m_s_101.jpg,yellow,m_s_011.jpg,yellow,within,NA,NaN,NA,NA,NA,NA,left,3779.5999999046326,0,1,1495.0999999046326
MrreSbXV,3ac6mfv6anv2a7u5af0lkpxttwbhzq,31lvtdxblbnxhwpyilq8fykt58zrlv,MrreSbXV,2020-0188,2021-10-30,20:39:44,22:13:32,NA,incomplete,false,true,NA,NA,4,0,NA,green,m_l_023.jpg,NA,NA,NA,NA,NA,pleasant,unpleasant,NA,NA,NA,NA,NA,none,0,false,NA,NA,NA,NA,NA,NA,NA,NA
MrreSbXV,3ac6mfv6anv2a7u5af0lkpxttwbhzq,31lvtdxblbnxhwpyilq8fykt58zrlv,MrreSbXV,2020-0188,2021-10-30,20:39:44,22:13:32,NA,incomplete,false,true,NA,NA,4,1,NA,green,n_s_098.jpg,NA,NA,NA,NA,NA,pleasant,unpleasant,NA,NA,NA,NA,NA,right,2325.5,true,NA,NA,NA,NA,NA,NA,NA,NA
MrreSbXV,3ac6mfv6anv2a7u5af0lkpxttwbhzq,31lvtdxblbnxhwpyilq8fykt58zrlv,MrreSbXV,2020-0188,2021-10-30,20:39:44,22:13:32,NA,incomplete,false,true,NA,NA,4,2,NA,green,n_l_092.jpg,NA,NA,NA,NA,NA,unpleasant,pleasant,NA,NA,NA,NA,NA,right,2535.5,true,NA,NA,NA,NA,NA,NA,NA,NA
MrreSbXV,3ac6mfv6anv2a7u5af0lkpxttwbhzq,31lvtdxblbnxhwpyilq8fykt58zrlv,MrreSbXV,2020-0188,2021-10-30,20:39:44,22:13:32,NA,incomplete,false,true,NA,NA,4,3,NA,green,m_l_027.jpg,NA,NA,NA,NA,NA,unpleasant,pleasant,NA,NA,NA,NA,NA,right,2077.40000009537,true,NA,NA,NA,NA,NA,NA,NA,NA
MrreSbXV,3ac6mfv6anv2a7u5af0lkpxttwbhzq,31lvtdxblbnxhwpyilq8fykt58zrlv,MrreSbXV,2020-0188,2021-10-30,20:39:44,22:13:32,NA,incomplete,false,true,NA,NA,4,4,NA,green,n_l_035.jpg,NA,NA,NA,NA,NA,unpleasant,pleasant,NA,NA,NA,NA,NA,right,1442.10000014305,true,NA,NA,NA,NA,NA,NA,NA,NA
MrreSbXV,3ac6mfv6anv2a7u5af0lkpxttwbhzq,31lvtdxblbnxhwpyilq8fykt58zrlv,MrreSbXV,2020-0188,2021-10-30,20:39:44,22:13:32,NA,incomplete,false,true,NA,NA,4,5,NA,green,m_l_073.jpg,NA,NA,NA,NA,NA,pleasant,unpleasant,NA,NA,NA,NA,NA,left,1422.5,true,NA,NA,NA,NA,NA,NA,NA,NA
MrreSbXV,3ac6mfv6anv2a7u5af0lkpxttwbhzq,31lvtdxblbnxhwpyilq8fykt58zrlv,MrreSbXV,2020-0188,2021-10-30,20:39:44,22:13:32,NA,incomplete,false,true,NA,NA,4,6,NA,black,n_l_079.jpg,NA,NA,NA,NA,NA,pleasant,unpleasant,NA,NA,NA,NA,NA,left,1786.29999995232,true,NA,NA,NA,NA,NA,NA,NA,NA
MrreSbXV,3ac6mfv6anv2a7u5af0lkpxttwbhzq,31lvtdxblbnxhwpyilq8fykt58zrlv,MrreSbXV,2020-0188,2021-10-30,20:39:44,22:13:32,NA,incomplete,false,true,NA,NA,4,7,NA,black,m_l_012.jpg,NA,NA,NA,NA,NA,pleasant,unpleasant,NA,NA,NA,NA,NA,left,1647.20000004768,true,NA,NA,NA,NA,NA,NA,NA,NA
MrreSbXV,3ac6mfv6anv2a7u5af0lkpxttwbhzq,31lvtdxblbnxhwpyilq8fykt58zrlv,MrreSbXV,2020-0188,2021-10-30,20:39:44,22:13:32,NA,incomplete,false,true,NA,NA,4,8,NA,black,n_s_012.jpg,NA,NA,NA,NA,NA,pleasant,unpleasant,NA,NA,NA,NA,NA,left,1625.40000009537,true,NA,NA,NA,NA,NA,NA,NA,NA
MrreSbXV,3ac6mfv6anv2a7u5af0lkpxttwbhzq,31lvtdxblbnxhwpyilq8fykt58zrlv,MrreSbXV,2020-0188,2021-10-30,20:39:44,22:13:32,NA,incomplete,false,true,NA,NA,4,9,NA,black,n_l_059.jpg,NA,NA,NA,NA,NA,pleasant,unpleasant,NA,NA,NA,NA,NA,right,2102.89999985695,true,NA,NA,NA,NA,NA,NA,NA,NA
MrreSbXV,3ac6mfv6anv2a7u5af0lkpxttwbhzq,31lvtdxblbnxhwpyilq8fykt58zrlv,MrreSbXV,2020-0188,2021-10-30,20:39:44,22:13:32,NA,incomplete,false,true,NA,NA,4,10,NA,black,m_l_014.jpg,NA,NA,NA,NA,NA,unpleasant,pleasant,NA,NA,NA,NA,NA,right,1860,true,NA,NA,NA,NA,NA,NA,NA,NA
MrreSbXV,3ac6mfv6anv2a7u5af0lkpxttwbhzq,31lvtdxblbnxhwpyilq8fykt58zrlv,MrreSbXV,2020-0188,2021-10-30,20:39:44,22:13:32,NA,incomplete,false,true,NA,NA,4,11,NA,black,n_l_116.jpg,NA,NA,NA,NA,NA,pleasant,unpleasant,NA,NA,NA,NA,NA,left,1576.09999990463,true,NA,NA,NA,NA,NA,NA,NA,NA
MrreSbXV,3ac6mfv6anv2a7u5af0lkpxttwbhzq,31lvtdxblbnxhwpyilq8fykt58zrlv,MrreSbXV,2020-0188,2021-10-30,20:39:44,22:13:32,NA,incomplete,false,true,NA,NA,4,12,NA,purple,m_l_085.jpg,NA,NA,NA,NA,NA,unpleasant,pleasant,NA,NA,NA,NA,NA,right,2060.79999995232,true,NA,NA,NA,NA,NA,NA,NA,NA
MrreSbXV,3ac6mfv6anv2a7u5af0lkpxttwbhzq,31lvtdxblbnxhwpyilq8fykt58zrlv,MrreSbXV,2020-0188,2021-10-30,20:39:44,22:13:32,NA,incomplete,false,true,NA,NA,4,13,NA,purple,n_l_064.jpg,NA,NA,NA,NA,NA,unpleasant,pleasant,NA,NA,NA,NA,NA,right,1402.10000014305,true,NA,NA,NA,NA,NA,NA,NA,NA
MrreSbXV,3ac6mfv6anv2a7u5af0lkpxttwbhzq,31lvtdxblbnxhwpyilq8fykt58zrlv,MrreSbXV,2020-0188,2021-10-30,20:39:44,22:13:32,NA,incomplete,false,true,NA,NA,4,14,NA,purple,n_s_117.jpg,NA,NA,NA,NA,NA,unpleasant,pleasant,NA,NA,NA,NA,NA,left,1564.5,true,NA,NA,NA,NA,NA,NA,NA,NA
MrreSbXV,3ac6mfv6anv2a7u5af0lkpxttwbhzq,31lvtdxblbnxhwpyilq8fykt58zrlv,MrreSbXV,2020-0188,2021-10-30,20:39:44,22:13:32,NA,incomplete,false,true,NA,NA,4,15,NA,purple,n_s_085.jpg,NA,NA,NA,NA,NA,pleasant,unpleasant,NA,NA,NA,NA,NA,left,1666.79999995232,true,NA,NA,NA,NA,NA,NA,NA,NA
MrreSbXV,3ac6mfv6anv2a7u5af0lkpxttwbhzq,31lvtdxblbnxhwpyilq8fykt58zrlv,MrreSbXV,2020-0188,2021-10-30,20:39:44,22:13:32,NA,incomplete,false,true,NA,NA,4,16,NA,purple,n_s_038.jpg,NA,NA,NA,NA,NA,unpleasant,pleasant,NA,NA,NA,NA,NA,left,1950.5,true,NA,NA,NA,NA,NA,NA,NA,NA
MrreSbXV,3ac6mfv6anv2a7u5af0lkpxttwbhzq,31lvtdxblbnxhwpyilq8fykt58zrlv,MrreSbXV,2020-0188,2021-10-30,20:39:44,22:13:32,NA,incomplete,false,true,NA,NA,4,17,NA,purple,m_l_058.jpg,NA,NA,NA,NA,NA,unpleasant,pleasant,NA,NA,NA,NA,NA,right,2883.20000004768,true,NA,NA,NA,NA,NA,NA,NA,NA
MrreSbXV,3ac6mfv6anv2a7u5af0lkpxttwbhzq,31lvtdxblbnxhwpyilq8fykt58zrlv,MrreSbXV,2020-0188,2021-10-30,20:39:44,22:13:32,NA,incomplete,false,true,NA,NA,4,18,NA,white,n_l_001.jpg,NA,NA,NA,NA,NA,unpleasant,pleasant,NA,NA,NA,NA,NA,right,1671.79999995232,true,NA,NA,NA,NA,NA,NA,NA,NA
MrreSbXV,3ac6mfv6anv2a7u5af0lkpxttwbhzq,31lvtdxblbnxhwpyilq8fykt58zrlv,MrreSbXV,2020-0188,2021-10-30,20:39:44,22:13:32,NA,incomplete,false,true,NA,NA,4,19,NA,white,n_l_041.jpg,NA,NA,NA,NA,NA,unpleasant,pleasant,NA,NA,NA,NA,NA,left,1900.29999995232,true,NA,NA,NA,NA,NA,NA,NA,NA
MrreSbXV,3ac6mfv6anv2a7u5af0lkpxttwbhzq,31lvtdxblbnxhwpyilq8fykt58zrlv,MrreSbXV,2020-0188,2021-10-30,20:39:44,22:13:32,NA,incomplete,false,true,NA,NA,4,20,NA,white,n_s_043.jpg,NA,NA,NA,NA,NA,pleasant,unpleasant,NA,NA,NA,NA,NA,left,2008.40000009537,true,NA,NA,NA,NA,NA,NA,NA,NA
MrreSbXV,3ac6mfv6anv2a7u5af0lkpxttwbhzq,31lvtdxblbnxhwpyilq8fykt58zrlv,MrreSbXV,2020-0188,2021-10-30,20:39:44,22:13:32,NA,incomplete,false,true,NA,NA,4,21,NA,white,m_l_047.jpg,NA,NA,NA,NA,NA,pleasant,unpleasant,NA,NA,NA,NA,NA,left,1587.20000004768,true,NA,NA,NA,NA,NA,NA,NA,NA
MrreSbXV,3ac6mfv6anv2a7u5af0lkpxttwbhzq,31lvtdxblbnxhwpyilq8fykt58zrlv,MrreSbXV,2020-0188,2021-10-30,20:39:44,22:13:32,NA,incomplete,false,true,NA,NA,4,22,NA,white,m_s_095.jpg,NA,NA,NA,NA,NA,pleasant,unpleasant,NA,NA,NA,NA,NA,left,2417.70000004768,true,NA,NA,NA,NA,NA,NA,NA,NA
MrreSbXV,3ac6mfv6anv2a7u5af0lkpxttwbhzq,31lvtdxblbnxhwpyilq8fykt58zrlv,MrreSbXV,2020-0188,2021-10-30,20:39:44,22:13:32,NA,incomplete,false,true,NA,NA,4,23,NA,white,m_l_115.jpg,NA,NA,NA,NA,NA,unpleasant,pleasant,NA,NA,NA,NA,NA,right,1541.5,true,NA,NA,NA,NA,NA,NA,NA,NA
MrreSbXV,3ac6mfv6anv2a7u5af0lkpxttwbhzq,31lvtdxblbnxhwpyilq8fykt58zrlv,MrreSbXV,2020-0188,2021-10-30,20:39:44,22:13:32,NA,incomplete,false,true,NA,NA,4,24,NA,blue,m_l_007.jpg,NA,NA,NA,NA,NA,pleasant,unpleasant,NA,NA,NA,NA,NA,left,2289.59999990463,true,NA,NA,NA,NA,NA,NA,NA,NA
MrreSbXV,3ac6mfv6anv2a7u5af0lkpxttwbhzq,31lvtdxblbnxhwpyilq8fykt58zrlv,MrreSbXV,2020-0188,2021-10-30,20:39:44,22:13:32,NA,incomplete,false,true,NA,NA,4,25,NA,blue,m_l_102.jpg,NA,NA,NA,NA,NA,pleasant,unpleasant,NA,NA,NA,NA,NA,left,1406.09999990463,true,NA,NA,NA,NA,NA,NA,NA,NA
MrreSbXV,3ac6mfv6anv2a7u5af0lkpxttwbhzq,31lvtdxblbnxhwpyilq8fykt58zrlv,MrreSbXV,2020-0188,2021-10-30,20:39:44,22:13:32,NA,incomplete,false,true,NA,NA,4,26,NA,blue,n_l_033.jpg,NA,NA,NA,NA,NA,pleasant,unpleasant,NA,NA,NA,NA,NA,right,1345.70000004768,true,NA,NA,NA,NA,NA,NA,NA,NA
MrreSbXV,3ac6mfv6anv2a7u5af0lkpxttwbhzq,31lvtdxblbnxhwpyilq8fykt58zrlv,MrreSbXV,2020-0188,2021-10-30,20:39:44,22:13:32,NA,incomplete,false,true,NA,NA,4,27,NA,blue,n_l_104.jpg,NA,NA,NA,NA,NA,unpleasant,pleasant,NA,NA,NA,NA,NA,right,1773.40000009537,true,NA,NA,NA,NA,NA,NA,NA,NA
MrreSbXV,3ac6mfv6anv2a7u5af0lkpxttwbhzq,31lvtdxblbnxhwpyilq8fykt58zrlv,MrreSbXV,2020-0188,2021-10-30,20:39:44,22:13:32,NA,incomplete,false,true,NA,NA,4,28,NA,blue,n_s_092.jpg,NA,NA,NA,NA,NA,pleasant,unpleasant,NA,NA,NA,NA,NA,left,1704.60000014305,true,NA,NA,NA,NA,NA,NA,NA,NA
MrreSbXV,3ac6mfv6anv2a7u5af0lkpxttwbhzq,31lvtdxblbnxhwpyilq8fykt58zrlv,MrreSbXV,2020-0188,2021-10-30,20:39:44,22:13:32,NA,incomplete,false,true,NA,NA,4,29,NA,blue,m_l_081.jpg,NA,NA,NA,NA,NA,pleasant,unpleasant,NA,NA,NA,NA,NA,left,1381.19999980927,true,NA,NA,NA,NA,NA,NA,NA,NA
MrreSbXV,3ac6mfv6anv2a7u5af0lkpxttwbhzq,31lvtdxblbnxhwpyilq8fykt58zrlv,MrreSbXV,2020-0188,2021-10-30,20:39:44,22:13:32,NA,incomplete,false,true,NA,NA,4,30,NA,gray,n_s_019.jpg,NA,NA,NA,NA,NA,unpleasant,pleasant,NA,NA,NA,NA,NA,right,1482.5,true,NA,NA,NA,NA,NA,NA,NA,NA
MrreSbXV,3ac6mfv6anv2a7u5af0lkpxttwbhzq,31lvtdxblbnxhwpyilq8fykt58zrlv,MrreSbXV,2020-0188,2021-10-30,20:39:44,22:13:32,NA,incomplete,false,true,NA,NA,4,31,NA,gray,m_s_053.jpg,NA,NA,NA,NA,NA,pleasant,unpleasant,NA,NA,NA,NA,NA,left,2255.5,true,NA,NA,NA,NA,NA,NA,NA,NA
MrreSbXV,3ac6mfv6anv2a7u5af0lkpxttwbhzq,31lvtdxblbnxhwpyilq8fykt58zrlv,MrreSbXV,2020-0188,2021-10-30,20:39:44,22:13:32,NA,incomplete,false,true,NA,NA,4,32,NA,gray,n_l_044.jpg,NA,NA,NA,NA,NA,unpleasant,pleasant,NA,NA,NA,NA,NA,right,1507.09999990463,true,NA,NA,NA,NA,NA,NA,NA,NA
MrreSbXV,3ac6mfv6anv2a7u5af0lkpxttwbhzq,31lvtdxblbnxhwpyilq8fykt58zrlv,MrreSbXV,2020-0188,2021-10-30,20:39:44,22:13:32,NA,incomplete,false,true,NA,NA,4,33,NA,gray,n_s_003.jpg,NA,NA,NA,NA,NA,unpleasant,pleasant,NA,NA,NA,NA,NA,left,1782.29999995232,true,NA,NA,NA,NA,NA,NA,NA,NA
MrreSbXV,3ac6mfv6anv2a7u5af0lkpxttwbhzq,31lvtdxblbnxhwpyilq8fykt58zrlv,MrreSbXV,2020-0188,2021-10-30,20:39:44,22:13:32,NA,incomplete,false,true,NA,NA,4,34,NA,gray,m_s_028.jpg,NA,NA,NA,NA,NA,pleasant,unpleasant,NA,NA,NA,NA,NA,left,2003.79999995232,true,NA,NA,NA,NA,NA,NA,NA,NA
MrreSbXV,3ac6mfv6anv2a7u5af0lkpxttwbhzq,31lvtdxblbnxhwpyilq8fykt58zrlv,MrreSbXV,2020-0188,2021-10-30,20:39:44,22:13:32,NA,incomplete,false,true,NA,NA,4,35,NA,gray,n_s_013.jpg,NA,NA,NA,NA,NA,unpleasant,pleasant,NA,NA,NA,NA,NA,right,1486.79999995232,true,NA,NA,NA,NA,NA,NA,NA,NA
MrreSbXV,3ac6mfv6anv2a7u5af0lkpxttwbhzq,31lvtdxblbnxhwpyilq8fykt58zrlv,MrreSbXV,2020-0188,2021-10-30,20:39:44,22:13:32,NA,incomplete,false,NA,NA,true,4,0,NA,NA,NA,right,n_s_043.jpg,blue,white,NA,NA,NA,NA,NA,NA,NA,NA,NA,NaN,NA,4687.100000143051,right,1,NA,NA,NA,NA,NA
MrreSbXV,3ac6mfv6anv2a7u5af0lkpxttwbhzq,31lvtdxblbnxhwpyilq8fykt58zrlv,MrreSbXV,2020-0188,2021-10-30,20:39:44,22:13:32,NA,incomplete,false,NA,NA,true,4,1,NA,NA,NA,right,n_l_064.jpg,white,purple,NA,NA,NA,NA,NA,NA,NA,NA,NA,NaN,NA,3849.2000000476837,left,0,NA,NA,NA,NA,NA
MrreSbXV,3ac6mfv6anv2a7u5af0lkpxttwbhzq,31lvtdxblbnxhwpyilq8fykt58zrlv,MrreSbXV,2020-0188,2021-10-30,20:39:44,22:13:32,NA,incomplete,false,NA,NA,true,4,2,NA,NA,NA,left,n_s_098.jpg,green,black,NA,NA,NA,NA,NA,NA,NA,NA,NA,NaN,NA,4334.700000047684,right,0,NA,NA,NA,NA,NA
MrreSbXV,3ac6mfv6anv2a7u5af0lkpxttwbhzq,31lvtdxblbnxhwpyilq8fykt58zrlv,MrreSbXV,2020-0188,2021-10-30,20:39:44,22:13:32,NA,incomplete,false,NA,NA,true,4,3,NA,NA,NA,right,n_s_117.jpg,white,purple,NA,NA,NA,NA,NA,NA,NA,NA,NA,NaN,NA,3465.7000000476837,right,1,NA,NA,NA,NA,NA
MrreSbXV,3ac6mfv6anv2a7u5af0lkpxttwbhzq,31lvtdxblbnxhwpyilq8fykt58zrlv,MrreSbXV,2020-0188,2021-10-30,20:39:44,22:13:32,NA,incomplete,false,NA,NA,true,4,4,NA,NA,NA,right,m_l_102.jpg,white,blue,NA,NA,NA,NA,NA,NA,NA,NA,NA,NaN,NA,2569.699999809265,right,1,NA,NA,NA,NA,NA
MrreSbXV,3ac6mfv6anv2a7u5af0lkpxttwbhzq,31lvtdxblbnxhwpyilq8fykt58zrlv,MrreSbXV,2020-0188,2021-10-30,20:39:44,22:13:32,NA,incomplete,false,NA,NA,true,4,5,NA,NA,NA,left,n_s_012.jpg,black,purple,NA,NA,NA,NA,NA,NA,NA,NA,NA,NaN,NA,3559.4000000953674,right,0,NA,NA,NA,NA,NA
MrreSbXV,3ac6mfv6anv2a7u5af0lkpxttwbhzq,31lvtdxblbnxhwpyilq8fykt58zrlv,MrreSbXV,2020-0188,2021-10-30,20:39:44,22:13:32,NA,incomplete,false,NA,NA,true,4,6,NA,NA,NA,right,n_s_038.jpg,white,purple,NA,NA,NA,NA,NA,NA,NA,NA,NA,NaN,NA,2702.7999999523163,left,0,NA,NA,NA,NA,NA
MrreSbXV,3ac6mfv6anv2a7u5af0lkpxttwbhzq,31lvtdxblbnxhwpyilq8fykt58zrlv,MrreSbXV,2020-0188,2021-10-30,20:39:44,22:13:32,NA,incomplete,false,NA,NA,true,4,7,NA,NA,NA,right,m_l_058.jpg,black,purple,NA,NA,NA,NA,NA,NA,NA,NA,NA,NaN,NA,2619,right,1,NA,NA,NA,NA,NA
MrreSbXV,3ac6mfv6anv2a7u5af0lkpxttwbhzq,31lvtdxblbnxhwpyilq8fykt58zrlv,MrreSbXV,2020-0188,2021-10-30,20:39:44,22:13:32,NA,incomplete,false,NA,NA,true,4,8,NA,NA,NA,right,n_s_013.jpg,blue,gray,NA,NA,NA,NA,NA,NA,NA,NA,NA,NaN,NA,3957.2000000476837,right,1,NA,NA,NA,NA,NA
MrreSbXV,3ac6mfv6anv2a7u5af0lkpxttwbhzq,31lvtdxblbnxhwpyilq8fykt58zrlv,MrreSbXV,2020-0188,2021-10-30,20:39:44,22:13:32,NA,incomplete,false,NA,NA,true,4,9,NA,NA,NA,left,m_s_053.jpg,gray,blue,NA,NA,NA,NA,NA,NA,NA,NA,NA,NaN,NA,5017.200000047684,right,0,NA,NA,NA,NA,NA
MrreSbXV,3ac6mfv6anv2a7u5af0lkpxttwbhzq,31lvtdxblbnxhwpyilq8fykt58zrlv,MrreSbXV,2020-0188,2021-10-30,20:39:44,22:13:32,NA,incomplete,false,NA,NA,true,4,10,NA,NA,NA,left,m_l_073.jpg,green,black,NA,NA,NA,NA,NA,NA,NA,NA,NA,NaN,NA,4185.100000143051,left,1,NA,NA,NA,NA,NA
MrreSbXV,3ac6mfv6anv2a7u5af0lkpxttwbhzq,31lvtdxblbnxhwpyilq8fykt58zrlv,MrreSbXV,2020-0188,2021-10-30,20:39:44,22:13:32,NA,incomplete,false,NA,NA,true,4,11,NA,NA,NA,right,n_s_092.jpg,white,blue,NA,NA,NA,NA,NA,NA,NA,NA,NA,NaN,NA,4617.099999904633,right,1,NA,NA,NA,NA,NA
MrreSbXV,3ac6mfv6anv2a7u5af0lkpxttwbhzq,31lvtdxblbnxhwpyilq8fykt58zrlv,MrreSbXV,2020-0188,2021-10-30,20:39:44,22:13:32,NA,incomplete,false,NA,NA,true,4,12,NA,NA,NA,left,n_l_116.jpg,black,purple,NA,NA,NA,NA,NA,NA,NA,NA,NA,NaN,NA,3405.5999999046326,right,0,NA,NA,NA,NA,NA
MrreSbXV,3ac6mfv6anv2a7u5af0lkpxttwbhzq,31lvtdxblbnxhwpyilq8fykt58zrlv,MrreSbXV,2020-0188,2021-10-30,20:39:44,22:13:32,NA,incomplete,false,NA,NA,true,4,13,NA,NA,NA,right,n_l_041.jpg,blue,white,NA,NA,NA,NA,NA,NA,NA,NA,NA,NaN,NA,3942.4000000953674,left,0,NA,NA,NA,NA,NA
MrreSbXV,3ac6mfv6anv2a7u5af0lkpxttwbhzq,31lvtdxblbnxhwpyilq8fykt58zrlv,MrreSbXV,2020-0188,2021-10-30,20:39:44,22:13:32,NA,incomplete,false,NA,NA,true,4,14,NA,NA,NA,left,m_l_115.jpg,white,purple,NA,NA,NA,NA,NA,NA,NA,NA,NA,NaN,NA,2381.5,left,1,NA,NA,NA,NA,NA
MrreSbXV,3ac6mfv6anv2a7u5af0lkpxttwbhzq,31lvtdxblbnxhwpyilq8fykt58zrlv,MrreSbXV,2020-0188,2021-10-30,20:39:44,22:13:32,NA,incomplete,false,NA,NA,true,4,15,NA,NA,NA,left,m_s_095.jpg,white,purple,NA,NA,NA,NA,NA,NA,NA,NA,NA,NaN,NA,3498,left,1,NA,NA,NA,NA,NA
MrreSbXV,3ac6mfv6anv2a7u5af0lkpxttwbhzq,31lvtdxblbnxhwpyilq8fykt58zrlv,MrreSbXV,2020-0188,2021-10-30,20:39:44,22:13:32,NA,incomplete,false,NA,NA,true,4,16,NA,NA,NA,left,m_l_014.jpg,black,purple,NA,NA,NA,NA,NA,NA,NA,NA,NA,NaN,NA,3015.2000000476837,left,1,NA,NA,NA,NA,NA
MrreSbXV,3ac6mfv6anv2a7u5af0lkpxttwbhzq,31lvtdxblbnxhwpyilq8fykt58zrlv,MrreSbXV,2020-0188,2021-10-30,20:39:44,22:13:32,NA,incomplete,false,NA,NA,true,4,17,NA,NA,NA,left,m_l_081.jpg,blue,white,NA,NA,NA,NA,NA,NA,NA,NA,NA,NaN,NA,4475.700000047684,left,1,NA,NA,NA,NA,NA
MrreSbXV,3ac6mfv6anv2a7u5af0lkpxttwbhzq,31lvtdxblbnxhwpyilq8fykt58zrlv,MrreSbXV,2020-0188,2021-10-30,20:39:44,22:13:32,NA,incomplete,false,NA,NA,true,4,18,NA,NA,NA,right,n_l_044.jpg,blue,gray,NA,NA,NA,NA,NA,NA,NA,NA,NA,NaN,NA,7657.700000047684,right,1,NA,NA,NA,NA,NA
MrreSbXV,3ac6mfv6anv2a7u5af0lkpxttwbhzq,31lvtdxblbnxhwpyilq8fykt58zrlv,MrreSbXV,2020-0188,2021-10-30,20:39:44,22:13:32,NA,incomplete,false,NA,NA,true,4,19,NA,NA,NA,left,m_l_012.jpg,black,purple,NA,NA,NA,NA,NA,NA,NA,NA,NA,NaN,NA,3095,left,1,NA,NA,NA,NA,NA
MrreSbXV,3ac6mfv6anv2a7u5af0lkpxttwbhzq,31lvtdxblbnxhwpyilq8fykt58zrlv,MrreSbXV,2020-0188,2021-10-30,20:39:44,22:13:32,NA,incomplete,false,NA,NA,true,4,20,NA,NA,NA,right,n_l_035.jpg,black,green,NA,NA,NA,NA,NA,NA,NA,NA,NA,NaN,NA,2740.4000000953674,left,0,NA,NA,NA,NA,NA
MrreSbXV,3ac6mfv6anv2a7u5af0lkpxttwbhzq,31lvtdxblbnxhwpyilq8fykt58zrlv,MrreSbXV,2020-0188,2021-10-30,20:39:44,22:13:32,NA,incomplete,false,NA,NA,true,4,21,NA,NA,NA,left,n_l_033.jpg,blue,white,NA,NA,NA,NA,NA,NA,NA,NA,NA,NaN,NA,3699.2000000476837,right,0,NA,NA,NA,NA,NA
MrreSbXV,3ac6mfv6anv2a7u5af0lkpxttwbhzq,31lvtdxblbnxhwpyilq8fykt58zrlv,MrreSbXV,2020-0188,2021-10-30,20:39:44,22:13:32,NA,incomplete,false,NA,true,NA,4,0,NA,NA,NA,right,NA,NA,NA,absent,NA,NA,n_s_117.jpg,purple,m_l_014.jpg,black,between,NA,NaN,NA,NA,NA,NA,right,3722.5,1,2,3079.2999999523163
MrreSbXV,3ac6mfv6anv2a7u5af0lkpxttwbhzq,31lvtdxblbnxhwpyilq8fykt58zrlv,MrreSbXV,2020-0188,2021-10-30,20:39:44,22:13:32,NA,incomplete,false,NA,true,NA,4,1,NA,NA,NA,right,NA,NA,NA,absent,NA,NA,m_l_081.jpg,blue,m_l_102.jpg,blue,within,NA,NaN,NA,NA,NA,NA,left,3150.7999999523163,0,2,1795.5999999046326
MrreSbXV,3ac6mfv6anv2a7u5af0lkpxttwbhzq,31lvtdxblbnxhwpyilq8fykt58zrlv,MrreSbXV,2020-0188,2021-10-30,20:39:44,22:13:32,NA,incomplete,false,NA,true,NA,4,2,NA,NA,NA,left,NA,NA,NA,absent,NA,NA,m_s_095.jpg,white,n_l_033.jpg,blue,between,NA,NaN,NA,NA,NA,NA,left,3284.399999856949,1,2,2331.300000190735
MrreSbXV,3ac6mfv6anv2a7u5af0lkpxttwbhzq,31lvtdxblbnxhwpyilq8fykt58zrlv,MrreSbXV,2020-0188,2021-10-30,20:39:44,22:13:32,NA,incomplete,false,NA,true,NA,4,3,NA,NA,NA,right,NA,NA,NA,absent,NA,NA,m_l_058.jpg,purple,n_l_064.jpg,purple,within,NA,NaN,NA,NA,NA,NA,left,5909.100000143051,0,2,1771.0999999046326
MrreSbXV,3ac6mfv6anv2a7u5af0lkpxttwbhzq,31lvtdxblbnxhwpyilq8fykt58zrlv,MrreSbXV,2020-0188,2021-10-30,20:39:44,22:13:32,NA,incomplete,false,NA,true,NA,4,4,NA,NA,NA,right,NA,NA,NA,absent,NA,NA,n_l_044.jpg,gray,n_s_092.jpg,blue,between,NA,NaN,NA,NA,NA,NA,left,5761.900000095367,0,2,2609.2000000476837
MrreSbXV,3ac6mfv6anv2a7u5af0lkpxttwbhzq,31lvtdxblbnxhwpyilq8fykt58zrlv,MrreSbXV,2020-0188,2021-10-30,20:39:44,22:13:32,NA,incomplete,false,NA,true,NA,4,5,NA,NA,NA,right,NA,NA,NA,absent,NA,NA,n_l_116.jpg,black,m_l_012.jpg,black,within,NA,NaN,NA,NA,NA,NA,left,3745.2000000476837,0,1,1865
MrreSbXV,3ac6mfv6anv2a7u5af0lkpxttwbhzq,31lvtdxblbnxhwpyilq8fykt58zrlv,MrreSbXV,2020-0188,2021-10-30,20:39:44,22:13:32,NA,incomplete,false,NA,true,NA,4,6,NA,NA,NA,left,NA,NA,NA,absent,NA,NA,m_s_053.jpg,gray,n_s_013.jpg,gray,within,NA,NaN,NA,NA,NA,NA,left,5141.200000047684,1,1,2899.2000000476837
MrreSbXV,3ac6mfv6anv2a7u5af0lkpxttwbhzq,31lvtdxblbnxhwpyilq8fykt58zrlv,MrreSbXV,2020-0188,2021-10-30,20:39:44,22:13:32,NA,incomplete,false,NA,true,NA,4,7,NA,NA,NA,right,NA,NA,NA,absent,NA,NA,m_l_115.jpg,white,n_l_041.jpg,white,within,NA,NaN,NA,NA,NA,NA,left,4571.099999904633,0,2,3127.399999856949
MrreSbXV,3ac6mfv6anv2a7u5af0lkpxttwbhzq,31lvtdxblbnxhwpyilq8fykt58zrlv,MrreSbXV,2020-0188,2021-10-30,20:39:44,22:13:32,NA,incomplete,false,NA,true,NA,4,8,NA,NA,NA,left,NA,NA,NA,absent,NA,NA,n_s_098.jpg,green,m_l_073.jpg,green,within,NA,NaN,NA,NA,NA,NA,left,9029.299999952316,1,2,2429.5
MrreSbXV,3ac6mfv6anv2a7u5af0lkpxttwbhzq,31lvtdxblbnxhwpyilq8fykt58zrlv,MrreSbXV,2020-0188,2021-10-30,20:39:44,22:13:32,NA,incomplete,false,NA,true,NA,4,9,NA,NA,NA,left,NA,NA,NA,absent,NA,NA,n_s_038.jpg,purple,n_s_043.jpg,white,between,NA,NaN,NA,NA,NA,NA,left,4442.299999952316,1,2,1403.2999999523163
MrreSbXV,3ac6mfv6anv2a7u5af0lkpxttwbhzq,31lvtdxblbnxhwpyilq8fykt58zrlv,MrreSbXV,2020-0188,2021-10-30,20:39:44,22:13:32,NA,incomplete,false,NA,true,NA,4,10,NA,NA,NA,left,NA,NA,NA,absent,NA,NA,n_l_035.jpg,green,n_s_012.jpg,black,between,NA,NaN,NA,NA,NA,NA,right,6365.5,0,1,3673.7000000476837
MrreSbXV,3ac6mfv6anv2a7u5af0lkpxttwbhzq,31lvtdxblbnxhwpyilq8fykt58zrlv,MrreSbXV,2020-0188,2021-10-30,20:39:44,22:13:32,NA,incomplete,false,true,NA,NA,5,0,NA,white,n_s_063.jpg,NA,NA,NA,NA,NA,unpleasant,pleasant,NA,NA,NA,NA,NA,none,0,false,NA,NA,NA,NA,NA,NA,NA,NA
MrreSbXV,3ac6mfv6anv2a7u5af0lkpxttwbhzq,31lvtdxblbnxhwpyilq8fykt58zrlv,MrreSbXV,2020-0188,2021-10-30,20:39:44,22:13:32,NA,incomplete,false,true,NA,NA,5,1,NA,white,m_l_116.jpg,NA,NA,NA,NA,NA,pleasant,unpleasant,NA,NA,NA,NA,NA,none,0,false,NA,NA,NA,NA,NA,NA,NA,NA
MrreSbXV,3ac6mfv6anv2a7u5af0lkpxttwbhzq,31lvtdxblbnxhwpyilq8fykt58zrlv,MrreSbXV,2020-0188,2021-10-30,20:39:44,22:13:32,NA,incomplete,false,true,NA,NA,5,2,NA,white,n_l_112.jpg,NA,NA,NA,NA,NA,pleasant,unpleasant,NA,NA,NA,NA,NA,right,1803.79999995232,true,NA,NA,NA,NA,NA,NA,NA,NA
MrreSbXV,3ac6mfv6anv2a7u5af0lkpxttwbhzq,31lvtdxblbnxhwpyilq8fykt58zrlv,MrreSbXV,2020-0188,2021-10-30,20:39:44,22:13:32,NA,incomplete,false,true,NA,NA,5,3,NA,white,n_s_074.jpg,NA,NA,NA,NA,NA,pleasant,unpleasant,NA,NA,NA,NA,NA,left,2359.39999985695,true,NA,NA,NA,NA,NA,NA,NA,NA
MrreSbXV,3ac6mfv6anv2a7u5af0lkpxttwbhzq,31lvtdxblbnxhwpyilq8fykt58zrlv,MrreSbXV,2020-0188,2021-10-30,20:39:44,22:13:32,NA,incomplete,false,true,NA,NA,5,4,NA,white,m_s_113.jpg,NA,NA,NA,NA,NA,unpleasant,pleasant,NA,NA,NA,NA,NA,right,2004.10000014305,true,NA,NA,NA,NA,NA,NA,NA,NA
MrreSbXV,3ac6mfv6anv2a7u5af0lkpxttwbhzq,31lvtdxblbnxhwpyilq8fykt58zrlv,MrreSbXV,2020-0188,2021-10-30,20:39:44,22:13:32,NA,incomplete,false,true,NA,NA,5,5,NA,white,m_l_077.jpg,NA,NA,NA,NA,NA,pleasant,unpleasant,NA,NA,NA,NA,NA,left,2272.60000014305,true,NA,NA,NA,NA,NA,NA,NA,NA
MrreSbXV,3ac6mfv6anv2a7u5af0lkpxttwbhzq,31lvtdxblbnxhwpyilq8fykt58zrlv,MrreSbXV,2020-0188,2021-10-30,20:39:44,22:13:32,NA,incomplete,false,true,NA,NA,5,6,NA,orange,m_s_086.jpg,NA,NA,NA,NA,NA,pleasant,unpleasant,NA,NA,NA,NA,NA,left,1900.10000014305,true,NA,NA,NA,NA,NA,NA,NA,NA
MrreSbXV,3ac6mfv6anv2a7u5af0lkpxttwbhzq,31lvtdxblbnxhwpyilq8fykt58zrlv,MrreSbXV,2020-0188,2021-10-30,20:39:44,22:13:32,NA,incomplete,false,true,NA,NA,5,7,NA,orange,n_s_071.jpg,NA,NA,NA,NA,NA,pleasant,unpleasant,NA,NA,NA,NA,NA,left,1695.10000014305,true,NA,NA,NA,NA,NA,NA,NA,NA
MrreSbXV,3ac6mfv6anv2a7u5af0lkpxttwbhzq,31lvtdxblbnxhwpyilq8fykt58zrlv,MrreSbXV,2020-0188,2021-10-30,20:39:44,22:13:32,NA,incomplete,false,true,NA,NA,5,8,NA,orange,n_l_083.jpg,NA,NA,NA,NA,NA,unpleasant,pleasant,NA,NA,NA,NA,NA,right,2117.40000009537,true,NA,NA,NA,NA,NA,NA,NA,NA
MrreSbXV,3ac6mfv6anv2a7u5af0lkpxttwbhzq,31lvtdxblbnxhwpyilq8fykt58zrlv,MrreSbXV,2020-0188,2021-10-30,20:39:44,22:13:32,NA,incomplete,false,true,NA,NA,5,9,NA,orange,n_s_018.jpg,NA,NA,NA,NA,NA,unpleasant,pleasant,NA,NA,NA,NA,NA,left,2440.79999995232,true,NA,NA,NA,NA,NA,NA,NA,NA
MrreSbXV,3ac6mfv6anv2a7u5af0lkpxttwbhzq,31lvtdxblbnxhwpyilq8fykt58zrlv,MrreSbXV,2020-0188,2021-10-30,20:39:44,22:13:32,NA,incomplete,false,true,NA,NA,5,10,NA,orange,m_l_045.jpg,NA,NA,NA,NA,NA,pleasant,unpleasant,NA,NA,NA,NA,NA,left,1941.10000014305,true,NA,NA,NA,NA,NA,NA,NA,NA
MrreSbXV,3ac6mfv6anv2a7u5af0lkpxttwbhzq,31lvtdxblbnxhwpyilq8fykt58zrlv,MrreSbXV,2020-0188,2021-10-30,20:39:44,22:13:32,NA,incomplete,false,true,NA,NA,5,11,NA,orange,n_s_016.jpg,NA,NA,NA,NA,NA,unpleasant,pleasant,NA,NA,NA,NA,NA,right,1737.5,true,NA,NA,NA,NA,NA,NA,NA,NA
MrreSbXV,3ac6mfv6anv2a7u5af0lkpxttwbhzq,31lvtdxblbnxhwpyilq8fykt58zrlv,MrreSbXV,2020-0188,2021-10-30,20:39:44,22:13:32,NA,incomplete,false,true,NA,NA,5,12,NA,green,m_s_115.jpg,NA,NA,NA,NA,NA,unpleasant,pleasant,NA,NA,NA,NA,NA,left,2173,true,NA,NA,NA,NA,NA,NA,NA,NA
MrreSbXV,3ac6mfv6anv2a7u5af0lkpxttwbhzq,31lvtdxblbnxhwpyilq8fykt58zrlv,MrreSbXV,2020-0188,2021-10-30,20:39:44,22:13:32,NA,incomplete,false,true,NA,NA,5,13,NA,green,m_s_072.jpg,NA,NA,NA,NA,NA,unpleasant,pleasant,NA,NA,NA,NA,NA,right,1752.90000009537,true,NA,NA,NA,NA,NA,NA,NA,NA
MrreSbXV,3ac6mfv6anv2a7u5af0lkpxttwbhzq,31lvtdxblbnxhwpyilq8fykt58zrlv,MrreSbXV,2020-0188,2021-10-30,20:39:44,22:13:32,NA,incomplete,false,true,NA,NA,5,14,NA,green,m_l_103.jpg,NA,NA,NA,NA,NA,pleasant,unpleasant,NA,NA,NA,NA,NA,left,1669.29999995232,true,NA,NA,NA,NA,NA,NA,NA,NA
MrreSbXV,3ac6mfv6anv2a7u5af0lkpxttwbhzq,31lvtdxblbnxhwpyilq8fykt58zrlv,MrreSbXV,2020-0188,2021-10-30,20:39:44,22:13:32,NA,incomplete,false,true,NA,NA,5,15,NA,green,m_s_059.jpg,NA,NA,NA,NA,NA,unpleasant,pleasant,NA,NA,NA,NA,NA,left,2929.10000014305,true,NA,NA,NA,NA,NA,NA,NA,NA
MrreSbXV,3ac6mfv6anv2a7u5af0lkpxttwbhzq,31lvtdxblbnxhwpyilq8fykt58zrlv,MrreSbXV,2020-0188,2021-10-30,20:39:44,22:13:32,NA,incomplete,false,true,NA,NA,5,16,NA,green,m_s_058.jpg,NA,NA,NA,NA,NA,unpleasant,pleasant,NA,NA,NA,NA,NA,right,1581.40000009537,true,NA,NA,NA,NA,NA,NA,NA,NA
MrreSbXV,3ac6mfv6anv2a7u5af0lkpxttwbhzq,31lvtdxblbnxhwpyilq8fykt58zrlv,MrreSbXV,2020-0188,2021-10-30,20:39:44,22:13:32,NA,incomplete,false,true,NA,NA,5,17,NA,green,m_s_065.jpg,NA,NA,NA,NA,NA,pleasant,unpleasant,NA,NA,NA,NA,NA,left,2034.89999985695,true,NA,NA,NA,NA,NA,NA,NA,NA
