workerId,hitId,assignmentId,subject,studyid,exp_date,exp_start,exp_end,time_start,time_end,practice,encoding,memory,association,block,trial,event_order,event,stim,answer,object,left_context,right_context,context_type,label_left,label_right,left_image,left_event,right_image,right_event,condition,response,response_time,response_acc,association_response_time,association_response,association_acc,order_response,order_response_time,order_acc,distance_response,distance_response_time
pIWabIlE,3z33ic0jd3zsmh7cb6nqm2m9m84v9l,31q0u3wydtsa961fgxajq2kf6qa71g,pIWabIlE,2020-0188,2021-10-31,01:40:22,03:17:41,NA,incomplete,true,true,NA,NA,0,0,NA,white,n_s_059.jpg,NA,NA,NA,NA,NA,pleasant,unpleasant,NA,NA,NA,NA,NA,right,2308.69999998808,true,NA,NA,NA,NA,NA,NA,NA,NA
pIWabIlE,3z33ic0jd3zsmh7cb6nqm2m9m84v9l,31q0u3wydtsa961fgxajq2kf6qa71g,pIWabIlE,2020-0188,2021-10-31,01:40:22,03:17:41,NA,incomplete,true,true,NA,NA,0,1,NA,white,m_l_083.jpg,NA,NA,NA,NA,NA,pleasant,unpleasant,NA,NA,NA,NA,NA,right,3257.39999997616,true,NA,NA,NA,NA,NA,NA,NA,NA
pIWabIlE,3z33ic0jd3zsmh7cb6nqm2m9m84v9l,31q0u3wydtsa961fgxajq2kf6qa71g,pIWabIlE,2020-0188,2021-10-31,01:40:22,03:17:41,NA,incomplete,true,true,NA,NA,0,2,NA,white,m_s_085.jpg,NA,NA,NA,NA,NA,pleasant,unpleasant,NA,NA,NA,NA,NA,right,1301.69999998808,true,NA,NA,NA,NA,NA,NA,NA,NA
pIWabIlE,3z33ic0jd3zsmh7cb6nqm2m9m84v9l,31q0u3wydtsa961fgxajq2kf6qa71g,pIWabIlE,2020-0188,2021-10-31,01:40:22,03:17:41,NA,incomplete,true,true,NA,NA,0,3,NA,white,m_l_071.jpg,NA,NA,NA,NA,NA,pleasant,unpleasant,NA,NA,NA,NA,NA,left,2290.79999995232,true,NA,NA,NA,NA,NA,NA,NA,NA
pIWabIlE,3z33ic0jd3zsmh7cb6nqm2m9m84v9l,31q0u3wydtsa961fgxajq2kf6qa71g,pIWabIlE,2020-0188,2021-10-31,01:40:22,03:17:41,NA,incomplete,true,true,NA,NA,0,4,NA,white,n_l_082.jpg,NA,NA,NA,NA,NA,unpleasant,pleasant,NA,NA,NA,NA,NA,none,0,false,NA,NA,NA,NA,NA,NA,NA,NA
pIWabIlE,3z33ic0jd3zsmh7cb6nqm2m9m84v9l,31q0u3wydtsa961fgxajq2kf6qa71g,pIWabIlE,2020-0188,2021-10-31,01:40:22,03:17:41,NA,incomplete,true,true,NA,NA,0,5,NA,white,m_s_070.jpg,NA,NA,NA,NA,NA,unpleasant,pleasant,NA,NA,NA,NA,NA,left,1354.70000004768,true,NA,NA,NA,NA,NA,NA,NA,NA
pIWabIlE,3z33ic0jd3zsmh7cb6nqm2m9m84v9l,31q0u3wydtsa961fgxajq2kf6qa71g,pIWabIlE,2020-0188,2021-10-31,01:40:22,03:17:41,NA,incomplete,true,true,NA,NA,0,6,NA,blue,n_s_027.jpg,NA,NA,NA,NA,NA,unpleasant,pleasant,NA,NA,NA,NA,NA,right,1790.90000003576,true,NA,NA,NA,NA,NA,NA,NA,NA
pIWabIlE,3z33ic0jd3zsmh7cb6nqm2m9m84v9l,31q0u3wydtsa961fgxajq2kf6qa71g,pIWabIlE,2020-0188,2021-10-31,01:40:22,03:17:41,NA,incomplete,true,true,NA,NA,0,7,NA,blue,m_l_091.jpg,NA,NA,NA,NA,NA,pleasant,unpleasant,NA,NA,NA,NA,NA,left,1843.60000002384,true,NA,NA,NA,NA,NA,NA,NA,NA
pIWabIlE,3z33ic0jd3zsmh7cb6nqm2m9m84v9l,31q0u3wydtsa961fgxajq2kf6qa71g,pIWabIlE,2020-0188,2021-10-31,01:40:22,03:17:41,NA,incomplete,true,true,NA,NA,0,8,NA,blue,n_s_048.jpg,NA,NA,NA,NA,NA,unpleasant,pleasant,NA,NA,NA,NA,NA,right,1871.80000001192,true,NA,NA,NA,NA,NA,NA,NA,NA
pIWabIlE,3z33ic0jd3zsmh7cb6nqm2m9m84v9l,31q0u3wydtsa961fgxajq2kf6qa71g,pIWabIlE,2020-0188,2021-10-31,01:40:22,03:17:41,NA,incomplete,true,true,NA,NA,0,9,NA,blue,m_l_017.jpg,NA,NA,NA,NA,NA,unpleasant,pleasant,NA,NA,NA,NA,NA,right,2331.39999997616,true,NA,NA,NA,NA,NA,NA,NA,NA
pIWabIlE,3z33ic0jd3zsmh7cb6nqm2m9m84v9l,31q0u3wydtsa961fgxajq2kf6qa71g,pIWabIlE,2020-0188,2021-10-31,01:40:22,03:17:41,NA,incomplete,true,true,NA,NA,0,10,NA,blue,m_s_007.jpg,NA,NA,NA,NA,NA,pleasant,unpleasant,NA,NA,NA,NA,NA,left,1497.89999997616,true,NA,NA,NA,NA,NA,NA,NA,NA
pIWabIlE,3z33ic0jd3zsmh7cb6nqm2m9m84v9l,31q0u3wydtsa961fgxajq2kf6qa71g,pIWabIlE,2020-0188,2021-10-31,01:40:22,03:17:41,NA,incomplete,true,true,NA,NA,0,11,NA,blue,n_s_080.jpg,NA,NA,NA,NA,NA,unpleasant,pleasant,NA,NA,NA,NA,NA,left,1613.30000001192,true,NA,NA,NA,NA,NA,NA,NA,NA
pIWabIlE,3z33ic0jd3zsmh7cb6nqm2m9m84v9l,31q0u3wydtsa961fgxajq2kf6qa71g,pIWabIlE,2020-0188,2021-10-31,01:40:22,03:17:41,NA,incomplete,true,true,NA,NA,0,12,NA,red,m_l_093.jpg,NA,NA,NA,NA,NA,pleasant,unpleasant,NA,NA,NA,NA,NA,left,2489.5,true,NA,NA,NA,NA,NA,NA,NA,NA
pIWabIlE,3z33ic0jd3zsmh7cb6nqm2m9m84v9l,31q0u3wydtsa961fgxajq2kf6qa71g,pIWabIlE,2020-0188,2021-10-31,01:40:22,03:17:41,NA,incomplete,true,true,NA,NA,0,13,NA,red,n_s_014.jpg,NA,NA,NA,NA,NA,unpleasant,pleasant,NA,NA,NA,NA,NA,right,1303.5,true,NA,NA,NA,NA,NA,NA,NA,NA
pIWabIlE,3z33ic0jd3zsmh7cb6nqm2m9m84v9l,31q0u3wydtsa961fgxajq2kf6qa71g,pIWabIlE,2020-0188,2021-10-31,01:40:22,03:17:41,NA,incomplete,true,true,NA,NA,0,14,NA,red,n_l_036.jpg,NA,NA,NA,NA,NA,pleasant,unpleasant,NA,NA,NA,NA,NA,left,1402.59999996424,true,NA,NA,NA,NA,NA,NA,NA,NA
pIWabIlE,3z33ic0jd3zsmh7cb6nqm2m9m84v9l,31q0u3wydtsa961fgxajq2kf6qa71g,pIWabIlE,2020-0188,2021-10-31,01:40:22,03:17:41,NA,incomplete,true,true,NA,NA,0,15,NA,red,n_l_026.jpg,NA,NA,NA,NA,NA,unpleasant,pleasant,NA,NA,NA,NA,NA,right,1320.79999995232,true,NA,NA,NA,NA,NA,NA,NA,NA
pIWabIlE,3z33ic0jd3zsmh7cb6nqm2m9m84v9l,31q0u3wydtsa961fgxajq2kf6qa71g,pIWabIlE,2020-0188,2021-10-31,01:40:22,03:17:41,NA,incomplete,true,true,NA,NA,0,16,NA,red,m_l_040.jpg,NA,NA,NA,NA,NA,unpleasant,pleasant,NA,NA,NA,NA,NA,right,2333.09999996424,true,NA,NA,NA,NA,NA,NA,NA,NA
pIWabIlE,3z33ic0jd3zsmh7cb6nqm2m9m84v9l,31q0u3wydtsa961fgxajq2kf6qa71g,pIWabIlE,2020-0188,2021-10-31,01:40:22,03:17:41,NA,incomplete,true,true,NA,NA,0,17,NA,red,n_s_095.jpg,NA,NA,NA,NA,NA,pleasant,unpleasant,NA,NA,NA,NA,NA,right,1272.80000001192,true,NA,NA,NA,NA,NA,NA,NA,NA
pIWabIlE,3z33ic0jd3zsmh7cb6nqm2m9m84v9l,31q0u3wydtsa961fgxajq2kf6qa71g,pIWabIlE,2020-0188,2021-10-31,01:40:22,03:17:41,NA,incomplete,true,true,NA,NA,0,18,NA,orange,m_s_117.jpg,NA,NA,NA,NA,NA,pleasant,unpleasant,NA,NA,NA,NA,NA,left,2684.70000004768,true,NA,NA,NA,NA,NA,NA,NA,NA
pIWabIlE,3z33ic0jd3zsmh7cb6nqm2m9m84v9l,31q0u3wydtsa961fgxajq2kf6qa71g,pIWabIlE,2020-0188,2021-10-31,01:40:22,03:17:41,NA,incomplete,true,true,NA,NA,0,19,NA,orange,n_l_059.jpg,NA,NA,NA,NA,NA,pleasant,unpleasant,NA,NA,NA,NA,NA,left,2626.90000003576,true,NA,NA,NA,NA,NA,NA,NA,NA
pIWabIlE,3z33ic0jd3zsmh7cb6nqm2m9m84v9l,31q0u3wydtsa961fgxajq2kf6qa71g,pIWabIlE,2020-0188,2021-10-31,01:40:22,03:17:41,NA,incomplete,true,true,NA,NA,0,20,NA,orange,m_s_061.jpg,NA,NA,NA,NA,NA,pleasant,unpleasant,NA,NA,NA,NA,NA,left,1270.40000003576,true,NA,NA,NA,NA,NA,NA,NA,NA
pIWabIlE,3z33ic0jd3zsmh7cb6nqm2m9m84v9l,31q0u3wydtsa961fgxajq2kf6qa71g,pIWabIlE,2020-0188,2021-10-31,01:40:22,03:17:41,NA,incomplete,true,true,NA,NA,0,21,NA,orange,n_l_014.jpg,NA,NA,NA,NA,NA,pleasant,unpleasant,NA,NA,NA,NA,NA,left,1162.69999998808,true,NA,NA,NA,NA,NA,NA,NA,NA
pIWabIlE,3z33ic0jd3zsmh7cb6nqm2m9m84v9l,31q0u3wydtsa961fgxajq2kf6qa71g,pIWabIlE,2020-0188,2021-10-31,01:40:22,03:17:41,NA,incomplete,true,true,NA,NA,0,22,NA,orange,n_s_071.jpg,NA,NA,NA,NA,NA,unpleasant,pleasant,NA,NA,NA,NA,NA,right,1432.19999998808,true,NA,NA,NA,NA,NA,NA,NA,NA
pIWabIlE,3z33ic0jd3zsmh7cb6nqm2m9m84v9l,31q0u3wydtsa961fgxajq2kf6qa71g,pIWabIlE,2020-0188,2021-10-31,01:40:22,03:17:41,NA,incomplete,true,true,NA,NA,0,23,NA,orange,n_s_085.jpg,NA,NA,NA,NA,NA,pleasant,unpleasant,NA,NA,NA,NA,NA,left,1347.59999996424,true,NA,NA,NA,NA,NA,NA,NA,NA
pIWabIlE,3z33ic0jd3zsmh7cb6nqm2m9m84v9l,31q0u3wydtsa961fgxajq2kf6qa71g,pIWabIlE,2020-0188,2021-10-31,01:40:22,03:17:41,NA,incomplete,true,true,NA,NA,0,24,NA,gray,m_l_104.jpg,NA,NA,NA,NA,NA,pleasant,unpleasant,NA,NA,NA,NA,NA,left,2961.90000003576,true,NA,NA,NA,NA,NA,NA,NA,NA
pIWabIlE,3z33ic0jd3zsmh7cb6nqm2m9m84v9l,31q0u3wydtsa961fgxajq2kf6qa71g,pIWabIlE,2020-0188,2021-10-31,01:40:22,03:17:41,NA,incomplete,true,true,NA,NA,0,25,NA,gray,m_l_016.jpg,NA,NA,NA,NA,NA,pleasant,unpleasant,NA,NA,NA,NA,NA,left,1116,true,NA,NA,NA,NA,NA,NA,NA,NA
pIWabIlE,3z33ic0jd3zsmh7cb6nqm2m9m84v9l,31q0u3wydtsa961fgxajq2kf6qa71g,pIWabIlE,2020-0188,2021-10-31,01:40:22,03:17:41,NA,incomplete,true,true,NA,NA,0,26,NA,gray,n_l_027.jpg,NA,NA,NA,NA,NA,pleasant,unpleasant,NA,NA,NA,NA,NA,left,1081.69999998808,true,NA,NA,NA,NA,NA,NA,NA,NA
pIWabIlE,3z33ic0jd3zsmh7cb6nqm2m9m84v9l,31q0u3wydtsa961fgxajq2kf6qa71g,pIWabIlE,2020-0188,2021-10-31,01:40:22,03:17:41,NA,incomplete,true,true,NA,NA,0,27,NA,gray,n_l_050.jpg,NA,NA,NA,NA,NA,pleasant,unpleasant,NA,NA,NA,NA,NA,left,1975.40000003576,true,NA,NA,NA,NA,NA,NA,NA,NA
pIWabIlE,3z33ic0jd3zsmh7cb6nqm2m9m84v9l,31q0u3wydtsa961fgxajq2kf6qa71g,pIWabIlE,2020-0188,2021-10-31,01:40:22,03:17:41,NA,incomplete,true,true,NA,NA,0,28,NA,gray,m_l_034.jpg,NA,NA,NA,NA,NA,unpleasant,pleasant,NA,NA,NA,NA,NA,right,1834,true,NA,NA,NA,NA,NA,NA,NA,NA
pIWabIlE,3z33ic0jd3zsmh7cb6nqm2m9m84v9l,31q0u3wydtsa961fgxajq2kf6qa71g,pIWabIlE,2020-0188,2021-10-31,01:40:22,03:17:41,NA,incomplete,true,true,NA,NA,0,29,NA,gray,m_s_056.jpg,NA,NA,NA,NA,NA,pleasant,unpleasant,NA,NA,NA,NA,NA,left,1447.19999998808,true,NA,NA,NA,NA,NA,NA,NA,NA
pIWabIlE,3z33ic0jd3zsmh7cb6nqm2m9m84v9l,31q0u3wydtsa961fgxajq2kf6qa71g,pIWabIlE,2020-0188,2021-10-31,01:40:22,03:17:41,NA,incomplete,true,true,NA,NA,0,30,NA,yellow,n_l_073.jpg,NA,NA,NA,NA,NA,unpleasant,pleasant,NA,NA,NA,NA,NA,right,1636.80000001192,true,NA,NA,NA,NA,NA,NA,NA,NA
pIWabIlE,3z33ic0jd3zsmh7cb6nqm2m9m84v9l,31q0u3wydtsa961fgxajq2kf6qa71g,pIWabIlE,2020-0188,2021-10-31,01:40:22,03:17:41,NA,incomplete,true,true,NA,NA,0,31,NA,yellow,n_l_038.jpg,NA,NA,NA,NA,NA,unpleasant,pleasant,NA,NA,NA,NA,NA,right,1440.59999996424,true,NA,NA,NA,NA,NA,NA,NA,NA
pIWabIlE,3z33ic0jd3zsmh7cb6nqm2m9m84v9l,31q0u3wydtsa961fgxajq2kf6qa71g,pIWabIlE,2020-0188,2021-10-31,01:40:22,03:17:41,NA,incomplete,true,true,NA,NA,0,32,NA,yellow,n_s_024.jpg,NA,NA,NA,NA,NA,pleasant,unpleasant,NA,NA,NA,NA,NA,left,1406.30000001192,true,NA,NA,NA,NA,NA,NA,NA,NA
pIWabIlE,3z33ic0jd3zsmh7cb6nqm2m9m84v9l,31q0u3wydtsa961fgxajq2kf6qa71g,pIWabIlE,2020-0188,2021-10-31,01:40:22,03:17:41,NA,incomplete,true,true,NA,NA,0,33,NA,yellow,n_l_046.jpg,NA,NA,NA,NA,NA,unpleasant,pleasant,NA,NA,NA,NA,NA,right,1697.60000002384,true,NA,NA,NA,NA,NA,NA,NA,NA
pIWabIlE,3z33ic0jd3zsmh7cb6nqm2m9m84v9l,31q0u3wydtsa961fgxajq2kf6qa71g,pIWabIlE,2020-0188,2021-10-31,01:40:22,03:17:41,NA,incomplete,true,true,NA,NA,0,34,NA,yellow,n_s_070.jpg,NA,NA,NA,NA,NA,unpleasant,pleasant,NA,NA,NA,NA,NA,right,1309.69999998808,true,NA,NA,NA,NA,NA,NA,NA,NA
pIWabIlE,3z33ic0jd3zsmh7cb6nqm2m9m84v9l,31q0u3wydtsa961fgxajq2kf6qa71g,pIWabIlE,2020-0188,2021-10-31,01:40:22,03:17:41,NA,incomplete,true,true,NA,NA,0,35,NA,yellow,m_s_017.jpg,NA,NA,NA,NA,NA,pleasant,unpleasant,NA,NA,NA,NA,NA,right,2298.19999998808,true,NA,NA,NA,NA,NA,NA,NA,NA
pIWabIlE,3z33ic0jd3zsmh7cb6nqm2m9m84v9l,31q0u3wydtsa961fgxajq2kf6qa71g,pIWabIlE,2020-0188,2021-10-31,01:40:22,03:17:41,NA,incomplete,true,NA,NA,true,0,0,NA,NA,NA,left,n_s_048.jpg,blue,white,NA,NA,NA,NA,NA,NA,NA,NA,NA,NaN,NA,4107.299999952316,left,1,NA,NA,NA,NA,NA
pIWabIlE,3z33ic0jd3zsmh7cb6nqm2m9m84v9l,31q0u3wydtsa961fgxajq2kf6qa71g,pIWabIlE,2020-0188,2021-10-31,01:40:22,03:17:41,NA,incomplete,true,NA,NA,true,0,1,NA,NA,NA,right,m_s_007.jpg,white,blue,NA,NA,NA,NA,NA,NA,NA,NA,NA,NaN,NA,5964.300000011921,right,1,NA,NA,NA,NA,NA
pIWabIlE,3z33ic0jd3zsmh7cb6nqm2m9m84v9l,31q0u3wydtsa961fgxajq2kf6qa71g,pIWabIlE,2020-0188,2021-10-31,01:40:22,03:17:41,NA,incomplete,true,NA,NA,true,0,2,NA,NA,NA,right,n_s_080.jpg,red,blue,NA,NA,NA,NA,NA,NA,NA,NA,NA,NaN,NA,3644.100000023842,left,0,NA,NA,NA,NA,NA
pIWabIlE,3z33ic0jd3zsmh7cb6nqm2m9m84v9l,31q0u3wydtsa961fgxajq2kf6qa71g,pIWabIlE,2020-0188,2021-10-31,01:40:22,03:17:41,NA,incomplete,true,NA,NA,true,0,3,NA,NA,NA,right,m_s_070.jpg,blue,white,NA,NA,NA,NA,NA,NA,NA,NA,NA,NaN,NA,2412.600000023842,right,1,NA,NA,NA,NA,NA
pIWabIlE,3z33ic0jd3zsmh7cb6nqm2m9m84v9l,31q0u3wydtsa961fgxajq2kf6qa71g,pIWabIlE,2020-0188,2021-10-31,01:40:22,03:17:41,NA,incomplete,true,NA,NA,true,0,4,NA,NA,NA,right,n_s_095.jpg,orange,red,NA,NA,NA,NA,NA,NA,NA,NA,NA,NaN,NA,3940.599999964237,right,1,NA,NA,NA,NA,NA
pIWabIlE,3z33ic0jd3zsmh7cb6nqm2m9m84v9l,31q0u3wydtsa961fgxajq2kf6qa71g,pIWabIlE,2020-0188,2021-10-31,01:40:22,03:17:41,NA,incomplete,true,NA,NA,true,0,5,NA,NA,NA,right,m_l_083.jpg,blue,white,NA,NA,NA,NA,NA,NA,NA,NA,NA,NaN,NA,2292.900000035763,right,1,NA,NA,NA,NA,NA
pIWabIlE,3z33ic0jd3zsmh7cb6nqm2m9m84v9l,31q0u3wydtsa961fgxajq2kf6qa71g,pIWabIlE,2020-0188,2021-10-31,01:40:22,03:17:41,NA,incomplete,true,NA,NA,true,0,6,NA,NA,NA,right,n_l_027.jpg,yellow,gray,NA,NA,NA,NA,NA,NA,NA,NA,NA,NaN,NA,3660,right,1,NA,NA,NA,NA,NA
pIWabIlE,3z33ic0jd3zsmh7cb6nqm2m9m84v9l,31q0u3wydtsa961fgxajq2kf6qa71g,pIWabIlE,2020-0188,2021-10-31,01:40:22,03:17:41,NA,incomplete,true,NA,NA,true,0,7,NA,NA,NA,right,m_l_091.jpg,white,blue,NA,NA,NA,NA,NA,NA,NA,NA,NA,NaN,NA,4963,left,0,NA,NA,NA,NA,NA
pIWabIlE,3z33ic0jd3zsmh7cb6nqm2m9m84v9l,31q0u3wydtsa961fgxajq2kf6qa71g,pIWabIlE,2020-0188,2021-10-31,01:40:22,03:17:41,NA,incomplete,true,NA,NA,true,0,8,NA,NA,NA,right,m_l_040.jpg,orange,red,NA,NA,NA,NA,NA,NA,NA,NA,NA,NaN,NA,5275.599999964237,right,1,NA,NA,NA,NA,NA
pIWabIlE,3z33ic0jd3zsmh7cb6nqm2m9m84v9l,31q0u3wydtsa961fgxajq2kf6qa71g,pIWabIlE,2020-0188,2021-10-31,01:40:22,03:17:41,NA,incomplete,true,NA,NA,true,0,9,NA,NA,NA,left,m_l_034.jpg,gray,orange,NA,NA,NA,NA,NA,NA,NA,NA,NA,NaN,NA,1778.1000000238419,left,1,NA,NA,NA,NA,NA
pIWabIlE,3z33ic0jd3zsmh7cb6nqm2m9m84v9l,31q0u3wydtsa961fgxajq2kf6qa71g,pIWabIlE,2020-0188,2021-10-31,01:40:22,03:17:41,NA,incomplete,true,NA,NA,true,0,10,NA,NA,NA,left,n_s_024.jpg,yellow,gray,NA,NA,NA,NA,NA,NA,NA,NA,NA,NaN,NA,2900.899999976158,left,1,NA,NA,NA,NA,NA
pIWabIlE,3z33ic0jd3zsmh7cb6nqm2m9m84v9l,31q0u3wydtsa961fgxajq2kf6qa71g,pIWabIlE,2020-0188,2021-10-31,01:40:22,03:17:41,NA,incomplete,true,NA,NA,true,0,11,NA,NA,NA,right,n_s_014.jpg,orange,red,NA,NA,NA,NA,NA,NA,NA,NA,NA,NaN,NA,5475.5,right,1,NA,NA,NA,NA,NA
pIWabIlE,3z33ic0jd3zsmh7cb6nqm2m9m84v9l,31q0u3wydtsa961fgxajq2kf6qa71g,pIWabIlE,2020-0188,2021-10-31,01:40:22,03:17:41,NA,incomplete,true,NA,NA,true,0,12,NA,NA,NA,left,n_l_059.jpg,orange,red,NA,NA,NA,NA,NA,NA,NA,NA,NA,NaN,NA,2957,left,1,NA,NA,NA,NA,NA
pIWabIlE,3z33ic0jd3zsmh7cb6nqm2m9m84v9l,31q0u3wydtsa961fgxajq2kf6qa71g,pIWabIlE,2020-0188,2021-10-31,01:40:22,03:17:41,NA,incomplete,true,NA,NA,true,0,13,NA,NA,NA,right,n_l_038.jpg,gray,yellow,NA,NA,NA,NA,NA,NA,NA,NA,NA,NaN,NA,6059.399999976158,left,0,NA,NA,NA,NA,NA
pIWabIlE,3z33ic0jd3zsmh7cb6nqm2m9m84v9l,31q0u3wydtsa961fgxajq2kf6qa71g,pIWabIlE,2020-0188,2021-10-31,01:40:22,03:17:41,NA,incomplete,true,NA,NA,true,0,14,NA,NA,NA,left,m_s_061.jpg,orange,red,NA,NA,NA,NA,NA,NA,NA,NA,NA,NaN,NA,2538.699999988079,left,1,NA,NA,NA,NA,NA
pIWabIlE,3z33ic0jd3zsmh7cb6nqm2m9m84v9l,31q0u3wydtsa961fgxajq2kf6qa71g,pIWabIlE,2020-0188,2021-10-31,01:40:22,03:17:41,NA,incomplete,true,NA,NA,true,0,15,NA,NA,NA,left,m_s_056.jpg,gray,yellow,NA,NA,NA,NA,NA,NA,NA,NA,NA,NaN,NA,2427.5,left,1,NA,NA,NA,NA,NA
pIWabIlE,3z33ic0jd3zsmh7cb6nqm2m9m84v9l,31q0u3wydtsa961fgxajq2kf6qa71g,pIWabIlE,2020-0188,2021-10-31,01:40:22,03:17:41,NA,incomplete,true,NA,NA,true,0,16,NA,NA,NA,left,n_l_082.jpg,white,blue,NA,NA,NA,NA,NA,NA,NA,NA,NA,NaN,NA,3578.899999976158,left,1,NA,NA,NA,NA,NA
pIWabIlE,3z33ic0jd3zsmh7cb6nqm2m9m84v9l,31q0u3wydtsa961fgxajq2kf6qa71g,pIWabIlE,2020-0188,2021-10-31,01:40:22,03:17:41,NA,incomplete,true,NA,NA,true,0,17,NA,NA,NA,left,n_s_085.jpg,orange,red,NA,NA,NA,NA,NA,NA,NA,NA,NA,NaN,NA,2420.2000000476837,left,1,NA,NA,NA,NA,NA
pIWabIlE,3z33ic0jd3zsmh7cb6nqm2m9m84v9l,31q0u3wydtsa961fgxajq2kf6qa71g,pIWabIlE,2020-0188,2021-10-31,01:40:22,03:17:41,NA,incomplete,true,NA,NA,true,0,18,NA,NA,NA,right,m_l_016.jpg,orange,gray,NA,NA,NA,NA,NA,NA,NA,NA,NA,NaN,NA,2812.199999988079,right,1,NA,NA,NA,NA,NA
pIWabIlE,3z33ic0jd3zsmh7cb6nqm2m9m84v9l,31q0u3wydtsa961fgxajq2kf6qa71g,pIWabIlE,2020-0188,2021-10-31,01:40:22,03:17:41,NA,incomplete,true,NA,NA,true,0,19,NA,NA,NA,right,m_s_017.jpg,gray,yellow,NA,NA,NA,NA,NA,NA,NA,NA,NA,NaN,NA,3058.399999976158,right,1,NA,NA,NA,NA,NA
pIWabIlE,3z33ic0jd3zsmh7cb6nqm2m9m84v9l,31q0u3wydtsa961fgxajq2kf6qa71g,pIWabIlE,2020-0188,2021-10-31,01:40:22,03:17:41,NA,incomplete,true,NA,NA,true,0,20,NA,NA,NA,left,n_s_071.jpg,orange,red,NA,NA,NA,NA,NA,NA,NA,NA,NA,NaN,NA,4051.7000000476837,left,1,NA,NA,NA,NA,NA
pIWabIlE,3z33ic0jd3zsmh7cb6nqm2m9m84v9l,31q0u3wydtsa961fgxajq2kf6qa71g,pIWabIlE,2020-0188,2021-10-31,01:40:22,03:17:41,NA,incomplete,true,NA,NA,true,0,21,NA,NA,NA,right,n_l_036.jpg,orange,red,NA,NA,NA,NA,NA,NA,NA,NA,NA,NaN,NA,2195.199999988079,left,0,NA,NA,NA,NA,NA
pIWabIlE,3z33ic0jd3zsmh7cb6nqm2m9m84v9l,31q0u3wydtsa961fgxajq2kf6qa71g,pIWabIlE,2020-0188,2021-10-31,01:40:22,03:17:41,NA,incomplete,true,NA,true,NA,0,0,NA,NA,NA,left,NA,NA,NA,present,NA,NA,m_l_040.jpg,red,m_s_061.jpg,orange,between,NA,NaN,NA,NA,NA,NA,left,5052.800000011921,1,1,4708.400000035763
pIWabIlE,3z33ic0jd3zsmh7cb6nqm2m9m84v9l,31q0u3wydtsa961fgxajq2kf6qa71g,pIWabIlE,2020-0188,2021-10-31,01:40:22,03:17:41,NA,incomplete,true,NA,true,NA,0,1,NA,NA,NA,left,NA,NA,NA,present,NA,NA,n_l_059.jpg,orange,n_s_085.jpg,orange,within,NA,NaN,NA,NA,NA,NA,left,5781,1,0,4635.5
pIWabIlE,3z33ic0jd3zsmh7cb6nqm2m9m84v9l,31q0u3wydtsa961fgxajq2kf6qa71g,pIWabIlE,2020-0188,2021-10-31,01:40:22,03:17:41,NA,incomplete,true,NA,true,NA,0,2,NA,NA,NA,right,NA,NA,NA,present,NA,NA,n_s_080.jpg,blue,m_l_091.jpg,blue,within,NA,NaN,NA,NA,NA,NA,right,5238,1,1,1802.699999988079
pIWabIlE,3z33ic0jd3zsmh7cb6nqm2m9m84v9l,31q0u3wydtsa961fgxajq2kf6qa71g,pIWabIlE,2020-0188,2021-10-31,01:40:22,03:17:41,NA,incomplete,true,NA,true,NA,0,3,NA,NA,NA,right,NA,NA,NA,present,NA,NA,n_s_095.jpg,red,n_s_014.jpg,red,within,NA,NaN,NA,NA,NA,NA,left,7500.399999976158,0,1,1899.8999999761581
pIWabIlE,3z33ic0jd3zsmh7cb6nqm2m9m84v9l,31q0u3wydtsa961fgxajq2kf6qa71g,pIWabIlE,2020-0188,2021-10-31,01:40:22,03:17:41,NA,incomplete,true,NA,true,NA,0,4,NA,NA,NA,left,NA,NA,NA,present,NA,NA,m_l_083.jpg,white,m_s_070.jpg,white,within,NA,NaN,NA,NA,NA,NA,right,3812.399999976158,0,0,4683.699999988079
pIWabIlE,3z33ic0jd3zsmh7cb6nqm2m9m84v9l,31q0u3wydtsa961fgxajq2kf6qa71g,pIWabIlE,2020-0188,2021-10-31,01:40:22,03:17:41,NA,incomplete,true,NA,true,NA,0,5,NA,NA,NA,right,NA,NA,NA,present,NA,NA,n_l_027.jpg,gray,n_s_071.jpg,orange,between,NA,NaN,NA,NA,NA,NA,right,6875.100000023842,1,2,1852.3999999761581
pIWabIlE,3z33ic0jd3zsmh7cb6nqm2m9m84v9l,31q0u3wydtsa961fgxajq2kf6qa71g,pIWabIlE,2020-0188,2021-10-31,01:40:22,03:17:41,NA,incomplete,true,NA,true,NA,0,6,NA,NA,NA,right,NA,NA,NA,present,NA,NA,n_s_024.jpg,yellow,m_l_034.jpg,gray,between,NA,NaN,NA,NA,NA,NA,right,6235.800000011921,1,2,1846.5
pIWabIlE,3z33ic0jd3zsmh7cb6nqm2m9m84v9l,31q0u3wydtsa961fgxajq2kf6qa71g,pIWabIlE,2020-0188,2021-10-31,01:40:22,03:17:41,NA,incomplete,true,NA,true,NA,0,7,NA,NA,NA,left,NA,NA,NA,present,NA,NA,m_l_016.jpg,gray,m_s_056.jpg,gray,within,NA,NaN,NA,NA,NA,NA,left,8082.100000023842,1,0,2612.7000000476837
pIWabIlE,3z33ic0jd3zsmh7cb6nqm2m9m84v9l,31q0u3wydtsa961fgxajq2kf6qa71g,pIWabIlE,2020-0188,2021-10-31,01:40:22,03:17:41,NA,incomplete,true,NA,true,NA,0,8,NA,NA,NA,left,NA,NA,NA,present,NA,NA,n_l_082.jpg,white,n_s_048.jpg,blue,between,NA,NaN,NA,NA,NA,NA,right,7317.199999988079,0,3,4906.300000011921
pIWabIlE,3z33ic0jd3zsmh7cb6nqm2m9m84v9l,31q0u3wydtsa961fgxajq2kf6qa71g,pIWabIlE,2020-0188,2021-10-31,01:40:22,03:17:41,NA,incomplete,true,NA,true,NA,0,9,NA,NA,NA,left,NA,NA,NA,present,NA,NA,m_s_007.jpg,blue,n_l_036.jpg,red,between,NA,NaN,NA,NA,NA,NA,left,8100.5,1,3,3835.699999988079
pIWabIlE,3z33ic0jd3zsmh7cb6nqm2m9m84v9l,31q0u3wydtsa961fgxajq2kf6qa71g,pIWabIlE,2020-0188,2021-10-31,01:40:22,03:17:41,NA,incomplete,true,NA,true,NA,0,10,NA,NA,NA,right,NA,NA,NA,present,NA,NA,m_s_017.jpg,yellow,n_l_038.jpg,yellow,within,NA,NaN,NA,NA,NA,NA,right,5940.399999976158,1,0,2547.800000011921
pIWabIlE,3z33ic0jd3zsmh7cb6nqm2m9m84v9l,31q0u3wydtsa961fgxajq2kf6qa71g,pIWabIlE,2020-0188,2021-10-31,01:40:22,03:17:41,NA,incomplete,false,true,NA,NA,1,0,NA,yellow,n_s_033.jpg,NA,NA,NA,NA,NA,pleasant,unpleasant,NA,NA,NA,NA,NA,left,2810.69999998808,true,NA,NA,NA,NA,NA,NA,NA,NA
pIWabIlE,3z33ic0jd3zsmh7cb6nqm2m9m84v9l,31q0u3wydtsa961fgxajq2kf6qa71g,pIWabIlE,2020-0188,2021-10-31,01:40:22,03:17:41,NA,incomplete,false,true,NA,NA,1,1,NA,yellow,m_l_056.jpg,NA,NA,NA,NA,NA,unpleasant,pleasant,NA,NA,NA,NA,NA,right,1983.69999998808,true,NA,NA,NA,NA,NA,NA,NA,NA
pIWabIlE,3z33ic0jd3zsmh7cb6nqm2m9m84v9l,31q0u3wydtsa961fgxajq2kf6qa71g,pIWabIlE,2020-0188,2021-10-31,01:40:22,03:17:41,NA,incomplete,false,true,NA,NA,1,2,NA,yellow,m_s_094.jpg,NA,NA,NA,NA,NA,unpleasant,pleasant,NA,NA,NA,NA,NA,right,1905.39999997616,true,NA,NA,NA,NA,NA,NA,NA,NA
pIWabIlE,3z33ic0jd3zsmh7cb6nqm2m9m84v9l,31q0u3wydtsa961fgxajq2kf6qa71g,pIWabIlE,2020-0188,2021-10-31,01:40:22,03:17:41,NA,incomplete,false,true,NA,NA,1,3,NA,yellow,n_s_032.jpg,NA,NA,NA,NA,NA,unpleasant,pleasant,NA,NA,NA,NA,NA,right,1153.69999998808,true,NA,NA,NA,NA,NA,NA,NA,NA
pIWabIlE,3z33ic0jd3zsmh7cb6nqm2m9m84v9l,31q0u3wydtsa961fgxajq2kf6qa71g,pIWabIlE,2020-0188,2021-10-31,01:40:22,03:17:41,NA,incomplete,false,true,NA,NA,1,4,NA,yellow,n_s_017.jpg,NA,NA,NA,NA,NA,pleasant,unpleasant,NA,NA,NA,NA,NA,left,1414.60000002384,true,NA,NA,NA,NA,NA,NA,NA,NA
pIWabIlE,3z33ic0jd3zsmh7cb6nqm2m9m84v9l,31q0u3wydtsa961fgxajq2kf6qa71g,pIWabIlE,2020-0188,2021-10-31,01:40:22,03:17:41,NA,incomplete,false,true,NA,NA,1,5,NA,yellow,m_l_037.jpg,NA,NA,NA,NA,NA,pleasant,unpleasant,NA,NA,NA,NA,NA,left,1339.89999997616,true,NA,NA,NA,NA,NA,NA,NA,NA
pIWabIlE,3z33ic0jd3zsmh7cb6nqm2m9m84v9l,31q0u3wydtsa961fgxajq2kf6qa71g,pIWabIlE,2020-0188,2021-10-31,01:40:22,03:17:41,NA,incomplete,false,true,NA,NA,1,6,NA,black,m_l_053.jpg,NA,NA,NA,NA,NA,unpleasant,pleasant,NA,NA,NA,NA,NA,right,1631.09999996424,true,NA,NA,NA,NA,NA,NA,NA,NA
pIWabIlE,3z33ic0jd3zsmh7cb6nqm2m9m84v9l,31q0u3wydtsa961fgxajq2kf6qa71g,pIWabIlE,2020-0188,2021-10-31,01:40:22,03:17:41,NA,incomplete,false,true,NA,NA,1,7,NA,black,m_s_044.jpg,NA,NA,NA,NA,NA,pleasant,unpleasant,NA,NA,NA,NA,NA,left,1363.19999998808,true,NA,NA,NA,NA,NA,NA,NA,NA
pIWabIlE,3z33ic0jd3zsmh7cb6nqm2m9m84v9l,31q0u3wydtsa961fgxajq2kf6qa71g,pIWabIlE,2020-0188,2021-10-31,01:40:22,03:17:41,NA,incomplete,false,true,NA,NA,1,8,NA,black,n_s_053.jpg,NA,NA,NA,NA,NA,unpleasant,pleasant,NA,NA,NA,NA,NA,right,1433.09999996424,true,NA,NA,NA,NA,NA,NA,NA,NA
pIWabIlE,3z33ic0jd3zsmh7cb6nqm2m9m84v9l,31q0u3wydtsa961fgxajq2kf6qa71g,pIWabIlE,2020-0188,2021-10-31,01:40:22,03:17:41,NA,incomplete,false,true,NA,NA,1,9,NA,black,n_l_076.jpg,NA,NA,NA,NA,NA,pleasant,unpleasant,NA,NA,NA,NA,NA,left,1667.19999998808,true,NA,NA,NA,NA,NA,NA,NA,NA
pIWabIlE,3z33ic0jd3zsmh7cb6nqm2m9m84v9l,31q0u3wydtsa961fgxajq2kf6qa71g,pIWabIlE,2020-0188,2021-10-31,01:40:22,03:17:41,NA,incomplete,false,true,NA,NA,1,10,NA,black,m_s_067.jpg,NA,NA,NA,NA,NA,unpleasant,pleasant,NA,NA,NA,NA,NA,right,1930,true,NA,NA,NA,NA,NA,NA,NA,NA
pIWabIlE,3z33ic0jd3zsmh7cb6nqm2m9m84v9l,31q0u3wydtsa961fgxajq2kf6qa71g,pIWabIlE,2020-0188,2021-10-31,01:40:22,03:17:41,NA,incomplete,false,true,NA,NA,1,11,NA,black,n_l_098.jpg,NA,NA,NA,NA,NA,unpleasant,pleasant,NA,NA,NA,NA,NA,right,1208.5,true,NA,NA,NA,NA,NA,NA,NA,NA
pIWabIlE,3z33ic0jd3zsmh7cb6nqm2m9m84v9l,31q0u3wydtsa961fgxajq2kf6qa71g,pIWabIlE,2020-0188,2021-10-31,01:40:22,03:17:41,NA,incomplete,false,true,NA,NA,1,12,NA,green,m_l_010.jpg,NA,NA,NA,NA,NA,unpleasant,pleasant,NA,NA,NA,NA,NA,right,1210.19999998808,true,NA,NA,NA,NA,NA,NA,NA,NA
pIWabIlE,3z33ic0jd3zsmh7cb6nqm2m9m84v9l,31q0u3wydtsa961fgxajq2kf6qa71g,pIWabIlE,2020-0188,2021-10-31,01:40:22,03:17:41,NA,incomplete,false,true,NA,NA,1,13,NA,green,n_s_051.jpg,NA,NA,NA,NA,NA,pleasant,unpleasant,NA,NA,NA,NA,NA,right,984.100000023842,true,NA,NA,NA,NA,NA,NA,NA,NA
pIWabIlE,3z33ic0jd3zsmh7cb6nqm2m9m84v9l,31q0u3wydtsa961fgxajq2kf6qa71g,pIWabIlE,2020-0188,2021-10-31,01:40:22,03:17:41,NA,incomplete,false,true,NA,NA,1,14,NA,green,n_s_016.jpg,NA,NA,NA,NA,NA,pleasant,unpleasant,NA,NA,NA,NA,NA,left,1238.60000002384,true,NA,NA,NA,NA,NA,NA,NA,NA
pIWabIlE,3z33ic0jd3zsmh7cb6nqm2m9m84v9l,31q0u3wydtsa961fgxajq2kf6qa71g,pIWabIlE,2020-0188,2021-10-31,01:40:22,03:17:41,NA,incomplete,false,true,NA,NA,1,15,NA,green,m_l_103.jpg,NA,NA,NA,NA,NA,unpleasant,pleasant,NA,NA,NA,NA,NA,right,1193,true,NA,NA,NA,NA,NA,NA,NA,NA
pIWabIlE,3z33ic0jd3zsmh7cb6nqm2m9m84v9l,31q0u3wydtsa961fgxajq2kf6qa71g,pIWabIlE,2020-0188,2021-10-31,01:40:22,03:17:41,NA,incomplete,false,true,NA,NA,1,16,NA,green,m_s_030.jpg,NA,NA,NA,NA,NA,pleasant,unpleasant,NA,NA,NA,NA,NA,left,1133.59999996424,true,NA,NA,NA,NA,NA,NA,NA,NA
pIWabIlE,3z33ic0jd3zsmh7cb6nqm2m9m84v9l,31q0u3wydtsa961fgxajq2kf6qa71g,pIWabIlE,2020-0188,2021-10-31,01:40:22,03:17:41,NA,incomplete,false,true,NA,NA,1,17,NA,green,n_s_036.jpg,NA,NA,NA,NA,NA,pleasant,unpleasant,NA,NA,NA,NA,NA,left,1332,true,NA,NA,NA,NA,NA,NA,NA,NA
pIWabIlE,3z33ic0jd3zsmh7cb6nqm2m9m84v9l,31q0u3wydtsa961fgxajq2kf6qa71g,pIWabIlE,2020-0188,2021-10-31,01:40:22,03:17:41,NA,incomplete,false,true,NA,NA,1,18,NA,gray,n_l_015.jpg,NA,NA,NA,NA,NA,unpleasant,pleasant,NA,NA,NA,NA,NA,right,2357.5,true,NA,NA,NA,NA,NA,NA,NA,NA
pIWabIlE,3z33ic0jd3zsmh7cb6nqm2m9m84v9l,31q0u3wydtsa961fgxajq2kf6qa71g,pIWabIlE,2020-0188,2021-10-31,01:40:22,03:17:41,NA,incomplete,false,true,NA,NA,1,19,NA,gray,n_l_042.jpg,NA,NA,NA,NA,NA,pleasant,unpleasant,NA,NA,NA,NA,NA,left,1538.39999997616,true,NA,NA,NA,NA,NA,NA,NA,NA
pIWabIlE,3z33ic0jd3zsmh7cb6nqm2m9m84v9l,31q0u3wydtsa961fgxajq2kf6qa71g,pIWabIlE,2020-0188,2021-10-31,01:40:22,03:17:41,NA,incomplete,false,true,NA,NA,1,20,NA,gray,n_l_089.jpg,NA,NA,NA,NA,NA,unpleasant,pleasant,NA,NA,NA,NA,NA,right,1265.30000001192,true,NA,NA,NA,NA,NA,NA,NA,NA
pIWabIlE,3z33ic0jd3zsmh7cb6nqm2m9m84v9l,31q0u3wydtsa961fgxajq2kf6qa71g,pIWabIlE,2020-0188,2021-10-31,01:40:22,03:17:41,NA,incomplete,false,true,NA,NA,1,21,NA,gray,n_s_006.jpg,NA,NA,NA,NA,NA,pleasant,unpleasant,NA,NA,NA,NA,NA,left,1123.69999998808,true,NA,NA,NA,NA,NA,NA,NA,NA
pIWabIlE,3z33ic0jd3zsmh7cb6nqm2m9m84v9l,31q0u3wydtsa961fgxajq2kf6qa71g,pIWabIlE,2020-0188,2021-10-31,01:40:22,03:17:41,NA,incomplete,false,true,NA,NA,1,22,NA,gray,m_l_044.jpg,NA,NA,NA,NA,NA,unpleasant,pleasant,NA,NA,NA,NA,NA,right,1352.69999998808,true,NA,NA,NA,NA,NA,NA,NA,NA
pIWabIlE,3z33ic0jd3zsmh7cb6nqm2m9m84v9l,31q0u3wydtsa961fgxajq2kf6qa71g,pIWabIlE,2020-0188,2021-10-31,01:40:22,03:17:41,NA,incomplete,false,true,NA,NA,1,23,NA,gray,m_l_117.jpg,NA,NA,NA,NA,NA,unpleasant,pleasant,NA,NA,NA,NA,NA,right,1141.19999998808,true,NA,NA,NA,NA,NA,NA,NA,NA
pIWabIlE,3z33ic0jd3zsmh7cb6nqm2m9m84v9l,31q0u3wydtsa961fgxajq2kf6qa71g,pIWabIlE,2020-0188,2021-10-31,01:40:22,03:17:41,NA,incomplete,false,true,NA,NA,1,24,NA,purple,n_s_047.jpg,NA,NA,NA,NA,NA,pleasant,unpleasant,NA,NA,NA,NA,NA,left,1344.30000001192,true,NA,NA,NA,NA,NA,NA,NA,NA
pIWabIlE,3z33ic0jd3zsmh7cb6nqm2m9m84v9l,31q0u3wydtsa961fgxajq2kf6qa71g,pIWabIlE,2020-0188,2021-10-31,01:40:22,03:17:41,NA,incomplete,false,true,NA,NA,1,25,NA,purple,m_s_059.jpg,NA,NA,NA,NA,NA,pleasant,unpleasant,NA,NA,NA,NA,NA,left,1373.60000002384,true,NA,NA,NA,NA,NA,NA,NA,NA
pIWabIlE,3z33ic0jd3zsmh7cb6nqm2m9m84v9l,31q0u3wydtsa961fgxajq2kf6qa71g,pIWabIlE,2020-0188,2021-10-31,01:40:22,03:17:41,NA,incomplete,false,true,NA,NA,1,26,NA,purple,m_s_014.jpg,NA,NA,NA,NA,NA,pleasant,unpleasant,NA,NA,NA,NA,NA,left,1098.59999996424,true,NA,NA,NA,NA,NA,NA,NA,NA
pIWabIlE,3z33ic0jd3zsmh7cb6nqm2m9m84v9l,31q0u3wydtsa961fgxajq2kf6qa71g,pIWabIlE,2020-0188,2021-10-31,01:40:22,03:17:41,NA,incomplete,false,true,NA,NA,1,27,NA,purple,m_s_004.jpg,NA,NA,NA,NA,NA,pleasant,unpleasant,NA,NA,NA,NA,NA,left,996.299999952316,true,NA,NA,NA,NA,NA,NA,NA,NA
pIWabIlE,3z33ic0jd3zsmh7cb6nqm2m9m84v9l,31q0u3wydtsa961fgxajq2kf6qa71g,pIWabIlE,2020-0188,2021-10-31,01:40:22,03:17:41,NA,incomplete,false,true,NA,NA,1,28,NA,purple,n_l_113.jpg,NA,NA,NA,NA,NA,unpleasant,pleasant,NA,NA,NA,NA,NA,left,2428,true,NA,NA,NA,NA,NA,NA,NA,NA
pIWabIlE,3z33ic0jd3zsmh7cb6nqm2m9m84v9l,31q0u3wydtsa961fgxajq2kf6qa71g,pIWabIlE,2020-0188,2021-10-31,01:40:22,03:17:41,NA,incomplete,false,true,NA,NA,1,29,NA,purple,n_s_109.jpg,NA,NA,NA,NA,NA,pleasant,unpleasant,NA,NA,NA,NA,NA,left,1694.69999998808,true,NA,NA,NA,NA,NA,NA,NA,NA
pIWabIlE,3z33ic0jd3zsmh7cb6nqm2m9m84v9l,31q0u3wydtsa961fgxajq2kf6qa71g,pIWabIlE,2020-0188,2021-10-31,01:40:22,03:17:41,NA,incomplete,false,true,NA,NA,1,30,NA,red,m_l_113.jpg,NA,NA,NA,NA,NA,unpleasant,pleasant,NA,NA,NA,NA,NA,right,1556.39999997616,true,NA,NA,NA,NA,NA,NA,NA,NA
pIWabIlE,3z33ic0jd3zsmh7cb6nqm2m9m84v9l,31q0u3wydtsa961fgxajq2kf6qa71g,pIWabIlE,2020-0188,2021-10-31,01:40:22,03:17:41,NA,incomplete,false,true,NA,NA,1,31,NA,red,m_s_028.jpg,NA,NA,NA,NA,NA,unpleasant,pleasant,NA,NA,NA,NA,NA,right,1615.5,true,NA,NA,NA,NA,NA,NA,NA,NA
pIWabIlE,3z33ic0jd3zsmh7cb6nqm2m9m84v9l,31q0u3wydtsa961fgxajq2kf6qa71g,pIWabIlE,2020-0188,2021-10-31,01:40:22,03:17:41,NA,incomplete,false,true,NA,NA,1,32,NA,red,m_l_047.jpg,NA,NA,NA,NA,NA,unpleasant,pleasant,NA,NA,NA,NA,NA,right,1884.79999995232,true,NA,NA,NA,NA,NA,NA,NA,NA
pIWabIlE,3z33ic0jd3zsmh7cb6nqm2m9m84v9l,31q0u3wydtsa961fgxajq2kf6qa71g,pIWabIlE,2020-0188,2021-10-31,01:40:22,03:17:41,NA,incomplete,false,true,NA,NA,1,33,NA,red,m_s_043.jpg,NA,NA,NA,NA,NA,unpleasant,pleasant,NA,NA,NA,NA,NA,right,1306.69999998808,true,NA,NA,NA,NA,NA,NA,NA,NA
pIWabIlE,3z33ic0jd3zsmh7cb6nqm2m9m84v9l,31q0u3wydtsa961fgxajq2kf6qa71g,pIWabIlE,2020-0188,2021-10-31,01:40:22,03:17:41,NA,incomplete,false,true,NA,NA,1,34,NA,red,n_s_035.jpg,NA,NA,NA,NA,NA,unpleasant,pleasant,NA,NA,NA,NA,NA,right,1965.59999996424,true,NA,NA,NA,NA,NA,NA,NA,NA
pIWabIlE,3z33ic0jd3zsmh7cb6nqm2m9m84v9l,31q0u3wydtsa961fgxajq2kf6qa71g,pIWabIlE,2020-0188,2021-10-31,01:40:22,03:17:41,NA,incomplete,false,true,NA,NA,1,35,NA,red,n_s_025.jpg,NA,NA,NA,NA,NA,unpleasant,pleasant,NA,NA,NA,NA,NA,right,1690.60000002384,true,NA,NA,NA,NA,NA,NA,NA,NA
pIWabIlE,3z33ic0jd3zsmh7cb6nqm2m9m84v9l,31q0u3wydtsa961fgxajq2kf6qa71g,pIWabIlE,2020-0188,2021-10-31,01:40:22,03:17:41,NA,incomplete,false,NA,NA,true,1,0,NA,NA,NA,right,n_l_042.jpg,purple,gray,NA,NA,NA,NA,NA,NA,NA,NA,NA,NaN,NA,3340.600000023842,right,1,NA,NA,NA,NA,NA
pIWabIlE,3z33ic0jd3zsmh7cb6nqm2m9m84v9l,31q0u3wydtsa961fgxajq2kf6qa71g,pIWabIlE,2020-0188,2021-10-31,01:40:22,03:17:41,NA,incomplete,false,NA,NA,true,1,1,NA,NA,NA,right,m_s_067.jpg,yellow,black,NA,NA,NA,NA,NA,NA,NA,NA,NA,NaN,NA,3475.699999988079,right,1,NA,NA,NA,NA,NA
pIWabIlE,3z33ic0jd3zsmh7cb6nqm2m9m84v9l,31q0u3wydtsa961fgxajq2kf6qa71g,pIWabIlE,2020-0188,2021-10-31,01:40:22,03:17:41,NA,incomplete,false,NA,NA,true,1,2,NA,NA,NA,left,m_l_047.jpg,red,purple,NA,NA,NA,NA,NA,NA,NA,NA,NA,NaN,NA,2348.5,left,1,NA,NA,NA,NA,NA
pIWabIlE,3z33ic0jd3zsmh7cb6nqm2m9m84v9l,31q0u3wydtsa961fgxajq2kf6qa71g,pIWabIlE,2020-0188,2021-10-31,01:40:22,03:17:41,NA,incomplete,false,NA,NA,true,1,3,NA,NA,NA,left,m_s_044.jpg,black,green,NA,NA,NA,NA,NA,NA,NA,NA,NA,NaN,NA,2211.800000011921,left,1,NA,NA,NA,NA,NA
pIWabIlE,3z33ic0jd3zsmh7cb6nqm2m9m84v9l,31q0u3wydtsa961fgxajq2kf6qa71g,pIWabIlE,2020-0188,2021-10-31,01:40:22,03:17:41,NA,incomplete,false,NA,NA,true,1,4,NA,NA,NA,left,m_l_037.jpg,yellow,black,NA,NA,NA,NA,NA,NA,NA,NA,NA,NaN,NA,4611.399999976158,left,1,NA,NA,NA,NA,NA
pIWabIlE,3z33ic0jd3zsmh7cb6nqm2m9m84v9l,31q0u3wydtsa961fgxajq2kf6qa71g,pIWabIlE,2020-0188,2021-10-31,01:40:22,03:17:41,NA,incomplete,false,NA,NA,true,1,5,NA,NA,NA,left,n_l_098.jpg,black,green,NA,NA,NA,NA,NA,NA,NA,NA,NA,NaN,NA,2228.5,left,1,NA,NA,NA,NA,NA
pIWabIlE,3z33ic0jd3zsmh7cb6nqm2m9m84v9l,31q0u3wydtsa961fgxajq2kf6qa71g,pIWabIlE,2020-0188,2021-10-31,01:40:22,03:17:41,NA,incomplete,false,NA,NA,true,1,6,NA,NA,NA,right,n_l_089.jpg,green,gray,NA,NA,NA,NA,NA,NA,NA,NA,NA,NaN,NA,2726.600000023842,right,1,NA,NA,NA,NA,NA
pIWabIlE,3z33ic0jd3zsmh7cb6nqm2m9m84v9l,31q0u3wydtsa961fgxajq2kf6qa71g,pIWabIlE,2020-0188,2021-10-31,01:40:22,03:17:41,NA,incomplete,false,NA,NA,true,1,7,NA,NA,NA,left,n_s_025.jpg,red,purple,NA,NA,NA,NA,NA,NA,NA,NA,NA,NaN,NA,2565.300000011921,left,1,NA,NA,NA,NA,NA
pIWabIlE,3z33ic0jd3zsmh7cb6nqm2m9m84v9l,31q0u3wydtsa961fgxajq2kf6qa71g,pIWabIlE,2020-0188,2021-10-31,01:40:22,03:17:41,NA,incomplete,false,NA,NA,true,1,8,NA,NA,NA,left,m_s_014.jpg,purple,red,NA,NA,NA,NA,NA,NA,NA,NA,NA,NaN,NA,3517,left,1,NA,NA,NA,NA,NA
pIWabIlE,3z33ic0jd3zsmh7cb6nqm2m9m84v9l,31q0u3wydtsa961fgxajq2kf6qa71g,pIWabIlE,2020-0188,2021-10-31,01:40:22,03:17:41,NA,incomplete,false,NA,NA,true,1,9,NA,NA,NA,left,m_s_059.jpg,purple,red,NA,NA,NA,NA,NA,NA,NA,NA,NA,NaN,NA,3374,left,1,NA,NA,NA,NA,NA
pIWabIlE,3z33ic0jd3zsmh7cb6nqm2m9m84v9l,31q0u3wydtsa961fgxajq2kf6qa71g,pIWabIlE,2020-0188,2021-10-31,01:40:22,03:17:41,NA,incomplete,false,NA,NA,true,1,10,NA,NA,NA,left,m_s_030.jpg,green,black,NA,NA,NA,NA,NA,NA,NA,NA,NA,NaN,NA,9184.900000035763,left,1,NA,NA,NA,NA,NA
pIWabIlE,3z33ic0jd3zsmh7cb6nqm2m9m84v9l,31q0u3wydtsa961fgxajq2kf6qa71g,pIWabIlE,2020-0188,2021-10-31,01:40:22,03:17:41,NA,incomplete,false,NA,NA,true,1,11,NA,NA,NA,right,m_l_056.jpg,black,yellow,NA,NA,NA,NA,NA,NA,NA,NA,NA,NaN,NA,2338.399999976158,right,1,NA,NA,NA,NA,NA
pIWabIlE,3z33ic0jd3zsmh7cb6nqm2m9m84v9l,31q0u3wydtsa961fgxajq2kf6qa71g,pIWabIlE,2020-0188,2021-10-31,01:40:22,03:17:41,NA,incomplete,false,NA,NA,true,1,12,NA,NA,NA,right,n_s_017.jpg,black,yellow,NA,NA,NA,NA,NA,NA,NA,NA,NA,NaN,NA,2285.399999976158,right,1,NA,NA,NA,NA,NA
pIWabIlE,3z33ic0jd3zsmh7cb6nqm2m9m84v9l,31q0u3wydtsa961fgxajq2kf6qa71g,pIWabIlE,2020-0188,2021-10-31,01:40:22,03:17:41,NA,incomplete,false,NA,NA,true,1,13,NA,NA,NA,right,n_s_053.jpg,green,black,NA,NA,NA,NA,NA,NA,NA,NA,NA,NaN,NA,2148.600000023842,right,1,NA,NA,NA,NA,NA
pIWabIlE,3z33ic0jd3zsmh7cb6nqm2m9m84v9l,31q0u3wydtsa961fgxajq2kf6qa71g,pIWabIlE,2020-0188,2021-10-31,01:40:22,03:17:41,NA,incomplete,false,NA,NA,true,1,14,NA,NA,NA,right,n_s_051.jpg,gray,green,NA,NA,NA,NA,NA,NA,NA,NA,NA,NaN,NA,3481.900000035763,left,0,NA,NA,NA,NA,NA
pIWabIlE,3z33ic0jd3zsmh7cb6nqm2m9m84v9l,31q0u3wydtsa961fgxajq2kf6qa71g,pIWabIlE,2020-0188,2021-10-31,01:40:22,03:17:41,NA,incomplete,false,NA,NA,true,1,15,NA,NA,NA,left,m_l_044.jpg,gray,purple,NA,NA,NA,NA,NA,NA,NA,NA,NA,NaN,NA,2276,left,1,NA,NA,NA,NA,NA
pIWabIlE,3z33ic0jd3zsmh7cb6nqm2m9m84v9l,31q0u3wydtsa961fgxajq2kf6qa71g,pIWabIlE,2020-0188,2021-10-31,01:40:22,03:17:41,NA,incomplete,false,NA,NA,true,1,16,NA,NA,NA,right,n_l_113.jpg,gray,purple,NA,NA,NA,NA,NA,NA,NA,NA,NA,NaN,NA,4755.100000023842,left,0,NA,NA,NA,NA,NA
pIWabIlE,3z33ic0jd3zsmh7cb6nqm2m9m84v9l,31q0u3wydtsa961fgxajq2kf6qa71g,pIWabIlE,2020-0188,2021-10-31,01:40:22,03:17:41,NA,incomplete,false,NA,NA,true,1,17,NA,NA,NA,left,n_s_109.jpg,purple,red,NA,NA,NA,NA,NA,NA,NA,NA,NA,NaN,NA,2631.699999988079,left,1,NA,NA,NA,NA,NA
pIWabIlE,3z33ic0jd3zsmh7cb6nqm2m9m84v9l,31q0u3wydtsa961fgxajq2kf6qa71g,pIWabIlE,2020-0188,2021-10-31,01:40:22,03:17:41,NA,incomplete,false,NA,NA,true,1,18,NA,NA,NA,left,m_s_028.jpg,red,purple,NA,NA,NA,NA,NA,NA,NA,NA,NA,NaN,NA,4131.699999988079,right,0,NA,NA,NA,NA,NA
pIWabIlE,3z33ic0jd3zsmh7cb6nqm2m9m84v9l,31q0u3wydtsa961fgxajq2kf6qa71g,pIWabIlE,2020-0188,2021-10-31,01:40:22,03:17:41,NA,incomplete,false,NA,NA,true,1,19,NA,NA,NA,right,n_s_016.jpg,black,green,NA,NA,NA,NA,NA,NA,NA,NA,NA,NaN,NA,3172.2000000476837,right,1,NA,NA,NA,NA,NA
pIWabIlE,3z33ic0jd3zsmh7cb6nqm2m9m84v9l,31q0u3wydtsa961fgxajq2kf6qa71g,pIWabIlE,2020-0188,2021-10-31,01:40:22,03:17:41,NA,incomplete,false,NA,NA,true,1,20,NA,NA,NA,right,n_s_036.jpg,black,green,NA,NA,NA,NA,NA,NA,NA,NA,NA,NaN,NA,2219.5,right,1,NA,NA,NA,NA,NA
pIWabIlE,3z33ic0jd3zsmh7cb6nqm2m9m84v9l,31q0u3wydtsa961fgxajq2kf6qa71g,pIWabIlE,2020-0188,2021-10-31,01:40:22,03:17:41,NA,incomplete,false,NA,NA,true,1,21,NA,NA,NA,left,m_l_117.jpg,gray,purple,NA,NA,NA,NA,NA,NA,NA,NA,NA,NaN,NA,2218.800000011921,left,1,NA,NA,NA,NA,NA
pIWabIlE,3z33ic0jd3zsmh7cb6nqm2m9m84v9l,31q0u3wydtsa961fgxajq2kf6qa71g,pIWabIlE,2020-0188,2021-10-31,01:40:22,03:17:41,NA,incomplete,false,NA,true,NA,1,0,NA,NA,NA,right,NA,NA,NA,present,NA,NA,n_l_089.jpg,gray,m_s_030.jpg,green,between,NA,NaN,NA,NA,NA,NA,right,7006.699999988079,1,3,1865.0999999642372
pIWabIlE,3z33ic0jd3zsmh7cb6nqm2m9m84v9l,31q0u3wydtsa961fgxajq2kf6qa71g,pIWabIlE,2020-0188,2021-10-31,01:40:22,03:17:41,NA,incomplete,false,NA,true,NA,1,1,NA,NA,NA,right,NA,NA,NA,present,NA,NA,n_s_016.jpg,green,m_s_067.jpg,black,between,NA,NaN,NA,NA,NA,NA,left,4676.700000047684,0,2,1911.800000011921
pIWabIlE,3z33ic0jd3zsmh7cb6nqm2m9m84v9l,31q0u3wydtsa961fgxajq2kf6qa71g,pIWabIlE,2020-0188,2021-10-31,01:40:22,03:17:41,NA,incomplete,false,NA,true,NA,1,2,NA,NA,NA,right,NA,NA,NA,present,NA,NA,m_s_014.jpg,purple,m_l_044.jpg,gray,between,NA,NaN,NA,NA,NA,NA,left,8256.700000047684,0,3,3878.900000035763
pIWabIlE,3z33ic0jd3zsmh7cb6nqm2m9m84v9l,31q0u3wydtsa961fgxajq2kf6qa71g,pIWabIlE,2020-0188,2021-10-31,01:40:22,03:17:41,NA,incomplete,false,NA,true,NA,1,3,NA,NA,NA,right,NA,NA,NA,present,NA,NA,m_l_037.jpg,yellow,m_l_056.jpg,yellow,within,NA,NaN,NA,NA,NA,NA,right,7045.899999976158,1,0,2577.199999988079
pIWabIlE,3z33ic0jd3zsmh7cb6nqm2m9m84v9l,31q0u3wydtsa961fgxajq2kf6qa71g,pIWabIlE,2020-0188,2021-10-31,01:40:22,03:17:41,NA,incomplete,false,NA,true,NA,1,4,NA,NA,NA,left,NA,NA,NA,present,NA,NA,n_l_113.jpg,purple,m_l_047.jpg,red,between,NA,NaN,NA,NA,NA,NA,left,8633.800000011921,1,2,2283.199999988079
pIWabIlE,3z33ic0jd3zsmh7cb6nqm2m9m84v9l,31q0u3wydtsa961fgxajq2kf6qa71g,pIWabIlE,2020-0188,2021-10-31,01:40:22,03:17:41,NA,incomplete,false,NA,true,NA,1,5,NA,NA,NA,right,NA,NA,NA,present,NA,NA,n_s_036.jpg,green,n_s_051.jpg,green,within,NA,NaN,NA,NA,NA,NA,left,6779.800000011921,0,1,3825.800000011921
pIWabIlE,3z33ic0jd3zsmh7cb6nqm2m9m84v9l,31q0u3wydtsa961fgxajq2kf6qa71g,pIWabIlE,2020-0188,2021-10-31,01:40:22,03:17:41,NA,incomplete,false,NA,true,NA,1,6,NA,NA,NA,left,NA,NA,NA,present,NA,NA,m_s_028.jpg,red,n_s_025.jpg,red,within,NA,NaN,NA,NA,NA,NA,left,4781.199999988079,1,0,3320.100000023842
pIWabIlE,3z33ic0jd3zsmh7cb6nqm2m9m84v9l,31q0u3wydtsa961fgxajq2kf6qa71g,pIWabIlE,2020-0188,2021-10-31,01:40:22,03:17:41,NA,incomplete,false,NA,true,NA,1,7,NA,NA,NA,right,NA,NA,NA,present,NA,NA,m_l_117.jpg,gray,n_l_042.jpg,gray,within,NA,NaN,NA,NA,NA,NA,right,4378.100000023842,1,1,2819.800000011921
pIWabIlE,3z33ic0jd3zsmh7cb6nqm2m9m84v9l,31q0u3wydtsa961fgxajq2kf6qa71g,pIWabIlE,2020-0188,2021-10-31,01:40:22,03:17:41,NA,incomplete,false,NA,true,NA,1,8,NA,NA,NA,left,NA,NA,NA,present,NA,NA,m_s_059.jpg,purple,n_s_109.jpg,purple,within,NA,NaN,NA,NA,NA,NA,left,4742.899999976158,1,1,3291.899999976158
pIWabIlE,3z33ic0jd3zsmh7cb6nqm2m9m84v9l,31q0u3wydtsa961fgxajq2kf6qa71g,pIWabIlE,2020-0188,2021-10-31,01:40:22,03:17:41,NA,incomplete,false,NA,true,NA,1,9,NA,NA,NA,left,NA,NA,NA,present,NA,NA,n_s_017.jpg,yellow,n_s_053.jpg,black,between,NA,NaN,NA,NA,NA,NA,left,4859.100000023842,1,3,5237
pIWabIlE,3z33ic0jd3zsmh7cb6nqm2m9m84v9l,31q0u3wydtsa961fgxajq2kf6qa71g,pIWabIlE,2020-0188,2021-10-31,01:40:22,03:17:41,NA,incomplete,false,NA,true,NA,1,10,NA,NA,NA,left,NA,NA,NA,present,NA,NA,m_s_044.jpg,black,n_l_098.jpg,black,within,NA,NaN,NA,NA,NA,NA,left,6963.700000047684,1,0,3804.100000023842
pIWabIlE,3z33ic0jd3zsmh7cb6nqm2m9m84v9l,31q0u3wydtsa961fgxajq2kf6qa71g,pIWabIlE,2020-0188,2021-10-31,01:40:22,03:17:41,NA,incomplete,false,true,NA,NA,2,0,NA,white,m_s_098.jpg,NA,NA,NA,NA,NA,unpleasant,pleasant,NA,NA,NA,NA,NA,none,0,false,NA,NA,NA,NA,NA,NA,NA,NA
pIWabIlE,3z33ic0jd3zsmh7cb6nqm2m9m84v9l,31q0u3wydtsa961fgxajq2kf6qa71g,pIWabIlE,2020-0188,2021-10-31,01:40:22,03:17:41,NA,incomplete,false,true,NA,NA,2,1,NA,white,n_s_111.jpg,NA,NA,NA,NA,NA,unpleasant,pleasant,NA,NA,NA,NA,NA,right,2248.30000001192,true,NA,NA,NA,NA,NA,NA,NA,NA
pIWabIlE,3z33ic0jd3zsmh7cb6nqm2m9m84v9l,31q0u3wydtsa961fgxajq2kf6qa71g,pIWabIlE,2020-0188,2021-10-31,01:40:22,03:17:41,NA,incomplete,false,true,NA,NA,2,2,NA,white,m_l_087.jpg,NA,NA,NA,NA,NA,unpleasant,pleasant,NA,NA,NA,NA,NA,right,1240,true,NA,NA,NA,NA,NA,NA,NA,NA
pIWabIlE,3z33ic0jd3zsmh7cb6nqm2m9m84v9l,31q0u3wydtsa961fgxajq2kf6qa71g,pIWabIlE,2020-0188,2021-10-31,01:40:22,03:17:41,NA,incomplete,false,true,NA,NA,2,3,NA,white,n_l_069.jpg,NA,NA,NA,NA,NA,pleasant,unpleasant,NA,NA,NA,NA,NA,left,1306.10000002384,true,NA,NA,NA,NA,NA,NA,NA,NA
pIWabIlE,3z33ic0jd3zsmh7cb6nqm2m9m84v9l,31q0u3wydtsa961fgxajq2kf6qa71g,pIWabIlE,2020-0188,2021-10-31,01:40:22,03:17:41,NA,incomplete,false,true,NA,NA,2,4,NA,white,m_l_018.jpg,NA,NA,NA,NA,NA,unpleasant,pleasant,NA,NA,NA,NA,NA,right,1469.20000004768,true,NA,NA,NA,NA,NA,NA,NA,NA
pIWabIlE,3z33ic0jd3zsmh7cb6nqm2m9m84v9l,31q0u3wydtsa961fgxajq2kf6qa71g,pIWabIlE,2020-0188,2021-10-31,01:40:22,03:17:41,NA,incomplete,false,true,NA,NA,2,5,NA,white,m_l_019.jpg,NA,NA,NA,NA,NA,pleasant,unpleasant,NA,NA,NA,NA,NA,left,1563.30000001192,true,NA,NA,NA,NA,NA,NA,NA,NA
pIWabIlE,3z33ic0jd3zsmh7cb6nqm2m9m84v9l,31q0u3wydtsa961fgxajq2kf6qa71g,pIWabIlE,2020-0188,2021-10-31,01:40:22,03:17:41,NA,incomplete,false,true,NA,NA,2,6,NA,red,n_l_112.jpg,NA,NA,NA,NA,NA,pleasant,unpleasant,NA,NA,NA,NA,NA,left,1304.30000001192,true,NA,NA,NA,NA,NA,NA,NA,NA
pIWabIlE,3z33ic0jd3zsmh7cb6nqm2m9m84v9l,31q0u3wydtsa961fgxajq2kf6qa71g,pIWabIlE,2020-0188,2021-10-31,01:40:22,03:17:41,NA,incomplete,false,true,NA,NA,2,7,NA,red,n_l_029.jpg,NA,NA,NA,NA,NA,pleasant,unpleasant,NA,NA,NA,NA,NA,left,1091.30000001192,true,NA,NA,NA,NA,NA,NA,NA,NA
pIWabIlE,3z33ic0jd3zsmh7cb6nqm2m9m84v9l,31q0u3wydtsa961fgxajq2kf6qa71g,pIWabIlE,2020-0188,2021-10-31,01:40:22,03:17:41,NA,incomplete,false,true,NA,NA,2,8,NA,red,m_s_058.jpg,NA,NA,NA,NA,NA,pleasant,unpleasant,NA,NA,NA,NA,NA,left,1416.69999998808,true,NA,NA,NA,NA,NA,NA,NA,NA
pIWabIlE,3z33ic0jd3zsmh7cb6nqm2m9m84v9l,31q0u3wydtsa961fgxajq2kf6qa71g,pIWabIlE,2020-0188,2021-10-31,01:40:22,03:17:41,NA,incomplete,false,true,NA,NA,2,9,NA,red,m_l_015.jpg,NA,NA,NA,NA,NA,unpleasant,pleasant,NA,NA,NA,NA,NA,right,1443.60000002384,true,NA,NA,NA,NA,NA,NA,NA,NA
pIWabIlE,3z33ic0jd3zsmh7cb6nqm2m9m84v9l,31q0u3wydtsa961fgxajq2kf6qa71g,pIWabIlE,2020-0188,2021-10-31,01:40:22,03:17:41,NA,incomplete,false,true,NA,NA,2,10,NA,red,m_s_071.jpg,NA,NA,NA,NA,NA,pleasant,unpleasant,NA,NA,NA,NA,NA,left,1512.89999997616,true,NA,NA,NA,NA,NA,NA,NA,NA
pIWabIlE,3z33ic0jd3zsmh7cb6nqm2m9m84v9l,31q0u3wydtsa961fgxajq2kf6qa71g,pIWabIlE,2020-0188,2021-10-31,01:40:22,03:17:41,NA,incomplete,false,true,NA,NA,2,11,NA,red,m_l_057.jpg,NA,NA,NA,NA,NA,unpleasant,pleasant,NA,NA,NA,NA,NA,right,1774.79999995232,true,NA,NA,NA,NA,NA,NA,NA,NA
pIWabIlE,3z33ic0jd3zsmh7cb6nqm2m9m84v9l,31q0u3wydtsa961fgxajq2kf6qa71g,pIWabIlE,2020-0188,2021-10-31,01:40:22,03:17:41,NA,incomplete,false,true,NA,NA,2,12,NA,black,n_l_020.jpg,NA,NA,NA,NA,NA,pleasant,unpleasant,NA,NA,NA,NA,NA,left,1920.80000001192,true,NA,NA,NA,NA,NA,NA,NA,NA
pIWabIlE,3z33ic0jd3zsmh7cb6nqm2m9m84v9l,31q0u3wydtsa961fgxajq2kf6qa71g,pIWabIlE,2020-0188,2021-10-31,01:40:22,03:17:41,NA,incomplete,false,true,NA,NA,2,13,NA,black,m_s_031.jpg,NA,NA,NA,NA,NA,pleasant,unpleasant,NA,NA,NA,NA,NA,left,2197.29999995232,true,NA,NA,NA,NA,NA,NA,NA,NA
pIWabIlE,3z33ic0jd3zsmh7cb6nqm2m9m84v9l,31q0u3wydtsa961fgxajq2kf6qa71g,pIWabIlE,2020-0188,2021-10-31,01:40:22,03:17:41,NA,incomplete,false,true,NA,NA,2,14,NA,black,m_s_087.jpg,NA,NA,NA,NA,NA,pleasant,unpleasant,NA,NA,NA,NA,NA,left,1595.5,true,NA,NA,NA,NA,NA,NA,NA,NA
pIWabIlE,3z33ic0jd3zsmh7cb6nqm2m9m84v9l,31q0u3wydtsa961fgxajq2kf6qa71g,pIWabIlE,2020-0188,2021-10-31,01:40:22,03:17:41,NA,incomplete,false,true,NA,NA,2,15,NA,black,n_l_055.jpg,NA,NA,NA,NA,NA,pleasant,unpleasant,NA,NA,NA,NA,NA,left,1262.79999995232,true,NA,NA,NA,NA,NA,NA,NA,NA
pIWabIlE,3z33ic0jd3zsmh7cb6nqm2m9m84v9l,31q0u3wydtsa961fgxajq2kf6qa71g,pIWabIlE,2020-0188,2021-10-31,01:40:22,03:17:41,NA,incomplete,false,true,NA,NA,2,16,NA,black,n_l_041.jpg,NA,NA,NA,NA,NA,pleasant,unpleasant,NA,NA,NA,NA,NA,left,1738.80000001192,true,NA,NA,NA,NA,NA,NA,NA,NA
pIWabIlE,3z33ic0jd3zsmh7cb6nqm2m9m84v9l,31q0u3wydtsa961fgxajq2kf6qa71g,pIWabIlE,2020-0188,2021-10-31,01:40:22,03:17:41,NA,incomplete,false,true,NA,NA,2,17,NA,black,n_l_039.jpg,NA,NA,NA,NA,NA,pleasant,unpleasant,NA,NA,NA,NA,NA,left,1848.60000002384,true,NA,NA,NA,NA,NA,NA,NA,NA
pIWabIlE,3z33ic0jd3zsmh7cb6nqm2m9m84v9l,31q0u3wydtsa961fgxajq2kf6qa71g,pIWabIlE,2020-0188,2021-10-31,01:40:22,03:17:41,NA,incomplete,false,true,NA,NA,2,18,NA,orange,n_s_042.jpg,NA,NA,NA,NA,NA,unpleasant,pleasant,NA,NA,NA,NA,NA,right,2573.29999995232,true,NA,NA,NA,NA,NA,NA,NA,NA
pIWabIlE,3z33ic0jd3zsmh7cb6nqm2m9m84v9l,31q0u3wydtsa961fgxajq2kf6qa71g,pIWabIlE,2020-0188,2021-10-31,01:40:22,03:17:41,NA,incomplete,false,true,NA,NA,2,19,NA,orange,n_s_038.jpg,NA,NA,NA,NA,NA,pleasant,unpleasant,NA,NA,NA,NA,NA,left,1576.30000001192,true,NA,NA,NA,NA,NA,NA,NA,NA
pIWabIlE,3z33ic0jd3zsmh7cb6nqm2m9m84v9l,31q0u3wydtsa961fgxajq2kf6qa71g,pIWabIlE,2020-0188,2021-10-31,01:40:22,03:17:41,NA,incomplete,false,true,NA,NA,2,20,NA,orange,m_l_112.jpg,NA,NA,NA,NA,NA,unpleasant,pleasant,NA,NA,NA,NA,NA,right,1260.89999997616,true,NA,NA,NA,NA,NA,NA,NA,NA
pIWabIlE,3z33ic0jd3zsmh7cb6nqm2m9m84v9l,31q0u3wydtsa961fgxajq2kf6qa71g,pIWabIlE,2020-0188,2021-10-31,01:40:22,03:17:41,NA,incomplete,false,true,NA,NA,2,21,NA,orange,n_l_081.jpg,NA,NA,NA,NA,NA,unpleasant,pleasant,NA,NA,NA,NA,NA,right,1722.40000003576,true,NA,NA,NA,NA,NA,NA,NA,NA
pIWabIlE,3z33ic0jd3zsmh7cb6nqm2m9m84v9l,31q0u3wydtsa961fgxajq2kf6qa71g,pIWabIlE,2020-0188,2021-10-31,01:40:22,03:17:41,NA,incomplete,false,true,NA,NA,2,22,NA,orange,m_s_068.jpg,NA,NA,NA,NA,NA,unpleasant,pleasant,NA,NA,NA,NA,NA,right,1860.70000004768,true,NA,NA,NA,NA,NA,NA,NA,NA
pIWabIlE,3z33ic0jd3zsmh7cb6nqm2m9m84v9l,31q0u3wydtsa961fgxajq2kf6qa71g,pIWabIlE,2020-0188,2021-10-31,01:40:22,03:17:41,NA,incomplete,false,true,NA,NA,2,23,NA,orange,m_s_086.jpg,NA,NA,NA,NA,NA,unpleasant,pleasant,NA,NA,NA,NA,NA,right,2459,true,NA,NA,NA,NA,NA,NA,NA,NA
pIWabIlE,3z33ic0jd3zsmh7cb6nqm2m9m84v9l,31q0u3wydtsa961fgxajq2kf6qa71g,pIWabIlE,2020-0188,2021-10-31,01:40:22,03:17:41,NA,incomplete,false,true,NA,NA,2,24,NA,brown,n_l_100.jpg,NA,NA,NA,NA,NA,unpleasant,pleasant,NA,NA,NA,NA,NA,right,2157.89999997616,true,NA,NA,NA,NA,NA,NA,NA,NA
pIWabIlE,3z33ic0jd3zsmh7cb6nqm2m9m84v9l,31q0u3wydtsa961fgxajq2kf6qa71g,pIWabIlE,2020-0188,2021-10-31,01:40:22,03:17:41,NA,incomplete,false,true,NA,NA,2,25,NA,brown,n_l_091.jpg,NA,NA,NA,NA,NA,pleasant,unpleasant,NA,NA,NA,NA,NA,left,1603.5,true,NA,NA,NA,NA,NA,NA,NA,NA
pIWabIlE,3z33ic0jd3zsmh7cb6nqm2m9m84v9l,31q0u3wydtsa961fgxajq2kf6qa71g,pIWabIlE,2020-0188,2021-10-31,01:40:22,03:17:41,NA,incomplete,false,true,NA,NA,2,26,NA,brown,n_s_052.jpg,NA,NA,NA,NA,NA,pleasant,unpleasant,NA,NA,NA,NA,NA,left,1072.60000002384,true,NA,NA,NA,NA,NA,NA,NA,NA
pIWabIlE,3z33ic0jd3zsmh7cb6nqm2m9m84v9l,31q0u3wydtsa961fgxajq2kf6qa71g,pIWabIlE,2020-0188,2021-10-31,01:40:22,03:17:41,NA,incomplete,false,true,NA,NA,2,27,NA,brown,m_s_089.jpg,NA,NA,NA,NA,NA,unpleasant,pleasant,NA,NA,NA,NA,NA,right,1275.39999997616,true,NA,NA,NA,NA,NA,NA,NA,NA
pIWabIlE,3z33ic0jd3zsmh7cb6nqm2m9m84v9l,31q0u3wydtsa961fgxajq2kf6qa71g,pIWabIlE,2020-0188,2021-10-31,01:40:22,03:17:41,NA,incomplete,false,true,NA,NA,2,28,NA,brown,m_l_095.jpg,NA,NA,NA,NA,NA,pleasant,unpleasant,NA,NA,NA,NA,NA,left,1206.5,true,NA,NA,NA,NA,NA,NA,NA,NA
pIWabIlE,3z33ic0jd3zsmh7cb6nqm2m9m84v9l,31q0u3wydtsa961fgxajq2kf6qa71g,pIWabIlE,2020-0188,2021-10-31,01:40:22,03:17:41,NA,incomplete,false,true,NA,NA,2,29,NA,brown,n_l_108.jpg,NA,NA,NA,NA,NA,unpleasant,pleasant,NA,NA,NA,NA,NA,right,1045.60000002384,true,NA,NA,NA,NA,NA,NA,NA,NA
pIWabIlE,3z33ic0jd3zsmh7cb6nqm2m9m84v9l,31q0u3wydtsa961fgxajq2kf6qa71g,pIWabIlE,2020-0188,2021-10-31,01:40:22,03:17:41,NA,incomplete,false,true,NA,NA,2,30,NA,green,m_l_048.jpg,NA,NA,NA,NA,NA,unpleasant,pleasant,NA,NA,NA,NA,NA,right,2072.69999998808,true,NA,NA,NA,NA,NA,NA,NA,NA
pIWabIlE,3z33ic0jd3zsmh7cb6nqm2m9m84v9l,31q0u3wydtsa961fgxajq2kf6qa71g,pIWabIlE,2020-0188,2021-10-31,01:40:22,03:17:41,NA,incomplete,false,true,NA,NA,2,31,NA,green,m_s_048.jpg,NA,NA,NA,NA,NA,pleasant,unpleasant,NA,NA,NA,NA,NA,left,1406.09999996424,true,NA,NA,NA,NA,NA,NA,NA,NA
pIWabIlE,3z33ic0jd3zsmh7cb6nqm2m9m84v9l,31q0u3wydtsa961fgxajq2kf6qa71g,pIWabIlE,2020-0188,2021-10-31,01:40:22,03:17:41,NA,incomplete,false,true,NA,NA,2,32,NA,green,m_s_032.jpg,NA,NA,NA,NA,NA,unpleasant,pleasant,NA,NA,NA,NA,NA,right,1338.59999996424,true,NA,NA,NA,NA,NA,NA,NA,NA
pIWabIlE,3z33ic0jd3zsmh7cb6nqm2m9m84v9l,31q0u3wydtsa961fgxajq2kf6qa71g,pIWabIlE,2020-0188,2021-10-31,01:40:22,03:17:41,NA,incomplete,false,true,NA,NA,2,33,NA,green,m_s_072.jpg,NA,NA,NA,NA,NA,pleasant,unpleasant,NA,NA,NA,NA,NA,left,1365.40000003576,true,NA,NA,NA,NA,NA,NA,NA,NA
pIWabIlE,3z33ic0jd3zsmh7cb6nqm2m9m84v9l,31q0u3wydtsa961fgxajq2kf6qa71g,pIWabIlE,2020-0188,2021-10-31,01:40:22,03:17:41,NA,incomplete,false,true,NA,NA,2,34,NA,green,n_s_116.jpg,NA,NA,NA,NA,NA,pleasant,unpleasant,NA,NA,NA,NA,NA,left,1632.80000001192,true,NA,NA,NA,NA,NA,NA,NA,NA
pIWabIlE,3z33ic0jd3zsmh7cb6nqm2m9m84v9l,31q0u3wydtsa961fgxajq2kf6qa71g,pIWabIlE,2020-0188,2021-10-31,01:40:22,03:17:41,NA,incomplete,false,true,NA,NA,2,35,NA,green,m_l_082.jpg,NA,NA,NA,NA,NA,unpleasant,pleasant,NA,NA,NA,NA,NA,right,1520.70000004768,true,NA,NA,NA,NA,NA,NA,NA,NA
pIWabIlE,3z33ic0jd3zsmh7cb6nqm2m9m84v9l,31q0u3wydtsa961fgxajq2kf6qa71g,pIWabIlE,2020-0188,2021-10-31,01:40:22,03:17:41,NA,incomplete,false,NA,NA,true,2,0,NA,NA,NA,left,m_s_031.jpg,black,red,NA,NA,NA,NA,NA,NA,NA,NA,NA,NaN,NA,3002.2999999523163,left,1,NA,NA,NA,NA,NA
pIWabIlE,3z33ic0jd3zsmh7cb6nqm2m9m84v9l,31q0u3wydtsa961fgxajq2kf6qa71g,pIWabIlE,2020-0188,2021-10-31,01:40:22,03:17:41,NA,incomplete,false,NA,NA,true,2,1,NA,NA,NA,right,m_l_095.jpg,orange,brown,NA,NA,NA,NA,NA,NA,NA,NA,NA,NaN,NA,8259.199999988079,right,1,NA,NA,NA,NA,NA
pIWabIlE,3z33ic0jd3zsmh7cb6nqm2m9m84v9l,31q0u3wydtsa961fgxajq2kf6qa71g,pIWabIlE,2020-0188,2021-10-31,01:40:22,03:17:41,NA,incomplete,false,NA,NA,true,2,2,NA,NA,NA,left,n_l_091.jpg,brown,orange,NA,NA,NA,NA,NA,NA,NA,NA,NA,NaN,NA,2215.800000011921,left,1,NA,NA,NA,NA,NA
pIWabIlE,3z33ic0jd3zsmh7cb6nqm2m9m84v9l,31q0u3wydtsa961fgxajq2kf6qa71g,pIWabIlE,2020-0188,2021-10-31,01:40:22,03:17:41,NA,incomplete,false,NA,NA,true,2,3,NA,NA,NA,right,n_s_052.jpg,orange,brown,NA,NA,NA,NA,NA,NA,NA,NA,NA,NaN,NA,3725.300000011921,right,1,NA,NA,NA,NA,NA
pIWabIlE,3z33ic0jd3zsmh7cb6nqm2m9m84v9l,31q0u3wydtsa961fgxajq2kf6qa71g,pIWabIlE,2020-0188,2021-10-31,01:40:22,03:17:41,NA,incomplete,false,NA,NA,true,2,4,NA,NA,NA,right,m_s_032.jpg,brown,green,NA,NA,NA,NA,NA,NA,NA,NA,NA,NaN,NA,6805.199999988079,right,1,NA,NA,NA,NA,NA
pIWabIlE,3z33ic0jd3zsmh7cb6nqm2m9m84v9l,31q0u3wydtsa961fgxajq2kf6qa71g,pIWabIlE,2020-0188,2021-10-31,01:40:22,03:17:41,NA,incomplete,false,NA,NA,true,2,5,NA,NA,NA,left,m_l_019.jpg,white,red,NA,NA,NA,NA,NA,NA,NA,NA,NA,NaN,NA,2577.5,left,1,NA,NA,NA,NA,NA
pIWabIlE,3z33ic0jd3zsmh7cb6nqm2m9m84v9l,31q0u3wydtsa961fgxajq2kf6qa71g,pIWabIlE,2020-0188,2021-10-31,01:40:22,03:17:41,NA,incomplete,false,NA,NA,true,2,6,NA,NA,NA,left,m_s_071.jpg,red,white,NA,NA,NA,NA,NA,NA,NA,NA,NA,NaN,NA,2245.399999976158,left,1,NA,NA,NA,NA,NA
pIWabIlE,3z33ic0jd3zsmh7cb6nqm2m9m84v9l,31q0u3wydtsa961fgxajq2kf6qa71g,pIWabIlE,2020-0188,2021-10-31,01:40:22,03:17:41,NA,incomplete,false,NA,NA,true,2,7,NA,NA,NA,right,m_l_082.jpg,brown,green,NA,NA,NA,NA,NA,NA,NA,NA,NA,NaN,NA,3372.600000023842,right,1,NA,NA,NA,NA,NA
pIWabIlE,3z33ic0jd3zsmh7cb6nqm2m9m84v9l,31q0u3wydtsa961fgxajq2kf6qa71g,pIWabIlE,2020-0188,2021-10-31,01:40:22,03:17:41,NA,incomplete,false,NA,NA,true,2,8,NA,NA,NA,left,n_s_038.jpg,orange,brown,NA,NA,NA,NA,NA,NA,NA,NA,NA,NaN,NA,4780.900000035763,left,1,NA,NA,NA,NA,NA
pIWabIlE,3z33ic0jd3zsmh7cb6nqm2m9m84v9l,31q0u3wydtsa961fgxajq2kf6qa71g,pIWabIlE,2020-0188,2021-10-31,01:40:22,03:17:41,NA,incomplete,false,NA,NA,true,2,9,NA,NA,NA,right,m_s_087.jpg,orange,black,NA,NA,NA,NA,NA,NA,NA,NA,NA,NaN,NA,2163.100000023842,right,1,NA,NA,NA,NA,NA
pIWabIlE,3z33ic0jd3zsmh7cb6nqm2m9m84v9l,31q0u3wydtsa961fgxajq2kf6qa71g,pIWabIlE,2020-0188,2021-10-31,01:40:22,03:17:41,NA,incomplete,false,NA,NA,true,2,10,NA,NA,NA,left,n_l_039.jpg,black,orange,NA,NA,NA,NA,NA,NA,NA,NA,NA,NaN,NA,1858.3999999761581,left,1,NA,NA,NA,NA,NA
pIWabIlE,3z33ic0jd3zsmh7cb6nqm2m9m84v9l,31q0u3wydtsa961fgxajq2kf6qa71g,pIWabIlE,2020-0188,2021-10-31,01:40:22,03:17:41,NA,incomplete,false,NA,NA,true,2,11,NA,NA,NA,left,m_l_018.jpg,white,red,NA,NA,NA,NA,NA,NA,NA,NA,NA,NaN,NA,1764.199999988079,left,1,NA,NA,NA,NA,NA
pIWabIlE,3z33ic0jd3zsmh7cb6nqm2m9m84v9l,31q0u3wydtsa961fgxajq2kf6qa71g,pIWabIlE,2020-0188,2021-10-31,01:40:22,03:17:41,NA,incomplete,false,NA,NA,true,2,12,NA,NA,NA,right,n_l_041.jpg,orange,black,NA,NA,NA,NA,NA,NA,NA,NA,NA,NaN,NA,9178.300000011921,right,1,NA,NA,NA,NA,NA
pIWabIlE,3z33ic0jd3zsmh7cb6nqm2m9m84v9l,31q0u3wydtsa961fgxajq2kf6qa71g,pIWabIlE,2020-0188,2021-10-31,01:40:22,03:17:41,NA,incomplete,false,NA,NA,true,2,13,NA,NA,NA,right,m_l_057.jpg,white,red,NA,NA,NA,NA,NA,NA,NA,NA,NA,NaN,NA,4637.399999976158,right,1,NA,NA,NA,NA,NA
pIWabIlE,3z33ic0jd3zsmh7cb6nqm2m9m84v9l,31q0u3wydtsa961fgxajq2kf6qa71g,pIWabIlE,2020-0188,2021-10-31,01:40:22,03:17:41,NA,incomplete,false,NA,NA,true,2,14,NA,NA,NA,right,m_s_058.jpg,white,red,NA,NA,NA,NA,NA,NA,NA,NA,NA,NaN,NA,1540.1000000238419,right,1,NA,NA,NA,NA,NA
pIWabIlE,3z33ic0jd3zsmh7cb6nqm2m9m84v9l,31q0u3wydtsa961fgxajq2kf6qa71g,pIWabIlE,2020-0188,2021-10-31,01:40:22,03:17:41,NA,incomplete,false,NA,NA,true,2,15,NA,NA,NA,right,m_s_086.jpg,black,orange,NA,NA,NA,NA,NA,NA,NA,NA,NA,NaN,NA,2700.199999988079,right,1,NA,NA,NA,NA,NA
pIWabIlE,3z33ic0jd3zsmh7cb6nqm2m9m84v9l,31q0u3wydtsa961fgxajq2kf6qa71g,pIWabIlE,2020-0188,2021-10-31,01:40:22,03:17:41,NA,incomplete,false,NA,NA,true,2,16,NA,NA,NA,right,m_s_048.jpg,brown,green,NA,NA,NA,NA,NA,NA,NA,NA,NA,NaN,NA,2395.900000035763,right,1,NA,NA,NA,NA,NA
pIWabIlE,3z33ic0jd3zsmh7cb6nqm2m9m84v9l,31q0u3wydtsa961fgxajq2kf6qa71g,pIWabIlE,2020-0188,2021-10-31,01:40:22,03:17:41,NA,incomplete,false,NA,NA,true,2,17,NA,NA,NA,right,m_l_112.jpg,brown,orange,NA,NA,NA,NA,NA,NA,NA,NA,NA,NaN,NA,2107.100000023842,right,1,NA,NA,NA,NA,NA
pIWabIlE,3z33ic0jd3zsmh7cb6nqm2m9m84v9l,31q0u3wydtsa961fgxajq2kf6qa71g,pIWabIlE,2020-0188,2021-10-31,01:40:22,03:17:41,NA,incomplete,false,NA,NA,true,2,18,NA,NA,NA,left,n_l_029.jpg,red,white,NA,NA,NA,NA,NA,NA,NA,NA,NA,NaN,NA,2516.900000035763,left,1,NA,NA,NA,NA,NA
pIWabIlE,3z33ic0jd3zsmh7cb6nqm2m9m84v9l,31q0u3wydtsa961fgxajq2kf6qa71g,pIWabIlE,2020-0188,2021-10-31,01:40:22,03:17:41,NA,incomplete,false,NA,NA,true,2,19,NA,NA,NA,right,n_l_108.jpg,orange,brown,NA,NA,NA,NA,NA,NA,NA,NA,NA,NaN,NA,5604.599999964237,right,1,NA,NA,NA,NA,NA
pIWabIlE,3z33ic0jd3zsmh7cb6nqm2m9m84v9l,31q0u3wydtsa961fgxajq2kf6qa71g,pIWabIlE,2020-0188,2021-10-31,01:40:22,03:17:41,NA,incomplete,false,NA,NA,true,2,20,NA,NA,NA,right,m_s_068.jpg,brown,orange,NA,NA,NA,NA,NA,NA,NA,NA,NA,NaN,NA,1707.2999999523163,right,1,NA,NA,NA,NA,NA
pIWabIlE,3z33ic0jd3zsmh7cb6nqm2m9m84v9l,31q0u3wydtsa961fgxajq2kf6qa71g,pIWabIlE,2020-0188,2021-10-31,01:40:22,03:17:41,NA,incomplete,false,NA,NA,true,2,21,NA,NA,NA,left,n_s_111.jpg,white,red,NA,NA,NA,NA,NA,NA,NA,NA,NA,NaN,NA,4994.899999976158,left,1,NA,NA,NA,NA,NA
pIWabIlE,3z33ic0jd3zsmh7cb6nqm2m9m84v9l,31q0u3wydtsa961fgxajq2kf6qa71g,pIWabIlE,2020-0188,2021-10-31,01:40:22,03:17:41,NA,incomplete,false,NA,true,NA,2,0,NA,NA,NA,left,NA,NA,NA,present,NA,NA,m_l_095.jpg,brown,m_s_032.jpg,green,between,NA,NaN,NA,NA,NA,NA,left,8244.599999964237,1,2,4964.299999952316
pIWabIlE,3z33ic0jd3zsmh7cb6nqm2m9m84v9l,31q0u3wydtsa961fgxajq2kf6qa71g,pIWabIlE,2020-0188,2021-10-31,01:40:22,03:17:41,NA,incomplete,false,NA,true,NA,2,1,NA,NA,NA,left,NA,NA,NA,present,NA,NA,n_l_029.jpg,red,m_l_057.jpg,red,within,NA,NaN,NA,NA,NA,NA,left,7292.600000023842,1,1,4099.200000047684
pIWabIlE,3z33ic0jd3zsmh7cb6nqm2m9m84v9l,31q0u3wydtsa961fgxajq2kf6qa71g,pIWabIlE,2020-0188,2021-10-31,01:40:22,03:17:41,NA,incomplete,false,NA,true,NA,2,2,NA,NA,NA,right,NA,NA,NA,present,NA,NA,n_s_052.jpg,brown,m_s_068.jpg,orange,between,NA,NaN,NA,NA,NA,NA,left,7883.5,0,2,5299.699999988079
pIWabIlE,3z33ic0jd3zsmh7cb6nqm2m9m84v9l,31q0u3wydtsa961fgxajq2kf6qa71g,pIWabIlE,2020-0188,2021-10-31,01:40:22,03:17:41,NA,incomplete,false,NA,true,NA,2,3,NA,NA,NA,left,NA,NA,NA,present,NA,NA,m_s_031.jpg,black,n_l_039.jpg,black,within,NA,NaN,NA,NA,NA,NA,left,6498.599999964237,1,0,3692
pIWabIlE,3z33ic0jd3zsmh7cb6nqm2m9m84v9l,31q0u3wydtsa961fgxajq2kf6qa71g,pIWabIlE,2020-0188,2021-10-31,01:40:22,03:17:41,NA,incomplete,false,NA,true,NA,2,4,NA,NA,NA,right,NA,NA,NA,present,NA,NA,n_l_108.jpg,brown,n_l_091.jpg,brown,within,NA,NaN,NA,NA,NA,NA,right,11412.100000023842,1,0,2516.399999976158
pIWabIlE,3z33ic0jd3zsmh7cb6nqm2m9m84v9l,31q0u3wydtsa961fgxajq2kf6qa71g,pIWabIlE,2020-0188,2021-10-31,01:40:22,03:17:41,NA,incomplete,false,NA,true,NA,2,5,NA,NA,NA,left,NA,NA,NA,present,NA,NA,m_s_048.jpg,green,m_l_082.jpg,green,within,NA,NaN,NA,NA,NA,NA,left,6308,1,0,2016.6000000238419
pIWabIlE,3z33ic0jd3zsmh7cb6nqm2m9m84v9l,31q0u3wydtsa961fgxajq2kf6qa71g,pIWabIlE,2020-0188,2021-10-31,01:40:22,03:17:41,NA,incomplete,false,NA,true,NA,2,6,NA,NA,NA,right,NA,NA,NA,present,NA,NA,m_s_086.jpg,orange,n_s_038.jpg,orange,within,NA,NaN,NA,NA,NA,NA,right,5491.800000011921,1,1,1712
pIWabIlE,3z33ic0jd3zsmh7cb6nqm2m9m84v9l,31q0u3wydtsa961fgxajq2kf6qa71g,pIWabIlE,2020-0188,2021-10-31,01:40:22,03:17:41,NA,incomplete,false,NA,true,NA,2,7,NA,NA,NA,left,NA,NA,NA,present,NA,NA,m_l_018.jpg,white,m_s_058.jpg,red,between,NA,NaN,NA,NA,NA,NA,right,6123.900000035763,0,2,2365.599999964237
pIWabIlE,3z33ic0jd3zsmh7cb6nqm2m9m84v9l,31q0u3wydtsa961fgxajq2kf6qa71g,pIWabIlE,2020-0188,2021-10-31,01:40:22,03:17:41,NA,incomplete,false,NA,true,NA,2,8,NA,NA,NA,left,NA,NA,NA,present,NA,NA,n_l_041.jpg,black,m_l_112.jpg,orange,between,NA,NaN,NA,NA,NA,NA,right,5900.199999988079,0,3,2404.5
pIWabIlE,3z33ic0jd3zsmh7cb6nqm2m9m84v9l,31q0u3wydtsa961fgxajq2kf6qa71g,pIWabIlE,2020-0188,2021-10-31,01:40:22,03:17:41,NA,incomplete,false,NA,true,NA,2,9,NA,NA,NA,right,NA,NA,NA,present,NA,NA,m_l_019.jpg,white,n_s_111.jpg,white,within,NA,NaN,NA,NA,NA,NA,right,7925.099999964237,1,0,3715.300000011921
pIWabIlE,3z33ic0jd3zsmh7cb6nqm2m9m84v9l,31q0u3wydtsa961fgxajq2kf6qa71g,pIWabIlE,2020-0188,2021-10-31,01:40:22,03:17:41,NA,incomplete,false,NA,true,NA,2,10,NA,NA,NA,right,NA,NA,NA,present,NA,NA,m_s_087.jpg,black,m_s_071.jpg,red,between,NA,NaN,NA,NA,NA,NA,left,7309.100000023842,0,2,3868.100000023842
pIWabIlE,3z33ic0jd3zsmh7cb6nqm2m9m84v9l,31q0u3wydtsa961fgxajq2kf6qa71g,pIWabIlE,2020-0188,2021-10-31,01:40:22,03:17:41,NA,incomplete,false,true,NA,NA,3,0,NA,green,n_s_105.jpg,NA,NA,NA,NA,NA,unpleasant,pleasant,NA,NA,NA,NA,NA,right,3004.19999998808,true,NA,NA,NA,NA,NA,NA,NA,NA
pIWabIlE,3z33ic0jd3zsmh7cb6nqm2m9m84v9l,31q0u3wydtsa961fgxajq2kf6qa71g,pIWabIlE,2020-0188,2021-10-31,01:40:22,03:17:41,NA,incomplete,false,true,NA,NA,3,1,NA,green,m_s_106.jpg,NA,NA,NA,NA,NA,unpleasant,pleasant,NA,NA,NA,NA,NA,right,1353.5,true,NA,NA,NA,NA,NA,NA,NA,NA
pIWabIlE,3z33ic0jd3zsmh7cb6nqm2m9m84v9l,31q0u3wydtsa961fgxajq2kf6qa71g,pIWabIlE,2020-0188,2021-10-31,01:40:22,03:17:41,NA,incomplete,false,true,NA,NA,3,2,NA,green,n_l_016.jpg,NA,NA,NA,NA,NA,pleasant,unpleasant,NA,NA,NA,NA,NA,left,1509.5,true,NA,NA,NA,NA,NA,NA,NA,NA
pIWabIlE,3z33ic0jd3zsmh7cb6nqm2m9m84v9l,31q0u3wydtsa961fgxajq2kf6qa71g,pIWabIlE,2020-0188,2021-10-31,01:40:22,03:17:41,NA,incomplete,false,true,NA,NA,3,3,NA,green,m_s_057.jpg,NA,NA,NA,NA,NA,unpleasant,pleasant,NA,NA,NA,NA,NA,right,1505.80000001192,true,NA,NA,NA,NA,NA,NA,NA,NA
pIWabIlE,3z33ic0jd3zsmh7cb6nqm2m9m84v9l,31q0u3wydtsa961fgxajq2kf6qa71g,pIWabIlE,2020-0188,2021-10-31,01:40:22,03:17:41,NA,incomplete,false,true,NA,NA,3,4,NA,green,n_s_043.jpg,NA,NA,NA,NA,NA,unpleasant,pleasant,NA,NA,NA,NA,NA,right,1272,true,NA,NA,NA,NA,NA,NA,NA,NA
pIWabIlE,3z33ic0jd3zsmh7cb6nqm2m9m84v9l,31q0u3wydtsa961fgxajq2kf6qa71g,pIWabIlE,2020-0188,2021-10-31,01:40:22,03:17:41,NA,incomplete,false,true,NA,NA,3,5,NA,green,m_l_073.jpg,NA,NA,NA,NA,NA,unpleasant,pleasant,NA,NA,NA,NA,NA,right,1139.5,true,NA,NA,NA,NA,NA,NA,NA,NA
pIWabIlE,3z33ic0jd3zsmh7cb6nqm2m9m84v9l,31q0u3wydtsa961fgxajq2kf6qa71g,pIWabIlE,2020-0188,2021-10-31,01:40:22,03:17:41,NA,incomplete,false,true,NA,NA,3,6,NA,white,n_l_058.jpg,NA,NA,NA,NA,NA,unpleasant,pleasant,NA,NA,NA,NA,NA,right,1311.20000004768,true,NA,NA,NA,NA,NA,NA,NA,NA
pIWabIlE,3z33ic0jd3zsmh7cb6nqm2m9m84v9l,31q0u3wydtsa961fgxajq2kf6qa71g,pIWabIlE,2020-0188,2021-10-31,01:40:22,03:17:41,NA,incomplete,false,true,NA,NA,3,7,NA,white,n_s_022.jpg,NA,NA,NA,NA,NA,pleasant,unpleasant,NA,NA,NA,NA,NA,left,1045.19999998808,true,NA,NA,NA,NA,NA,NA,NA,NA
pIWabIlE,3z33ic0jd3zsmh7cb6nqm2m9m84v9l,31q0u3wydtsa961fgxajq2kf6qa71g,pIWabIlE,2020-0188,2021-10-31,01:40:22,03:17:41,NA,incomplete,false,true,NA,NA,3,8,NA,white,m_s_026.jpg,NA,NA,NA,NA,NA,unpleasant,pleasant,NA,NA,NA,NA,NA,right,2099,true,NA,NA,NA,NA,NA,NA,NA,NA
pIWabIlE,3z33ic0jd3zsmh7cb6nqm2m9m84v9l,31q0u3wydtsa961fgxajq2kf6qa71g,pIWabIlE,2020-0188,2021-10-31,01:40:22,03:17:41,NA,incomplete,false,true,NA,NA,3,9,NA,white,m_l_008.jpg,NA,NA,NA,NA,NA,pleasant,unpleasant,NA,NA,NA,NA,NA,left,1093.5,true,NA,NA,NA,NA,NA,NA,NA,NA
pIWabIlE,3z33ic0jd3zsmh7cb6nqm2m9m84v9l,31q0u3wydtsa961fgxajq2kf6qa71g,pIWabIlE,2020-0188,2021-10-31,01:40:22,03:17:41,NA,incomplete,false,true,NA,NA,3,10,NA,white,m_s_064.jpg,NA,NA,NA,NA,NA,pleasant,unpleasant,NA,NA,NA,NA,NA,left,1728.90000003576,true,NA,NA,NA,NA,NA,NA,NA,NA
pIWabIlE,3z33ic0jd3zsmh7cb6nqm2m9m84v9l,31q0u3wydtsa961fgxajq2kf6qa71g,pIWabIlE,2020-0188,2021-10-31,01:40:22,03:17:41,NA,incomplete,false,true,NA,NA,3,11,NA,white,m_s_110.jpg,NA,NA,NA,NA,NA,pleasant,unpleasant,NA,NA,NA,NA,NA,left,1184,true,NA,NA,NA,NA,NA,NA,NA,NA
pIWabIlE,3z33ic0jd3zsmh7cb6nqm2m9m84v9l,31q0u3wydtsa961fgxajq2kf6qa71g,pIWabIlE,2020-0188,2021-10-31,01:40:22,03:17:41,NA,incomplete,false,true,NA,NA,3,12,NA,yellow,n_s_063.jpg,NA,NA,NA,NA,NA,unpleasant,pleasant,NA,NA,NA,NA,NA,right,1395.5,true,NA,NA,NA,NA,NA,NA,NA,NA
pIWabIlE,3z33ic0jd3zsmh7cb6nqm2m9m84v9l,31q0u3wydtsa961fgxajq2kf6qa71g,pIWabIlE,2020-0188,2021-10-31,01:40:22,03:17:41,NA,incomplete,false,true,NA,NA,3,13,NA,yellow,m_s_025.jpg,NA,NA,NA,NA,NA,pleasant,unpleasant,NA,NA,NA,NA,NA,left,1730.30000001192,true,NA,NA,NA,NA,NA,NA,NA,NA
pIWabIlE,3z33ic0jd3zsmh7cb6nqm2m9m84v9l,31q0u3wydtsa961fgxajq2kf6qa71g,pIWabIlE,2020-0188,2021-10-31,01:40:22,03:17:41,NA,incomplete,false,true,NA,NA,3,14,NA,yellow,m_l_072.jpg,NA,NA,NA,NA,NA,pleasant,unpleasant,NA,NA,NA,NA,NA,left,1007.39999997616,true,NA,NA,NA,NA,NA,NA,NA,NA
pIWabIlE,3z33ic0jd3zsmh7cb6nqm2m9m84v9l,31q0u3wydtsa961fgxajq2kf6qa71g,pIWabIlE,2020-0188,2021-10-31,01:40:22,03:17:41,NA,incomplete,false,true,NA,NA,3,15,NA,yellow,n_l_023.jpg,NA,NA,NA,NA,NA,unpleasant,pleasant,NA,NA,NA,NA,NA,right,1185.40000003576,true,NA,NA,NA,NA,NA,NA,NA,NA
pIWabIlE,3z33ic0jd3zsmh7cb6nqm2m9m84v9l,31q0u3wydtsa961fgxajq2kf6qa71g,pIWabIlE,2020-0188,2021-10-31,01:40:22,03:17:41,NA,incomplete,false,true,NA,NA,3,16,NA,yellow,m_l_051.jpg,NA,NA,NA,NA,NA,unpleasant,pleasant,NA,NA,NA,NA,NA,right,1000.79999995232,true,NA,NA,NA,NA,NA,NA,NA,NA
pIWabIlE,3z33ic0jd3zsmh7cb6nqm2m9m84v9l,31q0u3wydtsa961fgxajq2kf6qa71g,pIWabIlE,2020-0188,2021-10-31,01:40:22,03:17:41,NA,incomplete,false,true,NA,NA,3,17,NA,yellow,m_l_063.jpg,NA,NA,NA,NA,NA,pleasant,unpleasant,NA,NA,NA,NA,NA,left,1286.40000003576,true,NA,NA,NA,NA,NA,NA,NA,NA
pIWabIlE,3z33ic0jd3zsmh7cb6nqm2m9m84v9l,31q0u3wydtsa961fgxajq2kf6qa71g,pIWabIlE,2020-0188,2021-10-31,01:40:22,03:17:41,NA,incomplete,false,true,NA,NA,3,18,NA,purple,n_s_114.jpg,NA,NA,NA,NA,NA,unpleasant,pleasant,NA,NA,NA,NA,NA,right,1751.60000002384,true,NA,NA,NA,NA,NA,NA,NA,NA
pIWabIlE,3z33ic0jd3zsmh7cb6nqm2m9m84v9l,31q0u3wydtsa961fgxajq2kf6qa71g,pIWabIlE,2020-0188,2021-10-31,01:40:22,03:17:41,NA,incomplete,false,true,NA,NA,3,19,NA,purple,m_l_029.jpg,NA,NA,NA,NA,NA,pleasant,unpleasant,NA,NA,NA,NA,NA,left,1053.69999998808,true,NA,NA,NA,NA,NA,NA,NA,NA
pIWabIlE,3z33ic0jd3zsmh7cb6nqm2m9m84v9l,31q0u3wydtsa961fgxajq2kf6qa71g,pIWabIlE,2020-0188,2021-10-31,01:40:22,03:17:41,NA,incomplete,false,true,NA,NA,3,20,NA,purple,m_l_032.jpg,NA,NA,NA,NA,NA,unpleasant,pleasant,NA,NA,NA,NA,NA,right,1259.5,true,NA,NA,NA,NA,NA,NA,NA,NA
pIWabIlE,3z33ic0jd3zsmh7cb6nqm2m9m84v9l,31q0u3wydtsa961fgxajq2kf6qa71g,pIWabIlE,2020-0188,2021-10-31,01:40:22,03:17:41,NA,incomplete,false,true,NA,NA,3,21,NA,purple,m_s_105.jpg,NA,NA,NA,NA,NA,unpleasant,pleasant,NA,NA,NA,NA,NA,right,1159.89999997616,true,NA,NA,NA,NA,NA,NA,NA,NA
pIWabIlE,3z33ic0jd3zsmh7cb6nqm2m9m84v9l,31q0u3wydtsa961fgxajq2kf6qa71g,pIWabIlE,2020-0188,2021-10-31,01:40:22,03:17:41,NA,incomplete,false,true,NA,NA,3,22,NA,purple,m_s_049.jpg,NA,NA,NA,NA,NA,pleasant,unpleasant,NA,NA,NA,NA,NA,left,1291,true,NA,NA,NA,NA,NA,NA,NA,NA
pIWabIlE,3z33ic0jd3zsmh7cb6nqm2m9m84v9l,31q0u3wydtsa961fgxajq2kf6qa71g,pIWabIlE,2020-0188,2021-10-31,01:40:22,03:17:41,NA,incomplete,false,true,NA,NA,3,23,NA,purple,m_l_042.jpg,NA,NA,NA,NA,NA,pleasant,unpleasant,NA,NA,NA,NA,NA,left,1033.5,true,NA,NA,NA,NA,NA,NA,NA,NA
pIWabIlE,3z33ic0jd3zsmh7cb6nqm2m9m84v9l,31q0u3wydtsa961fgxajq2kf6qa71g,pIWabIlE,2020-0188,2021-10-31,01:40:22,03:17:41,NA,incomplete,false,true,NA,NA,3,24,NA,black,n_s_031.jpg,NA,NA,NA,NA,NA,pleasant,unpleasant,NA,NA,NA,NA,NA,left,1741.59999996424,true,NA,NA,NA,NA,NA,NA,NA,NA
pIWabIlE,3z33ic0jd3zsmh7cb6nqm2m9m84v9l,31q0u3wydtsa961fgxajq2kf6qa71g,pIWabIlE,2020-0188,2021-10-31,01:40:22,03:17:41,NA,incomplete,false,true,NA,NA,3,25,NA,black,m_l_076.jpg,NA,NA,NA,NA,NA,pleasant,unpleasant,NA,NA,NA,NA,NA,left,1425.5,true,NA,NA,NA,NA,NA,NA,NA,NA
pIWabIlE,3z33ic0jd3zsmh7cb6nqm2m9m84v9l,31q0u3wydtsa961fgxajq2kf6qa71g,pIWabIlE,2020-0188,2021-10-31,01:40:22,03:17:41,NA,incomplete,false,true,NA,NA,3,26,NA,black,m_l_100.jpg,NA,NA,NA,NA,NA,pleasant,unpleasant,NA,NA,NA,NA,NA,left,1086.5,true,NA,NA,NA,NA,NA,NA,NA,NA
pIWabIlE,3z33ic0jd3zsmh7cb6nqm2m9m84v9l,31q0u3wydtsa961fgxajq2kf6qa71g,pIWabIlE,2020-0188,2021-10-31,01:40:22,03:17:41,NA,incomplete,false,true,NA,NA,3,27,NA,black,n_s_023.jpg,NA,NA,NA,NA,NA,unpleasant,pleasant,NA,NA,NA,NA,NA,right,946.299999952316,true,NA,NA,NA,NA,NA,NA,NA,NA
pIWabIlE,3z33ic0jd3zsmh7cb6nqm2m9m84v9l,31q0u3wydtsa961fgxajq2kf6qa71g,pIWabIlE,2020-0188,2021-10-31,01:40:22,03:17:41,NA,incomplete,false,true,NA,NA,3,28,NA,black,m_s_079.jpg,NA,NA,NA,NA,NA,pleasant,unpleasant,NA,NA,NA,NA,NA,left,1159.90000003576,true,NA,NA,NA,NA,NA,NA,NA,NA
pIWabIlE,3z33ic0jd3zsmh7cb6nqm2m9m84v9l,31q0u3wydtsa961fgxajq2kf6qa71g,pIWabIlE,2020-0188,2021-10-31,01:40:22,03:17:41,NA,incomplete,false,true,NA,NA,3,29,NA,black,m_l_007.jpg,NA,NA,NA,NA,NA,unpleasant,pleasant,NA,NA,NA,NA,NA,right,1099.90000003576,true,NA,NA,NA,NA,NA,NA,NA,NA
pIWabIlE,3z33ic0jd3zsmh7cb6nqm2m9m84v9l,31q0u3wydtsa961fgxajq2kf6qa71g,pIWabIlE,2020-0188,2021-10-31,01:40:22,03:17:41,NA,incomplete,false,true,NA,NA,3,30,NA,orange,m_s_093.jpg,NA,NA,NA,NA,NA,pleasant,unpleasant,NA,NA,NA,NA,NA,left,1153.80000001192,true,NA,NA,NA,NA,NA,NA,NA,NA
pIWabIlE,3z33ic0jd3zsmh7cb6nqm2m9m84v9l,31q0u3wydtsa961fgxajq2kf6qa71g,pIWabIlE,2020-0188,2021-10-31,01:40:22,03:17:41,NA,incomplete,false,true,NA,NA,3,31,NA,orange,n_l_024.jpg,NA,NA,NA,NA,NA,unpleasant,pleasant,NA,NA,NA,NA,NA,right,1223.59999996424,true,NA,NA,NA,NA,NA,NA,NA,NA
pIWabIlE,3z33ic0jd3zsmh7cb6nqm2m9m84v9l,31q0u3wydtsa961fgxajq2kf6qa71g,pIWabIlE,2020-0188,2021-10-31,01:40:22,03:17:41,NA,incomplete,false,true,NA,NA,3,32,NA,orange,m_s_046.jpg,NA,NA,NA,NA,NA,pleasant,unpleasant,NA,NA,NA,NA,NA,left,1028.20000004768,true,NA,NA,NA,NA,NA,NA,NA,NA
pIWabIlE,3z33ic0jd3zsmh7cb6nqm2m9m84v9l,31q0u3wydtsa961fgxajq2kf6qa71g,pIWabIlE,2020-0188,2021-10-31,01:40:22,03:17:41,NA,incomplete,false,true,NA,NA,3,33,NA,orange,m_l_052.jpg,NA,NA,NA,NA,NA,pleasant,unpleasant,NA,NA,NA,NA,NA,left,1015,true,NA,NA,NA,NA,NA,NA,NA,NA
pIWabIlE,3z33ic0jd3zsmh7cb6nqm2m9m84v9l,31q0u3wydtsa961fgxajq2kf6qa71g,pIWabIlE,2020-0188,2021-10-31,01:40:22,03:17:41,NA,incomplete,false,true,NA,NA,3,34,NA,orange,n_l_035.jpg,NA,NA,NA,NA,NA,unpleasant,pleasant,NA,NA,NA,NA,NA,right,1123.89999997616,true,NA,NA,NA,NA,NA,NA,NA,NA
pIWabIlE,3z33ic0jd3zsmh7cb6nqm2m9m84v9l,31q0u3wydtsa961fgxajq2kf6qa71g,pIWabIlE,2020-0188,2021-10-31,01:40:22,03:17:41,NA,incomplete,false,true,NA,NA,3,35,NA,orange,m_s_111.jpg,NA,NA,NA,NA,NA,unpleasant,pleasant,NA,NA,NA,NA,NA,right,1210.60000002384,true,NA,NA,NA,NA,NA,NA,NA,NA
pIWabIlE,3z33ic0jd3zsmh7cb6nqm2m9m84v9l,31q0u3wydtsa961fgxajq2kf6qa71g,pIWabIlE,2020-0188,2021-10-31,01:40:22,03:17:41,NA,incomplete,false,NA,NA,true,3,0,NA,NA,NA,right,n_l_024.jpg,black,orange,NA,NA,NA,NA,NA,NA,NA,NA,NA,NaN,NA,6939,right,1,NA,NA,NA,NA,NA
pIWabIlE,3z33ic0jd3zsmh7cb6nqm2m9m84v9l,31q0u3wydtsa961fgxajq2kf6qa71g,pIWabIlE,2020-0188,2021-10-31,01:40:22,03:17:41,NA,incomplete,false,NA,NA,true,3,1,NA,NA,NA,left,m_l_032.jpg,purple,black,NA,NA,NA,NA,NA,NA,NA,NA,NA,NaN,NA,5154.5,right,0,NA,NA,NA,NA,NA
pIWabIlE,3z33ic0jd3zsmh7cb6nqm2m9m84v9l,31q0u3wydtsa961fgxajq2kf6qa71g,pIWabIlE,2020-0188,2021-10-31,01:40:22,03:17:41,NA,incomplete,false,NA,NA,true,3,2,NA,NA,NA,left,m_s_025.jpg,yellow,white,NA,NA,NA,NA,NA,NA,NA,NA,NA,NaN,NA,11516.199999988079,left,1,NA,NA,NA,NA,NA
pIWabIlE,3z33ic0jd3zsmh7cb6nqm2m9m84v9l,31q0u3wydtsa961fgxajq2kf6qa71g,pIWabIlE,2020-0188,2021-10-31,01:40:22,03:17:41,NA,incomplete,false,NA,NA,true,3,3,NA,NA,NA,left,m_s_046.jpg,orange,black,NA,NA,NA,NA,NA,NA,NA,NA,NA,NaN,NA,2033.4000000357628,left,1,NA,NA,NA,NA,NA
pIWabIlE,3z33ic0jd3zsmh7cb6nqm2m9m84v9l,31q0u3wydtsa961fgxajq2kf6qa71g,pIWabIlE,2020-0188,2021-10-31,01:40:22,03:17:41,NA,incomplete,false,NA,NA,true,3,4,NA,NA,NA,right,m_l_042.jpg,yellow,purple,NA,NA,NA,NA,NA,NA,NA,NA,NA,NaN,NA,2708.300000011921,right,1,NA,NA,NA,NA,NA
pIWabIlE,3z33ic0jd3zsmh7cb6nqm2m9m84v9l,31q0u3wydtsa961fgxajq2kf6qa71g,pIWabIlE,2020-0188,2021-10-31,01:40:22,03:17:41,NA,incomplete,false,NA,NA,true,3,5,NA,NA,NA,left,m_s_026.jpg,white,yellow,NA,NA,NA,NA,NA,NA,NA,NA,NA,NaN,NA,2100.399999976158,left,1,NA,NA,NA,NA,NA
pIWabIlE,3z33ic0jd3zsmh7cb6nqm2m9m84v9l,31q0u3wydtsa961fgxajq2kf6qa71g,pIWabIlE,2020-0188,2021-10-31,01:40:22,03:17:41,NA,incomplete,false,NA,NA,true,3,6,NA,NA,NA,right,m_l_073.jpg,white,green,NA,NA,NA,NA,NA,NA,NA,NA,NA,NaN,NA,2658.7999999523163,right,1,NA,NA,NA,NA,NA
pIWabIlE,3z33ic0jd3zsmh7cb6nqm2m9m84v9l,31q0u3wydtsa961fgxajq2kf6qa71g,pIWabIlE,2020-0188,2021-10-31,01:40:22,03:17:41,NA,incomplete,false,NA,NA,true,3,7,NA,NA,NA,left,m_s_064.jpg,white,green,NA,NA,NA,NA,NA,NA,NA,NA,NA,NaN,NA,2170.5,left,1,NA,NA,NA,NA,NA
pIWabIlE,3z33ic0jd3zsmh7cb6nqm2m9m84v9l,31q0u3wydtsa961fgxajq2kf6qa71g,pIWabIlE,2020-0188,2021-10-31,01:40:22,03:17:41,NA,incomplete,false,NA,NA,true,3,8,NA,NA,NA,left,m_l_007.jpg,black,orange,NA,NA,NA,NA,NA,NA,NA,NA,NA,NaN,NA,1904.2000000476837,left,1,NA,NA,NA,NA,NA
pIWabIlE,3z33ic0jd3zsmh7cb6nqm2m9m84v9l,31q0u3wydtsa961fgxajq2kf6qa71g,pIWabIlE,2020-0188,2021-10-31,01:40:22,03:17:41,NA,incomplete,false,NA,NA,true,3,9,NA,NA,NA,right,m_l_072.jpg,white,yellow,NA,NA,NA,NA,NA,NA,NA,NA,NA,NaN,NA,1967.800000011921,right,1,NA,NA,NA,NA,NA
pIWabIlE,3z33ic0jd3zsmh7cb6nqm2m9m84v9l,31q0u3wydtsa961fgxajq2kf6qa71g,pIWabIlE,2020-0188,2021-10-31,01:40:22,03:17:41,NA,incomplete,false,NA,NA,true,3,10,NA,NA,NA,right,m_s_049.jpg,yellow,purple,NA,NA,NA,NA,NA,NA,NA,NA,NA,NaN,NA,2353.100000023842,right,1,NA,NA,NA,NA,NA
pIWabIlE,3z33ic0jd3zsmh7cb6nqm2m9m84v9l,31q0u3wydtsa961fgxajq2kf6qa71g,pIWabIlE,2020-0188,2021-10-31,01:40:22,03:17:41,NA,incomplete,false,NA,NA,true,3,11,NA,NA,NA,left,m_l_063.jpg,yellow,purple,NA,NA,NA,NA,NA,NA,NA,NA,NA,NaN,NA,2431.699999988079,left,1,NA,NA,NA,NA,NA
pIWabIlE,3z33ic0jd3zsmh7cb6nqm2m9m84v9l,31q0u3wydtsa961fgxajq2kf6qa71g,pIWabIlE,2020-0188,2021-10-31,01:40:22,03:17:41,NA,incomplete,false,NA,NA,true,3,12,NA,NA,NA,left,m_s_079.jpg,black,orange,NA,NA,NA,NA,NA,NA,NA,NA,NA,NaN,NA,2708.800000011921,left,1,NA,NA,NA,NA,NA
pIWabIlE,3z33ic0jd3zsmh7cb6nqm2m9m84v9l,31q0u3wydtsa961fgxajq2kf6qa71g,pIWabIlE,2020-0188,2021-10-31,01:40:22,03:17:41,NA,incomplete,false,NA,NA,true,3,13,NA,NA,NA,right,n_s_022.jpg,green,white,NA,NA,NA,NA,NA,NA,NA,NA,NA,NaN,NA,12698,right,1,NA,NA,NA,NA,NA
pIWabIlE,3z33ic0jd3zsmh7cb6nqm2m9m84v9l,31q0u3wydtsa961fgxajq2kf6qa71g,pIWabIlE,2020-0188,2021-10-31,01:40:22,03:17:41,NA,incomplete,false,NA,NA,true,3,14,NA,NA,NA,right,m_s_111.jpg,black,orange,NA,NA,NA,NA,NA,NA,NA,NA,NA,NaN,NA,2429.100000023842,right,1,NA,NA,NA,NA,NA
pIWabIlE,3z33ic0jd3zsmh7cb6nqm2m9m84v9l,31q0u3wydtsa961fgxajq2kf6qa71g,pIWabIlE,2020-0188,2021-10-31,01:40:22,03:17:41,NA,incomplete,false,NA,NA,true,3,15,NA,NA,NA,left,m_l_076.jpg,black,orange,NA,NA,NA,NA,NA,NA,NA,NA,NA,NaN,NA,2178.399999976158,left,1,NA,NA,NA,NA,NA
pIWabIlE,3z33ic0jd3zsmh7cb6nqm2m9m84v9l,31q0u3wydtsa961fgxajq2kf6qa71g,pIWabIlE,2020-0188,2021-10-31,01:40:22,03:17:41,NA,incomplete,false,NA,NA,true,3,16,NA,NA,NA,right,m_s_106.jpg,white,green,NA,NA,NA,NA,NA,NA,NA,NA,NA,NaN,NA,2204.099999964237,right,1,NA,NA,NA,NA,NA
pIWabIlE,3z33ic0jd3zsmh7cb6nqm2m9m84v9l,31q0u3wydtsa961fgxajq2kf6qa71g,pIWabIlE,2020-0188,2021-10-31,01:40:22,03:17:41,NA,incomplete,false,NA,NA,true,3,17,NA,NA,NA,right,m_l_100.jpg,purple,black,NA,NA,NA,NA,NA,NA,NA,NA,NA,NaN,NA,3810.5,right,1,NA,NA,NA,NA,NA
pIWabIlE,3z33ic0jd3zsmh7cb6nqm2m9m84v9l,31q0u3wydtsa961fgxajq2kf6qa71g,pIWabIlE,2020-0188,2021-10-31,01:40:22,03:17:41,NA,incomplete,false,NA,NA,true,3,18,NA,NA,NA,right,n_s_043.jpg,white,green,NA,NA,NA,NA,NA,NA,NA,NA,NA,NaN,NA,3363.599999964237,right,1,NA,NA,NA,NA,NA
pIWabIlE,3z33ic0jd3zsmh7cb6nqm2m9m84v9l,31q0u3wydtsa961fgxajq2kf6qa71g,pIWabIlE,2020-0188,2021-10-31,01:40:22,03:17:41,NA,incomplete,false,NA,NA,true,3,19,NA,NA,NA,right,m_l_051.jpg,white,yellow,NA,NA,NA,NA,NA,NA,NA,NA,NA,NaN,NA,3763.100000023842,right,1,NA,NA,NA,NA,NA
pIWabIlE,3z33ic0jd3zsmh7cb6nqm2m9m84v9l,31q0u3wydtsa961fgxajq2kf6qa71g,pIWabIlE,2020-0188,2021-10-31,01:40:22,03:17:41,NA,incomplete,false,NA,NA,true,3,20,NA,NA,NA,right,m_s_110.jpg,yellow,white,NA,NA,NA,NA,NA,NA,NA,NA,NA,NaN,NA,2732.5,right,1,NA,NA,NA,NA,NA
pIWabIlE,3z33ic0jd3zsmh7cb6nqm2m9m84v9l,31q0u3wydtsa961fgxajq2kf6qa71g,pIWabIlE,2020-0188,2021-10-31,01:40:22,03:17:41,NA,incomplete,false,NA,NA,true,3,21,NA,NA,NA,left,m_l_029.jpg,purple,black,NA,NA,NA,NA,NA,NA,NA,NA,NA,NaN,NA,3067.7000000476837,left,1,NA,NA,NA,NA,NA
pIWabIlE,3z33ic0jd3zsmh7cb6nqm2m9m84v9l,31q0u3wydtsa961fgxajq2kf6qa71g,pIWabIlE,2020-0188,2021-10-31,01:40:22,03:17:41,NA,incomplete,false,NA,true,NA,3,0,NA,NA,NA,left,NA,NA,NA,present,NA,NA,n_s_022.jpg,white,m_s_110.jpg,white,within,NA,NaN,NA,NA,NA,NA,left,7560.600000023842,1,1,2427.100000023842
pIWabIlE,3z33ic0jd3zsmh7cb6nqm2m9m84v9l,31q0u3wydtsa961fgxajq2kf6qa71g,pIWabIlE,2020-0188,2021-10-31,01:40:22,03:17:41,NA,incomplete,false,NA,true,NA,3,1,NA,NA,NA,right,NA,NA,NA,present,NA,NA,m_l_073.jpg,green,m_s_106.jpg,green,within,NA,NaN,NA,NA,NA,NA,left,5840.699999988079,0,0,3826.600000023842
pIWabIlE,3z33ic0jd3zsmh7cb6nqm2m9m84v9l,31q0u3wydtsa961fgxajq2kf6qa71g,pIWabIlE,2020-0188,2021-10-31,01:40:22,03:17:41,NA,incomplete,false,NA,true,NA,3,2,NA,NA,NA,left,NA,NA,NA,present,NA,NA,n_s_043.jpg,green,m_s_026.jpg,white,between,NA,NaN,NA,NA,NA,NA,left,7098.099999964237,1,2,3176.7000000476837
pIWabIlE,3z33ic0jd3zsmh7cb6nqm2m9m84v9l,31q0u3wydtsa961fgxajq2kf6qa71g,pIWabIlE,2020-0188,2021-10-31,01:40:22,03:17:41,NA,incomplete,false,NA,true,NA,3,3,NA,NA,NA,left,NA,NA,NA,present,NA,NA,m_l_029.jpg,purple,m_l_042.jpg,purple,within,NA,NaN,NA,NA,NA,NA,left,7168.899999976158,1,0,2017.5
pIWabIlE,3z33ic0jd3zsmh7cb6nqm2m9m84v9l,31q0u3wydtsa961fgxajq2kf6qa71g,pIWabIlE,2020-0188,2021-10-31,01:40:22,03:17:41,NA,incomplete,false,NA,true,NA,3,4,NA,NA,NA,right,NA,NA,NA,present,NA,NA,m_l_100.jpg,black,m_s_049.jpg,purple,between,NA,NaN,NA,NA,NA,NA,left,6052.399999976158,0,2,1700.300000011921
pIWabIlE,3z33ic0jd3zsmh7cb6nqm2m9m84v9l,31q0u3wydtsa961fgxajq2kf6qa71g,pIWabIlE,2020-0188,2021-10-31,01:40:22,03:17:41,NA,incomplete,false,NA,true,NA,3,5,NA,NA,NA,left,NA,NA,NA,present,NA,NA,m_s_079.jpg,black,m_s_046.jpg,orange,between,NA,NaN,NA,NA,NA,NA,left,5204.300000011921,1,2,3035
pIWabIlE,3z33ic0jd3zsmh7cb6nqm2m9m84v9l,31q0u3wydtsa961fgxajq2kf6qa71g,pIWabIlE,2020-0188,2021-10-31,01:40:22,03:17:41,NA,incomplete,false,NA,true,NA,3,6,NA,NA,NA,right,NA,NA,NA,present,NA,NA,m_s_111.jpg,orange,n_l_024.jpg,orange,within,NA,NaN,NA,NA,NA,NA,left,7108.799999952316,0,1,2786.199999988079
pIWabIlE,3z33ic0jd3zsmh7cb6nqm2m9m84v9l,31q0u3wydtsa961fgxajq2kf6qa71g,pIWabIlE,2020-0188,2021-10-31,01:40:22,03:17:41,NA,incomplete,false,NA,true,NA,3,7,NA,NA,NA,left,NA,NA,NA,present,NA,NA,m_s_064.jpg,white,m_l_072.jpg,yellow,between,NA,NaN,NA,NA,NA,NA,left,7980.100000023842,1,3,2660.900000035763
pIWabIlE,3z33ic0jd3zsmh7cb6nqm2m9m84v9l,31q0u3wydtsa961fgxajq2kf6qa71g,pIWabIlE,2020-0188,2021-10-31,01:40:22,03:17:41,NA,incomplete,false,NA,true,NA,3,8,NA,NA,NA,left,NA,NA,NA,present,NA,NA,m_l_076.jpg,black,m_l_007.jpg,black,within,NA,NaN,NA,NA,NA,NA,left,5949.200000047684,1,0,2475
pIWabIlE,3z33ic0jd3zsmh7cb6nqm2m9m84v9l,31q0u3wydtsa961fgxajq2kf6qa71g,pIWabIlE,2020-0188,2021-10-31,01:40:22,03:17:41,NA,incomplete,false,NA,true,NA,3,9,NA,NA,NA,left,NA,NA,NA,present,NA,NA,m_l_051.jpg,yellow,m_l_032.jpg,purple,between,NA,NaN,NA,NA,NA,NA,left,5882.399999976158,1,3,2555.899999976158
pIWabIlE,3z33ic0jd3zsmh7cb6nqm2m9m84v9l,31q0u3wydtsa961fgxajq2kf6qa71g,pIWabIlE,2020-0188,2021-10-31,01:40:22,03:17:41,NA,incomplete,false,NA,true,NA,3,10,NA,NA,NA,left,NA,NA,NA,present,NA,NA,m_s_025.jpg,yellow,m_l_063.jpg,yellow,within,NA,NaN,NA,NA,NA,NA,left,11924.199999988079,1,1,1491.300000011921
pIWabIlE,3z33ic0jd3zsmh7cb6nqm2m9m84v9l,31q0u3wydtsa961fgxajq2kf6qa71g,pIWabIlE,2020-0188,2021-10-31,01:40:22,03:17:41,NA,incomplete,false,true,NA,NA,4,0,NA,orange,m_l_068.jpg,NA,NA,NA,NA,NA,pleasant,unpleasant,NA,NA,NA,NA,NA,left,3440.40000003576,true,NA,NA,NA,NA,NA,NA,NA,NA
pIWabIlE,3z33ic0jd3zsmh7cb6nqm2m9m84v9l,31q0u3wydtsa961fgxajq2kf6qa71g,pIWabIlE,2020-0188,2021-10-31,01:40:22,03:17:41,NA,incomplete,false,true,NA,NA,4,1,NA,orange,m_s_084.jpg,NA,NA,NA,NA,NA,pleasant,unpleasant,NA,NA,NA,NA,NA,left,2004.70000004768,true,NA,NA,NA,NA,NA,NA,NA,NA
pIWabIlE,3z33ic0jd3zsmh7cb6nqm2m9m84v9l,31q0u3wydtsa961fgxajq2kf6qa71g,pIWabIlE,2020-0188,2021-10-31,01:40:22,03:17:41,NA,incomplete,false,true,NA,NA,4,2,NA,orange,m_l_062.jpg,NA,NA,NA,NA,NA,unpleasant,pleasant,NA,NA,NA,NA,NA,right,2057.39999997616,true,NA,NA,NA,NA,NA,NA,NA,NA
pIWabIlE,3z33ic0jd3zsmh7cb6nqm2m9m84v9l,31q0u3wydtsa961fgxajq2kf6qa71g,pIWabIlE,2020-0188,2021-10-31,01:40:22,03:17:41,NA,incomplete,false,true,NA,NA,4,3,NA,orange,m_l_066.jpg,NA,NA,NA,NA,NA,unpleasant,pleasant,NA,NA,NA,NA,NA,right,2101.79999995232,true,NA,NA,NA,NA,NA,NA,NA,NA
pIWabIlE,3z33ic0jd3zsmh7cb6nqm2m9m84v9l,31q0u3wydtsa961fgxajq2kf6qa71g,pIWabIlE,2020-0188,2021-10-31,01:40:22,03:17:41,NA,incomplete,false,true,NA,NA,4,4,NA,orange,n_s_004.jpg,NA,NA,NA,NA,NA,pleasant,unpleasant,NA,NA,NA,NA,NA,left,1571.39999997616,true,NA,NA,NA,NA,NA,NA,NA,NA
pIWabIlE,3z33ic0jd3zsmh7cb6nqm2m9m84v9l,31q0u3wydtsa961fgxajq2kf6qa71g,pIWabIlE,2020-0188,2021-10-31,01:40:22,03:17:41,NA,incomplete,false,true,NA,NA,4,5,NA,orange,n_s_028.jpg,NA,NA,NA,NA,NA,pleasant,unpleasant,NA,NA,NA,NA,NA,left,1807.10000002384,true,NA,NA,NA,NA,NA,NA,NA,NA
pIWabIlE,3z33ic0jd3zsmh7cb6nqm2m9m84v9l,31q0u3wydtsa961fgxajq2kf6qa71g,pIWabIlE,2020-0188,2021-10-31,01:40:22,03:17:41,NA,incomplete,false,true,NA,NA,4,6,NA,brown,n_l_057.jpg,NA,NA,NA,NA,NA,unpleasant,pleasant,NA,NA,NA,NA,NA,right,1963.40000003576,true,NA,NA,NA,NA,NA,NA,NA,NA
pIWabIlE,3z33ic0jd3zsmh7cb6nqm2m9m84v9l,31q0u3wydtsa961fgxajq2kf6qa71g,pIWabIlE,2020-0188,2021-10-31,01:40:22,03:17:41,NA,incomplete,false,true,NA,NA,4,7,NA,brown,m_l_046.jpg,NA,NA,NA,NA,NA,unpleasant,pleasant,NA,NA,NA,NA,NA,right,1359.59999996424,true,NA,NA,NA,NA,NA,NA,NA,NA
pIWabIlE,3z33ic0jd3zsmh7cb6nqm2m9m84v9l,31q0u3wydtsa961fgxajq2kf6qa71g,pIWabIlE,2020-0188,2021-10-31,01:40:22,03:17:41,NA,incomplete,false,true,NA,NA,4,8,NA,brown,m_l_064.jpg,NA,NA,NA,NA,NA,pleasant,unpleasant,NA,NA,NA,NA,NA,left,1389.40000003576,true,NA,NA,NA,NA,NA,NA,NA,NA
pIWabIlE,3z33ic0jd3zsmh7cb6nqm2m9m84v9l,31q0u3wydtsa961fgxajq2kf6qa71g,pIWabIlE,2020-0188,2021-10-31,01:40:22,03:17:41,NA,incomplete,false,true,NA,NA,4,9,NA,brown,m_l_108.jpg,NA,NA,NA,NA,NA,unpleasant,pleasant,NA,NA,NA,NA,NA,right,1401,true,NA,NA,NA,NA,NA,NA,NA,NA
pIWabIlE,3z33ic0jd3zsmh7cb6nqm2m9m84v9l,31q0u3wydtsa961fgxajq2kf6qa71g,pIWabIlE,2020-0188,2021-10-31,01:40:22,03:17:41,NA,incomplete,false,true,NA,NA,4,10,NA,brown,m_l_054.jpg,NA,NA,NA,NA,NA,unpleasant,pleasant,NA,NA,NA,NA,NA,right,1271.69999998808,true,NA,NA,NA,NA,NA,NA,NA,NA
pIWabIlE,3z33ic0jd3zsmh7cb6nqm2m9m84v9l,31q0u3wydtsa961fgxajq2kf6qa71g,pIWabIlE,2020-0188,2021-10-31,01:40:22,03:17:41,NA,incomplete,false,true,NA,NA,4,11,NA,brown,m_l_027.jpg,NA,NA,NA,NA,NA,unpleasant,pleasant,NA,NA,NA,NA,NA,right,1910.09999996424,true,NA,NA,NA,NA,NA,NA,NA,NA
pIWabIlE,3z33ic0jd3zsmh7cb6nqm2m9m84v9l,31q0u3wydtsa961fgxajq2kf6qa71g,pIWabIlE,2020-0188,2021-10-31,01:40:22,03:17:41,NA,incomplete,false,true,NA,NA,4,12,NA,yellow,n_l_063.jpg,NA,NA,NA,NA,NA,pleasant,unpleasant,NA,NA,NA,NA,NA,left,2369.69999998808,true,NA,NA,NA,NA,NA,NA,NA,NA
pIWabIlE,3z33ic0jd3zsmh7cb6nqm2m9m84v9l,31q0u3wydtsa961fgxajq2kf6qa71g,pIWabIlE,2020-0188,2021-10-31,01:40:22,03:17:41,NA,incomplete,false,true,NA,NA,4,13,NA,yellow,m_s_107.jpg,NA,NA,NA,NA,NA,unpleasant,pleasant,NA,NA,NA,NA,NA,right,1404.39999997616,true,NA,NA,NA,NA,NA,NA,NA,NA
pIWabIlE,3z33ic0jd3zsmh7cb6nqm2m9m84v9l,31q0u3wydtsa961fgxajq2kf6qa71g,pIWabIlE,2020-0188,2021-10-31,01:40:22,03:17:41,NA,incomplete,false,true,NA,NA,4,14,NA,yellow,m_l_086.jpg,NA,NA,NA,NA,NA,pleasant,unpleasant,NA,NA,NA,NA,NA,left,1325.10000002384,true,NA,NA,NA,NA,NA,NA,NA,NA
pIWabIlE,3z33ic0jd3zsmh7cb6nqm2m9m84v9l,31q0u3wydtsa961fgxajq2kf6qa71g,pIWabIlE,2020-0188,2021-10-31,01:40:22,03:17:41,NA,incomplete,false,true,NA,NA,4,15,NA,yellow,n_l_030.jpg,NA,NA,NA,NA,NA,unpleasant,pleasant,NA,NA,NA,NA,NA,right,1207,true,NA,NA,NA,NA,NA,NA,NA,NA
pIWabIlE,3z33ic0jd3zsmh7cb6nqm2m9m84v9l,31q0u3wydtsa961fgxajq2kf6qa71g,pIWabIlE,2020-0188,2021-10-31,01:40:22,03:17:41,NA,incomplete,false,true,NA,NA,4,16,NA,yellow,n_l_010.jpg,NA,NA,NA,NA,NA,pleasant,unpleasant,NA,NA,NA,NA,NA,left,1177.80000001192,true,NA,NA,NA,NA,NA,NA,NA,NA
pIWabIlE,3z33ic0jd3zsmh7cb6nqm2m9m84v9l,31q0u3wydtsa961fgxajq2kf6qa71g,pIWabIlE,2020-0188,2021-10-31,01:40:22,03:17:41,NA,incomplete,false,true,NA,NA,4,17,NA,yellow,n_l_008.jpg,NA,NA,NA,NA,NA,pleasant,unpleasant,NA,NA,NA,NA,NA,left,1136.79999995232,true,NA,NA,NA,NA,NA,NA,NA,NA
pIWabIlE,3z33ic0jd3zsmh7cb6nqm2m9m84v9l,31q0u3wydtsa961fgxajq2kf6qa71g,pIWabIlE,2020-0188,2021-10-31,01:40:22,03:17:41,NA,incomplete,false,true,NA,NA,4,18,NA,gray,n_s_100.jpg,NA,NA,NA,NA,NA,pleasant,unpleasant,NA,NA,NA,NA,NA,left,2684.30000001192,true,NA,NA,NA,NA,NA,NA,NA,NA
pIWabIlE,3z33ic0jd3zsmh7cb6nqm2m9m84v9l,31q0u3wydtsa961fgxajq2kf6qa71g,pIWabIlE,2020-0188,2021-10-31,01:40:22,03:17:41,NA,incomplete,false,true,NA,NA,4,19,NA,gray,m_l_081.jpg,NA,NA,NA,NA,NA,pleasant,unpleasant,NA,NA,NA,NA,NA,left,1193.10000002384,true,NA,NA,NA,NA,NA,NA,NA,NA
pIWabIlE,3z33ic0jd3zsmh7cb6nqm2m9m84v9l,31q0u3wydtsa961fgxajq2kf6qa71g,pIWabIlE,2020-0188,2021-10-31,01:40:22,03:17:41,NA,incomplete,false,true,NA,NA,4,20,NA,gray,m_s_101.jpg,NA,NA,NA,NA,NA,pleasant,unpleasant,NA,NA,NA,NA,NA,left,1598.89999997616,true,NA,NA,NA,NA,NA,NA,NA,NA
pIWabIlE,3z33ic0jd3zsmh7cb6nqm2m9m84v9l,31q0u3wydtsa961fgxajq2kf6qa71g,pIWabIlE,2020-0188,2021-10-31,01:40:22,03:17:41,NA,incomplete,false,true,NA,NA,4,21,NA,gray,m_s_099.jpg,NA,NA,NA,NA,NA,unpleasant,pleasant,NA,NA,NA,NA,NA,right,1537.69999998808,true,NA,NA,NA,NA,NA,NA,NA,NA
pIWabIlE,3z33ic0jd3zsmh7cb6nqm2m9m84v9l,31q0u3wydtsa961fgxajq2kf6qa71g,pIWabIlE,2020-0188,2021-10-31,01:40:22,03:17:41,NA,incomplete,false,true,NA,NA,4,22,NA,gray,n_s_099.jpg,NA,NA,NA,NA,NA,unpleasant,pleasant,NA,NA,NA,NA,NA,right,1990.90000003576,true,NA,NA,NA,NA,NA,NA,NA,NA
pIWabIlE,3z33ic0jd3zsmh7cb6nqm2m9m84v9l,31q0u3wydtsa961fgxajq2kf6qa71g,pIWabIlE,2020-0188,2021-10-31,01:40:22,03:17:41,NA,incomplete,false,true,NA,NA,4,23,NA,gray,n_s_072.jpg,NA,NA,NA,NA,NA,unpleasant,pleasant,NA,NA,NA,NA,NA,right,1141,true,NA,NA,NA,NA,NA,NA,NA,NA
pIWabIlE,3z33ic0jd3zsmh7cb6nqm2m9m84v9l,31q0u3wydtsa961fgxajq2kf6qa71g,pIWabIlE,2020-0188,2021-10-31,01:40:22,03:17:41,NA,incomplete,false,true,NA,NA,4,24,NA,blue,m_l_069.jpg,NA,NA,NA,NA,NA,pleasant,unpleasant,NA,NA,NA,NA,NA,left,1545,true,NA,NA,NA,NA,NA,NA,NA,NA
pIWabIlE,3z33ic0jd3zsmh7cb6nqm2m9m84v9l,31q0u3wydtsa961fgxajq2kf6qa71g,pIWabIlE,2020-0188,2021-10-31,01:40:22,03:17:41,NA,incomplete,false,true,NA,NA,4,25,NA,blue,n_s_040.jpg,NA,NA,NA,NA,NA,unpleasant,pleasant,NA,NA,NA,NA,NA,right,1380.10000002384,true,NA,NA,NA,NA,NA,NA,NA,NA
pIWabIlE,3z33ic0jd3zsmh7cb6nqm2m9m84v9l,31q0u3wydtsa961fgxajq2kf6qa71g,pIWabIlE,2020-0188,2021-10-31,01:40:22,03:17:41,NA,incomplete,false,true,NA,NA,4,26,NA,blue,n_s_002.jpg,NA,NA,NA,NA,NA,unpleasant,pleasant,NA,NA,NA,NA,NA,right,914.5,true,NA,NA,NA,NA,NA,NA,NA,NA
pIWabIlE,3z33ic0jd3zsmh7cb6nqm2m9m84v9l,31q0u3wydtsa961fgxajq2kf6qa71g,pIWabIlE,2020-0188,2021-10-31,01:40:22,03:17:41,NA,incomplete,false,true,NA,NA,4,27,NA,blue,m_l_102.jpg,NA,NA,NA,NA,NA,unpleasant,pleasant,NA,NA,NA,NA,NA,right,1430.5,true,NA,NA,NA,NA,NA,NA,NA,NA
pIWabIlE,3z33ic0jd3zsmh7cb6nqm2m9m84v9l,31q0u3wydtsa961fgxajq2kf6qa71g,pIWabIlE,2020-0188,2021-10-31,01:40:22,03:17:41,NA,incomplete,false,true,NA,NA,4,28,NA,blue,n_s_026.jpg,NA,NA,NA,NA,NA,pleasant,unpleasant,NA,NA,NA,NA,NA,right,1387.69999998808,true,NA,NA,NA,NA,NA,NA,NA,NA
pIWabIlE,3z33ic0jd3zsmh7cb6nqm2m9m84v9l,31q0u3wydtsa961fgxajq2kf6qa71g,pIWabIlE,2020-0188,2021-10-31,01:40:22,03:17:41,NA,incomplete,false,true,NA,NA,4,29,NA,blue,m_s_066.jpg,NA,NA,NA,NA,NA,pleasant,unpleasant,NA,NA,NA,NA,NA,left,1847.10000002384,true,NA,NA,NA,NA,NA,NA,NA,NA
pIWabIlE,3z33ic0jd3zsmh7cb6nqm2m9m84v9l,31q0u3wydtsa961fgxajq2kf6qa71g,pIWabIlE,2020-0188,2021-10-31,01:40:22,03:17:41,NA,incomplete,false,true,NA,NA,4,30,NA,red,n_l_087.jpg,NA,NA,NA,NA,NA,pleasant,unpleasant,NA,NA,NA,NA,NA,left,2005.09999996424,true,NA,NA,NA,NA,NA,NA,NA,NA
pIWabIlE,3z33ic0jd3zsmh7cb6nqm2m9m84v9l,31q0u3wydtsa961fgxajq2kf6qa71g,pIWabIlE,2020-0188,2021-10-31,01:40:22,03:17:41,NA,incomplete,false,true,NA,NA,4,31,NA,red,m_s_047.jpg,NA,NA,NA,NA,NA,unpleasant,pleasant,NA,NA,NA,NA,NA,right,1371.5,true,NA,NA,NA,NA,NA,NA,NA,NA
pIWabIlE,3z33ic0jd3zsmh7cb6nqm2m9m84v9l,31q0u3wydtsa961fgxajq2kf6qa71g,pIWabIlE,2020-0188,2021-10-31,01:40:22,03:17:41,NA,incomplete,false,true,NA,NA,4,32,NA,red,n_l_094.jpg,NA,NA,NA,NA,NA,unpleasant,pleasant,NA,NA,NA,NA,NA,right,1007.09999996424,true,NA,NA,NA,NA,NA,NA,NA,NA
pIWabIlE,3z33ic0jd3zsmh7cb6nqm2m9m84v9l,31q0u3wydtsa961fgxajq2kf6qa71g,pIWabIlE,2020-0188,2021-10-31,01:40:22,03:17:41,NA,incomplete,false,true,NA,NA,4,33,NA,red,m_l_038.jpg,NA,NA,NA,NA,NA,unpleasant,pleasant,NA,NA,NA,NA,NA,right,1673.60000002384,true,NA,NA,NA,NA,NA,NA,NA,NA
pIWabIlE,3z33ic0jd3zsmh7cb6nqm2m9m84v9l,31q0u3wydtsa961fgxajq2kf6qa71g,pIWabIlE,2020-0188,2021-10-31,01:40:22,03:17:41,NA,incomplete,false,true,NA,NA,4,34,NA,red,m_l_096.jpg,NA,NA,NA,NA,NA,unpleasant,pleasant,NA,NA,NA,NA,NA,right,1136.30000001192,true,NA,NA,NA,NA,NA,NA,NA,NA
pIWabIlE,3z33ic0jd3zsmh7cb6nqm2m9m84v9l,31q0u3wydtsa961fgxajq2kf6qa71g,pIWabIlE,2020-0188,2021-10-31,01:40:22,03:17:41,NA,incomplete,false,true,NA,NA,4,35,NA,red,n_s_019.jpg,NA,NA,NA,NA,NA,pleasant,unpleasant,NA,NA,NA,NA,NA,left,1453.5,true,NA,NA,NA,NA,NA,NA,NA,NA
pIWabIlE,3z33ic0jd3zsmh7cb6nqm2m9m84v9l,31q0u3wydtsa961fgxajq2kf6qa71g,pIWabIlE,2020-0188,2021-10-31,01:40:22,03:17:41,NA,incomplete,false,NA,NA,true,4,0,NA,NA,NA,left,n_s_072.jpg,gray,blue,NA,NA,NA,NA,NA,NA,NA,NA,NA,NaN,NA,3058.600000023842,left,1,NA,NA,NA,NA,NA
pIWabIlE,3z33ic0jd3zsmh7cb6nqm2m9m84v9l,31q0u3wydtsa961fgxajq2kf6qa71g,pIWabIlE,2020-0188,2021-10-31,01:40:22,03:17:41,NA,incomplete,false,NA,NA,true,4,1,NA,NA,NA,right,n_s_099.jpg,yellow,gray,NA,NA,NA,NA,NA,NA,NA,NA,NA,NaN,NA,2985.199999988079,right,1,NA,NA,NA,NA,NA
pIWabIlE,3z33ic0jd3zsmh7cb6nqm2m9m84v9l,31q0u3wydtsa961fgxajq2kf6qa71g,pIWabIlE,2020-0188,2021-10-31,01:40:22,03:17:41,NA,incomplete,false,NA,NA,true,4,2,NA,NA,NA,right,m_l_054.jpg,yellow,brown,NA,NA,NA,NA,NA,NA,NA,NA,NA,NaN,NA,2861.5,right,1,NA,NA,NA,NA,NA
pIWabIlE,3z33ic0jd3zsmh7cb6nqm2m9m84v9l,31q0u3wydtsa961fgxajq2kf6qa71g,pIWabIlE,2020-0188,2021-10-31,01:40:22,03:17:41,NA,incomplete,false,NA,NA,true,4,3,NA,NA,NA,left,n_s_026.jpg,blue,red,NA,NA,NA,NA,NA,NA,NA,NA,NA,NaN,NA,2518,left,1,NA,NA,NA,NA,NA
pIWabIlE,3z33ic0jd3zsmh7cb6nqm2m9m84v9l,31q0u3wydtsa961fgxajq2kf6qa71g,pIWabIlE,2020-0188,2021-10-31,01:40:22,03:17:41,NA,incomplete,false,NA,NA,true,4,4,NA,NA,NA,left,n_s_028.jpg,orange,brown,NA,NA,NA,NA,NA,NA,NA,NA,NA,NaN,NA,2075.800000011921,left,1,NA,NA,NA,NA,NA
pIWabIlE,3z33ic0jd3zsmh7cb6nqm2m9m84v9l,31q0u3wydtsa961fgxajq2kf6qa71g,pIWabIlE,2020-0188,2021-10-31,01:40:22,03:17:41,NA,incomplete,false,NA,NA,true,4,5,NA,NA,NA,right,n_l_094.jpg,blue,red,NA,NA,NA,NA,NA,NA,NA,NA,NA,NaN,NA,2540,right,1,NA,NA,NA,NA,NA
pIWabIlE,3z33ic0jd3zsmh7cb6nqm2m9m84v9l,31q0u3wydtsa961fgxajq2kf6qa71g,pIWabIlE,2020-0188,2021-10-31,01:40:22,03:17:41,NA,incomplete,false,NA,NA,true,4,6,NA,NA,NA,right,n_s_002.jpg,gray,blue,NA,NA,NA,NA,NA,NA,NA,NA,NA,NaN,NA,2263.399999976158,right,1,NA,NA,NA,NA,NA
pIWabIlE,3z33ic0jd3zsmh7cb6nqm2m9m84v9l,31q0u3wydtsa961fgxajq2kf6qa71g,pIWabIlE,2020-0188,2021-10-31,01:40:22,03:17:41,NA,incomplete,false,NA,NA,true,4,7,NA,NA,NA,right,m_l_086.jpg,brown,yellow,NA,NA,NA,NA,NA,NA,NA,NA,NA,NaN,NA,1882.1000000238419,right,1,NA,NA,NA,NA,NA
pIWabIlE,3z33ic0jd3zsmh7cb6nqm2m9m84v9l,31q0u3wydtsa961fgxajq2kf6qa71g,pIWabIlE,2020-0188,2021-10-31,01:40:22,03:17:41,NA,incomplete,false,NA,NA,true,4,8,NA,NA,NA,left,n_s_019.jpg,red,blue,NA,NA,NA,NA,NA,NA,NA,NA,NA,NaN,NA,4058.199999988079,right,0,NA,NA,NA,NA,NA
pIWabIlE,3z33ic0jd3zsmh7cb6nqm2m9m84v9l,31q0u3wydtsa961fgxajq2kf6qa71g,pIWabIlE,2020-0188,2021-10-31,01:40:22,03:17:41,NA,incomplete,false,NA,NA,true,4,9,NA,NA,NA,left,m_l_046.jpg,brown,yellow,NA,NA,NA,NA,NA,NA,NA,NA,NA,NaN,NA,2371,left,1,NA,NA,NA,NA,NA
pIWabIlE,3z33ic0jd3zsmh7cb6nqm2m9m84v9l,31q0u3wydtsa961fgxajq2kf6qa71g,pIWabIlE,2020-0188,2021-10-31,01:40:22,03:17:41,NA,incomplete,false,NA,NA,true,4,10,NA,NA,NA,right,m_l_027.jpg,orange,brown,NA,NA,NA,NA,NA,NA,NA,NA,NA,NaN,NA,7944.600000023842,left,0,NA,NA,NA,NA,NA
pIWabIlE,3z33ic0jd3zsmh7cb6nqm2m9m84v9l,31q0u3wydtsa961fgxajq2kf6qa71g,pIWabIlE,2020-0188,2021-10-31,01:40:22,03:17:41,NA,incomplete,false,NA,NA,true,4,11,NA,NA,NA,right,n_s_040.jpg,red,blue,NA,NA,NA,NA,NA,NA,NA,NA,NA,NaN,NA,3015.099999964237,right,1,NA,NA,NA,NA,NA
pIWabIlE,3z33ic0jd3zsmh7cb6nqm2m9m84v9l,31q0u3wydtsa961fgxajq2kf6qa71g,pIWabIlE,2020-0188,2021-10-31,01:40:22,03:17:41,NA,incomplete,false,NA,NA,true,4,12,NA,NA,NA,right,m_s_047.jpg,blue,red,NA,NA,NA,NA,NA,NA,NA,NA,NA,NaN,NA,3490.199999988079,right,1,NA,NA,NA,NA,NA
pIWabIlE,3z33ic0jd3zsmh7cb6nqm2m9m84v9l,31q0u3wydtsa961fgxajq2kf6qa71g,pIWabIlE,2020-0188,2021-10-31,01:40:22,03:17:41,NA,incomplete,false,NA,NA,true,4,13,NA,NA,NA,left,m_l_064.jpg,brown,orange,NA,NA,NA,NA,NA,NA,NA,NA,NA,NaN,NA,3123.900000035763,left,1,NA,NA,NA,NA,NA
pIWabIlE,3z33ic0jd3zsmh7cb6nqm2m9m84v9l,31q0u3wydtsa961fgxajq2kf6qa71g,pIWabIlE,2020-0188,2021-10-31,01:40:22,03:17:41,NA,incomplete,false,NA,NA,true,4,14,NA,NA,NA,right,m_s_107.jpg,gray,yellow,NA,NA,NA,NA,NA,NA,NA,NA,NA,NaN,NA,2412.699999988079,right,1,NA,NA,NA,NA,NA
pIWabIlE,3z33ic0jd3zsmh7cb6nqm2m9m84v9l,31q0u3wydtsa961fgxajq2kf6qa71g,pIWabIlE,2020-0188,2021-10-31,01:40:22,03:17:41,NA,incomplete,false,NA,NA,true,4,15,NA,NA,NA,left,n_s_004.jpg,orange,brown,NA,NA,NA,NA,NA,NA,NA,NA,NA,NaN,NA,2827.399999976158,left,1,NA,NA,NA,NA,NA
pIWabIlE,3z33ic0jd3zsmh7cb6nqm2m9m84v9l,31q0u3wydtsa961fgxajq2kf6qa71g,pIWabIlE,2020-0188,2021-10-31,01:40:22,03:17:41,NA,incomplete,false,NA,NA,true,4,16,NA,NA,NA,right,m_s_101.jpg,yellow,gray,NA,NA,NA,NA,NA,NA,NA,NA,NA,NaN,NA,1882.9000000357628,right,1,NA,NA,NA,NA,NA
pIWabIlE,3z33ic0jd3zsmh7cb6nqm2m9m84v9l,31q0u3wydtsa961fgxajq2kf6qa71g,pIWabIlE,2020-0188,2021-10-31,01:40:22,03:17:41,NA,incomplete,false,NA,NA,true,4,17,NA,NA,NA,left,n_l_008.jpg,yellow,gray,NA,NA,NA,NA,NA,NA,NA,NA,NA,NaN,NA,2068.400000035763,left,1,NA,NA,NA,NA,NA
pIWabIlE,3z33ic0jd3zsmh7cb6nqm2m9m84v9l,31q0u3wydtsa961fgxajq2kf6qa71g,pIWabIlE,2020-0188,2021-10-31,01:40:22,03:17:41,NA,incomplete,false,NA,NA,true,4,18,NA,NA,NA,left,m_l_081.jpg,gray,blue,NA,NA,NA,NA,NA,NA,NA,NA,NA,NaN,NA,1868.8999999761581,left,1,NA,NA,NA,NA,NA
pIWabIlE,3z33ic0jd3zsmh7cb6nqm2m9m84v9l,31q0u3wydtsa961fgxajq2kf6qa71g,pIWabIlE,2020-0188,2021-10-31,01:40:22,03:17:41,NA,incomplete,false,NA,NA,true,4,19,NA,NA,NA,right,m_s_084.jpg,brown,orange,NA,NA,NA,NA,NA,NA,NA,NA,NA,NaN,NA,1874.8999999761581,right,1,NA,NA,NA,NA,NA
pIWabIlE,3z33ic0jd3zsmh7cb6nqm2m9m84v9l,31q0u3wydtsa961fgxajq2kf6qa71g,pIWabIlE,2020-0188,2021-10-31,01:40:22,03:17:41,NA,incomplete,false,NA,NA,true,4,20,NA,NA,NA,right,n_l_010.jpg,gray,yellow,NA,NA,NA,NA,NA,NA,NA,NA,NA,NaN,NA,1755.8999999761581,right,1,NA,NA,NA,NA,NA
pIWabIlE,3z33ic0jd3zsmh7cb6nqm2m9m84v9l,31q0u3wydtsa961fgxajq2kf6qa71g,pIWabIlE,2020-0188,2021-10-31,01:40:22,03:17:41,NA,incomplete,false,NA,NA,true,4,21,NA,NA,NA,left,m_s_066.jpg,blue,red,NA,NA,NA,NA,NA,NA,NA,NA,NA,NaN,NA,3236.300000011921,left,1,NA,NA,NA,NA,NA
pIWabIlE,3z33ic0jd3zsmh7cb6nqm2m9m84v9l,31q0u3wydtsa961fgxajq2kf6qa71g,pIWabIlE,2020-0188,2021-10-31,01:40:22,03:17:41,NA,incomplete,false,NA,true,NA,4,0,NA,NA,NA,left,NA,NA,NA,present,NA,NA,m_s_047.jpg,red,n_s_019.jpg,red,within,NA,NaN,NA,NA,NA,NA,left,4166,1,1,6160.899999976158
pIWabIlE,3z33ic0jd3zsmh7cb6nqm2m9m84v9l,31q0u3wydtsa961fgxajq2kf6qa71g,pIWabIlE,2020-0188,2021-10-31,01:40:22,03:17:41,NA,incomplete,false,NA,true,NA,4,1,NA,NA,NA,left,NA,NA,NA,present,NA,NA,n_s_040.jpg,blue,m_s_066.jpg,blue,within,NA,NaN,NA,NA,NA,NA,right,9343.899999976158,0,1,2289.2999999523163
pIWabIlE,3z33ic0jd3zsmh7cb6nqm2m9m84v9l,31q0u3wydtsa961fgxajq2kf6qa71g,pIWabIlE,2020-0188,2021-10-31,01:40:22,03:17:41,NA,incomplete,false,NA,true,NA,4,2,NA,NA,NA,right,NA,NA,NA,present,NA,NA,n_s_028.jpg,orange,m_s_084.jpg,orange,within,NA,NaN,NA,NA,NA,NA,right,5191.900000035763,1,0,2524
pIWabIlE,3z33ic0jd3zsmh7cb6nqm2m9m84v9l,31q0u3wydtsa961fgxajq2kf6qa71g,pIWabIlE,2020-0188,2021-10-31,01:40:22,03:17:41,NA,incomplete,false,NA,true,NA,4,3,NA,NA,NA,right,NA,NA,NA,present,NA,NA,n_l_094.jpg,red,n_s_026.jpg,blue,between,NA,NaN,NA,NA,NA,NA,right,7876.5,1,2,3292
pIWabIlE,3z33ic0jd3zsmh7cb6nqm2m9m84v9l,31q0u3wydtsa961fgxajq2kf6qa71g,pIWabIlE,2020-0188,2021-10-31,01:40:22,03:17:41,NA,incomplete,false,NA,true,NA,4,4,NA,NA,NA,right,NA,NA,NA,present,NA,NA,n_s_072.jpg,gray,m_l_081.jpg,gray,within,NA,NaN,NA,NA,NA,NA,left,10861,0,0,2387.400000035763
pIWabIlE,3z33ic0jd3zsmh7cb6nqm2m9m84v9l,31q0u3wydtsa961fgxajq2kf6qa71g,pIWabIlE,2020-0188,2021-10-31,01:40:22,03:17:41,NA,incomplete,false,NA,true,NA,4,5,NA,NA,NA,left,NA,NA,NA,present,NA,NA,n_l_010.jpg,yellow,m_s_101.jpg,gray,between,NA,NaN,NA,NA,NA,NA,left,9330.5,1,2,3546.399999976158
pIWabIlE,3z33ic0jd3zsmh7cb6nqm2m9m84v9l,31q0u3wydtsa961fgxajq2kf6qa71g,pIWabIlE,2020-0188,2021-10-31,01:40:22,03:17:41,NA,incomplete,false,NA,true,NA,4,6,NA,NA,NA,right,NA,NA,NA,present,NA,NA,m_l_064.jpg,brown,n_s_004.jpg,orange,between,NA,NaN,NA,NA,NA,NA,right,10564,1,2,3109.300000011921
pIWabIlE,3z33ic0jd3zsmh7cb6nqm2m9m84v9l,31q0u3wydtsa961fgxajq2kf6qa71g,pIWabIlE,2020-0188,2021-10-31,01:40:22,03:17:41,NA,incomplete,false,NA,true,NA,4,7,NA,NA,NA,left,NA,NA,NA,present,NA,NA,m_l_054.jpg,brown,m_l_086.jpg,yellow,between,NA,NaN,NA,NA,NA,NA,right,6396.100000023842,0,2,3916.5
pIWabIlE,3z33ic0jd3zsmh7cb6nqm2m9m84v9l,31q0u3wydtsa961fgxajq2kf6qa71g,pIWabIlE,2020-0188,2021-10-31,01:40:22,03:17:41,NA,incomplete,false,NA,true,NA,4,8,NA,NA,NA,left,NA,NA,NA,present,NA,NA,m_l_046.jpg,brown,m_l_027.jpg,brown,within,NA,NaN,NA,NA,NA,NA,right,7122,0,1,2269.800000011921
pIWabIlE,3z33ic0jd3zsmh7cb6nqm2m9m84v9l,31q0u3wydtsa961fgxajq2kf6qa71g,pIWabIlE,2020-0188,2021-10-31,01:40:22,03:17:41,NA,incomplete,false,NA,true,NA,4,9,NA,NA,NA,left,NA,NA,NA,present,NA,NA,n_s_099.jpg,gray,n_s_002.jpg,blue,between,NA,NaN,NA,NA,NA,NA,right,3953.600000023842,0,2,2636.400000035763
pIWabIlE,3z33ic0jd3zsmh7cb6nqm2m9m84v9l,31q0u3wydtsa961fgxajq2kf6qa71g,pIWabIlE,2020-0188,2021-10-31,01:40:22,03:17:41,NA,incomplete,false,NA,true,NA,4,10,NA,NA,NA,left,NA,NA,NA,present,NA,NA,m_s_107.jpg,yellow,n_l_008.jpg,yellow,within,NA,NaN,NA,NA,NA,NA,left,5858.800000011921,1,0,2010.5
pIWabIlE,3z33ic0jd3zsmh7cb6nqm2m9m84v9l,31q0u3wydtsa961fgxajq2kf6qa71g,pIWabIlE,2020-0188,2021-10-31,01:40:22,03:17:41,NA,incomplete,false,true,NA,NA,5,0,NA,green,m_s_005.jpg,NA,NA,NA,NA,NA,pleasant,unpleasant,NA,NA,NA,NA,NA,left,3224.69999998808,true,NA,NA,NA,NA,NA,NA,NA,NA
pIWabIlE,3z33ic0jd3zsmh7cb6nqm2m9m84v9l,31q0u3wydtsa961fgxajq2kf6qa71g,pIWabIlE,2020-0188,2021-10-31,01:40:22,03:17:41,NA,incomplete,false,true,NA,NA,5,1,NA,green,m_l_074.jpg,NA,NA,NA,NA,NA,pleasant,unpleasant,NA,NA,NA,NA,NA,left,1605.79999995232,true,NA,NA,NA,NA,NA,NA,NA,NA
pIWabIlE,3z33ic0jd3zsmh7cb6nqm2m9m84v9l,31q0u3wydtsa961fgxajq2kf6qa71g,pIWabIlE,2020-0188,2021-10-31,01:40:22,03:17:41,NA,incomplete,false,true,NA,NA,5,2,NA,green,n_l_106.jpg,NA,NA,NA,NA,NA,unpleasant,pleasant,NA,NA,NA,NA,NA,right,1389,true,NA,NA,NA,NA,NA,NA,NA,NA
pIWabIlE,3z33ic0jd3zsmh7cb6nqm2m9m84v9l,31q0u3wydtsa961fgxajq2kf6qa71g,pIWabIlE,2020-0188,2021-10-31,01:40:22,03:17:41,NA,incomplete,false,true,NA,NA,5,3,NA,green,m_l_012.jpg,NA,NA,NA,NA,NA,pleasant,unpleasant,NA,NA,NA,NA,NA,left,1248.40000003576,true,NA,NA,NA,NA,NA,NA,NA,NA
pIWabIlE,3z33ic0jd3zsmh7cb6nqm2m9m84v9l,31q0u3wydtsa961fgxajq2kf6qa71g,pIWabIlE,2020-0188,2021-10-31,01:40:22,03:17:41,NA,incomplete,false,true,NA,NA,5,4,NA,green,m_s_114.jpg,NA,NA,NA,NA,NA,pleasant,unpleasant,NA,NA,NA,NA,NA,left,2147.80000001192,true,NA,NA,NA,NA,NA,NA,NA,NA
pIWabIlE,3z33ic0jd3zsmh7cb6nqm2m9m84v9l,31q0u3wydtsa961fgxajq2kf6qa71g,pIWabIlE,2020-0188,2021-10-31,01:40:22,03:17:41,NA,incomplete,false,true,NA,NA,5,5,NA,green,m_s_088.jpg,NA,NA,NA,NA,NA,pleasant,unpleasant,NA,NA,NA,NA,NA,left,2138.89999997616,true,NA,NA,NA,NA,NA,NA,NA,NA
pIWabIlE,3z33ic0jd3zsmh7cb6nqm2m9m84v9l,31q0u3wydtsa961fgxajq2kf6qa71g,pIWabIlE,2020-0188,2021-10-31,01:40:22,03:17:41,NA,incomplete,false,true,NA,NA,5,6,NA,black,m_l_055.jpg,NA,NA,NA,NA,NA,pleasant,unpleasant,NA,NA,NA,NA,NA,left,3245.70000004768,true,NA,NA,NA,NA,NA,NA,NA,NA
pIWabIlE,3z33ic0jd3zsmh7cb6nqm2m9m84v9l,31q0u3wydtsa961fgxajq2kf6qa71g,pIWabIlE,2020-0188,2021-10-31,01:40:22,03:17:41,NA,incomplete,false,true,NA,NA,5,7,NA,black,m_s_001.jpg,NA,NA,NA,NA,NA,pleasant,unpleasant,NA,NA,NA,NA,NA,left,2203.90000003576,true,NA,NA,NA,NA,NA,NA,NA,NA
pIWabIlE,3z33ic0jd3zsmh7cb6nqm2m9m84v9l,31q0u3wydtsa961fgxajq2kf6qa71g,pIWabIlE,2020-0188,2021-10-31,01:40:22,03:17:41,NA,incomplete,false,true,NA,NA,5,8,NA,black,n_s_117.jpg,NA,NA,NA,NA,NA,pleasant,unpleasant,NA,NA,NA,NA,NA,left,2695.80000001192,true,NA,NA,NA,NA,NA,NA,NA,NA
pIWabIlE,3z33ic0jd3zsmh7cb6nqm2m9m84v9l,31q0u3wydtsa961fgxajq2kf6qa71g,pIWabIlE,2020-0188,2021-10-31,01:40:22,03:17:41,NA,incomplete,false,true,NA,NA,5,9,NA,black,m_l_045.jpg,NA,NA,NA,NA,NA,pleasant,unpleasant,NA,NA,NA,NA,NA,left,1258.59999996424,true,NA,NA,NA,NA,NA,NA,NA,NA
pIWabIlE,3z33ic0jd3zsmh7cb6nqm2m9m84v9l,31q0u3wydtsa961fgxajq2kf6qa71g,pIWabIlE,2020-0188,2021-10-31,01:40:22,03:17:41,NA,incomplete,false,true,NA,NA,5,10,NA,black,n_s_015.jpg,NA,NA,NA,NA,NA,unpleasant,pleasant,NA,NA,NA,NA,NA,right,1617.19999998808,true,NA,NA,NA,NA,NA,NA,NA,NA
pIWabIlE,3z33ic0jd3zsmh7cb6nqm2m9m84v9l,31q0u3wydtsa961fgxajq2kf6qa71g,pIWabIlE,2020-0188,2021-10-31,01:40:22,03:17:41,NA,incomplete,false,true,NA,NA,5,11,NA,black,n_s_112.jpg,NA,NA,NA,NA,NA,pleasant,unpleasant,NA,NA,NA,NA,NA,left,1160,true,NA,NA,NA,NA,NA,NA,NA,NA
pIWabIlE,3z33ic0jd3zsmh7cb6nqm2m9m84v9l,31q0u3wydtsa961fgxajq2kf6qa71g,pIWabIlE,2020-0188,2021-10-31,01:40:22,03:17:41,NA,incomplete,false,true,NA,NA,5,12,NA,white,n_s_058.jpg,NA,NA,NA,NA,NA,pleasant,unpleasant,NA,NA,NA,NA,NA,left,2721.40000003576,true,NA,NA,NA,NA,NA,NA,NA,NA
pIWabIlE,3z33ic0jd3zsmh7cb6nqm2m9m84v9l,31q0u3wydtsa961fgxajq2kf6qa71g,pIWabIlE,2020-0188,2021-10-31,01:40:22,03:17:41,NA,incomplete,false,true,NA,NA,5,13,NA,white,m_l_049.jpg,NA,NA,NA,NA,NA,unpleasant,pleasant,NA,NA,NA,NA,NA,right,2231.80000001192,true,NA,NA,NA,NA,NA,NA,NA,NA
pIWabIlE,3z33ic0jd3zsmh7cb6nqm2m9m84v9l,31q0u3wydtsa961fgxajq2kf6qa71g,pIWabIlE,2020-0188,2021-10-31,01:40:22,03:17:41,NA,incomplete,false,true,NA,NA,5,14,NA,white,n_s_107.jpg,NA,NA,NA,NA,NA,pleasant,unpleasant,NA,NA,NA,NA,NA,left,1196.89999997616,true,NA,NA,NA,NA,NA,NA,NA,NA
pIWabIlE,3z33ic0jd3zsmh7cb6nqm2m9m84v9l,31q0u3wydtsa961fgxajq2kf6qa71g,pIWabIlE,2020-0188,2021-10-31,01:40:22,03:17:41,NA,incomplete,false,true,NA,NA,5,15,NA,white,m_l_014.jpg,NA,NA,NA,NA,NA,pleasant,unpleasant,NA,NA,NA,NA,NA,left,1409,true,NA,NA,NA,NA,NA,NA,NA,NA
pIWabIlE,3z33ic0jd3zsmh7cb6nqm2m9m84v9l,31q0u3wydtsa961fgxajq2kf6qa71g,pIWabIlE,2020-0188,2021-10-31,01:40:22,03:17:41,NA,incomplete,false,true,NA,NA,5,16,NA,white,m_l_041.jpg,NA,NA,NA,NA,NA,unpleasant,pleasant,NA,NA,NA,NA,NA,right,1195.60000002384,true,NA,NA,NA,NA,NA,NA,NA,NA
