workerId,hitId,assignmentId,subject,studyid,exp_date,exp_start,exp_end,time_start,time_end,practice,encoding,memory,association,block,trial,event_order,event,stim,answer,object,left_context,right_context,context_type,label_left,label_right,left_image,left_event,right_image,right_event,condition,response,response_time,response_acc,association_response_time,association_response,association_acc,order_response,order_response_time,order_acc,distance_response,distance_response_time
kISNaDhx,375vsr8fwzmfz1886kcfytzzg59zr5,32at8r96gpmc11c56oiewvl841msup,kISNaDhx,2020-0188,2021-10-31,03:41:48,05:03:29,NA,incomplete,true,true,NA,NA,0,0,NA,orange,m_s_059.jpg,NA,NA,NA,NA,NA,unpleasant,pleasant,NA,NA,NA,NA,NA,right,1912.10000000149,true,NA,NA,NA,NA,NA,NA,NA,NA
kISNaDhx,375vsr8fwzmfz1886kcfytzzg59zr5,32at8r96gpmc11c56oiewvl841msup,kISNaDhx,2020-0188,2021-10-31,03:41:48,05:03:29,NA,incomplete,true,true,NA,NA,0,1,NA,orange,m_l_073.jpg,NA,NA,NA,NA,NA,unpleasant,pleasant,NA,NA,NA,NA,NA,right,1623.40000000596,true,NA,NA,NA,NA,NA,NA,NA,NA
kISNaDhx,375vsr8fwzmfz1886kcfytzzg59zr5,32at8r96gpmc11c56oiewvl841msup,kISNaDhx,2020-0188,2021-10-31,03:41:48,05:03:29,NA,incomplete,true,true,NA,NA,0,2,NA,orange,n_s_029.jpg,NA,NA,NA,NA,NA,unpleasant,pleasant,NA,NA,NA,NA,NA,right,1111.39999999851,true,NA,NA,NA,NA,NA,NA,NA,NA
kISNaDhx,375vsr8fwzmfz1886kcfytzzg59zr5,32at8r96gpmc11c56oiewvl841msup,kISNaDhx,2020-0188,2021-10-31,03:41:48,05:03:29,NA,incomplete,true,true,NA,NA,0,3,NA,orange,n_s_089.jpg,NA,NA,NA,NA,NA,unpleasant,pleasant,NA,NA,NA,NA,NA,right,1120.70000000298,true,NA,NA,NA,NA,NA,NA,NA,NA
kISNaDhx,375vsr8fwzmfz1886kcfytzzg59zr5,32at8r96gpmc11c56oiewvl841msup,kISNaDhx,2020-0188,2021-10-31,03:41:48,05:03:29,NA,incomplete,true,true,NA,NA,0,4,NA,orange,n_l_091.jpg,NA,NA,NA,NA,NA,pleasant,unpleasant,NA,NA,NA,NA,NA,right,1040.89999999851,true,NA,NA,NA,NA,NA,NA,NA,NA
kISNaDhx,375vsr8fwzmfz1886kcfytzzg59zr5,32at8r96gpmc11c56oiewvl841msup,kISNaDhx,2020-0188,2021-10-31,03:41:48,05:03:29,NA,incomplete,true,true,NA,NA,0,5,NA,orange,m_s_085.jpg,NA,NA,NA,NA,NA,pleasant,unpleasant,NA,NA,NA,NA,NA,left,1385,true,NA,NA,NA,NA,NA,NA,NA,NA
kISNaDhx,375vsr8fwzmfz1886kcfytzzg59zr5,32at8r96gpmc11c56oiewvl841msup,kISNaDhx,2020-0188,2021-10-31,03:41:48,05:03:29,NA,incomplete,true,true,NA,NA,0,6,NA,green,m_l_069.jpg,NA,NA,NA,NA,NA,pleasant,unpleasant,NA,NA,NA,NA,NA,right,860.5,true,NA,NA,NA,NA,NA,NA,NA,NA
kISNaDhx,375vsr8fwzmfz1886kcfytzzg59zr5,32at8r96gpmc11c56oiewvl841msup,kISNaDhx,2020-0188,2021-10-31,03:41:48,05:03:29,NA,incomplete,true,true,NA,NA,0,7,NA,green,m_s_011.jpg,NA,NA,NA,NA,NA,pleasant,unpleasant,NA,NA,NA,NA,NA,right,850.29999999702,true,NA,NA,NA,NA,NA,NA,NA,NA
kISNaDhx,375vsr8fwzmfz1886kcfytzzg59zr5,32at8r96gpmc11c56oiewvl841msup,kISNaDhx,2020-0188,2021-10-31,03:41:48,05:03:29,NA,incomplete,true,true,NA,NA,0,8,NA,green,m_l_009.jpg,NA,NA,NA,NA,NA,pleasant,unpleasant,NA,NA,NA,NA,NA,right,1008.90000000596,true,NA,NA,NA,NA,NA,NA,NA,NA
kISNaDhx,375vsr8fwzmfz1886kcfytzzg59zr5,32at8r96gpmc11c56oiewvl841msup,kISNaDhx,2020-0188,2021-10-31,03:41:48,05:03:29,NA,incomplete,true,true,NA,NA,0,9,NA,green,m_l_055.jpg,NA,NA,NA,NA,NA,pleasant,unpleasant,NA,NA,NA,NA,NA,right,1197.5,true,NA,NA,NA,NA,NA,NA,NA,NA
kISNaDhx,375vsr8fwzmfz1886kcfytzzg59zr5,32at8r96gpmc11c56oiewvl841msup,kISNaDhx,2020-0188,2021-10-31,03:41:48,05:03:29,NA,incomplete,true,true,NA,NA,0,10,NA,green,m_l_098.jpg,NA,NA,NA,NA,NA,pleasant,unpleasant,NA,NA,NA,NA,NA,right,1347.79999999702,true,NA,NA,NA,NA,NA,NA,NA,NA
kISNaDhx,375vsr8fwzmfz1886kcfytzzg59zr5,32at8r96gpmc11c56oiewvl841msup,kISNaDhx,2020-0188,2021-10-31,03:41:48,05:03:29,NA,incomplete,true,true,NA,NA,0,11,NA,green,m_l_080.jpg,NA,NA,NA,NA,NA,pleasant,unpleasant,NA,NA,NA,NA,NA,right,974.5,true,NA,NA,NA,NA,NA,NA,NA,NA
kISNaDhx,375vsr8fwzmfz1886kcfytzzg59zr5,32at8r96gpmc11c56oiewvl841msup,kISNaDhx,2020-0188,2021-10-31,03:41:48,05:03:29,NA,incomplete,true,true,NA,NA,0,12,NA,blue,m_l_022.jpg,NA,NA,NA,NA,NA,pleasant,unpleasant,NA,NA,NA,NA,NA,right,1162.5,true,NA,NA,NA,NA,NA,NA,NA,NA
kISNaDhx,375vsr8fwzmfz1886kcfytzzg59zr5,32at8r96gpmc11c56oiewvl841msup,kISNaDhx,2020-0188,2021-10-31,03:41:48,05:03:29,NA,incomplete,true,true,NA,NA,0,13,NA,blue,n_l_112.jpg,NA,NA,NA,NA,NA,pleasant,unpleasant,NA,NA,NA,NA,NA,left,1038.69999999553,true,NA,NA,NA,NA,NA,NA,NA,NA
kISNaDhx,375vsr8fwzmfz1886kcfytzzg59zr5,32at8r96gpmc11c56oiewvl841msup,kISNaDhx,2020-0188,2021-10-31,03:41:48,05:03:29,NA,incomplete,true,true,NA,NA,0,14,NA,blue,m_l_093.jpg,NA,NA,NA,NA,NA,unpleasant,pleasant,NA,NA,NA,NA,NA,right,993.40000000596,true,NA,NA,NA,NA,NA,NA,NA,NA
kISNaDhx,375vsr8fwzmfz1886kcfytzzg59zr5,32at8r96gpmc11c56oiewvl841msup,kISNaDhx,2020-0188,2021-10-31,03:41:48,05:03:29,NA,incomplete,true,true,NA,NA,0,15,NA,blue,n_s_075.jpg,NA,NA,NA,NA,NA,pleasant,unpleasant,NA,NA,NA,NA,NA,right,976.60000000149,true,NA,NA,NA,NA,NA,NA,NA,NA
kISNaDhx,375vsr8fwzmfz1886kcfytzzg59zr5,32at8r96gpmc11c56oiewvl841msup,kISNaDhx,2020-0188,2021-10-31,03:41:48,05:03:29,NA,incomplete,true,true,NA,NA,0,16,NA,blue,m_s_018.jpg,NA,NA,NA,NA,NA,unpleasant,pleasant,NA,NA,NA,NA,NA,right,861.5,true,NA,NA,NA,NA,NA,NA,NA,NA
kISNaDhx,375vsr8fwzmfz1886kcfytzzg59zr5,32at8r96gpmc11c56oiewvl841msup,kISNaDhx,2020-0188,2021-10-31,03:41:48,05:03:29,NA,incomplete,true,true,NA,NA,0,17,NA,blue,n_s_049.jpg,NA,NA,NA,NA,NA,pleasant,unpleasant,NA,NA,NA,NA,NA,right,1140.60000000149,true,NA,NA,NA,NA,NA,NA,NA,NA
kISNaDhx,375vsr8fwzmfz1886kcfytzzg59zr5,32at8r96gpmc11c56oiewvl841msup,kISNaDhx,2020-0188,2021-10-31,03:41:48,05:03:29,NA,incomplete,true,true,NA,NA,0,18,NA,red,n_s_010.jpg,NA,NA,NA,NA,NA,pleasant,unpleasant,NA,NA,NA,NA,NA,left,1716.19999999553,true,NA,NA,NA,NA,NA,NA,NA,NA
kISNaDhx,375vsr8fwzmfz1886kcfytzzg59zr5,32at8r96gpmc11c56oiewvl841msup,kISNaDhx,2020-0188,2021-10-31,03:41:48,05:03:29,NA,incomplete,true,true,NA,NA,0,19,NA,red,n_l_028.jpg,NA,NA,NA,NA,NA,unpleasant,pleasant,NA,NA,NA,NA,NA,left,1328.10000000149,true,NA,NA,NA,NA,NA,NA,NA,NA
kISNaDhx,375vsr8fwzmfz1886kcfytzzg59zr5,32at8r96gpmc11c56oiewvl841msup,kISNaDhx,2020-0188,2021-10-31,03:41:48,05:03:29,NA,incomplete,true,true,NA,NA,0,20,NA,red,m_s_055.jpg,NA,NA,NA,NA,NA,pleasant,unpleasant,NA,NA,NA,NA,NA,left,731.69999999553,true,NA,NA,NA,NA,NA,NA,NA,NA
kISNaDhx,375vsr8fwzmfz1886kcfytzzg59zr5,32at8r96gpmc11c56oiewvl841msup,kISNaDhx,2020-0188,2021-10-31,03:41:48,05:03:29,NA,incomplete,true,true,NA,NA,0,21,NA,red,m_l_070.jpg,NA,NA,NA,NA,NA,unpleasant,pleasant,NA,NA,NA,NA,NA,right,820.5,true,NA,NA,NA,NA,NA,NA,NA,NA
kISNaDhx,375vsr8fwzmfz1886kcfytzzg59zr5,32at8r96gpmc11c56oiewvl841msup,kISNaDhx,2020-0188,2021-10-31,03:41:48,05:03:29,NA,incomplete,true,true,NA,NA,0,22,NA,red,n_l_040.jpg,NA,NA,NA,NA,NA,pleasant,unpleasant,NA,NA,NA,NA,NA,right,851.5,true,NA,NA,NA,NA,NA,NA,NA,NA
kISNaDhx,375vsr8fwzmfz1886kcfytzzg59zr5,32at8r96gpmc11c56oiewvl841msup,kISNaDhx,2020-0188,2021-10-31,03:41:48,05:03:29,NA,incomplete,true,true,NA,NA,0,23,NA,red,m_s_038.jpg,NA,NA,NA,NA,NA,unpleasant,pleasant,NA,NA,NA,NA,NA,right,883.79999999702,true,NA,NA,NA,NA,NA,NA,NA,NA
kISNaDhx,375vsr8fwzmfz1886kcfytzzg59zr5,32at8r96gpmc11c56oiewvl841msup,kISNaDhx,2020-0188,2021-10-31,03:41:48,05:03:29,NA,incomplete,true,true,NA,NA,0,24,NA,black,n_l_074.jpg,NA,NA,NA,NA,NA,pleasant,unpleasant,NA,NA,NA,NA,NA,right,1151.19999999553,true,NA,NA,NA,NA,NA,NA,NA,NA
kISNaDhx,375vsr8fwzmfz1886kcfytzzg59zr5,32at8r96gpmc11c56oiewvl841msup,kISNaDhx,2020-0188,2021-10-31,03:41:48,05:03:29,NA,incomplete,true,true,NA,NA,0,25,NA,black,n_s_091.jpg,NA,NA,NA,NA,NA,pleasant,unpleasant,NA,NA,NA,NA,NA,left,1174.09999999404,true,NA,NA,NA,NA,NA,NA,NA,NA
kISNaDhx,375vsr8fwzmfz1886kcfytzzg59zr5,32at8r96gpmc11c56oiewvl841msup,kISNaDhx,2020-0188,2021-10-31,03:41:48,05:03:29,NA,incomplete,true,true,NA,NA,0,26,NA,black,m_s_024.jpg,NA,NA,NA,NA,NA,pleasant,unpleasant,NA,NA,NA,NA,NA,right,1147.10000000149,true,NA,NA,NA,NA,NA,NA,NA,NA
kISNaDhx,375vsr8fwzmfz1886kcfytzzg59zr5,32at8r96gpmc11c56oiewvl841msup,kISNaDhx,2020-0188,2021-10-31,03:41:48,05:03:29,NA,incomplete,true,true,NA,NA,0,27,NA,black,m_l_013.jpg,NA,NA,NA,NA,NA,pleasant,unpleasant,NA,NA,NA,NA,NA,right,752,true,NA,NA,NA,NA,NA,NA,NA,NA
kISNaDhx,375vsr8fwzmfz1886kcfytzzg59zr5,32at8r96gpmc11c56oiewvl841msup,kISNaDhx,2020-0188,2021-10-31,03:41:48,05:03:29,NA,incomplete,true,true,NA,NA,0,28,NA,black,m_l_053.jpg,NA,NA,NA,NA,NA,unpleasant,pleasant,NA,NA,NA,NA,NA,right,616.29999999702,true,NA,NA,NA,NA,NA,NA,NA,NA
kISNaDhx,375vsr8fwzmfz1886kcfytzzg59zr5,32at8r96gpmc11c56oiewvl841msup,kISNaDhx,2020-0188,2021-10-31,03:41:48,05:03:29,NA,incomplete,true,true,NA,NA,0,29,NA,black,n_s_044.jpg,NA,NA,NA,NA,NA,pleasant,unpleasant,NA,NA,NA,NA,NA,right,906.39999999851,true,NA,NA,NA,NA,NA,NA,NA,NA
kISNaDhx,375vsr8fwzmfz1886kcfytzzg59zr5,32at8r96gpmc11c56oiewvl841msup,kISNaDhx,2020-0188,2021-10-31,03:41:48,05:03:29,NA,incomplete,true,true,NA,NA,0,30,NA,white,m_l_079.jpg,NA,NA,NA,NA,NA,pleasant,unpleasant,NA,NA,NA,NA,NA,right,875.69999999553,true,NA,NA,NA,NA,NA,NA,NA,NA
kISNaDhx,375vsr8fwzmfz1886kcfytzzg59zr5,32at8r96gpmc11c56oiewvl841msup,kISNaDhx,2020-0188,2021-10-31,03:41:48,05:03:29,NA,incomplete,true,true,NA,NA,0,31,NA,white,m_s_106.jpg,NA,NA,NA,NA,NA,pleasant,unpleasant,NA,NA,NA,NA,NA,right,579.20000000298,true,NA,NA,NA,NA,NA,NA,NA,NA
kISNaDhx,375vsr8fwzmfz1886kcfytzzg59zr5,32at8r96gpmc11c56oiewvl841msup,kISNaDhx,2020-0188,2021-10-31,03:41:48,05:03:29,NA,incomplete,true,true,NA,NA,0,32,NA,white,n_s_063.jpg,NA,NA,NA,NA,NA,unpleasant,pleasant,NA,NA,NA,NA,NA,right,678.59999999404,true,NA,NA,NA,NA,NA,NA,NA,NA
kISNaDhx,375vsr8fwzmfz1886kcfytzzg59zr5,32at8r96gpmc11c56oiewvl841msup,kISNaDhx,2020-0188,2021-10-31,03:41:48,05:03:29,NA,incomplete,true,true,NA,NA,0,33,NA,white,n_l_082.jpg,NA,NA,NA,NA,NA,pleasant,unpleasant,NA,NA,NA,NA,NA,right,1185,true,NA,NA,NA,NA,NA,NA,NA,NA
kISNaDhx,375vsr8fwzmfz1886kcfytzzg59zr5,32at8r96gpmc11c56oiewvl841msup,kISNaDhx,2020-0188,2021-10-31,03:41:48,05:03:29,NA,incomplete,true,true,NA,NA,0,34,NA,white,n_s_045.jpg,NA,NA,NA,NA,NA,pleasant,unpleasant,NA,NA,NA,NA,NA,right,744.89999999851,true,NA,NA,NA,NA,NA,NA,NA,NA
kISNaDhx,375vsr8fwzmfz1886kcfytzzg59zr5,32at8r96gpmc11c56oiewvl841msup,kISNaDhx,2020-0188,2021-10-31,03:41:48,05:03:29,NA,incomplete,true,true,NA,NA,0,35,NA,white,n_l_036.jpg,NA,NA,NA,NA,NA,pleasant,unpleasant,NA,NA,NA,NA,NA,right,755,true,NA,NA,NA,NA,NA,NA,NA,NA
kISNaDhx,375vsr8fwzmfz1886kcfytzzg59zr5,32at8r96gpmc11c56oiewvl841msup,kISNaDhx,2020-0188,2021-10-31,03:41:48,05:03:29,NA,incomplete,true,NA,NA,true,0,0,NA,NA,NA,right,m_l_080.jpg,orange,green,NA,NA,NA,NA,NA,NA,NA,NA,NA,NaN,NA,4741.5,left,0,NA,NA,NA,NA,NA
kISNaDhx,375vsr8fwzmfz1886kcfytzzg59zr5,32at8r96gpmc11c56oiewvl841msup,kISNaDhx,2020-0188,2021-10-31,03:41:48,05:03:29,NA,incomplete,true,NA,NA,true,0,1,NA,NA,NA,right,n_s_049.jpg,green,blue,NA,NA,NA,NA,NA,NA,NA,NA,NA,NaN,NA,2076.2999999970198,right,1,NA,NA,NA,NA,NA
kISNaDhx,375vsr8fwzmfz1886kcfytzzg59zr5,32at8r96gpmc11c56oiewvl841msup,kISNaDhx,2020-0188,2021-10-31,03:41:48,05:03:29,NA,incomplete,true,NA,NA,true,0,2,NA,NA,NA,left,m_s_018.jpg,blue,red,NA,NA,NA,NA,NA,NA,NA,NA,NA,NaN,NA,3040.7000000029802,right,0,NA,NA,NA,NA,NA
kISNaDhx,375vsr8fwzmfz1886kcfytzzg59zr5,32at8r96gpmc11c56oiewvl841msup,kISNaDhx,2020-0188,2021-10-31,03:41:48,05:03:29,NA,incomplete,true,NA,NA,true,0,3,NA,NA,NA,right,m_l_098.jpg,orange,green,NA,NA,NA,NA,NA,NA,NA,NA,NA,NaN,NA,2244.10000000149,left,0,NA,NA,NA,NA,NA
kISNaDhx,375vsr8fwzmfz1886kcfytzzg59zr5,32at8r96gpmc11c56oiewvl841msup,kISNaDhx,2020-0188,2021-10-31,03:41:48,05:03:29,NA,incomplete,true,NA,NA,true,0,4,NA,NA,NA,left,n_l_091.jpg,orange,green,NA,NA,NA,NA,NA,NA,NA,NA,NA,NaN,NA,2980.9000000059605,left,1,NA,NA,NA,NA,NA
kISNaDhx,375vsr8fwzmfz1886kcfytzzg59zr5,32at8r96gpmc11c56oiewvl841msup,kISNaDhx,2020-0188,2021-10-31,03:41:48,05:03:29,NA,incomplete,true,NA,NA,true,0,5,NA,NA,NA,left,n_s_091.jpg,black,white,NA,NA,NA,NA,NA,NA,NA,NA,NA,NaN,NA,4098.10000000149,right,0,NA,NA,NA,NA,NA
kISNaDhx,375vsr8fwzmfz1886kcfytzzg59zr5,32at8r96gpmc11c56oiewvl841msup,kISNaDhx,2020-0188,2021-10-31,03:41:48,05:03:29,NA,incomplete,true,NA,NA,true,0,6,NA,NA,NA,right,m_l_093.jpg,green,blue,NA,NA,NA,NA,NA,NA,NA,NA,NA,NaN,NA,2483.60000000149,right,1,NA,NA,NA,NA,NA
kISNaDhx,375vsr8fwzmfz1886kcfytzzg59zr5,32at8r96gpmc11c56oiewvl841msup,kISNaDhx,2020-0188,2021-10-31,03:41:48,05:03:29,NA,incomplete,true,NA,NA,true,0,7,NA,NA,NA,right,n_s_063.jpg,black,white,NA,NA,NA,NA,NA,NA,NA,NA,NA,NaN,NA,3026.8000000044703,right,1,NA,NA,NA,NA,NA
kISNaDhx,375vsr8fwzmfz1886kcfytzzg59zr5,32at8r96gpmc11c56oiewvl841msup,kISNaDhx,2020-0188,2021-10-31,03:41:48,05:03:29,NA,incomplete,true,NA,NA,true,0,8,NA,NA,NA,right,m_s_038.jpg,black,red,NA,NA,NA,NA,NA,NA,NA,NA,NA,NaN,NA,3645.7999999970198,right,1,NA,NA,NA,NA,NA
kISNaDhx,375vsr8fwzmfz1886kcfytzzg59zr5,32at8r96gpmc11c56oiewvl841msup,kISNaDhx,2020-0188,2021-10-31,03:41:48,05:03:29,NA,incomplete,true,NA,NA,true,0,9,NA,NA,NA,right,n_l_112.jpg,green,blue,NA,NA,NA,NA,NA,NA,NA,NA,NA,NaN,NA,5409.79999999702,left,0,NA,NA,NA,NA,NA
kISNaDhx,375vsr8fwzmfz1886kcfytzzg59zr5,32at8r96gpmc11c56oiewvl841msup,kISNaDhx,2020-0188,2021-10-31,03:41:48,05:03:29,NA,incomplete,true,NA,NA,true,0,10,NA,NA,NA,right,m_l_073.jpg,green,orange,NA,NA,NA,NA,NA,NA,NA,NA,NA,NaN,NA,1997.8999999985099,right,1,NA,NA,NA,NA,NA
kISNaDhx,375vsr8fwzmfz1886kcfytzzg59zr5,32at8r96gpmc11c56oiewvl841msup,kISNaDhx,2020-0188,2021-10-31,03:41:48,05:03:29,NA,incomplete,true,NA,NA,true,0,11,NA,NA,NA,right,m_l_053.jpg,red,black,NA,NA,NA,NA,NA,NA,NA,NA,NA,NaN,NA,1671.5,right,1,NA,NA,NA,NA,NA
kISNaDhx,375vsr8fwzmfz1886kcfytzzg59zr5,32at8r96gpmc11c56oiewvl841msup,kISNaDhx,2020-0188,2021-10-31,03:41:48,05:03:29,NA,incomplete,true,NA,NA,true,0,12,NA,NA,NA,right,m_s_055.jpg,blue,red,NA,NA,NA,NA,NA,NA,NA,NA,NA,NaN,NA,2096,right,1,NA,NA,NA,NA,NA
kISNaDhx,375vsr8fwzmfz1886kcfytzzg59zr5,32at8r96gpmc11c56oiewvl841msup,kISNaDhx,2020-0188,2021-10-31,03:41:48,05:03:29,NA,incomplete,true,NA,NA,true,0,13,NA,NA,NA,left,m_s_011.jpg,green,orange,NA,NA,NA,NA,NA,NA,NA,NA,NA,NaN,NA,2462.2999999970198,right,0,NA,NA,NA,NA,NA
kISNaDhx,375vsr8fwzmfz1886kcfytzzg59zr5,32at8r96gpmc11c56oiewvl841msup,kISNaDhx,2020-0188,2021-10-31,03:41:48,05:03:29,NA,incomplete,true,NA,NA,true,0,14,NA,NA,NA,right,m_s_085.jpg,green,orange,NA,NA,NA,NA,NA,NA,NA,NA,NA,NaN,NA,2351.89999999851,right,1,NA,NA,NA,NA,NA
kISNaDhx,375vsr8fwzmfz1886kcfytzzg59zr5,32at8r96gpmc11c56oiewvl841msup,kISNaDhx,2020-0188,2021-10-31,03:41:48,05:03:29,NA,incomplete,true,NA,NA,true,0,15,NA,NA,NA,right,n_s_044.jpg,white,black,NA,NA,NA,NA,NA,NA,NA,NA,NA,NaN,NA,2014.3000000044703,left,0,NA,NA,NA,NA,NA
kISNaDhx,375vsr8fwzmfz1886kcfytzzg59zr5,32at8r96gpmc11c56oiewvl841msup,kISNaDhx,2020-0188,2021-10-31,03:41:48,05:03:29,NA,incomplete,true,NA,NA,true,0,16,NA,NA,NA,right,m_s_024.jpg,white,black,NA,NA,NA,NA,NA,NA,NA,NA,NA,NaN,NA,1621.7000000029802,right,1,NA,NA,NA,NA,NA
kISNaDhx,375vsr8fwzmfz1886kcfytzzg59zr5,32at8r96gpmc11c56oiewvl841msup,kISNaDhx,2020-0188,2021-10-31,03:41:48,05:03:29,NA,incomplete,true,NA,NA,true,0,17,NA,NA,NA,right,n_l_036.jpg,black,white,NA,NA,NA,NA,NA,NA,NA,NA,NA,NaN,NA,2181.10000000149,right,1,NA,NA,NA,NA,NA
kISNaDhx,375vsr8fwzmfz1886kcfytzzg59zr5,32at8r96gpmc11c56oiewvl841msup,kISNaDhx,2020-0188,2021-10-31,03:41:48,05:03:29,NA,incomplete,true,NA,NA,true,0,18,NA,NA,NA,left,n_l_028.jpg,red,blue,NA,NA,NA,NA,NA,NA,NA,NA,NA,NaN,NA,2790.5,left,1,NA,NA,NA,NA,NA
kISNaDhx,375vsr8fwzmfz1886kcfytzzg59zr5,32at8r96gpmc11c56oiewvl841msup,kISNaDhx,2020-0188,2021-10-31,03:41:48,05:03:29,NA,incomplete,true,NA,NA,true,0,19,NA,NA,NA,right,n_l_040.jpg,blue,red,NA,NA,NA,NA,NA,NA,NA,NA,NA,NaN,NA,2169.10000000149,right,1,NA,NA,NA,NA,NA
kISNaDhx,375vsr8fwzmfz1886kcfytzzg59zr5,32at8r96gpmc11c56oiewvl841msup,kISNaDhx,2020-0188,2021-10-31,03:41:48,05:03:29,NA,incomplete,true,NA,NA,true,0,20,NA,NA,NA,left,m_s_106.jpg,white,black,NA,NA,NA,NA,NA,NA,NA,NA,NA,NaN,NA,2823.89999999851,right,0,NA,NA,NA,NA,NA
kISNaDhx,375vsr8fwzmfz1886kcfytzzg59zr5,32at8r96gpmc11c56oiewvl841msup,kISNaDhx,2020-0188,2021-10-31,03:41:48,05:03:29,NA,incomplete,true,NA,NA,true,0,21,NA,NA,NA,right,m_l_009.jpg,orange,green,NA,NA,NA,NA,NA,NA,NA,NA,NA,NaN,NA,1944.3000000044703,left,0,NA,NA,NA,NA,NA
kISNaDhx,375vsr8fwzmfz1886kcfytzzg59zr5,32at8r96gpmc11c56oiewvl841msup,kISNaDhx,2020-0188,2021-10-31,03:41:48,05:03:29,NA,incomplete,true,NA,true,NA,0,0,NA,NA,NA,right,NA,NA,NA,present,NA,NA,m_s_038.jpg,red,n_l_028.jpg,red,within,NA,NaN,NA,NA,NA,NA,left,5076.5,0,2,2134.2999999970198
kISNaDhx,375vsr8fwzmfz1886kcfytzzg59zr5,32at8r96gpmc11c56oiewvl841msup,kISNaDhx,2020-0188,2021-10-31,03:41:48,05:03:29,NA,incomplete,true,NA,true,NA,0,1,NA,NA,NA,left,NA,NA,NA,present,NA,NA,m_s_018.jpg,blue,m_s_055.jpg,red,between,NA,NaN,NA,NA,NA,NA,left,3633.5,1,3,2307.3000000044703
kISNaDhx,375vsr8fwzmfz1886kcfytzzg59zr5,32at8r96gpmc11c56oiewvl841msup,kISNaDhx,2020-0188,2021-10-31,03:41:48,05:03:29,NA,incomplete,true,NA,true,NA,0,2,NA,NA,NA,left,NA,NA,NA,present,NA,NA,m_l_073.jpg,orange,m_s_085.jpg,orange,within,NA,NaN,NA,NA,NA,NA,left,3486.10000000149,1,1,1149.3999999985099
kISNaDhx,375vsr8fwzmfz1886kcfytzzg59zr5,32at8r96gpmc11c56oiewvl841msup,kISNaDhx,2020-0188,2021-10-31,03:41:48,05:03:29,NA,incomplete,true,NA,true,NA,0,3,NA,NA,NA,left,NA,NA,NA,present,NA,NA,n_l_091.jpg,orange,m_l_009.jpg,green,between,NA,NaN,NA,NA,NA,NA,left,3444.6999999955297,1,2,1945.6000000014901
kISNaDhx,375vsr8fwzmfz1886kcfytzzg59zr5,32at8r96gpmc11c56oiewvl841msup,kISNaDhx,2020-0188,2021-10-31,03:41:48,05:03:29,NA,incomplete,true,NA,true,NA,0,4,NA,NA,NA,right,NA,NA,NA,present,NA,NA,m_l_080.jpg,green,m_s_011.jpg,green,within,NA,NaN,NA,NA,NA,NA,right,3070.3000000044703,1,0,3417
kISNaDhx,375vsr8fwzmfz1886kcfytzzg59zr5,32at8r96gpmc11c56oiewvl841msup,kISNaDhx,2020-0188,2021-10-31,03:41:48,05:03:29,NA,incomplete,true,NA,true,NA,0,5,NA,NA,NA,left,NA,NA,NA,present,NA,NA,m_s_106.jpg,white,n_l_036.jpg,white,within,NA,NaN,NA,NA,NA,NA,left,5424.29999999702,1,1,1186.1999999955297
kISNaDhx,375vsr8fwzmfz1886kcfytzzg59zr5,32at8r96gpmc11c56oiewvl841msup,kISNaDhx,2020-0188,2021-10-31,03:41:48,05:03:29,NA,incomplete,true,NA,true,NA,0,6,NA,NA,NA,left,NA,NA,NA,present,NA,NA,n_s_091.jpg,black,n_s_044.jpg,black,within,NA,NaN,NA,NA,NA,NA,left,4135.89999999851,1,0,4230.5
kISNaDhx,375vsr8fwzmfz1886kcfytzzg59zr5,32at8r96gpmc11c56oiewvl841msup,kISNaDhx,2020-0188,2021-10-31,03:41:48,05:03:29,NA,incomplete,true,NA,true,NA,0,7,NA,NA,NA,right,NA,NA,NA,present,NA,NA,m_l_093.jpg,blue,m_l_098.jpg,green,between,NA,NaN,NA,NA,NA,NA,right,8168.79999999702,1,3,1694
kISNaDhx,375vsr8fwzmfz1886kcfytzzg59zr5,32at8r96gpmc11c56oiewvl841msup,kISNaDhx,2020-0188,2021-10-31,03:41:48,05:03:29,NA,incomplete,true,NA,true,NA,0,8,NA,NA,NA,left,NA,NA,NA,present,NA,NA,m_l_053.jpg,black,n_s_063.jpg,white,between,NA,NaN,NA,NA,NA,NA,left,3296,1,2,1487.3999999985099
kISNaDhx,375vsr8fwzmfz1886kcfytzzg59zr5,32at8r96gpmc11c56oiewvl841msup,kISNaDhx,2020-0188,2021-10-31,03:41:48,05:03:29,NA,incomplete,true,NA,true,NA,0,9,NA,NA,NA,left,NA,NA,NA,present,NA,NA,n_l_040.jpg,red,m_s_024.jpg,black,between,NA,NaN,NA,NA,NA,NA,left,3007.5999999940395,1,2,2414.9000000059605
kISNaDhx,375vsr8fwzmfz1886kcfytzzg59zr5,32at8r96gpmc11c56oiewvl841msup,kISNaDhx,2020-0188,2021-10-31,03:41:48,05:03:29,NA,incomplete,true,NA,true,NA,0,10,NA,NA,NA,right,NA,NA,NA,present,NA,NA,n_s_049.jpg,blue,n_l_112.jpg,blue,within,NA,NaN,NA,NA,NA,NA,right,2930.60000000149,1,1,1434.4000000059605
kISNaDhx,375vsr8fwzmfz1886kcfytzzg59zr5,32at8r96gpmc11c56oiewvl841msup,kISNaDhx,2020-0188,2021-10-31,03:41:48,05:03:29,NA,incomplete,false,true,NA,NA,1,0,NA,green,m_s_017.jpg,NA,NA,NA,NA,NA,pleasant,unpleasant,NA,NA,NA,NA,NA,none,0,false,NA,NA,NA,NA,NA,NA,NA,NA
kISNaDhx,375vsr8fwzmfz1886kcfytzzg59zr5,32at8r96gpmc11c56oiewvl841msup,kISNaDhx,2020-0188,2021-10-31,03:41:48,05:03:29,NA,incomplete,false,true,NA,NA,1,1,NA,green,n_s_117.jpg,NA,NA,NA,NA,NA,unpleasant,pleasant,NA,NA,NA,NA,NA,none,0,false,NA,NA,NA,NA,NA,NA,NA,NA
kISNaDhx,375vsr8fwzmfz1886kcfytzzg59zr5,32at8r96gpmc11c56oiewvl841msup,kISNaDhx,2020-0188,2021-10-31,03:41:48,05:03:29,NA,incomplete,false,true,NA,NA,1,2,NA,green,m_s_077.jpg,NA,NA,NA,NA,NA,unpleasant,pleasant,NA,NA,NA,NA,NA,none,0,false,NA,NA,NA,NA,NA,NA,NA,NA
kISNaDhx,375vsr8fwzmfz1886kcfytzzg59zr5,32at8r96gpmc11c56oiewvl841msup,kISNaDhx,2020-0188,2021-10-31,03:41:48,05:03:29,NA,incomplete,false,true,NA,NA,1,3,NA,green,m_s_053.jpg,NA,NA,NA,NA,NA,pleasant,unpleasant,NA,NA,NA,NA,NA,none,0,false,NA,NA,NA,NA,NA,NA,NA,NA
kISNaDhx,375vsr8fwzmfz1886kcfytzzg59zr5,32at8r96gpmc11c56oiewvl841msup,kISNaDhx,2020-0188,2021-10-31,03:41:48,05:03:29,NA,incomplete,false,true,NA,NA,1,4,NA,green,m_s_097.jpg,NA,NA,NA,NA,NA,pleasant,unpleasant,NA,NA,NA,NA,NA,right,1517.10000000149,true,NA,NA,NA,NA,NA,NA,NA,NA
kISNaDhx,375vsr8fwzmfz1886kcfytzzg59zr5,32at8r96gpmc11c56oiewvl841msup,kISNaDhx,2020-0188,2021-10-31,03:41:48,05:03:29,NA,incomplete,false,true,NA,NA,1,5,NA,green,n_s_038.jpg,NA,NA,NA,NA,NA,unpleasant,pleasant,NA,NA,NA,NA,NA,none,0,false,NA,NA,NA,NA,NA,NA,NA,NA
kISNaDhx,375vsr8fwzmfz1886kcfytzzg59zr5,32at8r96gpmc11c56oiewvl841msup,kISNaDhx,2020-0188,2021-10-31,03:41:48,05:03:29,NA,incomplete,false,true,NA,NA,1,6,NA,brown,n_l_011.jpg,NA,NA,NA,NA,NA,pleasant,unpleasant,NA,NA,NA,NA,NA,right,1708.79999999702,true,NA,NA,NA,NA,NA,NA,NA,NA
kISNaDhx,375vsr8fwzmfz1886kcfytzzg59zr5,32at8r96gpmc11c56oiewvl841msup,kISNaDhx,2020-0188,2021-10-31,03:41:48,05:03:29,NA,incomplete,false,true,NA,NA,1,7,NA,brown,m_s_026.jpg,NA,NA,NA,NA,NA,pleasant,unpleasant,NA,NA,NA,NA,NA,right,1024.39999999851,true,NA,NA,NA,NA,NA,NA,NA,NA
kISNaDhx,375vsr8fwzmfz1886kcfytzzg59zr5,32at8r96gpmc11c56oiewvl841msup,kISNaDhx,2020-0188,2021-10-31,03:41:48,05:03:29,NA,incomplete,false,true,NA,NA,1,8,NA,brown,m_s_111.jpg,NA,NA,NA,NA,NA,pleasant,unpleasant,NA,NA,NA,NA,NA,right,713.29999999702,true,NA,NA,NA,NA,NA,NA,NA,NA
kISNaDhx,375vsr8fwzmfz1886kcfytzzg59zr5,32at8r96gpmc11c56oiewvl841msup,kISNaDhx,2020-0188,2021-10-31,03:41:48,05:03:29,NA,incomplete,false,true,NA,NA,1,9,NA,brown,n_s_048.jpg,NA,NA,NA,NA,NA,unpleasant,pleasant,NA,NA,NA,NA,NA,none,0,false,NA,NA,NA,NA,NA,NA,NA,NA
kISNaDhx,375vsr8fwzmfz1886kcfytzzg59zr5,32at8r96gpmc11c56oiewvl841msup,kISNaDhx,2020-0188,2021-10-31,03:41:48,05:03:29,NA,incomplete,false,true,NA,NA,1,10,NA,brown,m_l_048.jpg,NA,NA,NA,NA,NA,pleasant,unpleasant,NA,NA,NA,NA,NA,none,0,false,NA,NA,NA,NA,NA,NA,NA,NA
kISNaDhx,375vsr8fwzmfz1886kcfytzzg59zr5,32at8r96gpmc11c56oiewvl841msup,kISNaDhx,2020-0188,2021-10-31,03:41:48,05:03:29,NA,incomplete,false,true,NA,NA,1,11,NA,brown,n_s_081.jpg,NA,NA,NA,NA,NA,unpleasant,pleasant,NA,NA,NA,NA,NA,none,0,false,NA,NA,NA,NA,NA,NA,NA,NA
kISNaDhx,375vsr8fwzmfz1886kcfytzzg59zr5,32at8r96gpmc11c56oiewvl841msup,kISNaDhx,2020-0188,2021-10-31,03:41:48,05:03:29,NA,incomplete,false,true,NA,NA,1,12,NA,yellow,n_l_034.jpg,NA,NA,NA,NA,NA,unpleasant,pleasant,NA,NA,NA,NA,NA,right,2438.39999999851,true,NA,NA,NA,NA,NA,NA,NA,NA
kISNaDhx,375vsr8fwzmfz1886kcfytzzg59zr5,32at8r96gpmc11c56oiewvl841msup,kISNaDhx,2020-0188,2021-10-31,03:41:48,05:03:29,NA,incomplete,false,true,NA,NA,1,13,NA,yellow,m_l_085.jpg,NA,NA,NA,NA,NA,unpleasant,pleasant,NA,NA,NA,NA,NA,none,0,false,NA,NA,NA,NA,NA,NA,NA,NA
kISNaDhx,375vsr8fwzmfz1886kcfytzzg59zr5,32at8r96gpmc11c56oiewvl841msup,kISNaDhx,2020-0188,2021-10-31,03:41:48,05:03:29,NA,incomplete,false,true,NA,NA,1,14,NA,yellow,m_l_106.jpg,NA,NA,NA,NA,NA,pleasant,unpleasant,NA,NA,NA,NA,NA,none,0,false,NA,NA,NA,NA,NA,NA,NA,NA
kISNaDhx,375vsr8fwzmfz1886kcfytzzg59zr5,32at8r96gpmc11c56oiewvl841msup,kISNaDhx,2020-0188,2021-10-31,03:41:48,05:03:29,NA,incomplete,false,true,NA,NA,1,15,NA,yellow,m_s_039.jpg,NA,NA,NA,NA,NA,pleasant,unpleasant,NA,NA,NA,NA,NA,none,0,false,NA,NA,NA,NA,NA,NA,NA,NA
kISNaDhx,375vsr8fwzmfz1886kcfytzzg59zr5,32at8r96gpmc11c56oiewvl841msup,kISNaDhx,2020-0188,2021-10-31,03:41:48,05:03:29,NA,incomplete,false,true,NA,NA,1,16,NA,yellow,m_s_105.jpg,NA,NA,NA,NA,NA,unpleasant,pleasant,NA,NA,NA,NA,NA,none,0,false,NA,NA,NA,NA,NA,NA,NA,NA
kISNaDhx,375vsr8fwzmfz1886kcfytzzg59zr5,32at8r96gpmc11c56oiewvl841msup,kISNaDhx,2020-0188,2021-10-31,03:41:48,05:03:29,NA,incomplete,false,true,NA,NA,1,17,NA,yellow,m_s_108.jpg,NA,NA,NA,NA,NA,pleasant,unpleasant,NA,NA,NA,NA,NA,none,0,false,NA,NA,NA,NA,NA,NA,NA,NA
kISNaDhx,375vsr8fwzmfz1886kcfytzzg59zr5,32at8r96gpmc11c56oiewvl841msup,kISNaDhx,2020-0188,2021-10-31,03:41:48,05:03:29,NA,incomplete,false,true,NA,NA,1,18,NA,red,m_s_005.jpg,NA,NA,NA,NA,NA,unpleasant,pleasant,NA,NA,NA,NA,NA,none,0,false,NA,NA,NA,NA,NA,NA,NA,NA
kISNaDhx,375vsr8fwzmfz1886kcfytzzg59zr5,32at8r96gpmc11c56oiewvl841msup,kISNaDhx,2020-0188,2021-10-31,03:41:48,05:03:29,NA,incomplete,false,true,NA,NA,1,19,NA,red,m_s_037.jpg,NA,NA,NA,NA,NA,unpleasant,pleasant,NA,NA,NA,NA,NA,none,0,false,NA,NA,NA,NA,NA,NA,NA,NA
kISNaDhx,375vsr8fwzmfz1886kcfytzzg59zr5,32at8r96gpmc11c56oiewvl841msup,kISNaDhx,2020-0188,2021-10-31,03:41:48,05:03:29,NA,incomplete,false,true,NA,NA,1,20,NA,red,m_l_092.jpg,NA,NA,NA,NA,NA,unpleasant,pleasant,NA,NA,NA,NA,NA,right,1090.39999999851,true,NA,NA,NA,NA,NA,NA,NA,NA
kISNaDhx,375vsr8fwzmfz1886kcfytzzg59zr5,32at8r96gpmc11c56oiewvl841msup,kISNaDhx,2020-0188,2021-10-31,03:41:48,05:03:29,NA,incomplete,false,true,NA,NA,1,21,NA,red,m_s_083.jpg,NA,NA,NA,NA,NA,pleasant,unpleasant,NA,NA,NA,NA,NA,right,1277.39999999851,true,NA,NA,NA,NA,NA,NA,NA,NA
kISNaDhx,375vsr8fwzmfz1886kcfytzzg59zr5,32at8r96gpmc11c56oiewvl841msup,kISNaDhx,2020-0188,2021-10-31,03:41:48,05:03:29,NA,incomplete,false,true,NA,NA,1,22,NA,red,m_l_102.jpg,NA,NA,NA,NA,NA,pleasant,unpleasant,NA,NA,NA,NA,NA,right,809.5,true,NA,NA,NA,NA,NA,NA,NA,NA
kISNaDhx,375vsr8fwzmfz1886kcfytzzg59zr5,32at8r96gpmc11c56oiewvl841msup,kISNaDhx,2020-0188,2021-10-31,03:41:48,05:03:29,NA,incomplete,false,true,NA,NA,1,23,NA,red,n_s_098.jpg,NA,NA,NA,NA,NA,pleasant,unpleasant,NA,NA,NA,NA,NA,right,1969.89999999851,true,NA,NA,NA,NA,NA,NA,NA,NA
kISNaDhx,375vsr8fwzmfz1886kcfytzzg59zr5,32at8r96gpmc11c56oiewvl841msup,kISNaDhx,2020-0188,2021-10-31,03:41:48,05:03:29,NA,incomplete,false,true,NA,NA,1,24,NA,orange,n_s_102.jpg,NA,NA,NA,NA,NA,pleasant,unpleasant,NA,NA,NA,NA,NA,none,0,false,NA,NA,NA,NA,NA,NA,NA,NA
kISNaDhx,375vsr8fwzmfz1886kcfytzzg59zr5,32at8r96gpmc11c56oiewvl841msup,kISNaDhx,2020-0188,2021-10-31,03:41:48,05:03:29,NA,incomplete,false,true,NA,NA,1,25,NA,orange,m_s_064.jpg,NA,NA,NA,NA,NA,unpleasant,pleasant,NA,NA,NA,NA,NA,right,1409,true,NA,NA,NA,NA,NA,NA,NA,NA
kISNaDhx,375vsr8fwzmfz1886kcfytzzg59zr5,32at8r96gpmc11c56oiewvl841msup,kISNaDhx,2020-0188,2021-10-31,03:41:48,05:03:29,NA,incomplete,false,true,NA,NA,1,26,NA,orange,n_s_112.jpg,NA,NA,NA,NA,NA,pleasant,unpleasant,NA,NA,NA,NA,NA,none,0,false,NA,NA,NA,NA,NA,NA,NA,NA
kISNaDhx,375vsr8fwzmfz1886kcfytzzg59zr5,32at8r96gpmc11c56oiewvl841msup,kISNaDhx,2020-0188,2021-10-31,03:41:48,05:03:29,NA,incomplete,false,true,NA,NA,1,27,NA,orange,m_s_048.jpg,NA,NA,NA,NA,NA,unpleasant,pleasant,NA,NA,NA,NA,NA,right,1412.59999999404,true,NA,NA,NA,NA,NA,NA,NA,NA
kISNaDhx,375vsr8fwzmfz1886kcfytzzg59zr5,32at8r96gpmc11c56oiewvl841msup,kISNaDhx,2020-0188,2021-10-31,03:41:48,05:03:29,NA,incomplete,false,true,NA,NA,1,28,NA,orange,n_s_023.jpg,NA,NA,NA,NA,NA,pleasant,unpleasant,NA,NA,NA,NA,NA,none,0,false,NA,NA,NA,NA,NA,NA,NA,NA
kISNaDhx,375vsr8fwzmfz1886kcfytzzg59zr5,32at8r96gpmc11c56oiewvl841msup,kISNaDhx,2020-0188,2021-10-31,03:41:48,05:03:29,NA,incomplete,false,true,NA,NA,1,29,NA,orange,m_l_037.jpg,NA,NA,NA,NA,NA,unpleasant,pleasant,NA,NA,NA,NA,NA,right,1119.09999999404,true,NA,NA,NA,NA,NA,NA,NA,NA
kISNaDhx,375vsr8fwzmfz1886kcfytzzg59zr5,32at8r96gpmc11c56oiewvl841msup,kISNaDhx,2020-0188,2021-10-31,03:41:48,05:03:29,NA,incomplete,false,true,NA,NA,1,30,NA,black,n_s_024.jpg,NA,NA,NA,NA,NA,pleasant,unpleasant,NA,NA,NA,NA,NA,none,0,false,NA,NA,NA,NA,NA,NA,NA,NA
kISNaDhx,375vsr8fwzmfz1886kcfytzzg59zr5,32at8r96gpmc11c56oiewvl841msup,kISNaDhx,2020-0188,2021-10-31,03:41:48,05:03:29,NA,incomplete,false,true,NA,NA,1,31,NA,black,n_l_010.jpg,NA,NA,NA,NA,NA,unpleasant,pleasant,NA,NA,NA,NA,NA,right,1094.39999999851,true,NA,NA,NA,NA,NA,NA,NA,NA
kISNaDhx,375vsr8fwzmfz1886kcfytzzg59zr5,32at8r96gpmc11c56oiewvl841msup,kISNaDhx,2020-0188,2021-10-31,03:41:48,05:03:29,NA,incomplete,false,true,NA,NA,1,32,NA,black,n_s_033.jpg,NA,NA,NA,NA,NA,pleasant,unpleasant,NA,NA,NA,NA,NA,none,0,false,NA,NA,NA,NA,NA,NA,NA,NA
kISNaDhx,375vsr8fwzmfz1886kcfytzzg59zr5,32at8r96gpmc11c56oiewvl841msup,kISNaDhx,2020-0188,2021-10-31,03:41:48,05:03:29,NA,incomplete,false,true,NA,NA,1,33,NA,black,m_l_001.jpg,NA,NA,NA,NA,NA,pleasant,unpleasant,NA,NA,NA,NA,NA,none,0,false,NA,NA,NA,NA,NA,NA,NA,NA
kISNaDhx,375vsr8fwzmfz1886kcfytzzg59zr5,32at8r96gpmc11c56oiewvl841msup,kISNaDhx,2020-0188,2021-10-31,03:41:48,05:03:29,NA,incomplete,false,true,NA,NA,1,34,NA,black,n_s_019.jpg,NA,NA,NA,NA,NA,pleasant,unpleasant,NA,NA,NA,NA,NA,none,0,false,NA,NA,NA,NA,NA,NA,NA,NA
kISNaDhx,375vsr8fwzmfz1886kcfytzzg59zr5,32at8r96gpmc11c56oiewvl841msup,kISNaDhx,2020-0188,2021-10-31,03:41:48,05:03:29,NA,incomplete,false,true,NA,NA,1,35,NA,black,m_l_058.jpg,NA,NA,NA,NA,NA,pleasant,unpleasant,NA,NA,NA,NA,NA,none,0,false,NA,NA,NA,NA,NA,NA,NA,NA
kISNaDhx,375vsr8fwzmfz1886kcfytzzg59zr5,32at8r96gpmc11c56oiewvl841msup,kISNaDhx,2020-0188,2021-10-31,03:41:48,05:03:29,NA,incomplete,false,NA,NA,true,1,0,NA,NA,NA,left,m_s_097.jpg,green,brown,NA,NA,NA,NA,NA,NA,NA,NA,NA,NaN,NA,2813.3000000044703,left,1,NA,NA,NA,NA,NA
kISNaDhx,375vsr8fwzmfz1886kcfytzzg59zr5,32at8r96gpmc11c56oiewvl841msup,kISNaDhx,2020-0188,2021-10-31,03:41:48,05:03:29,NA,incomplete,false,NA,NA,true,1,1,NA,NA,NA,left,m_l_106.jpg,yellow,red,NA,NA,NA,NA,NA,NA,NA,NA,NA,NaN,NA,2392,left,1,NA,NA,NA,NA,NA
kISNaDhx,375vsr8fwzmfz1886kcfytzzg59zr5,32at8r96gpmc11c56oiewvl841msup,kISNaDhx,2020-0188,2021-10-31,03:41:48,05:03:29,NA,incomplete,false,NA,NA,true,1,2,NA,NA,NA,right,n_s_098.jpg,orange,red,NA,NA,NA,NA,NA,NA,NA,NA,NA,NaN,NA,2118.10000000149,right,1,NA,NA,NA,NA,NA
kISNaDhx,375vsr8fwzmfz1886kcfytzzg59zr5,32at8r96gpmc11c56oiewvl841msup,kISNaDhx,2020-0188,2021-10-31,03:41:48,05:03:29,NA,incomplete,false,NA,NA,true,1,3,NA,NA,NA,left,m_s_105.jpg,yellow,red,NA,NA,NA,NA,NA,NA,NA,NA,NA,NaN,NA,1908.7999999970198,left,1,NA,NA,NA,NA,NA
kISNaDhx,375vsr8fwzmfz1886kcfytzzg59zr5,32at8r96gpmc11c56oiewvl841msup,kISNaDhx,2020-0188,2021-10-31,03:41:48,05:03:29,NA,incomplete,false,NA,NA,true,1,4,NA,NA,NA,right,n_s_038.jpg,brown,green,NA,NA,NA,NA,NA,NA,NA,NA,NA,NaN,NA,1951.2999999970198,right,1,NA,NA,NA,NA,NA
kISNaDhx,375vsr8fwzmfz1886kcfytzzg59zr5,32at8r96gpmc11c56oiewvl841msup,kISNaDhx,2020-0188,2021-10-31,03:41:48,05:03:29,NA,incomplete,false,NA,NA,true,1,5,NA,NA,NA,left,n_s_112.jpg,orange,red,NA,NA,NA,NA,NA,NA,NA,NA,NA,NaN,NA,2151.8000000044703,right,0,NA,NA,NA,NA,NA
kISNaDhx,375vsr8fwzmfz1886kcfytzzg59zr5,32at8r96gpmc11c56oiewvl841msup,kISNaDhx,2020-0188,2021-10-31,03:41:48,05:03:29,NA,incomplete,false,NA,NA,true,1,6,NA,NA,NA,right,m_s_108.jpg,brown,yellow,NA,NA,NA,NA,NA,NA,NA,NA,NA,NaN,NA,2654.2000000029802,right,1,NA,NA,NA,NA,NA
kISNaDhx,375vsr8fwzmfz1886kcfytzzg59zr5,32at8r96gpmc11c56oiewvl841msup,kISNaDhx,2020-0188,2021-10-31,03:41:48,05:03:29,NA,incomplete,false,NA,NA,true,1,7,NA,NA,NA,left,m_l_102.jpg,red,orange,NA,NA,NA,NA,NA,NA,NA,NA,NA,NaN,NA,2917,left,1,NA,NA,NA,NA,NA
kISNaDhx,375vsr8fwzmfz1886kcfytzzg59zr5,32at8r96gpmc11c56oiewvl841msup,kISNaDhx,2020-0188,2021-10-31,03:41:48,05:03:29,NA,incomplete,false,NA,NA,true,1,8,NA,NA,NA,left,n_s_033.jpg,black,orange,NA,NA,NA,NA,NA,NA,NA,NA,NA,NaN,NA,2506.5,right,0,NA,NA,NA,NA,NA
kISNaDhx,375vsr8fwzmfz1886kcfytzzg59zr5,32at8r96gpmc11c56oiewvl841msup,kISNaDhx,2020-0188,2021-10-31,03:41:48,05:03:29,NA,incomplete,false,NA,NA,true,1,9,NA,NA,NA,left,n_l_010.jpg,black,orange,NA,NA,NA,NA,NA,NA,NA,NA,NA,NaN,NA,3260.4000000059605,left,1,NA,NA,NA,NA,NA
kISNaDhx,375vsr8fwzmfz1886kcfytzzg59zr5,32at8r96gpmc11c56oiewvl841msup,kISNaDhx,2020-0188,2021-10-31,03:41:48,05:03:29,NA,incomplete,false,NA,NA,true,1,10,NA,NA,NA,left,n_s_023.jpg,orange,red,NA,NA,NA,NA,NA,NA,NA,NA,NA,NaN,NA,2784.3000000044703,left,1,NA,NA,NA,NA,NA
kISNaDhx,375vsr8fwzmfz1886kcfytzzg59zr5,32at8r96gpmc11c56oiewvl841msup,kISNaDhx,2020-0188,2021-10-31,03:41:48,05:03:29,NA,incomplete,false,NA,NA,true,1,11,NA,NA,NA,right,n_s_117.jpg,brown,green,NA,NA,NA,NA,NA,NA,NA,NA,NA,NaN,NA,1674.5,right,1,NA,NA,NA,NA,NA
kISNaDhx,375vsr8fwzmfz1886kcfytzzg59zr5,32at8r96gpmc11c56oiewvl841msup,kISNaDhx,2020-0188,2021-10-31,03:41:48,05:03:29,NA,incomplete,false,NA,NA,true,1,12,NA,NA,NA,right,m_l_085.jpg,brown,yellow,NA,NA,NA,NA,NA,NA,NA,NA,NA,NaN,NA,2214.5999999940395,right,1,NA,NA,NA,NA,NA
kISNaDhx,375vsr8fwzmfz1886kcfytzzg59zr5,32at8r96gpmc11c56oiewvl841msup,kISNaDhx,2020-0188,2021-10-31,03:41:48,05:03:29,NA,incomplete,false,NA,NA,true,1,13,NA,NA,NA,right,m_l_058.jpg,orange,black,NA,NA,NA,NA,NA,NA,NA,NA,NA,NaN,NA,1880.6000000014901,right,1,NA,NA,NA,NA,NA
kISNaDhx,375vsr8fwzmfz1886kcfytzzg59zr5,32at8r96gpmc11c56oiewvl841msup,kISNaDhx,2020-0188,2021-10-31,03:41:48,05:03:29,NA,incomplete,false,NA,NA,true,1,14,NA,NA,NA,right,m_s_064.jpg,black,orange,NA,NA,NA,NA,NA,NA,NA,NA,NA,NaN,NA,2512.5,left,0,NA,NA,NA,NA,NA
kISNaDhx,375vsr8fwzmfz1886kcfytzzg59zr5,32at8r96gpmc11c56oiewvl841msup,kISNaDhx,2020-0188,2021-10-31,03:41:48,05:03:29,NA,incomplete,false,NA,NA,true,1,15,NA,NA,NA,left,n_s_081.jpg,brown,green,NA,NA,NA,NA,NA,NA,NA,NA,NA,NaN,NA,3878.5,left,1,NA,NA,NA,NA,NA
kISNaDhx,375vsr8fwzmfz1886kcfytzzg59zr5,32at8r96gpmc11c56oiewvl841msup,kISNaDhx,2020-0188,2021-10-31,03:41:48,05:03:29,NA,incomplete,false,NA,NA,true,1,16,NA,NA,NA,right,m_l_037.jpg,red,orange,NA,NA,NA,NA,NA,NA,NA,NA,NA,NaN,NA,2732.7999999970198,right,1,NA,NA,NA,NA,NA
kISNaDhx,375vsr8fwzmfz1886kcfytzzg59zr5,32at8r96gpmc11c56oiewvl841msup,kISNaDhx,2020-0188,2021-10-31,03:41:48,05:03:29,NA,incomplete,false,NA,NA,true,1,17,NA,NA,NA,right,m_s_111.jpg,yellow,brown,NA,NA,NA,NA,NA,NA,NA,NA,NA,NaN,NA,2201.60000000149,right,1,NA,NA,NA,NA,NA
kISNaDhx,375vsr8fwzmfz1886kcfytzzg59zr5,32at8r96gpmc11c56oiewvl841msup,kISNaDhx,2020-0188,2021-10-31,03:41:48,05:03:29,NA,incomplete,false,NA,NA,true,1,18,NA,NA,NA,left,m_s_037.jpg,red,orange,NA,NA,NA,NA,NA,NA,NA,NA,NA,NaN,NA,3436.5,right,0,NA,NA,NA,NA,NA
kISNaDhx,375vsr8fwzmfz1886kcfytzzg59zr5,32at8r96gpmc11c56oiewvl841msup,kISNaDhx,2020-0188,2021-10-31,03:41:48,05:03:29,NA,incomplete,false,NA,NA,true,1,19,NA,NA,NA,right,m_l_048.jpg,green,brown,NA,NA,NA,NA,NA,NA,NA,NA,NA,NaN,NA,2362.7999999970198,right,1,NA,NA,NA,NA,NA
kISNaDhx,375vsr8fwzmfz1886kcfytzzg59zr5,32at8r96gpmc11c56oiewvl841msup,kISNaDhx,2020-0188,2021-10-31,03:41:48,05:03:29,NA,incomplete,false,NA,NA,true,1,20,NA,NA,NA,left,m_l_092.jpg,red,yellow,NA,NA,NA,NA,NA,NA,NA,NA,NA,NaN,NA,3285.5,left,1,NA,NA,NA,NA,NA
kISNaDhx,375vsr8fwzmfz1886kcfytzzg59zr5,32at8r96gpmc11c56oiewvl841msup,kISNaDhx,2020-0188,2021-10-31,03:41:48,05:03:29,NA,incomplete,false,NA,NA,true,1,21,NA,NA,NA,left,m_s_026.jpg,brown,green,NA,NA,NA,NA,NA,NA,NA,NA,NA,NaN,NA,3266.9000000059605,right,0,NA,NA,NA,NA,NA
kISNaDhx,375vsr8fwzmfz1886kcfytzzg59zr5,32at8r96gpmc11c56oiewvl841msup,kISNaDhx,2020-0188,2021-10-31,03:41:48,05:03:29,NA,incomplete,false,NA,true,NA,1,0,NA,NA,NA,left,NA,NA,NA,present,NA,NA,m_l_048.jpg,brown,m_l_106.jpg,yellow,between,NA,NaN,NA,NA,NA,NA,right,6801.70000000298,0,3,2622.7000000029802
kISNaDhx,375vsr8fwzmfz1886kcfytzzg59zr5,32at8r96gpmc11c56oiewvl841msup,kISNaDhx,2020-0188,2021-10-31,03:41:48,05:03:29,NA,incomplete,false,NA,true,NA,1,1,NA,NA,NA,left,NA,NA,NA,present,NA,NA,n_s_117.jpg,green,n_s_038.jpg,green,within,NA,NaN,NA,NA,NA,NA,left,3432.1999999955297,1,0,1814.6000000014901
kISNaDhx,375vsr8fwzmfz1886kcfytzzg59zr5,32at8r96gpmc11c56oiewvl841msup,kISNaDhx,2020-0188,2021-10-31,03:41:48,05:03:29,NA,incomplete,false,NA,true,NA,1,2,NA,NA,NA,left,NA,NA,NA,present,NA,NA,n_l_010.jpg,black,m_l_058.jpg,black,within,NA,NaN,NA,NA,NA,NA,left,3791.7999999970198,1,0,1947.6000000014901
kISNaDhx,375vsr8fwzmfz1886kcfytzzg59zr5,32at8r96gpmc11c56oiewvl841msup,kISNaDhx,2020-0188,2021-10-31,03:41:48,05:03:29,NA,incomplete,false,NA,true,NA,1,3,NA,NA,NA,right,NA,NA,NA,present,NA,NA,m_s_108.jpg,yellow,m_l_085.jpg,yellow,within,NA,NaN,NA,NA,NA,NA,left,3503,0,1,1087.1000000014901
kISNaDhx,375vsr8fwzmfz1886kcfytzzg59zr5,32at8r96gpmc11c56oiewvl841msup,kISNaDhx,2020-0188,2021-10-31,03:41:48,05:03:29,NA,incomplete,false,NA,true,NA,1,4,NA,NA,NA,left,NA,NA,NA,present,NA,NA,m_s_026.jpg,brown,n_s_081.jpg,brown,within,NA,NaN,NA,NA,NA,NA,left,2448.10000000149,1,0,1309.6000000014901
kISNaDhx,375vsr8fwzmfz1886kcfytzzg59zr5,32at8r96gpmc11c56oiewvl841msup,kISNaDhx,2020-0188,2021-10-31,03:41:48,05:03:29,NA,incomplete,false,NA,true,NA,1,5,NA,NA,NA,right,NA,NA,NA,present,NA,NA,m_l_037.jpg,orange,m_s_064.jpg,orange,within,NA,NaN,NA,NA,NA,NA,right,3654.39999999851,1,0,1489.6000000014901
kISNaDhx,375vsr8fwzmfz1886kcfytzzg59zr5,32at8r96gpmc11c56oiewvl841msup,kISNaDhx,2020-0188,2021-10-31,03:41:48,05:03:29,NA,incomplete,false,NA,true,NA,1,6,NA,NA,NA,right,NA,NA,NA,present,NA,NA,n_s_112.jpg,orange,m_l_102.jpg,red,between,NA,NaN,NA,NA,NA,NA,left,3150.89999999851,0,3,1144.1999999955297
kISNaDhx,375vsr8fwzmfz1886kcfytzzg59zr5,32at8r96gpmc11c56oiewvl841msup,kISNaDhx,2020-0188,2021-10-31,03:41:48,05:03:29,NA,incomplete,false,NA,true,NA,1,7,NA,NA,NA,right,NA,NA,NA,present,NA,NA,n_s_033.jpg,black,n_s_023.jpg,orange,between,NA,NaN,NA,NA,NA,NA,right,2918.5,1,2,1547.1999999955297
kISNaDhx,375vsr8fwzmfz1886kcfytzzg59zr5,32at8r96gpmc11c56oiewvl841msup,kISNaDhx,2020-0188,2021-10-31,03:41:48,05:03:29,NA,incomplete,false,NA,true,NA,1,8,NA,NA,NA,left,NA,NA,NA,present,NA,NA,m_s_105.jpg,yellow,m_l_092.jpg,red,between,NA,NaN,NA,NA,NA,NA,left,3865.60000000149,1,2,1367
kISNaDhx,375vsr8fwzmfz1886kcfytzzg59zr5,32at8r96gpmc11c56oiewvl841msup,kISNaDhx,2020-0188,2021-10-31,03:41:48,05:03:29,NA,incomplete,false,NA,true,NA,1,9,NA,NA,NA,right,NA,NA,NA,present,NA,NA,n_s_098.jpg,red,m_s_037.jpg,red,within,NA,NaN,NA,NA,NA,NA,left,3028.0999999940395,0,1,1434
kISNaDhx,375vsr8fwzmfz1886kcfytzzg59zr5,32at8r96gpmc11c56oiewvl841msup,kISNaDhx,2020-0188,2021-10-31,03:41:48,05:03:29,NA,incomplete,false,NA,true,NA,1,10,NA,NA,NA,right,NA,NA,NA,present,NA,NA,m_s_111.jpg,brown,m_s_097.jpg,green,between,NA,NaN,NA,NA,NA,NA,right,3878.2999999970198,1,3,1678.2000000029802
kISNaDhx,375vsr8fwzmfz1886kcfytzzg59zr5,32at8r96gpmc11c56oiewvl841msup,kISNaDhx,2020-0188,2021-10-31,03:41:48,05:03:29,NA,incomplete,false,true,NA,NA,2,0,NA,blue,n_s_072.jpg,NA,NA,NA,NA,NA,unpleasant,pleasant,NA,NA,NA,NA,NA,right,2415.10000000149,true,NA,NA,NA,NA,NA,NA,NA,NA
kISNaDhx,375vsr8fwzmfz1886kcfytzzg59zr5,32at8r96gpmc11c56oiewvl841msup,kISNaDhx,2020-0188,2021-10-31,03:41:48,05:03:29,NA,incomplete,false,true,NA,NA,2,1,NA,blue,m_s_086.jpg,NA,NA,NA,NA,NA,unpleasant,pleasant,NA,NA,NA,NA,NA,right,1018.29999999702,true,NA,NA,NA,NA,NA,NA,NA,NA
kISNaDhx,375vsr8fwzmfz1886kcfytzzg59zr5,32at8r96gpmc11c56oiewvl841msup,kISNaDhx,2020-0188,2021-10-31,03:41:48,05:03:29,NA,incomplete,false,true,NA,NA,2,2,NA,blue,m_l_036.jpg,NA,NA,NA,NA,NA,unpleasant,pleasant,NA,NA,NA,NA,NA,left,880.60000000149,true,NA,NA,NA,NA,NA,NA,NA,NA
kISNaDhx,375vsr8fwzmfz1886kcfytzzg59zr5,32at8r96gpmc11c56oiewvl841msup,kISNaDhx,2020-0188,2021-10-31,03:41:48,05:03:29,NA,incomplete,false,true,NA,NA,2,3,NA,blue,m_s_034.jpg,NA,NA,NA,NA,NA,pleasant,unpleasant,NA,NA,NA,NA,NA,left,1924.19999999553,true,NA,NA,NA,NA,NA,NA,NA,NA
kISNaDhx,375vsr8fwzmfz1886kcfytzzg59zr5,32at8r96gpmc11c56oiewvl841msup,kISNaDhx,2020-0188,2021-10-31,03:41:48,05:03:29,NA,incomplete,false,true,NA,NA,2,4,NA,blue,m_s_012.jpg,NA,NA,NA,NA,NA,unpleasant,pleasant,NA,NA,NA,NA,NA,right,1444.60000000149,true,NA,NA,NA,NA,NA,NA,NA,NA
kISNaDhx,375vsr8fwzmfz1886kcfytzzg59zr5,32at8r96gpmc11c56oiewvl841msup,kISNaDhx,2020-0188,2021-10-31,03:41:48,05:03:29,NA,incomplete,false,true,NA,NA,2,5,NA,blue,m_s_007.jpg,NA,NA,NA,NA,NA,pleasant,unpleasant,NA,NA,NA,NA,NA,left,1071.89999999851,true,NA,NA,NA,NA,NA,NA,NA,NA
kISNaDhx,375vsr8fwzmfz1886kcfytzzg59zr5,32at8r96gpmc11c56oiewvl841msup,kISNaDhx,2020-0188,2021-10-31,03:41:48,05:03:29,NA,incomplete,false,true,NA,NA,2,6,NA,gray,n_l_096.jpg,NA,NA,NA,NA,NA,pleasant,unpleasant,NA,NA,NA,NA,NA,left,1455,true,NA,NA,NA,NA,NA,NA,NA,NA
kISNaDhx,375vsr8fwzmfz1886kcfytzzg59zr5,32at8r96gpmc11c56oiewvl841msup,kISNaDhx,2020-0188,2021-10-31,03:41:48,05:03:29,NA,incomplete,false,true,NA,NA,2,7,NA,gray,m_l_101.jpg,NA,NA,NA,NA,NA,unpleasant,pleasant,NA,NA,NA,NA,NA,right,1367.70000000298,true,NA,NA,NA,NA,NA,NA,NA,NA
kISNaDhx,375vsr8fwzmfz1886kcfytzzg59zr5,32at8r96gpmc11c56oiewvl841msup,kISNaDhx,2020-0188,2021-10-31,03:41:48,05:03:29,NA,incomplete,false,true,NA,NA,2,8,NA,gray,m_s_096.jpg,NA,NA,NA,NA,NA,pleasant,unpleasant,NA,NA,NA,NA,NA,left,1438.5,true,NA,NA,NA,NA,NA,NA,NA,NA
kISNaDhx,375vsr8fwzmfz1886kcfytzzg59zr5,32at8r96gpmc11c56oiewvl841msup,kISNaDhx,2020-0188,2021-10-31,03:41:48,05:03:29,NA,incomplete,false,true,NA,NA,2,9,NA,gray,m_l_071.jpg,NA,NA,NA,NA,NA,pleasant,unpleasant,NA,NA,NA,NA,NA,left,1675.70000000298,true,NA,NA,NA,NA,NA,NA,NA,NA
kISNaDhx,375vsr8fwzmfz1886kcfytzzg59zr5,32at8r96gpmc11c56oiewvl841msup,kISNaDhx,2020-0188,2021-10-31,03:41:48,05:03:29,NA,incomplete,false,true,NA,NA,2,10,NA,gray,m_l_044.jpg,NA,NA,NA,NA,NA,pleasant,unpleasant,NA,NA,NA,NA,NA,left,1788.70000000298,true,NA,NA,NA,NA,NA,NA,NA,NA
kISNaDhx,375vsr8fwzmfz1886kcfytzzg59zr5,32at8r96gpmc11c56oiewvl841msup,kISNaDhx,2020-0188,2021-10-31,03:41:48,05:03:29,NA,incomplete,false,true,NA,NA,2,11,NA,gray,n_s_095.jpg,NA,NA,NA,NA,NA,pleasant,unpleasant,NA,NA,NA,NA,NA,left,1311.60000000149,true,NA,NA,NA,NA,NA,NA,NA,NA
kISNaDhx,375vsr8fwzmfz1886kcfytzzg59zr5,32at8r96gpmc11c56oiewvl841msup,kISNaDhx,2020-0188,2021-10-31,03:41:48,05:03:29,NA,incomplete,false,true,NA,NA,2,12,NA,black,n_l_064.jpg,NA,NA,NA,NA,NA,unpleasant,pleasant,NA,NA,NA,NA,NA,right,1092.89999999851,true,NA,NA,NA,NA,NA,NA,NA,NA
kISNaDhx,375vsr8fwzmfz1886kcfytzzg59zr5,32at8r96gpmc11c56oiewvl841msup,kISNaDhx,2020-0188,2021-10-31,03:41:48,05:03:29,NA,incomplete,false,true,NA,NA,2,13,NA,black,n_l_073.jpg,NA,NA,NA,NA,NA,pleasant,unpleasant,NA,NA,NA,NA,NA,left,2416.30000000447,true,NA,NA,NA,NA,NA,NA,NA,NA
kISNaDhx,375vsr8fwzmfz1886kcfytzzg59zr5,32at8r96gpmc11c56oiewvl841msup,kISNaDhx,2020-0188,2021-10-31,03:41:48,05:03:29,NA,incomplete,false,true,NA,NA,2,14,NA,black,m_l_077.jpg,NA,NA,NA,NA,NA,pleasant,unpleasant,NA,NA,NA,NA,NA,right,1839.5,true,NA,NA,NA,NA,NA,NA,NA,NA
kISNaDhx,375vsr8fwzmfz1886kcfytzzg59zr5,32at8r96gpmc11c56oiewvl841msup,kISNaDhx,2020-0188,2021-10-31,03:41:48,05:03:29,NA,incomplete,false,true,NA,NA,2,15,NA,black,n_l_111.jpg,NA,NA,NA,NA,NA,pleasant,unpleasant,NA,NA,NA,NA,NA,left,1335.90000000596,true,NA,NA,NA,NA,NA,NA,NA,NA
kISNaDhx,375vsr8fwzmfz1886kcfytzzg59zr5,32at8r96gpmc11c56oiewvl841msup,kISNaDhx,2020-0188,2021-10-31,03:41:48,05:03:29,NA,incomplete,false,true,NA,NA,2,16,NA,black,m_l_014.jpg,NA,NA,NA,NA,NA,unpleasant,pleasant,NA,NA,NA,NA,NA,right,2107,true,NA,NA,NA,NA,NA,NA,NA,NA
kISNaDhx,375vsr8fwzmfz1886kcfytzzg59zr5,32at8r96gpmc11c56oiewvl841msup,kISNaDhx,2020-0188,2021-10-31,03:41:48,05:03:29,NA,incomplete,false,true,NA,NA,2,17,NA,black,m_l_026.jpg,NA,NA,NA,NA,NA,unpleasant,pleasant,NA,NA,NA,NA,NA,right,1183.60000000149,true,NA,NA,NA,NA,NA,NA,NA,NA
kISNaDhx,375vsr8fwzmfz1886kcfytzzg59zr5,32at8r96gpmc11c56oiewvl841msup,kISNaDhx,2020-0188,2021-10-31,03:41:48,05:03:29,NA,incomplete,false,true,NA,NA,2,18,NA,white,n_l_054.jpg,NA,NA,NA,NA,NA,unpleasant,pleasant,NA,NA,NA,NA,NA,right,1403.60000000149,true,NA,NA,NA,NA,NA,NA,NA,NA
kISNaDhx,375vsr8fwzmfz1886kcfytzzg59zr5,32at8r96gpmc11c56oiewvl841msup,kISNaDhx,2020-0188,2021-10-31,03:41:48,05:03:29,NA,incomplete,false,true,NA,NA,2,19,NA,white,n_l_032.jpg,NA,NA,NA,NA,NA,pleasant,unpleasant,NA,NA,NA,NA,NA,left,1434.5,true,NA,NA,NA,NA,NA,NA,NA,NA
kISNaDhx,375vsr8fwzmfz1886kcfytzzg59zr5,32at8r96gpmc11c56oiewvl841msup,kISNaDhx,2020-0188,2021-10-31,03:41:48,05:03:29,NA,incomplete,false,true,NA,NA,2,20,NA,white,m_l_056.jpg,NA,NA,NA,NA,NA,unpleasant,pleasant,NA,NA,NA,NA,NA,right,2227.89999999851,true,NA,NA,NA,NA,NA,NA,NA,NA
kISNaDhx,375vsr8fwzmfz1886kcfytzzg59zr5,32at8r96gpmc11c56oiewvl841msup,kISNaDhx,2020-0188,2021-10-31,03:41:48,05:03:29,NA,incomplete,false,true,NA,NA,2,21,NA,white,n_l_026.jpg,NA,NA,NA,NA,NA,pleasant,unpleasant,NA,NA,NA,NA,NA,left,1366.60000000149,true,NA,NA,NA,NA,NA,NA,NA,NA
kISNaDhx,375vsr8fwzmfz1886kcfytzzg59zr5,32at8r96gpmc11c56oiewvl841msup,kISNaDhx,2020-0188,2021-10-31,03:41:48,05:03:29,NA,incomplete,false,true,NA,NA,2,22,NA,white,m_l_050.jpg,NA,NA,NA,NA,NA,pleasant,unpleasant,NA,NA,NA,NA,NA,left,1100.5,true,NA,NA,NA,NA,NA,NA,NA,NA
kISNaDhx,375vsr8fwzmfz1886kcfytzzg59zr5,32at8r96gpmc11c56oiewvl841msup,kISNaDhx,2020-0188,2021-10-31,03:41:48,05:03:29,NA,incomplete,false,true,NA,NA,2,23,NA,white,m_s_102.jpg,NA,NA,NA,NA,NA,unpleasant,pleasant,NA,NA,NA,NA,NA,right,1758.10000000149,true,NA,NA,NA,NA,NA,NA,NA,NA
kISNaDhx,375vsr8fwzmfz1886kcfytzzg59zr5,32at8r96gpmc11c56oiewvl841msup,kISNaDhx,2020-0188,2021-10-31,03:41:48,05:03:29,NA,incomplete,false,true,NA,NA,2,24,NA,brown,n_l_005.jpg,NA,NA,NA,NA,NA,unpleasant,pleasant,NA,NA,NA,NA,NA,right,1740.60000000149,true,NA,NA,NA,NA,NA,NA,NA,NA
kISNaDhx,375vsr8fwzmfz1886kcfytzzg59zr5,32at8r96gpmc11c56oiewvl841msup,kISNaDhx,2020-0188,2021-10-31,03:41:48,05:03:29,NA,incomplete,false,true,NA,NA,2,25,NA,brown,m_l_089.jpg,NA,NA,NA,NA,NA,unpleasant,pleasant,NA,NA,NA,NA,NA,right,1968.60000000149,true,NA,NA,NA,NA,NA,NA,NA,NA
kISNaDhx,375vsr8fwzmfz1886kcfytzzg59zr5,32at8r96gpmc11c56oiewvl841msup,kISNaDhx,2020-0188,2021-10-31,03:41:48,05:03:29,NA,incomplete,false,true,NA,NA,2,26,NA,brown,n_l_031.jpg,NA,NA,NA,NA,NA,pleasant,unpleasant,NA,NA,NA,NA,NA,left,1072.60000000149,true,NA,NA,NA,NA,NA,NA,NA,NA
kISNaDhx,375vsr8fwzmfz1886kcfytzzg59zr5,32at8r96gpmc11c56oiewvl841msup,kISNaDhx,2020-0188,2021-10-31,03:41:48,05:03:29,NA,incomplete,false,true,NA,NA,2,27,NA,brown,n_l_087.jpg,NA,NA,NA,NA,NA,pleasant,unpleasant,NA,NA,NA,NA,NA,left,1060.29999999702,true,NA,NA,NA,NA,NA,NA,NA,NA
kISNaDhx,375vsr8fwzmfz1886kcfytzzg59zr5,32at8r96gpmc11c56oiewvl841msup,kISNaDhx,2020-0188,2021-10-31,03:41:48,05:03:29,NA,incomplete,false,true,NA,NA,2,28,NA,brown,n_l_103.jpg,NA,NA,NA,NA,NA,pleasant,unpleasant,NA,NA,NA,NA,NA,left,1159.79999999702,true,NA,NA,NA,NA,NA,NA,NA,NA
kISNaDhx,375vsr8fwzmfz1886kcfytzzg59zr5,32at8r96gpmc11c56oiewvl841msup,kISNaDhx,2020-0188,2021-10-31,03:41:48,05:03:29,NA,incomplete,false,true,NA,NA,2,29,NA,brown,n_l_105.jpg,NA,NA,NA,NA,NA,unpleasant,pleasant,NA,NA,NA,NA,NA,right,1294.80000000447,true,NA,NA,NA,NA,NA,NA,NA,NA
kISNaDhx,375vsr8fwzmfz1886kcfytzzg59zr5,32at8r96gpmc11c56oiewvl841msup,kISNaDhx,2020-0188,2021-10-31,03:41:48,05:03:29,NA,incomplete,false,true,NA,NA,2,30,NA,yellow,n_s_092.jpg,NA,NA,NA,NA,NA,unpleasant,pleasant,NA,NA,NA,NA,NA,right,1357,true,NA,NA,NA,NA,NA,NA,NA,NA
kISNaDhx,375vsr8fwzmfz1886kcfytzzg59zr5,32at8r96gpmc11c56oiewvl841msup,kISNaDhx,2020-0188,2021-10-31,03:41:48,05:03:29,NA,incomplete,false,true,NA,NA,2,31,NA,yellow,m_l_084.jpg,NA,NA,NA,NA,NA,unpleasant,pleasant,NA,NA,NA,NA,NA,right,1417,true,NA,NA,NA,NA,NA,NA,NA,NA
kISNaDhx,375vsr8fwzmfz1886kcfytzzg59zr5,32at8r96gpmc11c56oiewvl841msup,kISNaDhx,2020-0188,2021-10-31,03:41:48,05:03:29,NA,incomplete,false,true,NA,NA,2,32,NA,yellow,m_s_078.jpg,NA,NA,NA,NA,NA,unpleasant,pleasant,NA,NA,NA,NA,NA,right,1100.70000000298,true,NA,NA,NA,NA,NA,NA,NA,NA
kISNaDhx,375vsr8fwzmfz1886kcfytzzg59zr5,32at8r96gpmc11c56oiewvl841msup,kISNaDhx,2020-0188,2021-10-31,03:41:48,05:03:29,NA,incomplete,false,true,NA,NA,2,33,NA,yellow,m_s_107.jpg,NA,NA,NA,NA,NA,unpleasant,pleasant,NA,NA,NA,NA,NA,left,1024.10000000149,true,NA,NA,NA,NA,NA,NA,NA,NA
kISNaDhx,375vsr8fwzmfz1886kcfytzzg59zr5,32at8r96gpmc11c56oiewvl841msup,kISNaDhx,2020-0188,2021-10-31,03:41:48,05:03:29,NA,incomplete,false,true,NA,NA,2,34,NA,yellow,m_l_088.jpg,NA,NA,NA,NA,NA,pleasant,unpleasant,NA,NA,NA,NA,NA,left,1627.60000000149,true,NA,NA,NA,NA,NA,NA,NA,NA
kISNaDhx,375vsr8fwzmfz1886kcfytzzg59zr5,32at8r96gpmc11c56oiewvl841msup,kISNaDhx,2020-0188,2021-10-31,03:41:48,05:03:29,NA,incomplete,false,true,NA,NA,2,35,NA,yellow,n_l_002.jpg,NA,NA,NA,NA,NA,pleasant,unpleasant,NA,NA,NA,NA,NA,left,1211.89999999851,true,NA,NA,NA,NA,NA,NA,NA,NA
kISNaDhx,375vsr8fwzmfz1886kcfytzzg59zr5,32at8r96gpmc11c56oiewvl841msup,kISNaDhx,2020-0188,2021-10-31,03:41:48,05:03:29,NA,incomplete,false,NA,NA,true,2,0,NA,NA,NA,left,m_l_044.jpg,gray,black,NA,NA,NA,NA,NA,NA,NA,NA,NA,NaN,NA,2483.89999999851,right,0,NA,NA,NA,NA,NA
kISNaDhx,375vsr8fwzmfz1886kcfytzzg59zr5,32at8r96gpmc11c56oiewvl841msup,kISNaDhx,2020-0188,2021-10-31,03:41:48,05:03:29,NA,incomplete,false,NA,NA,true,2,1,NA,NA,NA,left,n_l_032.jpg,white,black,NA,NA,NA,NA,NA,NA,NA,NA,NA,NaN,NA,2088.39999999851,right,0,NA,NA,NA,NA,NA
kISNaDhx,375vsr8fwzmfz1886kcfytzzg59zr5,32at8r96gpmc11c56oiewvl841msup,kISNaDhx,2020-0188,2021-10-31,03:41:48,05:03:29,NA,incomplete,false,NA,NA,true,2,2,NA,NA,NA,right,m_s_007.jpg,gray,blue,NA,NA,NA,NA,NA,NA,NA,NA,NA,NaN,NA,1819.4000000059605,right,1,NA,NA,NA,NA,NA
kISNaDhx,375vsr8fwzmfz1886kcfytzzg59zr5,32at8r96gpmc11c56oiewvl841msup,kISNaDhx,2020-0188,2021-10-31,03:41:48,05:03:29,NA,incomplete,false,NA,NA,true,2,3,NA,NA,NA,right,n_l_105.jpg,yellow,brown,NA,NA,NA,NA,NA,NA,NA,NA,NA,NaN,NA,1704.1000000014901,right,1,NA,NA,NA,NA,NA
kISNaDhx,375vsr8fwzmfz1886kcfytzzg59zr5,32at8r96gpmc11c56oiewvl841msup,kISNaDhx,2020-0188,2021-10-31,03:41:48,05:03:29,NA,incomplete,false,NA,NA,true,2,4,NA,NA,NA,left,m_l_084.jpg,yellow,brown,NA,NA,NA,NA,NA,NA,NA,NA,NA,NaN,NA,2065.5999999940395,left,1,NA,NA,NA,NA,NA
kISNaDhx,375vsr8fwzmfz1886kcfytzzg59zr5,32at8r96gpmc11c56oiewvl841msup,kISNaDhx,2020-0188,2021-10-31,03:41:48,05:03:29,NA,incomplete,false,NA,NA,true,2,5,NA,NA,NA,right,m_s_086.jpg,gray,blue,NA,NA,NA,NA,NA,NA,NA,NA,NA,NaN,NA,6097.39999999851,right,1,NA,NA,NA,NA,NA
kISNaDhx,375vsr8fwzmfz1886kcfytzzg59zr5,32at8r96gpmc11c56oiewvl841msup,kISNaDhx,2020-0188,2021-10-31,03:41:48,05:03:29,NA,incomplete,false,NA,NA,true,2,6,NA,NA,NA,right,m_l_026.jpg,gray,black,NA,NA,NA,NA,NA,NA,NA,NA,NA,NaN,NA,1915.7999999970198,right,1,NA,NA,NA,NA,NA
kISNaDhx,375vsr8fwzmfz1886kcfytzzg59zr5,32at8r96gpmc11c56oiewvl841msup,kISNaDhx,2020-0188,2021-10-31,03:41:48,05:03:29,NA,incomplete,false,NA,NA,true,2,7,NA,NA,NA,left,m_s_078.jpg,yellow,brown,NA,NA,NA,NA,NA,NA,NA,NA,NA,NaN,NA,2139.6999999955297,right,0,NA,NA,NA,NA,NA
kISNaDhx,375vsr8fwzmfz1886kcfytzzg59zr5,32at8r96gpmc11c56oiewvl841msup,kISNaDhx,2020-0188,2021-10-31,03:41:48,05:03:29,NA,incomplete,false,NA,NA,true,2,8,NA,NA,NA,left,n_l_103.jpg,brown,white,NA,NA,NA,NA,NA,NA,NA,NA,NA,NaN,NA,3649,right,0,NA,NA,NA,NA,NA
kISNaDhx,375vsr8fwzmfz1886kcfytzzg59zr5,32at8r96gpmc11c56oiewvl841msup,kISNaDhx,2020-0188,2021-10-31,03:41:48,05:03:29,NA,incomplete,false,NA,NA,true,2,9,NA,NA,NA,right,n_l_031.jpg,yellow,brown,NA,NA,NA,NA,NA,NA,NA,NA,NA,NaN,NA,2419.7999999970198,right,1,NA,NA,NA,NA,NA
kISNaDhx,375vsr8fwzmfz1886kcfytzzg59zr5,32at8r96gpmc11c56oiewvl841msup,kISNaDhx,2020-0188,2021-10-31,03:41:48,05:03:29,NA,incomplete,false,NA,NA,true,2,10,NA,NA,NA,right,m_l_077.jpg,gray,black,NA,NA,NA,NA,NA,NA,NA,NA,NA,NaN,NA,4280.5999999940395,left,0,NA,NA,NA,NA,NA
kISNaDhx,375vsr8fwzmfz1886kcfytzzg59zr5,32at8r96gpmc11c56oiewvl841msup,kISNaDhx,2020-0188,2021-10-31,03:41:48,05:03:29,NA,incomplete,false,NA,NA,true,2,11,NA,NA,NA,left,m_s_012.jpg,blue,gray,NA,NA,NA,NA,NA,NA,NA,NA,NA,NaN,NA,2185.1999999955297,left,1,NA,NA,NA,NA,NA
kISNaDhx,375vsr8fwzmfz1886kcfytzzg59zr5,32at8r96gpmc11c56oiewvl841msup,kISNaDhx,2020-0188,2021-10-31,03:41:48,05:03:29,NA,incomplete,false,NA,NA,true,2,12,NA,NA,NA,left,m_s_102.jpg,white,brown,NA,NA,NA,NA,NA,NA,NA,NA,NA,NaN,NA,2484.7999999970198,left,1,NA,NA,NA,NA,NA
kISNaDhx,375vsr8fwzmfz1886kcfytzzg59zr5,32at8r96gpmc11c56oiewvl841msup,kISNaDhx,2020-0188,2021-10-31,03:41:48,05:03:29,NA,incomplete,false,NA,NA,true,2,13,NA,NA,NA,right,n_l_073.jpg,white,black,NA,NA,NA,NA,NA,NA,NA,NA,NA,NaN,NA,7259.79999999702,right,1,NA,NA,NA,NA,NA
kISNaDhx,375vsr8fwzmfz1886kcfytzzg59zr5,32at8r96gpmc11c56oiewvl841msup,kISNaDhx,2020-0188,2021-10-31,03:41:48,05:03:29,NA,incomplete,false,NA,NA,true,2,14,NA,NA,NA,right,n_s_095.jpg,blue,gray,NA,NA,NA,NA,NA,NA,NA,NA,NA,NaN,NA,2373.89999999851,left,0,NA,NA,NA,NA,NA
kISNaDhx,375vsr8fwzmfz1886kcfytzzg59zr5,32at8r96gpmc11c56oiewvl841msup,kISNaDhx,2020-0188,2021-10-31,03:41:48,05:03:29,NA,incomplete,false,NA,NA,true,2,15,NA,NA,NA,left,m_l_089.jpg,brown,yellow,NA,NA,NA,NA,NA,NA,NA,NA,NA,NaN,NA,1953.8000000044703,left,1,NA,NA,NA,NA,NA
kISNaDhx,375vsr8fwzmfz1886kcfytzzg59zr5,32at8r96gpmc11c56oiewvl841msup,kISNaDhx,2020-0188,2021-10-31,03:41:48,05:03:29,NA,incomplete,false,NA,NA,true,2,16,NA,NA,NA,right,n_l_002.jpg,brown,yellow,NA,NA,NA,NA,NA,NA,NA,NA,NA,NaN,NA,2387.7999999970198,left,0,NA,NA,NA,NA,NA
kISNaDhx,375vsr8fwzmfz1886kcfytzzg59zr5,32at8r96gpmc11c56oiewvl841msup,kISNaDhx,2020-0188,2021-10-31,03:41:48,05:03:29,NA,incomplete,false,NA,NA,true,2,17,NA,NA,NA,right,m_l_056.jpg,black,white,NA,NA,NA,NA,NA,NA,NA,NA,NA,NaN,NA,1900.1999999955297,left,0,NA,NA,NA,NA,NA
kISNaDhx,375vsr8fwzmfz1886kcfytzzg59zr5,32at8r96gpmc11c56oiewvl841msup,kISNaDhx,2020-0188,2021-10-31,03:41:48,05:03:29,NA,incomplete,false,NA,NA,true,2,18,NA,NA,NA,left,m_l_101.jpg,gray,blue,NA,NA,NA,NA,NA,NA,NA,NA,NA,NaN,NA,3072.89999999851,left,1,NA,NA,NA,NA,NA
kISNaDhx,375vsr8fwzmfz1886kcfytzzg59zr5,32at8r96gpmc11c56oiewvl841msup,kISNaDhx,2020-0188,2021-10-31,03:41:48,05:03:29,NA,incomplete,false,NA,NA,true,2,19,NA,NA,NA,right,m_l_050.jpg,black,white,NA,NA,NA,NA,NA,NA,NA,NA,NA,NaN,NA,2148,left,0,NA,NA,NA,NA,NA
kISNaDhx,375vsr8fwzmfz1886kcfytzzg59zr5,32at8r96gpmc11c56oiewvl841msup,kISNaDhx,2020-0188,2021-10-31,03:41:48,05:03:29,NA,incomplete,false,NA,NA,true,2,20,NA,NA,NA,left,m_l_014.jpg,black,gray,NA,NA,NA,NA,NA,NA,NA,NA,NA,NaN,NA,2715.5,left,1,NA,NA,NA,NA,NA
kISNaDhx,375vsr8fwzmfz1886kcfytzzg59zr5,32at8r96gpmc11c56oiewvl841msup,kISNaDhx,2020-0188,2021-10-31,03:41:48,05:03:29,NA,incomplete,false,NA,NA,true,2,21,NA,NA,NA,left,m_s_096.jpg,gray,black,NA,NA,NA,NA,NA,NA,NA,NA,NA,NaN,NA,1910.3999999985099,right,0,NA,NA,NA,NA,NA
kISNaDhx,375vsr8fwzmfz1886kcfytzzg59zr5,32at8r96gpmc11c56oiewvl841msup,kISNaDhx,2020-0188,2021-10-31,03:41:48,05:03:29,NA,incomplete,false,NA,true,NA,2,0,NA,NA,NA,right,NA,NA,NA,present,NA,NA,m_s_078.jpg,yellow,n_l_103.jpg,brown,between,NA,NaN,NA,NA,NA,NA,left,6446.10000000149,0,3,2460.89999999851
kISNaDhx,375vsr8fwzmfz1886kcfytzzg59zr5,32at8r96gpmc11c56oiewvl841msup,kISNaDhx,2020-0188,2021-10-31,03:41:48,05:03:29,NA,incomplete,false,NA,true,NA,2,1,NA,NA,NA,right,NA,NA,NA,present,NA,NA,m_l_026.jpg,black,n_l_073.jpg,black,within,NA,NaN,NA,NA,NA,NA,left,3550.2000000029802,0,0,1834
kISNaDhx,375vsr8fwzmfz1886kcfytzzg59zr5,32at8r96gpmc11c56oiewvl841msup,kISNaDhx,2020-0188,2021-10-31,03:41:48,05:03:29,NA,incomplete,false,NA,true,NA,2,2,NA,NA,NA,right,NA,NA,NA,present,NA,NA,m_l_077.jpg,black,m_l_044.jpg,gray,between,NA,NaN,NA,NA,NA,NA,right,2059.5,1,0,1686.2000000029802
kISNaDhx,375vsr8fwzmfz1886kcfytzzg59zr5,32at8r96gpmc11c56oiewvl841msup,kISNaDhx,2020-0188,2021-10-31,03:41:48,05:03:29,NA,incomplete,false,NA,true,NA,2,3,NA,NA,NA,right,NA,NA,NA,present,NA,NA,m_s_007.jpg,blue,m_s_086.jpg,blue,within,NA,NaN,NA,NA,NA,NA,left,3017.10000000149,0,1,1357
kISNaDhx,375vsr8fwzmfz1886kcfytzzg59zr5,32at8r96gpmc11c56oiewvl841msup,kISNaDhx,2020-0188,2021-10-31,03:41:48,05:03:29,NA,incomplete,false,NA,true,NA,2,4,NA,NA,NA,left,NA,NA,NA,present,NA,NA,m_l_101.jpg,gray,n_s_095.jpg,gray,within,NA,NaN,NA,NA,NA,NA,left,2612.2999999970198,1,0,1210.2999999970198
kISNaDhx,375vsr8fwzmfz1886kcfytzzg59zr5,32at8r96gpmc11c56oiewvl841msup,kISNaDhx,2020-0188,2021-10-31,03:41:48,05:03:29,NA,incomplete,false,NA,true,NA,2,5,NA,NA,NA,right,NA,NA,NA,present,NA,NA,m_s_096.jpg,gray,m_s_012.jpg,blue,between,NA,NaN,NA,NA,NA,NA,right,3638.89999999851,1,1,2971.6999999955297
kISNaDhx,375vsr8fwzmfz1886kcfytzzg59zr5,32at8r96gpmc11c56oiewvl841msup,kISNaDhx,2020-0188,2021-10-31,03:41:48,05:03:29,NA,incomplete,false,NA,true,NA,2,6,NA,NA,NA,right,NA,NA,NA,present,NA,NA,n_l_002.jpg,yellow,m_l_084.jpg,yellow,within,NA,NaN,NA,NA,NA,NA,left,3754,0,0,1325.8000000044703
kISNaDhx,375vsr8fwzmfz1886kcfytzzg59zr5,32at8r96gpmc11c56oiewvl841msup,kISNaDhx,2020-0188,2021-10-31,03:41:48,05:03:29,NA,incomplete,false,NA,true,NA,2,7,NA,NA,NA,left,NA,NA,NA,present,NA,NA,m_l_050.jpg,white,n_l_031.jpg,brown,between,NA,NaN,NA,NA,NA,NA,left,10252.20000000298,1,3,2134.6999999955297
kISNaDhx,375vsr8fwzmfz1886kcfytzzg59zr5,32at8r96gpmc11c56oiewvl841msup,kISNaDhx,2020-0188,2021-10-31,03:41:48,05:03:29,NA,incomplete,false,NA,true,NA,2,8,NA,NA,NA,left,NA,NA,NA,present,NA,NA,m_l_014.jpg,black,m_l_056.jpg,white,between,NA,NaN,NA,NA,NA,NA,left,3735.7999999970198,1,2,2323.89999999851
kISNaDhx,375vsr8fwzmfz1886kcfytzzg59zr5,32at8r96gpmc11c56oiewvl841msup,kISNaDhx,2020-0188,2021-10-31,03:41:48,05:03:29,NA,incomplete,false,NA,true,NA,2,9,NA,NA,NA,right,NA,NA,NA,present,NA,NA,m_s_102.jpg,white,n_l_032.jpg,white,within,NA,NaN,NA,NA,NA,NA,right,2695,1,0,1886.2000000029802
kISNaDhx,375vsr8fwzmfz1886kcfytzzg59zr5,32at8r96gpmc11c56oiewvl841msup,kISNaDhx,2020-0188,2021-10-31,03:41:48,05:03:29,NA,incomplete,false,NA,true,NA,2,10,NA,NA,NA,left,NA,NA,NA,present,NA,NA,m_l_089.jpg,brown,n_l_105.jpg,brown,within,NA,NaN,NA,NA,NA,NA,right,4125.20000000298,0,0,1096.8000000044703
kISNaDhx,375vsr8fwzmfz1886kcfytzzg59zr5,32at8r96gpmc11c56oiewvl841msup,kISNaDhx,2020-0188,2021-10-31,03:41:48,05:03:29,NA,incomplete,false,true,NA,NA,3,0,NA,gray,m_s_001.jpg,NA,NA,NA,NA,NA,unpleasant,pleasant,NA,NA,NA,NA,NA,right,1539.5,true,NA,NA,NA,NA,NA,NA,NA,NA
kISNaDhx,375vsr8fwzmfz1886kcfytzzg59zr5,32at8r96gpmc11c56oiewvl841msup,kISNaDhx,2020-0188,2021-10-31,03:41:48,05:03:29,NA,incomplete,false,true,NA,NA,3,1,NA,gray,n_l_038.jpg,NA,NA,NA,NA,NA,unpleasant,pleasant,NA,NA,NA,NA,NA,right,1496.79999999702,true,NA,NA,NA,NA,NA,NA,NA,NA
kISNaDhx,375vsr8fwzmfz1886kcfytzzg59zr5,32at8r96gpmc11c56oiewvl841msup,kISNaDhx,2020-0188,2021-10-31,03:41:48,05:03:29,NA,incomplete,false,true,NA,NA,3,2,NA,gray,m_l_072.jpg,NA,NA,NA,NA,NA,pleasant,unpleasant,NA,NA,NA,NA,NA,left,1803.79999999702,true,NA,NA,NA,NA,NA,NA,NA,NA
kISNaDhx,375vsr8fwzmfz1886kcfytzzg59zr5,32at8r96gpmc11c56oiewvl841msup,kISNaDhx,2020-0188,2021-10-31,03:41:48,05:03:29,NA,incomplete,false,true,NA,NA,3,3,NA,gray,m_s_016.jpg,NA,NA,NA,NA,NA,pleasant,unpleasant,NA,NA,NA,NA,NA,left,1383.5,true,NA,NA,NA,NA,NA,NA,NA,NA
kISNaDhx,375vsr8fwzmfz1886kcfytzzg59zr5,32at8r96gpmc11c56oiewvl841msup,kISNaDhx,2020-0188,2021-10-31,03:41:48,05:03:29,NA,incomplete,false,true,NA,NA,3,4,NA,gray,m_l_043.jpg,NA,NA,NA,NA,NA,pleasant,unpleasant,NA,NA,NA,NA,NA,left,1362.59999999404,true,NA,NA,NA,NA,NA,NA,NA,NA
kISNaDhx,375vsr8fwzmfz1886kcfytzzg59zr5,32at8r96gpmc11c56oiewvl841msup,kISNaDhx,2020-0188,2021-10-31,03:41:48,05:03:29,NA,incomplete,false,true,NA,NA,3,5,NA,gray,m_s_051.jpg,NA,NA,NA,NA,NA,unpleasant,pleasant,NA,NA,NA,NA,NA,right,1085,true,NA,NA,NA,NA,NA,NA,NA,NA
kISNaDhx,375vsr8fwzmfz1886kcfytzzg59zr5,32at8r96gpmc11c56oiewvl841msup,kISNaDhx,2020-0188,2021-10-31,03:41:48,05:03:29,NA,incomplete,false,true,NA,NA,3,6,NA,blue,m_l_005.jpg,NA,NA,NA,NA,NA,unpleasant,pleasant,NA,NA,NA,NA,NA,right,1730.10000000149,true,NA,NA,NA,NA,NA,NA,NA,NA
kISNaDhx,375vsr8fwzmfz1886kcfytzzg59zr5,32at8r96gpmc11c56oiewvl841msup,kISNaDhx,2020-0188,2021-10-31,03:41:48,05:03:29,NA,incomplete,false,true,NA,NA,3,7,NA,blue,m_l_010.jpg,NA,NA,NA,NA,NA,pleasant,unpleasant,NA,NA,NA,NA,NA,left,1097.89999999851,true,NA,NA,NA,NA,NA,NA,NA,NA
kISNaDhx,375vsr8fwzmfz1886kcfytzzg59zr5,32at8r96gpmc11c56oiewvl841msup,kISNaDhx,2020-0188,2021-10-31,03:41:48,05:03:29,NA,incomplete,false,true,NA,NA,3,8,NA,blue,n_s_007.jpg,NA,NA,NA,NA,NA,unpleasant,pleasant,NA,NA,NA,NA,NA,left,1183.89999999851,true,NA,NA,NA,NA,NA,NA,NA,NA
kISNaDhx,375vsr8fwzmfz1886kcfytzzg59zr5,32at8r96gpmc11c56oiewvl841msup,kISNaDhx,2020-0188,2021-10-31,03:41:48,05:03:29,NA,incomplete,false,true,NA,NA,3,9,NA,blue,n_s_084.jpg,NA,NA,NA,NA,NA,unpleasant,pleasant,NA,NA,NA,NA,NA,right,1416.10000000149,true,NA,NA,NA,NA,NA,NA,NA,NA
kISNaDhx,375vsr8fwzmfz1886kcfytzzg59zr5,32at8r96gpmc11c56oiewvl841msup,kISNaDhx,2020-0188,2021-10-31,03:41:48,05:03:29,NA,incomplete,false,true,NA,NA,3,10,NA,blue,m_l_110.jpg,NA,NA,NA,NA,NA,unpleasant,pleasant,NA,NA,NA,NA,NA,right,1266.89999999851,true,NA,NA,NA,NA,NA,NA,NA,NA
kISNaDhx,375vsr8fwzmfz1886kcfytzzg59zr5,32at8r96gpmc11c56oiewvl841msup,kISNaDhx,2020-0188,2021-10-31,03:41:48,05:03:29,NA,incomplete,false,true,NA,NA,3,11,NA,blue,m_l_032.jpg,NA,NA,NA,NA,NA,unpleasant,pleasant,NA,NA,NA,NA,NA,right,1200.19999999553,true,NA,NA,NA,NA,NA,NA,NA,NA
kISNaDhx,375vsr8fwzmfz1886kcfytzzg59zr5,32at8r96gpmc11c56oiewvl841msup,kISNaDhx,2020-0188,2021-10-31,03:41:48,05:03:29,NA,incomplete,false,true,NA,NA,3,12,NA,yellow,m_s_116.jpg,NA,NA,NA,NA,NA,pleasant,unpleasant,NA,NA,NA,NA,NA,right,2247.70000000298,true,NA,NA,NA,NA,NA,NA,NA,NA
kISNaDhx,375vsr8fwzmfz1886kcfytzzg59zr5,32at8r96gpmc11c56oiewvl841msup,kISNaDhx,2020-0188,2021-10-31,03:41:48,05:03:29,NA,incomplete,false,true,NA,NA,3,13,NA,yellow,n_s_002.jpg,NA,NA,NA,NA,NA,unpleasant,pleasant,NA,NA,NA,NA,NA,right,987.10000000149,true,NA,NA,NA,NA,NA,NA,NA,NA
kISNaDhx,375vsr8fwzmfz1886kcfytzzg59zr5,32at8r96gpmc11c56oiewvl841msup,kISNaDhx,2020-0188,2021-10-31,03:41:48,05:03:29,NA,incomplete,false,true,NA,NA,3,14,NA,yellow,m_s_023.jpg,NA,NA,NA,NA,NA,unpleasant,pleasant,NA,NA,NA,NA,NA,right,996.60000000149,true,NA,NA,NA,NA,NA,NA,NA,NA
kISNaDhx,375vsr8fwzmfz1886kcfytzzg59zr5,32at8r96gpmc11c56oiewvl841msup,kISNaDhx,2020-0188,2021-10-31,03:41:48,05:03:29,NA,incomplete,false,true,NA,NA,3,15,NA,yellow,m_l_115.jpg,NA,NA,NA,NA,NA,unpleasant,pleasant,NA,NA,NA,NA,NA,right,1715.90000000596,true,NA,NA,NA,NA,NA,NA,NA,NA
kISNaDhx,375vsr8fwzmfz1886kcfytzzg59zr5,32at8r96gpmc11c56oiewvl841msup,kISNaDhx,2020-0188,2021-10-31,03:41:48,05:03:29,NA,incomplete,false,true,NA,NA,3,16,NA,yellow,n_s_015.jpg,NA,NA,NA,NA,NA,pleasant,unpleasant,NA,NA,NA,NA,NA,left,1495.80000000447,true,NA,NA,NA,NA,NA,NA,NA,NA
kISNaDhx,375vsr8fwzmfz1886kcfytzzg59zr5,32at8r96gpmc11c56oiewvl841msup,kISNaDhx,2020-0188,2021-10-31,03:41:48,05:03:29,NA,incomplete,false,true,NA,NA,3,17,NA,yellow,m_s_074.jpg,NA,NA,NA,NA,NA,unpleasant,pleasant,NA,NA,NA,NA,NA,right,1771.79999999702,true,NA,NA,NA,NA,NA,NA,NA,NA
kISNaDhx,375vsr8fwzmfz1886kcfytzzg59zr5,32at8r96gpmc11c56oiewvl841msup,kISNaDhx,2020-0188,2021-10-31,03:41:48,05:03:29,NA,incomplete,false,true,NA,NA,3,18,NA,white,m_l_064.jpg,NA,NA,NA,NA,NA,unpleasant,pleasant,NA,NA,NA,NA,NA,right,1959,true,NA,NA,NA,NA,NA,NA,NA,NA
kISNaDhx,375vsr8fwzmfz1886kcfytzzg59zr5,32at8r96gpmc11c56oiewvl841msup,kISNaDhx,2020-0188,2021-10-31,03:41:48,05:03:29,NA,incomplete,false,true,NA,NA,3,19,NA,white,m_s_084.jpg,NA,NA,NA,NA,NA,pleasant,unpleasant,NA,NA,NA,NA,NA,left,1270.5,true,NA,NA,NA,NA,NA,NA,NA,NA
kISNaDhx,375vsr8fwzmfz1886kcfytzzg59zr5,32at8r96gpmc11c56oiewvl841msup,kISNaDhx,2020-0188,2021-10-31,03:41:48,05:03:29,NA,incomplete,false,true,NA,NA,3,20,NA,white,m_s_090.jpg,NA,NA,NA,NA,NA,unpleasant,pleasant,NA,NA,NA,NA,NA,right,1339.60000000149,true,NA,NA,NA,NA,NA,NA,NA,NA
kISNaDhx,375vsr8fwzmfz1886kcfytzzg59zr5,32at8r96gpmc11c56oiewvl841msup,kISNaDhx,2020-0188,2021-10-31,03:41:48,05:03:29,NA,incomplete,false,true,NA,NA,3,21,NA,white,n_s_106.jpg,NA,NA,NA,NA,NA,pleasant,unpleasant,NA,NA,NA,NA,NA,left,1233,true,NA,NA,NA,NA,NA,NA,NA,NA
kISNaDhx,375vsr8fwzmfz1886kcfytzzg59zr5,32at8r96gpmc11c56oiewvl841msup,kISNaDhx,2020-0188,2021-10-31,03:41:48,05:03:29,NA,incomplete,false,true,NA,NA,3,22,NA,white,m_s_104.jpg,NA,NA,NA,NA,NA,pleasant,unpleasant,NA,NA,NA,NA,NA,left,1063.29999999702,true,NA,NA,NA,NA,NA,NA,NA,NA
kISNaDhx,375vsr8fwzmfz1886kcfytzzg59zr5,32at8r96gpmc11c56oiewvl841msup,kISNaDhx,2020-0188,2021-10-31,03:41:48,05:03:29,NA,incomplete,false,true,NA,NA,3,23,NA,white,m_l_024.jpg,NA,NA,NA,NA,NA,pleasant,unpleasant,NA,NA,NA,NA,NA,left,1827.39999999851,true,NA,NA,NA,NA,NA,NA,NA,NA
kISNaDhx,375vsr8fwzmfz1886kcfytzzg59zr5,32at8r96gpmc11c56oiewvl841msup,kISNaDhx,2020-0188,2021-10-31,03:41:48,05:03:29,NA,incomplete,false,true,NA,NA,3,24,NA,brown,n_l_049.jpg,NA,NA,NA,NA,NA,pleasant,unpleasant,NA,NA,NA,NA,NA,left,2146.5,true,NA,NA,NA,NA,NA,NA,NA,NA
kISNaDhx,375vsr8fwzmfz1886kcfytzzg59zr5,32at8r96gpmc11c56oiewvl841msup,kISNaDhx,2020-0188,2021-10-31,03:41:48,05:03:29,NA,incomplete,false,true,NA,NA,3,25,NA,brown,m_s_045.jpg,NA,NA,NA,NA,NA,pleasant,unpleasant,NA,NA,NA,NA,NA,left,1144.19999999553,true,NA,NA,NA,NA,NA,NA,NA,NA
kISNaDhx,375vsr8fwzmfz1886kcfytzzg59zr5,32at8r96gpmc11c56oiewvl841msup,kISNaDhx,2020-0188,2021-10-31,03:41:48,05:03:29,NA,incomplete,false,true,NA,NA,3,26,NA,brown,n_l_053.jpg,NA,NA,NA,NA,NA,unpleasant,pleasant,NA,NA,NA,NA,NA,left,1727.30000000447,true,NA,NA,NA,NA,NA,NA,NA,NA
kISNaDhx,375vsr8fwzmfz1886kcfytzzg59zr5,32at8r96gpmc11c56oiewvl841msup,kISNaDhx,2020-0188,2021-10-31,03:41:48,05:03:29,NA,incomplete,false,true,NA,NA,3,27,NA,brown,m_l_096.jpg,NA,NA,NA,NA,NA,pleasant,unpleasant,NA,NA,NA,NA,NA,left,1636.39999999851,true,NA,NA,NA,NA,NA,NA,NA,NA
kISNaDhx,375vsr8fwzmfz1886kcfytzzg59zr5,32at8r96gpmc11c56oiewvl841msup,kISNaDhx,2020-0188,2021-10-31,03:41:48,05:03:29,NA,incomplete,false,true,NA,NA,3,28,NA,brown,m_s_095.jpg,NA,NA,NA,NA,NA,pleasant,unpleasant,NA,NA,NA,NA,NA,left,1353.60000000149,true,NA,NA,NA,NA,NA,NA,NA,NA
kISNaDhx,375vsr8fwzmfz1886kcfytzzg59zr5,32at8r96gpmc11c56oiewvl841msup,kISNaDhx,2020-0188,2021-10-31,03:41:48,05:03:29,NA,incomplete,false,true,NA,NA,3,29,NA,brown,n_s_083.jpg,NA,NA,NA,NA,NA,unpleasant,pleasant,NA,NA,NA,NA,NA,right,1653.29999999702,true,NA,NA,NA,NA,NA,NA,NA,NA
kISNaDhx,375vsr8fwzmfz1886kcfytzzg59zr5,32at8r96gpmc11c56oiewvl841msup,kISNaDhx,2020-0188,2021-10-31,03:41:48,05:03:29,NA,incomplete,false,true,NA,NA,3,30,NA,green,m_s_089.jpg,NA,NA,NA,NA,NA,unpleasant,pleasant,NA,NA,NA,NA,NA,right,2221.60000000149,true,NA,NA,NA,NA,NA,NA,NA,NA
kISNaDhx,375vsr8fwzmfz1886kcfytzzg59zr5,32at8r96gpmc11c56oiewvl841msup,kISNaDhx,2020-0188,2021-10-31,03:41:48,05:03:29,NA,incomplete,false,true,NA,NA,3,31,NA,green,n_s_080.jpg,NA,NA,NA,NA,NA,pleasant,unpleasant,NA,NA,NA,NA,NA,right,1525.80000000447,true,NA,NA,NA,NA,NA,NA,NA,NA
kISNaDhx,375vsr8fwzmfz1886kcfytzzg59zr5,32at8r96gpmc11c56oiewvl841msup,kISNaDhx,2020-0188,2021-10-31,03:41:48,05:03:29,NA,incomplete,false,true,NA,NA,3,32,NA,green,n_l_035.jpg,NA,NA,NA,NA,NA,unpleasant,pleasant,NA,NA,NA,NA,NA,right,1996.5,true,NA,NA,NA,NA,NA,NA,NA,NA
kISNaDhx,375vsr8fwzmfz1886kcfytzzg59zr5,32at8r96gpmc11c56oiewvl841msup,kISNaDhx,2020-0188,2021-10-31,03:41:48,05:03:29,NA,incomplete,false,true,NA,NA,3,33,NA,green,n_s_114.jpg,NA,NA,NA,NA,NA,unpleasant,pleasant,NA,NA,NA,NA,NA,right,1373.69999999553,true,NA,NA,NA,NA,NA,NA,NA,NA
kISNaDhx,375vsr8fwzmfz1886kcfytzzg59zr5,32at8r96gpmc11c56oiewvl841msup,kISNaDhx,2020-0188,2021-10-31,03:41:48,05:03:29,NA,incomplete,false,true,NA,NA,3,34,NA,green,m_s_021.jpg,NA,NA,NA,NA,NA,unpleasant,pleasant,NA,NA,NA,NA,NA,right,1232.39999999851,true,NA,NA,NA,NA,NA,NA,NA,NA
kISNaDhx,375vsr8fwzmfz1886kcfytzzg59zr5,32at8r96gpmc11c56oiewvl841msup,kISNaDhx,2020-0188,2021-10-31,03:41:48,05:03:29,NA,incomplete,false,true,NA,NA,3,35,NA,green,m_s_036.jpg,NA,NA,NA,NA,NA,pleasant,unpleasant,NA,NA,NA,NA,NA,left,1107,true,NA,NA,NA,NA,NA,NA,NA,NA
kISNaDhx,375vsr8fwzmfz1886kcfytzzg59zr5,32at8r96gpmc11c56oiewvl841msup,kISNaDhx,2020-0188,2021-10-31,03:41:48,05:03:29,NA,incomplete,false,NA,NA,true,3,0,NA,NA,NA,right,m_s_051.jpg,blue,gray,NA,NA,NA,NA,NA,NA,NA,NA,NA,NaN,NA,6223.29999999702,left,0,NA,NA,NA,NA,NA
kISNaDhx,375vsr8fwzmfz1886kcfytzzg59zr5,32at8r96gpmc11c56oiewvl841msup,kISNaDhx,2020-0188,2021-10-31,03:41:48,05:03:29,NA,incomplete,false,NA,NA,true,3,1,NA,NA,NA,right,n_s_015.jpg,white,yellow,NA,NA,NA,NA,NA,NA,NA,NA,NA,NaN,NA,3256.89999999851,right,1,NA,NA,NA,NA,NA
kISNaDhx,375vsr8fwzmfz1886kcfytzzg59zr5,32at8r96gpmc11c56oiewvl841msup,kISNaDhx,2020-0188,2021-10-31,03:41:48,05:03:29,NA,incomplete,false,NA,NA,true,3,2,NA,NA,NA,right,m_s_095.jpg,white,brown,NA,NA,NA,NA,NA,NA,NA,NA,NA,NaN,NA,2627.60000000149,right,1,NA,NA,NA,NA,NA
kISNaDhx,375vsr8fwzmfz1886kcfytzzg59zr5,32at8r96gpmc11c56oiewvl841msup,kISNaDhx,2020-0188,2021-10-31,03:41:48,05:03:29,NA,incomplete,false,NA,NA,true,3,3,NA,NA,NA,left,m_s_045.jpg,brown,green,NA,NA,NA,NA,NA,NA,NA,NA,NA,NaN,NA,2125.2999999970198,left,1,NA,NA,NA,NA,NA
kISNaDhx,375vsr8fwzmfz1886kcfytzzg59zr5,32at8r96gpmc11c56oiewvl841msup,kISNaDhx,2020-0188,2021-10-31,03:41:48,05:03:29,NA,incomplete,false,NA,NA,true,3,4,NA,NA,NA,right,m_s_104.jpg,yellow,white,NA,NA,NA,NA,NA,NA,NA,NA,NA,NaN,NA,2620.5,right,1,NA,NA,NA,NA,NA
kISNaDhx,375vsr8fwzmfz1886kcfytzzg59zr5,32at8r96gpmc11c56oiewvl841msup,kISNaDhx,2020-0188,2021-10-31,03:41:48,05:03:29,NA,incomplete,false,NA,NA,true,3,5,NA,NA,NA,right,n_l_035.jpg,brown,green,NA,NA,NA,NA,NA,NA,NA,NA,NA,NaN,NA,1921.3999999985099,right,1,NA,NA,NA,NA,NA
kISNaDhx,375vsr8fwzmfz1886kcfytzzg59zr5,32at8r96gpmc11c56oiewvl841msup,kISNaDhx,2020-0188,2021-10-31,03:41:48,05:03:29,NA,incomplete,false,NA,NA,true,3,6,NA,NA,NA,right,m_l_043.jpg,blue,gray,NA,NA,NA,NA,NA,NA,NA,NA,NA,NaN,NA,2318.39999999851,left,0,NA,NA,NA,NA,NA
kISNaDhx,375vsr8fwzmfz1886kcfytzzg59zr5,32at8r96gpmc11c56oiewvl841msup,kISNaDhx,2020-0188,2021-10-31,03:41:48,05:03:29,NA,incomplete,false,NA,NA,true,3,7,NA,NA,NA,left,m_s_023.jpg,yellow,white,NA,NA,NA,NA,NA,NA,NA,NA,NA,NaN,NA,2438.7000000029802,right,0,NA,NA,NA,NA,NA
kISNaDhx,375vsr8fwzmfz1886kcfytzzg59zr5,32at8r96gpmc11c56oiewvl841msup,kISNaDhx,2020-0188,2021-10-31,03:41:48,05:03:29,NA,incomplete,false,NA,NA,true,3,8,NA,NA,NA,right,n_s_002.jpg,blue,yellow,NA,NA,NA,NA,NA,NA,NA,NA,NA,NaN,NA,2211.5,left,0,NA,NA,NA,NA,NA
kISNaDhx,375vsr8fwzmfz1886kcfytzzg59zr5,32at8r96gpmc11c56oiewvl841msup,kISNaDhx,2020-0188,2021-10-31,03:41:48,05:03:29,NA,incomplete,false,NA,NA,true,3,9,NA,NA,NA,right,m_l_032.jpg,gray,blue,NA,NA,NA,NA,NA,NA,NA,NA,NA,NaN,NA,2146.60000000149,right,1,NA,NA,NA,NA,NA
kISNaDhx,375vsr8fwzmfz1886kcfytzzg59zr5,32at8r96gpmc11c56oiewvl841msup,kISNaDhx,2020-0188,2021-10-31,03:41:48,05:03:29,NA,incomplete,false,NA,NA,true,3,10,NA,NA,NA,right,n_s_007.jpg,gray,blue,NA,NA,NA,NA,NA,NA,NA,NA,NA,NaN,NA,2154.10000000149,left,0,NA,NA,NA,NA,NA
kISNaDhx,375vsr8fwzmfz1886kcfytzzg59zr5,32at8r96gpmc11c56oiewvl841msup,kISNaDhx,2020-0188,2021-10-31,03:41:48,05:03:29,NA,incomplete,false,NA,NA,true,3,11,NA,NA,NA,right,m_l_024.jpg,brown,white,NA,NA,NA,NA,NA,NA,NA,NA,NA,NaN,NA,4599.0999999940395,right,1,NA,NA,NA,NA,NA
kISNaDhx,375vsr8fwzmfz1886kcfytzzg59zr5,32at8r96gpmc11c56oiewvl841msup,kISNaDhx,2020-0188,2021-10-31,03:41:48,05:03:29,NA,incomplete,false,NA,NA,true,3,12,NA,NA,NA,left,m_s_074.jpg,yellow,blue,NA,NA,NA,NA,NA,NA,NA,NA,NA,NaN,NA,2081.1999999955297,left,1,NA,NA,NA,NA,NA
kISNaDhx,375vsr8fwzmfz1886kcfytzzg59zr5,32at8r96gpmc11c56oiewvl841msup,kISNaDhx,2020-0188,2021-10-31,03:41:48,05:03:29,NA,incomplete,false,NA,NA,true,3,13,NA,NA,NA,left,n_l_053.jpg,brown,white,NA,NA,NA,NA,NA,NA,NA,NA,NA,NaN,NA,3192.7999999970198,left,1,NA,NA,NA,NA,NA
kISNaDhx,375vsr8fwzmfz1886kcfytzzg59zr5,32at8r96gpmc11c56oiewvl841msup,kISNaDhx,2020-0188,2021-10-31,03:41:48,05:03:29,NA,incomplete,false,NA,NA,true,3,14,NA,NA,NA,right,n_l_038.jpg,blue,gray,NA,NA,NA,NA,NA,NA,NA,NA,NA,NaN,NA,5675.19999999553,right,1,NA,NA,NA,NA,NA
kISNaDhx,375vsr8fwzmfz1886kcfytzzg59zr5,32at8r96gpmc11c56oiewvl841msup,kISNaDhx,2020-0188,2021-10-31,03:41:48,05:03:29,NA,incomplete,false,NA,NA,true,3,15,NA,NA,NA,right,n_s_083.jpg,white,brown,NA,NA,NA,NA,NA,NA,NA,NA,NA,NaN,NA,2633.7999999970198,left,0,NA,NA,NA,NA,NA
kISNaDhx,375vsr8fwzmfz1886kcfytzzg59zr5,32at8r96gpmc11c56oiewvl841msup,kISNaDhx,2020-0188,2021-10-31,03:41:48,05:03:29,NA,incomplete,false,NA,NA,true,3,16,NA,NA,NA,left,m_s_090.jpg,white,yellow,NA,NA,NA,NA,NA,NA,NA,NA,NA,NaN,NA,3229.9000000059605,left,1,NA,NA,NA,NA,NA
kISNaDhx,375vsr8fwzmfz1886kcfytzzg59zr5,32at8r96gpmc11c56oiewvl841msup,kISNaDhx,2020-0188,2021-10-31,03:41:48,05:03:29,NA,incomplete,false,NA,NA,true,3,17,NA,NA,NA,left,m_s_084.jpg,white,yellow,NA,NA,NA,NA,NA,NA,NA,NA,NA,NaN,NA,2291,left,1,NA,NA,NA,NA,NA
kISNaDhx,375vsr8fwzmfz1886kcfytzzg59zr5,32at8r96gpmc11c56oiewvl841msup,kISNaDhx,2020-0188,2021-10-31,03:41:48,05:03:29,NA,incomplete,false,NA,NA,true,3,18,NA,NA,NA,right,m_s_036.jpg,brown,green,NA,NA,NA,NA,NA,NA,NA,NA,NA,NaN,NA,1780.1000000014901,right,1,NA,NA,NA,NA,NA
kISNaDhx,375vsr8fwzmfz1886kcfytzzg59zr5,32at8r96gpmc11c56oiewvl841msup,kISNaDhx,2020-0188,2021-10-31,03:41:48,05:03:29,NA,incomplete,false,NA,NA,true,3,19,NA,NA,NA,right,n_s_080.jpg,brown,green,NA,NA,NA,NA,NA,NA,NA,NA,NA,NaN,NA,2472.9000000059605,right,1,NA,NA,NA,NA,NA
kISNaDhx,375vsr8fwzmfz1886kcfytzzg59zr5,32at8r96gpmc11c56oiewvl841msup,kISNaDhx,2020-0188,2021-10-31,03:41:48,05:03:29,NA,incomplete,false,NA,NA,true,3,20,NA,NA,NA,left,m_l_010.jpg,blue,gray,NA,NA,NA,NA,NA,NA,NA,NA,NA,NaN,NA,2734.7000000029802,left,1,NA,NA,NA,NA,NA
kISNaDhx,375vsr8fwzmfz1886kcfytzzg59zr5,32at8r96gpmc11c56oiewvl841msup,kISNaDhx,2020-0188,2021-10-31,03:41:48,05:03:29,NA,incomplete,false,NA,NA,true,3,21,NA,NA,NA,right,m_l_110.jpg,gray,blue,NA,NA,NA,NA,NA,NA,NA,NA,NA,NaN,NA,2900.5,left,0,NA,NA,NA,NA,NA
kISNaDhx,375vsr8fwzmfz1886kcfytzzg59zr5,32at8r96gpmc11c56oiewvl841msup,kISNaDhx,2020-0188,2021-10-31,03:41:48,05:03:29,NA,incomplete,false,NA,true,NA,3,0,NA,NA,NA,right,NA,NA,NA,present,NA,NA,n_l_053.jpg,brown,m_s_104.jpg,white,between,NA,NaN,NA,NA,NA,NA,right,5117.19999999553,1,0,1857.3000000044703
kISNaDhx,375vsr8fwzmfz1886kcfytzzg59zr5,32at8r96gpmc11c56oiewvl841msup,kISNaDhx,2020-0188,2021-10-31,03:41:48,05:03:29,NA,incomplete,false,NA,true,NA,3,1,NA,NA,NA,right,NA,NA,NA,present,NA,NA,m_l_024.jpg,white,m_s_084.jpg,white,within,NA,NaN,NA,NA,NA,NA,right,2895.9000000059605,1,0,1290.5
kISNaDhx,375vsr8fwzmfz1886kcfytzzg59zr5,32at8r96gpmc11c56oiewvl841msup,kISNaDhx,2020-0188,2021-10-31,03:41:48,05:03:29,NA,incomplete,false,NA,true,NA,3,2,NA,NA,NA,left,NA,NA,NA,present,NA,NA,m_l_110.jpg,blue,m_s_023.jpg,yellow,between,NA,NaN,NA,NA,NA,NA,left,3593.1999999955297,1,2,3483
kISNaDhx,375vsr8fwzmfz1886kcfytzzg59zr5,32at8r96gpmc11c56oiewvl841msup,kISNaDhx,2020-0188,2021-10-31,03:41:48,05:03:29,NA,incomplete,false,NA,true,NA,3,3,NA,NA,NA,right,NA,NA,NA,present,NA,NA,n_l_035.jpg,green,m_s_095.jpg,brown,between,NA,NaN,NA,NA,NA,NA,right,10002.39999999851,1,2,3982.5
kISNaDhx,375vsr8fwzmfz1886kcfytzzg59zr5,32at8r96gpmc11c56oiewvl841msup,kISNaDhx,2020-0188,2021-10-31,03:41:48,05:03:29,NA,incomplete,false,NA,true,NA,3,4,NA,NA,NA,right,NA,NA,NA,present,NA,NA,m_s_074.jpg,yellow,n_s_002.jpg,yellow,within,NA,NaN,NA,NA,NA,NA,left,2991.10000000149,0,0,1208.3999999985099
kISNaDhx,375vsr8fwzmfz1886kcfytzzg59zr5,32at8r96gpmc11c56oiewvl841msup,kISNaDhx,2020-0188,2021-10-31,03:41:48,05:03:29,NA,incomplete,false,NA,true,NA,3,5,NA,NA,NA,left,NA,NA,NA,present,NA,NA,m_l_043.jpg,gray,n_s_007.jpg,blue,between,NA,NaN,NA,NA,NA,NA,left,2570,1,2,1011
kISNaDhx,375vsr8fwzmfz1886kcfytzzg59zr5,32at8r96gpmc11c56oiewvl841msup,kISNaDhx,2020-0188,2021-10-31,03:41:48,05:03:29,NA,incomplete,false,NA,true,NA,3,6,NA,NA,NA,left,NA,NA,NA,present,NA,NA,n_s_015.jpg,yellow,m_s_090.jpg,white,between,NA,NaN,NA,NA,NA,NA,left,2319.89999999851,1,2,2355
kISNaDhx,375vsr8fwzmfz1886kcfytzzg59zr5,32at8r96gpmc11c56oiewvl841msup,kISNaDhx,2020-0188,2021-10-31,03:41:48,05:03:29,NA,incomplete,false,NA,true,NA,3,7,NA,NA,NA,right,NA,NA,NA,present,NA,NA,m_l_032.jpg,blue,m_l_010.jpg,blue,within,NA,NaN,NA,NA,NA,NA,left,2641.5,0,0,1250.5
kISNaDhx,375vsr8fwzmfz1886kcfytzzg59zr5,32at8r96gpmc11c56oiewvl841msup,kISNaDhx,2020-0188,2021-10-31,03:41:48,05:03:29,NA,incomplete,false,NA,true,NA,3,8,NA,NA,NA,left,NA,NA,NA,present,NA,NA,n_l_038.jpg,gray,m_s_051.jpg,gray,within,NA,NaN,NA,NA,NA,NA,left,2232.39999999851,1,1,1424.2000000029802
kISNaDhx,375vsr8fwzmfz1886kcfytzzg59zr5,32at8r96gpmc11c56oiewvl841msup,kISNaDhx,2020-0188,2021-10-31,03:41:48,05:03:29,NA,incomplete,false,NA,true,NA,3,9,NA,NA,NA,right,NA,NA,NA,present,NA,NA,n_s_083.jpg,brown,m_s_045.jpg,brown,within,NA,NaN,NA,NA,NA,NA,left,4394.60000000149,0,1,1735.3000000044703
kISNaDhx,375vsr8fwzmfz1886kcfytzzg59zr5,32at8r96gpmc11c56oiewvl841msup,kISNaDhx,2020-0188,2021-10-31,03:41:48,05:03:29,NA,incomplete,false,NA,true,NA,3,10,NA,NA,NA,left,NA,NA,NA,present,NA,NA,n_s_080.jpg,green,m_s_036.jpg,green,within,NA,NaN,NA,NA,NA,NA,left,4133,1,1,1218.1000000014901
kISNaDhx,375vsr8fwzmfz1886kcfytzzg59zr5,32at8r96gpmc11c56oiewvl841msup,kISNaDhx,2020-0188,2021-10-31,03:41:48,05:03:29,NA,incomplete,false,true,NA,NA,4,0,NA,yellow,n_s_066.jpg,NA,NA,NA,NA,NA,unpleasant,pleasant,NA,NA,NA,NA,NA,right,1727.39999999851,true,NA,NA,NA,NA,NA,NA,NA,NA
kISNaDhx,375vsr8fwzmfz1886kcfytzzg59zr5,32at8r96gpmc11c56oiewvl841msup,kISNaDhx,2020-0188,2021-10-31,03:41:48,05:03:29,NA,incomplete,false,true,NA,NA,4,1,NA,yellow,m_l_116.jpg,NA,NA,NA,NA,NA,unpleasant,pleasant,NA,NA,NA,NA,NA,right,1704.79999999702,true,NA,NA,NA,NA,NA,NA,NA,NA
kISNaDhx,375vsr8fwzmfz1886kcfytzzg59zr5,32at8r96gpmc11c56oiewvl841msup,kISNaDhx,2020-0188,2021-10-31,03:41:48,05:03:29,NA,incomplete,false,true,NA,NA,4,2,NA,yellow,n_l_017.jpg,NA,NA,NA,NA,NA,pleasant,unpleasant,NA,NA,NA,NA,NA,left,1438.39999999851,true,NA,NA,NA,NA,NA,NA,NA,NA
kISNaDhx,375vsr8fwzmfz1886kcfytzzg59zr5,32at8r96gpmc11c56oiewvl841msup,kISNaDhx,2020-0188,2021-10-31,03:41:48,05:03:29,NA,incomplete,false,true,NA,NA,4,3,NA,yellow,n_s_087.jpg,NA,NA,NA,NA,NA,pleasant,unpleasant,NA,NA,NA,NA,NA,left,1600.60000000149,true,NA,NA,NA,NA,NA,NA,NA,NA
kISNaDhx,375vsr8fwzmfz1886kcfytzzg59zr5,32at8r96gpmc11c56oiewvl841msup,kISNaDhx,2020-0188,2021-10-31,03:41:48,05:03:29,NA,incomplete,false,true,NA,NA,4,4,NA,yellow,n_l_071.jpg,NA,NA,NA,NA,NA,pleasant,unpleasant,NA,NA,NA,NA,NA,left,903.5,true,NA,NA,NA,NA,NA,NA,NA,NA
kISNaDhx,375vsr8fwzmfz1886kcfytzzg59zr5,32at8r96gpmc11c56oiewvl841msup,kISNaDhx,2020-0188,2021-10-31,03:41:48,05:03:29,NA,incomplete,false,true,NA,NA,4,5,NA,yellow,m_s_035.jpg,NA,NA,NA,NA,NA,pleasant,unpleasant,NA,NA,NA,NA,NA,left,1019.40000000596,true,NA,NA,NA,NA,NA,NA,NA,NA
kISNaDhx,375vsr8fwzmfz1886kcfytzzg59zr5,32at8r96gpmc11c56oiewvl841msup,kISNaDhx,2020-0188,2021-10-31,03:41:48,05:03:29,NA,incomplete,false,true,NA,NA,4,6,NA,white,m_l_111.jpg,NA,NA,NA,NA,NA,pleasant,unpleasant,NA,NA,NA,NA,NA,left,1389.5,true,NA,NA,NA,NA,NA,NA,NA,NA
kISNaDhx,375vsr8fwzmfz1886kcfytzzg59zr5,32at8r96gpmc11c56oiewvl841msup,kISNaDhx,2020-0188,2021-10-31,03:41:48,05:03:29,NA,incomplete,false,true,NA,NA,4,7,NA,white,m_s_058.jpg,NA,NA,NA,NA,NA,unpleasant,pleasant,NA,NA,NA,NA,NA,left,815.70000000298,true,NA,NA,NA,NA,NA,NA,NA,NA
kISNaDhx,375vsr8fwzmfz1886kcfytzzg59zr5,32at8r96gpmc11c56oiewvl841msup,kISNaDhx,2020-0188,2021-10-31,03:41:48,05:03:29,NA,incomplete,false,true,NA,NA,4,8,NA,white,m_s_028.jpg,NA,NA,NA,NA,NA,unpleasant,pleasant,NA,NA,NA,NA,NA,right,1351.70000000298,true,NA,NA,NA,NA,NA,NA,NA,NA
kISNaDhx,375vsr8fwzmfz1886kcfytzzg59zr5,32at8r96gpmc11c56oiewvl841msup,kISNaDhx,2020-0188,2021-10-31,03:41:48,05:03:29,NA,incomplete,false,true,NA,NA,4,9,NA,white,m_l_018.jpg,NA,NA,NA,NA,NA,pleasant,unpleasant,NA,NA,NA,NA,NA,left,972.19999999553,true,NA,NA,NA,NA,NA,NA,NA,NA
kISNaDhx,375vsr8fwzmfz1886kcfytzzg59zr5,32at8r96gpmc11c56oiewvl841msup,kISNaDhx,2020-0188,2021-10-31,03:41:48,05:03:29,NA,incomplete,false,true,NA,NA,4,10,NA,white,n_s_068.jpg,NA,NA,NA,NA,NA,unpleasant,pleasant,NA,NA,NA,NA,NA,right,940.79999999702,true,NA,NA,NA,NA,NA,NA,NA,NA
kISNaDhx,375vsr8fwzmfz1886kcfytzzg59zr5,32at8r96gpmc11c56oiewvl841msup,kISNaDhx,2020-0188,2021-10-31,03:41:48,05:03:29,NA,incomplete,false,true,NA,NA,4,11,NA,white,m_l_081.jpg,NA,NA,NA,NA,NA,pleasant,unpleasant,NA,NA,NA,NA,NA,left,970.89999999851,true,NA,NA,NA,NA,NA,NA,NA,NA
kISNaDhx,375vsr8fwzmfz1886kcfytzzg59zr5,32at8r96gpmc11c56oiewvl841msup,kISNaDhx,2020-0188,2021-10-31,03:41:48,05:03:29,NA,incomplete,false,true,NA,NA,4,12,NA,gray,n_s_069.jpg,NA,NA,NA,NA,NA,pleasant,unpleasant,NA,NA,NA,NA,NA,left,2589.20000000298,true,NA,NA,NA,NA,NA,NA,NA,NA
kISNaDhx,375vsr8fwzmfz1886kcfytzzg59zr5,32at8r96gpmc11c56oiewvl841msup,kISNaDhx,2020-0188,2021-10-31,03:41:48,05:03:29,NA,incomplete,false,true,NA,NA,4,13,NA,gray,n_s_115.jpg,NA,NA,NA,NA,NA,unpleasant,pleasant,NA,NA,NA,NA,NA,right,1369,true,NA,NA,NA,NA,NA,NA,NA,NA
kISNaDhx,375vsr8fwzmfz1886kcfytzzg59zr5,32at8r96gpmc11c56oiewvl841msup,kISNaDhx,2020-0188,2021-10-31,03:41:48,05:03:29,NA,incomplete,false,true,NA,NA,4,14,NA,gray,n_s_020.jpg,NA,NA,NA,NA,NA,pleasant,unpleasant,NA,NA,NA,NA,NA,left,1259.90000000596,true,NA,NA,NA,NA,NA,NA,NA,NA
kISNaDhx,375vsr8fwzmfz1886kcfytzzg59zr5,32at8r96gpmc11c56oiewvl841msup,kISNaDhx,2020-0188,2021-10-31,03:41:48,05:03:29,NA,incomplete,false,true,NA,NA,4,15,NA,gray,n_s_043.jpg,NA,NA,NA,NA,NA,pleasant,unpleasant,NA,NA,NA,NA,NA,left,1093.10000000149,true,NA,NA,NA,NA,NA,NA,NA,NA
kISNaDhx,375vsr8fwzmfz1886kcfytzzg59zr5,32at8r96gpmc11c56oiewvl841msup,kISNaDhx,2020-0188,2021-10-31,03:41:48,05:03:29,NA,incomplete,false,true,NA,NA,4,16,NA,gray,n_l_117.jpg,NA,NA,NA,NA,NA,unpleasant,pleasant,NA,NA,NA,NA,NA,right,1044.80000000447,true,NA,NA,NA,NA,NA,NA,NA,NA
kISNaDhx,375vsr8fwzmfz1886kcfytzzg59zr5,32at8r96gpmc11c56oiewvl841msup,kISNaDhx,2020-0188,2021-10-31,03:41:48,05:03:29,NA,incomplete,false,true,NA,NA,4,17,NA,gray,m_s_071.jpg,NA,NA,NA,NA,NA,unpleasant,pleasant,NA,NA,NA,NA,NA,right,1464.10000000149,true,NA,NA,NA,NA,NA,NA,NA,NA
kISNaDhx,375vsr8fwzmfz1886kcfytzzg59zr5,32at8r96gpmc11c56oiewvl841msup,kISNaDhx,2020-0188,2021-10-31,03:41:48,05:03:29,NA,incomplete,false,true,NA,NA,4,18,NA,purple,m_s_008.jpg,NA,NA,NA,NA,NA,unpleasant,pleasant,NA,NA,NA,NA,NA,right,2345,true,NA,NA,NA,NA,NA,NA,NA,NA
kISNaDhx,375vsr8fwzmfz1886kcfytzzg59zr5,32at8r96gpmc11c56oiewvl841msup,kISNaDhx,2020-0188,2021-10-31,03:41:48,05:03:29,NA,incomplete,false,true,NA,NA,4,19,NA,purple,n_l_080.jpg,NA,NA,NA,NA,NA,pleasant,unpleasant,NA,NA,NA,NA,NA,left,1533.30000000447,true,NA,NA,NA,NA,NA,NA,NA,NA
kISNaDhx,375vsr8fwzmfz1886kcfytzzg59zr5,32at8r96gpmc11c56oiewvl841msup,kISNaDhx,2020-0188,2021-10-31,03:41:48,05:03:29,NA,incomplete,false,true,NA,NA,4,20,NA,purple,m_s_069.jpg,NA,NA,NA,NA,NA,pleasant,unpleasant,NA,NA,NA,NA,NA,left,986.60000000149,true,NA,NA,NA,NA,NA,NA,NA,NA
kISNaDhx,375vsr8fwzmfz1886kcfytzzg59zr5,32at8r96gpmc11c56oiewvl841msup,kISNaDhx,2020-0188,2021-10-31,03:41:48,05:03:29,NA,incomplete,false,true,NA,NA,4,21,NA,purple,m_s_013.jpg,NA,NA,NA,NA,NA,pleasant,unpleasant,NA,NA,NA,NA,NA,left,1261,true,NA,NA,NA,NA,NA,NA,NA,NA
kISNaDhx,375vsr8fwzmfz1886kcfytzzg59zr5,32at8r96gpmc11c56oiewvl841msup,kISNaDhx,2020-0188,2021-10-31,03:41:48,05:03:29,NA,incomplete,false,true,NA,NA,4,22,NA,purple,n_s_001.jpg,NA,NA,NA,NA,NA,unpleasant,pleasant,NA,NA,NA,NA,NA,right,1117.10000000149,true,NA,NA,NA,NA,NA,NA,NA,NA
kISNaDhx,375vsr8fwzmfz1886kcfytzzg59zr5,32at8r96gpmc11c56oiewvl841msup,kISNaDhx,2020-0188,2021-10-31,03:41:48,05:03:29,NA,incomplete,false,true,NA,NA,4,23,NA,purple,m_l_062.jpg,NA,NA,NA,NA,NA,pleasant,unpleasant,NA,NA,NA,NA,NA,left,1130.5,true,NA,NA,NA,NA,NA,NA,NA,NA
kISNaDhx,375vsr8fwzmfz1886kcfytzzg59zr5,32at8r96gpmc11c56oiewvl841msup,kISNaDhx,2020-0188,2021-10-31,03:41:48,05:03:29,NA,incomplete,false,true,NA,NA,4,24,NA,orange,n_l_037.jpg,NA,NA,NA,NA,NA,unpleasant,pleasant,NA,NA,NA,NA,NA,right,2658.5,true,NA,NA,NA,NA,NA,NA,NA,NA
kISNaDhx,375vsr8fwzmfz1886kcfytzzg59zr5,32at8r96gpmc11c56oiewvl841msup,kISNaDhx,2020-0188,2021-10-31,03:41:48,05:03:29,NA,incomplete,false,true,NA,NA,4,25,NA,orange,m_s_015.jpg,NA,NA,NA,NA,NA,pleasant,unpleasant,NA,NA,NA,NA,NA,left,941.29999999702,true,NA,NA,NA,NA,NA,NA,NA,NA
kISNaDhx,375vsr8fwzmfz1886kcfytzzg59zr5,32at8r96gpmc11c56oiewvl841msup,kISNaDhx,2020-0188,2021-10-31,03:41:48,05:03:29,NA,incomplete,false,true,NA,NA,4,26,NA,orange,n_l_009.jpg,NA,NA,NA,NA,NA,pleasant,unpleasant,NA,NA,NA,NA,NA,left,1079.89999999851,true,NA,NA,NA,NA,NA,NA,NA,NA
kISNaDhx,375vsr8fwzmfz1886kcfytzzg59zr5,32at8r96gpmc11c56oiewvl841msup,kISNaDhx,2020-0188,2021-10-31,03:41:48,05:03:29,NA,incomplete,false,true,NA,NA,4,27,NA,orange,n_l_042.jpg,NA,NA,NA,NA,NA,pleasant,unpleasant,NA,NA,NA,NA,NA,right,1495.89999999851,true,NA,NA,NA,NA,NA,NA,NA,NA
kISNaDhx,375vsr8fwzmfz1886kcfytzzg59zr5,32at8r96gpmc11c56oiewvl841msup,kISNaDhx,2020-0188,2021-10-31,03:41:48,05:03:29,NA,incomplete,false,true,NA,NA,4,28,NA,orange,m_l_042.jpg,NA,NA,NA,NA,NA,unpleasant,pleasant,NA,NA,NA,NA,NA,right,1166.89999999851,true,NA,NA,NA,NA,NA,NA,NA,NA
kISNaDhx,375vsr8fwzmfz1886kcfytzzg59zr5,32at8r96gpmc11c56oiewvl841msup,kISNaDhx,2020-0188,2021-10-31,03:41:48,05:03:29,NA,incomplete,false,true,NA,NA,4,29,NA,orange,n_l_094.jpg,NA,NA,NA,NA,NA,pleasant,unpleasant,NA,NA,NA,NA,NA,left,1036.89999999851,true,NA,NA,NA,NA,NA,NA,NA,NA
kISNaDhx,375vsr8fwzmfz1886kcfytzzg59zr5,32at8r96gpmc11c56oiewvl841msup,kISNaDhx,2020-0188,2021-10-31,03:41:48,05:03:29,NA,incomplete,false,true,NA,NA,4,30,NA,blue,n_l_095.jpg,NA,NA,NA,NA,NA,pleasant,unpleasant,NA,NA,NA,NA,NA,right,1834.29999999702,true,NA,NA,NA,NA,NA,NA,NA,NA
kISNaDhx,375vsr8fwzmfz1886kcfytzzg59zr5,32at8r96gpmc11c56oiewvl841msup,kISNaDhx,2020-0188,2021-10-31,03:41:48,05:03:29,NA,incomplete,false,true,NA,NA,4,31,NA,blue,m_s_068.jpg,NA,NA,NA,NA,NA,unpleasant,pleasant,NA,NA,NA,NA,NA,right,1192.80000000447,true,NA,NA,NA,NA,NA,NA,NA,NA
kISNaDhx,375vsr8fwzmfz1886kcfytzzg59zr5,32at8r96gpmc11c56oiewvl841msup,kISNaDhx,2020-0188,2021-10-31,03:41:48,05:03:29,NA,incomplete,false,true,NA,NA,4,32,NA,blue,m_l_025.jpg,NA,NA,NA,NA,NA,pleasant,unpleasant,NA,NA,NA,NA,NA,left,2204,true,NA,NA,NA,NA,NA,NA,NA,NA
kISNaDhx,375vsr8fwzmfz1886kcfytzzg59zr5,32at8r96gpmc11c56oiewvl841msup,kISNaDhx,2020-0188,2021-10-31,03:41:48,05:03:29,NA,incomplete,false,true,NA,NA,4,33,NA,blue,m_s_032.jpg,NA,NA,NA,NA,NA,unpleasant,pleasant,NA,NA,NA,NA,NA,right,2151.19999999553,true,NA,NA,NA,NA,NA,NA,NA,NA
kISNaDhx,375vsr8fwzmfz1886kcfytzzg59zr5,32at8r96gpmc11c56oiewvl841msup,kISNaDhx,2020-0188,2021-10-31,03:41:48,05:03:29,NA,incomplete,false,true,NA,NA,4,34,NA,blue,n_s_008.jpg,NA,NA,NA,NA,NA,pleasant,unpleasant,NA,NA,NA,NA,NA,left,1221.39999999851,true,NA,NA,NA,NA,NA,NA,NA,NA
kISNaDhx,375vsr8fwzmfz1886kcfytzzg59zr5,32at8r96gpmc11c56oiewvl841msup,kISNaDhx,2020-0188,2021-10-31,03:41:48,05:03:29,NA,incomplete,false,true,NA,NA,4,35,NA,blue,m_l_109.jpg,NA,NA,NA,NA,NA,pleasant,unpleasant,NA,NA,NA,NA,NA,left,1146.29999999702,true,NA,NA,NA,NA,NA,NA,NA,NA
kISNaDhx,375vsr8fwzmfz1886kcfytzzg59zr5,32at8r96gpmc11c56oiewvl841msup,kISNaDhx,2020-0188,2021-10-31,03:41:48,05:03:29,NA,incomplete,false,NA,NA,true,4,0,NA,NA,NA,right,m_l_081.jpg,gray,white,NA,NA,NA,NA,NA,NA,NA,NA,NA,NaN,NA,5590.69999999553,right,1,NA,NA,NA,NA,NA
kISNaDhx,375vsr8fwzmfz1886kcfytzzg59zr5,32at8r96gpmc11c56oiewvl841msup,kISNaDhx,2020-0188,2021-10-31,03:41:48,05:03:29,NA,incomplete,false,NA,NA,true,4,1,NA,NA,NA,right,n_l_071.jpg,white,yellow,NA,NA,NA,NA,NA,NA,NA,NA,NA,NaN,NA,2788.0999999940395,left,0,NA,NA,NA,NA,NA
kISNaDhx,375vsr8fwzmfz1886kcfytzzg59zr5,32at8r96gpmc11c56oiewvl841msup,kISNaDhx,2020-0188,2021-10-31,03:41:48,05:03:29,NA,incomplete,false,NA,NA,true,4,2,NA,NA,NA,right,n_s_001.jpg,gray,purple,NA,NA,NA,NA,NA,NA,NA,NA,NA,NaN,NA,2252.1999999955297,left,0,NA,NA,NA,NA,NA
kISNaDhx,375vsr8fwzmfz1886kcfytzzg59zr5,32at8r96gpmc11c56oiewvl841msup,kISNaDhx,2020-0188,2021-10-31,03:41:48,05:03:29,NA,incomplete,false,NA,NA,true,4,3,NA,NA,NA,left,n_s_068.jpg,white,gray,NA,NA,NA,NA,NA,NA,NA,NA,NA,NaN,NA,2115.3000000044703,right,0,NA,NA,NA,NA,NA
kISNaDhx,375vsr8fwzmfz1886kcfytzzg59zr5,32at8r96gpmc11c56oiewvl841msup,kISNaDhx,2020-0188,2021-10-31,03:41:48,05:03:29,NA,incomplete,false,NA,NA,true,4,4,NA,NA,NA,left,m_s_071.jpg,gray,purple,NA,NA,NA,NA,NA,NA,NA,NA,NA,NaN,NA,2586.3000000044703,left,1,NA,NA,NA,NA,NA
kISNaDhx,375vsr8fwzmfz1886kcfytzzg59zr5,32at8r96gpmc11c56oiewvl841msup,kISNaDhx,2020-0188,2021-10-31,03:41:48,05:03:29,NA,incomplete,false,NA,NA,true,4,5,NA,NA,NA,left,m_s_069.jpg,purple,orange,NA,NA,NA,NA,NA,NA,NA,NA,NA,NaN,NA,2161.8000000044703,left,1,NA,NA,NA,NA,NA
kISNaDhx,375vsr8fwzmfz1886kcfytzzg59zr5,32at8r96gpmc11c56oiewvl841msup,kISNaDhx,2020-0188,2021-10-31,03:41:48,05:03:29,NA,incomplete,false,NA,NA,true,4,6,NA,NA,NA,right,m_l_109.jpg,orange,blue,NA,NA,NA,NA,NA,NA,NA,NA,NA,NaN,NA,3101.5,right,1,NA,NA,NA,NA,NA
kISNaDhx,375vsr8fwzmfz1886kcfytzzg59zr5,32at8r96gpmc11c56oiewvl841msup,kISNaDhx,2020-0188,2021-10-31,03:41:48,05:03:29,NA,incomplete,false,NA,NA,true,4,7,NA,NA,NA,right,m_s_058.jpg,gray,white,NA,NA,NA,NA,NA,NA,NA,NA,NA,NaN,NA,2104.2000000029802,left,0,NA,NA,NA,NA,NA
kISNaDhx,375vsr8fwzmfz1886kcfytzzg59zr5,32at8r96gpmc11c56oiewvl841msup,kISNaDhx,2020-0188,2021-10-31,03:41:48,05:03:29,NA,incomplete,false,NA,NA,true,4,8,NA,NA,NA,left,n_l_009.jpg,orange,blue,NA,NA,NA,NA,NA,NA,NA,NA,NA,NaN,NA,2689.2000000029802,left,1,NA,NA,NA,NA,NA
kISNaDhx,375vsr8fwzmfz1886kcfytzzg59zr5,32at8r96gpmc11c56oiewvl841msup,kISNaDhx,2020-0188,2021-10-31,03:41:48,05:03:29,NA,incomplete,false,NA,NA,true,4,9,NA,NA,NA,right,m_s_035.jpg,white,yellow,NA,NA,NA,NA,NA,NA,NA,NA,NA,NaN,NA,2980.89999999851,right,1,NA,NA,NA,NA,NA
kISNaDhx,375vsr8fwzmfz1886kcfytzzg59zr5,32at8r96gpmc11c56oiewvl841msup,kISNaDhx,2020-0188,2021-10-31,03:41:48,05:03:29,NA,incomplete,false,NA,NA,true,4,10,NA,NA,NA,right,m_s_028.jpg,gray,white,NA,NA,NA,NA,NA,NA,NA,NA,NA,NaN,NA,2181.10000000149,left,0,NA,NA,NA,NA,NA
kISNaDhx,375vsr8fwzmfz1886kcfytzzg59zr5,32at8r96gpmc11c56oiewvl841msup,kISNaDhx,2020-0188,2021-10-31,03:41:48,05:03:29,NA,incomplete,false,NA,NA,true,4,11,NA,NA,NA,left,m_l_042.jpg,orange,purple,NA,NA,NA,NA,NA,NA,NA,NA,NA,NaN,NA,2047.4000000059605,left,1,NA,NA,NA,NA,NA
kISNaDhx,375vsr8fwzmfz1886kcfytzzg59zr5,32at8r96gpmc11c56oiewvl841msup,kISNaDhx,2020-0188,2021-10-31,03:41:48,05:03:29,NA,incomplete,false,NA,NA,true,4,12,NA,NA,NA,right,n_l_080.jpg,gray,purple,NA,NA,NA,NA,NA,NA,NA,NA,NA,NaN,NA,2443.39999999851,left,0,NA,NA,NA,NA,NA
kISNaDhx,375vsr8fwzmfz1886kcfytzzg59zr5,32at8r96gpmc11c56oiewvl841msup,kISNaDhx,2020-0188,2021-10-31,03:41:48,05:03:29,NA,incomplete,false,NA,NA,true,4,13,NA,NA,NA,right,m_s_015.jpg,purple,orange,NA,NA,NA,NA,NA,NA,NA,NA,NA,NaN,NA,3277.1999999955297,right,1,NA,NA,NA,NA,NA
kISNaDhx,375vsr8fwzmfz1886kcfytzzg59zr5,32at8r96gpmc11c56oiewvl841msup,kISNaDhx,2020-0188,2021-10-31,03:41:48,05:03:29,NA,incomplete,false,NA,NA,true,4,14,NA,NA,NA,left,m_l_062.jpg,purple,orange,NA,NA,NA,NA,NA,NA,NA,NA,NA,NaN,NA,2220.9000000059605,left,1,NA,NA,NA,NA,NA
kISNaDhx,375vsr8fwzmfz1886kcfytzzg59zr5,32at8r96gpmc11c56oiewvl841msup,kISNaDhx,2020-0188,2021-10-31,03:41:48,05:03:29,NA,incomplete,false,NA,NA,true,4,15,NA,NA,NA,left,n_l_117.jpg,gray,white,NA,NA,NA,NA,NA,NA,NA,NA,NA,NaN,NA,1853.5,left,1,NA,NA,NA,NA,NA
kISNaDhx,375vsr8fwzmfz1886kcfytzzg59zr5,32at8r96gpmc11c56oiewvl841msup,kISNaDhx,2020-0188,2021-10-31,03:41:48,05:03:29,NA,incomplete,false,NA,NA,true,4,16,NA,NA,NA,right,n_s_115.jpg,purple,gray,NA,NA,NA,NA,NA,NA,NA,NA,NA,NaN,NA,2145.7999999970198,right,1,NA,NA,NA,NA,NA
kISNaDhx,375vsr8fwzmfz1886kcfytzzg59zr5,32at8r96gpmc11c56oiewvl841msup,kISNaDhx,2020-0188,2021-10-31,03:41:48,05:03:29,NA,incomplete,false,NA,NA,true,4,17,NA,NA,NA,right,m_l_116.jpg,white,yellow,NA,NA,NA,NA,NA,NA,NA,NA,NA,NaN,NA,2383.60000000149,left,0,NA,NA,NA,NA,NA
kISNaDhx,375vsr8fwzmfz1886kcfytzzg59zr5,32at8r96gpmc11c56oiewvl841msup,kISNaDhx,2020-0188,2021-10-31,03:41:48,05:03:29,NA,incomplete,false,NA,NA,true,4,18,NA,NA,NA,left,m_l_025.jpg,blue,orange,NA,NA,NA,NA,NA,NA,NA,NA,NA,NaN,NA,2347.7000000029802,right,0,NA,NA,NA,NA,NA
kISNaDhx,375vsr8fwzmfz1886kcfytzzg59zr5,32at8r96gpmc11c56oiewvl841msup,kISNaDhx,2020-0188,2021-10-31,03:41:48,05:03:29,NA,incomplete,false,NA,NA,true,4,19,NA,NA,NA,right,n_l_094.jpg,purple,orange,NA,NA,NA,NA,NA,NA,NA,NA,NA,NaN,NA,1666.5,left,0,NA,NA,NA,NA,NA
kISNaDhx,375vsr8fwzmfz1886kcfytzzg59zr5,32at8r96gpmc11c56oiewvl841msup,kISNaDhx,2020-0188,2021-10-31,03:41:48,05:03:29,NA,incomplete,false,NA,NA,true,4,20,NA,NA,NA,left,m_s_068.jpg,blue,orange,NA,NA,NA,NA,NA,NA,NA,NA,NA,NaN,NA,2283.60000000149,right,0,NA,NA,NA,NA,NA
kISNaDhx,375vsr8fwzmfz1886kcfytzzg59zr5,32at8r96gpmc11c56oiewvl841msup,kISNaDhx,2020-0188,2021-10-31,03:41:48,05:03:29,NA,incomplete,false,NA,NA,true,4,21,NA,NA,NA,right,n_s_020.jpg,purple,gray,NA,NA,NA,NA,NA,NA,NA,NA,NA,NaN,NA,1828,right,1,NA,NA,NA,NA,NA
kISNaDhx,375vsr8fwzmfz1886kcfytzzg59zr5,32at8r96gpmc11c56oiewvl841msup,kISNaDhx,2020-0188,2021-10-31,03:41:48,05:03:29,NA,incomplete,false,NA,true,NA,4,0,NA,NA,NA,left,NA,NA,NA,present,NA,NA,m_s_015.jpg,orange,n_l_094.jpg,orange,within,NA,NaN,NA,NA,NA,NA,left,2853.5,1,0,2025.2000000029802
kISNaDhx,375vsr8fwzmfz1886kcfytzzg59zr5,32at8r96gpmc11c56oiewvl841msup,kISNaDhx,2020-0188,2021-10-31,03:41:48,05:03:29,NA,incomplete,false,NA,true,NA,4,1,NA,NA,NA,left,NA,NA,NA,present,NA,NA,n_s_068.jpg,white,n_s_020.jpg,gray,between,NA,NaN,NA,NA,NA,NA,left,3284.7000000029802,1,3,3242.7999999970198
kISNaDhx,375vsr8fwzmfz1886kcfytzzg59zr5,32at8r96gpmc11c56oiewvl841msup,kISNaDhx,2020-0188,2021-10-31,03:41:48,05:03:29,NA,incomplete,false,NA,true,NA,4,2,NA,NA,NA,left,NA,NA,NA,present,NA,NA,m_s_058.jpg,white,m_l_081.jpg,white,within,NA,NaN,NA,NA,NA,NA,left,6160.80000000447,1,1,2117.60000000149
kISNaDhx,375vsr8fwzmfz1886kcfytzzg59zr5,32at8r96gpmc11c56oiewvl841msup,kISNaDhx,2020-0188,2021-10-31,03:41:48,05:03:29,NA,incomplete,false,NA,true,NA,4,3,NA,NA,NA,right,NA,NA,NA,present,NA,NA,m_s_071.jpg,gray,n_s_115.jpg,gray,within,NA,NaN,NA,NA,NA,NA,right,2548.2999999970198,1,1,1963.0999999940395
kISNaDhx,375vsr8fwzmfz1886kcfytzzg59zr5,32at8r96gpmc11c56oiewvl841msup,kISNaDhx,2020-0188,2021-10-31,03:41:48,05:03:29,NA,incomplete,false,NA,true,NA,4,4,NA,NA,NA,right,NA,NA,NA,present,NA,NA,m_l_025.jpg,blue,m_l_042.jpg,orange,between,NA,NaN,NA,NA,NA,NA,right,5821.39999999851,1,3,2339.6999999955297
kISNaDhx,375vsr8fwzmfz1886kcfytzzg59zr5,32at8r96gpmc11c56oiewvl841msup,kISNaDhx,2020-0188,2021-10-31,03:41:48,05:03:29,NA,incomplete,false,NA,true,NA,4,5,NA,NA,NA,left,NA,NA,NA,present,NA,NA,m_s_068.jpg,blue,m_l_109.jpg,blue,within,NA,NaN,NA,NA,NA,NA,left,4517.89999999851,1,1,2060.5
kISNaDhx,375vsr8fwzmfz1886kcfytzzg59zr5,32at8r96gpmc11c56oiewvl841msup,kISNaDhx,2020-0188,2021-10-31,03:41:48,05:03:29,NA,incomplete,false,NA,true,NA,4,6,NA,NA,NA,left,NA,NA,NA,present,NA,NA,n_s_001.jpg,purple,n_l_009.jpg,orange,between,NA,NaN,NA,NA,NA,NA,right,2679.60000000149,0,2,2449.8000000044703
kISNaDhx,375vsr8fwzmfz1886kcfytzzg59zr5,32at8r96gpmc11c56oiewvl841msup,kISNaDhx,2020-0188,2021-10-31,03:41:48,05:03:29,NA,incomplete,false,NA,true,NA,4,7,NA,NA,NA,right,NA,NA,NA,present,NA,NA,m_s_028.jpg,white,n_l_071.jpg,yellow,between,NA,NaN,NA,NA,NA,NA,left,3488.39999999851,0,3,1782.3999999985099
kISNaDhx,375vsr8fwzmfz1886kcfytzzg59zr5,32at8r96gpmc11c56oiewvl841msup,kISNaDhx,2020-0188,2021-10-31,03:41:48,05:03:29,NA,incomplete,false,NA,true,NA,4,8,NA,NA,NA,right,NA,NA,NA,present,NA,NA,m_l_062.jpg,purple,n_l_080.jpg,purple,within,NA,NaN,NA,NA,NA,NA,right,2890.7999999970198,1,3,2410.89999999851
kISNaDhx,375vsr8fwzmfz1886kcfytzzg59zr5,32at8r96gpmc11c56oiewvl841msup,kISNaDhx,2020-0188,2021-10-31,03:41:48,05:03:29,NA,incomplete,false,NA,true,NA,4,9,NA,NA,NA,left,NA,NA,NA,present,NA,NA,n_l_117.jpg,gray,m_s_069.jpg,purple,between,NA,NaN,NA,NA,NA,NA,left,3783,1,2,2063
kISNaDhx,375vsr8fwzmfz1886kcfytzzg59zr5,32at8r96gpmc11c56oiewvl841msup,kISNaDhx,2020-0188,2021-10-31,03:41:48,05:03:29,NA,incomplete,false,NA,true,NA,4,10,NA,NA,NA,right,NA,NA,NA,present,NA,NA,m_s_035.jpg,yellow,m_l_116.jpg,yellow,within,NA,NaN,NA,NA,NA,NA,left,2567.3000000044703,0,0,2511.39999999851
kISNaDhx,375vsr8fwzmfz1886kcfytzzg59zr5,32at8r96gpmc11c56oiewvl841msup,kISNaDhx,2020-0188,2021-10-31,03:41:48,05:03:29,NA,incomplete,false,true,NA,NA,5,0,NA,purple,n_s_059.jpg,NA,NA,NA,NA,NA,pleasant,unpleasant,NA,NA,NA,NA,NA,left,1712.10000000149,true,NA,NA,NA,NA,NA,NA,NA,NA
kISNaDhx,375vsr8fwzmfz1886kcfytzzg59zr5,32at8r96gpmc11c56oiewvl841msup,kISNaDhx,2020-0188,2021-10-31,03:41:48,05:03:29,NA,incomplete,false,true,NA,NA,5,1,NA,purple,n_s_039.jpg,NA,NA,NA,NA,NA,unpleasant,pleasant,NA,NA,NA,NA,NA,left,1058.5,true,NA,NA,NA,NA,NA,NA,NA,NA
kISNaDhx,375vsr8fwzmfz1886kcfytzzg59zr5,32at8r96gpmc11c56oiewvl841msup,kISNaDhx,2020-0188,2021-10-31,03:41:48,05:03:29,NA,incomplete,false,true,NA,NA,5,2,NA,purple,m_l_057.jpg,NA,NA,NA,NA,NA,pleasant,unpleasant,NA,NA,NA,NA,NA,left,1451.19999999553,true,NA,NA,NA,NA,NA,NA,NA,NA
kISNaDhx,375vsr8fwzmfz1886kcfytzzg59zr5,32at8r96gpmc11c56oiewvl841msup,kISNaDhx,2020-0188,2021-10-31,03:41:48,05:03:29,NA,incomplete,false,true,NA,NA,5,3,NA,purple,m_s_041.jpg,NA,NA,NA,NA,NA,unpleasant,pleasant,NA,NA,NA,NA,NA,right,1708.40000000596,true,NA,NA,NA,NA,NA,NA,NA,NA
kISNaDhx,375vsr8fwzmfz1886kcfytzzg59zr5,32at8r96gpmc11c56oiewvl841msup,kISNaDhx,2020-0188,2021-10-31,03:41:48,05:03:29,NA,incomplete,false,true,NA,NA,5,4,NA,purple,m_s_082.jpg,NA,NA,NA,NA,NA,unpleasant,pleasant,NA,NA,NA,NA,NA,right,1289.60000000149,true,NA,NA,NA,NA,NA,NA,NA,NA
kISNaDhx,375vsr8fwzmfz1886kcfytzzg59zr5,32at8r96gpmc11c56oiewvl841msup,kISNaDhx,2020-0188,2021-10-31,03:41:48,05:03:29,NA,incomplete,false,true,NA,NA,5,5,NA,purple,m_s_056.jpg,NA,NA,NA,NA,NA,pleasant,unpleasant,NA,NA,NA,NA,NA,left,1226.79999999702,true,NA,NA,NA,NA,NA,NA,NA,NA
kISNaDhx,375vsr8fwzmfz1886kcfytzzg59zr5,32at8r96gpmc11c56oiewvl841msup,kISNaDhx,2020-0188,2021-10-31,03:41:48,05:03:29,NA,incomplete,false,true,NA,NA,5,6,NA,orange,m_s_027.jpg,NA,NA,NA,NA,NA,unpleasant,pleasant,NA,NA,NA,NA,NA,right,1606.40000000596,true,NA,NA,NA,NA,NA,NA,NA,NA
kISNaDhx,375vsr8fwzmfz1886kcfytzzg59zr5,32at8r96gpmc11c56oiewvl841msup,kISNaDhx,2020-0188,2021-10-31,03:41:48,05:03:29,NA,incomplete,false,true,NA,NA,5,7,NA,orange,n_s_055.jpg,NA,NA,NA,NA,NA,pleasant,unpleasant,NA,NA,NA,NA,NA,left,1820.89999999851,true,NA,NA,NA,NA,NA,NA,NA,NA
kISNaDhx,375vsr8fwzmfz1886kcfytzzg59zr5,32at8r96gpmc11c56oiewvl841msup,kISNaDhx,2020-0188,2021-10-31,03:41:48,05:03:29,NA,incomplete,false,true,NA,NA,5,8,NA,orange,n_l_063.jpg,NA,NA,NA,NA,NA,pleasant,unpleasant,NA,NA,NA,NA,NA,left,1688.60000000149,true,NA,NA,NA,NA,NA,NA,NA,NA
kISNaDhx,375vsr8fwzmfz1886kcfytzzg59zr5,32at8r96gpmc11c56oiewvl841msup,kISNaDhx,2020-0188,2021-10-31,03:41:48,05:03:29,NA,incomplete,false,true,NA,NA,5,9,NA,orange,m_l_028.jpg,NA,NA,NA,NA,NA,unpleasant,pleasant,NA,NA,NA,NA,NA,right,1468.59999999404,true,NA,NA,NA,NA,NA,NA,NA,NA
kISNaDhx,375vsr8fwzmfz1886kcfytzzg59zr5,32at8r96gpmc11c56oiewvl841msup,kISNaDhx,2020-0188,2021-10-31,03:41:48,05:03:29,NA,incomplete,false,true,NA,NA,5,10,NA,orange,n_s_006.jpg,NA,NA,NA,NA,NA,pleasant,unpleasant,NA,NA,NA,NA,NA,left,1034.5,true,NA,NA,NA,NA,NA,NA,NA,NA
kISNaDhx,375vsr8fwzmfz1886kcfytzzg59zr5,32at8r96gpmc11c56oiewvl841msup,kISNaDhx,2020-0188,2021-10-31,03:41:48,05:03:29,NA,incomplete,false,true,NA,NA,5,11,NA,orange,n_l_078.jpg,NA,NA,NA,NA,NA,pleasant,unpleasant,NA,NA,NA,NA,NA,left,1640.69999999553,true,NA,NA,NA,NA,NA,NA,NA,NA
kISNaDhx,375vsr8fwzmfz1886kcfytzzg59zr5,32at8r96gpmc11c56oiewvl841msup,kISNaDhx,2020-0188,2021-10-31,03:41:48,05:03:29,NA,incomplete,false,true,NA,NA,5,12,NA,gray,m_l_030.jpg,NA,NA,NA,NA,NA,unpleasant,pleasant,NA,NA,NA,NA,NA,right,1903.10000000149,true,NA,NA,NA,NA,NA,NA,NA,NA
kISNaDhx,375vsr8fwzmfz1886kcfytzzg59zr5,32at8r96gpmc11c56oiewvl841msup,kISNaDhx,2020-0188,2021-10-31,03:41:48,05:03:29,NA,incomplete,false,true,NA,NA,5,13,NA,gray,m_s_006.jpg,NA,NA,NA,NA,NA,pleasant,unpleasant,NA,NA,NA,NA,NA,left,1250.39999999851,true,NA,NA,NA,NA,NA,NA,NA,NA
kISNaDhx,375vsr8fwzmfz1886kcfytzzg59zr5,32at8r96gpmc11c56oiewvl841msup,kISNaDhx,2020-0188,2021-10-31,03:41:48,05:03:29,NA,incomplete,false,true,NA,NA,5,14,NA,gray,m_s_073.jpg,NA,NA,NA,NA,NA,pleasant,unpleasant,NA,NA,NA,NA,NA,left,1260.79999999702,true,NA,NA,NA,NA,NA,NA,NA,NA
kISNaDhx,375vsr8fwzmfz1886kcfytzzg59zr5,32at8r96gpmc11c56oiewvl841msup,kISNaDhx,2020-0188,2021-10-31,03:41:48,05:03:29,NA,incomplete,false,true,NA,NA,5,15,NA,gray,n_s_014.jpg,NA,NA,NA,NA,NA,unpleasant,pleasant,NA,NA,NA,NA,NA,right,1295.09999999404,true,NA,NA,NA,NA,NA,NA,NA,NA
kISNaDhx,375vsr8fwzmfz1886kcfytzzg59zr5,32at8r96gpmc11c56oiewvl841msup,kISNaDhx,2020-0188,2021-10-31,03:41:48,05:03:29,NA,incomplete,false,true,NA,NA,5,16,NA,gray,n_l_014.jpg,NA,NA,NA,NA,NA,pleasant,unpleasant,NA,NA,NA,NA,NA,left,1088.30000000447,true,NA,NA,NA,NA,NA,NA,NA,NA
kISNaDhx,375vsr8fwzmfz1886kcfytzzg59zr5,32at8r96gpmc11c56oiewvl841msup,kISNaDhx,2020-0188,2021-10-31,03:41:48,05:03:29,NA,incomplete,false,true,NA,NA,5,17,NA,gray,n_l_045.jpg,NA,NA,NA,NA,NA,unpleasant,pleasant,NA,NA,NA,NA,NA,right,1280.40000000596,true,NA,NA,NA,NA,NA,NA,NA,NA
