workerId,hitId,assignmentId,subject,studyid,exp_date,exp_start,exp_end,time_start,time_end,practice,encoding,memory,association,block,trial,event_order,event,stim,answer,object,left_context,right_context,context_type,label_left,label_right,left_image,left_event,right_image,right_event,condition,response,response_time,response_acc,association_response_time,association_response,association_acc,order_response,order_response_time,order_acc,distance_response,distance_response_time
pEfC6ERe,3k2cedradeesg9mhvkrgq648pmomto,32ktq2v7rhsbjebxogr1oqzozqtm9d,pEfC6ERe,2020-0188,2021-10-30,13:37:18,14:50:56,NA,incomplete,true,true,NA,NA,0,0,NA,yellow,n_l_094.jpg,NA,NA,NA,NA,NA,pleasant,unpleasant,NA,NA,NA,NA,NA,right,1786.19999992847,true,NA,NA,NA,NA,NA,NA,NA,NA
pEfC6ERe,3k2cedradeesg9mhvkrgq648pmomto,32ktq2v7rhsbjebxogr1oqzozqtm9d,pEfC6ERe,2020-0188,2021-10-30,13:37:18,14:50:56,NA,incomplete,true,true,NA,NA,0,1,NA,yellow,n_l_026.jpg,NA,NA,NA,NA,NA,unpleasant,pleasant,NA,NA,NA,NA,NA,right,2496.39999997616,true,NA,NA,NA,NA,NA,NA,NA,NA
pEfC6ERe,3k2cedradeesg9mhvkrgq648pmomto,32ktq2v7rhsbjebxogr1oqzozqtm9d,pEfC6ERe,2020-0188,2021-10-30,13:37:18,14:50:56,NA,incomplete,true,true,NA,NA,0,2,NA,yellow,n_s_071.jpg,NA,NA,NA,NA,NA,unpleasant,pleasant,NA,NA,NA,NA,NA,left,2530.19999992847,true,NA,NA,NA,NA,NA,NA,NA,NA
pEfC6ERe,3k2cedradeesg9mhvkrgq648pmomto,32ktq2v7rhsbjebxogr1oqzozqtm9d,pEfC6ERe,2020-0188,2021-10-30,13:37:18,14:50:56,NA,incomplete,true,true,NA,NA,0,3,NA,yellow,n_s_094.jpg,NA,NA,NA,NA,NA,unpleasant,pleasant,NA,NA,NA,NA,NA,left,1806.70000004768,true,NA,NA,NA,NA,NA,NA,NA,NA
pEfC6ERe,3k2cedradeesg9mhvkrgq648pmomto,32ktq2v7rhsbjebxogr1oqzozqtm9d,pEfC6ERe,2020-0188,2021-10-30,13:37:18,14:50:56,NA,incomplete,true,true,NA,NA,0,4,NA,yellow,n_s_045.jpg,NA,NA,NA,NA,NA,pleasant,unpleasant,NA,NA,NA,NA,NA,right,1774.60000002384,true,NA,NA,NA,NA,NA,NA,NA,NA
pEfC6ERe,3k2cedradeesg9mhvkrgq648pmomto,32ktq2v7rhsbjebxogr1oqzozqtm9d,pEfC6ERe,2020-0188,2021-10-30,13:37:18,14:50:56,NA,incomplete,true,true,NA,NA,0,5,NA,yellow,m_l_019.jpg,NA,NA,NA,NA,NA,pleasant,unpleasant,NA,NA,NA,NA,NA,right,1887.10000002384,true,NA,NA,NA,NA,NA,NA,NA,NA
pEfC6ERe,3k2cedradeesg9mhvkrgq648pmomto,32ktq2v7rhsbjebxogr1oqzozqtm9d,pEfC6ERe,2020-0188,2021-10-30,13:37:18,14:50:56,NA,incomplete,true,true,NA,NA,0,6,NA,white,n_s_014.jpg,NA,NA,NA,NA,NA,unpleasant,pleasant,NA,NA,NA,NA,NA,right,1778,true,NA,NA,NA,NA,NA,NA,NA,NA
pEfC6ERe,3k2cedradeesg9mhvkrgq648pmomto,32ktq2v7rhsbjebxogr1oqzozqtm9d,pEfC6ERe,2020-0188,2021-10-30,13:37:18,14:50:56,NA,incomplete,true,true,NA,NA,0,7,NA,white,m_l_100.jpg,NA,NA,NA,NA,NA,pleasant,unpleasant,NA,NA,NA,NA,NA,left,2709,true,NA,NA,NA,NA,NA,NA,NA,NA
pEfC6ERe,3k2cedradeesg9mhvkrgq648pmomto,32ktq2v7rhsbjebxogr1oqzozqtm9d,pEfC6ERe,2020-0188,2021-10-30,13:37:18,14:50:56,NA,incomplete,true,true,NA,NA,0,8,NA,white,m_s_113.jpg,NA,NA,NA,NA,NA,unpleasant,pleasant,NA,NA,NA,NA,NA,none,0,false,NA,NA,NA,NA,NA,NA,NA,NA
pEfC6ERe,3k2cedradeesg9mhvkrgq648pmomto,32ktq2v7rhsbjebxogr1oqzozqtm9d,pEfC6ERe,2020-0188,2021-10-30,13:37:18,14:50:56,NA,incomplete,true,true,NA,NA,0,9,NA,white,m_s_004.jpg,NA,NA,NA,NA,NA,pleasant,unpleasant,NA,NA,NA,NA,NA,right,1518,true,NA,NA,NA,NA,NA,NA,NA,NA
pEfC6ERe,3k2cedradeesg9mhvkrgq648pmomto,32ktq2v7rhsbjebxogr1oqzozqtm9d,pEfC6ERe,2020-0188,2021-10-30,13:37:18,14:50:56,NA,incomplete,true,true,NA,NA,0,10,NA,white,n_l_036.jpg,NA,NA,NA,NA,NA,pleasant,unpleasant,NA,NA,NA,NA,NA,left,1234.90000009537,true,NA,NA,NA,NA,NA,NA,NA,NA
pEfC6ERe,3k2cedradeesg9mhvkrgq648pmomto,32ktq2v7rhsbjebxogr1oqzozqtm9d,pEfC6ERe,2020-0188,2021-10-30,13:37:18,14:50:56,NA,incomplete,true,true,NA,NA,0,11,NA,white,n_s_067.jpg,NA,NA,NA,NA,NA,pleasant,unpleasant,NA,NA,NA,NA,NA,left,1616.19999992847,true,NA,NA,NA,NA,NA,NA,NA,NA
pEfC6ERe,3k2cedradeesg9mhvkrgq648pmomto,32ktq2v7rhsbjebxogr1oqzozqtm9d,pEfC6ERe,2020-0188,2021-10-30,13:37:18,14:50:56,NA,incomplete,true,true,NA,NA,0,12,NA,purple,n_s_105.jpg,NA,NA,NA,NA,NA,pleasant,unpleasant,NA,NA,NA,NA,NA,left,1515.39999997616,true,NA,NA,NA,NA,NA,NA,NA,NA
pEfC6ERe,3k2cedradeesg9mhvkrgq648pmomto,32ktq2v7rhsbjebxogr1oqzozqtm9d,pEfC6ERe,2020-0188,2021-10-30,13:37:18,14:50:56,NA,incomplete,true,true,NA,NA,0,13,NA,purple,m_s_044.jpg,NA,NA,NA,NA,NA,unpleasant,pleasant,NA,NA,NA,NA,NA,left,2053.09999990463,true,NA,NA,NA,NA,NA,NA,NA,NA
pEfC6ERe,3k2cedradeesg9mhvkrgq648pmomto,32ktq2v7rhsbjebxogr1oqzozqtm9d,pEfC6ERe,2020-0188,2021-10-30,13:37:18,14:50:56,NA,incomplete,true,true,NA,NA,0,14,NA,purple,n_l_100.jpg,NA,NA,NA,NA,NA,unpleasant,pleasant,NA,NA,NA,NA,NA,right,1841.59999990463,true,NA,NA,NA,NA,NA,NA,NA,NA
pEfC6ERe,3k2cedradeesg9mhvkrgq648pmomto,32ktq2v7rhsbjebxogr1oqzozqtm9d,pEfC6ERe,2020-0188,2021-10-30,13:37:18,14:50:56,NA,incomplete,true,true,NA,NA,0,15,NA,purple,n_s_104.jpg,NA,NA,NA,NA,NA,pleasant,unpleasant,NA,NA,NA,NA,NA,right,1547.10000002384,true,NA,NA,NA,NA,NA,NA,NA,NA
pEfC6ERe,3k2cedradeesg9mhvkrgq648pmomto,32ktq2v7rhsbjebxogr1oqzozqtm9d,pEfC6ERe,2020-0188,2021-10-30,13:37:18,14:50:56,NA,incomplete,true,true,NA,NA,0,16,NA,purple,m_s_023.jpg,NA,NA,NA,NA,NA,unpleasant,pleasant,NA,NA,NA,NA,NA,left,2313.5,true,NA,NA,NA,NA,NA,NA,NA,NA
pEfC6ERe,3k2cedradeesg9mhvkrgq648pmomto,32ktq2v7rhsbjebxogr1oqzozqtm9d,pEfC6ERe,2020-0188,2021-10-30,13:37:18,14:50:56,NA,incomplete,true,true,NA,NA,0,17,NA,purple,m_s_028.jpg,NA,NA,NA,NA,NA,pleasant,unpleasant,NA,NA,NA,NA,NA,left,1502.30000007153,true,NA,NA,NA,NA,NA,NA,NA,NA
pEfC6ERe,3k2cedradeesg9mhvkrgq648pmomto,32ktq2v7rhsbjebxogr1oqzozqtm9d,pEfC6ERe,2020-0188,2021-10-30,13:37:18,14:50:56,NA,incomplete,true,true,NA,NA,0,18,NA,gray,m_s_006.jpg,NA,NA,NA,NA,NA,pleasant,unpleasant,NA,NA,NA,NA,NA,left,2043.10000002384,true,NA,NA,NA,NA,NA,NA,NA,NA
pEfC6ERe,3k2cedradeesg9mhvkrgq648pmomto,32ktq2v7rhsbjebxogr1oqzozqtm9d,pEfC6ERe,2020-0188,2021-10-30,13:37:18,14:50:56,NA,incomplete,true,true,NA,NA,0,19,NA,gray,m_s_011.jpg,NA,NA,NA,NA,NA,pleasant,unpleasant,NA,NA,NA,NA,NA,left,1659.60000002384,true,NA,NA,NA,NA,NA,NA,NA,NA
pEfC6ERe,3k2cedradeesg9mhvkrgq648pmomto,32ktq2v7rhsbjebxogr1oqzozqtm9d,pEfC6ERe,2020-0188,2021-10-30,13:37:18,14:50:56,NA,incomplete,true,true,NA,NA,0,20,NA,gray,m_l_043.jpg,NA,NA,NA,NA,NA,pleasant,unpleasant,NA,NA,NA,NA,NA,left,1133,true,NA,NA,NA,NA,NA,NA,NA,NA
pEfC6ERe,3k2cedradeesg9mhvkrgq648pmomto,32ktq2v7rhsbjebxogr1oqzozqtm9d,pEfC6ERe,2020-0188,2021-10-30,13:37:18,14:50:56,NA,incomplete,true,true,NA,NA,0,21,NA,gray,n_s_080.jpg,NA,NA,NA,NA,NA,pleasant,unpleasant,NA,NA,NA,NA,NA,left,1907.80000007153,true,NA,NA,NA,NA,NA,NA,NA,NA
pEfC6ERe,3k2cedradeesg9mhvkrgq648pmomto,32ktq2v7rhsbjebxogr1oqzozqtm9d,pEfC6ERe,2020-0188,2021-10-30,13:37:18,14:50:56,NA,incomplete,true,true,NA,NA,0,22,NA,gray,n_s_058.jpg,NA,NA,NA,NA,NA,unpleasant,pleasant,NA,NA,NA,NA,NA,left,1413,true,NA,NA,NA,NA,NA,NA,NA,NA
pEfC6ERe,3k2cedradeesg9mhvkrgq648pmomto,32ktq2v7rhsbjebxogr1oqzozqtm9d,pEfC6ERe,2020-0188,2021-10-30,13:37:18,14:50:56,NA,incomplete,true,true,NA,NA,0,23,NA,gray,m_s_073.jpg,NA,NA,NA,NA,NA,pleasant,unpleasant,NA,NA,NA,NA,NA,left,2221.19999992847,true,NA,NA,NA,NA,NA,NA,NA,NA
pEfC6ERe,3k2cedradeesg9mhvkrgq648pmomto,32ktq2v7rhsbjebxogr1oqzozqtm9d,pEfC6ERe,2020-0188,2021-10-30,13:37:18,14:50:56,NA,incomplete,true,true,NA,NA,0,24,NA,green,m_l_040.jpg,NA,NA,NA,NA,NA,pleasant,unpleasant,NA,NA,NA,NA,NA,right,1357.20000004768,true,NA,NA,NA,NA,NA,NA,NA,NA
pEfC6ERe,3k2cedradeesg9mhvkrgq648pmomto,32ktq2v7rhsbjebxogr1oqzozqtm9d,pEfC6ERe,2020-0188,2021-10-30,13:37:18,14:50:56,NA,incomplete,true,true,NA,NA,0,25,NA,green,n_l_029.jpg,NA,NA,NA,NA,NA,unpleasant,pleasant,NA,NA,NA,NA,NA,right,2107.39999997616,true,NA,NA,NA,NA,NA,NA,NA,NA
pEfC6ERe,3k2cedradeesg9mhvkrgq648pmomto,32ktq2v7rhsbjebxogr1oqzozqtm9d,pEfC6ERe,2020-0188,2021-10-30,13:37:18,14:50:56,NA,incomplete,true,true,NA,NA,0,26,NA,green,n_l_007.jpg,NA,NA,NA,NA,NA,pleasant,unpleasant,NA,NA,NA,NA,NA,left,1884.79999995232,true,NA,NA,NA,NA,NA,NA,NA,NA
pEfC6ERe,3k2cedradeesg9mhvkrgq648pmomto,32ktq2v7rhsbjebxogr1oqzozqtm9d,pEfC6ERe,2020-0188,2021-10-30,13:37:18,14:50:56,NA,incomplete,true,true,NA,NA,0,27,NA,green,m_s_104.jpg,NA,NA,NA,NA,NA,unpleasant,pleasant,NA,NA,NA,NA,NA,right,1611.19999992847,true,NA,NA,NA,NA,NA,NA,NA,NA
pEfC6ERe,3k2cedradeesg9mhvkrgq648pmomto,32ktq2v7rhsbjebxogr1oqzozqtm9d,pEfC6ERe,2020-0188,2021-10-30,13:37:18,14:50:56,NA,incomplete,true,true,NA,NA,0,28,NA,green,m_l_044.jpg,NA,NA,NA,NA,NA,pleasant,unpleasant,NA,NA,NA,NA,NA,left,1400,true,NA,NA,NA,NA,NA,NA,NA,NA
pEfC6ERe,3k2cedradeesg9mhvkrgq648pmomto,32ktq2v7rhsbjebxogr1oqzozqtm9d,pEfC6ERe,2020-0188,2021-10-30,13:37:18,14:50:56,NA,incomplete,true,true,NA,NA,0,29,NA,green,m_l_062.jpg,NA,NA,NA,NA,NA,pleasant,unpleasant,NA,NA,NA,NA,NA,left,1670.89999997616,true,NA,NA,NA,NA,NA,NA,NA,NA
pEfC6ERe,3k2cedradeesg9mhvkrgq648pmomto,32ktq2v7rhsbjebxogr1oqzozqtm9d,pEfC6ERe,2020-0188,2021-10-30,13:37:18,14:50:56,NA,incomplete,true,true,NA,NA,0,30,NA,brown,m_s_016.jpg,NA,NA,NA,NA,NA,unpleasant,pleasant,NA,NA,NA,NA,NA,left,1892.30000007153,true,NA,NA,NA,NA,NA,NA,NA,NA
pEfC6ERe,3k2cedradeesg9mhvkrgq648pmomto,32ktq2v7rhsbjebxogr1oqzozqtm9d,pEfC6ERe,2020-0188,2021-10-30,13:37:18,14:50:56,NA,incomplete,true,true,NA,NA,0,31,NA,brown,m_s_105.jpg,NA,NA,NA,NA,NA,pleasant,unpleasant,NA,NA,NA,NA,NA,right,1590,true,NA,NA,NA,NA,NA,NA,NA,NA
pEfC6ERe,3k2cedradeesg9mhvkrgq648pmomto,32ktq2v7rhsbjebxogr1oqzozqtm9d,pEfC6ERe,2020-0188,2021-10-30,13:37:18,14:50:56,NA,incomplete,true,true,NA,NA,0,32,NA,brown,n_l_109.jpg,NA,NA,NA,NA,NA,unpleasant,pleasant,NA,NA,NA,NA,NA,left,2073,true,NA,NA,NA,NA,NA,NA,NA,NA
pEfC6ERe,3k2cedradeesg9mhvkrgq648pmomto,32ktq2v7rhsbjebxogr1oqzozqtm9d,pEfC6ERe,2020-0188,2021-10-30,13:37:18,14:50:56,NA,incomplete,true,true,NA,NA,0,33,NA,brown,n_s_110.jpg,NA,NA,NA,NA,NA,unpleasant,pleasant,NA,NA,NA,NA,NA,left,2027.89999997616,true,NA,NA,NA,NA,NA,NA,NA,NA
pEfC6ERe,3k2cedradeesg9mhvkrgq648pmomto,32ktq2v7rhsbjebxogr1oqzozqtm9d,pEfC6ERe,2020-0188,2021-10-30,13:37:18,14:50:56,NA,incomplete,true,true,NA,NA,0,34,NA,brown,m_s_067.jpg,NA,NA,NA,NA,NA,unpleasant,pleasant,NA,NA,NA,NA,NA,right,1328.60000002384,true,NA,NA,NA,NA,NA,NA,NA,NA
pEfC6ERe,3k2cedradeesg9mhvkrgq648pmomto,32ktq2v7rhsbjebxogr1oqzozqtm9d,pEfC6ERe,2020-0188,2021-10-30,13:37:18,14:50:56,NA,incomplete,true,true,NA,NA,0,35,NA,brown,n_s_097.jpg,NA,NA,NA,NA,NA,pleasant,unpleasant,NA,NA,NA,NA,NA,left,1610.69999992847,true,NA,NA,NA,NA,NA,NA,NA,NA
pEfC6ERe,3k2cedradeesg9mhvkrgq648pmomto,32ktq2v7rhsbjebxogr1oqzozqtm9d,pEfC6ERe,2020-0188,2021-10-30,13:37:18,14:50:56,NA,incomplete,true,NA,NA,true,0,0,NA,NA,NA,right,n_l_029.jpg,brown,green,NA,NA,NA,NA,NA,NA,NA,NA,NA,NaN,NA,4212.899999976158,right,1,NA,NA,NA,NA,NA
pEfC6ERe,3k2cedradeesg9mhvkrgq648pmomto,32ktq2v7rhsbjebxogr1oqzozqtm9d,pEfC6ERe,2020-0188,2021-10-30,13:37:18,14:50:56,NA,incomplete,true,NA,NA,true,0,1,NA,NA,NA,right,n_s_058.jpg,purple,gray,NA,NA,NA,NA,NA,NA,NA,NA,NA,NaN,NA,3370.5,right,1,NA,NA,NA,NA,NA
pEfC6ERe,3k2cedradeesg9mhvkrgq648pmomto,32ktq2v7rhsbjebxogr1oqzozqtm9d,pEfC6ERe,2020-0188,2021-10-30,13:37:18,14:50:56,NA,incomplete,true,NA,NA,true,0,2,NA,NA,NA,left,m_s_105.jpg,brown,green,NA,NA,NA,NA,NA,NA,NA,NA,NA,NaN,NA,3248.2000000476837,left,1,NA,NA,NA,NA,NA
pEfC6ERe,3k2cedradeesg9mhvkrgq648pmomto,32ktq2v7rhsbjebxogr1oqzozqtm9d,pEfC6ERe,2020-0188,2021-10-30,13:37:18,14:50:56,NA,incomplete,true,NA,NA,true,0,3,NA,NA,NA,left,n_l_100.jpg,purple,white,NA,NA,NA,NA,NA,NA,NA,NA,NA,NaN,NA,2951.6999999284744,left,1,NA,NA,NA,NA,NA
pEfC6ERe,3k2cedradeesg9mhvkrgq648pmomto,32ktq2v7rhsbjebxogr1oqzozqtm9d,pEfC6ERe,2020-0188,2021-10-30,13:37:18,14:50:56,NA,incomplete,true,NA,NA,true,0,4,NA,NA,NA,left,m_s_023.jpg,purple,white,NA,NA,NA,NA,NA,NA,NA,NA,NA,NaN,NA,4317.799999952316,left,1,NA,NA,NA,NA,NA
pEfC6ERe,3k2cedradeesg9mhvkrgq648pmomto,32ktq2v7rhsbjebxogr1oqzozqtm9d,pEfC6ERe,2020-0188,2021-10-30,13:37:18,14:50:56,NA,incomplete,true,NA,NA,true,0,5,NA,NA,NA,left,n_s_067.jpg,white,purple,NA,NA,NA,NA,NA,NA,NA,NA,NA,NaN,NA,2593.899999976158,left,1,NA,NA,NA,NA,NA
pEfC6ERe,3k2cedradeesg9mhvkrgq648pmomto,32ktq2v7rhsbjebxogr1oqzozqtm9d,pEfC6ERe,2020-0188,2021-10-30,13:37:18,14:50:56,NA,incomplete,true,NA,NA,true,0,6,NA,NA,NA,left,m_l_019.jpg,yellow,white,NA,NA,NA,NA,NA,NA,NA,NA,NA,NaN,NA,5489.700000047684,left,1,NA,NA,NA,NA,NA
pEfC6ERe,3k2cedradeesg9mhvkrgq648pmomto,32ktq2v7rhsbjebxogr1oqzozqtm9d,pEfC6ERe,2020-0188,2021-10-30,13:37:18,14:50:56,NA,incomplete,true,NA,NA,true,0,7,NA,NA,NA,right,n_s_097.jpg,green,brown,NA,NA,NA,NA,NA,NA,NA,NA,NA,NaN,NA,3338.2999999523163,right,1,NA,NA,NA,NA,NA
pEfC6ERe,3k2cedradeesg9mhvkrgq648pmomto,32ktq2v7rhsbjebxogr1oqzozqtm9d,pEfC6ERe,2020-0188,2021-10-30,13:37:18,14:50:56,NA,incomplete,true,NA,NA,true,0,8,NA,NA,NA,right,m_s_044.jpg,white,purple,NA,NA,NA,NA,NA,NA,NA,NA,NA,NaN,NA,4479.399999976158,left,0,NA,NA,NA,NA,NA
pEfC6ERe,3k2cedradeesg9mhvkrgq648pmomto,32ktq2v7rhsbjebxogr1oqzozqtm9d,pEfC6ERe,2020-0188,2021-10-30,13:37:18,14:50:56,NA,incomplete,true,NA,NA,true,0,9,NA,NA,NA,left,n_l_036.jpg,white,purple,NA,NA,NA,NA,NA,NA,NA,NA,NA,NaN,NA,1957.7000000476837,left,1,NA,NA,NA,NA,NA
pEfC6ERe,3k2cedradeesg9mhvkrgq648pmomto,32ktq2v7rhsbjebxogr1oqzozqtm9d,pEfC6ERe,2020-0188,2021-10-30,13:37:18,14:50:56,NA,incomplete,true,NA,NA,true,0,10,NA,NA,NA,right,m_s_073.jpg,purple,gray,NA,NA,NA,NA,NA,NA,NA,NA,NA,NaN,NA,3343.2999999523163,right,1,NA,NA,NA,NA,NA
pEfC6ERe,3k2cedradeesg9mhvkrgq648pmomto,32ktq2v7rhsbjebxogr1oqzozqtm9d,pEfC6ERe,2020-0188,2021-10-30,13:37:18,14:50:56,NA,incomplete,true,NA,NA,true,0,11,NA,NA,NA,right,n_l_109.jpg,green,brown,NA,NA,NA,NA,NA,NA,NA,NA,NA,NaN,NA,3086.399999976158,right,1,NA,NA,NA,NA,NA
pEfC6ERe,3k2cedradeesg9mhvkrgq648pmomto,32ktq2v7rhsbjebxogr1oqzozqtm9d,pEfC6ERe,2020-0188,2021-10-30,13:37:18,14:50:56,NA,incomplete,true,NA,NA,true,0,12,NA,NA,NA,right,m_s_028.jpg,gray,purple,NA,NA,NA,NA,NA,NA,NA,NA,NA,NaN,NA,4554.5,right,1,NA,NA,NA,NA,NA
pEfC6ERe,3k2cedradeesg9mhvkrgq648pmomto,32ktq2v7rhsbjebxogr1oqzozqtm9d,pEfC6ERe,2020-0188,2021-10-30,13:37:18,14:50:56,NA,incomplete,true,NA,NA,true,0,13,NA,NA,NA,right,n_s_045.jpg,white,yellow,NA,NA,NA,NA,NA,NA,NA,NA,NA,NaN,NA,3442.7999999523163,left,0,NA,NA,NA,NA,NA
pEfC6ERe,3k2cedradeesg9mhvkrgq648pmomto,32ktq2v7rhsbjebxogr1oqzozqtm9d,pEfC6ERe,2020-0188,2021-10-30,13:37:18,14:50:56,NA,incomplete,true,NA,NA,true,0,14,NA,NA,NA,left,n_l_007.jpg,green,brown,NA,NA,NA,NA,NA,NA,NA,NA,NA,NaN,NA,5819.299999952316,left,1,NA,NA,NA,NA,NA
pEfC6ERe,3k2cedradeesg9mhvkrgq648pmomto,32ktq2v7rhsbjebxogr1oqzozqtm9d,pEfC6ERe,2020-0188,2021-10-30,13:37:18,14:50:56,NA,incomplete,true,NA,NA,true,0,15,NA,NA,NA,left,m_l_044.jpg,green,brown,NA,NA,NA,NA,NA,NA,NA,NA,NA,NaN,NA,3262.899999976158,right,0,NA,NA,NA,NA,NA
pEfC6ERe,3k2cedradeesg9mhvkrgq648pmomto,32ktq2v7rhsbjebxogr1oqzozqtm9d,pEfC6ERe,2020-0188,2021-10-30,13:37:18,14:50:56,NA,incomplete,true,NA,NA,true,0,16,NA,NA,NA,right,m_l_043.jpg,purple,gray,NA,NA,NA,NA,NA,NA,NA,NA,NA,NaN,NA,1897.8000000715256,right,1,NA,NA,NA,NA,NA
pEfC6ERe,3k2cedradeesg9mhvkrgq648pmomto,32ktq2v7rhsbjebxogr1oqzozqtm9d,pEfC6ERe,2020-0188,2021-10-30,13:37:18,14:50:56,NA,incomplete,true,NA,NA,true,0,17,NA,NA,NA,right,n_l_026.jpg,white,yellow,NA,NA,NA,NA,NA,NA,NA,NA,NA,NaN,NA,4360.799999952316,right,1,NA,NA,NA,NA,NA
pEfC6ERe,3k2cedradeesg9mhvkrgq648pmomto,32ktq2v7rhsbjebxogr1oqzozqtm9d,pEfC6ERe,2020-0188,2021-10-30,13:37:18,14:50:56,NA,incomplete,true,NA,NA,true,0,18,NA,NA,NA,right,m_l_062.jpg,brown,green,NA,NA,NA,NA,NA,NA,NA,NA,NA,NaN,NA,2247.2999999523163,right,1,NA,NA,NA,NA,NA
pEfC6ERe,3k2cedradeesg9mhvkrgq648pmomto,32ktq2v7rhsbjebxogr1oqzozqtm9d,pEfC6ERe,2020-0188,2021-10-30,13:37:18,14:50:56,NA,incomplete,true,NA,NA,true,0,19,NA,NA,NA,left,m_l_100.jpg,white,yellow,NA,NA,NA,NA,NA,NA,NA,NA,NA,NaN,NA,3823.3000000715256,left,1,NA,NA,NA,NA,NA
pEfC6ERe,3k2cedradeesg9mhvkrgq648pmomto,32ktq2v7rhsbjebxogr1oqzozqtm9d,pEfC6ERe,2020-0188,2021-10-30,13:37:18,14:50:56,NA,incomplete,true,NA,NA,true,0,20,NA,NA,NA,right,m_s_113.jpg,yellow,white,NA,NA,NA,NA,NA,NA,NA,NA,NA,NaN,NA,2450.5,left,0,NA,NA,NA,NA,NA
pEfC6ERe,3k2cedradeesg9mhvkrgq648pmomto,32ktq2v7rhsbjebxogr1oqzozqtm9d,pEfC6ERe,2020-0188,2021-10-30,13:37:18,14:50:56,NA,incomplete,true,NA,NA,true,0,21,NA,NA,NA,left,m_s_011.jpg,gray,green,NA,NA,NA,NA,NA,NA,NA,NA,NA,NaN,NA,5246.700000047684,left,1,NA,NA,NA,NA,NA
pEfC6ERe,3k2cedradeesg9mhvkrgq648pmomto,32ktq2v7rhsbjebxogr1oqzozqtm9d,pEfC6ERe,2020-0188,2021-10-30,13:37:18,14:50:56,NA,incomplete,true,NA,true,NA,0,0,NA,NA,NA,left,NA,NA,NA,absent,NA,NA,m_s_044.jpg,purple,m_s_028.jpg,purple,within,NA,NaN,NA,NA,NA,NA,left,3601.2000000476837,1,2,4519.600000023842
pEfC6ERe,3k2cedradeesg9mhvkrgq648pmomto,32ktq2v7rhsbjebxogr1oqzozqtm9d,pEfC6ERe,2020-0188,2021-10-30,13:37:18,14:50:56,NA,incomplete,true,NA,true,NA,0,1,NA,NA,NA,left,NA,NA,NA,absent,NA,NA,m_s_105.jpg,brown,n_s_097.jpg,brown,within,NA,NaN,NA,NA,NA,NA,left,4140.600000023842,1,1,1849.7999999523163
pEfC6ERe,3k2cedradeesg9mhvkrgq648pmomto,32ktq2v7rhsbjebxogr1oqzozqtm9d,pEfC6ERe,2020-0188,2021-10-30,13:37:18,14:50:56,NA,incomplete,true,NA,true,NA,0,2,NA,NA,NA,right,NA,NA,NA,absent,NA,NA,m_l_062.jpg,green,n_l_029.jpg,green,within,NA,NaN,NA,NA,NA,NA,right,5527.200000047684,1,1,1637.5
pEfC6ERe,3k2cedradeesg9mhvkrgq648pmomto,32ktq2v7rhsbjebxogr1oqzozqtm9d,pEfC6ERe,2020-0188,2021-10-30,13:37:18,14:50:56,NA,incomplete,true,NA,true,NA,0,3,NA,NA,NA,right,NA,NA,NA,absent,NA,NA,m_l_043.jpg,gray,m_s_023.jpg,purple,between,NA,NaN,NA,NA,NA,NA,right,4020.2000000476837,1,1,1243.3999999761581
pEfC6ERe,3k2cedradeesg9mhvkrgq648pmomto,32ktq2v7rhsbjebxogr1oqzozqtm9d,pEfC6ERe,2020-0188,2021-10-30,13:37:18,14:50:56,NA,incomplete,true,NA,true,NA,0,4,NA,NA,NA,left,NA,NA,NA,absent,NA,NA,n_l_036.jpg,white,n_l_100.jpg,purple,between,NA,NaN,NA,NA,NA,NA,left,2754.5,1,1,1267.6999999284744
pEfC6ERe,3k2cedradeesg9mhvkrgq648pmomto,32ktq2v7rhsbjebxogr1oqzozqtm9d,pEfC6ERe,2020-0188,2021-10-30,13:37:18,14:50:56,NA,incomplete,true,NA,true,NA,0,5,NA,NA,NA,left,NA,NA,NA,absent,NA,NA,m_l_044.jpg,green,n_l_109.jpg,brown,between,NA,NaN,NA,NA,NA,NA,left,2804.0999999046326,1,1,1870.8999999761581
pEfC6ERe,3k2cedradeesg9mhvkrgq648pmomto,32ktq2v7rhsbjebxogr1oqzozqtm9d,pEfC6ERe,2020-0188,2021-10-30,13:37:18,14:50:56,NA,incomplete,true,NA,true,NA,0,6,NA,NA,NA,right,NA,NA,NA,absent,NA,NA,n_l_007.jpg,green,n_s_058.jpg,gray,between,NA,NaN,NA,NA,NA,NA,left,2783.7000000476837,0,2,1924.6000000238419
pEfC6ERe,3k2cedradeesg9mhvkrgq648pmomto,32ktq2v7rhsbjebxogr1oqzozqtm9d,pEfC6ERe,2020-0188,2021-10-30,13:37:18,14:50:56,NA,incomplete,true,NA,true,NA,0,7,NA,NA,NA,right,NA,NA,NA,absent,NA,NA,m_s_073.jpg,gray,m_s_011.jpg,gray,within,NA,NaN,NA,NA,NA,NA,right,4488.299999952316,1,1,1476.5
pEfC6ERe,3k2cedradeesg9mhvkrgq648pmomto,32ktq2v7rhsbjebxogr1oqzozqtm9d,pEfC6ERe,2020-0188,2021-10-30,13:37:18,14:50:56,NA,incomplete,true,NA,true,NA,0,8,NA,NA,NA,right,NA,NA,NA,absent,NA,NA,n_s_067.jpg,white,m_l_100.jpg,white,within,NA,NaN,NA,NA,NA,NA,left,4100.399999976158,0,1,1154.7999999523163
pEfC6ERe,3k2cedradeesg9mhvkrgq648pmomto,32ktq2v7rhsbjebxogr1oqzozqtm9d,pEfC6ERe,2020-0188,2021-10-30,13:37:18,14:50:56,NA,incomplete,true,NA,true,NA,0,9,NA,NA,NA,left,NA,NA,NA,absent,NA,NA,n_l_026.jpg,yellow,m_l_019.jpg,yellow,within,NA,NaN,NA,NA,NA,NA,left,3227,1,2,1235.2999999523163
pEfC6ERe,3k2cedradeesg9mhvkrgq648pmomto,32ktq2v7rhsbjebxogr1oqzozqtm9d,pEfC6ERe,2020-0188,2021-10-30,13:37:18,14:50:56,NA,incomplete,true,NA,true,NA,0,10,NA,NA,NA,right,NA,NA,NA,absent,NA,NA,m_s_113.jpg,white,n_s_045.jpg,yellow,between,NA,NaN,NA,NA,NA,NA,left,5992.600000023842,0,2,1331.3999999761581
pEfC6ERe,3k2cedradeesg9mhvkrgq648pmomto,32ktq2v7rhsbjebxogr1oqzozqtm9d,pEfC6ERe,2020-0188,2021-10-30,13:37:18,14:50:56,NA,incomplete,false,true,NA,NA,1,0,NA,yellow,m_s_045.jpg,NA,NA,NA,NA,NA,unpleasant,pleasant,NA,NA,NA,NA,NA,left,2215.70000004768,true,NA,NA,NA,NA,NA,NA,NA,NA
pEfC6ERe,3k2cedradeesg9mhvkrgq648pmomto,32ktq2v7rhsbjebxogr1oqzozqtm9d,pEfC6ERe,2020-0188,2021-10-30,13:37:18,14:50:56,NA,incomplete,false,true,NA,NA,1,1,NA,yellow,n_l_097.jpg,NA,NA,NA,NA,NA,unpleasant,pleasant,NA,NA,NA,NA,NA,left,1924,true,NA,NA,NA,NA,NA,NA,NA,NA
pEfC6ERe,3k2cedradeesg9mhvkrgq648pmomto,32ktq2v7rhsbjebxogr1oqzozqtm9d,pEfC6ERe,2020-0188,2021-10-30,13:37:18,14:50:56,NA,incomplete,false,true,NA,NA,1,2,NA,yellow,m_l_081.jpg,NA,NA,NA,NA,NA,unpleasant,pleasant,NA,NA,NA,NA,NA,left,2271.80000007153,true,NA,NA,NA,NA,NA,NA,NA,NA
pEfC6ERe,3k2cedradeesg9mhvkrgq648pmomto,32ktq2v7rhsbjebxogr1oqzozqtm9d,pEfC6ERe,2020-0188,2021-10-30,13:37:18,14:50:56,NA,incomplete,false,true,NA,NA,1,3,NA,yellow,m_l_110.jpg,NA,NA,NA,NA,NA,unpleasant,pleasant,NA,NA,NA,NA,NA,left,1754.79999995232,true,NA,NA,NA,NA,NA,NA,NA,NA
pEfC6ERe,3k2cedradeesg9mhvkrgq648pmomto,32ktq2v7rhsbjebxogr1oqzozqtm9d,pEfC6ERe,2020-0188,2021-10-30,13:37:18,14:50:56,NA,incomplete,false,true,NA,NA,1,4,NA,yellow,n_s_088.jpg,NA,NA,NA,NA,NA,unpleasant,pleasant,NA,NA,NA,NA,NA,left,1562,true,NA,NA,NA,NA,NA,NA,NA,NA
pEfC6ERe,3k2cedradeesg9mhvkrgq648pmomto,32ktq2v7rhsbjebxogr1oqzozqtm9d,pEfC6ERe,2020-0188,2021-10-30,13:37:18,14:50:56,NA,incomplete,false,true,NA,NA,1,5,NA,yellow,m_s_003.jpg,NA,NA,NA,NA,NA,unpleasant,pleasant,NA,NA,NA,NA,NA,left,1484.5,true,NA,NA,NA,NA,NA,NA,NA,NA
pEfC6ERe,3k2cedradeesg9mhvkrgq648pmomto,32ktq2v7rhsbjebxogr1oqzozqtm9d,pEfC6ERe,2020-0188,2021-10-30,13:37:18,14:50:56,NA,incomplete,false,true,NA,NA,1,6,NA,brown,m_l_032.jpg,NA,NA,NA,NA,NA,unpleasant,pleasant,NA,NA,NA,NA,NA,right,1674,true,NA,NA,NA,NA,NA,NA,NA,NA
pEfC6ERe,3k2cedradeesg9mhvkrgq648pmomto,32ktq2v7rhsbjebxogr1oqzozqtm9d,pEfC6ERe,2020-0188,2021-10-30,13:37:18,14:50:56,NA,incomplete,false,true,NA,NA,1,7,NA,brown,m_l_103.jpg,NA,NA,NA,NA,NA,unpleasant,pleasant,NA,NA,NA,NA,NA,right,2167.39999997616,true,NA,NA,NA,NA,NA,NA,NA,NA
pEfC6ERe,3k2cedradeesg9mhvkrgq648pmomto,32ktq2v7rhsbjebxogr1oqzozqtm9d,pEfC6ERe,2020-0188,2021-10-30,13:37:18,14:50:56,NA,incomplete,false,true,NA,NA,1,8,NA,brown,n_s_100.jpg,NA,NA,NA,NA,NA,unpleasant,pleasant,NA,NA,NA,NA,NA,right,1608.30000007153,true,NA,NA,NA,NA,NA,NA,NA,NA
pEfC6ERe,3k2cedradeesg9mhvkrgq648pmomto,32ktq2v7rhsbjebxogr1oqzozqtm9d,pEfC6ERe,2020-0188,2021-10-30,13:37:18,14:50:56,NA,incomplete,false,true,NA,NA,1,9,NA,brown,m_s_114.jpg,NA,NA,NA,NA,NA,unpleasant,pleasant,NA,NA,NA,NA,NA,right,3000.80000007153,true,NA,NA,NA,NA,NA,NA,NA,NA
pEfC6ERe,3k2cedradeesg9mhvkrgq648pmomto,32ktq2v7rhsbjebxogr1oqzozqtm9d,pEfC6ERe,2020-0188,2021-10-30,13:37:18,14:50:56,NA,incomplete,false,true,NA,NA,1,10,NA,brown,m_s_034.jpg,NA,NA,NA,NA,NA,unpleasant,pleasant,NA,NA,NA,NA,NA,right,2102.5,true,NA,NA,NA,NA,NA,NA,NA,NA
pEfC6ERe,3k2cedradeesg9mhvkrgq648pmomto,32ktq2v7rhsbjebxogr1oqzozqtm9d,pEfC6ERe,2020-0188,2021-10-30,13:37:18,14:50:56,NA,incomplete,false,true,NA,NA,1,11,NA,brown,m_l_114.jpg,NA,NA,NA,NA,NA,unpleasant,pleasant,NA,NA,NA,NA,NA,left,1470.70000004768,true,NA,NA,NA,NA,NA,NA,NA,NA
pEfC6ERe,3k2cedradeesg9mhvkrgq648pmomto,32ktq2v7rhsbjebxogr1oqzozqtm9d,pEfC6ERe,2020-0188,2021-10-30,13:37:18,14:50:56,NA,incomplete,false,true,NA,NA,1,12,NA,white,m_s_029.jpg,NA,NA,NA,NA,NA,pleasant,unpleasant,NA,NA,NA,NA,NA,left,1869.80000007153,true,NA,NA,NA,NA,NA,NA,NA,NA
pEfC6ERe,3k2cedradeesg9mhvkrgq648pmomto,32ktq2v7rhsbjebxogr1oqzozqtm9d,pEfC6ERe,2020-0188,2021-10-30,13:37:18,14:50:56,NA,incomplete,false,true,NA,NA,1,13,NA,white,m_s_017.jpg,NA,NA,NA,NA,NA,unpleasant,pleasant,NA,NA,NA,NA,NA,right,1696.70000004768,true,NA,NA,NA,NA,NA,NA,NA,NA
pEfC6ERe,3k2cedradeesg9mhvkrgq648pmomto,32ktq2v7rhsbjebxogr1oqzozqtm9d,pEfC6ERe,2020-0188,2021-10-30,13:37:18,14:50:56,NA,incomplete,false,true,NA,NA,1,14,NA,white,m_l_090.jpg,NA,NA,NA,NA,NA,pleasant,unpleasant,NA,NA,NA,NA,NA,left,2315.70000004768,true,NA,NA,NA,NA,NA,NA,NA,NA
pEfC6ERe,3k2cedradeesg9mhvkrgq648pmomto,32ktq2v7rhsbjebxogr1oqzozqtm9d,pEfC6ERe,2020-0188,2021-10-30,13:37:18,14:50:56,NA,incomplete,false,true,NA,NA,1,15,NA,white,m_s_013.jpg,NA,NA,NA,NA,NA,pleasant,unpleasant,NA,NA,NA,NA,NA,left,1368.79999995232,true,NA,NA,NA,NA,NA,NA,NA,NA
pEfC6ERe,3k2cedradeesg9mhvkrgq648pmomto,32ktq2v7rhsbjebxogr1oqzozqtm9d,pEfC6ERe,2020-0188,2021-10-30,13:37:18,14:50:56,NA,incomplete,false,true,NA,NA,1,16,NA,white,m_s_056.jpg,NA,NA,NA,NA,NA,pleasant,unpleasant,NA,NA,NA,NA,NA,left,1302,true,NA,NA,NA,NA,NA,NA,NA,NA
pEfC6ERe,3k2cedradeesg9mhvkrgq648pmomto,32ktq2v7rhsbjebxogr1oqzozqtm9d,pEfC6ERe,2020-0188,2021-10-30,13:37:18,14:50:56,NA,incomplete,false,true,NA,NA,1,17,NA,white,n_l_067.jpg,NA,NA,NA,NA,NA,unpleasant,pleasant,NA,NA,NA,NA,NA,right,1843.39999997616,true,NA,NA,NA,NA,NA,NA,NA,NA
pEfC6ERe,3k2cedradeesg9mhvkrgq648pmomto,32ktq2v7rhsbjebxogr1oqzozqtm9d,pEfC6ERe,2020-0188,2021-10-30,13:37:18,14:50:56,NA,incomplete,false,true,NA,NA,1,18,NA,purple,n_s_027.jpg,NA,NA,NA,NA,NA,unpleasant,pleasant,NA,NA,NA,NA,NA,left,1769.30000007153,true,NA,NA,NA,NA,NA,NA,NA,NA
pEfC6ERe,3k2cedradeesg9mhvkrgq648pmomto,32ktq2v7rhsbjebxogr1oqzozqtm9d,pEfC6ERe,2020-0188,2021-10-30,13:37:18,14:50:56,NA,incomplete,false,true,NA,NA,1,19,NA,purple,n_s_042.jpg,NA,NA,NA,NA,NA,pleasant,unpleasant,NA,NA,NA,NA,NA,right,3305.5,true,NA,NA,NA,NA,NA,NA,NA,NA
pEfC6ERe,3k2cedradeesg9mhvkrgq648pmomto,32ktq2v7rhsbjebxogr1oqzozqtm9d,pEfC6ERe,2020-0188,2021-10-30,13:37:18,14:50:56,NA,incomplete,false,true,NA,NA,1,20,NA,purple,n_l_043.jpg,NA,NA,NA,NA,NA,pleasant,unpleasant,NA,NA,NA,NA,NA,left,1526.20000004768,true,NA,NA,NA,NA,NA,NA,NA,NA
pEfC6ERe,3k2cedradeesg9mhvkrgq648pmomto,32ktq2v7rhsbjebxogr1oqzozqtm9d,pEfC6ERe,2020-0188,2021-10-30,13:37:18,14:50:56,NA,incomplete,false,true,NA,NA,1,21,NA,purple,m_l_102.jpg,NA,NA,NA,NA,NA,pleasant,unpleasant,NA,NA,NA,NA,NA,right,1986.40000009537,true,NA,NA,NA,NA,NA,NA,NA,NA
pEfC6ERe,3k2cedradeesg9mhvkrgq648pmomto,32ktq2v7rhsbjebxogr1oqzozqtm9d,pEfC6ERe,2020-0188,2021-10-30,13:37:18,14:50:56,NA,incomplete,false,true,NA,NA,1,22,NA,purple,n_l_059.jpg,NA,NA,NA,NA,NA,pleasant,unpleasant,NA,NA,NA,NA,NA,right,1637.40000009537,true,NA,NA,NA,NA,NA,NA,NA,NA
pEfC6ERe,3k2cedradeesg9mhvkrgq648pmomto,32ktq2v7rhsbjebxogr1oqzozqtm9d,pEfC6ERe,2020-0188,2021-10-30,13:37:18,14:50:56,NA,incomplete,false,true,NA,NA,1,23,NA,purple,n_l_028.jpg,NA,NA,NA,NA,NA,pleasant,unpleasant,NA,NA,NA,NA,NA,left,1804.89999997616,true,NA,NA,NA,NA,NA,NA,NA,NA
pEfC6ERe,3k2cedradeesg9mhvkrgq648pmomto,32ktq2v7rhsbjebxogr1oqzozqtm9d,pEfC6ERe,2020-0188,2021-10-30,13:37:18,14:50:56,NA,incomplete,false,true,NA,NA,1,24,NA,orange,m_s_062.jpg,NA,NA,NA,NA,NA,unpleasant,pleasant,NA,NA,NA,NA,NA,right,2404.60000002384,true,NA,NA,NA,NA,NA,NA,NA,NA
pEfC6ERe,3k2cedradeesg9mhvkrgq648pmomto,32ktq2v7rhsbjebxogr1oqzozqtm9d,pEfC6ERe,2020-0188,2021-10-30,13:37:18,14:50:56,NA,incomplete,false,true,NA,NA,1,25,NA,orange,n_l_013.jpg,NA,NA,NA,NA,NA,unpleasant,pleasant,NA,NA,NA,NA,NA,right,1477.29999995232,true,NA,NA,NA,NA,NA,NA,NA,NA
pEfC6ERe,3k2cedradeesg9mhvkrgq648pmomto,32ktq2v7rhsbjebxogr1oqzozqtm9d,pEfC6ERe,2020-0188,2021-10-30,13:37:18,14:50:56,NA,incomplete,false,true,NA,NA,1,26,NA,orange,n_s_112.jpg,NA,NA,NA,NA,NA,pleasant,unpleasant,NA,NA,NA,NA,NA,right,1718.30000007153,true,NA,NA,NA,NA,NA,NA,NA,NA
pEfC6ERe,3k2cedradeesg9mhvkrgq648pmomto,32ktq2v7rhsbjebxogr1oqzozqtm9d,pEfC6ERe,2020-0188,2021-10-30,13:37:18,14:50:56,NA,incomplete,false,true,NA,NA,1,27,NA,orange,m_s_080.jpg,NA,NA,NA,NA,NA,unpleasant,pleasant,NA,NA,NA,NA,NA,left,1569.39999997616,true,NA,NA,NA,NA,NA,NA,NA,NA
pEfC6ERe,3k2cedradeesg9mhvkrgq648pmomto,32ktq2v7rhsbjebxogr1oqzozqtm9d,pEfC6ERe,2020-0188,2021-10-30,13:37:18,14:50:56,NA,incomplete,false,true,NA,NA,1,28,NA,orange,m_l_027.jpg,NA,NA,NA,NA,NA,pleasant,unpleasant,NA,NA,NA,NA,NA,right,1614.69999992847,true,NA,NA,NA,NA,NA,NA,NA,NA
pEfC6ERe,3k2cedradeesg9mhvkrgq648pmomto,32ktq2v7rhsbjebxogr1oqzozqtm9d,pEfC6ERe,2020-0188,2021-10-30,13:37:18,14:50:56,NA,incomplete,false,true,NA,NA,1,29,NA,orange,n_s_030.jpg,NA,NA,NA,NA,NA,pleasant,unpleasant,NA,NA,NA,NA,NA,left,1502.19999992847,true,NA,NA,NA,NA,NA,NA,NA,NA
pEfC6ERe,3k2cedradeesg9mhvkrgq648pmomto,32ktq2v7rhsbjebxogr1oqzozqtm9d,pEfC6ERe,2020-0188,2021-10-30,13:37:18,14:50:56,NA,incomplete,false,true,NA,NA,1,30,NA,blue,m_s_053.jpg,NA,NA,NA,NA,NA,pleasant,unpleasant,NA,NA,NA,NA,NA,left,2019,true,NA,NA,NA,NA,NA,NA,NA,NA
pEfC6ERe,3k2cedradeesg9mhvkrgq648pmomto,32ktq2v7rhsbjebxogr1oqzozqtm9d,pEfC6ERe,2020-0188,2021-10-30,13:37:18,14:50:56,NA,incomplete,false,true,NA,NA,1,31,NA,blue,n_l_069.jpg,NA,NA,NA,NA,NA,pleasant,unpleasant,NA,NA,NA,NA,NA,left,1243.5,true,NA,NA,NA,NA,NA,NA,NA,NA
pEfC6ERe,3k2cedradeesg9mhvkrgq648pmomto,32ktq2v7rhsbjebxogr1oqzozqtm9d,pEfC6ERe,2020-0188,2021-10-30,13:37:18,14:50:56,NA,incomplete,false,true,NA,NA,1,32,NA,blue,m_s_086.jpg,NA,NA,NA,NA,NA,pleasant,unpleasant,NA,NA,NA,NA,NA,right,1490.69999992847,true,NA,NA,NA,NA,NA,NA,NA,NA
pEfC6ERe,3k2cedradeesg9mhvkrgq648pmomto,32ktq2v7rhsbjebxogr1oqzozqtm9d,pEfC6ERe,2020-0188,2021-10-30,13:37:18,14:50:56,NA,incomplete,false,true,NA,NA,1,33,NA,blue,m_s_022.jpg,NA,NA,NA,NA,NA,unpleasant,pleasant,NA,NA,NA,NA,NA,left,1467.20000004768,true,NA,NA,NA,NA,NA,NA,NA,NA
pEfC6ERe,3k2cedradeesg9mhvkrgq648pmomto,32ktq2v7rhsbjebxogr1oqzozqtm9d,pEfC6ERe,2020-0188,2021-10-30,13:37:18,14:50:56,NA,incomplete,false,true,NA,NA,1,34,NA,blue,n_l_032.jpg,NA,NA,NA,NA,NA,pleasant,unpleasant,NA,NA,NA,NA,NA,right,2108.10000002384,true,NA,NA,NA,NA,NA,NA,NA,NA
pEfC6ERe,3k2cedradeesg9mhvkrgq648pmomto,32ktq2v7rhsbjebxogr1oqzozqtm9d,pEfC6ERe,2020-0188,2021-10-30,13:37:18,14:50:56,NA,incomplete,false,true,NA,NA,1,35,NA,blue,n_s_075.jpg,NA,NA,NA,NA,NA,pleasant,unpleasant,NA,NA,NA,NA,NA,left,1885.59999990463,true,NA,NA,NA,NA,NA,NA,NA,NA
pEfC6ERe,3k2cedradeesg9mhvkrgq648pmomto,32ktq2v7rhsbjebxogr1oqzozqtm9d,pEfC6ERe,2020-0188,2021-10-30,13:37:18,14:50:56,NA,incomplete,false,NA,NA,true,1,0,NA,NA,NA,left,n_s_112.jpg,orange,blue,NA,NA,NA,NA,NA,NA,NA,NA,NA,NaN,NA,3334.2999999523163,left,1,NA,NA,NA,NA,NA
pEfC6ERe,3k2cedradeesg9mhvkrgq648pmomto,32ktq2v7rhsbjebxogr1oqzozqtm9d,pEfC6ERe,2020-0188,2021-10-30,13:37:18,14:50:56,NA,incomplete,false,NA,NA,true,1,1,NA,NA,NA,left,n_s_075.jpg,blue,orange,NA,NA,NA,NA,NA,NA,NA,NA,NA,NaN,NA,2739.2999999523163,left,1,NA,NA,NA,NA,NA
pEfC6ERe,3k2cedradeesg9mhvkrgq648pmomto,32ktq2v7rhsbjebxogr1oqzozqtm9d,pEfC6ERe,2020-0188,2021-10-30,13:37:18,14:50:56,NA,incomplete,false,NA,NA,true,1,2,NA,NA,NA,right,n_l_069.jpg,orange,blue,NA,NA,NA,NA,NA,NA,NA,NA,NA,NaN,NA,2811.100000023842,right,1,NA,NA,NA,NA,NA
pEfC6ERe,3k2cedradeesg9mhvkrgq648pmomto,32ktq2v7rhsbjebxogr1oqzozqtm9d,pEfC6ERe,2020-0188,2021-10-30,13:37:18,14:50:56,NA,incomplete,false,NA,NA,true,1,3,NA,NA,NA,right,n_l_013.jpg,purple,orange,NA,NA,NA,NA,NA,NA,NA,NA,NA,NaN,NA,8610.5,left,0,NA,NA,NA,NA,NA
pEfC6ERe,3k2cedradeesg9mhvkrgq648pmomto,32ktq2v7rhsbjebxogr1oqzozqtm9d,pEfC6ERe,2020-0188,2021-10-30,13:37:18,14:50:56,NA,incomplete,false,NA,NA,true,1,4,NA,NA,NA,left,n_s_088.jpg,yellow,brown,NA,NA,NA,NA,NA,NA,NA,NA,NA,NaN,NA,2366.1999999284744,right,0,NA,NA,NA,NA,NA
pEfC6ERe,3k2cedradeesg9mhvkrgq648pmomto,32ktq2v7rhsbjebxogr1oqzozqtm9d,pEfC6ERe,2020-0188,2021-10-30,13:37:18,14:50:56,NA,incomplete,false,NA,NA,true,1,5,NA,NA,NA,left,m_s_003.jpg,yellow,brown,NA,NA,NA,NA,NA,NA,NA,NA,NA,NaN,NA,4325.299999952316,left,1,NA,NA,NA,NA,NA
pEfC6ERe,3k2cedradeesg9mhvkrgq648pmomto,32ktq2v7rhsbjebxogr1oqzozqtm9d,pEfC6ERe,2020-0188,2021-10-30,13:37:18,14:50:56,NA,incomplete,false,NA,NA,true,1,6,NA,NA,NA,left,m_l_114.jpg,brown,yellow,NA,NA,NA,NA,NA,NA,NA,NA,NA,NaN,NA,3299.9000000953674,right,0,NA,NA,NA,NA,NA
pEfC6ERe,3k2cedradeesg9mhvkrgq648pmomto,32ktq2v7rhsbjebxogr1oqzozqtm9d,pEfC6ERe,2020-0188,2021-10-30,13:37:18,14:50:56,NA,incomplete,false,NA,NA,true,1,7,NA,NA,NA,right,n_l_028.jpg,orange,purple,NA,NA,NA,NA,NA,NA,NA,NA,NA,NaN,NA,2827.2999999523163,left,0,NA,NA,NA,NA,NA
pEfC6ERe,3k2cedradeesg9mhvkrgq648pmomto,32ktq2v7rhsbjebxogr1oqzozqtm9d,pEfC6ERe,2020-0188,2021-10-30,13:37:18,14:50:56,NA,incomplete,false,NA,NA,true,1,8,NA,NA,NA,left,m_s_017.jpg,white,purple,NA,NA,NA,NA,NA,NA,NA,NA,NA,NaN,NA,2477.2999999523163,left,1,NA,NA,NA,NA,NA
pEfC6ERe,3k2cedradeesg9mhvkrgq648pmomto,32ktq2v7rhsbjebxogr1oqzozqtm9d,pEfC6ERe,2020-0188,2021-10-30,13:37:18,14:50:56,NA,incomplete,false,NA,NA,true,1,9,NA,NA,NA,right,m_s_034.jpg,yellow,brown,NA,NA,NA,NA,NA,NA,NA,NA,NA,NaN,NA,4165.5,right,1,NA,NA,NA,NA,NA
pEfC6ERe,3k2cedradeesg9mhvkrgq648pmomto,32ktq2v7rhsbjebxogr1oqzozqtm9d,pEfC6ERe,2020-0188,2021-10-30,13:37:18,14:50:56,NA,incomplete,false,NA,NA,true,1,10,NA,NA,NA,left,m_s_086.jpg,blue,orange,NA,NA,NA,NA,NA,NA,NA,NA,NA,NaN,NA,2106.899999976158,left,1,NA,NA,NA,NA,NA
pEfC6ERe,3k2cedradeesg9mhvkrgq648pmomto,32ktq2v7rhsbjebxogr1oqzozqtm9d,pEfC6ERe,2020-0188,2021-10-30,13:37:18,14:50:56,NA,incomplete,false,NA,NA,true,1,11,NA,NA,NA,right,m_s_056.jpg,brown,white,NA,NA,NA,NA,NA,NA,NA,NA,NA,NaN,NA,1943.3999999761581,right,1,NA,NA,NA,NA,NA
pEfC6ERe,3k2cedradeesg9mhvkrgq648pmomto,32ktq2v7rhsbjebxogr1oqzozqtm9d,pEfC6ERe,2020-0188,2021-10-30,13:37:18,14:50:56,NA,incomplete,false,NA,NA,true,1,12,NA,NA,NA,left,m_l_027.jpg,orange,blue,NA,NA,NA,NA,NA,NA,NA,NA,NA,NaN,NA,6254.199999928474,left,1,NA,NA,NA,NA,NA
pEfC6ERe,3k2cedradeesg9mhvkrgq648pmomto,32ktq2v7rhsbjebxogr1oqzozqtm9d,pEfC6ERe,2020-0188,2021-10-30,13:37:18,14:50:56,NA,incomplete,false,NA,NA,true,1,13,NA,NA,NA,left,m_l_090.jpg,white,purple,NA,NA,NA,NA,NA,NA,NA,NA,NA,NaN,NA,2659.5,left,1,NA,NA,NA,NA,NA
pEfC6ERe,3k2cedradeesg9mhvkrgq648pmomto,32ktq2v7rhsbjebxogr1oqzozqtm9d,pEfC6ERe,2020-0188,2021-10-30,13:37:18,14:50:56,NA,incomplete,false,NA,NA,true,1,14,NA,NA,NA,left,n_s_042.jpg,purple,orange,NA,NA,NA,NA,NA,NA,NA,NA,NA,NaN,NA,2897.2000000476837,left,1,NA,NA,NA,NA,NA
pEfC6ERe,3k2cedradeesg9mhvkrgq648pmomto,32ktq2v7rhsbjebxogr1oqzozqtm9d,pEfC6ERe,2020-0188,2021-10-30,13:37:18,14:50:56,NA,incomplete,false,NA,NA,true,1,15,NA,NA,NA,left,n_s_030.jpg,orange,purple,NA,NA,NA,NA,NA,NA,NA,NA,NA,NaN,NA,2513.600000023842,left,1,NA,NA,NA,NA,NA
pEfC6ERe,3k2cedradeesg9mhvkrgq648pmomto,32ktq2v7rhsbjebxogr1oqzozqtm9d,pEfC6ERe,2020-0188,2021-10-30,13:37:18,14:50:56,NA,incomplete,false,NA,NA,true,1,16,NA,NA,NA,right,n_l_059.jpg,orange,purple,NA,NA,NA,NA,NA,NA,NA,NA,NA,NaN,NA,3591.6999999284744,left,0,NA,NA,NA,NA,NA
pEfC6ERe,3k2cedradeesg9mhvkrgq648pmomto,32ktq2v7rhsbjebxogr1oqzozqtm9d,pEfC6ERe,2020-0188,2021-10-30,13:37:18,14:50:56,NA,incomplete,false,NA,NA,true,1,17,NA,NA,NA,left,n_l_043.jpg,purple,orange,NA,NA,NA,NA,NA,NA,NA,NA,NA,NaN,NA,3816.7999999523163,left,1,NA,NA,NA,NA,NA
pEfC6ERe,3k2cedradeesg9mhvkrgq648pmomto,32ktq2v7rhsbjebxogr1oqzozqtm9d,pEfC6ERe,2020-0188,2021-10-30,13:37:18,14:50:56,NA,incomplete,false,NA,NA,true,1,18,NA,NA,NA,right,n_l_097.jpg,brown,yellow,NA,NA,NA,NA,NA,NA,NA,NA,NA,NaN,NA,2340.100000023842,right,1,NA,NA,NA,NA,NA
pEfC6ERe,3k2cedradeesg9mhvkrgq648pmomto,32ktq2v7rhsbjebxogr1oqzozqtm9d,pEfC6ERe,2020-0188,2021-10-30,13:37:18,14:50:56,NA,incomplete,false,NA,NA,true,1,19,NA,NA,NA,right,m_l_103.jpg,white,brown,NA,NA,NA,NA,NA,NA,NA,NA,NA,NaN,NA,2314.399999976158,left,0,NA,NA,NA,NA,NA
pEfC6ERe,3k2cedradeesg9mhvkrgq648pmomto,32ktq2v7rhsbjebxogr1oqzozqtm9d,pEfC6ERe,2020-0188,2021-10-30,13:37:18,14:50:56,NA,incomplete,false,NA,NA,true,1,20,NA,NA,NA,right,n_s_100.jpg,white,brown,NA,NA,NA,NA,NA,NA,NA,NA,NA,NaN,NA,2814.399999976158,right,1,NA,NA,NA,NA,NA
pEfC6ERe,3k2cedradeesg9mhvkrgq648pmomto,32ktq2v7rhsbjebxogr1oqzozqtm9d,pEfC6ERe,2020-0188,2021-10-30,13:37:18,14:50:56,NA,incomplete,false,NA,NA,true,1,21,NA,NA,NA,left,n_l_067.jpg,white,brown,NA,NA,NA,NA,NA,NA,NA,NA,NA,NaN,NA,4083.1999999284744,right,0,NA,NA,NA,NA,NA
pEfC6ERe,3k2cedradeesg9mhvkrgq648pmomto,32ktq2v7rhsbjebxogr1oqzozqtm9d,pEfC6ERe,2020-0188,2021-10-30,13:37:18,14:50:56,NA,incomplete,false,NA,true,NA,1,0,NA,NA,NA,right,NA,NA,NA,absent,NA,NA,n_s_100.jpg,brown,n_s_088.jpg,yellow,between,NA,NaN,NA,NA,NA,NA,left,3447,0,1,3670.3000000715256
pEfC6ERe,3k2cedradeesg9mhvkrgq648pmomto,32ktq2v7rhsbjebxogr1oqzozqtm9d,pEfC6ERe,2020-0188,2021-10-30,13:37:18,14:50:56,NA,incomplete,false,NA,true,NA,1,1,NA,NA,NA,right,NA,NA,NA,absent,NA,NA,m_s_003.jpg,yellow,n_l_097.jpg,yellow,within,NA,NaN,NA,NA,NA,NA,right,3467.2999999523163,1,1,1466.6000000238419
pEfC6ERe,3k2cedradeesg9mhvkrgq648pmomto,32ktq2v7rhsbjebxogr1oqzozqtm9d,pEfC6ERe,2020-0188,2021-10-30,13:37:18,14:50:56,NA,incomplete,false,NA,true,NA,1,2,NA,NA,NA,left,NA,NA,NA,absent,NA,NA,m_s_056.jpg,white,n_l_043.jpg,purple,between,NA,NaN,NA,NA,NA,NA,left,3106.2999999523163,1,2,1731.5999999046326
pEfC6ERe,3k2cedradeesg9mhvkrgq648pmomto,32ktq2v7rhsbjebxogr1oqzozqtm9d,pEfC6ERe,2020-0188,2021-10-30,13:37:18,14:50:56,NA,incomplete,false,NA,true,NA,1,3,NA,NA,NA,left,NA,NA,NA,absent,NA,NA,m_s_017.jpg,white,n_l_067.jpg,white,within,NA,NaN,NA,NA,NA,NA,left,3650.3000000715256,1,2,2138.2000000476837
pEfC6ERe,3k2cedradeesg9mhvkrgq648pmomto,32ktq2v7rhsbjebxogr1oqzozqtm9d,pEfC6ERe,2020-0188,2021-10-30,13:37:18,14:50:56,NA,incomplete,false,NA,true,NA,1,4,NA,NA,NA,left,NA,NA,NA,absent,NA,NA,m_l_103.jpg,brown,m_l_114.jpg,brown,within,NA,NaN,NA,NA,NA,NA,left,4354.899999976158,1,1,1281.5
pEfC6ERe,3k2cedradeesg9mhvkrgq648pmomto,32ktq2v7rhsbjebxogr1oqzozqtm9d,pEfC6ERe,2020-0188,2021-10-30,13:37:18,14:50:56,NA,incomplete,false,NA,true,NA,1,5,NA,NA,NA,right,NA,NA,NA,absent,NA,NA,m_s_086.jpg,blue,m_l_027.jpg,orange,between,NA,NaN,NA,NA,NA,NA,right,3935.1999999284744,1,1,1503.6999999284744
pEfC6ERe,3k2cedradeesg9mhvkrgq648pmomto,32ktq2v7rhsbjebxogr1oqzozqtm9d,pEfC6ERe,2020-0188,2021-10-30,13:37:18,14:50:56,NA,incomplete,false,NA,true,NA,1,6,NA,NA,NA,left,NA,NA,NA,absent,NA,NA,m_s_034.jpg,brown,m_l_090.jpg,white,between,NA,NaN,NA,NA,NA,NA,right,3774.600000023842,0,1,1209.7999999523163
pEfC6ERe,3k2cedradeesg9mhvkrgq648pmomto,32ktq2v7rhsbjebxogr1oqzozqtm9d,pEfC6ERe,2020-0188,2021-10-30,13:37:18,14:50:56,NA,incomplete,false,NA,true,NA,1,7,NA,NA,NA,right,NA,NA,NA,absent,NA,NA,n_s_075.jpg,blue,n_l_069.jpg,blue,within,NA,NaN,NA,NA,NA,NA,right,4777.600000023842,1,1,1269.5
pEfC6ERe,3k2cedradeesg9mhvkrgq648pmomto,32ktq2v7rhsbjebxogr1oqzozqtm9d,pEfC6ERe,2020-0188,2021-10-30,13:37:18,14:50:56,NA,incomplete,false,NA,true,NA,1,8,NA,NA,NA,left,NA,NA,NA,absent,NA,NA,n_s_042.jpg,purple,n_l_028.jpg,purple,within,NA,NaN,NA,NA,NA,NA,left,3101.399999976158,1,1,1384.8999999761581
pEfC6ERe,3k2cedradeesg9mhvkrgq648pmomto,32ktq2v7rhsbjebxogr1oqzozqtm9d,pEfC6ERe,2020-0188,2021-10-30,13:37:18,14:50:56,NA,incomplete,false,NA,true,NA,1,9,NA,NA,NA,right,NA,NA,NA,absent,NA,NA,n_s_112.jpg,orange,n_l_059.jpg,purple,between,NA,NaN,NA,NA,NA,NA,left,3733.2999999523163,0,2,1650.2999999523163
pEfC6ERe,3k2cedradeesg9mhvkrgq648pmomto,32ktq2v7rhsbjebxogr1oqzozqtm9d,pEfC6ERe,2020-0188,2021-10-30,13:37:18,14:50:56,NA,incomplete,false,NA,true,NA,1,10,NA,NA,NA,right,NA,NA,NA,absent,NA,NA,n_s_030.jpg,orange,n_l_013.jpg,orange,within,NA,NaN,NA,NA,NA,NA,right,3700.899999976158,1,2,1633
pEfC6ERe,3k2cedradeesg9mhvkrgq648pmomto,32ktq2v7rhsbjebxogr1oqzozqtm9d,pEfC6ERe,2020-0188,2021-10-30,13:37:18,14:50:56,NA,incomplete,false,true,NA,NA,2,0,NA,orange,n_s_013.jpg,NA,NA,NA,NA,NA,unpleasant,pleasant,NA,NA,NA,NA,NA,right,3052.59999990463,true,NA,NA,NA,NA,NA,NA,NA,NA
pEfC6ERe,3k2cedradeesg9mhvkrgq648pmomto,32ktq2v7rhsbjebxogr1oqzozqtm9d,pEfC6ERe,2020-0188,2021-10-30,13:37:18,14:50:56,NA,incomplete,false,true,NA,NA,2,1,NA,orange,n_l_037.jpg,NA,NA,NA,NA,NA,unpleasant,pleasant,NA,NA,NA,NA,NA,left,1941.10000002384,true,NA,NA,NA,NA,NA,NA,NA,NA
pEfC6ERe,3k2cedradeesg9mhvkrgq648pmomto,32ktq2v7rhsbjebxogr1oqzozqtm9d,pEfC6ERe,2020-0188,2021-10-30,13:37:18,14:50:56,NA,incomplete,false,true,NA,NA,2,2,NA,orange,m_s_093.jpg,NA,NA,NA,NA,NA,unpleasant,pleasant,NA,NA,NA,NA,NA,right,2346.89999997616,true,NA,NA,NA,NA,NA,NA,NA,NA
pEfC6ERe,3k2cedradeesg9mhvkrgq648pmomto,32ktq2v7rhsbjebxogr1oqzozqtm9d,pEfC6ERe,2020-0188,2021-10-30,13:37:18,14:50:56,NA,incomplete,false,true,NA,NA,2,3,NA,orange,m_l_089.jpg,NA,NA,NA,NA,NA,pleasant,unpleasant,NA,NA,NA,NA,NA,left,2321.5,true,NA,NA,NA,NA,NA,NA,NA,NA
pEfC6ERe,3k2cedradeesg9mhvkrgq648pmomto,32ktq2v7rhsbjebxogr1oqzozqtm9d,pEfC6ERe,2020-0188,2021-10-30,13:37:18,14:50:56,NA,incomplete,false,true,NA,NA,2,4,NA,orange,n_l_055.jpg,NA,NA,NA,NA,NA,unpleasant,pleasant,NA,NA,NA,NA,NA,right,1545.70000004768,true,NA,NA,NA,NA,NA,NA,NA,NA
pEfC6ERe,3k2cedradeesg9mhvkrgq648pmomto,32ktq2v7rhsbjebxogr1oqzozqtm9d,pEfC6ERe,2020-0188,2021-10-30,13:37:18,14:50:56,NA,incomplete,false,true,NA,NA,2,5,NA,orange,n_l_054.jpg,NA,NA,NA,NA,NA,unpleasant,pleasant,NA,NA,NA,NA,NA,right,1860,true,NA,NA,NA,NA,NA,NA,NA,NA
pEfC6ERe,3k2cedradeesg9mhvkrgq648pmomto,32ktq2v7rhsbjebxogr1oqzozqtm9d,pEfC6ERe,2020-0188,2021-10-30,13:37:18,14:50:56,NA,incomplete,false,true,NA,NA,2,6,NA,purple,m_l_028.jpg,NA,NA,NA,NA,NA,unpleasant,pleasant,NA,NA,NA,NA,NA,right,2211.19999992847,true,NA,NA,NA,NA,NA,NA,NA,NA
pEfC6ERe,3k2cedradeesg9mhvkrgq648pmomto,32ktq2v7rhsbjebxogr1oqzozqtm9d,pEfC6ERe,2020-0188,2021-10-30,13:37:18,14:50:56,NA,incomplete,false,true,NA,NA,2,7,NA,purple,n_s_091.jpg,NA,NA,NA,NA,NA,pleasant,unpleasant,NA,NA,NA,NA,NA,right,1555,true,NA,NA,NA,NA,NA,NA,NA,NA
pEfC6ERe,3k2cedradeesg9mhvkrgq648pmomto,32ktq2v7rhsbjebxogr1oqzozqtm9d,pEfC6ERe,2020-0188,2021-10-30,13:37:18,14:50:56,NA,incomplete,false,true,NA,NA,2,8,NA,purple,m_s_082.jpg,NA,NA,NA,NA,NA,unpleasant,pleasant,NA,NA,NA,NA,NA,left,1972.10000002384,true,NA,NA,NA,NA,NA,NA,NA,NA
pEfC6ERe,3k2cedradeesg9mhvkrgq648pmomto,32ktq2v7rhsbjebxogr1oqzozqtm9d,pEfC6ERe,2020-0188,2021-10-30,13:37:18,14:50:56,NA,incomplete,false,true,NA,NA,2,9,NA,purple,m_l_082.jpg,NA,NA,NA,NA,NA,unpleasant,pleasant,NA,NA,NA,NA,NA,left,1949.89999997616,true,NA,NA,NA,NA,NA,NA,NA,NA
pEfC6ERe,3k2cedradeesg9mhvkrgq648pmomto,32ktq2v7rhsbjebxogr1oqzozqtm9d,pEfC6ERe,2020-0188,2021-10-30,13:37:18,14:50:56,NA,incomplete,false,true,NA,NA,2,10,NA,purple,m_s_058.jpg,NA,NA,NA,NA,NA,pleasant,unpleasant,NA,NA,NA,NA,NA,left,2323.10000002384,true,NA,NA,NA,NA,NA,NA,NA,NA
pEfC6ERe,3k2cedradeesg9mhvkrgq648pmomto,32ktq2v7rhsbjebxogr1oqzozqtm9d,pEfC6ERe,2020-0188,2021-10-30,13:37:18,14:50:56,NA,incomplete,false,true,NA,NA,2,11,NA,purple,n_l_017.jpg,NA,NA,NA,NA,NA,unpleasant,pleasant,NA,NA,NA,NA,NA,right,1792.20000004768,true,NA,NA,NA,NA,NA,NA,NA,NA
pEfC6ERe,3k2cedradeesg9mhvkrgq648pmomto,32ktq2v7rhsbjebxogr1oqzozqtm9d,pEfC6ERe,2020-0188,2021-10-30,13:37:18,14:50:56,NA,incomplete,false,true,NA,NA,2,12,NA,white,m_l_056.jpg,NA,NA,NA,NA,NA,pleasant,unpleasant,NA,NA,NA,NA,NA,left,1990.69999992847,true,NA,NA,NA,NA,NA,NA,NA,NA
pEfC6ERe,3k2cedradeesg9mhvkrgq648pmomto,32ktq2v7rhsbjebxogr1oqzozqtm9d,pEfC6ERe,2020-0188,2021-10-30,13:37:18,14:50:56,NA,incomplete,false,true,NA,NA,2,13,NA,white,n_s_072.jpg,NA,NA,NA,NA,NA,unpleasant,pleasant,NA,NA,NA,NA,NA,right,1892.10000002384,true,NA,NA,NA,NA,NA,NA,NA,NA
pEfC6ERe,3k2cedradeesg9mhvkrgq648pmomto,32ktq2v7rhsbjebxogr1oqzozqtm9d,pEfC6ERe,2020-0188,2021-10-30,13:37:18,14:50:56,NA,incomplete,false,true,NA,NA,2,14,NA,white,m_s_088.jpg,NA,NA,NA,NA,NA,pleasant,unpleasant,NA,NA,NA,NA,NA,left,1894.79999995232,true,NA,NA,NA,NA,NA,NA,NA,NA
pEfC6ERe,3k2cedradeesg9mhvkrgq648pmomto,32ktq2v7rhsbjebxogr1oqzozqtm9d,pEfC6ERe,2020-0188,2021-10-30,13:37:18,14:50:56,NA,incomplete,false,true,NA,NA,2,15,NA,white,n_l_016.jpg,NA,NA,NA,NA,NA,unpleasant,pleasant,NA,NA,NA,NA,NA,right,1454,true,NA,NA,NA,NA,NA,NA,NA,NA
pEfC6ERe,3k2cedradeesg9mhvkrgq648pmomto,32ktq2v7rhsbjebxogr1oqzozqtm9d,pEfC6ERe,2020-0188,2021-10-30,13:37:18,14:50:56,NA,incomplete,false,true,NA,NA,2,16,NA,white,m_l_065.jpg,NA,NA,NA,NA,NA,pleasant,unpleasant,NA,NA,NA,NA,NA,left,1508.10000002384,true,NA,NA,NA,NA,NA,NA,NA,NA
pEfC6ERe,3k2cedradeesg9mhvkrgq648pmomto,32ktq2v7rhsbjebxogr1oqzozqtm9d,pEfC6ERe,2020-0188,2021-10-30,13:37:18,14:50:56,NA,incomplete,false,true,NA,NA,2,17,NA,white,n_s_066.jpg,NA,NA,NA,NA,NA,pleasant,unpleasant,NA,NA,NA,NA,NA,left,1623.59999990463,true,NA,NA,NA,NA,NA,NA,NA,NA
pEfC6ERe,3k2cedradeesg9mhvkrgq648pmomto,32ktq2v7rhsbjebxogr1oqzozqtm9d,pEfC6ERe,2020-0188,2021-10-30,13:37:18,14:50:56,NA,incomplete,false,true,NA,NA,2,18,NA,blue,m_l_070.jpg,NA,NA,NA,NA,NA,unpleasant,pleasant,NA,NA,NA,NA,NA,left,2286.30000007153,true,NA,NA,NA,NA,NA,NA,NA,NA
pEfC6ERe,3k2cedradeesg9mhvkrgq648pmomto,32ktq2v7rhsbjebxogr1oqzozqtm9d,pEfC6ERe,2020-0188,2021-10-30,13:37:18,14:50:56,NA,incomplete,false,true,NA,NA,2,19,NA,blue,n_s_086.jpg,NA,NA,NA,NA,NA,pleasant,unpleasant,NA,NA,NA,NA,NA,left,1868.40000009537,true,NA,NA,NA,NA,NA,NA,NA,NA
pEfC6ERe,3k2cedradeesg9mhvkrgq648pmomto,32ktq2v7rhsbjebxogr1oqzozqtm9d,pEfC6ERe,2020-0188,2021-10-30,13:37:18,14:50:56,NA,incomplete,false,true,NA,NA,2,20,NA,blue,m_l_098.jpg,NA,NA,NA,NA,NA,unpleasant,pleasant,NA,NA,NA,NA,NA,right,1777.39999997616,true,NA,NA,NA,NA,NA,NA,NA,NA
pEfC6ERe,3k2cedradeesg9mhvkrgq648pmomto,32ktq2v7rhsbjebxogr1oqzozqtm9d,pEfC6ERe,2020-0188,2021-10-30,13:37:18,14:50:56,NA,incomplete,false,true,NA,NA,2,21,NA,blue,m_s_043.jpg,NA,NA,NA,NA,NA,pleasant,unpleasant,NA,NA,NA,NA,NA,right,1464.29999995232,true,NA,NA,NA,NA,NA,NA,NA,NA
pEfC6ERe,3k2cedradeesg9mhvkrgq648pmomto,32ktq2v7rhsbjebxogr1oqzozqtm9d,pEfC6ERe,2020-0188,2021-10-30,13:37:18,14:50:56,NA,incomplete,false,true,NA,NA,2,22,NA,blue,m_s_109.jpg,NA,NA,NA,NA,NA,pleasant,unpleasant,NA,NA,NA,NA,NA,left,1385.30000007153,true,NA,NA,NA,NA,NA,NA,NA,NA
pEfC6ERe,3k2cedradeesg9mhvkrgq648pmomto,32ktq2v7rhsbjebxogr1oqzozqtm9d,pEfC6ERe,2020-0188,2021-10-30,13:37:18,14:50:56,NA,incomplete,false,true,NA,NA,2,23,NA,blue,m_s_106.jpg,NA,NA,NA,NA,NA,unpleasant,pleasant,NA,NA,NA,NA,NA,right,1956,true,NA,NA,NA,NA,NA,NA,NA,NA
pEfC6ERe,3k2cedradeesg9mhvkrgq648pmomto,32ktq2v7rhsbjebxogr1oqzozqtm9d,pEfC6ERe,2020-0188,2021-10-30,13:37:18,14:50:56,NA,incomplete,false,true,NA,NA,2,24,NA,green,n_l_098.jpg,NA,NA,NA,NA,NA,unpleasant,pleasant,NA,NA,NA,NA,NA,right,1516.5,true,NA,NA,NA,NA,NA,NA,NA,NA
pEfC6ERe,3k2cedradeesg9mhvkrgq648pmomto,32ktq2v7rhsbjebxogr1oqzozqtm9d,pEfC6ERe,2020-0188,2021-10-30,13:37:18,14:50:56,NA,incomplete,false,true,NA,NA,2,25,NA,green,m_s_048.jpg,NA,NA,NA,NA,NA,unpleasant,pleasant,NA,NA,NA,NA,NA,left,1888.5,true,NA,NA,NA,NA,NA,NA,NA,NA
pEfC6ERe,3k2cedradeesg9mhvkrgq648pmomto,32ktq2v7rhsbjebxogr1oqzozqtm9d,pEfC6ERe,2020-0188,2021-10-30,13:37:18,14:50:56,NA,incomplete,false,true,NA,NA,2,26,NA,green,m_l_003.jpg,NA,NA,NA,NA,NA,unpleasant,pleasant,NA,NA,NA,NA,NA,right,1383.5,true,NA,NA,NA,NA,NA,NA,NA,NA
pEfC6ERe,3k2cedradeesg9mhvkrgq648pmomto,32ktq2v7rhsbjebxogr1oqzozqtm9d,pEfC6ERe,2020-0188,2021-10-30,13:37:18,14:50:56,NA,incomplete,false,true,NA,NA,2,27,NA,green,m_l_063.jpg,NA,NA,NA,NA,NA,pleasant,unpleasant,NA,NA,NA,NA,NA,left,1647.40000009537,true,NA,NA,NA,NA,NA,NA,NA,NA
pEfC6ERe,3k2cedradeesg9mhvkrgq648pmomto,32ktq2v7rhsbjebxogr1oqzozqtm9d,pEfC6ERe,2020-0188,2021-10-30,13:37:18,14:50:56,NA,incomplete,false,true,NA,NA,2,28,NA,green,m_l_031.jpg,NA,NA,NA,NA,NA,pleasant,unpleasant,NA,NA,NA,NA,NA,right,1649.89999997616,true,NA,NA,NA,NA,NA,NA,NA,NA
pEfC6ERe,3k2cedradeesg9mhvkrgq648pmomto,32ktq2v7rhsbjebxogr1oqzozqtm9d,pEfC6ERe,2020-0188,2021-10-30,13:37:18,14:50:56,NA,incomplete,false,true,NA,NA,2,29,NA,green,m_l_112.jpg,NA,NA,NA,NA,NA,unpleasant,pleasant,NA,NA,NA,NA,NA,right,1819.80000007153,true,NA,NA,NA,NA,NA,NA,NA,NA
pEfC6ERe,3k2cedradeesg9mhvkrgq648pmomto,32ktq2v7rhsbjebxogr1oqzozqtm9d,pEfC6ERe,2020-0188,2021-10-30,13:37:18,14:50:56,NA,incomplete,false,true,NA,NA,2,30,NA,yellow,m_l_075.jpg,NA,NA,NA,NA,NA,pleasant,unpleasant,NA,NA,NA,NA,NA,left,2055.60000002384,true,NA,NA,NA,NA,NA,NA,NA,NA
pEfC6ERe,3k2cedradeesg9mhvkrgq648pmomto,32ktq2v7rhsbjebxogr1oqzozqtm9d,pEfC6ERe,2020-0188,2021-10-30,13:37:18,14:50:56,NA,incomplete,false,true,NA,NA,2,31,NA,yellow,n_s_114.jpg,NA,NA,NA,NA,NA,unpleasant,pleasant,NA,NA,NA,NA,NA,left,2018.29999995232,true,NA,NA,NA,NA,NA,NA,NA,NA
pEfC6ERe,3k2cedradeesg9mhvkrgq648pmomto,32ktq2v7rhsbjebxogr1oqzozqtm9d,pEfC6ERe,2020-0188,2021-10-30,13:37:18,14:50:56,NA,incomplete,false,true,NA,NA,2,32,NA,yellow,n_s_011.jpg,NA,NA,NA,NA,NA,pleasant,unpleasant,NA,NA,NA,NA,NA,left,2211.69999992847,true,NA,NA,NA,NA,NA,NA,NA,NA
pEfC6ERe,3k2cedradeesg9mhvkrgq648pmomto,32ktq2v7rhsbjebxogr1oqzozqtm9d,pEfC6ERe,2020-0188,2021-10-30,13:37:18,14:50:56,NA,incomplete,false,true,NA,NA,2,33,NA,yellow,m_s_046.jpg,NA,NA,NA,NA,NA,unpleasant,pleasant,NA,NA,NA,NA,NA,right,1853.89999997616,true,NA,NA,NA,NA,NA,NA,NA,NA
pEfC6ERe,3k2cedradeesg9mhvkrgq648pmomto,32ktq2v7rhsbjebxogr1oqzozqtm9d,pEfC6ERe,2020-0188,2021-10-30,13:37:18,14:50:56,NA,incomplete,false,true,NA,NA,2,34,NA,yellow,m_l_109.jpg,NA,NA,NA,NA,NA,pleasant,unpleasant,NA,NA,NA,NA,NA,right,2245,true,NA,NA,NA,NA,NA,NA,NA,NA
pEfC6ERe,3k2cedradeesg9mhvkrgq648pmomto,32ktq2v7rhsbjebxogr1oqzozqtm9d,pEfC6ERe,2020-0188,2021-10-30,13:37:18,14:50:56,NA,incomplete,false,true,NA,NA,2,35,NA,yellow,n_s_113.jpg,NA,NA,NA,NA,NA,pleasant,unpleasant,NA,NA,NA,NA,NA,right,2154.80000007153,true,NA,NA,NA,NA,NA,NA,NA,NA
pEfC6ERe,3k2cedradeesg9mhvkrgq648pmomto,32ktq2v7rhsbjebxogr1oqzozqtm9d,pEfC6ERe,2020-0188,2021-10-30,13:37:18,14:50:56,NA,incomplete,false,NA,NA,true,2,0,NA,NA,NA,right,n_s_086.jpg,green,blue,NA,NA,NA,NA,NA,NA,NA,NA,NA,NaN,NA,4911.399999976158,left,0,NA,NA,NA,NA,NA
pEfC6ERe,3k2cedradeesg9mhvkrgq648pmomto,32ktq2v7rhsbjebxogr1oqzozqtm9d,pEfC6ERe,2020-0188,2021-10-30,13:37:18,14:50:56,NA,incomplete,false,NA,NA,true,2,1,NA,NA,NA,left,m_l_065.jpg,white,purple,NA,NA,NA,NA,NA,NA,NA,NA,NA,NaN,NA,2091.7000000476837,left,1,NA,NA,NA,NA,NA
pEfC6ERe,3k2cedradeesg9mhvkrgq648pmomto,32ktq2v7rhsbjebxogr1oqzozqtm9d,pEfC6ERe,2020-0188,2021-10-30,13:37:18,14:50:56,NA,incomplete,false,NA,NA,true,2,2,NA,NA,NA,right,m_l_003.jpg,blue,green,NA,NA,NA,NA,NA,NA,NA,NA,NA,NaN,NA,2853.3000000715256,left,0,NA,NA,NA,NA,NA
pEfC6ERe,3k2cedradeesg9mhvkrgq648pmomto,32ktq2v7rhsbjebxogr1oqzozqtm9d,pEfC6ERe,2020-0188,2021-10-30,13:37:18,14:50:56,NA,incomplete,false,NA,NA,true,2,3,NA,NA,NA,left,n_s_113.jpg,yellow,green,NA,NA,NA,NA,NA,NA,NA,NA,NA,NaN,NA,2531.2000000476837,right,0,NA,NA,NA,NA,NA
pEfC6ERe,3k2cedradeesg9mhvkrgq648pmomto,32ktq2v7rhsbjebxogr1oqzozqtm9d,pEfC6ERe,2020-0188,2021-10-30,13:37:18,14:50:56,NA,incomplete,false,NA,NA,true,2,4,NA,NA,NA,right,m_s_058.jpg,orange,purple,NA,NA,NA,NA,NA,NA,NA,NA,NA,NaN,NA,3439.399999976158,right,1,NA,NA,NA,NA,NA
pEfC6ERe,3k2cedradeesg9mhvkrgq648pmomto,32ktq2v7rhsbjebxogr1oqzozqtm9d,pEfC6ERe,2020-0188,2021-10-30,13:37:18,14:50:56,NA,incomplete,false,NA,NA,true,2,5,NA,NA,NA,right,n_l_055.jpg,purple,orange,NA,NA,NA,NA,NA,NA,NA,NA,NA,NaN,NA,2735,left,0,NA,NA,NA,NA,NA
pEfC6ERe,3k2cedradeesg9mhvkrgq648pmomto,32ktq2v7rhsbjebxogr1oqzozqtm9d,pEfC6ERe,2020-0188,2021-10-30,13:37:18,14:50:56,NA,incomplete,false,NA,NA,true,2,6,NA,NA,NA,left,n_s_066.jpg,white,blue,NA,NA,NA,NA,NA,NA,NA,NA,NA,NaN,NA,2609.399999976158,right,0,NA,NA,NA,NA,NA
pEfC6ERe,3k2cedradeesg9mhvkrgq648pmomto,32ktq2v7rhsbjebxogr1oqzozqtm9d,pEfC6ERe,2020-0188,2021-10-30,13:37:18,14:50:56,NA,incomplete,false,NA,NA,true,2,7,NA,NA,NA,right,m_s_082.jpg,orange,purple,NA,NA,NA,NA,NA,NA,NA,NA,NA,NaN,NA,3109.100000023842,left,0,NA,NA,NA,NA,NA
pEfC6ERe,3k2cedradeesg9mhvkrgq648pmomto,32ktq2v7rhsbjebxogr1oqzozqtm9d,pEfC6ERe,2020-0188,2021-10-30,13:37:18,14:50:56,NA,incomplete,false,NA,NA,true,2,8,NA,NA,NA,right,m_l_031.jpg,blue,green,NA,NA,NA,NA,NA,NA,NA,NA,NA,NaN,NA,4319.799999952316,left,0,NA,NA,NA,NA,NA
pEfC6ERe,3k2cedradeesg9mhvkrgq648pmomto,32ktq2v7rhsbjebxogr1oqzozqtm9d,pEfC6ERe,2020-0188,2021-10-30,13:37:18,14:50:56,NA,incomplete,false,NA,NA,true,2,9,NA,NA,NA,right,n_s_011.jpg,green,yellow,NA,NA,NA,NA,NA,NA,NA,NA,NA,NaN,NA,3243.1999999284744,right,1,NA,NA,NA,NA,NA
pEfC6ERe,3k2cedradeesg9mhvkrgq648pmomto,32ktq2v7rhsbjebxogr1oqzozqtm9d,pEfC6ERe,2020-0188,2021-10-30,13:37:18,14:50:56,NA,incomplete,false,NA,NA,true,2,10,NA,NA,NA,left,m_s_106.jpg,blue,white,NA,NA,NA,NA,NA,NA,NA,NA,NA,NaN,NA,5067.799999952316,right,0,NA,NA,NA,NA,NA
pEfC6ERe,3k2cedradeesg9mhvkrgq648pmomto,32ktq2v7rhsbjebxogr1oqzozqtm9d,pEfC6ERe,2020-0188,2021-10-30,13:37:18,14:50:56,NA,incomplete,false,NA,NA,true,2,11,NA,NA,NA,right,n_l_054.jpg,purple,orange,NA,NA,NA,NA,NA,NA,NA,NA,NA,NaN,NA,3744.600000023842,left,0,NA,NA,NA,NA,NA
pEfC6ERe,3k2cedradeesg9mhvkrgq648pmomto,32ktq2v7rhsbjebxogr1oqzozqtm9d,pEfC6ERe,2020-0188,2021-10-30,13:37:18,14:50:56,NA,incomplete,false,NA,NA,true,2,12,NA,NA,NA,left,m_l_098.jpg,blue,green,NA,NA,NA,NA,NA,NA,NA,NA,NA,NaN,NA,4797.399999976158,left,1,NA,NA,NA,NA,NA
pEfC6ERe,3k2cedradeesg9mhvkrgq648pmomto,32ktq2v7rhsbjebxogr1oqzozqtm9d,pEfC6ERe,2020-0188,2021-10-30,13:37:18,14:50:56,NA,incomplete,false,NA,NA,true,2,13,NA,NA,NA,right,m_l_112.jpg,yellow,green,NA,NA,NA,NA,NA,NA,NA,NA,NA,NaN,NA,4955.899999976158,right,1,NA,NA,NA,NA,NA
pEfC6ERe,3k2cedradeesg9mhvkrgq648pmomto,32ktq2v7rhsbjebxogr1oqzozqtm9d,pEfC6ERe,2020-0188,2021-10-30,13:37:18,14:50:56,NA,incomplete,false,NA,NA,true,2,14,NA,NA,NA,right,n_l_037.jpg,purple,orange,NA,NA,NA,NA,NA,NA,NA,NA,NA,NaN,NA,2660.5,right,1,NA,NA,NA,NA,NA
pEfC6ERe,3k2cedradeesg9mhvkrgq648pmomto,32ktq2v7rhsbjebxogr1oqzozqtm9d,pEfC6ERe,2020-0188,2021-10-30,13:37:18,14:50:56,NA,incomplete,false,NA,NA,true,2,15,NA,NA,NA,right,m_s_048.jpg,yellow,green,NA,NA,NA,NA,NA,NA,NA,NA,NA,NaN,NA,4330.100000023842,left,0,NA,NA,NA,NA,NA
pEfC6ERe,3k2cedradeesg9mhvkrgq648pmomto,32ktq2v7rhsbjebxogr1oqzozqtm9d,pEfC6ERe,2020-0188,2021-10-30,13:37:18,14:50:56,NA,incomplete,false,NA,NA,true,2,16,NA,NA,NA,left,n_l_017.jpg,purple,white,NA,NA,NA,NA,NA,NA,NA,NA,NA,NaN,NA,3862.5,right,0,NA,NA,NA,NA,NA
pEfC6ERe,3k2cedradeesg9mhvkrgq648pmomto,32ktq2v7rhsbjebxogr1oqzozqtm9d,pEfC6ERe,2020-0188,2021-10-30,13:37:18,14:50:56,NA,incomplete,false,NA,NA,true,2,17,NA,NA,NA,left,n_s_114.jpg,yellow,green,NA,NA,NA,NA,NA,NA,NA,NA,NA,NaN,NA,3813.5999999046326,right,0,NA,NA,NA,NA,NA
pEfC6ERe,3k2cedradeesg9mhvkrgq648pmomto,32ktq2v7rhsbjebxogr1oqzozqtm9d,pEfC6ERe,2020-0188,2021-10-30,13:37:18,14:50:56,NA,incomplete,false,NA,NA,true,2,18,NA,NA,NA,right,n_s_091.jpg,white,purple,NA,NA,NA,NA,NA,NA,NA,NA,NA,NaN,NA,2748.5999999046326,right,1,NA,NA,NA,NA,NA
pEfC6ERe,3k2cedradeesg9mhvkrgq648pmomto,32ktq2v7rhsbjebxogr1oqzozqtm9d,pEfC6ERe,2020-0188,2021-10-30,13:37:18,14:50:56,NA,incomplete,false,NA,NA,true,2,19,NA,NA,NA,left,m_s_088.jpg,white,blue,NA,NA,NA,NA,NA,NA,NA,NA,NA,NaN,NA,3896.399999976158,left,1,NA,NA,NA,NA,NA
pEfC6ERe,3k2cedradeesg9mhvkrgq648pmomto,32ktq2v7rhsbjebxogr1oqzozqtm9d,pEfC6ERe,2020-0188,2021-10-30,13:37:18,14:50:56,NA,incomplete,false,NA,NA,true,2,20,NA,NA,NA,left,m_s_109.jpg,blue,green,NA,NA,NA,NA,NA,NA,NA,NA,NA,NaN,NA,3632.2000000476837,left,1,NA,NA,NA,NA,NA
pEfC6ERe,3k2cedradeesg9mhvkrgq648pmomto,32ktq2v7rhsbjebxogr1oqzozqtm9d,pEfC6ERe,2020-0188,2021-10-30,13:37:18,14:50:56,NA,incomplete,false,NA,NA,true,2,21,NA,NA,NA,right,n_s_072.jpg,blue,white,NA,NA,NA,NA,NA,NA,NA,NA,NA,NaN,NA,2952.6999999284744,right,1,NA,NA,NA,NA,NA
pEfC6ERe,3k2cedradeesg9mhvkrgq648pmomto,32ktq2v7rhsbjebxogr1oqzozqtm9d,pEfC6ERe,2020-0188,2021-10-30,13:37:18,14:50:56,NA,incomplete,false,NA,true,NA,2,0,NA,NA,NA,left,NA,NA,NA,absent,NA,NA,n_s_114.jpg,yellow,n_s_113.jpg,yellow,within,NA,NaN,NA,NA,NA,NA,left,2657.100000023842,1,1,1864.7000000476837
pEfC6ERe,3k2cedradeesg9mhvkrgq648pmomto,32ktq2v7rhsbjebxogr1oqzozqtm9d,pEfC6ERe,2020-0188,2021-10-30,13:37:18,14:50:56,NA,incomplete,false,NA,true,NA,2,1,NA,NA,NA,left,NA,NA,NA,absent,NA,NA,m_l_065.jpg,white,m_l_098.jpg,blue,between,NA,NaN,NA,NA,NA,NA,left,3339.3000000715256,1,1,1194
pEfC6ERe,3k2cedradeesg9mhvkrgq648pmomto,32ktq2v7rhsbjebxogr1oqzozqtm9d,pEfC6ERe,2020-0188,2021-10-30,13:37:18,14:50:56,NA,incomplete,false,NA,true,NA,2,2,NA,NA,NA,right,NA,NA,NA,absent,NA,NA,m_s_082.jpg,purple,n_l_055.jpg,orange,between,NA,NaN,NA,NA,NA,NA,right,3169.5999999046326,1,2,2625.399999976158
pEfC6ERe,3k2cedradeesg9mhvkrgq648pmomto,32ktq2v7rhsbjebxogr1oqzozqtm9d,pEfC6ERe,2020-0188,2021-10-30,13:37:18,14:50:56,NA,incomplete,false,NA,true,NA,2,3,NA,NA,NA,right,NA,NA,NA,absent,NA,NA,m_l_003.jpg,green,m_s_109.jpg,blue,between,NA,NaN,NA,NA,NA,NA,right,3626.5,1,2,1460.2000000476837
pEfC6ERe,3k2cedradeesg9mhvkrgq648pmomto,32ktq2v7rhsbjebxogr1oqzozqtm9d,pEfC6ERe,2020-0188,2021-10-30,13:37:18,14:50:56,NA,incomplete,false,NA,true,NA,2,4,NA,NA,NA,right,NA,NA,NA,absent,NA,NA,n_l_017.jpg,purple,n_s_091.jpg,purple,within,NA,NaN,NA,NA,NA,NA,right,2340.399999976158,1,2,1391.5
pEfC6ERe,3k2cedradeesg9mhvkrgq648pmomto,32ktq2v7rhsbjebxogr1oqzozqtm9d,pEfC6ERe,2020-0188,2021-10-30,13:37:18,14:50:56,NA,incomplete,false,NA,true,NA,2,5,NA,NA,NA,left,NA,NA,NA,absent,NA,NA,m_s_048.jpg,green,m_l_112.jpg,green,within,NA,NaN,NA,NA,NA,NA,left,3157.2000000476837,1,1,1219.3999999761581
pEfC6ERe,3k2cedradeesg9mhvkrgq648pmomto,32ktq2v7rhsbjebxogr1oqzozqtm9d,pEfC6ERe,2020-0188,2021-10-30,13:37:18,14:50:56,NA,incomplete,false,NA,true,NA,2,6,NA,NA,NA,right,NA,NA,NA,absent,NA,NA,n_s_011.jpg,yellow,m_l_031.jpg,green,between,NA,NaN,NA,NA,NA,NA,left,3597.2999999523163,0,1,2044.2999999523163
pEfC6ERe,3k2cedradeesg9mhvkrgq648pmomto,32ktq2v7rhsbjebxogr1oqzozqtm9d,pEfC6ERe,2020-0188,2021-10-30,13:37:18,14:50:56,NA,incomplete,false,NA,true,NA,2,7,NA,NA,NA,left,NA,NA,NA,absent,NA,NA,n_s_086.jpg,blue,m_s_106.jpg,blue,within,NA,NaN,NA,NA,NA,NA,left,2767.5,1,2,1629.5999999046326
pEfC6ERe,3k2cedradeesg9mhvkrgq648pmomto,32ktq2v7rhsbjebxogr1oqzozqtm9d,pEfC6ERe,2020-0188,2021-10-30,13:37:18,14:50:56,NA,incomplete,false,NA,true,NA,2,8,NA,NA,NA,left,NA,NA,NA,absent,NA,NA,n_s_072.jpg,white,n_s_066.jpg,white,within,NA,NaN,NA,NA,NA,NA,left,2172.7000000476837,1,2,1336.5999999046326
pEfC6ERe,3k2cedradeesg9mhvkrgq648pmomto,32ktq2v7rhsbjebxogr1oqzozqtm9d,pEfC6ERe,2020-0188,2021-10-30,13:37:18,14:50:56,NA,incomplete,false,NA,true,NA,2,9,NA,NA,NA,right,NA,NA,NA,absent,NA,NA,n_l_054.jpg,orange,n_l_037.jpg,orange,within,NA,NaN,NA,NA,NA,NA,right,5686.800000071526,1,1,1553.6000000238419
pEfC6ERe,3k2cedradeesg9mhvkrgq648pmomto,32ktq2v7rhsbjebxogr1oqzozqtm9d,pEfC6ERe,2020-0188,2021-10-30,13:37:18,14:50:56,NA,incomplete,false,NA,true,NA,2,10,NA,NA,NA,right,NA,NA,NA,absent,NA,NA,m_s_088.jpg,white,m_s_058.jpg,purple,between,NA,NaN,NA,NA,NA,NA,left,3852.399999976158,0,1,1433
pEfC6ERe,3k2cedradeesg9mhvkrgq648pmomto,32ktq2v7rhsbjebxogr1oqzozqtm9d,pEfC6ERe,2020-0188,2021-10-30,13:37:18,14:50:56,NA,incomplete,false,true,NA,NA,3,0,NA,red,n_l_044.jpg,NA,NA,NA,NA,NA,pleasant,unpleasant,NA,NA,NA,NA,NA,none,0,false,NA,NA,NA,NA,NA,NA,NA,NA
pEfC6ERe,3k2cedradeesg9mhvkrgq648pmomto,32ktq2v7rhsbjebxogr1oqzozqtm9d,pEfC6ERe,2020-0188,2021-10-30,13:37:18,14:50:56,NA,incomplete,false,true,NA,NA,3,1,NA,red,n_s_079.jpg,NA,NA,NA,NA,NA,unpleasant,pleasant,NA,NA,NA,NA,NA,left,2110.60000002384,true,NA,NA,NA,NA,NA,NA,NA,NA
pEfC6ERe,3k2cedradeesg9mhvkrgq648pmomto,32ktq2v7rhsbjebxogr1oqzozqtm9d,pEfC6ERe,2020-0188,2021-10-30,13:37:18,14:50:56,NA,incomplete,false,true,NA,NA,3,2,NA,red,n_s_068.jpg,NA,NA,NA,NA,NA,unpleasant,pleasant,NA,NA,NA,NA,NA,right,2268,true,NA,NA,NA,NA,NA,NA,NA,NA
pEfC6ERe,3k2cedradeesg9mhvkrgq648pmomto,32ktq2v7rhsbjebxogr1oqzozqtm9d,pEfC6ERe,2020-0188,2021-10-30,13:37:18,14:50:56,NA,incomplete,false,true,NA,NA,3,3,NA,red,m_l_105.jpg,NA,NA,NA,NA,NA,pleasant,unpleasant,NA,NA,NA,NA,NA,right,1826.40000009537,true,NA,NA,NA,NA,NA,NA,NA,NA
pEfC6ERe,3k2cedradeesg9mhvkrgq648pmomto,32ktq2v7rhsbjebxogr1oqzozqtm9d,pEfC6ERe,2020-0188,2021-10-30,13:37:18,14:50:56,NA,incomplete,false,true,NA,NA,3,4,NA,red,n_l_072.jpg,NA,NA,NA,NA,NA,unpleasant,pleasant,NA,NA,NA,NA,NA,left,1815.10000002384,true,NA,NA,NA,NA,NA,NA,NA,NA
pEfC6ERe,3k2cedradeesg9mhvkrgq648pmomto,32ktq2v7rhsbjebxogr1oqzozqtm9d,pEfC6ERe,2020-0188,2021-10-30,13:37:18,14:50:56,NA,incomplete,false,true,NA,NA,3,5,NA,red,m_l_005.jpg,NA,NA,NA,NA,NA,unpleasant,pleasant,NA,NA,NA,NA,NA,left,1477.69999992847,true,NA,NA,NA,NA,NA,NA,NA,NA
pEfC6ERe,3k2cedradeesg9mhvkrgq648pmomto,32ktq2v7rhsbjebxogr1oqzozqtm9d,pEfC6ERe,2020-0188,2021-10-30,13:37:18,14:50:56,NA,incomplete,false,true,NA,NA,3,6,NA,orange,n_l_004.jpg,NA,NA,NA,NA,NA,pleasant,unpleasant,NA,NA,NA,NA,NA,left,1633.80000007153,true,NA,NA,NA,NA,NA,NA,NA,NA
pEfC6ERe,3k2cedradeesg9mhvkrgq648pmomto,32ktq2v7rhsbjebxogr1oqzozqtm9d,pEfC6ERe,2020-0188,2021-10-30,13:37:18,14:50:56,NA,incomplete,false,true,NA,NA,3,7,NA,orange,m_s_100.jpg,NA,NA,NA,NA,NA,unpleasant,pleasant,NA,NA,NA,NA,NA,right,1705.29999995232,true,NA,NA,NA,NA,NA,NA,NA,NA
pEfC6ERe,3k2cedradeesg9mhvkrgq648pmomto,32ktq2v7rhsbjebxogr1oqzozqtm9d,pEfC6ERe,2020-0188,2021-10-30,13:37:18,14:50:56,NA,incomplete,false,true,NA,NA,3,8,NA,orange,n_l_081.jpg,NA,NA,NA,NA,NA,pleasant,unpleasant,NA,NA,NA,NA,NA,left,1677.59999990463,true,NA,NA,NA,NA,NA,NA,NA,NA
pEfC6ERe,3k2cedradeesg9mhvkrgq648pmomto,32ktq2v7rhsbjebxogr1oqzozqtm9d,pEfC6ERe,2020-0188,2021-10-30,13:37:18,14:50:56,NA,incomplete,false,true,NA,NA,3,9,NA,orange,m_l_076.jpg,NA,NA,NA,NA,NA,unpleasant,pleasant,NA,NA,NA,NA,NA,right,1816,true,NA,NA,NA,NA,NA,NA,NA,NA
pEfC6ERe,3k2cedradeesg9mhvkrgq648pmomto,32ktq2v7rhsbjebxogr1oqzozqtm9d,pEfC6ERe,2020-0188,2021-10-30,13:37:18,14:50:56,NA,incomplete,false,true,NA,NA,3,10,NA,orange,m_s_079.jpg,NA,NA,NA,NA,NA,pleasant,unpleasant,NA,NA,NA,NA,NA,left,1479.20000004768,true,NA,NA,NA,NA,NA,NA,NA,NA
pEfC6ERe,3k2cedradeesg9mhvkrgq648pmomto,32ktq2v7rhsbjebxogr1oqzozqtm9d,pEfC6ERe,2020-0188,2021-10-30,13:37:18,14:50:56,NA,incomplete,false,true,NA,NA,3,11,NA,orange,n_s_064.jpg,NA,NA,NA,NA,NA,pleasant,unpleasant,NA,NA,NA,NA,NA,left,1882.69999992847,true,NA,NA,NA,NA,NA,NA,NA,NA
pEfC6ERe,3k2cedradeesg9mhvkrgq648pmomto,32ktq2v7rhsbjebxogr1oqzozqtm9d,pEfC6ERe,2020-0188,2021-10-30,13:37:18,14:50:56,NA,incomplete,false,true,NA,NA,3,12,NA,green,n_l_049.jpg,NA,NA,NA,NA,NA,pleasant,unpleasant,NA,NA,NA,NA,NA,left,1232.10000002384,true,NA,NA,NA,NA,NA,NA,NA,NA
pEfC6ERe,3k2cedradeesg9mhvkrgq648pmomto,32ktq2v7rhsbjebxogr1oqzozqtm9d,pEfC6ERe,2020-0188,2021-10-30,13:37:18,14:50:56,NA,incomplete,false,true,NA,NA,3,13,NA,green,n_s_012.jpg,NA,NA,NA,NA,NA,unpleasant,pleasant,NA,NA,NA,NA,NA,right,1510.60000002384,true,NA,NA,NA,NA,NA,NA,NA,NA
pEfC6ERe,3k2cedradeesg9mhvkrgq648pmomto,32ktq2v7rhsbjebxogr1oqzozqtm9d,pEfC6ERe,2020-0188,2021-10-30,13:37:18,14:50:56,NA,incomplete,false,true,NA,NA,3,14,NA,green,n_l_035.jpg,NA,NA,NA,NA,NA,pleasant,unpleasant,NA,NA,NA,NA,NA,left,1384.80000007153,true,NA,NA,NA,NA,NA,NA,NA,NA
pEfC6ERe,3k2cedradeesg9mhvkrgq648pmomto,32ktq2v7rhsbjebxogr1oqzozqtm9d,pEfC6ERe,2020-0188,2021-10-30,13:37:18,14:50:56,NA,incomplete,false,true,NA,NA,3,15,NA,green,m_l_111.jpg,NA,NA,NA,NA,NA,pleasant,unpleasant,NA,NA,NA,NA,NA,left,1333.69999992847,true,NA,NA,NA,NA,NA,NA,NA,NA
pEfC6ERe,3k2cedradeesg9mhvkrgq648pmomto,32ktq2v7rhsbjebxogr1oqzozqtm9d,pEfC6ERe,2020-0188,2021-10-30,13:37:18,14:50:56,NA,incomplete,false,true,NA,NA,3,16,NA,green,n_s_101.jpg,NA,NA,NA,NA,NA,unpleasant,pleasant,NA,NA,NA,NA,NA,left,1655.29999995232,true,NA,NA,NA,NA,NA,NA,NA,NA
pEfC6ERe,3k2cedradeesg9mhvkrgq648pmomto,32ktq2v7rhsbjebxogr1oqzozqtm9d,pEfC6ERe,2020-0188,2021-10-30,13:37:18,14:50:56,NA,incomplete,false,true,NA,NA,3,17,NA,green,m_s_024.jpg,NA,NA,NA,NA,NA,unpleasant,pleasant,NA,NA,NA,NA,NA,left,1936.5,true,NA,NA,NA,NA,NA,NA,NA,NA
pEfC6ERe,3k2cedradeesg9mhvkrgq648pmomto,32ktq2v7rhsbjebxogr1oqzozqtm9d,pEfC6ERe,2020-0188,2021-10-30,13:37:18,14:50:56,NA,incomplete,false,true,NA,NA,3,18,NA,black,m_s_102.jpg,NA,NA,NA,NA,NA,unpleasant,pleasant,NA,NA,NA,NA,NA,right,1354.30000007153,true,NA,NA,NA,NA,NA,NA,NA,NA
pEfC6ERe,3k2cedradeesg9mhvkrgq648pmomto,32ktq2v7rhsbjebxogr1oqzozqtm9d,pEfC6ERe,2020-0188,2021-10-30,13:37:18,14:50:56,NA,incomplete,false,true,NA,NA,3,19,NA,black,n_s_009.jpg,NA,NA,NA,NA,NA,pleasant,unpleasant,NA,NA,NA,NA,NA,left,1249.89999997616,true,NA,NA,NA,NA,NA,NA,NA,NA
pEfC6ERe,3k2cedradeesg9mhvkrgq648pmomto,32ktq2v7rhsbjebxogr1oqzozqtm9d,pEfC6ERe,2020-0188,2021-10-30,13:37:18,14:50:56,NA,incomplete,false,true,NA,NA,3,20,NA,black,n_s_019.jpg,NA,NA,NA,NA,NA,pleasant,unpleasant,NA,NA,NA,NA,NA,left,1395.59999990463,true,NA,NA,NA,NA,NA,NA,NA,NA
pEfC6ERe,3k2cedradeesg9mhvkrgq648pmomto,32ktq2v7rhsbjebxogr1oqzozqtm9d,pEfC6ERe,2020-0188,2021-10-30,13:37:18,14:50:56,NA,incomplete,false,true,NA,NA,3,21,NA,black,n_l_095.jpg,NA,NA,NA,NA,NA,unpleasant,pleasant,NA,NA,NA,NA,NA,right,1564.60000002384,true,NA,NA,NA,NA,NA,NA,NA,NA
pEfC6ERe,3k2cedradeesg9mhvkrgq648pmomto,32ktq2v7rhsbjebxogr1oqzozqtm9d,pEfC6ERe,2020-0188,2021-10-30,13:37:18,14:50:56,NA,incomplete,false,true,NA,NA,3,22,NA,black,n_s_111.jpg,NA,NA,NA,NA,NA,unpleasant,pleasant,NA,NA,NA,NA,NA,right,2117.89999997616,true,NA,NA,NA,NA,NA,NA,NA,NA
pEfC6ERe,3k2cedradeesg9mhvkrgq648pmomto,32ktq2v7rhsbjebxogr1oqzozqtm9d,pEfC6ERe,2020-0188,2021-10-30,13:37:18,14:50:56,NA,incomplete,false,true,NA,NA,3,23,NA,black,m_l_008.jpg,NA,NA,NA,NA,NA,unpleasant,pleasant,NA,NA,NA,NA,NA,right,1362.5,true,NA,NA,NA,NA,NA,NA,NA,NA
pEfC6ERe,3k2cedradeesg9mhvkrgq648pmomto,32ktq2v7rhsbjebxogr1oqzozqtm9d,pEfC6ERe,2020-0188,2021-10-30,13:37:18,14:50:56,NA,incomplete,false,true,NA,NA,3,24,NA,gray,n_l_005.jpg,NA,NA,NA,NA,NA,unpleasant,pleasant,NA,NA,NA,NA,NA,right,1480.79999995232,true,NA,NA,NA,NA,NA,NA,NA,NA
pEfC6ERe,3k2cedradeesg9mhvkrgq648pmomto,32ktq2v7rhsbjebxogr1oqzozqtm9d,pEfC6ERe,2020-0188,2021-10-30,13:37:18,14:50:56,NA,incomplete,false,true,NA,NA,3,25,NA,gray,m_s_081.jpg,NA,NA,NA,NA,NA,unpleasant,pleasant,NA,NA,NA,NA,NA,left,1661.10000002384,true,NA,NA,NA,NA,NA,NA,NA,NA
pEfC6ERe,3k2cedradeesg9mhvkrgq648pmomto,32ktq2v7rhsbjebxogr1oqzozqtm9d,pEfC6ERe,2020-0188,2021-10-30,13:37:18,14:50:56,NA,incomplete,false,true,NA,NA,3,26,NA,gray,m_l_060.jpg,NA,NA,NA,NA,NA,pleasant,unpleasant,NA,NA,NA,NA,NA,left,1901.60000002384,true,NA,NA,NA,NA,NA,NA,NA,NA
pEfC6ERe,3k2cedradeesg9mhvkrgq648pmomto,32ktq2v7rhsbjebxogr1oqzozqtm9d,pEfC6ERe,2020-0188,2021-10-30,13:37:18,14:50:56,NA,incomplete,false,true,NA,NA,3,27,NA,gray,n_s_006.jpg,NA,NA,NA,NA,NA,unpleasant,pleasant,NA,NA,NA,NA,NA,right,1677.5,true,NA,NA,NA,NA,NA,NA,NA,NA
pEfC6ERe,3k2cedradeesg9mhvkrgq648pmomto,32ktq2v7rhsbjebxogr1oqzozqtm9d,pEfC6ERe,2020-0188,2021-10-30,13:37:18,14:50:56,NA,incomplete,false,true,NA,NA,3,28,NA,gray,n_s_117.jpg,NA,NA,NA,NA,NA,unpleasant,pleasant,NA,NA,NA,NA,NA,left,1541,true,NA,NA,NA,NA,NA,NA,NA,NA
pEfC6ERe,3k2cedradeesg9mhvkrgq648pmomto,32ktq2v7rhsbjebxogr1oqzozqtm9d,pEfC6ERe,2020-0188,2021-10-30,13:37:18,14:50:56,NA,incomplete,false,true,NA,NA,3,29,NA,gray,m_s_027.jpg,NA,NA,NA,NA,NA,unpleasant,pleasant,NA,NA,NA,NA,NA,left,1850.39999997616,true,NA,NA,NA,NA,NA,NA,NA,NA
pEfC6ERe,3k2cedradeesg9mhvkrgq648pmomto,32ktq2v7rhsbjebxogr1oqzozqtm9d,pEfC6ERe,2020-0188,2021-10-30,13:37:18,14:50:56,NA,incomplete,false,true,NA,NA,3,30,NA,yellow,n_l_061.jpg,NA,NA,NA,NA,NA,pleasant,unpleasant,NA,NA,NA,NA,NA,left,1734.09999990463,true,NA,NA,NA,NA,NA,NA,NA,NA
pEfC6ERe,3k2cedradeesg9mhvkrgq648pmomto,32ktq2v7rhsbjebxogr1oqzozqtm9d,pEfC6ERe,2020-0188,2021-10-30,13:37:18,14:50:56,NA,incomplete,false,true,NA,NA,3,31,NA,yellow,n_s_021.jpg,NA,NA,NA,NA,NA,pleasant,unpleasant,NA,NA,NA,NA,NA,left,1213.39999997616,true,NA,NA,NA,NA,NA,NA,NA,NA
pEfC6ERe,3k2cedradeesg9mhvkrgq648pmomto,32ktq2v7rhsbjebxogr1oqzozqtm9d,pEfC6ERe,2020-0188,2021-10-30,13:37:18,14:50:56,NA,incomplete,false,true,NA,NA,3,32,NA,yellow,n_s_041.jpg,NA,NA,NA,NA,NA,unpleasant,pleasant,NA,NA,NA,NA,NA,right,1666.09999990463,true,NA,NA,NA,NA,NA,NA,NA,NA
pEfC6ERe,3k2cedradeesg9mhvkrgq648pmomto,32ktq2v7rhsbjebxogr1oqzozqtm9d,pEfC6ERe,2020-0188,2021-10-30,13:37:18,14:50:56,NA,incomplete,false,true,NA,NA,3,33,NA,yellow,m_s_091.jpg,NA,NA,NA,NA,NA,pleasant,unpleasant,NA,NA,NA,NA,NA,left,1947.20000004768,true,NA,NA,NA,NA,NA,NA,NA,NA
pEfC6ERe,3k2cedradeesg9mhvkrgq648pmomto,32ktq2v7rhsbjebxogr1oqzozqtm9d,pEfC6ERe,2020-0188,2021-10-30,13:37:18,14:50:56,NA,incomplete,false,true,NA,NA,3,34,NA,yellow,n_s_107.jpg,NA,NA,NA,NA,NA,pleasant,unpleasant,NA,NA,NA,NA,NA,left,1224,true,NA,NA,NA,NA,NA,NA,NA,NA
pEfC6ERe,3k2cedradeesg9mhvkrgq648pmomto,32ktq2v7rhsbjebxogr1oqzozqtm9d,pEfC6ERe,2020-0188,2021-10-30,13:37:18,14:50:56,NA,incomplete,false,true,NA,NA,3,35,NA,yellow,n_s_046.jpg,NA,NA,NA,NA,NA,unpleasant,pleasant,NA,NA,NA,NA,NA,left,1551.39999997616,true,NA,NA,NA,NA,NA,NA,NA,NA
pEfC6ERe,3k2cedradeesg9mhvkrgq648pmomto,32ktq2v7rhsbjebxogr1oqzozqtm9d,pEfC6ERe,2020-0188,2021-10-30,13:37:18,14:50:56,NA,incomplete,false,NA,NA,true,3,0,NA,NA,NA,right,n_s_046.jpg,gray,yellow,NA,NA,NA,NA,NA,NA,NA,NA,NA,NaN,NA,4847.299999952316,right,1,NA,NA,NA,NA,NA
pEfC6ERe,3k2cedradeesg9mhvkrgq648pmomto,32ktq2v7rhsbjebxogr1oqzozqtm9d,pEfC6ERe,2020-0188,2021-10-30,13:37:18,14:50:56,NA,incomplete,false,NA,NA,true,3,1,NA,NA,NA,left,m_s_024.jpg,green,black,NA,NA,NA,NA,NA,NA,NA,NA,NA,NaN,NA,5425.199999928474,right,0,NA,NA,NA,NA,NA
pEfC6ERe,3k2cedradeesg9mhvkrgq648pmomto,32ktq2v7rhsbjebxogr1oqzozqtm9d,pEfC6ERe,2020-0188,2021-10-30,13:37:18,14:50:56,NA,incomplete,false,NA,NA,true,3,2,NA,NA,NA,left,n_s_117.jpg,gray,yellow,NA,NA,NA,NA,NA,NA,NA,NA,NA,NaN,NA,5338.299999952316,right,0,NA,NA,NA,NA,NA
pEfC6ERe,3k2cedradeesg9mhvkrgq648pmomto,32ktq2v7rhsbjebxogr1oqzozqtm9d,pEfC6ERe,2020-0188,2021-10-30,13:37:18,14:50:56,NA,incomplete,false,NA,NA,true,3,3,NA,NA,NA,left,n_s_064.jpg,orange,red,NA,NA,NA,NA,NA,NA,NA,NA,NA,NaN,NA,3375.899999976158,left,1,NA,NA,NA,NA,NA
pEfC6ERe,3k2cedradeesg9mhvkrgq648pmomto,32ktq2v7rhsbjebxogr1oqzozqtm9d,pEfC6ERe,2020-0188,2021-10-30,13:37:18,14:50:56,NA,incomplete,false,NA,NA,true,3,4,NA,NA,NA,right,n_s_009.jpg,green,black,NA,NA,NA,NA,NA,NA,NA,NA,NA,NaN,NA,3443.2000000476837,right,1,NA,NA,NA,NA,NA
pEfC6ERe,3k2cedradeesg9mhvkrgq648pmomto,32ktq2v7rhsbjebxogr1oqzozqtm9d,pEfC6ERe,2020-0188,2021-10-30,13:37:18,14:50:56,NA,incomplete,false,NA,NA,true,3,5,NA,NA,NA,left,n_s_101.jpg,green,black,NA,NA,NA,NA,NA,NA,NA,NA,NA,NaN,NA,3600.1999999284744,right,0,NA,NA,NA,NA,NA
pEfC6ERe,3k2cedradeesg9mhvkrgq648pmomto,32ktq2v7rhsbjebxogr1oqzozqtm9d,pEfC6ERe,2020-0188,2021-10-30,13:37:18,14:50:56,NA,incomplete,false,NA,NA,true,3,6,NA,NA,NA,right,m_s_100.jpg,green,orange,NA,NA,NA,NA,NA,NA,NA,NA,NA,NaN,NA,2748,right,1,NA,NA,NA,NA,NA
pEfC6ERe,3k2cedradeesg9mhvkrgq648pmomto,32ktq2v7rhsbjebxogr1oqzozqtm9d,pEfC6ERe,2020-0188,2021-10-30,13:37:18,14:50:56,NA,incomplete,false,NA,NA,true,3,7,NA,NA,NA,left,n_l_035.jpg,green,black,NA,NA,NA,NA,NA,NA,NA,NA,NA,NaN,NA,3351.399999976158,right,0,NA,NA,NA,NA,NA
pEfC6ERe,3k2cedradeesg9mhvkrgq648pmomto,32ktq2v7rhsbjebxogr1oqzozqtm9d,pEfC6ERe,2020-0188,2021-10-30,13:37:18,14:50:56,NA,incomplete,false,NA,NA,true,3,8,NA,NA,NA,left,n_s_019.jpg,black,gray,NA,NA,NA,NA,NA,NA,NA,NA,NA,NaN,NA,2279.5,right,0,NA,NA,NA,NA,NA
pEfC6ERe,3k2cedradeesg9mhvkrgq648pmomto,32ktq2v7rhsbjebxogr1oqzozqtm9d,pEfC6ERe,2020-0188,2021-10-30,13:37:18,14:50:56,NA,incomplete,false,NA,NA,true,3,9,NA,NA,NA,left,n_s_079.jpg,red,orange,NA,NA,NA,NA,NA,NA,NA,NA,NA,NaN,NA,2607,left,1,NA,NA,NA,NA,NA
pEfC6ERe,3k2cedradeesg9mhvkrgq648pmomto,32ktq2v7rhsbjebxogr1oqzozqtm9d,pEfC6ERe,2020-0188,2021-10-30,13:37:18,14:50:56,NA,incomplete,false,NA,NA,true,3,10,NA,NA,NA,right,m_l_060.jpg,black,gray,NA,NA,NA,NA,NA,NA,NA,NA,NA,NaN,NA,1452.7000000476837,right,1,NA,NA,NA,NA,NA
pEfC6ERe,3k2cedradeesg9mhvkrgq648pmomto,32ktq2v7rhsbjebxogr1oqzozqtm9d,pEfC6ERe,2020-0188,2021-10-30,13:37:18,14:50:56,NA,incomplete,false,NA,NA,true,3,11,NA,NA,NA,left,n_s_111.jpg,black,gray,NA,NA,NA,NA,NA,NA,NA,NA,NA,NaN,NA,1869.4000000953674,left,1,NA,NA,NA,NA,NA
pEfC6ERe,3k2cedradeesg9mhvkrgq648pmomto,32ktq2v7rhsbjebxogr1oqzozqtm9d,pEfC6ERe,2020-0188,2021-10-30,13:37:18,14:50:56,NA,incomplete,false,NA,NA,true,3,12,NA,NA,NA,right,n_s_021.jpg,gray,yellow,NA,NA,NA,NA,NA,NA,NA,NA,NA,NaN,NA,4337.100000023842,right,1,NA,NA,NA,NA,NA
pEfC6ERe,3k2cedradeesg9mhvkrgq648pmomto,32ktq2v7rhsbjebxogr1oqzozqtm9d,pEfC6ERe,2020-0188,2021-10-30,13:37:18,14:50:56,NA,incomplete,false,NA,NA,true,3,13,NA,NA,NA,left,m_l_008.jpg,black,gray,NA,NA,NA,NA,NA,NA,NA,NA,NA,NaN,NA,3603.5,right,0,NA,NA,NA,NA,NA
pEfC6ERe,3k2cedradeesg9mhvkrgq648pmomto,32ktq2v7rhsbjebxogr1oqzozqtm9d,pEfC6ERe,2020-0188,2021-10-30,13:37:18,14:50:56,NA,incomplete,false,NA,NA,true,3,14,NA,NA,NA,right,m_s_081.jpg,black,gray,NA,NA,NA,NA,NA,NA,NA,NA,NA,NaN,NA,2246.600000023842,left,0,NA,NA,NA,NA,NA
pEfC6ERe,3k2cedradeesg9mhvkrgq648pmomto,32ktq2v7rhsbjebxogr1oqzozqtm9d,pEfC6ERe,2020-0188,2021-10-30,13:37:18,14:50:56,NA,incomplete,false,NA,NA,true,3,15,NA,NA,NA,left,n_l_081.jpg,orange,green,NA,NA,NA,NA,NA,NA,NA,NA,NA,NaN,NA,3476.5,left,1,NA,NA,NA,NA,NA
pEfC6ERe,3k2cedradeesg9mhvkrgq648pmomto,32ktq2v7rhsbjebxogr1oqzozqtm9d,pEfC6ERe,2020-0188,2021-10-30,13:37:18,14:50:56,NA,incomplete,false,NA,NA,true,3,16,NA,NA,NA,left,n_l_072.jpg,red,orange,NA,NA,NA,NA,NA,NA,NA,NA,NA,NaN,NA,3309.600000023842,left,1,NA,NA,NA,NA,NA
pEfC6ERe,3k2cedradeesg9mhvkrgq648pmomto,32ktq2v7rhsbjebxogr1oqzozqtm9d,pEfC6ERe,2020-0188,2021-10-30,13:37:18,14:50:56,NA,incomplete,false,NA,NA,true,3,17,NA,NA,NA,left,m_l_005.jpg,red,orange,NA,NA,NA,NA,NA,NA,NA,NA,NA,NaN,NA,2787.5,left,1,NA,NA,NA,NA,NA
pEfC6ERe,3k2cedradeesg9mhvkrgq648pmomto,32ktq2v7rhsbjebxogr1oqzozqtm9d,pEfC6ERe,2020-0188,2021-10-30,13:37:18,14:50:56,NA,incomplete,false,NA,NA,true,3,18,NA,NA,NA,left,m_s_079.jpg,orange,green,NA,NA,NA,NA,NA,NA,NA,NA,NA,NaN,NA,3532.2999999523163,left,1,NA,NA,NA,NA,NA
pEfC6ERe,3k2cedradeesg9mhvkrgq648pmomto,32ktq2v7rhsbjebxogr1oqzozqtm9d,pEfC6ERe,2020-0188,2021-10-30,13:37:18,14:50:56,NA,incomplete,false,NA,NA,true,3,19,NA,NA,NA,right,n_s_041.jpg,gray,yellow,NA,NA,NA,NA,NA,NA,NA,NA,NA,NaN,NA,2367.7999999523163,left,0,NA,NA,NA,NA,NA
pEfC6ERe,3k2cedradeesg9mhvkrgq648pmomto,32ktq2v7rhsbjebxogr1oqzozqtm9d,pEfC6ERe,2020-0188,2021-10-30,13:37:18,14:50:56,NA,incomplete,false,NA,NA,true,3,20,NA,NA,NA,left,m_s_027.jpg,gray,yellow,NA,NA,NA,NA,NA,NA,NA,NA,NA,NaN,NA,3922.2000000476837,right,0,NA,NA,NA,NA,NA
pEfC6ERe,3k2cedradeesg9mhvkrgq648pmomto,32ktq2v7rhsbjebxogr1oqzozqtm9d,pEfC6ERe,2020-0188,2021-10-30,13:37:18,14:50:56,NA,incomplete,false,NA,NA,true,3,21,NA,NA,NA,left,n_s_012.jpg,green,orange,NA,NA,NA,NA,NA,NA,NA,NA,NA,NaN,NA,2239.3000000715256,right,0,NA,NA,NA,NA,NA
pEfC6ERe,3k2cedradeesg9mhvkrgq648pmomto,32ktq2v7rhsbjebxogr1oqzozqtm9d,pEfC6ERe,2020-0188,2021-10-30,13:37:18,14:50:56,NA,incomplete,false,NA,true,NA,3,0,NA,NA,NA,left,NA,NA,NA,absent,NA,NA,n_s_117.jpg,gray,n_s_041.jpg,yellow,between,NA,NaN,NA,NA,NA,NA,left,3003.8000000715256,1,2,1207.6999999284744
pEfC6ERe,3k2cedradeesg9mhvkrgq648pmomto,32ktq2v7rhsbjebxogr1oqzozqtm9d,pEfC6ERe,2020-0188,2021-10-30,13:37:18,14:50:56,NA,incomplete,false,NA,true,NA,3,1,NA,NA,NA,left,NA,NA,NA,absent,NA,NA,n_s_021.jpg,yellow,n_s_046.jpg,yellow,within,NA,NaN,NA,NA,NA,NA,left,2772.100000023842,1,2,1827.7000000476837
pEfC6ERe,3k2cedradeesg9mhvkrgq648pmomto,32ktq2v7rhsbjebxogr1oqzozqtm9d,pEfC6ERe,2020-0188,2021-10-30,13:37:18,14:50:56,NA,incomplete,false,NA,true,NA,3,2,NA,NA,NA,left,NA,NA,NA,absent,NA,NA,m_s_100.jpg,orange,n_s_064.jpg,orange,within,NA,NaN,NA,NA,NA,NA,left,3113.7999999523163,1,1,1325.8999999761581
pEfC6ERe,3k2cedradeesg9mhvkrgq648pmomto,32ktq2v7rhsbjebxogr1oqzozqtm9d,pEfC6ERe,2020-0188,2021-10-30,13:37:18,14:50:56,NA,incomplete,false,NA,true,NA,3,3,NA,NA,NA,right,NA,NA,NA,absent,NA,NA,n_s_019.jpg,black,n_s_101.jpg,green,between,NA,NaN,NA,NA,NA,NA,left,3247.600000023842,0,1,1155.1000000238419
pEfC6ERe,3k2cedradeesg9mhvkrgq648pmomto,32ktq2v7rhsbjebxogr1oqzozqtm9d,pEfC6ERe,2020-0188,2021-10-30,13:37:18,14:50:56,NA,incomplete,false,NA,true,NA,3,4,NA,NA,NA,left,NA,NA,NA,absent,NA,NA,n_s_111.jpg,black,m_l_060.jpg,gray,between,NA,NaN,NA,NA,NA,NA,left,2805.600000023842,1,1,1364.8999999761581
pEfC6ERe,3k2cedradeesg9mhvkrgq648pmomto,32ktq2v7rhsbjebxogr1oqzozqtm9d,pEfC6ERe,2020-0188,2021-10-30,13:37:18,14:50:56,NA,incomplete,false,NA,true,NA,3,5,NA,NA,NA,left,NA,NA,NA,absent,NA,NA,n_s_079.jpg,red,m_l_005.jpg,red,within,NA,NaN,NA,NA,NA,NA,left,3661.2999999523163,1,2,1673.1999999284744
pEfC6ERe,3k2cedradeesg9mhvkrgq648pmomto,32ktq2v7rhsbjebxogr1oqzozqtm9d,pEfC6ERe,2020-0188,2021-10-30,13:37:18,14:50:56,NA,incomplete,false,NA,true,NA,3,6,NA,NA,NA,right,NA,NA,NA,absent,NA,NA,m_s_027.jpg,gray,m_s_081.jpg,gray,within,NA,NaN,NA,NA,NA,NA,right,3073.399999976158,1,1,1476
pEfC6ERe,3k2cedradeesg9mhvkrgq648pmomto,32ktq2v7rhsbjebxogr1oqzozqtm9d,pEfC6ERe,2020-0188,2021-10-30,13:37:18,14:50:56,NA,incomplete,false,NA,true,NA,3,7,NA,NA,NA,right,NA,NA,NA,absent,NA,NA,n_l_035.jpg,green,m_s_079.jpg,orange,between,NA,NaN,NA,NA,NA,NA,right,3053.9000000953674,1,1,1457.3999999761581
pEfC6ERe,3k2cedradeesg9mhvkrgq648pmomto,32ktq2v7rhsbjebxogr1oqzozqtm9d,pEfC6ERe,2020-0188,2021-10-30,13:37:18,14:50:56,NA,incomplete,false,NA,true,NA,3,8,NA,NA,NA,left,NA,NA,NA,absent,NA,NA,n_l_072.jpg,red,n_l_081.jpg,orange,between,NA,NaN,NA,NA,NA,NA,left,2193.5,1,2,1397.2999999523163
pEfC6ERe,3k2cedradeesg9mhvkrgq648pmomto,32ktq2v7rhsbjebxogr1oqzozqtm9d,pEfC6ERe,2020-0188,2021-10-30,13:37:18,14:50:56,NA,incomplete,false,NA,true,NA,3,9,NA,NA,NA,right,NA,NA,NA,absent,NA,NA,m_l_008.jpg,black,n_s_009.jpg,black,within,NA,NaN,NA,NA,NA,NA,left,3876.3000000715256,0,1,1261.5
pEfC6ERe,3k2cedradeesg9mhvkrgq648pmomto,32ktq2v7rhsbjebxogr1oqzozqtm9d,pEfC6ERe,2020-0188,2021-10-30,13:37:18,14:50:56,NA,incomplete,false,NA,true,NA,3,10,NA,NA,NA,left,NA,NA,NA,absent,NA,NA,n_s_012.jpg,green,m_s_024.jpg,green,within,NA,NaN,NA,NA,NA,NA,left,2187.399999976158,1,2,1515
pEfC6ERe,3k2cedradeesg9mhvkrgq648pmomto,32ktq2v7rhsbjebxogr1oqzozqtm9d,pEfC6ERe,2020-0188,2021-10-30,13:37:18,14:50:56,NA,incomplete,false,true,NA,NA,4,0,NA,white,m_s_072.jpg,NA,NA,NA,NA,NA,pleasant,unpleasant,NA,NA,NA,NA,NA,right,2809.80000007153,true,NA,NA,NA,NA,NA,NA,NA,NA
pEfC6ERe,3k2cedradeesg9mhvkrgq648pmomto,32ktq2v7rhsbjebxogr1oqzozqtm9d,pEfC6ERe,2020-0188,2021-10-30,13:37:18,14:50:56,NA,incomplete,false,true,NA,NA,4,1,NA,white,n_l_115.jpg,NA,NA,NA,NA,NA,pleasant,unpleasant,NA,NA,NA,NA,NA,left,1661.69999992847,true,NA,NA,NA,NA,NA,NA,NA,NA
pEfC6ERe,3k2cedradeesg9mhvkrgq648pmomto,32ktq2v7rhsbjebxogr1oqzozqtm9d,pEfC6ERe,2020-0188,2021-10-30,13:37:18,14:50:56,NA,incomplete,false,true,NA,NA,4,2,NA,white,n_s_090.jpg,NA,NA,NA,NA,NA,unpleasant,pleasant,NA,NA,NA,NA,NA,right,2346.70000004768,true,NA,NA,NA,NA,NA,NA,NA,NA
pEfC6ERe,3k2cedradeesg9mhvkrgq648pmomto,32ktq2v7rhsbjebxogr1oqzozqtm9d,pEfC6ERe,2020-0188,2021-10-30,13:37:18,14:50:56,NA,incomplete,false,true,NA,NA,4,3,NA,white,n_s_040.jpg,NA,NA,NA,NA,NA,pleasant,unpleasant,NA,NA,NA,NA,NA,right,1446.60000002384,true,NA,NA,NA,NA,NA,NA,NA,NA
pEfC6ERe,3k2cedradeesg9mhvkrgq648pmomto,32ktq2v7rhsbjebxogr1oqzozqtm9d,pEfC6ERe,2020-0188,2021-10-30,13:37:18,14:50:56,NA,incomplete,false,true,NA,NA,4,4,NA,white,n_s_109.jpg,NA,NA,NA,NA,NA,pleasant,unpleasant,NA,NA,NA,NA,NA,left,1424.70000004768,true,NA,NA,NA,NA,NA,NA,NA,NA
pEfC6ERe,3k2cedradeesg9mhvkrgq648pmomto,32ktq2v7rhsbjebxogr1oqzozqtm9d,pEfC6ERe,2020-0188,2021-10-30,13:37:18,14:50:56,NA,incomplete,false,true,NA,NA,4,5,NA,white,m_l_016.jpg,NA,NA,NA,NA,NA,unpleasant,pleasant,NA,NA,NA,NA,NA,right,1592.19999992847,true,NA,NA,NA,NA,NA,NA,NA,NA
pEfC6ERe,3k2cedradeesg9mhvkrgq648pmomto,32ktq2v7rhsbjebxogr1oqzozqtm9d,pEfC6ERe,2020-0188,2021-10-30,13:37:18,14:50:56,NA,incomplete,false,true,NA,NA,4,6,NA,green,m_s_089.jpg,NA,NA,NA,NA,NA,pleasant,unpleasant,NA,NA,NA,NA,NA,left,1641.60000002384,true,NA,NA,NA,NA,NA,NA,NA,NA
pEfC6ERe,3k2cedradeesg9mhvkrgq648pmomto,32ktq2v7rhsbjebxogr1oqzozqtm9d,pEfC6ERe,2020-0188,2021-10-30,13:37:18,14:50:56,NA,incomplete,false,true,NA,NA,4,7,NA,green,m_l_017.jpg,NA,NA,NA,NA,NA,pleasant,unpleasant,NA,NA,NA,NA,NA,left,1375.80000007153,true,NA,NA,NA,NA,NA,NA,NA,NA
pEfC6ERe,3k2cedradeesg9mhvkrgq648pmomto,32ktq2v7rhsbjebxogr1oqzozqtm9d,pEfC6ERe,2020-0188,2021-10-30,13:37:18,14:50:56,NA,incomplete,false,true,NA,NA,4,8,NA,green,n_s_056.jpg,NA,NA,NA,NA,NA,pleasant,unpleasant,NA,NA,NA,NA,NA,left,1397.59999990463,true,NA,NA,NA,NA,NA,NA,NA,NA
pEfC6ERe,3k2cedradeesg9mhvkrgq648pmomto,32ktq2v7rhsbjebxogr1oqzozqtm9d,pEfC6ERe,2020-0188,2021-10-30,13:37:18,14:50:56,NA,incomplete,false,true,NA,NA,4,9,NA,green,n_s_103.jpg,NA,NA,NA,NA,NA,pleasant,unpleasant,NA,NA,NA,NA,NA,left,1288.79999995232,true,NA,NA,NA,NA,NA,NA,NA,NA
pEfC6ERe,3k2cedradeesg9mhvkrgq648pmomto,32ktq2v7rhsbjebxogr1oqzozqtm9d,pEfC6ERe,2020-0188,2021-10-30,13:37:18,14:50:56,NA,incomplete,false,true,NA,NA,4,10,NA,green,n_s_002.jpg,NA,NA,NA,NA,NA,unpleasant,pleasant,NA,NA,NA,NA,NA,right,1391.20000004768,true,NA,NA,NA,NA,NA,NA,NA,NA
pEfC6ERe,3k2cedradeesg9mhvkrgq648pmomto,32ktq2v7rhsbjebxogr1oqzozqtm9d,pEfC6ERe,2020-0188,2021-10-30,13:37:18,14:50:56,NA,incomplete,false,true,NA,NA,4,11,NA,green,m_l_020.jpg,NA,NA,NA,NA,NA,unpleasant,pleasant,NA,NA,NA,NA,NA,right,2277.89999997616,true,NA,NA,NA,NA,NA,NA,NA,NA
pEfC6ERe,3k2cedradeesg9mhvkrgq648pmomto,32ktq2v7rhsbjebxogr1oqzozqtm9d,pEfC6ERe,2020-0188,2021-10-30,13:37:18,14:50:56,NA,incomplete,false,true,NA,NA,4,12,NA,purple,m_s_066.jpg,NA,NA,NA,NA,NA,unpleasant,pleasant,NA,NA,NA,NA,NA,left,1502.59999990463,true,NA,NA,NA,NA,NA,NA,NA,NA
pEfC6ERe,3k2cedradeesg9mhvkrgq648pmomto,32ktq2v7rhsbjebxogr1oqzozqtm9d,pEfC6ERe,2020-0188,2021-10-30,13:37:18,14:50:56,NA,incomplete,false,true,NA,NA,4,13,NA,purple,m_l_079.jpg,NA,NA,NA,NA,NA,pleasant,unpleasant,NA,NA,NA,NA,NA,right,1546.89999997616,true,NA,NA,NA,NA,NA,NA,NA,NA
pEfC6ERe,3k2cedradeesg9mhvkrgq648pmomto,32ktq2v7rhsbjebxogr1oqzozqtm9d,pEfC6ERe,2020-0188,2021-10-30,13:37:18,14:50:56,NA,incomplete,false,true,NA,NA,4,14,NA,purple,n_l_025.jpg,NA,NA,NA,NA,NA,unpleasant,pleasant,NA,NA,NA,NA,NA,right,1750.30000007153,true,NA,NA,NA,NA,NA,NA,NA,NA
pEfC6ERe,3k2cedradeesg9mhvkrgq648pmomto,32ktq2v7rhsbjebxogr1oqzozqtm9d,pEfC6ERe,2020-0188,2021-10-30,13:37:18,14:50:56,NA,incomplete,false,true,NA,NA,4,15,NA,purple,m_s_112.jpg,NA,NA,NA,NA,NA,unpleasant,pleasant,NA,NA,NA,NA,NA,right,2143.09999990463,true,NA,NA,NA,NA,NA,NA,NA,NA
pEfC6ERe,3k2cedradeesg9mhvkrgq648pmomto,32ktq2v7rhsbjebxogr1oqzozqtm9d,pEfC6ERe,2020-0188,2021-10-30,13:37:18,14:50:56,NA,incomplete,false,true,NA,NA,4,16,NA,purple,n_l_110.jpg,NA,NA,NA,NA,NA,unpleasant,pleasant,NA,NA,NA,NA,NA,right,1238.59999990463,true,NA,NA,NA,NA,NA,NA,NA,NA
pEfC6ERe,3k2cedradeesg9mhvkrgq648pmomto,32ktq2v7rhsbjebxogr1oqzozqtm9d,pEfC6ERe,2020-0188,2021-10-30,13:37:18,14:50:56,NA,incomplete,false,true,NA,NA,4,17,NA,purple,m_s_097.jpg,NA,NA,NA,NA,NA,pleasant,unpleasant,NA,NA,NA,NA,NA,right,1500.69999992847,true,NA,NA,NA,NA,NA,NA,NA,NA
pEfC6ERe,3k2cedradeesg9mhvkrgq648pmomto,32ktq2v7rhsbjebxogr1oqzozqtm9d,pEfC6ERe,2020-0188,2021-10-30,13:37:18,14:50:56,NA,incomplete,false,true,NA,NA,4,18,NA,black,n_s_083.jpg,NA,NA,NA,NA,NA,pleasant,unpleasant,NA,NA,NA,NA,NA,left,1736.89999997616,true,NA,NA,NA,NA,NA,NA,NA,NA
pEfC6ERe,3k2cedradeesg9mhvkrgq648pmomto,32ktq2v7rhsbjebxogr1oqzozqtm9d,pEfC6ERe,2020-0188,2021-10-30,13:37:18,14:50:56,NA,incomplete,false,true,NA,NA,4,19,NA,black,m_s_111.jpg,NA,NA,NA,NA,NA,pleasant,unpleasant,NA,NA,NA,NA,NA,left,1508.59999990463,true,NA,NA,NA,NA,NA,NA,NA,NA
pEfC6ERe,3k2cedradeesg9mhvkrgq648pmomto,32ktq2v7rhsbjebxogr1oqzozqtm9d,pEfC6ERe,2020-0188,2021-10-30,13:37:18,14:50:56,NA,incomplete,false,true,NA,NA,4,20,NA,black,m_s_085.jpg,NA,NA,NA,NA,NA,unpleasant,pleasant,NA,NA,NA,NA,NA,right,1749.70000004768,true,NA,NA,NA,NA,NA,NA,NA,NA
pEfC6ERe,3k2cedradeesg9mhvkrgq648pmomto,32ktq2v7rhsbjebxogr1oqzozqtm9d,pEfC6ERe,2020-0188,2021-10-30,13:37:18,14:50:56,NA,incomplete,false,true,NA,NA,4,21,NA,black,n_l_089.jpg,NA,NA,NA,NA,NA,unpleasant,pleasant,NA,NA,NA,NA,NA,right,1411.20000004768,true,NA,NA,NA,NA,NA,NA,NA,NA
pEfC6ERe,3k2cedradeesg9mhvkrgq648pmomto,32ktq2v7rhsbjebxogr1oqzozqtm9d,pEfC6ERe,2020-0188,2021-10-30,13:37:18,14:50:56,NA,incomplete,false,true,NA,NA,4,22,NA,black,m_l_042.jpg,NA,NA,NA,NA,NA,unpleasant,pleasant,NA,NA,NA,NA,NA,right,1365.5,true,NA,NA,NA,NA,NA,NA,NA,NA
pEfC6ERe,3k2cedradeesg9mhvkrgq648pmomto,32ktq2v7rhsbjebxogr1oqzozqtm9d,pEfC6ERe,2020-0188,2021-10-30,13:37:18,14:50:56,NA,incomplete,false,true,NA,NA,4,23,NA,black,n_s_044.jpg,NA,NA,NA,NA,NA,pleasant,unpleasant,NA,NA,NA,NA,NA,right,1781.60000002384,true,NA,NA,NA,NA,NA,NA,NA,NA
pEfC6ERe,3k2cedradeesg9mhvkrgq648pmomto,32ktq2v7rhsbjebxogr1oqzozqtm9d,pEfC6ERe,2020-0188,2021-10-30,13:37:18,14:50:56,NA,incomplete,false,true,NA,NA,4,24,NA,red,m_s_077.jpg,NA,NA,NA,NA,NA,unpleasant,pleasant,NA,NA,NA,NA,NA,right,2163.39999997616,true,NA,NA,NA,NA,NA,NA,NA,NA
pEfC6ERe,3k2cedradeesg9mhvkrgq648pmomto,32ktq2v7rhsbjebxogr1oqzozqtm9d,pEfC6ERe,2020-0188,2021-10-30,13:37:18,14:50:56,NA,incomplete,false,true,NA,NA,4,25,NA,red,m_l_034.jpg,NA,NA,NA,NA,NA,unpleasant,pleasant,NA,NA,NA,NA,NA,right,1231.20000004768,true,NA,NA,NA,NA,NA,NA,NA,NA
pEfC6ERe,3k2cedradeesg9mhvkrgq648pmomto,32ktq2v7rhsbjebxogr1oqzozqtm9d,pEfC6ERe,2020-0188,2021-10-30,13:37:18,14:50:56,NA,incomplete,false,true,NA,NA,4,26,NA,red,m_s_021.jpg,NA,NA,NA,NA,NA,unpleasant,pleasant,NA,NA,NA,NA,NA,left,2487.19999992847,true,NA,NA,NA,NA,NA,NA,NA,NA
pEfC6ERe,3k2cedradeesg9mhvkrgq648pmomto,32ktq2v7rhsbjebxogr1oqzozqtm9d,pEfC6ERe,2020-0188,2021-10-30,13:37:18,14:50:56,NA,incomplete,false,true,NA,NA,4,27,NA,red,n_l_068.jpg,NA,NA,NA,NA,NA,unpleasant,pleasant,NA,NA,NA,NA,NA,right,1535.20000004768,true,NA,NA,NA,NA,NA,NA,NA,NA
pEfC6ERe,3k2cedradeesg9mhvkrgq648pmomto,32ktq2v7rhsbjebxogr1oqzozqtm9d,pEfC6ERe,2020-0188,2021-10-30,13:37:18,14:50:56,NA,incomplete,false,true,NA,NA,4,28,NA,red,m_s_026.jpg,NA,NA,NA,NA,NA,pleasant,unpleasant,NA,NA,NA,NA,NA,right,1893.10000002384,true,NA,NA,NA,NA,NA,NA,NA,NA
pEfC6ERe,3k2cedradeesg9mhvkrgq648pmomto,32ktq2v7rhsbjebxogr1oqzozqtm9d,pEfC6ERe,2020-0188,2021-10-30,13:37:18,14:50:56,NA,incomplete,false,true,NA,NA,4,29,NA,red,n_s_022.jpg,NA,NA,NA,NA,NA,pleasant,unpleasant,NA,NA,NA,NA,NA,right,1297.09999990463,true,NA,NA,NA,NA,NA,NA,NA,NA
pEfC6ERe,3k2cedradeesg9mhvkrgq648pmomto,32ktq2v7rhsbjebxogr1oqzozqtm9d,pEfC6ERe,2020-0188,2021-10-30,13:37:18,14:50:56,NA,incomplete,false,true,NA,NA,4,30,NA,gray,m_l_057.jpg,NA,NA,NA,NA,NA,pleasant,unpleasant,NA,NA,NA,NA,NA,right,1489.20000004768,true,NA,NA,NA,NA,NA,NA,NA,NA
pEfC6ERe,3k2cedradeesg9mhvkrgq648pmomto,32ktq2v7rhsbjebxogr1oqzozqtm9d,pEfC6ERe,2020-0188,2021-10-30,13:37:18,14:50:56,NA,incomplete,false,true,NA,NA,4,31,NA,gray,m_l_069.jpg,NA,NA,NA,NA,NA,pleasant,unpleasant,NA,NA,NA,NA,NA,right,2186.30000007153,true,NA,NA,NA,NA,NA,NA,NA,NA
pEfC6ERe,3k2cedradeesg9mhvkrgq648pmomto,32ktq2v7rhsbjebxogr1oqzozqtm9d,pEfC6ERe,2020-0188,2021-10-30,13:37:18,14:50:56,NA,incomplete,false,true,NA,NA,4,32,NA,gray,n_l_112.jpg,NA,NA,NA,NA,NA,unpleasant,pleasant,NA,NA,NA,NA,NA,right,1667.39999997616,true,NA,NA,NA,NA,NA,NA,NA,NA
pEfC6ERe,3k2cedradeesg9mhvkrgq648pmomto,32ktq2v7rhsbjebxogr1oqzozqtm9d,pEfC6ERe,2020-0188,2021-10-30,13:37:18,14:50:56,NA,incomplete,false,true,NA,NA,4,33,NA,gray,n_s_078.jpg,NA,NA,NA,NA,NA,pleasant,unpleasant,NA,NA,NA,NA,NA,left,1868.70000004768,true,NA,NA,NA,NA,NA,NA,NA,NA
pEfC6ERe,3k2cedradeesg9mhvkrgq648pmomto,32ktq2v7rhsbjebxogr1oqzozqtm9d,pEfC6ERe,2020-0188,2021-10-30,13:37:18,14:50:56,NA,incomplete,false,true,NA,NA,4,34,NA,gray,m_s_014.jpg,NA,NA,NA,NA,NA,pleasant,unpleasant,NA,NA,NA,NA,NA,left,1810.69999992847,true,NA,NA,NA,NA,NA,NA,NA,NA
pEfC6ERe,3k2cedradeesg9mhvkrgq648pmomto,32ktq2v7rhsbjebxogr1oqzozqtm9d,pEfC6ERe,2020-0188,2021-10-30,13:37:18,14:50:56,NA,incomplete,false,true,NA,NA,4,35,NA,gray,n_l_083.jpg,NA,NA,NA,NA,NA,unpleasant,pleasant,NA,NA,NA,NA,NA,right,1555.90000009537,true,NA,NA,NA,NA,NA,NA,NA,NA
pEfC6ERe,3k2cedradeesg9mhvkrgq648pmomto,32ktq2v7rhsbjebxogr1oqzozqtm9d,pEfC6ERe,2020-0188,2021-10-30,13:37:18,14:50:56,NA,incomplete,false,NA,NA,true,4,0,NA,NA,NA,left,n_s_044.jpg,black,red,NA,NA,NA,NA,NA,NA,NA,NA,NA,NaN,NA,2928,left,1,NA,NA,NA,NA,NA
pEfC6ERe,3k2cedradeesg9mhvkrgq648pmomto,32ktq2v7rhsbjebxogr1oqzozqtm9d,pEfC6ERe,2020-0188,2021-10-30,13:37:18,14:50:56,NA,incomplete,false,NA,NA,true,4,1,NA,NA,NA,left,n_s_056.jpg,green,purple,NA,NA,NA,NA,NA,NA,NA,NA,NA,NaN,NA,2614.100000023842,left,1,NA,NA,NA,NA,NA
pEfC6ERe,3k2cedradeesg9mhvkrgq648pmomto,32ktq2v7rhsbjebxogr1oqzozqtm9d,pEfC6ERe,2020-0188,2021-10-30,13:37:18,14:50:56,NA,incomplete,false,NA,NA,true,4,2,NA,NA,NA,left,m_s_026.jpg,red,gray,NA,NA,NA,NA,NA,NA,NA,NA,NA,NaN,NA,2307.7000000476837,right,0,NA,NA,NA,NA,NA
pEfC6ERe,3k2cedradeesg9mhvkrgq648pmomto,32ktq2v7rhsbjebxogr1oqzozqtm9d,pEfC6ERe,2020-0188,2021-10-30,13:37:18,14:50:56,NA,incomplete,false,NA,NA,true,4,3,NA,NA,NA,left,n_l_115.jpg,white,green,NA,NA,NA,NA,NA,NA,NA,NA,NA,NaN,NA,4002.2999999523163,left,1,NA,NA,NA,NA,NA
pEfC6ERe,3k2cedradeesg9mhvkrgq648pmomto,32ktq2v7rhsbjebxogr1oqzozqtm9d,pEfC6ERe,2020-0188,2021-10-30,13:37:18,14:50:56,NA,incomplete,false,NA,NA,true,4,4,NA,NA,NA,left,m_l_020.jpg,green,white,NA,NA,NA,NA,NA,NA,NA,NA,NA,NaN,NA,2652.899999976158,right,0,NA,NA,NA,NA,NA
pEfC6ERe,3k2cedradeesg9mhvkrgq648pmomto,32ktq2v7rhsbjebxogr1oqzozqtm9d,pEfC6ERe,2020-0188,2021-10-30,13:37:18,14:50:56,NA,incomplete,false,NA,NA,true,4,5,NA,NA,NA,left,n_l_025.jpg,purple,black,NA,NA,NA,NA,NA,NA,NA,NA,NA,NaN,NA,3000.899999976158,right,0,NA,NA,NA,NA,NA
pEfC6ERe,3k2cedradeesg9mhvkrgq648pmomto,32ktq2v7rhsbjebxogr1oqzozqtm9d,pEfC6ERe,2020-0188,2021-10-30,13:37:18,14:50:56,NA,incomplete,false,NA,NA,true,4,6,NA,NA,NA,right,m_s_111.jpg,purple,black,NA,NA,NA,NA,NA,NA,NA,NA,NA,NaN,NA,2533.600000023842,right,1,NA,NA,NA,NA,NA
pEfC6ERe,3k2cedradeesg9mhvkrgq648pmomto,32ktq2v7rhsbjebxogr1oqzozqtm9d,pEfC6ERe,2020-0188,2021-10-30,13:37:18,14:50:56,NA,incomplete,false,NA,NA,true,4,7,NA,NA,NA,left,m_l_042.jpg,black,purple,NA,NA,NA,NA,NA,NA,NA,NA,NA,NaN,NA,2136.2999999523163,right,0,NA,NA,NA,NA,NA
pEfC6ERe,3k2cedradeesg9mhvkrgq648pmomto,32ktq2v7rhsbjebxogr1oqzozqtm9d,pEfC6ERe,2020-0188,2021-10-30,13:37:18,14:50:56,NA,incomplete,false,NA,NA,true,4,8,NA,NA,NA,left,m_l_079.jpg,purple,green,NA,NA,NA,NA,NA,NA,NA,NA,NA,NaN,NA,2575.399999976158,right,0,NA,NA,NA,NA,NA
pEfC6ERe,3k2cedradeesg9mhvkrgq648pmomto,32ktq2v7rhsbjebxogr1oqzozqtm9d,pEfC6ERe,2020-0188,2021-10-30,13:37:18,14:50:56,NA,incomplete,false,NA,NA,true,4,9,NA,NA,NA,right,m_l_034.jpg,gray,red,NA,NA,NA,NA,NA,NA,NA,NA,NA,NaN,NA,2280.100000023842,left,0,NA,NA,NA,NA,NA
pEfC6ERe,3k2cedradeesg9mhvkrgq648pmomto,32ktq2v7rhsbjebxogr1oqzozqtm9d,pEfC6ERe,2020-0188,2021-10-30,13:37:18,14:50:56,NA,incomplete,false,NA,NA,true,4,10,NA,NA,NA,right,m_l_017.jpg,white,green,NA,NA,NA,NA,NA,NA,NA,NA,NA,NaN,NA,3722.2000000476837,right,1,NA,NA,NA,NA,NA
pEfC6ERe,3k2cedradeesg9mhvkrgq648pmomto,32ktq2v7rhsbjebxogr1oqzozqtm9d,pEfC6ERe,2020-0188,2021-10-30,13:37:18,14:50:56,NA,incomplete,false,NA,NA,true,4,11,NA,NA,NA,right,n_l_112.jpg,red,gray,NA,NA,NA,NA,NA,NA,NA,NA,NA,NaN,NA,3016.5,left,0,NA,NA,NA,NA,NA
pEfC6ERe,3k2cedradeesg9mhvkrgq648pmomto,32ktq2v7rhsbjebxogr1oqzozqtm9d,pEfC6ERe,2020-0188,2021-10-30,13:37:18,14:50:56,NA,incomplete,false,NA,NA,true,4,12,NA,NA,NA,right,m_s_021.jpg,gray,red,NA,NA,NA,NA,NA,NA,NA,NA,NA,NaN,NA,2067.2000000476837,left,0,NA,NA,NA,NA,NA
pEfC6ERe,3k2cedradeesg9mhvkrgq648pmomto,32ktq2v7rhsbjebxogr1oqzozqtm9d,pEfC6ERe,2020-0188,2021-10-30,13:37:18,14:50:56,NA,incomplete,false,NA,NA,true,4,13,NA,NA,NA,left,n_l_083.jpg,gray,red,NA,NA,NA,NA,NA,NA,NA,NA,NA,NaN,NA,4151.600000023842,left,1,NA,NA,NA,NA,NA
pEfC6ERe,3k2cedradeesg9mhvkrgq648pmomto,32ktq2v7rhsbjebxogr1oqzozqtm9d,pEfC6ERe,2020-0188,2021-10-30,13:37:18,14:50:56,NA,incomplete,false,NA,NA,true,4,14,NA,NA,NA,right,n_s_002.jpg,purple,green,NA,NA,NA,NA,NA,NA,NA,NA,NA,NaN,NA,2708.2000000476837,left,0,NA,NA,NA,NA,NA
pEfC6ERe,3k2cedradeesg9mhvkrgq648pmomto,32ktq2v7rhsbjebxogr1oqzozqtm9d,pEfC6ERe,2020-0188,2021-10-30,13:37:18,14:50:56,NA,incomplete,false,NA,NA,true,4,15,NA,NA,NA,right,m_l_016.jpg,green,white,NA,NA,NA,NA,NA,NA,NA,NA,NA,NaN,NA,2059.5,right,1,NA,NA,NA,NA,NA
pEfC6ERe,3k2cedradeesg9mhvkrgq648pmomto,32ktq2v7rhsbjebxogr1oqzozqtm9d,pEfC6ERe,2020-0188,2021-10-30,13:37:18,14:50:56,NA,incomplete,false,NA,NA,true,4,16,NA,NA,NA,right,m_l_069.jpg,red,gray,NA,NA,NA,NA,NA,NA,NA,NA,NA,NaN,NA,2033.8999999761581,right,1,NA,NA,NA,NA,NA
pEfC6ERe,3k2cedradeesg9mhvkrgq648pmomto,32ktq2v7rhsbjebxogr1oqzozqtm9d,pEfC6ERe,2020-0188,2021-10-30,13:37:18,14:50:56,NA,incomplete,false,NA,NA,true,4,17,NA,NA,NA,left,m_s_085.jpg,black,red,NA,NA,NA,NA,NA,NA,NA,NA,NA,NaN,NA,1718.8000000715256,left,1,NA,NA,NA,NA,NA
pEfC6ERe,3k2cedradeesg9mhvkrgq648pmomto,32ktq2v7rhsbjebxogr1oqzozqtm9d,pEfC6ERe,2020-0188,2021-10-30,13:37:18,14:50:56,NA,incomplete,false,NA,NA,true,4,18,NA,NA,NA,right,n_s_109.jpg,green,white,NA,NA,NA,NA,NA,NA,NA,NA,NA,NaN,NA,1687.3999999761581,right,1,NA,NA,NA,NA,NA
pEfC6ERe,3k2cedradeesg9mhvkrgq648pmomto,32ktq2v7rhsbjebxogr1oqzozqtm9d,pEfC6ERe,2020-0188,2021-10-30,13:37:18,14:50:56,NA,incomplete,false,NA,NA,true,4,19,NA,NA,NA,left,n_s_022.jpg,red,gray,NA,NA,NA,NA,NA,NA,NA,NA,NA,NaN,NA,2375.4000000953674,left,1,NA,NA,NA,NA,NA
pEfC6ERe,3k2cedradeesg9mhvkrgq648pmomto,32ktq2v7rhsbjebxogr1oqzozqtm9d,pEfC6ERe,2020-0188,2021-10-30,13:37:18,14:50:56,NA,incomplete,false,NA,NA,true,4,20,NA,NA,NA,right,n_l_110.jpg,black,purple,NA,NA,NA,NA,NA,NA,NA,NA,NA,NaN,NA,2867.5,right,1,NA,NA,NA,NA,NA
pEfC6ERe,3k2cedradeesg9mhvkrgq648pmomto,32ktq2v7rhsbjebxogr1oqzozqtm9d,pEfC6ERe,2020-0188,2021-10-30,13:37:18,14:50:56,NA,incomplete,false,NA,NA,true,4,21,NA,NA,NA,right,m_s_097.jpg,black,purple,NA,NA,NA,NA,NA,NA,NA,NA,NA,NaN,NA,2899.399999976158,left,0,NA,NA,NA,NA,NA
pEfC6ERe,3k2cedradeesg9mhvkrgq648pmomto,32ktq2v7rhsbjebxogr1oqzozqtm9d,pEfC6ERe,2020-0188,2021-10-30,13:37:18,14:50:56,NA,incomplete,false,NA,true,NA,4,0,NA,NA,NA,right,NA,NA,NA,absent,NA,NA,n_s_044.jpg,black,m_s_111.jpg,black,within,NA,NaN,NA,NA,NA,NA,right,2430.600000023842,1,2,1632.3999999761581
pEfC6ERe,3k2cedradeesg9mhvkrgq648pmomto,32ktq2v7rhsbjebxogr1oqzozqtm9d,pEfC6ERe,2020-0188,2021-10-30,13:37:18,14:50:56,NA,incomplete,false,NA,true,NA,4,1,NA,NA,NA,left,NA,NA,NA,absent,NA,NA,n_s_109.jpg,white,n_s_056.jpg,green,between,NA,NaN,NA,NA,NA,NA,right,2673.600000023842,0,2,1394.4000000953674
pEfC6ERe,3k2cedradeesg9mhvkrgq648pmomto,32ktq2v7rhsbjebxogr1oqzozqtm9d,pEfC6ERe,2020-0188,2021-10-30,13:37:18,14:50:56,NA,incomplete,false,NA,true,NA,4,2,NA,NA,NA,left,NA,NA,NA,absent,NA,NA,m_s_026.jpg,red,n_l_112.jpg,gray,between,NA,NaN,NA,NA,NA,NA,left,1940.8999999761581,1,1,1021.8000000715256
pEfC6ERe,3k2cedradeesg9mhvkrgq648pmomto,32ktq2v7rhsbjebxogr1oqzozqtm9d,pEfC6ERe,2020-0188,2021-10-30,13:37:18,14:50:56,NA,incomplete,false,NA,true,NA,4,3,NA,NA,NA,left,NA,NA,NA,absent,NA,NA,m_l_079.jpg,purple,m_s_097.jpg,purple,within,NA,NaN,NA,NA,NA,NA,right,4439.200000047684,0,1,1678.5999999046326
pEfC6ERe,3k2cedradeesg9mhvkrgq648pmomto,32ktq2v7rhsbjebxogr1oqzozqtm9d,pEfC6ERe,2020-0188,2021-10-30,13:37:18,14:50:56,NA,incomplete,false,NA,true,NA,4,4,NA,NA,NA,right,NA,NA,NA,absent,NA,NA,m_l_016.jpg,white,n_l_115.jpg,white,within,NA,NaN,NA,NA,NA,NA,right,2345.3000000715256,1,2,1199.6000000238419
pEfC6ERe,3k2cedradeesg9mhvkrgq648pmomto,32ktq2v7rhsbjebxogr1oqzozqtm9d,pEfC6ERe,2020-0188,2021-10-30,13:37:18,14:50:56,NA,incomplete,false,NA,true,NA,4,5,NA,NA,NA,right,NA,NA,NA,absent,NA,NA,m_s_021.jpg,red,m_l_042.jpg,black,between,NA,NaN,NA,NA,NA,NA,right,2561.2999999523163,1,2,1200.5
pEfC6ERe,3k2cedradeesg9mhvkrgq648pmomto,32ktq2v7rhsbjebxogr1oqzozqtm9d,pEfC6ERe,2020-0188,2021-10-30,13:37:18,14:50:56,NA,incomplete,false,NA,true,NA,4,6,NA,NA,NA,right,NA,NA,NA,absent,NA,NA,n_s_022.jpg,red,m_l_034.jpg,red,within,NA,NaN,NA,NA,NA,NA,right,3049.2999999523163,1,2,1079.7999999523163
pEfC6ERe,3k2cedradeesg9mhvkrgq648pmomto,32ktq2v7rhsbjebxogr1oqzozqtm9d,pEfC6ERe,2020-0188,2021-10-30,13:37:18,14:50:56,NA,incomplete,false,NA,true,NA,4,7,NA,NA,NA,right,NA,NA,NA,absent,NA,NA,n_l_025.jpg,purple,n_s_002.jpg,green,between,NA,NaN,NA,NA,NA,NA,right,2090.399999976158,1,1,1023.1999999284744
pEfC6ERe,3k2cedradeesg9mhvkrgq648pmomto,32ktq2v7rhsbjebxogr1oqzozqtm9d,pEfC6ERe,2020-0188,2021-10-30,13:37:18,14:50:56,NA,incomplete,false,NA,true,NA,4,8,NA,NA,NA,right,NA,NA,NA,absent,NA,NA,m_l_020.jpg,green,m_l_017.jpg,green,within,NA,NaN,NA,NA,NA,NA,right,2393,1,2,1143.2000000476837
pEfC6ERe,3k2cedradeesg9mhvkrgq648pmomto,32ktq2v7rhsbjebxogr1oqzozqtm9d,pEfC6ERe,2020-0188,2021-10-30,13:37:18,14:50:56,NA,incomplete,false,NA,true,NA,4,9,NA,NA,NA,right,NA,NA,NA,absent,NA,NA,m_s_085.jpg,black,n_l_110.jpg,purple,between,NA,NaN,NA,NA,NA,NA,right,3730.399999976158,1,1,1458.2000000476837
pEfC6ERe,3k2cedradeesg9mhvkrgq648pmomto,32ktq2v7rhsbjebxogr1oqzozqtm9d,pEfC6ERe,2020-0188,2021-10-30,13:37:18,14:50:56,NA,incomplete,false,NA,true,NA,4,10,NA,NA,NA,right,NA,NA,NA,absent,NA,NA,n_l_083.jpg,gray,m_l_069.jpg,gray,within,NA,NaN,NA,NA,NA,NA,right,2999.2000000476837,1,1,1139.7999999523163
pEfC6ERe,3k2cedradeesg9mhvkrgq648pmomto,32ktq2v7rhsbjebxogr1oqzozqtm9d,pEfC6ERe,2020-0188,2021-10-30,13:37:18,14:50:56,NA,incomplete,false,true,NA,NA,5,0,NA,black,m_l_039.jpg,NA,NA,NA,NA,NA,pleasant,unpleasant,NA,NA,NA,NA,NA,right,2597.59999990463,true,NA,NA,NA,NA,NA,NA,NA,NA
pEfC6ERe,3k2cedradeesg9mhvkrgq648pmomto,32ktq2v7rhsbjebxogr1oqzozqtm9d,pEfC6ERe,2020-0188,2021-10-30,13:37:18,14:50:56,NA,incomplete,false,true,NA,NA,5,1,NA,black,m_s_061.jpg,NA,NA,NA,NA,NA,pleasant,unpleasant,NA,NA,NA,NA,NA,right,1438.30000007153,true,NA,NA,NA,NA,NA,NA,NA,NA
pEfC6ERe,3k2cedradeesg9mhvkrgq648pmomto,32ktq2v7rhsbjebxogr1oqzozqtm9d,pEfC6ERe,2020-0188,2021-10-30,13:37:18,14:50:56,NA,incomplete,false,true,NA,NA,5,2,NA,black,m_l_053.jpg,NA,NA,NA,NA,NA,unpleasant,pleasant,NA,NA,NA,NA,NA,left,1528.30000007153,true,NA,NA,NA,NA,NA,NA,NA,NA
pEfC6ERe,3k2cedradeesg9mhvkrgq648pmomto,32ktq2v7rhsbjebxogr1oqzozqtm9d,pEfC6ERe,2020-0188,2021-10-30,13:37:18,14:50:56,NA,incomplete,false,true,NA,NA,5,3,NA,black,m_s_101.jpg,NA,NA,NA,NA,NA,pleasant,unpleasant,NA,NA,NA,NA,NA,right,1514.79999995232,true,NA,NA,NA,NA,NA,NA,NA,NA
pEfC6ERe,3k2cedradeesg9mhvkrgq648pmomto,32ktq2v7rhsbjebxogr1oqzozqtm9d,pEfC6ERe,2020-0188,2021-10-30,13:37:18,14:50:56,NA,incomplete,false,true,NA,NA,5,4,NA,black,m_s_040.jpg,NA,NA,NA,NA,NA,pleasant,unpleasant,NA,NA,NA,NA,NA,right,1473.10000002384,true,NA,NA,NA,NA,NA,NA,NA,NA
pEfC6ERe,3k2cedradeesg9mhvkrgq648pmomto,32ktq2v7rhsbjebxogr1oqzozqtm9d,pEfC6ERe,2020-0188,2021-10-30,13:37:18,14:50:56,NA,incomplete,false,true,NA,NA,5,5,NA,black,n_l_091.jpg,NA,NA,NA,NA,NA,unpleasant,pleasant,NA,NA,NA,NA,NA,right,1627.5,true,NA,NA,NA,NA,NA,NA,NA,NA
pEfC6ERe,3k2cedradeesg9mhvkrgq648pmomto,32ktq2v7rhsbjebxogr1oqzozqtm9d,pEfC6ERe,2020-0188,2021-10-30,13:37:18,14:50:56,NA,incomplete,false,true,NA,NA,5,6,NA,yellow,n_s_054.jpg,NA,NA,NA,NA,NA,unpleasant,pleasant,NA,NA,NA,NA,NA,right,2425.89999997616,true,NA,NA,NA,NA,NA,NA,NA,NA
pEfC6ERe,3k2cedradeesg9mhvkrgq648pmomto,32ktq2v7rhsbjebxogr1oqzozqtm9d,pEfC6ERe,2020-0188,2021-10-30,13:37:18,14:50:56,NA,incomplete,false,true,NA,NA,5,7,NA,yellow,n_l_056.jpg,NA,NA,NA,NA,NA,unpleasant,pleasant,NA,NA,NA,NA,NA,right,1560.10000002384,true,NA,NA,NA,NA,NA,NA,NA,NA
pEfC6ERe,3k2cedradeesg9mhvkrgq648pmomto,32ktq2v7rhsbjebxogr1oqzozqtm9d,pEfC6ERe,2020-0188,2021-10-30,13:37:18,14:50:56,NA,incomplete,false,true,NA,NA,5,8,NA,yellow,m_l_050.jpg,NA,NA,NA,NA,NA,unpleasant,pleasant,NA,NA,NA,NA,NA,right,1323.5,true,NA,NA,NA,NA,NA,NA,NA,NA
pEfC6ERe,3k2cedradeesg9mhvkrgq648pmomto,32ktq2v7rhsbjebxogr1oqzozqtm9d,pEfC6ERe,2020-0188,2021-10-30,13:37:18,14:50:56,NA,incomplete,false,true,NA,NA,5,9,NA,yellow,m_l_007.jpg,NA,NA,NA,NA,NA,pleasant,unpleasant,NA,NA,NA,NA,NA,right,1738.69999992847,true,NA,NA,NA,NA,NA,NA,NA,NA
pEfC6ERe,3k2cedradeesg9mhvkrgq648pmomto,32ktq2v7rhsbjebxogr1oqzozqtm9d,pEfC6ERe,2020-0188,2021-10-30,13:37:18,14:50:56,NA,incomplete,false,true,NA,NA,5,10,NA,yellow,m_l_035.jpg,NA,NA,NA,NA,NA,unpleasant,pleasant,NA,NA,NA,NA,NA,right,2031.79999995232,true,NA,NA,NA,NA,NA,NA,NA,NA
pEfC6ERe,3k2cedradeesg9mhvkrgq648pmomto,32ktq2v7rhsbjebxogr1oqzozqtm9d,pEfC6ERe,2020-0188,2021-10-30,13:37:18,14:50:56,NA,incomplete,false,true,NA,NA,5,11,NA,yellow,m_s_018.jpg,NA,NA,NA,NA,NA,unpleasant,pleasant,NA,NA,NA,NA,NA,left,2716.70000004768,true,NA,NA,NA,NA,NA,NA,NA,NA
pEfC6ERe,3k2cedradeesg9mhvkrgq648pmomto,32ktq2v7rhsbjebxogr1oqzozqtm9d,pEfC6ERe,2020-0188,2021-10-30,13:37:18,14:50:56,NA,incomplete,false,true,NA,NA,5,12,NA,purple,n_s_033.jpg,NA,NA,NA,NA,NA,unpleasant,pleasant,NA,NA,NA,NA,NA,right,2865.20000004768,true,NA,NA,NA,NA,NA,NA,NA,NA
pEfC6ERe,3k2cedradeesg9mhvkrgq648pmomto,32ktq2v7rhsbjebxogr1oqzozqtm9d,pEfC6ERe,2020-0188,2021-10-30,13:37:18,14:50:56,NA,incomplete,false,true,NA,NA,5,13,NA,purple,m_s_020.jpg,NA,NA,NA,NA,NA,pleasant,unpleasant,NA,NA,NA,NA,NA,left,1660.10000002384,true,NA,NA,NA,NA,NA,NA,NA,NA
pEfC6ERe,3k2cedradeesg9mhvkrgq648pmomto,32ktq2v7rhsbjebxogr1oqzozqtm9d,pEfC6ERe,2020-0188,2021-10-30,13:37:18,14:50:56,NA,incomplete,false,true,NA,NA,5,14,NA,purple,m_l_091.jpg,NA,NA,NA,NA,NA,pleasant,unpleasant,NA,NA,NA,NA,NA,left,1422.79999995232,true,NA,NA,NA,NA,NA,NA,NA,NA
pEfC6ERe,3k2cedradeesg9mhvkrgq648pmomto,32ktq2v7rhsbjebxogr1oqzozqtm9d,pEfC6ERe,2020-0188,2021-10-30,13:37:18,14:50:56,NA,incomplete,false,true,NA,NA,5,15,NA,purple,n_s_005.jpg,NA,NA,NA,NA,NA,pleasant,unpleasant,NA,NA,NA,NA,NA,left,1297.19999992847,true,NA,NA,NA,NA,NA,NA,NA,NA
