workerId,hitId,assignmentId,subject,studyid,exp_date,exp_start,exp_end,time_start,time_end,practice,encoding,memory,association,block,trial,event_order,event,stim,answer,object,left_context,right_context,context_type,label_left,label_right,left_image,left_event,right_image,right_event,condition,response,response_time,response_acc,association_response_time,association_response,association_acc,order_response,order_response_time,order_acc,distance_response,distance_response_time
RGbNy4cI,3dw3bnf1hkvs8co26ehcm6ry22mv8w,32ktq2v7rhsbjebxogr1oqzozrym9k,RGbNy4cI,2020-0188,2021-10-31,07:57:32,08:59:42,NA,incomplete,true,true,NA,NA,0,0,NA,gray,m_l_006.jpg,NA,NA,NA,NA,NA,unpleasant,pleasant,NA,NA,NA,NA,NA,right,1209.40000000596,true,NA,NA,NA,NA,NA,NA,NA,NA
RGbNy4cI,3dw3bnf1hkvs8co26ehcm6ry22mv8w,32ktq2v7rhsbjebxogr1oqzozrym9k,RGbNy4cI,2020-0188,2021-10-31,07:57:32,08:59:42,NA,incomplete,true,true,NA,NA,0,1,NA,gray,n_l_038.jpg,NA,NA,NA,NA,NA,pleasant,unpleasant,NA,NA,NA,NA,NA,left,1580.90000000596,true,NA,NA,NA,NA,NA,NA,NA,NA
RGbNy4cI,3dw3bnf1hkvs8co26ehcm6ry22mv8w,32ktq2v7rhsbjebxogr1oqzozrym9k,RGbNy4cI,2020-0188,2021-10-31,07:57:32,08:59:42,NA,incomplete,true,true,NA,NA,0,2,NA,gray,m_s_101.jpg,NA,NA,NA,NA,NA,pleasant,unpleasant,NA,NA,NA,NA,NA,right,2327.79999999702,true,NA,NA,NA,NA,NA,NA,NA,NA
RGbNy4cI,3dw3bnf1hkvs8co26ehcm6ry22mv8w,32ktq2v7rhsbjebxogr1oqzozrym9k,RGbNy4cI,2020-0188,2021-10-31,07:57:32,08:59:42,NA,incomplete,true,true,NA,NA,0,3,NA,gray,m_s_076.jpg,NA,NA,NA,NA,NA,pleasant,unpleasant,NA,NA,NA,NA,NA,left,1250.70000000298,true,NA,NA,NA,NA,NA,NA,NA,NA
RGbNy4cI,3dw3bnf1hkvs8co26ehcm6ry22mv8w,32ktq2v7rhsbjebxogr1oqzozrym9k,RGbNy4cI,2020-0188,2021-10-31,07:57:32,08:59:42,NA,incomplete,true,true,NA,NA,0,4,NA,gray,n_s_002.jpg,NA,NA,NA,NA,NA,unpleasant,pleasant,NA,NA,NA,NA,NA,right,1379,true,NA,NA,NA,NA,NA,NA,NA,NA
RGbNy4cI,3dw3bnf1hkvs8co26ehcm6ry22mv8w,32ktq2v7rhsbjebxogr1oqzozrym9k,RGbNy4cI,2020-0188,2021-10-31,07:57:32,08:59:42,NA,incomplete,true,true,NA,NA,0,5,NA,gray,n_s_003.jpg,NA,NA,NA,NA,NA,pleasant,unpleasant,NA,NA,NA,NA,NA,left,1111.59999999404,true,NA,NA,NA,NA,NA,NA,NA,NA
RGbNy4cI,3dw3bnf1hkvs8co26ehcm6ry22mv8w,32ktq2v7rhsbjebxogr1oqzozrym9k,RGbNy4cI,2020-0188,2021-10-31,07:57:32,08:59:42,NA,incomplete,true,true,NA,NA,0,6,NA,yellow,m_l_090.jpg,NA,NA,NA,NA,NA,unpleasant,pleasant,NA,NA,NA,NA,NA,right,1497.89999999106,true,NA,NA,NA,NA,NA,NA,NA,NA
RGbNy4cI,3dw3bnf1hkvs8co26ehcm6ry22mv8w,32ktq2v7rhsbjebxogr1oqzozrym9k,RGbNy4cI,2020-0188,2021-10-31,07:57:32,08:59:42,NA,incomplete,true,true,NA,NA,0,7,NA,yellow,n_l_104.jpg,NA,NA,NA,NA,NA,pleasant,unpleasant,NA,NA,NA,NA,NA,right,1772,true,NA,NA,NA,NA,NA,NA,NA,NA
RGbNy4cI,3dw3bnf1hkvs8co26ehcm6ry22mv8w,32ktq2v7rhsbjebxogr1oqzozrym9k,RGbNy4cI,2020-0188,2021-10-31,07:57:32,08:59:42,NA,incomplete,true,true,NA,NA,0,8,NA,yellow,n_s_048.jpg,NA,NA,NA,NA,NA,unpleasant,pleasant,NA,NA,NA,NA,NA,right,1647.19999998808,true,NA,NA,NA,NA,NA,NA,NA,NA
RGbNy4cI,3dw3bnf1hkvs8co26ehcm6ry22mv8w,32ktq2v7rhsbjebxogr1oqzozrym9k,RGbNy4cI,2020-0188,2021-10-31,07:57:32,08:59:42,NA,incomplete,true,true,NA,NA,0,9,NA,yellow,m_l_086.jpg,NA,NA,NA,NA,NA,pleasant,unpleasant,NA,NA,NA,NA,NA,left,1457,true,NA,NA,NA,NA,NA,NA,NA,NA
RGbNy4cI,3dw3bnf1hkvs8co26ehcm6ry22mv8w,32ktq2v7rhsbjebxogr1oqzozrym9k,RGbNy4cI,2020-0188,2021-10-31,07:57:32,08:59:42,NA,incomplete,true,true,NA,NA,0,10,NA,yellow,n_s_047.jpg,NA,NA,NA,NA,NA,unpleasant,pleasant,NA,NA,NA,NA,NA,left,1577.70000000298,true,NA,NA,NA,NA,NA,NA,NA,NA
RGbNy4cI,3dw3bnf1hkvs8co26ehcm6ry22mv8w,32ktq2v7rhsbjebxogr1oqzozrym9k,RGbNy4cI,2020-0188,2021-10-31,07:57:32,08:59:42,NA,incomplete,true,true,NA,NA,0,11,NA,yellow,m_l_008.jpg,NA,NA,NA,NA,NA,unpleasant,pleasant,NA,NA,NA,NA,NA,left,1182.09999999404,true,NA,NA,NA,NA,NA,NA,NA,NA
RGbNy4cI,3dw3bnf1hkvs8co26ehcm6ry22mv8w,32ktq2v7rhsbjebxogr1oqzozrym9k,RGbNy4cI,2020-0188,2021-10-31,07:57:32,08:59:42,NA,incomplete,true,true,NA,NA,0,12,NA,brown,n_l_102.jpg,NA,NA,NA,NA,NA,unpleasant,pleasant,NA,NA,NA,NA,NA,right,1664.20000000298,true,NA,NA,NA,NA,NA,NA,NA,NA
RGbNy4cI,3dw3bnf1hkvs8co26ehcm6ry22mv8w,32ktq2v7rhsbjebxogr1oqzozrym9k,RGbNy4cI,2020-0188,2021-10-31,07:57:32,08:59:42,NA,incomplete,true,true,NA,NA,0,13,NA,brown,m_l_078.jpg,NA,NA,NA,NA,NA,unpleasant,pleasant,NA,NA,NA,NA,NA,right,1531.09999999404,true,NA,NA,NA,NA,NA,NA,NA,NA
RGbNy4cI,3dw3bnf1hkvs8co26ehcm6ry22mv8w,32ktq2v7rhsbjebxogr1oqzozrym9k,RGbNy4cI,2020-0188,2021-10-31,07:57:32,08:59:42,NA,incomplete,true,true,NA,NA,0,14,NA,brown,m_s_068.jpg,NA,NA,NA,NA,NA,pleasant,unpleasant,NA,NA,NA,NA,NA,right,950.59999999404,true,NA,NA,NA,NA,NA,NA,NA,NA
RGbNy4cI,3dw3bnf1hkvs8co26ehcm6ry22mv8w,32ktq2v7rhsbjebxogr1oqzozrym9k,RGbNy4cI,2020-0188,2021-10-31,07:57:32,08:59:42,NA,incomplete,true,true,NA,NA,0,15,NA,brown,n_s_051.jpg,NA,NA,NA,NA,NA,unpleasant,pleasant,NA,NA,NA,NA,NA,right,1280,true,NA,NA,NA,NA,NA,NA,NA,NA
RGbNy4cI,3dw3bnf1hkvs8co26ehcm6ry22mv8w,32ktq2v7rhsbjebxogr1oqzozrym9k,RGbNy4cI,2020-0188,2021-10-31,07:57:32,08:59:42,NA,incomplete,true,true,NA,NA,0,16,NA,brown,m_s_020.jpg,NA,NA,NA,NA,NA,unpleasant,pleasant,NA,NA,NA,NA,NA,right,1147.29999999702,true,NA,NA,NA,NA,NA,NA,NA,NA
RGbNy4cI,3dw3bnf1hkvs8co26ehcm6ry22mv8w,32ktq2v7rhsbjebxogr1oqzozrym9k,RGbNy4cI,2020-0188,2021-10-31,07:57:32,08:59:42,NA,incomplete,true,true,NA,NA,0,17,NA,brown,n_l_077.jpg,NA,NA,NA,NA,NA,unpleasant,pleasant,NA,NA,NA,NA,NA,left,1414.10000000894,true,NA,NA,NA,NA,NA,NA,NA,NA
RGbNy4cI,3dw3bnf1hkvs8co26ehcm6ry22mv8w,32ktq2v7rhsbjebxogr1oqzozrym9k,RGbNy4cI,2020-0188,2021-10-31,07:57:32,08:59:42,NA,incomplete,true,true,NA,NA,0,18,NA,red,n_l_088.jpg,NA,NA,NA,NA,NA,unpleasant,pleasant,NA,NA,NA,NA,NA,left,1320,true,NA,NA,NA,NA,NA,NA,NA,NA
RGbNy4cI,3dw3bnf1hkvs8co26ehcm6ry22mv8w,32ktq2v7rhsbjebxogr1oqzozrym9k,RGbNy4cI,2020-0188,2021-10-31,07:57:32,08:59:42,NA,incomplete,true,true,NA,NA,0,19,NA,red,m_s_065.jpg,NA,NA,NA,NA,NA,unpleasant,pleasant,NA,NA,NA,NA,NA,right,932.09999999404,true,NA,NA,NA,NA,NA,NA,NA,NA
RGbNy4cI,3dw3bnf1hkvs8co26ehcm6ry22mv8w,32ktq2v7rhsbjebxogr1oqzozrym9k,RGbNy4cI,2020-0188,2021-10-31,07:57:32,08:59:42,NA,incomplete,true,true,NA,NA,0,20,NA,red,n_l_111.jpg,NA,NA,NA,NA,NA,unpleasant,pleasant,NA,NA,NA,NA,NA,right,1006.69999998808,true,NA,NA,NA,NA,NA,NA,NA,NA
RGbNy4cI,3dw3bnf1hkvs8co26ehcm6ry22mv8w,32ktq2v7rhsbjebxogr1oqzozrym9k,RGbNy4cI,2020-0188,2021-10-31,07:57:32,08:59:42,NA,incomplete,true,true,NA,NA,0,21,NA,red,n_s_086.jpg,NA,NA,NA,NA,NA,unpleasant,pleasant,NA,NA,NA,NA,NA,left,1774.79999999702,true,NA,NA,NA,NA,NA,NA,NA,NA
RGbNy4cI,3dw3bnf1hkvs8co26ehcm6ry22mv8w,32ktq2v7rhsbjebxogr1oqzozrym9k,RGbNy4cI,2020-0188,2021-10-31,07:57:32,08:59:42,NA,incomplete,true,true,NA,NA,0,22,NA,red,m_s_012.jpg,NA,NA,NA,NA,NA,pleasant,unpleasant,NA,NA,NA,NA,NA,right,1233.79999999702,true,NA,NA,NA,NA,NA,NA,NA,NA
RGbNy4cI,3dw3bnf1hkvs8co26ehcm6ry22mv8w,32ktq2v7rhsbjebxogr1oqzozrym9k,RGbNy4cI,2020-0188,2021-10-31,07:57:32,08:59:42,NA,incomplete,true,true,NA,NA,0,23,NA,red,n_l_061.jpg,NA,NA,NA,NA,NA,pleasant,unpleasant,NA,NA,NA,NA,NA,right,1130.40000000596,true,NA,NA,NA,NA,NA,NA,NA,NA
RGbNy4cI,3dw3bnf1hkvs8co26ehcm6ry22mv8w,32ktq2v7rhsbjebxogr1oqzozrym9k,RGbNy4cI,2020-0188,2021-10-31,07:57:32,08:59:42,NA,incomplete,true,true,NA,NA,0,24,NA,green,n_l_043.jpg,NA,NA,NA,NA,NA,unpleasant,pleasant,NA,NA,NA,NA,NA,right,1271.30000001192,true,NA,NA,NA,NA,NA,NA,NA,NA
RGbNy4cI,3dw3bnf1hkvs8co26ehcm6ry22mv8w,32ktq2v7rhsbjebxogr1oqzozrym9k,RGbNy4cI,2020-0188,2021-10-31,07:57:32,08:59:42,NA,incomplete,true,true,NA,NA,0,25,NA,green,m_l_019.jpg,NA,NA,NA,NA,NA,unpleasant,pleasant,NA,NA,NA,NA,NA,right,1265.29999999702,true,NA,NA,NA,NA,NA,NA,NA,NA
RGbNy4cI,3dw3bnf1hkvs8co26ehcm6ry22mv8w,32ktq2v7rhsbjebxogr1oqzozrym9k,RGbNy4cI,2020-0188,2021-10-31,07:57:32,08:59:42,NA,incomplete,true,true,NA,NA,0,26,NA,green,m_l_040.jpg,NA,NA,NA,NA,NA,unpleasant,pleasant,NA,NA,NA,NA,NA,right,1316.60000000894,true,NA,NA,NA,NA,NA,NA,NA,NA
RGbNy4cI,3dw3bnf1hkvs8co26ehcm6ry22mv8w,32ktq2v7rhsbjebxogr1oqzozrym9k,RGbNy4cI,2020-0188,2021-10-31,07:57:32,08:59:42,NA,incomplete,true,true,NA,NA,0,27,NA,green,n_l_017.jpg,NA,NA,NA,NA,NA,pleasant,unpleasant,NA,NA,NA,NA,NA,right,1278.59999999404,true,NA,NA,NA,NA,NA,NA,NA,NA
RGbNy4cI,3dw3bnf1hkvs8co26ehcm6ry22mv8w,32ktq2v7rhsbjebxogr1oqzozrym9k,RGbNy4cI,2020-0188,2021-10-31,07:57:32,08:59:42,NA,incomplete,true,true,NA,NA,0,28,NA,green,m_l_055.jpg,NA,NA,NA,NA,NA,pleasant,unpleasant,NA,NA,NA,NA,NA,right,1272.69999998808,true,NA,NA,NA,NA,NA,NA,NA,NA
RGbNy4cI,3dw3bnf1hkvs8co26ehcm6ry22mv8w,32ktq2v7rhsbjebxogr1oqzozrym9k,RGbNy4cI,2020-0188,2021-10-31,07:57:32,08:59:42,NA,incomplete,true,true,NA,NA,0,29,NA,green,n_s_073.jpg,NA,NA,NA,NA,NA,unpleasant,pleasant,NA,NA,NA,NA,NA,right,1915.40000000596,true,NA,NA,NA,NA,NA,NA,NA,NA
RGbNy4cI,3dw3bnf1hkvs8co26ehcm6ry22mv8w,32ktq2v7rhsbjebxogr1oqzozrym9k,RGbNy4cI,2020-0188,2021-10-31,07:57:32,08:59:42,NA,incomplete,true,true,NA,NA,0,30,NA,blue,m_l_065.jpg,NA,NA,NA,NA,NA,pleasant,unpleasant,NA,NA,NA,NA,NA,left,1422.5,true,NA,NA,NA,NA,NA,NA,NA,NA
RGbNy4cI,3dw3bnf1hkvs8co26ehcm6ry22mv8w,32ktq2v7rhsbjebxogr1oqzozrym9k,RGbNy4cI,2020-0188,2021-10-31,07:57:32,08:59:42,NA,incomplete,true,true,NA,NA,0,31,NA,blue,n_l_109.jpg,NA,NA,NA,NA,NA,unpleasant,pleasant,NA,NA,NA,NA,NA,left,1280,true,NA,NA,NA,NA,NA,NA,NA,NA
RGbNy4cI,3dw3bnf1hkvs8co26ehcm6ry22mv8w,32ktq2v7rhsbjebxogr1oqzozrym9k,RGbNy4cI,2020-0188,2021-10-31,07:57:32,08:59:42,NA,incomplete,true,true,NA,NA,0,32,NA,blue,n_s_012.jpg,NA,NA,NA,NA,NA,pleasant,unpleasant,NA,NA,NA,NA,NA,left,1291.29999999702,true,NA,NA,NA,NA,NA,NA,NA,NA
RGbNy4cI,3dw3bnf1hkvs8co26ehcm6ry22mv8w,32ktq2v7rhsbjebxogr1oqzozrym9k,RGbNy4cI,2020-0188,2021-10-31,07:57:32,08:59:42,NA,incomplete,true,true,NA,NA,0,33,NA,blue,m_l_110.jpg,NA,NA,NA,NA,NA,unpleasant,pleasant,NA,NA,NA,NA,NA,left,1325.40000000596,true,NA,NA,NA,NA,NA,NA,NA,NA
RGbNy4cI,3dw3bnf1hkvs8co26ehcm6ry22mv8w,32ktq2v7rhsbjebxogr1oqzozrym9k,RGbNy4cI,2020-0188,2021-10-31,07:57:32,08:59:42,NA,incomplete,true,true,NA,NA,0,34,NA,blue,m_s_002.jpg,NA,NA,NA,NA,NA,unpleasant,pleasant,NA,NA,NA,NA,NA,right,1702,true,NA,NA,NA,NA,NA,NA,NA,NA
RGbNy4cI,3dw3bnf1hkvs8co26ehcm6ry22mv8w,32ktq2v7rhsbjebxogr1oqzozrym9k,RGbNy4cI,2020-0188,2021-10-31,07:57:32,08:59:42,NA,incomplete,true,true,NA,NA,0,35,NA,blue,n_s_069.jpg,NA,NA,NA,NA,NA,unpleasant,pleasant,NA,NA,NA,NA,NA,right,1065,true,NA,NA,NA,NA,NA,NA,NA,NA
RGbNy4cI,3dw3bnf1hkvs8co26ehcm6ry22mv8w,32ktq2v7rhsbjebxogr1oqzozrym9k,RGbNy4cI,2020-0188,2021-10-31,07:57:32,08:59:42,NA,incomplete,true,NA,NA,true,0,0,NA,NA,NA,right,n_s_012.jpg,green,blue,NA,NA,NA,NA,NA,NA,NA,NA,NA,NaN,NA,3940.5999999940395,right,1,NA,NA,NA,NA,NA
RGbNy4cI,3dw3bnf1hkvs8co26ehcm6ry22mv8w,32ktq2v7rhsbjebxogr1oqzozrym9k,RGbNy4cI,2020-0188,2021-10-31,07:57:32,08:59:42,NA,incomplete,true,NA,NA,true,0,1,NA,NA,NA,left,n_l_061.jpg,red,brown,NA,NA,NA,NA,NA,NA,NA,NA,NA,NaN,NA,1845.0999999940395,left,1,NA,NA,NA,NA,NA
RGbNy4cI,3dw3bnf1hkvs8co26ehcm6ry22mv8w,32ktq2v7rhsbjebxogr1oqzozrym9k,RGbNy4cI,2020-0188,2021-10-31,07:57:32,08:59:42,NA,incomplete,true,NA,NA,true,0,2,NA,NA,NA,left,n_s_073.jpg,green,blue,NA,NA,NA,NA,NA,NA,NA,NA,NA,NaN,NA,1366,right,0,NA,NA,NA,NA,NA
RGbNy4cI,3dw3bnf1hkvs8co26ehcm6ry22mv8w,32ktq2v7rhsbjebxogr1oqzozrym9k,RGbNy4cI,2020-0188,2021-10-31,07:57:32,08:59:42,NA,incomplete,true,NA,NA,true,0,3,NA,NA,NA,left,n_l_109.jpg,blue,green,NA,NA,NA,NA,NA,NA,NA,NA,NA,NaN,NA,2517.8999999910593,left,1,NA,NA,NA,NA,NA
RGbNy4cI,3dw3bnf1hkvs8co26ehcm6ry22mv8w,32ktq2v7rhsbjebxogr1oqzozrym9k,RGbNy4cI,2020-0188,2021-10-31,07:57:32,08:59:42,NA,incomplete,true,NA,NA,true,0,4,NA,NA,NA,left,m_s_012.jpg,red,green,NA,NA,NA,NA,NA,NA,NA,NA,NA,NaN,NA,1350.9000000059605,left,1,NA,NA,NA,NA,NA
RGbNy4cI,3dw3bnf1hkvs8co26ehcm6ry22mv8w,32ktq2v7rhsbjebxogr1oqzozrym9k,RGbNy4cI,2020-0188,2021-10-31,07:57:32,08:59:42,NA,incomplete,true,NA,NA,true,0,5,NA,NA,NA,right,m_l_078.jpg,red,brown,NA,NA,NA,NA,NA,NA,NA,NA,NA,NaN,NA,1654.2000000029802,right,1,NA,NA,NA,NA,NA
RGbNy4cI,3dw3bnf1hkvs8co26ehcm6ry22mv8w,32ktq2v7rhsbjebxogr1oqzozrym9k,RGbNy4cI,2020-0188,2021-10-31,07:57:32,08:59:42,NA,incomplete,true,NA,NA,true,0,6,NA,NA,NA,left,m_l_055.jpg,green,blue,NA,NA,NA,NA,NA,NA,NA,NA,NA,NaN,NA,3662,right,0,NA,NA,NA,NA,NA
RGbNy4cI,3dw3bnf1hkvs8co26ehcm6ry22mv8w,32ktq2v7rhsbjebxogr1oqzozrym9k,RGbNy4cI,2020-0188,2021-10-31,07:57:32,08:59:42,NA,incomplete,true,NA,NA,true,0,7,NA,NA,NA,right,n_l_104.jpg,gray,yellow,NA,NA,NA,NA,NA,NA,NA,NA,NA,NaN,NA,3836.800000011921,right,1,NA,NA,NA,NA,NA
RGbNy4cI,3dw3bnf1hkvs8co26ehcm6ry22mv8w,32ktq2v7rhsbjebxogr1oqzozrym9k,RGbNy4cI,2020-0188,2021-10-31,07:57:32,08:59:42,NA,incomplete,true,NA,NA,true,0,8,NA,NA,NA,left,m_s_065.jpg,red,green,NA,NA,NA,NA,NA,NA,NA,NA,NA,NaN,NA,1525.300000011921,left,1,NA,NA,NA,NA,NA
RGbNy4cI,3dw3bnf1hkvs8co26ehcm6ry22mv8w,32ktq2v7rhsbjebxogr1oqzozrym9k,RGbNy4cI,2020-0188,2021-10-31,07:57:32,08:59:42,NA,incomplete,true,NA,NA,true,0,9,NA,NA,NA,left,m_l_040.jpg,green,blue,NA,NA,NA,NA,NA,NA,NA,NA,NA,NaN,NA,1526,left,1,NA,NA,NA,NA,NA
RGbNy4cI,3dw3bnf1hkvs8co26ehcm6ry22mv8w,32ktq2v7rhsbjebxogr1oqzozrym9k,RGbNy4cI,2020-0188,2021-10-31,07:57:32,08:59:42,NA,incomplete,true,NA,NA,true,0,10,NA,NA,NA,left,n_s_047.jpg,yellow,brown,NA,NA,NA,NA,NA,NA,NA,NA,NA,NaN,NA,1518.7999999970198,left,1,NA,NA,NA,NA,NA
RGbNy4cI,3dw3bnf1hkvs8co26ehcm6ry22mv8w,32ktq2v7rhsbjebxogr1oqzozrym9k,RGbNy4cI,2020-0188,2021-10-31,07:57:32,08:59:42,NA,incomplete,true,NA,NA,true,0,11,NA,NA,NA,right,n_s_048.jpg,gray,yellow,NA,NA,NA,NA,NA,NA,NA,NA,NA,NaN,NA,1382,right,1,NA,NA,NA,NA,NA
RGbNy4cI,3dw3bnf1hkvs8co26ehcm6ry22mv8w,32ktq2v7rhsbjebxogr1oqzozrym9k,RGbNy4cI,2020-0188,2021-10-31,07:57:32,08:59:42,NA,incomplete,true,NA,NA,true,0,12,NA,NA,NA,left,n_s_002.jpg,gray,yellow,NA,NA,NA,NA,NA,NA,NA,NA,NA,NaN,NA,2766.8999999910593,left,1,NA,NA,NA,NA,NA
RGbNy4cI,3dw3bnf1hkvs8co26ehcm6ry22mv8w,32ktq2v7rhsbjebxogr1oqzozrym9k,RGbNy4cI,2020-0188,2021-10-31,07:57:32,08:59:42,NA,incomplete,true,NA,NA,true,0,13,NA,NA,NA,left,m_s_020.jpg,brown,red,NA,NA,NA,NA,NA,NA,NA,NA,NA,NaN,NA,2133.8999999910593,right,0,NA,NA,NA,NA,NA
RGbNy4cI,3dw3bnf1hkvs8co26ehcm6ry22mv8w,32ktq2v7rhsbjebxogr1oqzozrym9k,RGbNy4cI,2020-0188,2021-10-31,07:57:32,08:59:42,NA,incomplete,true,NA,NA,true,0,14,NA,NA,NA,right,m_l_008.jpg,gray,yellow,NA,NA,NA,NA,NA,NA,NA,NA,NA,NaN,NA,2358.1000000089407,right,1,NA,NA,NA,NA,NA
RGbNy4cI,3dw3bnf1hkvs8co26ehcm6ry22mv8w,32ktq2v7rhsbjebxogr1oqzozrym9k,RGbNy4cI,2020-0188,2021-10-31,07:57:32,08:59:42,NA,incomplete,true,NA,NA,true,0,15,NA,NA,NA,right,n_l_111.jpg,brown,red,NA,NA,NA,NA,NA,NA,NA,NA,NA,NaN,NA,1365.5,left,0,NA,NA,NA,NA,NA
RGbNy4cI,3dw3bnf1hkvs8co26ehcm6ry22mv8w,32ktq2v7rhsbjebxogr1oqzozrym9k,RGbNy4cI,2020-0188,2021-10-31,07:57:32,08:59:42,NA,incomplete,true,NA,NA,true,0,16,NA,NA,NA,left,n_l_077.jpg,brown,yellow,NA,NA,NA,NA,NA,NA,NA,NA,NA,NaN,NA,1967.2999999970198,left,1,NA,NA,NA,NA,NA
RGbNy4cI,3dw3bnf1hkvs8co26ehcm6ry22mv8w,32ktq2v7rhsbjebxogr1oqzozrym9k,RGbNy4cI,2020-0188,2021-10-31,07:57:32,08:59:42,NA,incomplete,true,NA,NA,true,0,17,NA,NA,NA,left,m_s_068.jpg,brown,yellow,NA,NA,NA,NA,NA,NA,NA,NA,NA,NaN,NA,2646,right,0,NA,NA,NA,NA,NA
RGbNy4cI,3dw3bnf1hkvs8co26ehcm6ry22mv8w,32ktq2v7rhsbjebxogr1oqzozrym9k,RGbNy4cI,2020-0188,2021-10-31,07:57:32,08:59:42,NA,incomplete,true,NA,NA,true,0,18,NA,NA,NA,left,n_l_038.jpg,gray,yellow,NA,NA,NA,NA,NA,NA,NA,NA,NA,NaN,NA,1070.1000000089407,left,1,NA,NA,NA,NA,NA
RGbNy4cI,3dw3bnf1hkvs8co26ehcm6ry22mv8w,32ktq2v7rhsbjebxogr1oqzozrym9k,RGbNy4cI,2020-0188,2021-10-31,07:57:32,08:59:42,NA,incomplete,true,NA,NA,true,0,19,NA,NA,NA,right,m_l_019.jpg,blue,green,NA,NA,NA,NA,NA,NA,NA,NA,NA,NaN,NA,1654.1000000089407,right,1,NA,NA,NA,NA,NA
RGbNy4cI,3dw3bnf1hkvs8co26ehcm6ry22mv8w,32ktq2v7rhsbjebxogr1oqzozrym9k,RGbNy4cI,2020-0188,2021-10-31,07:57:32,08:59:42,NA,incomplete,true,NA,NA,true,0,20,NA,NA,NA,left,n_s_069.jpg,blue,green,NA,NA,NA,NA,NA,NA,NA,NA,NA,NaN,NA,1327.1000000089407,left,1,NA,NA,NA,NA,NA
RGbNy4cI,3dw3bnf1hkvs8co26ehcm6ry22mv8w,32ktq2v7rhsbjebxogr1oqzozrym9k,RGbNy4cI,2020-0188,2021-10-31,07:57:32,08:59:42,NA,incomplete,true,NA,NA,true,0,21,NA,NA,NA,left,n_s_003.jpg,gray,yellow,NA,NA,NA,NA,NA,NA,NA,NA,NA,NaN,NA,1830.0999999940395,left,1,NA,NA,NA,NA,NA
RGbNy4cI,3dw3bnf1hkvs8co26ehcm6ry22mv8w,32ktq2v7rhsbjebxogr1oqzozrym9k,RGbNy4cI,2020-0188,2021-10-31,07:57:32,08:59:42,NA,incomplete,true,NA,true,NA,0,0,NA,NA,NA,left,NA,NA,NA,present,NA,NA,m_l_055.jpg,green,n_s_012.jpg,blue,between,NA,NaN,NA,NA,NA,NA,left,4508.5,1,1,2789.2999999970198
RGbNy4cI,3dw3bnf1hkvs8co26ehcm6ry22mv8w,32ktq2v7rhsbjebxogr1oqzozrym9k,RGbNy4cI,2020-0188,2021-10-31,07:57:32,08:59:42,NA,incomplete,true,NA,true,NA,0,1,NA,NA,NA,left,NA,NA,NA,present,NA,NA,m_l_019.jpg,green,n_s_073.jpg,green,within,NA,NaN,NA,NA,NA,NA,right,1719,0,2,1182.2999999970198
RGbNy4cI,3dw3bnf1hkvs8co26ehcm6ry22mv8w,32ktq2v7rhsbjebxogr1oqzozrym9k,RGbNy4cI,2020-0188,2021-10-31,07:57:32,08:59:42,NA,incomplete,true,NA,true,NA,0,2,NA,NA,NA,left,NA,NA,NA,present,NA,NA,m_s_020.jpg,brown,n_l_111.jpg,red,between,NA,NaN,NA,NA,NA,NA,left,1462.0999999940395,1,2,2861.800000011921
RGbNy4cI,3dw3bnf1hkvs8co26ehcm6ry22mv8w,32ktq2v7rhsbjebxogr1oqzozrym9k,RGbNy4cI,2020-0188,2021-10-31,07:57:32,08:59:42,NA,incomplete,true,NA,true,NA,0,3,NA,NA,NA,right,NA,NA,NA,present,NA,NA,n_s_069.jpg,blue,n_l_109.jpg,blue,within,NA,NaN,NA,NA,NA,NA,right,1693.9000000059605,1,2,1278.4000000059605
RGbNy4cI,3dw3bnf1hkvs8co26ehcm6ry22mv8w,32ktq2v7rhsbjebxogr1oqzozrym9k,RGbNy4cI,2020-0188,2021-10-31,07:57:32,08:59:42,NA,incomplete,true,NA,true,NA,0,4,NA,NA,NA,left,NA,NA,NA,present,NA,NA,n_s_047.jpg,yellow,m_s_068.jpg,brown,between,NA,NaN,NA,NA,NA,NA,left,2117.7000000029802,1,1,2109.7000000029802
RGbNy4cI,3dw3bnf1hkvs8co26ehcm6ry22mv8w,32ktq2v7rhsbjebxogr1oqzozrym9k,RGbNy4cI,2020-0188,2021-10-31,07:57:32,08:59:42,NA,incomplete,true,NA,true,NA,0,5,NA,NA,NA,left,NA,NA,NA,present,NA,NA,n_l_038.jpg,gray,n_s_003.jpg,gray,within,NA,NaN,NA,NA,NA,NA,left,2422.8999999910593,1,1,2006.5999999940395
RGbNy4cI,3dw3bnf1hkvs8co26ehcm6ry22mv8w,32ktq2v7rhsbjebxogr1oqzozrym9k,RGbNy4cI,2020-0188,2021-10-31,07:57:32,08:59:42,NA,incomplete,true,NA,true,NA,0,6,NA,NA,NA,right,NA,NA,NA,present,NA,NA,m_l_008.jpg,yellow,n_l_104.jpg,yellow,within,NA,NaN,NA,NA,NA,NA,left,2390.2000000029802,0,2,1868.5
RGbNy4cI,3dw3bnf1hkvs8co26ehcm6ry22mv8w,32ktq2v7rhsbjebxogr1oqzozrym9k,RGbNy4cI,2020-0188,2021-10-31,07:57:32,08:59:42,NA,incomplete,true,NA,true,NA,0,7,NA,NA,NA,left,NA,NA,NA,present,NA,NA,m_s_012.jpg,red,m_l_040.jpg,green,between,NA,NaN,NA,NA,NA,NA,left,3933.1000000089407,1,2,1629.4000000059605
RGbNy4cI,3dw3bnf1hkvs8co26ehcm6ry22mv8w,32ktq2v7rhsbjebxogr1oqzozrym9k,RGbNy4cI,2020-0188,2021-10-31,07:57:32,08:59:42,NA,incomplete,true,NA,true,NA,0,8,NA,NA,NA,right,NA,NA,NA,present,NA,NA,n_s_048.jpg,yellow,n_s_002.jpg,gray,between,NA,NaN,NA,NA,NA,NA,right,1957.0999999940395,1,1,3941.7999999970198
RGbNy4cI,3dw3bnf1hkvs8co26ehcm6ry22mv8w,32ktq2v7rhsbjebxogr1oqzozrym9k,RGbNy4cI,2020-0188,2021-10-31,07:57:32,08:59:42,NA,incomplete,true,NA,true,NA,0,9,NA,NA,NA,right,NA,NA,NA,present,NA,NA,n_l_061.jpg,red,m_s_065.jpg,red,within,NA,NaN,NA,NA,NA,NA,left,1141.7000000029802,0,1,1622
RGbNy4cI,3dw3bnf1hkvs8co26ehcm6ry22mv8w,32ktq2v7rhsbjebxogr1oqzozrym9k,RGbNy4cI,2020-0188,2021-10-31,07:57:32,08:59:42,NA,incomplete,true,NA,true,NA,0,10,NA,NA,NA,left,NA,NA,NA,present,NA,NA,m_l_078.jpg,brown,n_l_077.jpg,brown,within,NA,NaN,NA,NA,NA,NA,right,1430.6000000089407,0,2,1397.9000000059605
RGbNy4cI,3dw3bnf1hkvs8co26ehcm6ry22mv8w,32ktq2v7rhsbjebxogr1oqzozrym9k,RGbNy4cI,2020-0188,2021-10-31,07:57:32,08:59:42,NA,incomplete,false,true,NA,NA,1,0,NA,white,m_s_022.jpg,NA,NA,NA,NA,NA,pleasant,unpleasant,NA,NA,NA,NA,NA,right,1830.5,true,NA,NA,NA,NA,NA,NA,NA,NA
RGbNy4cI,3dw3bnf1hkvs8co26ehcm6ry22mv8w,32ktq2v7rhsbjebxogr1oqzozrym9k,RGbNy4cI,2020-0188,2021-10-31,07:57:32,08:59:42,NA,incomplete,false,true,NA,NA,1,1,NA,white,m_l_076.jpg,NA,NA,NA,NA,NA,pleasant,unpleasant,NA,NA,NA,NA,NA,right,1268.30000001192,true,NA,NA,NA,NA,NA,NA,NA,NA
RGbNy4cI,3dw3bnf1hkvs8co26ehcm6ry22mv8w,32ktq2v7rhsbjebxogr1oqzozrym9k,RGbNy4cI,2020-0188,2021-10-31,07:57:32,08:59:42,NA,incomplete,false,true,NA,NA,1,2,NA,white,n_l_046.jpg,NA,NA,NA,NA,NA,unpleasant,pleasant,NA,NA,NA,NA,NA,right,1429.59999999404,true,NA,NA,NA,NA,NA,NA,NA,NA
RGbNy4cI,3dw3bnf1hkvs8co26ehcm6ry22mv8w,32ktq2v7rhsbjebxogr1oqzozrym9k,RGbNy4cI,2020-0188,2021-10-31,07:57:32,08:59:42,NA,incomplete,false,true,NA,NA,1,3,NA,white,m_s_023.jpg,NA,NA,NA,NA,NA,pleasant,unpleasant,NA,NA,NA,NA,NA,left,1262.59999999404,true,NA,NA,NA,NA,NA,NA,NA,NA
RGbNy4cI,3dw3bnf1hkvs8co26ehcm6ry22mv8w,32ktq2v7rhsbjebxogr1oqzozrym9k,RGbNy4cI,2020-0188,2021-10-31,07:57:32,08:59:42,NA,incomplete,false,true,NA,NA,1,4,NA,white,n_l_086.jpg,NA,NA,NA,NA,NA,unpleasant,pleasant,NA,NA,NA,NA,NA,right,1368.90000000596,true,NA,NA,NA,NA,NA,NA,NA,NA
RGbNy4cI,3dw3bnf1hkvs8co26ehcm6ry22mv8w,32ktq2v7rhsbjebxogr1oqzozrym9k,RGbNy4cI,2020-0188,2021-10-31,07:57:32,08:59:42,NA,incomplete,false,true,NA,NA,1,5,NA,white,m_s_112.jpg,NA,NA,NA,NA,NA,unpleasant,pleasant,NA,NA,NA,NA,NA,right,1163.29999999702,true,NA,NA,NA,NA,NA,NA,NA,NA
RGbNy4cI,3dw3bnf1hkvs8co26ehcm6ry22mv8w,32ktq2v7rhsbjebxogr1oqzozrym9k,RGbNy4cI,2020-0188,2021-10-31,07:57:32,08:59:42,NA,incomplete,false,true,NA,NA,1,6,NA,gray,m_s_067.jpg,NA,NA,NA,NA,NA,pleasant,unpleasant,NA,NA,NA,NA,NA,left,1420.80000001192,true,NA,NA,NA,NA,NA,NA,NA,NA
RGbNy4cI,3dw3bnf1hkvs8co26ehcm6ry22mv8w,32ktq2v7rhsbjebxogr1oqzozrym9k,RGbNy4cI,2020-0188,2021-10-31,07:57:32,08:59:42,NA,incomplete,false,true,NA,NA,1,7,NA,gray,n_l_071.jpg,NA,NA,NA,NA,NA,pleasant,unpleasant,NA,NA,NA,NA,NA,left,1184,true,NA,NA,NA,NA,NA,NA,NA,NA
RGbNy4cI,3dw3bnf1hkvs8co26ehcm6ry22mv8w,32ktq2v7rhsbjebxogr1oqzozrym9k,RGbNy4cI,2020-0188,2021-10-31,07:57:32,08:59:42,NA,incomplete,false,true,NA,NA,1,8,NA,gray,n_l_075.jpg,NA,NA,NA,NA,NA,pleasant,unpleasant,NA,NA,NA,NA,NA,left,1202.79999999702,true,NA,NA,NA,NA,NA,NA,NA,NA
RGbNy4cI,3dw3bnf1hkvs8co26ehcm6ry22mv8w,32ktq2v7rhsbjebxogr1oqzozrym9k,RGbNy4cI,2020-0188,2021-10-31,07:57:32,08:59:42,NA,incomplete,false,true,NA,NA,1,9,NA,gray,n_s_030.jpg,NA,NA,NA,NA,NA,unpleasant,pleasant,NA,NA,NA,NA,NA,right,1020,true,NA,NA,NA,NA,NA,NA,NA,NA
RGbNy4cI,3dw3bnf1hkvs8co26ehcm6ry22mv8w,32ktq2v7rhsbjebxogr1oqzozrym9k,RGbNy4cI,2020-0188,2021-10-31,07:57:32,08:59:42,NA,incomplete,false,true,NA,NA,1,10,NA,gray,m_s_038.jpg,NA,NA,NA,NA,NA,unpleasant,pleasant,NA,NA,NA,NA,NA,right,1142.5,true,NA,NA,NA,NA,NA,NA,NA,NA
RGbNy4cI,3dw3bnf1hkvs8co26ehcm6ry22mv8w,32ktq2v7rhsbjebxogr1oqzozrym9k,RGbNy4cI,2020-0188,2021-10-31,07:57:32,08:59:42,NA,incomplete,false,true,NA,NA,1,11,NA,gray,n_s_079.jpg,NA,NA,NA,NA,NA,unpleasant,pleasant,NA,NA,NA,NA,NA,right,953.199999988079,true,NA,NA,NA,NA,NA,NA,NA,NA
RGbNy4cI,3dw3bnf1hkvs8co26ehcm6ry22mv8w,32ktq2v7rhsbjebxogr1oqzozrym9k,RGbNy4cI,2020-0188,2021-10-31,07:57:32,08:59:42,NA,incomplete,false,true,NA,NA,1,12,NA,brown,m_s_075.jpg,NA,NA,NA,NA,NA,unpleasant,pleasant,NA,NA,NA,NA,NA,right,1201.59999999404,true,NA,NA,NA,NA,NA,NA,NA,NA
RGbNy4cI,3dw3bnf1hkvs8co26ehcm6ry22mv8w,32ktq2v7rhsbjebxogr1oqzozrym9k,RGbNy4cI,2020-0188,2021-10-31,07:57:32,08:59:42,NA,incomplete,false,true,NA,NA,1,13,NA,brown,n_s_026.jpg,NA,NA,NA,NA,NA,unpleasant,pleasant,NA,NA,NA,NA,NA,left,1101.40000000596,true,NA,NA,NA,NA,NA,NA,NA,NA
RGbNy4cI,3dw3bnf1hkvs8co26ehcm6ry22mv8w,32ktq2v7rhsbjebxogr1oqzozrym9k,RGbNy4cI,2020-0188,2021-10-31,07:57:32,08:59:42,NA,incomplete,false,true,NA,NA,1,14,NA,brown,n_s_114.jpg,NA,NA,NA,NA,NA,pleasant,unpleasant,NA,NA,NA,NA,NA,left,1336.09999999404,true,NA,NA,NA,NA,NA,NA,NA,NA
RGbNy4cI,3dw3bnf1hkvs8co26ehcm6ry22mv8w,32ktq2v7rhsbjebxogr1oqzozrym9k,RGbNy4cI,2020-0188,2021-10-31,07:57:32,08:59:42,NA,incomplete,false,true,NA,NA,1,15,NA,brown,m_l_096.jpg,NA,NA,NA,NA,NA,pleasant,unpleasant,NA,NA,NA,NA,NA,right,1282,true,NA,NA,NA,NA,NA,NA,NA,NA
RGbNy4cI,3dw3bnf1hkvs8co26ehcm6ry22mv8w,32ktq2v7rhsbjebxogr1oqzozrym9k,RGbNy4cI,2020-0188,2021-10-31,07:57:32,08:59:42,NA,incomplete,false,true,NA,NA,1,16,NA,brown,n_l_064.jpg,NA,NA,NA,NA,NA,pleasant,unpleasant,NA,NA,NA,NA,NA,left,1019.89999999106,true,NA,NA,NA,NA,NA,NA,NA,NA
RGbNy4cI,3dw3bnf1hkvs8co26ehcm6ry22mv8w,32ktq2v7rhsbjebxogr1oqzozrym9k,RGbNy4cI,2020-0188,2021-10-31,07:57:32,08:59:42,NA,incomplete,false,true,NA,NA,1,17,NA,brown,m_s_098.jpg,NA,NA,NA,NA,NA,pleasant,unpleasant,NA,NA,NA,NA,NA,left,1206.79999999702,true,NA,NA,NA,NA,NA,NA,NA,NA
RGbNy4cI,3dw3bnf1hkvs8co26ehcm6ry22mv8w,32ktq2v7rhsbjebxogr1oqzozrym9k,RGbNy4cI,2020-0188,2021-10-31,07:57:32,08:59:42,NA,incomplete,false,true,NA,NA,1,18,NA,purple,m_s_066.jpg,NA,NA,NA,NA,NA,unpleasant,pleasant,NA,NA,NA,NA,NA,right,1064.20000000298,true,NA,NA,NA,NA,NA,NA,NA,NA
RGbNy4cI,3dw3bnf1hkvs8co26ehcm6ry22mv8w,32ktq2v7rhsbjebxogr1oqzozrym9k,RGbNy4cI,2020-0188,2021-10-31,07:57:32,08:59:42,NA,incomplete,false,true,NA,NA,1,19,NA,purple,n_s_092.jpg,NA,NA,NA,NA,NA,pleasant,unpleasant,NA,NA,NA,NA,NA,left,970.79999999702,true,NA,NA,NA,NA,NA,NA,NA,NA
RGbNy4cI,3dw3bnf1hkvs8co26ehcm6ry22mv8w,32ktq2v7rhsbjebxogr1oqzozrym9k,RGbNy4cI,2020-0188,2021-10-31,07:57:32,08:59:42,NA,incomplete,false,true,NA,NA,1,20,NA,purple,m_s_106.jpg,NA,NA,NA,NA,NA,pleasant,unpleasant,NA,NA,NA,NA,NA,left,891.5,true,NA,NA,NA,NA,NA,NA,NA,NA
RGbNy4cI,3dw3bnf1hkvs8co26ehcm6ry22mv8w,32ktq2v7rhsbjebxogr1oqzozrym9k,RGbNy4cI,2020-0188,2021-10-31,07:57:32,08:59:42,NA,incomplete,false,true,NA,NA,1,21,NA,purple,m_s_099.jpg,NA,NA,NA,NA,NA,unpleasant,pleasant,NA,NA,NA,NA,NA,right,1071.29999999702,true,NA,NA,NA,NA,NA,NA,NA,NA
RGbNy4cI,3dw3bnf1hkvs8co26ehcm6ry22mv8w,32ktq2v7rhsbjebxogr1oqzozrym9k,RGbNy4cI,2020-0188,2021-10-31,07:57:32,08:59:42,NA,incomplete,false,true,NA,NA,1,22,NA,purple,n_s_009.jpg,NA,NA,NA,NA,NA,pleasant,unpleasant,NA,NA,NA,NA,NA,left,929.40000000596,true,NA,NA,NA,NA,NA,NA,NA,NA
RGbNy4cI,3dw3bnf1hkvs8co26ehcm6ry22mv8w,32ktq2v7rhsbjebxogr1oqzozrym9k,RGbNy4cI,2020-0188,2021-10-31,07:57:32,08:59:42,NA,incomplete,false,true,NA,NA,1,23,NA,purple,n_l_025.jpg,NA,NA,NA,NA,NA,pleasant,unpleasant,NA,NA,NA,NA,NA,right,1204,true,NA,NA,NA,NA,NA,NA,NA,NA
RGbNy4cI,3dw3bnf1hkvs8co26ehcm6ry22mv8w,32ktq2v7rhsbjebxogr1oqzozrym9k,RGbNy4cI,2020-0188,2021-10-31,07:57:32,08:59:42,NA,incomplete,false,true,NA,NA,1,24,NA,green,m_l_068.jpg,NA,NA,NA,NA,NA,unpleasant,pleasant,NA,NA,NA,NA,NA,right,997.09999999404,true,NA,NA,NA,NA,NA,NA,NA,NA
RGbNy4cI,3dw3bnf1hkvs8co26ehcm6ry22mv8w,32ktq2v7rhsbjebxogr1oqzozrym9k,RGbNy4cI,2020-0188,2021-10-31,07:57:32,08:59:42,NA,incomplete,false,true,NA,NA,1,25,NA,green,n_s_035.jpg,NA,NA,NA,NA,NA,pleasant,unpleasant,NA,NA,NA,NA,NA,left,952.20000000298,true,NA,NA,NA,NA,NA,NA,NA,NA
RGbNy4cI,3dw3bnf1hkvs8co26ehcm6ry22mv8w,32ktq2v7rhsbjebxogr1oqzozrym9k,RGbNy4cI,2020-0188,2021-10-31,07:57:32,08:59:42,NA,incomplete,false,true,NA,NA,1,26,NA,green,n_l_042.jpg,NA,NA,NA,NA,NA,pleasant,unpleasant,NA,NA,NA,NA,NA,right,995.199999988079,true,NA,NA,NA,NA,NA,NA,NA,NA
RGbNy4cI,3dw3bnf1hkvs8co26ehcm6ry22mv8w,32ktq2v7rhsbjebxogr1oqzozrym9k,RGbNy4cI,2020-0188,2021-10-31,07:57:32,08:59:42,NA,incomplete,false,true,NA,NA,1,27,NA,green,m_s_027.jpg,NA,NA,NA,NA,NA,pleasant,unpleasant,NA,NA,NA,NA,NA,right,1197.40000000596,true,NA,NA,NA,NA,NA,NA,NA,NA
RGbNy4cI,3dw3bnf1hkvs8co26ehcm6ry22mv8w,32ktq2v7rhsbjebxogr1oqzozrym9k,RGbNy4cI,2020-0188,2021-10-31,07:57:32,08:59:42,NA,incomplete,false,true,NA,NA,1,28,NA,green,n_l_103.jpg,NA,NA,NA,NA,NA,unpleasant,pleasant,NA,NA,NA,NA,NA,right,1439.70000000298,true,NA,NA,NA,NA,NA,NA,NA,NA
RGbNy4cI,3dw3bnf1hkvs8co26ehcm6ry22mv8w,32ktq2v7rhsbjebxogr1oqzozrym9k,RGbNy4cI,2020-0188,2021-10-31,07:57:32,08:59:42,NA,incomplete,false,true,NA,NA,1,29,NA,green,m_l_046.jpg,NA,NA,NA,NA,NA,pleasant,unpleasant,NA,NA,NA,NA,NA,left,1649.29999999702,true,NA,NA,NA,NA,NA,NA,NA,NA
RGbNy4cI,3dw3bnf1hkvs8co26ehcm6ry22mv8w,32ktq2v7rhsbjebxogr1oqzozrym9k,RGbNy4cI,2020-0188,2021-10-31,07:57:32,08:59:42,NA,incomplete,false,true,NA,NA,1,30,NA,blue,m_l_029.jpg,NA,NA,NA,NA,NA,pleasant,unpleasant,NA,NA,NA,NA,NA,left,877.29999999702,true,NA,NA,NA,NA,NA,NA,NA,NA
RGbNy4cI,3dw3bnf1hkvs8co26ehcm6ry22mv8w,32ktq2v7rhsbjebxogr1oqzozrym9k,RGbNy4cI,2020-0188,2021-10-31,07:57:32,08:59:42,NA,incomplete,false,true,NA,NA,1,31,NA,blue,n_s_089.jpg,NA,NA,NA,NA,NA,unpleasant,pleasant,NA,NA,NA,NA,NA,left,1686.90000000596,true,NA,NA,NA,NA,NA,NA,NA,NA
RGbNy4cI,3dw3bnf1hkvs8co26ehcm6ry22mv8w,32ktq2v7rhsbjebxogr1oqzozrym9k,RGbNy4cI,2020-0188,2021-10-31,07:57:32,08:59:42,NA,incomplete,false,true,NA,NA,1,32,NA,blue,m_l_084.jpg,NA,NA,NA,NA,NA,pleasant,unpleasant,NA,NA,NA,NA,NA,left,994,true,NA,NA,NA,NA,NA,NA,NA,NA
RGbNy4cI,3dw3bnf1hkvs8co26ehcm6ry22mv8w,32ktq2v7rhsbjebxogr1oqzozrym9k,RGbNy4cI,2020-0188,2021-10-31,07:57:32,08:59:42,NA,incomplete,false,true,NA,NA,1,33,NA,blue,m_s_074.jpg,NA,NA,NA,NA,NA,unpleasant,pleasant,NA,NA,NA,NA,NA,right,1243.20000000298,true,NA,NA,NA,NA,NA,NA,NA,NA
RGbNy4cI,3dw3bnf1hkvs8co26ehcm6ry22mv8w,32ktq2v7rhsbjebxogr1oqzozrym9k,RGbNy4cI,2020-0188,2021-10-31,07:57:32,08:59:42,NA,incomplete,false,true,NA,NA,1,34,NA,blue,m_s_048.jpg,NA,NA,NA,NA,NA,unpleasant,pleasant,NA,NA,NA,NA,NA,right,1069.5,true,NA,NA,NA,NA,NA,NA,NA,NA
RGbNy4cI,3dw3bnf1hkvs8co26ehcm6ry22mv8w,32ktq2v7rhsbjebxogr1oqzozrym9k,RGbNy4cI,2020-0188,2021-10-31,07:57:32,08:59:42,NA,incomplete,false,true,NA,NA,1,35,NA,blue,m_l_044.jpg,NA,NA,NA,NA,NA,unpleasant,pleasant,NA,NA,NA,NA,NA,right,833.29999999702,true,NA,NA,NA,NA,NA,NA,NA,NA
RGbNy4cI,3dw3bnf1hkvs8co26ehcm6ry22mv8w,32ktq2v7rhsbjebxogr1oqzozrym9k,RGbNy4cI,2020-0188,2021-10-31,07:57:32,08:59:42,NA,incomplete,false,NA,NA,true,1,0,NA,NA,NA,left,m_l_076.jpg,white,gray,NA,NA,NA,NA,NA,NA,NA,NA,NA,NaN,NA,2245,right,0,NA,NA,NA,NA,NA
RGbNy4cI,3dw3bnf1hkvs8co26ehcm6ry22mv8w,32ktq2v7rhsbjebxogr1oqzozrym9k,RGbNy4cI,2020-0188,2021-10-31,07:57:32,08:59:42,NA,incomplete,false,NA,NA,true,1,1,NA,NA,NA,right,m_s_038.jpg,white,gray,NA,NA,NA,NA,NA,NA,NA,NA,NA,NaN,NA,1822.0999999940395,right,1,NA,NA,NA,NA,NA
RGbNy4cI,3dw3bnf1hkvs8co26ehcm6ry22mv8w,32ktq2v7rhsbjebxogr1oqzozrym9k,RGbNy4cI,2020-0188,2021-10-31,07:57:32,08:59:42,NA,incomplete,false,NA,NA,true,1,2,NA,NA,NA,left,m_s_112.jpg,white,gray,NA,NA,NA,NA,NA,NA,NA,NA,NA,NaN,NA,1622.5999999940395,left,1,NA,NA,NA,NA,NA
RGbNy4cI,3dw3bnf1hkvs8co26ehcm6ry22mv8w,32ktq2v7rhsbjebxogr1oqzozrym9k,RGbNy4cI,2020-0188,2021-10-31,07:57:32,08:59:42,NA,incomplete,false,NA,NA,true,1,3,NA,NA,NA,right,n_s_092.jpg,green,purple,NA,NA,NA,NA,NA,NA,NA,NA,NA,NaN,NA,4541.5,right,1,NA,NA,NA,NA,NA
RGbNy4cI,3dw3bnf1hkvs8co26ehcm6ry22mv8w,32ktq2v7rhsbjebxogr1oqzozrym9k,RGbNy4cI,2020-0188,2021-10-31,07:57:32,08:59:42,NA,incomplete,false,NA,NA,true,1,4,NA,NA,NA,left,n_l_086.jpg,white,gray,NA,NA,NA,NA,NA,NA,NA,NA,NA,NaN,NA,1575.4000000059605,right,0,NA,NA,NA,NA,NA
RGbNy4cI,3dw3bnf1hkvs8co26ehcm6ry22mv8w,32ktq2v7rhsbjebxogr1oqzozrym9k,RGbNy4cI,2020-0188,2021-10-31,07:57:32,08:59:42,NA,incomplete,false,NA,NA,true,1,5,NA,NA,NA,left,n_s_035.jpg,green,purple,NA,NA,NA,NA,NA,NA,NA,NA,NA,NaN,NA,2646.1000000089407,left,1,NA,NA,NA,NA,NA
RGbNy4cI,3dw3bnf1hkvs8co26ehcm6ry22mv8w,32ktq2v7rhsbjebxogr1oqzozrym9k,RGbNy4cI,2020-0188,2021-10-31,07:57:32,08:59:42,NA,incomplete,false,NA,NA,true,1,6,NA,NA,NA,left,n_s_079.jpg,gray,brown,NA,NA,NA,NA,NA,NA,NA,NA,NA,NaN,NA,1502.7000000029802,right,0,NA,NA,NA,NA,NA
RGbNy4cI,3dw3bnf1hkvs8co26ehcm6ry22mv8w,32ktq2v7rhsbjebxogr1oqzozrym9k,RGbNy4cI,2020-0188,2021-10-31,07:57:32,08:59:42,NA,incomplete,false,NA,NA,true,1,7,NA,NA,NA,right,n_s_114.jpg,gray,brown,NA,NA,NA,NA,NA,NA,NA,NA,NA,NaN,NA,1390.1000000089407,left,0,NA,NA,NA,NA,NA
RGbNy4cI,3dw3bnf1hkvs8co26ehcm6ry22mv8w,32ktq2v7rhsbjebxogr1oqzozrym9k,RGbNy4cI,2020-0188,2021-10-31,07:57:32,08:59:42,NA,incomplete,false,NA,NA,true,1,8,NA,NA,NA,right,n_l_071.jpg,brown,gray,NA,NA,NA,NA,NA,NA,NA,NA,NA,NaN,NA,1950.3999999910593,right,1,NA,NA,NA,NA,NA
RGbNy4cI,3dw3bnf1hkvs8co26ehcm6ry22mv8w,32ktq2v7rhsbjebxogr1oqzozrym9k,RGbNy4cI,2020-0188,2021-10-31,07:57:32,08:59:42,NA,incomplete,false,NA,NA,true,1,9,NA,NA,NA,left,n_l_025.jpg,purple,brown,NA,NA,NA,NA,NA,NA,NA,NA,NA,NaN,NA,1558.7000000029802,left,1,NA,NA,NA,NA,NA
RGbNy4cI,3dw3bnf1hkvs8co26ehcm6ry22mv8w,32ktq2v7rhsbjebxogr1oqzozrym9k,RGbNy4cI,2020-0188,2021-10-31,07:57:32,08:59:42,NA,incomplete,false,NA,NA,true,1,10,NA,NA,NA,right,m_s_098.jpg,purple,brown,NA,NA,NA,NA,NA,NA,NA,NA,NA,NaN,NA,1725.5,left,0,NA,NA,NA,NA,NA
RGbNy4cI,3dw3bnf1hkvs8co26ehcm6ry22mv8w,32ktq2v7rhsbjebxogr1oqzozrym9k,RGbNy4cI,2020-0188,2021-10-31,07:57:32,08:59:42,NA,incomplete,false,NA,NA,true,1,11,NA,NA,NA,left,m_s_106.jpg,purple,green,NA,NA,NA,NA,NA,NA,NA,NA,NA,NaN,NA,1622.4000000059605,left,1,NA,NA,NA,NA,NA
RGbNy4cI,3dw3bnf1hkvs8co26ehcm6ry22mv8w,32ktq2v7rhsbjebxogr1oqzozrym9k,RGbNy4cI,2020-0188,2021-10-31,07:57:32,08:59:42,NA,incomplete,false,NA,NA,true,1,12,NA,NA,NA,left,n_l_064.jpg,brown,purple,NA,NA,NA,NA,NA,NA,NA,NA,NA,NaN,NA,1542.199999988079,right,0,NA,NA,NA,NA,NA
RGbNy4cI,3dw3bnf1hkvs8co26ehcm6ry22mv8w,32ktq2v7rhsbjebxogr1oqzozrym9k,RGbNy4cI,2020-0188,2021-10-31,07:57:32,08:59:42,NA,incomplete,false,NA,NA,true,1,13,NA,NA,NA,right,n_l_103.jpg,purple,green,NA,NA,NA,NA,NA,NA,NA,NA,NA,NaN,NA,1614.6000000089407,right,1,NA,NA,NA,NA,NA
RGbNy4cI,3dw3bnf1hkvs8co26ehcm6ry22mv8w,32ktq2v7rhsbjebxogr1oqzozrym9k,RGbNy4cI,2020-0188,2021-10-31,07:57:32,08:59:42,NA,incomplete,false,NA,NA,true,1,14,NA,NA,NA,right,m_l_084.jpg,green,blue,NA,NA,NA,NA,NA,NA,NA,NA,NA,NaN,NA,1975.2000000029802,left,0,NA,NA,NA,NA,NA
RGbNy4cI,3dw3bnf1hkvs8co26ehcm6ry22mv8w,32ktq2v7rhsbjebxogr1oqzozrym9k,RGbNy4cI,2020-0188,2021-10-31,07:57:32,08:59:42,NA,incomplete,false,NA,NA,true,1,15,NA,NA,NA,left,n_l_042.jpg,green,blue,NA,NA,NA,NA,NA,NA,NA,NA,NA,NaN,NA,1822.4000000059605,left,1,NA,NA,NA,NA,NA
RGbNy4cI,3dw3bnf1hkvs8co26ehcm6ry22mv8w,32ktq2v7rhsbjebxogr1oqzozrym9k,RGbNy4cI,2020-0188,2021-10-31,07:57:32,08:59:42,NA,incomplete,false,NA,NA,true,1,16,NA,NA,NA,left,n_l_075.jpg,gray,brown,NA,NA,NA,NA,NA,NA,NA,NA,NA,NaN,NA,1717.2999999970198,left,1,NA,NA,NA,NA,NA
RGbNy4cI,3dw3bnf1hkvs8co26ehcm6ry22mv8w,32ktq2v7rhsbjebxogr1oqzozrym9k,RGbNy4cI,2020-0188,2021-10-31,07:57:32,08:59:42,NA,incomplete,false,NA,NA,true,1,17,NA,NA,NA,right,m_l_044.jpg,green,blue,NA,NA,NA,NA,NA,NA,NA,NA,NA,NaN,NA,3412.800000011921,right,1,NA,NA,NA,NA,NA
RGbNy4cI,3dw3bnf1hkvs8co26ehcm6ry22mv8w,32ktq2v7rhsbjebxogr1oqzozrym9k,RGbNy4cI,2020-0188,2021-10-31,07:57:32,08:59:42,NA,incomplete,false,NA,NA,true,1,18,NA,NA,NA,left,m_l_046.jpg,green,blue,NA,NA,NA,NA,NA,NA,NA,NA,NA,NaN,NA,1430.300000011921,left,1,NA,NA,NA,NA,NA
RGbNy4cI,3dw3bnf1hkvs8co26ehcm6ry22mv8w,32ktq2v7rhsbjebxogr1oqzozrym9k,RGbNy4cI,2020-0188,2021-10-31,07:57:32,08:59:42,NA,incomplete,false,NA,NA,true,1,19,NA,NA,NA,left,n_s_089.jpg,blue,green,NA,NA,NA,NA,NA,NA,NA,NA,NA,NaN,NA,1701.6000000089407,left,1,NA,NA,NA,NA,NA
RGbNy4cI,3dw3bnf1hkvs8co26ehcm6ry22mv8w,32ktq2v7rhsbjebxogr1oqzozrym9k,RGbNy4cI,2020-0188,2021-10-31,07:57:32,08:59:42,NA,incomplete,false,NA,NA,true,1,20,NA,NA,NA,left,n_s_009.jpg,purple,brown,NA,NA,NA,NA,NA,NA,NA,NA,NA,NaN,NA,1357.8999999910593,left,1,NA,NA,NA,NA,NA
RGbNy4cI,3dw3bnf1hkvs8co26ehcm6ry22mv8w,32ktq2v7rhsbjebxogr1oqzozrym9k,RGbNy4cI,2020-0188,2021-10-31,07:57:32,08:59:42,NA,incomplete,false,NA,NA,true,1,21,NA,NA,NA,left,n_s_026.jpg,brown,purple,NA,NA,NA,NA,NA,NA,NA,NA,NA,NaN,NA,1758.5,right,0,NA,NA,NA,NA,NA
RGbNy4cI,3dw3bnf1hkvs8co26ehcm6ry22mv8w,32ktq2v7rhsbjebxogr1oqzozrym9k,RGbNy4cI,2020-0188,2021-10-31,07:57:32,08:59:42,NA,incomplete,false,NA,true,NA,1,0,NA,NA,NA,right,NA,NA,NA,present,NA,NA,n_l_075.jpg,gray,n_l_086.jpg,white,between,NA,NaN,NA,NA,NA,NA,right,2692.2000000029802,1,1,1189.9000000059605
RGbNy4cI,3dw3bnf1hkvs8co26ehcm6ry22mv8w,32ktq2v7rhsbjebxogr1oqzozrym9k,RGbNy4cI,2020-0188,2021-10-31,07:57:32,08:59:42,NA,incomplete,false,NA,true,NA,1,1,NA,NA,NA,right,NA,NA,NA,present,NA,NA,m_s_098.jpg,brown,n_s_026.jpg,brown,within,NA,NaN,NA,NA,NA,NA,right,2758.300000011921,1,1,1509.2999999970198
RGbNy4cI,3dw3bnf1hkvs8co26ehcm6ry22mv8w,32ktq2v7rhsbjebxogr1oqzozrym9k,RGbNy4cI,2020-0188,2021-10-31,07:57:32,08:59:42,NA,incomplete,false,NA,true,NA,1,2,NA,NA,NA,right,NA,NA,NA,present,NA,NA,m_l_084.jpg,blue,n_l_103.jpg,green,between,NA,NaN,NA,NA,NA,NA,left,2749,0,1,2101.9000000059605
RGbNy4cI,3dw3bnf1hkvs8co26ehcm6ry22mv8w,32ktq2v7rhsbjebxogr1oqzozrym9k,RGbNy4cI,2020-0188,2021-10-31,07:57:32,08:59:42,NA,incomplete,false,NA,true,NA,1,3,NA,NA,NA,right,NA,NA,NA,present,NA,NA,n_l_042.jpg,green,n_s_009.jpg,purple,between,NA,NaN,NA,NA,NA,NA,right,2638.5999999940395,1,2,1477.9000000059605
RGbNy4cI,3dw3bnf1hkvs8co26ehcm6ry22mv8w,32ktq2v7rhsbjebxogr1oqzozrym9k,RGbNy4cI,2020-0188,2021-10-31,07:57:32,08:59:42,NA,incomplete,false,NA,true,NA,1,4,NA,NA,NA,right,NA,NA,NA,present,NA,NA,n_l_025.jpg,purple,n_s_092.jpg,purple,within,NA,NaN,NA,NA,NA,NA,left,2500.5,0,1,1167.5
RGbNy4cI,3dw3bnf1hkvs8co26ehcm6ry22mv8w,32ktq2v7rhsbjebxogr1oqzozrym9k,RGbNy4cI,2020-0188,2021-10-31,07:57:32,08:59:42,NA,incomplete,false,NA,true,NA,1,5,NA,NA,NA,left,NA,NA,NA,present,NA,NA,n_s_089.jpg,blue,m_l_044.jpg,blue,within,NA,NaN,NA,NA,NA,NA,right,1878,0,1,2125.2999999970198
RGbNy4cI,3dw3bnf1hkvs8co26ehcm6ry22mv8w,32ktq2v7rhsbjebxogr1oqzozrym9k,RGbNy4cI,2020-0188,2021-10-31,07:57:32,08:59:42,NA,incomplete,false,NA,true,NA,1,6,NA,NA,NA,left,NA,NA,NA,present,NA,NA,n_l_071.jpg,gray,n_s_079.jpg,gray,within,NA,NaN,NA,NA,NA,NA,left,1382.5,1,1,1582.699999988079
RGbNy4cI,3dw3bnf1hkvs8co26ehcm6ry22mv8w,32ktq2v7rhsbjebxogr1oqzozrym9k,RGbNy4cI,2020-0188,2021-10-31,07:57:32,08:59:42,NA,incomplete,false,NA,true,NA,1,7,NA,NA,NA,right,NA,NA,NA,present,NA,NA,m_s_112.jpg,white,m_l_076.jpg,white,within,NA,NaN,NA,NA,NA,NA,left,1455.5,0,1,1254.9000000059605
RGbNy4cI,3dw3bnf1hkvs8co26ehcm6ry22mv8w,32ktq2v7rhsbjebxogr1oqzozrym9k,RGbNy4cI,2020-0188,2021-10-31,07:57:32,08:59:42,NA,incomplete,false,NA,true,NA,1,8,NA,NA,NA,right,NA,NA,NA,present,NA,NA,n_s_114.jpg,brown,m_s_038.jpg,gray,between,NA,NaN,NA,NA,NA,NA,right,2071,1,1,2373.6000000089407
RGbNy4cI,3dw3bnf1hkvs8co26ehcm6ry22mv8w,32ktq2v7rhsbjebxogr1oqzozrym9k,RGbNy4cI,2020-0188,2021-10-31,07:57:32,08:59:42,NA,incomplete,false,NA,true,NA,1,9,NA,NA,NA,left,NA,NA,NA,present,NA,NA,n_s_035.jpg,green,m_l_046.jpg,green,within,NA,NaN,NA,NA,NA,NA,left,2221.8999999910593,1,1,934.0999999940395
RGbNy4cI,3dw3bnf1hkvs8co26ehcm6ry22mv8w,32ktq2v7rhsbjebxogr1oqzozrym9k,RGbNy4cI,2020-0188,2021-10-31,07:57:32,08:59:42,NA,incomplete,false,NA,true,NA,1,10,NA,NA,NA,right,NA,NA,NA,present,NA,NA,m_s_106.jpg,purple,n_l_064.jpg,brown,between,NA,NaN,NA,NA,NA,NA,right,3060.9000000059605,1,2,1526.4000000059605
RGbNy4cI,3dw3bnf1hkvs8co26ehcm6ry22mv8w,32ktq2v7rhsbjebxogr1oqzozrym9k,RGbNy4cI,2020-0188,2021-10-31,07:57:32,08:59:42,NA,incomplete,false,true,NA,NA,2,0,NA,black,n_l_018.jpg,NA,NA,NA,NA,NA,unpleasant,pleasant,NA,NA,NA,NA,NA,right,1101.5,true,NA,NA,NA,NA,NA,NA,NA,NA
RGbNy4cI,3dw3bnf1hkvs8co26ehcm6ry22mv8w,32ktq2v7rhsbjebxogr1oqzozrym9k,RGbNy4cI,2020-0188,2021-10-31,07:57:32,08:59:42,NA,incomplete,false,true,NA,NA,2,1,NA,black,n_l_115.jpg,NA,NA,NA,NA,NA,unpleasant,pleasant,NA,NA,NA,NA,NA,right,958.79999999702,true,NA,NA,NA,NA,NA,NA,NA,NA
RGbNy4cI,3dw3bnf1hkvs8co26ehcm6ry22mv8w,32ktq2v7rhsbjebxogr1oqzozrym9k,RGbNy4cI,2020-0188,2021-10-31,07:57:32,08:59:42,NA,incomplete,false,true,NA,NA,2,2,NA,black,n_s_067.jpg,NA,NA,NA,NA,NA,pleasant,unpleasant,NA,NA,NA,NA,NA,right,858.29999999702,true,NA,NA,NA,NA,NA,NA,NA,NA
RGbNy4cI,3dw3bnf1hkvs8co26ehcm6ry22mv8w,32ktq2v7rhsbjebxogr1oqzozrym9k,RGbNy4cI,2020-0188,2021-10-31,07:57:32,08:59:42,NA,incomplete,false,true,NA,NA,2,3,NA,black,n_s_105.jpg,NA,NA,NA,NA,NA,pleasant,unpleasant,NA,NA,NA,NA,NA,left,1324.79999999702,true,NA,NA,NA,NA,NA,NA,NA,NA
RGbNy4cI,3dw3bnf1hkvs8co26ehcm6ry22mv8w,32ktq2v7rhsbjebxogr1oqzozrym9k,RGbNy4cI,2020-0188,2021-10-31,07:57:32,08:59:42,NA,incomplete,false,true,NA,NA,2,4,NA,black,n_s_108.jpg,NA,NA,NA,NA,NA,pleasant,unpleasant,NA,NA,NA,NA,NA,left,805.300000011921,true,NA,NA,NA,NA,NA,NA,NA,NA
RGbNy4cI,3dw3bnf1hkvs8co26ehcm6ry22mv8w,32ktq2v7rhsbjebxogr1oqzozrym9k,RGbNy4cI,2020-0188,2021-10-31,07:57:32,08:59:42,NA,incomplete,false,true,NA,NA,2,5,NA,black,n_l_073.jpg,NA,NA,NA,NA,NA,unpleasant,pleasant,NA,NA,NA,NA,NA,right,983.20000000298,true,NA,NA,NA,NA,NA,NA,NA,NA
RGbNy4cI,3dw3bnf1hkvs8co26ehcm6ry22mv8w,32ktq2v7rhsbjebxogr1oqzozrym9k,RGbNy4cI,2020-0188,2021-10-31,07:57:32,08:59:42,NA,incomplete,false,true,NA,NA,2,6,NA,gray,n_l_009.jpg,NA,NA,NA,NA,NA,pleasant,unpleasant,NA,NA,NA,NA,NA,right,1490.10000000894,true,NA,NA,NA,NA,NA,NA,NA,NA
RGbNy4cI,3dw3bnf1hkvs8co26ehcm6ry22mv8w,32ktq2v7rhsbjebxogr1oqzozrym9k,RGbNy4cI,2020-0188,2021-10-31,07:57:32,08:59:42,NA,incomplete,false,true,NA,NA,2,7,NA,gray,m_s_094.jpg,NA,NA,NA,NA,NA,pleasant,unpleasant,NA,NA,NA,NA,NA,left,979.40000000596,true,NA,NA,NA,NA,NA,NA,NA,NA
RGbNy4cI,3dw3bnf1hkvs8co26ehcm6ry22mv8w,32ktq2v7rhsbjebxogr1oqzozrym9k,RGbNy4cI,2020-0188,2021-10-31,07:57:32,08:59:42,NA,incomplete,false,true,NA,NA,2,8,NA,gray,m_s_102.jpg,NA,NA,NA,NA,NA,unpleasant,pleasant,NA,NA,NA,NA,NA,right,1181.30000001192,true,NA,NA,NA,NA,NA,NA,NA,NA
RGbNy4cI,3dw3bnf1hkvs8co26ehcm6ry22mv8w,32ktq2v7rhsbjebxogr1oqzozrym9k,RGbNy4cI,2020-0188,2021-10-31,07:57:32,08:59:42,NA,incomplete,false,true,NA,NA,2,9,NA,gray,m_s_040.jpg,NA,NA,NA,NA,NA,unpleasant,pleasant,NA,NA,NA,NA,NA,left,1048.40000000596,true,NA,NA,NA,NA,NA,NA,NA,NA
RGbNy4cI,3dw3bnf1hkvs8co26ehcm6ry22mv8w,32ktq2v7rhsbjebxogr1oqzozrym9k,RGbNy4cI,2020-0188,2021-10-31,07:57:32,08:59:42,NA,incomplete,false,true,NA,NA,2,10,NA,gray,n_s_008.jpg,NA,NA,NA,NA,NA,pleasant,unpleasant,NA,NA,NA,NA,NA,left,1051.80000001192,true,NA,NA,NA,NA,NA,NA,NA,NA
RGbNy4cI,3dw3bnf1hkvs8co26ehcm6ry22mv8w,32ktq2v7rhsbjebxogr1oqzozrym9k,RGbNy4cI,2020-0188,2021-10-31,07:57:32,08:59:42,NA,incomplete,false,true,NA,NA,2,11,NA,gray,m_s_090.jpg,NA,NA,NA,NA,NA,pleasant,unpleasant,NA,NA,NA,NA,NA,left,990,true,NA,NA,NA,NA,NA,NA,NA,NA
RGbNy4cI,3dw3bnf1hkvs8co26ehcm6ry22mv8w,32ktq2v7rhsbjebxogr1oqzozrym9k,RGbNy4cI,2020-0188,2021-10-31,07:57:32,08:59:42,NA,incomplete,false,true,NA,NA,2,12,NA,orange,m_s_080.jpg,NA,NA,NA,NA,NA,pleasant,unpleasant,NA,NA,NA,NA,NA,left,1095.70000000298,true,NA,NA,NA,NA,NA,NA,NA,NA
RGbNy4cI,3dw3bnf1hkvs8co26ehcm6ry22mv8w,32ktq2v7rhsbjebxogr1oqzozrym9k,RGbNy4cI,2020-0188,2021-10-31,07:57:32,08:59:42,NA,incomplete,false,true,NA,NA,2,13,NA,orange,n_l_062.jpg,NA,NA,NA,NA,NA,pleasant,unpleasant,NA,NA,NA,NA,NA,left,851.20000000298,true,NA,NA,NA,NA,NA,NA,NA,NA
RGbNy4cI,3dw3bnf1hkvs8co26ehcm6ry22mv8w,32ktq2v7rhsbjebxogr1oqzozrym9k,RGbNy4cI,2020-0188,2021-10-31,07:57:32,08:59:42,NA,incomplete,false,true,NA,NA,2,14,NA,orange,m_s_062.jpg,NA,NA,NA,NA,NA,pleasant,unpleasant,NA,NA,NA,NA,NA,left,787.79999999702,true,NA,NA,NA,NA,NA,NA,NA,NA
RGbNy4cI,3dw3bnf1hkvs8co26ehcm6ry22mv8w,32ktq2v7rhsbjebxogr1oqzozrym9k,RGbNy4cI,2020-0188,2021-10-31,07:57:32,08:59:42,NA,incomplete,false,true,NA,NA,2,15,NA,orange,m_s_057.jpg,NA,NA,NA,NA,NA,unpleasant,pleasant,NA,NA,NA,NA,NA,right,1038.69999998808,true,NA,NA,NA,NA,NA,NA,NA,NA
RGbNy4cI,3dw3bnf1hkvs8co26ehcm6ry22mv8w,32ktq2v7rhsbjebxogr1oqzozrym9k,RGbNy4cI,2020-0188,2021-10-31,07:57:32,08:59:42,NA,incomplete,false,true,NA,NA,2,16,NA,orange,m_l_061.jpg,NA,NA,NA,NA,NA,pleasant,unpleasant,NA,NA,NA,NA,NA,left,1079.5,true,NA,NA,NA,NA,NA,NA,NA,NA
RGbNy4cI,3dw3bnf1hkvs8co26ehcm6ry22mv8w,32ktq2v7rhsbjebxogr1oqzozrym9k,RGbNy4cI,2020-0188,2021-10-31,07:57:32,08:59:42,NA,incomplete,false,true,NA,NA,2,17,NA,orange,m_l_010.jpg,NA,NA,NA,NA,NA,pleasant,unpleasant,NA,NA,NA,NA,NA,left,970.800000011921,true,NA,NA,NA,NA,NA,NA,NA,NA
RGbNy4cI,3dw3bnf1hkvs8co26ehcm6ry22mv8w,32ktq2v7rhsbjebxogr1oqzozrym9k,RGbNy4cI,2020-0188,2021-10-31,07:57:32,08:59:42,NA,incomplete,false,true,NA,NA,2,18,NA,yellow,n_l_008.jpg,NA,NA,NA,NA,NA,unpleasant,pleasant,NA,NA,NA,NA,NA,left,1237,true,NA,NA,NA,NA,NA,NA,NA,NA
RGbNy4cI,3dw3bnf1hkvs8co26ehcm6ry22mv8w,32ktq2v7rhsbjebxogr1oqzozrym9k,RGbNy4cI,2020-0188,2021-10-31,07:57:32,08:59:42,NA,incomplete,false,true,NA,NA,2,19,NA,yellow,n_s_031.jpg,NA,NA,NA,NA,NA,unpleasant,pleasant,NA,NA,NA,NA,NA,right,1231.69999998808,true,NA,NA,NA,NA,NA,NA,NA,NA
RGbNy4cI,3dw3bnf1hkvs8co26ehcm6ry22mv8w,32ktq2v7rhsbjebxogr1oqzozrym9k,RGbNy4cI,2020-0188,2021-10-31,07:57:32,08:59:42,NA,incomplete,false,true,NA,NA,2,20,NA,yellow,n_l_013.jpg,NA,NA,NA,NA,NA,unpleasant,pleasant,NA,NA,NA,NA,NA,right,945.800000011921,true,NA,NA,NA,NA,NA,NA,NA,NA
RGbNy4cI,3dw3bnf1hkvs8co26ehcm6ry22mv8w,32ktq2v7rhsbjebxogr1oqzozrym9k,RGbNy4cI,2020-0188,2021-10-31,07:57:32,08:59:42,NA,incomplete,false,true,NA,NA,2,21,NA,yellow,n_s_113.jpg,NA,NA,NA,NA,NA,pleasant,unpleasant,NA,NA,NA,NA,NA,left,1091.80000001192,true,NA,NA,NA,NA,NA,NA,NA,NA
RGbNy4cI,3dw3bnf1hkvs8co26ehcm6ry22mv8w,32ktq2v7rhsbjebxogr1oqzozrym9k,RGbNy4cI,2020-0188,2021-10-31,07:57:32,08:59:42,NA,incomplete,false,true,NA,NA,2,22,NA,yellow,m_l_101.jpg,NA,NA,NA,NA,NA,pleasant,unpleasant,NA,NA,NA,NA,NA,left,1126.59999999404,true,NA,NA,NA,NA,NA,NA,NA,NA
RGbNy4cI,3dw3bnf1hkvs8co26ehcm6ry22mv8w,32ktq2v7rhsbjebxogr1oqzozrym9k,RGbNy4cI,2020-0188,2021-10-31,07:57:32,08:59:42,NA,incomplete,false,true,NA,NA,2,23,NA,yellow,m_l_009.jpg,NA,NA,NA,NA,NA,unpleasant,pleasant,NA,NA,NA,NA,NA,left,1225.19999998808,true,NA,NA,NA,NA,NA,NA,NA,NA
RGbNy4cI,3dw3bnf1hkvs8co26ehcm6ry22mv8w,32ktq2v7rhsbjebxogr1oqzozrym9k,RGbNy4cI,2020-0188,2021-10-31,07:57:32,08:59:42,NA,incomplete,false,true,NA,NA,2,24,NA,purple,n_l_100.jpg,NA,NA,NA,NA,NA,unpleasant,pleasant,NA,NA,NA,NA,NA,right,771,true,NA,NA,NA,NA,NA,NA,NA,NA
RGbNy4cI,3dw3bnf1hkvs8co26ehcm6ry22mv8w,32ktq2v7rhsbjebxogr1oqzozrym9k,RGbNy4cI,2020-0188,2021-10-31,07:57:32,08:59:42,NA,incomplete,false,true,NA,NA,2,25,NA,purple,m_l_013.jpg,NA,NA,NA,NA,NA,unpleasant,pleasant,NA,NA,NA,NA,NA,right,1314.39999999106,true,NA,NA,NA,NA,NA,NA,NA,NA
RGbNy4cI,3dw3bnf1hkvs8co26ehcm6ry22mv8w,32ktq2v7rhsbjebxogr1oqzozrym9k,RGbNy4cI,2020-0188,2021-10-31,07:57:32,08:59:42,NA,incomplete,false,true,NA,NA,2,26,NA,purple,n_s_038.jpg,NA,NA,NA,NA,NA,unpleasant,pleasant,NA,NA,NA,NA,NA,right,1181.79999999702,true,NA,NA,NA,NA,NA,NA,NA,NA
RGbNy4cI,3dw3bnf1hkvs8co26ehcm6ry22mv8w,32ktq2v7rhsbjebxogr1oqzozrym9k,RGbNy4cI,2020-0188,2021-10-31,07:57:32,08:59:42,NA,incomplete,false,true,NA,NA,2,27,NA,purple,m_s_093.jpg,NA,NA,NA,NA,NA,pleasant,unpleasant,NA,NA,NA,NA,NA,left,1098.60000000894,true,NA,NA,NA,NA,NA,NA,NA,NA
RGbNy4cI,3dw3bnf1hkvs8co26ehcm6ry22mv8w,32ktq2v7rhsbjebxogr1oqzozrym9k,RGbNy4cI,2020-0188,2021-10-31,07:57:32,08:59:42,NA,incomplete,false,true,NA,NA,2,28,NA,purple,n_s_097.jpg,NA,NA,NA,NA,NA,pleasant,unpleasant,NA,NA,NA,NA,NA,left,814.09999999404,true,NA,NA,NA,NA,NA,NA,NA,NA
RGbNy4cI,3dw3bnf1hkvs8co26ehcm6ry22mv8w,32ktq2v7rhsbjebxogr1oqzozrym9k,RGbNy4cI,2020-0188,2021-10-31,07:57:32,08:59:42,NA,incomplete,false,true,NA,NA,2,29,NA,purple,m_s_039.jpg,NA,NA,NA,NA,NA,pleasant,unpleasant,NA,NA,NA,NA,NA,left,970.20000000298,true,NA,NA,NA,NA,NA,NA,NA,NA
RGbNy4cI,3dw3bnf1hkvs8co26ehcm6ry22mv8w,32ktq2v7rhsbjebxogr1oqzozrym9k,RGbNy4cI,2020-0188,2021-10-31,07:57:32,08:59:42,NA,incomplete,false,true,NA,NA,2,30,NA,brown,m_s_053.jpg,NA,NA,NA,NA,NA,pleasant,unpleasant,NA,NA,NA,NA,NA,left,1313.5,true,NA,NA,NA,NA,NA,NA,NA,NA
RGbNy4cI,3dw3bnf1hkvs8co26ehcm6ry22mv8w,32ktq2v7rhsbjebxogr1oqzozrym9k,RGbNy4cI,2020-0188,2021-10-31,07:57:32,08:59:42,NA,incomplete,false,true,NA,NA,2,31,NA,brown,m_l_033.jpg,NA,NA,NA,NA,NA,pleasant,unpleasant,NA,NA,NA,NA,NA,left,756,true,NA,NA,NA,NA,NA,NA,NA,NA
RGbNy4cI,3dw3bnf1hkvs8co26ehcm6ry22mv8w,32ktq2v7rhsbjebxogr1oqzozrym9k,RGbNy4cI,2020-0188,2021-10-31,07:57:32,08:59:42,NA,incomplete,false,true,NA,NA,2,32,NA,brown,m_l_075.jpg,NA,NA,NA,NA,NA,pleasant,unpleasant,NA,NA,NA,NA,NA,left,709.800000011921,true,NA,NA,NA,NA,NA,NA,NA,NA
RGbNy4cI,3dw3bnf1hkvs8co26ehcm6ry22mv8w,32ktq2v7rhsbjebxogr1oqzozrym9k,RGbNy4cI,2020-0188,2021-10-31,07:57:32,08:59:42,NA,incomplete,false,true,NA,NA,2,33,NA,brown,m_l_011.jpg,NA,NA,NA,NA,NA,pleasant,unpleasant,NA,NA,NA,NA,NA,left,809.5,true,NA,NA,NA,NA,NA,NA,NA,NA
RGbNy4cI,3dw3bnf1hkvs8co26ehcm6ry22mv8w,32ktq2v7rhsbjebxogr1oqzozrym9k,RGbNy4cI,2020-0188,2021-10-31,07:57:32,08:59:42,NA,incomplete,false,true,NA,NA,2,34,NA,brown,n_l_022.jpg,NA,NA,NA,NA,NA,pleasant,unpleasant,NA,NA,NA,NA,NA,left,756.100000008941,true,NA,NA,NA,NA,NA,NA,NA,NA
RGbNy4cI,3dw3bnf1hkvs8co26ehcm6ry22mv8w,32ktq2v7rhsbjebxogr1oqzozrym9k,RGbNy4cI,2020-0188,2021-10-31,07:57:32,08:59:42,NA,incomplete,false,true,NA,NA,2,35,NA,brown,m_l_015.jpg,NA,NA,NA,NA,NA,pleasant,unpleasant,NA,NA,NA,NA,NA,left,1093.39999999106,true,NA,NA,NA,NA,NA,NA,NA,NA
RGbNy4cI,3dw3bnf1hkvs8co26ehcm6ry22mv8w,32ktq2v7rhsbjebxogr1oqzozrym9k,RGbNy4cI,2020-0188,2021-10-31,07:57:32,08:59:42,NA,incomplete,false,NA,NA,true,2,0,NA,NA,NA,left,m_l_061.jpg,orange,gray,NA,NA,NA,NA,NA,NA,NA,NA,NA,NaN,NA,2022.0999999940395,left,1,NA,NA,NA,NA,NA
RGbNy4cI,3dw3bnf1hkvs8co26ehcm6ry22mv8w,32ktq2v7rhsbjebxogr1oqzozrym9k,RGbNy4cI,2020-0188,2021-10-31,07:57:32,08:59:42,NA,incomplete,false,NA,NA,true,2,1,NA,NA,NA,right,m_s_102.jpg,orange,gray,NA,NA,NA,NA,NA,NA,NA,NA,NA,NaN,NA,1605.5999999940395,right,1,NA,NA,NA,NA,NA
RGbNy4cI,3dw3bnf1hkvs8co26ehcm6ry22mv8w,32ktq2v7rhsbjebxogr1oqzozrym9k,RGbNy4cI,2020-0188,2021-10-31,07:57:32,08:59:42,NA,incomplete,false,NA,NA,true,2,2,NA,NA,NA,left,n_s_038.jpg,purple,yellow,NA,NA,NA,NA,NA,NA,NA,NA,NA,NaN,NA,1629.9000000059605,left,1,NA,NA,NA,NA,NA
RGbNy4cI,3dw3bnf1hkvs8co26ehcm6ry22mv8w,32ktq2v7rhsbjebxogr1oqzozrym9k,RGbNy4cI,2020-0188,2021-10-31,07:57:32,08:59:42,NA,incomplete,false,NA,NA,true,2,3,NA,NA,NA,left,n_s_097.jpg,purple,brown,NA,NA,NA,NA,NA,NA,NA,NA,NA,NaN,NA,2205.2999999970198,right,0,NA,NA,NA,NA,NA
RGbNy4cI,3dw3bnf1hkvs8co26ehcm6ry22mv8w,32ktq2v7rhsbjebxogr1oqzozrym9k,RGbNy4cI,2020-0188,2021-10-31,07:57:32,08:59:42,NA,incomplete,false,NA,NA,true,2,4,NA,NA,NA,left,n_l_062.jpg,orange,gray,NA,NA,NA,NA,NA,NA,NA,NA,NA,NaN,NA,1677.9000000059605,left,1,NA,NA,NA,NA,NA
RGbNy4cI,3dw3bnf1hkvs8co26ehcm6ry22mv8w,32ktq2v7rhsbjebxogr1oqzozrym9k,RGbNy4cI,2020-0188,2021-10-31,07:57:32,08:59:42,NA,incomplete,false,NA,NA,true,2,5,NA,NA,NA,right,m_s_039.jpg,brown,purple,NA,NA,NA,NA,NA,NA,NA,NA,NA,NaN,NA,1702.2999999970198,right,1,NA,NA,NA,NA,NA
RGbNy4cI,3dw3bnf1hkvs8co26ehcm6ry22mv8w,32ktq2v7rhsbjebxogr1oqzozrym9k,RGbNy4cI,2020-0188,2021-10-31,07:57:32,08:59:42,NA,incomplete,false,NA,NA,true,2,6,NA,NA,NA,right,m_s_062.jpg,yellow,orange,NA,NA,NA,NA,NA,NA,NA,NA,NA,NaN,NA,3030.7999999970198,left,0,NA,NA,NA,NA,NA
RGbNy4cI,3dw3bnf1hkvs8co26ehcm6ry22mv8w,32ktq2v7rhsbjebxogr1oqzozrym9k,RGbNy4cI,2020-0188,2021-10-31,07:57:32,08:59:42,NA,incomplete,false,NA,NA,true,2,7,NA,NA,NA,right,m_l_101.jpg,orange,yellow,NA,NA,NA,NA,NA,NA,NA,NA,NA,NaN,NA,1565.2999999970198,right,1,NA,NA,NA,NA,NA
RGbNy4cI,3dw3bnf1hkvs8co26ehcm6ry22mv8w,32ktq2v7rhsbjebxogr1oqzozrym9k,RGbNy4cI,2020-0188,2021-10-31,07:57:32,08:59:42,NA,incomplete,false,NA,NA,true,2,8,NA,NA,NA,right,n_l_013.jpg,orange,yellow,NA,NA,NA,NA,NA,NA,NA,NA,NA,NaN,NA,1757.0999999940395,left,0,NA,NA,NA,NA,NA
RGbNy4cI,3dw3bnf1hkvs8co26ehcm6ry22mv8w,32ktq2v7rhsbjebxogr1oqzozrym9k,RGbNy4cI,2020-0188,2021-10-31,07:57:32,08:59:42,NA,incomplete,false,NA,NA,true,2,9,NA,NA,NA,right,n_l_073.jpg,gray,black,NA,NA,NA,NA,NA,NA,NA,NA,NA,NaN,NA,3358.5999999940395,right,1,NA,NA,NA,NA,NA
RGbNy4cI,3dw3bnf1hkvs8co26ehcm6ry22mv8w,32ktq2v7rhsbjebxogr1oqzozrym9k,RGbNy4cI,2020-0188,2021-10-31,07:57:32,08:59:42,NA,incomplete,false,NA,NA,true,2,10,NA,NA,NA,left,n_s_008.jpg,gray,black,NA,NA,NA,NA,NA,NA,NA,NA,NA,NaN,NA,1901.5,left,1,NA,NA,NA,NA,NA
RGbNy4cI,3dw3bnf1hkvs8co26ehcm6ry22mv8w,32ktq2v7rhsbjebxogr1oqzozrym9k,RGbNy4cI,2020-0188,2021-10-31,07:57:32,08:59:42,NA,incomplete,false,NA,NA,true,2,11,NA,NA,NA,left,m_l_015.jpg,brown,purple,NA,NA,NA,NA,NA,NA,NA,NA,NA,NaN,NA,1462.699999988079,left,1,NA,NA,NA,NA,NA
RGbNy4cI,3dw3bnf1hkvs8co26ehcm6ry22mv8w,32ktq2v7rhsbjebxogr1oqzozrym9k,RGbNy4cI,2020-0188,2021-10-31,07:57:32,08:59:42,NA,incomplete,false,NA,NA,true,2,12,NA,NA,NA,left,n_l_115.jpg,black,gray,NA,NA,NA,NA,NA,NA,NA,NA,NA,NaN,NA,1391.0999999940395,left,1,NA,NA,NA,NA,NA
RGbNy4cI,3dw3bnf1hkvs8co26ehcm6ry22mv8w,32ktq2v7rhsbjebxogr1oqzozrym9k,RGbNy4cI,2020-0188,2021-10-31,07:57:32,08:59:42,NA,incomplete,false,NA,NA,true,2,13,NA,NA,NA,left,n_s_031.jpg,yellow,purple,NA,NA,NA,NA,NA,NA,NA,NA,NA,NaN,NA,2013.7999999970198,right,0,NA,NA,NA,NA,NA
RGbNy4cI,3dw3bnf1hkvs8co26ehcm6ry22mv8w,32ktq2v7rhsbjebxogr1oqzozrym9k,RGbNy4cI,2020-0188,2021-10-31,07:57:32,08:59:42,NA,incomplete,false,NA,NA,true,2,14,NA,NA,NA,left,m_l_033.jpg,brown,purple,NA,NA,NA,NA,NA,NA,NA,NA,NA,NaN,NA,1462.4000000059605,left,1,NA,NA,NA,NA,NA
RGbNy4cI,3dw3bnf1hkvs8co26ehcm6ry22mv8w,32ktq2v7rhsbjebxogr1oqzozrym9k,RGbNy4cI,2020-0188,2021-10-31,07:57:32,08:59:42,NA,incomplete,false,NA,NA,true,2,15,NA,NA,NA,left,m_l_009.jpg,yellow,purple,NA,NA,NA,NA,NA,NA,NA,NA,NA,NaN,NA,2693.4000000059605,left,1,NA,NA,NA,NA,NA
RGbNy4cI,3dw3bnf1hkvs8co26ehcm6ry22mv8w,32ktq2v7rhsbjebxogr1oqzozrym9k,RGbNy4cI,2020-0188,2021-10-31,07:57:32,08:59:42,NA,incomplete,false,NA,NA,true,2,16,NA,NA,NA,right,m_l_075.jpg,purple,brown,NA,NA,NA,NA,NA,NA,NA,NA,NA,NaN,NA,1294.4000000059605,right,1,NA,NA,NA,NA,NA
RGbNy4cI,3dw3bnf1hkvs8co26ehcm6ry22mv8w,32ktq2v7rhsbjebxogr1oqzozrym9k,RGbNy4cI,2020-0188,2021-10-31,07:57:32,08:59:42,NA,incomplete,false,NA,NA,true,2,17,NA,NA,NA,right,m_s_090.jpg,orange,gray,NA,NA,NA,NA,NA,NA,NA,NA,NA,NaN,NA,1622,left,0,NA,NA,NA,NA,NA
RGbNy4cI,3dw3bnf1hkvs8co26ehcm6ry22mv8w,32ktq2v7rhsbjebxogr1oqzozrym9k,RGbNy4cI,2020-0188,2021-10-31,07:57:32,08:59:42,NA,incomplete,false,NA,NA,true,2,18,NA,NA,NA,left,n_s_108.jpg,black,gray,NA,NA,NA,NA,NA,NA,NA,NA,NA,NaN,NA,1899.9000000059605,left,1,NA,NA,NA,NA,NA
RGbNy4cI,3dw3bnf1hkvs8co26ehcm6ry22mv8w,32ktq2v7rhsbjebxogr1oqzozrym9k,RGbNy4cI,2020-0188,2021-10-31,07:57:32,08:59:42,NA,incomplete,false,NA,NA,true,2,19,NA,NA,NA,left,m_l_013.jpg,purple,brown,NA,NA,NA,NA,NA,NA,NA,NA,NA,NaN,NA,1342.7000000029802,right,0,NA,NA,NA,NA,NA
RGbNy4cI,3dw3bnf1hkvs8co26ehcm6ry22mv8w,32ktq2v7rhsbjebxogr1oqzozrym9k,RGbNy4cI,2020-0188,2021-10-31,07:57:32,08:59:42,NA,incomplete,false,NA,NA,true,2,20,NA,NA,NA,right,m_l_010.jpg,yellow,orange,NA,NA,NA,NA,NA,NA,NA,NA,NA,NaN,NA,1366.7999999970198,right,1,NA,NA,NA,NA,NA
RGbNy4cI,3dw3bnf1hkvs8co26ehcm6ry22mv8w,32ktq2v7rhsbjebxogr1oqzozrym9k,RGbNy4cI,2020-0188,2021-10-31,07:57:32,08:59:42,NA,incomplete,false,NA,NA,true,2,21,NA,NA,NA,right,m_s_094.jpg,orange,gray,NA,NA,NA,NA,NA,NA,NA,NA,NA,NaN,NA,2158.2000000029802,right,1,NA,NA,NA,NA,NA
RGbNy4cI,3dw3bnf1hkvs8co26ehcm6ry22mv8w,32ktq2v7rhsbjebxogr1oqzozrym9k,RGbNy4cI,2020-0188,2021-10-31,07:57:32,08:59:42,NA,incomplete,false,NA,true,NA,2,0,NA,NA,NA,right,NA,NA,NA,present,NA,NA,m_l_075.jpg,brown,n_s_097.jpg,purple,between,NA,NaN,NA,NA,NA,NA,left,3368.6000000089407,0,3,1269.9000000059605
RGbNy4cI,3dw3bnf1hkvs8co26ehcm6ry22mv8w,32ktq2v7rhsbjebxogr1oqzozrym9k,RGbNy4cI,2020-0188,2021-10-31,07:57:32,08:59:42,NA,incomplete,false,NA,true,NA,2,1,NA,NA,NA,right,NA,NA,NA,present,NA,NA,m_s_102.jpg,gray,n_s_108.jpg,black,between,NA,NaN,NA,NA,NA,NA,right,1932.7000000029802,1,2,1293
RGbNy4cI,3dw3bnf1hkvs8co26ehcm6ry22mv8w,32ktq2v7rhsbjebxogr1oqzozrym9k,RGbNy4cI,2020-0188,2021-10-31,07:57:32,08:59:42,NA,incomplete,false,NA,true,NA,2,2,NA,NA,NA,left,NA,NA,NA,present,NA,NA,n_s_031.jpg,yellow,m_l_009.jpg,yellow,within,NA,NaN,NA,NA,NA,NA,right,2133.1000000089407,0,1,1134.1000000089407
RGbNy4cI,3dw3bnf1hkvs8co26ehcm6ry22mv8w,32ktq2v7rhsbjebxogr1oqzozrym9k,RGbNy4cI,2020-0188,2021-10-31,07:57:32,08:59:42,NA,incomplete,false,NA,true,NA,2,3,NA,NA,NA,left,NA,NA,NA,present,NA,NA,m_l_061.jpg,orange,n_l_013.jpg,yellow,between,NA,NaN,NA,NA,NA,NA,left,1470.2000000029802,1,1,832
RGbNy4cI,3dw3bnf1hkvs8co26ehcm6ry22mv8w,32ktq2v7rhsbjebxogr1oqzozrym9k,RGbNy4cI,2020-0188,2021-10-31,07:57:32,08:59:42,NA,incomplete,false,NA,true,NA,2,4,NA,NA,NA,right,NA,NA,NA,present,NA,NA,m_s_039.jpg,purple,m_l_013.jpg,purple,within,NA,NaN,NA,NA,NA,NA,left,2901.9000000059605,0,1,1286.1000000089407
RGbNy4cI,3dw3bnf1hkvs8co26ehcm6ry22mv8w,32ktq2v7rhsbjebxogr1oqzozrym9k,RGbNy4cI,2020-0188,2021-10-31,07:57:32,08:59:42,NA,incomplete,false,NA,true,NA,2,5,NA,NA,NA,right,NA,NA,NA,present,NA,NA,m_s_062.jpg,orange,n_s_008.jpg,gray,between,NA,NaN,NA,NA,NA,NA,right,2150.7999999970198,1,1,1519.7000000029802
RGbNy4cI,3dw3bnf1hkvs8co26ehcm6ry22mv8w,32ktq2v7rhsbjebxogr1oqzozrym9k,RGbNy4cI,2020-0188,2021-10-31,07:57:32,08:59:42,NA,incomplete,false,NA,true,NA,2,6,NA,NA,NA,right,NA,NA,NA,present,NA,NA,m_s_090.jpg,gray,m_s_094.jpg,gray,within,NA,NaN,NA,NA,NA,NA,left,1615.5,0,1,1118.7999999970198
RGbNy4cI,3dw3bnf1hkvs8co26ehcm6ry22mv8w,32ktq2v7rhsbjebxogr1oqzozrym9k,RGbNy4cI,2020-0188,2021-10-31,07:57:32,08:59:42,NA,incomplete,false,NA,true,NA,2,7,NA,NA,NA,left,NA,NA,NA,present,NA,NA,n_l_062.jpg,orange,m_l_010.jpg,orange,within,NA,NaN,NA,NA,NA,NA,left,3374.2999999970198,1,1,806.7999999970198
RGbNy4cI,3dw3bnf1hkvs8co26ehcm6ry22mv8w,32ktq2v7rhsbjebxogr1oqzozrym9k,RGbNy4cI,2020-0188,2021-10-31,07:57:32,08:59:42,NA,incomplete,false,NA,true,NA,2,8,NA,NA,NA,right,NA,NA,NA,present,NA,NA,n_l_073.jpg,black,n_l_115.jpg,black,within,NA,NaN,NA,NA,NA,NA,right,999.7000000029802,1,1,1933.8999999910593
RGbNy4cI,3dw3bnf1hkvs8co26ehcm6ry22mv8w,32ktq2v7rhsbjebxogr1oqzozrym9k,RGbNy4cI,2020-0188,2021-10-31,07:57:32,08:59:42,NA,incomplete,false,NA,true,NA,2,9,NA,NA,NA,left,NA,NA,NA,present,NA,NA,m_l_101.jpg,yellow,n_s_038.jpg,purple,between,NA,NaN,NA,NA,NA,NA,right,2645,0,2,1207
RGbNy4cI,3dw3bnf1hkvs8co26ehcm6ry22mv8w,32ktq2v7rhsbjebxogr1oqzozrym9k,RGbNy4cI,2020-0188,2021-10-31,07:57:32,08:59:42,NA,incomplete,false,NA,true,NA,2,10,NA,NA,NA,right,NA,NA,NA,present,NA,NA,m_l_015.jpg,brown,m_l_033.jpg,brown,within,NA,NaN,NA,NA,NA,NA,left,3254.0999999940395,0,2,1877.199999988079
RGbNy4cI,3dw3bnf1hkvs8co26ehcm6ry22mv8w,32ktq2v7rhsbjebxogr1oqzozrym9k,RGbNy4cI,2020-0188,2021-10-31,07:57:32,08:59:42,NA,incomplete,false,true,NA,NA,3,0,NA,yellow,n_s_094.jpg,NA,NA,NA,NA,NA,unpleasant,pleasant,NA,NA,NA,NA,NA,right,929.5,true,NA,NA,NA,NA,NA,NA,NA,NA
RGbNy4cI,3dw3bnf1hkvs8co26ehcm6ry22mv8w,32ktq2v7rhsbjebxogr1oqzozrym9k,RGbNy4cI,2020-0188,2021-10-31,07:57:32,08:59:42,NA,incomplete,false,true,NA,NA,3,1,NA,yellow,m_s_103.jpg,NA,NA,NA,NA,NA,unpleasant,pleasant,NA,NA,NA,NA,NA,right,956.5,true,NA,NA,NA,NA,NA,NA,NA,NA
RGbNy4cI,3dw3bnf1hkvs8co26ehcm6ry22mv8w,32ktq2v7rhsbjebxogr1oqzozrym9k,RGbNy4cI,2020-0188,2021-10-31,07:57:32,08:59:42,NA,incomplete,false,true,NA,NA,3,2,NA,yellow,n_l_035.jpg,NA,NA,NA,NA,NA,unpleasant,pleasant,NA,NA,NA,NA,NA,right,941.59999999404,true,NA,NA,NA,NA,NA,NA,NA,NA
RGbNy4cI,3dw3bnf1hkvs8co26ehcm6ry22mv8w,32ktq2v7rhsbjebxogr1oqzozrym9k,RGbNy4cI,2020-0188,2021-10-31,07:57:32,08:59:42,NA,incomplete,false,true,NA,NA,3,3,NA,yellow,m_l_002.jpg,NA,NA,NA,NA,NA,unpleasant,pleasant,NA,NA,NA,NA,NA,right,978,true,NA,NA,NA,NA,NA,NA,NA,NA
RGbNy4cI,3dw3bnf1hkvs8co26ehcm6ry22mv8w,32ktq2v7rhsbjebxogr1oqzozrym9k,RGbNy4cI,2020-0188,2021-10-31,07:57:32,08:59:42,NA,incomplete,false,true,NA,NA,3,4,NA,yellow,n_l_081.jpg,NA,NA,NA,NA,NA,unpleasant,pleasant,NA,NA,NA,NA,NA,right,644.100000008941,true,NA,NA,NA,NA,NA,NA,NA,NA
RGbNy4cI,3dw3bnf1hkvs8co26ehcm6ry22mv8w,32ktq2v7rhsbjebxogr1oqzozrym9k,RGbNy4cI,2020-0188,2021-10-31,07:57:32,08:59:42,NA,incomplete,false,true,NA,NA,3,5,NA,yellow,m_l_103.jpg,NA,NA,NA,NA,NA,pleasant,unpleasant,NA,NA,NA,NA,NA,right,823.29999999702,true,NA,NA,NA,NA,NA,NA,NA,NA
RGbNy4cI,3dw3bnf1hkvs8co26ehcm6ry22mv8w,32ktq2v7rhsbjebxogr1oqzozrym9k,RGbNy4cI,2020-0188,2021-10-31,07:57:32,08:59:42,NA,incomplete,false,true,NA,NA,3,6,NA,orange,m_s_024.jpg,NA,NA,NA,NA,NA,pleasant,unpleasant,NA,NA,NA,NA,NA,left,1167.79999999702,true,NA,NA,NA,NA,NA,NA,NA,NA
RGbNy4cI,3dw3bnf1hkvs8co26ehcm6ry22mv8w,32ktq2v7rhsbjebxogr1oqzozrym9k,RGbNy4cI,2020-0188,2021-10-31,07:57:32,08:59:42,NA,incomplete,false,true,NA,NA,3,7,NA,orange,m_s_044.jpg,NA,NA,NA,NA,NA,pleasant,unpleasant,NA,NA,NA,NA,NA,left,859.09999999404,true,NA,NA,NA,NA,NA,NA,NA,NA
RGbNy4cI,3dw3bnf1hkvs8co26ehcm6ry22mv8w,32ktq2v7rhsbjebxogr1oqzozrym9k,RGbNy4cI,2020-0188,2021-10-31,07:57:32,08:59:42,NA,incomplete,false,true,NA,NA,3,8,NA,orange,m_s_060.jpg,NA,NA,NA,NA,NA,pleasant,unpleasant,NA,NA,NA,NA,NA,left,1109,true,NA,NA,NA,NA,NA,NA,NA,NA
RGbNy4cI,3dw3bnf1hkvs8co26ehcm6ry22mv8w,32ktq2v7rhsbjebxogr1oqzozrym9k,RGbNy4cI,2020-0188,2021-10-31,07:57:32,08:59:42,NA,incomplete,false,true,NA,NA,3,9,NA,orange,n_s_068.jpg,NA,NA,NA,NA,NA,unpleasant,pleasant,NA,NA,NA,NA,NA,right,1255.5,true,NA,NA,NA,NA,NA,NA,NA,NA
RGbNy4cI,3dw3bnf1hkvs8co26ehcm6ry22mv8w,32ktq2v7rhsbjebxogr1oqzozrym9k,RGbNy4cI,2020-0188,2021-10-31,07:57:32,08:59:42,NA,incomplete,false,true,NA,NA,3,10,NA,orange,n_s_023.jpg,NA,NA,NA,NA,NA,pleasant,unpleasant,NA,NA,NA,NA,NA,left,978.90000000596,true,NA,NA,NA,NA,NA,NA,NA,NA
RGbNy4cI,3dw3bnf1hkvs8co26ehcm6ry22mv8w,32ktq2v7rhsbjebxogr1oqzozrym9k,RGbNy4cI,2020-0188,2021-10-31,07:57:32,08:59:42,NA,incomplete,false,true,NA,NA,3,11,NA,orange,n_l_015.jpg,NA,NA,NA,NA,NA,pleasant,unpleasant,NA,NA,NA,NA,NA,left,1036.09999999404,true,NA,NA,NA,NA,NA,NA,NA,NA
RGbNy4cI,3dw3bnf1hkvs8co26ehcm6ry22mv8w,32ktq2v7rhsbjebxogr1oqzozrym9k,RGbNy4cI,2020-0188,2021-10-31,07:57:32,08:59:42,NA,incomplete,false,true,NA,NA,3,12,NA,gray,n_s_061.jpg,NA,NA,NA,NA,NA,pleasant,unpleasant,NA,NA,NA,NA,NA,left,1206,true,NA,NA,NA,NA,NA,NA,NA,NA
RGbNy4cI,3dw3bnf1hkvs8co26ehcm6ry22mv8w,32ktq2v7rhsbjebxogr1oqzozrym9k,RGbNy4cI,2020-0188,2021-10-31,07:57:32,08:59:42,NA,incomplete,false,true,NA,NA,3,13,NA,gray,n_s_076.jpg,NA,NA,NA,NA,NA,pleasant,unpleasant,NA,NA,NA,NA,NA,left,1024.20000000298,true,NA,NA,NA,NA,NA,NA,NA,NA
RGbNy4cI,3dw3bnf1hkvs8co26ehcm6ry22mv8w,32ktq2v7rhsbjebxogr1oqzozrym9k,RGbNy4cI,2020-0188,2021-10-31,07:57:32,08:59:42,NA,incomplete,false,true,NA,NA,3,14,NA,gray,m_l_089.jpg,NA,NA,NA,NA,NA,unpleasant,pleasant,NA,NA,NA,NA,NA,left,1617.90000000596,true,NA,NA,NA,NA,NA,NA,NA,NA
RGbNy4cI,3dw3bnf1hkvs8co26ehcm6ry22mv8w,32ktq2v7rhsbjebxogr1oqzozrym9k,RGbNy4cI,2020-0188,2021-10-31,07:57:32,08:59:42,NA,incomplete,false,true,NA,NA,3,15,NA,gray,m_s_113.jpg,NA,NA,NA,NA,NA,unpleasant,pleasant,NA,NA,NA,NA,NA,right,1292.20000000298,true,NA,NA,NA,NA,NA,NA,NA,NA
RGbNy4cI,3dw3bnf1hkvs8co26ehcm6ry22mv8w,32ktq2v7rhsbjebxogr1oqzozrym9k,RGbNy4cI,2020-0188,2021-10-31,07:57:32,08:59:42,NA,incomplete,false,true,NA,NA,3,16,NA,gray,n_l_028.jpg,NA,NA,NA,NA,NA,unpleasant,pleasant,NA,NA,NA,NA,NA,left,1182.79999999702,true,NA,NA,NA,NA,NA,NA,NA,NA
RGbNy4cI,3dw3bnf1hkvs8co26ehcm6ry22mv8w,32ktq2v7rhsbjebxogr1oqzozrym9k,RGbNy4cI,2020-0188,2021-10-31,07:57:32,08:59:42,NA,incomplete,false,true,NA,NA,3,17,NA,gray,m_l_030.jpg,NA,NA,NA,NA,NA,unpleasant,pleasant,NA,NA,NA,NA,NA,left,889.899999991059,true,NA,NA,NA,NA,NA,NA,NA,NA
RGbNy4cI,3dw3bnf1hkvs8co26ehcm6ry22mv8w,32ktq2v7rhsbjebxogr1oqzozrym9k,RGbNy4cI,2020-0188,2021-10-31,07:57:32,08:59:42,NA,incomplete,false,true,NA,NA,3,18,NA,brown,n_l_107.jpg,NA,NA,NA,NA,NA,pleasant,unpleasant,NA,NA,NA,NA,NA,right,1628.5,true,NA,NA,NA,NA,NA,NA,NA,NA
RGbNy4cI,3dw3bnf1hkvs8co26ehcm6ry22mv8w,32ktq2v7rhsbjebxogr1oqzozrym9k,RGbNy4cI,2020-0188,2021-10-31,07:57:32,08:59:42,NA,incomplete,false,true,NA,NA,3,19,NA,brown,n_l_007.jpg,NA,NA,NA,NA,NA,pleasant,unpleasant,NA,NA,NA,NA,NA,left,877.59999999404,true,NA,NA,NA,NA,NA,NA,NA,NA
RGbNy4cI,3dw3bnf1hkvs8co26ehcm6ry22mv8w,32ktq2v7rhsbjebxogr1oqzozrym9k,RGbNy4cI,2020-0188,2021-10-31,07:57:32,08:59:42,NA,incomplete,false,true,NA,NA,3,20,NA,brown,m_s_026.jpg,NA,NA,NA,NA,NA,pleasant,unpleasant,NA,NA,NA,NA,NA,left,1561,true,NA,NA,NA,NA,NA,NA,NA,NA
RGbNy4cI,3dw3bnf1hkvs8co26ehcm6ry22mv8w,32ktq2v7rhsbjebxogr1oqzozrym9k,RGbNy4cI,2020-0188,2021-10-31,07:57:32,08:59:42,NA,incomplete,false,true,NA,NA,3,21,NA,brown,n_s_032.jpg,NA,NA,NA,NA,NA,pleasant,unpleasant,NA,NA,NA,NA,NA,left,844,true,NA,NA,NA,NA,NA,NA,NA,NA
RGbNy4cI,3dw3bnf1hkvs8co26ehcm6ry22mv8w,32ktq2v7rhsbjebxogr1oqzozrym9k,RGbNy4cI,2020-0188,2021-10-31,07:57:32,08:59:42,NA,incomplete,false,true,NA,NA,3,22,NA,brown,m_s_056.jpg,NA,NA,NA,NA,NA,unpleasant,pleasant,NA,NA,NA,NA,NA,left,1254.90000000596,true,NA,NA,NA,NA,NA,NA,NA,NA
RGbNy4cI,3dw3bnf1hkvs8co26ehcm6ry22mv8w,32ktq2v7rhsbjebxogr1oqzozrym9k,RGbNy4cI,2020-0188,2021-10-31,07:57:32,08:59:42,NA,incomplete,false,true,NA,NA,3,23,NA,brown,m_l_087.jpg,NA,NA,NA,NA,NA,unpleasant,pleasant,NA,NA,NA,NA,NA,right,1048.5,true,NA,NA,NA,NA,NA,NA,NA,NA
RGbNy4cI,3dw3bnf1hkvs8co26ehcm6ry22mv8w,32ktq2v7rhsbjebxogr1oqzozrym9k,RGbNy4cI,2020-0188,2021-10-31,07:57:32,08:59:42,NA,incomplete,false,true,NA,NA,3,24,NA,purple,n_s_117.jpg,NA,NA,NA,NA,NA,pleasant,unpleasant,NA,NA,NA,NA,NA,left,1299.5,true,NA,NA,NA,NA,NA,NA,NA,NA
RGbNy4cI,3dw3bnf1hkvs8co26ehcm6ry22mv8w,32ktq2v7rhsbjebxogr1oqzozrym9k,RGbNy4cI,2020-0188,2021-10-31,07:57:32,08:59:42,NA,incomplete,false,true,NA,NA,3,25,NA,purple,n_s_070.jpg,NA,NA,NA,NA,NA,unpleasant,pleasant,NA,NA,NA,NA,NA,right,861.899999991059,true,NA,NA,NA,NA,NA,NA,NA,NA
RGbNy4cI,3dw3bnf1hkvs8co26ehcm6ry22mv8w,32ktq2v7rhsbjebxogr1oqzozrym9k,RGbNy4cI,2020-0188,2021-10-31,07:57:32,08:59:42,NA,incomplete,false,true,NA,NA,3,26,NA,purple,n_s_021.jpg,NA,NA,NA,NA,NA,pleasant,unpleasant,NA,NA,NA,NA,NA,left,1161.30000001192,true,NA,NA,NA,NA,NA,NA,NA,NA
RGbNy4cI,3dw3bnf1hkvs8co26ehcm6ry22mv8w,32ktq2v7rhsbjebxogr1oqzozrym9k,RGbNy4cI,2020-0188,2021-10-31,07:57:32,08:59:42,NA,incomplete,false,true,NA,NA,3,27,NA,purple,m_s_105.jpg,NA,NA,NA,NA,NA,unpleasant,pleasant,NA,NA,NA,NA,NA,right,1020,true,NA,NA,NA,NA,NA,NA,NA,NA
RGbNy4cI,3dw3bnf1hkvs8co26ehcm6ry22mv8w,32ktq2v7rhsbjebxogr1oqzozrym9k,RGbNy4cI,2020-0188,2021-10-31,07:57:32,08:59:42,NA,incomplete,false,true,NA,NA,3,28,NA,purple,n_l_076.jpg,NA,NA,NA,NA,NA,pleasant,unpleasant,NA,NA,NA,NA,NA,right,1484,true,NA,NA,NA,NA,NA,NA,NA,NA
RGbNy4cI,3dw3bnf1hkvs8co26ehcm6ry22mv8w,32ktq2v7rhsbjebxogr1oqzozrym9k,RGbNy4cI,2020-0188,2021-10-31,07:57:32,08:59:42,NA,incomplete,false,true,NA,NA,3,29,NA,purple,m_l_102.jpg,NA,NA,NA,NA,NA,pleasant,unpleasant,NA,NA,NA,NA,NA,left,1334.59999999404,true,NA,NA,NA,NA,NA,NA,NA,NA
RGbNy4cI,3dw3bnf1hkvs8co26ehcm6ry22mv8w,32ktq2v7rhsbjebxogr1oqzozrym9k,RGbNy4cI,2020-0188,2021-10-31,07:57:32,08:59:42,NA,incomplete,false,true,NA,NA,3,30,NA,red,n_s_001.jpg,NA,NA,NA,NA,NA,unpleasant,pleasant,NA,NA,NA,NA,NA,right,1161.09999999404,true,NA,NA,NA,NA,NA,NA,NA,NA
RGbNy4cI,3dw3bnf1hkvs8co26ehcm6ry22mv8w,32ktq2v7rhsbjebxogr1oqzozrym9k,RGbNy4cI,2020-0188,2021-10-31,07:57:32,08:59:42,NA,incomplete,false,true,NA,NA,3,31,NA,red,m_l_005.jpg,NA,NA,NA,NA,NA,unpleasant,pleasant,NA,NA,NA,NA,NA,left,948,true,NA,NA,NA,NA,NA,NA,NA,NA
RGbNy4cI,3dw3bnf1hkvs8co26ehcm6ry22mv8w,32ktq2v7rhsbjebxogr1oqzozrym9k,RGbNy4cI,2020-0188,2021-10-31,07:57:32,08:59:42,NA,incomplete,false,true,NA,NA,3,32,NA,red,m_s_108.jpg,NA,NA,NA,NA,NA,unpleasant,pleasant,NA,NA,NA,NA,NA,right,1470.70000000298,true,NA,NA,NA,NA,NA,NA,NA,NA
RGbNy4cI,3dw3bnf1hkvs8co26ehcm6ry22mv8w,32ktq2v7rhsbjebxogr1oqzozrym9k,RGbNy4cI,2020-0188,2021-10-31,07:57:32,08:59:42,NA,incomplete,false,true,NA,NA,3,33,NA,red,n_l_065.jpg,NA,NA,NA,NA,NA,pleasant,unpleasant,NA,NA,NA,NA,NA,right,1416.29999999702,true,NA,NA,NA,NA,NA,NA,NA,NA
RGbNy4cI,3dw3bnf1hkvs8co26ehcm6ry22mv8w,32ktq2v7rhsbjebxogr1oqzozrym9k,RGbNy4cI,2020-0188,2021-10-31,07:57:32,08:59:42,NA,incomplete,false,true,NA,NA,3,34,NA,red,n_l_055.jpg,NA,NA,NA,NA,NA,pleasant,unpleasant,NA,NA,NA,NA,NA,left,1298.59999999404,true,NA,NA,NA,NA,NA,NA,NA,NA
RGbNy4cI,3dw3bnf1hkvs8co26ehcm6ry22mv8w,32ktq2v7rhsbjebxogr1oqzozrym9k,RGbNy4cI,2020-0188,2021-10-31,07:57:32,08:59:42,NA,incomplete,false,true,NA,NA,3,35,NA,red,m_l_066.jpg,NA,NA,NA,NA,NA,unpleasant,pleasant,NA,NA,NA,NA,NA,right,1487.30000001192,true,NA,NA,NA,NA,NA,NA,NA,NA
RGbNy4cI,3dw3bnf1hkvs8co26ehcm6ry22mv8w,32ktq2v7rhsbjebxogr1oqzozrym9k,RGbNy4cI,2020-0188,2021-10-31,07:57:32,08:59:42,NA,incomplete,false,NA,NA,true,3,0,NA,NA,NA,left,n_l_007.jpg,brown,purple,NA,NA,NA,NA,NA,NA,NA,NA,NA,NaN,NA,2022,right,0,NA,NA,NA,NA,NA
RGbNy4cI,3dw3bnf1hkvs8co26ehcm6ry22mv8w,32ktq2v7rhsbjebxogr1oqzozrym9k,RGbNy4cI,2020-0188,2021-10-31,07:57:32,08:59:42,NA,incomplete,false,NA,NA,true,3,1,NA,NA,NA,right,m_s_044.jpg,yellow,orange,NA,NA,NA,NA,NA,NA,NA,NA,NA,NaN,NA,1671.199999988079,left,0,NA,NA,NA,NA,NA
RGbNy4cI,3dw3bnf1hkvs8co26ehcm6ry22mv8w,32ktq2v7rhsbjebxogr1oqzozrym9k,RGbNy4cI,2020-0188,2021-10-31,07:57:32,08:59:42,NA,incomplete,false,NA,NA,true,3,2,NA,NA,NA,right,m_l_103.jpg,orange,yellow,NA,NA,NA,NA,NA,NA,NA,NA,NA,NaN,NA,1758.800000011921,right,1,NA,NA,NA,NA,NA
RGbNy4cI,3dw3bnf1hkvs8co26ehcm6ry22mv8w,32ktq2v7rhsbjebxogr1oqzozrym9k,RGbNy4cI,2020-0188,2021-10-31,07:57:32,08:59:42,NA,incomplete,false,NA,NA,true,3,3,NA,NA,NA,right,n_l_076.jpg,brown,purple,NA,NA,NA,NA,NA,NA,NA,NA,NA,NaN,NA,1942.5,right,1,NA,NA,NA,NA,NA
RGbNy4cI,3dw3bnf1hkvs8co26ehcm6ry22mv8w,32ktq2v7rhsbjebxogr1oqzozrym9k,RGbNy4cI,2020-0188,2021-10-31,07:57:32,08:59:42,NA,incomplete,false,NA,NA,true,3,4,NA,NA,NA,left,m_l_089.jpg,gray,brown,NA,NA,NA,NA,NA,NA,NA,NA,NA,NaN,NA,1670.0999999940395,left,1,NA,NA,NA,NA,NA
RGbNy4cI,3dw3bnf1hkvs8co26ehcm6ry22mv8w,32ktq2v7rhsbjebxogr1oqzozrym9k,RGbNy4cI,2020-0188,2021-10-31,07:57:32,08:59:42,NA,incomplete,false,NA,NA,true,3,5,NA,NA,NA,left,n_s_021.jpg,purple,brown,NA,NA,NA,NA,NA,NA,NA,NA,NA,NaN,NA,1998.7000000029802,right,0,NA,NA,NA,NA,NA
RGbNy4cI,3dw3bnf1hkvs8co26ehcm6ry22mv8w,32ktq2v7rhsbjebxogr1oqzozrym9k,RGbNy4cI,2020-0188,2021-10-31,07:57:32,08:59:42,NA,incomplete,false,NA,NA,true,3,6,NA,NA,NA,right,m_l_066.jpg,purple,red,NA,NA,NA,NA,NA,NA,NA,NA,NA,NaN,NA,1614.699999988079,left,0,NA,NA,NA,NA,NA
RGbNy4cI,3dw3bnf1hkvs8co26ehcm6ry22mv8w,32ktq2v7rhsbjebxogr1oqzozrym9k,RGbNy4cI,2020-0188,2021-10-31,07:57:32,08:59:42,NA,incomplete,false,NA,NA,true,3,7,NA,NA,NA,left,m_s_056.jpg,brown,purple,NA,NA,NA,NA,NA,NA,NA,NA,NA,NaN,NA,1310.0999999940395,left,1,NA,NA,NA,NA,NA
RGbNy4cI,3dw3bnf1hkvs8co26ehcm6ry22mv8w,32ktq2v7rhsbjebxogr1oqzozrym9k,RGbNy4cI,2020-0188,2021-10-31,07:57:32,08:59:42,NA,incomplete,false,NA,NA,true,3,8,NA,NA,NA,left,m_s_108.jpg,red,purple,NA,NA,NA,NA,NA,NA,NA,NA,NA,NaN,NA,2493.9000000059605,left,1,NA,NA,NA,NA,NA
RGbNy4cI,3dw3bnf1hkvs8co26ehcm6ry22mv8w,32ktq2v7rhsbjebxogr1oqzozrym9k,RGbNy4cI,2020-0188,2021-10-31,07:57:32,08:59:42,NA,incomplete,false,NA,NA,true,3,9,NA,NA,NA,left,n_s_023.jpg,orange,gray,NA,NA,NA,NA,NA,NA,NA,NA,NA,NaN,NA,1558.7000000029802,left,1,NA,NA,NA,NA,NA
RGbNy4cI,3dw3bnf1hkvs8co26ehcm6ry22mv8w,32ktq2v7rhsbjebxogr1oqzozrym9k,RGbNy4cI,2020-0188,2021-10-31,07:57:32,08:59:42,NA,incomplete,false,NA,NA,true,3,10,NA,NA,NA,right,m_s_060.jpg,gray,orange,NA,NA,NA,NA,NA,NA,NA,NA,NA,NaN,NA,1806,right,1,NA,NA,NA,NA,NA
RGbNy4cI,3dw3bnf1hkvs8co26ehcm6ry22mv8w,32ktq2v7rhsbjebxogr1oqzozrym9k,RGbNy4cI,2020-0188,2021-10-31,07:57:32,08:59:42,NA,incomplete,false,NA,NA,true,3,11,NA,NA,NA,left,m_l_102.jpg,purple,red,NA,NA,NA,NA,NA,NA,NA,NA,NA,NaN,NA,2262,left,1,NA,NA,NA,NA,NA
RGbNy4cI,3dw3bnf1hkvs8co26ehcm6ry22mv8w,32ktq2v7rhsbjebxogr1oqzozrym9k,RGbNy4cI,2020-0188,2021-10-31,07:57:32,08:59:42,NA,incomplete,false,NA,NA,true,3,12,NA,NA,NA,left,m_l_087.jpg,brown,gray,NA,NA,NA,NA,NA,NA,NA,NA,NA,NaN,NA,1510,left,1,NA,NA,NA,NA,NA
RGbNy4cI,3dw3bnf1hkvs8co26ehcm6ry22mv8w,32ktq2v7rhsbjebxogr1oqzozrym9k,RGbNy4cI,2020-0188,2021-10-31,07:57:32,08:59:42,NA,incomplete,false,NA,NA,true,3,13,NA,NA,NA,right,n_l_028.jpg,brown,gray,NA,NA,NA,NA,NA,NA,NA,NA,NA,NaN,NA,1135.3999999910593,right,1,NA,NA,NA,NA,NA
RGbNy4cI,3dw3bnf1hkvs8co26ehcm6ry22mv8w,32ktq2v7rhsbjebxogr1oqzozrym9k,RGbNy4cI,2020-0188,2021-10-31,07:57:32,08:59:42,NA,incomplete,false,NA,NA,true,3,14,NA,NA,NA,left,m_l_005.jpg,red,purple,NA,NA,NA,NA,NA,NA,NA,NA,NA,NaN,NA,1814.2999999970198,right,0,NA,NA,NA,NA,NA
RGbNy4cI,3dw3bnf1hkvs8co26ehcm6ry22mv8w,32ktq2v7rhsbjebxogr1oqzozrym9k,RGbNy4cI,2020-0188,2021-10-31,07:57:32,08:59:42,NA,incomplete,false,NA,NA,true,3,15,NA,NA,NA,left,m_s_026.jpg,brown,gray,NA,NA,NA,NA,NA,NA,NA,NA,NA,NaN,NA,1950,left,1,NA,NA,NA,NA,NA
RGbNy4cI,3dw3bnf1hkvs8co26ehcm6ry22mv8w,32ktq2v7rhsbjebxogr1oqzozrym9k,RGbNy4cI,2020-0188,2021-10-31,07:57:32,08:59:42,NA,incomplete,false,NA,NA,true,3,16,NA,NA,NA,right,n_l_081.jpg,orange,yellow,NA,NA,NA,NA,NA,NA,NA,NA,NA,NaN,NA,1749.5999999940395,right,1,NA,NA,NA,NA,NA
RGbNy4cI,3dw3bnf1hkvs8co26ehcm6ry22mv8w,32ktq2v7rhsbjebxogr1oqzozrym9k,RGbNy4cI,2020-0188,2021-10-31,07:57:32,08:59:42,NA,incomplete,false,NA,NA,true,3,17,NA,NA,NA,right,m_s_103.jpg,orange,yellow,NA,NA,NA,NA,NA,NA,NA,NA,NA,NaN,NA,1447,left,0,NA,NA,NA,NA,NA
RGbNy4cI,3dw3bnf1hkvs8co26ehcm6ry22mv8w,32ktq2v7rhsbjebxogr1oqzozrym9k,RGbNy4cI,2020-0188,2021-10-31,07:57:32,08:59:42,NA,incomplete,false,NA,NA,true,3,18,NA,NA,NA,right,n_s_070.jpg,brown,purple,NA,NA,NA,NA,NA,NA,NA,NA,NA,NaN,NA,1318,right,1,NA,NA,NA,NA,NA
RGbNy4cI,3dw3bnf1hkvs8co26ehcm6ry22mv8w,32ktq2v7rhsbjebxogr1oqzozrym9k,RGbNy4cI,2020-0188,2021-10-31,07:57:32,08:59:42,NA,incomplete,false,NA,NA,true,3,19,NA,NA,NA,right,m_l_030.jpg,orange,gray,NA,NA,NA,NA,NA,NA,NA,NA,NA,NaN,NA,2534,right,1,NA,NA,NA,NA,NA
RGbNy4cI,3dw3bnf1hkvs8co26ehcm6ry22mv8w,32ktq2v7rhsbjebxogr1oqzozrym9k,RGbNy4cI,2020-0188,2021-10-31,07:57:32,08:59:42,NA,incomplete,false,NA,NA,true,3,20,NA,NA,NA,left,n_l_015.jpg,orange,yellow,NA,NA,NA,NA,NA,NA,NA,NA,NA,NaN,NA,1615.199999988079,left,1,NA,NA,NA,NA,NA
RGbNy4cI,3dw3bnf1hkvs8co26ehcm6ry22mv8w,32ktq2v7rhsbjebxogr1oqzozrym9k,RGbNy4cI,2020-0188,2021-10-31,07:57:32,08:59:42,NA,incomplete,false,NA,NA,true,3,21,NA,NA,NA,left,n_s_076.jpg,gray,orange,NA,NA,NA,NA,NA,NA,NA,NA,NA,NaN,NA,1285.9000000059605,right,0,NA,NA,NA,NA,NA
RGbNy4cI,3dw3bnf1hkvs8co26ehcm6ry22mv8w,32ktq2v7rhsbjebxogr1oqzozrym9k,RGbNy4cI,2020-0188,2021-10-31,07:57:32,08:59:42,NA,incomplete,false,NA,true,NA,3,0,NA,NA,NA,right,NA,NA,NA,present,NA,NA,n_s_021.jpg,purple,m_s_056.jpg,brown,between,NA,NaN,NA,NA,NA,NA,left,1647.0999999940395,0,2,1238.0999999940395
RGbNy4cI,3dw3bnf1hkvs8co26ehcm6ry22mv8w,32ktq2v7rhsbjebxogr1oqzozrym9k,RGbNy4cI,2020-0188,2021-10-31,07:57:32,08:59:42,NA,incomplete,false,NA,true,NA,3,1,NA,NA,NA,right,NA,NA,NA,present,NA,NA,m_l_102.jpg,purple,n_s_070.jpg,purple,within,NA,NaN,NA,NA,NA,NA,left,1933.5,0,1,1766
RGbNy4cI,3dw3bnf1hkvs8co26ehcm6ry22mv8w,32ktq2v7rhsbjebxogr1oqzozrym9k,RGbNy4cI,2020-0188,2021-10-31,07:57:32,08:59:42,NA,incomplete,false,NA,true,NA,3,2,NA,NA,NA,right,NA,NA,NA,present,NA,NA,n_l_015.jpg,orange,m_s_044.jpg,orange,within,NA,NaN,NA,NA,NA,NA,left,1638.5999999940395,0,1,797.7999999970198
RGbNy4cI,3dw3bnf1hkvs8co26ehcm6ry22mv8w,32ktq2v7rhsbjebxogr1oqzozrym9k,RGbNy4cI,2020-0188,2021-10-31,07:57:32,08:59:42,NA,incomplete,false,NA,true,NA,3,3,NA,NA,NA,left,NA,NA,NA,present,NA,NA,n_l_028.jpg,gray,m_s_026.jpg,brown,between,NA,NaN,NA,NA,NA,NA,left,2245.4000000059605,1,2,1173.8999999910593
RGbNy4cI,3dw3bnf1hkvs8co26ehcm6ry22mv8w,32ktq2v7rhsbjebxogr1oqzozrym9k,RGbNy4cI,2020-0188,2021-10-31,07:57:32,08:59:42,NA,incomplete,false,NA,true,NA,3,4,NA,NA,NA,left,NA,NA,NA,present,NA,NA,n_l_076.jpg,purple,m_s_108.jpg,red,between,NA,NaN,NA,NA,NA,NA,left,1453.7999999970198,1,2,1365.5999999940395
RGbNy4cI,3dw3bnf1hkvs8co26ehcm6ry22mv8w,32ktq2v7rhsbjebxogr1oqzozrym9k,RGbNy4cI,2020-0188,2021-10-31,07:57:32,08:59:42,NA,incomplete,false,NA,true,NA,3,5,NA,NA,NA,right,NA,NA,NA,present,NA,NA,m_l_066.jpg,red,m_l_005.jpg,red,within,NA,NaN,NA,NA,NA,NA,right,2630.0999999940395,1,1,1062.7999999970198
RGbNy4cI,3dw3bnf1hkvs8co26ehcm6ry22mv8w,32ktq2v7rhsbjebxogr1oqzozrym9k,RGbNy4cI,2020-0188,2021-10-31,07:57:32,08:59:42,NA,incomplete,false,NA,true,NA,3,6,NA,NA,NA,right,NA,NA,NA,present,NA,NA,m_l_030.jpg,gray,n_s_076.jpg,gray,within,NA,NaN,NA,NA,NA,NA,right,2502,1,1,1286.7000000029802
RGbNy4cI,3dw3bnf1hkvs8co26ehcm6ry22mv8w,32ktq2v7rhsbjebxogr1oqzozrym9k,RGbNy4cI,2020-0188,2021-10-31,07:57:32,08:59:42,NA,incomplete,false,NA,true,NA,3,7,NA,NA,NA,left,NA,NA,NA,present,NA,NA,n_s_023.jpg,orange,m_l_089.jpg,gray,between,NA,NaN,NA,NA,NA,NA,left,2758,1,2,1006.8999999910593
RGbNy4cI,3dw3bnf1hkvs8co26ehcm6ry22mv8w,32ktq2v7rhsbjebxogr1oqzozrym9k,RGbNy4cI,2020-0188,2021-10-31,07:57:32,08:59:42,NA,incomplete,false,NA,true,NA,3,8,NA,NA,NA,left,NA,NA,NA,present,NA,NA,m_s_103.jpg,yellow,m_l_103.jpg,yellow,within,NA,NaN,NA,NA,NA,NA,right,1565.0999999940395,0,1,1638.7999999970198
RGbNy4cI,3dw3bnf1hkvs8co26ehcm6ry22mv8w,32ktq2v7rhsbjebxogr1oqzozrym9k,RGbNy4cI,2020-0188,2021-10-31,07:57:32,08:59:42,NA,incomplete,false,NA,true,NA,3,9,NA,NA,NA,left,NA,NA,NA,present,NA,NA,n_l_007.jpg,brown,m_l_087.jpg,brown,within,NA,NaN,NA,NA,NA,NA,right,1966,0,1,1214.2000000029802
RGbNy4cI,3dw3bnf1hkvs8co26ehcm6ry22mv8w,32ktq2v7rhsbjebxogr1oqzozrym9k,RGbNy4cI,2020-0188,2021-10-31,07:57:32,08:59:42,NA,incomplete,false,NA,true,NA,3,10,NA,NA,NA,right,NA,NA,NA,present,NA,NA,m_s_060.jpg,orange,n_l_081.jpg,yellow,between,NA,NaN,NA,NA,NA,NA,right,2109.3999999910593,1,2,965.5
RGbNy4cI,3dw3bnf1hkvs8co26ehcm6ry22mv8w,32ktq2v7rhsbjebxogr1oqzozrym9k,RGbNy4cI,2020-0188,2021-10-31,07:57:32,08:59:42,NA,incomplete,false,true,NA,NA,4,0,NA,red,m_l_079.jpg,NA,NA,NA,NA,NA,pleasant,unpleasant,NA,NA,NA,NA,NA,left,1022,true,NA,NA,NA,NA,NA,NA,NA,NA
RGbNy4cI,3dw3bnf1hkvs8co26ehcm6ry22mv8w,32ktq2v7rhsbjebxogr1oqzozrym9k,RGbNy4cI,2020-0188,2021-10-31,07:57:32,08:59:42,NA,incomplete,false,true,NA,NA,4,1,NA,red,n_l_004.jpg,NA,NA,NA,NA,NA,pleasant,unpleasant,NA,NA,NA,NA,NA,left,848.79999999702,true,NA,NA,NA,NA,NA,NA,NA,NA
RGbNy4cI,3dw3bnf1hkvs8co26ehcm6ry22mv8w,32ktq2v7rhsbjebxogr1oqzozrym9k,RGbNy4cI,2020-0188,2021-10-31,07:57:32,08:59:42,NA,incomplete,false,true,NA,NA,4,2,NA,red,m_l_007.jpg,NA,NA,NA,NA,NA,pleasant,unpleasant,NA,NA,NA,NA,NA,right,1058.70000000298,true,NA,NA,NA,NA,NA,NA,NA,NA
RGbNy4cI,3dw3bnf1hkvs8co26ehcm6ry22mv8w,32ktq2v7rhsbjebxogr1oqzozrym9k,RGbNy4cI,2020-0188,2021-10-31,07:57:32,08:59:42,NA,incomplete,false,true,NA,NA,4,3,NA,red,n_l_079.jpg,NA,NA,NA,NA,NA,pleasant,unpleasant,NA,NA,NA,NA,NA,left,918.70000000298,true,NA,NA,NA,NA,NA,NA,NA,NA
RGbNy4cI,3dw3bnf1hkvs8co26ehcm6ry22mv8w,32ktq2v7rhsbjebxogr1oqzozrym9k,RGbNy4cI,2020-0188,2021-10-31,07:57:32,08:59:42,NA,incomplete,false,true,NA,NA,4,4,NA,red,m_s_111.jpg,NA,NA,NA,NA,NA,unpleasant,pleasant,NA,NA,NA,NA,NA,left,936.29999999702,true,NA,NA,NA,NA,NA,NA,NA,NA
RGbNy4cI,3dw3bnf1hkvs8co26ehcm6ry22mv8w,32ktq2v7rhsbjebxogr1oqzozrym9k,RGbNy4cI,2020-0188,2021-10-31,07:57:32,08:59:42,NA,incomplete,false,true,NA,NA,4,5,NA,red,m_l_031.jpg,NA,NA,NA,NA,NA,unpleasant,pleasant,NA,NA,NA,NA,NA,left,1067.89999999106,true,NA,NA,NA,NA,NA,NA,NA,NA
RGbNy4cI,3dw3bnf1hkvs8co26ehcm6ry22mv8w,32ktq2v7rhsbjebxogr1oqzozrym9k,RGbNy4cI,2020-0188,2021-10-31,07:57:32,08:59:42,NA,incomplete,false,true,NA,NA,4,6,NA,black,m_l_093.jpg,NA,NA,NA,NA,NA,unpleasant,pleasant,NA,NA,NA,NA,NA,right,1259.79999999702,true,NA,NA,NA,NA,NA,NA,NA,NA
RGbNy4cI,3dw3bnf1hkvs8co26ehcm6ry22mv8w,32ktq2v7rhsbjebxogr1oqzozrym9k,RGbNy4cI,2020-0188,2021-10-31,07:57:32,08:59:42,NA,incomplete,false,true,NA,NA,4,7,NA,black,n_s_102.jpg,NA,NA,NA,NA,NA,pleasant,unpleasant,NA,NA,NA,NA,NA,left,1134.5,true,NA,NA,NA,NA,NA,NA,NA,NA
RGbNy4cI,3dw3bnf1hkvs8co26ehcm6ry22mv8w,32ktq2v7rhsbjebxogr1oqzozrym9k,RGbNy4cI,2020-0188,2021-10-31,07:57:32,08:59:42,NA,incomplete,false,true,NA,NA,4,8,NA,black,m_l_092.jpg,NA,NA,NA,NA,NA,unpleasant,pleasant,NA,NA,NA,NA,NA,right,1016.20000000298,true,NA,NA,NA,NA,NA,NA,NA,NA
RGbNy4cI,3dw3bnf1hkvs8co26ehcm6ry22mv8w,32ktq2v7rhsbjebxogr1oqzozrym9k,RGbNy4cI,2020-0188,2021-10-31,07:57:32,08:59:42,NA,incomplete,false,true,NA,NA,4,9,NA,black,m_l_053.jpg,NA,NA,NA,NA,NA,pleasant,unpleasant,NA,NA,NA,NA,NA,left,1091.70000000298,true,NA,NA,NA,NA,NA,NA,NA,NA
RGbNy4cI,3dw3bnf1hkvs8co26ehcm6ry22mv8w,32ktq2v7rhsbjebxogr1oqzozrym9k,RGbNy4cI,2020-0188,2021-10-31,07:57:32,08:59:42,NA,incomplete,false,true,NA,NA,4,10,NA,black,n_s_115.jpg,NA,NA,NA,NA,NA,unpleasant,pleasant,NA,NA,NA,NA,NA,right,1253.40000000596,true,NA,NA,NA,NA,NA,NA,NA,NA
RGbNy4cI,3dw3bnf1hkvs8co26ehcm6ry22mv8w,32ktq2v7rhsbjebxogr1oqzozrym9k,RGbNy4cI,2020-0188,2021-10-31,07:57:32,08:59:42,NA,incomplete,false,true,NA,NA,4,11,NA,black,m_l_064.jpg,NA,NA,NA,NA,NA,unpleasant,pleasant,NA,NA,NA,NA,NA,left,1239.69999998808,true,NA,NA,NA,NA,NA,NA,NA,NA
RGbNy4cI,3dw3bnf1hkvs8co26ehcm6ry22mv8w,32ktq2v7rhsbjebxogr1oqzozrym9k,RGbNy4cI,2020-0188,2021-10-31,07:57:32,08:59:42,NA,incomplete,false,true,NA,NA,4,12,NA,white,m_s_064.jpg,NA,NA,NA,NA,NA,pleasant,unpleasant,NA,NA,NA,NA,NA,right,1385,true,NA,NA,NA,NA,NA,NA,NA,NA
RGbNy4cI,3dw3bnf1hkvs8co26ehcm6ry22mv8w,32ktq2v7rhsbjebxogr1oqzozrym9k,RGbNy4cI,2020-0188,2021-10-31,07:57:32,08:59:42,NA,incomplete,false,true,NA,NA,4,13,NA,white,m_s_016.jpg,NA,NA,NA,NA,NA,pleasant,unpleasant,NA,NA,NA,NA,NA,left,892.100000008941,true,NA,NA,NA,NA,NA,NA,NA,NA
RGbNy4cI,3dw3bnf1hkvs8co26ehcm6ry22mv8w,32ktq2v7rhsbjebxogr1oqzozrym9k,RGbNy4cI,2020-0188,2021-10-31,07:57:32,08:59:42,NA,incomplete,false,true,NA,NA,4,14,NA,white,n_s_056.jpg,NA,NA,NA,NA,NA,unpleasant,pleasant,NA,NA,NA,NA,NA,right,1015.5,true,NA,NA,NA,NA,NA,NA,NA,NA
RGbNy4cI,3dw3bnf1hkvs8co26ehcm6ry22mv8w,32ktq2v7rhsbjebxogr1oqzozrym9k,RGbNy4cI,2020-0188,2021-10-31,07:57:32,08:59:42,NA,incomplete,false,true,NA,NA,4,15,NA,white,m_s_014.jpg,NA,NA,NA,NA,NA,pleasant,unpleasant,NA,NA,NA,NA,NA,right,881,true,NA,NA,NA,NA,NA,NA,NA,NA
RGbNy4cI,3dw3bnf1hkvs8co26ehcm6ry22mv8w,32ktq2v7rhsbjebxogr1oqzozrym9k,RGbNy4cI,2020-0188,2021-10-31,07:57:32,08:59:42,NA,incomplete,false,true,NA,NA,4,16,NA,white,m_l_074.jpg,NA,NA,NA,NA,NA,pleasant,unpleasant,NA,NA,NA,NA,NA,right,1124.90000000596,true,NA,NA,NA,NA,NA,NA,NA,NA
RGbNy4cI,3dw3bnf1hkvs8co26ehcm6ry22mv8w,32ktq2v7rhsbjebxogr1oqzozrym9k,RGbNy4cI,2020-0188,2021-10-31,07:57:32,08:59:42,NA,incomplete,false,true,NA,NA,4,17,NA,white,m_s_033.jpg,NA,NA,NA,NA,NA,unpleasant,pleasant,NA,NA,NA,NA,NA,right,1038.5,true,NA,NA,NA,NA,NA,NA,NA,NA
RGbNy4cI,3dw3bnf1hkvs8co26ehcm6ry22mv8w,32ktq2v7rhsbjebxogr1oqzozrym9k,RGbNy4cI,2020-0188,2021-10-31,07:57:32,08:59:42,NA,incomplete,false,true,NA,NA,4,18,NA,blue,n_l_041.jpg,NA,NA,NA,NA,NA,unpleasant,pleasant,NA,NA,NA,NA,NA,left,1390.90000000596,true,NA,NA,NA,NA,NA,NA,NA,NA
RGbNy4cI,3dw3bnf1hkvs8co26ehcm6ry22mv8w,32ktq2v7rhsbjebxogr1oqzozrym9k,RGbNy4cI,2020-0188,2021-10-31,07:57:32,08:59:42,NA,incomplete,false,true,NA,NA,4,19,NA,blue,n_s_066.jpg,NA,NA,NA,NA,NA,unpleasant,pleasant,NA,NA,NA,NA,NA,right,810.5,true,NA,NA,NA,NA,NA,NA,NA,NA
RGbNy4cI,3dw3bnf1hkvs8co26ehcm6ry22mv8w,32ktq2v7rhsbjebxogr1oqzozrym9k,RGbNy4cI,2020-0188,2021-10-31,07:57:32,08:59:42,NA,incomplete,false,true,NA,NA,4,20,NA,blue,m_l_072.jpg,NA,NA,NA,NA,NA,unpleasant,pleasant,NA,NA,NA,NA,NA,right,1013.20000000298,true,NA,NA,NA,NA,NA,NA,NA,NA
RGbNy4cI,3dw3bnf1hkvs8co26ehcm6ry22mv8w,32ktq2v7rhsbjebxogr1oqzozrym9k,RGbNy4cI,2020-0188,2021-10-31,07:57:32,08:59:42,NA,incomplete,false,true,NA,NA,4,21,NA,blue,m_s_117.jpg,NA,NA,NA,NA,NA,pleasant,unpleasant,NA,NA,NA,NA,NA,left,1367.59999999404,true,NA,NA,NA,NA,NA,NA,NA,NA
RGbNy4cI,3dw3bnf1hkvs8co26ehcm6ry22mv8w,32ktq2v7rhsbjebxogr1oqzozrym9k,RGbNy4cI,2020-0188,2021-10-31,07:57:32,08:59:42,NA,incomplete,false,true,NA,NA,4,22,NA,blue,n_s_081.jpg,NA,NA,NA,NA,NA,unpleasant,pleasant,NA,NA,NA,NA,NA,right,986.29999999702,true,NA,NA,NA,NA,NA,NA,NA,NA
RGbNy4cI,3dw3bnf1hkvs8co26ehcm6ry22mv8w,32ktq2v7rhsbjebxogr1oqzozrym9k,RGbNy4cI,2020-0188,2021-10-31,07:57:32,08:59:42,NA,incomplete,false,true,NA,NA,4,23,NA,blue,m_s_110.jpg,NA,NA,NA,NA,NA,pleasant,unpleasant,NA,NA,NA,NA,NA,left,1396.10000000894,true,NA,NA,NA,NA,NA,NA,NA,NA
RGbNy4cI,3dw3bnf1hkvs8co26ehcm6ry22mv8w,32ktq2v7rhsbjebxogr1oqzozrym9k,RGbNy4cI,2020-0188,2021-10-31,07:57:32,08:59:42,NA,incomplete,false,true,NA,NA,4,24,NA,brown,n_l_116.jpg,NA,NA,NA,NA,NA,unpleasant,pleasant,NA,NA,NA,NA,NA,left,1159.40000000596,true,NA,NA,NA,NA,NA,NA,NA,NA
RGbNy4cI,3dw3bnf1hkvs8co26ehcm6ry22mv8w,32ktq2v7rhsbjebxogr1oqzozrym9k,RGbNy4cI,2020-0188,2021-10-31,07:57:32,08:59:42,NA,incomplete,false,true,NA,NA,4,25,NA,brown,m_l_094.jpg,NA,NA,NA,NA,NA,pleasant,unpleasant,NA,NA,NA,NA,NA,left,1050.89999999106,true,NA,NA,NA,NA,NA,NA,NA,NA
RGbNy4cI,3dw3bnf1hkvs8co26ehcm6ry22mv8w,32ktq2v7rhsbjebxogr1oqzozrym9k,RGbNy4cI,2020-0188,2021-10-31,07:57:32,08:59:42,NA,incomplete,false,true,NA,NA,4,26,NA,brown,n_l_085.jpg,NA,NA,NA,NA,NA,unpleasant,pleasant,NA,NA,NA,NA,NA,right,1212.09999999404,true,NA,NA,NA,NA,NA,NA,NA,NA
RGbNy4cI,3dw3bnf1hkvs8co26ehcm6ry22mv8w,32ktq2v7rhsbjebxogr1oqzozrym9k,RGbNy4cI,2020-0188,2021-10-31,07:57:32,08:59:42,NA,incomplete,false,true,NA,NA,4,27,NA,brown,n_s_055.jpg,NA,NA,NA,NA,NA,unpleasant,pleasant,NA,NA,NA,NA,NA,right,1159.09999999404,true,NA,NA,NA,NA,NA,NA,NA,NA
RGbNy4cI,3dw3bnf1hkvs8co26ehcm6ry22mv8w,32ktq2v7rhsbjebxogr1oqzozrym9k,RGbNy4cI,2020-0188,2021-10-31,07:57:32,08:59:42,NA,incomplete,false,true,NA,NA,4,28,NA,brown,n_l_037.jpg,NA,NA,NA,NA,NA,unpleasant,pleasant,NA,NA,NA,NA,NA,left,1249.29999999702,true,NA,NA,NA,NA,NA,NA,NA,NA
RGbNy4cI,3dw3bnf1hkvs8co26ehcm6ry22mv8w,32ktq2v7rhsbjebxogr1oqzozrym9k,RGbNy4cI,2020-0188,2021-10-31,07:57:32,08:59:42,NA,incomplete,false,true,NA,NA,4,29,NA,brown,n_s_033.jpg,NA,NA,NA,NA,NA,pleasant,unpleasant,NA,NA,NA,NA,NA,left,868.40000000596,true,NA,NA,NA,NA,NA,NA,NA,NA
RGbNy4cI,3dw3bnf1hkvs8co26ehcm6ry22mv8w,32ktq2v7rhsbjebxogr1oqzozrym9k,RGbNy4cI,2020-0188,2021-10-31,07:57:32,08:59:42,NA,incomplete,false,true,NA,NA,4,30,NA,yellow,m_s_013.jpg,NA,NA,NA,NA,NA,unpleasant,pleasant,NA,NA,NA,NA,NA,right,1062,true,NA,NA,NA,NA,NA,NA,NA,NA
RGbNy4cI,3dw3bnf1hkvs8co26ehcm6ry22mv8w,32ktq2v7rhsbjebxogr1oqzozrym9k,RGbNy4cI,2020-0188,2021-10-31,07:57:32,08:59:42,NA,incomplete,false,true,NA,NA,4,31,NA,yellow,n_l_050.jpg,NA,NA,NA,NA,NA,pleasant,unpleasant,NA,NA,NA,NA,NA,left,1017.19999998808,true,NA,NA,NA,NA,NA,NA,NA,NA
RGbNy4cI,3dw3bnf1hkvs8co26ehcm6ry22mv8w,32ktq2v7rhsbjebxogr1oqzozrym9k,RGbNy4cI,2020-0188,2021-10-31,07:57:32,08:59:42,NA,incomplete,false,true,NA,NA,4,32,NA,yellow,n_s_078.jpg,NA,NA,NA,NA,NA,unpleasant,pleasant,NA,NA,NA,NA,NA,right,924.09999999404,true,NA,NA,NA,NA,NA,NA,NA,NA
RGbNy4cI,3dw3bnf1hkvs8co26ehcm6ry22mv8w,32ktq2v7rhsbjebxogr1oqzozrym9k,RGbNy4cI,2020-0188,2021-10-31,07:57:32,08:59:42,NA,incomplete,false,true,NA,NA,4,33,NA,yellow,n_l_023.jpg,NA,NA,NA,NA,NA,pleasant,unpleasant,NA,NA,NA,NA,NA,left,1067.29999999702,true,NA,NA,NA,NA,NA,NA,NA,NA
RGbNy4cI,3dw3bnf1hkvs8co26ehcm6ry22mv8w,32ktq2v7rhsbjebxogr1oqzozrym9k,RGbNy4cI,2020-0188,2021-10-31,07:57:32,08:59:42,NA,incomplete,false,true,NA,NA,4,34,NA,yellow,n_s_028.jpg,NA,NA,NA,NA,NA,unpleasant,pleasant,NA,NA,NA,NA,NA,right,926.899999991059,true,NA,NA,NA,NA,NA,NA,NA,NA
RGbNy4cI,3dw3bnf1hkvs8co26ehcm6ry22mv8w,32ktq2v7rhsbjebxogr1oqzozrym9k,RGbNy4cI,2020-0188,2021-10-31,07:57:32,08:59:42,NA,incomplete,false,true,NA,NA,4,35,NA,yellow,m_s_030.jpg,NA,NA,NA,NA,NA,pleasant,unpleasant,NA,NA,NA,NA,NA,left,954,true,NA,NA,NA,NA,NA,NA,NA,NA
RGbNy4cI,3dw3bnf1hkvs8co26ehcm6ry22mv8w,32ktq2v7rhsbjebxogr1oqzozrym9k,RGbNy4cI,2020-0188,2021-10-31,07:57:32,08:59:42,NA,incomplete,false,NA,NA,true,4,0,NA,NA,NA,right,n_s_056.jpg,blue,white,NA,NA,NA,NA,NA,NA,NA,NA,NA,NaN,NA,2286.0999999940395,right,1,NA,NA,NA,NA,NA
RGbNy4cI,3dw3bnf1hkvs8co26ehcm6ry22mv8w,32ktq2v7rhsbjebxogr1oqzozrym9k,RGbNy4cI,2020-0188,2021-10-31,07:57:32,08:59:42,NA,incomplete,false,NA,NA,true,4,1,NA,NA,NA,right,n_s_033.jpg,blue,brown,NA,NA,NA,NA,NA,NA,NA,NA,NA,NaN,NA,1862.5,right,1,NA,NA,NA,NA,NA
RGbNy4cI,3dw3bnf1hkvs8co26ehcm6ry22mv8w,32ktq2v7rhsbjebxogr1oqzozrym9k,RGbNy4cI,2020-0188,2021-10-31,07:57:32,08:59:42,NA,incomplete,false,NA,NA,true,4,2,NA,NA,NA,right,m_s_016.jpg,black,white,NA,NA,NA,NA,NA,NA,NA,NA,NA,NaN,NA,1270.8999999910593,right,1,NA,NA,NA,NA,NA
RGbNy4cI,3dw3bnf1hkvs8co26ehcm6ry22mv8w,32ktq2v7rhsbjebxogr1oqzozrym9k,RGbNy4cI,2020-0188,2021-10-31,07:57:32,08:59:42,NA,incomplete,false,NA,NA,true,4,3,NA,NA,NA,left,m_s_030.jpg,yellow,brown,NA,NA,NA,NA,NA,NA,NA,NA,NA,NaN,NA,1613.7000000029802,left,1,NA,NA,NA,NA,NA
RGbNy4cI,3dw3bnf1hkvs8co26ehcm6ry22mv8w,32ktq2v7rhsbjebxogr1oqzozrym9k,RGbNy4cI,2020-0188,2021-10-31,07:57:32,08:59:42,NA,incomplete,false,NA,NA,true,4,4,NA,NA,NA,right,m_l_094.jpg,yellow,brown,NA,NA,NA,NA,NA,NA,NA,NA,NA,NaN,NA,1846.5999999940395,right,1,NA,NA,NA,NA,NA
RGbNy4cI,3dw3bnf1hkvs8co26ehcm6ry22mv8w,32ktq2v7rhsbjebxogr1oqzozrym9k,RGbNy4cI,2020-0188,2021-10-31,07:57:32,08:59:42,NA,incomplete,false,NA,NA,true,4,5,NA,NA,NA,right,n_s_081.jpg,brown,blue,NA,NA,NA,NA,NA,NA,NA,NA,NA,NaN,NA,2117.8999999910593,right,1,NA,NA,NA,NA,NA
RGbNy4cI,3dw3bnf1hkvs8co26ehcm6ry22mv8w,32ktq2v7rhsbjebxogr1oqzozrym9k,RGbNy4cI,2020-0188,2021-10-31,07:57:32,08:59:42,NA,incomplete,false,NA,NA,true,4,6,NA,NA,NA,right,n_s_066.jpg,white,blue,NA,NA,NA,NA,NA,NA,NA,NA,NA,NaN,NA,1175.1000000089407,left,0,NA,NA,NA,NA,NA
RGbNy4cI,3dw3bnf1hkvs8co26ehcm6ry22mv8w,32ktq2v7rhsbjebxogr1oqzozrym9k,RGbNy4cI,2020-0188,2021-10-31,07:57:32,08:59:42,NA,incomplete,false,NA,NA,true,4,7,NA,NA,NA,left,m_l_074.jpg,white,blue,NA,NA,NA,NA,NA,NA,NA,NA,NA,NaN,NA,1390.699999988079,right,0,NA,NA,NA,NA,NA
RGbNy4cI,3dw3bnf1hkvs8co26ehcm6ry22mv8w,32ktq2v7rhsbjebxogr1oqzozrym9k,RGbNy4cI,2020-0188,2021-10-31,07:57:32,08:59:42,NA,incomplete,false,NA,NA,true,4,8,NA,NA,NA,left,m_l_031.jpg,red,black,NA,NA,NA,NA,NA,NA,NA,NA,NA,NaN,NA,1878.7999999970198,right,0,NA,NA,NA,NA,NA
RGbNy4cI,3dw3bnf1hkvs8co26ehcm6ry22mv8w,32ktq2v7rhsbjebxogr1oqzozrym9k,RGbNy4cI,2020-0188,2021-10-31,07:57:32,08:59:42,NA,incomplete,false,NA,NA,true,4,9,NA,NA,NA,right,m_s_033.jpg,blue,white,NA,NA,NA,NA,NA,NA,NA,NA,NA,NaN,NA,1910.1000000089407,right,1,NA,NA,NA,NA,NA
RGbNy4cI,3dw3bnf1hkvs8co26ehcm6ry22mv8w,32ktq2v7rhsbjebxogr1oqzozrym9k,RGbNy4cI,2020-0188,2021-10-31,07:57:32,08:59:42,NA,incomplete,false,NA,NA,true,4,10,NA,NA,NA,left,m_l_064.jpg,black,white,NA,NA,NA,NA,NA,NA,NA,NA,NA,NaN,NA,2021.9000000059605,left,1,NA,NA,NA,NA,NA
RGbNy4cI,3dw3bnf1hkvs8co26ehcm6ry22mv8w,32ktq2v7rhsbjebxogr1oqzozrym9k,RGbNy4cI,2020-0188,2021-10-31,07:57:32,08:59:42,NA,incomplete,false,NA,NA,true,4,11,NA,NA,NA,right,m_l_072.jpg,white,blue,NA,NA,NA,NA,NA,NA,NA,NA,NA,NaN,NA,1597.9000000059605,right,1,NA,NA,NA,NA,NA
RGbNy4cI,3dw3bnf1hkvs8co26ehcm6ry22mv8w,32ktq2v7rhsbjebxogr1oqzozrym9k,RGbNy4cI,2020-0188,2021-10-31,07:57:32,08:59:42,NA,incomplete,false,NA,NA,true,4,12,NA,NA,NA,right,m_l_092.jpg,white,black,NA,NA,NA,NA,NA,NA,NA,NA,NA,NaN,NA,1271.0999999940395,left,0,NA,NA,NA,NA,NA
RGbNy4cI,3dw3bnf1hkvs8co26ehcm6ry22mv8w,32ktq2v7rhsbjebxogr1oqzozrym9k,RGbNy4cI,2020-0188,2021-10-31,07:57:32,08:59:42,NA,incomplete,false,NA,NA,true,4,13,NA,NA,NA,right,n_l_085.jpg,yellow,brown,NA,NA,NA,NA,NA,NA,NA,NA,NA,NaN,NA,1182.5,right,1,NA,NA,NA,NA,NA
RGbNy4cI,3dw3bnf1hkvs8co26ehcm6ry22mv8w,32ktq2v7rhsbjebxogr1oqzozrym9k,RGbNy4cI,2020-0188,2021-10-31,07:57:32,08:59:42,NA,incomplete,false,NA,NA,true,4,14,NA,NA,NA,left,n_l_004.jpg,red,black,NA,NA,NA,NA,NA,NA,NA,NA,NA,NaN,NA,1846.5999999940395,right,0,NA,NA,NA,NA,NA
RGbNy4cI,3dw3bnf1hkvs8co26ehcm6ry22mv8w,32ktq2v7rhsbjebxogr1oqzozrym9k,RGbNy4cI,2020-0188,2021-10-31,07:57:32,08:59:42,NA,incomplete,false,NA,NA,true,4,15,NA,NA,NA,right,m_s_111.jpg,black,red,NA,NA,NA,NA,NA,NA,NA,NA,NA,NaN,NA,1694.0999999940395,right,1,NA,NA,NA,NA,NA
RGbNy4cI,3dw3bnf1hkvs8co26ehcm6ry22mv8w,32ktq2v7rhsbjebxogr1oqzozrym9k,RGbNy4cI,2020-0188,2021-10-31,07:57:32,08:59:42,NA,incomplete,false,NA,NA,true,4,16,NA,NA,NA,right,m_s_110.jpg,white,blue,NA,NA,NA,NA,NA,NA,NA,NA,NA,NaN,NA,1254.2999999970198,right,1,NA,NA,NA,NA,NA
RGbNy4cI,3dw3bnf1hkvs8co26ehcm6ry22mv8w,32ktq2v7rhsbjebxogr1oqzozrym9k,RGbNy4cI,2020-0188,2021-10-31,07:57:32,08:59:42,NA,incomplete,false,NA,NA,true,4,17,NA,NA,NA,right,n_s_078.jpg,brown,yellow,NA,NA,NA,NA,NA,NA,NA,NA,NA,NaN,NA,3302.2000000029802,right,1,NA,NA,NA,NA,NA
RGbNy4cI,3dw3bnf1hkvs8co26ehcm6ry22mv8w,32ktq2v7rhsbjebxogr1oqzozrym9k,RGbNy4cI,2020-0188,2021-10-31,07:57:32,08:59:42,NA,incomplete,false,NA,NA,true,4,18,NA,NA,NA,right,n_s_115.jpg,red,black,NA,NA,NA,NA,NA,NA,NA,NA,NA,NaN,NA,2766.2000000029802,right,1,NA,NA,NA,NA,NA
RGbNy4cI,3dw3bnf1hkvs8co26ehcm6ry22mv8w,32ktq2v7rhsbjebxogr1oqzozrym9k,RGbNy4cI,2020-0188,2021-10-31,07:57:32,08:59:42,NA,incomplete,false,NA,NA,true,4,19,NA,NA,NA,right,n_l_050.jpg,brown,yellow,NA,NA,NA,NA,NA,NA,NA,NA,NA,NaN,NA,1310.9000000059605,right,1,NA,NA,NA,NA,NA
RGbNy4cI,3dw3bnf1hkvs8co26ehcm6ry22mv8w,32ktq2v7rhsbjebxogr1oqzozrym9k,RGbNy4cI,2020-0188,2021-10-31,07:57:32,08:59:42,NA,incomplete,false,NA,NA,true,4,20,NA,NA,NA,left,n_l_037.jpg,brown,yellow,NA,NA,NA,NA,NA,NA,NA,NA,NA,NaN,NA,2718.2000000029802,left,1,NA,NA,NA,NA,NA
RGbNy4cI,3dw3bnf1hkvs8co26ehcm6ry22mv8w,32ktq2v7rhsbjebxogr1oqzozrym9k,RGbNy4cI,2020-0188,2021-10-31,07:57:32,08:59:42,NA,incomplete,false,NA,NA,true,4,21,NA,NA,NA,left,n_s_102.jpg,black,white,NA,NA,NA,NA,NA,NA,NA,NA,NA,NaN,NA,1517.7999999970198,right,0,NA,NA,NA,NA,NA
RGbNy4cI,3dw3bnf1hkvs8co26ehcm6ry22mv8w,32ktq2v7rhsbjebxogr1oqzozrym9k,RGbNy4cI,2020-0188,2021-10-31,07:57:32,08:59:42,NA,incomplete,false,NA,true,NA,4,0,NA,NA,NA,right,NA,NA,NA,present,NA,NA,m_l_064.jpg,black,n_s_102.jpg,black,within,NA,NaN,NA,NA,NA,NA,left,1420.6000000089407,0,1,1366.199999988079
RGbNy4cI,3dw3bnf1hkvs8co26ehcm6ry22mv8w,32ktq2v7rhsbjebxogr1oqzozrym9k,RGbNy4cI,2020-0188,2021-10-31,07:57:32,08:59:42,NA,incomplete,false,NA,true,NA,4,1,NA,NA,NA,left,NA,NA,NA,present,NA,NA,m_l_074.jpg,white,m_l_072.jpg,blue,between,NA,NaN,NA,NA,NA,NA,right,2070.2000000029802,0,2,1038.1000000089407
RGbNy4cI,3dw3bnf1hkvs8co26ehcm6ry22mv8w,32ktq2v7rhsbjebxogr1oqzozrym9k,RGbNy4cI,2020-0188,2021-10-31,07:57:32,08:59:42,NA,incomplete,false,NA,true,NA,4,2,NA,NA,NA,left,NA,NA,NA,present,NA,NA,n_l_004.jpg,red,m_l_031.jpg,red,within,NA,NaN,NA,NA,NA,NA,left,1534,1,1,1070.0999999940395
RGbNy4cI,3dw3bnf1hkvs8co26ehcm6ry22mv8w,32ktq2v7rhsbjebxogr1oqzozrym9k,RGbNy4cI,2020-0188,2021-10-31,07:57:32,08:59:42,NA,incomplete,false,NA,true,NA,4,3,NA,NA,NA,left,NA,NA,NA,present,NA,NA,m_l_094.jpg,brown,n_s_033.jpg,brown,within,NA,NaN,NA,NA,NA,NA,left,1493.9000000059605,1,1,734
RGbNy4cI,3dw3bnf1hkvs8co26ehcm6ry22mv8w,32ktq2v7rhsbjebxogr1oqzozrym9k,RGbNy4cI,2020-0188,2021-10-31,07:57:32,08:59:42,NA,incomplete,false,NA,true,NA,4,4,NA,NA,NA,right,NA,NA,NA,present,NA,NA,n_l_085.jpg,brown,n_s_081.jpg,blue,between,NA,NaN,NA,NA,NA,NA,left,2134.0999999940395,0,2,767
RGbNy4cI,3dw3bnf1hkvs8co26ehcm6ry22mv8w,32ktq2v7rhsbjebxogr1oqzozrym9k,RGbNy4cI,2020-0188,2021-10-31,07:57:32,08:59:42,NA,incomplete,false,NA,true,NA,4,5,NA,NA,NA,left,NA,NA,NA,present,NA,NA,n_l_050.jpg,yellow,m_s_030.jpg,yellow,within,NA,NaN,NA,NA,NA,NA,right,2262,0,1,1374.3999999910593
RGbNy4cI,3dw3bnf1hkvs8co26ehcm6ry22mv8w,32ktq2v7rhsbjebxogr1oqzozrym9k,RGbNy4cI,2020-0188,2021-10-31,07:57:32,08:59:42,NA,incomplete,false,NA,true,NA,4,6,NA,NA,NA,left,NA,NA,NA,present,NA,NA,n_s_115.jpg,black,n_s_056.jpg,white,between,NA,NaN,NA,NA,NA,NA,left,1662.8999999910593,1,1,981.2000000029802
RGbNy4cI,3dw3bnf1hkvs8co26ehcm6ry22mv8w,32ktq2v7rhsbjebxogr1oqzozrym9k,RGbNy4cI,2020-0188,2021-10-31,07:57:32,08:59:42,NA,incomplete,false,NA,true,NA,4,7,NA,NA,NA,right,NA,NA,NA,present,NA,NA,m_l_092.jpg,black,m_s_111.jpg,red,between,NA,NaN,NA,NA,NA,NA,right,1445.9000000059605,1,2,951.7000000029802
RGbNy4cI,3dw3bnf1hkvs8co26ehcm6ry22mv8w,32ktq2v7rhsbjebxogr1oqzozrym9k,RGbNy4cI,2020-0188,2021-10-31,07:57:32,08:59:42,NA,incomplete,false,NA,true,NA,4,8,NA,NA,NA,left,NA,NA,NA,present,NA,NA,n_s_066.jpg,blue,m_s_110.jpg,blue,within,NA,NaN,NA,NA,NA,NA,left,2358,1,1,854.1000000089407
RGbNy4cI,3dw3bnf1hkvs8co26ehcm6ry22mv8w,32ktq2v7rhsbjebxogr1oqzozrym9k,RGbNy4cI,2020-0188,2021-10-31,07:57:32,08:59:42,NA,incomplete,false,NA,true,NA,4,9,NA,NA,NA,right,NA,NA,NA,present,NA,NA,n_s_078.jpg,yellow,n_l_037.jpg,brown,between,NA,NaN,NA,NA,NA,NA,left,2565.4000000059605,0,2,1070.5999999940395
RGbNy4cI,3dw3bnf1hkvs8co26ehcm6ry22mv8w,32ktq2v7rhsbjebxogr1oqzozrym9k,RGbNy4cI,2020-0188,2021-10-31,07:57:32,08:59:42,NA,incomplete,false,NA,true,NA,4,10,NA,NA,NA,left,NA,NA,NA,present,NA,NA,m_s_016.jpg,white,m_s_033.jpg,white,within,NA,NaN,NA,NA,NA,NA,right,3189.2000000029802,0,1,1015.3999999910593
RGbNy4cI,3dw3bnf1hkvs8co26ehcm6ry22mv8w,32ktq2v7rhsbjebxogr1oqzozrym9k,RGbNy4cI,2020-0188,2021-10-31,07:57:32,08:59:42,NA,incomplete,false,true,NA,NA,5,0,NA,orange,m_s_104.jpg,NA,NA,NA,NA,NA,unpleasant,pleasant,NA,NA,NA,NA,NA,right,997.399999991059,true,NA,NA,NA,NA,NA,NA,NA,NA
RGbNy4cI,3dw3bnf1hkvs8co26ehcm6ry22mv8w,32ktq2v7rhsbjebxogr1oqzozrym9k,RGbNy4cI,2020-0188,2021-10-31,07:57:32,08:59:42,NA,incomplete,false,true,NA,NA,5,1,NA,orange,n_l_063.jpg,NA,NA,NA,NA,NA,pleasant,unpleasant,NA,NA,NA,NA,NA,left,1025.90000000596,true,NA,NA,NA,NA,NA,NA,NA,NA
RGbNy4cI,3dw3bnf1hkvs8co26ehcm6ry22mv8w,32ktq2v7rhsbjebxogr1oqzozrym9k,RGbNy4cI,2020-0188,2021-10-31,07:57:32,08:59:42,NA,incomplete,false,true,NA,NA,5,2,NA,orange,n_l_105.jpg,NA,NA,NA,NA,NA,unpleasant,pleasant,NA,NA,NA,NA,NA,right,1064.90000000596,true,NA,NA,NA,NA,NA,NA,NA,NA
RGbNy4cI,3dw3bnf1hkvs8co26ehcm6ry22mv8w,32ktq2v7rhsbjebxogr1oqzozrym9k,RGbNy4cI,2020-0188,2021-10-31,07:57:32,08:59:42,NA,incomplete,false,true,NA,NA,5,3,NA,orange,m_l_050.jpg,NA,NA,NA,NA,NA,unpleasant,pleasant,NA,NA,NA,NA,NA,right,1069.40000000596,true,NA,NA,NA,NA,NA,NA,NA,NA
RGbNy4cI,3dw3bnf1hkvs8co26ehcm6ry22mv8w,32ktq2v7rhsbjebxogr1oqzozrym9k,RGbNy4cI,2020-0188,2021-10-31,07:57:32,08:59:42,NA,incomplete,false,true,NA,NA,5,4,NA,orange,m_l_049.jpg,NA,NA,NA,NA,NA,pleasant,unpleasant,NA,NA,NA,NA,NA,left,1160.40000000596,true,NA,NA,NA,NA,NA,NA,NA,NA
RGbNy4cI,3dw3bnf1hkvs8co26ehcm6ry22mv8w,32ktq2v7rhsbjebxogr1oqzozrym9k,RGbNy4cI,2020-0188,2021-10-31,07:57:32,08:59:42,NA,incomplete,false,true,NA,NA,5,5,NA,orange,n_l_052.jpg,NA,NA,NA,NA,NA,unpleasant,pleasant,NA,NA,NA,NA,NA,right,978.59999999404,true,NA,NA,NA,NA,NA,NA,NA,NA
RGbNy4cI,3dw3bnf1hkvs8co26ehcm6ry22mv8w,32ktq2v7rhsbjebxogr1oqzozrym9k,RGbNy4cI,2020-0188,2021-10-31,07:57:32,08:59:42,NA,incomplete,false,true,NA,NA,5,6,NA,yellow,m_l_097.jpg,NA,NA,NA,NA,NA,unpleasant,pleasant,NA,NA,NA,NA,NA,right,1100.90000000596,true,NA,NA,NA,NA,NA,NA,NA,NA
RGbNy4cI,3dw3bnf1hkvs8co26ehcm6ry22mv8w,32ktq2v7rhsbjebxogr1oqzozrym9k,RGbNy4cI,2020-0188,2021-10-31,07:57:32,08:59:42,NA,incomplete,false,true,NA,NA,5,7,NA,yellow,m_l_034.jpg,NA,NA,NA,NA,NA,pleasant,unpleasant,NA,NA,NA,NA,NA,left,1151.30000001192,true,NA,NA,NA,NA,NA,NA,NA,NA
RGbNy4cI,3dw3bnf1hkvs8co26ehcm6ry22mv8w,32ktq2v7rhsbjebxogr1oqzozrym9k,RGbNy4cI,2020-0188,2021-10-31,07:57:32,08:59:42,NA,incomplete,false,true,NA,NA,5,8,NA,yellow,n_l_047.jpg,NA,NA,NA,NA,NA,pleasant,unpleasant,NA,NA,NA,NA,NA,left,929.600000008941,true,NA,NA,NA,NA,NA,NA,NA,NA
RGbNy4cI,3dw3bnf1hkvs8co26ehcm6ry22mv8w,32ktq2v7rhsbjebxogr1oqzozrym9k,RGbNy4cI,2020-0188,2021-10-31,07:57:32,08:59:42,NA,incomplete,false,true,NA,NA,5,9,NA,yellow,n_l_032.jpg,NA,NA,NA,NA,NA,unpleasant,pleasant,NA,NA,NA,NA,NA,right,899.59999999404,true,NA,NA,NA,NA,NA,NA,NA,NA
RGbNy4cI,3dw3bnf1hkvs8co26ehcm6ry22mv8w,32ktq2v7rhsbjebxogr1oqzozrym9k,RGbNy4cI,2020-0188,2021-10-31,07:57:32,08:59:42,NA,incomplete,false,true,NA,NA,5,10,NA,yellow,m_s_031.jpg,NA,NA,NA,NA,NA,unpleasant,pleasant,NA,NA,NA,NA,NA,right,926.20000000298,true,NA,NA,NA,NA,NA,NA,NA,NA
RGbNy4cI,3dw3bnf1hkvs8co26ehcm6ry22mv8w,32ktq2v7rhsbjebxogr1oqzozrym9k,RGbNy4cI,2020-0188,2021-10-31,07:57:32,08:59:42,NA,incomplete,false,true,NA,NA,5,11,NA,yellow,n_l_094.jpg,NA,NA,NA,NA,NA,unpleasant,pleasant,NA,NA,NA,NA,NA,right,1097.30000001192,true,NA,NA,NA,NA,NA,NA,NA,NA
RGbNy4cI,3dw3bnf1hkvs8co26ehcm6ry22mv8w,32ktq2v7rhsbjebxogr1oqzozrym9k,RGbNy4cI,2020-0188,2021-10-31,07:57:32,08:59:42,NA,incomplete,false,true,NA,NA,5,12,NA,white,m_s_087.jpg,NA,NA,NA,NA,NA,unpleasant,pleasant,NA,NA,NA,NA,NA,right,827.100000008941,true,NA,NA,NA,NA,NA,NA,NA,NA
RGbNy4cI,3dw3bnf1hkvs8co26ehcm6ry22mv8w,32ktq2v7rhsbjebxogr1oqzozrym9k,RGbNy4cI,2020-0188,2021-10-31,07:57:32,08:59:42,NA,incomplete,false,true,NA,NA,5,13,NA,white,m_s_051.jpg,NA,NA,NA,NA,NA,pleasant,unpleasant,NA,NA,NA,NA,NA,left,830.59999999404,true,NA,NA,NA,NA,NA,NA,NA,NA
RGbNy4cI,3dw3bnf1hkvs8co26ehcm6ry22mv8w,32ktq2v7rhsbjebxogr1oqzozrym9k,RGbNy4cI,2020-0188,2021-10-31,07:57:32,08:59:42,NA,incomplete,false,true,NA,NA,5,14,NA,white,n_l_002.jpg,NA,NA,NA,NA,NA,unpleasant,pleasant,NA,NA,NA,NA,NA,right,743.79999999702,true,NA,NA,NA,NA,NA,NA,NA,NA
RGbNy4cI,3dw3bnf1hkvs8co26ehcm6ry22mv8w,32ktq2v7rhsbjebxogr1oqzozrym9k,RGbNy4cI,2020-0188,2021-10-31,07:57:32,08:59:42,NA,incomplete,false,true,NA,NA,5,15,NA,white,m_s_055.jpg,NA,NA,NA,NA,NA,pleasant,unpleasant,NA,NA,NA,NA,NA,left,756.70000000298,true,NA,NA,NA,NA,NA,NA,NA,NA
RGbNy4cI,3dw3bnf1hkvs8co26ehcm6ry22mv8w,32ktq2v7rhsbjebxogr1oqzozrym9k,RGbNy4cI,2020-0188,2021-10-31,07:57:32,08:59:42,NA,incomplete,false,true,NA,NA,5,16,NA,white,n_l_020.jpg,NA,NA,NA,NA,NA,unpleasant,pleasant,NA,NA,NA,NA,NA,right,1150.5,true,NA,NA,NA,NA,NA,NA,NA,NA
