workerId,hitId,assignmentId,subject,studyid,exp_date,exp_start,exp_end,time_start,time_end,practice,encoding,memory,association,block,trial,event_order,event,stim,answer,object,left_context,right_context,context_type,label_left,label_right,left_image,left_event,right_image,right_event,condition,response,response_time,response_acc,association_response_time,association_response,association_acc,order_response,order_response_time,order_acc,distance_response,distance_response_time
QC6r4DY8,3087lxlj7ptluqx9bvztb5iuvan0fr,32utubmz7k9dxuk30s6o2sdrelkvbt,QC6r4DY8,2020-0188,2021-10-31,10:24:35,12:14:26,NA,incomplete,true,true,NA,NA,0,0,NA,black,m_l_090.jpg,NA,NA,NA,NA,NA,unpleasant,pleasant,NA,NA,NA,NA,NA,left,2816,true,NA,NA,NA,NA,NA,NA,NA,NA
QC6r4DY8,3087lxlj7ptluqx9bvztb5iuvan0fr,32utubmz7k9dxuk30s6o2sdrelkvbt,QC6r4DY8,2020-0188,2021-10-31,10:24:35,12:14:26,NA,incomplete,true,true,NA,NA,0,1,NA,black,n_s_016.jpg,NA,NA,NA,NA,NA,unpleasant,pleasant,NA,NA,NA,NA,NA,right,3348.5,true,NA,NA,NA,NA,NA,NA,NA,NA
QC6r4DY8,3087lxlj7ptluqx9bvztb5iuvan0fr,32utubmz7k9dxuk30s6o2sdrelkvbt,QC6r4DY8,2020-0188,2021-10-31,10:24:35,12:14:26,NA,incomplete,true,true,NA,NA,0,2,NA,black,m_s_093.jpg,NA,NA,NA,NA,NA,pleasant,unpleasant,NA,NA,NA,NA,NA,left,1137.10000002384,true,NA,NA,NA,NA,NA,NA,NA,NA
QC6r4DY8,3087lxlj7ptluqx9bvztb5iuvan0fr,32utubmz7k9dxuk30s6o2sdrelkvbt,QC6r4DY8,2020-0188,2021-10-31,10:24:35,12:14:26,NA,incomplete,true,true,NA,NA,0,3,NA,black,n_s_099.jpg,NA,NA,NA,NA,NA,pleasant,unpleasant,NA,NA,NA,NA,NA,left,1445.30000001192,true,NA,NA,NA,NA,NA,NA,NA,NA
QC6r4DY8,3087lxlj7ptluqx9bvztb5iuvan0fr,32utubmz7k9dxuk30s6o2sdrelkvbt,QC6r4DY8,2020-0188,2021-10-31,10:24:35,12:14:26,NA,incomplete,true,true,NA,NA,0,4,NA,black,m_s_045.jpg,NA,NA,NA,NA,NA,pleasant,unpleasant,NA,NA,NA,NA,NA,left,1353.90000003576,true,NA,NA,NA,NA,NA,NA,NA,NA
QC6r4DY8,3087lxlj7ptluqx9bvztb5iuvan0fr,32utubmz7k9dxuk30s6o2sdrelkvbt,QC6r4DY8,2020-0188,2021-10-31,10:24:35,12:14:26,NA,incomplete,true,true,NA,NA,0,5,NA,black,n_l_008.jpg,NA,NA,NA,NA,NA,pleasant,unpleasant,NA,NA,NA,NA,NA,left,1214,true,NA,NA,NA,NA,NA,NA,NA,NA
QC6r4DY8,3087lxlj7ptluqx9bvztb5iuvan0fr,32utubmz7k9dxuk30s6o2sdrelkvbt,QC6r4DY8,2020-0188,2021-10-31,10:24:35,12:14:26,NA,incomplete,true,true,NA,NA,0,6,NA,yellow,n_s_045.jpg,NA,NA,NA,NA,NA,pleasant,unpleasant,NA,NA,NA,NA,NA,left,1818.39999997616,true,NA,NA,NA,NA,NA,NA,NA,NA
QC6r4DY8,3087lxlj7ptluqx9bvztb5iuvan0fr,32utubmz7k9dxuk30s6o2sdrelkvbt,QC6r4DY8,2020-0188,2021-10-31,10:24:35,12:14:26,NA,incomplete,true,true,NA,NA,0,7,NA,yellow,n_l_031.jpg,NA,NA,NA,NA,NA,pleasant,unpleasant,NA,NA,NA,NA,NA,left,1502.5,true,NA,NA,NA,NA,NA,NA,NA,NA
QC6r4DY8,3087lxlj7ptluqx9bvztb5iuvan0fr,32utubmz7k9dxuk30s6o2sdrelkvbt,QC6r4DY8,2020-0188,2021-10-31,10:24:35,12:14:26,NA,incomplete,true,true,NA,NA,0,8,NA,yellow,n_l_037.jpg,NA,NA,NA,NA,NA,pleasant,unpleasant,NA,NA,NA,NA,NA,right,1522.69999998808,true,NA,NA,NA,NA,NA,NA,NA,NA
QC6r4DY8,3087lxlj7ptluqx9bvztb5iuvan0fr,32utubmz7k9dxuk30s6o2sdrelkvbt,QC6r4DY8,2020-0188,2021-10-31,10:24:35,12:14:26,NA,incomplete,true,true,NA,NA,0,9,NA,yellow,m_s_043.jpg,NA,NA,NA,NA,NA,unpleasant,pleasant,NA,NA,NA,NA,NA,right,1750.5,true,NA,NA,NA,NA,NA,NA,NA,NA
QC6r4DY8,3087lxlj7ptluqx9bvztb5iuvan0fr,32utubmz7k9dxuk30s6o2sdrelkvbt,QC6r4DY8,2020-0188,2021-10-31,10:24:35,12:14:26,NA,incomplete,true,true,NA,NA,0,10,NA,yellow,n_s_103.jpg,NA,NA,NA,NA,NA,unpleasant,pleasant,NA,NA,NA,NA,NA,right,2218.39999997616,true,NA,NA,NA,NA,NA,NA,NA,NA
QC6r4DY8,3087lxlj7ptluqx9bvztb5iuvan0fr,32utubmz7k9dxuk30s6o2sdrelkvbt,QC6r4DY8,2020-0188,2021-10-31,10:24:35,12:14:26,NA,incomplete,true,true,NA,NA,0,11,NA,yellow,m_l_043.jpg,NA,NA,NA,NA,NA,pleasant,unpleasant,NA,NA,NA,NA,NA,left,1766.90000003576,true,NA,NA,NA,NA,NA,NA,NA,NA
QC6r4DY8,3087lxlj7ptluqx9bvztb5iuvan0fr,32utubmz7k9dxuk30s6o2sdrelkvbt,QC6r4DY8,2020-0188,2021-10-31,10:24:35,12:14:26,NA,incomplete,true,true,NA,NA,0,12,NA,purple,n_l_066.jpg,NA,NA,NA,NA,NA,unpleasant,pleasant,NA,NA,NA,NA,NA,left,2803.20000004768,true,NA,NA,NA,NA,NA,NA,NA,NA
QC6r4DY8,3087lxlj7ptluqx9bvztb5iuvan0fr,32utubmz7k9dxuk30s6o2sdrelkvbt,QC6r4DY8,2020-0188,2021-10-31,10:24:35,12:14:26,NA,incomplete,true,true,NA,NA,0,13,NA,purple,m_l_062.jpg,NA,NA,NA,NA,NA,unpleasant,pleasant,NA,NA,NA,NA,NA,right,2111.20000004768,true,NA,NA,NA,NA,NA,NA,NA,NA
QC6r4DY8,3087lxlj7ptluqx9bvztb5iuvan0fr,32utubmz7k9dxuk30s6o2sdrelkvbt,QC6r4DY8,2020-0188,2021-10-31,10:24:35,12:14:26,NA,incomplete,true,true,NA,NA,0,14,NA,purple,n_l_110.jpg,NA,NA,NA,NA,NA,unpleasant,pleasant,NA,NA,NA,NA,NA,right,988,true,NA,NA,NA,NA,NA,NA,NA,NA
QC6r4DY8,3087lxlj7ptluqx9bvztb5iuvan0fr,32utubmz7k9dxuk30s6o2sdrelkvbt,QC6r4DY8,2020-0188,2021-10-31,10:24:35,12:14:26,NA,incomplete,true,true,NA,NA,0,15,NA,purple,n_l_016.jpg,NA,NA,NA,NA,NA,pleasant,unpleasant,NA,NA,NA,NA,NA,left,1263.90000003576,true,NA,NA,NA,NA,NA,NA,NA,NA
QC6r4DY8,3087lxlj7ptluqx9bvztb5iuvan0fr,32utubmz7k9dxuk30s6o2sdrelkvbt,QC6r4DY8,2020-0188,2021-10-31,10:24:35,12:14:26,NA,incomplete,true,true,NA,NA,0,16,NA,purple,n_s_033.jpg,NA,NA,NA,NA,NA,pleasant,unpleasant,NA,NA,NA,NA,NA,left,1268.5,true,NA,NA,NA,NA,NA,NA,NA,NA
QC6r4DY8,3087lxlj7ptluqx9bvztb5iuvan0fr,32utubmz7k9dxuk30s6o2sdrelkvbt,QC6r4DY8,2020-0188,2021-10-31,10:24:35,12:14:26,NA,incomplete,true,true,NA,NA,0,17,NA,purple,n_s_111.jpg,NA,NA,NA,NA,NA,pleasant,unpleasant,NA,NA,NA,NA,NA,left,1064.5,true,NA,NA,NA,NA,NA,NA,NA,NA
QC6r4DY8,3087lxlj7ptluqx9bvztb5iuvan0fr,32utubmz7k9dxuk30s6o2sdrelkvbt,QC6r4DY8,2020-0188,2021-10-31,10:24:35,12:14:26,NA,incomplete,true,true,NA,NA,0,18,NA,brown,m_s_110.jpg,NA,NA,NA,NA,NA,pleasant,unpleasant,NA,NA,NA,NA,NA,left,1237.09999996424,true,NA,NA,NA,NA,NA,NA,NA,NA
QC6r4DY8,3087lxlj7ptluqx9bvztb5iuvan0fr,32utubmz7k9dxuk30s6o2sdrelkvbt,QC6r4DY8,2020-0188,2021-10-31,10:24:35,12:14:26,NA,incomplete,true,true,NA,NA,0,19,NA,brown,n_s_049.jpg,NA,NA,NA,NA,NA,pleasant,unpleasant,NA,NA,NA,NA,NA,right,2841.59999996424,true,NA,NA,NA,NA,NA,NA,NA,NA
QC6r4DY8,3087lxlj7ptluqx9bvztb5iuvan0fr,32utubmz7k9dxuk30s6o2sdrelkvbt,QC6r4DY8,2020-0188,2021-10-31,10:24:35,12:14:26,NA,incomplete,true,true,NA,NA,0,20,NA,brown,m_s_042.jpg,NA,NA,NA,NA,NA,unpleasant,pleasant,NA,NA,NA,NA,NA,left,893.599999964237,true,NA,NA,NA,NA,NA,NA,NA,NA
QC6r4DY8,3087lxlj7ptluqx9bvztb5iuvan0fr,32utubmz7k9dxuk30s6o2sdrelkvbt,QC6r4DY8,2020-0188,2021-10-31,10:24:35,12:14:26,NA,incomplete,true,true,NA,NA,0,21,NA,brown,n_s_014.jpg,NA,NA,NA,NA,NA,pleasant,unpleasant,NA,NA,NA,NA,NA,left,1226.60000002384,true,NA,NA,NA,NA,NA,NA,NA,NA
QC6r4DY8,3087lxlj7ptluqx9bvztb5iuvan0fr,32utubmz7k9dxuk30s6o2sdrelkvbt,QC6r4DY8,2020-0188,2021-10-31,10:24:35,12:14:26,NA,incomplete,true,true,NA,NA,0,22,NA,brown,n_l_096.jpg,NA,NA,NA,NA,NA,pleasant,unpleasant,NA,NA,NA,NA,NA,left,943.399999976158,true,NA,NA,NA,NA,NA,NA,NA,NA
QC6r4DY8,3087lxlj7ptluqx9bvztb5iuvan0fr,32utubmz7k9dxuk30s6o2sdrelkvbt,QC6r4DY8,2020-0188,2021-10-31,10:24:35,12:14:26,NA,incomplete,true,true,NA,NA,0,23,NA,brown,n_s_112.jpg,NA,NA,NA,NA,NA,unpleasant,pleasant,NA,NA,NA,NA,NA,left,1420.20000004768,true,NA,NA,NA,NA,NA,NA,NA,NA
QC6r4DY8,3087lxlj7ptluqx9bvztb5iuvan0fr,32utubmz7k9dxuk30s6o2sdrelkvbt,QC6r4DY8,2020-0188,2021-10-31,10:24:35,12:14:26,NA,incomplete,true,true,NA,NA,0,24,NA,orange,m_s_097.jpg,NA,NA,NA,NA,NA,unpleasant,pleasant,NA,NA,NA,NA,NA,left,1015.69999998808,true,NA,NA,NA,NA,NA,NA,NA,NA
QC6r4DY8,3087lxlj7ptluqx9bvztb5iuvan0fr,32utubmz7k9dxuk30s6o2sdrelkvbt,QC6r4DY8,2020-0188,2021-10-31,10:24:35,12:14:26,NA,incomplete,true,true,NA,NA,0,25,NA,orange,m_s_113.jpg,NA,NA,NA,NA,NA,unpleasant,pleasant,NA,NA,NA,NA,NA,right,940.800000011921,true,NA,NA,NA,NA,NA,NA,NA,NA
QC6r4DY8,3087lxlj7ptluqx9bvztb5iuvan0fr,32utubmz7k9dxuk30s6o2sdrelkvbt,QC6r4DY8,2020-0188,2021-10-31,10:24:35,12:14:26,NA,incomplete,true,true,NA,NA,0,26,NA,orange,n_s_039.jpg,NA,NA,NA,NA,NA,unpleasant,pleasant,NA,NA,NA,NA,NA,right,1456.39999997616,true,NA,NA,NA,NA,NA,NA,NA,NA
QC6r4DY8,3087lxlj7ptluqx9bvztb5iuvan0fr,32utubmz7k9dxuk30s6o2sdrelkvbt,QC6r4DY8,2020-0188,2021-10-31,10:24:35,12:14:26,NA,incomplete,true,true,NA,NA,0,27,NA,orange,m_l_012.jpg,NA,NA,NA,NA,NA,pleasant,unpleasant,NA,NA,NA,NA,NA,left,1405.39999997616,true,NA,NA,NA,NA,NA,NA,NA,NA
QC6r4DY8,3087lxlj7ptluqx9bvztb5iuvan0fr,32utubmz7k9dxuk30s6o2sdrelkvbt,QC6r4DY8,2020-0188,2021-10-31,10:24:35,12:14:26,NA,incomplete,true,true,NA,NA,0,28,NA,orange,n_l_050.jpg,NA,NA,NA,NA,NA,unpleasant,pleasant,NA,NA,NA,NA,NA,right,1504.5,true,NA,NA,NA,NA,NA,NA,NA,NA
QC6r4DY8,3087lxlj7ptluqx9bvztb5iuvan0fr,32utubmz7k9dxuk30s6o2sdrelkvbt,QC6r4DY8,2020-0188,2021-10-31,10:24:35,12:14:26,NA,incomplete,true,true,NA,NA,0,29,NA,orange,m_l_105.jpg,NA,NA,NA,NA,NA,unpleasant,pleasant,NA,NA,NA,NA,NA,right,1324.39999997616,true,NA,NA,NA,NA,NA,NA,NA,NA
QC6r4DY8,3087lxlj7ptluqx9bvztb5iuvan0fr,32utubmz7k9dxuk30s6o2sdrelkvbt,QC6r4DY8,2020-0188,2021-10-31,10:24:35,12:14:26,NA,incomplete,true,true,NA,NA,0,30,NA,green,m_l_039.jpg,NA,NA,NA,NA,NA,unpleasant,pleasant,NA,NA,NA,NA,NA,right,1968.5,true,NA,NA,NA,NA,NA,NA,NA,NA
QC6r4DY8,3087lxlj7ptluqx9bvztb5iuvan0fr,32utubmz7k9dxuk30s6o2sdrelkvbt,QC6r4DY8,2020-0188,2021-10-31,10:24:35,12:14:26,NA,incomplete,true,true,NA,NA,0,31,NA,green,m_l_109.jpg,NA,NA,NA,NA,NA,pleasant,unpleasant,NA,NA,NA,NA,NA,left,1884.60000002384,true,NA,NA,NA,NA,NA,NA,NA,NA
QC6r4DY8,3087lxlj7ptluqx9bvztb5iuvan0fr,32utubmz7k9dxuk30s6o2sdrelkvbt,QC6r4DY8,2020-0188,2021-10-31,10:24:35,12:14:26,NA,incomplete,true,true,NA,NA,0,32,NA,green,n_s_011.jpg,NA,NA,NA,NA,NA,unpleasant,pleasant,NA,NA,NA,NA,NA,right,1656.29999995232,true,NA,NA,NA,NA,NA,NA,NA,NA
QC6r4DY8,3087lxlj7ptluqx9bvztb5iuvan0fr,32utubmz7k9dxuk30s6o2sdrelkvbt,QC6r4DY8,2020-0188,2021-10-31,10:24:35,12:14:26,NA,incomplete,true,true,NA,NA,0,33,NA,green,n_s_067.jpg,NA,NA,NA,NA,NA,pleasant,unpleasant,NA,NA,NA,NA,NA,left,1420.5,true,NA,NA,NA,NA,NA,NA,NA,NA
QC6r4DY8,3087lxlj7ptluqx9bvztb5iuvan0fr,32utubmz7k9dxuk30s6o2sdrelkvbt,QC6r4DY8,2020-0188,2021-10-31,10:24:35,12:14:26,NA,incomplete,true,true,NA,NA,0,34,NA,green,m_l_089.jpg,NA,NA,NA,NA,NA,pleasant,unpleasant,NA,NA,NA,NA,NA,left,1680.60000002384,true,NA,NA,NA,NA,NA,NA,NA,NA
QC6r4DY8,3087lxlj7ptluqx9bvztb5iuvan0fr,32utubmz7k9dxuk30s6o2sdrelkvbt,QC6r4DY8,2020-0188,2021-10-31,10:24:35,12:14:26,NA,incomplete,true,true,NA,NA,0,35,NA,green,m_l_065.jpg,NA,NA,NA,NA,NA,pleasant,unpleasant,NA,NA,NA,NA,NA,left,1517.5,true,NA,NA,NA,NA,NA,NA,NA,NA
QC6r4DY8,3087lxlj7ptluqx9bvztb5iuvan0fr,32utubmz7k9dxuk30s6o2sdrelkvbt,QC6r4DY8,2020-0188,2021-10-31,10:24:35,12:14:26,NA,incomplete,true,NA,NA,true,0,0,NA,NA,NA,left,n_s_039.jpg,orange,brown,NA,NA,NA,NA,NA,NA,NA,NA,NA,NaN,NA,2903.099999964237,right,0,NA,NA,NA,NA,NA
QC6r4DY8,3087lxlj7ptluqx9bvztb5iuvan0fr,32utubmz7k9dxuk30s6o2sdrelkvbt,QC6r4DY8,2020-0188,2021-10-31,10:24:35,12:14:26,NA,incomplete,true,NA,NA,true,0,1,NA,NA,NA,right,n_l_031.jpg,purple,yellow,NA,NA,NA,NA,NA,NA,NA,NA,NA,NaN,NA,2599.899999976158,right,1,NA,NA,NA,NA,NA
QC6r4DY8,3087lxlj7ptluqx9bvztb5iuvan0fr,32utubmz7k9dxuk30s6o2sdrelkvbt,QC6r4DY8,2020-0188,2021-10-31,10:24:35,12:14:26,NA,incomplete,true,NA,NA,true,0,2,NA,NA,NA,left,n_s_111.jpg,purple,yellow,NA,NA,NA,NA,NA,NA,NA,NA,NA,NaN,NA,1735.199999988079,left,1,NA,NA,NA,NA,NA
QC6r4DY8,3087lxlj7ptluqx9bvztb5iuvan0fr,32utubmz7k9dxuk30s6o2sdrelkvbt,QC6r4DY8,2020-0188,2021-10-31,10:24:35,12:14:26,NA,incomplete,true,NA,NA,true,0,3,NA,NA,NA,left,n_s_033.jpg,purple,yellow,NA,NA,NA,NA,NA,NA,NA,NA,NA,NaN,NA,2254.900000035763,left,1,NA,NA,NA,NA,NA
QC6r4DY8,3087lxlj7ptluqx9bvztb5iuvan0fr,32utubmz7k9dxuk30s6o2sdrelkvbt,QC6r4DY8,2020-0188,2021-10-31,10:24:35,12:14:26,NA,incomplete,true,NA,NA,true,0,4,NA,NA,NA,left,n_s_112.jpg,brown,purple,NA,NA,NA,NA,NA,NA,NA,NA,NA,NaN,NA,1855.5,right,0,NA,NA,NA,NA,NA
QC6r4DY8,3087lxlj7ptluqx9bvztb5iuvan0fr,32utubmz7k9dxuk30s6o2sdrelkvbt,QC6r4DY8,2020-0188,2021-10-31,10:24:35,12:14:26,NA,incomplete,true,NA,NA,true,0,5,NA,NA,NA,right,m_l_105.jpg,brown,orange,NA,NA,NA,NA,NA,NA,NA,NA,NA,NaN,NA,1823.6000000238419,left,0,NA,NA,NA,NA,NA
QC6r4DY8,3087lxlj7ptluqx9bvztb5iuvan0fr,32utubmz7k9dxuk30s6o2sdrelkvbt,QC6r4DY8,2020-0188,2021-10-31,10:24:35,12:14:26,NA,incomplete,true,NA,NA,true,0,6,NA,NA,NA,left,n_s_016.jpg,black,yellow,NA,NA,NA,NA,NA,NA,NA,NA,NA,NaN,NA,2151.5,left,1,NA,NA,NA,NA,NA
QC6r4DY8,3087lxlj7ptluqx9bvztb5iuvan0fr,32utubmz7k9dxuk30s6o2sdrelkvbt,QC6r4DY8,2020-0188,2021-10-31,10:24:35,12:14:26,NA,incomplete,true,NA,NA,true,0,7,NA,NA,NA,right,n_l_037.jpg,black,yellow,NA,NA,NA,NA,NA,NA,NA,NA,NA,NaN,NA,1550.699999988079,left,0,NA,NA,NA,NA,NA
QC6r4DY8,3087lxlj7ptluqx9bvztb5iuvan0fr,32utubmz7k9dxuk30s6o2sdrelkvbt,QC6r4DY8,2020-0188,2021-10-31,10:24:35,12:14:26,NA,incomplete,true,NA,NA,true,0,8,NA,NA,NA,right,m_l_062.jpg,yellow,purple,NA,NA,NA,NA,NA,NA,NA,NA,NA,NaN,NA,3359.300000011921,right,1,NA,NA,NA,NA,NA
QC6r4DY8,3087lxlj7ptluqx9bvztb5iuvan0fr,32utubmz7k9dxuk30s6o2sdrelkvbt,QC6r4DY8,2020-0188,2021-10-31,10:24:35,12:14:26,NA,incomplete,true,NA,NA,true,0,9,NA,NA,NA,left,m_s_042.jpg,brown,purple,NA,NA,NA,NA,NA,NA,NA,NA,NA,NaN,NA,4078.800000011921,left,1,NA,NA,NA,NA,NA
QC6r4DY8,3087lxlj7ptluqx9bvztb5iuvan0fr,32utubmz7k9dxuk30s6o2sdrelkvbt,QC6r4DY8,2020-0188,2021-10-31,10:24:35,12:14:26,NA,incomplete,true,NA,NA,true,0,10,NA,NA,NA,right,m_s_113.jpg,green,orange,NA,NA,NA,NA,NA,NA,NA,NA,NA,NaN,NA,2015.199999988079,left,0,NA,NA,NA,NA,NA
QC6r4DY8,3087lxlj7ptluqx9bvztb5iuvan0fr,32utubmz7k9dxuk30s6o2sdrelkvbt,QC6r4DY8,2020-0188,2021-10-31,10:24:35,12:14:26,NA,incomplete,true,NA,NA,true,0,11,NA,NA,NA,left,m_l_109.jpg,green,orange,NA,NA,NA,NA,NA,NA,NA,NA,NA,NaN,NA,2375.400000035763,left,1,NA,NA,NA,NA,NA
QC6r4DY8,3087lxlj7ptluqx9bvztb5iuvan0fr,32utubmz7k9dxuk30s6o2sdrelkvbt,QC6r4DY8,2020-0188,2021-10-31,10:24:35,12:14:26,NA,incomplete,true,NA,NA,true,0,12,NA,NA,NA,left,n_s_103.jpg,yellow,purple,NA,NA,NA,NA,NA,NA,NA,NA,NA,NaN,NA,3639.5,right,0,NA,NA,NA,NA,NA
QC6r4DY8,3087lxlj7ptluqx9bvztb5iuvan0fr,32utubmz7k9dxuk30s6o2sdrelkvbt,QC6r4DY8,2020-0188,2021-10-31,10:24:35,12:14:26,NA,incomplete,true,NA,NA,true,0,13,NA,NA,NA,left,n_s_049.jpg,brown,purple,NA,NA,NA,NA,NA,NA,NA,NA,NA,NaN,NA,2799.2000000476837,left,1,NA,NA,NA,NA,NA
QC6r4DY8,3087lxlj7ptluqx9bvztb5iuvan0fr,32utubmz7k9dxuk30s6o2sdrelkvbt,QC6r4DY8,2020-0188,2021-10-31,10:24:35,12:14:26,NA,incomplete,true,NA,NA,true,0,14,NA,NA,NA,left,n_s_011.jpg,green,orange,NA,NA,NA,NA,NA,NA,NA,NA,NA,NaN,NA,2191.300000011921,left,1,NA,NA,NA,NA,NA
QC6r4DY8,3087lxlj7ptluqx9bvztb5iuvan0fr,32utubmz7k9dxuk30s6o2sdrelkvbt,QC6r4DY8,2020-0188,2021-10-31,10:24:35,12:14:26,NA,incomplete,true,NA,NA,true,0,15,NA,NA,NA,right,m_l_065.jpg,orange,green,NA,NA,NA,NA,NA,NA,NA,NA,NA,NaN,NA,2887.300000011921,right,1,NA,NA,NA,NA,NA
QC6r4DY8,3087lxlj7ptluqx9bvztb5iuvan0fr,32utubmz7k9dxuk30s6o2sdrelkvbt,QC6r4DY8,2020-0188,2021-10-31,10:24:35,12:14:26,NA,incomplete,true,NA,NA,true,0,16,NA,NA,NA,left,m_s_045.jpg,black,yellow,NA,NA,NA,NA,NA,NA,NA,NA,NA,NaN,NA,2671.2000000476837,left,1,NA,NA,NA,NA,NA
QC6r4DY8,3087lxlj7ptluqx9bvztb5iuvan0fr,32utubmz7k9dxuk30s6o2sdrelkvbt,QC6r4DY8,2020-0188,2021-10-31,10:24:35,12:14:26,NA,incomplete,true,NA,NA,true,0,17,NA,NA,NA,right,n_l_008.jpg,yellow,black,NA,NA,NA,NA,NA,NA,NA,NA,NA,NaN,NA,1784.1000000238419,right,1,NA,NA,NA,NA,NA
QC6r4DY8,3087lxlj7ptluqx9bvztb5iuvan0fr,32utubmz7k9dxuk30s6o2sdrelkvbt,QC6r4DY8,2020-0188,2021-10-31,10:24:35,12:14:26,NA,incomplete,true,NA,NA,true,0,18,NA,NA,NA,right,n_l_110.jpg,yellow,purple,NA,NA,NA,NA,NA,NA,NA,NA,NA,NaN,NA,2647.100000023842,left,0,NA,NA,NA,NA,NA
QC6r4DY8,3087lxlj7ptluqx9bvztb5iuvan0fr,32utubmz7k9dxuk30s6o2sdrelkvbt,QC6r4DY8,2020-0188,2021-10-31,10:24:35,12:14:26,NA,incomplete,true,NA,NA,true,0,19,NA,NA,NA,right,m_l_043.jpg,black,yellow,NA,NA,NA,NA,NA,NA,NA,NA,NA,NaN,NA,1935.5,left,0,NA,NA,NA,NA,NA
QC6r4DY8,3087lxlj7ptluqx9bvztb5iuvan0fr,32utubmz7k9dxuk30s6o2sdrelkvbt,QC6r4DY8,2020-0188,2021-10-31,10:24:35,12:14:26,NA,incomplete,true,NA,NA,true,0,20,NA,NA,NA,left,n_l_096.jpg,brown,orange,NA,NA,NA,NA,NA,NA,NA,NA,NA,NaN,NA,2215.300000011921,left,1,NA,NA,NA,NA,NA
QC6r4DY8,3087lxlj7ptluqx9bvztb5iuvan0fr,32utubmz7k9dxuk30s6o2sdrelkvbt,QC6r4DY8,2020-0188,2021-10-31,10:24:35,12:14:26,NA,incomplete,true,NA,NA,true,0,21,NA,NA,NA,left,n_l_050.jpg,orange,green,NA,NA,NA,NA,NA,NA,NA,NA,NA,NaN,NA,2447.5,right,0,NA,NA,NA,NA,NA
QC6r4DY8,3087lxlj7ptluqx9bvztb5iuvan0fr,32utubmz7k9dxuk30s6o2sdrelkvbt,QC6r4DY8,2020-0188,2021-10-31,10:24:35,12:14:26,NA,incomplete,true,NA,true,NA,0,0,NA,NA,NA,left,NA,NA,NA,present,NA,NA,n_s_049.jpg,brown,n_s_112.jpg,brown,within,NA,NaN,NA,NA,NA,NA,right,1759.300000011921,0,1,5343.399999976158
QC6r4DY8,3087lxlj7ptluqx9bvztb5iuvan0fr,32utubmz7k9dxuk30s6o2sdrelkvbt,QC6r4DY8,2020-0188,2021-10-31,10:24:35,12:14:26,NA,incomplete,true,NA,true,NA,0,1,NA,NA,NA,right,NA,NA,NA,present,NA,NA,n_s_011.jpg,green,n_l_050.jpg,orange,between,NA,NaN,NA,NA,NA,NA,left,3135.300000011921,0,2,1679.5
QC6r4DY8,3087lxlj7ptluqx9bvztb5iuvan0fr,32utubmz7k9dxuk30s6o2sdrelkvbt,QC6r4DY8,2020-0188,2021-10-31,10:24:35,12:14:26,NA,incomplete,true,NA,true,NA,0,2,NA,NA,NA,right,NA,NA,NA,present,NA,NA,n_l_008.jpg,black,n_s_016.jpg,black,within,NA,NaN,NA,NA,NA,NA,right,5030.899999976158,1,1,3607.199999988079
QC6r4DY8,3087lxlj7ptluqx9bvztb5iuvan0fr,32utubmz7k9dxuk30s6o2sdrelkvbt,QC6r4DY8,2020-0188,2021-10-31,10:24:35,12:14:26,NA,incomplete,true,NA,true,NA,0,3,NA,NA,NA,left,NA,NA,NA,present,NA,NA,m_l_109.jpg,green,m_l_065.jpg,green,within,NA,NaN,NA,NA,NA,NA,right,2967.100000023842,0,3,3327.199999988079
QC6r4DY8,3087lxlj7ptluqx9bvztb5iuvan0fr,32utubmz7k9dxuk30s6o2sdrelkvbt,QC6r4DY8,2020-0188,2021-10-31,10:24:35,12:14:26,NA,incomplete,true,NA,true,NA,0,4,NA,NA,NA,right,NA,NA,NA,present,NA,NA,n_s_039.jpg,orange,n_l_096.jpg,brown,between,NA,NaN,NA,NA,NA,NA,right,5814.400000035763,1,2,3055.300000011921
QC6r4DY8,3087lxlj7ptluqx9bvztb5iuvan0fr,32utubmz7k9dxuk30s6o2sdrelkvbt,QC6r4DY8,2020-0188,2021-10-31,10:24:35,12:14:26,NA,incomplete,true,NA,true,NA,0,5,NA,NA,NA,left,NA,NA,NA,present,NA,NA,m_s_045.jpg,black,n_l_037.jpg,yellow,between,NA,NaN,NA,NA,NA,NA,left,5279.199999988079,1,1,3135.5
QC6r4DY8,3087lxlj7ptluqx9bvztb5iuvan0fr,32utubmz7k9dxuk30s6o2sdrelkvbt,QC6r4DY8,2020-0188,2021-10-31,10:24:35,12:14:26,NA,incomplete,true,NA,true,NA,0,6,NA,NA,NA,left,NA,NA,NA,present,NA,NA,n_s_103.jpg,yellow,n_l_110.jpg,purple,between,NA,NaN,NA,NA,NA,NA,left,3335.800000011921,1,2,2743.199999988079
QC6r4DY8,3087lxlj7ptluqx9bvztb5iuvan0fr,32utubmz7k9dxuk30s6o2sdrelkvbt,QC6r4DY8,2020-0188,2021-10-31,10:24:35,12:14:26,NA,incomplete,true,NA,true,NA,0,7,NA,NA,NA,left,NA,NA,NA,present,NA,NA,n_l_031.jpg,yellow,m_l_043.jpg,yellow,within,NA,NaN,NA,NA,NA,NA,left,2959.199999988079,1,1,1631.3999999761581
QC6r4DY8,3087lxlj7ptluqx9bvztb5iuvan0fr,32utubmz7k9dxuk30s6o2sdrelkvbt,QC6r4DY8,2020-0188,2021-10-31,10:24:35,12:14:26,NA,incomplete,true,NA,true,NA,0,8,NA,NA,NA,right,NA,NA,NA,present,NA,NA,m_s_042.jpg,brown,n_s_033.jpg,purple,between,NA,NaN,NA,NA,NA,NA,right,3455.399999976158,1,2,10783.099999964237
QC6r4DY8,3087lxlj7ptluqx9bvztb5iuvan0fr,32utubmz7k9dxuk30s6o2sdrelkvbt,QC6r4DY8,2020-0188,2021-10-31,10:24:35,12:14:26,NA,incomplete,true,NA,true,NA,0,9,NA,NA,NA,right,NA,NA,NA,present,NA,NA,n_s_111.jpg,purple,m_l_062.jpg,purple,within,NA,NaN,NA,NA,NA,NA,left,2319,0,0,1543.199999988079
QC6r4DY8,3087lxlj7ptluqx9bvztb5iuvan0fr,32utubmz7k9dxuk30s6o2sdrelkvbt,QC6r4DY8,2020-0188,2021-10-31,10:24:35,12:14:26,NA,incomplete,true,NA,true,NA,0,10,NA,NA,NA,right,NA,NA,NA,present,NA,NA,m_l_105.jpg,orange,m_s_113.jpg,orange,within,NA,NaN,NA,NA,NA,NA,left,4247.300000011921,0,0,3183.400000035763
QC6r4DY8,3087lxlj7ptluqx9bvztb5iuvan0fr,32utubmz7k9dxuk30s6o2sdrelkvbt,QC6r4DY8,2020-0188,2021-10-31,10:24:35,12:14:26,NA,incomplete,false,true,NA,NA,1,0,NA,purple,m_l_081.jpg,NA,NA,NA,NA,NA,unpleasant,pleasant,NA,NA,NA,NA,NA,right,2489.59999996424,true,NA,NA,NA,NA,NA,NA,NA,NA
QC6r4DY8,3087lxlj7ptluqx9bvztb5iuvan0fr,32utubmz7k9dxuk30s6o2sdrelkvbt,QC6r4DY8,2020-0188,2021-10-31,10:24:35,12:14:26,NA,incomplete,false,true,NA,NA,1,1,NA,purple,m_l_006.jpg,NA,NA,NA,NA,NA,unpleasant,pleasant,NA,NA,NA,NA,NA,right,1349.5,true,NA,NA,NA,NA,NA,NA,NA,NA
QC6r4DY8,3087lxlj7ptluqx9bvztb5iuvan0fr,32utubmz7k9dxuk30s6o2sdrelkvbt,QC6r4DY8,2020-0188,2021-10-31,10:24:35,12:14:26,NA,incomplete,false,true,NA,NA,1,2,NA,purple,n_l_064.jpg,NA,NA,NA,NA,NA,unpleasant,pleasant,NA,NA,NA,NA,NA,right,1706.19999998808,true,NA,NA,NA,NA,NA,NA,NA,NA
QC6r4DY8,3087lxlj7ptluqx9bvztb5iuvan0fr,32utubmz7k9dxuk30s6o2sdrelkvbt,QC6r4DY8,2020-0188,2021-10-31,10:24:35,12:14:26,NA,incomplete,false,true,NA,NA,1,3,NA,purple,m_s_087.jpg,NA,NA,NA,NA,NA,unpleasant,pleasant,NA,NA,NA,NA,NA,right,1206.19999998808,true,NA,NA,NA,NA,NA,NA,NA,NA
QC6r4DY8,3087lxlj7ptluqx9bvztb5iuvan0fr,32utubmz7k9dxuk30s6o2sdrelkvbt,QC6r4DY8,2020-0188,2021-10-31,10:24:35,12:14:26,NA,incomplete,false,true,NA,NA,1,4,NA,purple,n_s_059.jpg,NA,NA,NA,NA,NA,unpleasant,pleasant,NA,NA,NA,NA,NA,right,1594,true,NA,NA,NA,NA,NA,NA,NA,NA
QC6r4DY8,3087lxlj7ptluqx9bvztb5iuvan0fr,32utubmz7k9dxuk30s6o2sdrelkvbt,QC6r4DY8,2020-0188,2021-10-31,10:24:35,12:14:26,NA,incomplete,false,true,NA,NA,1,5,NA,purple,n_s_068.jpg,NA,NA,NA,NA,NA,pleasant,unpleasant,NA,NA,NA,NA,NA,left,1342.69999998808,true,NA,NA,NA,NA,NA,NA,NA,NA
QC6r4DY8,3087lxlj7ptluqx9bvztb5iuvan0fr,32utubmz7k9dxuk30s6o2sdrelkvbt,QC6r4DY8,2020-0188,2021-10-31,10:24:35,12:14:26,NA,incomplete,false,true,NA,NA,1,6,NA,yellow,m_s_002.jpg,NA,NA,NA,NA,NA,unpleasant,pleasant,NA,NA,NA,NA,NA,right,2027.30000001192,true,NA,NA,NA,NA,NA,NA,NA,NA
QC6r4DY8,3087lxlj7ptluqx9bvztb5iuvan0fr,32utubmz7k9dxuk30s6o2sdrelkvbt,QC6r4DY8,2020-0188,2021-10-31,10:24:35,12:14:26,NA,incomplete,false,true,NA,NA,1,7,NA,yellow,m_l_003.jpg,NA,NA,NA,NA,NA,pleasant,unpleasant,NA,NA,NA,NA,NA,left,1376,true,NA,NA,NA,NA,NA,NA,NA,NA
QC6r4DY8,3087lxlj7ptluqx9bvztb5iuvan0fr,32utubmz7k9dxuk30s6o2sdrelkvbt,QC6r4DY8,2020-0188,2021-10-31,10:24:35,12:14:26,NA,incomplete,false,true,NA,NA,1,8,NA,yellow,n_l_041.jpg,NA,NA,NA,NA,NA,pleasant,unpleasant,NA,NA,NA,NA,NA,right,1700.60000002384,true,NA,NA,NA,NA,NA,NA,NA,NA
QC6r4DY8,3087lxlj7ptluqx9bvztb5iuvan0fr,32utubmz7k9dxuk30s6o2sdrelkvbt,QC6r4DY8,2020-0188,2021-10-31,10:24:35,12:14:26,NA,incomplete,false,true,NA,NA,1,9,NA,yellow,n_l_017.jpg,NA,NA,NA,NA,NA,pleasant,unpleasant,NA,NA,NA,NA,NA,right,1696.80000001192,true,NA,NA,NA,NA,NA,NA,NA,NA
QC6r4DY8,3087lxlj7ptluqx9bvztb5iuvan0fr,32utubmz7k9dxuk30s6o2sdrelkvbt,QC6r4DY8,2020-0188,2021-10-31,10:24:35,12:14:26,NA,incomplete,false,true,NA,NA,1,10,NA,yellow,m_s_069.jpg,NA,NA,NA,NA,NA,pleasant,unpleasant,NA,NA,NA,NA,NA,left,1517.30000001192,true,NA,NA,NA,NA,NA,NA,NA,NA
QC6r4DY8,3087lxlj7ptluqx9bvztb5iuvan0fr,32utubmz7k9dxuk30s6o2sdrelkvbt,QC6r4DY8,2020-0188,2021-10-31,10:24:35,12:14:26,NA,incomplete,false,true,NA,NA,1,11,NA,yellow,m_s_034.jpg,NA,NA,NA,NA,NA,unpleasant,pleasant,NA,NA,NA,NA,NA,right,1801.39999997616,true,NA,NA,NA,NA,NA,NA,NA,NA
QC6r4DY8,3087lxlj7ptluqx9bvztb5iuvan0fr,32utubmz7k9dxuk30s6o2sdrelkvbt,QC6r4DY8,2020-0188,2021-10-31,10:24:35,12:14:26,NA,incomplete,false,true,NA,NA,1,12,NA,black,m_l_101.jpg,NA,NA,NA,NA,NA,pleasant,unpleasant,NA,NA,NA,NA,NA,left,2341.40000003576,true,NA,NA,NA,NA,NA,NA,NA,NA
QC6r4DY8,3087lxlj7ptluqx9bvztb5iuvan0fr,32utubmz7k9dxuk30s6o2sdrelkvbt,QC6r4DY8,2020-0188,2021-10-31,10:24:35,12:14:26,NA,incomplete,false,true,NA,NA,1,13,NA,black,m_s_104.jpg,NA,NA,NA,NA,NA,unpleasant,pleasant,NA,NA,NA,NA,NA,right,1793.5,true,NA,NA,NA,NA,NA,NA,NA,NA
QC6r4DY8,3087lxlj7ptluqx9bvztb5iuvan0fr,32utubmz7k9dxuk30s6o2sdrelkvbt,QC6r4DY8,2020-0188,2021-10-31,10:24:35,12:14:26,NA,incomplete,false,true,NA,NA,1,14,NA,black,m_s_040.jpg,NA,NA,NA,NA,NA,pleasant,unpleasant,NA,NA,NA,NA,NA,left,1286,true,NA,NA,NA,NA,NA,NA,NA,NA
QC6r4DY8,3087lxlj7ptluqx9bvztb5iuvan0fr,32utubmz7k9dxuk30s6o2sdrelkvbt,QC6r4DY8,2020-0188,2021-10-31,10:24:35,12:14:26,NA,incomplete,false,true,NA,NA,1,15,NA,black,m_s_038.jpg,NA,NA,NA,NA,NA,pleasant,unpleasant,NA,NA,NA,NA,NA,left,1706.19999998808,true,NA,NA,NA,NA,NA,NA,NA,NA
QC6r4DY8,3087lxlj7ptluqx9bvztb5iuvan0fr,32utubmz7k9dxuk30s6o2sdrelkvbt,QC6r4DY8,2020-0188,2021-10-31,10:24:35,12:14:26,NA,incomplete,false,true,NA,NA,1,16,NA,black,m_s_109.jpg,NA,NA,NA,NA,NA,pleasant,unpleasant,NA,NA,NA,NA,NA,left,1790.10000002384,true,NA,NA,NA,NA,NA,NA,NA,NA
QC6r4DY8,3087lxlj7ptluqx9bvztb5iuvan0fr,32utubmz7k9dxuk30s6o2sdrelkvbt,QC6r4DY8,2020-0188,2021-10-31,10:24:35,12:14:26,NA,incomplete,false,true,NA,NA,1,17,NA,black,n_s_037.jpg,NA,NA,NA,NA,NA,pleasant,unpleasant,NA,NA,NA,NA,NA,left,1864.30000001192,true,NA,NA,NA,NA,NA,NA,NA,NA
QC6r4DY8,3087lxlj7ptluqx9bvztb5iuvan0fr,32utubmz7k9dxuk30s6o2sdrelkvbt,QC6r4DY8,2020-0188,2021-10-31,10:24:35,12:14:26,NA,incomplete,false,true,NA,NA,1,18,NA,orange,n_l_056.jpg,NA,NA,NA,NA,NA,unpleasant,pleasant,NA,NA,NA,NA,NA,left,2222.90000003576,true,NA,NA,NA,NA,NA,NA,NA,NA
QC6r4DY8,3087lxlj7ptluqx9bvztb5iuvan0fr,32utubmz7k9dxuk30s6o2sdrelkvbt,QC6r4DY8,2020-0188,2021-10-31,10:24:35,12:14:26,NA,incomplete,false,true,NA,NA,1,19,NA,orange,m_l_102.jpg,NA,NA,NA,NA,NA,unpleasant,pleasant,NA,NA,NA,NA,NA,right,1466.90000003576,true,NA,NA,NA,NA,NA,NA,NA,NA
QC6r4DY8,3087lxlj7ptluqx9bvztb5iuvan0fr,32utubmz7k9dxuk30s6o2sdrelkvbt,QC6r4DY8,2020-0188,2021-10-31,10:24:35,12:14:26,NA,incomplete,false,true,NA,NA,1,20,NA,orange,n_l_062.jpg,NA,NA,NA,NA,NA,pleasant,unpleasant,NA,NA,NA,NA,NA,left,1894.70000004768,true,NA,NA,NA,NA,NA,NA,NA,NA
QC6r4DY8,3087lxlj7ptluqx9bvztb5iuvan0fr,32utubmz7k9dxuk30s6o2sdrelkvbt,QC6r4DY8,2020-0188,2021-10-31,10:24:35,12:14:26,NA,incomplete,false,true,NA,NA,1,21,NA,orange,n_s_022.jpg,NA,NA,NA,NA,NA,unpleasant,pleasant,NA,NA,NA,NA,NA,right,2499.40000003576,true,NA,NA,NA,NA,NA,NA,NA,NA
QC6r4DY8,3087lxlj7ptluqx9bvztb5iuvan0fr,32utubmz7k9dxuk30s6o2sdrelkvbt,QC6r4DY8,2020-0188,2021-10-31,10:24:35,12:14:26,NA,incomplete,false,true,NA,NA,1,22,NA,orange,m_s_016.jpg,NA,NA,NA,NA,NA,unpleasant,pleasant,NA,NA,NA,NA,NA,right,1671.5,true,NA,NA,NA,NA,NA,NA,NA,NA
QC6r4DY8,3087lxlj7ptluqx9bvztb5iuvan0fr,32utubmz7k9dxuk30s6o2sdrelkvbt,QC6r4DY8,2020-0188,2021-10-31,10:24:35,12:14:26,NA,incomplete,false,true,NA,NA,1,23,NA,orange,m_s_100.jpg,NA,NA,NA,NA,NA,unpleasant,pleasant,NA,NA,NA,NA,NA,right,1819.80000001192,true,NA,NA,NA,NA,NA,NA,NA,NA
QC6r4DY8,3087lxlj7ptluqx9bvztb5iuvan0fr,32utubmz7k9dxuk30s6o2sdrelkvbt,QC6r4DY8,2020-0188,2021-10-31,10:24:35,12:14:26,NA,incomplete,false,true,NA,NA,1,24,NA,white,n_l_019.jpg,NA,NA,NA,NA,NA,unpleasant,pleasant,NA,NA,NA,NA,NA,left,1592,true,NA,NA,NA,NA,NA,NA,NA,NA
QC6r4DY8,3087lxlj7ptluqx9bvztb5iuvan0fr,32utubmz7k9dxuk30s6o2sdrelkvbt,QC6r4DY8,2020-0188,2021-10-31,10:24:35,12:14:26,NA,incomplete,false,true,NA,NA,1,25,NA,white,n_l_042.jpg,NA,NA,NA,NA,NA,unpleasant,pleasant,NA,NA,NA,NA,NA,right,2364.5,true,NA,NA,NA,NA,NA,NA,NA,NA
QC6r4DY8,3087lxlj7ptluqx9bvztb5iuvan0fr,32utubmz7k9dxuk30s6o2sdrelkvbt,QC6r4DY8,2020-0188,2021-10-31,10:24:35,12:14:26,NA,incomplete,false,true,NA,NA,1,26,NA,white,m_s_088.jpg,NA,NA,NA,NA,NA,unpleasant,pleasant,NA,NA,NA,NA,NA,right,1961.30000001192,true,NA,NA,NA,NA,NA,NA,NA,NA
QC6r4DY8,3087lxlj7ptluqx9bvztb5iuvan0fr,32utubmz7k9dxuk30s6o2sdrelkvbt,QC6r4DY8,2020-0188,2021-10-31,10:24:35,12:14:26,NA,incomplete,false,true,NA,NA,1,27,NA,white,n_s_071.jpg,NA,NA,NA,NA,NA,pleasant,unpleasant,NA,NA,NA,NA,NA,left,2230,true,NA,NA,NA,NA,NA,NA,NA,NA
QC6r4DY8,3087lxlj7ptluqx9bvztb5iuvan0fr,32utubmz7k9dxuk30s6o2sdrelkvbt,QC6r4DY8,2020-0188,2021-10-31,10:24:35,12:14:26,NA,incomplete,false,true,NA,NA,1,28,NA,white,m_s_078.jpg,NA,NA,NA,NA,NA,pleasant,unpleasant,NA,NA,NA,NA,NA,left,1482.5,true,NA,NA,NA,NA,NA,NA,NA,NA
QC6r4DY8,3087lxlj7ptluqx9bvztb5iuvan0fr,32utubmz7k9dxuk30s6o2sdrelkvbt,QC6r4DY8,2020-0188,2021-10-31,10:24:35,12:14:26,NA,incomplete,false,true,NA,NA,1,29,NA,white,n_s_004.jpg,NA,NA,NA,NA,NA,unpleasant,pleasant,NA,NA,NA,NA,NA,right,1711.30000001192,true,NA,NA,NA,NA,NA,NA,NA,NA
QC6r4DY8,3087lxlj7ptluqx9bvztb5iuvan0fr,32utubmz7k9dxuk30s6o2sdrelkvbt,QC6r4DY8,2020-0188,2021-10-31,10:24:35,12:14:26,NA,incomplete,false,true,NA,NA,1,30,NA,brown,n_s_072.jpg,NA,NA,NA,NA,NA,pleasant,unpleasant,NA,NA,NA,NA,NA,left,1668,true,NA,NA,NA,NA,NA,NA,NA,NA
QC6r4DY8,3087lxlj7ptluqx9bvztb5iuvan0fr,32utubmz7k9dxuk30s6o2sdrelkvbt,QC6r4DY8,2020-0188,2021-10-31,10:24:35,12:14:26,NA,incomplete,false,true,NA,NA,1,31,NA,brown,m_s_007.jpg,NA,NA,NA,NA,NA,unpleasant,pleasant,NA,NA,NA,NA,NA,right,2407.80000001192,true,NA,NA,NA,NA,NA,NA,NA,NA
QC6r4DY8,3087lxlj7ptluqx9bvztb5iuvan0fr,32utubmz7k9dxuk30s6o2sdrelkvbt,QC6r4DY8,2020-0188,2021-10-31,10:24:35,12:14:26,NA,incomplete,false,true,NA,NA,1,32,NA,brown,n_s_086.jpg,NA,NA,NA,NA,NA,unpleasant,pleasant,NA,NA,NA,NA,NA,right,2235.80000001192,true,NA,NA,NA,NA,NA,NA,NA,NA
QC6r4DY8,3087lxlj7ptluqx9bvztb5iuvan0fr,32utubmz7k9dxuk30s6o2sdrelkvbt,QC6r4DY8,2020-0188,2021-10-31,10:24:35,12:14:26,NA,incomplete,false,true,NA,NA,1,33,NA,brown,m_l_092.jpg,NA,NA,NA,NA,NA,pleasant,unpleasant,NA,NA,NA,NA,NA,left,1920.09999996424,true,NA,NA,NA,NA,NA,NA,NA,NA
QC6r4DY8,3087lxlj7ptluqx9bvztb5iuvan0fr,32utubmz7k9dxuk30s6o2sdrelkvbt,QC6r4DY8,2020-0188,2021-10-31,10:24:35,12:14:26,NA,incomplete,false,true,NA,NA,1,34,NA,brown,m_l_008.jpg,NA,NA,NA,NA,NA,unpleasant,pleasant,NA,NA,NA,NA,NA,right,1044.19999998808,true,NA,NA,NA,NA,NA,NA,NA,NA
QC6r4DY8,3087lxlj7ptluqx9bvztb5iuvan0fr,32utubmz7k9dxuk30s6o2sdrelkvbt,QC6r4DY8,2020-0188,2021-10-31,10:24:35,12:14:26,NA,incomplete,false,true,NA,NA,1,35,NA,brown,n_l_023.jpg,NA,NA,NA,NA,NA,unpleasant,pleasant,NA,NA,NA,NA,NA,right,1480.60000002384,true,NA,NA,NA,NA,NA,NA,NA,NA
QC6r4DY8,3087lxlj7ptluqx9bvztb5iuvan0fr,32utubmz7k9dxuk30s6o2sdrelkvbt,QC6r4DY8,2020-0188,2021-10-31,10:24:35,12:14:26,NA,incomplete,false,NA,NA,true,1,0,NA,NA,NA,right,n_s_037.jpg,orange,black,NA,NA,NA,NA,NA,NA,NA,NA,NA,NaN,NA,2663.600000023842,right,1,NA,NA,NA,NA,NA
QC6r4DY8,3087lxlj7ptluqx9bvztb5iuvan0fr,32utubmz7k9dxuk30s6o2sdrelkvbt,QC6r4DY8,2020-0188,2021-10-31,10:24:35,12:14:26,NA,incomplete,false,NA,NA,true,1,1,NA,NA,NA,right,m_l_006.jpg,yellow,purple,NA,NA,NA,NA,NA,NA,NA,NA,NA,NaN,NA,4119.5,right,1,NA,NA,NA,NA,NA
QC6r4DY8,3087lxlj7ptluqx9bvztb5iuvan0fr,32utubmz7k9dxuk30s6o2sdrelkvbt,QC6r4DY8,2020-0188,2021-10-31,10:24:35,12:14:26,NA,incomplete,false,NA,NA,true,1,2,NA,NA,NA,right,n_l_023.jpg,white,brown,NA,NA,NA,NA,NA,NA,NA,NA,NA,NaN,NA,2975,right,1,NA,NA,NA,NA,NA
QC6r4DY8,3087lxlj7ptluqx9bvztb5iuvan0fr,32utubmz7k9dxuk30s6o2sdrelkvbt,QC6r4DY8,2020-0188,2021-10-31,10:24:35,12:14:26,NA,incomplete,false,NA,NA,true,1,3,NA,NA,NA,left,m_l_003.jpg,yellow,purple,NA,NA,NA,NA,NA,NA,NA,NA,NA,NaN,NA,3623.199999988079,left,1,NA,NA,NA,NA,NA
QC6r4DY8,3087lxlj7ptluqx9bvztb5iuvan0fr,32utubmz7k9dxuk30s6o2sdrelkvbt,QC6r4DY8,2020-0188,2021-10-31,10:24:35,12:14:26,NA,incomplete,false,NA,NA,true,1,4,NA,NA,NA,right,m_s_069.jpg,purple,yellow,NA,NA,NA,NA,NA,NA,NA,NA,NA,NaN,NA,3271.2999999523163,left,0,NA,NA,NA,NA,NA
QC6r4DY8,3087lxlj7ptluqx9bvztb5iuvan0fr,32utubmz7k9dxuk30s6o2sdrelkvbt,QC6r4DY8,2020-0188,2021-10-31,10:24:35,12:14:26,NA,incomplete,false,NA,NA,true,1,5,NA,NA,NA,left,n_s_068.jpg,purple,yellow,NA,NA,NA,NA,NA,NA,NA,NA,NA,NaN,NA,3703.099999964237,right,0,NA,NA,NA,NA,NA
QC6r4DY8,3087lxlj7ptluqx9bvztb5iuvan0fr,32utubmz7k9dxuk30s6o2sdrelkvbt,QC6r4DY8,2020-0188,2021-10-31,10:24:35,12:14:26,NA,incomplete,false,NA,NA,true,1,6,NA,NA,NA,right,n_s_004.jpg,brown,white,NA,NA,NA,NA,NA,NA,NA,NA,NA,NaN,NA,2807.300000011921,right,1,NA,NA,NA,NA,NA
QC6r4DY8,3087lxlj7ptluqx9bvztb5iuvan0fr,32utubmz7k9dxuk30s6o2sdrelkvbt,QC6r4DY8,2020-0188,2021-10-31,10:24:35,12:14:26,NA,incomplete,false,NA,NA,true,1,7,NA,NA,NA,right,n_l_041.jpg,black,yellow,NA,NA,NA,NA,NA,NA,NA,NA,NA,NaN,NA,3799,left,0,NA,NA,NA,NA,NA
QC6r4DY8,3087lxlj7ptluqx9bvztb5iuvan0fr,32utubmz7k9dxuk30s6o2sdrelkvbt,QC6r4DY8,2020-0188,2021-10-31,10:24:35,12:14:26,NA,incomplete,false,NA,NA,true,1,8,NA,NA,NA,left,m_s_109.jpg,black,orange,NA,NA,NA,NA,NA,NA,NA,NA,NA,NaN,NA,2103.300000011921,left,1,NA,NA,NA,NA,NA
QC6r4DY8,3087lxlj7ptluqx9bvztb5iuvan0fr,32utubmz7k9dxuk30s6o2sdrelkvbt,QC6r4DY8,2020-0188,2021-10-31,10:24:35,12:14:26,NA,incomplete,false,NA,NA,true,1,9,NA,NA,NA,left,m_s_088.jpg,white,orange,NA,NA,NA,NA,NA,NA,NA,NA,NA,NaN,NA,1966.699999988079,left,1,NA,NA,NA,NA,NA
QC6r4DY8,3087lxlj7ptluqx9bvztb5iuvan0fr,32utubmz7k9dxuk30s6o2sdrelkvbt,QC6r4DY8,2020-0188,2021-10-31,10:24:35,12:14:26,NA,incomplete,false,NA,NA,true,1,10,NA,NA,NA,left,m_s_078.jpg,white,orange,NA,NA,NA,NA,NA,NA,NA,NA,NA,NaN,NA,2151.199999988079,left,1,NA,NA,NA,NA,NA
QC6r4DY8,3087lxlj7ptluqx9bvztb5iuvan0fr,32utubmz7k9dxuk30s6o2sdrelkvbt,QC6r4DY8,2020-0188,2021-10-31,10:24:35,12:14:26,NA,incomplete,false,NA,NA,true,1,11,NA,NA,NA,left,n_s_059.jpg,purple,yellow,NA,NA,NA,NA,NA,NA,NA,NA,NA,NaN,NA,2943.300000011921,right,0,NA,NA,NA,NA,NA
QC6r4DY8,3087lxlj7ptluqx9bvztb5iuvan0fr,32utubmz7k9dxuk30s6o2sdrelkvbt,QC6r4DY8,2020-0188,2021-10-31,10:24:35,12:14:26,NA,incomplete,false,NA,NA,true,1,12,NA,NA,NA,right,m_s_104.jpg,orange,black,NA,NA,NA,NA,NA,NA,NA,NA,NA,NaN,NA,1375.300000011921,right,1,NA,NA,NA,NA,NA
QC6r4DY8,3087lxlj7ptluqx9bvztb5iuvan0fr,32utubmz7k9dxuk30s6o2sdrelkvbt,QC6r4DY8,2020-0188,2021-10-31,10:24:35,12:14:26,NA,incomplete,false,NA,NA,true,1,13,NA,NA,NA,right,m_s_007.jpg,white,brown,NA,NA,NA,NA,NA,NA,NA,NA,NA,NaN,NA,7335.300000011921,left,0,NA,NA,NA,NA,NA
QC6r4DY8,3087lxlj7ptluqx9bvztb5iuvan0fr,32utubmz7k9dxuk30s6o2sdrelkvbt,QC6r4DY8,2020-0188,2021-10-31,10:24:35,12:14:26,NA,incomplete,false,NA,NA,true,1,14,NA,NA,NA,right,m_s_100.jpg,white,orange,NA,NA,NA,NA,NA,NA,NA,NA,NA,NaN,NA,2311.300000011921,left,0,NA,NA,NA,NA,NA
QC6r4DY8,3087lxlj7ptluqx9bvztb5iuvan0fr,32utubmz7k9dxuk30s6o2sdrelkvbt,QC6r4DY8,2020-0188,2021-10-31,10:24:35,12:14:26,NA,incomplete,false,NA,NA,true,1,15,NA,NA,NA,left,n_l_042.jpg,white,brown,NA,NA,NA,NA,NA,NA,NA,NA,NA,NaN,NA,2255.100000023842,left,1,NA,NA,NA,NA,NA
QC6r4DY8,3087lxlj7ptluqx9bvztb5iuvan0fr,32utubmz7k9dxuk30s6o2sdrelkvbt,QC6r4DY8,2020-0188,2021-10-31,10:24:35,12:14:26,NA,incomplete,false,NA,NA,true,1,16,NA,NA,NA,left,m_s_016.jpg,orange,black,NA,NA,NA,NA,NA,NA,NA,NA,NA,NaN,NA,1783.4000000357628,right,0,NA,NA,NA,NA,NA
QC6r4DY8,3087lxlj7ptluqx9bvztb5iuvan0fr,32utubmz7k9dxuk30s6o2sdrelkvbt,QC6r4DY8,2020-0188,2021-10-31,10:24:35,12:14:26,NA,incomplete,false,NA,NA,true,1,17,NA,NA,NA,right,m_s_034.jpg,black,yellow,NA,NA,NA,NA,NA,NA,NA,NA,NA,NaN,NA,3367.2000000476837,left,0,NA,NA,NA,NA,NA
QC6r4DY8,3087lxlj7ptluqx9bvztb5iuvan0fr,32utubmz7k9dxuk30s6o2sdrelkvbt,QC6r4DY8,2020-0188,2021-10-31,10:24:35,12:14:26,NA,incomplete,false,NA,NA,true,1,18,NA,NA,NA,right,m_l_102.jpg,black,orange,NA,NA,NA,NA,NA,NA,NA,NA,NA,NaN,NA,3591.300000011921,left,0,NA,NA,NA,NA,NA
QC6r4DY8,3087lxlj7ptluqx9bvztb5iuvan0fr,32utubmz7k9dxuk30s6o2sdrelkvbt,QC6r4DY8,2020-0188,2021-10-31,10:24:35,12:14:26,NA,incomplete,false,NA,NA,true,1,19,NA,NA,NA,right,n_s_086.jpg,white,brown,NA,NA,NA,NA,NA,NA,NA,NA,NA,NaN,NA,2559.400000035763,right,1,NA,NA,NA,NA,NA
QC6r4DY8,3087lxlj7ptluqx9bvztb5iuvan0fr,32utubmz7k9dxuk30s6o2sdrelkvbt,QC6r4DY8,2020-0188,2021-10-31,10:24:35,12:14:26,NA,incomplete,false,NA,NA,true,1,20,NA,NA,NA,left,n_l_062.jpg,orange,white,NA,NA,NA,NA,NA,NA,NA,NA,NA,NaN,NA,2967.800000011921,left,1,NA,NA,NA,NA,NA
QC6r4DY8,3087lxlj7ptluqx9bvztb5iuvan0fr,32utubmz7k9dxuk30s6o2sdrelkvbt,QC6r4DY8,2020-0188,2021-10-31,10:24:35,12:14:26,NA,incomplete,false,NA,NA,true,1,21,NA,NA,NA,left,m_s_040.jpg,black,orange,NA,NA,NA,NA,NA,NA,NA,NA,NA,NaN,NA,2175.300000011921,left,1,NA,NA,NA,NA,NA
QC6r4DY8,3087lxlj7ptluqx9bvztb5iuvan0fr,32utubmz7k9dxuk30s6o2sdrelkvbt,QC6r4DY8,2020-0188,2021-10-31,10:24:35,12:14:26,NA,incomplete,false,NA,true,NA,1,0,NA,NA,NA,right,NA,NA,NA,present,NA,NA,n_l_023.jpg,brown,m_s_007.jpg,brown,within,NA,NaN,NA,NA,NA,NA,left,3991.2999999523163,0,0,2591.399999976158
QC6r4DY8,3087lxlj7ptluqx9bvztb5iuvan0fr,32utubmz7k9dxuk30s6o2sdrelkvbt,QC6r4DY8,2020-0188,2021-10-31,10:24:35,12:14:26,NA,incomplete,false,NA,true,NA,1,1,NA,NA,NA,left,NA,NA,NA,present,NA,NA,n_s_059.jpg,purple,n_l_041.jpg,yellow,between,NA,NaN,NA,NA,NA,NA,left,6190.800000011921,1,3,3391.2999999523163
QC6r4DY8,3087lxlj7ptluqx9bvztb5iuvan0fr,32utubmz7k9dxuk30s6o2sdrelkvbt,QC6r4DY8,2020-0188,2021-10-31,10:24:35,12:14:26,NA,incomplete,false,NA,true,NA,1,2,NA,NA,NA,left,NA,NA,NA,present,NA,NA,m_s_016.jpg,orange,m_s_088.jpg,white,between,NA,NaN,NA,NA,NA,NA,left,3703.399999976158,1,2,2583.5
QC6r4DY8,3087lxlj7ptluqx9bvztb5iuvan0fr,32utubmz7k9dxuk30s6o2sdrelkvbt,QC6r4DY8,2020-0188,2021-10-31,10:24:35,12:14:26,NA,incomplete,false,NA,true,NA,1,3,NA,NA,NA,left,NA,NA,NA,present,NA,NA,m_s_109.jpg,black,n_l_062.jpg,orange,between,NA,NaN,NA,NA,NA,NA,left,3367.2999999523163,1,2,1783.5
QC6r4DY8,3087lxlj7ptluqx9bvztb5iuvan0fr,32utubmz7k9dxuk30s6o2sdrelkvbt,QC6r4DY8,2020-0188,2021-10-31,10:24:35,12:14:26,NA,incomplete,false,NA,true,NA,1,4,NA,NA,NA,left,NA,NA,NA,present,NA,NA,m_l_102.jpg,orange,m_s_100.jpg,orange,within,NA,NaN,NA,NA,NA,NA,right,8247.199999988079,0,1,2687.300000011921
QC6r4DY8,3087lxlj7ptluqx9bvztb5iuvan0fr,32utubmz7k9dxuk30s6o2sdrelkvbt,QC6r4DY8,2020-0188,2021-10-31,10:24:35,12:14:26,NA,incomplete,false,NA,true,NA,1,5,NA,NA,NA,right,NA,NA,NA,present,NA,NA,m_s_034.jpg,yellow,m_l_003.jpg,yellow,within,NA,NaN,NA,NA,NA,NA,right,4983.400000035763,1,0,2063.5
QC6r4DY8,3087lxlj7ptluqx9bvztb5iuvan0fr,32utubmz7k9dxuk30s6o2sdrelkvbt,QC6r4DY8,2020-0188,2021-10-31,10:24:35,12:14:26,NA,incomplete,false,NA,true,NA,1,6,NA,NA,NA,right,NA,NA,NA,present,NA,NA,n_s_037.jpg,black,m_s_104.jpg,black,within,NA,NaN,NA,NA,NA,NA,right,6647.5,1,0,1998.8999999761581
QC6r4DY8,3087lxlj7ptluqx9bvztb5iuvan0fr,32utubmz7k9dxuk30s6o2sdrelkvbt,QC6r4DY8,2020-0188,2021-10-31,10:24:35,12:14:26,NA,incomplete,false,NA,true,NA,1,7,NA,NA,NA,left,NA,NA,NA,present,NA,NA,m_s_069.jpg,yellow,m_s_040.jpg,black,between,NA,NaN,NA,NA,NA,NA,left,3183,1,2,2870.900000035763
QC6r4DY8,3087lxlj7ptluqx9bvztb5iuvan0fr,32utubmz7k9dxuk30s6o2sdrelkvbt,QC6r4DY8,2020-0188,2021-10-31,10:24:35,12:14:26,NA,incomplete,false,NA,true,NA,1,8,NA,NA,NA,left,NA,NA,NA,present,NA,NA,m_s_078.jpg,white,n_s_086.jpg,brown,between,NA,NaN,NA,NA,NA,NA,right,2334.800000011921,0,3,4543.699999988079
QC6r4DY8,3087lxlj7ptluqx9bvztb5iuvan0fr,32utubmz7k9dxuk30s6o2sdrelkvbt,QC6r4DY8,2020-0188,2021-10-31,10:24:35,12:14:26,NA,incomplete,false,NA,true,NA,1,9,NA,NA,NA,right,NA,NA,NA,present,NA,NA,n_s_068.jpg,purple,m_l_006.jpg,purple,within,NA,NaN,NA,NA,NA,NA,right,4047.199999988079,1,1,4975.099999964237
QC6r4DY8,3087lxlj7ptluqx9bvztb5iuvan0fr,32utubmz7k9dxuk30s6o2sdrelkvbt,QC6r4DY8,2020-0188,2021-10-31,10:24:35,12:14:26,NA,incomplete,false,NA,true,NA,1,10,NA,NA,NA,right,NA,NA,NA,present,NA,NA,n_s_004.jpg,white,n_l_042.jpg,white,within,NA,NaN,NA,NA,NA,NA,left,6191.399999976158,0,1,4071.199999988079
QC6r4DY8,3087lxlj7ptluqx9bvztb5iuvan0fr,32utubmz7k9dxuk30s6o2sdrelkvbt,QC6r4DY8,2020-0188,2021-10-31,10:24:35,12:14:26,NA,incomplete,false,true,NA,NA,2,0,NA,gray,n_s_001.jpg,NA,NA,NA,NA,NA,pleasant,unpleasant,NA,NA,NA,NA,NA,left,2747.39999997616,true,NA,NA,NA,NA,NA,NA,NA,NA
QC6r4DY8,3087lxlj7ptluqx9bvztb5iuvan0fr,32utubmz7k9dxuk30s6o2sdrelkvbt,QC6r4DY8,2020-0188,2021-10-31,10:24:35,12:14:26,NA,incomplete,false,true,NA,NA,2,1,NA,gray,m_l_100.jpg,NA,NA,NA,NA,NA,pleasant,unpleasant,NA,NA,NA,NA,NA,left,1520.20000004768,true,NA,NA,NA,NA,NA,NA,NA,NA
QC6r4DY8,3087lxlj7ptluqx9bvztb5iuvan0fr,32utubmz7k9dxuk30s6o2sdrelkvbt,QC6r4DY8,2020-0188,2021-10-31,10:24:35,12:14:26,NA,incomplete,false,true,NA,NA,2,2,NA,gray,n_s_032.jpg,NA,NA,NA,NA,NA,pleasant,unpleasant,NA,NA,NA,NA,NA,right,1228.30000001192,true,NA,NA,NA,NA,NA,NA,NA,NA
QC6r4DY8,3087lxlj7ptluqx9bvztb5iuvan0fr,32utubmz7k9dxuk30s6o2sdrelkvbt,QC6r4DY8,2020-0188,2021-10-31,10:24:35,12:14:26,NA,incomplete,false,true,NA,NA,2,3,NA,gray,m_l_099.jpg,NA,NA,NA,NA,NA,pleasant,unpleasant,NA,NA,NA,NA,NA,left,1833.10000002384,true,NA,NA,NA,NA,NA,NA,NA,NA
QC6r4DY8,3087lxlj7ptluqx9bvztb5iuvan0fr,32utubmz7k9dxuk30s6o2sdrelkvbt,QC6r4DY8,2020-0188,2021-10-31,10:24:35,12:14:26,NA,incomplete,false,true,NA,NA,2,4,NA,gray,n_l_072.jpg,NA,NA,NA,NA,NA,pleasant,unpleasant,NA,NA,NA,NA,NA,right,1965.59999996424,true,NA,NA,NA,NA,NA,NA,NA,NA
QC6r4DY8,3087lxlj7ptluqx9bvztb5iuvan0fr,32utubmz7k9dxuk30s6o2sdrelkvbt,QC6r4DY8,2020-0188,2021-10-31,10:24:35,12:14:26,NA,incomplete,false,true,NA,NA,2,5,NA,gray,m_l_087.jpg,NA,NA,NA,NA,NA,unpleasant,pleasant,NA,NA,NA,NA,NA,right,1834.19999998808,true,NA,NA,NA,NA,NA,NA,NA,NA
QC6r4DY8,3087lxlj7ptluqx9bvztb5iuvan0fr,32utubmz7k9dxuk30s6o2sdrelkvbt,QC6r4DY8,2020-0188,2021-10-31,10:24:35,12:14:26,NA,incomplete,false,true,NA,NA,2,6,NA,yellow,m_l_037.jpg,NA,NA,NA,NA,NA,unpleasant,pleasant,NA,NA,NA,NA,NA,right,1806.09999996424,true,NA,NA,NA,NA,NA,NA,NA,NA
QC6r4DY8,3087lxlj7ptluqx9bvztb5iuvan0fr,32utubmz7k9dxuk30s6o2sdrelkvbt,QC6r4DY8,2020-0188,2021-10-31,10:24:35,12:14:26,NA,incomplete,false,true,NA,NA,2,7,NA,yellow,n_s_052.jpg,NA,NA,NA,NA,NA,unpleasant,pleasant,NA,NA,NA,NA,NA,right,1826.19999998808,true,NA,NA,NA,NA,NA,NA,NA,NA
QC6r4DY8,3087lxlj7ptluqx9bvztb5iuvan0fr,32utubmz7k9dxuk30s6o2sdrelkvbt,QC6r4DY8,2020-0188,2021-10-31,10:24:35,12:14:26,NA,incomplete,false,true,NA,NA,2,8,NA,yellow,n_l_052.jpg,NA,NA,NA,NA,NA,pleasant,unpleasant,NA,NA,NA,NA,NA,right,2118.80000001192,true,NA,NA,NA,NA,NA,NA,NA,NA
QC6r4DY8,3087lxlj7ptluqx9bvztb5iuvan0fr,32utubmz7k9dxuk30s6o2sdrelkvbt,QC6r4DY8,2020-0188,2021-10-31,10:24:35,12:14:26,NA,incomplete,false,true,NA,NA,2,9,NA,yellow,m_l_005.jpg,NA,NA,NA,NA,NA,unpleasant,pleasant,NA,NA,NA,NA,NA,right,1770.80000001192,true,NA,NA,NA,NA,NA,NA,NA,NA
QC6r4DY8,3087lxlj7ptluqx9bvztb5iuvan0fr,32utubmz7k9dxuk30s6o2sdrelkvbt,QC6r4DY8,2020-0188,2021-10-31,10:24:35,12:14:26,NA,incomplete,false,true,NA,NA,2,10,NA,yellow,m_s_085.jpg,NA,NA,NA,NA,NA,pleasant,unpleasant,NA,NA,NA,NA,NA,left,2302.90000003576,true,NA,NA,NA,NA,NA,NA,NA,NA
QC6r4DY8,3087lxlj7ptluqx9bvztb5iuvan0fr,32utubmz7k9dxuk30s6o2sdrelkvbt,QC6r4DY8,2020-0188,2021-10-31,10:24:35,12:14:26,NA,incomplete,false,true,NA,NA,2,11,NA,yellow,m_l_083.jpg,NA,NA,NA,NA,NA,unpleasant,pleasant,NA,NA,NA,NA,NA,right,1803.09999996424,true,NA,NA,NA,NA,NA,NA,NA,NA
QC6r4DY8,3087lxlj7ptluqx9bvztb5iuvan0fr,32utubmz7k9dxuk30s6o2sdrelkvbt,QC6r4DY8,2020-0188,2021-10-31,10:24:35,12:14:26,NA,incomplete,false,true,NA,NA,2,12,NA,black,m_l_061.jpg,NA,NA,NA,NA,NA,unpleasant,pleasant,NA,NA,NA,NA,NA,right,1486.90000003576,true,NA,NA,NA,NA,NA,NA,NA,NA
QC6r4DY8,3087lxlj7ptluqx9bvztb5iuvan0fr,32utubmz7k9dxuk30s6o2sdrelkvbt,QC6r4DY8,2020-0188,2021-10-31,10:24:35,12:14:26,NA,incomplete,false,true,NA,NA,2,13,NA,black,m_s_062.jpg,NA,NA,NA,NA,NA,pleasant,unpleasant,NA,NA,NA,NA,NA,left,962.700000047684,true,NA,NA,NA,NA,NA,NA,NA,NA
QC6r4DY8,3087lxlj7ptluqx9bvztb5iuvan0fr,32utubmz7k9dxuk30s6o2sdrelkvbt,QC6r4DY8,2020-0188,2021-10-31,10:24:35,12:14:26,NA,incomplete,false,true,NA,NA,2,14,NA,black,n_s_109.jpg,NA,NA,NA,NA,NA,unpleasant,pleasant,NA,NA,NA,NA,NA,left,1447.40000003576,true,NA,NA,NA,NA,NA,NA,NA,NA
QC6r4DY8,3087lxlj7ptluqx9bvztb5iuvan0fr,32utubmz7k9dxuk30s6o2sdrelkvbt,QC6r4DY8,2020-0188,2021-10-31,10:24:35,12:14:26,NA,incomplete,false,true,NA,NA,2,15,NA,black,m_s_071.jpg,NA,NA,NA,NA,NA,pleasant,unpleasant,NA,NA,NA,NA,NA,left,1412.30000001192,true,NA,NA,NA,NA,NA,NA,NA,NA
QC6r4DY8,3087lxlj7ptluqx9bvztb5iuvan0fr,32utubmz7k9dxuk30s6o2sdrelkvbt,QC6r4DY8,2020-0188,2021-10-31,10:24:35,12:14:26,NA,incomplete,false,true,NA,NA,2,16,NA,black,m_s_041.jpg,NA,NA,NA,NA,NA,pleasant,unpleasant,NA,NA,NA,NA,NA,left,2016.80000001192,true,NA,NA,NA,NA,NA,NA,NA,NA
QC6r4DY8,3087lxlj7ptluqx9bvztb5iuvan0fr,32utubmz7k9dxuk30s6o2sdrelkvbt,QC6r4DY8,2020-0188,2021-10-31,10:24:35,12:14:26,NA,incomplete,false,true,NA,NA,2,17,NA,black,m_l_045.jpg,NA,NA,NA,NA,NA,unpleasant,pleasant,NA,NA,NA,NA,NA,right,1773.60000002384,true,NA,NA,NA,NA,NA,NA,NA,NA
QC6r4DY8,3087lxlj7ptluqx9bvztb5iuvan0fr,32utubmz7k9dxuk30s6o2sdrelkvbt,QC6r4DY8,2020-0188,2021-10-31,10:24:35,12:14:26,NA,incomplete,false,true,NA,NA,2,18,NA,brown,m_l_108.jpg,NA,NA,NA,NA,NA,pleasant,unpleasant,NA,NA,NA,NA,NA,left,2105.10000002384,true,NA,NA,NA,NA,NA,NA,NA,NA
QC6r4DY8,3087lxlj7ptluqx9bvztb5iuvan0fr,32utubmz7k9dxuk30s6o2sdrelkvbt,QC6r4DY8,2020-0188,2021-10-31,10:24:35,12:14:26,NA,incomplete,false,true,NA,NA,2,19,NA,brown,m_l_033.jpg,NA,NA,NA,NA,NA,pleasant,unpleasant,NA,NA,NA,NA,NA,left,2293.40000003576,true,NA,NA,NA,NA,NA,NA,NA,NA
QC6r4DY8,3087lxlj7ptluqx9bvztb5iuvan0fr,32utubmz7k9dxuk30s6o2sdrelkvbt,QC6r4DY8,2020-0188,2021-10-31,10:24:35,12:14:26,NA,incomplete,false,true,NA,NA,2,20,NA,brown,m_l_034.jpg,NA,NA,NA,NA,NA,unpleasant,pleasant,NA,NA,NA,NA,NA,right,1266.29999995232,true,NA,NA,NA,NA,NA,NA,NA,NA
QC6r4DY8,3087lxlj7ptluqx9bvztb5iuvan0fr,32utubmz7k9dxuk30s6o2sdrelkvbt,QC6r4DY8,2020-0188,2021-10-31,10:24:35,12:14:26,NA,incomplete,false,true,NA,NA,2,21,NA,brown,m_l_084.jpg,NA,NA,NA,NA,NA,pleasant,unpleasant,NA,NA,NA,NA,NA,left,1702.70000004768,true,NA,NA,NA,NA,NA,NA,NA,NA
QC6r4DY8,3087lxlj7ptluqx9bvztb5iuvan0fr,32utubmz7k9dxuk30s6o2sdrelkvbt,QC6r4DY8,2020-0188,2021-10-31,10:24:35,12:14:26,NA,incomplete,false,true,NA,NA,2,22,NA,brown,m_s_008.jpg,NA,NA,NA,NA,NA,unpleasant,pleasant,NA,NA,NA,NA,NA,right,1810.80000001192,true,NA,NA,NA,NA,NA,NA,NA,NA
QC6r4DY8,3087lxlj7ptluqx9bvztb5iuvan0fr,32utubmz7k9dxuk30s6o2sdrelkvbt,QC6r4DY8,2020-0188,2021-10-31,10:24:35,12:14:26,NA,incomplete,false,true,NA,NA,2,23,NA,brown,m_l_058.jpg,NA,NA,NA,NA,NA,pleasant,unpleasant,NA,NA,NA,NA,NA,left,2391.39999997616,true,NA,NA,NA,NA,NA,NA,NA,NA
QC6r4DY8,3087lxlj7ptluqx9bvztb5iuvan0fr,32utubmz7k9dxuk30s6o2sdrelkvbt,QC6r4DY8,2020-0188,2021-10-31,10:24:35,12:14:26,NA,incomplete,false,true,NA,NA,2,24,NA,green,m_s_052.jpg,NA,NA,NA,NA,NA,pleasant,unpleasant,NA,NA,NA,NA,NA,left,1443.69999998808,true,NA,NA,NA,NA,NA,NA,NA,NA
QC6r4DY8,3087lxlj7ptluqx9bvztb5iuvan0fr,32utubmz7k9dxuk30s6o2sdrelkvbt,QC6r4DY8,2020-0188,2021-10-31,10:24:35,12:14:26,NA,incomplete,false,true,NA,NA,2,25,NA,green,m_l_053.jpg,NA,NA,NA,NA,NA,pleasant,unpleasant,NA,NA,NA,NA,NA,left,1904.10000002384,true,NA,NA,NA,NA,NA,NA,NA,NA
QC6r4DY8,3087lxlj7ptluqx9bvztb5iuvan0fr,32utubmz7k9dxuk30s6o2sdrelkvbt,QC6r4DY8,2020-0188,2021-10-31,10:24:35,12:14:26,NA,incomplete,false,true,NA,NA,2,26,NA,green,m_l_073.jpg,NA,NA,NA,NA,NA,pleasant,unpleasant,NA,NA,NA,NA,NA,left,1476.19999998808,true,NA,NA,NA,NA,NA,NA,NA,NA
QC6r4DY8,3087lxlj7ptluqx9bvztb5iuvan0fr,32utubmz7k9dxuk30s6o2sdrelkvbt,QC6r4DY8,2020-0188,2021-10-31,10:24:35,12:14:26,NA,incomplete,false,true,NA,NA,2,27,NA,green,m_l_001.jpg,NA,NA,NA,NA,NA,pleasant,unpleasant,NA,NA,NA,NA,NA,left,1496.5,true,NA,NA,NA,NA,NA,NA,NA,NA
QC6r4DY8,3087lxlj7ptluqx9bvztb5iuvan0fr,32utubmz7k9dxuk30s6o2sdrelkvbt,QC6r4DY8,2020-0188,2021-10-31,10:24:35,12:14:26,NA,incomplete,false,true,NA,NA,2,28,NA,green,n_l_049.jpg,NA,NA,NA,NA,NA,pleasant,unpleasant,NA,NA,NA,NA,NA,left,1477.5,true,NA,NA,NA,NA,NA,NA,NA,NA
QC6r4DY8,3087lxlj7ptluqx9bvztb5iuvan0fr,32utubmz7k9dxuk30s6o2sdrelkvbt,QC6r4DY8,2020-0188,2021-10-31,10:24:35,12:14:26,NA,incomplete,false,true,NA,NA,2,29,NA,green,n_s_034.jpg,NA,NA,NA,NA,NA,unpleasant,pleasant,NA,NA,NA,NA,NA,right,1618.19999998808,true,NA,NA,NA,NA,NA,NA,NA,NA
QC6r4DY8,3087lxlj7ptluqx9bvztb5iuvan0fr,32utubmz7k9dxuk30s6o2sdrelkvbt,QC6r4DY8,2020-0188,2021-10-31,10:24:35,12:14:26,NA,incomplete,false,true,NA,NA,2,30,NA,white,m_s_117.jpg,NA,NA,NA,NA,NA,pleasant,unpleasant,NA,NA,NA,NA,NA,left,2206.30000001192,true,NA,NA,NA,NA,NA,NA,NA,NA
QC6r4DY8,3087lxlj7ptluqx9bvztb5iuvan0fr,32utubmz7k9dxuk30s6o2sdrelkvbt,QC6r4DY8,2020-0188,2021-10-31,10:24:35,12:14:26,NA,incomplete,false,true,NA,NA,2,31,NA,white,m_l_014.jpg,NA,NA,NA,NA,NA,pleasant,unpleasant,NA,NA,NA,NA,NA,left,1578.30000001192,true,NA,NA,NA,NA,NA,NA,NA,NA
QC6r4DY8,3087lxlj7ptluqx9bvztb5iuvan0fr,32utubmz7k9dxuk30s6o2sdrelkvbt,QC6r4DY8,2020-0188,2021-10-31,10:24:35,12:14:26,NA,incomplete,false,true,NA,NA,2,32,NA,white,m_l_072.jpg,NA,NA,NA,NA,NA,unpleasant,pleasant,NA,NA,NA,NA,NA,right,1102.70000004768,true,NA,NA,NA,NA,NA,NA,NA,NA
QC6r4DY8,3087lxlj7ptluqx9bvztb5iuvan0fr,32utubmz7k9dxuk30s6o2sdrelkvbt,QC6r4DY8,2020-0188,2021-10-31,10:24:35,12:14:26,NA,incomplete,false,true,NA,NA,2,33,NA,white,n_s_058.jpg,NA,NA,NA,NA,NA,unpleasant,pleasant,NA,NA,NA,NA,NA,right,1474.70000004768,true,NA,NA,NA,NA,NA,NA,NA,NA
QC6r4DY8,3087lxlj7ptluqx9bvztb5iuvan0fr,32utubmz7k9dxuk30s6o2sdrelkvbt,QC6r4DY8,2020-0188,2021-10-31,10:24:35,12:14:26,NA,incomplete,false,true,NA,NA,2,34,NA,white,m_l_044.jpg,NA,NA,NA,NA,NA,unpleasant,pleasant,NA,NA,NA,NA,NA,right,1751.09999996424,true,NA,NA,NA,NA,NA,NA,NA,NA
QC6r4DY8,3087lxlj7ptluqx9bvztb5iuvan0fr,32utubmz7k9dxuk30s6o2sdrelkvbt,QC6r4DY8,2020-0188,2021-10-31,10:24:35,12:14:26,NA,incomplete,false,true,NA,NA,2,35,NA,white,n_l_067.jpg,NA,NA,NA,NA,NA,unpleasant,pleasant,NA,NA,NA,NA,NA,right,1346.70000004768,true,NA,NA,NA,NA,NA,NA,NA,NA
QC6r4DY8,3087lxlj7ptluqx9bvztb5iuvan0fr,32utubmz7k9dxuk30s6o2sdrelkvbt,QC6r4DY8,2020-0188,2021-10-31,10:24:35,12:14:26,NA,incomplete,false,NA,NA,true,2,0,NA,NA,NA,right,m_l_033.jpg,black,brown,NA,NA,NA,NA,NA,NA,NA,NA,NA,NaN,NA,4095.399999976158,right,1,NA,NA,NA,NA,NA
QC6r4DY8,3087lxlj7ptluqx9bvztb5iuvan0fr,32utubmz7k9dxuk30s6o2sdrelkvbt,QC6r4DY8,2020-0188,2021-10-31,10:24:35,12:14:26,NA,incomplete,false,NA,NA,true,2,1,NA,NA,NA,left,m_l_014.jpg,white,green,NA,NA,NA,NA,NA,NA,NA,NA,NA,NaN,NA,1919.5,right,0,NA,NA,NA,NA,NA
QC6r4DY8,3087lxlj7ptluqx9bvztb5iuvan0fr,32utubmz7k9dxuk30s6o2sdrelkvbt,QC6r4DY8,2020-0188,2021-10-31,10:24:35,12:14:26,NA,incomplete,false,NA,NA,true,2,2,NA,NA,NA,right,m_s_008.jpg,green,brown,NA,NA,NA,NA,NA,NA,NA,NA,NA,NaN,NA,3399.199999988079,right,1,NA,NA,NA,NA,NA
QC6r4DY8,3087lxlj7ptluqx9bvztb5iuvan0fr,32utubmz7k9dxuk30s6o2sdrelkvbt,QC6r4DY8,2020-0188,2021-10-31,10:24:35,12:14:26,NA,incomplete,false,NA,NA,true,2,3,NA,NA,NA,left,m_l_073.jpg,green,white,NA,NA,NA,NA,NA,NA,NA,NA,NA,NaN,NA,4191.399999976158,left,1,NA,NA,NA,NA,NA
QC6r4DY8,3087lxlj7ptluqx9bvztb5iuvan0fr,32utubmz7k9dxuk30s6o2sdrelkvbt,QC6r4DY8,2020-0188,2021-10-31,10:24:35,12:14:26,NA,incomplete,false,NA,NA,true,2,4,NA,NA,NA,right,n_s_109.jpg,yellow,black,NA,NA,NA,NA,NA,NA,NA,NA,NA,NaN,NA,2975.5,right,1,NA,NA,NA,NA,NA
QC6r4DY8,3087lxlj7ptluqx9bvztb5iuvan0fr,32utubmz7k9dxuk30s6o2sdrelkvbt,QC6r4DY8,2020-0188,2021-10-31,10:24:35,12:14:26,NA,incomplete,false,NA,NA,true,2,5,NA,NA,NA,right,m_l_072.jpg,green,white,NA,NA,NA,NA,NA,NA,NA,NA,NA,NaN,NA,2567.600000023842,right,1,NA,NA,NA,NA,NA
QC6r4DY8,3087lxlj7ptluqx9bvztb5iuvan0fr,32utubmz7k9dxuk30s6o2sdrelkvbt,QC6r4DY8,2020-0188,2021-10-31,10:24:35,12:14:26,NA,incomplete,false,NA,NA,true,2,6,NA,NA,NA,left,m_s_062.jpg,black,yellow,NA,NA,NA,NA,NA,NA,NA,NA,NA,NaN,NA,4463.099999964237,right,0,NA,NA,NA,NA,NA
QC6r4DY8,3087lxlj7ptluqx9bvztb5iuvan0fr,32utubmz7k9dxuk30s6o2sdrelkvbt,QC6r4DY8,2020-0188,2021-10-31,10:24:35,12:14:26,NA,incomplete,false,NA,NA,true,2,7,NA,NA,NA,right,n_s_034.jpg,white,green,NA,NA,NA,NA,NA,NA,NA,NA,NA,NaN,NA,2815.2999999523163,right,1,NA,NA,NA,NA,NA
QC6r4DY8,3087lxlj7ptluqx9bvztb5iuvan0fr,32utubmz7k9dxuk30s6o2sdrelkvbt,QC6r4DY8,2020-0188,2021-10-31,10:24:35,12:14:26,NA,incomplete,false,NA,NA,true,2,8,NA,NA,NA,right,m_l_083.jpg,gray,yellow,NA,NA,NA,NA,NA,NA,NA,NA,NA,NaN,NA,3159.2999999523163,right,1,NA,NA,NA,NA,NA
QC6r4DY8,3087lxlj7ptluqx9bvztb5iuvan0fr,32utubmz7k9dxuk30s6o2sdrelkvbt,QC6r4DY8,2020-0188,2021-10-31,10:24:35,12:14:26,NA,incomplete,false,NA,NA,true,2,9,NA,NA,NA,right,n_l_067.jpg,green,white,NA,NA,NA,NA,NA,NA,NA,NA,NA,NaN,NA,3063.199999988079,right,1,NA,NA,NA,NA,NA
QC6r4DY8,3087lxlj7ptluqx9bvztb5iuvan0fr,32utubmz7k9dxuk30s6o2sdrelkvbt,QC6r4DY8,2020-0188,2021-10-31,10:24:35,12:14:26,NA,incomplete,false,NA,NA,true,2,10,NA,NA,NA,right,m_s_041.jpg,brown,black,NA,NA,NA,NA,NA,NA,NA,NA,NA,NaN,NA,2615.2999999523163,right,1,NA,NA,NA,NA,NA
QC6r4DY8,3087lxlj7ptluqx9bvztb5iuvan0fr,32utubmz7k9dxuk30s6o2sdrelkvbt,QC6r4DY8,2020-0188,2021-10-31,10:24:35,12:14:26,NA,incomplete,false,NA,NA,true,2,11,NA,NA,NA,left,m_l_087.jpg,gray,yellow,NA,NA,NA,NA,NA,NA,NA,NA,NA,NaN,NA,2183.300000011921,right,0,NA,NA,NA,NA,NA
QC6r4DY8,3087lxlj7ptluqx9bvztb5iuvan0fr,32utubmz7k9dxuk30s6o2sdrelkvbt,QC6r4DY8,2020-0188,2021-10-31,10:24:35,12:14:26,NA,incomplete,false,NA,NA,true,2,12,NA,NA,NA,left,n_l_052.jpg,yellow,black,NA,NA,NA,NA,NA,NA,NA,NA,NA,NaN,NA,2599.199999988079,right,0,NA,NA,NA,NA,NA
QC6r4DY8,3087lxlj7ptluqx9bvztb5iuvan0fr,32utubmz7k9dxuk30s6o2sdrelkvbt,QC6r4DY8,2020-0188,2021-10-31,10:24:35,12:14:26,NA,incomplete,false,NA,NA,true,2,13,NA,NA,NA,right,m_l_045.jpg,brown,black,NA,NA,NA,NA,NA,NA,NA,NA,NA,NaN,NA,4343.300000011921,right,1,NA,NA,NA,NA,NA
QC6r4DY8,3087lxlj7ptluqx9bvztb5iuvan0fr,32utubmz7k9dxuk30s6o2sdrelkvbt,QC6r4DY8,2020-0188,2021-10-31,10:24:35,12:14:26,NA,incomplete,false,NA,NA,true,2,14,NA,NA,NA,left,m_s_085.jpg,yellow,black,NA,NA,NA,NA,NA,NA,NA,NA,NA,NaN,NA,1823.3999999761581,left,1,NA,NA,NA,NA,NA
QC6r4DY8,3087lxlj7ptluqx9bvztb5iuvan0fr,32utubmz7k9dxuk30s6o2sdrelkvbt,QC6r4DY8,2020-0188,2021-10-31,10:24:35,12:14:26,NA,incomplete,false,NA,NA,true,2,15,NA,NA,NA,right,n_s_052.jpg,black,yellow,NA,NA,NA,NA,NA,NA,NA,NA,NA,NaN,NA,2367.199999988079,right,1,NA,NA,NA,NA,NA
QC6r4DY8,3087lxlj7ptluqx9bvztb5iuvan0fr,32utubmz7k9dxuk30s6o2sdrelkvbt,QC6r4DY8,2020-0188,2021-10-31,10:24:35,12:14:26,NA,incomplete,false,NA,NA,true,2,16,NA,NA,NA,right,m_l_058.jpg,green,brown,NA,NA,NA,NA,NA,NA,NA,NA,NA,NaN,NA,9919.5,left,0,NA,NA,NA,NA,NA
QC6r4DY8,3087lxlj7ptluqx9bvztb5iuvan0fr,32utubmz7k9dxuk30s6o2sdrelkvbt,QC6r4DY8,2020-0188,2021-10-31,10:24:35,12:14:26,NA,incomplete,false,NA,NA,true,2,17,NA,NA,NA,left,n_l_072.jpg,gray,yellow,NA,NA,NA,NA,NA,NA,NA,NA,NA,NaN,NA,1935.3999999761581,left,1,NA,NA,NA,NA,NA
QC6r4DY8,3087lxlj7ptluqx9bvztb5iuvan0fr,32utubmz7k9dxuk30s6o2sdrelkvbt,QC6r4DY8,2020-0188,2021-10-31,10:24:35,12:14:26,NA,incomplete,false,NA,NA,true,2,18,NA,NA,NA,left,n_l_049.jpg,green,white,NA,NA,NA,NA,NA,NA,NA,NA,NA,NaN,NA,1727.0999999642372,right,0,NA,NA,NA,NA,NA
QC6r4DY8,3087lxlj7ptluqx9bvztb5iuvan0fr,32utubmz7k9dxuk30s6o2sdrelkvbt,QC6r4DY8,2020-0188,2021-10-31,10:24:35,12:14:26,NA,incomplete,false,NA,NA,true,2,19,NA,NA,NA,right,m_l_034.jpg,black,brown,NA,NA,NA,NA,NA,NA,NA,NA,NA,NaN,NA,2655.5,right,1,NA,NA,NA,NA,NA
QC6r4DY8,3087lxlj7ptluqx9bvztb5iuvan0fr,32utubmz7k9dxuk30s6o2sdrelkvbt,QC6r4DY8,2020-0188,2021-10-31,10:24:35,12:14:26,NA,incomplete,false,NA,NA,true,2,20,NA,NA,NA,left,m_l_053.jpg,green,brown,NA,NA,NA,NA,NA,NA,NA,NA,NA,NaN,NA,3823.199999988079,right,0,NA,NA,NA,NA,NA
QC6r4DY8,3087lxlj7ptluqx9bvztb5iuvan0fr,32utubmz7k9dxuk30s6o2sdrelkvbt,QC6r4DY8,2020-0188,2021-10-31,10:24:35,12:14:26,NA,incomplete,false,NA,NA,true,2,21,NA,NA,NA,right,m_l_100.jpg,yellow,gray,NA,NA,NA,NA,NA,NA,NA,NA,NA,NaN,NA,2991.399999976158,right,1,NA,NA,NA,NA,NA
QC6r4DY8,3087lxlj7ptluqx9bvztb5iuvan0fr,32utubmz7k9dxuk30s6o2sdrelkvbt,QC6r4DY8,2020-0188,2021-10-31,10:24:35,12:14:26,NA,incomplete,false,NA,true,NA,2,0,NA,NA,NA,right,NA,NA,NA,present,NA,NA,m_l_034.jpg,brown,m_s_041.jpg,black,between,NA,NaN,NA,NA,NA,NA,left,4054.800000011921,0,2,2071.300000011921
QC6r4DY8,3087lxlj7ptluqx9bvztb5iuvan0fr,32utubmz7k9dxuk30s6o2sdrelkvbt,QC6r4DY8,2020-0188,2021-10-31,10:24:35,12:14:26,NA,incomplete,false,NA,true,NA,2,1,NA,NA,NA,left,NA,NA,NA,present,NA,NA,m_s_008.jpg,brown,m_l_073.jpg,green,between,NA,NaN,NA,NA,NA,NA,left,2254.800000011921,1,3,3439.100000023842
QC6r4DY8,3087lxlj7ptluqx9bvztb5iuvan0fr,32utubmz7k9dxuk30s6o2sdrelkvbt,QC6r4DY8,2020-0188,2021-10-31,10:24:35,12:14:26,NA,incomplete,false,NA,true,NA,2,2,NA,NA,NA,right,NA,NA,NA,present,NA,NA,m_l_058.jpg,brown,m_l_033.jpg,brown,within,NA,NaN,NA,NA,NA,NA,left,3127.100000023842,0,1,2231
QC6r4DY8,3087lxlj7ptluqx9bvztb5iuvan0fr,32utubmz7k9dxuk30s6o2sdrelkvbt,QC6r4DY8,2020-0188,2021-10-31,10:24:35,12:14:26,NA,incomplete,false,NA,true,NA,2,3,NA,NA,NA,right,NA,NA,NA,present,NA,NA,n_l_067.jpg,white,m_l_014.jpg,white,within,NA,NaN,NA,NA,NA,NA,left,3942.899999976158,0,1,1646.8999999761581
QC6r4DY8,3087lxlj7ptluqx9bvztb5iuvan0fr,32utubmz7k9dxuk30s6o2sdrelkvbt,QC6r4DY8,2020-0188,2021-10-31,10:24:35,12:14:26,NA,incomplete,false,NA,true,NA,2,4,NA,NA,NA,right,NA,NA,NA,present,NA,NA,m_l_083.jpg,yellow,n_s_052.jpg,yellow,within,NA,NaN,NA,NA,NA,NA,right,1718.8999999761581,1,0,2479
QC6r4DY8,3087lxlj7ptluqx9bvztb5iuvan0fr,32utubmz7k9dxuk30s6o2sdrelkvbt,QC6r4DY8,2020-0188,2021-10-31,10:24:35,12:14:26,NA,incomplete,false,NA,true,NA,2,5,NA,NA,NA,left,NA,NA,NA,present,NA,NA,n_l_072.jpg,gray,n_l_052.jpg,yellow,between,NA,NaN,NA,NA,NA,NA,left,3807.600000023842,1,2,2023.2999999523163
QC6r4DY8,3087lxlj7ptluqx9bvztb5iuvan0fr,32utubmz7k9dxuk30s6o2sdrelkvbt,QC6r4DY8,2020-0188,2021-10-31,10:24:35,12:14:26,NA,incomplete,false,NA,true,NA,2,6,NA,NA,NA,right,NA,NA,NA,present,NA,NA,m_l_045.jpg,black,m_s_062.jpg,black,within,NA,NaN,NA,NA,NA,NA,right,4783.399999976158,1,1,4271.199999988079
QC6r4DY8,3087lxlj7ptluqx9bvztb5iuvan0fr,32utubmz7k9dxuk30s6o2sdrelkvbt,QC6r4DY8,2020-0188,2021-10-31,10:24:35,12:14:26,NA,incomplete,false,NA,true,NA,2,7,NA,NA,NA,left,NA,NA,NA,present,NA,NA,m_s_085.jpg,yellow,n_s_109.jpg,black,between,NA,NaN,NA,NA,NA,NA,left,3279,1,3,5535.300000011921
QC6r4DY8,3087lxlj7ptluqx9bvztb5iuvan0fr,32utubmz7k9dxuk30s6o2sdrelkvbt,QC6r4DY8,2020-0188,2021-10-31,10:24:35,12:14:26,NA,incomplete,false,NA,true,NA,2,8,NA,NA,NA,left,NA,NA,NA,present,NA,NA,n_l_049.jpg,green,m_l_072.jpg,white,between,NA,NaN,NA,NA,NA,NA,left,2207.5,1,2,2975.2999999523163
QC6r4DY8,3087lxlj7ptluqx9bvztb5iuvan0fr,32utubmz7k9dxuk30s6o2sdrelkvbt,QC6r4DY8,2020-0188,2021-10-31,10:24:35,12:14:26,NA,incomplete,false,NA,true,NA,2,9,NA,NA,NA,right,NA,NA,NA,present,NA,NA,n_s_034.jpg,green,m_l_053.jpg,green,within,NA,NaN,NA,NA,NA,NA,right,2895.399999976158,1,1,1863.199999988079
QC6r4DY8,3087lxlj7ptluqx9bvztb5iuvan0fr,32utubmz7k9dxuk30s6o2sdrelkvbt,QC6r4DY8,2020-0188,2021-10-31,10:24:35,12:14:26,NA,incomplete,false,NA,true,NA,2,10,NA,NA,NA,right,NA,NA,NA,present,NA,NA,m_l_087.jpg,gray,m_l_100.jpg,gray,within,NA,NaN,NA,NA,NA,NA,right,2839,1,1,1759.0999999642372
QC6r4DY8,3087lxlj7ptluqx9bvztb5iuvan0fr,32utubmz7k9dxuk30s6o2sdrelkvbt,QC6r4DY8,2020-0188,2021-10-31,10:24:35,12:14:26,NA,incomplete,false,true,NA,NA,3,0,NA,yellow,m_s_017.jpg,NA,NA,NA,NA,NA,unpleasant,pleasant,NA,NA,NA,NA,NA,right,1835,true,NA,NA,NA,NA,NA,NA,NA,NA
QC6r4DY8,3087lxlj7ptluqx9bvztb5iuvan0fr,32utubmz7k9dxuk30s6o2sdrelkvbt,QC6r4DY8,2020-0188,2021-10-31,10:24:35,12:14:26,NA,incomplete,false,true,NA,NA,3,1,NA,yellow,n_l_010.jpg,NA,NA,NA,NA,NA,unpleasant,pleasant,NA,NA,NA,NA,NA,right,1982.70000004768,true,NA,NA,NA,NA,NA,NA,NA,NA
QC6r4DY8,3087lxlj7ptluqx9bvztb5iuvan0fr,32utubmz7k9dxuk30s6o2sdrelkvbt,QC6r4DY8,2020-0188,2021-10-31,10:24:35,12:14:26,NA,incomplete,false,true,NA,NA,3,2,NA,yellow,n_s_095.jpg,NA,NA,NA,NA,NA,pleasant,unpleasant,NA,NA,NA,NA,NA,left,1619.79999995232,true,NA,NA,NA,NA,NA,NA,NA,NA
QC6r4DY8,3087lxlj7ptluqx9bvztb5iuvan0fr,32utubmz7k9dxuk30s6o2sdrelkvbt,QC6r4DY8,2020-0188,2021-10-31,10:24:35,12:14:26,NA,incomplete,false,true,NA,NA,3,3,NA,yellow,m_l_107.jpg,NA,NA,NA,NA,NA,unpleasant,pleasant,NA,NA,NA,NA,NA,right,1263.59999996424,true,NA,NA,NA,NA,NA,NA,NA,NA
QC6r4DY8,3087lxlj7ptluqx9bvztb5iuvan0fr,32utubmz7k9dxuk30s6o2sdrelkvbt,QC6r4DY8,2020-0188,2021-10-31,10:24:35,12:14:26,NA,incomplete,false,true,NA,NA,3,4,NA,yellow,n_s_083.jpg,NA,NA,NA,NA,NA,pleasant,unpleasant,NA,NA,NA,NA,NA,left,1900.59999996424,true,NA,NA,NA,NA,NA,NA,NA,NA
QC6r4DY8,3087lxlj7ptluqx9bvztb5iuvan0fr,32utubmz7k9dxuk30s6o2sdrelkvbt,QC6r4DY8,2020-0188,2021-10-31,10:24:35,12:14:26,NA,incomplete,false,true,NA,NA,3,5,NA,yellow,m_s_001.jpg,NA,NA,NA,NA,NA,pleasant,unpleasant,NA,NA,NA,NA,NA,left,1680.5,true,NA,NA,NA,NA,NA,NA,NA,NA
QC6r4DY8,3087lxlj7ptluqx9bvztb5iuvan0fr,32utubmz7k9dxuk30s6o2sdrelkvbt,QC6r4DY8,2020-0188,2021-10-31,10:24:35,12:14:26,NA,incomplete,false,true,NA,NA,3,6,NA,red,m_l_079.jpg,NA,NA,NA,NA,NA,pleasant,unpleasant,NA,NA,NA,NA,NA,left,1621.10000002384,true,NA,NA,NA,NA,NA,NA,NA,NA
QC6r4DY8,3087lxlj7ptluqx9bvztb5iuvan0fr,32utubmz7k9dxuk30s6o2sdrelkvbt,QC6r4DY8,2020-0188,2021-10-31,10:24:35,12:14:26,NA,incomplete,false,true,NA,NA,3,7,NA,red,n_s_097.jpg,NA,NA,NA,NA,NA,pleasant,unpleasant,NA,NA,NA,NA,NA,left,1241,true,NA,NA,NA,NA,NA,NA,NA,NA
QC6r4DY8,3087lxlj7ptluqx9bvztb5iuvan0fr,32utubmz7k9dxuk30s6o2sdrelkvbt,QC6r4DY8,2020-0188,2021-10-31,10:24:35,12:14:26,NA,incomplete,false,true,NA,NA,3,8,NA,red,n_l_086.jpg,NA,NA,NA,NA,NA,pleasant,unpleasant,NA,NA,NA,NA,NA,right,1981.09999996424,true,NA,NA,NA,NA,NA,NA,NA,NA
QC6r4DY8,3087lxlj7ptluqx9bvztb5iuvan0fr,32utubmz7k9dxuk30s6o2sdrelkvbt,QC6r4DY8,2020-0188,2021-10-31,10:24:35,12:14:26,NA,incomplete,false,true,NA,NA,3,9,NA,red,n_l_011.jpg,NA,NA,NA,NA,NA,unpleasant,pleasant,NA,NA,NA,NA,NA,left,1881.40000003576,true,NA,NA,NA,NA,NA,NA,NA,NA
QC6r4DY8,3087lxlj7ptluqx9bvztb5iuvan0fr,32utubmz7k9dxuk30s6o2sdrelkvbt,QC6r4DY8,2020-0188,2021-10-31,10:24:35,12:14:26,NA,incomplete,false,true,NA,NA,3,10,NA,red,n_s_091.jpg,NA,NA,NA,NA,NA,pleasant,unpleasant,NA,NA,NA,NA,NA,right,1582.19999998808,true,NA,NA,NA,NA,NA,NA,NA,NA
QC6r4DY8,3087lxlj7ptluqx9bvztb5iuvan0fr,32utubmz7k9dxuk30s6o2sdrelkvbt,QC6r4DY8,2020-0188,2021-10-31,10:24:35,12:14:26,NA,incomplete,false,true,NA,NA,3,11,NA,red,n_l_077.jpg,NA,NA,NA,NA,NA,pleasant,unpleasant,NA,NA,NA,NA,NA,right,1419.10000002384,true,NA,NA,NA,NA,NA,NA,NA,NA
QC6r4DY8,3087lxlj7ptluqx9bvztb5iuvan0fr,32utubmz7k9dxuk30s6o2sdrelkvbt,QC6r4DY8,2020-0188,2021-10-31,10:24:35,12:14:26,NA,incomplete,false,true,NA,NA,3,12,NA,green,m_s_070.jpg,NA,NA,NA,NA,NA,unpleasant,pleasant,NA,NA,NA,NA,NA,right,1559.10000002384,true,NA,NA,NA,NA,NA,NA,NA,NA
QC6r4DY8,3087lxlj7ptluqx9bvztb5iuvan0fr,32utubmz7k9dxuk30s6o2sdrelkvbt,QC6r4DY8,2020-0188,2021-10-31,10:24:35,12:14:26,NA,incomplete,false,true,NA,NA,3,13,NA,green,n_s_088.jpg,NA,NA,NA,NA,NA,pleasant,unpleasant,NA,NA,NA,NA,NA,left,1827.59999996424,true,NA,NA,NA,NA,NA,NA,NA,NA
QC6r4DY8,3087lxlj7ptluqx9bvztb5iuvan0fr,32utubmz7k9dxuk30s6o2sdrelkvbt,QC6r4DY8,2020-0188,2021-10-31,10:24:35,12:14:26,NA,incomplete,false,true,NA,NA,3,14,NA,green,m_l_036.jpg,NA,NA,NA,NA,NA,pleasant,unpleasant,NA,NA,NA,NA,NA,left,1760.60000002384,true,NA,NA,NA,NA,NA,NA,NA,NA
QC6r4DY8,3087lxlj7ptluqx9bvztb5iuvan0fr,32utubmz7k9dxuk30s6o2sdrelkvbt,QC6r4DY8,2020-0188,2021-10-31,10:24:35,12:14:26,NA,incomplete,false,true,NA,NA,3,15,NA,green,n_s_043.jpg,NA,NA,NA,NA,NA,pleasant,unpleasant,NA,NA,NA,NA,NA,left,924.899999976158,true,NA,NA,NA,NA,NA,NA,NA,NA
QC6r4DY8,3087lxlj7ptluqx9bvztb5iuvan0fr,32utubmz7k9dxuk30s6o2sdrelkvbt,QC6r4DY8,2020-0188,2021-10-31,10:24:35,12:14:26,NA,incomplete,false,true,NA,NA,3,16,NA,green,m_s_082.jpg,NA,NA,NA,NA,NA,pleasant,unpleasant,NA,NA,NA,NA,NA,left,1552.80000001192,true,NA,NA,NA,NA,NA,NA,NA,NA
QC6r4DY8,3087lxlj7ptluqx9bvztb5iuvan0fr,32utubmz7k9dxuk30s6o2sdrelkvbt,QC6r4DY8,2020-0188,2021-10-31,10:24:35,12:14:26,NA,incomplete,false,true,NA,NA,3,17,NA,green,n_s_040.jpg,NA,NA,NA,NA,NA,pleasant,unpleasant,NA,NA,NA,NA,NA,right,1205,true,NA,NA,NA,NA,NA,NA,NA,NA
QC6r4DY8,3087lxlj7ptluqx9bvztb5iuvan0fr,32utubmz7k9dxuk30s6o2sdrelkvbt,QC6r4DY8,2020-0188,2021-10-31,10:24:35,12:14:26,NA,incomplete,false,true,NA,NA,3,18,NA,black,m_s_074.jpg,NA,NA,NA,NA,NA,unpleasant,pleasant,NA,NA,NA,NA,NA,right,1793,true,NA,NA,NA,NA,NA,NA,NA,NA
QC6r4DY8,3087lxlj7ptluqx9bvztb5iuvan0fr,32utubmz7k9dxuk30s6o2sdrelkvbt,QC6r4DY8,2020-0188,2021-10-31,10:24:35,12:14:26,NA,incomplete,false,true,NA,NA,3,19,NA,black,n_l_030.jpg,NA,NA,NA,NA,NA,unpleasant,pleasant,NA,NA,NA,NA,NA,right,1597.40000003576,true,NA,NA,NA,NA,NA,NA,NA,NA
QC6r4DY8,3087lxlj7ptluqx9bvztb5iuvan0fr,32utubmz7k9dxuk30s6o2sdrelkvbt,QC6r4DY8,2020-0188,2021-10-31,10:24:35,12:14:26,NA,incomplete,false,true,NA,NA,3,20,NA,black,m_l_035.jpg,NA,NA,NA,NA,NA,unpleasant,pleasant,NA,NA,NA,NA,NA,right,1362.5,true,NA,NA,NA,NA,NA,NA,NA,NA
QC6r4DY8,3087lxlj7ptluqx9bvztb5iuvan0fr,32utubmz7k9dxuk30s6o2sdrelkvbt,QC6r4DY8,2020-0188,2021-10-31,10:24:35,12:14:26,NA,incomplete,false,true,NA,NA,3,21,NA,black,m_l_095.jpg,NA,NA,NA,NA,NA,pleasant,unpleasant,NA,NA,NA,NA,NA,left,1510.89999997616,true,NA,NA,NA,NA,NA,NA,NA,NA
QC6r4DY8,3087lxlj7ptluqx9bvztb5iuvan0fr,32utubmz7k9dxuk30s6o2sdrelkvbt,QC6r4DY8,2020-0188,2021-10-31,10:24:35,12:14:26,NA,incomplete,false,true,NA,NA,3,22,NA,black,m_s_083.jpg,NA,NA,NA,NA,NA,unpleasant,pleasant,NA,NA,NA,NA,NA,right,971.5,true,NA,NA,NA,NA,NA,NA,NA,NA
QC6r4DY8,3087lxlj7ptluqx9bvztb5iuvan0fr,32utubmz7k9dxuk30s6o2sdrelkvbt,QC6r4DY8,2020-0188,2021-10-31,10:24:35,12:14:26,NA,incomplete,false,true,NA,NA,3,23,NA,black,m_s_090.jpg,NA,NA,NA,NA,NA,pleasant,unpleasant,NA,NA,NA,NA,NA,left,1991.60000002384,true,NA,NA,NA,NA,NA,NA,NA,NA
QC6r4DY8,3087lxlj7ptluqx9bvztb5iuvan0fr,32utubmz7k9dxuk30s6o2sdrelkvbt,QC6r4DY8,2020-0188,2021-10-31,10:24:35,12:14:26,NA,incomplete,false,true,NA,NA,3,24,NA,gray,n_s_006.jpg,NA,NA,NA,NA,NA,pleasant,unpleasant,NA,NA,NA,NA,NA,left,1868.19999998808,true,NA,NA,NA,NA,NA,NA,NA,NA
QC6r4DY8,3087lxlj7ptluqx9bvztb5iuvan0fr,32utubmz7k9dxuk30s6o2sdrelkvbt,QC6r4DY8,2020-0188,2021-10-31,10:24:35,12:14:26,NA,incomplete,false,true,NA,NA,3,25,NA,gray,m_s_006.jpg,NA,NA,NA,NA,NA,unpleasant,pleasant,NA,NA,NA,NA,NA,right,2792.30000001192,true,NA,NA,NA,NA,NA,NA,NA,NA
QC6r4DY8,3087lxlj7ptluqx9bvztb5iuvan0fr,32utubmz7k9dxuk30s6o2sdrelkvbt,QC6r4DY8,2020-0188,2021-10-31,10:24:35,12:14:26,NA,incomplete,false,true,NA,NA,3,26,NA,gray,m_s_005.jpg,NA,NA,NA,NA,NA,pleasant,unpleasant,NA,NA,NA,NA,NA,left,2084.69999998808,true,NA,NA,NA,NA,NA,NA,NA,NA
QC6r4DY8,3087lxlj7ptluqx9bvztb5iuvan0fr,32utubmz7k9dxuk30s6o2sdrelkvbt,QC6r4DY8,2020-0188,2021-10-31,10:24:35,12:14:26,NA,incomplete,false,true,NA,NA,3,27,NA,gray,n_l_109.jpg,NA,NA,NA,NA,NA,pleasant,unpleasant,NA,NA,NA,NA,NA,right,1672.80000001192,true,NA,NA,NA,NA,NA,NA,NA,NA
QC6r4DY8,3087lxlj7ptluqx9bvztb5iuvan0fr,32utubmz7k9dxuk30s6o2sdrelkvbt,QC6r4DY8,2020-0188,2021-10-31,10:24:35,12:14:26,NA,incomplete,false,true,NA,NA,3,28,NA,gray,n_s_069.jpg,NA,NA,NA,NA,NA,unpleasant,pleasant,NA,NA,NA,NA,NA,right,1548.89999997616,true,NA,NA,NA,NA,NA,NA,NA,NA
QC6r4DY8,3087lxlj7ptluqx9bvztb5iuvan0fr,32utubmz7k9dxuk30s6o2sdrelkvbt,QC6r4DY8,2020-0188,2021-10-31,10:24:35,12:14:26,NA,incomplete,false,true,NA,NA,3,29,NA,gray,n_l_099.jpg,NA,NA,NA,NA,NA,pleasant,unpleasant,NA,NA,NA,NA,NA,right,1841.59999996424,true,NA,NA,NA,NA,NA,NA,NA,NA
QC6r4DY8,3087lxlj7ptluqx9bvztb5iuvan0fr,32utubmz7k9dxuk30s6o2sdrelkvbt,QC6r4DY8,2020-0188,2021-10-31,10:24:35,12:14:26,NA,incomplete,false,true,NA,NA,3,30,NA,purple,m_s_026.jpg,NA,NA,NA,NA,NA,pleasant,unpleasant,NA,NA,NA,NA,NA,left,2094.30000001192,true,NA,NA,NA,NA,NA,NA,NA,NA
QC6r4DY8,3087lxlj7ptluqx9bvztb5iuvan0fr,32utubmz7k9dxuk30s6o2sdrelkvbt,QC6r4DY8,2020-0188,2021-10-31,10:24:35,12:14:26,NA,incomplete,false,true,NA,NA,3,31,NA,purple,m_l_091.jpg,NA,NA,NA,NA,NA,unpleasant,pleasant,NA,NA,NA,NA,NA,right,2211,true,NA,NA,NA,NA,NA,NA,NA,NA
QC6r4DY8,3087lxlj7ptluqx9bvztb5iuvan0fr,32utubmz7k9dxuk30s6o2sdrelkvbt,QC6r4DY8,2020-0188,2021-10-31,10:24:35,12:14:26,NA,incomplete,false,true,NA,NA,3,32,NA,purple,n_l_111.jpg,NA,NA,NA,NA,NA,unpleasant,pleasant,NA,NA,NA,NA,NA,right,2719.29999995232,true,NA,NA,NA,NA,NA,NA,NA,NA
QC6r4DY8,3087lxlj7ptluqx9bvztb5iuvan0fr,32utubmz7k9dxuk30s6o2sdrelkvbt,QC6r4DY8,2020-0188,2021-10-31,10:24:35,12:14:26,NA,incomplete,false,true,NA,NA,3,33,NA,purple,n_s_056.jpg,NA,NA,NA,NA,NA,unpleasant,pleasant,NA,NA,NA,NA,NA,right,1387.30000001192,true,NA,NA,NA,NA,NA,NA,NA,NA
QC6r4DY8,3087lxlj7ptluqx9bvztb5iuvan0fr,32utubmz7k9dxuk30s6o2sdrelkvbt,QC6r4DY8,2020-0188,2021-10-31,10:24:35,12:14:26,NA,incomplete,false,true,NA,NA,3,34,NA,purple,n_s_005.jpg,NA,NA,NA,NA,NA,pleasant,unpleasant,NA,NA,NA,NA,NA,left,1959.69999998808,true,NA,NA,NA,NA,NA,NA,NA,NA
QC6r4DY8,3087lxlj7ptluqx9bvztb5iuvan0fr,32utubmz7k9dxuk30s6o2sdrelkvbt,QC6r4DY8,2020-0188,2021-10-31,10:24:35,12:14:26,NA,incomplete,false,true,NA,NA,3,35,NA,purple,n_l_108.jpg,NA,NA,NA,NA,NA,unpleasant,pleasant,NA,NA,NA,NA,NA,right,1668.20000004768,true,NA,NA,NA,NA,NA,NA,NA,NA
QC6r4DY8,3087lxlj7ptluqx9bvztb5iuvan0fr,32utubmz7k9dxuk30s6o2sdrelkvbt,QC6r4DY8,2020-0188,2021-10-31,10:24:35,12:14:26,NA,incomplete,false,NA,NA,true,3,0,NA,NA,NA,left,m_s_005.jpg,gray,black,NA,NA,NA,NA,NA,NA,NA,NA,NA,NaN,NA,2895.399999976158,left,1,NA,NA,NA,NA,NA
QC6r4DY8,3087lxlj7ptluqx9bvztb5iuvan0fr,32utubmz7k9dxuk30s6o2sdrelkvbt,QC6r4DY8,2020-0188,2021-10-31,10:24:35,12:14:26,NA,incomplete,false,NA,NA,true,3,1,NA,NA,NA,right,m_s_083.jpg,gray,black,NA,NA,NA,NA,NA,NA,NA,NA,NA,NaN,NA,1871.1000000238419,right,1,NA,NA,NA,NA,NA
QC6r4DY8,3087lxlj7ptluqx9bvztb5iuvan0fr,32utubmz7k9dxuk30s6o2sdrelkvbt,QC6r4DY8,2020-0188,2021-10-31,10:24:35,12:14:26,NA,incomplete,false,NA,NA,true,3,2,NA,NA,NA,right,m_s_006.jpg,purple,gray,NA,NA,NA,NA,NA,NA,NA,NA,NA,NaN,NA,2040.0999999642372,right,1,NA,NA,NA,NA,NA
QC6r4DY8,3087lxlj7ptluqx9bvztb5iuvan0fr,32utubmz7k9dxuk30s6o2sdrelkvbt,QC6r4DY8,2020-0188,2021-10-31,10:24:35,12:14:26,NA,incomplete,false,NA,NA,true,3,3,NA,NA,NA,right,n_l_010.jpg,red,yellow,NA,NA,NA,NA,NA,NA,NA,NA,NA,NaN,NA,2103.300000011921,right,1,NA,NA,NA,NA,NA
QC6r4DY8,3087lxlj7ptluqx9bvztb5iuvan0fr,32utubmz7k9dxuk30s6o2sdrelkvbt,QC6r4DY8,2020-0188,2021-10-31,10:24:35,12:14:26,NA,incomplete,false,NA,NA,true,3,4,NA,NA,NA,right,m_s_001.jpg,red,yellow,NA,NA,NA,NA,NA,NA,NA,NA,NA,NaN,NA,4351,right,1,NA,NA,NA,NA,NA
QC6r4DY8,3087lxlj7ptluqx9bvztb5iuvan0fr,32utubmz7k9dxuk30s6o2sdrelkvbt,QC6r4DY8,2020-0188,2021-10-31,10:24:35,12:14:26,NA,incomplete,false,NA,NA,true,3,5,NA,NA,NA,right,n_l_108.jpg,gray,purple,NA,NA,NA,NA,NA,NA,NA,NA,NA,NaN,NA,2575.2999999523163,left,0,NA,NA,NA,NA,NA
QC6r4DY8,3087lxlj7ptluqx9bvztb5iuvan0fr,32utubmz7k9dxuk30s6o2sdrelkvbt,QC6r4DY8,2020-0188,2021-10-31,10:24:35,12:14:26,NA,incomplete,false,NA,NA,true,3,6,NA,NA,NA,right,m_s_082.jpg,red,green,NA,NA,NA,NA,NA,NA,NA,NA,NA,NaN,NA,8198.800000011921,left,0,NA,NA,NA,NA,NA
QC6r4DY8,3087lxlj7ptluqx9bvztb5iuvan0fr,32utubmz7k9dxuk30s6o2sdrelkvbt,QC6r4DY8,2020-0188,2021-10-31,10:24:35,12:14:26,NA,incomplete,false,NA,NA,true,3,7,NA,NA,NA,left,n_l_111.jpg,purple,gray,NA,NA,NA,NA,NA,NA,NA,NA,NA,NaN,NA,5223.099999964237,left,1,NA,NA,NA,NA,NA
QC6r4DY8,3087lxlj7ptluqx9bvztb5iuvan0fr,32utubmz7k9dxuk30s6o2sdrelkvbt,QC6r4DY8,2020-0188,2021-10-31,10:24:35,12:14:26,NA,incomplete,false,NA,NA,true,3,8,NA,NA,NA,right,n_l_077.jpg,yellow,red,NA,NA,NA,NA,NA,NA,NA,NA,NA,NaN,NA,1839.5,right,1,NA,NA,NA,NA,NA
QC6r4DY8,3087lxlj7ptluqx9bvztb5iuvan0fr,32utubmz7k9dxuk30s6o2sdrelkvbt,QC6r4DY8,2020-0188,2021-10-31,10:24:35,12:14:26,NA,incomplete,false,NA,NA,true,3,9,NA,NA,NA,right,n_s_088.jpg,black,green,NA,NA,NA,NA,NA,NA,NA,NA,NA,NaN,NA,4479.399999976158,right,1,NA,NA,NA,NA,NA
QC6r4DY8,3087lxlj7ptluqx9bvztb5iuvan0fr,32utubmz7k9dxuk30s6o2sdrelkvbt,QC6r4DY8,2020-0188,2021-10-31,10:24:35,12:14:26,NA,incomplete,false,NA,NA,true,3,10,NA,NA,NA,left,m_l_091.jpg,purple,gray,NA,NA,NA,NA,NA,NA,NA,NA,NA,NaN,NA,3607.199999988079,right,0,NA,NA,NA,NA,NA
QC6r4DY8,3087lxlj7ptluqx9bvztb5iuvan0fr,32utubmz7k9dxuk30s6o2sdrelkvbt,QC6r4DY8,2020-0188,2021-10-31,10:24:35,12:14:26,NA,incomplete,false,NA,NA,true,3,11,NA,NA,NA,left,n_s_069.jpg,gray,purple,NA,NA,NA,NA,NA,NA,NA,NA,NA,NaN,NA,2791.2999999523163,left,1,NA,NA,NA,NA,NA
QC6r4DY8,3087lxlj7ptluqx9bvztb5iuvan0fr,32utubmz7k9dxuk30s6o2sdrelkvbt,QC6r4DY8,2020-0188,2021-10-31,10:24:35,12:14:26,NA,incomplete,false,NA,NA,true,3,12,NA,NA,NA,right,n_s_097.jpg,yellow,red,NA,NA,NA,NA,NA,NA,NA,NA,NA,NaN,NA,4911.399999976158,right,1,NA,NA,NA,NA,NA
QC6r4DY8,3087lxlj7ptluqx9bvztb5iuvan0fr,32utubmz7k9dxuk30s6o2sdrelkvbt,QC6r4DY8,2020-0188,2021-10-31,10:24:35,12:14:26,NA,incomplete,false,NA,NA,true,3,13,NA,NA,NA,left,n_s_091.jpg,red,green,NA,NA,NA,NA,NA,NA,NA,NA,NA,NaN,NA,1967.5,left,1,NA,NA,NA,NA,NA
QC6r4DY8,3087lxlj7ptluqx9bvztb5iuvan0fr,32utubmz7k9dxuk30s6o2sdrelkvbt,QC6r4DY8,2020-0188,2021-10-31,10:24:35,12:14:26,NA,incomplete,false,NA,NA,true,3,14,NA,NA,NA,right,n_l_030.jpg,green,black,NA,NA,NA,NA,NA,NA,NA,NA,NA,NaN,NA,1927.6000000238419,right,1,NA,NA,NA,NA,NA
QC6r4DY8,3087lxlj7ptluqx9bvztb5iuvan0fr,32utubmz7k9dxuk30s6o2sdrelkvbt,QC6r4DY8,2020-0188,2021-10-31,10:24:35,12:14:26,NA,incomplete,false,NA,NA,true,3,15,NA,NA,NA,right,m_l_035.jpg,green,black,NA,NA,NA,NA,NA,NA,NA,NA,NA,NaN,NA,3255.5,left,0,NA,NA,NA,NA,NA
QC6r4DY8,3087lxlj7ptluqx9bvztb5iuvan0fr,32utubmz7k9dxuk30s6o2sdrelkvbt,QC6r4DY8,2020-0188,2021-10-31,10:24:35,12:14:26,NA,incomplete,false,NA,NA,true,3,16,NA,NA,NA,right,n_l_099.jpg,black,gray,NA,NA,NA,NA,NA,NA,NA,NA,NA,NaN,NA,2943.100000023842,left,0,NA,NA,NA,NA,NA
QC6r4DY8,3087lxlj7ptluqx9bvztb5iuvan0fr,32utubmz7k9dxuk30s6o2sdrelkvbt,QC6r4DY8,2020-0188,2021-10-31,10:24:35,12:14:26,NA,incomplete,false,NA,NA,true,3,17,NA,NA,NA,right,n_s_040.jpg,black,green,NA,NA,NA,NA,NA,NA,NA,NA,NA,NaN,NA,1990.6000000238419,right,1,NA,NA,NA,NA,NA
QC6r4DY8,3087lxlj7ptluqx9bvztb5iuvan0fr,32utubmz7k9dxuk30s6o2sdrelkvbt,QC6r4DY8,2020-0188,2021-10-31,10:24:35,12:14:26,NA,incomplete,false,NA,NA,true,3,18,NA,NA,NA,right,m_s_090.jpg,green,black,NA,NA,NA,NA,NA,NA,NA,NA,NA,NaN,NA,5407.099999964237,left,0,NA,NA,NA,NA,NA
QC6r4DY8,3087lxlj7ptluqx9bvztb5iuvan0fr,32utubmz7k9dxuk30s6o2sdrelkvbt,QC6r4DY8,2020-0188,2021-10-31,10:24:35,12:14:26,NA,incomplete,false,NA,NA,true,3,19,NA,NA,NA,right,n_s_083.jpg,red,yellow,NA,NA,NA,NA,NA,NA,NA,NA,NA,NaN,NA,3079.400000035763,left,0,NA,NA,NA,NA,NA
QC6r4DY8,3087lxlj7ptluqx9bvztb5iuvan0fr,32utubmz7k9dxuk30s6o2sdrelkvbt,QC6r4DY8,2020-0188,2021-10-31,10:24:35,12:14:26,NA,incomplete,false,NA,NA,true,3,20,NA,NA,NA,left,n_l_086.jpg,red,green,NA,NA,NA,NA,NA,NA,NA,NA,NA,NaN,NA,1943.3999999761581,right,0,NA,NA,NA,NA,NA
QC6r4DY8,3087lxlj7ptluqx9bvztb5iuvan0fr,32utubmz7k9dxuk30s6o2sdrelkvbt,QC6r4DY8,2020-0188,2021-10-31,10:24:35,12:14:26,NA,incomplete,false,NA,NA,true,3,21,NA,NA,NA,left,m_l_036.jpg,green,red,NA,NA,NA,NA,NA,NA,NA,NA,NA,NaN,NA,1615.2999999523163,right,0,NA,NA,NA,NA,NA
QC6r4DY8,3087lxlj7ptluqx9bvztb5iuvan0fr,32utubmz7k9dxuk30s6o2sdrelkvbt,QC6r4DY8,2020-0188,2021-10-31,10:24:35,12:14:26,NA,incomplete,false,NA,true,NA,3,0,NA,NA,NA,left,NA,NA,NA,present,NA,NA,n_s_083.jpg,yellow,n_l_086.jpg,red,between,NA,NaN,NA,NA,NA,NA,left,4301.700000047684,1,2,2310.7000000476837
QC6r4DY8,3087lxlj7ptluqx9bvztb5iuvan0fr,32utubmz7k9dxuk30s6o2sdrelkvbt,QC6r4DY8,2020-0188,2021-10-31,10:24:35,12:14:26,NA,incomplete,false,NA,true,NA,3,1,NA,NA,NA,left,NA,NA,NA,present,NA,NA,n_s_097.jpg,red,n_l_077.jpg,red,within,NA,NaN,NA,NA,NA,NA,left,2630.800000011921,1,0,2254.900000035763
QC6r4DY8,3087lxlj7ptluqx9bvztb5iuvan0fr,32utubmz7k9dxuk30s6o2sdrelkvbt,QC6r4DY8,2020-0188,2021-10-31,10:24:35,12:14:26,NA,incomplete,false,NA,true,NA,3,2,NA,NA,NA,right,NA,NA,NA,present,NA,NA,n_l_108.jpg,purple,m_l_091.jpg,purple,within,NA,NaN,NA,NA,NA,NA,left,5958.699999988079,0,1,1791.5
QC6r4DY8,3087lxlj7ptluqx9bvztb5iuvan0fr,32utubmz7k9dxuk30s6o2sdrelkvbt,QC6r4DY8,2020-0188,2021-10-31,10:24:35,12:14:26,NA,incomplete,false,NA,true,NA,3,3,NA,NA,NA,left,NA,NA,NA,present,NA,NA,m_s_083.jpg,black,m_s_005.jpg,gray,between,NA,NaN,NA,NA,NA,NA,right,2463.100000023842,0,3,2782.7999999523163
QC6r4DY8,3087lxlj7ptluqx9bvztb5iuvan0fr,32utubmz7k9dxuk30s6o2sdrelkvbt,QC6r4DY8,2020-0188,2021-10-31,10:24:35,12:14:26,NA,incomplete,false,NA,true,NA,3,4,NA,NA,NA,right,NA,NA,NA,present,NA,NA,n_l_099.jpg,gray,m_s_006.jpg,gray,within,NA,NaN,NA,NA,NA,NA,right,2599.400000035763,1,1,3607.600000023842
QC6r4DY8,3087lxlj7ptluqx9bvztb5iuvan0fr,32utubmz7k9dxuk30s6o2sdrelkvbt,QC6r4DY8,2020-0188,2021-10-31,10:24:35,12:14:26,NA,incomplete,false,NA,true,NA,3,5,NA,NA,NA,left,NA,NA,NA,present,NA,NA,n_l_030.jpg,black,m_s_090.jpg,black,within,NA,NaN,NA,NA,NA,NA,right,2919.300000011921,0,0,2743.5
QC6r4DY8,3087lxlj7ptluqx9bvztb5iuvan0fr,32utubmz7k9dxuk30s6o2sdrelkvbt,QC6r4DY8,2020-0188,2021-10-31,10:24:35,12:14:26,NA,incomplete,false,NA,true,NA,3,6,NA,NA,NA,right,NA,NA,NA,present,NA,NA,m_l_035.jpg,black,m_s_082.jpg,green,between,NA,NaN,NA,NA,NA,NA,right,2247.399999976158,1,2,2415.400000035763
QC6r4DY8,3087lxlj7ptluqx9bvztb5iuvan0fr,32utubmz7k9dxuk30s6o2sdrelkvbt,QC6r4DY8,2020-0188,2021-10-31,10:24:35,12:14:26,NA,incomplete,false,NA,true,NA,3,7,NA,NA,NA,right,NA,NA,NA,present,NA,NA,n_s_040.jpg,green,n_s_088.jpg,green,within,NA,NaN,NA,NA,NA,NA,right,2439.300000011921,1,0,2199.2000000476837
QC6r4DY8,3087lxlj7ptluqx9bvztb5iuvan0fr,32utubmz7k9dxuk30s6o2sdrelkvbt,QC6r4DY8,2020-0188,2021-10-31,10:24:35,12:14:26,NA,incomplete,false,NA,true,NA,3,8,NA,NA,NA,right,NA,NA,NA,present,NA,NA,n_l_111.jpg,purple,n_s_069.jpg,gray,between,NA,NaN,NA,NA,NA,NA,left,3135.199999988079,0,2,1902.7000000476837
QC6r4DY8,3087lxlj7ptluqx9bvztb5iuvan0fr,32utubmz7k9dxuk30s6o2sdrelkvbt,QC6r4DY8,2020-0188,2021-10-31,10:24:35,12:14:26,NA,incomplete,false,NA,true,NA,3,9,NA,NA,NA,right,NA,NA,NA,present,NA,NA,m_s_001.jpg,yellow,n_l_010.jpg,yellow,within,NA,NaN,NA,NA,NA,NA,right,3623,1,0,2023.3999999761581
QC6r4DY8,3087lxlj7ptluqx9bvztb5iuvan0fr,32utubmz7k9dxuk30s6o2sdrelkvbt,QC6r4DY8,2020-0188,2021-10-31,10:24:35,12:14:26,NA,incomplete,false,NA,true,NA,3,10,NA,NA,NA,right,NA,NA,NA,present,NA,NA,m_l_036.jpg,green,n_s_091.jpg,red,between,NA,NaN,NA,NA,NA,NA,left,4119.199999988079,0,1,1495.2999999523163
QC6r4DY8,3087lxlj7ptluqx9bvztb5iuvan0fr,32utubmz7k9dxuk30s6o2sdrelkvbt,QC6r4DY8,2020-0188,2021-10-31,10:24:35,12:14:26,NA,incomplete,false,true,NA,NA,4,0,NA,red,m_s_060.jpg,NA,NA,NA,NA,NA,unpleasant,pleasant,NA,NA,NA,NA,NA,right,1881.89999997616,true,NA,NA,NA,NA,NA,NA,NA,NA
QC6r4DY8,3087lxlj7ptluqx9bvztb5iuvan0fr,32utubmz7k9dxuk30s6o2sdrelkvbt,QC6r4DY8,2020-0188,2021-10-31,10:24:35,12:14:26,NA,incomplete,false,true,NA,NA,4,1,NA,red,n_s_060.jpg,NA,NA,NA,NA,NA,pleasant,unpleasant,NA,NA,NA,NA,NA,left,1190.5,true,NA,NA,NA,NA,NA,NA,NA,NA
QC6r4DY8,3087lxlj7ptluqx9bvztb5iuvan0fr,32utubmz7k9dxuk30s6o2sdrelkvbt,QC6r4DY8,2020-0188,2021-10-31,10:24:35,12:14:26,NA,incomplete,false,true,NA,NA,4,2,NA,red,n_l_071.jpg,NA,NA,NA,NA,NA,pleasant,unpleasant,NA,NA,NA,NA,NA,left,874.400000035763,true,NA,NA,NA,NA,NA,NA,NA,NA
QC6r4DY8,3087lxlj7ptluqx9bvztb5iuvan0fr,32utubmz7k9dxuk30s6o2sdrelkvbt,QC6r4DY8,2020-0188,2021-10-31,10:24:35,12:14:26,NA,incomplete,false,true,NA,NA,4,3,NA,red,m_s_080.jpg,NA,NA,NA,NA,NA,unpleasant,pleasant,NA,NA,NA,NA,NA,right,1022.59999996424,true,NA,NA,NA,NA,NA,NA,NA,NA
QC6r4DY8,3087lxlj7ptluqx9bvztb5iuvan0fr,32utubmz7k9dxuk30s6o2sdrelkvbt,QC6r4DY8,2020-0188,2021-10-31,10:24:35,12:14:26,NA,incomplete,false,true,NA,NA,4,4,NA,red,m_s_105.jpg,NA,NA,NA,NA,NA,pleasant,unpleasant,NA,NA,NA,NA,NA,left,922.400000035763,true,NA,NA,NA,NA,NA,NA,NA,NA
QC6r4DY8,3087lxlj7ptluqx9bvztb5iuvan0fr,32utubmz7k9dxuk30s6o2sdrelkvbt,QC6r4DY8,2020-0188,2021-10-31,10:24:35,12:14:26,NA,incomplete,false,true,NA,NA,4,5,NA,red,n_s_114.jpg,NA,NA,NA,NA,NA,unpleasant,pleasant,NA,NA,NA,NA,NA,right,1158.20000004768,true,NA,NA,NA,NA,NA,NA,NA,NA
QC6r4DY8,3087lxlj7ptluqx9bvztb5iuvan0fr,32utubmz7k9dxuk30s6o2sdrelkvbt,QC6r4DY8,2020-0188,2021-10-31,10:24:35,12:14:26,NA,incomplete,false,true,NA,NA,4,6,NA,green,m_l_009.jpg,NA,NA,NA,NA,NA,unpleasant,pleasant,NA,NA,NA,NA,NA,right,1050.5,true,NA,NA,NA,NA,NA,NA,NA,NA
QC6r4DY8,3087lxlj7ptluqx9bvztb5iuvan0fr,32utubmz7k9dxuk30s6o2sdrelkvbt,QC6r4DY8,2020-0188,2021-10-31,10:24:35,12:14:26,NA,incomplete,false,true,NA,NA,4,7,NA,green,m_s_077.jpg,NA,NA,NA,NA,NA,unpleasant,pleasant,NA,NA,NA,NA,NA,right,806.5,true,NA,NA,NA,NA,NA,NA,NA,NA
QC6r4DY8,3087lxlj7ptluqx9bvztb5iuvan0fr,32utubmz7k9dxuk30s6o2sdrelkvbt,QC6r4DY8,2020-0188,2021-10-31,10:24:35,12:14:26,NA,incomplete,false,true,NA,NA,4,8,NA,green,n_l_040.jpg,NA,NA,NA,NA,NA,unpleasant,pleasant,NA,NA,NA,NA,NA,right,882.400000035763,true,NA,NA,NA,NA,NA,NA,NA,NA
QC6r4DY8,3087lxlj7ptluqx9bvztb5iuvan0fr,32utubmz7k9dxuk30s6o2sdrelkvbt,QC6r4DY8,2020-0188,2021-10-31,10:24:35,12:14:26,NA,incomplete,false,true,NA,NA,4,9,NA,green,m_l_030.jpg,NA,NA,NA,NA,NA,unpleasant,pleasant,NA,NA,NA,NA,NA,right,822.899999976158,true,NA,NA,NA,NA,NA,NA,NA,NA
QC6r4DY8,3087lxlj7ptluqx9bvztb5iuvan0fr,32utubmz7k9dxuk30s6o2sdrelkvbt,QC6r4DY8,2020-0188,2021-10-31,10:24:35,12:14:26,NA,incomplete,false,true,NA,NA,4,10,NA,green,n_s_012.jpg,NA,NA,NA,NA,NA,unpleasant,pleasant,NA,NA,NA,NA,NA,right,699.399999976158,true,NA,NA,NA,NA,NA,NA,NA,NA
QC6r4DY8,3087lxlj7ptluqx9bvztb5iuvan0fr,32utubmz7k9dxuk30s6o2sdrelkvbt,QC6r4DY8,2020-0188,2021-10-31,10:24:35,12:14:26,NA,incomplete,false,true,NA,NA,4,11,NA,green,m_l_088.jpg,NA,NA,NA,NA,NA,unpleasant,pleasant,NA,NA,NA,NA,NA,right,911.5,true,NA,NA,NA,NA,NA,NA,NA,NA
QC6r4DY8,3087lxlj7ptluqx9bvztb5iuvan0fr,32utubmz7k9dxuk30s6o2sdrelkvbt,QC6r4DY8,2020-0188,2021-10-31,10:24:35,12:14:26,NA,incomplete,false,true,NA,NA,4,12,NA,gray,n_l_020.jpg,NA,NA,NA,NA,NA,unpleasant,pleasant,NA,NA,NA,NA,NA,right,932.300000011921,true,NA,NA,NA,NA,NA,NA,NA,NA
QC6r4DY8,3087lxlj7ptluqx9bvztb5iuvan0fr,32utubmz7k9dxuk30s6o2sdrelkvbt,QC6r4DY8,2020-0188,2021-10-31,10:24:35,12:14:26,NA,incomplete,false,true,NA,NA,4,13,NA,gray,n_l_105.jpg,NA,NA,NA,NA,NA,pleasant,unpleasant,NA,NA,NA,NA,NA,right,617.5,true,NA,NA,NA,NA,NA,NA,NA,NA
QC6r4DY8,3087lxlj7ptluqx9bvztb5iuvan0fr,32utubmz7k9dxuk30s6o2sdrelkvbt,QC6r4DY8,2020-0188,2021-10-31,10:24:35,12:14:26,NA,incomplete,false,true,NA,NA,4,14,NA,gray,n_l_091.jpg,NA,NA,NA,NA,NA,unpleasant,pleasant,NA,NA,NA,NA,NA,right,1213.10000002384,true,NA,NA,NA,NA,NA,NA,NA,NA
QC6r4DY8,3087lxlj7ptluqx9bvztb5iuvan0fr,32utubmz7k9dxuk30s6o2sdrelkvbt,QC6r4DY8,2020-0188,2021-10-31,10:24:35,12:14:26,NA,incomplete,false,true,NA,NA,4,15,NA,gray,n_s_064.jpg,NA,NA,NA,NA,NA,unpleasant,pleasant,NA,NA,NA,NA,NA,right,849.800000011921,true,NA,NA,NA,NA,NA,NA,NA,NA
QC6r4DY8,3087lxlj7ptluqx9bvztb5iuvan0fr,32utubmz7k9dxuk30s6o2sdrelkvbt,QC6r4DY8,2020-0188,2021-10-31,10:24:35,12:14:26,NA,incomplete,false,true,NA,NA,4,16,NA,gray,m_s_015.jpg,NA,NA,NA,NA,NA,unpleasant,pleasant,NA,NA,NA,NA,NA,right,1222.70000004768,true,NA,NA,NA,NA,NA,NA,NA,NA
QC6r4DY8,3087lxlj7ptluqx9bvztb5iuvan0fr,32utubmz7k9dxuk30s6o2sdrelkvbt,QC6r4DY8,2020-0188,2021-10-31,10:24:35,12:14:26,NA,incomplete,false,true,NA,NA,4,17,NA,gray,n_l_043.jpg,NA,NA,NA,NA,NA,pleasant,unpleasant,NA,NA,NA,NA,NA,left,1466.5,true,NA,NA,NA,NA,NA,NA,NA,NA
QC6r4DY8,3087lxlj7ptluqx9bvztb5iuvan0fr,32utubmz7k9dxuk30s6o2sdrelkvbt,QC6r4DY8,2020-0188,2021-10-31,10:24:35,12:14:26,NA,incomplete,false,true,NA,NA,4,18,NA,black,m_l_071.jpg,NA,NA,NA,NA,NA,unpleasant,pleasant,NA,NA,NA,NA,NA,right,983.5,true,NA,NA,NA,NA,NA,NA,NA,NA
QC6r4DY8,3087lxlj7ptluqx9bvztb5iuvan0fr,32utubmz7k9dxuk30s6o2sdrelkvbt,QC6r4DY8,2020-0188,2021-10-31,10:24:35,12:14:26,NA,incomplete,false,true,NA,NA,4,19,NA,black,n_s_018.jpg,NA,NA,NA,NA,NA,unpleasant,pleasant,NA,NA,NA,NA,NA,right,1452.09999996424,true,NA,NA,NA,NA,NA,NA,NA,NA
QC6r4DY8,3087lxlj7ptluqx9bvztb5iuvan0fr,32utubmz7k9dxuk30s6o2sdrelkvbt,QC6r4DY8,2020-0188,2021-10-31,10:24:35,12:14:26,NA,incomplete,false,true,NA,NA,4,20,NA,black,n_s_013.jpg,NA,NA,NA,NA,NA,pleasant,unpleasant,NA,NA,NA,NA,NA,left,912.5,true,NA,NA,NA,NA,NA,NA,NA,NA
QC6r4DY8,3087lxlj7ptluqx9bvztb5iuvan0fr,32utubmz7k9dxuk30s6o2sdrelkvbt,QC6r4DY8,2020-0188,2021-10-31,10:24:35,12:14:26,NA,incomplete,false,true,NA,NA,4,21,NA,black,m_l_042.jpg,NA,NA,NA,NA,NA,pleasant,unpleasant,NA,NA,NA,NA,NA,left,1036.89999997616,true,NA,NA,NA,NA,NA,NA,NA,NA
QC6r4DY8,3087lxlj7ptluqx9bvztb5iuvan0fr,32utubmz7k9dxuk30s6o2sdrelkvbt,QC6r4DY8,2020-0188,2021-10-31,10:24:35,12:14:26,NA,incomplete,false,true,NA,NA,4,22,NA,black,n_l_054.jpg,NA,NA,NA,NA,NA,unpleasant,pleasant,NA,NA,NA,NA,NA,right,1457,true,NA,NA,NA,NA,NA,NA,NA,NA
QC6r4DY8,3087lxlj7ptluqx9bvztb5iuvan0fr,32utubmz7k9dxuk30s6o2sdrelkvbt,QC6r4DY8,2020-0188,2021-10-31,10:24:35,12:14:26,NA,incomplete,false,true,NA,NA,4,23,NA,black,n_l_034.jpg,NA,NA,NA,NA,NA,pleasant,unpleasant,NA,NA,NA,NA,NA,left,1637.10000002384,true,NA,NA,NA,NA,NA,NA,NA,NA
QC6r4DY8,3087lxlj7ptluqx9bvztb5iuvan0fr,32utubmz7k9dxuk30s6o2sdrelkvbt,QC6r4DY8,2020-0188,2021-10-31,10:24:35,12:14:26,NA,incomplete,false,true,NA,NA,4,24,NA,blue,n_l_013.jpg,NA,NA,NA,NA,NA,unpleasant,pleasant,NA,NA,NA,NA,NA,left,1393.09999996424,true,NA,NA,NA,NA,NA,NA,NA,NA
QC6r4DY8,3087lxlj7ptluqx9bvztb5iuvan0fr,32utubmz7k9dxuk30s6o2sdrelkvbt,QC6r4DY8,2020-0188,2021-10-31,10:24:35,12:14:26,NA,incomplete,false,true,NA,NA,4,25,NA,blue,n_s_020.jpg,NA,NA,NA,NA,NA,pleasant,unpleasant,NA,NA,NA,NA,NA,left,1646,true,NA,NA,NA,NA,NA,NA,NA,NA
QC6r4DY8,3087lxlj7ptluqx9bvztb5iuvan0fr,32utubmz7k9dxuk30s6o2sdrelkvbt,QC6r4DY8,2020-0188,2021-10-31,10:24:35,12:14:26,NA,incomplete,false,true,NA,NA,4,26,NA,blue,n_l_115.jpg,NA,NA,NA,NA,NA,unpleasant,pleasant,NA,NA,NA,NA,NA,right,1282.39999997616,true,NA,NA,NA,NA,NA,NA,NA,NA
QC6r4DY8,3087lxlj7ptluqx9bvztb5iuvan0fr,32utubmz7k9dxuk30s6o2sdrelkvbt,QC6r4DY8,2020-0188,2021-10-31,10:24:35,12:14:26,NA,incomplete,false,true,NA,NA,4,27,NA,blue,m_l_004.jpg,NA,NA,NA,NA,NA,unpleasant,pleasant,NA,NA,NA,NA,NA,right,967,true,NA,NA,NA,NA,NA,NA,NA,NA
QC6r4DY8,3087lxlj7ptluqx9bvztb5iuvan0fr,32utubmz7k9dxuk30s6o2sdrelkvbt,QC6r4DY8,2020-0188,2021-10-31,10:24:35,12:14:26,NA,incomplete,false,true,NA,NA,4,28,NA,blue,m_s_055.jpg,NA,NA,NA,NA,NA,pleasant,unpleasant,NA,NA,NA,NA,NA,left,1851.09999996424,true,NA,NA,NA,NA,NA,NA,NA,NA
QC6r4DY8,3087lxlj7ptluqx9bvztb5iuvan0fr,32utubmz7k9dxuk30s6o2sdrelkvbt,QC6r4DY8,2020-0188,2021-10-31,10:24:35,12:14:26,NA,incomplete,false,true,NA,NA,4,29,NA,blue,m_l_115.jpg,NA,NA,NA,NA,NA,pleasant,unpleasant,NA,NA,NA,NA,NA,left,1615.39999997616,true,NA,NA,NA,NA,NA,NA,NA,NA
QC6r4DY8,3087lxlj7ptluqx9bvztb5iuvan0fr,32utubmz7k9dxuk30s6o2sdrelkvbt,QC6r4DY8,2020-0188,2021-10-31,10:24:35,12:14:26,NA,incomplete,false,true,NA,NA,4,30,NA,brown,n_s_080.jpg,NA,NA,NA,NA,NA,unpleasant,pleasant,NA,NA,NA,NA,NA,right,1019.60000002384,true,NA,NA,NA,NA,NA,NA,NA,NA
QC6r4DY8,3087lxlj7ptluqx9bvztb5iuvan0fr,32utubmz7k9dxuk30s6o2sdrelkvbt,QC6r4DY8,2020-0188,2021-10-31,10:24:35,12:14:26,NA,incomplete,false,true,NA,NA,4,31,NA,brown,m_s_068.jpg,NA,NA,NA,NA,NA,pleasant,unpleasant,NA,NA,NA,NA,NA,right,1591.90000003576,true,NA,NA,NA,NA,NA,NA,NA,NA
QC6r4DY8,3087lxlj7ptluqx9bvztb5iuvan0fr,32utubmz7k9dxuk30s6o2sdrelkvbt,QC6r4DY8,2020-0188,2021-10-31,10:24:35,12:14:26,NA,incomplete,false,true,NA,NA,4,32,NA,brown,m_l_070.jpg,NA,NA,NA,NA,NA,unpleasant,pleasant,NA,NA,NA,NA,NA,right,1220.30000001192,true,NA,NA,NA,NA,NA,NA,NA,NA
QC6r4DY8,3087lxlj7ptluqx9bvztb5iuvan0fr,32utubmz7k9dxuk30s6o2sdrelkvbt,QC6r4DY8,2020-0188,2021-10-31,10:24:35,12:14:26,NA,incomplete,false,true,NA,NA,4,33,NA,brown,n_s_007.jpg,NA,NA,NA,NA,NA,pleasant,unpleasant,NA,NA,NA,NA,NA,left,1016.5,true,NA,NA,NA,NA,NA,NA,NA,NA
QC6r4DY8,3087lxlj7ptluqx9bvztb5iuvan0fr,32utubmz7k9dxuk30s6o2sdrelkvbt,QC6r4DY8,2020-0188,2021-10-31,10:24:35,12:14:26,NA,incomplete,false,true,NA,NA,4,34,NA,brown,m_l_111.jpg,NA,NA,NA,NA,NA,pleasant,unpleasant,NA,NA,NA,NA,NA,left,813.099999964237,true,NA,NA,NA,NA,NA,NA,NA,NA
QC6r4DY8,3087lxlj7ptluqx9bvztb5iuvan0fr,32utubmz7k9dxuk30s6o2sdrelkvbt,QC6r4DY8,2020-0188,2021-10-31,10:24:35,12:14:26,NA,incomplete,false,true,NA,NA,4,35,NA,brown,m_s_039.jpg,NA,NA,NA,NA,NA,pleasant,unpleasant,NA,NA,NA,NA,NA,left,801.600000023842,true,NA,NA,NA,NA,NA,NA,NA,NA
QC6r4DY8,3087lxlj7ptluqx9bvztb5iuvan0fr,32utubmz7k9dxuk30s6o2sdrelkvbt,QC6r4DY8,2020-0188,2021-10-31,10:24:35,12:14:26,NA,incomplete,false,NA,NA,true,4,0,NA,NA,NA,left,n_l_043.jpg,gray,black,NA,NA,NA,NA,NA,NA,NA,NA,NA,NaN,NA,8319.400000035763,left,1,NA,NA,NA,NA,NA
QC6r4DY8,3087lxlj7ptluqx9bvztb5iuvan0fr,32utubmz7k9dxuk30s6o2sdrelkvbt,QC6r4DY8,2020-0188,2021-10-31,10:24:35,12:14:26,NA,incomplete,false,NA,NA,true,4,1,NA,NA,NA,right,n_l_091.jpg,green,gray,NA,NA,NA,NA,NA,NA,NA,NA,NA,NaN,NA,2087.300000011921,right,1,NA,NA,NA,NA,NA
QC6r4DY8,3087lxlj7ptluqx9bvztb5iuvan0fr,32utubmz7k9dxuk30s6o2sdrelkvbt,QC6r4DY8,2020-0188,2021-10-31,10:24:35,12:14:26,NA,incomplete,false,NA,NA,true,4,2,NA,NA,NA,right,n_l_040.jpg,red,green,NA,NA,NA,NA,NA,NA,NA,NA,NA,NaN,NA,2487.599999964237,right,1,NA,NA,NA,NA,NA
QC6r4DY8,3087lxlj7ptluqx9bvztb5iuvan0fr,32utubmz7k9dxuk30s6o2sdrelkvbt,QC6r4DY8,2020-0188,2021-10-31,10:24:35,12:14:26,NA,incomplete,false,NA,NA,true,4,3,NA,NA,NA,left,n_l_115.jpg,blue,brown,NA,NA,NA,NA,NA,NA,NA,NA,NA,NaN,NA,3503.300000011921,right,0,NA,NA,NA,NA,NA
QC6r4DY8,3087lxlj7ptluqx9bvztb5iuvan0fr,32utubmz7k9dxuk30s6o2sdrelkvbt,QC6r4DY8,2020-0188,2021-10-31,10:24:35,12:14:26,NA,incomplete,false,NA,NA,true,4,4,NA,NA,NA,right,m_s_015.jpg,green,gray,NA,NA,NA,NA,NA,NA,NA,NA,NA,NaN,NA,3775.100000023842,right,1,NA,NA,NA,NA,NA
QC6r4DY8,3087lxlj7ptluqx9bvztb5iuvan0fr,32utubmz7k9dxuk30s6o2sdrelkvbt,QC6r4DY8,2020-0188,2021-10-31,10:24:35,12:14:26,NA,incomplete,false,NA,NA,true,4,5,NA,NA,NA,left,m_s_077.jpg,green,red,NA,NA,NA,NA,NA,NA,NA,NA,NA,NaN,NA,2623.5,right,0,NA,NA,NA,NA,NA
QC6r4DY8,3087lxlj7ptluqx9bvztb5iuvan0fr,32utubmz7k9dxuk30s6o2sdrelkvbt,QC6r4DY8,2020-0188,2021-10-31,10:24:35,12:14:26,NA,incomplete,false,NA,NA,true,4,6,NA,NA,NA,left,n_s_114.jpg,red,green,NA,NA,NA,NA,NA,NA,NA,NA,NA,NaN,NA,2679.199999988079,left,1,NA,NA,NA,NA,NA
QC6r4DY8,3087lxlj7ptluqx9bvztb5iuvan0fr,32utubmz7k9dxuk30s6o2sdrelkvbt,QC6r4DY8,2020-0188,2021-10-31,10:24:35,12:14:26,NA,incomplete,false,NA,NA,true,4,7,NA,NA,NA,left,n_s_018.jpg,black,gray,NA,NA,NA,NA,NA,NA,NA,NA,NA,NaN,NA,2871.400000035763,right,0,NA,NA,NA,NA,NA
QC6r4DY8,3087lxlj7ptluqx9bvztb5iuvan0fr,32utubmz7k9dxuk30s6o2sdrelkvbt,QC6r4DY8,2020-0188,2021-10-31,10:24:35,12:14:26,NA,incomplete,false,NA,NA,true,4,8,NA,NA,NA,left,n_l_105.jpg,gray,black,NA,NA,NA,NA,NA,NA,NA,NA,NA,NaN,NA,2175.300000011921,left,1,NA,NA,NA,NA,NA
QC6r4DY8,3087lxlj7ptluqx9bvztb5iuvan0fr,32utubmz7k9dxuk30s6o2sdrelkvbt,QC6r4DY8,2020-0188,2021-10-31,10:24:35,12:14:26,NA,incomplete,false,NA,NA,true,4,9,NA,NA,NA,left,n_l_054.jpg,black,gray,NA,NA,NA,NA,NA,NA,NA,NA,NA,NaN,NA,3791.199999988079,left,1,NA,NA,NA,NA,NA
QC6r4DY8,3087lxlj7ptluqx9bvztb5iuvan0fr,32utubmz7k9dxuk30s6o2sdrelkvbt,QC6r4DY8,2020-0188,2021-10-31,10:24:35,12:14:26,NA,incomplete,false,NA,NA,true,4,10,NA,NA,NA,right,m_l_070.jpg,blue,brown,NA,NA,NA,NA,NA,NA,NA,NA,NA,NaN,NA,2399.199999988079,right,1,NA,NA,NA,NA,NA
QC6r4DY8,3087lxlj7ptluqx9bvztb5iuvan0fr,32utubmz7k9dxuk30s6o2sdrelkvbt,QC6r4DY8,2020-0188,2021-10-31,10:24:35,12:14:26,NA,incomplete,false,NA,NA,true,4,11,NA,NA,NA,left,n_s_012.jpg,green,gray,NA,NA,NA,NA,NA,NA,NA,NA,NA,NaN,NA,2311.2999999523163,left,1,NA,NA,NA,NA,NA
QC6r4DY8,3087lxlj7ptluqx9bvztb5iuvan0fr,32utubmz7k9dxuk30s6o2sdrelkvbt,QC6r4DY8,2020-0188,2021-10-31,10:24:35,12:14:26,NA,incomplete,false,NA,NA,true,4,12,NA,NA,NA,left,m_l_115.jpg,blue,brown,NA,NA,NA,NA,NA,NA,NA,NA,NA,NaN,NA,2447.300000011921,left,1,NA,NA,NA,NA,NA
QC6r4DY8,3087lxlj7ptluqx9bvztb5iuvan0fr,32utubmz7k9dxuk30s6o2sdrelkvbt,QC6r4DY8,2020-0188,2021-10-31,10:24:35,12:14:26,NA,incomplete,false,NA,NA,true,4,13,NA,NA,NA,left,m_s_055.jpg,blue,brown,NA,NA,NA,NA,NA,NA,NA,NA,NA,NaN,NA,2758.900000035763,left,1,NA,NA,NA,NA,NA
QC6r4DY8,3087lxlj7ptluqx9bvztb5iuvan0fr,32utubmz7k9dxuk30s6o2sdrelkvbt,QC6r4DY8,2020-0188,2021-10-31,10:24:35,12:14:26,NA,incomplete,false,NA,NA,true,4,14,NA,NA,NA,left,m_s_068.jpg,brown,blue,NA,NA,NA,NA,NA,NA,NA,NA,NA,NaN,NA,3255.600000023842,left,1,NA,NA,NA,NA,NA
QC6r4DY8,3087lxlj7ptluqx9bvztb5iuvan0fr,32utubmz7k9dxuk30s6o2sdrelkvbt,QC6r4DY8,2020-0188,2021-10-31,10:24:35,12:14:26,NA,incomplete,false,NA,NA,true,4,15,NA,NA,NA,left,m_s_105.jpg,red,green,NA,NA,NA,NA,NA,NA,NA,NA,NA,NaN,NA,1823.3999999761581,right,0,NA,NA,NA,NA,NA
QC6r4DY8,3087lxlj7ptluqx9bvztb5iuvan0fr,32utubmz7k9dxuk30s6o2sdrelkvbt,QC6r4DY8,2020-0188,2021-10-31,10:24:35,12:14:26,NA,incomplete,false,NA,NA,true,4,16,NA,NA,NA,left,n_s_060.jpg,red,green,NA,NA,NA,NA,NA,NA,NA,NA,NA,NaN,NA,1879.1000000238419,left,1,NA,NA,NA,NA,NA
QC6r4DY8,3087lxlj7ptluqx9bvztb5iuvan0fr,32utubmz7k9dxuk30s6o2sdrelkvbt,QC6r4DY8,2020-0188,2021-10-31,10:24:35,12:14:26,NA,incomplete,false,NA,NA,true,4,17,NA,NA,NA,left,m_l_088.jpg,green,gray,NA,NA,NA,NA,NA,NA,NA,NA,NA,NaN,NA,3399.2999999523163,left,1,NA,NA,NA,NA,NA
QC6r4DY8,3087lxlj7ptluqx9bvztb5iuvan0fr,32utubmz7k9dxuk30s6o2sdrelkvbt,QC6r4DY8,2020-0188,2021-10-31,10:24:35,12:14:26,NA,incomplete,false,NA,NA,true,4,18,NA,NA,NA,left,m_s_039.jpg,brown,blue,NA,NA,NA,NA,NA,NA,NA,NA,NA,NaN,NA,2823,right,0,NA,NA,NA,NA,NA
QC6r4DY8,3087lxlj7ptluqx9bvztb5iuvan0fr,32utubmz7k9dxuk30s6o2sdrelkvbt,QC6r4DY8,2020-0188,2021-10-31,10:24:35,12:14:26,NA,incomplete,false,NA,NA,true,4,19,NA,NA,NA,left,n_s_020.jpg,blue,black,NA,NA,NA,NA,NA,NA,NA,NA,NA,NaN,NA,4343.300000011921,right,0,NA,NA,NA,NA,NA
QC6r4DY8,3087lxlj7ptluqx9bvztb5iuvan0fr,32utubmz7k9dxuk30s6o2sdrelkvbt,QC6r4DY8,2020-0188,2021-10-31,10:24:35,12:14:26,NA,incomplete,false,NA,NA,true,4,20,NA,NA,NA,right,n_l_034.jpg,blue,black,NA,NA,NA,NA,NA,NA,NA,NA,NA,NaN,NA,2039.3999999761581,right,1,NA,NA,NA,NA,NA
QC6r4DY8,3087lxlj7ptluqx9bvztb5iuvan0fr,32utubmz7k9dxuk30s6o2sdrelkvbt,QC6r4DY8,2020-0188,2021-10-31,10:24:35,12:14:26,NA,incomplete,false,NA,NA,true,4,21,NA,NA,NA,right,n_s_013.jpg,blue,black,NA,NA,NA,NA,NA,NA,NA,NA,NA,NaN,NA,1735.3999999761581,right,1,NA,NA,NA,NA,NA
QC6r4DY8,3087lxlj7ptluqx9bvztb5iuvan0fr,32utubmz7k9dxuk30s6o2sdrelkvbt,QC6r4DY8,2020-0188,2021-10-31,10:24:35,12:14:26,NA,incomplete,false,NA,true,NA,4,0,NA,NA,NA,left,NA,NA,NA,present,NA,NA,n_l_105.jpg,gray,n_l_043.jpg,gray,within,NA,NaN,NA,NA,NA,NA,right,2671.300000011921,0,0,3447.599999964237
QC6r4DY8,3087lxlj7ptluqx9bvztb5iuvan0fr,32utubmz7k9dxuk30s6o2sdrelkvbt,QC6r4DY8,2020-0188,2021-10-31,10:24:35,12:14:26,NA,incomplete,false,NA,true,NA,4,1,NA,NA,NA,right,NA,NA,NA,present,NA,NA,n_l_091.jpg,gray,n_s_012.jpg,green,between,NA,NaN,NA,NA,NA,NA,right,2575,1,2,2511
QC6r4DY8,3087lxlj7ptluqx9bvztb5iuvan0fr,32utubmz7k9dxuk30s6o2sdrelkvbt,QC6r4DY8,2020-0188,2021-10-31,10:24:35,12:14:26,NA,incomplete,false,NA,true,NA,4,2,NA,NA,NA,left,NA,NA,NA,present,NA,NA,m_s_055.jpg,blue,m_l_070.jpg,brown,between,NA,NaN,NA,NA,NA,NA,left,4399.100000023842,1,1,2063.100000023842
QC6r4DY8,3087lxlj7ptluqx9bvztb5iuvan0fr,32utubmz7k9dxuk30s6o2sdrelkvbt,QC6r4DY8,2020-0188,2021-10-31,10:24:35,12:14:26,NA,incomplete,false,NA,true,NA,4,3,NA,NA,NA,right,NA,NA,NA,present,NA,NA,n_l_040.jpg,green,m_s_105.jpg,red,between,NA,NaN,NA,NA,NA,NA,right,4031.300000011921,1,2,2407.199999988079
QC6r4DY8,3087lxlj7ptluqx9bvztb5iuvan0fr,32utubmz7k9dxuk30s6o2sdrelkvbt,QC6r4DY8,2020-0188,2021-10-31,10:24:35,12:14:26,NA,incomplete,false,NA,true,NA,4,4,NA,NA,NA,left,NA,NA,NA,present,NA,NA,m_s_077.jpg,green,m_l_088.jpg,green,within,NA,NaN,NA,NA,NA,NA,left,2615.199999988079,1,1,2655.099999964237
QC6r4DY8,3087lxlj7ptluqx9bvztb5iuvan0fr,32utubmz7k9dxuk30s6o2sdrelkvbt,QC6r4DY8,2020-0188,2021-10-31,10:24:35,12:14:26,NA,incomplete,false,NA,true,NA,4,5,NA,NA,NA,right,NA,NA,NA,present,NA,NA,n_s_013.jpg,black,m_s_015.jpg,gray,between,NA,NaN,NA,NA,NA,NA,right,2895.199999988079,1,3,3511.7999999523163
QC6r4DY8,3087lxlj7ptluqx9bvztb5iuvan0fr,32utubmz7k9dxuk30s6o2sdrelkvbt,QC6r4DY8,2020-0188,2021-10-31,10:24:35,12:14:26,NA,incomplete,false,NA,true,NA,4,6,NA,NA,NA,right,NA,NA,NA,present,NA,NA,m_l_115.jpg,blue,n_s_020.jpg,blue,within,NA,NaN,NA,NA,NA,NA,left,1911.300000011921,0,0,1382.9000000357628
QC6r4DY8,3087lxlj7ptluqx9bvztb5iuvan0fr,32utubmz7k9dxuk30s6o2sdrelkvbt,QC6r4DY8,2020-0188,2021-10-31,10:24:35,12:14:26,NA,incomplete,false,NA,true,NA,4,7,NA,NA,NA,right,NA,NA,NA,present,NA,NA,n_l_115.jpg,blue,n_l_054.jpg,black,between,NA,NaN,NA,NA,NA,NA,left,2087.599999964237,0,2,2494.699999988079
QC6r4DY8,3087lxlj7ptluqx9bvztb5iuvan0fr,32utubmz7k9dxuk30s6o2sdrelkvbt,QC6r4DY8,2020-0188,2021-10-31,10:24:35,12:14:26,NA,incomplete,false,NA,true,NA,4,8,NA,NA,NA,right,NA,NA,NA,present,NA,NA,n_l_034.jpg,black,n_s_018.jpg,black,within,NA,NaN,NA,NA,NA,NA,left,2727.400000035763,0,1,1847.300000011921
QC6r4DY8,3087lxlj7ptluqx9bvztb5iuvan0fr,32utubmz7k9dxuk30s6o2sdrelkvbt,QC6r4DY8,2020-0188,2021-10-31,10:24:35,12:14:26,NA,incomplete,false,NA,true,NA,4,9,NA,NA,NA,left,NA,NA,NA,present,NA,NA,n_s_060.jpg,red,n_s_114.jpg,red,within,NA,NaN,NA,NA,NA,NA,left,2999.300000011921,1,0,1415.8999999761581
QC6r4DY8,3087lxlj7ptluqx9bvztb5iuvan0fr,32utubmz7k9dxuk30s6o2sdrelkvbt,QC6r4DY8,2020-0188,2021-10-31,10:24:35,12:14:26,NA,incomplete,false,NA,true,NA,4,10,NA,NA,NA,right,NA,NA,NA,present,NA,NA,m_s_039.jpg,brown,m_s_068.jpg,brown,within,NA,NaN,NA,NA,NA,NA,right,2007.3999999761581,1,1,1927.4000000357628
QC6r4DY8,3087lxlj7ptluqx9bvztb5iuvan0fr,32utubmz7k9dxuk30s6o2sdrelkvbt,QC6r4DY8,2020-0188,2021-10-31,10:24:35,12:14:26,NA,incomplete,false,true,NA,NA,5,0,NA,orange,m_s_049.jpg,NA,NA,NA,NA,NA,pleasant,unpleasant,NA,NA,NA,NA,NA,left,2030.40000003576,true,NA,NA,NA,NA,NA,NA,NA,NA
QC6r4DY8,3087lxlj7ptluqx9bvztb5iuvan0fr,32utubmz7k9dxuk30s6o2sdrelkvbt,QC6r4DY8,2020-0188,2021-10-31,10:24:35,12:14:26,NA,incomplete,false,true,NA,NA,5,1,NA,orange,m_l_017.jpg,NA,NA,NA,NA,NA,unpleasant,pleasant,NA,NA,NA,NA,NA,right,1827.29999995232,true,NA,NA,NA,NA,NA,NA,NA,NA
QC6r4DY8,3087lxlj7ptluqx9bvztb5iuvan0fr,32utubmz7k9dxuk30s6o2sdrelkvbt,QC6r4DY8,2020-0188,2021-10-31,10:24:35,12:14:26,NA,incomplete,false,true,NA,NA,5,2,NA,orange,m_s_025.jpg,NA,NA,NA,NA,NA,pleasant,unpleasant,NA,NA,NA,NA,NA,left,1200.5,true,NA,NA,NA,NA,NA,NA,NA,NA
QC6r4DY8,3087lxlj7ptluqx9bvztb5iuvan0fr,32utubmz7k9dxuk30s6o2sdrelkvbt,QC6r4DY8,2020-0188,2021-10-31,10:24:35,12:14:26,NA,incomplete,false,true,NA,NA,5,3,NA,orange,m_s_027.jpg,NA,NA,NA,NA,NA,pleasant,unpleasant,NA,NA,NA,NA,NA,left,1180.19999998808,true,NA,NA,NA,NA,NA,NA,NA,NA
QC6r4DY8,3087lxlj7ptluqx9bvztb5iuvan0fr,32utubmz7k9dxuk30s6o2sdrelkvbt,QC6r4DY8,2020-0188,2021-10-31,10:24:35,12:14:26,NA,incomplete,false,true,NA,NA,5,4,NA,orange,n_l_007.jpg,NA,NA,NA,NA,NA,pleasant,unpleasant,NA,NA,NA,NA,NA,left,824.5,true,NA,NA,NA,NA,NA,NA,NA,NA
QC6r4DY8,3087lxlj7ptluqx9bvztb5iuvan0fr,32utubmz7k9dxuk30s6o2sdrelkvbt,QC6r4DY8,2020-0188,2021-10-31,10:24:35,12:14:26,NA,incomplete,false,true,NA,NA,5,5,NA,orange,m_s_024.jpg,NA,NA,NA,NA,NA,pleasant,unpleasant,NA,NA,NA,NA,NA,left,684.800000011921,true,NA,NA,NA,NA,NA,NA,NA,NA
QC6r4DY8,3087lxlj7ptluqx9bvztb5iuvan0fr,32utubmz7k9dxuk30s6o2sdrelkvbt,QC6r4DY8,2020-0188,2021-10-31,10:24:35,12:14:26,NA,incomplete,false,true,NA,NA,5,6,NA,purple,m_l_076.jpg,NA,NA,NA,NA,NA,pleasant,unpleasant,NA,NA,NA,NA,NA,left,1615.89999997616,true,NA,NA,NA,NA,NA,NA,NA,NA
QC6r4DY8,3087lxlj7ptluqx9bvztb5iuvan0fr,32utubmz7k9dxuk30s6o2sdrelkvbt,QC6r4DY8,2020-0188,2021-10-31,10:24:35,12:14:26,NA,incomplete,false,true,NA,NA,5,7,NA,purple,m_s_067.jpg,NA,NA,NA,NA,NA,unpleasant,pleasant,NA,NA,NA,NA,NA,right,1701.30000001192,true,NA,NA,NA,NA,NA,NA,NA,NA
QC6r4DY8,3087lxlj7ptluqx9bvztb5iuvan0fr,32utubmz7k9dxuk30s6o2sdrelkvbt,QC6r4DY8,2020-0188,2021-10-31,10:24:35,12:14:26,NA,incomplete,false,true,NA,NA,5,8,NA,purple,n_s_054.jpg,NA,NA,NA,NA,NA,unpleasant,pleasant,NA,NA,NA,NA,NA,right,921.399999976158,true,NA,NA,NA,NA,NA,NA,NA,NA
QC6r4DY8,3087lxlj7ptluqx9bvztb5iuvan0fr,32utubmz7k9dxuk30s6o2sdrelkvbt,QC6r4DY8,2020-0188,2021-10-31,10:24:35,12:14:26,NA,incomplete,false,true,NA,NA,5,9,NA,purple,m_l_024.jpg,NA,NA,NA,NA,NA,unpleasant,pleasant,NA,NA,NA,NA,NA,right,1005.30000001192,true,NA,NA,NA,NA,NA,NA,NA,NA
QC6r4DY8,3087lxlj7ptluqx9bvztb5iuvan0fr,32utubmz7k9dxuk30s6o2sdrelkvbt,QC6r4DY8,2020-0188,2021-10-31,10:24:35,12:14:26,NA,incomplete,false,true,NA,NA,5,10,NA,purple,n_l_068.jpg,NA,NA,NA,NA,NA,unpleasant,pleasant,NA,NA,NA,NA,NA,right,913.199999988079,true,NA,NA,NA,NA,NA,NA,NA,NA
QC6r4DY8,3087lxlj7ptluqx9bvztb5iuvan0fr,32utubmz7k9dxuk30s6o2sdrelkvbt,QC6r4DY8,2020-0188,2021-10-31,10:24:35,12:14:26,NA,incomplete,false,true,NA,NA,5,11,NA,purple,n_l_047.jpg,NA,NA,NA,NA,NA,unpleasant,pleasant,NA,NA,NA,NA,NA,right,765.899999976158,true,NA,NA,NA,NA,NA,NA,NA,NA
QC6r4DY8,3087lxlj7ptluqx9bvztb5iuvan0fr,32utubmz7k9dxuk30s6o2sdrelkvbt,QC6r4DY8,2020-0188,2021-10-31,10:24:35,12:14:26,NA,incomplete,false,true,NA,NA,5,12,NA,white,n_l_022.jpg,NA,NA,NA,NA,NA,pleasant,unpleasant,NA,NA,NA,NA,NA,left,874.399999976158,true,NA,NA,NA,NA,NA,NA,NA,NA
QC6r4DY8,3087lxlj7ptluqx9bvztb5iuvan0fr,32utubmz7k9dxuk30s6o2sdrelkvbt,QC6r4DY8,2020-0188,2021-10-31,10:24:35,12:14:26,NA,incomplete,false,true,NA,NA,5,13,NA,white,n_l_004.jpg,NA,NA,NA,NA,NA,unpleasant,pleasant,NA,NA,NA,NA,NA,right,1286.40000003576,true,NA,NA,NA,NA,NA,NA,NA,NA
QC6r4DY8,3087lxlj7ptluqx9bvztb5iuvan0fr,32utubmz7k9dxuk30s6o2sdrelkvbt,QC6r4DY8,2020-0188,2021-10-31,10:24:35,12:14:26,NA,incomplete,false,true,NA,NA,5,14,NA,white,n_l_014.jpg,NA,NA,NA,NA,NA,pleasant,unpleasant,NA,NA,NA,NA,NA,left,882.899999976158,true,NA,NA,NA,NA,NA,NA,NA,NA
QC6r4DY8,3087lxlj7ptluqx9bvztb5iuvan0fr,32utubmz7k9dxuk30s6o2sdrelkvbt,QC6r4DY8,2020-0188,2021-10-31,10:24:35,12:14:26,NA,incomplete,false,true,NA,NA,5,15,NA,white,n_l_102.jpg,NA,NA,NA,NA,NA,unpleasant,pleasant,NA,NA,NA,NA,NA,right,871.199999988079,true,NA,NA,NA,NA,NA,NA,NA,NA
