workerId,hitId,assignmentId,subject,studyid,exp_date,exp_start,exp_end,time_start,time_end,practice,encoding,memory,association,block,trial,event_order,event,stim,answer,object,left_context,right_context,context_type,label_left,label_right,left_image,left_event,right_image,right_event,condition,response,response_time,response_acc,association_response_time,association_response,association_acc,order_response,order_response_time,order_acc,distance_response,distance_response_time
dBtsQQDN,39kv3a5d2bk8g62f2ek1xjbwsefs7u,32z9zlut1pxsynesz8u6tbmhd4mohs,dBtsQQDN,2020-0188,2021-10-31,07:24:32,08:49:36,NA,incomplete,true,true,NA,NA,0,0,NA,black,m_l_083.jpg,NA,NA,NA,NA,NA,pleasant,unpleasant,NA,NA,NA,NA,NA,right,1107.29999999702,true,NA,NA,NA,NA,NA,NA,NA,NA
dBtsQQDN,39kv3a5d2bk8g62f2ek1xjbwsefs7u,32z9zlut1pxsynesz8u6tbmhd4mohs,dBtsQQDN,2020-0188,2021-10-31,07:24:32,08:49:36,NA,incomplete,true,true,NA,NA,0,1,NA,black,m_s_108.jpg,NA,NA,NA,NA,NA,unpleasant,pleasant,NA,NA,NA,NA,NA,right,2753.19999999925,true,NA,NA,NA,NA,NA,NA,NA,NA
dBtsQQDN,39kv3a5d2bk8g62f2ek1xjbwsefs7u,32z9zlut1pxsynesz8u6tbmhd4mohs,dBtsQQDN,2020-0188,2021-10-31,07:24:32,08:49:36,NA,incomplete,true,true,NA,NA,0,2,NA,black,m_s_060.jpg,NA,NA,NA,NA,NA,pleasant,unpleasant,NA,NA,NA,NA,NA,left,1348.30000000075,true,NA,NA,NA,NA,NA,NA,NA,NA
dBtsQQDN,39kv3a5d2bk8g62f2ek1xjbwsefs7u,32z9zlut1pxsynesz8u6tbmhd4mohs,dBtsQQDN,2020-0188,2021-10-31,07:24:32,08:49:36,NA,incomplete,true,true,NA,NA,0,3,NA,black,m_l_108.jpg,NA,NA,NA,NA,NA,pleasant,unpleasant,NA,NA,NA,NA,NA,left,1529.40000000224,true,NA,NA,NA,NA,NA,NA,NA,NA
dBtsQQDN,39kv3a5d2bk8g62f2ek1xjbwsefs7u,32z9zlut1pxsynesz8u6tbmhd4mohs,dBtsQQDN,2020-0188,2021-10-31,07:24:32,08:49:36,NA,incomplete,true,true,NA,NA,0,4,NA,black,n_s_022.jpg,NA,NA,NA,NA,NA,pleasant,unpleasant,NA,NA,NA,NA,NA,left,1271.70000000298,true,NA,NA,NA,NA,NA,NA,NA,NA
dBtsQQDN,39kv3a5d2bk8g62f2ek1xjbwsefs7u,32z9zlut1pxsynesz8u6tbmhd4mohs,dBtsQQDN,2020-0188,2021-10-31,07:24:32,08:49:36,NA,incomplete,true,true,NA,NA,0,5,NA,black,m_l_100.jpg,NA,NA,NA,NA,NA,unpleasant,pleasant,NA,NA,NA,NA,NA,right,1827.80000000075,true,NA,NA,NA,NA,NA,NA,NA,NA
dBtsQQDN,39kv3a5d2bk8g62f2ek1xjbwsefs7u,32z9zlut1pxsynesz8u6tbmhd4mohs,dBtsQQDN,2020-0188,2021-10-31,07:24:32,08:49:36,NA,incomplete,true,true,NA,NA,0,6,NA,white,m_s_110.jpg,NA,NA,NA,NA,NA,unpleasant,pleasant,NA,NA,NA,NA,NA,right,1782,true,NA,NA,NA,NA,NA,NA,NA,NA
dBtsQQDN,39kv3a5d2bk8g62f2ek1xjbwsefs7u,32z9zlut1pxsynesz8u6tbmhd4mohs,dBtsQQDN,2020-0188,2021-10-31,07:24:32,08:49:36,NA,incomplete,true,true,NA,NA,0,7,NA,white,m_l_021.jpg,NA,NA,NA,NA,NA,unpleasant,pleasant,NA,NA,NA,NA,NA,right,1312.89999999851,true,NA,NA,NA,NA,NA,NA,NA,NA
dBtsQQDN,39kv3a5d2bk8g62f2ek1xjbwsefs7u,32z9zlut1pxsynesz8u6tbmhd4mohs,dBtsQQDN,2020-0188,2021-10-31,07:24:32,08:49:36,NA,incomplete,true,true,NA,NA,0,8,NA,white,n_s_048.jpg,NA,NA,NA,NA,NA,unpleasant,pleasant,NA,NA,NA,NA,NA,right,1769,true,NA,NA,NA,NA,NA,NA,NA,NA
dBtsQQDN,39kv3a5d2bk8g62f2ek1xjbwsefs7u,32z9zlut1pxsynesz8u6tbmhd4mohs,dBtsQQDN,2020-0188,2021-10-31,07:24:32,08:49:36,NA,incomplete,true,true,NA,NA,0,9,NA,white,n_s_046.jpg,NA,NA,NA,NA,NA,pleasant,unpleasant,NA,NA,NA,NA,NA,right,1982.90000000224,true,NA,NA,NA,NA,NA,NA,NA,NA
dBtsQQDN,39kv3a5d2bk8g62f2ek1xjbwsefs7u,32z9zlut1pxsynesz8u6tbmhd4mohs,dBtsQQDN,2020-0188,2021-10-31,07:24:32,08:49:36,NA,incomplete,true,true,NA,NA,0,10,NA,white,m_l_070.jpg,NA,NA,NA,NA,NA,pleasant,unpleasant,NA,NA,NA,NA,NA,right,1571.10000000149,true,NA,NA,NA,NA,NA,NA,NA,NA
dBtsQQDN,39kv3a5d2bk8g62f2ek1xjbwsefs7u,32z9zlut1pxsynesz8u6tbmhd4mohs,dBtsQQDN,2020-0188,2021-10-31,07:24:32,08:49:36,NA,incomplete,true,true,NA,NA,0,11,NA,white,n_s_016.jpg,NA,NA,NA,NA,NA,pleasant,unpleasant,NA,NA,NA,NA,NA,right,1376.30000000075,true,NA,NA,NA,NA,NA,NA,NA,NA
dBtsQQDN,39kv3a5d2bk8g62f2ek1xjbwsefs7u,32z9zlut1pxsynesz8u6tbmhd4mohs,dBtsQQDN,2020-0188,2021-10-31,07:24:32,08:49:36,NA,incomplete,true,true,NA,NA,0,12,NA,orange,m_s_111.jpg,NA,NA,NA,NA,NA,pleasant,unpleasant,NA,NA,NA,NA,NA,right,1451.10000000149,true,NA,NA,NA,NA,NA,NA,NA,NA
dBtsQQDN,39kv3a5d2bk8g62f2ek1xjbwsefs7u,32z9zlut1pxsynesz8u6tbmhd4mohs,dBtsQQDN,2020-0188,2021-10-31,07:24:32,08:49:36,NA,incomplete,true,true,NA,NA,0,13,NA,orange,n_l_065.jpg,NA,NA,NA,NA,NA,unpleasant,pleasant,NA,NA,NA,NA,NA,right,1417.20000000298,true,NA,NA,NA,NA,NA,NA,NA,NA
dBtsQQDN,39kv3a5d2bk8g62f2ek1xjbwsefs7u,32z9zlut1pxsynesz8u6tbmhd4mohs,dBtsQQDN,2020-0188,2021-10-31,07:24:32,08:49:36,NA,incomplete,true,true,NA,NA,0,14,NA,orange,m_s_054.jpg,NA,NA,NA,NA,NA,pleasant,unpleasant,NA,NA,NA,NA,NA,right,1694.60000000149,true,NA,NA,NA,NA,NA,NA,NA,NA
dBtsQQDN,39kv3a5d2bk8g62f2ek1xjbwsefs7u,32z9zlut1pxsynesz8u6tbmhd4mohs,dBtsQQDN,2020-0188,2021-10-31,07:24:32,08:49:36,NA,incomplete,true,true,NA,NA,0,15,NA,orange,n_l_031.jpg,NA,NA,NA,NA,NA,pleasant,unpleasant,NA,NA,NA,NA,NA,left,1089.30000000075,true,NA,NA,NA,NA,NA,NA,NA,NA
dBtsQQDN,39kv3a5d2bk8g62f2ek1xjbwsefs7u,32z9zlut1pxsynesz8u6tbmhd4mohs,dBtsQQDN,2020-0188,2021-10-31,07:24:32,08:49:36,NA,incomplete,true,true,NA,NA,0,16,NA,orange,m_l_051.jpg,NA,NA,NA,NA,NA,unpleasant,pleasant,NA,NA,NA,NA,NA,right,1564.5,true,NA,NA,NA,NA,NA,NA,NA,NA
dBtsQQDN,39kv3a5d2bk8g62f2ek1xjbwsefs7u,32z9zlut1pxsynesz8u6tbmhd4mohs,dBtsQQDN,2020-0188,2021-10-31,07:24:32,08:49:36,NA,incomplete,true,true,NA,NA,0,17,NA,orange,n_l_092.jpg,NA,NA,NA,NA,NA,unpleasant,pleasant,NA,NA,NA,NA,NA,right,1550.5,true,NA,NA,NA,NA,NA,NA,NA,NA
dBtsQQDN,39kv3a5d2bk8g62f2ek1xjbwsefs7u,32z9zlut1pxsynesz8u6tbmhd4mohs,dBtsQQDN,2020-0188,2021-10-31,07:24:32,08:49:36,NA,incomplete,true,true,NA,NA,0,18,NA,brown,m_s_001.jpg,NA,NA,NA,NA,NA,unpleasant,pleasant,NA,NA,NA,NA,NA,left,1596.39999999851,true,NA,NA,NA,NA,NA,NA,NA,NA
dBtsQQDN,39kv3a5d2bk8g62f2ek1xjbwsefs7u,32z9zlut1pxsynesz8u6tbmhd4mohs,dBtsQQDN,2020-0188,2021-10-31,07:24:32,08:49:36,NA,incomplete,true,true,NA,NA,0,19,NA,brown,m_l_027.jpg,NA,NA,NA,NA,NA,unpleasant,pleasant,NA,NA,NA,NA,NA,left,1570.30000000075,true,NA,NA,NA,NA,NA,NA,NA,NA
dBtsQQDN,39kv3a5d2bk8g62f2ek1xjbwsefs7u,32z9zlut1pxsynesz8u6tbmhd4mohs,dBtsQQDN,2020-0188,2021-10-31,07:24:32,08:49:36,NA,incomplete,true,true,NA,NA,0,20,NA,brown,m_l_076.jpg,NA,NA,NA,NA,NA,unpleasant,pleasant,NA,NA,NA,NA,NA,left,964.89999999851,true,NA,NA,NA,NA,NA,NA,NA,NA
dBtsQQDN,39kv3a5d2bk8g62f2ek1xjbwsefs7u,32z9zlut1pxsynesz8u6tbmhd4mohs,dBtsQQDN,2020-0188,2021-10-31,07:24:32,08:49:36,NA,incomplete,true,true,NA,NA,0,21,NA,brown,n_l_052.jpg,NA,NA,NA,NA,NA,unpleasant,pleasant,NA,NA,NA,NA,NA,right,1831,true,NA,NA,NA,NA,NA,NA,NA,NA
dBtsQQDN,39kv3a5d2bk8g62f2ek1xjbwsefs7u,32z9zlut1pxsynesz8u6tbmhd4mohs,dBtsQQDN,2020-0188,2021-10-31,07:24:32,08:49:36,NA,incomplete,true,true,NA,NA,0,22,NA,brown,m_l_025.jpg,NA,NA,NA,NA,NA,pleasant,unpleasant,NA,NA,NA,NA,NA,right,1687,true,NA,NA,NA,NA,NA,NA,NA,NA
dBtsQQDN,39kv3a5d2bk8g62f2ek1xjbwsefs7u,32z9zlut1pxsynesz8u6tbmhd4mohs,dBtsQQDN,2020-0188,2021-10-31,07:24:32,08:49:36,NA,incomplete,true,true,NA,NA,0,23,NA,brown,n_s_103.jpg,NA,NA,NA,NA,NA,unpleasant,pleasant,NA,NA,NA,NA,NA,left,1949.39999999851,true,NA,NA,NA,NA,NA,NA,NA,NA
dBtsQQDN,39kv3a5d2bk8g62f2ek1xjbwsefs7u,32z9zlut1pxsynesz8u6tbmhd4mohs,dBtsQQDN,2020-0188,2021-10-31,07:24:32,08:49:36,NA,incomplete,true,true,NA,NA,0,24,NA,green,m_s_071.jpg,NA,NA,NA,NA,NA,unpleasant,pleasant,NA,NA,NA,NA,NA,left,1464.39999999851,true,NA,NA,NA,NA,NA,NA,NA,NA
dBtsQQDN,39kv3a5d2bk8g62f2ek1xjbwsefs7u,32z9zlut1pxsynesz8u6tbmhd4mohs,dBtsQQDN,2020-0188,2021-10-31,07:24:32,08:49:36,NA,incomplete,true,true,NA,NA,0,25,NA,green,m_s_070.jpg,NA,NA,NA,NA,NA,unpleasant,pleasant,NA,NA,NA,NA,NA,left,1845.69999999925,true,NA,NA,NA,NA,NA,NA,NA,NA
dBtsQQDN,39kv3a5d2bk8g62f2ek1xjbwsefs7u,32z9zlut1pxsynesz8u6tbmhd4mohs,dBtsQQDN,2020-0188,2021-10-31,07:24:32,08:49:36,NA,incomplete,true,true,NA,NA,0,26,NA,green,m_s_017.jpg,NA,NA,NA,NA,NA,pleasant,unpleasant,NA,NA,NA,NA,NA,right,1659.5,true,NA,NA,NA,NA,NA,NA,NA,NA
dBtsQQDN,39kv3a5d2bk8g62f2ek1xjbwsefs7u,32z9zlut1pxsynesz8u6tbmhd4mohs,dBtsQQDN,2020-0188,2021-10-31,07:24:32,08:49:36,NA,incomplete,true,true,NA,NA,0,27,NA,green,m_s_018.jpg,NA,NA,NA,NA,NA,pleasant,unpleasant,NA,NA,NA,NA,NA,left,1784,true,NA,NA,NA,NA,NA,NA,NA,NA
dBtsQQDN,39kv3a5d2bk8g62f2ek1xjbwsefs7u,32z9zlut1pxsynesz8u6tbmhd4mohs,dBtsQQDN,2020-0188,2021-10-31,07:24:32,08:49:36,NA,incomplete,true,true,NA,NA,0,28,NA,green,n_l_061.jpg,NA,NA,NA,NA,NA,pleasant,unpleasant,NA,NA,NA,NA,NA,left,1456.5,true,NA,NA,NA,NA,NA,NA,NA,NA
dBtsQQDN,39kv3a5d2bk8g62f2ek1xjbwsefs7u,32z9zlut1pxsynesz8u6tbmhd4mohs,dBtsQQDN,2020-0188,2021-10-31,07:24:32,08:49:36,NA,incomplete,true,true,NA,NA,0,29,NA,green,m_l_005.jpg,NA,NA,NA,NA,NA,pleasant,unpleasant,NA,NA,NA,NA,NA,left,1780.10000000149,true,NA,NA,NA,NA,NA,NA,NA,NA
dBtsQQDN,39kv3a5d2bk8g62f2ek1xjbwsefs7u,32z9zlut1pxsynesz8u6tbmhd4mohs,dBtsQQDN,2020-0188,2021-10-31,07:24:32,08:49:36,NA,incomplete,true,true,NA,NA,0,30,NA,yellow,m_s_013.jpg,NA,NA,NA,NA,NA,unpleasant,pleasant,NA,NA,NA,NA,NA,right,1291.79999999702,true,NA,NA,NA,NA,NA,NA,NA,NA
dBtsQQDN,39kv3a5d2bk8g62f2ek1xjbwsefs7u,32z9zlut1pxsynesz8u6tbmhd4mohs,dBtsQQDN,2020-0188,2021-10-31,07:24:32,08:49:36,NA,incomplete,true,true,NA,NA,0,31,NA,yellow,n_s_092.jpg,NA,NA,NA,NA,NA,pleasant,unpleasant,NA,NA,NA,NA,NA,left,1434.10000000149,true,NA,NA,NA,NA,NA,NA,NA,NA
dBtsQQDN,39kv3a5d2bk8g62f2ek1xjbwsefs7u,32z9zlut1pxsynesz8u6tbmhd4mohs,dBtsQQDN,2020-0188,2021-10-31,07:24:32,08:49:36,NA,incomplete,true,true,NA,NA,0,32,NA,yellow,m_l_016.jpg,NA,NA,NA,NA,NA,unpleasant,pleasant,NA,NA,NA,NA,NA,right,1194.89999999851,true,NA,NA,NA,NA,NA,NA,NA,NA
dBtsQQDN,39kv3a5d2bk8g62f2ek1xjbwsefs7u,32z9zlut1pxsynesz8u6tbmhd4mohs,dBtsQQDN,2020-0188,2021-10-31,07:24:32,08:49:36,NA,incomplete,true,true,NA,NA,0,33,NA,yellow,m_s_098.jpg,NA,NA,NA,NA,NA,pleasant,unpleasant,NA,NA,NA,NA,NA,left,1209.30000000075,true,NA,NA,NA,NA,NA,NA,NA,NA
dBtsQQDN,39kv3a5d2bk8g62f2ek1xjbwsefs7u,32z9zlut1pxsynesz8u6tbmhd4mohs,dBtsQQDN,2020-0188,2021-10-31,07:24:32,08:49:36,NA,incomplete,true,true,NA,NA,0,34,NA,yellow,n_l_011.jpg,NA,NA,NA,NA,NA,pleasant,unpleasant,NA,NA,NA,NA,NA,left,1097,true,NA,NA,NA,NA,NA,NA,NA,NA
dBtsQQDN,39kv3a5d2bk8g62f2ek1xjbwsefs7u,32z9zlut1pxsynesz8u6tbmhd4mohs,dBtsQQDN,2020-0188,2021-10-31,07:24:32,08:49:36,NA,incomplete,true,true,NA,NA,0,35,NA,yellow,m_l_111.jpg,NA,NA,NA,NA,NA,pleasant,unpleasant,NA,NA,NA,NA,NA,left,1236.10000000149,true,NA,NA,NA,NA,NA,NA,NA,NA
dBtsQQDN,39kv3a5d2bk8g62f2ek1xjbwsefs7u,32z9zlut1pxsynesz8u6tbmhd4mohs,dBtsQQDN,2020-0188,2021-10-31,07:24:32,08:49:36,NA,incomplete,true,NA,NA,true,0,0,NA,NA,NA,right,n_s_092.jpg,green,yellow,NA,NA,NA,NA,NA,NA,NA,NA,NA,NaN,NA,2368.39999999851,right,1,NA,NA,NA,NA,NA
dBtsQQDN,39kv3a5d2bk8g62f2ek1xjbwsefs7u,32z9zlut1pxsynesz8u6tbmhd4mohs,dBtsQQDN,2020-0188,2021-10-31,07:24:32,08:49:36,NA,incomplete,true,NA,NA,true,0,1,NA,NA,NA,left,n_s_048.jpg,white,orange,NA,NA,NA,NA,NA,NA,NA,NA,NA,NaN,NA,3164.300000000745,right,0,NA,NA,NA,NA,NA
dBtsQQDN,39kv3a5d2bk8g62f2ek1xjbwsefs7u,32z9zlut1pxsynesz8u6tbmhd4mohs,dBtsQQDN,2020-0188,2021-10-31,07:24:32,08:49:36,NA,incomplete,true,NA,NA,true,0,2,NA,NA,NA,left,m_l_005.jpg,green,yellow,NA,NA,NA,NA,NA,NA,NA,NA,NA,NaN,NA,1874.3999999985099,left,1,NA,NA,NA,NA,NA
dBtsQQDN,39kv3a5d2bk8g62f2ek1xjbwsefs7u,32z9zlut1pxsynesz8u6tbmhd4mohs,dBtsQQDN,2020-0188,2021-10-31,07:24:32,08:49:36,NA,incomplete,true,NA,NA,true,0,3,NA,NA,NA,left,n_s_022.jpg,black,white,NA,NA,NA,NA,NA,NA,NA,NA,NA,NaN,NA,2914.2999999970198,right,0,NA,NA,NA,NA,NA
dBtsQQDN,39kv3a5d2bk8g62f2ek1xjbwsefs7u,32z9zlut1pxsynesz8u6tbmhd4mohs,dBtsQQDN,2020-0188,2021-10-31,07:24:32,08:49:36,NA,incomplete,true,NA,NA,true,0,4,NA,NA,NA,left,m_s_070.jpg,green,brown,NA,NA,NA,NA,NA,NA,NA,NA,NA,NaN,NA,2348.900000002235,left,1,NA,NA,NA,NA,NA
dBtsQQDN,39kv3a5d2bk8g62f2ek1xjbwsefs7u,32z9zlut1pxsynesz8u6tbmhd4mohs,dBtsQQDN,2020-0188,2021-10-31,07:24:32,08:49:36,NA,incomplete,true,NA,NA,true,0,5,NA,NA,NA,left,m_l_021.jpg,white,orange,NA,NA,NA,NA,NA,NA,NA,NA,NA,NaN,NA,1738.800000000745,left,1,NA,NA,NA,NA,NA
dBtsQQDN,39kv3a5d2bk8g62f2ek1xjbwsefs7u,32z9zlut1pxsynesz8u6tbmhd4mohs,dBtsQQDN,2020-0188,2021-10-31,07:24:32,08:49:36,NA,incomplete,true,NA,NA,true,0,6,NA,NA,NA,left,m_l_070.jpg,white,orange,NA,NA,NA,NA,NA,NA,NA,NA,NA,NaN,NA,2741.699999999255,left,1,NA,NA,NA,NA,NA
dBtsQQDN,39kv3a5d2bk8g62f2ek1xjbwsefs7u,32z9zlut1pxsynesz8u6tbmhd4mohs,dBtsQQDN,2020-0188,2021-10-31,07:24:32,08:49:36,NA,incomplete,true,NA,NA,true,0,7,NA,NA,NA,left,m_l_100.jpg,black,white,NA,NA,NA,NA,NA,NA,NA,NA,NA,NaN,NA,2442.2999999970198,right,0,NA,NA,NA,NA,NA
dBtsQQDN,39kv3a5d2bk8g62f2ek1xjbwsefs7u,32z9zlut1pxsynesz8u6tbmhd4mohs,dBtsQQDN,2020-0188,2021-10-31,07:24:32,08:49:36,NA,incomplete,true,NA,NA,true,0,8,NA,NA,NA,right,m_s_108.jpg,white,black,NA,NA,NA,NA,NA,NA,NA,NA,NA,NaN,NA,2416.60000000149,left,0,NA,NA,NA,NA,NA
dBtsQQDN,39kv3a5d2bk8g62f2ek1xjbwsefs7u,32z9zlut1pxsynesz8u6tbmhd4mohs,dBtsQQDN,2020-0188,2021-10-31,07:24:32,08:49:36,NA,incomplete,true,NA,NA,true,0,9,NA,NA,NA,right,m_l_025.jpg,green,brown,NA,NA,NA,NA,NA,NA,NA,NA,NA,NaN,NA,2809.5,right,1,NA,NA,NA,NA,NA
dBtsQQDN,39kv3a5d2bk8g62f2ek1xjbwsefs7u,32z9zlut1pxsynesz8u6tbmhd4mohs,dBtsQQDN,2020-0188,2021-10-31,07:24:32,08:49:36,NA,incomplete,true,NA,NA,true,0,10,NA,NA,NA,left,m_l_076.jpg,brown,green,NA,NA,NA,NA,NA,NA,NA,NA,NA,NaN,NA,2807.5,left,1,NA,NA,NA,NA,NA
dBtsQQDN,39kv3a5d2bk8g62f2ek1xjbwsefs7u,32z9zlut1pxsynesz8u6tbmhd4mohs,dBtsQQDN,2020-0188,2021-10-31,07:24:32,08:49:36,NA,incomplete,true,NA,NA,true,0,11,NA,NA,NA,left,n_l_061.jpg,green,yellow,NA,NA,NA,NA,NA,NA,NA,NA,NA,NaN,NA,1556.800000000745,right,0,NA,NA,NA,NA,NA
dBtsQQDN,39kv3a5d2bk8g62f2ek1xjbwsefs7u,32z9zlut1pxsynesz8u6tbmhd4mohs,dBtsQQDN,2020-0188,2021-10-31,07:24:32,08:49:36,NA,incomplete,true,NA,NA,true,0,12,NA,NA,NA,left,n_l_065.jpg,orange,brown,NA,NA,NA,NA,NA,NA,NA,NA,NA,NaN,NA,3279.300000000745,left,1,NA,NA,NA,NA,NA
dBtsQQDN,39kv3a5d2bk8g62f2ek1xjbwsefs7u,32z9zlut1pxsynesz8u6tbmhd4mohs,dBtsQQDN,2020-0188,2021-10-31,07:24:32,08:49:36,NA,incomplete,true,NA,NA,true,0,13,NA,NA,NA,left,m_l_027.jpg,brown,green,NA,NA,NA,NA,NA,NA,NA,NA,NA,NaN,NA,3400.199999999255,right,0,NA,NA,NA,NA,NA
dBtsQQDN,39kv3a5d2bk8g62f2ek1xjbwsefs7u,32z9zlut1pxsynesz8u6tbmhd4mohs,dBtsQQDN,2020-0188,2021-10-31,07:24:32,08:49:36,NA,incomplete,true,NA,NA,true,0,14,NA,NA,NA,right,m_l_111.jpg,green,yellow,NA,NA,NA,NA,NA,NA,NA,NA,NA,NaN,NA,2311.599999997765,right,1,NA,NA,NA,NA,NA
dBtsQQDN,39kv3a5d2bk8g62f2ek1xjbwsefs7u,32z9zlut1pxsynesz8u6tbmhd4mohs,dBtsQQDN,2020-0188,2021-10-31,07:24:32,08:49:36,NA,incomplete,true,NA,NA,true,0,15,NA,NA,NA,left,n_l_092.jpg,orange,brown,NA,NA,NA,NA,NA,NA,NA,NA,NA,NaN,NA,3521,left,1,NA,NA,NA,NA,NA
dBtsQQDN,39kv3a5d2bk8g62f2ek1xjbwsefs7u,32z9zlut1pxsynesz8u6tbmhd4mohs,dBtsQQDN,2020-0188,2021-10-31,07:24:32,08:49:36,NA,incomplete,true,NA,NA,true,0,16,NA,NA,NA,left,m_l_016.jpg,yellow,green,NA,NA,NA,NA,NA,NA,NA,NA,NA,NaN,NA,2574.800000000745,left,1,NA,NA,NA,NA,NA
dBtsQQDN,39kv3a5d2bk8g62f2ek1xjbwsefs7u,32z9zlut1pxsynesz8u6tbmhd4mohs,dBtsQQDN,2020-0188,2021-10-31,07:24:32,08:49:36,NA,incomplete,true,NA,NA,true,0,17,NA,NA,NA,left,m_s_054.jpg,orange,white,NA,NA,NA,NA,NA,NA,NA,NA,NA,NaN,NA,2962.39999999851,right,0,NA,NA,NA,NA,NA
dBtsQQDN,39kv3a5d2bk8g62f2ek1xjbwsefs7u,32z9zlut1pxsynesz8u6tbmhd4mohs,dBtsQQDN,2020-0188,2021-10-31,07:24:32,08:49:36,NA,incomplete,true,NA,NA,true,0,18,NA,NA,NA,left,n_s_103.jpg,brown,orange,NA,NA,NA,NA,NA,NA,NA,NA,NA,NaN,NA,4763.699999999255,right,0,NA,NA,NA,NA,NA
dBtsQQDN,39kv3a5d2bk8g62f2ek1xjbwsefs7u,32z9zlut1pxsynesz8u6tbmhd4mohs,dBtsQQDN,2020-0188,2021-10-31,07:24:32,08:49:36,NA,incomplete,true,NA,NA,true,0,19,NA,NA,NA,left,n_s_016.jpg,white,black,NA,NA,NA,NA,NA,NA,NA,NA,NA,NaN,NA,4469.10000000149,left,1,NA,NA,NA,NA,NA
dBtsQQDN,39kv3a5d2bk8g62f2ek1xjbwsefs7u,32z9zlut1pxsynesz8u6tbmhd4mohs,dBtsQQDN,2020-0188,2021-10-31,07:24:32,08:49:36,NA,incomplete,true,NA,NA,true,0,20,NA,NA,NA,right,m_s_017.jpg,brown,green,NA,NA,NA,NA,NA,NA,NA,NA,NA,NaN,NA,1581.1000000014901,right,1,NA,NA,NA,NA,NA
dBtsQQDN,39kv3a5d2bk8g62f2ek1xjbwsefs7u,32z9zlut1pxsynesz8u6tbmhd4mohs,dBtsQQDN,2020-0188,2021-10-31,07:24:32,08:49:36,NA,incomplete,true,NA,NA,true,0,21,NA,NA,NA,left,m_l_051.jpg,orange,white,NA,NA,NA,NA,NA,NA,NA,NA,NA,NaN,NA,3272.199999999255,right,0,NA,NA,NA,NA,NA
dBtsQQDN,39kv3a5d2bk8g62f2ek1xjbwsefs7u,32z9zlut1pxsynesz8u6tbmhd4mohs,dBtsQQDN,2020-0188,2021-10-31,07:24:32,08:49:36,NA,incomplete,true,NA,true,NA,0,0,NA,NA,NA,right,NA,NA,NA,absent,NA,NA,n_s_103.jpg,brown,m_l_027.jpg,brown,within,NA,NaN,NA,NA,NA,NA,right,4912.5,1,1,5467
dBtsQQDN,39kv3a5d2bk8g62f2ek1xjbwsefs7u,32z9zlut1pxsynesz8u6tbmhd4mohs,dBtsQQDN,2020-0188,2021-10-31,07:24:32,08:49:36,NA,incomplete,true,NA,true,NA,0,1,NA,NA,NA,left,NA,NA,NA,absent,NA,NA,m_l_021.jpg,white,n_s_016.jpg,white,within,NA,NaN,NA,NA,NA,NA,left,4716.60000000149,1,1,1725.0999999977648
dBtsQQDN,39kv3a5d2bk8g62f2ek1xjbwsefs7u,32z9zlut1pxsynesz8u6tbmhd4mohs,dBtsQQDN,2020-0188,2021-10-31,07:24:32,08:49:36,NA,incomplete,true,NA,true,NA,0,2,NA,NA,NA,left,NA,NA,NA,absent,NA,NA,m_s_070.jpg,green,m_l_005.jpg,green,within,NA,NaN,NA,NA,NA,NA,left,4484.800000000745,1,2,5266.099999997765
dBtsQQDN,39kv3a5d2bk8g62f2ek1xjbwsefs7u,32z9zlut1pxsynesz8u6tbmhd4mohs,dBtsQQDN,2020-0188,2021-10-31,07:24:32,08:49:36,NA,incomplete,true,NA,true,NA,0,3,NA,NA,NA,left,NA,NA,NA,absent,NA,NA,m_l_051.jpg,orange,m_l_076.jpg,brown,between,NA,NaN,NA,NA,NA,NA,left,7148.89999999851,1,2,2021.5999999977648
dBtsQQDN,39kv3a5d2bk8g62f2ek1xjbwsefs7u,32z9zlut1pxsynesz8u6tbmhd4mohs,dBtsQQDN,2020-0188,2021-10-31,07:24:32,08:49:36,NA,incomplete,true,NA,true,NA,0,4,NA,NA,NA,left,NA,NA,NA,absent,NA,NA,n_l_061.jpg,green,m_l_016.jpg,yellow,between,NA,NaN,NA,NA,NA,NA,left,5508.699999999255,1,2,2211.60000000149
dBtsQQDN,39kv3a5d2bk8g62f2ek1xjbwsefs7u,32z9zlut1pxsynesz8u6tbmhd4mohs,dBtsQQDN,2020-0188,2021-10-31,07:24:32,08:49:36,NA,incomplete,true,NA,true,NA,0,5,NA,NA,NA,left,NA,NA,NA,absent,NA,NA,n_s_022.jpg,black,n_s_048.jpg,white,between,NA,NaN,NA,NA,NA,NA,right,6000.800000000745,0,2,1298
dBtsQQDN,39kv3a5d2bk8g62f2ek1xjbwsefs7u,32z9zlut1pxsynesz8u6tbmhd4mohs,dBtsQQDN,2020-0188,2021-10-31,07:24:32,08:49:36,NA,incomplete,true,NA,true,NA,0,6,NA,NA,NA,right,NA,NA,NA,absent,NA,NA,n_l_092.jpg,orange,n_l_065.jpg,orange,within,NA,NaN,NA,NA,NA,NA,right,3011.5,1,2,1993.3999999985099
dBtsQQDN,39kv3a5d2bk8g62f2ek1xjbwsefs7u,32z9zlut1pxsynesz8u6tbmhd4mohs,dBtsQQDN,2020-0188,2021-10-31,07:24:32,08:49:36,NA,incomplete,true,NA,true,NA,0,7,NA,NA,NA,right,NA,NA,NA,absent,NA,NA,m_l_100.jpg,black,m_s_108.jpg,black,within,NA,NaN,NA,NA,NA,NA,right,2001.6000000014901,1,2,1387
dBtsQQDN,39kv3a5d2bk8g62f2ek1xjbwsefs7u,32z9zlut1pxsynesz8u6tbmhd4mohs,dBtsQQDN,2020-0188,2021-10-31,07:24:32,08:49:36,NA,incomplete,true,NA,true,NA,0,8,NA,NA,NA,left,NA,NA,NA,absent,NA,NA,m_l_025.jpg,brown,m_s_017.jpg,green,between,NA,NaN,NA,NA,NA,NA,left,4562.5,1,2,1285.300000000745
dBtsQQDN,39kv3a5d2bk8g62f2ek1xjbwsefs7u,32z9zlut1pxsynesz8u6tbmhd4mohs,dBtsQQDN,2020-0188,2021-10-31,07:24:32,08:49:36,NA,incomplete,true,NA,true,NA,0,9,NA,NA,NA,right,NA,NA,NA,absent,NA,NA,m_l_111.jpg,yellow,n_s_092.jpg,yellow,within,NA,NaN,NA,NA,NA,NA,left,3336.89999999851,0,2,1468.8999999985099
dBtsQQDN,39kv3a5d2bk8g62f2ek1xjbwsefs7u,32z9zlut1pxsynesz8u6tbmhd4mohs,dBtsQQDN,2020-0188,2021-10-31,07:24:32,08:49:36,NA,incomplete,true,NA,true,NA,0,10,NA,NA,NA,left,NA,NA,NA,absent,NA,NA,m_l_070.jpg,white,m_s_054.jpg,orange,between,NA,NaN,NA,NA,NA,NA,left,3249.800000000745,1,2,1015.4000000022352
dBtsQQDN,39kv3a5d2bk8g62f2ek1xjbwsefs7u,32z9zlut1pxsynesz8u6tbmhd4mohs,dBtsQQDN,2020-0188,2021-10-31,07:24:32,08:49:36,NA,incomplete,false,true,NA,NA,1,0,NA,gray,m_l_092.jpg,NA,NA,NA,NA,NA,unpleasant,pleasant,NA,NA,NA,NA,NA,right,1599,true,NA,NA,NA,NA,NA,NA,NA,NA
dBtsQQDN,39kv3a5d2bk8g62f2ek1xjbwsefs7u,32z9zlut1pxsynesz8u6tbmhd4mohs,dBtsQQDN,2020-0188,2021-10-31,07:24:32,08:49:36,NA,incomplete,false,true,NA,NA,1,1,NA,gray,n_l_022.jpg,NA,NA,NA,NA,NA,pleasant,unpleasant,NA,NA,NA,NA,NA,right,2259.59999999776,true,NA,NA,NA,NA,NA,NA,NA,NA
dBtsQQDN,39kv3a5d2bk8g62f2ek1xjbwsefs7u,32z9zlut1pxsynesz8u6tbmhd4mohs,dBtsQQDN,2020-0188,2021-10-31,07:24:32,08:49:36,NA,incomplete,false,true,NA,NA,1,2,NA,gray,m_l_038.jpg,NA,NA,NA,NA,NA,unpleasant,pleasant,NA,NA,NA,NA,NA,left,1839.80000000075,true,NA,NA,NA,NA,NA,NA,NA,NA
dBtsQQDN,39kv3a5d2bk8g62f2ek1xjbwsefs7u,32z9zlut1pxsynesz8u6tbmhd4mohs,dBtsQQDN,2020-0188,2021-10-31,07:24:32,08:49:36,NA,incomplete,false,true,NA,NA,1,3,NA,gray,n_s_031.jpg,NA,NA,NA,NA,NA,pleasant,unpleasant,NA,NA,NA,NA,NA,left,2191.90000000224,true,NA,NA,NA,NA,NA,NA,NA,NA
dBtsQQDN,39kv3a5d2bk8g62f2ek1xjbwsefs7u,32z9zlut1pxsynesz8u6tbmhd4mohs,dBtsQQDN,2020-0188,2021-10-31,07:24:32,08:49:36,NA,incomplete,false,true,NA,NA,1,4,NA,gray,m_l_029.jpg,NA,NA,NA,NA,NA,unpleasant,pleasant,NA,NA,NA,NA,NA,right,2104.5,true,NA,NA,NA,NA,NA,NA,NA,NA
dBtsQQDN,39kv3a5d2bk8g62f2ek1xjbwsefs7u,32z9zlut1pxsynesz8u6tbmhd4mohs,dBtsQQDN,2020-0188,2021-10-31,07:24:32,08:49:36,NA,incomplete,false,true,NA,NA,1,5,NA,gray,n_s_044.jpg,NA,NA,NA,NA,NA,pleasant,unpleasant,NA,NA,NA,NA,NA,left,2509.60000000149,true,NA,NA,NA,NA,NA,NA,NA,NA
dBtsQQDN,39kv3a5d2bk8g62f2ek1xjbwsefs7u,32z9zlut1pxsynesz8u6tbmhd4mohs,dBtsQQDN,2020-0188,2021-10-31,07:24:32,08:49:36,NA,incomplete,false,true,NA,NA,1,6,NA,yellow,m_l_068.jpg,NA,NA,NA,NA,NA,unpleasant,pleasant,NA,NA,NA,NA,NA,right,1696.19999999925,true,NA,NA,NA,NA,NA,NA,NA,NA
dBtsQQDN,39kv3a5d2bk8g62f2ek1xjbwsefs7u,32z9zlut1pxsynesz8u6tbmhd4mohs,dBtsQQDN,2020-0188,2021-10-31,07:24:32,08:49:36,NA,incomplete,false,true,NA,NA,1,7,NA,yellow,n_s_089.jpg,NA,NA,NA,NA,NA,pleasant,unpleasant,NA,NA,NA,NA,NA,right,1754,true,NA,NA,NA,NA,NA,NA,NA,NA
dBtsQQDN,39kv3a5d2bk8g62f2ek1xjbwsefs7u,32z9zlut1pxsynesz8u6tbmhd4mohs,dBtsQQDN,2020-0188,2021-10-31,07:24:32,08:49:36,NA,incomplete,false,true,NA,NA,1,8,NA,yellow,m_s_105.jpg,NA,NA,NA,NA,NA,pleasant,unpleasant,NA,NA,NA,NA,NA,left,2254.90000000224,true,NA,NA,NA,NA,NA,NA,NA,NA
dBtsQQDN,39kv3a5d2bk8g62f2ek1xjbwsefs7u,32z9zlut1pxsynesz8u6tbmhd4mohs,dBtsQQDN,2020-0188,2021-10-31,07:24:32,08:49:36,NA,incomplete,false,true,NA,NA,1,9,NA,yellow,n_l_021.jpg,NA,NA,NA,NA,NA,pleasant,unpleasant,NA,NA,NA,NA,NA,left,1600,true,NA,NA,NA,NA,NA,NA,NA,NA
dBtsQQDN,39kv3a5d2bk8g62f2ek1xjbwsefs7u,32z9zlut1pxsynesz8u6tbmhd4mohs,dBtsQQDN,2020-0188,2021-10-31,07:24:32,08:49:36,NA,incomplete,false,true,NA,NA,1,10,NA,yellow,m_l_105.jpg,NA,NA,NA,NA,NA,pleasant,unpleasant,NA,NA,NA,NA,NA,left,1752.80000000075,true,NA,NA,NA,NA,NA,NA,NA,NA
dBtsQQDN,39kv3a5d2bk8g62f2ek1xjbwsefs7u,32z9zlut1pxsynesz8u6tbmhd4mohs,dBtsQQDN,2020-0188,2021-10-31,07:24:32,08:49:36,NA,incomplete,false,true,NA,NA,1,11,NA,yellow,m_l_049.jpg,NA,NA,NA,NA,NA,pleasant,unpleasant,NA,NA,NA,NA,NA,right,1924.30000000075,true,NA,NA,NA,NA,NA,NA,NA,NA
dBtsQQDN,39kv3a5d2bk8g62f2ek1xjbwsefs7u,32z9zlut1pxsynesz8u6tbmhd4mohs,dBtsQQDN,2020-0188,2021-10-31,07:24:32,08:49:36,NA,incomplete,false,true,NA,NA,1,12,NA,black,n_s_005.jpg,NA,NA,NA,NA,NA,unpleasant,pleasant,NA,NA,NA,NA,NA,right,1251.5,true,NA,NA,NA,NA,NA,NA,NA,NA
dBtsQQDN,39kv3a5d2bk8g62f2ek1xjbwsefs7u,32z9zlut1pxsynesz8u6tbmhd4mohs,dBtsQQDN,2020-0188,2021-10-31,07:24:32,08:49:36,NA,incomplete,false,true,NA,NA,1,13,NA,black,m_l_094.jpg,NA,NA,NA,NA,NA,pleasant,unpleasant,NA,NA,NA,NA,NA,right,2029.30000000075,true,NA,NA,NA,NA,NA,NA,NA,NA
dBtsQQDN,39kv3a5d2bk8g62f2ek1xjbwsefs7u,32z9zlut1pxsynesz8u6tbmhd4mohs,dBtsQQDN,2020-0188,2021-10-31,07:24:32,08:49:36,NA,incomplete,false,true,NA,NA,1,14,NA,black,n_s_073.jpg,NA,NA,NA,NA,NA,pleasant,unpleasant,NA,NA,NA,NA,NA,right,2056.69999999925,true,NA,NA,NA,NA,NA,NA,NA,NA
dBtsQQDN,39kv3a5d2bk8g62f2ek1xjbwsefs7u,32z9zlut1pxsynesz8u6tbmhd4mohs,dBtsQQDN,2020-0188,2021-10-31,07:24:32,08:49:36,NA,incomplete,false,true,NA,NA,1,15,NA,black,n_l_067.jpg,NA,NA,NA,NA,NA,unpleasant,pleasant,NA,NA,NA,NA,NA,right,1638.19999999925,true,NA,NA,NA,NA,NA,NA,NA,NA
dBtsQQDN,39kv3a5d2bk8g62f2ek1xjbwsefs7u,32z9zlut1pxsynesz8u6tbmhd4mohs,dBtsQQDN,2020-0188,2021-10-31,07:24:32,08:49:36,NA,incomplete,false,true,NA,NA,1,16,NA,black,n_l_051.jpg,NA,NA,NA,NA,NA,pleasant,unpleasant,NA,NA,NA,NA,NA,left,1373.89999999851,true,NA,NA,NA,NA,NA,NA,NA,NA
dBtsQQDN,39kv3a5d2bk8g62f2ek1xjbwsefs7u,32z9zlut1pxsynesz8u6tbmhd4mohs,dBtsQQDN,2020-0188,2021-10-31,07:24:32,08:49:36,NA,incomplete,false,true,NA,NA,1,17,NA,black,n_l_104.jpg,NA,NA,NA,NA,NA,unpleasant,pleasant,NA,NA,NA,NA,NA,right,2365.19999999925,true,NA,NA,NA,NA,NA,NA,NA,NA
dBtsQQDN,39kv3a5d2bk8g62f2ek1xjbwsefs7u,32z9zlut1pxsynesz8u6tbmhd4mohs,dBtsQQDN,2020-0188,2021-10-31,07:24:32,08:49:36,NA,incomplete,false,true,NA,NA,1,18,NA,white,m_l_117.jpg,NA,NA,NA,NA,NA,unpleasant,pleasant,NA,NA,NA,NA,NA,right,1921.89999999851,true,NA,NA,NA,NA,NA,NA,NA,NA
dBtsQQDN,39kv3a5d2bk8g62f2ek1xjbwsefs7u,32z9zlut1pxsynesz8u6tbmhd4mohs,dBtsQQDN,2020-0188,2021-10-31,07:24:32,08:49:36,NA,incomplete,false,true,NA,NA,1,19,NA,white,m_l_054.jpg,NA,NA,NA,NA,NA,pleasant,unpleasant,NA,NA,NA,NA,NA,right,1871.5,true,NA,NA,NA,NA,NA,NA,NA,NA
dBtsQQDN,39kv3a5d2bk8g62f2ek1xjbwsefs7u,32z9zlut1pxsynesz8u6tbmhd4mohs,dBtsQQDN,2020-0188,2021-10-31,07:24:32,08:49:36,NA,incomplete,false,true,NA,NA,1,20,NA,white,n_s_063.jpg,NA,NA,NA,NA,NA,unpleasant,pleasant,NA,NA,NA,NA,NA,right,2045.10000000149,true,NA,NA,NA,NA,NA,NA,NA,NA
dBtsQQDN,39kv3a5d2bk8g62f2ek1xjbwsefs7u,32z9zlut1pxsynesz8u6tbmhd4mohs,dBtsQQDN,2020-0188,2021-10-31,07:24:32,08:49:36,NA,incomplete,false,true,NA,NA,1,21,NA,white,m_l_086.jpg,NA,NA,NA,NA,NA,unpleasant,pleasant,NA,NA,NA,NA,NA,right,1658.5,true,NA,NA,NA,NA,NA,NA,NA,NA
dBtsQQDN,39kv3a5d2bk8g62f2ek1xjbwsefs7u,32z9zlut1pxsynesz8u6tbmhd4mohs,dBtsQQDN,2020-0188,2021-10-31,07:24:32,08:49:36,NA,incomplete,false,true,NA,NA,1,22,NA,white,m_l_017.jpg,NA,NA,NA,NA,NA,pleasant,unpleasant,NA,NA,NA,NA,NA,left,2256.30000000075,true,NA,NA,NA,NA,NA,NA,NA,NA
dBtsQQDN,39kv3a5d2bk8g62f2ek1xjbwsefs7u,32z9zlut1pxsynesz8u6tbmhd4mohs,dBtsQQDN,2020-0188,2021-10-31,07:24:32,08:49:36,NA,incomplete,false,true,NA,NA,1,23,NA,white,n_s_053.jpg,NA,NA,NA,NA,NA,pleasant,unpleasant,NA,NA,NA,NA,NA,left,1291.69999999925,true,NA,NA,NA,NA,NA,NA,NA,NA
dBtsQQDN,39kv3a5d2bk8g62f2ek1xjbwsefs7u,32z9zlut1pxsynesz8u6tbmhd4mohs,dBtsQQDN,2020-0188,2021-10-31,07:24:32,08:49:36,NA,incomplete,false,true,NA,NA,1,24,NA,brown,m_l_091.jpg,NA,NA,NA,NA,NA,unpleasant,pleasant,NA,NA,NA,NA,NA,right,1417.30000000075,true,NA,NA,NA,NA,NA,NA,NA,NA
dBtsQQDN,39kv3a5d2bk8g62f2ek1xjbwsefs7u,32z9zlut1pxsynesz8u6tbmhd4mohs,dBtsQQDN,2020-0188,2021-10-31,07:24:32,08:49:36,NA,incomplete,false,true,NA,NA,1,25,NA,brown,n_s_116.jpg,NA,NA,NA,NA,NA,pleasant,unpleasant,NA,NA,NA,NA,NA,right,2035.60000000149,true,NA,NA,NA,NA,NA,NA,NA,NA
dBtsQQDN,39kv3a5d2bk8g62f2ek1xjbwsefs7u,32z9zlut1pxsynesz8u6tbmhd4mohs,dBtsQQDN,2020-0188,2021-10-31,07:24:32,08:49:36,NA,incomplete,false,true,NA,NA,1,26,NA,brown,m_s_092.jpg,NA,NA,NA,NA,NA,pleasant,unpleasant,NA,NA,NA,NA,NA,left,1763,true,NA,NA,NA,NA,NA,NA,NA,NA
dBtsQQDN,39kv3a5d2bk8g62f2ek1xjbwsefs7u,32z9zlut1pxsynesz8u6tbmhd4mohs,dBtsQQDN,2020-0188,2021-10-31,07:24:32,08:49:36,NA,incomplete,false,true,NA,NA,1,27,NA,brown,n_l_026.jpg,NA,NA,NA,NA,NA,unpleasant,pleasant,NA,NA,NA,NA,NA,right,1227.70000000298,true,NA,NA,NA,NA,NA,NA,NA,NA
dBtsQQDN,39kv3a5d2bk8g62f2ek1xjbwsefs7u,32z9zlut1pxsynesz8u6tbmhd4mohs,dBtsQQDN,2020-0188,2021-10-31,07:24:32,08:49:36,NA,incomplete,false,true,NA,NA,1,28,NA,brown,n_s_087.jpg,NA,NA,NA,NA,NA,unpleasant,pleasant,NA,NA,NA,NA,NA,right,1678.80000000075,true,NA,NA,NA,NA,NA,NA,NA,NA
dBtsQQDN,39kv3a5d2bk8g62f2ek1xjbwsefs7u,32z9zlut1pxsynesz8u6tbmhd4mohs,dBtsQQDN,2020-0188,2021-10-31,07:24:32,08:49:36,NA,incomplete,false,true,NA,NA,1,29,NA,brown,n_l_019.jpg,NA,NA,NA,NA,NA,unpleasant,pleasant,NA,NA,NA,NA,NA,right,1211.80000000075,true,NA,NA,NA,NA,NA,NA,NA,NA
dBtsQQDN,39kv3a5d2bk8g62f2ek1xjbwsefs7u,32z9zlut1pxsynesz8u6tbmhd4mohs,dBtsQQDN,2020-0188,2021-10-31,07:24:32,08:49:36,NA,incomplete,false,true,NA,NA,1,30,NA,red,m_l_022.jpg,NA,NA,NA,NA,NA,unpleasant,pleasant,NA,NA,NA,NA,NA,left,2207.40000000224,true,NA,NA,NA,NA,NA,NA,NA,NA
dBtsQQDN,39kv3a5d2bk8g62f2ek1xjbwsefs7u,32z9zlut1pxsynesz8u6tbmhd4mohs,dBtsQQDN,2020-0188,2021-10-31,07:24:32,08:49:36,NA,incomplete,false,true,NA,NA,1,31,NA,red,n_l_073.jpg,NA,NA,NA,NA,NA,unpleasant,pleasant,NA,NA,NA,NA,NA,left,1914.60000000149,true,NA,NA,NA,NA,NA,NA,NA,NA
dBtsQQDN,39kv3a5d2bk8g62f2ek1xjbwsefs7u,32z9zlut1pxsynesz8u6tbmhd4mohs,dBtsQQDN,2020-0188,2021-10-31,07:24:32,08:49:36,NA,incomplete,false,true,NA,NA,1,32,NA,red,n_s_094.jpg,NA,NA,NA,NA,NA,pleasant,unpleasant,NA,NA,NA,NA,NA,left,2157.79999999702,true,NA,NA,NA,NA,NA,NA,NA,NA
dBtsQQDN,39kv3a5d2bk8g62f2ek1xjbwsefs7u,32z9zlut1pxsynesz8u6tbmhd4mohs,dBtsQQDN,2020-0188,2021-10-31,07:24:32,08:49:36,NA,incomplete,false,true,NA,NA,1,33,NA,red,n_l_085.jpg,NA,NA,NA,NA,NA,pleasant,unpleasant,NA,NA,NA,NA,NA,left,1259.10000000149,true,NA,NA,NA,NA,NA,NA,NA,NA
dBtsQQDN,39kv3a5d2bk8g62f2ek1xjbwsefs7u,32z9zlut1pxsynesz8u6tbmhd4mohs,dBtsQQDN,2020-0188,2021-10-31,07:24:32,08:49:36,NA,incomplete,false,true,NA,NA,1,34,NA,red,n_s_039.jpg,NA,NA,NA,NA,NA,pleasant,unpleasant,NA,NA,NA,NA,NA,left,1879.60000000149,true,NA,NA,NA,NA,NA,NA,NA,NA
dBtsQQDN,39kv3a5d2bk8g62f2ek1xjbwsefs7u,32z9zlut1pxsynesz8u6tbmhd4mohs,dBtsQQDN,2020-0188,2021-10-31,07:24:32,08:49:36,NA,incomplete,false,true,NA,NA,1,35,NA,red,n_s_051.jpg,NA,NA,NA,NA,NA,unpleasant,pleasant,NA,NA,NA,NA,NA,right,2084.39999999851,true,NA,NA,NA,NA,NA,NA,NA,NA
dBtsQQDN,39kv3a5d2bk8g62f2ek1xjbwsefs7u,32z9zlut1pxsynesz8u6tbmhd4mohs,dBtsQQDN,2020-0188,2021-10-31,07:24:32,08:49:36,NA,incomplete,false,NA,NA,true,1,0,NA,NA,NA,right,n_l_051.jpg,white,black,NA,NA,NA,NA,NA,NA,NA,NA,NA,NaN,NA,5491.900000002235,right,1,NA,NA,NA,NA,NA
dBtsQQDN,39kv3a5d2bk8g62f2ek1xjbwsefs7u,32z9zlut1pxsynesz8u6tbmhd4mohs,dBtsQQDN,2020-0188,2021-10-31,07:24:32,08:49:36,NA,incomplete,false,NA,NA,true,1,1,NA,NA,NA,left,n_s_051.jpg,red,brown,NA,NA,NA,NA,NA,NA,NA,NA,NA,NaN,NA,1525,right,0,NA,NA,NA,NA,NA
dBtsQQDN,39kv3a5d2bk8g62f2ek1xjbwsefs7u,32z9zlut1pxsynesz8u6tbmhd4mohs,dBtsQQDN,2020-0188,2021-10-31,07:24:32,08:49:36,NA,incomplete,false,NA,NA,true,1,2,NA,NA,NA,left,m_l_105.jpg,yellow,gray,NA,NA,NA,NA,NA,NA,NA,NA,NA,NaN,NA,2106.60000000149,left,1,NA,NA,NA,NA,NA
dBtsQQDN,39kv3a5d2bk8g62f2ek1xjbwsefs7u,32z9zlut1pxsynesz8u6tbmhd4mohs,dBtsQQDN,2020-0188,2021-10-31,07:24:32,08:49:36,NA,incomplete,false,NA,NA,true,1,3,NA,NA,NA,left,n_s_073.jpg,black,yellow,NA,NA,NA,NA,NA,NA,NA,NA,NA,NaN,NA,5203.199999999255,right,0,NA,NA,NA,NA,NA
dBtsQQDN,39kv3a5d2bk8g62f2ek1xjbwsefs7u,32z9zlut1pxsynesz8u6tbmhd4mohs,dBtsQQDN,2020-0188,2021-10-31,07:24:32,08:49:36,NA,incomplete,false,NA,NA,true,1,4,NA,NA,NA,left,m_s_105.jpg,yellow,gray,NA,NA,NA,NA,NA,NA,NA,NA,NA,NaN,NA,2906.199999999255,left,1,NA,NA,NA,NA,NA
dBtsQQDN,39kv3a5d2bk8g62f2ek1xjbwsefs7u,32z9zlut1pxsynesz8u6tbmhd4mohs,dBtsQQDN,2020-0188,2021-10-31,07:24:32,08:49:36,NA,incomplete,false,NA,NA,true,1,5,NA,NA,NA,left,n_s_044.jpg,gray,yellow,NA,NA,NA,NA,NA,NA,NA,NA,NA,NaN,NA,2010.5999999977648,left,1,NA,NA,NA,NA,NA
dBtsQQDN,39kv3a5d2bk8g62f2ek1xjbwsefs7u,32z9zlut1pxsynesz8u6tbmhd4mohs,dBtsQQDN,2020-0188,2021-10-31,07:24:32,08:49:36,NA,incomplete,false,NA,NA,true,1,6,NA,NA,NA,right,n_l_104.jpg,yellow,black,NA,NA,NA,NA,NA,NA,NA,NA,NA,NaN,NA,3117.2999999970198,left,0,NA,NA,NA,NA,NA
dBtsQQDN,39kv3a5d2bk8g62f2ek1xjbwsefs7u,32z9zlut1pxsynesz8u6tbmhd4mohs,dBtsQQDN,2020-0188,2021-10-31,07:24:32,08:49:36,NA,incomplete,false,NA,NA,true,1,7,NA,NA,NA,left,m_l_049.jpg,yellow,black,NA,NA,NA,NA,NA,NA,NA,NA,NA,NaN,NA,2036.4000000022352,left,1,NA,NA,NA,NA,NA
dBtsQQDN,39kv3a5d2bk8g62f2ek1xjbwsefs7u,32z9zlut1pxsynesz8u6tbmhd4mohs,dBtsQQDN,2020-0188,2021-10-31,07:24:32,08:49:36,NA,incomplete,false,NA,NA,true,1,8,NA,NA,NA,right,n_l_022.jpg,yellow,gray,NA,NA,NA,NA,NA,NA,NA,NA,NA,NaN,NA,1694.3999999985099,right,1,NA,NA,NA,NA,NA
dBtsQQDN,39kv3a5d2bk8g62f2ek1xjbwsefs7u,32z9zlut1pxsynesz8u6tbmhd4mohs,dBtsQQDN,2020-0188,2021-10-31,07:24:32,08:49:36,NA,incomplete,false,NA,NA,true,1,9,NA,NA,NA,left,n_l_073.jpg,red,brown,NA,NA,NA,NA,NA,NA,NA,NA,NA,NaN,NA,5281.699999999255,right,0,NA,NA,NA,NA,NA
dBtsQQDN,39kv3a5d2bk8g62f2ek1xjbwsefs7u,32z9zlut1pxsynesz8u6tbmhd4mohs,dBtsQQDN,2020-0188,2021-10-31,07:24:32,08:49:36,NA,incomplete,false,NA,NA,true,1,10,NA,NA,NA,right,m_l_017.jpg,black,white,NA,NA,NA,NA,NA,NA,NA,NA,NA,NaN,NA,3466.699999999255,left,0,NA,NA,NA,NA,NA
dBtsQQDN,39kv3a5d2bk8g62f2ek1xjbwsefs7u,32z9zlut1pxsynesz8u6tbmhd4mohs,dBtsQQDN,2020-0188,2021-10-31,07:24:32,08:49:36,NA,incomplete,false,NA,NA,true,1,11,NA,NA,NA,left,m_l_054.jpg,white,black,NA,NA,NA,NA,NA,NA,NA,NA,NA,NaN,NA,2364.699999999255,right,0,NA,NA,NA,NA,NA
dBtsQQDN,39kv3a5d2bk8g62f2ek1xjbwsefs7u,32z9zlut1pxsynesz8u6tbmhd4mohs,dBtsQQDN,2020-0188,2021-10-31,07:24:32,08:49:36,NA,incomplete,false,NA,NA,true,1,12,NA,NA,NA,right,n_s_089.jpg,gray,yellow,NA,NA,NA,NA,NA,NA,NA,NA,NA,NaN,NA,5227.10000000149,right,1,NA,NA,NA,NA,NA
dBtsQQDN,39kv3a5d2bk8g62f2ek1xjbwsefs7u,32z9zlut1pxsynesz8u6tbmhd4mohs,dBtsQQDN,2020-0188,2021-10-31,07:24:32,08:49:36,NA,incomplete,false,NA,NA,true,1,13,NA,NA,NA,left,m_s_092.jpg,brown,red,NA,NA,NA,NA,NA,NA,NA,NA,NA,NaN,NA,1622.2000000029802,right,0,NA,NA,NA,NA,NA
dBtsQQDN,39kv3a5d2bk8g62f2ek1xjbwsefs7u,32z9zlut1pxsynesz8u6tbmhd4mohs,dBtsQQDN,2020-0188,2021-10-31,07:24:32,08:49:36,NA,incomplete,false,NA,NA,true,1,14,NA,NA,NA,left,m_l_094.jpg,black,yellow,NA,NA,NA,NA,NA,NA,NA,NA,NA,NaN,NA,2950.300000000745,left,1,NA,NA,NA,NA,NA
dBtsQQDN,39kv3a5d2bk8g62f2ek1xjbwsefs7u,32z9zlut1pxsynesz8u6tbmhd4mohs,dBtsQQDN,2020-0188,2021-10-31,07:24:32,08:49:36,NA,incomplete,false,NA,NA,true,1,15,NA,NA,NA,right,n_s_116.jpg,white,brown,NA,NA,NA,NA,NA,NA,NA,NA,NA,NaN,NA,1784.0999999977648,right,1,NA,NA,NA,NA,NA
dBtsQQDN,39kv3a5d2bk8g62f2ek1xjbwsefs7u,32z9zlut1pxsynesz8u6tbmhd4mohs,dBtsQQDN,2020-0188,2021-10-31,07:24:32,08:49:36,NA,incomplete,false,NA,NA,true,1,16,NA,NA,NA,left,n_s_053.jpg,white,black,NA,NA,NA,NA,NA,NA,NA,NA,NA,NaN,NA,2083.89999999851,right,0,NA,NA,NA,NA,NA
dBtsQQDN,39kv3a5d2bk8g62f2ek1xjbwsefs7u,32z9zlut1pxsynesz8u6tbmhd4mohs,dBtsQQDN,2020-0188,2021-10-31,07:24:32,08:49:36,NA,incomplete,false,NA,NA,true,1,17,NA,NA,NA,right,n_s_094.jpg,brown,red,NA,NA,NA,NA,NA,NA,NA,NA,NA,NaN,NA,2325.199999999255,left,0,NA,NA,NA,NA,NA
dBtsQQDN,39kv3a5d2bk8g62f2ek1xjbwsefs7u,32z9zlut1pxsynesz8u6tbmhd4mohs,dBtsQQDN,2020-0188,2021-10-31,07:24:32,08:49:36,NA,incomplete,false,NA,NA,true,1,18,NA,NA,NA,right,n_s_063.jpg,black,white,NA,NA,NA,NA,NA,NA,NA,NA,NA,NaN,NA,2598.900000002235,left,0,NA,NA,NA,NA,NA
dBtsQQDN,39kv3a5d2bk8g62f2ek1xjbwsefs7u,32z9zlut1pxsynesz8u6tbmhd4mohs,dBtsQQDN,2020-0188,2021-10-31,07:24:32,08:49:36,NA,incomplete,false,NA,NA,true,1,19,NA,NA,NA,right,n_l_019.jpg,red,brown,NA,NA,NA,NA,NA,NA,NA,NA,NA,NaN,NA,1428,right,1,NA,NA,NA,NA,NA
dBtsQQDN,39kv3a5d2bk8g62f2ek1xjbwsefs7u,32z9zlut1pxsynesz8u6tbmhd4mohs,dBtsQQDN,2020-0188,2021-10-31,07:24:32,08:49:36,NA,incomplete,false,NA,NA,true,1,20,NA,NA,NA,right,m_l_029.jpg,yellow,gray,NA,NA,NA,NA,NA,NA,NA,NA,NA,NaN,NA,3425.699999999255,right,1,NA,NA,NA,NA,NA
dBtsQQDN,39kv3a5d2bk8g62f2ek1xjbwsefs7u,32z9zlut1pxsynesz8u6tbmhd4mohs,dBtsQQDN,2020-0188,2021-10-31,07:24:32,08:49:36,NA,incomplete,false,NA,NA,true,1,21,NA,NA,NA,left,n_s_087.jpg,brown,white,NA,NA,NA,NA,NA,NA,NA,NA,NA,NaN,NA,1815.3999999985099,right,0,NA,NA,NA,NA,NA
dBtsQQDN,39kv3a5d2bk8g62f2ek1xjbwsefs7u,32z9zlut1pxsynesz8u6tbmhd4mohs,dBtsQQDN,2020-0188,2021-10-31,07:24:32,08:49:36,NA,incomplete,false,NA,true,NA,1,0,NA,NA,NA,right,NA,NA,NA,absent,NA,NA,n_s_094.jpg,red,n_s_087.jpg,brown,between,NA,NaN,NA,NA,NA,NA,right,2622.5,1,2,2156.5
dBtsQQDN,39kv3a5d2bk8g62f2ek1xjbwsefs7u,32z9zlut1pxsynesz8u6tbmhd4mohs,dBtsQQDN,2020-0188,2021-10-31,07:24:32,08:49:36,NA,incomplete,false,NA,true,NA,1,1,NA,NA,NA,left,NA,NA,NA,absent,NA,NA,m_l_105.jpg,yellow,n_s_073.jpg,black,between,NA,NaN,NA,NA,NA,NA,left,2388.89999999851,1,2,2033.0999999977648
dBtsQQDN,39kv3a5d2bk8g62f2ek1xjbwsefs7u,32z9zlut1pxsynesz8u6tbmhd4mohs,dBtsQQDN,2020-0188,2021-10-31,07:24:32,08:49:36,NA,incomplete,false,NA,true,NA,1,2,NA,NA,NA,left,NA,NA,NA,absent,NA,NA,m_l_029.jpg,gray,m_s_105.jpg,yellow,between,NA,NaN,NA,NA,NA,NA,right,4250.5,0,2,1095.7000000029802
dBtsQQDN,39kv3a5d2bk8g62f2ek1xjbwsefs7u,32z9zlut1pxsynesz8u6tbmhd4mohs,dBtsQQDN,2020-0188,2021-10-31,07:24:32,08:49:36,NA,incomplete,false,NA,true,NA,1,3,NA,NA,NA,left,NA,NA,NA,absent,NA,NA,n_s_116.jpg,brown,n_l_019.jpg,brown,within,NA,NaN,NA,NA,NA,NA,right,2841.099999997765,0,2,1137.5
dBtsQQDN,39kv3a5d2bk8g62f2ek1xjbwsefs7u,32z9zlut1pxsynesz8u6tbmhd4mohs,dBtsQQDN,2020-0188,2021-10-31,07:24:32,08:49:36,NA,incomplete,false,NA,true,NA,1,4,NA,NA,NA,right,NA,NA,NA,absent,NA,NA,m_s_092.jpg,brown,m_l_017.jpg,white,between,NA,NaN,NA,NA,NA,NA,left,3609.400000002235,0,2,1436.8999999985099
dBtsQQDN,39kv3a5d2bk8g62f2ek1xjbwsefs7u,32z9zlut1pxsynesz8u6tbmhd4mohs,dBtsQQDN,2020-0188,2021-10-31,07:24:32,08:49:36,NA,incomplete,false,NA,true,NA,1,5,NA,NA,NA,left,NA,NA,NA,absent,NA,NA,n_l_073.jpg,red,n_s_051.jpg,red,within,NA,NaN,NA,NA,NA,NA,left,3143.800000000745,1,2,936.5
dBtsQQDN,39kv3a5d2bk8g62f2ek1xjbwsefs7u,32z9zlut1pxsynesz8u6tbmhd4mohs,dBtsQQDN,2020-0188,2021-10-31,07:24:32,08:49:36,NA,incomplete,false,NA,true,NA,1,6,NA,NA,NA,right,NA,NA,NA,absent,NA,NA,n_s_053.jpg,white,m_l_054.jpg,white,within,NA,NaN,NA,NA,NA,NA,left,4151.300000000745,0,2,1501.800000000745
dBtsQQDN,39kv3a5d2bk8g62f2ek1xjbwsefs7u,32z9zlut1pxsynesz8u6tbmhd4mohs,dBtsQQDN,2020-0188,2021-10-31,07:24:32,08:49:36,NA,incomplete,false,NA,true,NA,1,7,NA,NA,NA,right,NA,NA,NA,absent,NA,NA,n_s_063.jpg,white,n_l_051.jpg,black,between,NA,NaN,NA,NA,NA,NA,left,2098.5,0,2,1218.3999999985099
dBtsQQDN,39kv3a5d2bk8g62f2ek1xjbwsefs7u,32z9zlut1pxsynesz8u6tbmhd4mohs,dBtsQQDN,2020-0188,2021-10-31,07:24:32,08:49:36,NA,incomplete,false,NA,true,NA,1,8,NA,NA,NA,left,NA,NA,NA,absent,NA,NA,m_l_094.jpg,black,n_l_104.jpg,black,within,NA,NaN,NA,NA,NA,NA,left,3197.699999999255,1,2,3342.60000000149
dBtsQQDN,39kv3a5d2bk8g62f2ek1xjbwsefs7u,32z9zlut1pxsynesz8u6tbmhd4mohs,dBtsQQDN,2020-0188,2021-10-31,07:24:32,08:49:36,NA,incomplete,false,NA,true,NA,1,9,NA,NA,NA,left,NA,NA,NA,absent,NA,NA,n_l_022.jpg,gray,n_s_044.jpg,gray,within,NA,NaN,NA,NA,NA,NA,left,2712.60000000149,1,2,1752.6000000014901
dBtsQQDN,39kv3a5d2bk8g62f2ek1xjbwsefs7u,32z9zlut1pxsynesz8u6tbmhd4mohs,dBtsQQDN,2020-0188,2021-10-31,07:24:32,08:49:36,NA,incomplete,false,NA,true,NA,1,10,NA,NA,NA,left,NA,NA,NA,absent,NA,NA,n_s_089.jpg,yellow,m_l_049.jpg,yellow,within,NA,NaN,NA,NA,NA,NA,left,4604.099999997765,1,2,959.0999999977648
dBtsQQDN,39kv3a5d2bk8g62f2ek1xjbwsefs7u,32z9zlut1pxsynesz8u6tbmhd4mohs,dBtsQQDN,2020-0188,2021-10-31,07:24:32,08:49:36,NA,incomplete,false,true,NA,NA,2,0,NA,red,m_s_084.jpg,NA,NA,NA,NA,NA,pleasant,unpleasant,NA,NA,NA,NA,NA,left,2386.30000000075,true,NA,NA,NA,NA,NA,NA,NA,NA
dBtsQQDN,39kv3a5d2bk8g62f2ek1xjbwsefs7u,32z9zlut1pxsynesz8u6tbmhd4mohs,dBtsQQDN,2020-0188,2021-10-31,07:24:32,08:49:36,NA,incomplete,false,true,NA,NA,2,1,NA,red,m_s_010.jpg,NA,NA,NA,NA,NA,unpleasant,pleasant,NA,NA,NA,NA,NA,right,1604.89999999851,true,NA,NA,NA,NA,NA,NA,NA,NA
dBtsQQDN,39kv3a5d2bk8g62f2ek1xjbwsefs7u,32z9zlut1pxsynesz8u6tbmhd4mohs,dBtsQQDN,2020-0188,2021-10-31,07:24:32,08:49:36,NA,incomplete,false,true,NA,NA,2,2,NA,red,m_s_029.jpg,NA,NA,NA,NA,NA,pleasant,unpleasant,NA,NA,NA,NA,NA,right,1345.80000000075,true,NA,NA,NA,NA,NA,NA,NA,NA
dBtsQQDN,39kv3a5d2bk8g62f2ek1xjbwsefs7u,32z9zlut1pxsynesz8u6tbmhd4mohs,dBtsQQDN,2020-0188,2021-10-31,07:24:32,08:49:36,NA,incomplete,false,true,NA,NA,2,3,NA,red,n_l_103.jpg,NA,NA,NA,NA,NA,unpleasant,pleasant,NA,NA,NA,NA,NA,right,1175.5,true,NA,NA,NA,NA,NA,NA,NA,NA
dBtsQQDN,39kv3a5d2bk8g62f2ek1xjbwsefs7u,32z9zlut1pxsynesz8u6tbmhd4mohs,dBtsQQDN,2020-0188,2021-10-31,07:24:32,08:49:36,NA,incomplete,false,true,NA,NA,2,4,NA,red,n_l_039.jpg,NA,NA,NA,NA,NA,pleasant,unpleasant,NA,NA,NA,NA,NA,left,1379.29999999702,true,NA,NA,NA,NA,NA,NA,NA,NA
dBtsQQDN,39kv3a5d2bk8g62f2ek1xjbwsefs7u,32z9zlut1pxsynesz8u6tbmhd4mohs,dBtsQQDN,2020-0188,2021-10-31,07:24:32,08:49:36,NA,incomplete,false,true,NA,NA,2,5,NA,red,n_l_072.jpg,NA,NA,NA,NA,NA,unpleasant,pleasant,NA,NA,NA,NA,NA,right,1404.5,true,NA,NA,NA,NA,NA,NA,NA,NA
dBtsQQDN,39kv3a5d2bk8g62f2ek1xjbwsefs7u,32z9zlut1pxsynesz8u6tbmhd4mohs,dBtsQQDN,2020-0188,2021-10-31,07:24:32,08:49:36,NA,incomplete,false,true,NA,NA,2,6,NA,gray,n_s_084.jpg,NA,NA,NA,NA,NA,pleasant,unpleasant,NA,NA,NA,NA,NA,left,2844.19999999925,true,NA,NA,NA,NA,NA,NA,NA,NA
dBtsQQDN,39kv3a5d2bk8g62f2ek1xjbwsefs7u,32z9zlut1pxsynesz8u6tbmhd4mohs,dBtsQQDN,2020-0188,2021-10-31,07:24:32,08:49:36,NA,incomplete,false,true,NA,NA,2,7,NA,gray,m_s_020.jpg,NA,NA,NA,NA,NA,pleasant,unpleasant,NA,NA,NA,NA,NA,left,1372.80000000075,true,NA,NA,NA,NA,NA,NA,NA,NA
dBtsQQDN,39kv3a5d2bk8g62f2ek1xjbwsefs7u,32z9zlut1pxsynesz8u6tbmhd4mohs,dBtsQQDN,2020-0188,2021-10-31,07:24:32,08:49:36,NA,incomplete,false,true,NA,NA,2,8,NA,gray,n_l_050.jpg,NA,NA,NA,NA,NA,unpleasant,pleasant,NA,NA,NA,NA,NA,right,1178.5,true,NA,NA,NA,NA,NA,NA,NA,NA
dBtsQQDN,39kv3a5d2bk8g62f2ek1xjbwsefs7u,32z9zlut1pxsynesz8u6tbmhd4mohs,dBtsQQDN,2020-0188,2021-10-31,07:24:32,08:49:36,NA,incomplete,false,true,NA,NA,2,9,NA,gray,n_s_108.jpg,NA,NA,NA,NA,NA,unpleasant,pleasant,NA,NA,NA,NA,NA,right,1070.30000000075,true,NA,NA,NA,NA,NA,NA,NA,NA
dBtsQQDN,39kv3a5d2bk8g62f2ek1xjbwsefs7u,32z9zlut1pxsynesz8u6tbmhd4mohs,dBtsQQDN,2020-0188,2021-10-31,07:24:32,08:49:36,NA,incomplete,false,true,NA,NA,2,10,NA,gray,m_l_074.jpg,NA,NA,NA,NA,NA,pleasant,unpleasant,NA,NA,NA,NA,NA,right,2268.09999999776,true,NA,NA,NA,NA,NA,NA,NA,NA
dBtsQQDN,39kv3a5d2bk8g62f2ek1xjbwsefs7u,32z9zlut1pxsynesz8u6tbmhd4mohs,dBtsQQDN,2020-0188,2021-10-31,07:24:32,08:49:36,NA,incomplete,false,true,NA,NA,2,11,NA,gray,m_s_011.jpg,NA,NA,NA,NA,NA,unpleasant,pleasant,NA,NA,NA,NA,NA,right,1259.19999999925,true,NA,NA,NA,NA,NA,NA,NA,NA
dBtsQQDN,39kv3a5d2bk8g62f2ek1xjbwsefs7u,32z9zlut1pxsynesz8u6tbmhd4mohs,dBtsQQDN,2020-0188,2021-10-31,07:24:32,08:49:36,NA,incomplete,false,true,NA,NA,2,12,NA,brown,n_s_004.jpg,NA,NA,NA,NA,NA,unpleasant,pleasant,NA,NA,NA,NA,NA,right,1636.20000000298,true,NA,NA,NA,NA,NA,NA,NA,NA
dBtsQQDN,39kv3a5d2bk8g62f2ek1xjbwsefs7u,32z9zlut1pxsynesz8u6tbmhd4mohs,dBtsQQDN,2020-0188,2021-10-31,07:24:32,08:49:36,NA,incomplete,false,true,NA,NA,2,13,NA,brown,n_l_112.jpg,NA,NA,NA,NA,NA,pleasant,unpleasant,NA,NA,NA,NA,NA,left,1912.39999999851,true,NA,NA,NA,NA,NA,NA,NA,NA
dBtsQQDN,39kv3a5d2bk8g62f2ek1xjbwsefs7u,32z9zlut1pxsynesz8u6tbmhd4mohs,dBtsQQDN,2020-0188,2021-10-31,07:24:32,08:49:36,NA,incomplete,false,true,NA,NA,2,14,NA,brown,n_l_088.jpg,NA,NA,NA,NA,NA,pleasant,unpleasant,NA,NA,NA,NA,NA,right,1992.39999999851,true,NA,NA,NA,NA,NA,NA,NA,NA
dBtsQQDN,39kv3a5d2bk8g62f2ek1xjbwsefs7u,32z9zlut1pxsynesz8u6tbmhd4mohs,dBtsQQDN,2020-0188,2021-10-31,07:24:32,08:49:36,NA,incomplete,false,true,NA,NA,2,15,NA,brown,n_s_029.jpg,NA,NA,NA,NA,NA,pleasant,unpleasant,NA,NA,NA,NA,NA,right,1370.19999999925,true,NA,NA,NA,NA,NA,NA,NA,NA
dBtsQQDN,39kv3a5d2bk8g62f2ek1xjbwsefs7u,32z9zlut1pxsynesz8u6tbmhd4mohs,dBtsQQDN,2020-0188,2021-10-31,07:24:32,08:49:36,NA,incomplete,false,true,NA,NA,2,16,NA,brown,m_l_048.jpg,NA,NA,NA,NA,NA,unpleasant,pleasant,NA,NA,NA,NA,NA,right,1538.69999999925,true,NA,NA,NA,NA,NA,NA,NA,NA
dBtsQQDN,39kv3a5d2bk8g62f2ek1xjbwsefs7u,32z9zlut1pxsynesz8u6tbmhd4mohs,dBtsQQDN,2020-0188,2021-10-31,07:24:32,08:49:36,NA,incomplete,false,true,NA,NA,2,17,NA,brown,m_l_041.jpg,NA,NA,NA,NA,NA,pleasant,unpleasant,NA,NA,NA,NA,NA,right,1690.30000000075,true,NA,NA,NA,NA,NA,NA,NA,NA
dBtsQQDN,39kv3a5d2bk8g62f2ek1xjbwsefs7u,32z9zlut1pxsynesz8u6tbmhd4mohs,dBtsQQDN,2020-0188,2021-10-31,07:24:32,08:49:36,NA,incomplete,false,true,NA,NA,2,18,NA,black,n_s_027.jpg,NA,NA,NA,NA,NA,pleasant,unpleasant,NA,NA,NA,NA,NA,right,1340.90000000224,true,NA,NA,NA,NA,NA,NA,NA,NA
dBtsQQDN,39kv3a5d2bk8g62f2ek1xjbwsefs7u,32z9zlut1pxsynesz8u6tbmhd4mohs,dBtsQQDN,2020-0188,2021-10-31,07:24:32,08:49:36,NA,incomplete,false,true,NA,NA,2,19,NA,black,n_s_017.jpg,NA,NA,NA,NA,NA,pleasant,unpleasant,NA,NA,NA,NA,NA,left,1279.80000000075,true,NA,NA,NA,NA,NA,NA,NA,NA
dBtsQQDN,39kv3a5d2bk8g62f2ek1xjbwsefs7u,32z9zlut1pxsynesz8u6tbmhd4mohs,dBtsQQDN,2020-0188,2021-10-31,07:24:32,08:49:36,NA,incomplete,false,true,NA,NA,2,20,NA,black,m_s_049.jpg,NA,NA,NA,NA,NA,pleasant,unpleasant,NA,NA,NA,NA,NA,left,2482.89999999851,true,NA,NA,NA,NA,NA,NA,NA,NA
dBtsQQDN,39kv3a5d2bk8g62f2ek1xjbwsefs7u,32z9zlut1pxsynesz8u6tbmhd4mohs,dBtsQQDN,2020-0188,2021-10-31,07:24:32,08:49:36,NA,incomplete,false,true,NA,NA,2,21,NA,black,n_l_099.jpg,NA,NA,NA,NA,NA,unpleasant,pleasant,NA,NA,NA,NA,NA,left,2343.59999999776,true,NA,NA,NA,NA,NA,NA,NA,NA
dBtsQQDN,39kv3a5d2bk8g62f2ek1xjbwsefs7u,32z9zlut1pxsynesz8u6tbmhd4mohs,dBtsQQDN,2020-0188,2021-10-31,07:24:32,08:49:36,NA,incomplete,false,true,NA,NA,2,22,NA,black,m_l_031.jpg,NA,NA,NA,NA,NA,unpleasant,pleasant,NA,NA,NA,NA,NA,left,1492.5,true,NA,NA,NA,NA,NA,NA,NA,NA
dBtsQQDN,39kv3a5d2bk8g62f2ek1xjbwsefs7u,32z9zlut1pxsynesz8u6tbmhd4mohs,dBtsQQDN,2020-0188,2021-10-31,07:24:32,08:49:36,NA,incomplete,false,true,NA,NA,2,23,NA,black,n_l_111.jpg,NA,NA,NA,NA,NA,pleasant,unpleasant,NA,NA,NA,NA,NA,left,2034.5,true,NA,NA,NA,NA,NA,NA,NA,NA
dBtsQQDN,39kv3a5d2bk8g62f2ek1xjbwsefs7u,32z9zlut1pxsynesz8u6tbmhd4mohs,dBtsQQDN,2020-0188,2021-10-31,07:24:32,08:49:36,NA,incomplete,false,true,NA,NA,2,24,NA,blue,m_s_046.jpg,NA,NA,NA,NA,NA,pleasant,unpleasant,NA,NA,NA,NA,NA,left,1982.59999999776,true,NA,NA,NA,NA,NA,NA,NA,NA
dBtsQQDN,39kv3a5d2bk8g62f2ek1xjbwsefs7u,32z9zlut1pxsynesz8u6tbmhd4mohs,dBtsQQDN,2020-0188,2021-10-31,07:24:32,08:49:36,NA,incomplete,false,true,NA,NA,2,25,NA,blue,n_s_107.jpg,NA,NA,NA,NA,NA,pleasant,unpleasant,NA,NA,NA,NA,NA,left,1297.80000000075,true,NA,NA,NA,NA,NA,NA,NA,NA
dBtsQQDN,39kv3a5d2bk8g62f2ek1xjbwsefs7u,32z9zlut1pxsynesz8u6tbmhd4mohs,dBtsQQDN,2020-0188,2021-10-31,07:24:32,08:49:36,NA,incomplete,false,true,NA,NA,2,26,NA,blue,m_s_063.jpg,NA,NA,NA,NA,NA,unpleasant,pleasant,NA,NA,NA,NA,NA,right,1036.30000000075,true,NA,NA,NA,NA,NA,NA,NA,NA
dBtsQQDN,39kv3a5d2bk8g62f2ek1xjbwsefs7u,32z9zlut1pxsynesz8u6tbmhd4mohs,dBtsQQDN,2020-0188,2021-10-31,07:24:32,08:49:36,NA,incomplete,false,true,NA,NA,2,27,NA,blue,m_l_057.jpg,NA,NA,NA,NA,NA,pleasant,unpleasant,NA,NA,NA,NA,NA,right,1327,true,NA,NA,NA,NA,NA,NA,NA,NA
dBtsQQDN,39kv3a5d2bk8g62f2ek1xjbwsefs7u,32z9zlut1pxsynesz8u6tbmhd4mohs,dBtsQQDN,2020-0188,2021-10-31,07:24:32,08:49:36,NA,incomplete,false,true,NA,NA,2,28,NA,blue,n_s_102.jpg,NA,NA,NA,NA,NA,pleasant,unpleasant,NA,NA,NA,NA,NA,left,1194.69999999925,true,NA,NA,NA,NA,NA,NA,NA,NA
dBtsQQDN,39kv3a5d2bk8g62f2ek1xjbwsefs7u,32z9zlut1pxsynesz8u6tbmhd4mohs,dBtsQQDN,2020-0188,2021-10-31,07:24:32,08:49:36,NA,incomplete,false,true,NA,NA,2,29,NA,blue,n_s_091.jpg,NA,NA,NA,NA,NA,unpleasant,pleasant,NA,NA,NA,NA,NA,left,2849.39999999851,true,NA,NA,NA,NA,NA,NA,NA,NA
dBtsQQDN,39kv3a5d2bk8g62f2ek1xjbwsefs7u,32z9zlut1pxsynesz8u6tbmhd4mohs,dBtsQQDN,2020-0188,2021-10-31,07:24:32,08:49:36,NA,incomplete,false,true,NA,NA,2,30,NA,green,m_s_103.jpg,NA,NA,NA,NA,NA,pleasant,unpleasant,NA,NA,NA,NA,NA,right,360.199999999255,true,NA,NA,NA,NA,NA,NA,NA,NA
dBtsQQDN,39kv3a5d2bk8g62f2ek1xjbwsefs7u,32z9zlut1pxsynesz8u6tbmhd4mohs,dBtsQQDN,2020-0188,2021-10-31,07:24:32,08:49:36,NA,incomplete,false,true,NA,NA,2,31,NA,green,m_s_101.jpg,NA,NA,NA,NA,NA,unpleasant,pleasant,NA,NA,NA,NA,NA,left,1633.69999999925,true,NA,NA,NA,NA,NA,NA,NA,NA
dBtsQQDN,39kv3a5d2bk8g62f2ek1xjbwsefs7u,32z9zlut1pxsynesz8u6tbmhd4mohs,dBtsQQDN,2020-0188,2021-10-31,07:24:32,08:49:36,NA,incomplete,false,true,NA,NA,2,32,NA,green,m_l_044.jpg,NA,NA,NA,NA,NA,pleasant,unpleasant,NA,NA,NA,NA,NA,left,1368.5,true,NA,NA,NA,NA,NA,NA,NA,NA
dBtsQQDN,39kv3a5d2bk8g62f2ek1xjbwsefs7u,32z9zlut1pxsynesz8u6tbmhd4mohs,dBtsQQDN,2020-0188,2021-10-31,07:24:32,08:49:36,NA,incomplete,false,true,NA,NA,2,33,NA,green,n_l_090.jpg,NA,NA,NA,NA,NA,unpleasant,pleasant,NA,NA,NA,NA,NA,left,1226.5,true,NA,NA,NA,NA,NA,NA,NA,NA
dBtsQQDN,39kv3a5d2bk8g62f2ek1xjbwsefs7u,32z9zlut1pxsynesz8u6tbmhd4mohs,dBtsQQDN,2020-0188,2021-10-31,07:24:32,08:49:36,NA,incomplete,false,true,NA,NA,2,34,NA,green,m_l_081.jpg,NA,NA,NA,NA,NA,unpleasant,pleasant,NA,NA,NA,NA,NA,right,952.300000000745,true,NA,NA,NA,NA,NA,NA,NA,NA
dBtsQQDN,39kv3a5d2bk8g62f2ek1xjbwsefs7u,32z9zlut1pxsynesz8u6tbmhd4mohs,dBtsQQDN,2020-0188,2021-10-31,07:24:32,08:49:36,NA,incomplete,false,true,NA,NA,2,35,NA,green,m_s_036.jpg,NA,NA,NA,NA,NA,pleasant,unpleasant,NA,NA,NA,NA,NA,left,1343.60000000149,true,NA,NA,NA,NA,NA,NA,NA,NA
dBtsQQDN,39kv3a5d2bk8g62f2ek1xjbwsefs7u,32z9zlut1pxsynesz8u6tbmhd4mohs,dBtsQQDN,2020-0188,2021-10-31,07:24:32,08:49:36,NA,incomplete,false,NA,NA,true,2,0,NA,NA,NA,left,n_l_050.jpg,gray,red,NA,NA,NA,NA,NA,NA,NA,NA,NA,NaN,NA,4028,right,0,NA,NA,NA,NA,NA
dBtsQQDN,39kv3a5d2bk8g62f2ek1xjbwsefs7u,32z9zlut1pxsynesz8u6tbmhd4mohs,dBtsQQDN,2020-0188,2021-10-31,07:24:32,08:49:36,NA,incomplete,false,NA,NA,true,2,1,NA,NA,NA,right,n_s_017.jpg,brown,black,NA,NA,NA,NA,NA,NA,NA,NA,NA,NaN,NA,1306.3999999985099,right,1,NA,NA,NA,NA,NA
dBtsQQDN,39kv3a5d2bk8g62f2ek1xjbwsefs7u,32z9zlut1pxsynesz8u6tbmhd4mohs,dBtsQQDN,2020-0188,2021-10-31,07:24:32,08:49:36,NA,incomplete,false,NA,NA,true,2,2,NA,NA,NA,left,n_l_039.jpg,red,gray,NA,NA,NA,NA,NA,NA,NA,NA,NA,NaN,NA,3110.5,left,1,NA,NA,NA,NA,NA
dBtsQQDN,39kv3a5d2bk8g62f2ek1xjbwsefs7u,32z9zlut1pxsynesz8u6tbmhd4mohs,dBtsQQDN,2020-0188,2021-10-31,07:24:32,08:49:36,NA,incomplete,false,NA,NA,true,2,3,NA,NA,NA,left,n_s_107.jpg,blue,black,NA,NA,NA,NA,NA,NA,NA,NA,NA,NaN,NA,2308.60000000149,left,1,NA,NA,NA,NA,NA
dBtsQQDN,39kv3a5d2bk8g62f2ek1xjbwsefs7u,32z9zlut1pxsynesz8u6tbmhd4mohs,dBtsQQDN,2020-0188,2021-10-31,07:24:32,08:49:36,NA,incomplete,false,NA,NA,true,2,4,NA,NA,NA,left,m_l_048.jpg,brown,black,NA,NA,NA,NA,NA,NA,NA,NA,NA,NaN,NA,2017.199999999255,left,1,NA,NA,NA,NA,NA
dBtsQQDN,39kv3a5d2bk8g62f2ek1xjbwsefs7u,32z9zlut1pxsynesz8u6tbmhd4mohs,dBtsQQDN,2020-0188,2021-10-31,07:24:32,08:49:36,NA,incomplete,false,NA,NA,true,2,5,NA,NA,NA,left,m_l_031.jpg,black,brown,NA,NA,NA,NA,NA,NA,NA,NA,NA,NaN,NA,1306.199999999255,right,0,NA,NA,NA,NA,NA
dBtsQQDN,39kv3a5d2bk8g62f2ek1xjbwsefs7u,32z9zlut1pxsynesz8u6tbmhd4mohs,dBtsQQDN,2020-0188,2021-10-31,07:24:32,08:49:36,NA,incomplete,false,NA,NA,true,2,6,NA,NA,NA,left,m_l_044.jpg,green,blue,NA,NA,NA,NA,NA,NA,NA,NA,NA,NaN,NA,1905.199999999255,right,0,NA,NA,NA,NA,NA
dBtsQQDN,39kv3a5d2bk8g62f2ek1xjbwsefs7u,32z9zlut1pxsynesz8u6tbmhd4mohs,dBtsQQDN,2020-0188,2021-10-31,07:24:32,08:49:36,NA,incomplete,false,NA,NA,true,2,7,NA,NA,NA,right,m_s_020.jpg,red,gray,NA,NA,NA,NA,NA,NA,NA,NA,NA,NaN,NA,2996.900000002235,left,0,NA,NA,NA,NA,NA
dBtsQQDN,39kv3a5d2bk8g62f2ek1xjbwsefs7u,32z9zlut1pxsynesz8u6tbmhd4mohs,dBtsQQDN,2020-0188,2021-10-31,07:24:32,08:49:36,NA,incomplete,false,NA,NA,true,2,8,NA,NA,NA,right,n_l_072.jpg,gray,red,NA,NA,NA,NA,NA,NA,NA,NA,NA,NaN,NA,1968.8999999985099,right,1,NA,NA,NA,NA,NA
dBtsQQDN,39kv3a5d2bk8g62f2ek1xjbwsefs7u,32z9zlut1pxsynesz8u6tbmhd4mohs,dBtsQQDN,2020-0188,2021-10-31,07:24:32,08:49:36,NA,incomplete,false,NA,NA,true,2,9,NA,NA,NA,left,m_s_011.jpg,gray,brown,NA,NA,NA,NA,NA,NA,NA,NA,NA,NaN,NA,1872.5,right,0,NA,NA,NA,NA,NA
dBtsQQDN,39kv3a5d2bk8g62f2ek1xjbwsefs7u,32z9zlut1pxsynesz8u6tbmhd4mohs,dBtsQQDN,2020-0188,2021-10-31,07:24:32,08:49:36,NA,incomplete,false,NA,NA,true,2,10,NA,NA,NA,left,n_l_112.jpg,brown,gray,NA,NA,NA,NA,NA,NA,NA,NA,NA,NaN,NA,3278.39999999851,left,1,NA,NA,NA,NA,NA
dBtsQQDN,39kv3a5d2bk8g62f2ek1xjbwsefs7u,32z9zlut1pxsynesz8u6tbmhd4mohs,dBtsQQDN,2020-0188,2021-10-31,07:24:32,08:49:36,NA,incomplete,false,NA,NA,true,2,11,NA,NA,NA,left,m_s_010.jpg,red,gray,NA,NA,NA,NA,NA,NA,NA,NA,NA,NaN,NA,2050.39999999851,left,1,NA,NA,NA,NA,NA
dBtsQQDN,39kv3a5d2bk8g62f2ek1xjbwsefs7u,32z9zlut1pxsynesz8u6tbmhd4mohs,dBtsQQDN,2020-0188,2021-10-31,07:24:32,08:49:36,NA,incomplete,false,NA,NA,true,2,12,NA,NA,NA,left,m_s_101.jpg,green,blue,NA,NA,NA,NA,NA,NA,NA,NA,NA,NaN,NA,4296.199999999255,left,1,NA,NA,NA,NA,NA
dBtsQQDN,39kv3a5d2bk8g62f2ek1xjbwsefs7u,32z9zlut1pxsynesz8u6tbmhd4mohs,dBtsQQDN,2020-0188,2021-10-31,07:24:32,08:49:36,NA,incomplete,false,NA,NA,true,2,13,NA,NA,NA,right,m_l_074.jpg,brown,gray,NA,NA,NA,NA,NA,NA,NA,NA,NA,NaN,NA,2058.199999999255,right,1,NA,NA,NA,NA,NA
dBtsQQDN,39kv3a5d2bk8g62f2ek1xjbwsefs7u,32z9zlut1pxsynesz8u6tbmhd4mohs,dBtsQQDN,2020-0188,2021-10-31,07:24:32,08:49:36,NA,incomplete,false,NA,NA,true,2,14,NA,NA,NA,right,m_s_049.jpg,brown,black,NA,NA,NA,NA,NA,NA,NA,NA,NA,NaN,NA,3005.10000000149,right,1,NA,NA,NA,NA,NA
dBtsQQDN,39kv3a5d2bk8g62f2ek1xjbwsefs7u,32z9zlut1pxsynesz8u6tbmhd4mohs,dBtsQQDN,2020-0188,2021-10-31,07:24:32,08:49:36,NA,incomplete,false,NA,NA,true,2,15,NA,NA,NA,left,n_s_102.jpg,blue,black,NA,NA,NA,NA,NA,NA,NA,NA,NA,NaN,NA,3512.199999999255,right,0,NA,NA,NA,NA,NA
dBtsQQDN,39kv3a5d2bk8g62f2ek1xjbwsefs7u,32z9zlut1pxsynesz8u6tbmhd4mohs,dBtsQQDN,2020-0188,2021-10-31,07:24:32,08:49:36,NA,incomplete,false,NA,NA,true,2,16,NA,NA,NA,left,m_l_041.jpg,brown,black,NA,NA,NA,NA,NA,NA,NA,NA,NA,NaN,NA,4645.10000000149,right,0,NA,NA,NA,NA,NA
dBtsQQDN,39kv3a5d2bk8g62f2ek1xjbwsefs7u,32z9zlut1pxsynesz8u6tbmhd4mohs,dBtsQQDN,2020-0188,2021-10-31,07:24:32,08:49:36,NA,incomplete,false,NA,NA,true,2,17,NA,NA,NA,left,m_s_036.jpg,green,blue,NA,NA,NA,NA,NA,NA,NA,NA,NA,NaN,NA,4709.699999999255,right,0,NA,NA,NA,NA,NA
dBtsQQDN,39kv3a5d2bk8g62f2ek1xjbwsefs7u,32z9zlut1pxsynesz8u6tbmhd4mohs,dBtsQQDN,2020-0188,2021-10-31,07:24:32,08:49:36,NA,incomplete,false,NA,NA,true,2,18,NA,NA,NA,right,m_s_063.jpg,black,blue,NA,NA,NA,NA,NA,NA,NA,NA,NA,NaN,NA,1963.2999999970198,right,1,NA,NA,NA,NA,NA
dBtsQQDN,39kv3a5d2bk8g62f2ek1xjbwsefs7u,32z9zlut1pxsynesz8u6tbmhd4mohs,dBtsQQDN,2020-0188,2021-10-31,07:24:32,08:49:36,NA,incomplete,false,NA,NA,true,2,19,NA,NA,NA,right,n_l_088.jpg,black,brown,NA,NA,NA,NA,NA,NA,NA,NA,NA,NaN,NA,1306.8999999985099,right,1,NA,NA,NA,NA,NA
dBtsQQDN,39kv3a5d2bk8g62f2ek1xjbwsefs7u,32z9zlut1pxsynesz8u6tbmhd4mohs,dBtsQQDN,2020-0188,2021-10-31,07:24:32,08:49:36,NA,incomplete,false,NA,NA,true,2,20,NA,NA,NA,right,n_s_091.jpg,black,blue,NA,NA,NA,NA,NA,NA,NA,NA,NA,NaN,NA,5147.10000000149,right,1,NA,NA,NA,NA,NA
dBtsQQDN,39kv3a5d2bk8g62f2ek1xjbwsefs7u,32z9zlut1pxsynesz8u6tbmhd4mohs,dBtsQQDN,2020-0188,2021-10-31,07:24:32,08:49:36,NA,incomplete,false,NA,NA,true,2,21,NA,NA,NA,right,n_l_111.jpg,blue,black,NA,NA,NA,NA,NA,NA,NA,NA,NA,NaN,NA,3569,right,1,NA,NA,NA,NA,NA
dBtsQQDN,39kv3a5d2bk8g62f2ek1xjbwsefs7u,32z9zlut1pxsynesz8u6tbmhd4mohs,dBtsQQDN,2020-0188,2021-10-31,07:24:32,08:49:36,NA,incomplete,false,NA,true,NA,2,0,NA,NA,NA,left,NA,NA,NA,absent,NA,NA,n_s_107.jpg,blue,n_s_091.jpg,blue,within,NA,NaN,NA,NA,NA,NA,right,3581.699999999255,0,2,1573.300000000745
dBtsQQDN,39kv3a5d2bk8g62f2ek1xjbwsefs7u,32z9zlut1pxsynesz8u6tbmhd4mohs,dBtsQQDN,2020-0188,2021-10-31,07:24:32,08:49:36,NA,incomplete,false,NA,true,NA,2,1,NA,NA,NA,right,NA,NA,NA,absent,NA,NA,m_l_044.jpg,green,n_s_102.jpg,blue,between,NA,NaN,NA,NA,NA,NA,left,2379.400000002235,0,2,2041.199999999255
dBtsQQDN,39kv3a5d2bk8g62f2ek1xjbwsefs7u,32z9zlut1pxsynesz8u6tbmhd4mohs,dBtsQQDN,2020-0188,2021-10-31,07:24:32,08:49:36,NA,incomplete,false,NA,true,NA,2,2,NA,NA,NA,right,NA,NA,NA,absent,NA,NA,m_s_049.jpg,black,m_l_048.jpg,brown,between,NA,NaN,NA,NA,NA,NA,right,2687,1,2,1144
dBtsQQDN,39kv3a5d2bk8g62f2ek1xjbwsefs7u,32z9zlut1pxsynesz8u6tbmhd4mohs,dBtsQQDN,2020-0188,2021-10-31,07:24:32,08:49:36,NA,incomplete,false,NA,true,NA,2,3,NA,NA,NA,left,NA,NA,NA,absent,NA,NA,n_l_039.jpg,red,n_l_050.jpg,gray,between,NA,NaN,NA,NA,NA,NA,left,3345.89999999851,1,2,1169.1000000014901
dBtsQQDN,39kv3a5d2bk8g62f2ek1xjbwsefs7u,32z9zlut1pxsynesz8u6tbmhd4mohs,dBtsQQDN,2020-0188,2021-10-31,07:24:32,08:49:36,NA,incomplete,false,NA,true,NA,2,4,NA,NA,NA,right,NA,NA,NA,absent,NA,NA,m_l_041.jpg,brown,n_l_112.jpg,brown,within,NA,NaN,NA,NA,NA,NA,right,3796.2999999970198,1,2,1202.4000000022352
dBtsQQDN,39kv3a5d2bk8g62f2ek1xjbwsefs7u,32z9zlut1pxsynesz8u6tbmhd4mohs,dBtsQQDN,2020-0188,2021-10-31,07:24:32,08:49:36,NA,incomplete,false,NA,true,NA,2,5,NA,NA,NA,left,NA,NA,NA,absent,NA,NA,n_s_017.jpg,black,n_l_111.jpg,black,within,NA,NaN,NA,NA,NA,NA,right,2874.699999999255,0,2,1326
dBtsQQDN,39kv3a5d2bk8g62f2ek1xjbwsefs7u,32z9zlut1pxsynesz8u6tbmhd4mohs,dBtsQQDN,2020-0188,2021-10-31,07:24:32,08:49:36,NA,incomplete,false,NA,true,NA,2,6,NA,NA,NA,right,NA,NA,NA,absent,NA,NA,m_s_011.jpg,gray,m_s_020.jpg,gray,within,NA,NaN,NA,NA,NA,NA,left,3294.199999999255,0,2,1129.3999999985099
dBtsQQDN,39kv3a5d2bk8g62f2ek1xjbwsefs7u,32z9zlut1pxsynesz8u6tbmhd4mohs,dBtsQQDN,2020-0188,2021-10-31,07:24:32,08:49:36,NA,incomplete,false,NA,true,NA,2,7,NA,NA,NA,left,NA,NA,NA,absent,NA,NA,m_l_074.jpg,gray,n_l_088.jpg,brown,between,NA,NaN,NA,NA,NA,NA,left,4833.300000000745,1,2,2310.599999997765
dBtsQQDN,39kv3a5d2bk8g62f2ek1xjbwsefs7u,32z9zlut1pxsynesz8u6tbmhd4mohs,dBtsQQDN,2020-0188,2021-10-31,07:24:32,08:49:36,NA,incomplete,false,NA,true,NA,2,8,NA,NA,NA,right,NA,NA,NA,absent,NA,NA,n_l_072.jpg,red,m_s_010.jpg,red,within,NA,NaN,NA,NA,NA,NA,right,3415.900000002235,1,2,960.1000000014901
dBtsQQDN,39kv3a5d2bk8g62f2ek1xjbwsefs7u,32z9zlut1pxsynesz8u6tbmhd4mohs,dBtsQQDN,2020-0188,2021-10-31,07:24:32,08:49:36,NA,incomplete,false,NA,true,NA,2,9,NA,NA,NA,right,NA,NA,NA,absent,NA,NA,m_s_063.jpg,blue,m_l_031.jpg,black,between,NA,NaN,NA,NA,NA,NA,left,6065.199999999255,0,2,1129
dBtsQQDN,39kv3a5d2bk8g62f2ek1xjbwsefs7u,32z9zlut1pxsynesz8u6tbmhd4mohs,dBtsQQDN,2020-0188,2021-10-31,07:24:32,08:49:36,NA,incomplete,false,NA,true,NA,2,10,NA,NA,NA,left,NA,NA,NA,absent,NA,NA,m_s_101.jpg,green,m_s_036.jpg,green,within,NA,NaN,NA,NA,NA,NA,right,2844.5,0,2,1682.4000000022352
dBtsQQDN,39kv3a5d2bk8g62f2ek1xjbwsefs7u,32z9zlut1pxsynesz8u6tbmhd4mohs,dBtsQQDN,2020-0188,2021-10-31,07:24:32,08:49:36,NA,incomplete,false,true,NA,NA,3,0,NA,red,m_l_113.jpg,NA,NA,NA,NA,NA,unpleasant,pleasant,NA,NA,NA,NA,NA,left,2943.5,true,NA,NA,NA,NA,NA,NA,NA,NA
dBtsQQDN,39kv3a5d2bk8g62f2ek1xjbwsefs7u,32z9zlut1pxsynesz8u6tbmhd4mohs,dBtsQQDN,2020-0188,2021-10-31,07:24:32,08:49:36,NA,incomplete,false,true,NA,NA,3,1,NA,red,n_l_045.jpg,NA,NA,NA,NA,NA,pleasant,unpleasant,NA,NA,NA,NA,NA,left,2205.59999999776,true,NA,NA,NA,NA,NA,NA,NA,NA
dBtsQQDN,39kv3a5d2bk8g62f2ek1xjbwsefs7u,32z9zlut1pxsynesz8u6tbmhd4mohs,dBtsQQDN,2020-0188,2021-10-31,07:24:32,08:49:36,NA,incomplete,false,true,NA,NA,3,2,NA,red,n_s_117.jpg,NA,NA,NA,NA,NA,pleasant,unpleasant,NA,NA,NA,NA,NA,right,998.5,true,NA,NA,NA,NA,NA,NA,NA,NA
dBtsQQDN,39kv3a5d2bk8g62f2ek1xjbwsefs7u,32z9zlut1pxsynesz8u6tbmhd4mohs,dBtsQQDN,2020-0188,2021-10-31,07:24:32,08:49:36,NA,incomplete,false,true,NA,NA,3,3,NA,red,n_l_055.jpg,NA,NA,NA,NA,NA,pleasant,unpleasant,NA,NA,NA,NA,NA,left,1245.60000000149,true,NA,NA,NA,NA,NA,NA,NA,NA
dBtsQQDN,39kv3a5d2bk8g62f2ek1xjbwsefs7u,32z9zlut1pxsynesz8u6tbmhd4mohs,dBtsQQDN,2020-0188,2021-10-31,07:24:32,08:49:36,NA,incomplete,false,true,NA,NA,3,4,NA,red,n_s_088.jpg,NA,NA,NA,NA,NA,pleasant,unpleasant,NA,NA,NA,NA,NA,left,979.60000000149,true,NA,NA,NA,NA,NA,NA,NA,NA
dBtsQQDN,39kv3a5d2bk8g62f2ek1xjbwsefs7u,32z9zlut1pxsynesz8u6tbmhd4mohs,dBtsQQDN,2020-0188,2021-10-31,07:24:32,08:49:36,NA,incomplete,false,true,NA,NA,3,5,NA,red,n_l_082.jpg,NA,NA,NA,NA,NA,unpleasant,pleasant,NA,NA,NA,NA,NA,right,1289.89999999851,true,NA,NA,NA,NA,NA,NA,NA,NA
dBtsQQDN,39kv3a5d2bk8g62f2ek1xjbwsefs7u,32z9zlut1pxsynesz8u6tbmhd4mohs,dBtsQQDN,2020-0188,2021-10-31,07:24:32,08:49:36,NA,incomplete,false,true,NA,NA,3,6,NA,brown,m_s_031.jpg,NA,NA,NA,NA,NA,unpleasant,pleasant,NA,NA,NA,NA,NA,left,1349.90000000224,true,NA,NA,NA,NA,NA,NA,NA,NA
dBtsQQDN,39kv3a5d2bk8g62f2ek1xjbwsefs7u,32z9zlut1pxsynesz8u6tbmhd4mohs,dBtsQQDN,2020-0188,2021-10-31,07:24:32,08:49:36,NA,incomplete,false,true,NA,NA,3,7,NA,brown,n_s_114.jpg,NA,NA,NA,NA,NA,unpleasant,pleasant,NA,NA,NA,NA,NA,right,1886.30000000075,true,NA,NA,NA,NA,NA,NA,NA,NA
dBtsQQDN,39kv3a5d2bk8g62f2ek1xjbwsefs7u,32z9zlut1pxsynesz8u6tbmhd4mohs,dBtsQQDN,2020-0188,2021-10-31,07:24:32,08:49:36,NA,incomplete,false,true,NA,NA,3,8,NA,brown,m_l_050.jpg,NA,NA,NA,NA,NA,pleasant,unpleasant,NA,NA,NA,NA,NA,left,1515.59999999776,true,NA,NA,NA,NA,NA,NA,NA,NA
dBtsQQDN,39kv3a5d2bk8g62f2ek1xjbwsefs7u,32z9zlut1pxsynesz8u6tbmhd4mohs,dBtsQQDN,2020-0188,2021-10-31,07:24:32,08:49:36,NA,incomplete,false,true,NA,NA,3,9,NA,brown,n_l_058.jpg,NA,NA,NA,NA,NA,pleasant,unpleasant,NA,NA,NA,NA,NA,left,1174.39999999851,true,NA,NA,NA,NA,NA,NA,NA,NA
dBtsQQDN,39kv3a5d2bk8g62f2ek1xjbwsefs7u,32z9zlut1pxsynesz8u6tbmhd4mohs,dBtsQQDN,2020-0188,2021-10-31,07:24:32,08:49:36,NA,incomplete,false,true,NA,NA,3,10,NA,brown,m_s_015.jpg,NA,NA,NA,NA,NA,unpleasant,pleasant,NA,NA,NA,NA,NA,right,1114.30000000075,true,NA,NA,NA,NA,NA,NA,NA,NA
dBtsQQDN,39kv3a5d2bk8g62f2ek1xjbwsefs7u,32z9zlut1pxsynesz8u6tbmhd4mohs,dBtsQQDN,2020-0188,2021-10-31,07:24:32,08:49:36,NA,incomplete,false,true,NA,NA,3,11,NA,brown,m_s_033.jpg,NA,NA,NA,NA,NA,pleasant,unpleasant,NA,NA,NA,NA,NA,left,1564.39999999851,true,NA,NA,NA,NA,NA,NA,NA,NA
dBtsQQDN,39kv3a5d2bk8g62f2ek1xjbwsefs7u,32z9zlut1pxsynesz8u6tbmhd4mohs,dBtsQQDN,2020-0188,2021-10-31,07:24:32,08:49:36,NA,incomplete,false,true,NA,NA,3,12,NA,orange,m_s_052.jpg,NA,NA,NA,NA,NA,unpleasant,pleasant,NA,NA,NA,NA,NA,right,1446,true,NA,NA,NA,NA,NA,NA,NA,NA
dBtsQQDN,39kv3a5d2bk8g62f2ek1xjbwsefs7u,32z9zlut1pxsynesz8u6tbmhd4mohs,dBtsQQDN,2020-0188,2021-10-31,07:24:32,08:49:36,NA,incomplete,false,true,NA,NA,3,13,NA,orange,m_s_014.jpg,NA,NA,NA,NA,NA,pleasant,unpleasant,NA,NA,NA,NA,NA,left,1383.69999999925,true,NA,NA,NA,NA,NA,NA,NA,NA
dBtsQQDN,39kv3a5d2bk8g62f2ek1xjbwsefs7u,32z9zlut1pxsynesz8u6tbmhd4mohs,dBtsQQDN,2020-0188,2021-10-31,07:24:32,08:49:36,NA,incomplete,false,true,NA,NA,3,14,NA,orange,n_l_057.jpg,NA,NA,NA,NA,NA,pleasant,unpleasant,NA,NA,NA,NA,NA,left,1385.69999999925,true,NA,NA,NA,NA,NA,NA,NA,NA
dBtsQQDN,39kv3a5d2bk8g62f2ek1xjbwsefs7u,32z9zlut1pxsynesz8u6tbmhd4mohs,dBtsQQDN,2020-0188,2021-10-31,07:24:32,08:49:36,NA,incomplete,false,true,NA,NA,3,15,NA,orange,m_s_085.jpg,NA,NA,NA,NA,NA,unpleasant,pleasant,NA,NA,NA,NA,NA,left,1490.19999999925,true,NA,NA,NA,NA,NA,NA,NA,NA
dBtsQQDN,39kv3a5d2bk8g62f2ek1xjbwsefs7u,32z9zlut1pxsynesz8u6tbmhd4mohs,dBtsQQDN,2020-0188,2021-10-31,07:24:32,08:49:36,NA,incomplete,false,true,NA,NA,3,16,NA,orange,n_s_037.jpg,NA,NA,NA,NA,NA,pleasant,unpleasant,NA,NA,NA,NA,NA,left,1293.60000000149,true,NA,NA,NA,NA,NA,NA,NA,NA
dBtsQQDN,39kv3a5d2bk8g62f2ek1xjbwsefs7u,32z9zlut1pxsynesz8u6tbmhd4mohs,dBtsQQDN,2020-0188,2021-10-31,07:24:32,08:49:36,NA,incomplete,false,true,NA,NA,3,17,NA,orange,m_l_033.jpg,NA,NA,NA,NA,NA,unpleasant,pleasant,NA,NA,NA,NA,NA,right,1866.19999999925,true,NA,NA,NA,NA,NA,NA,NA,NA
dBtsQQDN,39kv3a5d2bk8g62f2ek1xjbwsefs7u,32z9zlut1pxsynesz8u6tbmhd4mohs,dBtsQQDN,2020-0188,2021-10-31,07:24:32,08:49:36,NA,incomplete,false,true,NA,NA,3,18,NA,green,n_s_079.jpg,NA,NA,NA,NA,NA,pleasant,unpleasant,NA,NA,NA,NA,NA,left,2600.5,true,NA,NA,NA,NA,NA,NA,NA,NA
dBtsQQDN,39kv3a5d2bk8g62f2ek1xjbwsefs7u,32z9zlut1pxsynesz8u6tbmhd4mohs,dBtsQQDN,2020-0188,2021-10-31,07:24:32,08:49:36,NA,incomplete,false,true,NA,NA,3,19,NA,green,m_s_021.jpg,NA,NA,NA,NA,NA,pleasant,unpleasant,NA,NA,NA,NA,NA,left,1580,true,NA,NA,NA,NA,NA,NA,NA,NA
dBtsQQDN,39kv3a5d2bk8g62f2ek1xjbwsefs7u,32z9zlut1pxsynesz8u6tbmhd4mohs,dBtsQQDN,2020-0188,2021-10-31,07:24:32,08:49:36,NA,incomplete,false,true,NA,NA,3,20,NA,green,m_s_053.jpg,NA,NA,NA,NA,NA,pleasant,unpleasant,NA,NA,NA,NA,NA,left,1202.19999999925,true,NA,NA,NA,NA,NA,NA,NA,NA
dBtsQQDN,39kv3a5d2bk8g62f2ek1xjbwsefs7u,32z9zlut1pxsynesz8u6tbmhd4mohs,dBtsQQDN,2020-0188,2021-10-31,07:24:32,08:49:36,NA,incomplete,false,true,NA,NA,3,21,NA,green,m_l_066.jpg,NA,NA,NA,NA,NA,pleasant,unpleasant,NA,NA,NA,NA,NA,left,1142.69999999925,true,NA,NA,NA,NA,NA,NA,NA,NA
dBtsQQDN,39kv3a5d2bk8g62f2ek1xjbwsefs7u,32z9zlut1pxsynesz8u6tbmhd4mohs,dBtsQQDN,2020-0188,2021-10-31,07:24:32,08:49:36,NA,incomplete,false,true,NA,NA,3,22,NA,green,n_s_112.jpg,NA,NA,NA,NA,NA,unpleasant,pleasant,NA,NA,NA,NA,NA,right,1298,true,NA,NA,NA,NA,NA,NA,NA,NA
dBtsQQDN,39kv3a5d2bk8g62f2ek1xjbwsefs7u,32z9zlut1pxsynesz8u6tbmhd4mohs,dBtsQQDN,2020-0188,2021-10-31,07:24:32,08:49:36,NA,incomplete,false,true,NA,NA,3,23,NA,green,m_s_058.jpg,NA,NA,NA,NA,NA,pleasant,unpleasant,NA,NA,NA,NA,NA,left,1206.59999999776,true,NA,NA,NA,NA,NA,NA,NA,NA
dBtsQQDN,39kv3a5d2bk8g62f2ek1xjbwsefs7u,32z9zlut1pxsynesz8u6tbmhd4mohs,dBtsQQDN,2020-0188,2021-10-31,07:24:32,08:49:36,NA,incomplete,false,true,NA,NA,3,24,NA,yellow,n_l_049.jpg,NA,NA,NA,NA,NA,pleasant,unpleasant,NA,NA,NA,NA,NA,left,1239.80000000075,true,NA,NA,NA,NA,NA,NA,NA,NA
dBtsQQDN,39kv3a5d2bk8g62f2ek1xjbwsefs7u,32z9zlut1pxsynesz8u6tbmhd4mohs,dBtsQQDN,2020-0188,2021-10-31,07:24:32,08:49:36,NA,incomplete,false,true,NA,NA,3,25,NA,yellow,n_s_011.jpg,NA,NA,NA,NA,NA,pleasant,unpleasant,NA,NA,NA,NA,NA,left,1365.09999999776,true,NA,NA,NA,NA,NA,NA,NA,NA
dBtsQQDN,39kv3a5d2bk8g62f2ek1xjbwsefs7u,32z9zlut1pxsynesz8u6tbmhd4mohs,dBtsQQDN,2020-0188,2021-10-31,07:24:32,08:49:36,NA,incomplete,false,true,NA,NA,3,26,NA,yellow,n_s_034.jpg,NA,NA,NA,NA,NA,unpleasant,pleasant,NA,NA,NA,NA,NA,right,1393.80000000075,true,NA,NA,NA,NA,NA,NA,NA,NA
dBtsQQDN,39kv3a5d2bk8g62f2ek1xjbwsefs7u,32z9zlut1pxsynesz8u6tbmhd4mohs,dBtsQQDN,2020-0188,2021-10-31,07:24:32,08:49:36,NA,incomplete,false,true,NA,NA,3,27,NA,yellow,n_l_077.jpg,NA,NA,NA,NA,NA,pleasant,unpleasant,NA,NA,NA,NA,NA,left,1225.89999999851,true,NA,NA,NA,NA,NA,NA,NA,NA
dBtsQQDN,39kv3a5d2bk8g62f2ek1xjbwsefs7u,32z9zlut1pxsynesz8u6tbmhd4mohs,dBtsQQDN,2020-0188,2021-10-31,07:24:32,08:49:36,NA,incomplete,false,true,NA,NA,3,28,NA,yellow,m_s_050.jpg,NA,NA,NA,NA,NA,pleasant,unpleasant,NA,NA,NA,NA,NA,left,1430.19999999925,true,NA,NA,NA,NA,NA,NA,NA,NA
dBtsQQDN,39kv3a5d2bk8g62f2ek1xjbwsefs7u,32z9zlut1pxsynesz8u6tbmhd4mohs,dBtsQQDN,2020-0188,2021-10-31,07:24:32,08:49:36,NA,incomplete,false,true,NA,NA,3,29,NA,yellow,n_l_102.jpg,NA,NA,NA,NA,NA,unpleasant,pleasant,NA,NA,NA,NA,NA,right,1169,true,NA,NA,NA,NA,NA,NA,NA,NA
dBtsQQDN,39kv3a5d2bk8g62f2ek1xjbwsefs7u,32z9zlut1pxsynesz8u6tbmhd4mohs,dBtsQQDN,2020-0188,2021-10-31,07:24:32,08:49:36,NA,incomplete,false,true,NA,NA,3,30,NA,black,m_l_035.jpg,NA,NA,NA,NA,NA,unpleasant,pleasant,NA,NA,NA,NA,NA,right,2111,true,NA,NA,NA,NA,NA,NA,NA,NA
dBtsQQDN,39kv3a5d2bk8g62f2ek1xjbwsefs7u,32z9zlut1pxsynesz8u6tbmhd4mohs,dBtsQQDN,2020-0188,2021-10-31,07:24:32,08:49:36,NA,incomplete,false,true,NA,NA,3,31,NA,black,n_s_032.jpg,NA,NA,NA,NA,NA,pleasant,unpleasant,NA,NA,NA,NA,NA,left,1348.09999999776,true,NA,NA,NA,NA,NA,NA,NA,NA
dBtsQQDN,39kv3a5d2bk8g62f2ek1xjbwsefs7u,32z9zlut1pxsynesz8u6tbmhd4mohs,dBtsQQDN,2020-0188,2021-10-31,07:24:32,08:49:36,NA,incomplete,false,true,NA,NA,3,32,NA,black,m_l_052.jpg,NA,NA,NA,NA,NA,unpleasant,pleasant,NA,NA,NA,NA,NA,right,1263.30000000075,true,NA,NA,NA,NA,NA,NA,NA,NA
dBtsQQDN,39kv3a5d2bk8g62f2ek1xjbwsefs7u,32z9zlut1pxsynesz8u6tbmhd4mohs,dBtsQQDN,2020-0188,2021-10-31,07:24:32,08:49:36,NA,incomplete,false,true,NA,NA,3,33,NA,black,n_s_097.jpg,NA,NA,NA,NA,NA,unpleasant,pleasant,NA,NA,NA,NA,NA,right,1023.60000000149,true,NA,NA,NA,NA,NA,NA,NA,NA
dBtsQQDN,39kv3a5d2bk8g62f2ek1xjbwsefs7u,32z9zlut1pxsynesz8u6tbmhd4mohs,dBtsQQDN,2020-0188,2021-10-31,07:24:32,08:49:36,NA,incomplete,false,true,NA,NA,3,34,NA,black,n_l_071.jpg,NA,NA,NA,NA,NA,unpleasant,pleasant,NA,NA,NA,NA,NA,right,1065.10000000149,true,NA,NA,NA,NA,NA,NA,NA,NA
dBtsQQDN,39kv3a5d2bk8g62f2ek1xjbwsefs7u,32z9zlut1pxsynesz8u6tbmhd4mohs,dBtsQQDN,2020-0188,2021-10-31,07:24:32,08:49:36,NA,incomplete,false,true,NA,NA,3,35,NA,black,n_l_114.jpg,NA,NA,NA,NA,NA,pleasant,unpleasant,NA,NA,NA,NA,NA,left,2010.39999999851,true,NA,NA,NA,NA,NA,NA,NA,NA
dBtsQQDN,39kv3a5d2bk8g62f2ek1xjbwsefs7u,32z9zlut1pxsynesz8u6tbmhd4mohs,dBtsQQDN,2020-0188,2021-10-31,07:24:32,08:49:36,NA,incomplete,false,NA,NA,true,3,0,NA,NA,NA,left,n_s_011.jpg,yellow,black,NA,NA,NA,NA,NA,NA,NA,NA,NA,NaN,NA,3170.800000000745,right,0,NA,NA,NA,NA,NA
dBtsQQDN,39kv3a5d2bk8g62f2ek1xjbwsefs7u,32z9zlut1pxsynesz8u6tbmhd4mohs,dBtsQQDN,2020-0188,2021-10-31,07:24:32,08:49:36,NA,incomplete,false,NA,NA,true,3,1,NA,NA,NA,right,n_l_057.jpg,brown,orange,NA,NA,NA,NA,NA,NA,NA,NA,NA,NaN,NA,1696,right,1,NA,NA,NA,NA,NA
dBtsQQDN,39kv3a5d2bk8g62f2ek1xjbwsefs7u,32z9zlut1pxsynesz8u6tbmhd4mohs,dBtsQQDN,2020-0188,2021-10-31,07:24:32,08:49:36,NA,incomplete,false,NA,NA,true,3,2,NA,NA,NA,right,m_s_050.jpg,green,yellow,NA,NA,NA,NA,NA,NA,NA,NA,NA,NaN,NA,1444.300000000745,right,1,NA,NA,NA,NA,NA
dBtsQQDN,39kv3a5d2bk8g62f2ek1xjbwsefs7u,32z9zlut1pxsynesz8u6tbmhd4mohs,dBtsQQDN,2020-0188,2021-10-31,07:24:32,08:49:36,NA,incomplete,false,NA,NA,true,3,3,NA,NA,NA,right,n_l_102.jpg,black,yellow,NA,NA,NA,NA,NA,NA,NA,NA,NA,NaN,NA,1826.3999999985099,right,1,NA,NA,NA,NA,NA
dBtsQQDN,39kv3a5d2bk8g62f2ek1xjbwsefs7u,32z9zlut1pxsynesz8u6tbmhd4mohs,dBtsQQDN,2020-0188,2021-10-31,07:24:32,08:49:36,NA,incomplete,false,NA,NA,true,3,4,NA,NA,NA,right,n_s_114.jpg,red,brown,NA,NA,NA,NA,NA,NA,NA,NA,NA,NaN,NA,1727.199999999255,right,1,NA,NA,NA,NA,NA
dBtsQQDN,39kv3a5d2bk8g62f2ek1xjbwsefs7u,32z9zlut1pxsynesz8u6tbmhd4mohs,dBtsQQDN,2020-0188,2021-10-31,07:24:32,08:49:36,NA,incomplete,false,NA,NA,true,3,5,NA,NA,NA,right,n_s_088.jpg,brown,red,NA,NA,NA,NA,NA,NA,NA,NA,NA,NaN,NA,2858,right,1,NA,NA,NA,NA,NA
dBtsQQDN,39kv3a5d2bk8g62f2ek1xjbwsefs7u,32z9zlut1pxsynesz8u6tbmhd4mohs,dBtsQQDN,2020-0188,2021-10-31,07:24:32,08:49:36,NA,incomplete,false,NA,NA,true,3,6,NA,NA,NA,left,m_s_058.jpg,green,orange,NA,NA,NA,NA,NA,NA,NA,NA,NA,NaN,NA,3917.39999999851,left,1,NA,NA,NA,NA,NA
dBtsQQDN,39kv3a5d2bk8g62f2ek1xjbwsefs7u,32z9zlut1pxsynesz8u6tbmhd4mohs,dBtsQQDN,2020-0188,2021-10-31,07:24:32,08:49:36,NA,incomplete,false,NA,NA,true,3,7,NA,NA,NA,right,n_l_114.jpg,yellow,black,NA,NA,NA,NA,NA,NA,NA,NA,NA,NaN,NA,2082.699999999255,left,0,NA,NA,NA,NA,NA
dBtsQQDN,39kv3a5d2bk8g62f2ek1xjbwsefs7u,32z9zlut1pxsynesz8u6tbmhd4mohs,dBtsQQDN,2020-0188,2021-10-31,07:24:32,08:49:36,NA,incomplete,false,NA,NA,true,3,8,NA,NA,NA,right,n_s_032.jpg,yellow,black,NA,NA,NA,NA,NA,NA,NA,NA,NA,NaN,NA,1541.6000000014901,right,1,NA,NA,NA,NA,NA
dBtsQQDN,39kv3a5d2bk8g62f2ek1xjbwsefs7u,32z9zlut1pxsynesz8u6tbmhd4mohs,dBtsQQDN,2020-0188,2021-10-31,07:24:32,08:49:36,NA,incomplete,false,NA,NA,true,3,9,NA,NA,NA,right,n_s_034.jpg,green,yellow,NA,NA,NA,NA,NA,NA,NA,NA,NA,NaN,NA,2624.10000000149,right,1,NA,NA,NA,NA,NA
dBtsQQDN,39kv3a5d2bk8g62f2ek1xjbwsefs7u,32z9zlut1pxsynesz8u6tbmhd4mohs,dBtsQQDN,2020-0188,2021-10-31,07:24:32,08:49:36,NA,incomplete,false,NA,NA,true,3,10,NA,NA,NA,left,m_l_050.jpg,brown,red,NA,NA,NA,NA,NA,NA,NA,NA,NA,NaN,NA,1994.5,left,1,NA,NA,NA,NA,NA
dBtsQQDN,39kv3a5d2bk8g62f2ek1xjbwsefs7u,32z9zlut1pxsynesz8u6tbmhd4mohs,dBtsQQDN,2020-0188,2021-10-31,07:24:32,08:49:36,NA,incomplete,false,NA,NA,true,3,11,NA,NA,NA,right,n_s_112.jpg,orange,green,NA,NA,NA,NA,NA,NA,NA,NA,NA,NaN,NA,2163.89999999851,right,1,NA,NA,NA,NA,NA
dBtsQQDN,39kv3a5d2bk8g62f2ek1xjbwsefs7u,32z9zlut1pxsynesz8u6tbmhd4mohs,dBtsQQDN,2020-0188,2021-10-31,07:24:32,08:49:36,NA,incomplete,false,NA,NA,true,3,12,NA,NA,NA,left,m_l_052.jpg,black,yellow,NA,NA,NA,NA,NA,NA,NA,NA,NA,NaN,NA,1469.0999999977648,right,0,NA,NA,NA,NA,NA
dBtsQQDN,39kv3a5d2bk8g62f2ek1xjbwsefs7u,32z9zlut1pxsynesz8u6tbmhd4mohs,dBtsQQDN,2020-0188,2021-10-31,07:24:32,08:49:36,NA,incomplete,false,NA,NA,true,3,13,NA,NA,NA,right,n_s_037.jpg,green,orange,NA,NA,NA,NA,NA,NA,NA,NA,NA,NaN,NA,1267.1000000014901,right,1,NA,NA,NA,NA,NA
dBtsQQDN,39kv3a5d2bk8g62f2ek1xjbwsefs7u,32z9zlut1pxsynesz8u6tbmhd4mohs,dBtsQQDN,2020-0188,2021-10-31,07:24:32,08:49:36,NA,incomplete,false,NA,NA,true,3,14,NA,NA,NA,right,m_l_033.jpg,brown,orange,NA,NA,NA,NA,NA,NA,NA,NA,NA,NaN,NA,2083.199999999255,right,1,NA,NA,NA,NA,NA
dBtsQQDN,39kv3a5d2bk8g62f2ek1xjbwsefs7u,32z9zlut1pxsynesz8u6tbmhd4mohs,dBtsQQDN,2020-0188,2021-10-31,07:24:32,08:49:36,NA,incomplete,false,NA,NA,true,3,15,NA,NA,NA,left,m_s_053.jpg,green,orange,NA,NA,NA,NA,NA,NA,NA,NA,NA,NaN,NA,1527.3999999985099,left,1,NA,NA,NA,NA,NA
dBtsQQDN,39kv3a5d2bk8g62f2ek1xjbwsefs7u,32z9zlut1pxsynesz8u6tbmhd4mohs,dBtsQQDN,2020-0188,2021-10-31,07:24:32,08:49:36,NA,incomplete,false,NA,NA,true,3,16,NA,NA,NA,left,m_s_033.jpg,brown,red,NA,NA,NA,NA,NA,NA,NA,NA,NA,NaN,NA,4872.300000000745,left,1,NA,NA,NA,NA,NA
dBtsQQDN,39kv3a5d2bk8g62f2ek1xjbwsefs7u,32z9zlut1pxsynesz8u6tbmhd4mohs,dBtsQQDN,2020-0188,2021-10-31,07:24:32,08:49:36,NA,incomplete,false,NA,NA,true,3,17,NA,NA,NA,right,n_l_045.jpg,brown,red,NA,NA,NA,NA,NA,NA,NA,NA,NA,NaN,NA,1366.8999999985099,right,1,NA,NA,NA,NA,NA
dBtsQQDN,39kv3a5d2bk8g62f2ek1xjbwsefs7u,32z9zlut1pxsynesz8u6tbmhd4mohs,dBtsQQDN,2020-0188,2021-10-31,07:24:32,08:49:36,NA,incomplete,false,NA,NA,true,3,18,NA,NA,NA,right,m_s_021.jpg,yellow,green,NA,NA,NA,NA,NA,NA,NA,NA,NA,NaN,NA,2216.39999999851,left,0,NA,NA,NA,NA,NA
dBtsQQDN,39kv3a5d2bk8g62f2ek1xjbwsefs7u,32z9zlut1pxsynesz8u6tbmhd4mohs,dBtsQQDN,2020-0188,2021-10-31,07:24:32,08:49:36,NA,incomplete,false,NA,NA,true,3,19,NA,NA,NA,right,m_s_015.jpg,orange,brown,NA,NA,NA,NA,NA,NA,NA,NA,NA,NaN,NA,1413.2000000029802,right,1,NA,NA,NA,NA,NA
dBtsQQDN,39kv3a5d2bk8g62f2ek1xjbwsefs7u,32z9zlut1pxsynesz8u6tbmhd4mohs,dBtsQQDN,2020-0188,2021-10-31,07:24:32,08:49:36,NA,incomplete,false,NA,NA,true,3,20,NA,NA,NA,left,m_s_014.jpg,orange,brown,NA,NA,NA,NA,NA,NA,NA,NA,NA,NaN,NA,1786.1000000014901,right,0,NA,NA,NA,NA,NA
dBtsQQDN,39kv3a5d2bk8g62f2ek1xjbwsefs7u,32z9zlut1pxsynesz8u6tbmhd4mohs,dBtsQQDN,2020-0188,2021-10-31,07:24:32,08:49:36,NA,incomplete,false,NA,NA,true,3,21,NA,NA,NA,right,n_l_082.jpg,brown,red,NA,NA,NA,NA,NA,NA,NA,NA,NA,NaN,NA,2055.300000000745,left,0,NA,NA,NA,NA,NA
dBtsQQDN,39kv3a5d2bk8g62f2ek1xjbwsefs7u,32z9zlut1pxsynesz8u6tbmhd4mohs,dBtsQQDN,2020-0188,2021-10-31,07:24:32,08:49:36,NA,incomplete,false,NA,true,NA,3,0,NA,NA,NA,left,NA,NA,NA,absent,NA,NA,m_s_015.jpg,brown,n_l_057.jpg,orange,between,NA,NaN,NA,NA,NA,NA,left,3553.89999999851,1,2,2083.199999999255
dBtsQQDN,39kv3a5d2bk8g62f2ek1xjbwsefs7u,32z9zlut1pxsynesz8u6tbmhd4mohs,dBtsQQDN,2020-0188,2021-10-31,07:24:32,08:49:36,NA,incomplete,false,NA,true,NA,3,1,NA,NA,NA,right,NA,NA,NA,absent,NA,NA,m_s_053.jpg,green,n_s_037.jpg,orange,between,NA,NaN,NA,NA,NA,NA,right,3400.800000000745,1,2,1257.8999999985099
dBtsQQDN,39kv3a5d2bk8g62f2ek1xjbwsefs7u,32z9zlut1pxsynesz8u6tbmhd4mohs,dBtsQQDN,2020-0188,2021-10-31,07:24:32,08:49:36,NA,incomplete,false,NA,true,NA,3,2,NA,NA,NA,left,NA,NA,NA,absent,NA,NA,n_s_112.jpg,green,n_s_034.jpg,yellow,between,NA,NaN,NA,NA,NA,NA,left,2423.699999999255,1,2,1107.800000000745
dBtsQQDN,39kv3a5d2bk8g62f2ek1xjbwsefs7u,32z9zlut1pxsynesz8u6tbmhd4mohs,dBtsQQDN,2020-0188,2021-10-31,07:24:32,08:49:36,NA,incomplete,false,NA,true,NA,3,3,NA,NA,NA,right,NA,NA,NA,absent,NA,NA,n_l_082.jpg,red,n_l_045.jpg,red,within,NA,NaN,NA,NA,NA,NA,right,3685.60000000149,1,2,1333.3999999985099
dBtsQQDN,39kv3a5d2bk8g62f2ek1xjbwsefs7u,32z9zlut1pxsynesz8u6tbmhd4mohs,dBtsQQDN,2020-0188,2021-10-31,07:24:32,08:49:36,NA,incomplete,false,NA,true,NA,3,4,NA,NA,NA,right,NA,NA,NA,absent,NA,NA,n_l_102.jpg,yellow,n_s_011.jpg,yellow,within,NA,NaN,NA,NA,NA,NA,right,2228.800000000745,1,2,967.8999999985099
dBtsQQDN,39kv3a5d2bk8g62f2ek1xjbwsefs7u,32z9zlut1pxsynesz8u6tbmhd4mohs,dBtsQQDN,2020-0188,2021-10-31,07:24:32,08:49:36,NA,incomplete,false,NA,true,NA,3,5,NA,NA,NA,right,NA,NA,NA,absent,NA,NA,m_l_050.jpg,brown,n_s_088.jpg,red,between,NA,NaN,NA,NA,NA,NA,left,1729.699999999255,0,2,133476.5
dBtsQQDN,39kv3a5d2bk8g62f2ek1xjbwsefs7u,32z9zlut1pxsynesz8u6tbmhd4mohs,dBtsQQDN,2020-0188,2021-10-31,07:24:32,08:49:36,NA,incomplete,false,NA,true,NA,3,6,NA,NA,NA,left,NA,NA,NA,absent,NA,NA,n_s_114.jpg,brown,m_s_033.jpg,brown,within,NA,NaN,NA,NA,NA,NA,right,2397.699999999255,0,2,1090.199999999255
dBtsQQDN,39kv3a5d2bk8g62f2ek1xjbwsefs7u,32z9zlut1pxsynesz8u6tbmhd4mohs,dBtsQQDN,2020-0188,2021-10-31,07:24:32,08:49:36,NA,incomplete,false,NA,true,NA,3,7,NA,NA,NA,right,NA,NA,NA,absent,NA,NA,m_l_052.jpg,black,m_s_050.jpg,yellow,between,NA,NaN,NA,NA,NA,NA,left,2730.300000000745,0,1,1880.7999999970198
dBtsQQDN,39kv3a5d2bk8g62f2ek1xjbwsefs7u,32z9zlut1pxsynesz8u6tbmhd4mohs,dBtsQQDN,2020-0188,2021-10-31,07:24:32,08:49:36,NA,incomplete,false,NA,true,NA,3,8,NA,NA,NA,left,NA,NA,NA,absent,NA,NA,m_s_021.jpg,green,m_s_058.jpg,green,within,NA,NaN,NA,NA,NA,NA,left,2221.699999999255,1,1,2594.10000000149
dBtsQQDN,39kv3a5d2bk8g62f2ek1xjbwsefs7u,32z9zlut1pxsynesz8u6tbmhd4mohs,dBtsQQDN,2020-0188,2021-10-31,07:24:32,08:49:36,NA,incomplete,false,NA,true,NA,3,9,NA,NA,NA,right,NA,NA,NA,absent,NA,NA,n_l_114.jpg,black,n_s_032.jpg,black,within,NA,NaN,NA,NA,NA,NA,left,3431.5,0,2,1049.7999999970198
dBtsQQDN,39kv3a5d2bk8g62f2ek1xjbwsefs7u,32z9zlut1pxsynesz8u6tbmhd4mohs,dBtsQQDN,2020-0188,2021-10-31,07:24:32,08:49:36,NA,incomplete,false,NA,true,NA,3,10,NA,NA,NA,right,NA,NA,NA,absent,NA,NA,m_l_033.jpg,orange,m_s_014.jpg,orange,within,NA,NaN,NA,NA,NA,NA,right,2632.39999999851,1,2,1768.5
dBtsQQDN,39kv3a5d2bk8g62f2ek1xjbwsefs7u,32z9zlut1pxsynesz8u6tbmhd4mohs,dBtsQQDN,2020-0188,2021-10-31,07:24:32,08:49:36,NA,incomplete,false,true,NA,NA,4,0,NA,red,m_l_058.jpg,NA,NA,NA,NA,NA,unpleasant,pleasant,NA,NA,NA,NA,NA,left,2417,true,NA,NA,NA,NA,NA,NA,NA,NA
dBtsQQDN,39kv3a5d2bk8g62f2ek1xjbwsefs7u,32z9zlut1pxsynesz8u6tbmhd4mohs,dBtsQQDN,2020-0188,2021-10-31,07:24:32,08:49:36,NA,incomplete,false,true,NA,NA,4,1,NA,red,n_l_035.jpg,NA,NA,NA,NA,NA,pleasant,unpleasant,NA,NA,NA,NA,NA,right,2511.39999999851,true,NA,NA,NA,NA,NA,NA,NA,NA
dBtsQQDN,39kv3a5d2bk8g62f2ek1xjbwsefs7u,32z9zlut1pxsynesz8u6tbmhd4mohs,dBtsQQDN,2020-0188,2021-10-31,07:24:32,08:49:36,NA,incomplete,false,true,NA,NA,4,2,NA,red,n_l_062.jpg,NA,NA,NA,NA,NA,unpleasant,pleasant,NA,NA,NA,NA,NA,right,1401,true,NA,NA,NA,NA,NA,NA,NA,NA
dBtsQQDN,39kv3a5d2bk8g62f2ek1xjbwsefs7u,32z9zlut1pxsynesz8u6tbmhd4mohs,dBtsQQDN,2020-0188,2021-10-31,07:24:32,08:49:36,NA,incomplete,false,true,NA,NA,4,3,NA,red,m_l_045.jpg,NA,NA,NA,NA,NA,unpleasant,pleasant,NA,NA,NA,NA,NA,right,2072,true,NA,NA,NA,NA,NA,NA,NA,NA
dBtsQQDN,39kv3a5d2bk8g62f2ek1xjbwsefs7u,32z9zlut1pxsynesz8u6tbmhd4mohs,dBtsQQDN,2020-0188,2021-10-31,07:24:32,08:49:36,NA,incomplete,false,true,NA,NA,4,4,NA,red,m_l_019.jpg,NA,NA,NA,NA,NA,pleasant,unpleasant,NA,NA,NA,NA,NA,right,1744.59999999776,true,NA,NA,NA,NA,NA,NA,NA,NA
dBtsQQDN,39kv3a5d2bk8g62f2ek1xjbwsefs7u,32z9zlut1pxsynesz8u6tbmhd4mohs,dBtsQQDN,2020-0188,2021-10-31,07:24:32,08:49:36,NA,incomplete,false,true,NA,NA,4,5,NA,red,m_l_011.jpg,NA,NA,NA,NA,NA,pleasant,unpleasant,NA,NA,NA,NA,NA,right,1363.5,true,NA,NA,NA,NA,NA,NA,NA,NA
dBtsQQDN,39kv3a5d2bk8g62f2ek1xjbwsefs7u,32z9zlut1pxsynesz8u6tbmhd4mohs,dBtsQQDN,2020-0188,2021-10-31,07:24:32,08:49:36,NA,incomplete,false,true,NA,NA,4,6,NA,gray,n_l_056.jpg,NA,NA,NA,NA,NA,pleasant,unpleasant,NA,NA,NA,NA,NA,left,1925.59999999776,true,NA,NA,NA,NA,NA,NA,NA,NA
dBtsQQDN,39kv3a5d2bk8g62f2ek1xjbwsefs7u,32z9zlut1pxsynesz8u6tbmhd4mohs,dBtsQQDN,2020-0188,2021-10-31,07:24:32,08:49:36,NA,incomplete,false,true,NA,NA,4,7,NA,gray,m_s_034.jpg,NA,NA,NA,NA,NA,unpleasant,pleasant,NA,NA,NA,NA,NA,left,1768.5,true,NA,NA,NA,NA,NA,NA,NA,NA
dBtsQQDN,39kv3a5d2bk8g62f2ek1xjbwsefs7u,32z9zlut1pxsynesz8u6tbmhd4mohs,dBtsQQDN,2020-0188,2021-10-31,07:24:32,08:49:36,NA,incomplete,false,true,NA,NA,4,8,NA,gray,m_s_073.jpg,NA,NA,NA,NA,NA,pleasant,unpleasant,NA,NA,NA,NA,NA,left,1970.69999999925,true,NA,NA,NA,NA,NA,NA,NA,NA
dBtsQQDN,39kv3a5d2bk8g62f2ek1xjbwsefs7u,32z9zlut1pxsynesz8u6tbmhd4mohs,dBtsQQDN,2020-0188,2021-10-31,07:24:32,08:49:36,NA,incomplete,false,true,NA,NA,4,9,NA,gray,n_l_086.jpg,NA,NA,NA,NA,NA,unpleasant,pleasant,NA,NA,NA,NA,NA,right,1003.60000000149,true,NA,NA,NA,NA,NA,NA,NA,NA
dBtsQQDN,39kv3a5d2bk8g62f2ek1xjbwsefs7u,32z9zlut1pxsynesz8u6tbmhd4mohs,dBtsQQDN,2020-0188,2021-10-31,07:24:32,08:49:36,NA,incomplete,false,true,NA,NA,4,10,NA,gray,n_s_111.jpg,NA,NA,NA,NA,NA,unpleasant,pleasant,NA,NA,NA,NA,NA,right,1291.69999999925,true,NA,NA,NA,NA,NA,NA,NA,NA
dBtsQQDN,39kv3a5d2bk8g62f2ek1xjbwsefs7u,32z9zlut1pxsynesz8u6tbmhd4mohs,dBtsQQDN,2020-0188,2021-10-31,07:24:32,08:49:36,NA,incomplete,false,true,NA,NA,4,11,NA,gray,n_s_043.jpg,NA,NA,NA,NA,NA,unpleasant,pleasant,NA,NA,NA,NA,NA,right,1084.70000000298,true,NA,NA,NA,NA,NA,NA,NA,NA
dBtsQQDN,39kv3a5d2bk8g62f2ek1xjbwsefs7u,32z9zlut1pxsynesz8u6tbmhd4mohs,dBtsQQDN,2020-0188,2021-10-31,07:24:32,08:49:36,NA,incomplete,false,true,NA,NA,4,12,NA,brown,n_s_008.jpg,NA,NA,NA,NA,NA,unpleasant,pleasant,NA,NA,NA,NA,NA,right,1332.80000000075,true,NA,NA,NA,NA,NA,NA,NA,NA
dBtsQQDN,39kv3a5d2bk8g62f2ek1xjbwsefs7u,32z9zlut1pxsynesz8u6tbmhd4mohs,dBtsQQDN,2020-0188,2021-10-31,07:24:32,08:49:36,NA,incomplete,false,true,NA,NA,4,13,NA,brown,m_l_060.jpg,NA,NA,NA,NA,NA,unpleasant,pleasant,NA,NA,NA,NA,NA,right,1075,true,NA,NA,NA,NA,NA,NA,NA,NA
dBtsQQDN,39kv3a5d2bk8g62f2ek1xjbwsefs7u,32z9zlut1pxsynesz8u6tbmhd4mohs,dBtsQQDN,2020-0188,2021-10-31,07:24:32,08:49:36,NA,incomplete,false,true,NA,NA,4,14,NA,brown,m_l_089.jpg,NA,NA,NA,NA,NA,pleasant,unpleasant,NA,NA,NA,NA,NA,left,1108.39999999851,true,NA,NA,NA,NA,NA,NA,NA,NA
dBtsQQDN,39kv3a5d2bk8g62f2ek1xjbwsefs7u,32z9zlut1pxsynesz8u6tbmhd4mohs,dBtsQQDN,2020-0188,2021-10-31,07:24:32,08:49:36,NA,incomplete,false,true,NA,NA,4,15,NA,brown,m_s_043.jpg,NA,NA,NA,NA,NA,unpleasant,pleasant,NA,NA,NA,NA,NA,left,2106.89999999851,true,NA,NA,NA,NA,NA,NA,NA,NA
dBtsQQDN,39kv3a5d2bk8g62f2ek1xjbwsefs7u,32z9zlut1pxsynesz8u6tbmhd4mohs,dBtsQQDN,2020-0188,2021-10-31,07:24:32,08:49:36,NA,incomplete,false,true,NA,NA,4,16,NA,brown,n_l_037.jpg,NA,NA,NA,NA,NA,unpleasant,pleasant,NA,NA,NA,NA,NA,right,1363.69999999925,true,NA,NA,NA,NA,NA,NA,NA,NA
dBtsQQDN,39kv3a5d2bk8g62f2ek1xjbwsefs7u,32z9zlut1pxsynesz8u6tbmhd4mohs,dBtsQQDN,2020-0188,2021-10-31,07:24:32,08:49:36,NA,incomplete,false,true,NA,NA,4,17,NA,brown,n_l_094.jpg,NA,NA,NA,NA,NA,pleasant,unpleasant,NA,NA,NA,NA,NA,left,1205.5,true,NA,NA,NA,NA,NA,NA,NA,NA
dBtsQQDN,39kv3a5d2bk8g62f2ek1xjbwsefs7u,32z9zlut1pxsynesz8u6tbmhd4mohs,dBtsQQDN,2020-0188,2021-10-31,07:24:32,08:49:36,NA,incomplete,false,true,NA,NA,4,18,NA,white,m_s_076.jpg,NA,NA,NA,NA,NA,unpleasant,pleasant,NA,NA,NA,NA,NA,left,2693.5,true,NA,NA,NA,NA,NA,NA,NA,NA
dBtsQQDN,39kv3a5d2bk8g62f2ek1xjbwsefs7u,32z9zlut1pxsynesz8u6tbmhd4mohs,dBtsQQDN,2020-0188,2021-10-31,07:24:32,08:49:36,NA,incomplete,false,true,NA,NA,4,19,NA,white,n_l_027.jpg,NA,NA,NA,NA,NA,unpleasant,pleasant,NA,NA,NA,NA,NA,right,1230.29999999702,true,NA,NA,NA,NA,NA,NA,NA,NA
dBtsQQDN,39kv3a5d2bk8g62f2ek1xjbwsefs7u,32z9zlut1pxsynesz8u6tbmhd4mohs,dBtsQQDN,2020-0188,2021-10-31,07:24:32,08:49:36,NA,incomplete,false,true,NA,NA,4,20,NA,white,m_s_019.jpg,NA,NA,NA,NA,NA,pleasant,unpleasant,NA,NA,NA,NA,NA,left,1311.09999999776,true,NA,NA,NA,NA,NA,NA,NA,NA
dBtsQQDN,39kv3a5d2bk8g62f2ek1xjbwsefs7u,32z9zlut1pxsynesz8u6tbmhd4mohs,dBtsQQDN,2020-0188,2021-10-31,07:24:32,08:49:36,NA,incomplete,false,true,NA,NA,4,21,NA,white,m_l_042.jpg,NA,NA,NA,NA,NA,pleasant,unpleasant,NA,NA,NA,NA,NA,left,1587.80000000075,true,NA,NA,NA,NA,NA,NA,NA,NA
dBtsQQDN,39kv3a5d2bk8g62f2ek1xjbwsefs7u,32z9zlut1pxsynesz8u6tbmhd4mohs,dBtsQQDN,2020-0188,2021-10-31,07:24:32,08:49:36,NA,incomplete,false,true,NA,NA,4,22,NA,white,m_l_103.jpg,NA,NA,NA,NA,NA,unpleasant,pleasant,NA,NA,NA,NA,NA,right,1357.59999999776,true,NA,NA,NA,NA,NA,NA,NA,NA
dBtsQQDN,39kv3a5d2bk8g62f2ek1xjbwsefs7u,32z9zlut1pxsynesz8u6tbmhd4mohs,dBtsQQDN,2020-0188,2021-10-31,07:24:32,08:49:36,NA,incomplete,false,true,NA,NA,4,23,NA,white,m_s_072.jpg,NA,NA,NA,NA,NA,pleasant,unpleasant,NA,NA,NA,NA,NA,left,966.10000000149,true,NA,NA,NA,NA,NA,NA,NA,NA
dBtsQQDN,39kv3a5d2bk8g62f2ek1xjbwsefs7u,32z9zlut1pxsynesz8u6tbmhd4mohs,dBtsQQDN,2020-0188,2021-10-31,07:24:32,08:49:36,NA,incomplete,false,true,NA,NA,4,24,NA,black,m_l_095.jpg,NA,NA,NA,NA,NA,unpleasant,pleasant,NA,NA,NA,NA,NA,right,1243.5,true,NA,NA,NA,NA,NA,NA,NA,NA
dBtsQQDN,39kv3a5d2bk8g62f2ek1xjbwsefs7u,32z9zlut1pxsynesz8u6tbmhd4mohs,dBtsQQDN,2020-0188,2021-10-31,07:24:32,08:49:36,NA,incomplete,false,true,NA,NA,4,25,NA,black,m_l_097.jpg,NA,NA,NA,NA,NA,unpleasant,pleasant,NA,NA,NA,NA,NA,left,1300.10000000149,true,NA,NA,NA,NA,NA,NA,NA,NA
dBtsQQDN,39kv3a5d2bk8g62f2ek1xjbwsefs7u,32z9zlut1pxsynesz8u6tbmhd4mohs,dBtsQQDN,2020-0188,2021-10-31,07:24:32,08:49:36,NA,incomplete,false,true,NA,NA,4,26,NA,black,m_l_106.jpg,NA,NA,NA,NA,NA,unpleasant,pleasant,NA,NA,NA,NA,NA,right,1426.89999999851,true,NA,NA,NA,NA,NA,NA,NA,NA
dBtsQQDN,39kv3a5d2bk8g62f2ek1xjbwsefs7u,32z9zlut1pxsynesz8u6tbmhd4mohs,dBtsQQDN,2020-0188,2021-10-31,07:24:32,08:49:36,NA,incomplete,false,true,NA,NA,4,27,NA,black,m_s_094.jpg,NA,NA,NA,NA,NA,pleasant,unpleasant,NA,NA,NA,NA,NA,left,1037.29999999702,true,NA,NA,NA,NA,NA,NA,NA,NA
dBtsQQDN,39kv3a5d2bk8g62f2ek1xjbwsefs7u,32z9zlut1pxsynesz8u6tbmhd4mohs,dBtsQQDN,2020-0188,2021-10-31,07:24:32,08:49:36,NA,incomplete,false,true,NA,NA,4,28,NA,black,m_s_023.jpg,NA,NA,NA,NA,NA,unpleasant,pleasant,NA,NA,NA,NA,NA,right,1018.20000000298,true,NA,NA,NA,NA,NA,NA,NA,NA
dBtsQQDN,39kv3a5d2bk8g62f2ek1xjbwsefs7u,32z9zlut1pxsynesz8u6tbmhd4mohs,dBtsQQDN,2020-0188,2021-10-31,07:24:32,08:49:36,NA,incomplete,false,true,NA,NA,4,29,NA,black,m_s_104.jpg,NA,NA,NA,NA,NA,pleasant,unpleasant,NA,NA,NA,NA,NA,left,1026.79999999702,true,NA,NA,NA,NA,NA,NA,NA,NA
dBtsQQDN,39kv3a5d2bk8g62f2ek1xjbwsefs7u,32z9zlut1pxsynesz8u6tbmhd4mohs,dBtsQQDN,2020-0188,2021-10-31,07:24:32,08:49:36,NA,incomplete,false,true,NA,NA,4,30,NA,yellow,m_s_002.jpg,NA,NA,NA,NA,NA,unpleasant,pleasant,NA,NA,NA,NA,NA,right,1207.89999999851,true,NA,NA,NA,NA,NA,NA,NA,NA
dBtsQQDN,39kv3a5d2bk8g62f2ek1xjbwsefs7u,32z9zlut1pxsynesz8u6tbmhd4mohs,dBtsQQDN,2020-0188,2021-10-31,07:24:32,08:49:36,NA,incomplete,false,true,NA,NA,4,31,NA,yellow,n_l_041.jpg,NA,NA,NA,NA,NA,unpleasant,pleasant,NA,NA,NA,NA,NA,right,1053.30000000075,true,NA,NA,NA,NA,NA,NA,NA,NA
dBtsQQDN,39kv3a5d2bk8g62f2ek1xjbwsefs7u,32z9zlut1pxsynesz8u6tbmhd4mohs,dBtsQQDN,2020-0188,2021-10-31,07:24:32,08:49:36,NA,incomplete,false,true,NA,NA,4,32,NA,yellow,m_s_068.jpg,NA,NA,NA,NA,NA,pleasant,unpleasant,NA,NA,NA,NA,NA,left,890.400000002235,true,NA,NA,NA,NA,NA,NA,NA,NA
dBtsQQDN,39kv3a5d2bk8g62f2ek1xjbwsefs7u,32z9zlut1pxsynesz8u6tbmhd4mohs,dBtsQQDN,2020-0188,2021-10-31,07:24:32,08:49:36,NA,incomplete,false,true,NA,NA,4,33,NA,yellow,n_s_076.jpg,NA,NA,NA,NA,NA,unpleasant,pleasant,NA,NA,NA,NA,NA,right,1163.10000000149,true,NA,NA,NA,NA,NA,NA,NA,NA
dBtsQQDN,39kv3a5d2bk8g62f2ek1xjbwsefs7u,32z9zlut1pxsynesz8u6tbmhd4mohs,dBtsQQDN,2020-0188,2021-10-31,07:24:32,08:49:36,NA,incomplete,false,true,NA,NA,4,34,NA,yellow,m_l_002.jpg,NA,NA,NA,NA,NA,pleasant,unpleasant,NA,NA,NA,NA,NA,left,1926.80000000075,true,NA,NA,NA,NA,NA,NA,NA,NA
dBtsQQDN,39kv3a5d2bk8g62f2ek1xjbwsefs7u,32z9zlut1pxsynesz8u6tbmhd4mohs,dBtsQQDN,2020-0188,2021-10-31,07:24:32,08:49:36,NA,incomplete,false,true,NA,NA,4,35,NA,yellow,n_l_070.jpg,NA,NA,NA,NA,NA,pleasant,unpleasant,NA,NA,NA,NA,NA,left,1035.19999999925,true,NA,NA,NA,NA,NA,NA,NA,NA
dBtsQQDN,39kv3a5d2bk8g62f2ek1xjbwsefs7u,32z9zlut1pxsynesz8u6tbmhd4mohs,dBtsQQDN,2020-0188,2021-10-31,07:24:32,08:49:36,NA,incomplete,false,NA,NA,true,4,0,NA,NA,NA,left,m_s_019.jpg,white,brown,NA,NA,NA,NA,NA,NA,NA,NA,NA,NaN,NA,1394.9000000022352,right,0,NA,NA,NA,NA,NA
dBtsQQDN,39kv3a5d2bk8g62f2ek1xjbwsefs7u,32z9zlut1pxsynesz8u6tbmhd4mohs,dBtsQQDN,2020-0188,2021-10-31,07:24:32,08:49:36,NA,incomplete,false,NA,NA,true,4,1,NA,NA,NA,left,n_l_035.jpg,red,gray,NA,NA,NA,NA,NA,NA,NA,NA,NA,NaN,NA,1745.300000000745,right,0,NA,NA,NA,NA,NA
dBtsQQDN,39kv3a5d2bk8g62f2ek1xjbwsefs7u,32z9zlut1pxsynesz8u6tbmhd4mohs,dBtsQQDN,2020-0188,2021-10-31,07:24:32,08:49:36,NA,incomplete,false,NA,NA,true,4,2,NA,NA,NA,left,m_l_011.jpg,red,gray,NA,NA,NA,NA,NA,NA,NA,NA,NA,NaN,NA,2243.300000000745,right,0,NA,NA,NA,NA,NA
dBtsQQDN,39kv3a5d2bk8g62f2ek1xjbwsefs7u,32z9zlut1pxsynesz8u6tbmhd4mohs,dBtsQQDN,2020-0188,2021-10-31,07:24:32,08:49:36,NA,incomplete,false,NA,NA,true,4,3,NA,NA,NA,left,n_l_094.jpg,brown,white,NA,NA,NA,NA,NA,NA,NA,NA,NA,NaN,NA,1985.9000000022352,right,0,NA,NA,NA,NA,NA
dBtsQQDN,39kv3a5d2bk8g62f2ek1xjbwsefs7u,32z9zlut1pxsynesz8u6tbmhd4mohs,dBtsQQDN,2020-0188,2021-10-31,07:24:32,08:49:36,NA,incomplete,false,NA,NA,true,4,4,NA,NA,NA,right,m_s_073.jpg,red,gray,NA,NA,NA,NA,NA,NA,NA,NA,NA,NaN,NA,1558,right,1,NA,NA,NA,NA,NA
dBtsQQDN,39kv3a5d2bk8g62f2ek1xjbwsefs7u,32z9zlut1pxsynesz8u6tbmhd4mohs,dBtsQQDN,2020-0188,2021-10-31,07:24:32,08:49:36,NA,incomplete,false,NA,NA,true,4,5,NA,NA,NA,right,m_l_060.jpg,white,brown,NA,NA,NA,NA,NA,NA,NA,NA,NA,NaN,NA,3027.7999999970198,left,0,NA,NA,NA,NA,NA
dBtsQQDN,39kv3a5d2bk8g62f2ek1xjbwsefs7u,32z9zlut1pxsynesz8u6tbmhd4mohs,dBtsQQDN,2020-0188,2021-10-31,07:24:32,08:49:36,NA,incomplete,false,NA,NA,true,4,6,NA,NA,NA,left,m_l_106.jpg,black,white,NA,NA,NA,NA,NA,NA,NA,NA,NA,NaN,NA,2340.699999999255,left,1,NA,NA,NA,NA,NA
dBtsQQDN,39kv3a5d2bk8g62f2ek1xjbwsefs7u,32z9zlut1pxsynesz8u6tbmhd4mohs,dBtsQQDN,2020-0188,2021-10-31,07:24:32,08:49:36,NA,incomplete,false,NA,NA,true,4,7,NA,NA,NA,left,m_s_104.jpg,black,white,NA,NA,NA,NA,NA,NA,NA,NA,NA,NaN,NA,3773.5,left,1,NA,NA,NA,NA,NA
dBtsQQDN,39kv3a5d2bk8g62f2ek1xjbwsefs7u,32z9zlut1pxsynesz8u6tbmhd4mohs,dBtsQQDN,2020-0188,2021-10-31,07:24:32,08:49:36,NA,incomplete,false,NA,NA,true,4,8,NA,NA,NA,right,n_l_041.jpg,black,yellow,NA,NA,NA,NA,NA,NA,NA,NA,NA,NaN,NA,1121.800000000745,right,1,NA,NA,NA,NA,NA
dBtsQQDN,39kv3a5d2bk8g62f2ek1xjbwsefs7u,32z9zlut1pxsynesz8u6tbmhd4mohs,dBtsQQDN,2020-0188,2021-10-31,07:24:32,08:49:36,NA,incomplete,false,NA,NA,true,4,9,NA,NA,NA,left,m_s_068.jpg,yellow,black,NA,NA,NA,NA,NA,NA,NA,NA,NA,NaN,NA,3691.39999999851,left,1,NA,NA,NA,NA,NA
dBtsQQDN,39kv3a5d2bk8g62f2ek1xjbwsefs7u,32z9zlut1pxsynesz8u6tbmhd4mohs,dBtsQQDN,2020-0188,2021-10-31,07:24:32,08:49:36,NA,incomplete,false,NA,NA,true,4,10,NA,NA,NA,right,m_s_023.jpg,white,black,NA,NA,NA,NA,NA,NA,NA,NA,NA,NaN,NA,1347.6000000014901,right,1,NA,NA,NA,NA,NA
dBtsQQDN,39kv3a5d2bk8g62f2ek1xjbwsefs7u,32z9zlut1pxsynesz8u6tbmhd4mohs,dBtsQQDN,2020-0188,2021-10-31,07:24:32,08:49:36,NA,incomplete,false,NA,NA,true,4,11,NA,NA,NA,left,m_l_103.jpg,white,black,NA,NA,NA,NA,NA,NA,NA,NA,NA,NaN,NA,2300.800000000745,right,0,NA,NA,NA,NA,NA
dBtsQQDN,39kv3a5d2bk8g62f2ek1xjbwsefs7u,32z9zlut1pxsynesz8u6tbmhd4mohs,dBtsQQDN,2020-0188,2021-10-31,07:24:32,08:49:36,NA,incomplete,false,NA,NA,true,4,12,NA,NA,NA,right,m_l_097.jpg,yellow,black,NA,NA,NA,NA,NA,NA,NA,NA,NA,NaN,NA,2730.800000000745,left,0,NA,NA,NA,NA,NA
dBtsQQDN,39kv3a5d2bk8g62f2ek1xjbwsefs7u,32z9zlut1pxsynesz8u6tbmhd4mohs,dBtsQQDN,2020-0188,2021-10-31,07:24:32,08:49:36,NA,incomplete,false,NA,NA,true,4,13,NA,NA,NA,left,m_s_034.jpg,gray,brown,NA,NA,NA,NA,NA,NA,NA,NA,NA,NaN,NA,3165.300000000745,right,0,NA,NA,NA,NA,NA
dBtsQQDN,39kv3a5d2bk8g62f2ek1xjbwsefs7u,32z9zlut1pxsynesz8u6tbmhd4mohs,dBtsQQDN,2020-0188,2021-10-31,07:24:32,08:49:36,NA,incomplete,false,NA,NA,true,4,14,NA,NA,NA,right,n_l_070.jpg,black,yellow,NA,NA,NA,NA,NA,NA,NA,NA,NA,NaN,NA,1327.3999999985099,right,1,NA,NA,NA,NA,NA
dBtsQQDN,39kv3a5d2bk8g62f2ek1xjbwsefs7u,32z9zlut1pxsynesz8u6tbmhd4mohs,dBtsQQDN,2020-0188,2021-10-31,07:24:32,08:49:36,NA,incomplete,false,NA,NA,true,4,15,NA,NA,NA,right,n_s_111.jpg,brown,gray,NA,NA,NA,NA,NA,NA,NA,NA,NA,NaN,NA,1800.8999999985099,left,0,NA,NA,NA,NA,NA
dBtsQQDN,39kv3a5d2bk8g62f2ek1xjbwsefs7u,32z9zlut1pxsynesz8u6tbmhd4mohs,dBtsQQDN,2020-0188,2021-10-31,07:24:32,08:49:36,NA,incomplete,false,NA,NA,true,4,16,NA,NA,NA,right,n_l_037.jpg,white,brown,NA,NA,NA,NA,NA,NA,NA,NA,NA,NaN,NA,2082.900000002235,right,1,NA,NA,NA,NA,NA
dBtsQQDN,39kv3a5d2bk8g62f2ek1xjbwsefs7u,32z9zlut1pxsynesz8u6tbmhd4mohs,dBtsQQDN,2020-0188,2021-10-31,07:24:32,08:49:36,NA,incomplete,false,NA,NA,true,4,17,NA,NA,NA,left,n_s_043.jpg,gray,red,NA,NA,NA,NA,NA,NA,NA,NA,NA,NaN,NA,2699.89999999851,left,1,NA,NA,NA,NA,NA
dBtsQQDN,39kv3a5d2bk8g62f2ek1xjbwsefs7u,32z9zlut1pxsynesz8u6tbmhd4mohs,dBtsQQDN,2020-0188,2021-10-31,07:24:32,08:49:36,NA,incomplete,false,NA,NA,true,4,18,NA,NA,NA,left,m_l_089.jpg,brown,white,NA,NA,NA,NA,NA,NA,NA,NA,NA,NaN,NA,3948.60000000149,left,1,NA,NA,NA,NA,NA
dBtsQQDN,39kv3a5d2bk8g62f2ek1xjbwsefs7u,32z9zlut1pxsynesz8u6tbmhd4mohs,dBtsQQDN,2020-0188,2021-10-31,07:24:32,08:49:36,NA,incomplete,false,NA,NA,true,4,19,NA,NA,NA,right,n_l_027.jpg,black,white,NA,NA,NA,NA,NA,NA,NA,NA,NA,NaN,NA,1202.800000000745,right,1,NA,NA,NA,NA,NA
dBtsQQDN,39kv3a5d2bk8g62f2ek1xjbwsefs7u,32z9zlut1pxsynesz8u6tbmhd4mohs,dBtsQQDN,2020-0188,2021-10-31,07:24:32,08:49:36,NA,incomplete,false,NA,NA,true,4,20,NA,NA,NA,left,m_l_019.jpg,red,gray,NA,NA,NA,NA,NA,NA,NA,NA,NA,NaN,NA,2365.5,left,1,NA,NA,NA,NA,NA
dBtsQQDN,39kv3a5d2bk8g62f2ek1xjbwsefs7u,32z9zlut1pxsynesz8u6tbmhd4mohs,dBtsQQDN,2020-0188,2021-10-31,07:24:32,08:49:36,NA,incomplete,false,NA,NA,true,4,21,NA,NA,NA,left,m_s_072.jpg,white,black,NA,NA,NA,NA,NA,NA,NA,NA,NA,NaN,NA,1220.4000000022352,right,0,NA,NA,NA,NA,NA
dBtsQQDN,39kv3a5d2bk8g62f2ek1xjbwsefs7u,32z9zlut1pxsynesz8u6tbmhd4mohs,dBtsQQDN,2020-0188,2021-10-31,07:24:32,08:49:36,NA,incomplete,false,NA,true,NA,4,0,NA,NA,NA,left,NA,NA,NA,absent,NA,NA,m_l_097.jpg,black,m_s_104.jpg,black,within,NA,NaN,NA,NA,NA,NA,left,4824.300000000745,1,2,2405.300000000745
dBtsQQDN,39kv3a5d2bk8g62f2ek1xjbwsefs7u,32z9zlut1pxsynesz8u6tbmhd4mohs,dBtsQQDN,2020-0188,2021-10-31,07:24:32,08:49:36,NA,incomplete,false,NA,true,NA,4,1,NA,NA,NA,left,NA,NA,NA,absent,NA,NA,m_l_103.jpg,white,m_l_106.jpg,black,between,NA,NaN,NA,NA,NA,NA,right,2058.199999999255,0,2,1155.5
dBtsQQDN,39kv3a5d2bk8g62f2ek1xjbwsefs7u,32z9zlut1pxsynesz8u6tbmhd4mohs,dBtsQQDN,2020-0188,2021-10-31,07:24:32,08:49:36,NA,incomplete,false,NA,true,NA,4,2,NA,NA,NA,right,NA,NA,NA,absent,NA,NA,m_s_073.jpg,gray,m_l_019.jpg,red,between,NA,NaN,NA,NA,NA,NA,right,3343.7000000029802,1,2,1356.300000000745
dBtsQQDN,39kv3a5d2bk8g62f2ek1xjbwsefs7u,32z9zlut1pxsynesz8u6tbmhd4mohs,dBtsQQDN,2020-0188,2021-10-31,07:24:32,08:49:36,NA,incomplete,false,NA,true,NA,4,3,NA,NA,NA,right,NA,NA,NA,absent,NA,NA,m_l_011.jpg,red,n_l_035.jpg,red,within,NA,NaN,NA,NA,NA,NA,right,2648.699999999255,1,2,1228.300000000745
dBtsQQDN,39kv3a5d2bk8g62f2ek1xjbwsefs7u,32z9zlut1pxsynesz8u6tbmhd4mohs,dBtsQQDN,2020-0188,2021-10-31,07:24:32,08:49:36,NA,incomplete,false,NA,true,NA,4,4,NA,NA,NA,left,NA,NA,NA,absent,NA,NA,n_l_037.jpg,brown,m_s_019.jpg,white,between,NA,NaN,NA,NA,NA,NA,left,3636.699999999255,1,2,1289.5
dBtsQQDN,39kv3a5d2bk8g62f2ek1xjbwsefs7u,32z9zlut1pxsynesz8u6tbmhd4mohs,dBtsQQDN,2020-0188,2021-10-31,07:24:32,08:49:36,NA,incomplete,false,NA,true,NA,4,5,NA,NA,NA,left,NA,NA,NA,absent,NA,NA,m_l_060.jpg,brown,n_l_094.jpg,brown,within,NA,NaN,NA,NA,NA,NA,right,13931,0,2,1303.5
dBtsQQDN,39kv3a5d2bk8g62f2ek1xjbwsefs7u,32z9zlut1pxsynesz8u6tbmhd4mohs,dBtsQQDN,2020-0188,2021-10-31,07:24:32,08:49:36,NA,incomplete,false,NA,true,NA,4,6,NA,NA,NA,left,NA,NA,NA,absent,NA,NA,n_l_027.jpg,white,m_s_072.jpg,white,within,NA,NaN,NA,NA,NA,NA,left,2249.5,1,2,2263.300000000745
dBtsQQDN,39kv3a5d2bk8g62f2ek1xjbwsefs7u,32z9zlut1pxsynesz8u6tbmhd4mohs,dBtsQQDN,2020-0188,2021-10-31,07:24:32,08:49:36,NA,incomplete,false,NA,true,NA,4,7,NA,NA,NA,right,NA,NA,NA,absent,NA,NA,m_s_068.jpg,yellow,m_s_023.jpg,black,between,NA,NaN,NA,NA,NA,NA,left,2400.60000000149,0,1,1251
dBtsQQDN,39kv3a5d2bk8g62f2ek1xjbwsefs7u,32z9zlut1pxsynesz8u6tbmhd4mohs,dBtsQQDN,2020-0188,2021-10-31,07:24:32,08:49:36,NA,incomplete,false,NA,true,NA,4,8,NA,NA,NA,right,NA,NA,NA,absent,NA,NA,n_l_070.jpg,yellow,n_l_041.jpg,yellow,within,NA,NaN,NA,NA,NA,NA,left,1868.4000000022352,0,2,2018.2999999970198
dBtsQQDN,39kv3a5d2bk8g62f2ek1xjbwsefs7u,32z9zlut1pxsynesz8u6tbmhd4mohs,dBtsQQDN,2020-0188,2021-10-31,07:24:32,08:49:36,NA,incomplete,false,NA,true,NA,4,9,NA,NA,NA,right,NA,NA,NA,absent,NA,NA,n_s_043.jpg,gray,m_s_034.jpg,gray,within,NA,NaN,NA,NA,NA,NA,left,2182.699999999255,0,2,987.8000000007451
dBtsQQDN,39kv3a5d2bk8g62f2ek1xjbwsefs7u,32z9zlut1pxsynesz8u6tbmhd4mohs,dBtsQQDN,2020-0188,2021-10-31,07:24:32,08:49:36,NA,incomplete,false,NA,true,NA,4,10,NA,NA,NA,right,NA,NA,NA,absent,NA,NA,m_l_089.jpg,brown,n_s_111.jpg,gray,between,NA,NaN,NA,NA,NA,NA,right,3087.300000000745,1,2,1843.300000000745
dBtsQQDN,39kv3a5d2bk8g62f2ek1xjbwsefs7u,32z9zlut1pxsynesz8u6tbmhd4mohs,dBtsQQDN,2020-0188,2021-10-31,07:24:32,08:49:36,NA,incomplete,false,true,NA,NA,5,0,NA,red,n_s_036.jpg,NA,NA,NA,NA,NA,pleasant,unpleasant,NA,NA,NA,NA,NA,left,2734.69999999925,true,NA,NA,NA,NA,NA,NA,NA,NA
dBtsQQDN,39kv3a5d2bk8g62f2ek1xjbwsefs7u,32z9zlut1pxsynesz8u6tbmhd4mohs,dBtsQQDN,2020-0188,2021-10-31,07:24:32,08:49:36,NA,incomplete,false,true,NA,NA,5,1,NA,red,m_s_078.jpg,NA,NA,NA,NA,NA,pleasant,unpleasant,NA,NA,NA,NA,NA,left,915.300000000745,true,NA,NA,NA,NA,NA,NA,NA,NA
dBtsQQDN,39kv3a5d2bk8g62f2ek1xjbwsefs7u,32z9zlut1pxsynesz8u6tbmhd4mohs,dBtsQQDN,2020-0188,2021-10-31,07:24:32,08:49:36,NA,incomplete,false,true,NA,NA,5,2,NA,red,m_l_065.jpg,NA,NA,NA,NA,NA,unpleasant,pleasant,NA,NA,NA,NA,NA,right,1527.60000000149,true,NA,NA,NA,NA,NA,NA,NA,NA
dBtsQQDN,39kv3a5d2bk8g62f2ek1xjbwsefs7u,32z9zlut1pxsynesz8u6tbmhd4mohs,dBtsQQDN,2020-0188,2021-10-31,07:24:32,08:49:36,NA,incomplete,false,true,NA,NA,5,3,NA,red,n_s_086.jpg,NA,NA,NA,NA,NA,pleasant,unpleasant,NA,NA,NA,NA,NA,left,1206.39999999851,true,NA,NA,NA,NA,NA,NA,NA,NA
dBtsQQDN,39kv3a5d2bk8g62f2ek1xjbwsefs7u,32z9zlut1pxsynesz8u6tbmhd4mohs,dBtsQQDN,2020-0188,2021-10-31,07:24:32,08:49:36,NA,incomplete,false,true,NA,NA,5,4,NA,red,n_l_047.jpg,NA,NA,NA,NA,NA,pleasant,unpleasant,NA,NA,NA,NA,NA,left,913.5,true,NA,NA,NA,NA,NA,NA,NA,NA
dBtsQQDN,39kv3a5d2bk8g62f2ek1xjbwsefs7u,32z9zlut1pxsynesz8u6tbmhd4mohs,dBtsQQDN,2020-0188,2021-10-31,07:24:32,08:49:36,NA,incomplete,false,true,NA,NA,5,5,NA,red,m_l_080.jpg,NA,NA,NA,NA,NA,pleasant,unpleasant,NA,NA,NA,NA,NA,right,896.699999999255,true,NA,NA,NA,NA,NA,NA,NA,NA
dBtsQQDN,39kv3a5d2bk8g62f2ek1xjbwsefs7u,32z9zlut1pxsynesz8u6tbmhd4mohs,dBtsQQDN,2020-0188,2021-10-31,07:24:32,08:49:36,NA,incomplete,false,true,NA,NA,5,6,NA,gray,n_s_074.jpg,NA,NA,NA,NA,NA,unpleasant,pleasant,NA,NA,NA,NA,NA,left,1634.10000000149,true,NA,NA,NA,NA,NA,NA,NA,NA
dBtsQQDN,39kv3a5d2bk8g62f2ek1xjbwsefs7u,32z9zlut1pxsynesz8u6tbmhd4mohs,dBtsQQDN,2020-0188,2021-10-31,07:24:32,08:49:36,NA,incomplete,false,true,NA,NA,5,7,NA,gray,n_l_084.jpg,NA,NA,NA,NA,NA,unpleasant,pleasant,NA,NA,NA,NA,NA,right,1189.59999999776,true,NA,NA,NA,NA,NA,NA,NA,NA
dBtsQQDN,39kv3a5d2bk8g62f2ek1xjbwsefs7u,32z9zlut1pxsynesz8u6tbmhd4mohs,dBtsQQDN,2020-0188,2021-10-31,07:24:32,08:49:36,NA,incomplete,false,true,NA,NA,5,8,NA,gray,n_l_098.jpg,NA,NA,NA,NA,NA,pleasant,unpleasant,NA,NA,NA,NA,NA,left,1469.90000000224,true,NA,NA,NA,NA,NA,NA,NA,NA
dBtsQQDN,39kv3a5d2bk8g62f2ek1xjbwsefs7u,32z9zlut1pxsynesz8u6tbmhd4mohs,dBtsQQDN,2020-0188,2021-10-31,07:24:32,08:49:36,NA,incomplete,false,true,NA,NA,5,9,NA,gray,m_s_115.jpg,NA,NA,NA,NA,NA,unpleasant,pleasant,NA,NA,NA,NA,NA,left,1257.69999999925,true,NA,NA,NA,NA,NA,NA,NA,NA
dBtsQQDN,39kv3a5d2bk8g62f2ek1xjbwsefs7u,32z9zlut1pxsynesz8u6tbmhd4mohs,dBtsQQDN,2020-0188,2021-10-31,07:24:32,08:49:36,NA,incomplete,false,true,NA,NA,5,10,NA,gray,n_l_042.jpg,NA,NA,NA,NA,NA,pleasant,unpleasant,NA,NA,NA,NA,NA,left,1112.60000000149,true,NA,NA,NA,NA,NA,NA,NA,NA
dBtsQQDN,39kv3a5d2bk8g62f2ek1xjbwsefs7u,32z9zlut1pxsynesz8u6tbmhd4mohs,dBtsQQDN,2020-0188,2021-10-31,07:24:32,08:49:36,NA,incomplete,false,true,NA,NA,5,11,NA,gray,m_l_099.jpg,NA,NA,NA,NA,NA,pleasant,unpleasant,NA,NA,NA,NA,NA,right,1816.5,true,NA,NA,NA,NA,NA,NA,NA,NA
dBtsQQDN,39kv3a5d2bk8g62f2ek1xjbwsefs7u,32z9zlut1pxsynesz8u6tbmhd4mohs,dBtsQQDN,2020-0188,2021-10-31,07:24:32,08:49:36,NA,incomplete,false,true,NA,NA,5,12,NA,orange,n_l_091.jpg,NA,NA,NA,NA,NA,unpleasant,pleasant,NA,NA,NA,NA,NA,right,1153.80000000075,true,NA,NA,NA,NA,NA,NA,NA,NA
dBtsQQDN,39kv3a5d2bk8g62f2ek1xjbwsefs7u,32z9zlut1pxsynesz8u6tbmhd4mohs,dBtsQQDN,2020-0188,2021-10-31,07:24:32,08:49:36,NA,incomplete,false,true,NA,NA,5,13,NA,orange,n_s_018.jpg,NA,NA,NA,NA,NA,pleasant,unpleasant,NA,NA,NA,NA,NA,left,835.900000002235,true,NA,NA,NA,NA,NA,NA,NA,NA
dBtsQQDN,39kv3a5d2bk8g62f2ek1xjbwsefs7u,32z9zlut1pxsynesz8u6tbmhd4mohs,dBtsQQDN,2020-0188,2021-10-31,07:24:32,08:49:36,NA,incomplete,false,true,NA,NA,5,14,NA,orange,m_s_007.jpg,NA,NA,NA,NA,NA,unpleasant,pleasant,NA,NA,NA,NA,NA,right,1759.5,true,NA,NA,NA,NA,NA,NA,NA,NA
dBtsQQDN,39kv3a5d2bk8g62f2ek1xjbwsefs7u,32z9zlut1pxsynesz8u6tbmhd4mohs,dBtsQQDN,2020-0188,2021-10-31,07:24:32,08:49:36,NA,incomplete,false,true,NA,NA,5,15,NA,orange,n_s_109.jpg,NA,NA,NA,NA,NA,pleasant,unpleasant,NA,NA,NA,NA,NA,left,1201.10000000149,true,NA,NA,NA,NA,NA,NA,NA,NA
dBtsQQDN,39kv3a5d2bk8g62f2ek1xjbwsefs7u,32z9zlut1pxsynesz8u6tbmhd4mohs,dBtsQQDN,2020-0188,2021-10-31,07:24:32,08:49:36,NA,incomplete,false,true,NA,NA,5,16,NA,orange,m_l_110.jpg,NA,NA,NA,NA,NA,pleasant,unpleasant,NA,NA,NA,NA,NA,left,1035.5,true,NA,NA,NA,NA,NA,NA,NA,NA
