workerId,hitId,assignmentId,subject,studyid,exp_date,exp_start,exp_end,time_start,time_end,practice,encoding,memory,association,block,trial,event_order,event,stim,answer,object,left_context,right_context,context_type,label_left,label_right,left_image,left_event,right_image,right_event,condition,response,response_time,response_acc,association_response_time,association_response,association_acc,order_response,order_response_time,order_acc,distance_response,distance_response_time
6z8NgQB6,3fk4g712o0duz4m7qhicsa7sfszsso,352ythgrozqouu4agofxfdgcwdlh4a,6z8NgQB6,2020-0188,2021-10-31,06:16:35,08:17:45,NA,incomplete,true,true,NA,NA,0,0,NA,brown,m_s_023.jpg,NA,NA,NA,NA,NA,unpleasant,pleasant,NA,NA,NA,NA,NA,left,3405.5,true,NA,NA,NA,NA,NA,NA,NA,NA
6z8NgQB6,3fk4g712o0duz4m7qhicsa7sfszsso,352ythgrozqouu4agofxfdgcwdlh4a,6z8NgQB6,2020-0188,2021-10-31,06:16:35,08:17:45,NA,incomplete,true,true,NA,NA,0,1,NA,brown,m_l_116.jpg,NA,NA,NA,NA,NA,pleasant,unpleasant,NA,NA,NA,NA,NA,left,3238.89999997616,true,NA,NA,NA,NA,NA,NA,NA,NA
6z8NgQB6,3fk4g712o0duz4m7qhicsa7sfszsso,352ythgrozqouu4agofxfdgcwdlh4a,6z8NgQB6,2020-0188,2021-10-31,06:16:35,08:17:45,NA,incomplete,true,true,NA,NA,0,2,NA,brown,m_s_015.jpg,NA,NA,NA,NA,NA,unpleasant,pleasant,NA,NA,NA,NA,NA,right,793,true,NA,NA,NA,NA,NA,NA,NA,NA
6z8NgQB6,3fk4g712o0duz4m7qhicsa7sfszsso,352ythgrozqouu4agofxfdgcwdlh4a,6z8NgQB6,2020-0188,2021-10-31,06:16:35,08:17:45,NA,incomplete,true,true,NA,NA,0,3,NA,brown,n_s_101.jpg,NA,NA,NA,NA,NA,unpleasant,pleasant,NA,NA,NA,NA,NA,right,2329.19999998808,true,NA,NA,NA,NA,NA,NA,NA,NA
6z8NgQB6,3fk4g712o0duz4m7qhicsa7sfszsso,352ythgrozqouu4agofxfdgcwdlh4a,6z8NgQB6,2020-0188,2021-10-31,06:16:35,08:17:45,NA,incomplete,true,true,NA,NA,0,4,NA,brown,m_s_068.jpg,NA,NA,NA,NA,NA,unpleasant,pleasant,NA,NA,NA,NA,NA,left,1163.09999999404,true,NA,NA,NA,NA,NA,NA,NA,NA
6z8NgQB6,3fk4g712o0duz4m7qhicsa7sfszsso,352ythgrozqouu4agofxfdgcwdlh4a,6z8NgQB6,2020-0188,2021-10-31,06:16:35,08:17:45,NA,incomplete,true,true,NA,NA,0,5,NA,brown,n_l_071.jpg,NA,NA,NA,NA,NA,unpleasant,pleasant,NA,NA,NA,NA,NA,right,1585.59999999404,true,NA,NA,NA,NA,NA,NA,NA,NA
6z8NgQB6,3fk4g712o0duz4m7qhicsa7sfszsso,352ythgrozqouu4agofxfdgcwdlh4a,6z8NgQB6,2020-0188,2021-10-31,06:16:35,08:17:45,NA,incomplete,true,true,NA,NA,0,6,NA,red,m_s_111.jpg,NA,NA,NA,NA,NA,unpleasant,pleasant,NA,NA,NA,NA,NA,left,1217.90000000596,true,NA,NA,NA,NA,NA,NA,NA,NA
6z8NgQB6,3fk4g712o0duz4m7qhicsa7sfszsso,352ythgrozqouu4agofxfdgcwdlh4a,6z8NgQB6,2020-0188,2021-10-31,06:16:35,08:17:45,NA,incomplete,true,true,NA,NA,0,7,NA,red,m_s_106.jpg,NA,NA,NA,NA,NA,unpleasant,pleasant,NA,NA,NA,NA,NA,left,1221,true,NA,NA,NA,NA,NA,NA,NA,NA
6z8NgQB6,3fk4g712o0duz4m7qhicsa7sfszsso,352ythgrozqouu4agofxfdgcwdlh4a,6z8NgQB6,2020-0188,2021-10-31,06:16:35,08:17:45,NA,incomplete,true,true,NA,NA,0,8,NA,red,n_l_022.jpg,NA,NA,NA,NA,NA,pleasant,unpleasant,NA,NA,NA,NA,NA,left,1573.90000000596,true,NA,NA,NA,NA,NA,NA,NA,NA
6z8NgQB6,3fk4g712o0duz4m7qhicsa7sfszsso,352ythgrozqouu4agofxfdgcwdlh4a,6z8NgQB6,2020-0188,2021-10-31,06:16:35,08:17:45,NA,incomplete,true,true,NA,NA,0,9,NA,red,n_s_098.jpg,NA,NA,NA,NA,NA,pleasant,unpleasant,NA,NA,NA,NA,NA,left,1507.60000002384,true,NA,NA,NA,NA,NA,NA,NA,NA
6z8NgQB6,3fk4g712o0duz4m7qhicsa7sfszsso,352ythgrozqouu4agofxfdgcwdlh4a,6z8NgQB6,2020-0188,2021-10-31,06:16:35,08:17:45,NA,incomplete,true,true,NA,NA,0,10,NA,red,n_l_004.jpg,NA,NA,NA,NA,NA,unpleasant,pleasant,NA,NA,NA,NA,NA,left,875,true,NA,NA,NA,NA,NA,NA,NA,NA
6z8NgQB6,3fk4g712o0duz4m7qhicsa7sfszsso,352ythgrozqouu4agofxfdgcwdlh4a,6z8NgQB6,2020-0188,2021-10-31,06:16:35,08:17:45,NA,incomplete,true,true,NA,NA,0,11,NA,red,m_s_029.jpg,NA,NA,NA,NA,NA,unpleasant,pleasant,NA,NA,NA,NA,NA,right,1018.5,true,NA,NA,NA,NA,NA,NA,NA,NA
6z8NgQB6,3fk4g712o0duz4m7qhicsa7sfszsso,352ythgrozqouu4agofxfdgcwdlh4a,6z8NgQB6,2020-0188,2021-10-31,06:16:35,08:17:45,NA,incomplete,true,true,NA,NA,0,12,NA,green,n_s_061.jpg,NA,NA,NA,NA,NA,unpleasant,pleasant,NA,NA,NA,NA,NA,right,1422.40000000596,true,NA,NA,NA,NA,NA,NA,NA,NA
6z8NgQB6,3fk4g712o0duz4m7qhicsa7sfszsso,352ythgrozqouu4agofxfdgcwdlh4a,6z8NgQB6,2020-0188,2021-10-31,06:16:35,08:17:45,NA,incomplete,true,true,NA,NA,0,13,NA,green,n_l_081.jpg,NA,NA,NA,NA,NA,pleasant,unpleasant,NA,NA,NA,NA,NA,right,1354.5,true,NA,NA,NA,NA,NA,NA,NA,NA
6z8NgQB6,3fk4g712o0duz4m7qhicsa7sfszsso,352ythgrozqouu4agofxfdgcwdlh4a,6z8NgQB6,2020-0188,2021-10-31,06:16:35,08:17:45,NA,incomplete,true,true,NA,NA,0,14,NA,green,n_s_013.jpg,NA,NA,NA,NA,NA,unpleasant,pleasant,NA,NA,NA,NA,NA,left,800.09999999404,true,NA,NA,NA,NA,NA,NA,NA,NA
6z8NgQB6,3fk4g712o0duz4m7qhicsa7sfszsso,352ythgrozqouu4agofxfdgcwdlh4a,6z8NgQB6,2020-0188,2021-10-31,06:16:35,08:17:45,NA,incomplete,true,true,NA,NA,0,15,NA,green,m_l_072.jpg,NA,NA,NA,NA,NA,pleasant,unpleasant,NA,NA,NA,NA,NA,left,952,true,NA,NA,NA,NA,NA,NA,NA,NA
6z8NgQB6,3fk4g712o0duz4m7qhicsa7sfszsso,352ythgrozqouu4agofxfdgcwdlh4a,6z8NgQB6,2020-0188,2021-10-31,06:16:35,08:17:45,NA,incomplete,true,true,NA,NA,0,16,NA,green,n_s_029.jpg,NA,NA,NA,NA,NA,pleasant,unpleasant,NA,NA,NA,NA,NA,right,909.59999999404,true,NA,NA,NA,NA,NA,NA,NA,NA
6z8NgQB6,3fk4g712o0duz4m7qhicsa7sfszsso,352ythgrozqouu4agofxfdgcwdlh4a,6z8NgQB6,2020-0188,2021-10-31,06:16:35,08:17:45,NA,incomplete,true,true,NA,NA,0,17,NA,green,m_s_020.jpg,NA,NA,NA,NA,NA,pleasant,unpleasant,NA,NA,NA,NA,NA,left,832.59999999404,true,NA,NA,NA,NA,NA,NA,NA,NA
6z8NgQB6,3fk4g712o0duz4m7qhicsa7sfszsso,352ythgrozqouu4agofxfdgcwdlh4a,6z8NgQB6,2020-0188,2021-10-31,06:16:35,08:17:45,NA,incomplete,true,true,NA,NA,0,18,NA,purple,m_s_026.jpg,NA,NA,NA,NA,NA,pleasant,unpleasant,NA,NA,NA,NA,NA,right,2624.10000002384,true,NA,NA,NA,NA,NA,NA,NA,NA
6z8NgQB6,3fk4g712o0duz4m7qhicsa7sfszsso,352ythgrozqouu4agofxfdgcwdlh4a,6z8NgQB6,2020-0188,2021-10-31,06:16:35,08:17:45,NA,incomplete,true,true,NA,NA,0,19,NA,purple,m_l_006.jpg,NA,NA,NA,NA,NA,pleasant,unpleasant,NA,NA,NA,NA,NA,left,1781.5,true,NA,NA,NA,NA,NA,NA,NA,NA
6z8NgQB6,3fk4g712o0duz4m7qhicsa7sfszsso,352ythgrozqouu4agofxfdgcwdlh4a,6z8NgQB6,2020-0188,2021-10-31,06:16:35,08:17:45,NA,incomplete,true,true,NA,NA,0,20,NA,purple,m_l_028.jpg,NA,NA,NA,NA,NA,pleasant,unpleasant,NA,NA,NA,NA,NA,right,1235.29999998212,true,NA,NA,NA,NA,NA,NA,NA,NA
6z8NgQB6,3fk4g712o0duz4m7qhicsa7sfszsso,352ythgrozqouu4agofxfdgcwdlh4a,6z8NgQB6,2020-0188,2021-10-31,06:16:35,08:17:45,NA,incomplete,true,true,NA,NA,0,21,NA,purple,n_s_089.jpg,NA,NA,NA,NA,NA,pleasant,unpleasant,NA,NA,NA,NA,NA,right,877.699999988079,true,NA,NA,NA,NA,NA,NA,NA,NA
6z8NgQB6,3fk4g712o0duz4m7qhicsa7sfszsso,352ythgrozqouu4agofxfdgcwdlh4a,6z8NgQB6,2020-0188,2021-10-31,06:16:35,08:17:45,NA,incomplete,true,true,NA,NA,0,22,NA,purple,n_s_043.jpg,NA,NA,NA,NA,NA,unpleasant,pleasant,NA,NA,NA,NA,NA,left,1262.59999999404,true,NA,NA,NA,NA,NA,NA,NA,NA
6z8NgQB6,3fk4g712o0duz4m7qhicsa7sfszsso,352ythgrozqouu4agofxfdgcwdlh4a,6z8NgQB6,2020-0188,2021-10-31,06:16:35,08:17:45,NA,incomplete,true,true,NA,NA,0,23,NA,purple,m_s_018.jpg,NA,NA,NA,NA,NA,unpleasant,pleasant,NA,NA,NA,NA,NA,right,871.300000011921,true,NA,NA,NA,NA,NA,NA,NA,NA
6z8NgQB6,3fk4g712o0duz4m7qhicsa7sfszsso,352ythgrozqouu4agofxfdgcwdlh4a,6z8NgQB6,2020-0188,2021-10-31,06:16:35,08:17:45,NA,incomplete,true,true,NA,NA,0,24,NA,white,m_s_064.jpg,NA,NA,NA,NA,NA,pleasant,unpleasant,NA,NA,NA,NA,NA,right,963.09999999404,true,NA,NA,NA,NA,NA,NA,NA,NA
6z8NgQB6,3fk4g712o0duz4m7qhicsa7sfszsso,352ythgrozqouu4agofxfdgcwdlh4a,6z8NgQB6,2020-0188,2021-10-31,06:16:35,08:17:45,NA,incomplete,true,true,NA,NA,0,25,NA,white,n_s_037.jpg,NA,NA,NA,NA,NA,pleasant,unpleasant,NA,NA,NA,NA,NA,left,981,true,NA,NA,NA,NA,NA,NA,NA,NA
6z8NgQB6,3fk4g712o0duz4m7qhicsa7sfszsso,352ythgrozqouu4agofxfdgcwdlh4a,6z8NgQB6,2020-0188,2021-10-31,06:16:35,08:17:45,NA,incomplete,true,true,NA,NA,0,26,NA,white,m_s_114.jpg,NA,NA,NA,NA,NA,pleasant,unpleasant,NA,NA,NA,NA,NA,left,856.90000000596,true,NA,NA,NA,NA,NA,NA,NA,NA
6z8NgQB6,3fk4g712o0duz4m7qhicsa7sfszsso,352ythgrozqouu4agofxfdgcwdlh4a,6z8NgQB6,2020-0188,2021-10-31,06:16:35,08:17:45,NA,incomplete,true,true,NA,NA,0,27,NA,white,n_s_063.jpg,NA,NA,NA,NA,NA,unpleasant,pleasant,NA,NA,NA,NA,NA,left,1172.59999999404,true,NA,NA,NA,NA,NA,NA,NA,NA
6z8NgQB6,3fk4g712o0duz4m7qhicsa7sfszsso,352ythgrozqouu4agofxfdgcwdlh4a,6z8NgQB6,2020-0188,2021-10-31,06:16:35,08:17:45,NA,incomplete,true,true,NA,NA,0,28,NA,white,n_l_092.jpg,NA,NA,NA,NA,NA,pleasant,unpleasant,NA,NA,NA,NA,NA,left,1059.39999997616,true,NA,NA,NA,NA,NA,NA,NA,NA
6z8NgQB6,3fk4g712o0duz4m7qhicsa7sfszsso,352ythgrozqouu4agofxfdgcwdlh4a,6z8NgQB6,2020-0188,2021-10-31,06:16:35,08:17:45,NA,incomplete,true,true,NA,NA,0,29,NA,white,n_l_094.jpg,NA,NA,NA,NA,NA,unpleasant,pleasant,NA,NA,NA,NA,NA,left,660.90000000596,true,NA,NA,NA,NA,NA,NA,NA,NA
6z8NgQB6,3fk4g712o0duz4m7qhicsa7sfszsso,352ythgrozqouu4agofxfdgcwdlh4a,6z8NgQB6,2020-0188,2021-10-31,06:16:35,08:17:45,NA,incomplete,true,true,NA,NA,0,30,NA,gray,n_s_068.jpg,NA,NA,NA,NA,NA,unpleasant,pleasant,NA,NA,NA,NA,NA,left,691.5,true,NA,NA,NA,NA,NA,NA,NA,NA
6z8NgQB6,3fk4g712o0duz4m7qhicsa7sfszsso,352ythgrozqouu4agofxfdgcwdlh4a,6z8NgQB6,2020-0188,2021-10-31,06:16:35,08:17:45,NA,incomplete,true,true,NA,NA,0,31,NA,gray,n_s_067.jpg,NA,NA,NA,NA,NA,unpleasant,pleasant,NA,NA,NA,NA,NA,left,1055.10000002384,true,NA,NA,NA,NA,NA,NA,NA,NA
6z8NgQB6,3fk4g712o0duz4m7qhicsa7sfszsso,352ythgrozqouu4agofxfdgcwdlh4a,6z8NgQB6,2020-0188,2021-10-31,06:16:35,08:17:45,NA,incomplete,true,true,NA,NA,0,32,NA,gray,m_s_065.jpg,NA,NA,NA,NA,NA,unpleasant,pleasant,NA,NA,NA,NA,NA,left,843.200000017881,true,NA,NA,NA,NA,NA,NA,NA,NA
6z8NgQB6,3fk4g712o0duz4m7qhicsa7sfszsso,352ythgrozqouu4agofxfdgcwdlh4a,6z8NgQB6,2020-0188,2021-10-31,06:16:35,08:17:45,NA,incomplete,true,true,NA,NA,0,33,NA,gray,n_s_039.jpg,NA,NA,NA,NA,NA,unpleasant,pleasant,NA,NA,NA,NA,NA,left,751.09999999404,true,NA,NA,NA,NA,NA,NA,NA,NA
6z8NgQB6,3fk4g712o0duz4m7qhicsa7sfszsso,352ythgrozqouu4agofxfdgcwdlh4a,6z8NgQB6,2020-0188,2021-10-31,06:16:35,08:17:45,NA,incomplete,true,true,NA,NA,0,34,NA,gray,m_l_102.jpg,NA,NA,NA,NA,NA,unpleasant,pleasant,NA,NA,NA,NA,NA,left,1843,true,NA,NA,NA,NA,NA,NA,NA,NA
6z8NgQB6,3fk4g712o0duz4m7qhicsa7sfszsso,352ythgrozqouu4agofxfdgcwdlh4a,6z8NgQB6,2020-0188,2021-10-31,06:16:35,08:17:45,NA,incomplete,true,true,NA,NA,0,35,NA,gray,n_l_089.jpg,NA,NA,NA,NA,NA,pleasant,unpleasant,NA,NA,NA,NA,NA,right,1916.70000001788,true,NA,NA,NA,NA,NA,NA,NA,NA
6z8NgQB6,3fk4g712o0duz4m7qhicsa7sfszsso,352ythgrozqouu4agofxfdgcwdlh4a,6z8NgQB6,2020-0188,2021-10-31,06:16:35,08:17:45,NA,incomplete,true,NA,NA,true,0,0,NA,NA,NA,right,n_s_013.jpg,red,green,NA,NA,NA,NA,NA,NA,NA,NA,NA,NaN,NA,9345.300000011921,right,1,NA,NA,NA,NA,NA
6z8NgQB6,3fk4g712o0duz4m7qhicsa7sfszsso,352ythgrozqouu4agofxfdgcwdlh4a,6z8NgQB6,2020-0188,2021-10-31,06:16:35,08:17:45,NA,incomplete,true,NA,NA,true,0,1,NA,NA,NA,right,m_s_020.jpg,purple,green,NA,NA,NA,NA,NA,NA,NA,NA,NA,NaN,NA,3375.5,right,1,NA,NA,NA,NA,NA
6z8NgQB6,3fk4g712o0duz4m7qhicsa7sfszsso,352ythgrozqouu4agofxfdgcwdlh4a,6z8NgQB6,2020-0188,2021-10-31,06:16:35,08:17:45,NA,incomplete,true,NA,NA,true,0,2,NA,NA,NA,right,m_s_018.jpg,green,purple,NA,NA,NA,NA,NA,NA,NA,NA,NA,NaN,NA,3141.699999988079,left,0,NA,NA,NA,NA,NA
6z8NgQB6,3fk4g712o0duz4m7qhicsa7sfszsso,352ythgrozqouu4agofxfdgcwdlh4a,6z8NgQB6,2020-0188,2021-10-31,06:16:35,08:17:45,NA,incomplete,true,NA,NA,true,0,3,NA,NA,NA,right,n_l_022.jpg,brown,red,NA,NA,NA,NA,NA,NA,NA,NA,NA,NaN,NA,4390.4000000059605,left,0,NA,NA,NA,NA,NA
6z8NgQB6,3fk4g712o0duz4m7qhicsa7sfszsso,352ythgrozqouu4agofxfdgcwdlh4a,6z8NgQB6,2020-0188,2021-10-31,06:16:35,08:17:45,NA,incomplete,true,NA,NA,true,0,4,NA,NA,NA,left,n_l_071.jpg,brown,red,NA,NA,NA,NA,NA,NA,NA,NA,NA,NaN,NA,3255.899999976158,left,1,NA,NA,NA,NA,NA
6z8NgQB6,3fk4g712o0duz4m7qhicsa7sfszsso,352ythgrozqouu4agofxfdgcwdlh4a,6z8NgQB6,2020-0188,2021-10-31,06:16:35,08:17:45,NA,incomplete,true,NA,NA,true,0,5,NA,NA,NA,left,n_l_081.jpg,green,red,NA,NA,NA,NA,NA,NA,NA,NA,NA,NaN,NA,3656.100000023842,left,1,NA,NA,NA,NA,NA
6z8NgQB6,3fk4g712o0duz4m7qhicsa7sfszsso,352ythgrozqouu4agofxfdgcwdlh4a,6z8NgQB6,2020-0188,2021-10-31,06:16:35,08:17:45,NA,incomplete,true,NA,NA,true,0,6,NA,NA,NA,left,m_l_006.jpg,purple,white,NA,NA,NA,NA,NA,NA,NA,NA,NA,NaN,NA,4945.5999999940395,left,1,NA,NA,NA,NA,NA
6z8NgQB6,3fk4g712o0duz4m7qhicsa7sfszsso,352ythgrozqouu4agofxfdgcwdlh4a,6z8NgQB6,2020-0188,2021-10-31,06:16:35,08:17:45,NA,incomplete,true,NA,NA,true,0,7,NA,NA,NA,left,m_s_068.jpg,brown,red,NA,NA,NA,NA,NA,NA,NA,NA,NA,NaN,NA,4341.0999999940395,right,0,NA,NA,NA,NA,NA
6z8NgQB6,3fk4g712o0duz4m7qhicsa7sfszsso,352ythgrozqouu4agofxfdgcwdlh4a,6z8NgQB6,2020-0188,2021-10-31,06:16:35,08:17:45,NA,incomplete,true,NA,NA,true,0,8,NA,NA,NA,left,n_l_089.jpg,gray,white,NA,NA,NA,NA,NA,NA,NA,NA,NA,NaN,NA,4243,left,1,NA,NA,NA,NA,NA
6z8NgQB6,3fk4g712o0duz4m7qhicsa7sfszsso,352ythgrozqouu4agofxfdgcwdlh4a,6z8NgQB6,2020-0188,2021-10-31,06:16:35,08:17:45,NA,incomplete,true,NA,NA,true,0,9,NA,NA,NA,right,n_s_029.jpg,purple,green,NA,NA,NA,NA,NA,NA,NA,NA,NA,NaN,NA,5593.5999999940395,right,1,NA,NA,NA,NA,NA
6z8NgQB6,3fk4g712o0duz4m7qhicsa7sfszsso,352ythgrozqouu4agofxfdgcwdlh4a,6z8NgQB6,2020-0188,2021-10-31,06:16:35,08:17:45,NA,incomplete,true,NA,NA,true,0,10,NA,NA,NA,left,n_l_092.jpg,white,gray,NA,NA,NA,NA,NA,NA,NA,NA,NA,NaN,NA,11109.09999999404,left,1,NA,NA,NA,NA,NA
6z8NgQB6,3fk4g712o0duz4m7qhicsa7sfszsso,352ythgrozqouu4agofxfdgcwdlh4a,6z8NgQB6,2020-0188,2021-10-31,06:16:35,08:17:45,NA,incomplete,true,NA,NA,true,0,11,NA,NA,NA,left,m_s_029.jpg,red,green,NA,NA,NA,NA,NA,NA,NA,NA,NA,NaN,NA,9759.5,left,1,NA,NA,NA,NA,NA
6z8NgQB6,3fk4g712o0duz4m7qhicsa7sfszsso,352ythgrozqouu4agofxfdgcwdlh4a,6z8NgQB6,2020-0188,2021-10-31,06:16:35,08:17:45,NA,incomplete,true,NA,NA,true,0,12,NA,NA,NA,left,n_s_037.jpg,white,gray,NA,NA,NA,NA,NA,NA,NA,NA,NA,NaN,NA,6058.300000011921,left,1,NA,NA,NA,NA,NA
6z8NgQB6,3fk4g712o0duz4m7qhicsa7sfszsso,352ythgrozqouu4agofxfdgcwdlh4a,6z8NgQB6,2020-0188,2021-10-31,06:16:35,08:17:45,NA,incomplete,true,NA,NA,true,0,13,NA,NA,NA,right,n_l_094.jpg,purple,white,NA,NA,NA,NA,NA,NA,NA,NA,NA,NaN,NA,4324.300000011921,left,0,NA,NA,NA,NA,NA
6z8NgQB6,3fk4g712o0duz4m7qhicsa7sfszsso,352ythgrozqouu4agofxfdgcwdlh4a,6z8NgQB6,2020-0188,2021-10-31,06:16:35,08:17:45,NA,incomplete,true,NA,NA,true,0,14,NA,NA,NA,left,m_s_114.jpg,white,purple,NA,NA,NA,NA,NA,NA,NA,NA,NA,NaN,NA,4310.299999982119,right,0,NA,NA,NA,NA,NA
6z8NgQB6,3fk4g712o0duz4m7qhicsa7sfszsso,352ythgrozqouu4agofxfdgcwdlh4a,6z8NgQB6,2020-0188,2021-10-31,06:16:35,08:17:45,NA,incomplete,true,NA,NA,true,0,15,NA,NA,NA,right,n_s_067.jpg,white,gray,NA,NA,NA,NA,NA,NA,NA,NA,NA,NaN,NA,2935,right,1,NA,NA,NA,NA,NA
6z8NgQB6,3fk4g712o0duz4m7qhicsa7sfszsso,352ythgrozqouu4agofxfdgcwdlh4a,6z8NgQB6,2020-0188,2021-10-31,06:16:35,08:17:45,NA,incomplete,true,NA,NA,true,0,16,NA,NA,NA,right,m_l_028.jpg,green,purple,NA,NA,NA,NA,NA,NA,NA,NA,NA,NaN,NA,3614.5,left,0,NA,NA,NA,NA,NA
6z8NgQB6,3fk4g712o0duz4m7qhicsa7sfszsso,352ythgrozqouu4agofxfdgcwdlh4a,6z8NgQB6,2020-0188,2021-10-31,06:16:35,08:17:45,NA,incomplete,true,NA,NA,true,0,17,NA,NA,NA,left,m_s_065.jpg,gray,white,NA,NA,NA,NA,NA,NA,NA,NA,NA,NaN,NA,2499.4000000059605,right,0,NA,NA,NA,NA,NA
6z8NgQB6,3fk4g712o0duz4m7qhicsa7sfszsso,352ythgrozqouu4agofxfdgcwdlh4a,6z8NgQB6,2020-0188,2021-10-31,06:16:35,08:17:45,NA,incomplete,true,NA,NA,true,0,18,NA,NA,NA,right,m_s_106.jpg,green,red,NA,NA,NA,NA,NA,NA,NA,NA,NA,NaN,NA,8631.199999988079,left,0,NA,NA,NA,NA,NA
6z8NgQB6,3fk4g712o0duz4m7qhicsa7sfszsso,352ythgrozqouu4agofxfdgcwdlh4a,6z8NgQB6,2020-0188,2021-10-31,06:16:35,08:17:45,NA,incomplete,true,NA,NA,true,0,19,NA,NA,NA,left,n_l_004.jpg,red,green,NA,NA,NA,NA,NA,NA,NA,NA,NA,NaN,NA,4094.5,left,1,NA,NA,NA,NA,NA
6z8NgQB6,3fk4g712o0duz4m7qhicsa7sfszsso,352ythgrozqouu4agofxfdgcwdlh4a,6z8NgQB6,2020-0188,2021-10-31,06:16:35,08:17:45,NA,incomplete,true,NA,NA,true,0,20,NA,NA,NA,left,n_s_043.jpg,purple,green,NA,NA,NA,NA,NA,NA,NA,NA,NA,NaN,NA,4079.4000000059605,right,0,NA,NA,NA,NA,NA
6z8NgQB6,3fk4g712o0duz4m7qhicsa7sfszsso,352ythgrozqouu4agofxfdgcwdlh4a,6z8NgQB6,2020-0188,2021-10-31,06:16:35,08:17:45,NA,incomplete,true,NA,NA,true,0,21,NA,NA,NA,left,m_l_116.jpg,brown,red,NA,NA,NA,NA,NA,NA,NA,NA,NA,NaN,NA,6733.200000017881,left,1,NA,NA,NA,NA,NA
6z8NgQB6,3fk4g712o0duz4m7qhicsa7sfszsso,352ythgrozqouu4agofxfdgcwdlh4a,6z8NgQB6,2020-0188,2021-10-31,06:16:35,08:17:45,NA,incomplete,true,NA,true,NA,0,0,NA,NA,NA,right,NA,NA,NA,present,NA,NA,n_l_022.jpg,red,m_s_068.jpg,brown,between,NA,NaN,NA,NA,NA,NA,right,6364.0999999940395,1,1,4536.5
6z8NgQB6,3fk4g712o0duz4m7qhicsa7sfszsso,352ythgrozqouu4agofxfdgcwdlh4a,6z8NgQB6,2020-0188,2021-10-31,06:16:35,08:17:45,NA,incomplete,true,NA,true,NA,0,1,NA,NA,NA,right,NA,NA,NA,present,NA,NA,n_l_071.jpg,brown,m_l_116.jpg,brown,within,NA,NaN,NA,NA,NA,NA,right,6644.700000017881,1,1,7184.5999999940395
6z8NgQB6,3fk4g712o0duz4m7qhicsa7sfszsso,352ythgrozqouu4agofxfdgcwdlh4a,6z8NgQB6,2020-0188,2021-10-31,06:16:35,08:17:45,NA,incomplete,true,NA,true,NA,0,2,NA,NA,NA,left,NA,NA,NA,present,NA,NA,m_l_006.jpg,purple,m_s_018.jpg,purple,within,NA,NaN,NA,NA,NA,NA,left,4491.200000017881,1,2,3389.399999976158
6z8NgQB6,3fk4g712o0duz4m7qhicsa7sfszsso,352ythgrozqouu4agofxfdgcwdlh4a,6z8NgQB6,2020-0188,2021-10-31,06:16:35,08:17:45,NA,incomplete,true,NA,true,NA,0,3,NA,NA,NA,right,NA,NA,NA,present,NA,NA,m_l_028.jpg,purple,n_s_029.jpg,green,between,NA,NaN,NA,NA,NA,NA,right,7503.4000000059605,1,1,5537.600000023842
6z8NgQB6,3fk4g712o0duz4m7qhicsa7sfszsso,352ythgrozqouu4agofxfdgcwdlh4a,6z8NgQB6,2020-0188,2021-10-31,06:16:35,08:17:45,NA,incomplete,true,NA,true,NA,0,4,NA,NA,NA,right,NA,NA,NA,present,NA,NA,m_s_114.jpg,white,n_s_043.jpg,purple,between,NA,NaN,NA,NA,NA,NA,left,6295,0,1,4463.5
6z8NgQB6,3fk4g712o0duz4m7qhicsa7sfszsso,352ythgrozqouu4agofxfdgcwdlh4a,6z8NgQB6,2020-0188,2021-10-31,06:16:35,08:17:45,NA,incomplete,true,NA,true,NA,0,5,NA,NA,NA,left,NA,NA,NA,present,NA,NA,n_l_092.jpg,white,m_s_065.jpg,gray,between,NA,NaN,NA,NA,NA,NA,left,4767.199999988079,1,2,6020.800000011921
6z8NgQB6,3fk4g712o0duz4m7qhicsa7sfszsso,352ythgrozqouu4agofxfdgcwdlh4a,6z8NgQB6,2020-0188,2021-10-31,06:16:35,08:17:45,NA,incomplete,true,NA,true,NA,0,6,NA,NA,NA,left,NA,NA,NA,present,NA,NA,m_s_106.jpg,red,m_s_029.jpg,red,within,NA,NaN,NA,NA,NA,NA,left,3357.5,1,1,6986.299999982119
6z8NgQB6,3fk4g712o0duz4m7qhicsa7sfszsso,352ythgrozqouu4agofxfdgcwdlh4a,6z8NgQB6,2020-0188,2021-10-31,06:16:35,08:17:45,NA,incomplete,true,NA,true,NA,0,7,NA,NA,NA,left,NA,NA,NA,present,NA,NA,n_s_037.jpg,white,n_l_094.jpg,white,within,NA,NaN,NA,NA,NA,NA,left,3380.9000000059605,1,2,6291.5999999940395
6z8NgQB6,3fk4g712o0duz4m7qhicsa7sfszsso,352ythgrozqouu4agofxfdgcwdlh4a,6z8NgQB6,2020-0188,2021-10-31,06:16:35,08:17:45,NA,incomplete,true,NA,true,NA,0,8,NA,NA,NA,right,NA,NA,NA,present,NA,NA,n_l_089.jpg,gray,n_s_067.jpg,gray,within,NA,NaN,NA,NA,NA,NA,right,6362.0999999940395,1,2,1681.2000000178814
6z8NgQB6,3fk4g712o0duz4m7qhicsa7sfszsso,352ythgrozqouu4agofxfdgcwdlh4a,6z8NgQB6,2020-0188,2021-10-31,06:16:35,08:17:45,NA,incomplete,true,NA,true,NA,0,9,NA,NA,NA,left,NA,NA,NA,present,NA,NA,n_l_081.jpg,green,m_s_020.jpg,green,within,NA,NaN,NA,NA,NA,NA,left,3199.800000011921,1,3,1351.199999988079
6z8NgQB6,3fk4g712o0duz4m7qhicsa7sfszsso,352ythgrozqouu4agofxfdgcwdlh4a,6z8NgQB6,2020-0188,2021-10-31,06:16:35,08:17:45,NA,incomplete,true,NA,true,NA,0,10,NA,NA,NA,left,NA,NA,NA,present,NA,NA,n_l_004.jpg,red,n_s_013.jpg,green,between,NA,NaN,NA,NA,NA,NA,left,4383.9000000059605,1,2,7452.4000000059605
6z8NgQB6,3fk4g712o0duz4m7qhicsa7sfszsso,352ythgrozqouu4agofxfdgcwdlh4a,6z8NgQB6,2020-0188,2021-10-31,06:16:35,08:17:45,NA,incomplete,false,true,NA,NA,1,0,NA,yellow,m_l_037.jpg,NA,NA,NA,NA,NA,pleasant,unpleasant,NA,NA,NA,NA,NA,left,2654.19999998808,true,NA,NA,NA,NA,NA,NA,NA,NA
6z8NgQB6,3fk4g712o0duz4m7qhicsa7sfszsso,352ythgrozqouu4agofxfdgcwdlh4a,6z8NgQB6,2020-0188,2021-10-31,06:16:35,08:17:45,NA,incomplete,false,true,NA,NA,1,1,NA,yellow,m_l_024.jpg,NA,NA,NA,NA,NA,pleasant,unpleasant,NA,NA,NA,NA,NA,left,2060.30000001192,true,NA,NA,NA,NA,NA,NA,NA,NA
6z8NgQB6,3fk4g712o0duz4m7qhicsa7sfszsso,352ythgrozqouu4agofxfdgcwdlh4a,6z8NgQB6,2020-0188,2021-10-31,06:16:35,08:17:45,NA,incomplete,false,true,NA,NA,1,2,NA,yellow,n_s_017.jpg,NA,NA,NA,NA,NA,pleasant,unpleasant,NA,NA,NA,NA,NA,right,1499.5,true,NA,NA,NA,NA,NA,NA,NA,NA
6z8NgQB6,3fk4g712o0duz4m7qhicsa7sfszsso,352ythgrozqouu4agofxfdgcwdlh4a,6z8NgQB6,2020-0188,2021-10-31,06:16:35,08:17:45,NA,incomplete,false,true,NA,NA,1,3,NA,yellow,n_l_003.jpg,NA,NA,NA,NA,NA,pleasant,unpleasant,NA,NA,NA,NA,NA,right,1962.5,true,NA,NA,NA,NA,NA,NA,NA,NA
6z8NgQB6,3fk4g712o0duz4m7qhicsa7sfszsso,352ythgrozqouu4agofxfdgcwdlh4a,6z8NgQB6,2020-0188,2021-10-31,06:16:35,08:17:45,NA,incomplete,false,true,NA,NA,1,4,NA,yellow,n_l_041.jpg,NA,NA,NA,NA,NA,unpleasant,pleasant,NA,NA,NA,NA,NA,left,2221.19999998808,true,NA,NA,NA,NA,NA,NA,NA,NA
6z8NgQB6,3fk4g712o0duz4m7qhicsa7sfszsso,352ythgrozqouu4agofxfdgcwdlh4a,6z8NgQB6,2020-0188,2021-10-31,06:16:35,08:17:45,NA,incomplete,false,true,NA,NA,1,5,NA,yellow,n_l_090.jpg,NA,NA,NA,NA,NA,pleasant,unpleasant,NA,NA,NA,NA,NA,right,1764.29999998212,true,NA,NA,NA,NA,NA,NA,NA,NA
6z8NgQB6,3fk4g712o0duz4m7qhicsa7sfszsso,352ythgrozqouu4agofxfdgcwdlh4a,6z8NgQB6,2020-0188,2021-10-31,06:16:35,08:17:45,NA,incomplete,false,true,NA,NA,1,6,NA,gray,n_s_084.jpg,NA,NA,NA,NA,NA,pleasant,unpleasant,NA,NA,NA,NA,NA,right,2049.09999999404,true,NA,NA,NA,NA,NA,NA,NA,NA
6z8NgQB6,3fk4g712o0duz4m7qhicsa7sfszsso,352ythgrozqouu4agofxfdgcwdlh4a,6z8NgQB6,2020-0188,2021-10-31,06:16:35,08:17:45,NA,incomplete,false,true,NA,NA,1,7,NA,gray,m_s_066.jpg,NA,NA,NA,NA,NA,unpleasant,pleasant,NA,NA,NA,NA,NA,right,1680.09999999404,true,NA,NA,NA,NA,NA,NA,NA,NA
6z8NgQB6,3fk4g712o0duz4m7qhicsa7sfszsso,352ythgrozqouu4agofxfdgcwdlh4a,6z8NgQB6,2020-0188,2021-10-31,06:16:35,08:17:45,NA,incomplete,false,true,NA,NA,1,8,NA,gray,n_l_040.jpg,NA,NA,NA,NA,NA,unpleasant,pleasant,NA,NA,NA,NA,NA,right,1680.19999998808,true,NA,NA,NA,NA,NA,NA,NA,NA
6z8NgQB6,3fk4g712o0duz4m7qhicsa7sfszsso,352ythgrozqouu4agofxfdgcwdlh4a,6z8NgQB6,2020-0188,2021-10-31,06:16:35,08:17:45,NA,incomplete,false,true,NA,NA,1,9,NA,gray,m_l_048.jpg,NA,NA,NA,NA,NA,pleasant,unpleasant,NA,NA,NA,NA,NA,left,1638.20000001788,true,NA,NA,NA,NA,NA,NA,NA,NA
6z8NgQB6,3fk4g712o0duz4m7qhicsa7sfszsso,352ythgrozqouu4agofxfdgcwdlh4a,6z8NgQB6,2020-0188,2021-10-31,06:16:35,08:17:45,NA,incomplete,false,true,NA,NA,1,10,NA,gray,m_l_051.jpg,NA,NA,NA,NA,NA,pleasant,unpleasant,NA,NA,NA,NA,NA,left,1489.40000000596,true,NA,NA,NA,NA,NA,NA,NA,NA
6z8NgQB6,3fk4g712o0duz4m7qhicsa7sfszsso,352ythgrozqouu4agofxfdgcwdlh4a,6z8NgQB6,2020-0188,2021-10-31,06:16:35,08:17:45,NA,incomplete,false,true,NA,NA,1,11,NA,gray,n_l_016.jpg,NA,NA,NA,NA,NA,pleasant,unpleasant,NA,NA,NA,NA,NA,left,1637,true,NA,NA,NA,NA,NA,NA,NA,NA
6z8NgQB6,3fk4g712o0duz4m7qhicsa7sfszsso,352ythgrozqouu4agofxfdgcwdlh4a,6z8NgQB6,2020-0188,2021-10-31,06:16:35,08:17:45,NA,incomplete,false,true,NA,NA,1,12,NA,white,n_s_062.jpg,NA,NA,NA,NA,NA,unpleasant,pleasant,NA,NA,NA,NA,NA,left,1887.89999997616,true,NA,NA,NA,NA,NA,NA,NA,NA
6z8NgQB6,3fk4g712o0duz4m7qhicsa7sfszsso,352ythgrozqouu4agofxfdgcwdlh4a,6z8NgQB6,2020-0188,2021-10-31,06:16:35,08:17:45,NA,incomplete,false,true,NA,NA,1,13,NA,white,n_s_060.jpg,NA,NA,NA,NA,NA,unpleasant,pleasant,NA,NA,NA,NA,NA,left,1577.5,true,NA,NA,NA,NA,NA,NA,NA,NA
6z8NgQB6,3fk4g712o0duz4m7qhicsa7sfszsso,352ythgrozqouu4agofxfdgcwdlh4a,6z8NgQB6,2020-0188,2021-10-31,06:16:35,08:17:45,NA,incomplete,false,true,NA,NA,1,14,NA,white,n_s_094.jpg,NA,NA,NA,NA,NA,pleasant,unpleasant,NA,NA,NA,NA,NA,left,1382.09999999404,true,NA,NA,NA,NA,NA,NA,NA,NA
6z8NgQB6,3fk4g712o0duz4m7qhicsa7sfszsso,352ythgrozqouu4agofxfdgcwdlh4a,6z8NgQB6,2020-0188,2021-10-31,06:16:35,08:17:45,NA,incomplete,false,true,NA,NA,1,15,NA,white,m_s_028.jpg,NA,NA,NA,NA,NA,pleasant,unpleasant,NA,NA,NA,NA,NA,left,1790,true,NA,NA,NA,NA,NA,NA,NA,NA
6z8NgQB6,3fk4g712o0duz4m7qhicsa7sfszsso,352ythgrozqouu4agofxfdgcwdlh4a,6z8NgQB6,2020-0188,2021-10-31,06:16:35,08:17:45,NA,incomplete,false,true,NA,NA,1,16,NA,white,m_l_043.jpg,NA,NA,NA,NA,NA,unpleasant,pleasant,NA,NA,NA,NA,NA,left,1409.79999998212,true,NA,NA,NA,NA,NA,NA,NA,NA
6z8NgQB6,3fk4g712o0duz4m7qhicsa7sfszsso,352ythgrozqouu4agofxfdgcwdlh4a,6z8NgQB6,2020-0188,2021-10-31,06:16:35,08:17:45,NA,incomplete,false,true,NA,NA,1,17,NA,white,n_l_066.jpg,NA,NA,NA,NA,NA,pleasant,unpleasant,NA,NA,NA,NA,NA,left,1586.19999998808,true,NA,NA,NA,NA,NA,NA,NA,NA
6z8NgQB6,3fk4g712o0duz4m7qhicsa7sfszsso,352ythgrozqouu4agofxfdgcwdlh4a,6z8NgQB6,2020-0188,2021-10-31,06:16:35,08:17:45,NA,incomplete,false,true,NA,NA,1,18,NA,red,m_l_022.jpg,NA,NA,NA,NA,NA,unpleasant,pleasant,NA,NA,NA,NA,NA,left,2034.19999998808,true,NA,NA,NA,NA,NA,NA,NA,NA
6z8NgQB6,3fk4g712o0duz4m7qhicsa7sfszsso,352ythgrozqouu4agofxfdgcwdlh4a,6z8NgQB6,2020-0188,2021-10-31,06:16:35,08:17:45,NA,incomplete,false,true,NA,NA,1,19,NA,red,n_l_096.jpg,NA,NA,NA,NA,NA,pleasant,unpleasant,NA,NA,NA,NA,NA,left,1497.69999998808,true,NA,NA,NA,NA,NA,NA,NA,NA
6z8NgQB6,3fk4g712o0duz4m7qhicsa7sfszsso,352ythgrozqouu4agofxfdgcwdlh4a,6z8NgQB6,2020-0188,2021-10-31,06:16:35,08:17:45,NA,incomplete,false,true,NA,NA,1,20,NA,red,m_l_078.jpg,NA,NA,NA,NA,NA,unpleasant,pleasant,NA,NA,NA,NA,NA,left,1270.20000001788,true,NA,NA,NA,NA,NA,NA,NA,NA
6z8NgQB6,3fk4g712o0duz4m7qhicsa7sfszsso,352ythgrozqouu4agofxfdgcwdlh4a,6z8NgQB6,2020-0188,2021-10-31,06:16:35,08:17:45,NA,incomplete,false,true,NA,NA,1,21,NA,red,m_s_038.jpg,NA,NA,NA,NA,NA,unpleasant,pleasant,NA,NA,NA,NA,NA,left,1364.59999999404,true,NA,NA,NA,NA,NA,NA,NA,NA
6z8NgQB6,3fk4g712o0duz4m7qhicsa7sfszsso,352ythgrozqouu4agofxfdgcwdlh4a,6z8NgQB6,2020-0188,2021-10-31,06:16:35,08:17:45,NA,incomplete,false,true,NA,NA,1,22,NA,red,n_l_074.jpg,NA,NA,NA,NA,NA,unpleasant,pleasant,NA,NA,NA,NA,NA,right,1635.29999998212,true,NA,NA,NA,NA,NA,NA,NA,NA
6z8NgQB6,3fk4g712o0duz4m7qhicsa7sfszsso,352ythgrozqouu4agofxfdgcwdlh4a,6z8NgQB6,2020-0188,2021-10-31,06:16:35,08:17:45,NA,incomplete,false,true,NA,NA,1,23,NA,red,n_l_108.jpg,NA,NA,NA,NA,NA,unpleasant,pleasant,NA,NA,NA,NA,NA,left,1319.29999998212,true,NA,NA,NA,NA,NA,NA,NA,NA
6z8NgQB6,3fk4g712o0duz4m7qhicsa7sfszsso,352ythgrozqouu4agofxfdgcwdlh4a,6z8NgQB6,2020-0188,2021-10-31,06:16:35,08:17:45,NA,incomplete,false,true,NA,NA,1,24,NA,green,m_s_083.jpg,NA,NA,NA,NA,NA,unpleasant,pleasant,NA,NA,NA,NA,NA,left,1512.40000000596,true,NA,NA,NA,NA,NA,NA,NA,NA
6z8NgQB6,3fk4g712o0duz4m7qhicsa7sfszsso,352ythgrozqouu4agofxfdgcwdlh4a,6z8NgQB6,2020-0188,2021-10-31,06:16:35,08:17:45,NA,incomplete,false,true,NA,NA,1,25,NA,green,n_s_053.jpg,NA,NA,NA,NA,NA,pleasant,unpleasant,NA,NA,NA,NA,NA,right,2212.5,true,NA,NA,NA,NA,NA,NA,NA,NA
6z8NgQB6,3fk4g712o0duz4m7qhicsa7sfszsso,352ythgrozqouu4agofxfdgcwdlh4a,6z8NgQB6,2020-0188,2021-10-31,06:16:35,08:17:45,NA,incomplete,false,true,NA,NA,1,26,NA,green,n_s_079.jpg,NA,NA,NA,NA,NA,pleasant,unpleasant,NA,NA,NA,NA,NA,right,1612.5,true,NA,NA,NA,NA,NA,NA,NA,NA
6z8NgQB6,3fk4g712o0duz4m7qhicsa7sfszsso,352ythgrozqouu4agofxfdgcwdlh4a,6z8NgQB6,2020-0188,2021-10-31,06:16:35,08:17:45,NA,incomplete,false,true,NA,NA,1,27,NA,green,n_l_069.jpg,NA,NA,NA,NA,NA,pleasant,unpleasant,NA,NA,NA,NA,NA,left,1532,true,NA,NA,NA,NA,NA,NA,NA,NA
6z8NgQB6,3fk4g712o0duz4m7qhicsa7sfszsso,352ythgrozqouu4agofxfdgcwdlh4a,6z8NgQB6,2020-0188,2021-10-31,06:16:35,08:17:45,NA,incomplete,false,true,NA,NA,1,28,NA,green,m_s_117.jpg,NA,NA,NA,NA,NA,unpleasant,pleasant,NA,NA,NA,NA,NA,left,1703,true,NA,NA,NA,NA,NA,NA,NA,NA
6z8NgQB6,3fk4g712o0duz4m7qhicsa7sfszsso,352ythgrozqouu4agofxfdgcwdlh4a,6z8NgQB6,2020-0188,2021-10-31,06:16:35,08:17:45,NA,incomplete,false,true,NA,NA,1,29,NA,green,n_l_077.jpg,NA,NA,NA,NA,NA,pleasant,unpleasant,NA,NA,NA,NA,NA,left,1643.19999998808,true,NA,NA,NA,NA,NA,NA,NA,NA
6z8NgQB6,3fk4g712o0duz4m7qhicsa7sfszsso,352ythgrozqouu4agofxfdgcwdlh4a,6z8NgQB6,2020-0188,2021-10-31,06:16:35,08:17:45,NA,incomplete,false,true,NA,NA,1,30,NA,brown,n_l_027.jpg,NA,NA,NA,NA,NA,unpleasant,pleasant,NA,NA,NA,NA,NA,left,1374,true,NA,NA,NA,NA,NA,NA,NA,NA
6z8NgQB6,3fk4g712o0duz4m7qhicsa7sfszsso,352ythgrozqouu4agofxfdgcwdlh4a,6z8NgQB6,2020-0188,2021-10-31,06:16:35,08:17:45,NA,incomplete,false,true,NA,NA,1,31,NA,brown,n_l_001.jpg,NA,NA,NA,NA,NA,pleasant,unpleasant,NA,NA,NA,NA,NA,left,1494.40000000596,true,NA,NA,NA,NA,NA,NA,NA,NA
6z8NgQB6,3fk4g712o0duz4m7qhicsa7sfszsso,352ythgrozqouu4agofxfdgcwdlh4a,6z8NgQB6,2020-0188,2021-10-31,06:16:35,08:17:45,NA,incomplete,false,true,NA,NA,1,32,NA,brown,n_s_106.jpg,NA,NA,NA,NA,NA,unpleasant,pleasant,NA,NA,NA,NA,NA,right,1728.60000002384,true,NA,NA,NA,NA,NA,NA,NA,NA
6z8NgQB6,3fk4g712o0duz4m7qhicsa7sfszsso,352ythgrozqouu4agofxfdgcwdlh4a,6z8NgQB6,2020-0188,2021-10-31,06:16:35,08:17:45,NA,incomplete,false,true,NA,NA,1,33,NA,brown,n_l_058.jpg,NA,NA,NA,NA,NA,unpleasant,pleasant,NA,NA,NA,NA,NA,left,1203.79999998212,true,NA,NA,NA,NA,NA,NA,NA,NA
6z8NgQB6,3fk4g712o0duz4m7qhicsa7sfszsso,352ythgrozqouu4agofxfdgcwdlh4a,6z8NgQB6,2020-0188,2021-10-31,06:16:35,08:17:45,NA,incomplete,false,true,NA,NA,1,34,NA,brown,n_l_062.jpg,NA,NA,NA,NA,NA,pleasant,unpleasant,NA,NA,NA,NA,NA,left,1395,true,NA,NA,NA,NA,NA,NA,NA,NA
6z8NgQB6,3fk4g712o0duz4m7qhicsa7sfszsso,352ythgrozqouu4agofxfdgcwdlh4a,6z8NgQB6,2020-0188,2021-10-31,06:16:35,08:17:45,NA,incomplete,false,true,NA,NA,1,35,NA,brown,n_l_039.jpg,NA,NA,NA,NA,NA,pleasant,unpleasant,NA,NA,NA,NA,NA,left,1407.70000001788,true,NA,NA,NA,NA,NA,NA,NA,NA
6z8NgQB6,3fk4g712o0duz4m7qhicsa7sfszsso,352ythgrozqouu4agofxfdgcwdlh4a,6z8NgQB6,2020-0188,2021-10-31,06:16:35,08:17:45,NA,incomplete,false,NA,NA,true,1,0,NA,NA,NA,left,n_l_039.jpg,brown,green,NA,NA,NA,NA,NA,NA,NA,NA,NA,NaN,NA,3192.0999999940395,left,1,NA,NA,NA,NA,NA
6z8NgQB6,3fk4g712o0duz4m7qhicsa7sfszsso,352ythgrozqouu4agofxfdgcwdlh4a,6z8NgQB6,2020-0188,2021-10-31,06:16:35,08:17:45,NA,incomplete,false,NA,NA,true,1,1,NA,NA,NA,left,n_s_053.jpg,green,red,NA,NA,NA,NA,NA,NA,NA,NA,NA,NaN,NA,2538,left,1,NA,NA,NA,NA,NA
6z8NgQB6,3fk4g712o0duz4m7qhicsa7sfszsso,352ythgrozqouu4agofxfdgcwdlh4a,6z8NgQB6,2020-0188,2021-10-31,06:16:35,08:17:45,NA,incomplete,false,NA,NA,true,1,2,NA,NA,NA,left,m_l_078.jpg,red,white,NA,NA,NA,NA,NA,NA,NA,NA,NA,NaN,NA,11487.700000017881,left,1,NA,NA,NA,NA,NA
6z8NgQB6,3fk4g712o0duz4m7qhicsa7sfszsso,352ythgrozqouu4agofxfdgcwdlh4a,6z8NgQB6,2020-0188,2021-10-31,06:16:35,08:17:45,NA,incomplete,false,NA,NA,true,1,3,NA,NA,NA,right,n_s_060.jpg,red,white,NA,NA,NA,NA,NA,NA,NA,NA,NA,NaN,NA,3518.300000011921,left,0,NA,NA,NA,NA,NA
6z8NgQB6,3fk4g712o0duz4m7qhicsa7sfszsso,352ythgrozqouu4agofxfdgcwdlh4a,6z8NgQB6,2020-0188,2021-10-31,06:16:35,08:17:45,NA,incomplete,false,NA,NA,true,1,4,NA,NA,NA,right,m_s_117.jpg,red,green,NA,NA,NA,NA,NA,NA,NA,NA,NA,NaN,NA,7610.699999988079,right,1,NA,NA,NA,NA,NA
6z8NgQB6,3fk4g712o0duz4m7qhicsa7sfszsso,352ythgrozqouu4agofxfdgcwdlh4a,6z8NgQB6,2020-0188,2021-10-31,06:16:35,08:17:45,NA,incomplete,false,NA,NA,true,1,5,NA,NA,NA,left,n_l_041.jpg,yellow,gray,NA,NA,NA,NA,NA,NA,NA,NA,NA,NaN,NA,3165.9000000059605,right,0,NA,NA,NA,NA,NA
6z8NgQB6,3fk4g712o0duz4m7qhicsa7sfszsso,352ythgrozqouu4agofxfdgcwdlh4a,6z8NgQB6,2020-0188,2021-10-31,06:16:35,08:17:45,NA,incomplete,false,NA,NA,true,1,6,NA,NA,NA,right,n_l_090.jpg,gray,yellow,NA,NA,NA,NA,NA,NA,NA,NA,NA,NaN,NA,2512.800000011921,left,0,NA,NA,NA,NA,NA
6z8NgQB6,3fk4g712o0duz4m7qhicsa7sfszsso,352ythgrozqouu4agofxfdgcwdlh4a,6z8NgQB6,2020-0188,2021-10-31,06:16:35,08:17:45,NA,incomplete,false,NA,NA,true,1,7,NA,NA,NA,left,n_l_001.jpg,brown,green,NA,NA,NA,NA,NA,NA,NA,NA,NA,NaN,NA,2002.0999999940395,left,1,NA,NA,NA,NA,NA
6z8NgQB6,3fk4g712o0duz4m7qhicsa7sfszsso,352ythgrozqouu4agofxfdgcwdlh4a,6z8NgQB6,2020-0188,2021-10-31,06:16:35,08:17:45,NA,incomplete,false,NA,NA,true,1,8,NA,NA,NA,left,n_l_066.jpg,white,red,NA,NA,NA,NA,NA,NA,NA,NA,NA,NaN,NA,3130.300000011921,left,1,NA,NA,NA,NA,NA
6z8NgQB6,3fk4g712o0duz4m7qhicsa7sfszsso,352ythgrozqouu4agofxfdgcwdlh4a,6z8NgQB6,2020-0188,2021-10-31,06:16:35,08:17:45,NA,incomplete,false,NA,NA,true,1,9,NA,NA,NA,left,n_l_096.jpg,red,green,NA,NA,NA,NA,NA,NA,NA,NA,NA,NaN,NA,2937.9000000059605,left,1,NA,NA,NA,NA,NA
6z8NgQB6,3fk4g712o0duz4m7qhicsa7sfszsso,352ythgrozqouu4agofxfdgcwdlh4a,6z8NgQB6,2020-0188,2021-10-31,06:16:35,08:17:45,NA,incomplete,false,NA,NA,true,1,10,NA,NA,NA,right,m_l_051.jpg,yellow,gray,NA,NA,NA,NA,NA,NA,NA,NA,NA,NaN,NA,2069.9000000059605,right,1,NA,NA,NA,NA,NA
6z8NgQB6,3fk4g712o0duz4m7qhicsa7sfszsso,352ythgrozqouu4agofxfdgcwdlh4a,6z8NgQB6,2020-0188,2021-10-31,06:16:35,08:17:45,NA,incomplete,false,NA,NA,true,1,11,NA,NA,NA,left,m_l_043.jpg,white,gray,NA,NA,NA,NA,NA,NA,NA,NA,NA,NaN,NA,8122.0999999940395,left,1,NA,NA,NA,NA,NA
6z8NgQB6,3fk4g712o0duz4m7qhicsa7sfszsso,352ythgrozqouu4agofxfdgcwdlh4a,6z8NgQB6,2020-0188,2021-10-31,06:16:35,08:17:45,NA,incomplete,false,NA,NA,true,1,12,NA,NA,NA,left,n_s_106.jpg,brown,green,NA,NA,NA,NA,NA,NA,NA,NA,NA,NaN,NA,2510.7999999821186,left,1,NA,NA,NA,NA,NA
6z8NgQB6,3fk4g712o0duz4m7qhicsa7sfszsso,352ythgrozqouu4agofxfdgcwdlh4a,6z8NgQB6,2020-0188,2021-10-31,06:16:35,08:17:45,NA,incomplete,false,NA,NA,true,1,13,NA,NA,NA,left,n_l_040.jpg,gray,white,NA,NA,NA,NA,NA,NA,NA,NA,NA,NaN,NA,2849.5,right,0,NA,NA,NA,NA,NA
6z8NgQB6,3fk4g712o0duz4m7qhicsa7sfszsso,352ythgrozqouu4agofxfdgcwdlh4a,6z8NgQB6,2020-0188,2021-10-31,06:16:35,08:17:45,NA,incomplete,false,NA,NA,true,1,14,NA,NA,NA,left,m_l_024.jpg,yellow,gray,NA,NA,NA,NA,NA,NA,NA,NA,NA,NaN,NA,2830.399999976158,left,1,NA,NA,NA,NA,NA
6z8NgQB6,3fk4g712o0duz4m7qhicsa7sfszsso,352ythgrozqouu4agofxfdgcwdlh4a,6z8NgQB6,2020-0188,2021-10-31,06:16:35,08:17:45,NA,incomplete,false,NA,NA,true,1,15,NA,NA,NA,left,n_l_074.jpg,red,green,NA,NA,NA,NA,NA,NA,NA,NA,NA,NaN,NA,22285.30000001192,right,0,NA,NA,NA,NA,NA
6z8NgQB6,3fk4g712o0duz4m7qhicsa7sfszsso,352ythgrozqouu4agofxfdgcwdlh4a,6z8NgQB6,2020-0188,2021-10-31,06:16:35,08:17:45,NA,incomplete,false,NA,NA,true,1,16,NA,NA,NA,right,n_l_016.jpg,yellow,gray,NA,NA,NA,NA,NA,NA,NA,NA,NA,NaN,NA,17175.59999999404,right,1,NA,NA,NA,NA,NA
6z8NgQB6,3fk4g712o0duz4m7qhicsa7sfszsso,352ythgrozqouu4agofxfdgcwdlh4a,6z8NgQB6,2020-0188,2021-10-31,06:16:35,08:17:45,NA,incomplete,false,NA,NA,true,1,17,NA,NA,NA,left,n_s_094.jpg,white,gray,NA,NA,NA,NA,NA,NA,NA,NA,NA,NaN,NA,13054.700000017881,left,1,NA,NA,NA,NA,NA
6z8NgQB6,3fk4g712o0duz4m7qhicsa7sfszsso,352ythgrozqouu4agofxfdgcwdlh4a,6z8NgQB6,2020-0188,2021-10-31,06:16:35,08:17:45,NA,incomplete,false,NA,NA,true,1,18,NA,NA,NA,left,m_s_066.jpg,gray,white,NA,NA,NA,NA,NA,NA,NA,NA,NA,NaN,NA,2579.5999999940395,left,1,NA,NA,NA,NA,NA
6z8NgQB6,3fk4g712o0duz4m7qhicsa7sfszsso,352ythgrozqouu4agofxfdgcwdlh4a,6z8NgQB6,2020-0188,2021-10-31,06:16:35,08:17:45,NA,incomplete,false,NA,NA,true,1,19,NA,NA,NA,left,n_l_108.jpg,red,green,NA,NA,NA,NA,NA,NA,NA,NA,NA,NaN,NA,20410.19999998808,left,1,NA,NA,NA,NA,NA
6z8NgQB6,3fk4g712o0duz4m7qhicsa7sfszsso,352ythgrozqouu4agofxfdgcwdlh4a,6z8NgQB6,2020-0188,2021-10-31,06:16:35,08:17:45,NA,incomplete,false,NA,NA,true,1,20,NA,NA,NA,right,n_s_079.jpg,red,green,NA,NA,NA,NA,NA,NA,NA,NA,NA,NaN,NA,13524.90000000596,right,1,NA,NA,NA,NA,NA
6z8NgQB6,3fk4g712o0duz4m7qhicsa7sfszsso,352ythgrozqouu4agofxfdgcwdlh4a,6z8NgQB6,2020-0188,2021-10-31,06:16:35,08:17:45,NA,incomplete,false,NA,NA,true,1,21,NA,NA,NA,left,n_l_077.jpg,green,brown,NA,NA,NA,NA,NA,NA,NA,NA,NA,NaN,NA,3708.699999988079,left,1,NA,NA,NA,NA,NA
6z8NgQB6,3fk4g712o0duz4m7qhicsa7sfszsso,352ythgrozqouu4agofxfdgcwdlh4a,6z8NgQB6,2020-0188,2021-10-31,06:16:35,08:17:45,NA,incomplete,false,NA,true,NA,1,0,NA,NA,NA,left,NA,NA,NA,present,NA,NA,m_s_066.jpg,gray,n_l_016.jpg,gray,within,NA,NaN,NA,NA,NA,NA,left,5707.700000017881,1,3,6178.699999988079
6z8NgQB6,3fk4g712o0duz4m7qhicsa7sfszsso,352ythgrozqouu4agofxfdgcwdlh4a,6z8NgQB6,2020-0188,2021-10-31,06:16:35,08:17:45,NA,incomplete,false,NA,true,NA,1,1,NA,NA,NA,left,NA,NA,NA,present,NA,NA,m_s_117.jpg,green,n_s_106.jpg,brown,between,NA,NaN,NA,NA,NA,NA,right,5873.100000023842,0,2,5936.199999988079
6z8NgQB6,3fk4g712o0duz4m7qhicsa7sfszsso,352ythgrozqouu4agofxfdgcwdlh4a,6z8NgQB6,2020-0188,2021-10-31,06:16:35,08:17:45,NA,incomplete,false,NA,true,NA,1,2,NA,NA,NA,left,NA,NA,NA,present,NA,NA,n_s_060.jpg,white,n_l_066.jpg,white,within,NA,NaN,NA,NA,NA,NA,left,7056.0999999940395,1,1,5875.5
6z8NgQB6,3fk4g712o0duz4m7qhicsa7sfszsso,352ythgrozqouu4agofxfdgcwdlh4a,6z8NgQB6,2020-0188,2021-10-31,06:16:35,08:17:45,NA,incomplete,false,NA,true,NA,1,3,NA,NA,NA,right,NA,NA,NA,present,NA,NA,n_l_108.jpg,red,n_l_096.jpg,red,within,NA,NaN,NA,NA,NA,NA,left,8429.199999988079,0,0,1698.1000000238419
6z8NgQB6,3fk4g712o0duz4m7qhicsa7sfszsso,352ythgrozqouu4agofxfdgcwdlh4a,6z8NgQB6,2020-0188,2021-10-31,06:16:35,08:17:45,NA,incomplete,false,NA,true,NA,1,4,NA,NA,NA,left,NA,NA,NA,present,NA,NA,m_l_024.jpg,yellow,n_l_090.jpg,yellow,within,NA,NaN,NA,NA,NA,NA,left,3976.2999999821186,1,1,1631.699999988079
6z8NgQB6,3fk4g712o0duz4m7qhicsa7sfszsso,352ythgrozqouu4agofxfdgcwdlh4a,6z8NgQB6,2020-0188,2021-10-31,06:16:35,08:17:45,NA,incomplete,false,NA,true,NA,1,5,NA,NA,NA,left,NA,NA,NA,present,NA,NA,m_l_043.jpg,white,m_l_078.jpg,red,between,NA,NaN,NA,NA,NA,NA,left,32691.399999976158,1,2,9158
6z8NgQB6,3fk4g712o0duz4m7qhicsa7sfszsso,352ythgrozqouu4agofxfdgcwdlh4a,6z8NgQB6,2020-0188,2021-10-31,06:16:35,08:17:45,NA,incomplete,false,NA,true,NA,1,6,NA,NA,NA,left,NA,NA,NA,present,NA,NA,n_l_041.jpg,yellow,n_l_040.jpg,gray,between,NA,NaN,NA,NA,NA,NA,left,31506.69999998808,1,1,16904.09999999404
6z8NgQB6,3fk4g712o0duz4m7qhicsa7sfszsso,352ythgrozqouu4agofxfdgcwdlh4a,6z8NgQB6,2020-0188,2021-10-31,06:16:35,08:17:45,NA,incomplete,false,NA,true,NA,1,7,NA,NA,NA,left,NA,NA,NA,present,NA,NA,n_s_053.jpg,green,n_l_077.jpg,green,within,NA,NaN,NA,NA,NA,NA,left,23516.29999998212,1,1,13621.800000011921
6z8NgQB6,3fk4g712o0duz4m7qhicsa7sfszsso,352ythgrozqouu4agofxfdgcwdlh4a,6z8NgQB6,2020-0188,2021-10-31,06:16:35,08:17:45,NA,incomplete,false,NA,true,NA,1,8,NA,NA,NA,right,NA,NA,NA,present,NA,NA,n_l_039.jpg,brown,n_l_001.jpg,brown,within,NA,NaN,NA,NA,NA,NA,right,14441.59999999404,1,1,3130.2999999821186
6z8NgQB6,3fk4g712o0duz4m7qhicsa7sfszsso,352ythgrozqouu4agofxfdgcwdlh4a,6z8NgQB6,2020-0188,2021-10-31,06:16:35,08:17:45,NA,incomplete,false,NA,true,NA,1,9,NA,NA,NA,right,NA,NA,NA,present,NA,NA,n_s_079.jpg,green,n_l_074.jpg,red,between,NA,NaN,NA,NA,NA,NA,right,12311.40000000596,1,1,31420.29999998212
6z8NgQB6,3fk4g712o0duz4m7qhicsa7sfszsso,352ythgrozqouu4agofxfdgcwdlh4a,6z8NgQB6,2020-0188,2021-10-31,06:16:35,08:17:45,NA,incomplete,false,NA,true,NA,1,10,NA,NA,NA,left,NA,NA,NA,present,NA,NA,m_l_051.jpg,gray,n_s_094.jpg,white,between,NA,NaN,NA,NA,NA,NA,left,13219.800000011921,1,1,4340.5999999940395
6z8NgQB6,3fk4g712o0duz4m7qhicsa7sfszsso,352ythgrozqouu4agofxfdgcwdlh4a,6z8NgQB6,2020-0188,2021-10-31,06:16:35,08:17:45,NA,incomplete,false,true,NA,NA,2,0,NA,yellow,m_l_002.jpg,NA,NA,NA,NA,NA,unpleasant,pleasant,NA,NA,NA,NA,NA,none,0,false,NA,NA,NA,NA,NA,NA,NA,NA
6z8NgQB6,3fk4g712o0duz4m7qhicsa7sfszsso,352ythgrozqouu4agofxfdgcwdlh4a,6z8NgQB6,2020-0188,2021-10-31,06:16:35,08:17:45,NA,incomplete,false,true,NA,NA,2,1,NA,yellow,n_l_064.jpg,NA,NA,NA,NA,NA,unpleasant,pleasant,NA,NA,NA,NA,NA,left,1323.09999999404,true,NA,NA,NA,NA,NA,NA,NA,NA
6z8NgQB6,3fk4g712o0duz4m7qhicsa7sfszsso,352ythgrozqouu4agofxfdgcwdlh4a,6z8NgQB6,2020-0188,2021-10-31,06:16:35,08:17:45,NA,incomplete,false,true,NA,NA,2,2,NA,yellow,m_s_116.jpg,NA,NA,NA,NA,NA,pleasant,unpleasant,NA,NA,NA,NA,NA,right,1221.5,true,NA,NA,NA,NA,NA,NA,NA,NA
6z8NgQB6,3fk4g712o0duz4m7qhicsa7sfszsso,352ythgrozqouu4agofxfdgcwdlh4a,6z8NgQB6,2020-0188,2021-10-31,06:16:35,08:17:45,NA,incomplete,false,true,NA,NA,2,3,NA,yellow,n_s_078.jpg,NA,NA,NA,NA,NA,pleasant,unpleasant,NA,NA,NA,NA,NA,right,1432.90000000596,true,NA,NA,NA,NA,NA,NA,NA,NA
6z8NgQB6,3fk4g712o0duz4m7qhicsa7sfszsso,352ythgrozqouu4agofxfdgcwdlh4a,6z8NgQB6,2020-0188,2021-10-31,06:16:35,08:17:45,NA,incomplete,false,true,NA,NA,2,4,NA,yellow,n_l_043.jpg,NA,NA,NA,NA,NA,pleasant,unpleasant,NA,NA,NA,NA,NA,left,1575.10000002384,true,NA,NA,NA,NA,NA,NA,NA,NA
6z8NgQB6,3fk4g712o0duz4m7qhicsa7sfszsso,352ythgrozqouu4agofxfdgcwdlh4a,6z8NgQB6,2020-0188,2021-10-31,06:16:35,08:17:45,NA,incomplete,false,true,NA,NA,2,5,NA,yellow,n_l_046.jpg,NA,NA,NA,NA,NA,unpleasant,pleasant,NA,NA,NA,NA,NA,left,1131.60000002384,true,NA,NA,NA,NA,NA,NA,NA,NA
6z8NgQB6,3fk4g712o0duz4m7qhicsa7sfszsso,352ythgrozqouu4agofxfdgcwdlh4a,6z8NgQB6,2020-0188,2021-10-31,06:16:35,08:17:45,NA,incomplete,false,true,NA,NA,2,6,NA,red,m_l_105.jpg,NA,NA,NA,NA,NA,pleasant,unpleasant,NA,NA,NA,NA,NA,left,1081.59999999404,true,NA,NA,NA,NA,NA,NA,NA,NA
6z8NgQB6,3fk4g712o0duz4m7qhicsa7sfszsso,352ythgrozqouu4agofxfdgcwdlh4a,6z8NgQB6,2020-0188,2021-10-31,06:16:35,08:17:45,NA,incomplete,false,true,NA,NA,2,7,NA,red,m_l_029.jpg,NA,NA,NA,NA,NA,pleasant,unpleasant,NA,NA,NA,NA,NA,left,689.800000011921,true,NA,NA,NA,NA,NA,NA,NA,NA
6z8NgQB6,3fk4g712o0duz4m7qhicsa7sfszsso,352ythgrozqouu4agofxfdgcwdlh4a,6z8NgQB6,2020-0188,2021-10-31,06:16:35,08:17:45,NA,incomplete,false,true,NA,NA,2,8,NA,red,n_l_091.jpg,NA,NA,NA,NA,NA,unpleasant,pleasant,NA,NA,NA,NA,NA,left,758.5,true,NA,NA,NA,NA,NA,NA,NA,NA
6z8NgQB6,3fk4g712o0duz4m7qhicsa7sfszsso,352ythgrozqouu4agofxfdgcwdlh4a,6z8NgQB6,2020-0188,2021-10-31,06:16:35,08:17:45,NA,incomplete,false,true,NA,NA,2,9,NA,red,m_s_002.jpg,NA,NA,NA,NA,NA,unpleasant,pleasant,NA,NA,NA,NA,NA,left,912.199999988079,true,NA,NA,NA,NA,NA,NA,NA,NA
6z8NgQB6,3fk4g712o0duz4m7qhicsa7sfszsso,352ythgrozqouu4agofxfdgcwdlh4a,6z8NgQB6,2020-0188,2021-10-31,06:16:35,08:17:45,NA,incomplete,false,true,NA,NA,2,10,NA,red,n_s_100.jpg,NA,NA,NA,NA,NA,unpleasant,pleasant,NA,NA,NA,NA,NA,left,1114.5,true,NA,NA,NA,NA,NA,NA,NA,NA
6z8NgQB6,3fk4g712o0duz4m7qhicsa7sfszsso,352ythgrozqouu4agofxfdgcwdlh4a,6z8NgQB6,2020-0188,2021-10-31,06:16:35,08:17:45,NA,incomplete,false,true,NA,NA,2,11,NA,red,m_s_092.jpg,NA,NA,NA,NA,NA,unpleasant,pleasant,NA,NA,NA,NA,NA,left,784.199999988079,true,NA,NA,NA,NA,NA,NA,NA,NA
6z8NgQB6,3fk4g712o0duz4m7qhicsa7sfszsso,352ythgrozqouu4agofxfdgcwdlh4a,6z8NgQB6,2020-0188,2021-10-31,06:16:35,08:17:45,NA,incomplete,false,true,NA,NA,2,12,NA,white,n_l_053.jpg,NA,NA,NA,NA,NA,unpleasant,pleasant,NA,NA,NA,NA,NA,left,836.800000011921,true,NA,NA,NA,NA,NA,NA,NA,NA
6z8NgQB6,3fk4g712o0duz4m7qhicsa7sfszsso,352ythgrozqouu4agofxfdgcwdlh4a,6z8NgQB6,2020-0188,2021-10-31,06:16:35,08:17:45,NA,incomplete,false,true,NA,NA,2,13,NA,white,m_s_041.jpg,NA,NA,NA,NA,NA,pleasant,unpleasant,NA,NA,NA,NA,NA,right,952.399999976158,true,NA,NA,NA,NA,NA,NA,NA,NA
6z8NgQB6,3fk4g712o0duz4m7qhicsa7sfszsso,352ythgrozqouu4agofxfdgcwdlh4a,6z8NgQB6,2020-0188,2021-10-31,06:16:35,08:17:45,NA,incomplete,false,true,NA,NA,2,14,NA,white,m_s_024.jpg,NA,NA,NA,NA,NA,unpleasant,pleasant,NA,NA,NA,NA,NA,left,718.90000000596,true,NA,NA,NA,NA,NA,NA,NA,NA
6z8NgQB6,3fk4g712o0duz4m7qhicsa7sfszsso,352ythgrozqouu4agofxfdgcwdlh4a,6z8NgQB6,2020-0188,2021-10-31,06:16:35,08:17:45,NA,incomplete,false,true,NA,NA,2,15,NA,white,m_l_035.jpg,NA,NA,NA,NA,NA,pleasant,unpleasant,NA,NA,NA,NA,NA,left,798.600000023842,true,NA,NA,NA,NA,NA,NA,NA,NA
6z8NgQB6,3fk4g712o0duz4m7qhicsa7sfszsso,352ythgrozqouu4agofxfdgcwdlh4a,6z8NgQB6,2020-0188,2021-10-31,06:16:35,08:17:45,NA,incomplete,false,true,NA,NA,2,16,NA,white,n_l_045.jpg,NA,NA,NA,NA,NA,unpleasant,pleasant,NA,NA,NA,NA,NA,left,701.700000017881,true,NA,NA,NA,NA,NA,NA,NA,NA
6z8NgQB6,3fk4g712o0duz4m7qhicsa7sfszsso,352ythgrozqouu4agofxfdgcwdlh4a,6z8NgQB6,2020-0188,2021-10-31,06:16:35,08:17:45,NA,incomplete,false,true,NA,NA,2,17,NA,white,m_s_030.jpg,NA,NA,NA,NA,NA,pleasant,unpleasant,NA,NA,NA,NA,NA,right,953.59999999404,true,NA,NA,NA,NA,NA,NA,NA,NA
6z8NgQB6,3fk4g712o0duz4m7qhicsa7sfszsso,352ythgrozqouu4agofxfdgcwdlh4a,6z8NgQB6,2020-0188,2021-10-31,06:16:35,08:17:45,NA,incomplete,false,true,NA,NA,2,18,NA,orange,n_s_065.jpg,NA,NA,NA,NA,NA,pleasant,unpleasant,NA,NA,NA,NA,NA,right,781.199999988079,true,NA,NA,NA,NA,NA,NA,NA,NA
6z8NgQB6,3fk4g712o0duz4m7qhicsa7sfszsso,352ythgrozqouu4agofxfdgcwdlh4a,6z8NgQB6,2020-0188,2021-10-31,06:16:35,08:17:45,NA,incomplete,false,true,NA,NA,2,19,NA,orange,n_l_034.jpg,NA,NA,NA,NA,NA,unpleasant,pleasant,NA,NA,NA,NA,NA,right,1246.40000000596,true,NA,NA,NA,NA,NA,NA,NA,NA
6z8NgQB6,3fk4g712o0duz4m7qhicsa7sfszsso,352ythgrozqouu4agofxfdgcwdlh4a,6z8NgQB6,2020-0188,2021-10-31,06:16:35,08:17:45,NA,incomplete,false,true,NA,NA,2,20,NA,orange,m_s_091.jpg,NA,NA,NA,NA,NA,pleasant,unpleasant,NA,NA,NA,NA,NA,right,1547.5,true,NA,NA,NA,NA,NA,NA,NA,NA
6z8NgQB6,3fk4g712o0duz4m7qhicsa7sfszsso,352ythgrozqouu4agofxfdgcwdlh4a,6z8NgQB6,2020-0188,2021-10-31,06:16:35,08:17:45,NA,incomplete,false,true,NA,NA,2,21,NA,orange,n_s_012.jpg,NA,NA,NA,NA,NA,pleasant,unpleasant,NA,NA,NA,NA,NA,left,862.59999999404,true,NA,NA,NA,NA,NA,NA,NA,NA
6z8NgQB6,3fk4g712o0duz4m7qhicsa7sfszsso,352ythgrozqouu4agofxfdgcwdlh4a,6z8NgQB6,2020-0188,2021-10-31,06:16:35,08:17:45,NA,incomplete,false,true,NA,NA,2,22,NA,orange,m_s_103.jpg,NA,NA,NA,NA,NA,unpleasant,pleasant,NA,NA,NA,NA,NA,right,1369.80000001192,true,NA,NA,NA,NA,NA,NA,NA,NA
6z8NgQB6,3fk4g712o0duz4m7qhicsa7sfszsso,352ythgrozqouu4agofxfdgcwdlh4a,6z8NgQB6,2020-0188,2021-10-31,06:16:35,08:17:45,NA,incomplete,false,true,NA,NA,2,23,NA,orange,m_s_082.jpg,NA,NA,NA,NA,NA,unpleasant,pleasant,NA,NA,NA,NA,NA,right,1601.29999998212,true,NA,NA,NA,NA,NA,NA,NA,NA
6z8NgQB6,3fk4g712o0duz4m7qhicsa7sfszsso,352ythgrozqouu4agofxfdgcwdlh4a,6z8NgQB6,2020-0188,2021-10-31,06:16:35,08:17:45,NA,incomplete,false,true,NA,NA,2,24,NA,green,m_s_055.jpg,NA,NA,NA,NA,NA,unpleasant,pleasant,NA,NA,NA,NA,NA,right,1117.59999999404,true,NA,NA,NA,NA,NA,NA,NA,NA
6z8NgQB6,3fk4g712o0duz4m7qhicsa7sfszsso,352ythgrozqouu4agofxfdgcwdlh4a,6z8NgQB6,2020-0188,2021-10-31,06:16:35,08:17:45,NA,incomplete,false,true,NA,NA,2,25,NA,green,m_s_035.jpg,NA,NA,NA,NA,NA,unpleasant,pleasant,NA,NA,NA,NA,NA,left,852.40000000596,true,NA,NA,NA,NA,NA,NA,NA,NA
6z8NgQB6,3fk4g712o0duz4m7qhicsa7sfszsso,352ythgrozqouu4agofxfdgcwdlh4a,6z8NgQB6,2020-0188,2021-10-31,06:16:35,08:17:45,NA,incomplete,false,true,NA,NA,2,26,NA,green,m_s_007.jpg,NA,NA,NA,NA,NA,unpleasant,pleasant,NA,NA,NA,NA,NA,right,1131.70000001788,true,NA,NA,NA,NA,NA,NA,NA,NA
6z8NgQB6,3fk4g712o0duz4m7qhicsa7sfszsso,352ythgrozqouu4agofxfdgcwdlh4a,6z8NgQB6,2020-0188,2021-10-31,06:16:35,08:17:45,NA,incomplete,false,true,NA,NA,2,27,NA,green,n_s_021.jpg,NA,NA,NA,NA,NA,unpleasant,pleasant,NA,NA,NA,NA,NA,left,1151.59999999404,true,NA,NA,NA,NA,NA,NA,NA,NA
6z8NgQB6,3fk4g712o0duz4m7qhicsa7sfszsso,352ythgrozqouu4agofxfdgcwdlh4a,6z8NgQB6,2020-0188,2021-10-31,06:16:35,08:17:45,NA,incomplete,false,true,NA,NA,2,28,NA,green,m_s_104.jpg,NA,NA,NA,NA,NA,unpleasant,pleasant,NA,NA,NA,NA,NA,left,976.5,true,NA,NA,NA,NA,NA,NA,NA,NA
6z8NgQB6,3fk4g712o0duz4m7qhicsa7sfszsso,352ythgrozqouu4agofxfdgcwdlh4a,6z8NgQB6,2020-0188,2021-10-31,06:16:35,08:17:45,NA,incomplete,false,true,NA,NA,2,29,NA,green,n_s_023.jpg,NA,NA,NA,NA,NA,pleasant,unpleasant,NA,NA,NA,NA,NA,left,950.90000000596,true,NA,NA,NA,NA,NA,NA,NA,NA
6z8NgQB6,3fk4g712o0duz4m7qhicsa7sfszsso,352ythgrozqouu4agofxfdgcwdlh4a,6z8NgQB6,2020-0188,2021-10-31,06:16:35,08:17:45,NA,incomplete,false,true,NA,NA,2,30,NA,purple,n_s_001.jpg,NA,NA,NA,NA,NA,pleasant,unpleasant,NA,NA,NA,NA,NA,left,1225.59999999404,true,NA,NA,NA,NA,NA,NA,NA,NA
6z8NgQB6,3fk4g712o0duz4m7qhicsa7sfszsso,352ythgrozqouu4agofxfdgcwdlh4a,6z8NgQB6,2020-0188,2021-10-31,06:16:35,08:17:45,NA,incomplete,false,true,NA,NA,2,31,NA,purple,n_l_006.jpg,NA,NA,NA,NA,NA,unpleasant,pleasant,NA,NA,NA,NA,NA,left,746.699999988079,true,NA,NA,NA,NA,NA,NA,NA,NA
6z8NgQB6,3fk4g712o0duz4m7qhicsa7sfszsso,352ythgrozqouu4agofxfdgcwdlh4a,6z8NgQB6,2020-0188,2021-10-31,06:16:35,08:17:45,NA,incomplete,false,true,NA,NA,2,32,NA,purple,m_s_011.jpg,NA,NA,NA,NA,NA,pleasant,unpleasant,NA,NA,NA,NA,NA,left,851.90000000596,true,NA,NA,NA,NA,NA,NA,NA,NA
6z8NgQB6,3fk4g712o0duz4m7qhicsa7sfszsso,352ythgrozqouu4agofxfdgcwdlh4a,6z8NgQB6,2020-0188,2021-10-31,06:16:35,08:17:45,NA,incomplete,false,true,NA,NA,2,33,NA,purple,n_s_070.jpg,NA,NA,NA,NA,NA,pleasant,unpleasant,NA,NA,NA,NA,NA,left,1212.40000000596,true,NA,NA,NA,NA,NA,NA,NA,NA
6z8NgQB6,3fk4g712o0duz4m7qhicsa7sfszsso,352ythgrozqouu4agofxfdgcwdlh4a,6z8NgQB6,2020-0188,2021-10-31,06:16:35,08:17:45,NA,incomplete,false,true,NA,NA,2,34,NA,purple,n_l_060.jpg,NA,NA,NA,NA,NA,unpleasant,pleasant,NA,NA,NA,NA,NA,left,2141.40000000596,true,NA,NA,NA,NA,NA,NA,NA,NA
6z8NgQB6,3fk4g712o0duz4m7qhicsa7sfszsso,352ythgrozqouu4agofxfdgcwdlh4a,6z8NgQB6,2020-0188,2021-10-31,06:16:35,08:17:45,NA,incomplete,false,true,NA,NA,2,35,NA,purple,m_s_004.jpg,NA,NA,NA,NA,NA,pleasant,unpleasant,NA,NA,NA,NA,NA,right,970,true,NA,NA,NA,NA,NA,NA,NA,NA
6z8NgQB6,3fk4g712o0duz4m7qhicsa7sfszsso,352ythgrozqouu4agofxfdgcwdlh4a,6z8NgQB6,2020-0188,2021-10-31,06:16:35,08:17:45,NA,incomplete,false,NA,NA,true,2,0,NA,NA,NA,left,m_s_011.jpg,purple,green,NA,NA,NA,NA,NA,NA,NA,NA,NA,NaN,NA,5149.799999982119,left,1,NA,NA,NA,NA,NA
6z8NgQB6,3fk4g712o0duz4m7qhicsa7sfszsso,352ythgrozqouu4agofxfdgcwdlh4a,6z8NgQB6,2020-0188,2021-10-31,06:16:35,08:17:45,NA,incomplete,false,NA,NA,true,2,1,NA,NA,NA,right,n_l_045.jpg,orange,white,NA,NA,NA,NA,NA,NA,NA,NA,NA,NaN,NA,9863.300000011921,right,1,NA,NA,NA,NA,NA
6z8NgQB6,3fk4g712o0duz4m7qhicsa7sfszsso,352ythgrozqouu4agofxfdgcwdlh4a,6z8NgQB6,2020-0188,2021-10-31,06:16:35,08:17:45,NA,incomplete,false,NA,NA,true,2,2,NA,NA,NA,right,n_s_023.jpg,purple,green,NA,NA,NA,NA,NA,NA,NA,NA,NA,NaN,NA,3788.699999988079,right,1,NA,NA,NA,NA,NA
6z8NgQB6,3fk4g712o0duz4m7qhicsa7sfszsso,352ythgrozqouu4agofxfdgcwdlh4a,6z8NgQB6,2020-0188,2021-10-31,06:16:35,08:17:45,NA,incomplete,false,NA,NA,true,2,3,NA,NA,NA,left,m_s_030.jpg,white,orange,NA,NA,NA,NA,NA,NA,NA,NA,NA,NaN,NA,2100.2000000178814,left,1,NA,NA,NA,NA,NA
6z8NgQB6,3fk4g712o0duz4m7qhicsa7sfszsso,352ythgrozqouu4agofxfdgcwdlh4a,6z8NgQB6,2020-0188,2021-10-31,06:16:35,08:17:45,NA,incomplete,false,NA,NA,true,2,4,NA,NA,NA,left,m_s_082.jpg,orange,green,NA,NA,NA,NA,NA,NA,NA,NA,NA,NaN,NA,3104.9000000059605,left,1,NA,NA,NA,NA,NA
6z8NgQB6,3fk4g712o0duz4m7qhicsa7sfszsso,352ythgrozqouu4agofxfdgcwdlh4a,6z8NgQB6,2020-0188,2021-10-31,06:16:35,08:17:45,NA,incomplete,false,NA,NA,true,2,5,NA,NA,NA,right,n_l_064.jpg,red,yellow,NA,NA,NA,NA,NA,NA,NA,NA,NA,NaN,NA,2013.5999999940395,left,0,NA,NA,NA,NA,NA
6z8NgQB6,3fk4g712o0duz4m7qhicsa7sfszsso,352ythgrozqouu4agofxfdgcwdlh4a,6z8NgQB6,2020-0188,2021-10-31,06:16:35,08:17:45,NA,incomplete,false,NA,NA,true,2,6,NA,NA,NA,left,n_l_043.jpg,yellow,red,NA,NA,NA,NA,NA,NA,NA,NA,NA,NaN,NA,17908.30000001192,left,1,NA,NA,NA,NA,NA
6z8NgQB6,3fk4g712o0duz4m7qhicsa7sfszsso,352ythgrozqouu4agofxfdgcwdlh4a,6z8NgQB6,2020-0188,2021-10-31,06:16:35,08:17:45,NA,incomplete,false,NA,NA,true,2,7,NA,NA,NA,right,m_s_104.jpg,purple,green,NA,NA,NA,NA,NA,NA,NA,NA,NA,NaN,NA,16873.69999998808,right,1,NA,NA,NA,NA,NA
6z8NgQB6,3fk4g712o0duz4m7qhicsa7sfszsso,352ythgrozqouu4agofxfdgcwdlh4a,6z8NgQB6,2020-0188,2021-10-31,06:16:35,08:17:45,NA,incomplete,false,NA,NA,true,2,8,NA,NA,NA,right,m_s_007.jpg,orange,green,NA,NA,NA,NA,NA,NA,NA,NA,NA,NaN,NA,1931.5999999940395,right,1,NA,NA,NA,NA,NA
6z8NgQB6,3fk4g712o0duz4m7qhicsa7sfszsso,352ythgrozqouu4agofxfdgcwdlh4a,6z8NgQB6,2020-0188,2021-10-31,06:16:35,08:17:45,NA,incomplete,false,NA,NA,true,2,9,NA,NA,NA,left,m_l_029.jpg,red,yellow,NA,NA,NA,NA,NA,NA,NA,NA,NA,NaN,NA,14337.40000000596,left,1,NA,NA,NA,NA,NA
6z8NgQB6,3fk4g712o0duz4m7qhicsa7sfszsso,352ythgrozqouu4agofxfdgcwdlh4a,6z8NgQB6,2020-0188,2021-10-31,06:16:35,08:17:45,NA,incomplete,false,NA,NA,true,2,10,NA,NA,NA,right,n_l_046.jpg,red,yellow,NA,NA,NA,NA,NA,NA,NA,NA,NA,NaN,NA,3614.5,right,1,NA,NA,NA,NA,NA
6z8NgQB6,3fk4g712o0duz4m7qhicsa7sfszsso,352ythgrozqouu4agofxfdgcwdlh4a,6z8NgQB6,2020-0188,2021-10-31,06:16:35,08:17:45,NA,incomplete,false,NA,NA,true,2,11,NA,NA,NA,right,m_s_091.jpg,green,orange,NA,NA,NA,NA,NA,NA,NA,NA,NA,NaN,NA,6766.5999999940395,left,0,NA,NA,NA,NA,NA
6z8NgQB6,3fk4g712o0duz4m7qhicsa7sfszsso,352ythgrozqouu4agofxfdgcwdlh4a,6z8NgQB6,2020-0188,2021-10-31,06:16:35,08:17:45,NA,incomplete,false,NA,NA,true,2,12,NA,NA,NA,right,n_l_034.jpg,white,orange,NA,NA,NA,NA,NA,NA,NA,NA,NA,NaN,NA,8792.90000000596,right,1,NA,NA,NA,NA,NA
6z8NgQB6,3fk4g712o0duz4m7qhicsa7sfszsso,352ythgrozqouu4agofxfdgcwdlh4a,6z8NgQB6,2020-0188,2021-10-31,06:16:35,08:17:45,NA,incomplete,false,NA,NA,true,2,13,NA,NA,NA,left,m_s_041.jpg,white,orange,NA,NA,NA,NA,NA,NA,NA,NA,NA,NaN,NA,4284.4000000059605,left,1,NA,NA,NA,NA,NA
6z8NgQB6,3fk4g712o0duz4m7qhicsa7sfszsso,352ythgrozqouu4agofxfdgcwdlh4a,6z8NgQB6,2020-0188,2021-10-31,06:16:35,08:17:45,NA,incomplete,false,NA,NA,true,2,14,NA,NA,NA,right,n_s_100.jpg,yellow,red,NA,NA,NA,NA,NA,NA,NA,NA,NA,NaN,NA,4415.800000011921,right,1,NA,NA,NA,NA,NA
6z8NgQB6,3fk4g712o0duz4m7qhicsa7sfszsso,352ythgrozqouu4agofxfdgcwdlh4a,6z8NgQB6,2020-0188,2021-10-31,06:16:35,08:17:45,NA,incomplete,false,NA,NA,true,2,15,NA,NA,NA,right,m_s_092.jpg,yellow,red,NA,NA,NA,NA,NA,NA,NA,NA,NA,NaN,NA,15302.5,right,1,NA,NA,NA,NA,NA
6z8NgQB6,3fk4g712o0duz4m7qhicsa7sfszsso,352ythgrozqouu4agofxfdgcwdlh4a,6z8NgQB6,2020-0188,2021-10-31,06:16:35,08:17:45,NA,incomplete,false,NA,NA,true,2,16,NA,NA,NA,right,n_l_091.jpg,white,red,NA,NA,NA,NA,NA,NA,NA,NA,NA,NaN,NA,4900.300000011921,right,1,NA,NA,NA,NA,NA
6z8NgQB6,3fk4g712o0duz4m7qhicsa7sfszsso,352ythgrozqouu4agofxfdgcwdlh4a,6z8NgQB6,2020-0188,2021-10-31,06:16:35,08:17:45,NA,incomplete,false,NA,NA,true,2,17,NA,NA,NA,right,m_s_004.jpg,green,purple,NA,NA,NA,NA,NA,NA,NA,NA,NA,NaN,NA,4850.5,right,1,NA,NA,NA,NA,NA
6z8NgQB6,3fk4g712o0duz4m7qhicsa7sfszsso,352ythgrozqouu4agofxfdgcwdlh4a,6z8NgQB6,2020-0188,2021-10-31,06:16:35,08:17:45,NA,incomplete,false,NA,NA,true,2,18,NA,NA,NA,left,n_l_006.jpg,purple,green,NA,NA,NA,NA,NA,NA,NA,NA,NA,NaN,NA,6447.9000000059605,left,1,NA,NA,NA,NA,NA
6z8NgQB6,3fk4g712o0duz4m7qhicsa7sfszsso,352ythgrozqouu4agofxfdgcwdlh4a,6z8NgQB6,2020-0188,2021-10-31,06:16:35,08:17:45,NA,incomplete,false,NA,NA,true,2,19,NA,NA,NA,right,m_s_035.jpg,orange,green,NA,NA,NA,NA,NA,NA,NA,NA,NA,NaN,NA,9077.09999999404,right,1,NA,NA,NA,NA,NA
6z8NgQB6,3fk4g712o0duz4m7qhicsa7sfszsso,352ythgrozqouu4agofxfdgcwdlh4a,6z8NgQB6,2020-0188,2021-10-31,06:16:35,08:17:45,NA,incomplete,false,NA,NA,true,2,20,NA,NA,NA,left,m_s_103.jpg,orange,green,NA,NA,NA,NA,NA,NA,NA,NA,NA,NaN,NA,2127.300000011921,left,1,NA,NA,NA,NA,NA
6z8NgQB6,3fk4g712o0duz4m7qhicsa7sfszsso,352ythgrozqouu4agofxfdgcwdlh4a,6z8NgQB6,2020-0188,2021-10-31,06:16:35,08:17:45,NA,incomplete,false,NA,NA,true,2,21,NA,NA,NA,left,m_s_024.jpg,white,red,NA,NA,NA,NA,NA,NA,NA,NA,NA,NaN,NA,6042.5999999940395,left,1,NA,NA,NA,NA,NA
6z8NgQB6,3fk4g712o0duz4m7qhicsa7sfszsso,352ythgrozqouu4agofxfdgcwdlh4a,6z8NgQB6,2020-0188,2021-10-31,06:16:35,08:17:45,NA,incomplete,false,NA,true,NA,2,0,NA,NA,NA,right,NA,NA,NA,present,NA,NA,m_s_004.jpg,purple,n_l_006.jpg,purple,within,NA,NaN,NA,NA,NA,NA,right,14092,1,0,3778.2999999821186
6z8NgQB6,3fk4g712o0duz4m7qhicsa7sfszsso,352ythgrozqouu4agofxfdgcwdlh4a,6z8NgQB6,2020-0188,2021-10-31,06:16:35,08:17:45,NA,incomplete,false,NA,true,NA,2,1,NA,NA,NA,right,NA,NA,NA,present,NA,NA,m_s_082.jpg,orange,n_l_034.jpg,orange,within,NA,NaN,NA,NA,NA,NA,left,4091.899999976158,0,0,1325.199999988079
6z8NgQB6,3fk4g712o0duz4m7qhicsa7sfszsso,352ythgrozqouu4agofxfdgcwdlh4a,6z8NgQB6,2020-0188,2021-10-31,06:16:35,08:17:45,NA,incomplete,false,NA,true,NA,2,2,NA,NA,NA,right,NA,NA,NA,present,NA,NA,m_s_091.jpg,orange,n_l_045.jpg,white,between,NA,NaN,NA,NA,NA,NA,right,8483.40000000596,1,2,2283.5
6z8NgQB6,3fk4g712o0duz4m7qhicsa7sfszsso,352ythgrozqouu4agofxfdgcwdlh4a,6z8NgQB6,2020-0188,2021-10-31,06:16:35,08:17:45,NA,incomplete,false,NA,true,NA,2,3,NA,NA,NA,left,NA,NA,NA,present,NA,NA,m_s_041.jpg,white,m_s_030.jpg,white,within,NA,NaN,NA,NA,NA,NA,left,28109.80000001192,1,0,3437.300000011921
6z8NgQB6,3fk4g712o0duz4m7qhicsa7sfszsso,352ythgrozqouu4agofxfdgcwdlh4a,6z8NgQB6,2020-0188,2021-10-31,06:16:35,08:17:45,NA,incomplete,false,NA,true,NA,2,4,NA,NA,NA,left,NA,NA,NA,present,NA,NA,m_s_104.jpg,green,m_s_011.jpg,purple,between,NA,NaN,NA,NA,NA,NA,left,9909.699999988079,1,2,15950.799999982119
6z8NgQB6,3fk4g712o0duz4m7qhicsa7sfszsso,352ythgrozqouu4agofxfdgcwdlh4a,6z8NgQB6,2020-0188,2021-10-31,06:16:35,08:17:45,NA,incomplete,false,NA,true,NA,2,5,NA,NA,NA,right,NA,NA,NA,present,NA,NA,m_s_092.jpg,red,m_l_029.jpg,red,within,NA,NaN,NA,NA,NA,NA,right,12839,1,1,9705.300000011921
6z8NgQB6,3fk4g712o0duz4m7qhicsa7sfszsso,352ythgrozqouu4agofxfdgcwdlh4a,6z8NgQB6,2020-0188,2021-10-31,06:16:35,08:17:45,NA,incomplete,false,NA,true,NA,2,6,NA,NA,NA,right,NA,NA,NA,present,NA,NA,n_l_091.jpg,red,n_l_043.jpg,yellow,between,NA,NaN,NA,NA,NA,NA,right,5847.5,1,1,16448
6z8NgQB6,3fk4g712o0duz4m7qhicsa7sfszsso,352ythgrozqouu4agofxfdgcwdlh4a,6z8NgQB6,2020-0188,2021-10-31,06:16:35,08:17:45,NA,incomplete,false,NA,true,NA,2,7,NA,NA,NA,right,NA,NA,NA,present,NA,NA,n_l_046.jpg,yellow,n_l_064.jpg,yellow,within,NA,NaN,NA,NA,NA,NA,right,7962.4000000059605,1,1,7784.5999999940395
6z8NgQB6,3fk4g712o0duz4m7qhicsa7sfszsso,352ythgrozqouu4agofxfdgcwdlh4a,6z8NgQB6,2020-0188,2021-10-31,06:16:35,08:17:45,NA,incomplete,false,NA,true,NA,2,8,NA,NA,NA,left,NA,NA,NA,present,NA,NA,m_s_035.jpg,green,n_s_023.jpg,green,within,NA,NaN,NA,NA,NA,NA,left,13640.5,1,0,12377.5
6z8NgQB6,3fk4g712o0duz4m7qhicsa7sfszsso,352ythgrozqouu4agofxfdgcwdlh4a,6z8NgQB6,2020-0188,2021-10-31,06:16:35,08:17:45,NA,incomplete,false,NA,true,NA,2,9,NA,NA,NA,right,NA,NA,NA,present,NA,NA,m_s_024.jpg,white,n_s_100.jpg,red,between,NA,NaN,NA,NA,NA,NA,right,9477.300000011921,1,1,13774.299999982119
6z8NgQB6,3fk4g712o0duz4m7qhicsa7sfszsso,352ythgrozqouu4agofxfdgcwdlh4a,6z8NgQB6,2020-0188,2021-10-31,06:16:35,08:17:45,NA,incomplete,false,NA,true,NA,2,10,NA,NA,NA,right,NA,NA,NA,present,NA,NA,m_s_007.jpg,green,m_s_103.jpg,orange,between,NA,NaN,NA,NA,NA,NA,right,23247.59999999404,1,1,1631.4000000059605
6z8NgQB6,3fk4g712o0duz4m7qhicsa7sfszsso,352ythgrozqouu4agofxfdgcwdlh4a,6z8NgQB6,2020-0188,2021-10-31,06:16:35,08:17:45,NA,incomplete,false,true,NA,NA,3,0,NA,brown,n_s_045.jpg,NA,NA,NA,NA,NA,pleasant,unpleasant,NA,NA,NA,NA,NA,left,1883,true,NA,NA,NA,NA,NA,NA,NA,NA
6z8NgQB6,3fk4g712o0duz4m7qhicsa7sfszsso,352ythgrozqouu4agofxfdgcwdlh4a,6z8NgQB6,2020-0188,2021-10-31,06:16:35,08:17:45,NA,incomplete,false,true,NA,NA,3,1,NA,brown,m_l_046.jpg,NA,NA,NA,NA,NA,pleasant,unpleasant,NA,NA,NA,NA,NA,left,1060.59999999404,true,NA,NA,NA,NA,NA,NA,NA,NA
6z8NgQB6,3fk4g712o0duz4m7qhicsa7sfszsso,352ythgrozqouu4agofxfdgcwdlh4a,6z8NgQB6,2020-0188,2021-10-31,06:16:35,08:17:45,NA,incomplete,false,true,NA,NA,3,2,NA,brown,n_s_066.jpg,NA,NA,NA,NA,NA,pleasant,unpleasant,NA,NA,NA,NA,NA,left,1221.19999998808,true,NA,NA,NA,NA,NA,NA,NA,NA
6z8NgQB6,3fk4g712o0duz4m7qhicsa7sfszsso,352ythgrozqouu4agofxfdgcwdlh4a,6z8NgQB6,2020-0188,2021-10-31,06:16:35,08:17:45,NA,incomplete,false,true,NA,NA,3,3,NA,brown,n_s_073.jpg,NA,NA,NA,NA,NA,unpleasant,pleasant,NA,NA,NA,NA,NA,right,1253.30000001192,true,NA,NA,NA,NA,NA,NA,NA,NA
6z8NgQB6,3fk4g712o0duz4m7qhicsa7sfszsso,352ythgrozqouu4agofxfdgcwdlh4a,6z8NgQB6,2020-0188,2021-10-31,06:16:35,08:17:45,NA,incomplete,false,true,NA,NA,3,4,NA,brown,n_s_107.jpg,NA,NA,NA,NA,NA,unpleasant,pleasant,NA,NA,NA,NA,NA,right,1410.90000000596,true,NA,NA,NA,NA,NA,NA,NA,NA
6z8NgQB6,3fk4g712o0duz4m7qhicsa7sfszsso,352ythgrozqouu4agofxfdgcwdlh4a,6z8NgQB6,2020-0188,2021-10-31,06:16:35,08:17:45,NA,incomplete,false,true,NA,NA,3,5,NA,brown,m_s_027.jpg,NA,NA,NA,NA,NA,pleasant,unpleasant,NA,NA,NA,NA,NA,right,1068.40000000596,true,NA,NA,NA,NA,NA,NA,NA,NA
6z8NgQB6,3fk4g712o0duz4m7qhicsa7sfszsso,352ythgrozqouu4agofxfdgcwdlh4a,6z8NgQB6,2020-0188,2021-10-31,06:16:35,08:17:45,NA,incomplete,false,true,NA,NA,3,6,NA,green,m_l_067.jpg,NA,NA,NA,NA,NA,pleasant,unpleasant,NA,NA,NA,NA,NA,left,1041.09999999404,true,NA,NA,NA,NA,NA,NA,NA,NA
6z8NgQB6,3fk4g712o0duz4m7qhicsa7sfszsso,352ythgrozqouu4agofxfdgcwdlh4a,6z8NgQB6,2020-0188,2021-10-31,06:16:35,08:17:45,NA,incomplete,false,true,NA,NA,3,7,NA,green,n_s_083.jpg,NA,NA,NA,NA,NA,unpleasant,pleasant,NA,NA,NA,NA,NA,left,1234.89999997616,true,NA,NA,NA,NA,NA,NA,NA,NA
6z8NgQB6,3fk4g712o0duz4m7qhicsa7sfszsso,352ythgrozqouu4agofxfdgcwdlh4a,6z8NgQB6,2020-0188,2021-10-31,06:16:35,08:17:45,NA,incomplete,false,true,NA,NA,3,8,NA,green,n_l_033.jpg,NA,NA,NA,NA,NA,pleasant,unpleasant,NA,NA,NA,NA,NA,right,1217.69999998808,true,NA,NA,NA,NA,NA,NA,NA,NA
6z8NgQB6,3fk4g712o0duz4m7qhicsa7sfszsso,352ythgrozqouu4agofxfdgcwdlh4a,6z8NgQB6,2020-0188,2021-10-31,06:16:35,08:17:45,NA,incomplete,false,true,NA,NA,3,9,NA,green,n_l_087.jpg,NA,NA,NA,NA,NA,pleasant,unpleasant,NA,NA,NA,NA,NA,left,916,true,NA,NA,NA,NA,NA,NA,NA,NA
6z8NgQB6,3fk4g712o0duz4m7qhicsa7sfszsso,352ythgrozqouu4agofxfdgcwdlh4a,6z8NgQB6,2020-0188,2021-10-31,06:16:35,08:17:45,NA,incomplete,false,true,NA,NA,3,10,NA,green,n_l_116.jpg,NA,NA,NA,NA,NA,unpleasant,pleasant,NA,NA,NA,NA,NA,left,1481.40000000596,true,NA,NA,NA,NA,NA,NA,NA,NA
6z8NgQB6,3fk4g712o0duz4m7qhicsa7sfszsso,352ythgrozqouu4agofxfdgcwdlh4a,6z8NgQB6,2020-0188,2021-10-31,06:16:35,08:17:45,NA,incomplete,false,true,NA,NA,3,11,NA,green,n_l_017.jpg,NA,NA,NA,NA,NA,pleasant,unpleasant,NA,NA,NA,NA,NA,left,1681.09999999404,true,NA,NA,NA,NA,NA,NA,NA,NA
6z8NgQB6,3fk4g712o0duz4m7qhicsa7sfszsso,352ythgrozqouu4agofxfdgcwdlh4a,6z8NgQB6,2020-0188,2021-10-31,06:16:35,08:17:45,NA,incomplete,false,true,NA,NA,3,12,NA,red,n_l_099.jpg,NA,NA,NA,NA,NA,pleasant,unpleasant,NA,NA,NA,NA,NA,left,2026.59999999404,true,NA,NA,NA,NA,NA,NA,NA,NA
6z8NgQB6,3fk4g712o0duz4m7qhicsa7sfszsso,352ythgrozqouu4agofxfdgcwdlh4a,6z8NgQB6,2020-0188,2021-10-31,06:16:35,08:17:45,NA,incomplete,false,true,NA,NA,3,13,NA,red,m_l_090.jpg,NA,NA,NA,NA,NA,unpleasant,pleasant,NA,NA,NA,NA,NA,left,1548.30000001192,true,NA,NA,NA,NA,NA,NA,NA,NA
6z8NgQB6,3fk4g712o0duz4m7qhicsa7sfszsso,352ythgrozqouu4agofxfdgcwdlh4a,6z8NgQB6,2020-0188,2021-10-31,06:16:35,08:17:45,NA,incomplete,false,true,NA,NA,3,14,NA,red,n_s_016.jpg,NA,NA,NA,NA,NA,unpleasant,pleasant,NA,NA,NA,NA,NA,left,1219.29999998212,true,NA,NA,NA,NA,NA,NA,NA,NA
6z8NgQB6,3fk4g712o0duz4m7qhicsa7sfszsso,352ythgrozqouu4agofxfdgcwdlh4a,6z8NgQB6,2020-0188,2021-10-31,06:16:35,08:17:45,NA,incomplete,false,true,NA,NA,3,15,NA,red,m_l_042.jpg,NA,NA,NA,NA,NA,unpleasant,pleasant,NA,NA,NA,NA,NA,left,1418.19999998808,true,NA,NA,NA,NA,NA,NA,NA,NA
6z8NgQB6,3fk4g712o0duz4m7qhicsa7sfszsso,352ythgrozqouu4agofxfdgcwdlh4a,6z8NgQB6,2020-0188,2021-10-31,06:16:35,08:17:45,NA,incomplete,false,true,NA,NA,3,16,NA,red,m_l_032.jpg,NA,NA,NA,NA,NA,unpleasant,pleasant,NA,NA,NA,NA,NA,left,1029,true,NA,NA,NA,NA,NA,NA,NA,NA
6z8NgQB6,3fk4g712o0duz4m7qhicsa7sfszsso,352ythgrozqouu4agofxfdgcwdlh4a,6z8NgQB6,2020-0188,2021-10-31,06:16:35,08:17:45,NA,incomplete,false,true,NA,NA,3,17,NA,red,m_s_095.jpg,NA,NA,NA,NA,NA,pleasant,unpleasant,NA,NA,NA,NA,NA,left,1024,true,NA,NA,NA,NA,NA,NA,NA,NA
6z8NgQB6,3fk4g712o0duz4m7qhicsa7sfszsso,352ythgrozqouu4agofxfdgcwdlh4a,6z8NgQB6,2020-0188,2021-10-31,06:16:35,08:17:45,NA,incomplete,false,true,NA,NA,3,18,NA,purple,m_s_060.jpg,NA,NA,NA,NA,NA,pleasant,unpleasant,NA,NA,NA,NA,NA,left,1425.59999999404,true,NA,NA,NA,NA,NA,NA,NA,NA
6z8NgQB6,3fk4g712o0duz4m7qhicsa7sfszsso,352ythgrozqouu4agofxfdgcwdlh4a,6z8NgQB6,2020-0188,2021-10-31,06:16:35,08:17:45,NA,incomplete,false,true,NA,NA,3,19,NA,purple,m_l_012.jpg,NA,NA,NA,NA,NA,unpleasant,pleasant,NA,NA,NA,NA,NA,right,1312.5,true,NA,NA,NA,NA,NA,NA,NA,NA
6z8NgQB6,3fk4g712o0duz4m7qhicsa7sfszsso,352ythgrozqouu4agofxfdgcwdlh4a,6z8NgQB6,2020-0188,2021-10-31,06:16:35,08:17:45,NA,incomplete,false,true,NA,NA,3,20,NA,purple,m_s_076.jpg,NA,NA,NA,NA,NA,unpleasant,pleasant,NA,NA,NA,NA,NA,right,1269.69999998808,true,NA,NA,NA,NA,NA,NA,NA,NA
6z8NgQB6,3fk4g712o0duz4m7qhicsa7sfszsso,352ythgrozqouu4agofxfdgcwdlh4a,6z8NgQB6,2020-0188,2021-10-31,06:16:35,08:17:45,NA,incomplete,false,true,NA,NA,3,21,NA,purple,m_l_023.jpg,NA,NA,NA,NA,NA,pleasant,unpleasant,NA,NA,NA,NA,NA,left,1158.29999998212,true,NA,NA,NA,NA,NA,NA,NA,NA
6z8NgQB6,3fk4g712o0duz4m7qhicsa7sfszsso,352ythgrozqouu4agofxfdgcwdlh4a,6z8NgQB6,2020-0188,2021-10-31,06:16:35,08:17:45,NA,incomplete,false,true,NA,NA,3,22,NA,purple,m_s_075.jpg,NA,NA,NA,NA,NA,pleasant,unpleasant,NA,NA,NA,NA,NA,right,1271.20000001788,true,NA,NA,NA,NA,NA,NA,NA,NA
6z8NgQB6,3fk4g712o0duz4m7qhicsa7sfszsso,352ythgrozqouu4agofxfdgcwdlh4a,6z8NgQB6,2020-0188,2021-10-31,06:16:35,08:17:45,NA,incomplete,false,true,NA,NA,3,23,NA,purple,n_l_106.jpg,NA,NA,NA,NA,NA,unpleasant,pleasant,NA,NA,NA,NA,NA,left,1012.29999998212,true,NA,NA,NA,NA,NA,NA,NA,NA
6z8NgQB6,3fk4g712o0duz4m7qhicsa7sfszsso,352ythgrozqouu4agofxfdgcwdlh4a,6z8NgQB6,2020-0188,2021-10-31,06:16:35,08:17:45,NA,incomplete,false,true,NA,NA,3,24,NA,orange,m_l_004.jpg,NA,NA,NA,NA,NA,unpleasant,pleasant,NA,NA,NA,NA,NA,right,1164.30000001192,true,NA,NA,NA,NA,NA,NA,NA,NA
6z8NgQB6,3fk4g712o0duz4m7qhicsa7sfszsso,352ythgrozqouu4agofxfdgcwdlh4a,6z8NgQB6,2020-0188,2021-10-31,06:16:35,08:17:45,NA,incomplete,false,true,NA,NA,3,25,NA,orange,n_s_088.jpg,NA,NA,NA,NA,NA,unpleasant,pleasant,NA,NA,NA,NA,NA,left,1369.69999998808,true,NA,NA,NA,NA,NA,NA,NA,NA
6z8NgQB6,3fk4g712o0duz4m7qhicsa7sfszsso,352ythgrozqouu4agofxfdgcwdlh4a,6z8NgQB6,2020-0188,2021-10-31,06:16:35,08:17:45,NA,incomplete,false,true,NA,NA,3,26,NA,orange,m_l_092.jpg,NA,NA,NA,NA,NA,unpleasant,pleasant,NA,NA,NA,NA,NA,left,1312.29999998212,true,NA,NA,NA,NA,NA,NA,NA,NA
6z8NgQB6,3fk4g712o0duz4m7qhicsa7sfszsso,352ythgrozqouu4agofxfdgcwdlh4a,6z8NgQB6,2020-0188,2021-10-31,06:16:35,08:17:45,NA,incomplete,false,true,NA,NA,3,27,NA,orange,m_l_056.jpg,NA,NA,NA,NA,NA,unpleasant,pleasant,NA,NA,NA,NA,NA,left,833.700000017881,true,NA,NA,NA,NA,NA,NA,NA,NA
6z8NgQB6,3fk4g712o0duz4m7qhicsa7sfszsso,352ythgrozqouu4agofxfdgcwdlh4a,6z8NgQB6,2020-0188,2021-10-31,06:16:35,08:17:45,NA,incomplete,false,true,NA,NA,3,28,NA,orange,m_l_008.jpg,NA,NA,NA,NA,NA,unpleasant,pleasant,NA,NA,NA,NA,NA,left,739.800000011921,true,NA,NA,NA,NA,NA,NA,NA,NA
6z8NgQB6,3fk4g712o0duz4m7qhicsa7sfszsso,352ythgrozqouu4agofxfdgcwdlh4a,6z8NgQB6,2020-0188,2021-10-31,06:16:35,08:17:45,NA,incomplete,false,true,NA,NA,3,29,NA,orange,n_l_048.jpg,NA,NA,NA,NA,NA,unpleasant,pleasant,NA,NA,NA,NA,NA,left,787.40000000596,true,NA,NA,NA,NA,NA,NA,NA,NA
6z8NgQB6,3fk4g712o0duz4m7qhicsa7sfszsso,352ythgrozqouu4agofxfdgcwdlh4a,6z8NgQB6,2020-0188,2021-10-31,06:16:35,08:17:45,NA,incomplete,false,true,NA,NA,3,30,NA,gray,n_l_085.jpg,NA,NA,NA,NA,NA,pleasant,unpleasant,NA,NA,NA,NA,NA,left,859.800000011921,true,NA,NA,NA,NA,NA,NA,NA,NA
6z8NgQB6,3fk4g712o0duz4m7qhicsa7sfszsso,352ythgrozqouu4agofxfdgcwdlh4a,6z8NgQB6,2020-0188,2021-10-31,06:16:35,08:17:45,NA,incomplete,false,true,NA,NA,3,31,NA,gray,n_l_031.jpg,NA,NA,NA,NA,NA,pleasant,unpleasant,NA,NA,NA,NA,NA,left,941.40000000596,true,NA,NA,NA,NA,NA,NA,NA,NA
6z8NgQB6,3fk4g712o0duz4m7qhicsa7sfszsso,352ythgrozqouu4agofxfdgcwdlh4a,6z8NgQB6,2020-0188,2021-10-31,06:16:35,08:17:45,NA,incomplete,false,true,NA,NA,3,32,NA,gray,m_l_038.jpg,NA,NA,NA,NA,NA,pleasant,unpleasant,NA,NA,NA,NA,NA,right,979.09999999404,true,NA,NA,NA,NA,NA,NA,NA,NA
6z8NgQB6,3fk4g712o0duz4m7qhicsa7sfszsso,352ythgrozqouu4agofxfdgcwdlh4a,6z8NgQB6,2020-0188,2021-10-31,06:16:35,08:17:45,NA,incomplete,false,true,NA,NA,3,33,NA,gray,m_s_074.jpg,NA,NA,NA,NA,NA,unpleasant,pleasant,NA,NA,NA,NA,NA,left,1031,true,NA,NA,NA,NA,NA,NA,NA,NA
6z8NgQB6,3fk4g712o0duz4m7qhicsa7sfszsso,352ythgrozqouu4agofxfdgcwdlh4a,6z8NgQB6,2020-0188,2021-10-31,06:16:35,08:17:45,NA,incomplete,false,true,NA,NA,3,34,NA,gray,m_s_003.jpg,NA,NA,NA,NA,NA,pleasant,unpleasant,NA,NA,NA,NA,NA,right,1590.89999997616,true,NA,NA,NA,NA,NA,NA,NA,NA
6z8NgQB6,3fk4g712o0duz4m7qhicsa7sfszsso,352ythgrozqouu4agofxfdgcwdlh4a,6z8NgQB6,2020-0188,2021-10-31,06:16:35,08:17:45,NA,incomplete,false,true,NA,NA,3,35,NA,gray,n_l_007.jpg,NA,NA,NA,NA,NA,pleasant,unpleasant,NA,NA,NA,NA,NA,left,1079,true,NA,NA,NA,NA,NA,NA,NA,NA
6z8NgQB6,3fk4g712o0duz4m7qhicsa7sfszsso,352ythgrozqouu4agofxfdgcwdlh4a,6z8NgQB6,2020-0188,2021-10-31,06:16:35,08:17:45,NA,incomplete,false,NA,NA,true,3,0,NA,NA,NA,right,n_s_088.jpg,gray,orange,NA,NA,NA,NA,NA,NA,NA,NA,NA,NaN,NA,3783.100000023842,right,1,NA,NA,NA,NA,NA
6z8NgQB6,3fk4g712o0duz4m7qhicsa7sfszsso,352ythgrozqouu4agofxfdgcwdlh4a,6z8NgQB6,2020-0188,2021-10-31,06:16:35,08:17:45,NA,incomplete,false,NA,NA,true,3,1,NA,NA,NA,right,n_s_016.jpg,green,red,NA,NA,NA,NA,NA,NA,NA,NA,NA,NaN,NA,3169.5,right,1,NA,NA,NA,NA,NA
6z8NgQB6,3fk4g712o0duz4m7qhicsa7sfszsso,352ythgrozqouu4agofxfdgcwdlh4a,6z8NgQB6,2020-0188,2021-10-31,06:16:35,08:17:45,NA,incomplete,false,NA,NA,true,3,2,NA,NA,NA,left,m_l_090.jpg,red,green,NA,NA,NA,NA,NA,NA,NA,NA,NA,NaN,NA,2748.300000011921,left,1,NA,NA,NA,NA,NA
6z8NgQB6,3fk4g712o0duz4m7qhicsa7sfszsso,352ythgrozqouu4agofxfdgcwdlh4a,6z8NgQB6,2020-0188,2021-10-31,06:16:35,08:17:45,NA,incomplete,false,NA,NA,true,3,3,NA,NA,NA,right,m_s_076.jpg,red,purple,NA,NA,NA,NA,NA,NA,NA,NA,NA,NaN,NA,5558,left,0,NA,NA,NA,NA,NA
6z8NgQB6,3fk4g712o0duz4m7qhicsa7sfszsso,352ythgrozqouu4agofxfdgcwdlh4a,6z8NgQB6,2020-0188,2021-10-31,06:16:35,08:17:45,NA,incomplete,false,NA,NA,true,3,4,NA,NA,NA,right,n_l_017.jpg,red,green,NA,NA,NA,NA,NA,NA,NA,NA,NA,NaN,NA,10592.700000017881,right,1,NA,NA,NA,NA,NA
6z8NgQB6,3fk4g712o0duz4m7qhicsa7sfszsso,352ythgrozqouu4agofxfdgcwdlh4a,6z8NgQB6,2020-0188,2021-10-31,06:16:35,08:17:45,NA,incomplete,false,NA,NA,true,3,5,NA,NA,NA,left,n_l_031.jpg,gray,orange,NA,NA,NA,NA,NA,NA,NA,NA,NA,NaN,NA,2889.399999976158,right,0,NA,NA,NA,NA,NA
6z8NgQB6,3fk4g712o0duz4m7qhicsa7sfszsso,352ythgrozqouu4agofxfdgcwdlh4a,6z8NgQB6,2020-0188,2021-10-31,06:16:35,08:17:45,NA,incomplete,false,NA,NA,true,3,6,NA,NA,NA,left,n_l_048.jpg,orange,gray,NA,NA,NA,NA,NA,NA,NA,NA,NA,NaN,NA,3333,right,0,NA,NA,NA,NA,NA
6z8NgQB6,3fk4g712o0duz4m7qhicsa7sfszsso,352ythgrozqouu4agofxfdgcwdlh4a,6z8NgQB6,2020-0188,2021-10-31,06:16:35,08:17:45,NA,incomplete,false,NA,NA,true,3,7,NA,NA,NA,left,n_l_033.jpg,green,red,NA,NA,NA,NA,NA,NA,NA,NA,NA,NaN,NA,2325.300000011921,right,0,NA,NA,NA,NA,NA
6z8NgQB6,3fk4g712o0duz4m7qhicsa7sfszsso,352ythgrozqouu4agofxfdgcwdlh4a,6z8NgQB6,2020-0188,2021-10-31,06:16:35,08:17:45,NA,incomplete,false,NA,NA,true,3,8,NA,NA,NA,left,m_l_032.jpg,red,green,NA,NA,NA,NA,NA,NA,NA,NA,NA,NaN,NA,2300.800000011921,left,1,NA,NA,NA,NA,NA
6z8NgQB6,3fk4g712o0duz4m7qhicsa7sfszsso,352ythgrozqouu4agofxfdgcwdlh4a,6z8NgQB6,2020-0188,2021-10-31,06:16:35,08:17:45,NA,incomplete,false,NA,NA,true,3,9,NA,NA,NA,right,n_l_116.jpg,brown,green,NA,NA,NA,NA,NA,NA,NA,NA,NA,NaN,NA,3145.4000000059605,left,0,NA,NA,NA,NA,NA
6z8NgQB6,3fk4g712o0duz4m7qhicsa7sfszsso,352ythgrozqouu4agofxfdgcwdlh4a,6z8NgQB6,2020-0188,2021-10-31,06:16:35,08:17:45,NA,incomplete,false,NA,NA,true,3,10,NA,NA,NA,right,n_l_007.jpg,orange,gray,NA,NA,NA,NA,NA,NA,NA,NA,NA,NaN,NA,2309.5,left,0,NA,NA,NA,NA,NA
6z8NgQB6,3fk4g712o0duz4m7qhicsa7sfszsso,352ythgrozqouu4agofxfdgcwdlh4a,6z8NgQB6,2020-0188,2021-10-31,06:16:35,08:17:45,NA,incomplete,false,NA,NA,true,3,11,NA,NA,NA,left,m_s_095.jpg,red,green,NA,NA,NA,NA,NA,NA,NA,NA,NA,NaN,NA,2783.9000000059605,left,1,NA,NA,NA,NA,NA
6z8NgQB6,3fk4g712o0duz4m7qhicsa7sfszsso,352ythgrozqouu4agofxfdgcwdlh4a,6z8NgQB6,2020-0188,2021-10-31,06:16:35,08:17:45,NA,incomplete,false,NA,NA,true,3,12,NA,NA,NA,left,m_l_046.jpg,brown,green,NA,NA,NA,NA,NA,NA,NA,NA,NA,NaN,NA,2730,left,1,NA,NA,NA,NA,NA
6z8NgQB6,3fk4g712o0duz4m7qhicsa7sfszsso,352ythgrozqouu4agofxfdgcwdlh4a,6z8NgQB6,2020-0188,2021-10-31,06:16:35,08:17:45,NA,incomplete,false,NA,NA,true,3,13,NA,NA,NA,left,m_l_038.jpg,gray,orange,NA,NA,NA,NA,NA,NA,NA,NA,NA,NaN,NA,2684.0999999940395,left,1,NA,NA,NA,NA,NA
6z8NgQB6,3fk4g712o0duz4m7qhicsa7sfszsso,352ythgrozqouu4agofxfdgcwdlh4a,6z8NgQB6,2020-0188,2021-10-31,06:16:35,08:17:45,NA,incomplete,false,NA,NA,true,3,14,NA,NA,NA,left,m_l_092.jpg,orange,gray,NA,NA,NA,NA,NA,NA,NA,NA,NA,NaN,NA,2746.699999988079,left,1,NA,NA,NA,NA,NA
6z8NgQB6,3fk4g712o0duz4m7qhicsa7sfszsso,352ythgrozqouu4agofxfdgcwdlh4a,6z8NgQB6,2020-0188,2021-10-31,06:16:35,08:17:45,NA,incomplete,false,NA,NA,true,3,15,NA,NA,NA,right,m_s_075.jpg,red,purple,NA,NA,NA,NA,NA,NA,NA,NA,NA,NaN,NA,2739.699999988079,right,1,NA,NA,NA,NA,NA
6z8NgQB6,3fk4g712o0duz4m7qhicsa7sfszsso,352ythgrozqouu4agofxfdgcwdlh4a,6z8NgQB6,2020-0188,2021-10-31,06:16:35,08:17:45,NA,incomplete,false,NA,NA,true,3,16,NA,NA,NA,right,n_l_106.jpg,red,purple,NA,NA,NA,NA,NA,NA,NA,NA,NA,NaN,NA,2252.699999988079,left,0,NA,NA,NA,NA,NA
6z8NgQB6,3fk4g712o0duz4m7qhicsa7sfszsso,352ythgrozqouu4agofxfdgcwdlh4a,6z8NgQB6,2020-0188,2021-10-31,06:16:35,08:17:45,NA,incomplete,false,NA,NA,true,3,17,NA,NA,NA,left,n_s_107.jpg,brown,green,NA,NA,NA,NA,NA,NA,NA,NA,NA,NaN,NA,2777.800000011921,left,1,NA,NA,NA,NA,NA
6z8NgQB6,3fk4g712o0duz4m7qhicsa7sfszsso,352ythgrozqouu4agofxfdgcwdlh4a,6z8NgQB6,2020-0188,2021-10-31,06:16:35,08:17:45,NA,incomplete,false,NA,NA,true,3,18,NA,NA,NA,right,m_s_027.jpg,green,brown,NA,NA,NA,NA,NA,NA,NA,NA,NA,NaN,NA,2266.899999976158,right,1,NA,NA,NA,NA,NA
6z8NgQB6,3fk4g712o0duz4m7qhicsa7sfszsso,352ythgrozqouu4agofxfdgcwdlh4a,6z8NgQB6,2020-0188,2021-10-31,06:16:35,08:17:45,NA,incomplete,false,NA,NA,true,3,19,NA,NA,NA,left,n_s_083.jpg,green,brown,NA,NA,NA,NA,NA,NA,NA,NA,NA,NaN,NA,3029.9000000059605,left,1,NA,NA,NA,NA,NA
6z8NgQB6,3fk4g712o0duz4m7qhicsa7sfszsso,352ythgrozqouu4agofxfdgcwdlh4a,6z8NgQB6,2020-0188,2021-10-31,06:16:35,08:17:45,NA,incomplete,false,NA,NA,true,3,20,NA,NA,NA,left,m_l_012.jpg,purple,red,NA,NA,NA,NA,NA,NA,NA,NA,NA,NaN,NA,2267.800000011921,right,0,NA,NA,NA,NA,NA
6z8NgQB6,3fk4g712o0duz4m7qhicsa7sfszsso,352ythgrozqouu4agofxfdgcwdlh4a,6z8NgQB6,2020-0188,2021-10-31,06:16:35,08:17:45,NA,incomplete,false,NA,NA,true,3,21,NA,NA,NA,right,m_l_008.jpg,purple,orange,NA,NA,NA,NA,NA,NA,NA,NA,NA,NaN,NA,13381.700000017881,right,1,NA,NA,NA,NA,NA
6z8NgQB6,3fk4g712o0duz4m7qhicsa7sfszsso,352ythgrozqouu4agofxfdgcwdlh4a,6z8NgQB6,2020-0188,2021-10-31,06:16:35,08:17:45,NA,incomplete,false,NA,true,NA,3,0,NA,NA,NA,left,NA,NA,NA,present,NA,NA,n_l_116.jpg,green,n_s_016.jpg,red,between,NA,NaN,NA,NA,NA,NA,left,8549.899999976158,1,2,9051.90000000596
6z8NgQB6,3fk4g712o0duz4m7qhicsa7sfszsso,352ythgrozqouu4agofxfdgcwdlh4a,6z8NgQB6,2020-0188,2021-10-31,06:16:35,08:17:45,NA,incomplete,false,NA,true,NA,3,1,NA,NA,NA,left,NA,NA,NA,present,NA,NA,n_s_083.jpg,green,n_l_017.jpg,green,within,NA,NaN,NA,NA,NA,NA,left,12995.699999988079,1,1,5880.5
6z8NgQB6,3fk4g712o0duz4m7qhicsa7sfszsso,352ythgrozqouu4agofxfdgcwdlh4a,6z8NgQB6,2020-0188,2021-10-31,06:16:35,08:17:45,NA,incomplete,false,NA,true,NA,3,2,NA,NA,NA,right,NA,NA,NA,present,NA,NA,m_s_095.jpg,red,m_l_090.jpg,red,within,NA,NaN,NA,NA,NA,NA,right,21419.19999998808,1,1,1561.300000011921
6z8NgQB6,3fk4g712o0duz4m7qhicsa7sfszsso,352ythgrozqouu4agofxfdgcwdlh4a,6z8NgQB6,2020-0188,2021-10-31,06:16:35,08:17:45,NA,incomplete,false,NA,true,NA,3,3,NA,NA,NA,left,NA,NA,NA,present,NA,NA,m_l_008.jpg,orange,m_l_038.jpg,gray,between,NA,NaN,NA,NA,NA,NA,left,15399.5,1,2,11287.59999999404
6z8NgQB6,3fk4g712o0duz4m7qhicsa7sfszsso,352ythgrozqouu4agofxfdgcwdlh4a,6z8NgQB6,2020-0188,2021-10-31,06:16:35,08:17:45,NA,incomplete,false,NA,true,NA,3,4,NA,NA,NA,left,NA,NA,NA,present,NA,NA,n_l_031.jpg,gray,n_l_007.jpg,gray,within,NA,NaN,NA,NA,NA,NA,left,14399.800000011921,1,1,1704
6z8NgQB6,3fk4g712o0duz4m7qhicsa7sfszsso,352ythgrozqouu4agofxfdgcwdlh4a,6z8NgQB6,2020-0188,2021-10-31,06:16:35,08:17:45,NA,incomplete,false,NA,true,NA,3,5,NA,NA,NA,left,NA,NA,NA,present,NA,NA,m_s_075.jpg,purple,m_l_092.jpg,orange,between,NA,NaN,NA,NA,NA,NA,left,9326.09999999404,1,1,10125.59999999404
6z8NgQB6,3fk4g712o0duz4m7qhicsa7sfszsso,352ythgrozqouu4agofxfdgcwdlh4a,6z8NgQB6,2020-0188,2021-10-31,06:16:35,08:17:45,NA,incomplete,false,NA,true,NA,3,6,NA,NA,NA,left,NA,NA,NA,present,NA,NA,m_l_046.jpg,brown,m_s_027.jpg,brown,within,NA,NaN,NA,NA,NA,NA,left,11804.90000000596,1,0,1435.199999988079
6z8NgQB6,3fk4g712o0duz4m7qhicsa7sfszsso,352ythgrozqouu4agofxfdgcwdlh4a,6z8NgQB6,2020-0188,2021-10-31,06:16:35,08:17:45,NA,incomplete,false,NA,true,NA,3,7,NA,NA,NA,right,NA,NA,NA,present,NA,NA,n_l_106.jpg,purple,m_l_012.jpg,purple,within,NA,NaN,NA,NA,NA,NA,right,13675.90000000596,1,1,1549.9000000059605
6z8NgQB6,3fk4g712o0duz4m7qhicsa7sfszsso,352ythgrozqouu4agofxfdgcwdlh4a,6z8NgQB6,2020-0188,2021-10-31,06:16:35,08:17:45,NA,incomplete,false,NA,true,NA,3,8,NA,NA,NA,left,NA,NA,NA,present,NA,NA,m_l_032.jpg,red,m_s_076.jpg,purple,between,NA,NaN,NA,NA,NA,NA,left,5217.4000000059605,1,1,19629.40000000596
6z8NgQB6,3fk4g712o0duz4m7qhicsa7sfszsso,352ythgrozqouu4agofxfdgcwdlh4a,6z8NgQB6,2020-0188,2021-10-31,06:16:35,08:17:45,NA,incomplete,false,NA,true,NA,3,9,NA,NA,NA,right,NA,NA,NA,present,NA,NA,n_l_033.jpg,green,n_s_107.jpg,brown,between,NA,NaN,NA,NA,NA,NA,right,7360.199999988079,1,1,8866.800000011921
6z8NgQB6,3fk4g712o0duz4m7qhicsa7sfszsso,352ythgrozqouu4agofxfdgcwdlh4a,6z8NgQB6,2020-0188,2021-10-31,06:16:35,08:17:45,NA,incomplete,false,NA,true,NA,3,10,NA,NA,NA,right,NA,NA,NA,present,NA,NA,n_l_048.jpg,orange,n_s_088.jpg,orange,within,NA,NaN,NA,NA,NA,NA,right,10120.300000011921,1,1,7659.799999982119
6z8NgQB6,3fk4g712o0duz4m7qhicsa7sfszsso,352ythgrozqouu4agofxfdgcwdlh4a,6z8NgQB6,2020-0188,2021-10-31,06:16:35,08:17:45,NA,incomplete,false,true,NA,NA,4,0,NA,red,m_l_061.jpg,NA,NA,NA,NA,NA,pleasant,unpleasant,NA,NA,NA,NA,NA,left,1418.10000002384,true,NA,NA,NA,NA,NA,NA,NA,NA
6z8NgQB6,3fk4g712o0duz4m7qhicsa7sfszsso,352ythgrozqouu4agofxfdgcwdlh4a,6z8NgQB6,2020-0188,2021-10-31,06:16:35,08:17:45,NA,incomplete,false,true,NA,NA,4,1,NA,red,n_l_111.jpg,NA,NA,NA,NA,NA,unpleasant,pleasant,NA,NA,NA,NA,NA,left,1284.5,true,NA,NA,NA,NA,NA,NA,NA,NA
6z8NgQB6,3fk4g712o0duz4m7qhicsa7sfszsso,352ythgrozqouu4agofxfdgcwdlh4a,6z8NgQB6,2020-0188,2021-10-31,06:16:35,08:17:45,NA,incomplete,false,true,NA,NA,4,2,NA,red,m_l_087.jpg,NA,NA,NA,NA,NA,unpleasant,pleasant,NA,NA,NA,NA,NA,left,715.600000023842,true,NA,NA,NA,NA,NA,NA,NA,NA
6z8NgQB6,3fk4g712o0duz4m7qhicsa7sfszsso,352ythgrozqouu4agofxfdgcwdlh4a,6z8NgQB6,2020-0188,2021-10-31,06:16:35,08:17:45,NA,incomplete,false,true,NA,NA,4,3,NA,red,m_s_053.jpg,NA,NA,NA,NA,NA,unpleasant,pleasant,NA,NA,NA,NA,NA,left,1300.40000000596,true,NA,NA,NA,NA,NA,NA,NA,NA
6z8NgQB6,3fk4g712o0duz4m7qhicsa7sfszsso,352ythgrozqouu4agofxfdgcwdlh4a,6z8NgQB6,2020-0188,2021-10-31,06:16:35,08:17:45,NA,incomplete,false,true,NA,NA,4,4,NA,red,m_s_036.jpg,NA,NA,NA,NA,NA,pleasant,unpleasant,NA,NA,NA,NA,NA,left,1074,true,NA,NA,NA,NA,NA,NA,NA,NA
6z8NgQB6,3fk4g712o0duz4m7qhicsa7sfszsso,352ythgrozqouu4agofxfdgcwdlh4a,6z8NgQB6,2020-0188,2021-10-31,06:16:35,08:17:45,NA,incomplete,false,true,NA,NA,4,5,NA,red,n_s_112.jpg,NA,NA,NA,NA,NA,unpleasant,pleasant,NA,NA,NA,NA,NA,left,908.199999988079,true,NA,NA,NA,NA,NA,NA,NA,NA
6z8NgQB6,3fk4g712o0duz4m7qhicsa7sfszsso,352ythgrozqouu4agofxfdgcwdlh4a,6z8NgQB6,2020-0188,2021-10-31,06:16:35,08:17:45,NA,incomplete,false,true,NA,NA,4,6,NA,orange,m_l_041.jpg,NA,NA,NA,NA,NA,unpleasant,pleasant,NA,NA,NA,NA,NA,right,702.5,true,NA,NA,NA,NA,NA,NA,NA,NA
6z8NgQB6,3fk4g712o0duz4m7qhicsa7sfszsso,352ythgrozqouu4agofxfdgcwdlh4a,6z8NgQB6,2020-0188,2021-10-31,06:16:35,08:17:45,NA,incomplete,false,true,NA,NA,4,7,NA,orange,n_s_095.jpg,NA,NA,NA,NA,NA,pleasant,unpleasant,NA,NA,NA,NA,NA,left,806.299999982119,true,NA,NA,NA,NA,NA,NA,NA,NA
6z8NgQB6,3fk4g712o0duz4m7qhicsa7sfszsso,352ythgrozqouu4agofxfdgcwdlh4a,6z8NgQB6,2020-0188,2021-10-31,06:16:35,08:17:45,NA,incomplete,false,true,NA,NA,4,8,NA,orange,m_l_073.jpg,NA,NA,NA,NA,NA,unpleasant,pleasant,NA,NA,NA,NA,NA,left,951.700000017881,true,NA,NA,NA,NA,NA,NA,NA,NA
6z8NgQB6,3fk4g712o0duz4m7qhicsa7sfszsso,352ythgrozqouu4agofxfdgcwdlh4a,6z8NgQB6,2020-0188,2021-10-31,06:16:35,08:17:45,NA,incomplete,false,true,NA,NA,4,9,NA,orange,m_s_021.jpg,NA,NA,NA,NA,NA,unpleasant,pleasant,NA,NA,NA,NA,NA,left,858.40000000596,true,NA,NA,NA,NA,NA,NA,NA,NA
6z8NgQB6,3fk4g712o0duz4m7qhicsa7sfszsso,352ythgrozqouu4agofxfdgcwdlh4a,6z8NgQB6,2020-0188,2021-10-31,06:16:35,08:17:45,NA,incomplete,false,true,NA,NA,4,10,NA,orange,m_s_019.jpg,NA,NA,NA,NA,NA,pleasant,unpleasant,NA,NA,NA,NA,NA,left,621.5,true,NA,NA,NA,NA,NA,NA,NA,NA
6z8NgQB6,3fk4g712o0duz4m7qhicsa7sfszsso,352ythgrozqouu4agofxfdgcwdlh4a,6z8NgQB6,2020-0188,2021-10-31,06:16:35,08:17:45,NA,incomplete,false,true,NA,NA,4,11,NA,orange,m_s_077.jpg,NA,NA,NA,NA,NA,unpleasant,pleasant,NA,NA,NA,NA,NA,right,749,true,NA,NA,NA,NA,NA,NA,NA,NA
6z8NgQB6,3fk4g712o0duz4m7qhicsa7sfszsso,352ythgrozqouu4agofxfdgcwdlh4a,6z8NgQB6,2020-0188,2021-10-31,06:16:35,08:17:45,NA,incomplete,false,true,NA,NA,4,12,NA,black,n_s_027.jpg,NA,NA,NA,NA,NA,unpleasant,pleasant,NA,NA,NA,NA,NA,left,636.09999999404,true,NA,NA,NA,NA,NA,NA,NA,NA
6z8NgQB6,3fk4g712o0duz4m7qhicsa7sfszsso,352ythgrozqouu4agofxfdgcwdlh4a,6z8NgQB6,2020-0188,2021-10-31,06:16:35,08:17:45,NA,incomplete,false,true,NA,NA,4,13,NA,black,n_s_056.jpg,NA,NA,NA,NA,NA,unpleasant,pleasant,NA,NA,NA,NA,NA,right,878.09999999404,true,NA,NA,NA,NA,NA,NA,NA,NA
6z8NgQB6,3fk4g712o0duz4m7qhicsa7sfszsso,352ythgrozqouu4agofxfdgcwdlh4a,6z8NgQB6,2020-0188,2021-10-31,06:16:35,08:17:45,NA,incomplete,false,true,NA,NA,4,14,NA,black,m_s_012.jpg,NA,NA,NA,NA,NA,pleasant,unpleasant,NA,NA,NA,NA,NA,left,1079.59999999404,true,NA,NA,NA,NA,NA,NA,NA,NA
6z8NgQB6,3fk4g712o0duz4m7qhicsa7sfszsso,352ythgrozqouu4agofxfdgcwdlh4a,6z8NgQB6,2020-0188,2021-10-31,06:16:35,08:17:45,NA,incomplete,false,true,NA,NA,4,15,NA,black,m_l_064.jpg,NA,NA,NA,NA,NA,unpleasant,pleasant,NA,NA,NA,NA,NA,left,783.199999988079,true,NA,NA,NA,NA,NA,NA,NA,NA
6z8NgQB6,3fk4g712o0duz4m7qhicsa7sfszsso,352ythgrozqouu4agofxfdgcwdlh4a,6z8NgQB6,2020-0188,2021-10-31,06:16:35,08:17:45,NA,incomplete,false,true,NA,NA,4,16,NA,black,m_l_082.jpg,NA,NA,NA,NA,NA,unpleasant,pleasant,NA,NA,NA,NA,NA,right,926.299999982119,true,NA,NA,NA,NA,NA,NA,NA,NA
6z8NgQB6,3fk4g712o0duz4m7qhicsa7sfszsso,352ythgrozqouu4agofxfdgcwdlh4a,6z8NgQB6,2020-0188,2021-10-31,06:16:35,08:17:45,NA,incomplete,false,true,NA,NA,4,17,NA,black,n_l_025.jpg,NA,NA,NA,NA,NA,unpleasant,pleasant,NA,NA,NA,NA,NA,left,1169,true,NA,NA,NA,NA,NA,NA,NA,NA
6z8NgQB6,3fk4g712o0duz4m7qhicsa7sfszsso,352ythgrozqouu4agofxfdgcwdlh4a,6z8NgQB6,2020-0188,2021-10-31,06:16:35,08:17:45,NA,incomplete,false,true,NA,NA,4,18,NA,green,n_s_006.jpg,NA,NA,NA,NA,NA,pleasant,unpleasant,NA,NA,NA,NA,NA,left,866.5,true,NA,NA,NA,NA,NA,NA,NA,NA
6z8NgQB6,3fk4g712o0duz4m7qhicsa7sfszsso,352ythgrozqouu4agofxfdgcwdlh4a,6z8NgQB6,2020-0188,2021-10-31,06:16:35,08:17:45,NA,incomplete,false,true,NA,NA,4,19,NA,green,n_s_117.jpg,NA,NA,NA,NA,NA,pleasant,unpleasant,NA,NA,NA,NA,NA,right,1049.09999999404,true,NA,NA,NA,NA,NA,NA,NA,NA
6z8NgQB6,3fk4g712o0duz4m7qhicsa7sfszsso,352ythgrozqouu4agofxfdgcwdlh4a,6z8NgQB6,2020-0188,2021-10-31,06:16:35,08:17:45,NA,incomplete,false,true,NA,NA,4,20,NA,green,m_s_005.jpg,NA,NA,NA,NA,NA,pleasant,unpleasant,NA,NA,NA,NA,NA,left,954,true,NA,NA,NA,NA,NA,NA,NA,NA
6z8NgQB6,3fk4g712o0duz4m7qhicsa7sfszsso,352ythgrozqouu4agofxfdgcwdlh4a,6z8NgQB6,2020-0188,2021-10-31,06:16:35,08:17:45,NA,incomplete,false,true,NA,NA,4,21,NA,green,m_s_101.jpg,NA,NA,NA,NA,NA,unpleasant,pleasant,NA,NA,NA,NA,NA,left,793.59999999404,true,NA,NA,NA,NA,NA,NA,NA,NA
6z8NgQB6,3fk4g712o0duz4m7qhicsa7sfszsso,352ythgrozqouu4agofxfdgcwdlh4a,6z8NgQB6,2020-0188,2021-10-31,06:16:35,08:17:45,NA,incomplete,false,true,NA,NA,4,22,NA,green,m_s_006.jpg,NA,NA,NA,NA,NA,pleasant,unpleasant,NA,NA,NA,NA,NA,left,792.90000000596,true,NA,NA,NA,NA,NA,NA,NA,NA
6z8NgQB6,3fk4g712o0duz4m7qhicsa7sfszsso,352ythgrozqouu4agofxfdgcwdlh4a,6z8NgQB6,2020-0188,2021-10-31,06:16:35,08:17:45,NA,incomplete,false,true,NA,NA,4,23,NA,green,m_l_010.jpg,NA,NA,NA,NA,NA,pleasant,unpleasant,NA,NA,NA,NA,NA,left,756.700000017881,true,NA,NA,NA,NA,NA,NA,NA,NA
6z8NgQB6,3fk4g712o0duz4m7qhicsa7sfszsso,352ythgrozqouu4agofxfdgcwdlh4a,6z8NgQB6,2020-0188,2021-10-31,06:16:35,08:17:45,NA,incomplete,false,true,NA,NA,4,24,NA,brown,m_l_079.jpg,NA,NA,NA,NA,NA,unpleasant,pleasant,NA,NA,NA,NA,NA,left,1288.39999997616,true,NA,NA,NA,NA,NA,NA,NA,NA
6z8NgQB6,3fk4g712o0duz4m7qhicsa7sfszsso,352ythgrozqouu4agofxfdgcwdlh4a,6z8NgQB6,2020-0188,2021-10-31,06:16:35,08:17:45,NA,incomplete,false,true,NA,NA,4,25,NA,brown,n_s_007.jpg,NA,NA,NA,NA,NA,pleasant,unpleasant,NA,NA,NA,NA,NA,left,966.600000023842,true,NA,NA,NA,NA,NA,NA,NA,NA
6z8NgQB6,3fk4g712o0duz4m7qhicsa7sfszsso,352ythgrozqouu4agofxfdgcwdlh4a,6z8NgQB6,2020-0188,2021-10-31,06:16:35,08:17:45,NA,incomplete,false,true,NA,NA,4,26,NA,brown,m_s_109.jpg,NA,NA,NA,NA,NA,unpleasant,pleasant,NA,NA,NA,NA,NA,left,812.700000017881,true,NA,NA,NA,NA,NA,NA,NA,NA
6z8NgQB6,3fk4g712o0duz4m7qhicsa7sfszsso,352ythgrozqouu4agofxfdgcwdlh4a,6z8NgQB6,2020-0188,2021-10-31,06:16:35,08:17:45,NA,incomplete,false,true,NA,NA,4,27,NA,brown,n_l_030.jpg,NA,NA,NA,NA,NA,pleasant,unpleasant,NA,NA,NA,NA,NA,left,783.299999982119,true,NA,NA,NA,NA,NA,NA,NA,NA
6z8NgQB6,3fk4g712o0duz4m7qhicsa7sfszsso,352ythgrozqouu4agofxfdgcwdlh4a,6z8NgQB6,2020-0188,2021-10-31,06:16:35,08:17:45,NA,incomplete,false,true,NA,NA,4,28,NA,brown,n_l_068.jpg,NA,NA,NA,NA,NA,pleasant,unpleasant,NA,NA,NA,NA,NA,left,814.5,true,NA,NA,NA,NA,NA,NA,NA,NA
6z8NgQB6,3fk4g712o0duz4m7qhicsa7sfszsso,352ythgrozqouu4agofxfdgcwdlh4a,6z8NgQB6,2020-0188,2021-10-31,06:16:35,08:17:45,NA,incomplete,false,true,NA,NA,4,29,NA,brown,m_s_088.jpg,NA,NA,NA,NA,NA,unpleasant,pleasant,NA,NA,NA,NA,NA,right,876.5,true,NA,NA,NA,NA,NA,NA,NA,NA
6z8NgQB6,3fk4g712o0duz4m7qhicsa7sfszsso,352ythgrozqouu4agofxfdgcwdlh4a,6z8NgQB6,2020-0188,2021-10-31,06:16:35,08:17:45,NA,incomplete,false,true,NA,NA,4,30,NA,blue,n_s_019.jpg,NA,NA,NA,NA,NA,pleasant,unpleasant,NA,NA,NA,NA,NA,right,1235.29999998212,true,NA,NA,NA,NA,NA,NA,NA,NA
6z8NgQB6,3fk4g712o0duz4m7qhicsa7sfszsso,352ythgrozqouu4agofxfdgcwdlh4a,6z8NgQB6,2020-0188,2021-10-31,06:16:35,08:17:45,NA,incomplete,false,true,NA,NA,4,31,NA,blue,m_l_060.jpg,NA,NA,NA,NA,NA,pleasant,unpleasant,NA,NA,NA,NA,NA,left,768,true,NA,NA,NA,NA,NA,NA,NA,NA
6z8NgQB6,3fk4g712o0duz4m7qhicsa7sfszsso,352ythgrozqouu4agofxfdgcwdlh4a,6z8NgQB6,2020-0188,2021-10-31,06:16:35,08:17:45,NA,incomplete,false,true,NA,NA,4,32,NA,blue,m_l_058.jpg,NA,NA,NA,NA,NA,pleasant,unpleasant,NA,NA,NA,NA,NA,right,1258.69999998808,true,NA,NA,NA,NA,NA,NA,NA,NA
6z8NgQB6,3fk4g712o0duz4m7qhicsa7sfszsso,352ythgrozqouu4agofxfdgcwdlh4a,6z8NgQB6,2020-0188,2021-10-31,06:16:35,08:17:45,NA,incomplete,false,true,NA,NA,4,33,NA,blue,m_s_016.jpg,NA,NA,NA,NA,NA,pleasant,unpleasant,NA,NA,NA,NA,NA,left,860.299999982119,true,NA,NA,NA,NA,NA,NA,NA,NA
6z8NgQB6,3fk4g712o0duz4m7qhicsa7sfszsso,352ythgrozqouu4agofxfdgcwdlh4a,6z8NgQB6,2020-0188,2021-10-31,06:16:35,08:17:45,NA,incomplete,false,true,NA,NA,4,34,NA,blue,n_s_058.jpg,NA,NA,NA,NA,NA,pleasant,unpleasant,NA,NA,NA,NA,NA,right,983,true,NA,NA,NA,NA,NA,NA,NA,NA
6z8NgQB6,3fk4g712o0duz4m7qhicsa7sfszsso,352ythgrozqouu4agofxfdgcwdlh4a,6z8NgQB6,2020-0188,2021-10-31,06:16:35,08:17:45,NA,incomplete,false,true,NA,NA,4,35,NA,blue,n_s_049.jpg,NA,NA,NA,NA,NA,unpleasant,pleasant,NA,NA,NA,NA,NA,right,984.800000011921,true,NA,NA,NA,NA,NA,NA,NA,NA
6z8NgQB6,3fk4g712o0duz4m7qhicsa7sfszsso,352ythgrozqouu4agofxfdgcwdlh4a,6z8NgQB6,2020-0188,2021-10-31,06:16:35,08:17:45,NA,incomplete,false,NA,NA,true,4,0,NA,NA,NA,left,m_l_010.jpg,green,brown,NA,NA,NA,NA,NA,NA,NA,NA,NA,NaN,NA,16335.5,left,1,NA,NA,NA,NA,NA
6z8NgQB6,3fk4g712o0duz4m7qhicsa7sfszsso,352ythgrozqouu4agofxfdgcwdlh4a,6z8NgQB6,2020-0188,2021-10-31,06:16:35,08:17:45,NA,incomplete,false,NA,NA,true,4,1,NA,NA,NA,left,n_s_095.jpg,orange,red,NA,NA,NA,NA,NA,NA,NA,NA,NA,NaN,NA,17658.69999998808,left,1,NA,NA,NA,NA,NA
6z8NgQB6,3fk4g712o0duz4m7qhicsa7sfszsso,352ythgrozqouu4agofxfdgcwdlh4a,6z8NgQB6,2020-0188,2021-10-31,06:16:35,08:17:45,NA,incomplete,false,NA,NA,true,4,2,NA,NA,NA,right,n_l_111.jpg,orange,red,NA,NA,NA,NA,NA,NA,NA,NA,NA,NaN,NA,3404.5999999940395,right,1,NA,NA,NA,NA,NA
6z8NgQB6,3fk4g712o0duz4m7qhicsa7sfszsso,352ythgrozqouu4agofxfdgcwdlh4a,6z8NgQB6,2020-0188,2021-10-31,06:16:35,08:17:45,NA,incomplete,false,NA,NA,true,4,3,NA,NA,NA,left,m_s_088.jpg,brown,green,NA,NA,NA,NA,NA,NA,NA,NA,NA,NaN,NA,3290,left,1,NA,NA,NA,NA,NA
6z8NgQB6,3fk4g712o0duz4m7qhicsa7sfszsso,352ythgrozqouu4agofxfdgcwdlh4a,6z8NgQB6,2020-0188,2021-10-31,06:16:35,08:17:45,NA,incomplete,false,NA,NA,true,4,4,NA,NA,NA,left,n_s_112.jpg,red,orange,NA,NA,NA,NA,NA,NA,NA,NA,NA,NaN,NA,1902.0999999940395,left,1,NA,NA,NA,NA,NA
6z8NgQB6,3fk4g712o0duz4m7qhicsa7sfszsso,352ythgrozqouu4agofxfdgcwdlh4a,6z8NgQB6,2020-0188,2021-10-31,06:16:35,08:17:45,NA,incomplete,false,NA,NA,true,4,5,NA,NA,NA,right,m_s_005.jpg,brown,green,NA,NA,NA,NA,NA,NA,NA,NA,NA,NaN,NA,8540,right,1,NA,NA,NA,NA,NA
6z8NgQB6,3fk4g712o0duz4m7qhicsa7sfszsso,352ythgrozqouu4agofxfdgcwdlh4a,6z8NgQB6,2020-0188,2021-10-31,06:16:35,08:17:45,NA,incomplete,false,NA,NA,true,4,6,NA,NA,NA,right,n_s_007.jpg,green,brown,NA,NA,NA,NA,NA,NA,NA,NA,NA,NaN,NA,7242.300000011921,right,1,NA,NA,NA,NA,NA
6z8NgQB6,3fk4g712o0duz4m7qhicsa7sfszsso,352ythgrozqouu4agofxfdgcwdlh4a,6z8NgQB6,2020-0188,2021-10-31,06:16:35,08:17:45,NA,incomplete,false,NA,NA,true,4,7,NA,NA,NA,right,n_s_049.jpg,brown,blue,NA,NA,NA,NA,NA,NA,NA,NA,NA,NaN,NA,2427.7000000178814,left,0,NA,NA,NA,NA,NA
6z8NgQB6,3fk4g712o0duz4m7qhicsa7sfszsso,352ythgrozqouu4agofxfdgcwdlh4a,6z8NgQB6,2020-0188,2021-10-31,06:16:35,08:17:45,NA,incomplete,false,NA,NA,true,4,8,NA,NA,NA,left,m_l_058.jpg,blue,brown,NA,NA,NA,NA,NA,NA,NA,NA,NA,NaN,NA,7434.299999982119,left,1,NA,NA,NA,NA,NA
6z8NgQB6,3fk4g712o0duz4m7qhicsa7sfszsso,352ythgrozqouu4agofxfdgcwdlh4a,6z8NgQB6,2020-0188,2021-10-31,06:16:35,08:17:45,NA,incomplete,false,NA,NA,true,4,9,NA,NA,NA,left,n_s_056.jpg,black,orange,NA,NA,NA,NA,NA,NA,NA,NA,NA,NaN,NA,4469.5,left,1,NA,NA,NA,NA,NA
6z8NgQB6,3fk4g712o0duz4m7qhicsa7sfszsso,352ythgrozqouu4agofxfdgcwdlh4a,6z8NgQB6,2020-0188,2021-10-31,06:16:35,08:17:45,NA,incomplete,false,NA,NA,true,4,10,NA,NA,NA,right,m_s_012.jpg,orange,black,NA,NA,NA,NA,NA,NA,NA,NA,NA,NaN,NA,1870.800000011921,right,1,NA,NA,NA,NA,NA
6z8NgQB6,3fk4g712o0duz4m7qhicsa7sfszsso,352ythgrozqouu4agofxfdgcwdlh4a,6z8NgQB6,2020-0188,2021-10-31,06:16:35,08:17:45,NA,incomplete,false,NA,NA,true,4,11,NA,NA,NA,left,m_s_036.jpg,red,orange,NA,NA,NA,NA,NA,NA,NA,NA,NA,NaN,NA,1962.5999999940395,left,1,NA,NA,NA,NA,NA
6z8NgQB6,3fk4g712o0duz4m7qhicsa7sfszsso,352ythgrozqouu4agofxfdgcwdlh4a,6z8NgQB6,2020-0188,2021-10-31,06:16:35,08:17:45,NA,incomplete,false,NA,NA,true,4,12,NA,NA,NA,left,m_s_006.jpg,green,brown,NA,NA,NA,NA,NA,NA,NA,NA,NA,NaN,NA,1833.4000000059605,left,1,NA,NA,NA,NA,NA
6z8NgQB6,3fk4g712o0duz4m7qhicsa7sfszsso,352ythgrozqouu4agofxfdgcwdlh4a,6z8NgQB6,2020-0188,2021-10-31,06:16:35,08:17:45,NA,incomplete,false,NA,NA,true,4,13,NA,NA,NA,left,m_l_060.jpg,blue,brown,NA,NA,NA,NA,NA,NA,NA,NA,NA,NaN,NA,3001.2000000178814,left,1,NA,NA,NA,NA,NA
6z8NgQB6,3fk4g712o0duz4m7qhicsa7sfszsso,352ythgrozqouu4agofxfdgcwdlh4a,6z8NgQB6,2020-0188,2021-10-31,06:16:35,08:17:45,NA,incomplete,false,NA,NA,true,4,14,NA,NA,NA,right,n_l_025.jpg,green,black,NA,NA,NA,NA,NA,NA,NA,NA,NA,NaN,NA,2699.5999999940395,left,0,NA,NA,NA,NA,NA
6z8NgQB6,3fk4g712o0duz4m7qhicsa7sfszsso,352ythgrozqouu4agofxfdgcwdlh4a,6z8NgQB6,2020-0188,2021-10-31,06:16:35,08:17:45,NA,incomplete,false,NA,NA,true,4,15,NA,NA,NA,right,n_l_068.jpg,blue,brown,NA,NA,NA,NA,NA,NA,NA,NA,NA,NaN,NA,15200.200000017881,right,1,NA,NA,NA,NA,NA
6z8NgQB6,3fk4g712o0duz4m7qhicsa7sfszsso,352ythgrozqouu4agofxfdgcwdlh4a,6z8NgQB6,2020-0188,2021-10-31,06:16:35,08:17:45,NA,incomplete,false,NA,NA,true,4,16,NA,NA,NA,left,m_s_109.jpg,brown,blue,NA,NA,NA,NA,NA,NA,NA,NA,NA,NaN,NA,3657.2999999821186,left,1,NA,NA,NA,NA,NA
6z8NgQB6,3fk4g712o0duz4m7qhicsa7sfszsso,352ythgrozqouu4agofxfdgcwdlh4a,6z8NgQB6,2020-0188,2021-10-31,06:16:35,08:17:45,NA,incomplete,false,NA,NA,true,4,17,NA,NA,NA,left,m_l_082.jpg,black,green,NA,NA,NA,NA,NA,NA,NA,NA,NA,NaN,NA,11189.59999999404,left,1,NA,NA,NA,NA,NA
6z8NgQB6,3fk4g712o0duz4m7qhicsa7sfszsso,352ythgrozqouu4agofxfdgcwdlh4a,6z8NgQB6,2020-0188,2021-10-31,06:16:35,08:17:45,NA,incomplete,false,NA,NA,true,4,18,NA,NA,NA,right,m_s_077.jpg,red,orange,NA,NA,NA,NA,NA,NA,NA,NA,NA,NaN,NA,6420.0999999940395,right,1,NA,NA,NA,NA,NA
6z8NgQB6,3fk4g712o0duz4m7qhicsa7sfszsso,352ythgrozqouu4agofxfdgcwdlh4a,6z8NgQB6,2020-0188,2021-10-31,06:16:35,08:17:45,NA,incomplete,false,NA,NA,true,4,19,NA,NA,NA,left,m_l_073.jpg,orange,red,NA,NA,NA,NA,NA,NA,NA,NA,NA,NaN,NA,5014.700000017881,left,1,NA,NA,NA,NA,NA
6z8NgQB6,3fk4g712o0duz4m7qhicsa7sfszsso,352ythgrozqouu4agofxfdgcwdlh4a,6z8NgQB6,2020-0188,2021-10-31,06:16:35,08:17:45,NA,incomplete,false,NA,NA,true,4,20,NA,NA,NA,right,m_s_019.jpg,black,orange,NA,NA,NA,NA,NA,NA,NA,NA,NA,NaN,NA,2115.199999988079,right,1,NA,NA,NA,NA,NA
6z8NgQB6,3fk4g712o0duz4m7qhicsa7sfszsso,352ythgrozqouu4agofxfdgcwdlh4a,6z8NgQB6,2020-0188,2021-10-31,06:16:35,08:17:45,NA,incomplete,false,NA,NA,true,4,21,NA,NA,NA,left,n_s_117.jpg,green,brown,NA,NA,NA,NA,NA,NA,NA,NA,NA,NaN,NA,7199.200000017881,left,1,NA,NA,NA,NA,NA
6z8NgQB6,3fk4g712o0duz4m7qhicsa7sfszsso,352ythgrozqouu4agofxfdgcwdlh4a,6z8NgQB6,2020-0188,2021-10-31,06:16:35,08:17:45,NA,incomplete,false,NA,true,NA,4,0,NA,NA,NA,right,NA,NA,NA,present,NA,NA,m_l_058.jpg,blue,n_l_068.jpg,brown,between,NA,NaN,NA,NA,NA,NA,right,4261.300000011921,1,1,49118
6z8NgQB6,3fk4g712o0duz4m7qhicsa7sfszsso,352ythgrozqouu4agofxfdgcwdlh4a,6z8NgQB6,2020-0188,2021-10-31,06:16:35,08:17:45,NA,incomplete,false,NA,true,NA,4,1,NA,NA,NA,right,NA,NA,NA,present,NA,NA,n_l_025.jpg,black,n_s_056.jpg,black,within,NA,NaN,NA,NA,NA,NA,left,13657.59999999404,0,0,2146.199999988079
6z8NgQB6,3fk4g712o0duz4m7qhicsa7sfszsso,352ythgrozqouu4agofxfdgcwdlh4a,6z8NgQB6,2020-0188,2021-10-31,06:16:35,08:17:45,NA,incomplete,false,NA,true,NA,4,2,NA,NA,NA,left,NA,NA,NA,present,NA,NA,m_l_060.jpg,blue,n_s_049.jpg,blue,within,NA,NaN,NA,NA,NA,NA,left,5967.9000000059605,1,0,1700.7999999821186
6z8NgQB6,3fk4g712o0duz4m7qhicsa7sfszsso,352ythgrozqouu4agofxfdgcwdlh4a,6z8NgQB6,2020-0188,2021-10-31,06:16:35,08:17:45,NA,incomplete,false,NA,true,NA,4,3,NA,NA,NA,right,NA,NA,NA,present,NA,NA,m_s_005.jpg,green,m_l_082.jpg,black,between,NA,NaN,NA,NA,NA,NA,left,15317.899999976158,0,2,28020.19999998808
6z8NgQB6,3fk4g712o0duz4m7qhicsa7sfszsso,352ythgrozqouu4agofxfdgcwdlh4a,6z8NgQB6,2020-0188,2021-10-31,06:16:35,08:17:45,NA,incomplete,false,NA,true,NA,4,4,NA,NA,NA,left,NA,NA,NA,present,NA,NA,m_s_006.jpg,green,m_s_109.jpg,brown,between,NA,NaN,NA,NA,NA,NA,left,15704.300000011921,1,1,8360.399999976158
6z8NgQB6,3fk4g712o0duz4m7qhicsa7sfszsso,352ythgrozqouu4agofxfdgcwdlh4a,6z8NgQB6,2020-0188,2021-10-31,06:16:35,08:17:45,NA,incomplete,false,NA,true,NA,4,5,NA,NA,NA,left,NA,NA,NA,present,NA,NA,m_s_019.jpg,orange,m_s_012.jpg,black,between,NA,NaN,NA,NA,NA,NA,left,12201.40000000596,1,1,9942.300000011921
6z8NgQB6,3fk4g712o0duz4m7qhicsa7sfszsso,352ythgrozqouu4agofxfdgcwdlh4a,6z8NgQB6,2020-0188,2021-10-31,06:16:35,08:17:45,NA,incomplete,false,NA,true,NA,4,6,NA,NA,NA,left,NA,NA,NA,present,NA,NA,n_s_095.jpg,orange,m_s_077.jpg,orange,within,NA,NaN,NA,NA,NA,NA,left,20256.40000000596,1,1,1481.6000000238419
6z8NgQB6,3fk4g712o0duz4m7qhicsa7sfszsso,352ythgrozqouu4agofxfdgcwdlh4a,6z8NgQB6,2020-0188,2021-10-31,06:16:35,08:17:45,NA,incomplete,false,NA,true,NA,4,7,NA,NA,NA,left,NA,NA,NA,present,NA,NA,n_l_111.jpg,red,n_s_112.jpg,red,within,NA,NaN,NA,NA,NA,NA,left,9462.5,1,1,6765.5
6z8NgQB6,3fk4g712o0duz4m7qhicsa7sfszsso,352ythgrozqouu4agofxfdgcwdlh4a,6z8NgQB6,2020-0188,2021-10-31,06:16:35,08:17:45,NA,incomplete,false,NA,true,NA,4,8,NA,NA,NA,right,NA,NA,NA,present,NA,NA,m_l_073.jpg,orange,m_s_036.jpg,red,between,NA,NaN,NA,NA,NA,NA,right,5115.5,1,1,8828.899999976158
6z8NgQB6,3fk4g712o0duz4m7qhicsa7sfszsso,352ythgrozqouu4agofxfdgcwdlh4a,6z8NgQB6,2020-0188,2021-10-31,06:16:35,08:17:45,NA,incomplete,false,NA,true,NA,4,9,NA,NA,NA,right,NA,NA,NA,present,NA,NA,m_s_088.jpg,brown,n_s_007.jpg,brown,within,NA,NaN,NA,NA,NA,NA,right,10214.699999988079,1,1,7031.399999976158
6z8NgQB6,3fk4g712o0duz4m7qhicsa7sfszsso,352ythgrozqouu4agofxfdgcwdlh4a,6z8NgQB6,2020-0188,2021-10-31,06:16:35,08:17:45,NA,incomplete,false,NA,true,NA,4,10,NA,NA,NA,left,NA,NA,NA,present,NA,NA,n_s_117.jpg,green,m_l_010.jpg,green,within,NA,NaN,NA,NA,NA,NA,left,10072.199999988079,1,1,1899.5
6z8NgQB6,3fk4g712o0duz4m7qhicsa7sfszsso,352ythgrozqouu4agofxfdgcwdlh4a,6z8NgQB6,2020-0188,2021-10-31,06:16:35,08:17:45,NA,incomplete,false,true,NA,NA,5,0,NA,red,m_s_110.jpg,NA,NA,NA,NA,NA,unpleasant,pleasant,NA,NA,NA,NA,NA,left,1982.79999998212,true,NA,NA,NA,NA,NA,NA,NA,NA
6z8NgQB6,3fk4g712o0duz4m7qhicsa7sfszsso,352ythgrozqouu4agofxfdgcwdlh4a,6z8NgQB6,2020-0188,2021-10-31,06:16:35,08:17:45,NA,incomplete,false,true,NA,NA,5,1,NA,red,m_l_018.jpg,NA,NA,NA,NA,NA,unpleasant,pleasant,NA,NA,NA,NA,NA,left,1261.29999998212,true,NA,NA,NA,NA,NA,NA,NA,NA
6z8NgQB6,3fk4g712o0duz4m7qhicsa7sfszsso,352ythgrozqouu4agofxfdgcwdlh4a,6z8NgQB6,2020-0188,2021-10-31,06:16:35,08:17:45,NA,incomplete,false,true,NA,NA,5,2,NA,red,n_s_064.jpg,NA,NA,NA,NA,NA,unpleasant,pleasant,NA,NA,NA,NA,NA,left,968,true,NA,NA,NA,NA,NA,NA,NA,NA
6z8NgQB6,3fk4g712o0duz4m7qhicsa7sfszsso,352ythgrozqouu4agofxfdgcwdlh4a,6z8NgQB6,2020-0188,2021-10-31,06:16:35,08:17:45,NA,incomplete,false,true,NA,NA,5,3,NA,red,n_s_022.jpg,NA,NA,NA,NA,NA,unpleasant,pleasant,NA,NA,NA,NA,NA,left,741.5,true,NA,NA,NA,NA,NA,NA,NA,NA
6z8NgQB6,3fk4g712o0duz4m7qhicsa7sfszsso,352ythgrozqouu4agofxfdgcwdlh4a,6z8NgQB6,2020-0188,2021-10-31,06:16:35,08:17:45,NA,incomplete,false,true,NA,NA,5,4,NA,red,m_s_087.jpg,NA,NA,NA,NA,NA,pleasant,unpleasant,NA,NA,NA,NA,NA,left,1204,true,NA,NA,NA,NA,NA,NA,NA,NA
6z8NgQB6,3fk4g712o0duz4m7qhicsa7sfszsso,352ythgrozqouu4agofxfdgcwdlh4a,6z8NgQB6,2020-0188,2021-10-31,06:16:35,08:17:45,NA,incomplete,false,true,NA,NA,5,5,NA,red,m_l_110.jpg,NA,NA,NA,NA,NA,pleasant,unpleasant,NA,NA,NA,NA,NA,left,1084.09999999404,true,NA,NA,NA,NA,NA,NA,NA,NA
6z8NgQB6,3fk4g712o0duz4m7qhicsa7sfszsso,352ythgrozqouu4agofxfdgcwdlh4a,6z8NgQB6,2020-0188,2021-10-31,06:16:35,08:17:45,NA,incomplete,false,true,NA,NA,5,6,NA,orange,m_l_112.jpg,NA,NA,NA,NA,NA,pleasant,unpleasant,NA,NA,NA,NA,NA,left,790.200000017881,true,NA,NA,NA,NA,NA,NA,NA,NA
6z8NgQB6,3fk4g712o0duz4m7qhicsa7sfszsso,352ythgrozqouu4agofxfdgcwdlh4a,6z8NgQB6,2020-0188,2021-10-31,06:16:35,08:17:45,NA,incomplete,false,true,NA,NA,5,7,NA,orange,n_s_031.jpg,NA,NA,NA,NA,NA,pleasant,unpleasant,NA,NA,NA,NA,NA,left,1267.30000001192,true,NA,NA,NA,NA,NA,NA,NA,NA
6z8NgQB6,3fk4g712o0duz4m7qhicsa7sfszsso,352ythgrozqouu4agofxfdgcwdlh4a,6z8NgQB6,2020-0188,2021-10-31,06:16:35,08:17:45,NA,incomplete,false,true,NA,NA,5,8,NA,orange,n_l_044.jpg,NA,NA,NA,NA,NA,pleasant,unpleasant,NA,NA,NA,NA,NA,left,839.200000017881,true,NA,NA,NA,NA,NA,NA,NA,NA
6z8NgQB6,3fk4g712o0duz4m7qhicsa7sfszsso,352ythgrozqouu4agofxfdgcwdlh4a,6z8NgQB6,2020-0188,2021-10-31,06:16:35,08:17:45,NA,incomplete,false,true,NA,NA,5,9,NA,orange,n_l_036.jpg,NA,NA,NA,NA,NA,pleasant,unpleasant,NA,NA,NA,NA,NA,left,914.899999976158,true,NA,NA,NA,NA,NA,NA,NA,NA
6z8NgQB6,3fk4g712o0duz4m7qhicsa7sfszsso,352ythgrozqouu4agofxfdgcwdlh4a,6z8NgQB6,2020-0188,2021-10-31,06:16:35,08:17:45,NA,incomplete,false,true,NA,NA,5,10,NA,orange,n_s_014.jpg,NA,NA,NA,NA,NA,unpleasant,pleasant,NA,NA,NA,NA,NA,left,1264.80000001192,true,NA,NA,NA,NA,NA,NA,NA,NA
6z8NgQB6,3fk4g712o0duz4m7qhicsa7sfszsso,352ythgrozqouu4agofxfdgcwdlh4a,6z8NgQB6,2020-0188,2021-10-31,06:16:35,08:17:45,NA,incomplete,false,true,NA,NA,5,11,NA,orange,m_s_022.jpg,NA,NA,NA,NA,NA,pleasant,unpleasant,NA,NA,NA,NA,NA,right,843.5,true,NA,NA,NA,NA,NA,NA,NA,NA
6z8NgQB6,3fk4g712o0duz4m7qhicsa7sfszsso,352ythgrozqouu4agofxfdgcwdlh4a,6z8NgQB6,2020-0188,2021-10-31,06:16:35,08:17:45,NA,incomplete,false,true,NA,NA,5,12,NA,purple,n_l_084.jpg,NA,NA,NA,NA,NA,pleasant,unpleasant,NA,NA,NA,NA,NA,left,908.600000023842,true,NA,NA,NA,NA,NA,NA,NA,NA
6z8NgQB6,3fk4g712o0duz4m7qhicsa7sfszsso,352ythgrozqouu4agofxfdgcwdlh4a,6z8NgQB6,2020-0188,2021-10-31,06:16:35,08:17:45,NA,incomplete,false,true,NA,NA,5,13,NA,purple,m_l_101.jpg,NA,NA,NA,NA,NA,pleasant,unpleasant,NA,NA,NA,NA,NA,left,857.800000011921,true,NA,NA,NA,NA,NA,NA,NA,NA
6z8NgQB6,3fk4g712o0duz4m7qhicsa7sfszsso,352ythgrozqouu4agofxfdgcwdlh4a,6z8NgQB6,2020-0188,2021-10-31,06:16:35,08:17:45,NA,incomplete,false,true,NA,NA,5,14,NA,purple,m_l_045.jpg,NA,NA,NA,NA,NA,unpleasant,pleasant,NA,NA,NA,NA,NA,left,994.600000023842,true,NA,NA,NA,NA,NA,NA,NA,NA
6z8NgQB6,3fk4g712o0duz4m7qhicsa7sfszsso,352ythgrozqouu4agofxfdgcwdlh4a,6z8NgQB6,2020-0188,2021-10-31,06:16:35,08:17:45,NA,incomplete,false,true,NA,NA,5,15,NA,purple,m_l_089.jpg,NA,NA,NA,NA,NA,unpleasant,pleasant,NA,NA,NA,NA,NA,left,919.300000011921,true,NA,NA,NA,NA,NA,NA,NA,NA
6z8NgQB6,3fk4g712o0duz4m7qhicsa7sfszsso,352ythgrozqouu4agofxfdgcwdlh4a,6z8NgQB6,2020-0188,2021-10-31,06:16:35,08:17:45,NA,incomplete,false,true,NA,NA,5,16,NA,purple,n_s_075.jpg,NA,NA,NA,NA,NA,unpleasant,pleasant,NA,NA,NA,NA,NA,right,1192.90000000596,true,NA,NA,NA,NA,NA,NA,NA,NA
6z8NgQB6,3fk4g712o0duz4m7qhicsa7sfszsso,352ythgrozqouu4agofxfdgcwdlh4a,6z8NgQB6,2020-0188,2021-10-31,06:16:35,08:17:45,NA,incomplete,false,true,NA,NA,5,17,NA,purple,n_l_037.jpg,NA,NA,NA,NA,NA,pleasant,unpleasant,NA,NA,NA,NA,NA,right,1353.20000001788,true,NA,NA,NA,NA,NA,NA,NA,NA
