workerId,hitId,assignmentId,subject,studyid,exp_date,exp_start,exp_end,time_start,time_end,practice,encoding,memory,association,block,trial,event_order,event,stim,answer,object,left_context,right_context,context_type,label_left,label_right,left_image,left_event,right_image,right_event,condition,response,response_time,response_acc,association_response_time,association_response,association_acc,order_response,order_response_time,order_acc,distance_response,distance_response_time
IbyHIkV8,3dw3bnf1hkvs8co26ehcm6ry22mv8w,35dr22ar5hx0yollles08uc0632x3s,IbyHIkV8,2020-0188,2021-10-30,23:28:24,00:52:30,NA,incomplete,true,true,NA,NA,0,0,NA,brown,n_s_115.jpg,NA,NA,NA,NA,NA,pleasant,unpleasant,NA,NA,NA,NA,NA,left,2536,true,NA,NA,NA,NA,NA,NA,NA,NA
IbyHIkV8,3dw3bnf1hkvs8co26ehcm6ry22mv8w,35dr22ar5hx0yollles08uc0632x3s,IbyHIkV8,2020-0188,2021-10-30,23:28:24,00:52:30,NA,incomplete,true,true,NA,NA,0,1,NA,brown,n_l_079.jpg,NA,NA,NA,NA,NA,pleasant,unpleasant,NA,NA,NA,NA,NA,left,1526,true,NA,NA,NA,NA,NA,NA,NA,NA
IbyHIkV8,3dw3bnf1hkvs8co26ehcm6ry22mv8w,35dr22ar5hx0yollles08uc0632x3s,IbyHIkV8,2020-0188,2021-10-30,23:28:24,00:52:30,NA,incomplete,true,true,NA,NA,0,2,NA,brown,n_l_006.jpg,NA,NA,NA,NA,NA,pleasant,unpleasant,NA,NA,NA,NA,NA,left,2226,true,NA,NA,NA,NA,NA,NA,NA,NA
IbyHIkV8,3dw3bnf1hkvs8co26ehcm6ry22mv8w,35dr22ar5hx0yollles08uc0632x3s,IbyHIkV8,2020-0188,2021-10-30,23:28:24,00:52:30,NA,incomplete,true,true,NA,NA,0,3,NA,brown,n_s_063.jpg,NA,NA,NA,NA,NA,pleasant,unpleasant,NA,NA,NA,NA,NA,left,1738,true,NA,NA,NA,NA,NA,NA,NA,NA
IbyHIkV8,3dw3bnf1hkvs8co26ehcm6ry22mv8w,35dr22ar5hx0yollles08uc0632x3s,IbyHIkV8,2020-0188,2021-10-30,23:28:24,00:52:30,NA,incomplete,true,true,NA,NA,0,4,NA,brown,n_s_082.jpg,NA,NA,NA,NA,NA,pleasant,unpleasant,NA,NA,NA,NA,NA,left,1779,true,NA,NA,NA,NA,NA,NA,NA,NA
IbyHIkV8,3dw3bnf1hkvs8co26ehcm6ry22mv8w,35dr22ar5hx0yollles08uc0632x3s,IbyHIkV8,2020-0188,2021-10-30,23:28:24,00:52:30,NA,incomplete,true,true,NA,NA,0,5,NA,brown,m_l_087.jpg,NA,NA,NA,NA,NA,pleasant,unpleasant,NA,NA,NA,NA,NA,right,1565,true,NA,NA,NA,NA,NA,NA,NA,NA
IbyHIkV8,3dw3bnf1hkvs8co26ehcm6ry22mv8w,35dr22ar5hx0yollles08uc0632x3s,IbyHIkV8,2020-0188,2021-10-30,23:28:24,00:52:30,NA,incomplete,true,true,NA,NA,0,6,NA,orange,n_s_109.jpg,NA,NA,NA,NA,NA,pleasant,unpleasant,NA,NA,NA,NA,NA,right,1392,true,NA,NA,NA,NA,NA,NA,NA,NA
IbyHIkV8,3dw3bnf1hkvs8co26ehcm6ry22mv8w,35dr22ar5hx0yollles08uc0632x3s,IbyHIkV8,2020-0188,2021-10-30,23:28:24,00:52:30,NA,incomplete,true,true,NA,NA,0,7,NA,orange,m_s_079.jpg,NA,NA,NA,NA,NA,pleasant,unpleasant,NA,NA,NA,NA,NA,left,1794,true,NA,NA,NA,NA,NA,NA,NA,NA
IbyHIkV8,3dw3bnf1hkvs8co26ehcm6ry22mv8w,35dr22ar5hx0yollles08uc0632x3s,IbyHIkV8,2020-0188,2021-10-30,23:28:24,00:52:30,NA,incomplete,true,true,NA,NA,0,8,NA,orange,m_s_063.jpg,NA,NA,NA,NA,NA,pleasant,unpleasant,NA,NA,NA,NA,NA,left,1523,true,NA,NA,NA,NA,NA,NA,NA,NA
IbyHIkV8,3dw3bnf1hkvs8co26ehcm6ry22mv8w,35dr22ar5hx0yollles08uc0632x3s,IbyHIkV8,2020-0188,2021-10-30,23:28:24,00:52:30,NA,incomplete,true,true,NA,NA,0,9,NA,orange,n_l_095.jpg,NA,NA,NA,NA,NA,pleasant,unpleasant,NA,NA,NA,NA,NA,left,1818,true,NA,NA,NA,NA,NA,NA,NA,NA
IbyHIkV8,3dw3bnf1hkvs8co26ehcm6ry22mv8w,35dr22ar5hx0yollles08uc0632x3s,IbyHIkV8,2020-0188,2021-10-30,23:28:24,00:52:30,NA,incomplete,true,true,NA,NA,0,10,NA,orange,m_l_046.jpg,NA,NA,NA,NA,NA,unpleasant,pleasant,NA,NA,NA,NA,NA,right,1673,true,NA,NA,NA,NA,NA,NA,NA,NA
IbyHIkV8,3dw3bnf1hkvs8co26ehcm6ry22mv8w,35dr22ar5hx0yollles08uc0632x3s,IbyHIkV8,2020-0188,2021-10-30,23:28:24,00:52:30,NA,incomplete,true,true,NA,NA,0,11,NA,orange,n_l_082.jpg,NA,NA,NA,NA,NA,unpleasant,pleasant,NA,NA,NA,NA,NA,right,1808,true,NA,NA,NA,NA,NA,NA,NA,NA
IbyHIkV8,3dw3bnf1hkvs8co26ehcm6ry22mv8w,35dr22ar5hx0yollles08uc0632x3s,IbyHIkV8,2020-0188,2021-10-30,23:28:24,00:52:30,NA,incomplete,true,true,NA,NA,0,12,NA,white,n_s_027.jpg,NA,NA,NA,NA,NA,pleasant,unpleasant,NA,NA,NA,NA,NA,left,975,true,NA,NA,NA,NA,NA,NA,NA,NA
IbyHIkV8,3dw3bnf1hkvs8co26ehcm6ry22mv8w,35dr22ar5hx0yollles08uc0632x3s,IbyHIkV8,2020-0188,2021-10-30,23:28:24,00:52:30,NA,incomplete,true,true,NA,NA,0,13,NA,white,m_l_005.jpg,NA,NA,NA,NA,NA,pleasant,unpleasant,NA,NA,NA,NA,NA,left,2082,true,NA,NA,NA,NA,NA,NA,NA,NA
IbyHIkV8,3dw3bnf1hkvs8co26ehcm6ry22mv8w,35dr22ar5hx0yollles08uc0632x3s,IbyHIkV8,2020-0188,2021-10-30,23:28:24,00:52:30,NA,incomplete,true,true,NA,NA,0,14,NA,white,m_s_082.jpg,NA,NA,NA,NA,NA,pleasant,unpleasant,NA,NA,NA,NA,NA,left,3029,true,NA,NA,NA,NA,NA,NA,NA,NA
IbyHIkV8,3dw3bnf1hkvs8co26ehcm6ry22mv8w,35dr22ar5hx0yollles08uc0632x3s,IbyHIkV8,2020-0188,2021-10-30,23:28:24,00:52:30,NA,incomplete,true,true,NA,NA,0,15,NA,white,m_l_110.jpg,NA,NA,NA,NA,NA,pleasant,unpleasant,NA,NA,NA,NA,NA,right,1259,true,NA,NA,NA,NA,NA,NA,NA,NA
IbyHIkV8,3dw3bnf1hkvs8co26ehcm6ry22mv8w,35dr22ar5hx0yollles08uc0632x3s,IbyHIkV8,2020-0188,2021-10-30,23:28:24,00:52:30,NA,incomplete,true,true,NA,NA,0,16,NA,white,n_s_088.jpg,NA,NA,NA,NA,NA,pleasant,unpleasant,NA,NA,NA,NA,NA,left,1789,true,NA,NA,NA,NA,NA,NA,NA,NA
IbyHIkV8,3dw3bnf1hkvs8co26ehcm6ry22mv8w,35dr22ar5hx0yollles08uc0632x3s,IbyHIkV8,2020-0188,2021-10-30,23:28:24,00:52:30,NA,incomplete,true,true,NA,NA,0,17,NA,white,m_s_052.jpg,NA,NA,NA,NA,NA,pleasant,unpleasant,NA,NA,NA,NA,NA,left,1201,true,NA,NA,NA,NA,NA,NA,NA,NA
IbyHIkV8,3dw3bnf1hkvs8co26ehcm6ry22mv8w,35dr22ar5hx0yollles08uc0632x3s,IbyHIkV8,2020-0188,2021-10-30,23:28:24,00:52:30,NA,incomplete,true,true,NA,NA,0,18,NA,blue,m_s_070.jpg,NA,NA,NA,NA,NA,unpleasant,pleasant,NA,NA,NA,NA,NA,right,1563,true,NA,NA,NA,NA,NA,NA,NA,NA
IbyHIkV8,3dw3bnf1hkvs8co26ehcm6ry22mv8w,35dr22ar5hx0yollles08uc0632x3s,IbyHIkV8,2020-0188,2021-10-30,23:28:24,00:52:30,NA,incomplete,true,true,NA,NA,0,19,NA,blue,m_s_112.jpg,NA,NA,NA,NA,NA,unpleasant,pleasant,NA,NA,NA,NA,NA,right,2083,true,NA,NA,NA,NA,NA,NA,NA,NA
IbyHIkV8,3dw3bnf1hkvs8co26ehcm6ry22mv8w,35dr22ar5hx0yollles08uc0632x3s,IbyHIkV8,2020-0188,2021-10-30,23:28:24,00:52:30,NA,incomplete,true,true,NA,NA,0,20,NA,blue,n_s_035.jpg,NA,NA,NA,NA,NA,unpleasant,pleasant,NA,NA,NA,NA,NA,right,1255,true,NA,NA,NA,NA,NA,NA,NA,NA
IbyHIkV8,3dw3bnf1hkvs8co26ehcm6ry22mv8w,35dr22ar5hx0yollles08uc0632x3s,IbyHIkV8,2020-0188,2021-10-30,23:28:24,00:52:30,NA,incomplete,true,true,NA,NA,0,21,NA,blue,n_s_045.jpg,NA,NA,NA,NA,NA,unpleasant,pleasant,NA,NA,NA,NA,NA,right,1188,true,NA,NA,NA,NA,NA,NA,NA,NA
IbyHIkV8,3dw3bnf1hkvs8co26ehcm6ry22mv8w,35dr22ar5hx0yollles08uc0632x3s,IbyHIkV8,2020-0188,2021-10-30,23:28:24,00:52:30,NA,incomplete,true,true,NA,NA,0,22,NA,blue,n_s_022.jpg,NA,NA,NA,NA,NA,unpleasant,pleasant,NA,NA,NA,NA,NA,right,2714,true,NA,NA,NA,NA,NA,NA,NA,NA
IbyHIkV8,3dw3bnf1hkvs8co26ehcm6ry22mv8w,35dr22ar5hx0yollles08uc0632x3s,IbyHIkV8,2020-0188,2021-10-30,23:28:24,00:52:30,NA,incomplete,true,true,NA,NA,0,23,NA,blue,m_s_029.jpg,NA,NA,NA,NA,NA,unpleasant,pleasant,NA,NA,NA,NA,NA,right,1784,true,NA,NA,NA,NA,NA,NA,NA,NA
IbyHIkV8,3dw3bnf1hkvs8co26ehcm6ry22mv8w,35dr22ar5hx0yollles08uc0632x3s,IbyHIkV8,2020-0188,2021-10-30,23:28:24,00:52:30,NA,incomplete,true,true,NA,NA,0,24,NA,purple,n_l_074.jpg,NA,NA,NA,NA,NA,unpleasant,pleasant,NA,NA,NA,NA,NA,right,1560,true,NA,NA,NA,NA,NA,NA,NA,NA
IbyHIkV8,3dw3bnf1hkvs8co26ehcm6ry22mv8w,35dr22ar5hx0yollles08uc0632x3s,IbyHIkV8,2020-0188,2021-10-30,23:28:24,00:52:30,NA,incomplete,true,true,NA,NA,0,25,NA,purple,n_s_001.jpg,NA,NA,NA,NA,NA,pleasant,unpleasant,NA,NA,NA,NA,NA,right,1554,true,NA,NA,NA,NA,NA,NA,NA,NA
IbyHIkV8,3dw3bnf1hkvs8co26ehcm6ry22mv8w,35dr22ar5hx0yollles08uc0632x3s,IbyHIkV8,2020-0188,2021-10-30,23:28:24,00:52:30,NA,incomplete,true,true,NA,NA,0,26,NA,purple,m_l_028.jpg,NA,NA,NA,NA,NA,pleasant,unpleasant,NA,NA,NA,NA,NA,right,3412,true,NA,NA,NA,NA,NA,NA,NA,NA
IbyHIkV8,3dw3bnf1hkvs8co26ehcm6ry22mv8w,35dr22ar5hx0yollles08uc0632x3s,IbyHIkV8,2020-0188,2021-10-30,23:28:24,00:52:30,NA,incomplete,true,true,NA,NA,0,27,NA,purple,m_l_066.jpg,NA,NA,NA,NA,NA,pleasant,unpleasant,NA,NA,NA,NA,NA,right,1323,true,NA,NA,NA,NA,NA,NA,NA,NA
IbyHIkV8,3dw3bnf1hkvs8co26ehcm6ry22mv8w,35dr22ar5hx0yollles08uc0632x3s,IbyHIkV8,2020-0188,2021-10-30,23:28:24,00:52:30,NA,incomplete,true,true,NA,NA,0,28,NA,purple,n_s_096.jpg,NA,NA,NA,NA,NA,unpleasant,pleasant,NA,NA,NA,NA,NA,right,2213,true,NA,NA,NA,NA,NA,NA,NA,NA
IbyHIkV8,3dw3bnf1hkvs8co26ehcm6ry22mv8w,35dr22ar5hx0yollles08uc0632x3s,IbyHIkV8,2020-0188,2021-10-30,23:28:24,00:52:30,NA,incomplete,true,true,NA,NA,0,29,NA,purple,n_l_115.jpg,NA,NA,NA,NA,NA,unpleasant,pleasant,NA,NA,NA,NA,NA,left,1765,true,NA,NA,NA,NA,NA,NA,NA,NA
IbyHIkV8,3dw3bnf1hkvs8co26ehcm6ry22mv8w,35dr22ar5hx0yollles08uc0632x3s,IbyHIkV8,2020-0188,2021-10-30,23:28:24,00:52:30,NA,incomplete,true,true,NA,NA,0,30,NA,gray,m_s_014.jpg,NA,NA,NA,NA,NA,pleasant,unpleasant,NA,NA,NA,NA,NA,right,1731,true,NA,NA,NA,NA,NA,NA,NA,NA
IbyHIkV8,3dw3bnf1hkvs8co26ehcm6ry22mv8w,35dr22ar5hx0yollles08uc0632x3s,IbyHIkV8,2020-0188,2021-10-30,23:28:24,00:52:30,NA,incomplete,true,true,NA,NA,0,31,NA,gray,n_l_110.jpg,NA,NA,NA,NA,NA,unpleasant,pleasant,NA,NA,NA,NA,NA,right,2512,true,NA,NA,NA,NA,NA,NA,NA,NA
IbyHIkV8,3dw3bnf1hkvs8co26ehcm6ry22mv8w,35dr22ar5hx0yollles08uc0632x3s,IbyHIkV8,2020-0188,2021-10-30,23:28:24,00:52:30,NA,incomplete,true,true,NA,NA,0,32,NA,gray,m_l_072.jpg,NA,NA,NA,NA,NA,pleasant,unpleasant,NA,NA,NA,NA,NA,right,1590,true,NA,NA,NA,NA,NA,NA,NA,NA
IbyHIkV8,3dw3bnf1hkvs8co26ehcm6ry22mv8w,35dr22ar5hx0yollles08uc0632x3s,IbyHIkV8,2020-0188,2021-10-30,23:28:24,00:52:30,NA,incomplete,true,true,NA,NA,0,33,NA,gray,n_l_019.jpg,NA,NA,NA,NA,NA,unpleasant,pleasant,NA,NA,NA,NA,NA,left,1172,true,NA,NA,NA,NA,NA,NA,NA,NA
IbyHIkV8,3dw3bnf1hkvs8co26ehcm6ry22mv8w,35dr22ar5hx0yollles08uc0632x3s,IbyHIkV8,2020-0188,2021-10-30,23:28:24,00:52:30,NA,incomplete,true,true,NA,NA,0,34,NA,gray,n_l_089.jpg,NA,NA,NA,NA,NA,unpleasant,pleasant,NA,NA,NA,NA,NA,right,1681,true,NA,NA,NA,NA,NA,NA,NA,NA
IbyHIkV8,3dw3bnf1hkvs8co26ehcm6ry22mv8w,35dr22ar5hx0yollles08uc0632x3s,IbyHIkV8,2020-0188,2021-10-30,23:28:24,00:52:30,NA,incomplete,true,true,NA,NA,0,35,NA,gray,n_s_009.jpg,NA,NA,NA,NA,NA,pleasant,unpleasant,NA,NA,NA,NA,NA,left,1590,true,NA,NA,NA,NA,NA,NA,NA,NA
IbyHIkV8,3dw3bnf1hkvs8co26ehcm6ry22mv8w,35dr22ar5hx0yollles08uc0632x3s,IbyHIkV8,2020-0188,2021-10-30,23:28:24,00:52:30,NA,incomplete,true,NA,NA,true,0,0,NA,NA,NA,right,n_l_082.jpg,white,orange,NA,NA,NA,NA,NA,NA,NA,NA,NA,NaN,NA,3650,right,1,NA,NA,NA,NA,NA
IbyHIkV8,3dw3bnf1hkvs8co26ehcm6ry22mv8w,35dr22ar5hx0yollles08uc0632x3s,IbyHIkV8,2020-0188,2021-10-30,23:28:24,00:52:30,NA,incomplete,true,NA,NA,true,0,1,NA,NA,NA,left,m_l_072.jpg,gray,purple,NA,NA,NA,NA,NA,NA,NA,NA,NA,NaN,NA,2789,left,1,NA,NA,NA,NA,NA
IbyHIkV8,3dw3bnf1hkvs8co26ehcm6ry22mv8w,35dr22ar5hx0yollles08uc0632x3s,IbyHIkV8,2020-0188,2021-10-30,23:28:24,00:52:30,NA,incomplete,true,NA,NA,true,0,2,NA,NA,NA,left,n_s_035.jpg,blue,purple,NA,NA,NA,NA,NA,NA,NA,NA,NA,NaN,NA,1746,left,1,NA,NA,NA,NA,NA
IbyHIkV8,3dw3bnf1hkvs8co26ehcm6ry22mv8w,35dr22ar5hx0yollles08uc0632x3s,IbyHIkV8,2020-0188,2021-10-30,23:28:24,00:52:30,NA,incomplete,true,NA,NA,true,0,3,NA,NA,NA,left,m_s_112.jpg,blue,white,NA,NA,NA,NA,NA,NA,NA,NA,NA,NaN,NA,1904,left,1,NA,NA,NA,NA,NA
IbyHIkV8,3dw3bnf1hkvs8co26ehcm6ry22mv8w,35dr22ar5hx0yollles08uc0632x3s,IbyHIkV8,2020-0188,2021-10-30,23:28:24,00:52:30,NA,incomplete,true,NA,NA,true,0,4,NA,NA,NA,left,n_s_001.jpg,purple,gray,NA,NA,NA,NA,NA,NA,NA,NA,NA,NaN,NA,2199,right,0,NA,NA,NA,NA,NA
IbyHIkV8,3dw3bnf1hkvs8co26ehcm6ry22mv8w,35dr22ar5hx0yollles08uc0632x3s,IbyHIkV8,2020-0188,2021-10-30,23:28:24,00:52:30,NA,incomplete,true,NA,NA,true,0,5,NA,NA,NA,left,m_s_079.jpg,orange,brown,NA,NA,NA,NA,NA,NA,NA,NA,NA,NaN,NA,3190,right,0,NA,NA,NA,NA,NA
IbyHIkV8,3dw3bnf1hkvs8co26ehcm6ry22mv8w,35dr22ar5hx0yollles08uc0632x3s,IbyHIkV8,2020-0188,2021-10-30,23:28:24,00:52:30,NA,incomplete,true,NA,NA,true,0,6,NA,NA,NA,right,n_s_009.jpg,purple,gray,NA,NA,NA,NA,NA,NA,NA,NA,NA,NaN,NA,1740,right,1,NA,NA,NA,NA,NA
IbyHIkV8,3dw3bnf1hkvs8co26ehcm6ry22mv8w,35dr22ar5hx0yollles08uc0632x3s,IbyHIkV8,2020-0188,2021-10-30,23:28:24,00:52:30,NA,incomplete,true,NA,NA,true,0,7,NA,NA,NA,left,m_l_005.jpg,white,orange,NA,NA,NA,NA,NA,NA,NA,NA,NA,NaN,NA,6332,right,0,NA,NA,NA,NA,NA
IbyHIkV8,3dw3bnf1hkvs8co26ehcm6ry22mv8w,35dr22ar5hx0yollles08uc0632x3s,IbyHIkV8,2020-0188,2021-10-30,23:28:24,00:52:30,NA,incomplete,true,NA,NA,true,0,8,NA,NA,NA,left,m_s_029.jpg,blue,white,NA,NA,NA,NA,NA,NA,NA,NA,NA,NaN,NA,2749,left,1,NA,NA,NA,NA,NA
IbyHIkV8,3dw3bnf1hkvs8co26ehcm6ry22mv8w,35dr22ar5hx0yollles08uc0632x3s,IbyHIkV8,2020-0188,2021-10-30,23:28:24,00:52:30,NA,incomplete,true,NA,NA,true,0,9,NA,NA,NA,right,m_s_052.jpg,orange,white,NA,NA,NA,NA,NA,NA,NA,NA,NA,NaN,NA,2099,left,0,NA,NA,NA,NA,NA
IbyHIkV8,3dw3bnf1hkvs8co26ehcm6ry22mv8w,35dr22ar5hx0yollles08uc0632x3s,IbyHIkV8,2020-0188,2021-10-30,23:28:24,00:52:30,NA,incomplete,true,NA,NA,true,0,10,NA,NA,NA,right,m_l_087.jpg,orange,brown,NA,NA,NA,NA,NA,NA,NA,NA,NA,NaN,NA,2813,right,1,NA,NA,NA,NA,NA
IbyHIkV8,3dw3bnf1hkvs8co26ehcm6ry22mv8w,35dr22ar5hx0yollles08uc0632x3s,IbyHIkV8,2020-0188,2021-10-30,23:28:24,00:52:30,NA,incomplete,true,NA,NA,true,0,11,NA,NA,NA,left,n_l_079.jpg,brown,orange,NA,NA,NA,NA,NA,NA,NA,NA,NA,NaN,NA,1650,left,1,NA,NA,NA,NA,NA
IbyHIkV8,3dw3bnf1hkvs8co26ehcm6ry22mv8w,35dr22ar5hx0yollles08uc0632x3s,IbyHIkV8,2020-0188,2021-10-30,23:28:24,00:52:30,NA,incomplete,true,NA,NA,true,0,12,NA,NA,NA,right,m_l_028.jpg,blue,purple,NA,NA,NA,NA,NA,NA,NA,NA,NA,NaN,NA,2488,right,1,NA,NA,NA,NA,NA
IbyHIkV8,3dw3bnf1hkvs8co26ehcm6ry22mv8w,35dr22ar5hx0yollles08uc0632x3s,IbyHIkV8,2020-0188,2021-10-30,23:28:24,00:52:30,NA,incomplete,true,NA,NA,true,0,13,NA,NA,NA,left,m_l_046.jpg,orange,brown,NA,NA,NA,NA,NA,NA,NA,NA,NA,NaN,NA,2273,left,1,NA,NA,NA,NA,NA
IbyHIkV8,3dw3bnf1hkvs8co26ehcm6ry22mv8w,35dr22ar5hx0yollles08uc0632x3s,IbyHIkV8,2020-0188,2021-10-30,23:28:24,00:52:30,NA,incomplete,true,NA,NA,true,0,14,NA,NA,NA,right,n_s_022.jpg,white,blue,NA,NA,NA,NA,NA,NA,NA,NA,NA,NaN,NA,2359,right,1,NA,NA,NA,NA,NA
IbyHIkV8,3dw3bnf1hkvs8co26ehcm6ry22mv8w,35dr22ar5hx0yollles08uc0632x3s,IbyHIkV8,2020-0188,2021-10-30,23:28:24,00:52:30,NA,incomplete,true,NA,NA,true,0,15,NA,NA,NA,right,n_s_082.jpg,orange,brown,NA,NA,NA,NA,NA,NA,NA,NA,NA,NaN,NA,1785,right,1,NA,NA,NA,NA,NA
IbyHIkV8,3dw3bnf1hkvs8co26ehcm6ry22mv8w,35dr22ar5hx0yollles08uc0632x3s,IbyHIkV8,2020-0188,2021-10-30,23:28:24,00:52:30,NA,incomplete,true,NA,NA,true,0,16,NA,NA,NA,right,n_s_096.jpg,gray,purple,NA,NA,NA,NA,NA,NA,NA,NA,NA,NaN,NA,6329,left,0,NA,NA,NA,NA,NA
IbyHIkV8,3dw3bnf1hkvs8co26ehcm6ry22mv8w,35dr22ar5hx0yollles08uc0632x3s,IbyHIkV8,2020-0188,2021-10-30,23:28:24,00:52:30,NA,incomplete,true,NA,NA,true,0,17,NA,NA,NA,right,m_s_063.jpg,white,orange,NA,NA,NA,NA,NA,NA,NA,NA,NA,NaN,NA,2344,right,1,NA,NA,NA,NA,NA
IbyHIkV8,3dw3bnf1hkvs8co26ehcm6ry22mv8w,35dr22ar5hx0yollles08uc0632x3s,IbyHIkV8,2020-0188,2021-10-30,23:28:24,00:52:30,NA,incomplete,true,NA,NA,true,0,18,NA,NA,NA,right,n_s_088.jpg,blue,white,NA,NA,NA,NA,NA,NA,NA,NA,NA,NaN,NA,2151,left,0,NA,NA,NA,NA,NA
IbyHIkV8,3dw3bnf1hkvs8co26ehcm6ry22mv8w,35dr22ar5hx0yollles08uc0632x3s,IbyHIkV8,2020-0188,2021-10-30,23:28:24,00:52:30,NA,incomplete,true,NA,NA,true,0,19,NA,NA,NA,left,n_l_110.jpg,gray,purple,NA,NA,NA,NA,NA,NA,NA,NA,NA,NaN,NA,2332,right,0,NA,NA,NA,NA,NA
IbyHIkV8,3dw3bnf1hkvs8co26ehcm6ry22mv8w,35dr22ar5hx0yollles08uc0632x3s,IbyHIkV8,2020-0188,2021-10-30,23:28:24,00:52:30,NA,incomplete,true,NA,NA,true,0,20,NA,NA,NA,right,m_s_082.jpg,blue,white,NA,NA,NA,NA,NA,NA,NA,NA,NA,NaN,NA,2082,left,0,NA,NA,NA,NA,NA
IbyHIkV8,3dw3bnf1hkvs8co26ehcm6ry22mv8w,35dr22ar5hx0yollles08uc0632x3s,IbyHIkV8,2020-0188,2021-10-30,23:28:24,00:52:30,NA,incomplete,true,NA,NA,true,0,21,NA,NA,NA,left,n_l_115.jpg,purple,gray,NA,NA,NA,NA,NA,NA,NA,NA,NA,NaN,NA,2440,left,1,NA,NA,NA,NA,NA
IbyHIkV8,3dw3bnf1hkvs8co26ehcm6ry22mv8w,35dr22ar5hx0yollles08uc0632x3s,IbyHIkV8,2020-0188,2021-10-30,23:28:24,00:52:30,NA,incomplete,true,NA,true,NA,0,0,NA,NA,NA,left,NA,NA,NA,present,NA,NA,m_l_005.jpg,white,m_s_052.jpg,white,within,NA,NaN,NA,NA,NA,NA,right,2398,0,1,3814
IbyHIkV8,3dw3bnf1hkvs8co26ehcm6ry22mv8w,35dr22ar5hx0yollles08uc0632x3s,IbyHIkV8,2020-0188,2021-10-30,23:28:24,00:52:30,NA,incomplete,true,NA,true,NA,0,1,NA,NA,NA,left,NA,NA,NA,present,NA,NA,n_s_001.jpg,purple,n_l_115.jpg,purple,within,NA,NaN,NA,NA,NA,NA,right,2624,0,0,3067
IbyHIkV8,3dw3bnf1hkvs8co26ehcm6ry22mv8w,35dr22ar5hx0yollles08uc0632x3s,IbyHIkV8,2020-0188,2021-10-30,23:28:24,00:52:30,NA,incomplete,true,NA,true,NA,0,2,NA,NA,NA,right,NA,NA,NA,present,NA,NA,m_l_087.jpg,brown,n_l_079.jpg,brown,within,NA,NaN,NA,NA,NA,NA,left,3709,0,3,2267
IbyHIkV8,3dw3bnf1hkvs8co26ehcm6ry22mv8w,35dr22ar5hx0yollles08uc0632x3s,IbyHIkV8,2020-0188,2021-10-30,23:28:24,00:52:30,NA,incomplete,true,NA,true,NA,0,3,NA,NA,NA,left,NA,NA,NA,present,NA,NA,m_s_112.jpg,blue,m_s_029.jpg,blue,within,NA,NaN,NA,NA,NA,NA,left,2128,1,1,1919
IbyHIkV8,3dw3bnf1hkvs8co26ehcm6ry22mv8w,35dr22ar5hx0yollles08uc0632x3s,IbyHIkV8,2020-0188,2021-10-30,23:28:24,00:52:30,NA,incomplete,true,NA,true,NA,0,4,NA,NA,NA,left,NA,NA,NA,present,NA,NA,n_s_082.jpg,brown,m_s_063.jpg,orange,between,NA,NaN,NA,NA,NA,NA,left,2321,1,1,2749
IbyHIkV8,3dw3bnf1hkvs8co26ehcm6ry22mv8w,35dr22ar5hx0yollles08uc0632x3s,IbyHIkV8,2020-0188,2021-10-30,23:28:24,00:52:30,NA,incomplete,true,NA,true,NA,0,5,NA,NA,NA,right,NA,NA,NA,present,NA,NA,n_l_082.jpg,orange,m_s_079.jpg,orange,within,NA,NaN,NA,NA,NA,NA,left,2639,0,1,2705
IbyHIkV8,3dw3bnf1hkvs8co26ehcm6ry22mv8w,35dr22ar5hx0yollles08uc0632x3s,IbyHIkV8,2020-0188,2021-10-30,23:28:24,00:52:30,NA,incomplete,true,NA,true,NA,0,6,NA,NA,NA,right,NA,NA,NA,present,NA,NA,n_s_035.jpg,blue,n_s_088.jpg,white,between,NA,NaN,NA,NA,NA,NA,left,2640,0,1,8718
IbyHIkV8,3dw3bnf1hkvs8co26ehcm6ry22mv8w,35dr22ar5hx0yollles08uc0632x3s,IbyHIkV8,2020-0188,2021-10-30,23:28:24,00:52:30,NA,incomplete,true,NA,true,NA,0,7,NA,NA,NA,left,NA,NA,NA,present,NA,NA,n_s_096.jpg,purple,m_l_072.jpg,gray,between,NA,NaN,NA,NA,NA,NA,left,2425,1,1,1960
IbyHIkV8,3dw3bnf1hkvs8co26ehcm6ry22mv8w,35dr22ar5hx0yollles08uc0632x3s,IbyHIkV8,2020-0188,2021-10-30,23:28:24,00:52:30,NA,incomplete,true,NA,true,NA,0,8,NA,NA,NA,left,NA,NA,NA,present,NA,NA,m_l_046.jpg,orange,m_s_082.jpg,white,between,NA,NaN,NA,NA,NA,NA,left,3340,1,1,1627
IbyHIkV8,3dw3bnf1hkvs8co26ehcm6ry22mv8w,35dr22ar5hx0yollles08uc0632x3s,IbyHIkV8,2020-0188,2021-10-30,23:28:24,00:52:30,NA,incomplete,true,NA,true,NA,0,9,NA,NA,NA,right,NA,NA,NA,present,NA,NA,m_l_028.jpg,purple,n_s_022.jpg,blue,between,NA,NaN,NA,NA,NA,NA,right,2587,1,2,1649
IbyHIkV8,3dw3bnf1hkvs8co26ehcm6ry22mv8w,35dr22ar5hx0yollles08uc0632x3s,IbyHIkV8,2020-0188,2021-10-30,23:28:24,00:52:30,NA,incomplete,true,NA,true,NA,0,10,NA,NA,NA,left,NA,NA,NA,present,NA,NA,n_l_110.jpg,gray,n_s_009.jpg,gray,within,NA,NaN,NA,NA,NA,NA,left,3785,1,0,2509
IbyHIkV8,3dw3bnf1hkvs8co26ehcm6ry22mv8w,35dr22ar5hx0yollles08uc0632x3s,IbyHIkV8,2020-0188,2021-10-30,23:28:24,00:52:30,NA,incomplete,false,true,NA,NA,1,0,NA,gray,m_s_068.jpg,NA,NA,NA,NA,NA,pleasant,unpleasant,NA,NA,NA,NA,NA,left,1657,true,NA,NA,NA,NA,NA,NA,NA,NA
IbyHIkV8,3dw3bnf1hkvs8co26ehcm6ry22mv8w,35dr22ar5hx0yollles08uc0632x3s,IbyHIkV8,2020-0188,2021-10-30,23:28:24,00:52:30,NA,incomplete,false,true,NA,NA,1,1,NA,gray,n_l_018.jpg,NA,NA,NA,NA,NA,unpleasant,pleasant,NA,NA,NA,NA,NA,right,1246,true,NA,NA,NA,NA,NA,NA,NA,NA
IbyHIkV8,3dw3bnf1hkvs8co26ehcm6ry22mv8w,35dr22ar5hx0yollles08uc0632x3s,IbyHIkV8,2020-0188,2021-10-30,23:28:24,00:52:30,NA,incomplete,false,true,NA,NA,1,2,NA,gray,n_s_008.jpg,NA,NA,NA,NA,NA,unpleasant,pleasant,NA,NA,NA,NA,NA,right,1206,true,NA,NA,NA,NA,NA,NA,NA,NA
IbyHIkV8,3dw3bnf1hkvs8co26ehcm6ry22mv8w,35dr22ar5hx0yollles08uc0632x3s,IbyHIkV8,2020-0188,2021-10-30,23:28:24,00:52:30,NA,incomplete,false,true,NA,NA,1,3,NA,gray,m_s_013.jpg,NA,NA,NA,NA,NA,unpleasant,pleasant,NA,NA,NA,NA,NA,right,1295,true,NA,NA,NA,NA,NA,NA,NA,NA
IbyHIkV8,3dw3bnf1hkvs8co26ehcm6ry22mv8w,35dr22ar5hx0yollles08uc0632x3s,IbyHIkV8,2020-0188,2021-10-30,23:28:24,00:52:30,NA,incomplete,false,true,NA,NA,1,4,NA,gray,n_l_044.jpg,NA,NA,NA,NA,NA,pleasant,unpleasant,NA,NA,NA,NA,NA,left,1503,true,NA,NA,NA,NA,NA,NA,NA,NA
IbyHIkV8,3dw3bnf1hkvs8co26ehcm6ry22mv8w,35dr22ar5hx0yollles08uc0632x3s,IbyHIkV8,2020-0188,2021-10-30,23:28:24,00:52:30,NA,incomplete,false,true,NA,NA,1,5,NA,gray,m_s_080.jpg,NA,NA,NA,NA,NA,unpleasant,pleasant,NA,NA,NA,NA,NA,left,1860,true,NA,NA,NA,NA,NA,NA,NA,NA
IbyHIkV8,3dw3bnf1hkvs8co26ehcm6ry22mv8w,35dr22ar5hx0yollles08uc0632x3s,IbyHIkV8,2020-0188,2021-10-30,23:28:24,00:52:30,NA,incomplete,false,true,NA,NA,1,6,NA,white,m_s_093.jpg,NA,NA,NA,NA,NA,pleasant,unpleasant,NA,NA,NA,NA,NA,left,1523,true,NA,NA,NA,NA,NA,NA,NA,NA
IbyHIkV8,3dw3bnf1hkvs8co26ehcm6ry22mv8w,35dr22ar5hx0yollles08uc0632x3s,IbyHIkV8,2020-0188,2021-10-30,23:28:24,00:52:30,NA,incomplete,false,true,NA,NA,1,7,NA,white,n_s_014.jpg,NA,NA,NA,NA,NA,pleasant,unpleasant,NA,NA,NA,NA,NA,left,1270,true,NA,NA,NA,NA,NA,NA,NA,NA
IbyHIkV8,3dw3bnf1hkvs8co26ehcm6ry22mv8w,35dr22ar5hx0yollles08uc0632x3s,IbyHIkV8,2020-0188,2021-10-30,23:28:24,00:52:30,NA,incomplete,false,true,NA,NA,1,8,NA,white,m_s_027.jpg,NA,NA,NA,NA,NA,pleasant,unpleasant,NA,NA,NA,NA,NA,left,1291,true,NA,NA,NA,NA,NA,NA,NA,NA
IbyHIkV8,3dw3bnf1hkvs8co26ehcm6ry22mv8w,35dr22ar5hx0yollles08uc0632x3s,IbyHIkV8,2020-0188,2021-10-30,23:28:24,00:52:30,NA,incomplete,false,true,NA,NA,1,9,NA,white,m_s_107.jpg,NA,NA,NA,NA,NA,unpleasant,pleasant,NA,NA,NA,NA,NA,right,2734,true,NA,NA,NA,NA,NA,NA,NA,NA
IbyHIkV8,3dw3bnf1hkvs8co26ehcm6ry22mv8w,35dr22ar5hx0yollles08uc0632x3s,IbyHIkV8,2020-0188,2021-10-30,23:28:24,00:52:30,NA,incomplete,false,true,NA,NA,1,10,NA,white,m_s_106.jpg,NA,NA,NA,NA,NA,pleasant,unpleasant,NA,NA,NA,NA,NA,left,1574,true,NA,NA,NA,NA,NA,NA,NA,NA
IbyHIkV8,3dw3bnf1hkvs8co26ehcm6ry22mv8w,35dr22ar5hx0yollles08uc0632x3s,IbyHIkV8,2020-0188,2021-10-30,23:28:24,00:52:30,NA,incomplete,false,true,NA,NA,1,11,NA,white,m_l_016.jpg,NA,NA,NA,NA,NA,pleasant,unpleasant,NA,NA,NA,NA,NA,left,1772,true,NA,NA,NA,NA,NA,NA,NA,NA
IbyHIkV8,3dw3bnf1hkvs8co26ehcm6ry22mv8w,35dr22ar5hx0yollles08uc0632x3s,IbyHIkV8,2020-0188,2021-10-30,23:28:24,00:52:30,NA,incomplete,false,true,NA,NA,1,12,NA,yellow,m_l_063.jpg,NA,NA,NA,NA,NA,pleasant,unpleasant,NA,NA,NA,NA,NA,left,1839,true,NA,NA,NA,NA,NA,NA,NA,NA
IbyHIkV8,3dw3bnf1hkvs8co26ehcm6ry22mv8w,35dr22ar5hx0yollles08uc0632x3s,IbyHIkV8,2020-0188,2021-10-30,23:28:24,00:52:30,NA,incomplete,false,true,NA,NA,1,13,NA,yellow,m_l_082.jpg,NA,NA,NA,NA,NA,pleasant,unpleasant,NA,NA,NA,NA,NA,left,1348,true,NA,NA,NA,NA,NA,NA,NA,NA
IbyHIkV8,3dw3bnf1hkvs8co26ehcm6ry22mv8w,35dr22ar5hx0yollles08uc0632x3s,IbyHIkV8,2020-0188,2021-10-30,23:28:24,00:52:30,NA,incomplete,false,true,NA,NA,1,14,NA,yellow,n_s_018.jpg,NA,NA,NA,NA,NA,pleasant,unpleasant,NA,NA,NA,NA,NA,left,1405,true,NA,NA,NA,NA,NA,NA,NA,NA
IbyHIkV8,3dw3bnf1hkvs8co26ehcm6ry22mv8w,35dr22ar5hx0yollles08uc0632x3s,IbyHIkV8,2020-0188,2021-10-30,23:28:24,00:52:30,NA,incomplete,false,true,NA,NA,1,15,NA,yellow,n_l_066.jpg,NA,NA,NA,NA,NA,unpleasant,pleasant,NA,NA,NA,NA,NA,right,1799,true,NA,NA,NA,NA,NA,NA,NA,NA
IbyHIkV8,3dw3bnf1hkvs8co26ehcm6ry22mv8w,35dr22ar5hx0yollles08uc0632x3s,IbyHIkV8,2020-0188,2021-10-30,23:28:24,00:52:30,NA,incomplete,false,true,NA,NA,1,16,NA,yellow,m_l_057.jpg,NA,NA,NA,NA,NA,pleasant,unpleasant,NA,NA,NA,NA,NA,left,2591,true,NA,NA,NA,NA,NA,NA,NA,NA
IbyHIkV8,3dw3bnf1hkvs8co26ehcm6ry22mv8w,35dr22ar5hx0yollles08uc0632x3s,IbyHIkV8,2020-0188,2021-10-30,23:28:24,00:52:30,NA,incomplete,false,true,NA,NA,1,17,NA,yellow,m_l_041.jpg,NA,NA,NA,NA,NA,unpleasant,pleasant,NA,NA,NA,NA,NA,right,1803,true,NA,NA,NA,NA,NA,NA,NA,NA
IbyHIkV8,3dw3bnf1hkvs8co26ehcm6ry22mv8w,35dr22ar5hx0yollles08uc0632x3s,IbyHIkV8,2020-0188,2021-10-30,23:28:24,00:52:30,NA,incomplete,false,true,NA,NA,1,18,NA,black,m_s_083.jpg,NA,NA,NA,NA,NA,pleasant,unpleasant,NA,NA,NA,NA,NA,left,1535,true,NA,NA,NA,NA,NA,NA,NA,NA
IbyHIkV8,3dw3bnf1hkvs8co26ehcm6ry22mv8w,35dr22ar5hx0yollles08uc0632x3s,IbyHIkV8,2020-0188,2021-10-30,23:28:24,00:52:30,NA,incomplete,false,true,NA,NA,1,19,NA,black,n_s_046.jpg,NA,NA,NA,NA,NA,unpleasant,pleasant,NA,NA,NA,NA,NA,right,1309,true,NA,NA,NA,NA,NA,NA,NA,NA
IbyHIkV8,3dw3bnf1hkvs8co26ehcm6ry22mv8w,35dr22ar5hx0yollles08uc0632x3s,IbyHIkV8,2020-0188,2021-10-30,23:28:24,00:52:30,NA,incomplete,false,true,NA,NA,1,20,NA,black,n_s_047.jpg,NA,NA,NA,NA,NA,unpleasant,pleasant,NA,NA,NA,NA,NA,right,1734,true,NA,NA,NA,NA,NA,NA,NA,NA
IbyHIkV8,3dw3bnf1hkvs8co26ehcm6ry22mv8w,35dr22ar5hx0yollles08uc0632x3s,IbyHIkV8,2020-0188,2021-10-30,23:28:24,00:52:30,NA,incomplete,false,true,NA,NA,1,21,NA,black,n_l_042.jpg,NA,NA,NA,NA,NA,unpleasant,pleasant,NA,NA,NA,NA,NA,right,1673,true,NA,NA,NA,NA,NA,NA,NA,NA
IbyHIkV8,3dw3bnf1hkvs8co26ehcm6ry22mv8w,35dr22ar5hx0yollles08uc0632x3s,IbyHIkV8,2020-0188,2021-10-30,23:28:24,00:52:30,NA,incomplete,false,true,NA,NA,1,22,NA,black,m_l_017.jpg,NA,NA,NA,NA,NA,unpleasant,pleasant,NA,NA,NA,NA,NA,left,1471,true,NA,NA,NA,NA,NA,NA,NA,NA
IbyHIkV8,3dw3bnf1hkvs8co26ehcm6ry22mv8w,35dr22ar5hx0yollles08uc0632x3s,IbyHIkV8,2020-0188,2021-10-30,23:28:24,00:52:30,NA,incomplete,false,true,NA,NA,1,23,NA,black,m_l_079.jpg,NA,NA,NA,NA,NA,unpleasant,pleasant,NA,NA,NA,NA,NA,right,1210,true,NA,NA,NA,NA,NA,NA,NA,NA
IbyHIkV8,3dw3bnf1hkvs8co26ehcm6ry22mv8w,35dr22ar5hx0yollles08uc0632x3s,IbyHIkV8,2020-0188,2021-10-30,23:28:24,00:52:30,NA,incomplete,false,true,NA,NA,1,24,NA,red,n_s_056.jpg,NA,NA,NA,NA,NA,unpleasant,pleasant,NA,NA,NA,NA,NA,right,1420,true,NA,NA,NA,NA,NA,NA,NA,NA
IbyHIkV8,3dw3bnf1hkvs8co26ehcm6ry22mv8w,35dr22ar5hx0yollles08uc0632x3s,IbyHIkV8,2020-0188,2021-10-30,23:28:24,00:52:30,NA,incomplete,false,true,NA,NA,1,25,NA,red,n_l_036.jpg,NA,NA,NA,NA,NA,pleasant,unpleasant,NA,NA,NA,NA,NA,left,1239,true,NA,NA,NA,NA,NA,NA,NA,NA
IbyHIkV8,3dw3bnf1hkvs8co26ehcm6ry22mv8w,35dr22ar5hx0yollles08uc0632x3s,IbyHIkV8,2020-0188,2021-10-30,23:28:24,00:52:30,NA,incomplete,false,true,NA,NA,1,26,NA,red,n_l_025.jpg,NA,NA,NA,NA,NA,unpleasant,pleasant,NA,NA,NA,NA,NA,right,2369,true,NA,NA,NA,NA,NA,NA,NA,NA
IbyHIkV8,3dw3bnf1hkvs8co26ehcm6ry22mv8w,35dr22ar5hx0yollles08uc0632x3s,IbyHIkV8,2020-0188,2021-10-30,23:28:24,00:52:30,NA,incomplete,false,true,NA,NA,1,27,NA,red,m_s_025.jpg,NA,NA,NA,NA,NA,pleasant,unpleasant,NA,NA,NA,NA,NA,right,1747,true,NA,NA,NA,NA,NA,NA,NA,NA
IbyHIkV8,3dw3bnf1hkvs8co26ehcm6ry22mv8w,35dr22ar5hx0yollles08uc0632x3s,IbyHIkV8,2020-0188,2021-10-30,23:28:24,00:52:30,NA,incomplete,false,true,NA,NA,1,28,NA,red,m_l_054.jpg,NA,NA,NA,NA,NA,unpleasant,pleasant,NA,NA,NA,NA,NA,right,1123,true,NA,NA,NA,NA,NA,NA,NA,NA
IbyHIkV8,3dw3bnf1hkvs8co26ehcm6ry22mv8w,35dr22ar5hx0yollles08uc0632x3s,IbyHIkV8,2020-0188,2021-10-30,23:28:24,00:52:30,NA,incomplete,false,true,NA,NA,1,29,NA,red,n_l_096.jpg,NA,NA,NA,NA,NA,pleasant,unpleasant,NA,NA,NA,NA,NA,left,1729,true,NA,NA,NA,NA,NA,NA,NA,NA
IbyHIkV8,3dw3bnf1hkvs8co26ehcm6ry22mv8w,35dr22ar5hx0yollles08uc0632x3s,IbyHIkV8,2020-0188,2021-10-30,23:28:24,00:52:30,NA,incomplete,false,true,NA,NA,1,30,NA,purple,n_s_013.jpg,NA,NA,NA,NA,NA,pleasant,unpleasant,NA,NA,NA,NA,NA,left,1076,true,NA,NA,NA,NA,NA,NA,NA,NA
IbyHIkV8,3dw3bnf1hkvs8co26ehcm6ry22mv8w,35dr22ar5hx0yollles08uc0632x3s,IbyHIkV8,2020-0188,2021-10-30,23:28:24,00:52:30,NA,incomplete,false,true,NA,NA,1,31,NA,purple,m_l_031.jpg,NA,NA,NA,NA,NA,unpleasant,pleasant,NA,NA,NA,NA,NA,left,1871,true,NA,NA,NA,NA,NA,NA,NA,NA
IbyHIkV8,3dw3bnf1hkvs8co26ehcm6ry22mv8w,35dr22ar5hx0yollles08uc0632x3s,IbyHIkV8,2020-0188,2021-10-30,23:28:24,00:52:30,NA,incomplete,false,true,NA,NA,1,32,NA,purple,m_l_004.jpg,NA,NA,NA,NA,NA,pleasant,unpleasant,NA,NA,NA,NA,NA,left,1271,true,NA,NA,NA,NA,NA,NA,NA,NA
IbyHIkV8,3dw3bnf1hkvs8co26ehcm6ry22mv8w,35dr22ar5hx0yollles08uc0632x3s,IbyHIkV8,2020-0188,2021-10-30,23:28:24,00:52:30,NA,incomplete,false,true,NA,NA,1,33,NA,purple,m_l_032.jpg,NA,NA,NA,NA,NA,unpleasant,pleasant,NA,NA,NA,NA,NA,right,2805,true,NA,NA,NA,NA,NA,NA,NA,NA
IbyHIkV8,3dw3bnf1hkvs8co26ehcm6ry22mv8w,35dr22ar5hx0yollles08uc0632x3s,IbyHIkV8,2020-0188,2021-10-30,23:28:24,00:52:30,NA,incomplete,false,true,NA,NA,1,34,NA,purple,n_l_056.jpg,NA,NA,NA,NA,NA,unpleasant,pleasant,NA,NA,NA,NA,NA,right,1623,true,NA,NA,NA,NA,NA,NA,NA,NA
IbyHIkV8,3dw3bnf1hkvs8co26ehcm6ry22mv8w,35dr22ar5hx0yollles08uc0632x3s,IbyHIkV8,2020-0188,2021-10-30,23:28:24,00:52:30,NA,incomplete,false,true,NA,NA,1,35,NA,purple,m_s_020.jpg,NA,NA,NA,NA,NA,unpleasant,pleasant,NA,NA,NA,NA,NA,left,1352,true,NA,NA,NA,NA,NA,NA,NA,NA
IbyHIkV8,3dw3bnf1hkvs8co26ehcm6ry22mv8w,35dr22ar5hx0yollles08uc0632x3s,IbyHIkV8,2020-0188,2021-10-30,23:28:24,00:52:30,NA,incomplete,false,NA,NA,true,1,0,NA,NA,NA,right,n_l_044.jpg,white,gray,NA,NA,NA,NA,NA,NA,NA,NA,NA,NaN,NA,2521,right,1,NA,NA,NA,NA,NA
IbyHIkV8,3dw3bnf1hkvs8co26ehcm6ry22mv8w,35dr22ar5hx0yollles08uc0632x3s,IbyHIkV8,2020-0188,2021-10-30,23:28:24,00:52:30,NA,incomplete,false,NA,NA,true,1,1,NA,NA,NA,left,n_l_025.jpg,red,purple,NA,NA,NA,NA,NA,NA,NA,NA,NA,NaN,NA,1454,left,1,NA,NA,NA,NA,NA
IbyHIkV8,3dw3bnf1hkvs8co26ehcm6ry22mv8w,35dr22ar5hx0yollles08uc0632x3s,IbyHIkV8,2020-0188,2021-10-30,23:28:24,00:52:30,NA,incomplete,false,NA,NA,true,1,2,NA,NA,NA,left,n_s_018.jpg,yellow,white,NA,NA,NA,NA,NA,NA,NA,NA,NA,NaN,NA,2108,left,1,NA,NA,NA,NA,NA
IbyHIkV8,3dw3bnf1hkvs8co26ehcm6ry22mv8w,35dr22ar5hx0yollles08uc0632x3s,IbyHIkV8,2020-0188,2021-10-30,23:28:24,00:52:30,NA,incomplete,false,NA,NA,true,1,3,NA,NA,NA,left,m_l_079.jpg,black,yellow,NA,NA,NA,NA,NA,NA,NA,NA,NA,NaN,NA,1388,right,0,NA,NA,NA,NA,NA
IbyHIkV8,3dw3bnf1hkvs8co26ehcm6ry22mv8w,35dr22ar5hx0yollles08uc0632x3s,IbyHIkV8,2020-0188,2021-10-30,23:28:24,00:52:30,NA,incomplete,false,NA,NA,true,1,4,NA,NA,NA,right,m_l_016.jpg,yellow,white,NA,NA,NA,NA,NA,NA,NA,NA,NA,NaN,NA,1889,left,0,NA,NA,NA,NA,NA
IbyHIkV8,3dw3bnf1hkvs8co26ehcm6ry22mv8w,35dr22ar5hx0yollles08uc0632x3s,IbyHIkV8,2020-0188,2021-10-30,23:28:24,00:52:30,NA,incomplete,false,NA,NA,true,1,5,NA,NA,NA,left,m_s_020.jpg,purple,red,NA,NA,NA,NA,NA,NA,NA,NA,NA,NaN,NA,1818,left,1,NA,NA,NA,NA,NA
IbyHIkV8,3dw3bnf1hkvs8co26ehcm6ry22mv8w,35dr22ar5hx0yollles08uc0632x3s,IbyHIkV8,2020-0188,2021-10-30,23:28:24,00:52:30,NA,incomplete,false,NA,NA,true,1,6,NA,NA,NA,left,m_l_004.jpg,purple,red,NA,NA,NA,NA,NA,NA,NA,NA,NA,NaN,NA,1593,right,0,NA,NA,NA,NA,NA
IbyHIkV8,3dw3bnf1hkvs8co26ehcm6ry22mv8w,35dr22ar5hx0yollles08uc0632x3s,IbyHIkV8,2020-0188,2021-10-30,23:28:24,00:52:30,NA,incomplete,false,NA,NA,true,1,7,NA,NA,NA,right,m_s_106.jpg,yellow,white,NA,NA,NA,NA,NA,NA,NA,NA,NA,NaN,NA,1751,left,0,NA,NA,NA,NA,NA
IbyHIkV8,3dw3bnf1hkvs8co26ehcm6ry22mv8w,35dr22ar5hx0yollles08uc0632x3s,IbyHIkV8,2020-0188,2021-10-30,23:28:24,00:52:30,NA,incomplete,false,NA,NA,true,1,8,NA,NA,NA,right,m_s_080.jpg,white,gray,NA,NA,NA,NA,NA,NA,NA,NA,NA,NaN,NA,1898,right,1,NA,NA,NA,NA,NA
IbyHIkV8,3dw3bnf1hkvs8co26ehcm6ry22mv8w,35dr22ar5hx0yollles08uc0632x3s,IbyHIkV8,2020-0188,2021-10-30,23:28:24,00:52:30,NA,incomplete,false,NA,NA,true,1,9,NA,NA,NA,right,n_l_036.jpg,black,red,NA,NA,NA,NA,NA,NA,NA,NA,NA,NaN,NA,9355,left,0,NA,NA,NA,NA,NA
IbyHIkV8,3dw3bnf1hkvs8co26ehcm6ry22mv8w,35dr22ar5hx0yollles08uc0632x3s,IbyHIkV8,2020-0188,2021-10-30,23:28:24,00:52:30,NA,incomplete,false,NA,NA,true,1,10,NA,NA,NA,right,n_s_047.jpg,yellow,black,NA,NA,NA,NA,NA,NA,NA,NA,NA,NaN,NA,1597,left,0,NA,NA,NA,NA,NA
IbyHIkV8,3dw3bnf1hkvs8co26ehcm6ry22mv8w,35dr22ar5hx0yollles08uc0632x3s,IbyHIkV8,2020-0188,2021-10-30,23:28:24,00:52:30,NA,incomplete,false,NA,NA,true,1,11,NA,NA,NA,left,m_s_027.jpg,white,gray,NA,NA,NA,NA,NA,NA,NA,NA,NA,NaN,NA,16787,right,0,NA,NA,NA,NA,NA
IbyHIkV8,3dw3bnf1hkvs8co26ehcm6ry22mv8w,35dr22ar5hx0yollles08uc0632x3s,IbyHIkV8,2020-0188,2021-10-30,23:28:24,00:52:30,NA,incomplete,false,NA,NA,true,1,12,NA,NA,NA,right,m_l_057.jpg,white,yellow,NA,NA,NA,NA,NA,NA,NA,NA,NA,NaN,NA,1299,right,1,NA,NA,NA,NA,NA
IbyHIkV8,3dw3bnf1hkvs8co26ehcm6ry22mv8w,35dr22ar5hx0yollles08uc0632x3s,IbyHIkV8,2020-0188,2021-10-30,23:28:24,00:52:30,NA,incomplete,false,NA,NA,true,1,13,NA,NA,NA,left,m_l_082.jpg,yellow,white,NA,NA,NA,NA,NA,NA,NA,NA,NA,NaN,NA,2030,left,1,NA,NA,NA,NA,NA
IbyHIkV8,3dw3bnf1hkvs8co26ehcm6ry22mv8w,35dr22ar5hx0yollles08uc0632x3s,IbyHIkV8,2020-0188,2021-10-30,23:28:24,00:52:30,NA,incomplete,false,NA,NA,true,1,14,NA,NA,NA,left,n_l_018.jpg,gray,white,NA,NA,NA,NA,NA,NA,NA,NA,NA,NaN,NA,1549,left,1,NA,NA,NA,NA,NA
IbyHIkV8,3dw3bnf1hkvs8co26ehcm6ry22mv8w,35dr22ar5hx0yollles08uc0632x3s,IbyHIkV8,2020-0188,2021-10-30,23:28:24,00:52:30,NA,incomplete,false,NA,NA,true,1,15,NA,NA,NA,left,m_l_017.jpg,black,yellow,NA,NA,NA,NA,NA,NA,NA,NA,NA,NaN,NA,1187,right,0,NA,NA,NA,NA,NA
IbyHIkV8,3dw3bnf1hkvs8co26ehcm6ry22mv8w,35dr22ar5hx0yollles08uc0632x3s,IbyHIkV8,2020-0188,2021-10-30,23:28:24,00:52:30,NA,incomplete,false,NA,NA,true,1,16,NA,NA,NA,left,n_s_014.jpg,white,yellow,NA,NA,NA,NA,NA,NA,NA,NA,NA,NaN,NA,1577,right,0,NA,NA,NA,NA,NA
IbyHIkV8,3dw3bnf1hkvs8co26ehcm6ry22mv8w,35dr22ar5hx0yollles08uc0632x3s,IbyHIkV8,2020-0188,2021-10-30,23:28:24,00:52:30,NA,incomplete,false,NA,NA,true,1,17,NA,NA,NA,left,m_l_041.jpg,yellow,black,NA,NA,NA,NA,NA,NA,NA,NA,NA,NaN,NA,3611,left,1,NA,NA,NA,NA,NA
IbyHIkV8,3dw3bnf1hkvs8co26ehcm6ry22mv8w,35dr22ar5hx0yollles08uc0632x3s,IbyHIkV8,2020-0188,2021-10-30,23:28:24,00:52:30,NA,incomplete,false,NA,NA,true,1,18,NA,NA,NA,right,m_l_031.jpg,red,purple,NA,NA,NA,NA,NA,NA,NA,NA,NA,NaN,NA,2697,right,1,NA,NA,NA,NA,NA
IbyHIkV8,3dw3bnf1hkvs8co26ehcm6ry22mv8w,35dr22ar5hx0yollles08uc0632x3s,IbyHIkV8,2020-0188,2021-10-30,23:28:24,00:52:30,NA,incomplete,false,NA,NA,true,1,19,NA,NA,NA,right,n_s_046.jpg,yellow,black,NA,NA,NA,NA,NA,NA,NA,NA,NA,NaN,NA,1580,left,0,NA,NA,NA,NA,NA
IbyHIkV8,3dw3bnf1hkvs8co26ehcm6ry22mv8w,35dr22ar5hx0yollles08uc0632x3s,IbyHIkV8,2020-0188,2021-10-30,23:28:24,00:52:30,NA,incomplete,false,NA,NA,true,1,20,NA,NA,NA,right,n_l_096.jpg,purple,red,NA,NA,NA,NA,NA,NA,NA,NA,NA,NaN,NA,3258,left,0,NA,NA,NA,NA,NA
IbyHIkV8,3dw3bnf1hkvs8co26ehcm6ry22mv8w,35dr22ar5hx0yollles08uc0632x3s,IbyHIkV8,2020-0188,2021-10-30,23:28:24,00:52:30,NA,incomplete,false,NA,NA,true,1,21,NA,NA,NA,right,m_l_054.jpg,black,red,NA,NA,NA,NA,NA,NA,NA,NA,NA,NaN,NA,1344,right,1,NA,NA,NA,NA,NA
IbyHIkV8,3dw3bnf1hkvs8co26ehcm6ry22mv8w,35dr22ar5hx0yollles08uc0632x3s,IbyHIkV8,2020-0188,2021-10-30,23:28:24,00:52:30,NA,incomplete,false,NA,true,NA,1,0,NA,NA,NA,left,NA,NA,NA,present,NA,NA,n_l_018.jpg,gray,m_s_080.jpg,gray,within,NA,NaN,NA,NA,NA,NA,right,4547,0,1,1726
IbyHIkV8,3dw3bnf1hkvs8co26ehcm6ry22mv8w,35dr22ar5hx0yollles08uc0632x3s,IbyHIkV8,2020-0188,2021-10-30,23:28:24,00:52:30,NA,incomplete,false,NA,true,NA,1,1,NA,NA,NA,right,NA,NA,NA,present,NA,NA,m_l_016.jpg,white,n_s_014.jpg,white,within,NA,NaN,NA,NA,NA,NA,left,1699,0,0,3356
IbyHIkV8,3dw3bnf1hkvs8co26ehcm6ry22mv8w,35dr22ar5hx0yollles08uc0632x3s,IbyHIkV8,2020-0188,2021-10-30,23:28:24,00:52:30,NA,incomplete,false,NA,true,NA,1,2,NA,NA,NA,right,NA,NA,NA,present,NA,NA,m_l_041.jpg,yellow,m_l_082.jpg,yellow,within,NA,NaN,NA,NA,NA,NA,right,3097,1,0,1939
IbyHIkV8,3dw3bnf1hkvs8co26ehcm6ry22mv8w,35dr22ar5hx0yollles08uc0632x3s,IbyHIkV8,2020-0188,2021-10-30,23:28:24,00:52:30,NA,incomplete,false,NA,true,NA,1,3,NA,NA,NA,right,NA,NA,NA,present,NA,NA,n_s_047.jpg,black,m_l_057.jpg,yellow,between,NA,NaN,NA,NA,NA,NA,left,3880,0,1,1618
IbyHIkV8,3dw3bnf1hkvs8co26ehcm6ry22mv8w,35dr22ar5hx0yollles08uc0632x3s,IbyHIkV8,2020-0188,2021-10-30,23:28:24,00:52:30,NA,incomplete,false,NA,true,NA,1,4,NA,NA,NA,left,NA,NA,NA,present,NA,NA,m_l_054.jpg,red,m_l_004.jpg,purple,between,NA,NaN,NA,NA,NA,NA,right,2314,0,0,1488
IbyHIkV8,3dw3bnf1hkvs8co26ehcm6ry22mv8w,35dr22ar5hx0yollles08uc0632x3s,IbyHIkV8,2020-0188,2021-10-30,23:28:24,00:52:30,NA,incomplete,false,NA,true,NA,1,5,NA,NA,NA,left,NA,NA,NA,present,NA,NA,m_l_031.jpg,purple,m_s_020.jpg,purple,within,NA,NaN,NA,NA,NA,NA,left,1908,1,1,1630
IbyHIkV8,3dw3bnf1hkvs8co26ehcm6ry22mv8w,35dr22ar5hx0yollles08uc0632x3s,IbyHIkV8,2020-0188,2021-10-30,23:28:24,00:52:30,NA,incomplete,false,NA,true,NA,1,6,NA,NA,NA,right,NA,NA,NA,present,NA,NA,n_l_025.jpg,red,m_l_017.jpg,black,between,NA,NaN,NA,NA,NA,NA,right,5287,1,1,2260
IbyHIkV8,3dw3bnf1hkvs8co26ehcm6ry22mv8w,35dr22ar5hx0yollles08uc0632x3s,IbyHIkV8,2020-0188,2021-10-30,23:28:24,00:52:30,NA,incomplete,false,NA,true,NA,1,7,NA,NA,NA,left,NA,NA,NA,present,NA,NA,n_l_044.jpg,gray,m_s_027.jpg,white,between,NA,NaN,NA,NA,NA,NA,right,3639,0,0,2208
IbyHIkV8,3dw3bnf1hkvs8co26ehcm6ry22mv8w,35dr22ar5hx0yollles08uc0632x3s,IbyHIkV8,2020-0188,2021-10-30,23:28:24,00:52:30,NA,incomplete,false,NA,true,NA,1,8,NA,NA,NA,right,NA,NA,NA,present,NA,NA,n_s_018.jpg,yellow,m_s_106.jpg,white,between,NA,NaN,NA,NA,NA,NA,left,2448,0,0,12514
IbyHIkV8,3dw3bnf1hkvs8co26ehcm6ry22mv8w,35dr22ar5hx0yollles08uc0632x3s,IbyHIkV8,2020-0188,2021-10-30,23:28:24,00:52:30,NA,incomplete,false,NA,true,NA,1,9,NA,NA,NA,right,NA,NA,NA,present,NA,NA,n_l_096.jpg,red,n_l_036.jpg,red,within,NA,NaN,NA,NA,NA,NA,left,7105,0,1,2238
IbyHIkV8,3dw3bnf1hkvs8co26ehcm6ry22mv8w,35dr22ar5hx0yollles08uc0632x3s,IbyHIkV8,2020-0188,2021-10-30,23:28:24,00:52:30,NA,incomplete,false,NA,true,NA,1,10,NA,NA,NA,left,NA,NA,NA,present,NA,NA,n_s_046.jpg,black,m_l_079.jpg,black,within,NA,NaN,NA,NA,NA,NA,right,2779,0,2,1768
IbyHIkV8,3dw3bnf1hkvs8co26ehcm6ry22mv8w,35dr22ar5hx0yollles08uc0632x3s,IbyHIkV8,2020-0188,2021-10-30,23:28:24,00:52:30,NA,incomplete,false,true,NA,NA,2,0,NA,orange,m_l_007.jpg,NA,NA,NA,NA,NA,unpleasant,pleasant,NA,NA,NA,NA,NA,right,2051,true,NA,NA,NA,NA,NA,NA,NA,NA
IbyHIkV8,3dw3bnf1hkvs8co26ehcm6ry22mv8w,35dr22ar5hx0yollles08uc0632x3s,IbyHIkV8,2020-0188,2021-10-30,23:28:24,00:52:30,NA,incomplete,false,true,NA,NA,2,1,NA,orange,n_s_005.jpg,NA,NA,NA,NA,NA,pleasant,unpleasant,NA,NA,NA,NA,NA,left,1705,true,NA,NA,NA,NA,NA,NA,NA,NA
IbyHIkV8,3dw3bnf1hkvs8co26ehcm6ry22mv8w,35dr22ar5hx0yollles08uc0632x3s,IbyHIkV8,2020-0188,2021-10-30,23:28:24,00:52:30,NA,incomplete,false,true,NA,NA,2,2,NA,orange,n_s_101.jpg,NA,NA,NA,NA,NA,pleasant,unpleasant,NA,NA,NA,NA,NA,left,1079,true,NA,NA,NA,NA,NA,NA,NA,NA
IbyHIkV8,3dw3bnf1hkvs8co26ehcm6ry22mv8w,35dr22ar5hx0yollles08uc0632x3s,IbyHIkV8,2020-0188,2021-10-30,23:28:24,00:52:30,NA,incomplete,false,true,NA,NA,2,3,NA,orange,m_s_001.jpg,NA,NA,NA,NA,NA,unpleasant,pleasant,NA,NA,NA,NA,NA,right,1470,true,NA,NA,NA,NA,NA,NA,NA,NA
IbyHIkV8,3dw3bnf1hkvs8co26ehcm6ry22mv8w,35dr22ar5hx0yollles08uc0632x3s,IbyHIkV8,2020-0188,2021-10-30,23:28:24,00:52:30,NA,incomplete,false,true,NA,NA,2,4,NA,orange,m_l_074.jpg,NA,NA,NA,NA,NA,unpleasant,pleasant,NA,NA,NA,NA,NA,right,1439,true,NA,NA,NA,NA,NA,NA,NA,NA
IbyHIkV8,3dw3bnf1hkvs8co26ehcm6ry22mv8w,35dr22ar5hx0yollles08uc0632x3s,IbyHIkV8,2020-0188,2021-10-30,23:28:24,00:52:30,NA,incomplete,false,true,NA,NA,2,5,NA,orange,m_s_074.jpg,NA,NA,NA,NA,NA,pleasant,unpleasant,NA,NA,NA,NA,NA,left,1153,true,NA,NA,NA,NA,NA,NA,NA,NA
IbyHIkV8,3dw3bnf1hkvs8co26ehcm6ry22mv8w,35dr22ar5hx0yollles08uc0632x3s,IbyHIkV8,2020-0188,2021-10-30,23:28:24,00:52:30,NA,incomplete,false,true,NA,NA,2,6,NA,purple,n_l_040.jpg,NA,NA,NA,NA,NA,pleasant,unpleasant,NA,NA,NA,NA,NA,left,1298,true,NA,NA,NA,NA,NA,NA,NA,NA
IbyHIkV8,3dw3bnf1hkvs8co26ehcm6ry22mv8w,35dr22ar5hx0yollles08uc0632x3s,IbyHIkV8,2020-0188,2021-10-30,23:28:24,00:52:30,NA,incomplete,false,true,NA,NA,2,7,NA,purple,m_s_033.jpg,NA,NA,NA,NA,NA,unpleasant,pleasant,NA,NA,NA,NA,NA,right,1012,true,NA,NA,NA,NA,NA,NA,NA,NA
IbyHIkV8,3dw3bnf1hkvs8co26ehcm6ry22mv8w,35dr22ar5hx0yollles08uc0632x3s,IbyHIkV8,2020-0188,2021-10-30,23:28:24,00:52:30,NA,incomplete,false,true,NA,NA,2,8,NA,purple,n_l_058.jpg,NA,NA,NA,NA,NA,pleasant,unpleasant,NA,NA,NA,NA,NA,left,17,true,NA,NA,NA,NA,NA,NA,NA,NA
IbyHIkV8,3dw3bnf1hkvs8co26ehcm6ry22mv8w,35dr22ar5hx0yollles08uc0632x3s,IbyHIkV8,2020-0188,2021-10-30,23:28:24,00:52:30,NA,incomplete,false,true,NA,NA,2,9,NA,purple,m_s_071.jpg,NA,NA,NA,NA,NA,pleasant,unpleasant,NA,NA,NA,NA,NA,left,914,true,NA,NA,NA,NA,NA,NA,NA,NA
IbyHIkV8,3dw3bnf1hkvs8co26ehcm6ry22mv8w,35dr22ar5hx0yollles08uc0632x3s,IbyHIkV8,2020-0188,2021-10-30,23:28:24,00:52:30,NA,incomplete,false,true,NA,NA,2,10,NA,purple,m_s_103.jpg,NA,NA,NA,NA,NA,pleasant,unpleasant,NA,NA,NA,NA,NA,left,1152,true,NA,NA,NA,NA,NA,NA,NA,NA
IbyHIkV8,3dw3bnf1hkvs8co26ehcm6ry22mv8w,35dr22ar5hx0yollles08uc0632x3s,IbyHIkV8,2020-0188,2021-10-30,23:28:24,00:52:30,NA,incomplete,false,true,NA,NA,2,11,NA,purple,m_s_046.jpg,NA,NA,NA,NA,NA,unpleasant,pleasant,NA,NA,NA,NA,NA,right,1307,true,NA,NA,NA,NA,NA,NA,NA,NA
IbyHIkV8,3dw3bnf1hkvs8co26ehcm6ry22mv8w,35dr22ar5hx0yollles08uc0632x3s,IbyHIkV8,2020-0188,2021-10-30,23:28:24,00:52:30,NA,incomplete,false,true,NA,NA,2,12,NA,blue,m_l_059.jpg,NA,NA,NA,NA,NA,pleasant,unpleasant,NA,NA,NA,NA,NA,left,1320,true,NA,NA,NA,NA,NA,NA,NA,NA
IbyHIkV8,3dw3bnf1hkvs8co26ehcm6ry22mv8w,35dr22ar5hx0yollles08uc0632x3s,IbyHIkV8,2020-0188,2021-10-30,23:28:24,00:52:30,NA,incomplete,false,true,NA,NA,2,13,NA,blue,n_s_021.jpg,NA,NA,NA,NA,NA,pleasant,unpleasant,NA,NA,NA,NA,NA,left,1670,true,NA,NA,NA,NA,NA,NA,NA,NA
IbyHIkV8,3dw3bnf1hkvs8co26ehcm6ry22mv8w,35dr22ar5hx0yollles08uc0632x3s,IbyHIkV8,2020-0188,2021-10-30,23:28:24,00:52:30,NA,incomplete,false,true,NA,NA,2,14,NA,blue,m_l_111.jpg,NA,NA,NA,NA,NA,unpleasant,pleasant,NA,NA,NA,NA,NA,right,3090,true,NA,NA,NA,NA,NA,NA,NA,NA
IbyHIkV8,3dw3bnf1hkvs8co26ehcm6ry22mv8w,35dr22ar5hx0yollles08uc0632x3s,IbyHIkV8,2020-0188,2021-10-30,23:28:24,00:52:30,NA,incomplete,false,true,NA,NA,2,15,NA,blue,m_l_065.jpg,NA,NA,NA,NA,NA,pleasant,unpleasant,NA,NA,NA,NA,NA,left,1062,true,NA,NA,NA,NA,NA,NA,NA,NA
IbyHIkV8,3dw3bnf1hkvs8co26ehcm6ry22mv8w,35dr22ar5hx0yollles08uc0632x3s,IbyHIkV8,2020-0188,2021-10-30,23:28:24,00:52:30,NA,incomplete,false,true,NA,NA,2,16,NA,blue,n_s_064.jpg,NA,NA,NA,NA,NA,pleasant,unpleasant,NA,NA,NA,NA,NA,left,1411,true,NA,NA,NA,NA,NA,NA,NA,NA
IbyHIkV8,3dw3bnf1hkvs8co26ehcm6ry22mv8w,35dr22ar5hx0yollles08uc0632x3s,IbyHIkV8,2020-0188,2021-10-30,23:28:24,00:52:30,NA,incomplete,false,true,NA,NA,2,17,NA,blue,n_s_026.jpg,NA,NA,NA,NA,NA,pleasant,unpleasant,NA,NA,NA,NA,NA,left,1526,true,NA,NA,NA,NA,NA,NA,NA,NA
IbyHIkV8,3dw3bnf1hkvs8co26ehcm6ry22mv8w,35dr22ar5hx0yollles08uc0632x3s,IbyHIkV8,2020-0188,2021-10-30,23:28:24,00:52:30,NA,incomplete,false,true,NA,NA,2,18,NA,green,m_s_021.jpg,NA,NA,NA,NA,NA,pleasant,unpleasant,NA,NA,NA,NA,NA,left,970,true,NA,NA,NA,NA,NA,NA,NA,NA
IbyHIkV8,3dw3bnf1hkvs8co26ehcm6ry22mv8w,35dr22ar5hx0yollles08uc0632x3s,IbyHIkV8,2020-0188,2021-10-30,23:28:24,00:52:30,NA,incomplete,false,true,NA,NA,2,19,NA,green,m_s_038.jpg,NA,NA,NA,NA,NA,pleasant,unpleasant,NA,NA,NA,NA,NA,left,1156,true,NA,NA,NA,NA,NA,NA,NA,NA
IbyHIkV8,3dw3bnf1hkvs8co26ehcm6ry22mv8w,35dr22ar5hx0yollles08uc0632x3s,IbyHIkV8,2020-0188,2021-10-30,23:28:24,00:52:30,NA,incomplete,false,true,NA,NA,2,20,NA,green,n_s_071.jpg,NA,NA,NA,NA,NA,pleasant,unpleasant,NA,NA,NA,NA,NA,left,916,true,NA,NA,NA,NA,NA,NA,NA,NA
IbyHIkV8,3dw3bnf1hkvs8co26ehcm6ry22mv8w,35dr22ar5hx0yollles08uc0632x3s,IbyHIkV8,2020-0188,2021-10-30,23:28:24,00:52:30,NA,incomplete,false,true,NA,NA,2,21,NA,green,m_s_100.jpg,NA,NA,NA,NA,NA,pleasant,unpleasant,NA,NA,NA,NA,NA,left,1086,true,NA,NA,NA,NA,NA,NA,NA,NA
IbyHIkV8,3dw3bnf1hkvs8co26ehcm6ry22mv8w,35dr22ar5hx0yollles08uc0632x3s,IbyHIkV8,2020-0188,2021-10-30,23:28:24,00:52:30,NA,incomplete,false,true,NA,NA,2,22,NA,green,m_l_101.jpg,NA,NA,NA,NA,NA,pleasant,unpleasant,NA,NA,NA,NA,NA,none,0,false,NA,NA,NA,NA,NA,NA,NA,NA
IbyHIkV8,3dw3bnf1hkvs8co26ehcm6ry22mv8w,35dr22ar5hx0yollles08uc0632x3s,IbyHIkV8,2020-0188,2021-10-30,23:28:24,00:52:30,NA,incomplete,false,true,NA,NA,2,23,NA,green,n_l_024.jpg,NA,NA,NA,NA,NA,unpleasant,pleasant,NA,NA,NA,NA,NA,left,630,true,NA,NA,NA,NA,NA,NA,NA,NA
IbyHIkV8,3dw3bnf1hkvs8co26ehcm6ry22mv8w,35dr22ar5hx0yollles08uc0632x3s,IbyHIkV8,2020-0188,2021-10-30,23:28:24,00:52:30,NA,incomplete,false,true,NA,NA,2,24,NA,red,n_s_057.jpg,NA,NA,NA,NA,NA,pleasant,unpleasant,NA,NA,NA,NA,NA,left,1259,true,NA,NA,NA,NA,NA,NA,NA,NA
IbyHIkV8,3dw3bnf1hkvs8co26ehcm6ry22mv8w,35dr22ar5hx0yollles08uc0632x3s,IbyHIkV8,2020-0188,2021-10-30,23:28:24,00:52:30,NA,incomplete,false,true,NA,NA,2,25,NA,red,n_s_061.jpg,NA,NA,NA,NA,NA,unpleasant,pleasant,NA,NA,NA,NA,NA,right,1951,true,NA,NA,NA,NA,NA,NA,NA,NA
IbyHIkV8,3dw3bnf1hkvs8co26ehcm6ry22mv8w,35dr22ar5hx0yollles08uc0632x3s,IbyHIkV8,2020-0188,2021-10-30,23:28:24,00:52:30,NA,incomplete,false,true,NA,NA,2,26,NA,red,m_l_036.jpg,NA,NA,NA,NA,NA,unpleasant,pleasant,NA,NA,NA,NA,NA,left,1718,true,NA,NA,NA,NA,NA,NA,NA,NA
IbyHIkV8,3dw3bnf1hkvs8co26ehcm6ry22mv8w,35dr22ar5hx0yollles08uc0632x3s,IbyHIkV8,2020-0188,2021-10-30,23:28:24,00:52:30,NA,incomplete,false,true,NA,NA,2,27,NA,red,m_s_010.jpg,NA,NA,NA,NA,NA,pleasant,unpleasant,NA,NA,NA,NA,NA,left,1265,true,NA,NA,NA,NA,NA,NA,NA,NA
IbyHIkV8,3dw3bnf1hkvs8co26ehcm6ry22mv8w,35dr22ar5hx0yollles08uc0632x3s,IbyHIkV8,2020-0188,2021-10-30,23:28:24,00:52:30,NA,incomplete,false,true,NA,NA,2,28,NA,red,m_s_076.jpg,NA,NA,NA,NA,NA,pleasant,unpleasant,NA,NA,NA,NA,NA,left,1507,true,NA,NA,NA,NA,NA,NA,NA,NA
IbyHIkV8,3dw3bnf1hkvs8co26ehcm6ry22mv8w,35dr22ar5hx0yollles08uc0632x3s,IbyHIkV8,2020-0188,2021-10-30,23:28:24,00:52:30,NA,incomplete,false,true,NA,NA,2,29,NA,red,m_s_043.jpg,NA,NA,NA,NA,NA,unpleasant,pleasant,NA,NA,NA,NA,NA,right,1076,true,NA,NA,NA,NA,NA,NA,NA,NA
IbyHIkV8,3dw3bnf1hkvs8co26ehcm6ry22mv8w,35dr22ar5hx0yollles08uc0632x3s,IbyHIkV8,2020-0188,2021-10-30,23:28:24,00:52:30,NA,incomplete,false,true,NA,NA,2,30,NA,white,m_s_053.jpg,NA,NA,NA,NA,NA,unpleasant,pleasant,NA,NA,NA,NA,NA,right,1025,true,NA,NA,NA,NA,NA,NA,NA,NA
IbyHIkV8,3dw3bnf1hkvs8co26ehcm6ry22mv8w,35dr22ar5hx0yollles08uc0632x3s,IbyHIkV8,2020-0188,2021-10-30,23:28:24,00:52:30,NA,incomplete,false,true,NA,NA,2,31,NA,white,n_l_075.jpg,NA,NA,NA,NA,NA,pleasant,unpleasant,NA,NA,NA,NA,NA,left,1049,true,NA,NA,NA,NA,NA,NA,NA,NA
IbyHIkV8,3dw3bnf1hkvs8co26ehcm6ry22mv8w,35dr22ar5hx0yollles08uc0632x3s,IbyHIkV8,2020-0188,2021-10-30,23:28:24,00:52:30,NA,incomplete,false,true,NA,NA,2,32,NA,white,n_l_077.jpg,NA,NA,NA,NA,NA,unpleasant,pleasant,NA,NA,NA,NA,NA,right,1208,true,NA,NA,NA,NA,NA,NA,NA,NA
IbyHIkV8,3dw3bnf1hkvs8co26ehcm6ry22mv8w,35dr22ar5hx0yollles08uc0632x3s,IbyHIkV8,2020-0188,2021-10-30,23:28:24,00:52:30,NA,incomplete,false,true,NA,NA,2,33,NA,white,m_s_035.jpg,NA,NA,NA,NA,NA,unpleasant,pleasant,NA,NA,NA,NA,NA,left,1756,true,NA,NA,NA,NA,NA,NA,NA,NA
IbyHIkV8,3dw3bnf1hkvs8co26ehcm6ry22mv8w,35dr22ar5hx0yollles08uc0632x3s,IbyHIkV8,2020-0188,2021-10-30,23:28:24,00:52:30,NA,incomplete,false,true,NA,NA,2,34,NA,white,n_s_099.jpg,NA,NA,NA,NA,NA,unpleasant,pleasant,NA,NA,NA,NA,NA,right,1774,true,NA,NA,NA,NA,NA,NA,NA,NA
IbyHIkV8,3dw3bnf1hkvs8co26ehcm6ry22mv8w,35dr22ar5hx0yollles08uc0632x3s,IbyHIkV8,2020-0188,2021-10-30,23:28:24,00:52:30,NA,incomplete,false,true,NA,NA,2,35,NA,white,m_l_049.jpg,NA,NA,NA,NA,NA,pleasant,unpleasant,NA,NA,NA,NA,NA,left,1641,true,NA,NA,NA,NA,NA,NA,NA,NA
IbyHIkV8,3dw3bnf1hkvs8co26ehcm6ry22mv8w,35dr22ar5hx0yollles08uc0632x3s,IbyHIkV8,2020-0188,2021-10-30,23:28:24,00:52:30,NA,incomplete,false,NA,NA,true,2,0,NA,NA,NA,left,m_s_074.jpg,orange,purple,NA,NA,NA,NA,NA,NA,NA,NA,NA,NaN,NA,3821,left,1,NA,NA,NA,NA,NA
IbyHIkV8,3dw3bnf1hkvs8co26ehcm6ry22mv8w,35dr22ar5hx0yollles08uc0632x3s,IbyHIkV8,2020-0188,2021-10-30,23:28:24,00:52:30,NA,incomplete,false,NA,NA,true,2,1,NA,NA,NA,left,n_l_058.jpg,purple,orange,NA,NA,NA,NA,NA,NA,NA,NA,NA,NaN,NA,2069,left,1,NA,NA,NA,NA,NA
IbyHIkV8,3dw3bnf1hkvs8co26ehcm6ry22mv8w,35dr22ar5hx0yollles08uc0632x3s,IbyHIkV8,2020-0188,2021-10-30,23:28:24,00:52:30,NA,incomplete,false,NA,NA,true,2,2,NA,NA,NA,right,n_s_026.jpg,purple,blue,NA,NA,NA,NA,NA,NA,NA,NA,NA,NaN,NA,3999,left,0,NA,NA,NA,NA,NA
IbyHIkV8,3dw3bnf1hkvs8co26ehcm6ry22mv8w,35dr22ar5hx0yollles08uc0632x3s,IbyHIkV8,2020-0188,2021-10-30,23:28:24,00:52:30,NA,incomplete,false,NA,NA,true,2,3,NA,NA,NA,left,m_s_033.jpg,purple,blue,NA,NA,NA,NA,NA,NA,NA,NA,NA,NaN,NA,1768,left,1,NA,NA,NA,NA,NA
IbyHIkV8,3dw3bnf1hkvs8co26ehcm6ry22mv8w,35dr22ar5hx0yollles08uc0632x3s,IbyHIkV8,2020-0188,2021-10-30,23:28:24,00:52:30,NA,incomplete,false,NA,NA,true,2,4,NA,NA,NA,right,n_s_005.jpg,purple,orange,NA,NA,NA,NA,NA,NA,NA,NA,NA,NaN,NA,2278,left,0,NA,NA,NA,NA,NA
IbyHIkV8,3dw3bnf1hkvs8co26ehcm6ry22mv8w,35dr22ar5hx0yollles08uc0632x3s,IbyHIkV8,2020-0188,2021-10-30,23:28:24,00:52:30,NA,incomplete,false,NA,NA,true,2,5,NA,NA,NA,left,m_s_076.jpg,red,white,NA,NA,NA,NA,NA,NA,NA,NA,NA,NaN,NA,3841,right,0,NA,NA,NA,NA,NA
IbyHIkV8,3dw3bnf1hkvs8co26ehcm6ry22mv8w,35dr22ar5hx0yollles08uc0632x3s,IbyHIkV8,2020-0188,2021-10-30,23:28:24,00:52:30,NA,incomplete,false,NA,NA,true,2,6,NA,NA,NA,left,n_s_021.jpg,blue,green,NA,NA,NA,NA,NA,NA,NA,NA,NA,NaN,NA,3854,left,1,NA,NA,NA,NA,NA
IbyHIkV8,3dw3bnf1hkvs8co26ehcm6ry22mv8w,35dr22ar5hx0yollles08uc0632x3s,IbyHIkV8,2020-0188,2021-10-30,23:28:24,00:52:30,NA,incomplete,false,NA,NA,true,2,7,NA,NA,NA,right,m_l_111.jpg,green,blue,NA,NA,NA,NA,NA,NA,NA,NA,NA,NaN,NA,3702,right,1,NA,NA,NA,NA,NA
IbyHIkV8,3dw3bnf1hkvs8co26ehcm6ry22mv8w,35dr22ar5hx0yollles08uc0632x3s,IbyHIkV8,2020-0188,2021-10-30,23:28:24,00:52:30,NA,incomplete,false,NA,NA,true,2,8,NA,NA,NA,right,m_l_101.jpg,red,green,NA,NA,NA,NA,NA,NA,NA,NA,NA,NaN,NA,4436,left,0,NA,NA,NA,NA,NA
IbyHIkV8,3dw3bnf1hkvs8co26ehcm6ry22mv8w,35dr22ar5hx0yollles08uc0632x3s,IbyHIkV8,2020-0188,2021-10-30,23:28:24,00:52:30,NA,incomplete,false,NA,NA,true,2,9,NA,NA,NA,left,n_s_071.jpg,green,red,NA,NA,NA,NA,NA,NA,NA,NA,NA,NaN,NA,3196,left,1,NA,NA,NA,NA,NA
IbyHIkV8,3dw3bnf1hkvs8co26ehcm6ry22mv8w,35dr22ar5hx0yollles08uc0632x3s,IbyHIkV8,2020-0188,2021-10-30,23:28:24,00:52:30,NA,incomplete,false,NA,NA,true,2,10,NA,NA,NA,right,n_l_024.jpg,blue,green,NA,NA,NA,NA,NA,NA,NA,NA,NA,NaN,NA,5678,left,0,NA,NA,NA,NA,NA
IbyHIkV8,3dw3bnf1hkvs8co26ehcm6ry22mv8w,35dr22ar5hx0yollles08uc0632x3s,IbyHIkV8,2020-0188,2021-10-30,23:28:24,00:52:30,NA,incomplete,false,NA,NA,true,2,11,NA,NA,NA,right,n_l_075.jpg,red,white,NA,NA,NA,NA,NA,NA,NA,NA,NA,NaN,NA,1572,right,1,NA,NA,NA,NA,NA
IbyHIkV8,3dw3bnf1hkvs8co26ehcm6ry22mv8w,35dr22ar5hx0yollles08uc0632x3s,IbyHIkV8,2020-0188,2021-10-30,23:28:24,00:52:30,NA,incomplete,false,NA,NA,true,2,12,NA,NA,NA,right,n_s_064.jpg,purple,blue,NA,NA,NA,NA,NA,NA,NA,NA,NA,NaN,NA,4162,right,1,NA,NA,NA,NA,NA
IbyHIkV8,3dw3bnf1hkvs8co26ehcm6ry22mv8w,35dr22ar5hx0yollles08uc0632x3s,IbyHIkV8,2020-0188,2021-10-30,23:28:24,00:52:30,NA,incomplete,false,NA,NA,true,2,13,NA,NA,NA,left,m_s_046.jpg,purple,blue,NA,NA,NA,NA,NA,NA,NA,NA,NA,NaN,NA,2388,right,0,NA,NA,NA,NA,NA
IbyHIkV8,3dw3bnf1hkvs8co26ehcm6ry22mv8w,35dr22ar5hx0yollles08uc0632x3s,IbyHIkV8,2020-0188,2021-10-30,23:28:24,00:52:30,NA,incomplete,false,NA,NA,true,2,14,NA,NA,NA,left,m_s_038.jpg,green,blue,NA,NA,NA,NA,NA,NA,NA,NA,NA,NaN,NA,3336,right,0,NA,NA,NA,NA,NA
IbyHIkV8,3dw3bnf1hkvs8co26ehcm6ry22mv8w,35dr22ar5hx0yollles08uc0632x3s,IbyHIkV8,2020-0188,2021-10-30,23:28:24,00:52:30,NA,incomplete,false,NA,NA,true,2,15,NA,NA,NA,right,m_l_049.jpg,red,white,NA,NA,NA,NA,NA,NA,NA,NA,NA,NaN,NA,2850,right,1,NA,NA,NA,NA,NA
IbyHIkV8,3dw3bnf1hkvs8co26ehcm6ry22mv8w,35dr22ar5hx0yollles08uc0632x3s,IbyHIkV8,2020-0188,2021-10-30,23:28:24,00:52:30,NA,incomplete,false,NA,NA,true,2,16,NA,NA,NA,left,m_s_043.jpg,red,white,NA,NA,NA,NA,NA,NA,NA,NA,NA,NaN,NA,1626,left,1,NA,NA,NA,NA,NA
IbyHIkV8,3dw3bnf1hkvs8co26ehcm6ry22mv8w,35dr22ar5hx0yollles08uc0632x3s,IbyHIkV8,2020-0188,2021-10-30,23:28:24,00:52:30,NA,incomplete,false,NA,NA,true,2,17,NA,NA,NA,right,n_l_077.jpg,red,white,NA,NA,NA,NA,NA,NA,NA,NA,NA,NaN,NA,3051,right,1,NA,NA,NA,NA,NA
IbyHIkV8,3dw3bnf1hkvs8co26ehcm6ry22mv8w,35dr22ar5hx0yollles08uc0632x3s,IbyHIkV8,2020-0188,2021-10-30,23:28:24,00:52:30,NA,incomplete,false,NA,NA,true,2,18,NA,NA,NA,left,m_l_074.jpg,orange,purple,NA,NA,NA,NA,NA,NA,NA,NA,NA,NaN,NA,2224,right,0,NA,NA,NA,NA,NA
IbyHIkV8,3dw3bnf1hkvs8co26ehcm6ry22mv8w,35dr22ar5hx0yollles08uc0632x3s,IbyHIkV8,2020-0188,2021-10-30,23:28:24,00:52:30,NA,incomplete,false,NA,NA,true,2,19,NA,NA,NA,left,m_l_036.jpg,red,white,NA,NA,NA,NA,NA,NA,NA,NA,NA,NaN,NA,1928,left,1,NA,NA,NA,NA,NA
IbyHIkV8,3dw3bnf1hkvs8co26ehcm6ry22mv8w,35dr22ar5hx0yollles08uc0632x3s,IbyHIkV8,2020-0188,2021-10-30,23:28:24,00:52:30,NA,incomplete,false,NA,NA,true,2,20,NA,NA,NA,right,n_s_061.jpg,white,red,NA,NA,NA,NA,NA,NA,NA,NA,NA,NaN,NA,6988,left,0,NA,NA,NA,NA,NA
IbyHIkV8,3dw3bnf1hkvs8co26ehcm6ry22mv8w,35dr22ar5hx0yollles08uc0632x3s,IbyHIkV8,2020-0188,2021-10-30,23:28:24,00:52:30,NA,incomplete,false,NA,NA,true,2,21,NA,NA,NA,right,m_s_103.jpg,blue,purple,NA,NA,NA,NA,NA,NA,NA,NA,NA,NaN,NA,2831,right,1,NA,NA,NA,NA,NA
IbyHIkV8,3dw3bnf1hkvs8co26ehcm6ry22mv8w,35dr22ar5hx0yollles08uc0632x3s,IbyHIkV8,2020-0188,2021-10-30,23:28:24,00:52:30,NA,incomplete,false,NA,true,NA,2,0,NA,NA,NA,right,NA,NA,NA,present,NA,NA,n_l_024.jpg,green,m_s_038.jpg,green,within,NA,NaN,NA,NA,NA,NA,left,3503,0,1,1519
IbyHIkV8,3dw3bnf1hkvs8co26ehcm6ry22mv8w,35dr22ar5hx0yollles08uc0632x3s,IbyHIkV8,2020-0188,2021-10-30,23:28:24,00:52:30,NA,incomplete,false,NA,true,NA,2,1,NA,NA,NA,left,NA,NA,NA,present,NA,NA,m_s_076.jpg,red,n_l_077.jpg,white,between,NA,NaN,NA,NA,NA,NA,right,2706,0,1,1630
IbyHIkV8,3dw3bnf1hkvs8co26ehcm6ry22mv8w,35dr22ar5hx0yollles08uc0632x3s,IbyHIkV8,2020-0188,2021-10-30,23:28:24,00:52:30,NA,incomplete,false,NA,true,NA,2,2,NA,NA,NA,right,NA,NA,NA,present,NA,NA,m_s_074.jpg,orange,n_s_005.jpg,orange,within,NA,NaN,NA,NA,NA,NA,left,2161,0,1,1509
IbyHIkV8,3dw3bnf1hkvs8co26ehcm6ry22mv8w,35dr22ar5hx0yollles08uc0632x3s,IbyHIkV8,2020-0188,2021-10-30,23:28:24,00:52:30,NA,incomplete,false,NA,true,NA,2,3,NA,NA,NA,left,NA,NA,NA,present,NA,NA,n_s_064.jpg,blue,n_s_071.jpg,green,between,NA,NaN,NA,NA,NA,NA,left,5060,1,1,1401
IbyHIkV8,3dw3bnf1hkvs8co26ehcm6ry22mv8w,35dr22ar5hx0yollles08uc0632x3s,IbyHIkV8,2020-0188,2021-10-30,23:28:24,00:52:30,NA,incomplete,false,NA,true,NA,2,4,NA,NA,NA,right,NA,NA,NA,present,NA,NA,m_s_043.jpg,red,n_s_061.jpg,red,within,NA,NaN,NA,NA,NA,NA,right,3530,1,1,1776
IbyHIkV8,3dw3bnf1hkvs8co26ehcm6ry22mv8w,35dr22ar5hx0yollles08uc0632x3s,IbyHIkV8,2020-0188,2021-10-30,23:28:24,00:52:30,NA,incomplete,false,NA,true,NA,2,5,NA,NA,NA,left,NA,NA,NA,present,NA,NA,m_s_103.jpg,purple,m_l_111.jpg,blue,between,NA,NaN,NA,NA,NA,NA,right,2808,0,2,1179
IbyHIkV8,3dw3bnf1hkvs8co26ehcm6ry22mv8w,35dr22ar5hx0yollles08uc0632x3s,IbyHIkV8,2020-0188,2021-10-30,23:28:24,00:52:30,NA,incomplete,false,NA,true,NA,2,6,NA,NA,NA,left,NA,NA,NA,present,NA,NA,m_l_101.jpg,green,m_l_036.jpg,red,between,NA,NaN,NA,NA,NA,NA,right,3657,0,1,1892
IbyHIkV8,3dw3bnf1hkvs8co26ehcm6ry22mv8w,35dr22ar5hx0yollles08uc0632x3s,IbyHIkV8,2020-0188,2021-10-30,23:28:24,00:52:30,NA,incomplete,false,NA,true,NA,2,7,NA,NA,NA,left,NA,NA,NA,present,NA,NA,m_s_033.jpg,purple,m_s_046.jpg,purple,within,NA,NaN,NA,NA,NA,NA,right,3153,0,1,2166
IbyHIkV8,3dw3bnf1hkvs8co26ehcm6ry22mv8w,35dr22ar5hx0yollles08uc0632x3s,IbyHIkV8,2020-0188,2021-10-30,23:28:24,00:52:30,NA,incomplete,false,NA,true,NA,2,8,NA,NA,NA,left,NA,NA,NA,present,NA,NA,n_l_075.jpg,white,m_l_049.jpg,white,within,NA,NaN,NA,NA,NA,NA,left,2559,1,1,1388
IbyHIkV8,3dw3bnf1hkvs8co26ehcm6ry22mv8w,35dr22ar5hx0yollles08uc0632x3s,IbyHIkV8,2020-0188,2021-10-30,23:28:24,00:52:30,NA,incomplete,false,NA,true,NA,2,9,NA,NA,NA,left,NA,NA,NA,present,NA,NA,n_s_021.jpg,blue,n_s_026.jpg,blue,within,NA,NaN,NA,NA,NA,NA,right,3086,0,1,1490
IbyHIkV8,3dw3bnf1hkvs8co26ehcm6ry22mv8w,35dr22ar5hx0yollles08uc0632x3s,IbyHIkV8,2020-0188,2021-10-30,23:28:24,00:52:30,NA,incomplete,false,NA,true,NA,2,10,NA,NA,NA,left,NA,NA,NA,present,NA,NA,m_l_074.jpg,orange,n_l_058.jpg,purple,between,NA,NaN,NA,NA,NA,NA,left,4399,1,0,1898
IbyHIkV8,3dw3bnf1hkvs8co26ehcm6ry22mv8w,35dr22ar5hx0yollles08uc0632x3s,IbyHIkV8,2020-0188,2021-10-30,23:28:24,00:52:30,NA,incomplete,false,true,NA,NA,3,0,NA,purple,m_s_032.jpg,NA,NA,NA,NA,NA,pleasant,unpleasant,NA,NA,NA,NA,NA,left,2427,true,NA,NA,NA,NA,NA,NA,NA,NA
IbyHIkV8,3dw3bnf1hkvs8co26ehcm6ry22mv8w,35dr22ar5hx0yollles08uc0632x3s,IbyHIkV8,2020-0188,2021-10-30,23:28:24,00:52:30,NA,incomplete,false,true,NA,NA,3,1,NA,purple,n_s_097.jpg,NA,NA,NA,NA,NA,unpleasant,pleasant,NA,NA,NA,NA,NA,right,1841,true,NA,NA,NA,NA,NA,NA,NA,NA
IbyHIkV8,3dw3bnf1hkvs8co26ehcm6ry22mv8w,35dr22ar5hx0yollles08uc0632x3s,IbyHIkV8,2020-0188,2021-10-30,23:28:24,00:52:30,NA,incomplete,false,true,NA,NA,3,2,NA,purple,m_l_073.jpg,NA,NA,NA,NA,NA,pleasant,unpleasant,NA,NA,NA,NA,NA,left,1475,true,NA,NA,NA,NA,NA,NA,NA,NA
IbyHIkV8,3dw3bnf1hkvs8co26ehcm6ry22mv8w,35dr22ar5hx0yollles08uc0632x3s,IbyHIkV8,2020-0188,2021-10-30,23:28:24,00:52:30,NA,incomplete,false,true,NA,NA,3,3,NA,purple,m_s_090.jpg,NA,NA,NA,NA,NA,unpleasant,pleasant,NA,NA,NA,NA,NA,right,960,true,NA,NA,NA,NA,NA,NA,NA,NA
IbyHIkV8,3dw3bnf1hkvs8co26ehcm6ry22mv8w,35dr22ar5hx0yollles08uc0632x3s,IbyHIkV8,2020-0188,2021-10-30,23:28:24,00:52:30,NA,incomplete,false,true,NA,NA,3,4,NA,purple,n_l_073.jpg,NA,NA,NA,NA,NA,pleasant,unpleasant,NA,NA,NA,NA,NA,left,994,true,NA,NA,NA,NA,NA,NA,NA,NA
IbyHIkV8,3dw3bnf1hkvs8co26ehcm6ry22mv8w,35dr22ar5hx0yollles08uc0632x3s,IbyHIkV8,2020-0188,2021-10-30,23:28:24,00:52:30,NA,incomplete,false,true,NA,NA,3,5,NA,purple,m_l_114.jpg,NA,NA,NA,NA,NA,unpleasant,pleasant,NA,NA,NA,NA,NA,right,1302,true,NA,NA,NA,NA,NA,NA,NA,NA
IbyHIkV8,3dw3bnf1hkvs8co26ehcm6ry22mv8w,35dr22ar5hx0yollles08uc0632x3s,IbyHIkV8,2020-0188,2021-10-30,23:28:24,00:52:30,NA,incomplete,false,true,NA,NA,3,6,NA,brown,m_l_003.jpg,NA,NA,NA,NA,NA,pleasant,unpleasant,NA,NA,NA,NA,NA,left,1572,true,NA,NA,NA,NA,NA,NA,NA,NA
IbyHIkV8,3dw3bnf1hkvs8co26ehcm6ry22mv8w,35dr22ar5hx0yollles08uc0632x3s,IbyHIkV8,2020-0188,2021-10-30,23:28:24,00:52:30,NA,incomplete,false,true,NA,NA,3,7,NA,brown,m_l_048.jpg,NA,NA,NA,NA,NA,unpleasant,pleasant,NA,NA,NA,NA,NA,right,1024,true,NA,NA,NA,NA,NA,NA,NA,NA
IbyHIkV8,3dw3bnf1hkvs8co26ehcm6ry22mv8w,35dr22ar5hx0yollles08uc0632x3s,IbyHIkV8,2020-0188,2021-10-30,23:28:24,00:52:30,NA,incomplete,false,true,NA,NA,3,8,NA,brown,m_s_069.jpg,NA,NA,NA,NA,NA,pleasant,unpleasant,NA,NA,NA,NA,NA,left,1063,true,NA,NA,NA,NA,NA,NA,NA,NA
IbyHIkV8,3dw3bnf1hkvs8co26ehcm6ry22mv8w,35dr22ar5hx0yollles08uc0632x3s,IbyHIkV8,2020-0188,2021-10-30,23:28:24,00:52:30,NA,incomplete,false,true,NA,NA,3,9,NA,brown,n_l_069.jpg,NA,NA,NA,NA,NA,unpleasant,pleasant,NA,NA,NA,NA,NA,right,1213,true,NA,NA,NA,NA,NA,NA,NA,NA
IbyHIkV8,3dw3bnf1hkvs8co26ehcm6ry22mv8w,35dr22ar5hx0yollles08uc0632x3s,IbyHIkV8,2020-0188,2021-10-30,23:28:24,00:52:30,NA,incomplete,false,true,NA,NA,3,10,NA,brown,m_s_007.jpg,NA,NA,NA,NA,NA,pleasant,unpleasant,NA,NA,NA,NA,NA,left,1206,true,NA,NA,NA,NA,NA,NA,NA,NA
IbyHIkV8,3dw3bnf1hkvs8co26ehcm6ry22mv8w,35dr22ar5hx0yollles08uc0632x3s,IbyHIkV8,2020-0188,2021-10-30,23:28:24,00:52:30,NA,incomplete,false,true,NA,NA,3,11,NA,brown,n_l_117.jpg,NA,NA,NA,NA,NA,unpleasant,pleasant,NA,NA,NA,NA,NA,left,1131,true,NA,NA,NA,NA,NA,NA,NA,NA
IbyHIkV8,3dw3bnf1hkvs8co26ehcm6ry22mv8w,35dr22ar5hx0yollles08uc0632x3s,IbyHIkV8,2020-0188,2021-10-30,23:28:24,00:52:30,NA,incomplete,false,true,NA,NA,3,12,NA,blue,n_l_011.jpg,NA,NA,NA,NA,NA,pleasant,unpleasant,NA,NA,NA,NA,NA,left,1275,true,NA,NA,NA,NA,NA,NA,NA,NA
IbyHIkV8,3dw3bnf1hkvs8co26ehcm6ry22mv8w,35dr22ar5hx0yollles08uc0632x3s,IbyHIkV8,2020-0188,2021-10-30,23:28:24,00:52:30,NA,incomplete,false,true,NA,NA,3,13,NA,blue,n_l_052.jpg,NA,NA,NA,NA,NA,pleasant,unpleasant,NA,NA,NA,NA,NA,left,1720,true,NA,NA,NA,NA,NA,NA,NA,NA
IbyHIkV8,3dw3bnf1hkvs8co26ehcm6ry22mv8w,35dr22ar5hx0yollles08uc0632x3s,IbyHIkV8,2020-0188,2021-10-30,23:28:24,00:52:30,NA,incomplete,false,true,NA,NA,3,14,NA,blue,n_l_088.jpg,NA,NA,NA,NA,NA,unpleasant,pleasant,NA,NA,NA,NA,NA,left,2025,true,NA,NA,NA,NA,NA,NA,NA,NA
IbyHIkV8,3dw3bnf1hkvs8co26ehcm6ry22mv8w,35dr22ar5hx0yollles08uc0632x3s,IbyHIkV8,2020-0188,2021-10-30,23:28:24,00:52:30,NA,incomplete,false,true,NA,NA,3,15,NA,blue,m_l_068.jpg,NA,NA,NA,NA,NA,pleasant,unpleasant,NA,NA,NA,NA,NA,left,1923,true,NA,NA,NA,NA,NA,NA,NA,NA
IbyHIkV8,3dw3bnf1hkvs8co26ehcm6ry22mv8w,35dr22ar5hx0yollles08uc0632x3s,IbyHIkV8,2020-0188,2021-10-30,23:28:24,00:52:30,NA,incomplete,false,true,NA,NA,3,16,NA,blue,n_s_108.jpg,NA,NA,NA,NA,NA,unpleasant,pleasant,NA,NA,NA,NA,NA,right,1222,true,NA,NA,NA,NA,NA,NA,NA,NA
IbyHIkV8,3dw3bnf1hkvs8co26ehcm6ry22mv8w,35dr22ar5hx0yollles08uc0632x3s,IbyHIkV8,2020-0188,2021-10-30,23:28:24,00:52:30,NA,incomplete,false,true,NA,NA,3,17,NA,blue,m_l_047.jpg,NA,NA,NA,NA,NA,unpleasant,pleasant,NA,NA,NA,NA,NA,right,2101,true,NA,NA,NA,NA,NA,NA,NA,NA
IbyHIkV8,3dw3bnf1hkvs8co26ehcm6ry22mv8w,35dr22ar5hx0yollles08uc0632x3s,IbyHIkV8,2020-0188,2021-10-30,23:28:24,00:52:30,NA,incomplete,false,true,NA,NA,3,18,NA,red,m_l_061.jpg,NA,NA,NA,NA,NA,unpleasant,pleasant,NA,NA,NA,NA,NA,right,1808,true,NA,NA,NA,NA,NA,NA,NA,NA
IbyHIkV8,3dw3bnf1hkvs8co26ehcm6ry22mv8w,35dr22ar5hx0yollles08uc0632x3s,IbyHIkV8,2020-0188,2021-10-30,23:28:24,00:52:30,NA,incomplete,false,true,NA,NA,3,19,NA,red,m_s_059.jpg,NA,NA,NA,NA,NA,unpleasant,pleasant,NA,NA,NA,NA,NA,right,1121,true,NA,NA,NA,NA,NA,NA,NA,NA
IbyHIkV8,3dw3bnf1hkvs8co26ehcm6ry22mv8w,35dr22ar5hx0yollles08uc0632x3s,IbyHIkV8,2020-0188,2021-10-30,23:28:24,00:52:30,NA,incomplete,false,true,NA,NA,3,20,NA,red,n_l_057.jpg,NA,NA,NA,NA,NA,unpleasant,pleasant,NA,NA,NA,NA,NA,right,1358,true,NA,NA,NA,NA,NA,NA,NA,NA
IbyHIkV8,3dw3bnf1hkvs8co26ehcm6ry22mv8w,35dr22ar5hx0yollles08uc0632x3s,IbyHIkV8,2020-0188,2021-10-30,23:28:24,00:52:30,NA,incomplete,false,true,NA,NA,3,21,NA,red,n_l_037.jpg,NA,NA,NA,NA,NA,pleasant,unpleasant,NA,NA,NA,NA,NA,left,1197,true,NA,NA,NA,NA,NA,NA,NA,NA
IbyHIkV8,3dw3bnf1hkvs8co26ehcm6ry22mv8w,35dr22ar5hx0yollles08uc0632x3s,IbyHIkV8,2020-0188,2021-10-30,23:28:24,00:52:30,NA,incomplete,false,true,NA,NA,3,22,NA,red,m_l_055.jpg,NA,NA,NA,NA,NA,pleasant,unpleasant,NA,NA,NA,NA,NA,left,1442,true,NA,NA,NA,NA,NA,NA,NA,NA
IbyHIkV8,3dw3bnf1hkvs8co26ehcm6ry22mv8w,35dr22ar5hx0yollles08uc0632x3s,IbyHIkV8,2020-0188,2021-10-30,23:28:24,00:52:30,NA,incomplete,false,true,NA,NA,3,23,NA,red,m_s_067.jpg,NA,NA,NA,NA,NA,pleasant,unpleasant,NA,NA,NA,NA,NA,left,987,true,NA,NA,NA,NA,NA,NA,NA,NA
IbyHIkV8,3dw3bnf1hkvs8co26ehcm6ry22mv8w,35dr22ar5hx0yollles08uc0632x3s,IbyHIkV8,2020-0188,2021-10-30,23:28:24,00:52:30,NA,incomplete,false,true,NA,NA,3,24,NA,orange,m_l_081.jpg,NA,NA,NA,NA,NA,pleasant,unpleasant,NA,NA,NA,NA,NA,left,940,true,NA,NA,NA,NA,NA,NA,NA,NA
IbyHIkV8,3dw3bnf1hkvs8co26ehcm6ry22mv8w,35dr22ar5hx0yollles08uc0632x3s,IbyHIkV8,2020-0188,2021-10-30,23:28:24,00:52:30,NA,incomplete,false,true,NA,NA,3,25,NA,orange,m_s_051.jpg,NA,NA,NA,NA,NA,unpleasant,pleasant,NA,NA,NA,NA,NA,right,1327,true,NA,NA,NA,NA,NA,NA,NA,NA
IbyHIkV8,3dw3bnf1hkvs8co26ehcm6ry22mv8w,35dr22ar5hx0yollles08uc0632x3s,IbyHIkV8,2020-0188,2021-10-30,23:28:24,00:52:30,NA,incomplete,false,true,NA,NA,3,26,NA,orange,n_s_105.jpg,NA,NA,NA,NA,NA,pleasant,unpleasant,NA,NA,NA,NA,NA,left,1242,true,NA,NA,NA,NA,NA,NA,NA,NA
IbyHIkV8,3dw3bnf1hkvs8co26ehcm6ry22mv8w,35dr22ar5hx0yollles08uc0632x3s,IbyHIkV8,2020-0188,2021-10-30,23:28:24,00:52:30,NA,incomplete,false,true,NA,NA,3,27,NA,orange,m_s_058.jpg,NA,NA,NA,NA,NA,pleasant,unpleasant,NA,NA,NA,NA,NA,left,1389,true,NA,NA,NA,NA,NA,NA,NA,NA
IbyHIkV8,3dw3bnf1hkvs8co26ehcm6ry22mv8w,35dr22ar5hx0yollles08uc0632x3s,IbyHIkV8,2020-0188,2021-10-30,23:28:24,00:52:30,NA,incomplete,false,true,NA,NA,3,28,NA,orange,m_l_012.jpg,NA,NA,NA,NA,NA,unpleasant,pleasant,NA,NA,NA,NA,NA,left,2132,true,NA,NA,NA,NA,NA,NA,NA,NA
IbyHIkV8,3dw3bnf1hkvs8co26ehcm6ry22mv8w,35dr22ar5hx0yollles08uc0632x3s,IbyHIkV8,2020-0188,2021-10-30,23:28:24,00:52:30,NA,incomplete,false,true,NA,NA,3,29,NA,orange,m_s_011.jpg,NA,NA,NA,NA,NA,pleasant,unpleasant,NA,NA,NA,NA,NA,left,1542,true,NA,NA,NA,NA,NA,NA,NA,NA
IbyHIkV8,3dw3bnf1hkvs8co26ehcm6ry22mv8w,35dr22ar5hx0yollles08uc0632x3s,IbyHIkV8,2020-0188,2021-10-30,23:28:24,00:52:30,NA,incomplete,false,true,NA,NA,3,30,NA,green,n_s_037.jpg,NA,NA,NA,NA,NA,pleasant,unpleasant,NA,NA,NA,NA,NA,left,1304,true,NA,NA,NA,NA,NA,NA,NA,NA
IbyHIkV8,3dw3bnf1hkvs8co26ehcm6ry22mv8w,35dr22ar5hx0yollles08uc0632x3s,IbyHIkV8,2020-0188,2021-10-30,23:28:24,00:52:30,NA,incomplete,false,true,NA,NA,3,31,NA,green,m_l_045.jpg,NA,NA,NA,NA,NA,pleasant,unpleasant,NA,NA,NA,NA,NA,left,1286,true,NA,NA,NA,NA,NA,NA,NA,NA
IbyHIkV8,3dw3bnf1hkvs8co26ehcm6ry22mv8w,35dr22ar5hx0yollles08uc0632x3s,IbyHIkV8,2020-0188,2021-10-30,23:28:24,00:52:30,NA,incomplete,false,true,NA,NA,3,32,NA,green,n_s_084.jpg,NA,NA,NA,NA,NA,unpleasant,pleasant,NA,NA,NA,NA,NA,right,1127,true,NA,NA,NA,NA,NA,NA,NA,NA
IbyHIkV8,3dw3bnf1hkvs8co26ehcm6ry22mv8w,35dr22ar5hx0yollles08uc0632x3s,IbyHIkV8,2020-0188,2021-10-30,23:28:24,00:52:30,NA,incomplete,false,true,NA,NA,3,33,NA,green,m_s_022.jpg,NA,NA,NA,NA,NA,unpleasant,pleasant,NA,NA,NA,NA,NA,right,1911,true,NA,NA,NA,NA,NA,NA,NA,NA
IbyHIkV8,3dw3bnf1hkvs8co26ehcm6ry22mv8w,35dr22ar5hx0yollles08uc0632x3s,IbyHIkV8,2020-0188,2021-10-30,23:28:24,00:52:30,NA,incomplete,false,true,NA,NA,3,34,NA,green,n_l_054.jpg,NA,NA,NA,NA,NA,pleasant,unpleasant,NA,NA,NA,NA,NA,right,87,true,NA,NA,NA,NA,NA,NA,NA,NA
IbyHIkV8,3dw3bnf1hkvs8co26ehcm6ry22mv8w,35dr22ar5hx0yollles08uc0632x3s,IbyHIkV8,2020-0188,2021-10-30,23:28:24,00:52:30,NA,incomplete,false,true,NA,NA,3,35,NA,green,m_l_106.jpg,NA,NA,NA,NA,NA,pleasant,unpleasant,NA,NA,NA,NA,NA,left,832,true,NA,NA,NA,NA,NA,NA,NA,NA
IbyHIkV8,3dw3bnf1hkvs8co26ehcm6ry22mv8w,35dr22ar5hx0yollles08uc0632x3s,IbyHIkV8,2020-0188,2021-10-30,23:28:24,00:52:30,NA,incomplete,false,NA,NA,true,3,0,NA,NA,NA,left,n_l_088.jpg,blue,red,NA,NA,NA,NA,NA,NA,NA,NA,NA,NaN,NA,2750,right,0,NA,NA,NA,NA,NA
IbyHIkV8,3dw3bnf1hkvs8co26ehcm6ry22mv8w,35dr22ar5hx0yollles08uc0632x3s,IbyHIkV8,2020-0188,2021-10-30,23:28:24,00:52:30,NA,incomplete,false,NA,NA,true,3,1,NA,NA,NA,left,n_l_117.jpg,brown,blue,NA,NA,NA,NA,NA,NA,NA,NA,NA,NaN,NA,3431,left,1,NA,NA,NA,NA,NA
IbyHIkV8,3dw3bnf1hkvs8co26ehcm6ry22mv8w,35dr22ar5hx0yollles08uc0632x3s,IbyHIkV8,2020-0188,2021-10-30,23:28:24,00:52:30,NA,incomplete,false,NA,NA,true,3,2,NA,NA,NA,left,m_s_059.jpg,red,blue,NA,NA,NA,NA,NA,NA,NA,NA,NA,NaN,NA,2033,right,0,NA,NA,NA,NA,NA
IbyHIkV8,3dw3bnf1hkvs8co26ehcm6ry22mv8w,35dr22ar5hx0yollles08uc0632x3s,IbyHIkV8,2020-0188,2021-10-30,23:28:24,00:52:30,NA,incomplete,false,NA,NA,true,3,3,NA,NA,NA,right,n_s_105.jpg,red,orange,NA,NA,NA,NA,NA,NA,NA,NA,NA,NaN,NA,4150,right,1,NA,NA,NA,NA,NA
IbyHIkV8,3dw3bnf1hkvs8co26ehcm6ry22mv8w,35dr22ar5hx0yollles08uc0632x3s,IbyHIkV8,2020-0188,2021-10-30,23:28:24,00:52:30,NA,incomplete,false,NA,NA,true,3,4,NA,NA,NA,right,n_l_057.jpg,orange,red,NA,NA,NA,NA,NA,NA,NA,NA,NA,NaN,NA,1640,left,0,NA,NA,NA,NA,NA
IbyHIkV8,3dw3bnf1hkvs8co26ehcm6ry22mv8w,35dr22ar5hx0yollles08uc0632x3s,IbyHIkV8,2020-0188,2021-10-30,23:28:24,00:52:30,NA,incomplete,false,NA,NA,true,3,5,NA,NA,NA,left,n_s_097.jpg,purple,brown,NA,NA,NA,NA,NA,NA,NA,NA,NA,NaN,NA,1887,left,1,NA,NA,NA,NA,NA
IbyHIkV8,3dw3bnf1hkvs8co26ehcm6ry22mv8w,35dr22ar5hx0yollles08uc0632x3s,IbyHIkV8,2020-0188,2021-10-30,23:28:24,00:52:30,NA,incomplete,false,NA,NA,true,3,6,NA,NA,NA,right,m_l_106.jpg,orange,green,NA,NA,NA,NA,NA,NA,NA,NA,NA,NaN,NA,3438,left,0,NA,NA,NA,NA,NA
IbyHIkV8,3dw3bnf1hkvs8co26ehcm6ry22mv8w,35dr22ar5hx0yollles08uc0632x3s,IbyHIkV8,2020-0188,2021-10-30,23:28:24,00:52:30,NA,incomplete,false,NA,NA,true,3,7,NA,NA,NA,left,m_l_055.jpg,red,blue,NA,NA,NA,NA,NA,NA,NA,NA,NA,NaN,NA,2524,right,0,NA,NA,NA,NA,NA
IbyHIkV8,3dw3bnf1hkvs8co26ehcm6ry22mv8w,35dr22ar5hx0yollles08uc0632x3s,IbyHIkV8,2020-0188,2021-10-30,23:28:24,00:52:30,NA,incomplete,false,NA,NA,true,3,8,NA,NA,NA,right,m_l_048.jpg,purple,brown,NA,NA,NA,NA,NA,NA,NA,NA,NA,NaN,NA,2074,left,0,NA,NA,NA,NA,NA
IbyHIkV8,3dw3bnf1hkvs8co26ehcm6ry22mv8w,35dr22ar5hx0yollles08uc0632x3s,IbyHIkV8,2020-0188,2021-10-30,23:28:24,00:52:30,NA,incomplete,false,NA,NA,true,3,9,NA,NA,NA,right,m_l_114.jpg,brown,purple,NA,NA,NA,NA,NA,NA,NA,NA,NA,NaN,NA,5094,left,0,NA,NA,NA,NA,NA
IbyHIkV8,3dw3bnf1hkvs8co26ehcm6ry22mv8w,35dr22ar5hx0yollles08uc0632x3s,IbyHIkV8,2020-0188,2021-10-30,23:28:24,00:52:30,NA,incomplete,false,NA,NA,true,3,10,NA,NA,NA,left,m_s_011.jpg,orange,green,NA,NA,NA,NA,NA,NA,NA,NA,NA,NaN,NA,2237,left,1,NA,NA,NA,NA,NA
IbyHIkV8,3dw3bnf1hkvs8co26ehcm6ry22mv8w,35dr22ar5hx0yollles08uc0632x3s,IbyHIkV8,2020-0188,2021-10-30,23:28:24,00:52:30,NA,incomplete,false,NA,NA,true,3,11,NA,NA,NA,right,n_l_073.jpg,brown,purple,NA,NA,NA,NA,NA,NA,NA,NA,NA,NaN,NA,2170,left,0,NA,NA,NA,NA,NA
IbyHIkV8,3dw3bnf1hkvs8co26ehcm6ry22mv8w,35dr22ar5hx0yollles08uc0632x3s,IbyHIkV8,2020-0188,2021-10-30,23:28:24,00:52:30,NA,incomplete,false,NA,NA,true,3,12,NA,NA,NA,left,m_s_051.jpg,orange,red,NA,NA,NA,NA,NA,NA,NA,NA,NA,NaN,NA,5279,left,1,NA,NA,NA,NA,NA
IbyHIkV8,3dw3bnf1hkvs8co26ehcm6ry22mv8w,35dr22ar5hx0yollles08uc0632x3s,IbyHIkV8,2020-0188,2021-10-30,23:28:24,00:52:30,NA,incomplete,false,NA,NA,true,3,13,NA,NA,NA,left,m_s_069.jpg,brown,blue,NA,NA,NA,NA,NA,NA,NA,NA,NA,NaN,NA,1441,left,1,NA,NA,NA,NA,NA
IbyHIkV8,3dw3bnf1hkvs8co26ehcm6ry22mv8w,35dr22ar5hx0yollles08uc0632x3s,IbyHIkV8,2020-0188,2021-10-30,23:28:24,00:52:30,NA,incomplete,false,NA,NA,true,3,14,NA,NA,NA,right,n_l_052.jpg,brown,blue,NA,NA,NA,NA,NA,NA,NA,NA,NA,NaN,NA,3089,left,0,NA,NA,NA,NA,NA
IbyHIkV8,3dw3bnf1hkvs8co26ehcm6ry22mv8w,35dr22ar5hx0yollles08uc0632x3s,IbyHIkV8,2020-0188,2021-10-30,23:28:24,00:52:30,NA,incomplete,false,NA,NA,true,3,15,NA,NA,NA,right,m_s_007.jpg,blue,brown,NA,NA,NA,NA,NA,NA,NA,NA,NA,NaN,NA,1790,right,1,NA,NA,NA,NA,NA
IbyHIkV8,3dw3bnf1hkvs8co26ehcm6ry22mv8w,35dr22ar5hx0yollles08uc0632x3s,IbyHIkV8,2020-0188,2021-10-30,23:28:24,00:52:30,NA,incomplete,false,NA,NA,true,3,16,NA,NA,NA,left,n_s_108.jpg,blue,brown,NA,NA,NA,NA,NA,NA,NA,NA,NA,NaN,NA,2515,right,0,NA,NA,NA,NA,NA
IbyHIkV8,3dw3bnf1hkvs8co26ehcm6ry22mv8w,35dr22ar5hx0yollles08uc0632x3s,IbyHIkV8,2020-0188,2021-10-30,23:28:24,00:52:30,NA,incomplete,false,NA,NA,true,3,17,NA,NA,NA,left,m_l_045.jpg,green,orange,NA,NA,NA,NA,NA,NA,NA,NA,NA,NaN,NA,1050,right,0,NA,NA,NA,NA,NA
IbyHIkV8,3dw3bnf1hkvs8co26ehcm6ry22mv8w,35dr22ar5hx0yollles08uc0632x3s,IbyHIkV8,2020-0188,2021-10-30,23:28:24,00:52:30,NA,incomplete,false,NA,NA,true,3,18,NA,NA,NA,left,m_l_012.jpg,orange,red,NA,NA,NA,NA,NA,NA,NA,NA,NA,NaN,NA,3075,left,1,NA,NA,NA,NA,NA
IbyHIkV8,3dw3bnf1hkvs8co26ehcm6ry22mv8w,35dr22ar5hx0yollles08uc0632x3s,IbyHIkV8,2020-0188,2021-10-30,23:28:24,00:52:30,NA,incomplete,false,NA,NA,true,3,19,NA,NA,NA,right,n_s_084.jpg,orange,green,NA,NA,NA,NA,NA,NA,NA,NA,NA,NaN,NA,2003,left,0,NA,NA,NA,NA,NA
IbyHIkV8,3dw3bnf1hkvs8co26ehcm6ry22mv8w,35dr22ar5hx0yollles08uc0632x3s,IbyHIkV8,2020-0188,2021-10-30,23:28:24,00:52:30,NA,incomplete,false,NA,NA,true,3,20,NA,NA,NA,left,m_l_047.jpg,blue,red,NA,NA,NA,NA,NA,NA,NA,NA,NA,NaN,NA,2417,right,0,NA,NA,NA,NA,NA
IbyHIkV8,3dw3bnf1hkvs8co26ehcm6ry22mv8w,35dr22ar5hx0yollles08uc0632x3s,IbyHIkV8,2020-0188,2021-10-30,23:28:24,00:52:30,NA,incomplete,false,NA,NA,true,3,21,NA,NA,NA,right,m_s_067.jpg,blue,red,NA,NA,NA,NA,NA,NA,NA,NA,NA,NaN,NA,1999,right,1,NA,NA,NA,NA,NA
IbyHIkV8,3dw3bnf1hkvs8co26ehcm6ry22mv8w,35dr22ar5hx0yollles08uc0632x3s,IbyHIkV8,2020-0188,2021-10-30,23:28:24,00:52:30,NA,incomplete,false,NA,true,NA,3,0,NA,NA,NA,right,NA,NA,NA,present,NA,NA,n_s_084.jpg,green,m_l_012.jpg,orange,between,NA,NaN,NA,NA,NA,NA,left,2630,0,1,1791
IbyHIkV8,3dw3bnf1hkvs8co26ehcm6ry22mv8w,35dr22ar5hx0yollles08uc0632x3s,IbyHIkV8,2020-0188,2021-10-30,23:28:24,00:52:30,NA,incomplete,false,NA,true,NA,3,1,NA,NA,NA,left,NA,NA,NA,present,NA,NA,m_l_048.jpg,brown,n_l_117.jpg,brown,within,NA,NaN,NA,NA,NA,NA,left,1669,1,0,1948
IbyHIkV8,3dw3bnf1hkvs8co26ehcm6ry22mv8w,35dr22ar5hx0yollles08uc0632x3s,IbyHIkV8,2020-0188,2021-10-30,23:28:24,00:52:30,NA,incomplete,false,NA,true,NA,3,2,NA,NA,NA,left,NA,NA,NA,present,NA,NA,m_s_007.jpg,brown,n_l_088.jpg,blue,between,NA,NaN,NA,NA,NA,NA,left,1363,1,0,1919
IbyHIkV8,3dw3bnf1hkvs8co26ehcm6ry22mv8w,35dr22ar5hx0yollles08uc0632x3s,IbyHIkV8,2020-0188,2021-10-30,23:28:24,00:52:30,NA,incomplete,false,NA,true,NA,3,3,NA,NA,NA,right,NA,NA,NA,present,NA,NA,n_s_105.jpg,orange,m_l_055.jpg,red,between,NA,NaN,NA,NA,NA,NA,right,2759,1,1,1640
IbyHIkV8,3dw3bnf1hkvs8co26ehcm6ry22mv8w,35dr22ar5hx0yollles08uc0632x3s,IbyHIkV8,2020-0188,2021-10-30,23:28:24,00:52:30,NA,incomplete,false,NA,true,NA,3,4,NA,NA,NA,right,NA,NA,NA,present,NA,NA,m_l_047.jpg,blue,n_l_052.jpg,blue,within,NA,NaN,NA,NA,NA,NA,right,2281,1,0,1849
IbyHIkV8,3dw3bnf1hkvs8co26ehcm6ry22mv8w,35dr22ar5hx0yollles08uc0632x3s,IbyHIkV8,2020-0188,2021-10-30,23:28:24,00:52:30,NA,incomplete,false,NA,true,NA,3,5,NA,NA,NA,right,NA,NA,NA,present,NA,NA,m_l_106.jpg,green,m_l_045.jpg,green,within,NA,NaN,NA,NA,NA,NA,right,3128,1,1,2598
IbyHIkV8,3dw3bnf1hkvs8co26ehcm6ry22mv8w,35dr22ar5hx0yollles08uc0632x3s,IbyHIkV8,2020-0188,2021-10-30,23:28:24,00:52:30,NA,incomplete,false,NA,true,NA,3,6,NA,NA,NA,right,NA,NA,NA,present,NA,NA,m_s_067.jpg,red,m_s_059.jpg,red,within,NA,NaN,NA,NA,NA,NA,left,1808,0,0,919
IbyHIkV8,3dw3bnf1hkvs8co26ehcm6ry22mv8w,35dr22ar5hx0yollles08uc0632x3s,IbyHIkV8,2020-0188,2021-10-30,23:28:24,00:52:30,NA,incomplete,false,NA,true,NA,3,7,NA,NA,NA,left,NA,NA,NA,present,NA,NA,m_s_051.jpg,orange,m_s_011.jpg,orange,within,NA,NaN,NA,NA,NA,NA,left,4568,1,1,1403
IbyHIkV8,3dw3bnf1hkvs8co26ehcm6ry22mv8w,35dr22ar5hx0yollles08uc0632x3s,IbyHIkV8,2020-0188,2021-10-30,23:28:24,00:52:30,NA,incomplete,false,NA,true,NA,3,8,NA,NA,NA,left,NA,NA,NA,present,NA,NA,n_l_073.jpg,purple,m_s_069.jpg,brown,between,NA,NaN,NA,NA,NA,NA,right,3120,0,1,1330
IbyHIkV8,3dw3bnf1hkvs8co26ehcm6ry22mv8w,35dr22ar5hx0yollles08uc0632x3s,IbyHIkV8,2020-0188,2021-10-30,23:28:24,00:52:30,NA,incomplete,false,NA,true,NA,3,9,NA,NA,NA,right,NA,NA,NA,present,NA,NA,m_l_114.jpg,purple,n_s_097.jpg,purple,within,NA,NaN,NA,NA,NA,NA,left,2167,0,1,1872
IbyHIkV8,3dw3bnf1hkvs8co26ehcm6ry22mv8w,35dr22ar5hx0yollles08uc0632x3s,IbyHIkV8,2020-0188,2021-10-30,23:28:24,00:52:30,NA,incomplete,false,NA,true,NA,3,10,NA,NA,NA,left,NA,NA,NA,present,NA,NA,n_s_108.jpg,blue,n_l_057.jpg,red,between,NA,NaN,NA,NA,NA,NA,right,4570,0,1,2114
IbyHIkV8,3dw3bnf1hkvs8co26ehcm6ry22mv8w,35dr22ar5hx0yollles08uc0632x3s,IbyHIkV8,2020-0188,2021-10-30,23:28:24,00:52:30,NA,incomplete,false,true,NA,NA,4,0,NA,orange,n_l_004.jpg,NA,NA,NA,NA,NA,unpleasant,pleasant,NA,NA,NA,NA,NA,right,1848,true,NA,NA,NA,NA,NA,NA,NA,NA
IbyHIkV8,3dw3bnf1hkvs8co26ehcm6ry22mv8w,35dr22ar5hx0yollles08uc0632x3s,IbyHIkV8,2020-0188,2021-10-30,23:28:24,00:52:30,NA,incomplete,false,true,NA,NA,4,1,NA,orange,m_l_104.jpg,NA,NA,NA,NA,NA,pleasant,unpleasant,NA,NA,NA,NA,NA,left,1247,true,NA,NA,NA,NA,NA,NA,NA,NA
IbyHIkV8,3dw3bnf1hkvs8co26ehcm6ry22mv8w,35dr22ar5hx0yollles08uc0632x3s,IbyHIkV8,2020-0188,2021-10-30,23:28:24,00:52:30,NA,incomplete,false,true,NA,NA,4,2,NA,orange,m_l_019.jpg,NA,NA,NA,NA,NA,pleasant,unpleasant,NA,NA,NA,NA,NA,right,1550,true,NA,NA,NA,NA,NA,NA,NA,NA
IbyHIkV8,3dw3bnf1hkvs8co26ehcm6ry22mv8w,35dr22ar5hx0yollles08uc0632x3s,IbyHIkV8,2020-0188,2021-10-30,23:28:24,00:52:30,NA,incomplete,false,true,NA,NA,4,3,NA,orange,m_s_072.jpg,NA,NA,NA,NA,NA,unpleasant,pleasant,NA,NA,NA,NA,NA,right,1141,true,NA,NA,NA,NA,NA,NA,NA,NA
IbyHIkV8,3dw3bnf1hkvs8co26ehcm6ry22mv8w,35dr22ar5hx0yollles08uc0632x3s,IbyHIkV8,2020-0188,2021-10-30,23:28:24,00:52:30,NA,incomplete,false,true,NA,NA,4,4,NA,orange,m_l_038.jpg,NA,NA,NA,NA,NA,pleasant,unpleasant,NA,NA,NA,NA,NA,left,1296,true,NA,NA,NA,NA,NA,NA,NA,NA
IbyHIkV8,3dw3bnf1hkvs8co26ehcm6ry22mv8w,35dr22ar5hx0yollles08uc0632x3s,IbyHIkV8,2020-0188,2021-10-30,23:28:24,00:52:30,NA,incomplete,false,true,NA,NA,4,5,NA,orange,n_l_081.jpg,NA,NA,NA,NA,NA,pleasant,unpleasant,NA,NA,NA,NA,NA,right,1240,true,NA,NA,NA,NA,NA,NA,NA,NA
IbyHIkV8,3dw3bnf1hkvs8co26ehcm6ry22mv8w,35dr22ar5hx0yollles08uc0632x3s,IbyHIkV8,2020-0188,2021-10-30,23:28:24,00:52:30,NA,incomplete,false,true,NA,NA,4,6,NA,gray,n_s_116.jpg,NA,NA,NA,NA,NA,pleasant,unpleasant,NA,NA,NA,NA,NA,left,1167,true,NA,NA,NA,NA,NA,NA,NA,NA
IbyHIkV8,3dw3bnf1hkvs8co26ehcm6ry22mv8w,35dr22ar5hx0yollles08uc0632x3s,IbyHIkV8,2020-0188,2021-10-30,23:28:24,00:52:30,NA,incomplete,false,true,NA,NA,4,7,NA,gray,m_s_016.jpg,NA,NA,NA,NA,NA,pleasant,unpleasant,NA,NA,NA,NA,NA,left,1670,true,NA,NA,NA,NA,NA,NA,NA,NA
IbyHIkV8,3dw3bnf1hkvs8co26ehcm6ry22mv8w,35dr22ar5hx0yollles08uc0632x3s,IbyHIkV8,2020-0188,2021-10-30,23:28:24,00:52:30,NA,incomplete,false,true,NA,NA,4,8,NA,gray,m_l_040.jpg,NA,NA,NA,NA,NA,pleasant,unpleasant,NA,NA,NA,NA,NA,left,829,true,NA,NA,NA,NA,NA,NA,NA,NA
IbyHIkV8,3dw3bnf1hkvs8co26ehcm6ry22mv8w,35dr22ar5hx0yollles08uc0632x3s,IbyHIkV8,2020-0188,2021-10-30,23:28:24,00:52:30,NA,incomplete,false,true,NA,NA,4,9,NA,gray,m_s_015.jpg,NA,NA,NA,NA,NA,pleasant,unpleasant,NA,NA,NA,NA,NA,left,1345,true,NA,NA,NA,NA,NA,NA,NA,NA
IbyHIkV8,3dw3bnf1hkvs8co26ehcm6ry22mv8w,35dr22ar5hx0yollles08uc0632x3s,IbyHIkV8,2020-0188,2021-10-30,23:28:24,00:52:30,NA,incomplete,false,true,NA,NA,4,10,NA,gray,n_l_005.jpg,NA,NA,NA,NA,NA,pleasant,unpleasant,NA,NA,NA,NA,NA,left,1258,true,NA,NA,NA,NA,NA,NA,NA,NA
IbyHIkV8,3dw3bnf1hkvs8co26ehcm6ry22mv8w,35dr22ar5hx0yollles08uc0632x3s,IbyHIkV8,2020-0188,2021-10-30,23:28:24,00:52:30,NA,incomplete,false,true,NA,NA,4,11,NA,gray,m_s_008.jpg,NA,NA,NA,NA,NA,unpleasant,pleasant,NA,NA,NA,NA,NA,left,800,true,NA,NA,NA,NA,NA,NA,NA,NA
IbyHIkV8,3dw3bnf1hkvs8co26ehcm6ry22mv8w,35dr22ar5hx0yollles08uc0632x3s,IbyHIkV8,2020-0188,2021-10-30,23:28:24,00:52:30,NA,incomplete,false,true,NA,NA,4,12,NA,green,n_s_100.jpg,NA,NA,NA,NA,NA,pleasant,unpleasant,NA,NA,NA,NA,NA,left,1881,true,NA,NA,NA,NA,NA,NA,NA,NA
IbyHIkV8,3dw3bnf1hkvs8co26ehcm6ry22mv8w,35dr22ar5hx0yollles08uc0632x3s,IbyHIkV8,2020-0188,2021-10-30,23:28:24,00:52:30,NA,incomplete,false,true,NA,NA,4,13,NA,green,n_l_060.jpg,NA,NA,NA,NA,NA,pleasant,unpleasant,NA,NA,NA,NA,NA,left,896,true,NA,NA,NA,NA,NA,NA,NA,NA
IbyHIkV8,3dw3bnf1hkvs8co26ehcm6ry22mv8w,35dr22ar5hx0yollles08uc0632x3s,IbyHIkV8,2020-0188,2021-10-30,23:28:24,00:52:30,NA,incomplete,false,true,NA,NA,4,14,NA,green,m_l_060.jpg,NA,NA,NA,NA,NA,pleasant,unpleasant,NA,NA,NA,NA,NA,left,912,true,NA,NA,NA,NA,NA,NA,NA,NA
IbyHIkV8,3dw3bnf1hkvs8co26ehcm6ry22mv8w,35dr22ar5hx0yollles08uc0632x3s,IbyHIkV8,2020-0188,2021-10-30,23:28:24,00:52:30,NA,incomplete,false,true,NA,NA,4,15,NA,green,m_l_078.jpg,NA,NA,NA,NA,NA,pleasant,unpleasant,NA,NA,NA,NA,NA,left,867,true,NA,NA,NA,NA,NA,NA,NA,NA
IbyHIkV8,3dw3bnf1hkvs8co26ehcm6ry22mv8w,35dr22ar5hx0yollles08uc0632x3s,IbyHIkV8,2020-0188,2021-10-30,23:28:24,00:52:30,NA,incomplete,false,true,NA,NA,4,16,NA,green,m_s_117.jpg,NA,NA,NA,NA,NA,unpleasant,pleasant,NA,NA,NA,NA,NA,right,1769,true,NA,NA,NA,NA,NA,NA,NA,NA
IbyHIkV8,3dw3bnf1hkvs8co26ehcm6ry22mv8w,35dr22ar5hx0yollles08uc0632x3s,IbyHIkV8,2020-0188,2021-10-30,23:28:24,00:52:30,NA,incomplete,false,true,NA,NA,4,17,NA,green,m_s_088.jpg,NA,NA,NA,NA,NA,unpleasant,pleasant,NA,NA,NA,NA,NA,right,1523,true,NA,NA,NA,NA,NA,NA,NA,NA
IbyHIkV8,3dw3bnf1hkvs8co26ehcm6ry22mv8w,35dr22ar5hx0yollles08uc0632x3s,IbyHIkV8,2020-0188,2021-10-30,23:28:24,00:52:30,NA,incomplete,false,true,NA,NA,4,18,NA,purple,m_s_075.jpg,NA,NA,NA,NA,NA,unpleasant,pleasant,NA,NA,NA,NA,NA,left,1232,true,NA,NA,NA,NA,NA,NA,NA,NA
IbyHIkV8,3dw3bnf1hkvs8co26ehcm6ry22mv8w,35dr22ar5hx0yollles08uc0632x3s,IbyHIkV8,2020-0188,2021-10-30,23:28:24,00:52:30,NA,incomplete,false,true,NA,NA,4,19,NA,purple,n_l_001.jpg,NA,NA,NA,NA,NA,pleasant,unpleasant,NA,NA,NA,NA,NA,left,972,true,NA,NA,NA,NA,NA,NA,NA,NA
IbyHIkV8,3dw3bnf1hkvs8co26ehcm6ry22mv8w,35dr22ar5hx0yollles08uc0632x3s,IbyHIkV8,2020-0188,2021-10-30,23:28:24,00:52:30,NA,incomplete,false,true,NA,NA,4,20,NA,purple,n_s_031.jpg,NA,NA,NA,NA,NA,pleasant,unpleasant,NA,NA,NA,NA,NA,right,1705,true,NA,NA,NA,NA,NA,NA,NA,NA
IbyHIkV8,3dw3bnf1hkvs8co26ehcm6ry22mv8w,35dr22ar5hx0yollles08uc0632x3s,IbyHIkV8,2020-0188,2021-10-30,23:28:24,00:52:30,NA,incomplete,false,true,NA,NA,4,21,NA,purple,m_s_109.jpg,NA,NA,NA,NA,NA,unpleasant,pleasant,NA,NA,NA,NA,NA,left,2651,true,NA,NA,NA,NA,NA,NA,NA,NA
IbyHIkV8,3dw3bnf1hkvs8co26ehcm6ry22mv8w,35dr22ar5hx0yollles08uc0632x3s,IbyHIkV8,2020-0188,2021-10-30,23:28:24,00:52:30,NA,incomplete,false,true,NA,NA,4,22,NA,purple,m_s_077.jpg,NA,NA,NA,NA,NA,unpleasant,pleasant,NA,NA,NA,NA,NA,left,1177,true,NA,NA,NA,NA,NA,NA,NA,NA
IbyHIkV8,3dw3bnf1hkvs8co26ehcm6ry22mv8w,35dr22ar5hx0yollles08uc0632x3s,IbyHIkV8,2020-0188,2021-10-30,23:28:24,00:52:30,NA,incomplete,false,true,NA,NA,4,23,NA,purple,n_l_109.jpg,NA,NA,NA,NA,NA,unpleasant,pleasant,NA,NA,NA,NA,NA,left,2402,true,NA,NA,NA,NA,NA,NA,NA,NA
IbyHIkV8,3dw3bnf1hkvs8co26ehcm6ry22mv8w,35dr22ar5hx0yollles08uc0632x3s,IbyHIkV8,2020-0188,2021-10-30,23:28:24,00:52:30,NA,incomplete,false,true,NA,NA,4,24,NA,yellow,n_s_092.jpg,NA,NA,NA,NA,NA,unpleasant,pleasant,NA,NA,NA,NA,NA,right,2310,true,NA,NA,NA,NA,NA,NA,NA,NA
IbyHIkV8,3dw3bnf1hkvs8co26ehcm6ry22mv8w,35dr22ar5hx0yollles08uc0632x3s,IbyHIkV8,2020-0188,2021-10-30,23:28:24,00:52:30,NA,incomplete,false,true,NA,NA,4,25,NA,yellow,m_l_069.jpg,NA,NA,NA,NA,NA,pleasant,unpleasant,NA,NA,NA,NA,NA,left,1523,true,NA,NA,NA,NA,NA,NA,NA,NA
IbyHIkV8,3dw3bnf1hkvs8co26ehcm6ry22mv8w,35dr22ar5hx0yollles08uc0632x3s,IbyHIkV8,2020-0188,2021-10-30,23:28:24,00:52:30,NA,incomplete,false,true,NA,NA,4,26,NA,yellow,m_l_020.jpg,NA,NA,NA,NA,NA,pleasant,unpleasant,NA,NA,NA,NA,NA,left,1226,true,NA,NA,NA,NA,NA,NA,NA,NA
IbyHIkV8,3dw3bnf1hkvs8co26ehcm6ry22mv8w,35dr22ar5hx0yollles08uc0632x3s,IbyHIkV8,2020-0188,2021-10-30,23:28:24,00:52:30,NA,incomplete,false,true,NA,NA,4,27,NA,yellow,m_s_006.jpg,NA,NA,NA,NA,NA,unpleasant,pleasant,NA,NA,NA,NA,NA,right,1809,true,NA,NA,NA,NA,NA,NA,NA,NA
IbyHIkV8,3dw3bnf1hkvs8co26ehcm6ry22mv8w,35dr22ar5hx0yollles08uc0632x3s,IbyHIkV8,2020-0188,2021-10-30,23:28:24,00:52:30,NA,incomplete,false,true,NA,NA,4,28,NA,yellow,m_s_064.jpg,NA,NA,NA,NA,NA,pleasant,unpleasant,NA,NA,NA,NA,NA,left,1293,true,NA,NA,NA,NA,NA,NA,NA,NA
IbyHIkV8,3dw3bnf1hkvs8co26ehcm6ry22mv8w,35dr22ar5hx0yollles08uc0632x3s,IbyHIkV8,2020-0188,2021-10-30,23:28:24,00:52:30,NA,incomplete,false,true,NA,NA,4,29,NA,yellow,m_s_066.jpg,NA,NA,NA,NA,NA,unpleasant,pleasant,NA,NA,NA,NA,NA,right,961,true,NA,NA,NA,NA,NA,NA,NA,NA
IbyHIkV8,3dw3bnf1hkvs8co26ehcm6ry22mv8w,35dr22ar5hx0yollles08uc0632x3s,IbyHIkV8,2020-0188,2021-10-30,23:28:24,00:52:30,NA,incomplete,false,true,NA,NA,4,30,NA,red,n_l_020.jpg,NA,NA,NA,NA,NA,pleasant,unpleasant,NA,NA,NA,NA,NA,right,1788,true,NA,NA,NA,NA,NA,NA,NA,NA
IbyHIkV8,3dw3bnf1hkvs8co26ehcm6ry22mv8w,35dr22ar5hx0yollles08uc0632x3s,IbyHIkV8,2020-0188,2021-10-30,23:28:24,00:52:30,NA,incomplete,false,true,NA,NA,4,31,NA,red,n_l_030.jpg,NA,NA,NA,NA,NA,unpleasant,pleasant,NA,NA,NA,NA,NA,left,1924,true,NA,NA,NA,NA,NA,NA,NA,NA
IbyHIkV8,3dw3bnf1hkvs8co26ehcm6ry22mv8w,35dr22ar5hx0yollles08uc0632x3s,IbyHIkV8,2020-0188,2021-10-30,23:28:24,00:52:30,NA,incomplete,false,true,NA,NA,4,32,NA,red,m_s_009.jpg,NA,NA,NA,NA,NA,pleasant,unpleasant,NA,NA,NA,NA,NA,right,1329,true,NA,NA,NA,NA,NA,NA,NA,NA
IbyHIkV8,3dw3bnf1hkvs8co26ehcm6ry22mv8w,35dr22ar5hx0yollles08uc0632x3s,IbyHIkV8,2020-0188,2021-10-30,23:28:24,00:52:30,NA,incomplete,false,true,NA,NA,4,33,NA,red,n_l_068.jpg,NA,NA,NA,NA,NA,unpleasant,pleasant,NA,NA,NA,NA,NA,right,1402,true,NA,NA,NA,NA,NA,NA,NA,NA
IbyHIkV8,3dw3bnf1hkvs8co26ehcm6ry22mv8w,35dr22ar5hx0yollles08uc0632x3s,IbyHIkV8,2020-0188,2021-10-30,23:28:24,00:52:30,NA,incomplete,false,true,NA,NA,4,34,NA,red,m_l_102.jpg,NA,NA,NA,NA,NA,unpleasant,pleasant,NA,NA,NA,NA,NA,left,1442,true,NA,NA,NA,NA,NA,NA,NA,NA
IbyHIkV8,3dw3bnf1hkvs8co26ehcm6ry22mv8w,35dr22ar5hx0yollles08uc0632x3s,IbyHIkV8,2020-0188,2021-10-30,23:28:24,00:52:30,NA,incomplete,false,true,NA,NA,4,35,NA,red,n_s_080.jpg,NA,NA,NA,NA,NA,pleasant,unpleasant,NA,NA,NA,NA,NA,left,1851,true,NA,NA,NA,NA,NA,NA,NA,NA
IbyHIkV8,3dw3bnf1hkvs8co26ehcm6ry22mv8w,35dr22ar5hx0yollles08uc0632x3s,IbyHIkV8,2020-0188,2021-10-30,23:28:24,00:52:30,NA,incomplete,false,NA,NA,true,4,0,NA,NA,NA,right,m_s_016.jpg,orange,gray,NA,NA,NA,NA,NA,NA,NA,NA,NA,NaN,NA,3449,right,1,NA,NA,NA,NA,NA
IbyHIkV8,3dw3bnf1hkvs8co26ehcm6ry22mv8w,35dr22ar5hx0yollles08uc0632x3s,IbyHIkV8,2020-0188,2021-10-30,23:28:24,00:52:30,NA,incomplete,false,NA,NA,true,4,1,NA,NA,NA,left,m_l_060.jpg,green,purple,NA,NA,NA,NA,NA,NA,NA,NA,NA,NaN,NA,1381,left,1,NA,NA,NA,NA,NA
IbyHIkV8,3dw3bnf1hkvs8co26ehcm6ry22mv8w,35dr22ar5hx0yollles08uc0632x3s,IbyHIkV8,2020-0188,2021-10-30,23:28:24,00:52:30,NA,incomplete,false,NA,NA,true,4,2,NA,NA,NA,right,n_l_109.jpg,yellow,purple,NA,NA,NA,NA,NA,NA,NA,NA,NA,NaN,NA,2318,right,1,NA,NA,NA,NA,NA
IbyHIkV8,3dw3bnf1hkvs8co26ehcm6ry22mv8w,35dr22ar5hx0yollles08uc0632x3s,IbyHIkV8,2020-0188,2021-10-30,23:28:24,00:52:30,NA,incomplete,false,NA,NA,true,4,3,NA,NA,NA,right,n_l_001.jpg,yellow,purple,NA,NA,NA,NA,NA,NA,NA,NA,NA,NaN,NA,1687,left,0,NA,NA,NA,NA,NA
IbyHIkV8,3dw3bnf1hkvs8co26ehcm6ry22mv8w,35dr22ar5hx0yollles08uc0632x3s,IbyHIkV8,2020-0188,2021-10-30,23:28:24,00:52:30,NA,incomplete,false,NA,NA,true,4,4,NA,NA,NA,left,m_s_009.jpg,red,yellow,NA,NA,NA,NA,NA,NA,NA,NA,NA,NaN,NA,897,right,0,NA,NA,NA,NA,NA
IbyHIkV8,3dw3bnf1hkvs8co26ehcm6ry22mv8w,35dr22ar5hx0yollles08uc0632x3s,IbyHIkV8,2020-0188,2021-10-30,23:28:24,00:52:30,NA,incomplete,false,NA,NA,true,4,5,NA,NA,NA,left,m_l_020.jpg,yellow,purple,NA,NA,NA,NA,NA,NA,NA,NA,NA,NaN,NA,1918,left,1,NA,NA,NA,NA,NA
IbyHIkV8,3dw3bnf1hkvs8co26ehcm6ry22mv8w,35dr22ar5hx0yollles08uc0632x3s,IbyHIkV8,2020-0188,2021-10-30,23:28:24,00:52:30,NA,incomplete,false,NA,NA,true,4,6,NA,NA,NA,right,n_l_030.jpg,yellow,red,NA,NA,NA,NA,NA,NA,NA,NA,NA,NaN,NA,1453,right,1,NA,NA,NA,NA,NA
IbyHIkV8,3dw3bnf1hkvs8co26ehcm6ry22mv8w,35dr22ar5hx0yollles08uc0632x3s,IbyHIkV8,2020-0188,2021-10-30,23:28:24,00:52:30,NA,incomplete,false,NA,NA,true,4,7,NA,NA,NA,left,n_s_080.jpg,red,yellow,NA,NA,NA,NA,NA,NA,NA,NA,NA,NaN,NA,2149,left,1,NA,NA,NA,NA,NA
IbyHIkV8,3dw3bnf1hkvs8co26ehcm6ry22mv8w,35dr22ar5hx0yollles08uc0632x3s,IbyHIkV8,2020-0188,2021-10-30,23:28:24,00:52:30,NA,incomplete,false,NA,NA,true,4,8,NA,NA,NA,right,m_l_040.jpg,orange,gray,NA,NA,NA,NA,NA,NA,NA,NA,NA,NaN,NA,2201,left,0,NA,NA,NA,NA,NA
IbyHIkV8,3dw3bnf1hkvs8co26ehcm6ry22mv8w,35dr22ar5hx0yollles08uc0632x3s,IbyHIkV8,2020-0188,2021-10-30,23:28:24,00:52:30,NA,incomplete,false,NA,NA,true,4,9,NA,NA,NA,right,m_s_077.jpg,yellow,purple,NA,NA,NA,NA,NA,NA,NA,NA,NA,NaN,NA,1379,right,1,NA,NA,NA,NA,NA
IbyHIkV8,3dw3bnf1hkvs8co26ehcm6ry22mv8w,35dr22ar5hx0yollles08uc0632x3s,IbyHIkV8,2020-0188,2021-10-30,23:28:24,00:52:30,NA,incomplete,false,NA,NA,true,4,10,NA,NA,NA,left,m_s_117.jpg,green,gray,NA,NA,NA,NA,NA,NA,NA,NA,NA,NaN,NA,1377,left,1,NA,NA,NA,NA,NA
IbyHIkV8,3dw3bnf1hkvs8co26ehcm6ry22mv8w,35dr22ar5hx0yollles08uc0632x3s,IbyHIkV8,2020-0188,2021-10-30,23:28:24,00:52:30,NA,incomplete,false,NA,NA,true,4,11,NA,NA,NA,left,m_s_064.jpg,yellow,purple,NA,NA,NA,NA,NA,NA,NA,NA,NA,NaN,NA,1578,right,0,NA,NA,NA,NA,NA
IbyHIkV8,3dw3bnf1hkvs8co26ehcm6ry22mv8w,35dr22ar5hx0yollles08uc0632x3s,IbyHIkV8,2020-0188,2021-10-30,23:28:24,00:52:30,NA,incomplete,false,NA,NA,true,4,12,NA,NA,NA,right,n_l_005.jpg,orange,gray,NA,NA,NA,NA,NA,NA,NA,NA,NA,NaN,NA,1600,left,0,NA,NA,NA,NA,NA
IbyHIkV8,3dw3bnf1hkvs8co26ehcm6ry22mv8w,35dr22ar5hx0yollles08uc0632x3s,IbyHIkV8,2020-0188,2021-10-30,23:28:24,00:52:30,NA,incomplete,false,NA,NA,true,4,13,NA,NA,NA,left,m_l_038.jpg,orange,gray,NA,NA,NA,NA,NA,NA,NA,NA,NA,NaN,NA,1704,left,1,NA,NA,NA,NA,NA
IbyHIkV8,3dw3bnf1hkvs8co26ehcm6ry22mv8w,35dr22ar5hx0yollles08uc0632x3s,IbyHIkV8,2020-0188,2021-10-30,23:28:24,00:52:30,NA,incomplete,false,NA,NA,true,4,14,NA,NA,NA,left,m_s_008.jpg,gray,green,NA,NA,NA,NA,NA,NA,NA,NA,NA,NaN,NA,1708,right,0,NA,NA,NA,NA,NA
IbyHIkV8,3dw3bnf1hkvs8co26ehcm6ry22mv8w,35dr22ar5hx0yollles08uc0632x3s,IbyHIkV8,2020-0188,2021-10-30,23:28:24,00:52:30,NA,incomplete,false,NA,NA,true,4,15,NA,NA,NA,right,m_s_066.jpg,purple,yellow,NA,NA,NA,NA,NA,NA,NA,NA,NA,NaN,NA,1491,right,1,NA,NA,NA,NA,NA
IbyHIkV8,3dw3bnf1hkvs8co26ehcm6ry22mv8w,35dr22ar5hx0yollles08uc0632x3s,IbyHIkV8,2020-0188,2021-10-30,23:28:24,00:52:30,NA,incomplete,false,NA,NA,true,4,16,NA,NA,NA,left,m_l_069.jpg,yellow,purple,NA,NA,NA,NA,NA,NA,NA,NA,NA,NaN,NA,1809,left,1,NA,NA,NA,NA,NA
IbyHIkV8,3dw3bnf1hkvs8co26ehcm6ry22mv8w,35dr22ar5hx0yollles08uc0632x3s,IbyHIkV8,2020-0188,2021-10-30,23:28:24,00:52:30,NA,incomplete,false,NA,NA,true,4,17,NA,NA,NA,left,n_s_031.jpg,purple,green,NA,NA,NA,NA,NA,NA,NA,NA,NA,NaN,NA,1978,left,1,NA,NA,NA,NA,NA
IbyHIkV8,3dw3bnf1hkvs8co26ehcm6ry22mv8w,35dr22ar5hx0yollles08uc0632x3s,IbyHIkV8,2020-0188,2021-10-30,23:28:24,00:52:30,NA,incomplete,false,NA,NA,true,4,18,NA,NA,NA,right,n_l_060.jpg,purple,green,NA,NA,NA,NA,NA,NA,NA,NA,NA,NaN,NA,10056,left,0,NA,NA,NA,NA,NA
IbyHIkV8,3dw3bnf1hkvs8co26ehcm6ry22mv8w,35dr22ar5hx0yollles08uc0632x3s,IbyHIkV8,2020-0188,2021-10-30,23:28:24,00:52:30,NA,incomplete,false,NA,NA,true,4,19,NA,NA,NA,right,m_l_104.jpg,gray,orange,NA,NA,NA,NA,NA,NA,NA,NA,NA,NaN,NA,1446,left,0,NA,NA,NA,NA,NA
IbyHIkV8,3dw3bnf1hkvs8co26ehcm6ry22mv8w,35dr22ar5hx0yollles08uc0632x3s,IbyHIkV8,2020-0188,2021-10-30,23:28:24,00:52:30,NA,incomplete,false,NA,NA,true,4,20,NA,NA,NA,right,m_s_088.jpg,purple,green,NA,NA,NA,NA,NA,NA,NA,NA,NA,NaN,NA,2719,right,1,NA,NA,NA,NA,NA
IbyHIkV8,3dw3bnf1hkvs8co26ehcm6ry22mv8w,35dr22ar5hx0yollles08uc0632x3s,IbyHIkV8,2020-0188,2021-10-30,23:28:24,00:52:30,NA,incomplete,false,NA,NA,true,4,21,NA,NA,NA,right,n_l_081.jpg,gray,orange,NA,NA,NA,NA,NA,NA,NA,NA,NA,NaN,NA,1442,right,1,NA,NA,NA,NA,NA
IbyHIkV8,3dw3bnf1hkvs8co26ehcm6ry22mv8w,35dr22ar5hx0yollles08uc0632x3s,IbyHIkV8,2020-0188,2021-10-30,23:28:24,00:52:30,NA,incomplete,false,NA,true,NA,4,0,NA,NA,NA,right,NA,NA,NA,present,NA,NA,m_s_066.jpg,yellow,m_l_069.jpg,yellow,within,NA,NaN,NA,NA,NA,NA,right,2968,1,1,3207
IbyHIkV8,3dw3bnf1hkvs8co26ehcm6ry22mv8w,35dr22ar5hx0yollles08uc0632x3s,IbyHIkV8,2020-0188,2021-10-30,23:28:24,00:52:30,NA,incomplete,false,NA,true,NA,4,1,NA,NA,NA,left,NA,NA,NA,present,NA,NA,n_l_060.jpg,green,m_s_088.jpg,green,within,NA,NaN,NA,NA,NA,NA,right,1766,0,1,2631
IbyHIkV8,3dw3bnf1hkvs8co26ehcm6ry22mv8w,35dr22ar5hx0yollles08uc0632x3s,IbyHIkV8,2020-0188,2021-10-30,23:28:24,00:52:30,NA,incomplete,false,NA,true,NA,4,2,NA,NA,NA,left,NA,NA,NA,present,NA,NA,m_s_077.jpg,purple,m_l_020.jpg,yellow,between,NA,NaN,NA,NA,NA,NA,right,2268,0,1,3821
IbyHIkV8,3dw3bnf1hkvs8co26ehcm6ry22mv8w,35dr22ar5hx0yollles08uc0632x3s,IbyHIkV8,2020-0188,2021-10-30,23:28:24,00:52:30,NA,incomplete,false,NA,true,NA,4,3,NA,NA,NA,right,NA,NA,NA,present,NA,NA,n_s_080.jpg,red,n_l_030.jpg,red,within,NA,NaN,NA,NA,NA,NA,left,1946,0,0,1896
IbyHIkV8,3dw3bnf1hkvs8co26ehcm6ry22mv8w,35dr22ar5hx0yollles08uc0632x3s,IbyHIkV8,2020-0188,2021-10-30,23:28:24,00:52:30,NA,incomplete,false,NA,true,NA,4,4,NA,NA,NA,right,NA,NA,NA,present,NA,NA,n_s_031.jpg,purple,m_s_117.jpg,green,between,NA,NaN,NA,NA,NA,NA,left,2879,0,2,1714
IbyHIkV8,3dw3bnf1hkvs8co26ehcm6ry22mv8w,35dr22ar5hx0yollles08uc0632x3s,IbyHIkV8,2020-0188,2021-10-30,23:28:24,00:52:30,NA,incomplete,false,NA,true,NA,4,5,NA,NA,NA,left,NA,NA,NA,present,NA,NA,n_l_005.jpg,gray,m_l_060.jpg,green,between,NA,NaN,NA,NA,NA,NA,right,2767,0,3,1530
IbyHIkV8,3dw3bnf1hkvs8co26ehcm6ry22mv8w,35dr22ar5hx0yollles08uc0632x3s,IbyHIkV8,2020-0188,2021-10-30,23:28:24,00:52:30,NA,incomplete,false,NA,true,NA,4,6,NA,NA,NA,right,NA,NA,NA,present,NA,NA,m_s_008.jpg,gray,m_s_016.jpg,gray,within,NA,NaN,NA,NA,NA,NA,right,2318,1,2,1721
IbyHIkV8,3dw3bnf1hkvs8co26ehcm6ry22mv8w,35dr22ar5hx0yollles08uc0632x3s,IbyHIkV8,2020-0188,2021-10-30,23:28:24,00:52:30,NA,incomplete,false,NA,true,NA,4,7,NA,NA,NA,left,NA,NA,NA,present,NA,NA,m_l_104.jpg,orange,n_l_081.jpg,orange,within,NA,NaN,NA,NA,NA,NA,right,2303,0,2,1421
IbyHIkV8,3dw3bnf1hkvs8co26ehcm6ry22mv8w,35dr22ar5hx0yollles08uc0632x3s,IbyHIkV8,2020-0188,2021-10-30,23:28:24,00:52:30,NA,incomplete,false,NA,true,NA,4,8,NA,NA,NA,left,NA,NA,NA,present,NA,NA,m_l_038.jpg,orange,m_l_040.jpg,gray,between,NA,NaN,NA,NA,NA,NA,left,1839,1,2,1228
IbyHIkV8,3dw3bnf1hkvs8co26ehcm6ry22mv8w,35dr22ar5hx0yollles08uc0632x3s,IbyHIkV8,2020-0188,2021-10-30,23:28:24,00:52:30,NA,incomplete,false,NA,true,NA,4,9,NA,NA,NA,left,NA,NA,NA,present,NA,NA,n_l_001.jpg,purple,n_l_109.jpg,purple,within,NA,NaN,NA,NA,NA,NA,right,2357,0,1,1477
IbyHIkV8,3dw3bnf1hkvs8co26ehcm6ry22mv8w,35dr22ar5hx0yollles08uc0632x3s,IbyHIkV8,2020-0188,2021-10-30,23:28:24,00:52:30,NA,incomplete,false,NA,true,NA,4,10,NA,NA,NA,right,NA,NA,NA,present,NA,NA,m_s_009.jpg,red,m_s_064.jpg,yellow,between,NA,NaN,NA,NA,NA,NA,left,2799,0,3,1949
IbyHIkV8,3dw3bnf1hkvs8co26ehcm6ry22mv8w,35dr22ar5hx0yollles08uc0632x3s,IbyHIkV8,2020-0188,2021-10-30,23:28:24,00:52:30,NA,incomplete,false,true,NA,NA,5,0,NA,orange,m_s_045.jpg,NA,NA,NA,NA,NA,unpleasant,pleasant,NA,NA,NA,NA,NA,right,1805,true,NA,NA,NA,NA,NA,NA,NA,NA
IbyHIkV8,3dw3bnf1hkvs8co26ehcm6ry22mv8w,35dr22ar5hx0yollles08uc0632x3s,IbyHIkV8,2020-0188,2021-10-30,23:28:24,00:52:30,NA,incomplete,false,true,NA,NA,5,1,NA,orange,m_l_033.jpg,NA,NA,NA,NA,NA,pleasant,unpleasant,NA,NA,NA,NA,NA,left,1095,true,NA,NA,NA,NA,NA,NA,NA,NA
IbyHIkV8,3dw3bnf1hkvs8co26ehcm6ry22mv8w,35dr22ar5hx0yollles08uc0632x3s,IbyHIkV8,2020-0188,2021-10-30,23:28:24,00:52:30,NA,incomplete,false,true,NA,NA,5,2,NA,orange,m_l_018.jpg,NA,NA,NA,NA,NA,unpleasant,pleasant,NA,NA,NA,NA,NA,right,1400,true,NA,NA,NA,NA,NA,NA,NA,NA
IbyHIkV8,3dw3bnf1hkvs8co26ehcm6ry22mv8w,35dr22ar5hx0yollles08uc0632x3s,IbyHIkV8,2020-0188,2021-10-30,23:28:24,00:52:30,NA,incomplete,false,true,NA,NA,5,3,NA,orange,m_l_070.jpg,NA,NA,NA,NA,NA,unpleasant,pleasant,NA,NA,NA,NA,NA,right,602,true,NA,NA,NA,NA,NA,NA,NA,NA
IbyHIkV8,3dw3bnf1hkvs8co26ehcm6ry22mv8w,35dr22ar5hx0yollles08uc0632x3s,IbyHIkV8,2020-0188,2021-10-30,23:28:24,00:52:30,NA,incomplete,false,true,NA,NA,5,4,NA,orange,n_s_003.jpg,NA,NA,NA,NA,NA,unpleasant,pleasant,NA,NA,NA,NA,NA,right,1348,true,NA,NA,NA,NA,NA,NA,NA,NA
IbyHIkV8,3dw3bnf1hkvs8co26ehcm6ry22mv8w,35dr22ar5hx0yollles08uc0632x3s,IbyHIkV8,2020-0188,2021-10-30,23:28:24,00:52:30,NA,incomplete,false,true,NA,NA,5,5,NA,orange,m_s_039.jpg,NA,NA,NA,NA,NA,unpleasant,pleasant,NA,NA,NA,NA,NA,left,1124,true,NA,NA,NA,NA,NA,NA,NA,NA
IbyHIkV8,3dw3bnf1hkvs8co26ehcm6ry22mv8w,35dr22ar5hx0yollles08uc0632x3s,IbyHIkV8,2020-0188,2021-10-30,23:28:24,00:52:30,NA,incomplete,false,true,NA,NA,5,6,NA,brown,n_s_112.jpg,NA,NA,NA,NA,NA,unpleasant,pleasant,NA,NA,NA,NA,NA,left,1634,true,NA,NA,NA,NA,NA,NA,NA,NA
IbyHIkV8,3dw3bnf1hkvs8co26ehcm6ry22mv8w,35dr22ar5hx0yollles08uc0632x3s,IbyHIkV8,2020-0188,2021-10-30,23:28:24,00:52:30,NA,incomplete,false,true,NA,NA,5,7,NA,brown,m_l_100.jpg,NA,NA,NA,NA,NA,unpleasant,pleasant,NA,NA,NA,NA,NA,left,1613,true,NA,NA,NA,NA,NA,NA,NA,NA
IbyHIkV8,3dw3bnf1hkvs8co26ehcm6ry22mv8w,35dr22ar5hx0yollles08uc0632x3s,IbyHIkV8,2020-0188,2021-10-30,23:28:24,00:52:30,NA,incomplete,false,true,NA,NA,5,8,NA,brown,n_s_079.jpg,NA,NA,NA,NA,NA,pleasant,unpleasant,NA,NA,NA,NA,NA,left,1223,true,NA,NA,NA,NA,NA,NA,NA,NA
IbyHIkV8,3dw3bnf1hkvs8co26ehcm6ry22mv8w,35dr22ar5hx0yollles08uc0632x3s,IbyHIkV8,2020-0188,2021-10-30,23:28:24,00:52:30,NA,incomplete,false,true,NA,NA,5,9,NA,brown,m_s_098.jpg,NA,NA,NA,NA,NA,unpleasant,pleasant,NA,NA,NA,NA,NA,right,1936,true,NA,NA,NA,NA,NA,NA,NA,NA
IbyHIkV8,3dw3bnf1hkvs8co26ehcm6ry22mv8w,35dr22ar5hx0yollles08uc0632x3s,IbyHIkV8,2020-0188,2021-10-30,23:28:24,00:52:30,NA,incomplete,false,true,NA,NA,5,10,NA,brown,m_l_096.jpg,NA,NA,NA,NA,NA,pleasant,unpleasant,NA,NA,NA,NA,NA,left,1230,true,NA,NA,NA,NA,NA,NA,NA,NA
IbyHIkV8,3dw3bnf1hkvs8co26ehcm6ry22mv8w,35dr22ar5hx0yollles08uc0632x3s,IbyHIkV8,2020-0188,2021-10-30,23:28:24,00:52:30,NA,incomplete,false,true,NA,NA,5,11,NA,brown,n_l_031.jpg,NA,NA,NA,NA,NA,unpleasant,pleasant,NA,NA,NA,NA,NA,right,1523,true,NA,NA,NA,NA,NA,NA,NA,NA
IbyHIkV8,3dw3bnf1hkvs8co26ehcm6ry22mv8w,35dr22ar5hx0yollles08uc0632x3s,IbyHIkV8,2020-0188,2021-10-30,23:28:24,00:52:30,NA,incomplete,false,true,NA,NA,5,12,NA,green,n_l_114.jpg,NA,NA,NA,NA,NA,unpleasant,pleasant,NA,NA,NA,NA,NA,right,1708,true,NA,NA,NA,NA,NA,NA,NA,NA
IbyHIkV8,3dw3bnf1hkvs8co26ehcm6ry22mv8w,35dr22ar5hx0yollles08uc0632x3s,IbyHIkV8,2020-0188,2021-10-30,23:28:24,00:52:30,NA,incomplete,false,true,NA,NA,5,13,NA,green,n_s_015.jpg,NA,NA,NA,NA,NA,unpleasant,pleasant,NA,NA,NA,NA,NA,right,1860,true,NA,NA,NA,NA,NA,NA,NA,NA
IbyHIkV8,3dw3bnf1hkvs8co26ehcm6ry22mv8w,35dr22ar5hx0yollles08uc0632x3s,IbyHIkV8,2020-0188,2021-10-30,23:28:24,00:52:30,NA,incomplete,false,true,NA,NA,5,14,NA,green,n_l_041.jpg,NA,NA,NA,NA,NA,unpleasant,pleasant,NA,NA,NA,NA,NA,left,1280,true,NA,NA,NA,NA,NA,NA,NA,NA
IbyHIkV8,3dw3bnf1hkvs8co26ehcm6ry22mv8w,35dr22ar5hx0yollles08uc0632x3s,IbyHIkV8,2020-0188,2021-10-30,23:28:24,00:52:30,NA,incomplete,false,true,NA,NA,5,15,NA,green,m_s_110.jpg,NA,NA,NA,NA,NA,pleasant,unpleasant,NA,NA,NA,NA,NA,left,1569,true,NA,NA,NA,NA,NA,NA,NA,NA
IbyHIkV8,3dw3bnf1hkvs8co26ehcm6ry22mv8w,35dr22ar5hx0yollles08uc0632x3s,IbyHIkV8,2020-0188,2021-10-30,23:28:24,00:52:30,NA,incomplete,false,true,NA,NA,5,16,NA,green,n_l_071.jpg,NA,NA,NA,NA,NA,pleasant,unpleasant,NA,NA,NA,NA,NA,left,1281,true,NA,NA,NA,NA,NA,NA,NA,NA
IbyHIkV8,3dw3bnf1hkvs8co26ehcm6ry22mv8w,35dr22ar5hx0yollles08uc0632x3s,IbyHIkV8,2020-0188,2021-10-30,23:28:24,00:52:30,NA,incomplete,false,true,NA,NA,5,17,NA,green,n_s_069.jpg,NA,NA,NA,NA,NA,pleasant,unpleasant,NA,NA,NA,NA,NA,left,1534,true,NA,NA,NA,NA,NA,NA,NA,NA
IbyHIkV8,3dw3bnf1hkvs8co26ehcm6ry22mv8w,35dr22ar5hx0yollles08uc0632x3s,IbyHIkV8,2020-0188,2021-10-30,23:28:24,00:52:30,NA,incomplete,false,true,NA,NA,5,18,NA,white,n_l_085.jpg,NA,NA,NA,NA,NA,unpleasant,pleasant,NA,NA,NA,NA,NA,left,1711,true,NA,NA,NA,NA,NA,NA,NA,NA
IbyHIkV8,3dw3bnf1hkvs8co26ehcm6ry22mv8w,35dr22ar5hx0yollles08uc0632x3s,IbyHIkV8,2020-0188,2021-10-30,23:28:24,00:52:30,NA,incomplete,false,true,NA,NA,5,19,NA,white,n_s_107.jpg,NA,NA,NA,NA,NA,pleasant,unpleasant,NA,NA,NA,NA,NA,left,1496,true,NA,NA,NA,NA,NA,NA,NA,NA
IbyHIkV8,3dw3bnf1hkvs8co26ehcm6ry22mv8w,35dr22ar5hx0yollles08uc0632x3s,IbyHIkV8,2020-0188,2021-10-30,23:28:24,00:52:30,NA,incomplete,false,true,NA,NA,5,20,NA,white,m_s_012.jpg,NA,NA,NA,NA,NA,pleasant,unpleasant,NA,NA,NA,NA,NA,left,1214,true,NA,NA,NA,NA,NA,NA,NA,NA
IbyHIkV8,3dw3bnf1hkvs8co26ehcm6ry22mv8w,35dr22ar5hx0yollles08uc0632x3s,IbyHIkV8,2020-0188,2021-10-30,23:28:24,00:52:30,NA,incomplete,false,true,NA,NA,5,21,NA,white,m_l_039.jpg,NA,NA,NA,NA,NA,unpleasant,pleasant,NA,NA,NA,NA,NA,left,1410,true,NA,NA,NA,NA,NA,NA,NA,NA
IbyHIkV8,3dw3bnf1hkvs8co26ehcm6ry22mv8w,35dr22ar5hx0yollles08uc0632x3s,IbyHIkV8,2020-0188,2021-10-30,23:28:24,00:52:30,NA,incomplete,false,true,NA,NA,5,22,NA,white,n_l_010.jpg,NA,NA,NA,NA,NA,pleasant,unpleasant,NA,NA,NA,NA,NA,left,1347,true,NA,NA,NA,NA,NA,NA,NA,NA
IbyHIkV8,3dw3bnf1hkvs8co26ehcm6ry22mv8w,35dr22ar5hx0yollles08uc0632x3s,IbyHIkV8,2020-0188,2021-10-30,23:28:24,00:52:30,NA,incomplete,false,true,NA,NA,5,23,NA,white,n_s_054.jpg,NA,NA,NA,NA,NA,pleasant,unpleasant,NA,NA,NA,NA,NA,left,1338,true,NA,NA,NA,NA,NA,NA,NA,NA
IbyHIkV8,3dw3bnf1hkvs8co26ehcm6ry22mv8w,35dr22ar5hx0yollles08uc0632x3s,IbyHIkV8,2020-0188,2021-10-30,23:28:24,00:52:30,NA,incomplete,false,true,NA,NA,5,24,NA,yellow,n_l_017.jpg,NA,NA,NA,NA,NA,pleasant,unpleasant,NA,NA,NA,NA,NA,left,1308,true,NA,NA,NA,NA,NA,NA,NA,NA
IbyHIkV8,3dw3bnf1hkvs8co26ehcm6ry22mv8w,35dr22ar5hx0yollles08uc0632x3s,IbyHIkV8,2020-0188,2021-10-30,23:28:24,00:52:30,NA,incomplete,false,true,NA,NA,5,25,NA,yellow,m_s_026.jpg,NA,NA,NA,NA,NA,unpleasant,pleasant,NA,NA,NA,NA,NA,left,1258,true,NA,NA,NA,NA,NA,NA,NA,NA
IbyHIkV8,3dw3bnf1hkvs8co26ehcm6ry22mv8w,35dr22ar5hx0yollles08uc0632x3s,IbyHIkV8,2020-0188,2021-10-30,23:28:24,00:52:30,NA,incomplete,false,true,NA,NA,5,26,NA,yellow,m_s_073.jpg,NA,NA,NA,NA,NA,unpleasant,pleasant,NA,NA,NA,NA,NA,left,1703,true,NA,NA,NA,NA,NA,NA,NA,NA
IbyHIkV8,3dw3bnf1hkvs8co26ehcm6ry22mv8w,35dr22ar5hx0yollles08uc0632x3s,IbyHIkV8,2020-0188,2021-10-30,23:28:24,00:52:30,NA,incomplete,false,true,NA,NA,5,27,NA,yellow,n_s_110.jpg,NA,NA,NA,NA,NA,pleasant,unpleasant,NA,NA,NA,NA,NA,right,1941,true,NA,NA,NA,NA,NA,NA,NA,NA
IbyHIkV8,3dw3bnf1hkvs8co26ehcm6ry22mv8w,35dr22ar5hx0yollles08uc0632x3s,IbyHIkV8,2020-0188,2021-10-30,23:28:24,00:52:30,NA,incomplete,false,true,NA,NA,5,28,NA,yellow,m_l_090.jpg,NA,NA,NA,NA,NA,unpleasant,pleasant,NA,NA,NA,NA,NA,left,1266,true,NA,NA,NA,NA,NA,NA,NA,NA
IbyHIkV8,3dw3bnf1hkvs8co26ehcm6ry22mv8w,35dr22ar5hx0yollles08uc0632x3s,IbyHIkV8,2020-0188,2021-10-30,23:28:24,00:52:30,NA,incomplete,false,true,NA,NA,5,29,NA,yellow,m_l_027.jpg,NA,NA,NA,NA,NA,unpleasant,pleasant,NA,NA,NA,NA,NA,left,1688,true,NA,NA,NA,NA,NA,NA,NA,NA
IbyHIkV8,3dw3bnf1hkvs8co26ehcm6ry22mv8w,35dr22ar5hx0yollles08uc0632x3s,IbyHIkV8,2020-0188,2021-10-30,23:28:24,00:52:30,NA,incomplete,false,true,NA,NA,5,30,NA,gray,m_l_058.jpg,NA,NA,NA,NA,NA,pleasant,unpleasant,NA,NA,NA,NA,NA,right,1836,true,NA,NA,NA,NA,NA,NA,NA,NA
IbyHIkV8,3dw3bnf1hkvs8co26ehcm6ry22mv8w,35dr22ar5hx0yollles08uc0632x3s,IbyHIkV8,2020-0188,2021-10-30,23:28:24,00:52:30,NA,incomplete,false,true,NA,NA,5,31,NA,gray,m_s_081.jpg,NA,NA,NA,NA,NA,unpleasant,pleasant,NA,NA,NA,NA,NA,left,3069,true,NA,NA,NA,NA,NA,NA,NA,NA
IbyHIkV8,3dw3bnf1hkvs8co26ehcm6ry22mv8w,35dr22ar5hx0yollles08uc0632x3s,IbyHIkV8,2020-0188,2021-10-30,23:28:24,00:52:30,NA,incomplete,false,true,NA,NA,5,32,NA,gray,n_s_102.jpg,NA,NA,NA,NA,NA,pleasant,unpleasant,NA,NA,NA,NA,NA,left,2411,true,NA,NA,NA,NA,NA,NA,NA,NA
