workerId,hitId,assignmentId,subject,studyid,exp_date,exp_start,exp_end,time_start,time_end,practice,encoding,memory,association,block,trial,event_order,event,stim,answer,object,left_context,right_context,context_type,label_left,label_right,left_image,left_event,right_image,right_event,condition,response,response_time,response_acc,association_response_time,association_response,association_acc,order_response,order_response_time,order_acc,distance_response,distance_response_time
nKxgXMuB,3bawbgqgzoco8yjjw9p686v3rigv79,3634bbtx0s7yo5cj6nt16teilg4ifn,nKxgXMuB,2020-0188,2021-10-31,00:47:50,02:13:52,NA,incomplete,true,true,NA,NA,0,0,NA,black,m_l_022.jpg,NA,NA,NA,NA,NA,unpleasant,pleasant,NA,NA,NA,NA,NA,right,2560.19999999553,true,NA,NA,NA,NA,NA,NA,NA,NA
nKxgXMuB,3bawbgqgzoco8yjjw9p686v3rigv79,3634bbtx0s7yo5cj6nt16teilg4ifn,nKxgXMuB,2020-0188,2021-10-31,00:47:50,02:13:52,NA,incomplete,true,true,NA,NA,0,1,NA,black,m_s_021.jpg,NA,NA,NA,NA,NA,unpleasant,pleasant,NA,NA,NA,NA,NA,right,1500.60000000149,true,NA,NA,NA,NA,NA,NA,NA,NA
nKxgXMuB,3bawbgqgzoco8yjjw9p686v3rigv79,3634bbtx0s7yo5cj6nt16teilg4ifn,nKxgXMuB,2020-0188,2021-10-31,00:47:50,02:13:52,NA,incomplete,true,true,NA,NA,0,2,NA,black,n_s_067.jpg,NA,NA,NA,NA,NA,unpleasant,pleasant,NA,NA,NA,NA,NA,right,1521.70000000298,true,NA,NA,NA,NA,NA,NA,NA,NA
nKxgXMuB,3bawbgqgzoco8yjjw9p686v3rigv79,3634bbtx0s7yo5cj6nt16teilg4ifn,nKxgXMuB,2020-0188,2021-10-31,00:47:50,02:13:52,NA,incomplete,true,true,NA,NA,0,3,NA,black,n_l_054.jpg,NA,NA,NA,NA,NA,pleasant,unpleasant,NA,NA,NA,NA,NA,left,1779.5,true,NA,NA,NA,NA,NA,NA,NA,NA
nKxgXMuB,3bawbgqgzoco8yjjw9p686v3rigv79,3634bbtx0s7yo5cj6nt16teilg4ifn,nKxgXMuB,2020-0188,2021-10-31,00:47:50,02:13:52,NA,incomplete,true,true,NA,NA,0,4,NA,black,m_l_084.jpg,NA,NA,NA,NA,NA,unpleasant,pleasant,NA,NA,NA,NA,NA,right,1542.69999999553,true,NA,NA,NA,NA,NA,NA,NA,NA
nKxgXMuB,3bawbgqgzoco8yjjw9p686v3rigv79,3634bbtx0s7yo5cj6nt16teilg4ifn,nKxgXMuB,2020-0188,2021-10-31,00:47:50,02:13:52,NA,incomplete,true,true,NA,NA,0,5,NA,black,n_s_111.jpg,NA,NA,NA,NA,NA,unpleasant,pleasant,NA,NA,NA,NA,NA,right,1534.60000000149,true,NA,NA,NA,NA,NA,NA,NA,NA
nKxgXMuB,3bawbgqgzoco8yjjw9p686v3rigv79,3634bbtx0s7yo5cj6nt16teilg4ifn,nKxgXMuB,2020-0188,2021-10-31,00:47:50,02:13:52,NA,incomplete,true,true,NA,NA,0,6,NA,gray,n_l_041.jpg,NA,NA,NA,NA,NA,pleasant,unpleasant,NA,NA,NA,NA,NA,left,1601.5,true,NA,NA,NA,NA,NA,NA,NA,NA
nKxgXMuB,3bawbgqgzoco8yjjw9p686v3rigv79,3634bbtx0s7yo5cj6nt16teilg4ifn,nKxgXMuB,2020-0188,2021-10-31,00:47:50,02:13:52,NA,incomplete,true,true,NA,NA,0,7,NA,gray,m_s_067.jpg,NA,NA,NA,NA,NA,unpleasant,pleasant,NA,NA,NA,NA,NA,right,1419.79999999702,true,NA,NA,NA,NA,NA,NA,NA,NA
nKxgXMuB,3bawbgqgzoco8yjjw9p686v3rigv79,3634bbtx0s7yo5cj6nt16teilg4ifn,nKxgXMuB,2020-0188,2021-10-31,00:47:50,02:13:52,NA,incomplete,true,true,NA,NA,0,8,NA,gray,n_s_104.jpg,NA,NA,NA,NA,NA,pleasant,unpleasant,NA,NA,NA,NA,NA,right,2093.39999999851,true,NA,NA,NA,NA,NA,NA,NA,NA
nKxgXMuB,3bawbgqgzoco8yjjw9p686v3rigv79,3634bbtx0s7yo5cj6nt16teilg4ifn,nKxgXMuB,2020-0188,2021-10-31,00:47:50,02:13:52,NA,incomplete,true,true,NA,NA,0,9,NA,gray,n_s_108.jpg,NA,NA,NA,NA,NA,pleasant,unpleasant,NA,NA,NA,NA,NA,left,1850,true,NA,NA,NA,NA,NA,NA,NA,NA
nKxgXMuB,3bawbgqgzoco8yjjw9p686v3rigv79,3634bbtx0s7yo5cj6nt16teilg4ifn,nKxgXMuB,2020-0188,2021-10-31,00:47:50,02:13:52,NA,incomplete,true,true,NA,NA,0,10,NA,gray,m_s_025.jpg,NA,NA,NA,NA,NA,unpleasant,pleasant,NA,NA,NA,NA,NA,right,2356.20000000298,true,NA,NA,NA,NA,NA,NA,NA,NA
nKxgXMuB,3bawbgqgzoco8yjjw9p686v3rigv79,3634bbtx0s7yo5cj6nt16teilg4ifn,nKxgXMuB,2020-0188,2021-10-31,00:47:50,02:13:52,NA,incomplete,true,true,NA,NA,0,11,NA,gray,n_s_100.jpg,NA,NA,NA,NA,NA,pleasant,unpleasant,NA,NA,NA,NA,NA,left,1521.90000000596,true,NA,NA,NA,NA,NA,NA,NA,NA
nKxgXMuB,3bawbgqgzoco8yjjw9p686v3rigv79,3634bbtx0s7yo5cj6nt16teilg4ifn,nKxgXMuB,2020-0188,2021-10-31,00:47:50,02:13:52,NA,incomplete,true,true,NA,NA,0,12,NA,yellow,n_s_063.jpg,NA,NA,NA,NA,NA,pleasant,unpleasant,NA,NA,NA,NA,NA,left,1126.89999999851,true,NA,NA,NA,NA,NA,NA,NA,NA
nKxgXMuB,3bawbgqgzoco8yjjw9p686v3rigv79,3634bbtx0s7yo5cj6nt16teilg4ifn,nKxgXMuB,2020-0188,2021-10-31,00:47:50,02:13:52,NA,incomplete,true,true,NA,NA,0,13,NA,yellow,n_l_015.jpg,NA,NA,NA,NA,NA,pleasant,unpleasant,NA,NA,NA,NA,NA,left,1349.60000000149,true,NA,NA,NA,NA,NA,NA,NA,NA
nKxgXMuB,3bawbgqgzoco8yjjw9p686v3rigv79,3634bbtx0s7yo5cj6nt16teilg4ifn,nKxgXMuB,2020-0188,2021-10-31,00:47:50,02:13:52,NA,incomplete,true,true,NA,NA,0,14,NA,yellow,m_l_085.jpg,NA,NA,NA,NA,NA,pleasant,unpleasant,NA,NA,NA,NA,NA,left,1320,true,NA,NA,NA,NA,NA,NA,NA,NA
nKxgXMuB,3bawbgqgzoco8yjjw9p686v3rigv79,3634bbtx0s7yo5cj6nt16teilg4ifn,nKxgXMuB,2020-0188,2021-10-31,00:47:50,02:13:52,NA,incomplete,true,true,NA,NA,0,15,NA,yellow,m_s_050.jpg,NA,NA,NA,NA,NA,unpleasant,pleasant,NA,NA,NA,NA,NA,none,0,false,NA,NA,NA,NA,NA,NA,NA,NA
nKxgXMuB,3bawbgqgzoco8yjjw9p686v3rigv79,3634bbtx0s7yo5cj6nt16teilg4ifn,nKxgXMuB,2020-0188,2021-10-31,00:47:50,02:13:52,NA,incomplete,true,true,NA,NA,0,16,NA,yellow,m_s_098.jpg,NA,NA,NA,NA,NA,pleasant,unpleasant,NA,NA,NA,NA,NA,left,1896,true,NA,NA,NA,NA,NA,NA,NA,NA
nKxgXMuB,3bawbgqgzoco8yjjw9p686v3rigv79,3634bbtx0s7yo5cj6nt16teilg4ifn,nKxgXMuB,2020-0188,2021-10-31,00:47:50,02:13:52,NA,incomplete,true,true,NA,NA,0,17,NA,yellow,n_s_036.jpg,NA,NA,NA,NA,NA,unpleasant,pleasant,NA,NA,NA,NA,NA,right,1304.29999999702,true,NA,NA,NA,NA,NA,NA,NA,NA
nKxgXMuB,3bawbgqgzoco8yjjw9p686v3rigv79,3634bbtx0s7yo5cj6nt16teilg4ifn,nKxgXMuB,2020-0188,2021-10-31,00:47:50,02:13:52,NA,incomplete,true,true,NA,NA,0,18,NA,white,m_s_097.jpg,NA,NA,NA,NA,NA,pleasant,unpleasant,NA,NA,NA,NA,NA,left,1775.5,true,NA,NA,NA,NA,NA,NA,NA,NA
nKxgXMuB,3bawbgqgzoco8yjjw9p686v3rigv79,3634bbtx0s7yo5cj6nt16teilg4ifn,nKxgXMuB,2020-0188,2021-10-31,00:47:50,02:13:52,NA,incomplete,true,true,NA,NA,0,19,NA,white,m_s_055.jpg,NA,NA,NA,NA,NA,pleasant,unpleasant,NA,NA,NA,NA,NA,left,1649.39999999851,true,NA,NA,NA,NA,NA,NA,NA,NA
nKxgXMuB,3bawbgqgzoco8yjjw9p686v3rigv79,3634bbtx0s7yo5cj6nt16teilg4ifn,nKxgXMuB,2020-0188,2021-10-31,00:47:50,02:13:52,NA,incomplete,true,true,NA,NA,0,20,NA,white,n_s_019.jpg,NA,NA,NA,NA,NA,pleasant,unpleasant,NA,NA,NA,NA,NA,left,1266,true,NA,NA,NA,NA,NA,NA,NA,NA
nKxgXMuB,3bawbgqgzoco8yjjw9p686v3rigv79,3634bbtx0s7yo5cj6nt16teilg4ifn,nKxgXMuB,2020-0188,2021-10-31,00:47:50,02:13:52,NA,incomplete,true,true,NA,NA,0,21,NA,white,n_s_084.jpg,NA,NA,NA,NA,NA,unpleasant,pleasant,NA,NA,NA,NA,NA,right,1371.20000000298,true,NA,NA,NA,NA,NA,NA,NA,NA
nKxgXMuB,3bawbgqgzoco8yjjw9p686v3rigv79,3634bbtx0s7yo5cj6nt16teilg4ifn,nKxgXMuB,2020-0188,2021-10-31,00:47:50,02:13:52,NA,incomplete,true,true,NA,NA,0,22,NA,white,m_l_053.jpg,NA,NA,NA,NA,NA,pleasant,unpleasant,NA,NA,NA,NA,NA,left,1590.90000000596,true,NA,NA,NA,NA,NA,NA,NA,NA
nKxgXMuB,3bawbgqgzoco8yjjw9p686v3rigv79,3634bbtx0s7yo5cj6nt16teilg4ifn,nKxgXMuB,2020-0188,2021-10-31,00:47:50,02:13:52,NA,incomplete,true,true,NA,NA,0,23,NA,white,n_l_029.jpg,NA,NA,NA,NA,NA,pleasant,unpleasant,NA,NA,NA,NA,NA,left,1532.39999999851,true,NA,NA,NA,NA,NA,NA,NA,NA
nKxgXMuB,3bawbgqgzoco8yjjw9p686v3rigv79,3634bbtx0s7yo5cj6nt16teilg4ifn,nKxgXMuB,2020-0188,2021-10-31,00:47:50,02:13:52,NA,incomplete,true,true,NA,NA,0,24,NA,green,m_s_061.jpg,NA,NA,NA,NA,NA,unpleasant,pleasant,NA,NA,NA,NA,NA,right,1435.70000000298,true,NA,NA,NA,NA,NA,NA,NA,NA
nKxgXMuB,3bawbgqgzoco8yjjw9p686v3rigv79,3634bbtx0s7yo5cj6nt16teilg4ifn,nKxgXMuB,2020-0188,2021-10-31,00:47:50,02:13:52,NA,incomplete,true,true,NA,NA,0,25,NA,green,n_s_014.jpg,NA,NA,NA,NA,NA,unpleasant,pleasant,NA,NA,NA,NA,NA,right,1849.70000000298,true,NA,NA,NA,NA,NA,NA,NA,NA
nKxgXMuB,3bawbgqgzoco8yjjw9p686v3rigv79,3634bbtx0s7yo5cj6nt16teilg4ifn,nKxgXMuB,2020-0188,2021-10-31,00:47:50,02:13:52,NA,incomplete,true,true,NA,NA,0,26,NA,green,n_s_101.jpg,NA,NA,NA,NA,NA,unpleasant,pleasant,NA,NA,NA,NA,NA,right,1269.30000000447,true,NA,NA,NA,NA,NA,NA,NA,NA
nKxgXMuB,3bawbgqgzoco8yjjw9p686v3rigv79,3634bbtx0s7yo5cj6nt16teilg4ifn,nKxgXMuB,2020-0188,2021-10-31,00:47:50,02:13:52,NA,incomplete,true,true,NA,NA,0,27,NA,green,m_l_117.jpg,NA,NA,NA,NA,NA,unpleasant,pleasant,NA,NA,NA,NA,NA,right,1346.5,true,NA,NA,NA,NA,NA,NA,NA,NA
nKxgXMuB,3bawbgqgzoco8yjjw9p686v3rigv79,3634bbtx0s7yo5cj6nt16teilg4ifn,nKxgXMuB,2020-0188,2021-10-31,00:47:50,02:13:52,NA,incomplete,true,true,NA,NA,0,28,NA,green,n_s_089.jpg,NA,NA,NA,NA,NA,pleasant,unpleasant,NA,NA,NA,NA,NA,left,1760.80000000447,true,NA,NA,NA,NA,NA,NA,NA,NA
nKxgXMuB,3bawbgqgzoco8yjjw9p686v3rigv79,3634bbtx0s7yo5cj6nt16teilg4ifn,nKxgXMuB,2020-0188,2021-10-31,00:47:50,02:13:52,NA,incomplete,true,true,NA,NA,0,29,NA,green,n_l_077.jpg,NA,NA,NA,NA,NA,unpleasant,pleasant,NA,NA,NA,NA,NA,right,1348.39999999851,true,NA,NA,NA,NA,NA,NA,NA,NA
nKxgXMuB,3bawbgqgzoco8yjjw9p686v3rigv79,3634bbtx0s7yo5cj6nt16teilg4ifn,nKxgXMuB,2020-0188,2021-10-31,00:47:50,02:13:52,NA,incomplete,true,true,NA,NA,0,30,NA,blue,n_s_055.jpg,NA,NA,NA,NA,NA,unpleasant,pleasant,NA,NA,NA,NA,NA,right,2083.79999999702,true,NA,NA,NA,NA,NA,NA,NA,NA
nKxgXMuB,3bawbgqgzoco8yjjw9p686v3rigv79,3634bbtx0s7yo5cj6nt16teilg4ifn,nKxgXMuB,2020-0188,2021-10-31,00:47:50,02:13:52,NA,incomplete,true,true,NA,NA,0,31,NA,blue,m_s_069.jpg,NA,NA,NA,NA,NA,unpleasant,pleasant,NA,NA,NA,NA,NA,right,2106.30000000447,true,NA,NA,NA,NA,NA,NA,NA,NA
nKxgXMuB,3bawbgqgzoco8yjjw9p686v3rigv79,3634bbtx0s7yo5cj6nt16teilg4ifn,nKxgXMuB,2020-0188,2021-10-31,00:47:50,02:13:52,NA,incomplete,true,true,NA,NA,0,32,NA,blue,n_s_109.jpg,NA,NA,NA,NA,NA,unpleasant,pleasant,NA,NA,NA,NA,NA,right,2149.29999999702,true,NA,NA,NA,NA,NA,NA,NA,NA
nKxgXMuB,3bawbgqgzoco8yjjw9p686v3rigv79,3634bbtx0s7yo5cj6nt16teilg4ifn,nKxgXMuB,2020-0188,2021-10-31,00:47:50,02:13:52,NA,incomplete,true,true,NA,NA,0,33,NA,blue,n_s_088.jpg,NA,NA,NA,NA,NA,pleasant,unpleasant,NA,NA,NA,NA,NA,left,2649.40000000596,true,NA,NA,NA,NA,NA,NA,NA,NA
nKxgXMuB,3bawbgqgzoco8yjjw9p686v3rigv79,3634bbtx0s7yo5cj6nt16teilg4ifn,nKxgXMuB,2020-0188,2021-10-31,00:47:50,02:13:52,NA,incomplete,true,true,NA,NA,0,34,NA,blue,m_l_031.jpg,NA,NA,NA,NA,NA,pleasant,unpleasant,NA,NA,NA,NA,NA,left,1296.89999999851,true,NA,NA,NA,NA,NA,NA,NA,NA
nKxgXMuB,3bawbgqgzoco8yjjw9p686v3rigv79,3634bbtx0s7yo5cj6nt16teilg4ifn,nKxgXMuB,2020-0188,2021-10-31,00:47:50,02:13:52,NA,incomplete,true,true,NA,NA,0,35,NA,blue,m_s_110.jpg,NA,NA,NA,NA,NA,pleasant,unpleasant,NA,NA,NA,NA,NA,left,1503.19999999553,true,NA,NA,NA,NA,NA,NA,NA,NA
nKxgXMuB,3bawbgqgzoco8yjjw9p686v3rigv79,3634bbtx0s7yo5cj6nt16teilg4ifn,nKxgXMuB,2020-0188,2021-10-31,00:47:50,02:13:52,NA,incomplete,true,NA,NA,true,0,0,NA,NA,NA,left,m_s_098.jpg,yellow,white,NA,NA,NA,NA,NA,NA,NA,NA,NA,NaN,NA,5196.70000000298,left,1,NA,NA,NA,NA,NA
nKxgXMuB,3bawbgqgzoco8yjjw9p686v3rigv79,3634bbtx0s7yo5cj6nt16teilg4ifn,nKxgXMuB,2020-0188,2021-10-31,00:47:50,02:13:52,NA,incomplete,true,NA,NA,true,0,1,NA,NA,NA,left,n_s_101.jpg,green,blue,NA,NA,NA,NA,NA,NA,NA,NA,NA,NaN,NA,7468.69999999553,left,1,NA,NA,NA,NA,NA
nKxgXMuB,3bawbgqgzoco8yjjw9p686v3rigv79,3634bbtx0s7yo5cj6nt16teilg4ifn,nKxgXMuB,2020-0188,2021-10-31,00:47:50,02:13:52,NA,incomplete,true,NA,NA,true,0,2,NA,NA,NA,left,n_l_029.jpg,white,green,NA,NA,NA,NA,NA,NA,NA,NA,NA,NaN,NA,12745.10000000149,left,1,NA,NA,NA,NA,NA
nKxgXMuB,3bawbgqgzoco8yjjw9p686v3rigv79,3634bbtx0s7yo5cj6nt16teilg4ifn,nKxgXMuB,2020-0188,2021-10-31,00:47:50,02:13:52,NA,incomplete,true,NA,NA,true,0,3,NA,NA,NA,right,n_s_019.jpg,yellow,white,NA,NA,NA,NA,NA,NA,NA,NA,NA,NaN,NA,6456.5,right,1,NA,NA,NA,NA,NA
nKxgXMuB,3bawbgqgzoco8yjjw9p686v3rigv79,3634bbtx0s7yo5cj6nt16teilg4ifn,nKxgXMuB,2020-0188,2021-10-31,00:47:50,02:13:52,NA,incomplete,true,NA,NA,true,0,4,NA,NA,NA,left,n_l_077.jpg,green,white,NA,NA,NA,NA,NA,NA,NA,NA,NA,NaN,NA,3936.39999999851,left,1,NA,NA,NA,NA,NA
nKxgXMuB,3bawbgqgzoco8yjjw9p686v3rigv79,3634bbtx0s7yo5cj6nt16teilg4ifn,nKxgXMuB,2020-0188,2021-10-31,00:47:50,02:13:52,NA,incomplete,true,NA,NA,true,0,5,NA,NA,NA,right,m_s_069.jpg,green,blue,NA,NA,NA,NA,NA,NA,NA,NA,NA,NaN,NA,5511.39999999851,right,1,NA,NA,NA,NA,NA
nKxgXMuB,3bawbgqgzoco8yjjw9p686v3rigv79,3634bbtx0s7yo5cj6nt16teilg4ifn,nKxgXMuB,2020-0188,2021-10-31,00:47:50,02:13:52,NA,incomplete,true,NA,NA,true,0,6,NA,NA,NA,right,m_s_067.jpg,black,gray,NA,NA,NA,NA,NA,NA,NA,NA,NA,NaN,NA,1990.3000000044703,left,0,NA,NA,NA,NA,NA
nKxgXMuB,3bawbgqgzoco8yjjw9p686v3rigv79,3634bbtx0s7yo5cj6nt16teilg4ifn,nKxgXMuB,2020-0188,2021-10-31,00:47:50,02:13:52,NA,incomplete,true,NA,NA,true,0,7,NA,NA,NA,left,n_s_100.jpg,gray,black,NA,NA,NA,NA,NA,NA,NA,NA,NA,NaN,NA,6085.39999999851,left,1,NA,NA,NA,NA,NA
nKxgXMuB,3bawbgqgzoco8yjjw9p686v3rigv79,3634bbtx0s7yo5cj6nt16teilg4ifn,nKxgXMuB,2020-0188,2021-10-31,00:47:50,02:13:52,NA,incomplete,true,NA,NA,true,0,8,NA,NA,NA,right,m_l_085.jpg,white,yellow,NA,NA,NA,NA,NA,NA,NA,NA,NA,NaN,NA,6996.39999999851,right,1,NA,NA,NA,NA,NA
nKxgXMuB,3bawbgqgzoco8yjjw9p686v3rigv79,3634bbtx0s7yo5cj6nt16teilg4ifn,nKxgXMuB,2020-0188,2021-10-31,00:47:50,02:13:52,NA,incomplete,true,NA,NA,true,0,9,NA,NA,NA,left,n_l_015.jpg,yellow,gray,NA,NA,NA,NA,NA,NA,NA,NA,NA,NaN,NA,6017.80000000447,left,1,NA,NA,NA,NA,NA
nKxgXMuB,3bawbgqgzoco8yjjw9p686v3rigv79,3634bbtx0s7yo5cj6nt16teilg4ifn,nKxgXMuB,2020-0188,2021-10-31,00:47:50,02:13:52,NA,incomplete,true,NA,NA,true,0,10,NA,NA,NA,left,n_s_089.jpg,green,white,NA,NA,NA,NA,NA,NA,NA,NA,NA,NaN,NA,3205.10000000149,left,1,NA,NA,NA,NA,NA
nKxgXMuB,3bawbgqgzoco8yjjw9p686v3rigv79,3634bbtx0s7yo5cj6nt16teilg4ifn,nKxgXMuB,2020-0188,2021-10-31,00:47:50,02:13:52,NA,incomplete,true,NA,NA,true,0,11,NA,NA,NA,left,n_s_036.jpg,yellow,white,NA,NA,NA,NA,NA,NA,NA,NA,NA,NaN,NA,3846.2999999970198,left,1,NA,NA,NA,NA,NA
nKxgXMuB,3bawbgqgzoco8yjjw9p686v3rigv79,3634bbtx0s7yo5cj6nt16teilg4ifn,nKxgXMuB,2020-0188,2021-10-31,00:47:50,02:13:52,NA,incomplete,true,NA,NA,true,0,12,NA,NA,NA,left,m_l_084.jpg,black,gray,NA,NA,NA,NA,NA,NA,NA,NA,NA,NaN,NA,5230,left,1,NA,NA,NA,NA,NA
nKxgXMuB,3bawbgqgzoco8yjjw9p686v3rigv79,3634bbtx0s7yo5cj6nt16teilg4ifn,nKxgXMuB,2020-0188,2021-10-31,00:47:50,02:13:52,NA,incomplete,true,NA,NA,true,0,13,NA,NA,NA,right,m_s_110.jpg,green,blue,NA,NA,NA,NA,NA,NA,NA,NA,NA,NaN,NA,2023.8999999985099,right,1,NA,NA,NA,NA,NA
nKxgXMuB,3bawbgqgzoco8yjjw9p686v3rigv79,3634bbtx0s7yo5cj6nt16teilg4ifn,nKxgXMuB,2020-0188,2021-10-31,00:47:50,02:13:52,NA,incomplete,true,NA,NA,true,0,14,NA,NA,NA,left,m_l_053.jpg,white,yellow,NA,NA,NA,NA,NA,NA,NA,NA,NA,NaN,NA,3734,left,1,NA,NA,NA,NA,NA
nKxgXMuB,3bawbgqgzoco8yjjw9p686v3rigv79,3634bbtx0s7yo5cj6nt16teilg4ifn,nKxgXMuB,2020-0188,2021-10-31,00:47:50,02:13:52,NA,incomplete,true,NA,NA,true,0,15,NA,NA,NA,right,n_s_104.jpg,black,gray,NA,NA,NA,NA,NA,NA,NA,NA,NA,NaN,NA,9111.40000000596,right,1,NA,NA,NA,NA,NA
nKxgXMuB,3bawbgqgzoco8yjjw9p686v3rigv79,3634bbtx0s7yo5cj6nt16teilg4ifn,nKxgXMuB,2020-0188,2021-10-31,00:47:50,02:13:52,NA,incomplete,true,NA,NA,true,0,16,NA,NA,NA,left,n_s_109.jpg,blue,green,NA,NA,NA,NA,NA,NA,NA,NA,NA,NaN,NA,8953.89999999851,left,1,NA,NA,NA,NA,NA
nKxgXMuB,3bawbgqgzoco8yjjw9p686v3rigv79,3634bbtx0s7yo5cj6nt16teilg4ifn,nKxgXMuB,2020-0188,2021-10-31,00:47:50,02:13:52,NA,incomplete,true,NA,NA,true,0,17,NA,NA,NA,right,m_s_021.jpg,gray,black,NA,NA,NA,NA,NA,NA,NA,NA,NA,NaN,NA,3182.8000000044703,right,1,NA,NA,NA,NA,NA
nKxgXMuB,3bawbgqgzoco8yjjw9p686v3rigv79,3634bbtx0s7yo5cj6nt16teilg4ifn,nKxgXMuB,2020-0188,2021-10-31,00:47:50,02:13:52,NA,incomplete,true,NA,NA,true,0,18,NA,NA,NA,left,m_s_025.jpg,gray,yellow,NA,NA,NA,NA,NA,NA,NA,NA,NA,NaN,NA,7919,left,1,NA,NA,NA,NA,NA
nKxgXMuB,3bawbgqgzoco8yjjw9p686v3rigv79,3634bbtx0s7yo5cj6nt16teilg4ifn,nKxgXMuB,2020-0188,2021-10-31,00:47:50,02:13:52,NA,incomplete,true,NA,NA,true,0,19,NA,NA,NA,right,n_s_111.jpg,gray,black,NA,NA,NA,NA,NA,NA,NA,NA,NA,NaN,NA,3823.7999999970198,right,1,NA,NA,NA,NA,NA
nKxgXMuB,3bawbgqgzoco8yjjw9p686v3rigv79,3634bbtx0s7yo5cj6nt16teilg4ifn,nKxgXMuB,2020-0188,2021-10-31,00:47:50,02:13:52,NA,incomplete,true,NA,NA,true,0,20,NA,NA,NA,left,m_s_055.jpg,white,green,NA,NA,NA,NA,NA,NA,NA,NA,NA,NaN,NA,5106.39999999851,left,1,NA,NA,NA,NA,NA
nKxgXMuB,3bawbgqgzoco8yjjw9p686v3rigv79,3634bbtx0s7yo5cj6nt16teilg4ifn,nKxgXMuB,2020-0188,2021-10-31,00:47:50,02:13:52,NA,incomplete,true,NA,NA,true,0,21,NA,NA,NA,left,n_s_014.jpg,green,white,NA,NA,NA,NA,NA,NA,NA,NA,NA,NaN,NA,1596.8999999985099,left,1,NA,NA,NA,NA,NA
nKxgXMuB,3bawbgqgzoco8yjjw9p686v3rigv79,3634bbtx0s7yo5cj6nt16teilg4ifn,nKxgXMuB,2020-0188,2021-10-31,00:47:50,02:13:52,NA,incomplete,true,NA,true,NA,0,0,NA,NA,NA,right,NA,NA,NA,present,NA,NA,n_s_104.jpg,gray,m_l_084.jpg,black,between,NA,NaN,NA,NA,NA,NA,right,5309,1,1,2159.4000000059605
nKxgXMuB,3bawbgqgzoco8yjjw9p686v3rigv79,3634bbtx0s7yo5cj6nt16teilg4ifn,nKxgXMuB,2020-0188,2021-10-31,00:47:50,02:13:52,NA,incomplete,true,NA,true,NA,0,1,NA,NA,NA,left,NA,NA,NA,present,NA,NA,m_s_067.jpg,gray,n_s_100.jpg,gray,within,NA,NaN,NA,NA,NA,NA,left,11946.20000000298,1,2,6388.80000000447
nKxgXMuB,3bawbgqgzoco8yjjw9p686v3rigv79,3634bbtx0s7yo5cj6nt16teilg4ifn,nKxgXMuB,2020-0188,2021-10-31,00:47:50,02:13:52,NA,incomplete,true,NA,true,NA,0,2,NA,NA,NA,left,NA,NA,NA,present,NA,NA,m_s_055.jpg,white,n_l_029.jpg,white,within,NA,NaN,NA,NA,NA,NA,left,18617.39999999851,1,2,3374.10000000149
nKxgXMuB,3bawbgqgzoco8yjjw9p686v3rigv79,3634bbtx0s7yo5cj6nt16teilg4ifn,nKxgXMuB,2020-0188,2021-10-31,00:47:50,02:13:52,NA,incomplete,true,NA,true,NA,0,3,NA,NA,NA,right,NA,NA,NA,present,NA,NA,m_s_110.jpg,blue,m_s_069.jpg,blue,within,NA,NaN,NA,NA,NA,NA,right,3835.39999999851,1,0,4453.70000000298
nKxgXMuB,3bawbgqgzoco8yjjw9p686v3rigv79,3634bbtx0s7yo5cj6nt16teilg4ifn,nKxgXMuB,2020-0188,2021-10-31,00:47:50,02:13:52,NA,incomplete,true,NA,true,NA,0,4,NA,NA,NA,left,NA,NA,NA,present,NA,NA,n_l_015.jpg,yellow,n_s_036.jpg,yellow,within,NA,NaN,NA,NA,NA,NA,left,6456.0999999940395,1,1,1304.0999999940395
nKxgXMuB,3bawbgqgzoco8yjjw9p686v3rigv79,3634bbtx0s7yo5cj6nt16teilg4ifn,nKxgXMuB,2020-0188,2021-10-31,00:47:50,02:13:52,NA,incomplete,true,NA,true,NA,0,5,NA,NA,NA,right,NA,NA,NA,present,NA,NA,m_l_085.jpg,yellow,m_s_025.jpg,gray,between,NA,NaN,NA,NA,NA,NA,left,10809.79999999702,0,2,1146.2999999970198
nKxgXMuB,3bawbgqgzoco8yjjw9p686v3rigv79,3634bbtx0s7yo5cj6nt16teilg4ifn,nKxgXMuB,2020-0188,2021-10-31,00:47:50,02:13:52,NA,incomplete,true,NA,true,NA,0,6,NA,NA,NA,left,NA,NA,NA,present,NA,NA,m_s_098.jpg,yellow,n_s_019.jpg,white,between,NA,NaN,NA,NA,NA,NA,left,9167.79999999702,1,2,2597.39999999851
nKxgXMuB,3bawbgqgzoco8yjjw9p686v3rigv79,3634bbtx0s7yo5cj6nt16teilg4ifn,nKxgXMuB,2020-0188,2021-10-31,00:47:50,02:13:52,NA,incomplete,true,NA,true,NA,0,7,NA,NA,NA,right,NA,NA,NA,present,NA,NA,n_s_111.jpg,black,m_s_021.jpg,black,within,NA,NaN,NA,NA,NA,NA,right,6456.0999999940395,1,0,2428.5
nKxgXMuB,3bawbgqgzoco8yjjw9p686v3rigv79,3634bbtx0s7yo5cj6nt16teilg4ifn,nKxgXMuB,2020-0188,2021-10-31,00:47:50,02:13:52,NA,incomplete,true,NA,true,NA,0,8,NA,NA,NA,left,NA,NA,NA,present,NA,NA,n_s_014.jpg,green,n_l_077.jpg,green,within,NA,NaN,NA,NA,NA,NA,left,7986.19999999553,1,1,1596.5
nKxgXMuB,3bawbgqgzoco8yjjw9p686v3rigv79,3634bbtx0s7yo5cj6nt16teilg4ifn,nKxgXMuB,2020-0188,2021-10-31,00:47:50,02:13:52,NA,incomplete,true,NA,true,NA,0,9,NA,NA,NA,left,NA,NA,NA,present,NA,NA,n_s_089.jpg,green,n_s_109.jpg,blue,between,NA,NaN,NA,NA,NA,NA,left,6355.10000000149,1,2,1236.5
nKxgXMuB,3bawbgqgzoco8yjjw9p686v3rigv79,3634bbtx0s7yo5cj6nt16teilg4ifn,nKxgXMuB,2020-0188,2021-10-31,00:47:50,02:13:52,NA,incomplete,true,NA,true,NA,0,10,NA,NA,NA,right,NA,NA,NA,present,NA,NA,n_s_101.jpg,green,m_l_053.jpg,white,between,NA,NaN,NA,NA,NA,NA,right,9358.80000000447,1,2,1304.1000000014901
nKxgXMuB,3bawbgqgzoco8yjjw9p686v3rigv79,3634bbtx0s7yo5cj6nt16teilg4ifn,nKxgXMuB,2020-0188,2021-10-31,00:47:50,02:13:52,NA,incomplete,false,true,NA,NA,1,0,NA,gray,n_s_075.jpg,NA,NA,NA,NA,NA,unpleasant,pleasant,NA,NA,NA,NA,NA,left,1720.89999999851,true,NA,NA,NA,NA,NA,NA,NA,NA
nKxgXMuB,3bawbgqgzoco8yjjw9p686v3rigv79,3634bbtx0s7yo5cj6nt16teilg4ifn,nKxgXMuB,2020-0188,2021-10-31,00:47:50,02:13:52,NA,incomplete,false,true,NA,NA,1,1,NA,gray,n_l_049.jpg,NA,NA,NA,NA,NA,unpleasant,pleasant,NA,NA,NA,NA,NA,right,1269.80000000447,true,NA,NA,NA,NA,NA,NA,NA,NA
nKxgXMuB,3bawbgqgzoco8yjjw9p686v3rigv79,3634bbtx0s7yo5cj6nt16teilg4ifn,nKxgXMuB,2020-0188,2021-10-31,00:47:50,02:13:52,NA,incomplete,false,true,NA,NA,1,2,NA,gray,n_s_052.jpg,NA,NA,NA,NA,NA,unpleasant,pleasant,NA,NA,NA,NA,NA,right,1495.60000000149,true,NA,NA,NA,NA,NA,NA,NA,NA
nKxgXMuB,3bawbgqgzoco8yjjw9p686v3rigv79,3634bbtx0s7yo5cj6nt16teilg4ifn,nKxgXMuB,2020-0188,2021-10-31,00:47:50,02:13:52,NA,incomplete,false,true,NA,NA,1,3,NA,gray,n_l_089.jpg,NA,NA,NA,NA,NA,pleasant,unpleasant,NA,NA,NA,NA,NA,right,1375.19999999553,true,NA,NA,NA,NA,NA,NA,NA,NA
nKxgXMuB,3bawbgqgzoco8yjjw9p686v3rigv79,3634bbtx0s7yo5cj6nt16teilg4ifn,nKxgXMuB,2020-0188,2021-10-31,00:47:50,02:13:52,NA,incomplete,false,true,NA,NA,1,4,NA,gray,m_l_020.jpg,NA,NA,NA,NA,NA,unpleasant,pleasant,NA,NA,NA,NA,NA,right,2020.19999999553,true,NA,NA,NA,NA,NA,NA,NA,NA
nKxgXMuB,3bawbgqgzoco8yjjw9p686v3rigv79,3634bbtx0s7yo5cj6nt16teilg4ifn,nKxgXMuB,2020-0188,2021-10-31,00:47:50,02:13:52,NA,incomplete,false,true,NA,NA,1,5,NA,gray,n_s_056.jpg,NA,NA,NA,NA,NA,pleasant,unpleasant,NA,NA,NA,NA,NA,left,1377.19999999553,true,NA,NA,NA,NA,NA,NA,NA,NA
nKxgXMuB,3bawbgqgzoco8yjjw9p686v3rigv79,3634bbtx0s7yo5cj6nt16teilg4ifn,nKxgXMuB,2020-0188,2021-10-31,00:47:50,02:13:52,NA,incomplete,false,true,NA,NA,1,6,NA,yellow,m_l_038.jpg,NA,NA,NA,NA,NA,unpleasant,pleasant,NA,NA,NA,NA,NA,right,2101.29999999702,true,NA,NA,NA,NA,NA,NA,NA,NA
nKxgXMuB,3bawbgqgzoco8yjjw9p686v3rigv79,3634bbtx0s7yo5cj6nt16teilg4ifn,nKxgXMuB,2020-0188,2021-10-31,00:47:50,02:13:52,NA,incomplete,false,true,NA,NA,1,7,NA,yellow,n_s_041.jpg,NA,NA,NA,NA,NA,pleasant,unpleasant,NA,NA,NA,NA,NA,left,2110.80000000447,true,NA,NA,NA,NA,NA,NA,NA,NA
nKxgXMuB,3bawbgqgzoco8yjjw9p686v3rigv79,3634bbtx0s7yo5cj6nt16teilg4ifn,nKxgXMuB,2020-0188,2021-10-31,00:47:50,02:13:52,NA,incomplete,false,true,NA,NA,1,8,NA,yellow,n_l_022.jpg,NA,NA,NA,NA,NA,pleasant,unpleasant,NA,NA,NA,NA,NA,left,1501.5,true,NA,NA,NA,NA,NA,NA,NA,NA
nKxgXMuB,3bawbgqgzoco8yjjw9p686v3rigv79,3634bbtx0s7yo5cj6nt16teilg4ifn,nKxgXMuB,2020-0188,2021-10-31,00:47:50,02:13:52,NA,incomplete,false,true,NA,NA,1,9,NA,yellow,m_l_001.jpg,NA,NA,NA,NA,NA,unpleasant,pleasant,NA,NA,NA,NA,NA,right,1501.29999999702,true,NA,NA,NA,NA,NA,NA,NA,NA
nKxgXMuB,3bawbgqgzoco8yjjw9p686v3rigv79,3634bbtx0s7yo5cj6nt16teilg4ifn,nKxgXMuB,2020-0188,2021-10-31,00:47:50,02:13:52,NA,incomplete,false,true,NA,NA,1,10,NA,yellow,m_l_065.jpg,NA,NA,NA,NA,NA,pleasant,unpleasant,NA,NA,NA,NA,NA,right,1065,true,NA,NA,NA,NA,NA,NA,NA,NA
nKxgXMuB,3bawbgqgzoco8yjjw9p686v3rigv79,3634bbtx0s7yo5cj6nt16teilg4ifn,nKxgXMuB,2020-0188,2021-10-31,00:47:50,02:13:52,NA,incomplete,false,true,NA,NA,1,11,NA,yellow,m_s_086.jpg,NA,NA,NA,NA,NA,unpleasant,pleasant,NA,NA,NA,NA,NA,right,1538.90000000596,true,NA,NA,NA,NA,NA,NA,NA,NA
nKxgXMuB,3bawbgqgzoco8yjjw9p686v3rigv79,3634bbtx0s7yo5cj6nt16teilg4ifn,nKxgXMuB,2020-0188,2021-10-31,00:47:50,02:13:52,NA,incomplete,false,true,NA,NA,1,12,NA,blue,n_l_019.jpg,NA,NA,NA,NA,NA,pleasant,unpleasant,NA,NA,NA,NA,NA,left,985.10000000149,true,NA,NA,NA,NA,NA,NA,NA,NA
nKxgXMuB,3bawbgqgzoco8yjjw9p686v3rigv79,3634bbtx0s7yo5cj6nt16teilg4ifn,nKxgXMuB,2020-0188,2021-10-31,00:47:50,02:13:52,NA,incomplete,false,true,NA,NA,1,13,NA,blue,m_l_108.jpg,NA,NA,NA,NA,NA,pleasant,unpleasant,NA,NA,NA,NA,NA,left,1084.5,true,NA,NA,NA,NA,NA,NA,NA,NA
nKxgXMuB,3bawbgqgzoco8yjjw9p686v3rigv79,3634bbtx0s7yo5cj6nt16teilg4ifn,nKxgXMuB,2020-0188,2021-10-31,00:47:50,02:13:52,NA,incomplete,false,true,NA,NA,1,14,NA,blue,m_s_092.jpg,NA,NA,NA,NA,NA,unpleasant,pleasant,NA,NA,NA,NA,NA,right,1410.90000000596,true,NA,NA,NA,NA,NA,NA,NA,NA
nKxgXMuB,3bawbgqgzoco8yjjw9p686v3rigv79,3634bbtx0s7yo5cj6nt16teilg4ifn,nKxgXMuB,2020-0188,2021-10-31,00:47:50,02:13:52,NA,incomplete,false,true,NA,NA,1,15,NA,blue,n_s_092.jpg,NA,NA,NA,NA,NA,pleasant,unpleasant,NA,NA,NA,NA,NA,left,1356.89999999851,true,NA,NA,NA,NA,NA,NA,NA,NA
nKxgXMuB,3bawbgqgzoco8yjjw9p686v3rigv79,3634bbtx0s7yo5cj6nt16teilg4ifn,nKxgXMuB,2020-0188,2021-10-31,00:47:50,02:13:52,NA,incomplete,false,true,NA,NA,1,16,NA,blue,m_s_022.jpg,NA,NA,NA,NA,NA,unpleasant,pleasant,NA,NA,NA,NA,NA,right,1647.60000000149,true,NA,NA,NA,NA,NA,NA,NA,NA
nKxgXMuB,3bawbgqgzoco8yjjw9p686v3rigv79,3634bbtx0s7yo5cj6nt16teilg4ifn,nKxgXMuB,2020-0188,2021-10-31,00:47:50,02:13:52,NA,incomplete,false,true,NA,NA,1,17,NA,blue,n_s_018.jpg,NA,NA,NA,NA,NA,unpleasant,pleasant,NA,NA,NA,NA,NA,right,1421.40000000596,true,NA,NA,NA,NA,NA,NA,NA,NA
nKxgXMuB,3bawbgqgzoco8yjjw9p686v3rigv79,3634bbtx0s7yo5cj6nt16teilg4ifn,nKxgXMuB,2020-0188,2021-10-31,00:47:50,02:13:52,NA,incomplete,false,true,NA,NA,1,18,NA,red,n_l_016.jpg,NA,NA,NA,NA,NA,unpleasant,pleasant,NA,NA,NA,NA,NA,right,1341.10000000149,true,NA,NA,NA,NA,NA,NA,NA,NA
nKxgXMuB,3bawbgqgzoco8yjjw9p686v3rigv79,3634bbtx0s7yo5cj6nt16teilg4ifn,nKxgXMuB,2020-0188,2021-10-31,00:47:50,02:13:52,NA,incomplete,false,true,NA,NA,1,19,NA,red,m_l_090.jpg,NA,NA,NA,NA,NA,unpleasant,pleasant,NA,NA,NA,NA,NA,right,1536.5,true,NA,NA,NA,NA,NA,NA,NA,NA
nKxgXMuB,3bawbgqgzoco8yjjw9p686v3rigv79,3634bbtx0s7yo5cj6nt16teilg4ifn,nKxgXMuB,2020-0188,2021-10-31,00:47:50,02:13:52,NA,incomplete,false,true,NA,NA,1,20,NA,red,m_l_069.jpg,NA,NA,NA,NA,NA,unpleasant,pleasant,NA,NA,NA,NA,NA,right,2244.89999999851,true,NA,NA,NA,NA,NA,NA,NA,NA
nKxgXMuB,3bawbgqgzoco8yjjw9p686v3rigv79,3634bbtx0s7yo5cj6nt16teilg4ifn,nKxgXMuB,2020-0188,2021-10-31,00:47:50,02:13:52,NA,incomplete,false,true,NA,NA,1,21,NA,red,n_s_057.jpg,NA,NA,NA,NA,NA,pleasant,unpleasant,NA,NA,NA,NA,NA,left,1945,true,NA,NA,NA,NA,NA,NA,NA,NA
nKxgXMuB,3bawbgqgzoco8yjjw9p686v3rigv79,3634bbtx0s7yo5cj6nt16teilg4ifn,nKxgXMuB,2020-0188,2021-10-31,00:47:50,02:13:52,NA,incomplete,false,true,NA,NA,1,22,NA,red,n_s_079.jpg,NA,NA,NA,NA,NA,pleasant,unpleasant,NA,NA,NA,NA,NA,left,1432.19999999553,true,NA,NA,NA,NA,NA,NA,NA,NA
nKxgXMuB,3bawbgqgzoco8yjjw9p686v3rigv79,3634bbtx0s7yo5cj6nt16teilg4ifn,nKxgXMuB,2020-0188,2021-10-31,00:47:50,02:13:52,NA,incomplete,false,true,NA,NA,1,23,NA,red,m_l_109.jpg,NA,NA,NA,NA,NA,pleasant,unpleasant,NA,NA,NA,NA,NA,left,1700.29999999702,true,NA,NA,NA,NA,NA,NA,NA,NA
nKxgXMuB,3bawbgqgzoco8yjjw9p686v3rigv79,3634bbtx0s7yo5cj6nt16teilg4ifn,nKxgXMuB,2020-0188,2021-10-31,00:47:50,02:13:52,NA,incomplete,false,true,NA,NA,1,24,NA,brown,n_s_085.jpg,NA,NA,NA,NA,NA,pleasant,unpleasant,NA,NA,NA,NA,NA,left,2081.10000000149,true,NA,NA,NA,NA,NA,NA,NA,NA
nKxgXMuB,3bawbgqgzoco8yjjw9p686v3rigv79,3634bbtx0s7yo5cj6nt16teilg4ifn,nKxgXMuB,2020-0188,2021-10-31,00:47:50,02:13:52,NA,incomplete,false,true,NA,NA,1,25,NA,brown,n_l_036.jpg,NA,NA,NA,NA,NA,unpleasant,pleasant,NA,NA,NA,NA,NA,right,1713.70000000298,true,NA,NA,NA,NA,NA,NA,NA,NA
nKxgXMuB,3bawbgqgzoco8yjjw9p686v3rigv79,3634bbtx0s7yo5cj6nt16teilg4ifn,nKxgXMuB,2020-0188,2021-10-31,00:47:50,02:13:52,NA,incomplete,false,true,NA,NA,1,26,NA,brown,n_l_084.jpg,NA,NA,NA,NA,NA,pleasant,unpleasant,NA,NA,NA,NA,NA,left,2364.69999999553,true,NA,NA,NA,NA,NA,NA,NA,NA
nKxgXMuB,3bawbgqgzoco8yjjw9p686v3rigv79,3634bbtx0s7yo5cj6nt16teilg4ifn,nKxgXMuB,2020-0188,2021-10-31,00:47:50,02:13:52,NA,incomplete,false,true,NA,NA,1,27,NA,brown,n_s_095.jpg,NA,NA,NA,NA,NA,pleasant,unpleasant,NA,NA,NA,NA,NA,left,1704.39999999851,true,NA,NA,NA,NA,NA,NA,NA,NA
nKxgXMuB,3bawbgqgzoco8yjjw9p686v3rigv79,3634bbtx0s7yo5cj6nt16teilg4ifn,nKxgXMuB,2020-0188,2021-10-31,00:47:50,02:13:52,NA,incomplete,false,true,NA,NA,1,28,NA,brown,m_s_010.jpg,NA,NA,NA,NA,NA,unpleasant,pleasant,NA,NA,NA,NA,NA,right,1500.60000000149,true,NA,NA,NA,NA,NA,NA,NA,NA
nKxgXMuB,3bawbgqgzoco8yjjw9p686v3rigv79,3634bbtx0s7yo5cj6nt16teilg4ifn,nKxgXMuB,2020-0188,2021-10-31,00:47:50,02:13:52,NA,incomplete,false,true,NA,NA,1,29,NA,brown,m_s_049.jpg,NA,NA,NA,NA,NA,unpleasant,pleasant,NA,NA,NA,NA,NA,right,1568.89999999851,true,NA,NA,NA,NA,NA,NA,NA,NA
nKxgXMuB,3bawbgqgzoco8yjjw9p686v3rigv79,3634bbtx0s7yo5cj6nt16teilg4ifn,nKxgXMuB,2020-0188,2021-10-31,00:47:50,02:13:52,NA,incomplete,false,true,NA,NA,1,30,NA,purple,n_l_020.jpg,NA,NA,NA,NA,NA,pleasant,unpleasant,NA,NA,NA,NA,NA,right,2253.60000000149,true,NA,NA,NA,NA,NA,NA,NA,NA
nKxgXMuB,3bawbgqgzoco8yjjw9p686v3rigv79,3634bbtx0s7yo5cj6nt16teilg4ifn,nKxgXMuB,2020-0188,2021-10-31,00:47:50,02:13:52,NA,incomplete,false,true,NA,NA,1,31,NA,purple,n_s_007.jpg,NA,NA,NA,NA,NA,unpleasant,pleasant,NA,NA,NA,NA,NA,right,1825,true,NA,NA,NA,NA,NA,NA,NA,NA
nKxgXMuB,3bawbgqgzoco8yjjw9p686v3rigv79,3634bbtx0s7yo5cj6nt16teilg4ifn,nKxgXMuB,2020-0188,2021-10-31,00:47:50,02:13:52,NA,incomplete,false,true,NA,NA,1,32,NA,purple,m_s_073.jpg,NA,NA,NA,NA,NA,unpleasant,pleasant,NA,NA,NA,NA,NA,right,1518.80000000447,true,NA,NA,NA,NA,NA,NA,NA,NA
nKxgXMuB,3bawbgqgzoco8yjjw9p686v3rigv79,3634bbtx0s7yo5cj6nt16teilg4ifn,nKxgXMuB,2020-0188,2021-10-31,00:47:50,02:13:52,NA,incomplete,false,true,NA,NA,1,33,NA,purple,m_l_115.jpg,NA,NA,NA,NA,NA,unpleasant,pleasant,NA,NA,NA,NA,NA,right,1201.79999999702,true,NA,NA,NA,NA,NA,NA,NA,NA
nKxgXMuB,3bawbgqgzoco8yjjw9p686v3rigv79,3634bbtx0s7yo5cj6nt16teilg4ifn,nKxgXMuB,2020-0188,2021-10-31,00:47:50,02:13:52,NA,incomplete,false,true,NA,NA,1,34,NA,purple,n_s_051.jpg,NA,NA,NA,NA,NA,pleasant,unpleasant,NA,NA,NA,NA,NA,left,1470.60000000149,true,NA,NA,NA,NA,NA,NA,NA,NA
nKxgXMuB,3bawbgqgzoco8yjjw9p686v3rigv79,3634bbtx0s7yo5cj6nt16teilg4ifn,nKxgXMuB,2020-0188,2021-10-31,00:47:50,02:13:52,NA,incomplete,false,true,NA,NA,1,35,NA,purple,n_s_003.jpg,NA,NA,NA,NA,NA,pleasant,unpleasant,NA,NA,NA,NA,NA,left,1469,true,NA,NA,NA,NA,NA,NA,NA,NA
nKxgXMuB,3bawbgqgzoco8yjjw9p686v3rigv79,3634bbtx0s7yo5cj6nt16teilg4ifn,nKxgXMuB,2020-0188,2021-10-31,00:47:50,02:13:52,NA,incomplete,false,NA,NA,true,1,0,NA,NA,NA,left,m_l_065.jpg,yellow,blue,NA,NA,NA,NA,NA,NA,NA,NA,NA,NaN,NA,3925.10000000149,left,1,NA,NA,NA,NA,NA
nKxgXMuB,3bawbgqgzoco8yjjw9p686v3rigv79,3634bbtx0s7yo5cj6nt16teilg4ifn,nKxgXMuB,2020-0188,2021-10-31,00:47:50,02:13:52,NA,incomplete,false,NA,NA,true,1,1,NA,NA,NA,right,m_s_010.jpg,red,brown,NA,NA,NA,NA,NA,NA,NA,NA,NA,NaN,NA,3475.39999999851,right,1,NA,NA,NA,NA,NA
nKxgXMuB,3bawbgqgzoco8yjjw9p686v3rigv79,3634bbtx0s7yo5cj6nt16teilg4ifn,nKxgXMuB,2020-0188,2021-10-31,00:47:50,02:13:52,NA,incomplete,false,NA,NA,true,1,2,NA,NA,NA,right,n_l_049.jpg,yellow,gray,NA,NA,NA,NA,NA,NA,NA,NA,NA,NaN,NA,4094,right,1,NA,NA,NA,NA,NA
nKxgXMuB,3bawbgqgzoco8yjjw9p686v3rigv79,3634bbtx0s7yo5cj6nt16teilg4ifn,nKxgXMuB,2020-0188,2021-10-31,00:47:50,02:13:52,NA,incomplete,false,NA,NA,true,1,3,NA,NA,NA,right,m_l_069.jpg,brown,red,NA,NA,NA,NA,NA,NA,NA,NA,NA,NaN,NA,4161.60000000149,right,1,NA,NA,NA,NA,NA
nKxgXMuB,3bawbgqgzoco8yjjw9p686v3rigv79,3634bbtx0s7yo5cj6nt16teilg4ifn,nKxgXMuB,2020-0188,2021-10-31,00:47:50,02:13:52,NA,incomplete,false,NA,NA,true,1,4,NA,NA,NA,left,m_s_049.jpg,brown,purple,NA,NA,NA,NA,NA,NA,NA,NA,NA,NaN,NA,2327.89999999851,left,1,NA,NA,NA,NA,NA
nKxgXMuB,3bawbgqgzoco8yjjw9p686v3rigv79,3634bbtx0s7yo5cj6nt16teilg4ifn,nKxgXMuB,2020-0188,2021-10-31,00:47:50,02:13:52,NA,incomplete,false,NA,NA,true,1,5,NA,NA,NA,left,m_s_086.jpg,yellow,gray,NA,NA,NA,NA,NA,NA,NA,NA,NA,NaN,NA,3733.7999999970198,left,1,NA,NA,NA,NA,NA
nKxgXMuB,3bawbgqgzoco8yjjw9p686v3rigv79,3634bbtx0s7yo5cj6nt16teilg4ifn,nKxgXMuB,2020-0188,2021-10-31,00:47:50,02:13:52,NA,incomplete,false,NA,NA,true,1,6,NA,NA,NA,left,n_s_079.jpg,red,brown,NA,NA,NA,NA,NA,NA,NA,NA,NA,NaN,NA,2777.60000000149,left,1,NA,NA,NA,NA,NA
nKxgXMuB,3bawbgqgzoco8yjjw9p686v3rigv79,3634bbtx0s7yo5cj6nt16teilg4ifn,nKxgXMuB,2020-0188,2021-10-31,00:47:50,02:13:52,NA,incomplete,false,NA,NA,true,1,7,NA,NA,NA,left,m_s_022.jpg,blue,yellow,NA,NA,NA,NA,NA,NA,NA,NA,NA,NaN,NA,6017.70000000298,left,1,NA,NA,NA,NA,NA
nKxgXMuB,3bawbgqgzoco8yjjw9p686v3rigv79,3634bbtx0s7yo5cj6nt16teilg4ifn,nKxgXMuB,2020-0188,2021-10-31,00:47:50,02:13:52,NA,incomplete,false,NA,NA,true,1,8,NA,NA,NA,right,m_l_108.jpg,red,blue,NA,NA,NA,NA,NA,NA,NA,NA,NA,NaN,NA,4813.79999999702,right,1,NA,NA,NA,NA,NA
nKxgXMuB,3bawbgqgzoco8yjjw9p686v3rigv79,3634bbtx0s7yo5cj6nt16teilg4ifn,nKxgXMuB,2020-0188,2021-10-31,00:47:50,02:13:52,NA,incomplete,false,NA,NA,true,1,9,NA,NA,NA,left,n_s_007.jpg,purple,brown,NA,NA,NA,NA,NA,NA,NA,NA,NA,NaN,NA,2755.10000000149,left,1,NA,NA,NA,NA,NA
nKxgXMuB,3bawbgqgzoco8yjjw9p686v3rigv79,3634bbtx0s7yo5cj6nt16teilg4ifn,nKxgXMuB,2020-0188,2021-10-31,00:47:50,02:13:52,NA,incomplete,false,NA,NA,true,1,10,NA,NA,NA,right,n_s_018.jpg,yellow,blue,NA,NA,NA,NA,NA,NA,NA,NA,NA,NaN,NA,3644.10000000149,left,0,NA,NA,NA,NA,NA
nKxgXMuB,3bawbgqgzoco8yjjw9p686v3rigv79,3634bbtx0s7yo5cj6nt16teilg4ifn,nKxgXMuB,2020-0188,2021-10-31,00:47:50,02:13:52,NA,incomplete,false,NA,NA,true,1,11,NA,NA,NA,left,m_l_109.jpg,red,blue,NA,NA,NA,NA,NA,NA,NA,NA,NA,NaN,NA,3565.2000000029802,left,1,NA,NA,NA,NA,NA
nKxgXMuB,3bawbgqgzoco8yjjw9p686v3rigv79,3634bbtx0s7yo5cj6nt16teilg4ifn,nKxgXMuB,2020-0188,2021-10-31,00:47:50,02:13:52,NA,incomplete,false,NA,NA,true,1,12,NA,NA,NA,right,m_s_092.jpg,yellow,blue,NA,NA,NA,NA,NA,NA,NA,NA,NA,NaN,NA,7727.5,right,1,NA,NA,NA,NA,NA
nKxgXMuB,3bawbgqgzoco8yjjw9p686v3rigv79,3634bbtx0s7yo5cj6nt16teilg4ifn,nKxgXMuB,2020-0188,2021-10-31,00:47:50,02:13:52,NA,incomplete,false,NA,NA,true,1,13,NA,NA,NA,right,m_s_073.jpg,brown,purple,NA,NA,NA,NA,NA,NA,NA,NA,NA,NaN,NA,5095.29999999702,right,1,NA,NA,NA,NA,NA
nKxgXMuB,3bawbgqgzoco8yjjw9p686v3rigv79,3634bbtx0s7yo5cj6nt16teilg4ifn,nKxgXMuB,2020-0188,2021-10-31,00:47:50,02:13:52,NA,incomplete,false,NA,NA,true,1,14,NA,NA,NA,left,m_l_090.jpg,red,brown,NA,NA,NA,NA,NA,NA,NA,NA,NA,NaN,NA,3070.2000000029802,left,1,NA,NA,NA,NA,NA
nKxgXMuB,3bawbgqgzoco8yjjw9p686v3rigv79,3634bbtx0s7yo5cj6nt16teilg4ifn,nKxgXMuB,2020-0188,2021-10-31,00:47:50,02:13:52,NA,incomplete,false,NA,NA,true,1,15,NA,NA,NA,left,n_s_041.jpg,yellow,blue,NA,NA,NA,NA,NA,NA,NA,NA,NA,NaN,NA,6996.70000000298,left,1,NA,NA,NA,NA,NA
nKxgXMuB,3bawbgqgzoco8yjjw9p686v3rigv79,3634bbtx0s7yo5cj6nt16teilg4ifn,nKxgXMuB,2020-0188,2021-10-31,00:47:50,02:13:52,NA,incomplete,false,NA,NA,true,1,16,NA,NA,NA,right,m_l_020.jpg,yellow,gray,NA,NA,NA,NA,NA,NA,NA,NA,NA,NaN,NA,3058.89999999851,right,1,NA,NA,NA,NA,NA
nKxgXMuB,3bawbgqgzoco8yjjw9p686v3rigv79,3634bbtx0s7yo5cj6nt16teilg4ifn,nKxgXMuB,2020-0188,2021-10-31,00:47:50,02:13:52,NA,incomplete,false,NA,NA,true,1,17,NA,NA,NA,right,n_s_003.jpg,brown,purple,NA,NA,NA,NA,NA,NA,NA,NA,NA,NaN,NA,4172.70000000298,right,1,NA,NA,NA,NA,NA
nKxgXMuB,3bawbgqgzoco8yjjw9p686v3rigv79,3634bbtx0s7yo5cj6nt16teilg4ifn,nKxgXMuB,2020-0188,2021-10-31,00:47:50,02:13:52,NA,incomplete,false,NA,NA,true,1,18,NA,NA,NA,right,n_l_084.jpg,red,brown,NA,NA,NA,NA,NA,NA,NA,NA,NA,NaN,NA,3643.89999999851,right,1,NA,NA,NA,NA,NA
nKxgXMuB,3bawbgqgzoco8yjjw9p686v3rigv79,3634bbtx0s7yo5cj6nt16teilg4ifn,nKxgXMuB,2020-0188,2021-10-31,00:47:50,02:13:52,NA,incomplete,false,NA,NA,true,1,19,NA,NA,NA,right,n_l_036.jpg,purple,brown,NA,NA,NA,NA,NA,NA,NA,NA,NA,NaN,NA,3205,right,1,NA,NA,NA,NA,NA
nKxgXMuB,3bawbgqgzoco8yjjw9p686v3rigv79,3634bbtx0s7yo5cj6nt16teilg4ifn,nKxgXMuB,2020-0188,2021-10-31,00:47:50,02:13:52,NA,incomplete,false,NA,NA,true,1,20,NA,NA,NA,left,n_l_022.jpg,yellow,gray,NA,NA,NA,NA,NA,NA,NA,NA,NA,NaN,NA,5759,left,1,NA,NA,NA,NA,NA
nKxgXMuB,3bawbgqgzoco8yjjw9p686v3rigv79,3634bbtx0s7yo5cj6nt16teilg4ifn,nKxgXMuB,2020-0188,2021-10-31,00:47:50,02:13:52,NA,incomplete,false,NA,NA,true,1,21,NA,NA,NA,right,n_s_056.jpg,yellow,gray,NA,NA,NA,NA,NA,NA,NA,NA,NA,NaN,NA,5185.30000000447,right,1,NA,NA,NA,NA,NA
nKxgXMuB,3bawbgqgzoco8yjjw9p686v3rigv79,3634bbtx0s7yo5cj6nt16teilg4ifn,nKxgXMuB,2020-0188,2021-10-31,00:47:50,02:13:52,NA,incomplete,false,NA,true,NA,1,0,NA,NA,NA,right,NA,NA,NA,present,NA,NA,m_s_092.jpg,blue,m_l_065.jpg,yellow,between,NA,NaN,NA,NA,NA,NA,right,8346.19999999553,1,1,3889.6999999955297
nKxgXMuB,3bawbgqgzoco8yjjw9p686v3rigv79,3634bbtx0s7yo5cj6nt16teilg4ifn,nKxgXMuB,2020-0188,2021-10-31,00:47:50,02:13:52,NA,incomplete,false,NA,true,NA,1,1,NA,NA,NA,left,NA,NA,NA,present,NA,NA,n_s_007.jpg,purple,n_s_003.jpg,purple,within,NA,NaN,NA,NA,NA,NA,left,5905,1,0,1011.1999999955297
nKxgXMuB,3bawbgqgzoco8yjjw9p686v3rigv79,3634bbtx0s7yo5cj6nt16teilg4ifn,nKxgXMuB,2020-0188,2021-10-31,00:47:50,02:13:52,NA,incomplete,false,NA,true,NA,1,2,NA,NA,NA,left,NA,NA,NA,present,NA,NA,n_l_049.jpg,gray,n_s_056.jpg,gray,within,NA,NaN,NA,NA,NA,NA,left,14949.90000000596,1,3,3565
nKxgXMuB,3bawbgqgzoco8yjjw9p686v3rigv79,3634bbtx0s7yo5cj6nt16teilg4ifn,nKxgXMuB,2020-0188,2021-10-31,00:47:50,02:13:52,NA,incomplete,false,NA,true,NA,1,3,NA,NA,NA,right,NA,NA,NA,present,NA,NA,m_s_049.jpg,brown,n_l_036.jpg,brown,within,NA,NaN,NA,NA,NA,NA,right,6523.69999999553,1,0,1292.3000000044703
nKxgXMuB,3bawbgqgzoco8yjjw9p686v3rigv79,3634bbtx0s7yo5cj6nt16teilg4ifn,nKxgXMuB,2020-0188,2021-10-31,00:47:50,02:13:52,NA,incomplete,false,NA,true,NA,1,4,NA,NA,NA,left,NA,NA,NA,present,NA,NA,m_l_020.jpg,gray,n_l_022.jpg,yellow,between,NA,NaN,NA,NA,NA,NA,left,9066.5,1,1,1079.2000000029802
nKxgXMuB,3bawbgqgzoco8yjjw9p686v3rigv79,3634bbtx0s7yo5cj6nt16teilg4ifn,nKxgXMuB,2020-0188,2021-10-31,00:47:50,02:13:52,NA,incomplete,false,NA,true,NA,1,5,NA,NA,NA,right,NA,NA,NA,present,NA,NA,m_s_086.jpg,yellow,n_s_041.jpg,yellow,within,NA,NaN,NA,NA,NA,NA,right,6355.10000000149,1,1,1416.5
nKxgXMuB,3bawbgqgzoco8yjjw9p686v3rigv79,3634bbtx0s7yo5cj6nt16teilg4ifn,nKxgXMuB,2020-0188,2021-10-31,00:47:50,02:13:52,NA,incomplete,false,NA,true,NA,1,6,NA,NA,NA,right,NA,NA,NA,present,NA,NA,m_s_073.jpg,purple,m_s_010.jpg,brown,between,NA,NaN,NA,NA,NA,NA,right,4431.39999999851,1,1,5500
nKxgXMuB,3bawbgqgzoco8yjjw9p686v3rigv79,3634bbtx0s7yo5cj6nt16teilg4ifn,nKxgXMuB,2020-0188,2021-10-31,00:47:50,02:13:52,NA,incomplete,false,NA,true,NA,1,7,NA,NA,NA,left,NA,NA,NA,present,NA,NA,m_l_090.jpg,red,m_l_109.jpg,red,within,NA,NaN,NA,NA,NA,NA,left,3992.5,1,0,1888.8999999985099
nKxgXMuB,3bawbgqgzoco8yjjw9p686v3rigv79,3634bbtx0s7yo5cj6nt16teilg4ifn,nKxgXMuB,2020-0188,2021-10-31,00:47:50,02:13:52,NA,incomplete,false,NA,true,NA,1,8,NA,NA,NA,right,NA,NA,NA,present,NA,NA,m_l_069.jpg,red,m_s_022.jpg,blue,between,NA,NaN,NA,NA,NA,NA,right,5106.29999999702,1,1,1472.4000000059605
nKxgXMuB,3bawbgqgzoco8yjjw9p686v3rigv79,3634bbtx0s7yo5cj6nt16teilg4ifn,nKxgXMuB,2020-0188,2021-10-31,00:47:50,02:13:52,NA,incomplete,false,NA,true,NA,1,9,NA,NA,NA,right,NA,NA,NA,present,NA,NA,n_s_018.jpg,blue,m_l_108.jpg,blue,within,NA,NaN,NA,NA,NA,NA,right,5140.39999999851,1,0,1877.7000000029802
nKxgXMuB,3bawbgqgzoco8yjjw9p686v3rigv79,3634bbtx0s7yo5cj6nt16teilg4ifn,nKxgXMuB,2020-0188,2021-10-31,00:47:50,02:13:52,NA,incomplete,false,NA,true,NA,1,10,NA,NA,NA,left,NA,NA,NA,present,NA,NA,n_s_079.jpg,red,n_l_084.jpg,brown,between,NA,NaN,NA,NA,NA,NA,left,6197.20000000298,1,0,3441.5
nKxgXMuB,3bawbgqgzoco8yjjw9p686v3rigv79,3634bbtx0s7yo5cj6nt16teilg4ifn,nKxgXMuB,2020-0188,2021-10-31,00:47:50,02:13:52,NA,incomplete,false,true,NA,NA,2,0,NA,brown,n_l_013.jpg,NA,NA,NA,NA,NA,pleasant,unpleasant,NA,NA,NA,NA,NA,left,2948.60000000149,true,NA,NA,NA,NA,NA,NA,NA,NA
nKxgXMuB,3bawbgqgzoco8yjjw9p686v3rigv79,3634bbtx0s7yo5cj6nt16teilg4ifn,nKxgXMuB,2020-0188,2021-10-31,00:47:50,02:13:52,NA,incomplete,false,true,NA,NA,2,1,NA,brown,m_l_015.jpg,NA,NA,NA,NA,NA,pleasant,unpleasant,NA,NA,NA,NA,NA,left,2660.20000000298,true,NA,NA,NA,NA,NA,NA,NA,NA
nKxgXMuB,3bawbgqgzoco8yjjw9p686v3rigv79,3634bbtx0s7yo5cj6nt16teilg4ifn,nKxgXMuB,2020-0188,2021-10-31,00:47:50,02:13:52,NA,incomplete,false,true,NA,NA,2,2,NA,brown,n_l_055.jpg,NA,NA,NA,NA,NA,pleasant,unpleasant,NA,NA,NA,NA,NA,left,1527.60000000149,true,NA,NA,NA,NA,NA,NA,NA,NA
nKxgXMuB,3bawbgqgzoco8yjjw9p686v3rigv79,3634bbtx0s7yo5cj6nt16teilg4ifn,nKxgXMuB,2020-0188,2021-10-31,00:47:50,02:13:52,NA,incomplete,false,true,NA,NA,2,3,NA,brown,m_l_116.jpg,NA,NA,NA,NA,NA,pleasant,unpleasant,NA,NA,NA,NA,NA,left,1529.10000000149,true,NA,NA,NA,NA,NA,NA,NA,NA
nKxgXMuB,3bawbgqgzoco8yjjw9p686v3rigv79,3634bbtx0s7yo5cj6nt16teilg4ifn,nKxgXMuB,2020-0188,2021-10-31,00:47:50,02:13:52,NA,incomplete,false,true,NA,NA,2,4,NA,brown,m_s_094.jpg,NA,NA,NA,NA,NA,pleasant,unpleasant,NA,NA,NA,NA,NA,left,1476,true,NA,NA,NA,NA,NA,NA,NA,NA
nKxgXMuB,3bawbgqgzoco8yjjw9p686v3rigv79,3634bbtx0s7yo5cj6nt16teilg4ifn,nKxgXMuB,2020-0188,2021-10-31,00:47:50,02:13:52,NA,incomplete,false,true,NA,NA,2,5,NA,brown,m_s_089.jpg,NA,NA,NA,NA,NA,pleasant,unpleasant,NA,NA,NA,NA,NA,left,1626,true,NA,NA,NA,NA,NA,NA,NA,NA
nKxgXMuB,3bawbgqgzoco8yjjw9p686v3rigv79,3634bbtx0s7yo5cj6nt16teilg4ifn,nKxgXMuB,2020-0188,2021-10-31,00:47:50,02:13:52,NA,incomplete,false,true,NA,NA,2,6,NA,black,m_l_021.jpg,NA,NA,NA,NA,NA,pleasant,unpleasant,NA,NA,NA,NA,NA,left,2019.39999999851,true,NA,NA,NA,NA,NA,NA,NA,NA
nKxgXMuB,3bawbgqgzoco8yjjw9p686v3rigv79,3634bbtx0s7yo5cj6nt16teilg4ifn,nKxgXMuB,2020-0188,2021-10-31,00:47:50,02:13:52,NA,incomplete,false,true,NA,NA,2,7,NA,black,m_l_074.jpg,NA,NA,NA,NA,NA,pleasant,unpleasant,NA,NA,NA,NA,NA,left,1680.39999999851,true,NA,NA,NA,NA,NA,NA,NA,NA
nKxgXMuB,3bawbgqgzoco8yjjw9p686v3rigv79,3634bbtx0s7yo5cj6nt16teilg4ifn,nKxgXMuB,2020-0188,2021-10-31,00:47:50,02:13:52,NA,incomplete,false,true,NA,NA,2,8,NA,black,n_s_030.jpg,NA,NA,NA,NA,NA,pleasant,unpleasant,NA,NA,NA,NA,NA,left,1538.10000000149,true,NA,NA,NA,NA,NA,NA,NA,NA
nKxgXMuB,3bawbgqgzoco8yjjw9p686v3rigv79,3634bbtx0s7yo5cj6nt16teilg4ifn,nKxgXMuB,2020-0188,2021-10-31,00:47:50,02:13:52,NA,incomplete,false,true,NA,NA,2,9,NA,black,n_s_001.jpg,NA,NA,NA,NA,NA,unpleasant,pleasant,NA,NA,NA,NA,NA,left,2694.60000000149,true,NA,NA,NA,NA,NA,NA,NA,NA
nKxgXMuB,3bawbgqgzoco8yjjw9p686v3rigv79,3634bbtx0s7yo5cj6nt16teilg4ifn,nKxgXMuB,2020-0188,2021-10-31,00:47:50,02:13:52,NA,incomplete,false,true,NA,NA,2,10,NA,black,n_l_092.jpg,NA,NA,NA,NA,NA,pleasant,unpleasant,NA,NA,NA,NA,NA,left,2778.39999999851,true,NA,NA,NA,NA,NA,NA,NA,NA
nKxgXMuB,3bawbgqgzoco8yjjw9p686v3rigv79,3634bbtx0s7yo5cj6nt16teilg4ifn,nKxgXMuB,2020-0188,2021-10-31,00:47:50,02:13:52,NA,incomplete,false,true,NA,NA,2,11,NA,black,n_l_109.jpg,NA,NA,NA,NA,NA,pleasant,unpleasant,NA,NA,NA,NA,NA,left,1926.90000000596,true,NA,NA,NA,NA,NA,NA,NA,NA
nKxgXMuB,3bawbgqgzoco8yjjw9p686v3rigv79,3634bbtx0s7yo5cj6nt16teilg4ifn,nKxgXMuB,2020-0188,2021-10-31,00:47:50,02:13:52,NA,incomplete,false,true,NA,NA,2,12,NA,white,n_l_004.jpg,NA,NA,NA,NA,NA,unpleasant,pleasant,NA,NA,NA,NA,NA,right,1733.60000000149,true,NA,NA,NA,NA,NA,NA,NA,NA
nKxgXMuB,3bawbgqgzoco8yjjw9p686v3rigv79,3634bbtx0s7yo5cj6nt16teilg4ifn,nKxgXMuB,2020-0188,2021-10-31,00:47:50,02:13:52,NA,incomplete,false,true,NA,NA,2,13,NA,white,m_s_081.jpg,NA,NA,NA,NA,NA,unpleasant,pleasant,NA,NA,NA,NA,NA,right,3228.80000000447,true,NA,NA,NA,NA,NA,NA,NA,NA
nKxgXMuB,3bawbgqgzoco8yjjw9p686v3rigv79,3634bbtx0s7yo5cj6nt16teilg4ifn,nKxgXMuB,2020-0188,2021-10-31,00:47:50,02:13:52,NA,incomplete,false,true,NA,NA,2,14,NA,white,n_s_048.jpg,NA,NA,NA,NA,NA,unpleasant,pleasant,NA,NA,NA,NA,NA,right,1759.39999999851,true,NA,NA,NA,NA,NA,NA,NA,NA
nKxgXMuB,3bawbgqgzoco8yjjw9p686v3rigv79,3634bbtx0s7yo5cj6nt16teilg4ifn,nKxgXMuB,2020-0188,2021-10-31,00:47:50,02:13:52,NA,incomplete,false,true,NA,NA,2,15,NA,white,n_s_059.jpg,NA,NA,NA,NA,NA,pleasant,unpleasant,NA,NA,NA,NA,NA,left,1320.79999999702,true,NA,NA,NA,NA,NA,NA,NA,NA
nKxgXMuB,3bawbgqgzoco8yjjw9p686v3rigv79,3634bbtx0s7yo5cj6nt16teilg4ifn,nKxgXMuB,2020-0188,2021-10-31,00:47:50,02:13:52,NA,incomplete,false,true,NA,NA,2,16,NA,white,m_s_037.jpg,NA,NA,NA,NA,NA,unpleasant,pleasant,NA,NA,NA,NA,NA,right,1173.20000000298,true,NA,NA,NA,NA,NA,NA,NA,NA
nKxgXMuB,3bawbgqgzoco8yjjw9p686v3rigv79,3634bbtx0s7yo5cj6nt16teilg4ifn,nKxgXMuB,2020-0188,2021-10-31,00:47:50,02:13:52,NA,incomplete,false,true,NA,NA,2,17,NA,white,m_l_012.jpg,NA,NA,NA,NA,NA,pleasant,unpleasant,NA,NA,NA,NA,NA,left,1182.10000000149,true,NA,NA,NA,NA,NA,NA,NA,NA
nKxgXMuB,3bawbgqgzoco8yjjw9p686v3rigv79,3634bbtx0s7yo5cj6nt16teilg4ifn,nKxgXMuB,2020-0188,2021-10-31,00:47:50,02:13:52,NA,incomplete,false,true,NA,NA,2,18,NA,blue,m_s_007.jpg,NA,NA,NA,NA,NA,unpleasant,pleasant,NA,NA,NA,NA,NA,right,1473.10000000149,true,NA,NA,NA,NA,NA,NA,NA,NA
nKxgXMuB,3bawbgqgzoco8yjjw9p686v3rigv79,3634bbtx0s7yo5cj6nt16teilg4ifn,nKxgXMuB,2020-0188,2021-10-31,00:47:50,02:13:52,NA,incomplete,false,true,NA,NA,2,19,NA,blue,n_s_038.jpg,NA,NA,NA,NA,NA,pleasant,unpleasant,NA,NA,NA,NA,NA,left,1077.70000000298,true,NA,NA,NA,NA,NA,NA,NA,NA
nKxgXMuB,3bawbgqgzoco8yjjw9p686v3rigv79,3634bbtx0s7yo5cj6nt16teilg4ifn,nKxgXMuB,2020-0188,2021-10-31,00:47:50,02:13:52,NA,incomplete,false,true,NA,NA,2,20,NA,blue,n_l_111.jpg,NA,NA,NA,NA,NA,pleasant,unpleasant,NA,NA,NA,NA,NA,left,991.30000000447,true,NA,NA,NA,NA,NA,NA,NA,NA
nKxgXMuB,3bawbgqgzoco8yjjw9p686v3rigv79,3634bbtx0s7yo5cj6nt16teilg4ifn,nKxgXMuB,2020-0188,2021-10-31,00:47:50,02:13:52,NA,incomplete,false,true,NA,NA,2,21,NA,blue,n_l_050.jpg,NA,NA,NA,NA,NA,unpleasant,pleasant,NA,NA,NA,NA,NA,right,1282.69999999553,true,NA,NA,NA,NA,NA,NA,NA,NA
nKxgXMuB,3bawbgqgzoco8yjjw9p686v3rigv79,3634bbtx0s7yo5cj6nt16teilg4ifn,nKxgXMuB,2020-0188,2021-10-31,00:47:50,02:13:52,NA,incomplete,false,true,NA,NA,2,22,NA,blue,n_s_058.jpg,NA,NA,NA,NA,NA,unpleasant,pleasant,NA,NA,NA,NA,NA,right,1533.89999999851,true,NA,NA,NA,NA,NA,NA,NA,NA
nKxgXMuB,3bawbgqgzoco8yjjw9p686v3rigv79,3634bbtx0s7yo5cj6nt16teilg4ifn,nKxgXMuB,2020-0188,2021-10-31,00:47:50,02:13:52,NA,incomplete,false,true,NA,NA,2,23,NA,blue,m_s_103.jpg,NA,NA,NA,NA,NA,unpleasant,pleasant,NA,NA,NA,NA,NA,right,1352.39999999851,true,NA,NA,NA,NA,NA,NA,NA,NA
nKxgXMuB,3bawbgqgzoco8yjjw9p686v3rigv79,3634bbtx0s7yo5cj6nt16teilg4ifn,nKxgXMuB,2020-0188,2021-10-31,00:47:50,02:13:52,NA,incomplete,false,true,NA,NA,2,24,NA,red,m_s_059.jpg,NA,NA,NA,NA,NA,pleasant,unpleasant,NA,NA,NA,NA,NA,left,1407.20000000298,true,NA,NA,NA,NA,NA,NA,NA,NA
nKxgXMuB,3bawbgqgzoco8yjjw9p686v3rigv79,3634bbtx0s7yo5cj6nt16teilg4ifn,nKxgXMuB,2020-0188,2021-10-31,00:47:50,02:13:52,NA,incomplete,false,true,NA,NA,2,25,NA,red,m_l_089.jpg,NA,NA,NA,NA,NA,pleasant,unpleasant,NA,NA,NA,NA,NA,left,1338.89999999851,true,NA,NA,NA,NA,NA,NA,NA,NA
nKxgXMuB,3bawbgqgzoco8yjjw9p686v3rigv79,3634bbtx0s7yo5cj6nt16teilg4ifn,nKxgXMuB,2020-0188,2021-10-31,00:47:50,02:13:52,NA,incomplete,false,true,NA,NA,2,26,NA,red,n_l_082.jpg,NA,NA,NA,NA,NA,pleasant,unpleasant,NA,NA,NA,NA,NA,left,1200.89999999851,true,NA,NA,NA,NA,NA,NA,NA,NA
nKxgXMuB,3bawbgqgzoco8yjjw9p686v3rigv79,3634bbtx0s7yo5cj6nt16teilg4ifn,nKxgXMuB,2020-0188,2021-10-31,00:47:50,02:13:52,NA,incomplete,false,true,NA,NA,2,27,NA,red,n_l_057.jpg,NA,NA,NA,NA,NA,unpleasant,pleasant,NA,NA,NA,NA,NA,right,1235.69999999553,true,NA,NA,NA,NA,NA,NA,NA,NA
nKxgXMuB,3bawbgqgzoco8yjjw9p686v3rigv79,3634bbtx0s7yo5cj6nt16teilg4ifn,nKxgXMuB,2020-0188,2021-10-31,00:47:50,02:13:52,NA,incomplete,false,true,NA,NA,2,28,NA,red,n_s_090.jpg,NA,NA,NA,NA,NA,unpleasant,pleasant,NA,NA,NA,NA,NA,right,2403.79999999702,true,NA,NA,NA,NA,NA,NA,NA,NA
nKxgXMuB,3bawbgqgzoco8yjjw9p686v3rigv79,3634bbtx0s7yo5cj6nt16teilg4ifn,nKxgXMuB,2020-0188,2021-10-31,00:47:50,02:13:52,NA,incomplete,false,true,NA,NA,2,29,NA,red,n_l_095.jpg,NA,NA,NA,NA,NA,unpleasant,pleasant,NA,NA,NA,NA,NA,right,2481,true,NA,NA,NA,NA,NA,NA,NA,NA
nKxgXMuB,3bawbgqgzoco8yjjw9p686v3rigv79,3634bbtx0s7yo5cj6nt16teilg4ifn,nKxgXMuB,2020-0188,2021-10-31,00:47:50,02:13:52,NA,incomplete,false,true,NA,NA,2,30,NA,orange,n_l_067.jpg,NA,NA,NA,NA,NA,unpleasant,pleasant,NA,NA,NA,NA,NA,right,1850.19999999553,true,NA,NA,NA,NA,NA,NA,NA,NA
nKxgXMuB,3bawbgqgzoco8yjjw9p686v3rigv79,3634bbtx0s7yo5cj6nt16teilg4ifn,nKxgXMuB,2020-0188,2021-10-31,00:47:50,02:13:52,NA,incomplete,false,true,NA,NA,2,31,NA,orange,m_l_004.jpg,NA,NA,NA,NA,NA,unpleasant,pleasant,NA,NA,NA,NA,NA,right,1549.79999999702,true,NA,NA,NA,NA,NA,NA,NA,NA
nKxgXMuB,3bawbgqgzoco8yjjw9p686v3rigv79,3634bbtx0s7yo5cj6nt16teilg4ifn,nKxgXMuB,2020-0188,2021-10-31,00:47:50,02:13:52,NA,incomplete,false,true,NA,NA,2,32,NA,orange,m_l_101.jpg,NA,NA,NA,NA,NA,unpleasant,pleasant,NA,NA,NA,NA,NA,right,1160.19999999553,true,NA,NA,NA,NA,NA,NA,NA,NA
nKxgXMuB,3bawbgqgzoco8yjjw9p686v3rigv79,3634bbtx0s7yo5cj6nt16teilg4ifn,nKxgXMuB,2020-0188,2021-10-31,00:47:50,02:13:52,NA,incomplete,false,true,NA,NA,2,33,NA,orange,n_s_024.jpg,NA,NA,NA,NA,NA,pleasant,unpleasant,NA,NA,NA,NA,NA,left,989.60000000149,true,NA,NA,NA,NA,NA,NA,NA,NA
nKxgXMuB,3bawbgqgzoco8yjjw9p686v3rigv79,3634bbtx0s7yo5cj6nt16teilg4ifn,nKxgXMuB,2020-0188,2021-10-31,00:47:50,02:13:52,NA,incomplete,false,true,NA,NA,2,34,NA,orange,m_s_048.jpg,NA,NA,NA,NA,NA,unpleasant,pleasant,NA,NA,NA,NA,NA,right,1382.10000000149,true,NA,NA,NA,NA,NA,NA,NA,NA
nKxgXMuB,3bawbgqgzoco8yjjw9p686v3rigv79,3634bbtx0s7yo5cj6nt16teilg4ifn,nKxgXMuB,2020-0188,2021-10-31,00:47:50,02:13:52,NA,incomplete,false,true,NA,NA,2,35,NA,orange,m_s_005.jpg,NA,NA,NA,NA,NA,pleasant,unpleasant,NA,NA,NA,NA,NA,left,1228.39999999851,true,NA,NA,NA,NA,NA,NA,NA,NA
nKxgXMuB,3bawbgqgzoco8yjjw9p686v3rigv79,3634bbtx0s7yo5cj6nt16teilg4ifn,nKxgXMuB,2020-0188,2021-10-31,00:47:50,02:13:52,NA,incomplete,false,NA,NA,true,2,0,NA,NA,NA,left,m_l_012.jpg,white,blue,NA,NA,NA,NA,NA,NA,NA,NA,NA,NaN,NA,4723.89999999851,left,1,NA,NA,NA,NA,NA
nKxgXMuB,3bawbgqgzoco8yjjw9p686v3rigv79,3634bbtx0s7yo5cj6nt16teilg4ifn,nKxgXMuB,2020-0188,2021-10-31,00:47:50,02:13:52,NA,incomplete,false,NA,NA,true,2,1,NA,NA,NA,left,m_l_101.jpg,orange,red,NA,NA,NA,NA,NA,NA,NA,NA,NA,NaN,NA,6141.39999999851,left,1,NA,NA,NA,NA,NA
nKxgXMuB,3bawbgqgzoco8yjjw9p686v3rigv79,3634bbtx0s7yo5cj6nt16teilg4ifn,nKxgXMuB,2020-0188,2021-10-31,00:47:50,02:13:52,NA,incomplete,false,NA,NA,true,2,2,NA,NA,NA,left,m_s_081.jpg,white,blue,NA,NA,NA,NA,NA,NA,NA,NA,NA,NaN,NA,3205.2000000029802,left,1,NA,NA,NA,NA,NA
nKxgXMuB,3bawbgqgzoco8yjjw9p686v3rigv79,3634bbtx0s7yo5cj6nt16teilg4ifn,nKxgXMuB,2020-0188,2021-10-31,00:47:50,02:13:52,NA,incomplete,false,NA,NA,true,2,3,NA,NA,NA,right,n_s_058.jpg,white,blue,NA,NA,NA,NA,NA,NA,NA,NA,NA,NaN,NA,2303.2999999970198,right,1,NA,NA,NA,NA,NA
nKxgXMuB,3bawbgqgzoco8yjjw9p686v3rigv79,3634bbtx0s7yo5cj6nt16teilg4ifn,nKxgXMuB,2020-0188,2021-10-31,00:47:50,02:13:52,NA,incomplete,false,NA,NA,true,2,4,NA,NA,NA,left,n_s_038.jpg,blue,red,NA,NA,NA,NA,NA,NA,NA,NA,NA,NaN,NA,2800.10000000149,left,1,NA,NA,NA,NA,NA
nKxgXMuB,3bawbgqgzoco8yjjw9p686v3rigv79,3634bbtx0s7yo5cj6nt16teilg4ifn,nKxgXMuB,2020-0188,2021-10-31,00:47:50,02:13:52,NA,incomplete,false,NA,NA,true,2,5,NA,NA,NA,right,m_s_094.jpg,black,brown,NA,NA,NA,NA,NA,NA,NA,NA,NA,NaN,NA,3587.5,right,1,NA,NA,NA,NA,NA
nKxgXMuB,3bawbgqgzoco8yjjw9p686v3rigv79,3634bbtx0s7yo5cj6nt16teilg4ifn,nKxgXMuB,2020-0188,2021-10-31,00:47:50,02:13:52,NA,incomplete,false,NA,NA,true,2,6,NA,NA,NA,left,m_s_005.jpg,orange,red,NA,NA,NA,NA,NA,NA,NA,NA,NA,NaN,NA,4172.60000000149,left,1,NA,NA,NA,NA,NA
nKxgXMuB,3bawbgqgzoco8yjjw9p686v3rigv79,3634bbtx0s7yo5cj6nt16teilg4ifn,nKxgXMuB,2020-0188,2021-10-31,00:47:50,02:13:52,NA,incomplete,false,NA,NA,true,2,7,NA,NA,NA,left,m_s_089.jpg,brown,black,NA,NA,NA,NA,NA,NA,NA,NA,NA,NaN,NA,3497.5,left,1,NA,NA,NA,NA,NA
nKxgXMuB,3bawbgqgzoco8yjjw9p686v3rigv79,3634bbtx0s7yo5cj6nt16teilg4ifn,nKxgXMuB,2020-0188,2021-10-31,00:47:50,02:13:52,NA,incomplete,false,NA,NA,true,2,8,NA,NA,NA,left,n_s_048.jpg,white,black,NA,NA,NA,NA,NA,NA,NA,NA,NA,NaN,NA,3902.60000000149,left,1,NA,NA,NA,NA,NA
nKxgXMuB,3bawbgqgzoco8yjjw9p686v3rigv79,3634bbtx0s7yo5cj6nt16teilg4ifn,nKxgXMuB,2020-0188,2021-10-31,00:47:50,02:13:52,NA,incomplete,false,NA,NA,true,2,9,NA,NA,NA,right,n_l_111.jpg,white,blue,NA,NA,NA,NA,NA,NA,NA,NA,NA,NaN,NA,1652.4000000059605,right,1,NA,NA,NA,NA,NA
nKxgXMuB,3bawbgqgzoco8yjjw9p686v3rigv79,3634bbtx0s7yo5cj6nt16teilg4ifn,nKxgXMuB,2020-0188,2021-10-31,00:47:50,02:13:52,NA,incomplete,false,NA,NA,true,2,10,NA,NA,NA,right,m_l_074.jpg,brown,black,NA,NA,NA,NA,NA,NA,NA,NA,NA,NaN,NA,3340.2000000029802,right,1,NA,NA,NA,NA,NA
nKxgXMuB,3bawbgqgzoco8yjjw9p686v3rigv79,3634bbtx0s7yo5cj6nt16teilg4ifn,nKxgXMuB,2020-0188,2021-10-31,00:47:50,02:13:52,NA,incomplete,false,NA,NA,true,2,11,NA,NA,NA,left,m_l_004.jpg,orange,red,NA,NA,NA,NA,NA,NA,NA,NA,NA,NaN,NA,1427.6000000014901,left,1,NA,NA,NA,NA,NA
nKxgXMuB,3bawbgqgzoco8yjjw9p686v3rigv79,3634bbtx0s7yo5cj6nt16teilg4ifn,nKxgXMuB,2020-0188,2021-10-31,00:47:50,02:13:52,NA,incomplete,false,NA,NA,true,2,12,NA,NA,NA,left,n_s_030.jpg,black,white,NA,NA,NA,NA,NA,NA,NA,NA,NA,NaN,NA,7277.89999999851,left,1,NA,NA,NA,NA,NA
nKxgXMuB,3bawbgqgzoco8yjjw9p686v3rigv79,3634bbtx0s7yo5cj6nt16teilg4ifn,nKxgXMuB,2020-0188,2021-10-31,00:47:50,02:13:52,NA,incomplete,false,NA,NA,true,2,13,NA,NA,NA,right,n_l_082.jpg,blue,red,NA,NA,NA,NA,NA,NA,NA,NA,NA,NaN,NA,1708.9000000059605,right,1,NA,NA,NA,NA,NA
nKxgXMuB,3bawbgqgzoco8yjjw9p686v3rigv79,3634bbtx0s7yo5cj6nt16teilg4ifn,nKxgXMuB,2020-0188,2021-10-31,00:47:50,02:13:52,NA,incomplete,false,NA,NA,true,2,14,NA,NA,NA,right,n_l_109.jpg,white,black,NA,NA,NA,NA,NA,NA,NA,NA,NA,NaN,NA,3868.89999999851,right,1,NA,NA,NA,NA,NA
nKxgXMuB,3bawbgqgzoco8yjjw9p686v3rigv79,3634bbtx0s7yo5cj6nt16teilg4ifn,nKxgXMuB,2020-0188,2021-10-31,00:47:50,02:13:52,NA,incomplete,false,NA,NA,true,2,15,NA,NA,NA,right,n_l_095.jpg,orange,red,NA,NA,NA,NA,NA,NA,NA,NA,NA,NaN,NA,5714,right,1,NA,NA,NA,NA,NA
nKxgXMuB,3bawbgqgzoco8yjjw9p686v3rigv79,3634bbtx0s7yo5cj6nt16teilg4ifn,nKxgXMuB,2020-0188,2021-10-31,00:47:50,02:13:52,NA,incomplete,false,NA,NA,true,2,16,NA,NA,NA,right,n_s_090.jpg,orange,red,NA,NA,NA,NA,NA,NA,NA,NA,NA,NaN,NA,9977.79999999702,right,1,NA,NA,NA,NA,NA
nKxgXMuB,3bawbgqgzoco8yjjw9p686v3rigv79,3634bbtx0s7yo5cj6nt16teilg4ifn,nKxgXMuB,2020-0188,2021-10-31,00:47:50,02:13:52,NA,incomplete,false,NA,NA,true,2,17,NA,NA,NA,right,m_s_037.jpg,blue,white,NA,NA,NA,NA,NA,NA,NA,NA,NA,NaN,NA,3103.89999999851,right,1,NA,NA,NA,NA,NA
nKxgXMuB,3bawbgqgzoco8yjjw9p686v3rigv79,3634bbtx0s7yo5cj6nt16teilg4ifn,nKxgXMuB,2020-0188,2021-10-31,00:47:50,02:13:52,NA,incomplete,false,NA,NA,true,2,18,NA,NA,NA,right,m_l_089.jpg,orange,red,NA,NA,NA,NA,NA,NA,NA,NA,NA,NaN,NA,1776.5,right,1,NA,NA,NA,NA,NA
nKxgXMuB,3bawbgqgzoco8yjjw9p686v3rigv79,3634bbtx0s7yo5cj6nt16teilg4ifn,nKxgXMuB,2020-0188,2021-10-31,00:47:50,02:13:52,NA,incomplete,false,NA,NA,true,2,19,NA,NA,NA,left,m_l_015.jpg,brown,black,NA,NA,NA,NA,NA,NA,NA,NA,NA,NaN,NA,2979.89999999851,left,1,NA,NA,NA,NA,NA
nKxgXMuB,3bawbgqgzoco8yjjw9p686v3rigv79,3634bbtx0s7yo5cj6nt16teilg4ifn,nKxgXMuB,2020-0188,2021-10-31,00:47:50,02:13:52,NA,incomplete,false,NA,NA,true,2,20,NA,NA,NA,right,n_l_092.jpg,white,black,NA,NA,NA,NA,NA,NA,NA,NA,NA,NaN,NA,4667.5,right,1,NA,NA,NA,NA,NA
nKxgXMuB,3bawbgqgzoco8yjjw9p686v3rigv79,3634bbtx0s7yo5cj6nt16teilg4ifn,nKxgXMuB,2020-0188,2021-10-31,00:47:50,02:13:52,NA,incomplete,false,NA,NA,true,2,21,NA,NA,NA,left,m_s_103.jpg,blue,white,NA,NA,NA,NA,NA,NA,NA,NA,NA,NaN,NA,4105,left,1,NA,NA,NA,NA,NA
nKxgXMuB,3bawbgqgzoco8yjjw9p686v3rigv79,3634bbtx0s7yo5cj6nt16teilg4ifn,nKxgXMuB,2020-0188,2021-10-31,00:47:50,02:13:52,NA,incomplete,false,NA,true,NA,2,0,NA,NA,NA,left,NA,NA,NA,present,NA,NA,m_l_089.jpg,red,n_l_095.jpg,red,within,NA,NaN,NA,NA,NA,NA,left,8458.80000000447,1,1,1697.7999999970198
nKxgXMuB,3bawbgqgzoco8yjjw9p686v3rigv79,3634bbtx0s7yo5cj6nt16teilg4ifn,nKxgXMuB,2020-0188,2021-10-31,00:47:50,02:13:52,NA,incomplete,false,NA,true,NA,2,1,NA,NA,NA,left,NA,NA,NA,present,NA,NA,n_s_090.jpg,red,m_l_101.jpg,orange,between,NA,NaN,NA,NA,NA,NA,left,11811.39999999851,1,1,1247.6999999955297
nKxgXMuB,3bawbgqgzoco8yjjw9p686v3rigv79,3634bbtx0s7yo5cj6nt16teilg4ifn,nKxgXMuB,2020-0188,2021-10-31,00:47:50,02:13:52,NA,incomplete,false,NA,true,NA,2,2,NA,NA,NA,left,NA,NA,NA,present,NA,NA,m_s_081.jpg,white,m_l_012.jpg,white,within,NA,NaN,NA,NA,NA,NA,left,6545.80000000447,1,0,1360.0999999940395
nKxgXMuB,3bawbgqgzoco8yjjw9p686v3rigv79,3634bbtx0s7yo5cj6nt16teilg4ifn,nKxgXMuB,2020-0188,2021-10-31,00:47:50,02:13:52,NA,incomplete,false,NA,true,NA,2,3,NA,NA,NA,left,NA,NA,NA,present,NA,NA,m_l_074.jpg,black,n_l_109.jpg,black,within,NA,NaN,NA,NA,NA,NA,left,10225.20000000298,1,0,1652.7999999970198
nKxgXMuB,3bawbgqgzoco8yjjw9p686v3rigv79,3634bbtx0s7yo5cj6nt16teilg4ifn,nKxgXMuB,2020-0188,2021-10-31,00:47:50,02:13:52,NA,incomplete,false,NA,true,NA,2,4,NA,NA,NA,left,NA,NA,NA,present,NA,NA,m_s_094.jpg,brown,n_s_030.jpg,black,between,NA,NaN,NA,NA,NA,NA,right,6782.69999999553,0,3,1180.4000000059605
nKxgXMuB,3bawbgqgzoco8yjjw9p686v3rigv79,3634bbtx0s7yo5cj6nt16teilg4ifn,nKxgXMuB,2020-0188,2021-10-31,00:47:50,02:13:52,NA,incomplete,false,NA,true,NA,2,5,NA,NA,NA,left,NA,NA,NA,present,NA,NA,n_s_058.jpg,blue,n_l_082.jpg,red,between,NA,NaN,NA,NA,NA,NA,left,6006.5,1,1,3126.5
nKxgXMuB,3bawbgqgzoco8yjjw9p686v3rigv79,3634bbtx0s7yo5cj6nt16teilg4ifn,nKxgXMuB,2020-0188,2021-10-31,00:47:50,02:13:52,NA,incomplete,false,NA,true,NA,2,6,NA,NA,NA,left,NA,NA,NA,present,NA,NA,n_l_092.jpg,black,n_s_048.jpg,white,between,NA,NaN,NA,NA,NA,NA,left,7300.0999999940395,1,0,4240.5
nKxgXMuB,3bawbgqgzoco8yjjw9p686v3rigv79,3634bbtx0s7yo5cj6nt16teilg4ifn,nKxgXMuB,2020-0188,2021-10-31,00:47:50,02:13:52,NA,incomplete,false,NA,true,NA,2,7,NA,NA,NA,left,NA,NA,NA,present,NA,NA,m_s_037.jpg,white,n_l_111.jpg,blue,between,NA,NaN,NA,NA,NA,NA,left,6040.29999999702,1,0,5039
nKxgXMuB,3bawbgqgzoco8yjjw9p686v3rigv79,3634bbtx0s7yo5cj6nt16teilg4ifn,nKxgXMuB,2020-0188,2021-10-31,00:47:50,02:13:52,NA,incomplete,false,NA,true,NA,2,8,NA,NA,NA,right,NA,NA,NA,present,NA,NA,m_s_103.jpg,blue,n_s_038.jpg,blue,within,NA,NaN,NA,NA,NA,NA,right,6107.60000000149,1,1,1731.3999999985099
nKxgXMuB,3bawbgqgzoco8yjjw9p686v3rigv79,3634bbtx0s7yo5cj6nt16teilg4ifn,nKxgXMuB,2020-0188,2021-10-31,00:47:50,02:13:52,NA,incomplete,false,NA,true,NA,2,9,NA,NA,NA,right,NA,NA,NA,present,NA,NA,m_s_089.jpg,brown,m_l_015.jpg,brown,within,NA,NaN,NA,NA,NA,NA,right,5286.19999999553,1,0,1180
nKxgXMuB,3bawbgqgzoco8yjjw9p686v3rigv79,3634bbtx0s7yo5cj6nt16teilg4ifn,nKxgXMuB,2020-0188,2021-10-31,00:47:50,02:13:52,NA,incomplete,false,NA,true,NA,2,10,NA,NA,NA,left,NA,NA,NA,present,NA,NA,m_l_004.jpg,orange,m_s_005.jpg,orange,within,NA,NaN,NA,NA,NA,NA,left,6130.29999999702,1,0,1270.3000000044703
nKxgXMuB,3bawbgqgzoco8yjjw9p686v3rigv79,3634bbtx0s7yo5cj6nt16teilg4ifn,nKxgXMuB,2020-0188,2021-10-31,00:47:50,02:13:52,NA,incomplete,false,true,NA,NA,3,0,NA,orange,n_l_116.jpg,NA,NA,NA,NA,NA,pleasant,unpleasant,NA,NA,NA,NA,NA,none,0,false,NA,NA,NA,NA,NA,NA,NA,NA
nKxgXMuB,3bawbgqgzoco8yjjw9p686v3rigv79,3634bbtx0s7yo5cj6nt16teilg4ifn,nKxgXMuB,2020-0188,2021-10-31,00:47:50,02:13:52,NA,incomplete,false,true,NA,NA,3,1,NA,orange,m_s_031.jpg,NA,NA,NA,NA,NA,pleasant,unpleasant,NA,NA,NA,NA,NA,left,1242.79999999702,true,NA,NA,NA,NA,NA,NA,NA,NA
nKxgXMuB,3bawbgqgzoco8yjjw9p686v3rigv79,3634bbtx0s7yo5cj6nt16teilg4ifn,nKxgXMuB,2020-0188,2021-10-31,00:47:50,02:13:52,NA,incomplete,false,true,NA,NA,3,2,NA,orange,n_s_022.jpg,NA,NA,NA,NA,NA,pleasant,unpleasant,NA,NA,NA,NA,NA,left,793.60000000149,true,NA,NA,NA,NA,NA,NA,NA,NA
nKxgXMuB,3bawbgqgzoco8yjjw9p686v3rigv79,3634bbtx0s7yo5cj6nt16teilg4ifn,nKxgXMuB,2020-0188,2021-10-31,00:47:50,02:13:52,NA,incomplete,false,true,NA,NA,3,3,NA,orange,m_l_088.jpg,NA,NA,NA,NA,NA,unpleasant,pleasant,NA,NA,NA,NA,NA,right,2080.80000000447,true,NA,NA,NA,NA,NA,NA,NA,NA
nKxgXMuB,3bawbgqgzoco8yjjw9p686v3rigv79,3634bbtx0s7yo5cj6nt16teilg4ifn,nKxgXMuB,2020-0188,2021-10-31,00:47:50,02:13:52,NA,incomplete,false,true,NA,NA,3,4,NA,orange,m_s_044.jpg,NA,NA,NA,NA,NA,pleasant,unpleasant,NA,NA,NA,NA,NA,left,1740.39999999851,true,NA,NA,NA,NA,NA,NA,NA,NA
nKxgXMuB,3bawbgqgzoco8yjjw9p686v3rigv79,3634bbtx0s7yo5cj6nt16teilg4ifn,nKxgXMuB,2020-0188,2021-10-31,00:47:50,02:13:52,NA,incomplete,false,true,NA,NA,3,5,NA,orange,n_l_104.jpg,NA,NA,NA,NA,NA,unpleasant,pleasant,NA,NA,NA,NA,NA,right,2054,true,NA,NA,NA,NA,NA,NA,NA,NA
nKxgXMuB,3bawbgqgzoco8yjjw9p686v3rigv79,3634bbtx0s7yo5cj6nt16teilg4ifn,nKxgXMuB,2020-0188,2021-10-31,00:47:50,02:13:52,NA,incomplete,false,true,NA,NA,3,6,NA,red,n_s_016.jpg,NA,NA,NA,NA,NA,pleasant,unpleasant,NA,NA,NA,NA,NA,left,1367.10000000149,true,NA,NA,NA,NA,NA,NA,NA,NA
nKxgXMuB,3bawbgqgzoco8yjjw9p686v3rigv79,3634bbtx0s7yo5cj6nt16teilg4ifn,nKxgXMuB,2020-0188,2021-10-31,00:47:50,02:13:52,NA,incomplete,false,true,NA,NA,3,7,NA,red,m_l_076.jpg,NA,NA,NA,NA,NA,pleasant,unpleasant,NA,NA,NA,NA,NA,left,1052.59999999404,true,NA,NA,NA,NA,NA,NA,NA,NA
nKxgXMuB,3bawbgqgzoco8yjjw9p686v3rigv79,3634bbtx0s7yo5cj6nt16teilg4ifn,nKxgXMuB,2020-0188,2021-10-31,00:47:50,02:13:52,NA,incomplete,false,true,NA,NA,3,8,NA,red,m_l_103.jpg,NA,NA,NA,NA,NA,unpleasant,pleasant,NA,NA,NA,NA,NA,right,1601.60000000149,true,NA,NA,NA,NA,NA,NA,NA,NA
nKxgXMuB,3bawbgqgzoco8yjjw9p686v3rigv79,3634bbtx0s7yo5cj6nt16teilg4ifn,nKxgXMuB,2020-0188,2021-10-31,00:47:50,02:13:52,NA,incomplete,false,true,NA,NA,3,9,NA,red,m_l_112.jpg,NA,NA,NA,NA,NA,unpleasant,pleasant,NA,NA,NA,NA,NA,right,2203.59999999404,true,NA,NA,NA,NA,NA,NA,NA,NA
nKxgXMuB,3bawbgqgzoco8yjjw9p686v3rigv79,3634bbtx0s7yo5cj6nt16teilg4ifn,nKxgXMuB,2020-0188,2021-10-31,00:47:50,02:13:52,NA,incomplete,false,true,NA,NA,3,10,NA,red,n_s_066.jpg,NA,NA,NA,NA,NA,pleasant,unpleasant,NA,NA,NA,NA,NA,left,1662.19999999553,true,NA,NA,NA,NA,NA,NA,NA,NA
nKxgXMuB,3bawbgqgzoco8yjjw9p686v3rigv79,3634bbtx0s7yo5cj6nt16teilg4ifn,nKxgXMuB,2020-0188,2021-10-31,00:47:50,02:13:52,NA,incomplete,false,true,NA,NA,3,11,NA,red,n_l_061.jpg,NA,NA,NA,NA,NA,unpleasant,pleasant,NA,NA,NA,NA,NA,right,2147.30000000447,true,NA,NA,NA,NA,NA,NA,NA,NA
nKxgXMuB,3bawbgqgzoco8yjjw9p686v3rigv79,3634bbtx0s7yo5cj6nt16teilg4ifn,nKxgXMuB,2020-0188,2021-10-31,00:47:50,02:13:52,NA,incomplete,false,true,NA,NA,3,12,NA,white,m_s_117.jpg,NA,NA,NA,NA,NA,pleasant,unpleasant,NA,NA,NA,NA,NA,left,1677.10000000149,true,NA,NA,NA,NA,NA,NA,NA,NA
nKxgXMuB,3bawbgqgzoco8yjjw9p686v3rigv79,3634bbtx0s7yo5cj6nt16teilg4ifn,nKxgXMuB,2020-0188,2021-10-31,00:47:50,02:13:52,NA,incomplete,false,true,NA,NA,3,13,NA,white,m_l_006.jpg,NA,NA,NA,NA,NA,pleasant,unpleasant,NA,NA,NA,NA,NA,left,1073.30000000447,true,NA,NA,NA,NA,NA,NA,NA,NA
nKxgXMuB,3bawbgqgzoco8yjjw9p686v3rigv79,3634bbtx0s7yo5cj6nt16teilg4ifn,nKxgXMuB,2020-0188,2021-10-31,00:47:50,02:13:52,NA,incomplete,false,true,NA,NA,3,14,NA,white,n_l_060.jpg,NA,NA,NA,NA,NA,unpleasant,pleasant,NA,NA,NA,NA,NA,right,2198.80000000447,true,NA,NA,NA,NA,NA,NA,NA,NA
nKxgXMuB,3bawbgqgzoco8yjjw9p686v3rigv79,3634bbtx0s7yo5cj6nt16teilg4ifn,nKxgXMuB,2020-0188,2021-10-31,00:47:50,02:13:52,NA,incomplete,false,true,NA,NA,3,15,NA,white,m_s_039.jpg,NA,NA,NA,NA,NA,pleasant,unpleasant,NA,NA,NA,NA,NA,left,1504.5,true,NA,NA,NA,NA,NA,NA,NA,NA
nKxgXMuB,3bawbgqgzoco8yjjw9p686v3rigv79,3634bbtx0s7yo5cj6nt16teilg4ifn,nKxgXMuB,2020-0188,2021-10-31,00:47:50,02:13:52,NA,incomplete,false,true,NA,NA,3,16,NA,white,m_l_062.jpg,NA,NA,NA,NA,NA,unpleasant,pleasant,NA,NA,NA,NA,NA,right,1679.90000000596,true,NA,NA,NA,NA,NA,NA,NA,NA
nKxgXMuB,3bawbgqgzoco8yjjw9p686v3rigv79,3634bbtx0s7yo5cj6nt16teilg4ifn,nKxgXMuB,2020-0188,2021-10-31,00:47:50,02:13:52,NA,incomplete,false,true,NA,NA,3,17,NA,white,m_l_024.jpg,NA,NA,NA,NA,NA,pleasant,unpleasant,NA,NA,NA,NA,NA,left,1696.39999999851,true,NA,NA,NA,NA,NA,NA,NA,NA
nKxgXMuB,3bawbgqgzoco8yjjw9p686v3rigv79,3634bbtx0s7yo5cj6nt16teilg4ifn,nKxgXMuB,2020-0188,2021-10-31,00:47:50,02:13:52,NA,incomplete,false,true,NA,NA,3,18,NA,blue,n_s_027.jpg,NA,NA,NA,NA,NA,pleasant,unpleasant,NA,NA,NA,NA,NA,left,2454,true,NA,NA,NA,NA,NA,NA,NA,NA
nKxgXMuB,3bawbgqgzoco8yjjw9p686v3rigv79,3634bbtx0s7yo5cj6nt16teilg4ifn,nKxgXMuB,2020-0188,2021-10-31,00:47:50,02:13:52,NA,incomplete,false,true,NA,NA,3,19,NA,blue,m_s_032.jpg,NA,NA,NA,NA,NA,unpleasant,pleasant,NA,NA,NA,NA,NA,right,1834,true,NA,NA,NA,NA,NA,NA,NA,NA
nKxgXMuB,3bawbgqgzoco8yjjw9p686v3rigv79,3634bbtx0s7yo5cj6nt16teilg4ifn,nKxgXMuB,2020-0188,2021-10-31,00:47:50,02:13:52,NA,incomplete,false,true,NA,NA,3,20,NA,blue,n_s_012.jpg,NA,NA,NA,NA,NA,pleasant,unpleasant,NA,NA,NA,NA,NA,left,1529.39999999851,true,NA,NA,NA,NA,NA,NA,NA,NA
nKxgXMuB,3bawbgqgzoco8yjjw9p686v3rigv79,3634bbtx0s7yo5cj6nt16teilg4ifn,nKxgXMuB,2020-0188,2021-10-31,00:47:50,02:13:52,NA,incomplete,false,true,NA,NA,3,21,NA,blue,n_s_026.jpg,NA,NA,NA,NA,NA,unpleasant,pleasant,NA,NA,NA,NA,NA,right,1698.5,true,NA,NA,NA,NA,NA,NA,NA,NA
nKxgXMuB,3bawbgqgzoco8yjjw9p686v3rigv79,3634bbtx0s7yo5cj6nt16teilg4ifn,nKxgXMuB,2020-0188,2021-10-31,00:47:50,02:13:52,NA,incomplete,false,true,NA,NA,3,22,NA,blue,n_l_097.jpg,NA,NA,NA,NA,NA,pleasant,unpleasant,NA,NA,NA,NA,NA,left,1195.19999999553,true,NA,NA,NA,NA,NA,NA,NA,NA
nKxgXMuB,3bawbgqgzoco8yjjw9p686v3rigv79,3634bbtx0s7yo5cj6nt16teilg4ifn,nKxgXMuB,2020-0188,2021-10-31,00:47:50,02:13:52,NA,incomplete,false,true,NA,NA,3,23,NA,blue,n_l_021.jpg,NA,NA,NA,NA,NA,pleasant,unpleasant,NA,NA,NA,NA,NA,left,1612.39999999851,true,NA,NA,NA,NA,NA,NA,NA,NA
nKxgXMuB,3bawbgqgzoco8yjjw9p686v3rigv79,3634bbtx0s7yo5cj6nt16teilg4ifn,nKxgXMuB,2020-0188,2021-10-31,00:47:50,02:13:52,NA,incomplete,false,true,NA,NA,3,24,NA,yellow,n_l_028.jpg,NA,NA,NA,NA,NA,pleasant,unpleasant,NA,NA,NA,NA,NA,right,851.10000000149,true,NA,NA,NA,NA,NA,NA,NA,NA
nKxgXMuB,3bawbgqgzoco8yjjw9p686v3rigv79,3634bbtx0s7yo5cj6nt16teilg4ifn,nKxgXMuB,2020-0188,2021-10-31,00:47:50,02:13:52,NA,incomplete,false,true,NA,NA,3,25,NA,yellow,m_l_033.jpg,NA,NA,NA,NA,NA,unpleasant,pleasant,NA,NA,NA,NA,NA,right,1760.39999999851,true,NA,NA,NA,NA,NA,NA,NA,NA
nKxgXMuB,3bawbgqgzoco8yjjw9p686v3rigv79,3634bbtx0s7yo5cj6nt16teilg4ifn,nKxgXMuB,2020-0188,2021-10-31,00:47:50,02:13:52,NA,incomplete,false,true,NA,NA,3,26,NA,yellow,n_s_072.jpg,NA,NA,NA,NA,NA,unpleasant,pleasant,NA,NA,NA,NA,NA,right,1052.39999999851,true,NA,NA,NA,NA,NA,NA,NA,NA
nKxgXMuB,3bawbgqgzoco8yjjw9p686v3rigv79,3634bbtx0s7yo5cj6nt16teilg4ifn,nKxgXMuB,2020-0188,2021-10-31,00:47:50,02:13:52,NA,incomplete,false,true,NA,NA,3,27,NA,yellow,m_l_017.jpg,NA,NA,NA,NA,NA,unpleasant,pleasant,NA,NA,NA,NA,NA,right,1219.10000000149,true,NA,NA,NA,NA,NA,NA,NA,NA
nKxgXMuB,3bawbgqgzoco8yjjw9p686v3rigv79,3634bbtx0s7yo5cj6nt16teilg4ifn,nKxgXMuB,2020-0188,2021-10-31,00:47:50,02:13:52,NA,incomplete,false,true,NA,NA,3,28,NA,yellow,n_s_065.jpg,NA,NA,NA,NA,NA,unpleasant,pleasant,NA,NA,NA,NA,NA,right,1056.19999999553,true,NA,NA,NA,NA,NA,NA,NA,NA
nKxgXMuB,3bawbgqgzoco8yjjw9p686v3rigv79,3634bbtx0s7yo5cj6nt16teilg4ifn,nKxgXMuB,2020-0188,2021-10-31,00:47:50,02:13:52,NA,incomplete,false,true,NA,NA,3,29,NA,yellow,n_l_106.jpg,NA,NA,NA,NA,NA,pleasant,unpleasant,NA,NA,NA,NA,NA,left,1010.60000000149,true,NA,NA,NA,NA,NA,NA,NA,NA
nKxgXMuB,3bawbgqgzoco8yjjw9p686v3rigv79,3634bbtx0s7yo5cj6nt16teilg4ifn,nKxgXMuB,2020-0188,2021-10-31,00:47:50,02:13:52,NA,incomplete,false,true,NA,NA,3,30,NA,purple,n_l_079.jpg,NA,NA,NA,NA,NA,pleasant,unpleasant,NA,NA,NA,NA,NA,left,1908.69999999553,true,NA,NA,NA,NA,NA,NA,NA,NA
nKxgXMuB,3bawbgqgzoco8yjjw9p686v3rigv79,3634bbtx0s7yo5cj6nt16teilg4ifn,nKxgXMuB,2020-0188,2021-10-31,00:47:50,02:13:52,NA,incomplete,false,true,NA,NA,3,31,NA,purple,m_s_071.jpg,NA,NA,NA,NA,NA,unpleasant,pleasant,NA,NA,NA,NA,NA,right,1563.70000000298,true,NA,NA,NA,NA,NA,NA,NA,NA
nKxgXMuB,3bawbgqgzoco8yjjw9p686v3rigv79,3634bbtx0s7yo5cj6nt16teilg4ifn,nKxgXMuB,2020-0188,2021-10-31,00:47:50,02:13:52,NA,incomplete,false,true,NA,NA,3,32,NA,purple,m_l_036.jpg,NA,NA,NA,NA,NA,unpleasant,pleasant,NA,NA,NA,NA,NA,right,1140.20000000298,true,NA,NA,NA,NA,NA,NA,NA,NA
nKxgXMuB,3bawbgqgzoco8yjjw9p686v3rigv79,3634bbtx0s7yo5cj6nt16teilg4ifn,nKxgXMuB,2020-0188,2021-10-31,00:47:50,02:13:52,NA,incomplete,false,true,NA,NA,3,33,NA,purple,n_s_097.jpg,NA,NA,NA,NA,NA,pleasant,unpleasant,NA,NA,NA,NA,NA,left,1145.29999999702,true,NA,NA,NA,NA,NA,NA,NA,NA
nKxgXMuB,3bawbgqgzoco8yjjw9p686v3rigv79,3634bbtx0s7yo5cj6nt16teilg4ifn,nKxgXMuB,2020-0188,2021-10-31,00:47:50,02:13:52,NA,incomplete,false,true,NA,NA,3,34,NA,purple,n_l_102.jpg,NA,NA,NA,NA,NA,unpleasant,pleasant,NA,NA,NA,NA,NA,right,1115.79999999702,true,NA,NA,NA,NA,NA,NA,NA,NA
nKxgXMuB,3bawbgqgzoco8yjjw9p686v3rigv79,3634bbtx0s7yo5cj6nt16teilg4ifn,nKxgXMuB,2020-0188,2021-10-31,00:47:50,02:13:52,NA,incomplete,false,true,NA,NA,3,35,NA,purple,n_s_049.jpg,NA,NA,NA,NA,NA,unpleasant,pleasant,NA,NA,NA,NA,NA,right,1217.79999999702,true,NA,NA,NA,NA,NA,NA,NA,NA
nKxgXMuB,3bawbgqgzoco8yjjw9p686v3rigv79,3634bbtx0s7yo5cj6nt16teilg4ifn,nKxgXMuB,2020-0188,2021-10-31,00:47:50,02:13:52,NA,incomplete,false,NA,NA,true,3,0,NA,NA,NA,left,n_l_106.jpg,yellow,purple,NA,NA,NA,NA,NA,NA,NA,NA,NA,NaN,NA,12722.59999999404,left,1,NA,NA,NA,NA,NA
nKxgXMuB,3bawbgqgzoco8yjjw9p686v3rigv79,3634bbtx0s7yo5cj6nt16teilg4ifn,nKxgXMuB,2020-0188,2021-10-31,00:47:50,02:13:52,NA,incomplete,false,NA,NA,true,3,1,NA,NA,NA,right,m_s_032.jpg,yellow,blue,NA,NA,NA,NA,NA,NA,NA,NA,NA,NaN,NA,6231.20000000298,right,1,NA,NA,NA,NA,NA
nKxgXMuB,3bawbgqgzoco8yjjw9p686v3rigv79,3634bbtx0s7yo5cj6nt16teilg4ifn,nKxgXMuB,2020-0188,2021-10-31,00:47:50,02:13:52,NA,incomplete,false,NA,NA,true,3,2,NA,NA,NA,left,m_l_062.jpg,white,red,NA,NA,NA,NA,NA,NA,NA,NA,NA,NaN,NA,5050.20000000298,left,1,NA,NA,NA,NA,NA
nKxgXMuB,3bawbgqgzoco8yjjw9p686v3rigv79,3634bbtx0s7yo5cj6nt16teilg4ifn,nKxgXMuB,2020-0188,2021-10-31,00:47:50,02:13:52,NA,incomplete,false,NA,NA,true,3,3,NA,NA,NA,right,m_l_076.jpg,white,red,NA,NA,NA,NA,NA,NA,NA,NA,NA,NaN,NA,1720.2999999970198,right,1,NA,NA,NA,NA,NA
nKxgXMuB,3bawbgqgzoco8yjjw9p686v3rigv79,3634bbtx0s7yo5cj6nt16teilg4ifn,nKxgXMuB,2020-0188,2021-10-31,00:47:50,02:13:52,NA,incomplete,false,NA,NA,true,3,4,NA,NA,NA,left,n_l_097.jpg,blue,yellow,NA,NA,NA,NA,NA,NA,NA,NA,NA,NaN,NA,2012.7000000029802,left,1,NA,NA,NA,NA,NA
nKxgXMuB,3bawbgqgzoco8yjjw9p686v3rigv79,3634bbtx0s7yo5cj6nt16teilg4ifn,nKxgXMuB,2020-0188,2021-10-31,00:47:50,02:13:52,NA,incomplete,false,NA,NA,true,3,5,NA,NA,NA,left,n_s_072.jpg,yellow,blue,NA,NA,NA,NA,NA,NA,NA,NA,NA,NaN,NA,4712.5,left,1,NA,NA,NA,NA,NA
nKxgXMuB,3bawbgqgzoco8yjjw9p686v3rigv79,3634bbtx0s7yo5cj6nt16teilg4ifn,nKxgXMuB,2020-0188,2021-10-31,00:47:50,02:13:52,NA,incomplete,false,NA,NA,true,3,6,NA,NA,NA,left,n_l_104.jpg,orange,red,NA,NA,NA,NA,NA,NA,NA,NA,NA,NaN,NA,10495,left,1,NA,NA,NA,NA,NA
nKxgXMuB,3bawbgqgzoco8yjjw9p686v3rigv79,3634bbtx0s7yo5cj6nt16teilg4ifn,nKxgXMuB,2020-0188,2021-10-31,00:47:50,02:13:52,NA,incomplete,false,NA,NA,true,3,7,NA,NA,NA,left,n_s_065.jpg,yellow,purple,NA,NA,NA,NA,NA,NA,NA,NA,NA,NaN,NA,3981.2999999970198,left,1,NA,NA,NA,NA,NA
nKxgXMuB,3bawbgqgzoco8yjjw9p686v3rigv79,3634bbtx0s7yo5cj6nt16teilg4ifn,nKxgXMuB,2020-0188,2021-10-31,00:47:50,02:13:52,NA,incomplete,false,NA,NA,true,3,8,NA,NA,NA,left,m_l_006.jpg,white,red,NA,NA,NA,NA,NA,NA,NA,NA,NA,NaN,NA,3553.5,left,1,NA,NA,NA,NA,NA
nKxgXMuB,3bawbgqgzoco8yjjw9p686v3rigv79,3634bbtx0s7yo5cj6nt16teilg4ifn,nKxgXMuB,2020-0188,2021-10-31,00:47:50,02:13:52,NA,incomplete,false,NA,NA,true,3,9,NA,NA,NA,left,n_l_021.jpg,blue,yellow,NA,NA,NA,NA,NA,NA,NA,NA,NA,NaN,NA,1742.5999999940395,left,1,NA,NA,NA,NA,NA
nKxgXMuB,3bawbgqgzoco8yjjw9p686v3rigv79,3634bbtx0s7yo5cj6nt16teilg4ifn,nKxgXMuB,2020-0188,2021-10-31,00:47:50,02:13:52,NA,incomplete,false,NA,NA,true,3,10,NA,NA,NA,left,m_l_036.jpg,purple,yellow,NA,NA,NA,NA,NA,NA,NA,NA,NA,NaN,NA,16243.5,left,1,NA,NA,NA,NA,NA
nKxgXMuB,3bawbgqgzoco8yjjw9p686v3rigv79,3634bbtx0s7yo5cj6nt16teilg4ifn,nKxgXMuB,2020-0188,2021-10-31,00:47:50,02:13:52,NA,incomplete,false,NA,NA,true,3,11,NA,NA,NA,right,m_s_031.jpg,red,orange,NA,NA,NA,NA,NA,NA,NA,NA,NA,NaN,NA,4554.79999999702,right,1,NA,NA,NA,NA,NA
nKxgXMuB,3bawbgqgzoco8yjjw9p686v3rigv79,3634bbtx0s7yo5cj6nt16teilg4ifn,nKxgXMuB,2020-0188,2021-10-31,00:47:50,02:13:52,NA,incomplete,false,NA,NA,true,3,12,NA,NA,NA,left,m_l_103.jpg,red,white,NA,NA,NA,NA,NA,NA,NA,NA,NA,NaN,NA,1573.8999999985099,left,1,NA,NA,NA,NA,NA
nKxgXMuB,3bawbgqgzoco8yjjw9p686v3rigv79,3634bbtx0s7yo5cj6nt16teilg4ifn,nKxgXMuB,2020-0188,2021-10-31,00:47:50,02:13:52,NA,incomplete,false,NA,NA,true,3,13,NA,NA,NA,left,n_l_061.jpg,red,white,NA,NA,NA,NA,NA,NA,NA,NA,NA,NaN,NA,12373.70000000298,left,1,NA,NA,NA,NA,NA
nKxgXMuB,3bawbgqgzoco8yjjw9p686v3rigv79,3634bbtx0s7yo5cj6nt16teilg4ifn,nKxgXMuB,2020-0188,2021-10-31,00:47:50,02:13:52,NA,incomplete,false,NA,NA,true,3,14,NA,NA,NA,right,n_s_049.jpg,yellow,purple,NA,NA,NA,NA,NA,NA,NA,NA,NA,NaN,NA,4735.39999999851,right,1,NA,NA,NA,NA,NA
nKxgXMuB,3bawbgqgzoco8yjjw9p686v3rigv79,3634bbtx0s7yo5cj6nt16teilg4ifn,nKxgXMuB,2020-0188,2021-10-31,00:47:50,02:13:52,NA,incomplete,false,NA,NA,true,3,15,NA,NA,NA,right,m_l_033.jpg,purple,yellow,NA,NA,NA,NA,NA,NA,NA,NA,NA,NaN,NA,4240.10000000149,right,1,NA,NA,NA,NA,NA
nKxgXMuB,3bawbgqgzoco8yjjw9p686v3rigv79,3634bbtx0s7yo5cj6nt16teilg4ifn,nKxgXMuB,2020-0188,2021-10-31,00:47:50,02:13:52,NA,incomplete,false,NA,NA,true,3,16,NA,NA,NA,left,n_s_012.jpg,blue,yellow,NA,NA,NA,NA,NA,NA,NA,NA,NA,NaN,NA,5196.5,left,1,NA,NA,NA,NA,NA
nKxgXMuB,3bawbgqgzoco8yjjw9p686v3rigv79,3634bbtx0s7yo5cj6nt16teilg4ifn,nKxgXMuB,2020-0188,2021-10-31,00:47:50,02:13:52,NA,incomplete,false,NA,NA,true,3,17,NA,NA,NA,left,n_l_060.jpg,white,blue,NA,NA,NA,NA,NA,NA,NA,NA,NA,NaN,NA,15062.59999999404,left,1,NA,NA,NA,NA,NA
nKxgXMuB,3bawbgqgzoco8yjjw9p686v3rigv79,3634bbtx0s7yo5cj6nt16teilg4ifn,nKxgXMuB,2020-0188,2021-10-31,00:47:50,02:13:52,NA,incomplete,false,NA,NA,true,3,18,NA,NA,NA,right,n_s_066.jpg,orange,red,NA,NA,NA,NA,NA,NA,NA,NA,NA,NaN,NA,9302.5,right,1,NA,NA,NA,NA,NA
nKxgXMuB,3bawbgqgzoco8yjjw9p686v3rigv79,3634bbtx0s7yo5cj6nt16teilg4ifn,nKxgXMuB,2020-0188,2021-10-31,00:47:50,02:13:52,NA,incomplete,false,NA,NA,true,3,19,NA,NA,NA,left,m_s_071.jpg,purple,yellow,NA,NA,NA,NA,NA,NA,NA,NA,NA,NaN,NA,2012.3999999985099,left,1,NA,NA,NA,NA,NA
nKxgXMuB,3bawbgqgzoco8yjjw9p686v3rigv79,3634bbtx0s7yo5cj6nt16teilg4ifn,nKxgXMuB,2020-0188,2021-10-31,00:47:50,02:13:52,NA,incomplete,false,NA,NA,true,3,20,NA,NA,NA,left,m_l_024.jpg,white,red,NA,NA,NA,NA,NA,NA,NA,NA,NA,NaN,NA,5758.89999999851,left,1,NA,NA,NA,NA,NA
nKxgXMuB,3bawbgqgzoco8yjjw9p686v3rigv79,3634bbtx0s7yo5cj6nt16teilg4ifn,nKxgXMuB,2020-0188,2021-10-31,00:47:50,02:13:52,NA,incomplete,false,NA,NA,true,3,21,NA,NA,NA,left,m_s_044.jpg,orange,red,NA,NA,NA,NA,NA,NA,NA,NA,NA,NaN,NA,8267.69999999553,left,1,NA,NA,NA,NA,NA
nKxgXMuB,3bawbgqgzoco8yjjw9p686v3rigv79,3634bbtx0s7yo5cj6nt16teilg4ifn,nKxgXMuB,2020-0188,2021-10-31,00:47:50,02:13:52,NA,incomplete,false,NA,true,NA,3,0,NA,NA,NA,left,NA,NA,NA,present,NA,NA,n_s_065.jpg,yellow,m_l_036.jpg,purple,between,NA,NaN,NA,NA,NA,NA,left,90953,1,0,3498.2999999970198
nKxgXMuB,3bawbgqgzoco8yjjw9p686v3rigv79,3634bbtx0s7yo5cj6nt16teilg4ifn,nKxgXMuB,2020-0188,2021-10-31,00:47:50,02:13:52,NA,incomplete,false,NA,true,NA,3,1,NA,NA,NA,left,NA,NA,NA,present,NA,NA,m_s_071.jpg,purple,n_s_049.jpg,purple,within,NA,NaN,NA,NA,NA,NA,left,4465.20000000298,1,0,1371.5
nKxgXMuB,3bawbgqgzoco8yjjw9p686v3rigv79,3634bbtx0s7yo5cj6nt16teilg4ifn,nKxgXMuB,2020-0188,2021-10-31,00:47:50,02:13:52,NA,incomplete,false,NA,true,NA,3,2,NA,NA,NA,left,NA,NA,NA,present,NA,NA,m_s_032.jpg,blue,n_l_021.jpg,blue,within,NA,NaN,NA,NA,NA,NA,left,5500,1,0,1157.7999999970198
nKxgXMuB,3bawbgqgzoco8yjjw9p686v3rigv79,3634bbtx0s7yo5cj6nt16teilg4ifn,nKxgXMuB,2020-0188,2021-10-31,00:47:50,02:13:52,NA,incomplete,false,NA,true,NA,3,3,NA,NA,NA,right,NA,NA,NA,present,NA,NA,n_l_060.jpg,white,n_s_066.jpg,red,between,NA,NaN,NA,NA,NA,NA,left,4251.19999999553,0,1,1000.5
nKxgXMuB,3bawbgqgzoco8yjjw9p686v3rigv79,3634bbtx0s7yo5cj6nt16teilg4ifn,nKxgXMuB,2020-0188,2021-10-31,00:47:50,02:13:52,NA,incomplete,false,NA,true,NA,3,4,NA,NA,NA,left,NA,NA,NA,present,NA,NA,m_l_006.jpg,white,m_l_024.jpg,white,within,NA,NaN,NA,NA,NA,NA,left,4375.19999999553,1,0,2721.5
nKxgXMuB,3bawbgqgzoco8yjjw9p686v3rigv79,3634bbtx0s7yo5cj6nt16teilg4ifn,nKxgXMuB,2020-0188,2021-10-31,00:47:50,02:13:52,NA,incomplete,false,NA,true,NA,3,5,NA,NA,NA,left,NA,NA,NA,present,NA,NA,m_l_033.jpg,yellow,n_l_106.jpg,yellow,within,NA,NaN,NA,NA,NA,NA,left,5781.39999999851,1,0,4420.10000000149
nKxgXMuB,3bawbgqgzoco8yjjw9p686v3rigv79,3634bbtx0s7yo5cj6nt16teilg4ifn,nKxgXMuB,2020-0188,2021-10-31,00:47:50,02:13:52,NA,incomplete,false,NA,true,NA,3,6,NA,NA,NA,left,NA,NA,NA,present,NA,NA,m_s_031.jpg,orange,n_l_104.jpg,orange,within,NA,NaN,NA,NA,NA,NA,left,6591.39999999851,1,0,1067.5
nKxgXMuB,3bawbgqgzoco8yjjw9p686v3rigv79,3634bbtx0s7yo5cj6nt16teilg4ifn,nKxgXMuB,2020-0188,2021-10-31,00:47:50,02:13:52,NA,incomplete,false,NA,true,NA,3,7,NA,NA,NA,right,NA,NA,NA,present,NA,NA,n_s_072.jpg,yellow,n_l_097.jpg,blue,between,NA,NaN,NA,NA,NA,NA,right,16086.20000000298,1,1,1281.6000000014901
nKxgXMuB,3bawbgqgzoco8yjjw9p686v3rigv79,3634bbtx0s7yo5cj6nt16teilg4ifn,nKxgXMuB,2020-0188,2021-10-31,00:47:50,02:13:52,NA,incomplete,false,NA,true,NA,3,8,NA,NA,NA,right,NA,NA,NA,present,NA,NA,n_l_061.jpg,red,m_l_076.jpg,red,within,NA,NaN,NA,NA,NA,NA,right,3328.9000000059605,1,0,1394
nKxgXMuB,3bawbgqgzoco8yjjw9p686v3rigv79,3634bbtx0s7yo5cj6nt16teilg4ifn,nKxgXMuB,2020-0188,2021-10-31,00:47:50,02:13:52,NA,incomplete,false,NA,true,NA,3,9,NA,NA,NA,right,NA,NA,NA,present,NA,NA,n_s_012.jpg,blue,m_l_062.jpg,white,between,NA,NaN,NA,NA,NA,NA,right,4757.69999999553,1,1,2708.7000000029802
nKxgXMuB,3bawbgqgzoco8yjjw9p686v3rigv79,3634bbtx0s7yo5cj6nt16teilg4ifn,nKxgXMuB,2020-0188,2021-10-31,00:47:50,02:13:52,NA,incomplete,false,NA,true,NA,3,10,NA,NA,NA,right,NA,NA,NA,present,NA,NA,m_l_103.jpg,red,m_s_044.jpg,orange,between,NA,NaN,NA,NA,NA,NA,right,10708.59999999404,1,2,2440
nKxgXMuB,3bawbgqgzoco8yjjw9p686v3rigv79,3634bbtx0s7yo5cj6nt16teilg4ifn,nKxgXMuB,2020-0188,2021-10-31,00:47:50,02:13:52,NA,incomplete,false,true,NA,NA,4,0,NA,black,m_l_023.jpg,NA,NA,NA,NA,NA,pleasant,unpleasant,NA,NA,NA,NA,NA,none,0,false,NA,NA,NA,NA,NA,NA,NA,NA
nKxgXMuB,3bawbgqgzoco8yjjw9p686v3rigv79,3634bbtx0s7yo5cj6nt16teilg4ifn,nKxgXMuB,2020-0188,2021-10-31,00:47:50,02:13:52,NA,incomplete,false,true,NA,NA,4,1,NA,black,n_s_081.jpg,NA,NA,NA,NA,NA,unpleasant,pleasant,NA,NA,NA,NA,NA,right,2700.39999999851,true,NA,NA,NA,NA,NA,NA,NA,NA
nKxgXMuB,3bawbgqgzoco8yjjw9p686v3rigv79,3634bbtx0s7yo5cj6nt16teilg4ifn,nKxgXMuB,2020-0188,2021-10-31,00:47:50,02:13:52,NA,incomplete,false,true,NA,NA,4,2,NA,black,m_s_099.jpg,NA,NA,NA,NA,NA,unpleasant,pleasant,NA,NA,NA,NA,NA,right,1755.30000000447,true,NA,NA,NA,NA,NA,NA,NA,NA
nKxgXMuB,3bawbgqgzoco8yjjw9p686v3rigv79,3634bbtx0s7yo5cj6nt16teilg4ifn,nKxgXMuB,2020-0188,2021-10-31,00:47:50,02:13:52,NA,incomplete,false,true,NA,NA,4,3,NA,black,m_l_060.jpg,NA,NA,NA,NA,NA,pleasant,unpleasant,NA,NA,NA,NA,NA,left,1573.39999999851,true,NA,NA,NA,NA,NA,NA,NA,NA
nKxgXMuB,3bawbgqgzoco8yjjw9p686v3rigv79,3634bbtx0s7yo5cj6nt16teilg4ifn,nKxgXMuB,2020-0188,2021-10-31,00:47:50,02:13:52,NA,incomplete,false,true,NA,NA,4,4,NA,black,n_s_106.jpg,NA,NA,NA,NA,NA,unpleasant,pleasant,NA,NA,NA,NA,NA,right,1230.5,true,NA,NA,NA,NA,NA,NA,NA,NA
nKxgXMuB,3bawbgqgzoco8yjjw9p686v3rigv79,3634bbtx0s7yo5cj6nt16teilg4ifn,nKxgXMuB,2020-0188,2021-10-31,00:47:50,02:13:52,NA,incomplete,false,true,NA,NA,4,5,NA,black,m_s_009.jpg,NA,NA,NA,NA,NA,unpleasant,pleasant,NA,NA,NA,NA,NA,right,1156.09999999404,true,NA,NA,NA,NA,NA,NA,NA,NA
nKxgXMuB,3bawbgqgzoco8yjjw9p686v3rigv79,3634bbtx0s7yo5cj6nt16teilg4ifn,nKxgXMuB,2020-0188,2021-10-31,00:47:50,02:13:52,NA,incomplete,false,true,NA,NA,4,6,NA,orange,m_l_013.jpg,NA,NA,NA,NA,NA,unpleasant,pleasant,NA,NA,NA,NA,NA,right,1657,true,NA,NA,NA,NA,NA,NA,NA,NA
nKxgXMuB,3bawbgqgzoco8yjjw9p686v3rigv79,3634bbtx0s7yo5cj6nt16teilg4ifn,nKxgXMuB,2020-0188,2021-10-31,00:47:50,02:13:52,NA,incomplete,false,true,NA,NA,4,7,NA,orange,n_l_065.jpg,NA,NA,NA,NA,NA,pleasant,unpleasant,NA,NA,NA,NA,NA,left,1004.5,true,NA,NA,NA,NA,NA,NA,NA,NA
nKxgXMuB,3bawbgqgzoco8yjjw9p686v3rigv79,3634bbtx0s7yo5cj6nt16teilg4ifn,nKxgXMuB,2020-0188,2021-10-31,00:47:50,02:13:52,NA,incomplete,false,true,NA,NA,4,8,NA,orange,n_s_028.jpg,NA,NA,NA,NA,NA,pleasant,unpleasant,NA,NA,NA,NA,NA,left,821.29999999702,true,NA,NA,NA,NA,NA,NA,NA,NA
nKxgXMuB,3bawbgqgzoco8yjjw9p686v3rigv79,3634bbtx0s7yo5cj6nt16teilg4ifn,nKxgXMuB,2020-0188,2021-10-31,00:47:50,02:13:52,NA,incomplete,false,true,NA,NA,4,9,NA,orange,n_s_009.jpg,NA,NA,NA,NA,NA,pleasant,unpleasant,NA,NA,NA,NA,NA,left,940.19999999553,true,NA,NA,NA,NA,NA,NA,NA,NA
nKxgXMuB,3bawbgqgzoco8yjjw9p686v3rigv79,3634bbtx0s7yo5cj6nt16teilg4ifn,nKxgXMuB,2020-0188,2021-10-31,00:47:50,02:13:52,NA,incomplete,false,true,NA,NA,4,10,NA,orange,m_l_092.jpg,NA,NA,NA,NA,NA,pleasant,unpleasant,NA,NA,NA,NA,NA,left,1366.39999999851,true,NA,NA,NA,NA,NA,NA,NA,NA
nKxgXMuB,3bawbgqgzoco8yjjw9p686v3rigv79,3634bbtx0s7yo5cj6nt16teilg4ifn,nKxgXMuB,2020-0188,2021-10-31,00:47:50,02:13:52,NA,incomplete,false,true,NA,NA,4,11,NA,orange,n_s_039.jpg,NA,NA,NA,NA,NA,pleasant,unpleasant,NA,NA,NA,NA,NA,left,882.5,true,NA,NA,NA,NA,NA,NA,NA,NA
nKxgXMuB,3bawbgqgzoco8yjjw9p686v3rigv79,3634bbtx0s7yo5cj6nt16teilg4ifn,nKxgXMuB,2020-0188,2021-10-31,00:47:50,02:13:52,NA,incomplete,false,true,NA,NA,4,12,NA,purple,m_l_058.jpg,NA,NA,NA,NA,NA,pleasant,unpleasant,NA,NA,NA,NA,NA,left,1482.5,true,NA,NA,NA,NA,NA,NA,NA,NA
nKxgXMuB,3bawbgqgzoco8yjjw9p686v3rigv79,3634bbtx0s7yo5cj6nt16teilg4ifn,nKxgXMuB,2020-0188,2021-10-31,00:47:50,02:13:52,NA,incomplete,false,true,NA,NA,4,13,NA,purple,n_s_060.jpg,NA,NA,NA,NA,NA,unpleasant,pleasant,NA,NA,NA,NA,NA,right,1381.09999999404,true,NA,NA,NA,NA,NA,NA,NA,NA
nKxgXMuB,3bawbgqgzoco8yjjw9p686v3rigv79,3634bbtx0s7yo5cj6nt16teilg4ifn,nKxgXMuB,2020-0188,2021-10-31,00:47:50,02:13:52,NA,incomplete,false,true,NA,NA,4,14,NA,purple,n_l_031.jpg,NA,NA,NA,NA,NA,unpleasant,pleasant,NA,NA,NA,NA,NA,right,1003.20000000298,true,NA,NA,NA,NA,NA,NA,NA,NA
nKxgXMuB,3bawbgqgzoco8yjjw9p686v3rigv79,3634bbtx0s7yo5cj6nt16teilg4ifn,nKxgXMuB,2020-0188,2021-10-31,00:47:50,02:13:52,NA,incomplete,false,true,NA,NA,4,15,NA,purple,n_l_081.jpg,NA,NA,NA,NA,NA,pleasant,unpleasant,NA,NA,NA,NA,NA,left,964.80000000447,true,NA,NA,NA,NA,NA,NA,NA,NA
nKxgXMuB,3bawbgqgzoco8yjjw9p686v3rigv79,3634bbtx0s7yo5cj6nt16teilg4ifn,nKxgXMuB,2020-0188,2021-10-31,00:47:50,02:13:52,NA,incomplete,false,true,NA,NA,4,16,NA,purple,n_l_018.jpg,NA,NA,NA,NA,NA,unpleasant,pleasant,NA,NA,NA,NA,NA,right,1192.89999999851,true,NA,NA,NA,NA,NA,NA,NA,NA
nKxgXMuB,3bawbgqgzoco8yjjw9p686v3rigv79,3634bbtx0s7yo5cj6nt16teilg4ifn,nKxgXMuB,2020-0188,2021-10-31,00:47:50,02:13:52,NA,incomplete,false,true,NA,NA,4,17,NA,purple,n_l_073.jpg,NA,NA,NA,NA,NA,pleasant,unpleasant,NA,NA,NA,NA,NA,left,892.39999999851,true,NA,NA,NA,NA,NA,NA,NA,NA
nKxgXMuB,3bawbgqgzoco8yjjw9p686v3rigv79,3634bbtx0s7yo5cj6nt16teilg4ifn,nKxgXMuB,2020-0188,2021-10-31,00:47:50,02:13:52,NA,incomplete,false,true,NA,NA,4,18,NA,brown,m_l_025.jpg,NA,NA,NA,NA,NA,unpleasant,pleasant,NA,NA,NA,NA,NA,right,1331.29999999702,true,NA,NA,NA,NA,NA,NA,NA,NA
nKxgXMuB,3bawbgqgzoco8yjjw9p686v3rigv79,3634bbtx0s7yo5cj6nt16teilg4ifn,nKxgXMuB,2020-0188,2021-10-31,00:47:50,02:13:52,NA,incomplete,false,true,NA,NA,4,19,NA,brown,n_l_115.jpg,NA,NA,NA,NA,NA,unpleasant,pleasant,NA,NA,NA,NA,NA,right,1672.60000000149,true,NA,NA,NA,NA,NA,NA,NA,NA
nKxgXMuB,3bawbgqgzoco8yjjw9p686v3rigv79,3634bbtx0s7yo5cj6nt16teilg4ifn,nKxgXMuB,2020-0188,2021-10-31,00:47:50,02:13:52,NA,incomplete,false,true,NA,NA,4,20,NA,brown,m_s_052.jpg,NA,NA,NA,NA,NA,pleasant,unpleasant,NA,NA,NA,NA,NA,left,806.89999999851,true,NA,NA,NA,NA,NA,NA,NA,NA
nKxgXMuB,3bawbgqgzoco8yjjw9p686v3rigv79,3634bbtx0s7yo5cj6nt16teilg4ifn,nKxgXMuB,2020-0188,2021-10-31,00:47:50,02:13:52,NA,incomplete,false,true,NA,NA,4,21,NA,brown,n_s_113.jpg,NA,NA,NA,NA,NA,pleasant,unpleasant,NA,NA,NA,NA,NA,left,1300.39999999851,true,NA,NA,NA,NA,NA,NA,NA,NA
nKxgXMuB,3bawbgqgzoco8yjjw9p686v3rigv79,3634bbtx0s7yo5cj6nt16teilg4ifn,nKxgXMuB,2020-0188,2021-10-31,00:47:50,02:13:52,NA,incomplete,false,true,NA,NA,4,22,NA,brown,m_l_046.jpg,NA,NA,NA,NA,NA,unpleasant,pleasant,NA,NA,NA,NA,NA,right,1227.89999999851,true,NA,NA,NA,NA,NA,NA,NA,NA
nKxgXMuB,3bawbgqgzoco8yjjw9p686v3rigv79,3634bbtx0s7yo5cj6nt16teilg4ifn,nKxgXMuB,2020-0188,2021-10-31,00:47:50,02:13:52,NA,incomplete,false,true,NA,NA,4,23,NA,brown,n_s_013.jpg,NA,NA,NA,NA,NA,unpleasant,pleasant,NA,NA,NA,NA,NA,right,1096.29999999702,true,NA,NA,NA,NA,NA,NA,NA,NA
nKxgXMuB,3bawbgqgzoco8yjjw9p686v3rigv79,3634bbtx0s7yo5cj6nt16teilg4ifn,nKxgXMuB,2020-0188,2021-10-31,00:47:50,02:13:52,NA,incomplete,false,true,NA,NA,4,24,NA,yellow,n_l_010.jpg,NA,NA,NA,NA,NA,pleasant,unpleasant,NA,NA,NA,NA,NA,right,908.60000000149,true,NA,NA,NA,NA,NA,NA,NA,NA
nKxgXMuB,3bawbgqgzoco8yjjw9p686v3rigv79,3634bbtx0s7yo5cj6nt16teilg4ifn,nKxgXMuB,2020-0188,2021-10-31,00:47:50,02:13:52,NA,incomplete,false,true,NA,NA,4,25,NA,yellow,m_s_016.jpg,NA,NA,NA,NA,NA,pleasant,unpleasant,NA,NA,NA,NA,NA,left,1133.79999999702,true,NA,NA,NA,NA,NA,NA,NA,NA
nKxgXMuB,3bawbgqgzoco8yjjw9p686v3rigv79,3634bbtx0s7yo5cj6nt16teilg4ifn,nKxgXMuB,2020-0188,2021-10-31,00:47:50,02:13:52,NA,incomplete,false,true,NA,NA,4,26,NA,yellow,n_l_072.jpg,NA,NA,NA,NA,NA,unpleasant,pleasant,NA,NA,NA,NA,NA,right,986.39999999851,true,NA,NA,NA,NA,NA,NA,NA,NA
nKxgXMuB,3bawbgqgzoco8yjjw9p686v3rigv79,3634bbtx0s7yo5cj6nt16teilg4ifn,nKxgXMuB,2020-0188,2021-10-31,00:47:50,02:13:52,NA,incomplete,false,true,NA,NA,4,27,NA,yellow,m_s_057.jpg,NA,NA,NA,NA,NA,unpleasant,pleasant,NA,NA,NA,NA,NA,right,1193.60000000149,true,NA,NA,NA,NA,NA,NA,NA,NA
nKxgXMuB,3bawbgqgzoco8yjjw9p686v3rigv79,3634bbtx0s7yo5cj6nt16teilg4ifn,nKxgXMuB,2020-0188,2021-10-31,00:47:50,02:13:52,NA,incomplete,false,true,NA,NA,4,28,NA,yellow,m_s_082.jpg,NA,NA,NA,NA,NA,pleasant,unpleasant,NA,NA,NA,NA,NA,left,1175.5,true,NA,NA,NA,NA,NA,NA,NA,NA
nKxgXMuB,3bawbgqgzoco8yjjw9p686v3rigv79,3634bbtx0s7yo5cj6nt16teilg4ifn,nKxgXMuB,2020-0188,2021-10-31,00:47:50,02:13:52,NA,incomplete,false,true,NA,NA,4,29,NA,yellow,n_s_047.jpg,NA,NA,NA,NA,NA,unpleasant,pleasant,NA,NA,NA,NA,NA,right,1055,true,NA,NA,NA,NA,NA,NA,NA,NA
nKxgXMuB,3bawbgqgzoco8yjjw9p686v3rigv79,3634bbtx0s7yo5cj6nt16teilg4ifn,nKxgXMuB,2020-0188,2021-10-31,00:47:50,02:13:52,NA,incomplete,false,true,NA,NA,4,30,NA,red,m_l_040.jpg,NA,NA,NA,NA,NA,pleasant,unpleasant,NA,NA,NA,NA,NA,left,1680.5,true,NA,NA,NA,NA,NA,NA,NA,NA
nKxgXMuB,3bawbgqgzoco8yjjw9p686v3rigv79,3634bbtx0s7yo5cj6nt16teilg4ifn,nKxgXMuB,2020-0188,2021-10-31,00:47:50,02:13:52,NA,incomplete,false,true,NA,NA,4,31,NA,red,n_s_046.jpg,NA,NA,NA,NA,NA,unpleasant,pleasant,NA,NA,NA,NA,NA,right,1289.60000000149,true,NA,NA,NA,NA,NA,NA,NA,NA
nKxgXMuB,3bawbgqgzoco8yjjw9p686v3rigv79,3634bbtx0s7yo5cj6nt16teilg4ifn,nKxgXMuB,2020-0188,2021-10-31,00:47:50,02:13:52,NA,incomplete,false,true,NA,NA,4,32,NA,red,n_l_083.jpg,NA,NA,NA,NA,NA,unpleasant,pleasant,NA,NA,NA,NA,NA,right,1088.80000000447,true,NA,NA,NA,NA,NA,NA,NA,NA
nKxgXMuB,3bawbgqgzoco8yjjw9p686v3rigv79,3634bbtx0s7yo5cj6nt16teilg4ifn,nKxgXMuB,2020-0188,2021-10-31,00:47:50,02:13:52,NA,incomplete,false,true,NA,NA,4,33,NA,red,n_l_059.jpg,NA,NA,NA,NA,NA,unpleasant,pleasant,NA,NA,NA,NA,NA,right,1355.89999999851,true,NA,NA,NA,NA,NA,NA,NA,NA
nKxgXMuB,3bawbgqgzoco8yjjw9p686v3rigv79,3634bbtx0s7yo5cj6nt16teilg4ifn,nKxgXMuB,2020-0188,2021-10-31,00:47:50,02:13:52,NA,incomplete,false,true,NA,NA,4,34,NA,red,n_s_099.jpg,NA,NA,NA,NA,NA,pleasant,unpleasant,NA,NA,NA,NA,NA,left,1474.89999999851,true,NA,NA,NA,NA,NA,NA,NA,NA
nKxgXMuB,3bawbgqgzoco8yjjw9p686v3rigv79,3634bbtx0s7yo5cj6nt16teilg4ifn,nKxgXMuB,2020-0188,2021-10-31,00:47:50,02:13:52,NA,incomplete,false,true,NA,NA,4,35,NA,red,n_l_076.jpg,NA,NA,NA,NA,NA,pleasant,unpleasant,NA,NA,NA,NA,NA,left,1039.79999999702,true,NA,NA,NA,NA,NA,NA,NA,NA
nKxgXMuB,3bawbgqgzoco8yjjw9p686v3rigv79,3634bbtx0s7yo5cj6nt16teilg4ifn,nKxgXMuB,2020-0188,2021-10-31,00:47:50,02:13:52,NA,incomplete,false,NA,NA,true,4,0,NA,NA,NA,right,n_l_083.jpg,yellow,red,NA,NA,NA,NA,NA,NA,NA,NA,NA,NaN,NA,4611.70000000298,right,1,NA,NA,NA,NA,NA
nKxgXMuB,3bawbgqgzoco8yjjw9p686v3rigv79,3634bbtx0s7yo5cj6nt16teilg4ifn,nKxgXMuB,2020-0188,2021-10-31,00:47:50,02:13:52,NA,incomplete,false,NA,NA,true,4,1,NA,NA,NA,left,n_s_081.jpg,black,orange,NA,NA,NA,NA,NA,NA,NA,NA,NA,NaN,NA,1798.8000000044703,left,1,NA,NA,NA,NA,NA
nKxgXMuB,3bawbgqgzoco8yjjw9p686v3rigv79,3634bbtx0s7yo5cj6nt16teilg4ifn,nKxgXMuB,2020-0188,2021-10-31,00:47:50,02:13:52,NA,incomplete,false,NA,NA,true,4,2,NA,NA,NA,right,n_l_076.jpg,yellow,red,NA,NA,NA,NA,NA,NA,NA,NA,NA,NaN,NA,3767.60000000149,right,1,NA,NA,NA,NA,NA
nKxgXMuB,3bawbgqgzoco8yjjw9p686v3rigv79,3634bbtx0s7yo5cj6nt16teilg4ifn,nKxgXMuB,2020-0188,2021-10-31,00:47:50,02:13:52,NA,incomplete,false,NA,NA,true,4,3,NA,NA,NA,left,n_s_039.jpg,orange,black,NA,NA,NA,NA,NA,NA,NA,NA,NA,NaN,NA,3688.5,left,1,NA,NA,NA,NA,NA
nKxgXMuB,3bawbgqgzoco8yjjw9p686v3rigv79,3634bbtx0s7yo5cj6nt16teilg4ifn,nKxgXMuB,2020-0188,2021-10-31,00:47:50,02:13:52,NA,incomplete,false,NA,NA,true,4,4,NA,NA,NA,left,m_s_082.jpg,yellow,red,NA,NA,NA,NA,NA,NA,NA,NA,NA,NaN,NA,5861.39999999851,left,1,NA,NA,NA,NA,NA
nKxgXMuB,3bawbgqgzoco8yjjw9p686v3rigv79,3634bbtx0s7yo5cj6nt16teilg4ifn,nKxgXMuB,2020-0188,2021-10-31,00:47:50,02:13:52,NA,incomplete,false,NA,NA,true,4,5,NA,NA,NA,left,m_s_009.jpg,black,orange,NA,NA,NA,NA,NA,NA,NA,NA,NA,NaN,NA,4037.4000000059605,left,1,NA,NA,NA,NA,NA
nKxgXMuB,3bawbgqgzoco8yjjw9p686v3rigv79,3634bbtx0s7yo5cj6nt16teilg4ifn,nKxgXMuB,2020-0188,2021-10-31,00:47:50,02:13:52,NA,incomplete,false,NA,NA,true,4,6,NA,NA,NA,left,n_s_013.jpg,brown,yellow,NA,NA,NA,NA,NA,NA,NA,NA,NA,NaN,NA,5635.10000000149,left,1,NA,NA,NA,NA,NA
nKxgXMuB,3bawbgqgzoco8yjjw9p686v3rigv79,3634bbtx0s7yo5cj6nt16teilg4ifn,nKxgXMuB,2020-0188,2021-10-31,00:47:50,02:13:52,NA,incomplete,false,NA,NA,true,4,7,NA,NA,NA,left,n_l_115.jpg,brown,yellow,NA,NA,NA,NA,NA,NA,NA,NA,NA,NaN,NA,2867.6999999955297,left,1,NA,NA,NA,NA,NA
nKxgXMuB,3bawbgqgzoco8yjjw9p686v3rigv79,3634bbtx0s7yo5cj6nt16teilg4ifn,nKxgXMuB,2020-0188,2021-10-31,00:47:50,02:13:52,NA,incomplete,false,NA,NA,true,4,8,NA,NA,NA,left,n_l_065.jpg,orange,purple,NA,NA,NA,NA,NA,NA,NA,NA,NA,NaN,NA,4183.10000000149,left,1,NA,NA,NA,NA,NA
nKxgXMuB,3bawbgqgzoco8yjjw9p686v3rigv79,3634bbtx0s7yo5cj6nt16teilg4ifn,nKxgXMuB,2020-0188,2021-10-31,00:47:50,02:13:52,NA,incomplete,false,NA,NA,true,4,9,NA,NA,NA,right,n_s_046.jpg,yellow,red,NA,NA,NA,NA,NA,NA,NA,NA,NA,NaN,NA,1495.1000000014901,right,1,NA,NA,NA,NA,NA
nKxgXMuB,3bawbgqgzoco8yjjw9p686v3rigv79,3634bbtx0s7yo5cj6nt16teilg4ifn,nKxgXMuB,2020-0188,2021-10-31,00:47:50,02:13:52,NA,incomplete,false,NA,NA,true,4,10,NA,NA,NA,right,n_s_060.jpg,brown,purple,NA,NA,NA,NA,NA,NA,NA,NA,NA,NaN,NA,2113.6999999955297,right,1,NA,NA,NA,NA,NA
nKxgXMuB,3bawbgqgzoco8yjjw9p686v3rigv79,3634bbtx0s7yo5cj6nt16teilg4ifn,nKxgXMuB,2020-0188,2021-10-31,00:47:50,02:13:52,NA,incomplete,false,NA,NA,true,4,11,NA,NA,NA,left,m_s_016.jpg,yellow,brown,NA,NA,NA,NA,NA,NA,NA,NA,NA,NaN,NA,2980.2999999970198,left,1,NA,NA,NA,NA,NA
nKxgXMuB,3bawbgqgzoco8yjjw9p686v3rigv79,3634bbtx0s7yo5cj6nt16teilg4ifn,nKxgXMuB,2020-0188,2021-10-31,00:47:50,02:13:52,NA,incomplete,false,NA,NA,true,4,12,NA,NA,NA,left,n_l_018.jpg,purple,brown,NA,NA,NA,NA,NA,NA,NA,NA,NA,NaN,NA,1440.7000000029802,left,1,NA,NA,NA,NA,NA
nKxgXMuB,3bawbgqgzoco8yjjw9p686v3rigv79,3634bbtx0s7yo5cj6nt16teilg4ifn,nKxgXMuB,2020-0188,2021-10-31,00:47:50,02:13:52,NA,incomplete,false,NA,NA,true,4,13,NA,NA,NA,left,n_l_031.jpg,purple,orange,NA,NA,NA,NA,NA,NA,NA,NA,NA,NaN,NA,1573.8000000044703,left,1,NA,NA,NA,NA,NA
nKxgXMuB,3bawbgqgzoco8yjjw9p686v3rigv79,3634bbtx0s7yo5cj6nt16teilg4ifn,nKxgXMuB,2020-0188,2021-10-31,00:47:50,02:13:52,NA,incomplete,false,NA,NA,true,4,14,NA,NA,NA,right,n_s_028.jpg,purple,orange,NA,NA,NA,NA,NA,NA,NA,NA,NA,NaN,NA,1618.7000000029802,right,1,NA,NA,NA,NA,NA
nKxgXMuB,3bawbgqgzoco8yjjw9p686v3rigv79,3634bbtx0s7yo5cj6nt16teilg4ifn,nKxgXMuB,2020-0188,2021-10-31,00:47:50,02:13:52,NA,incomplete,false,NA,NA,true,4,15,NA,NA,NA,left,n_s_106.jpg,black,orange,NA,NA,NA,NA,NA,NA,NA,NA,NA,NaN,NA,1843.8000000044703,left,1,NA,NA,NA,NA,NA
nKxgXMuB,3bawbgqgzoco8yjjw9p686v3rigv79,3634bbtx0s7yo5cj6nt16teilg4ifn,nKxgXMuB,2020-0188,2021-10-31,00:47:50,02:13:52,NA,incomplete,false,NA,NA,true,4,16,NA,NA,NA,left,m_l_092.jpg,orange,purple,NA,NA,NA,NA,NA,NA,NA,NA,NA,NaN,NA,1652.2999999970198,left,1,NA,NA,NA,NA,NA
nKxgXMuB,3bawbgqgzoco8yjjw9p686v3rigv79,3634bbtx0s7yo5cj6nt16teilg4ifn,nKxgXMuB,2020-0188,2021-10-31,00:47:50,02:13:52,NA,incomplete,false,NA,NA,true,4,17,NA,NA,NA,left,m_s_052.jpg,brown,purple,NA,NA,NA,NA,NA,NA,NA,NA,NA,NaN,NA,2350.60000000149,left,1,NA,NA,NA,NA,NA
nKxgXMuB,3bawbgqgzoco8yjjw9p686v3rigv79,3634bbtx0s7yo5cj6nt16teilg4ifn,nKxgXMuB,2020-0188,2021-10-31,00:47:50,02:13:52,NA,incomplete,false,NA,NA,true,4,18,NA,NA,NA,left,m_l_046.jpg,brown,purple,NA,NA,NA,NA,NA,NA,NA,NA,NA,NaN,NA,9617.89999999851,left,1,NA,NA,NA,NA,NA
nKxgXMuB,3bawbgqgzoco8yjjw9p686v3rigv79,3634bbtx0s7yo5cj6nt16teilg4ifn,nKxgXMuB,2020-0188,2021-10-31,00:47:50,02:13:52,NA,incomplete,false,NA,NA,true,4,19,NA,NA,NA,right,n_l_073.jpg,orange,purple,NA,NA,NA,NA,NA,NA,NA,NA,NA,NaN,NA,9876.39999999851,right,1,NA,NA,NA,NA,NA
nKxgXMuB,3bawbgqgzoco8yjjw9p686v3rigv79,3634bbtx0s7yo5cj6nt16teilg4ifn,nKxgXMuB,2020-0188,2021-10-31,00:47:50,02:13:52,NA,incomplete,false,NA,NA,true,4,20,NA,NA,NA,right,n_s_047.jpg,red,yellow,NA,NA,NA,NA,NA,NA,NA,NA,NA,NaN,NA,5039.10000000149,right,1,NA,NA,NA,NA,NA
nKxgXMuB,3bawbgqgzoco8yjjw9p686v3rigv79,3634bbtx0s7yo5cj6nt16teilg4ifn,nKxgXMuB,2020-0188,2021-10-31,00:47:50,02:13:52,NA,incomplete,false,NA,NA,true,4,21,NA,NA,NA,right,n_l_072.jpg,red,yellow,NA,NA,NA,NA,NA,NA,NA,NA,NA,NaN,NA,4263.10000000149,right,1,NA,NA,NA,NA,NA
nKxgXMuB,3bawbgqgzoco8yjjw9p686v3rigv79,3634bbtx0s7yo5cj6nt16teilg4ifn,nKxgXMuB,2020-0188,2021-10-31,00:47:50,02:13:52,NA,incomplete,false,NA,true,NA,4,0,NA,NA,NA,left,NA,NA,NA,present,NA,NA,m_s_016.jpg,yellow,n_s_047.jpg,yellow,within,NA,NaN,NA,NA,NA,NA,left,5836.69999999553,1,0,1494.7999999970198
nKxgXMuB,3bawbgqgzoco8yjjw9p686v3rigv79,3634bbtx0s7yo5cj6nt16teilg4ifn,nKxgXMuB,2020-0188,2021-10-31,00:47:50,02:13:52,NA,incomplete,false,NA,true,NA,4,1,NA,NA,NA,right,NA,NA,NA,present,NA,NA,n_s_013.jpg,brown,n_l_115.jpg,brown,within,NA,NaN,NA,NA,NA,NA,right,4757.20000000298,1,0,1157.3000000044703
nKxgXMuB,3bawbgqgzoco8yjjw9p686v3rigv79,3634bbtx0s7yo5cj6nt16teilg4ifn,nKxgXMuB,2020-0188,2021-10-31,00:47:50,02:13:52,NA,incomplete,false,NA,true,NA,4,2,NA,NA,NA,right,NA,NA,NA,present,NA,NA,n_l_072.jpg,yellow,m_l_046.jpg,brown,between,NA,NaN,NA,NA,NA,NA,right,7794.29999999702,1,1,2931.1999999955297
nKxgXMuB,3bawbgqgzoco8yjjw9p686v3rigv79,3634bbtx0s7yo5cj6nt16teilg4ifn,nKxgXMuB,2020-0188,2021-10-31,00:47:50,02:13:52,NA,incomplete,false,NA,true,NA,4,3,NA,NA,NA,right,NA,NA,NA,present,NA,NA,n_s_028.jpg,orange,n_s_106.jpg,black,between,NA,NaN,NA,NA,NA,NA,right,12249.69999999553,1,1,2260.39999999851
nKxgXMuB,3bawbgqgzoco8yjjw9p686v3rigv79,3634bbtx0s7yo5cj6nt16teilg4ifn,nKxgXMuB,2020-0188,2021-10-31,00:47:50,02:13:52,NA,incomplete,false,NA,true,NA,4,4,NA,NA,NA,left,NA,NA,NA,present,NA,NA,n_l_065.jpg,orange,n_s_039.jpg,orange,within,NA,NaN,NA,NA,NA,NA,left,4690.0999999940395,1,0,1033.8999999985099
nKxgXMuB,3bawbgqgzoco8yjjw9p686v3rigv79,3634bbtx0s7yo5cj6nt16teilg4ifn,nKxgXMuB,2020-0188,2021-10-31,00:47:50,02:13:52,NA,incomplete,false,NA,true,NA,4,5,NA,NA,NA,left,NA,NA,NA,present,NA,NA,n_s_060.jpg,purple,n_l_073.jpg,purple,within,NA,NaN,NA,NA,NA,NA,left,5578.89999999851,1,0,3632.6999999955297
nKxgXMuB,3bawbgqgzoco8yjjw9p686v3rigv79,3634bbtx0s7yo5cj6nt16teilg4ifn,nKxgXMuB,2020-0188,2021-10-31,00:47:50,02:13:52,NA,incomplete,false,NA,true,NA,4,6,NA,NA,NA,left,NA,NA,NA,present,NA,NA,n_s_046.jpg,red,n_l_076.jpg,red,within,NA,NaN,NA,NA,NA,NA,left,4926.29999999702,1,0,1843.8999999985099
nKxgXMuB,3bawbgqgzoco8yjjw9p686v3rigv79,3634bbtx0s7yo5cj6nt16teilg4ifn,nKxgXMuB,2020-0188,2021-10-31,00:47:50,02:13:52,NA,incomplete,false,NA,true,NA,4,7,NA,NA,NA,left,NA,NA,NA,present,NA,NA,n_l_018.jpg,purple,m_s_052.jpg,brown,between,NA,NaN,NA,NA,NA,NA,right,24939.89999999851,0,1,5264
nKxgXMuB,3bawbgqgzoco8yjjw9p686v3rigv79,3634bbtx0s7yo5cj6nt16teilg4ifn,nKxgXMuB,2020-0188,2021-10-31,00:47:50,02:13:52,NA,incomplete,false,NA,true,NA,4,8,NA,NA,NA,left,NA,NA,NA,present,NA,NA,m_l_092.jpg,orange,n_l_031.jpg,purple,between,NA,NaN,NA,NA,NA,NA,left,4903.79999999702,1,0,977.7999999970198
nKxgXMuB,3bawbgqgzoco8yjjw9p686v3rigv79,3634bbtx0s7yo5cj6nt16teilg4ifn,nKxgXMuB,2020-0188,2021-10-31,00:47:50,02:13:52,NA,incomplete,false,NA,true,NA,4,9,NA,NA,NA,right,NA,NA,NA,present,NA,NA,m_s_009.jpg,black,n_s_081.jpg,black,within,NA,NaN,NA,NA,NA,NA,right,4465.10000000149,1,0,2080.1999999955297
nKxgXMuB,3bawbgqgzoco8yjjw9p686v3rigv79,3634bbtx0s7yo5cj6nt16teilg4ifn,nKxgXMuB,2020-0188,2021-10-31,00:47:50,02:13:52,NA,incomplete,false,NA,true,NA,4,10,NA,NA,NA,right,NA,NA,NA,present,NA,NA,n_l_083.jpg,red,m_s_082.jpg,yellow,between,NA,NaN,NA,NA,NA,NA,left,27212.60000000149,0,2,1889.0999999940395
nKxgXMuB,3bawbgqgzoco8yjjw9p686v3rigv79,3634bbtx0s7yo5cj6nt16teilg4ifn,nKxgXMuB,2020-0188,2021-10-31,00:47:50,02:13:52,NA,incomplete,false,true,NA,NA,5,0,NA,orange,n_s_107.jpg,NA,NA,NA,NA,NA,pleasant,unpleasant,NA,NA,NA,NA,NA,left,1570.20000000298,true,NA,NA,NA,NA,NA,NA,NA,NA
nKxgXMuB,3bawbgqgzoco8yjjw9p686v3rigv79,3634bbtx0s7yo5cj6nt16teilg4ifn,nKxgXMuB,2020-0188,2021-10-31,00:47:50,02:13:52,NA,incomplete,false,true,NA,NA,5,1,NA,orange,n_s_025.jpg,NA,NA,NA,NA,NA,pleasant,unpleasant,NA,NA,NA,NA,NA,left,1180.19999999553,true,NA,NA,NA,NA,NA,NA,NA,NA
nKxgXMuB,3bawbgqgzoco8yjjw9p686v3rigv79,3634bbtx0s7yo5cj6nt16teilg4ifn,nKxgXMuB,2020-0188,2021-10-31,00:47:50,02:13:52,NA,incomplete,false,true,NA,NA,5,2,NA,orange,n_l_023.jpg,NA,NA,NA,NA,NA,pleasant,unpleasant,NA,NA,NA,NA,NA,left,1297.10000000149,true,NA,NA,NA,NA,NA,NA,NA,NA
nKxgXMuB,3bawbgqgzoco8yjjw9p686v3rigv79,3634bbtx0s7yo5cj6nt16teilg4ifn,nKxgXMuB,2020-0188,2021-10-31,00:47:50,02:13:52,NA,incomplete,false,true,NA,NA,5,3,NA,orange,m_s_034.jpg,NA,NA,NA,NA,NA,unpleasant,pleasant,NA,NA,NA,NA,NA,right,1897.30000000447,true,NA,NA,NA,NA,NA,NA,NA,NA
nKxgXMuB,3bawbgqgzoco8yjjw9p686v3rigv79,3634bbtx0s7yo5cj6nt16teilg4ifn,nKxgXMuB,2020-0188,2021-10-31,00:47:50,02:13:52,NA,incomplete,false,true,NA,NA,5,4,NA,orange,m_s_056.jpg,NA,NA,NA,NA,NA,pleasant,unpleasant,NA,NA,NA,NA,NA,left,1481,true,NA,NA,NA,NA,NA,NA,NA,NA
nKxgXMuB,3bawbgqgzoco8yjjw9p686v3rigv79,3634bbtx0s7yo5cj6nt16teilg4ifn,nKxgXMuB,2020-0188,2021-10-31,00:47:50,02:13:52,NA,incomplete,false,true,NA,NA,5,5,NA,orange,m_l_086.jpg,NA,NA,NA,NA,NA,unpleasant,pleasant,NA,NA,NA,NA,NA,right,1868.10000000149,true,NA,NA,NA,NA,NA,NA,NA,NA
nKxgXMuB,3bawbgqgzoco8yjjw9p686v3rigv79,3634bbtx0s7yo5cj6nt16teilg4ifn,nKxgXMuB,2020-0188,2021-10-31,00:47:50,02:13:52,NA,incomplete,false,true,NA,NA,5,6,NA,black,m_l_035.jpg,NA,NA,NA,NA,NA,pleasant,unpleasant,NA,NA,NA,NA,NA,none,0,false,NA,NA,NA,NA,NA,NA,NA,NA
nKxgXMuB,3bawbgqgzoco8yjjw9p686v3rigv79,3634bbtx0s7yo5cj6nt16teilg4ifn,nKxgXMuB,2020-0188,2021-10-31,00:47:50,02:13:52,NA,incomplete,false,true,NA,NA,5,7,NA,black,n_l_090.jpg,NA,NA,NA,NA,NA,pleasant,unpleasant,NA,NA,NA,NA,NA,none,0,false,NA,NA,NA,NA,NA,NA,NA,NA
nKxgXMuB,3bawbgqgzoco8yjjw9p686v3rigv79,3634bbtx0s7yo5cj6nt16teilg4ifn,nKxgXMuB,2020-0188,2021-10-31,00:47:50,02:13:52,NA,incomplete,false,true,NA,NA,5,8,NA,black,m_s_012.jpg,NA,NA,NA,NA,NA,pleasant,unpleasant,NA,NA,NA,NA,NA,none,0,false,NA,NA,NA,NA,NA,NA,NA,NA
nKxgXMuB,3bawbgqgzoco8yjjw9p686v3rigv79,3634bbtx0s7yo5cj6nt16teilg4ifn,nKxgXMuB,2020-0188,2021-10-31,00:47:50,02:13:52,NA,incomplete,false,true,NA,NA,5,9,NA,black,n_s_037.jpg,NA,NA,NA,NA,NA,unpleasant,pleasant,NA,NA,NA,NA,NA,right,1820.09999999404,true,NA,NA,NA,NA,NA,NA,NA,NA
nKxgXMuB,3bawbgqgzoco8yjjw9p686v3rigv79,3634bbtx0s7yo5cj6nt16teilg4ifn,nKxgXMuB,2020-0188,2021-10-31,00:47:50,02:13:52,NA,incomplete,false,true,NA,NA,5,10,NA,black,m_s_080.jpg,NA,NA,NA,NA,NA,pleasant,unpleasant,NA,NA,NA,NA,NA,left,1976.69999999553,true,NA,NA,NA,NA,NA,NA,NA,NA
nKxgXMuB,3bawbgqgzoco8yjjw9p686v3rigv79,3634bbtx0s7yo5cj6nt16teilg4ifn,nKxgXMuB,2020-0188,2021-10-31,00:47:50,02:13:52,NA,incomplete,false,true,NA,NA,5,11,NA,black,m_s_070.jpg,NA,NA,NA,NA,NA,unpleasant,pleasant,NA,NA,NA,NA,NA,right,2595.39999999851,true,NA,NA,NA,NA,NA,NA,NA,NA
nKxgXMuB,3bawbgqgzoco8yjjw9p686v3rigv79,3634bbtx0s7yo5cj6nt16teilg4ifn,nKxgXMuB,2020-0188,2021-10-31,00:47:50,02:13:52,NA,incomplete,false,true,NA,NA,5,12,NA,purple,n_l_117.jpg,NA,NA,NA,NA,NA,pleasant,unpleasant,NA,NA,NA,NA,NA,left,2059,true,NA,NA,NA,NA,NA,NA,NA,NA
nKxgXMuB,3bawbgqgzoco8yjjw9p686v3rigv79,3634bbtx0s7yo5cj6nt16teilg4ifn,nKxgXMuB,2020-0188,2021-10-31,00:47:50,02:13:52,NA,incomplete,false,true,NA,NA,5,13,NA,purple,n_s_117.jpg,NA,NA,NA,NA,NA,unpleasant,pleasant,NA,NA,NA,NA,NA,right,1992.40000000596,true,NA,NA,NA,NA,NA,NA,NA,NA
nKxgXMuB,3bawbgqgzoco8yjjw9p686v3rigv79,3634bbtx0s7yo5cj6nt16teilg4ifn,nKxgXMuB,2020-0188,2021-10-31,00:47:50,02:13:52,NA,incomplete,false,true,NA,NA,5,14,NA,purple,m_s_024.jpg,NA,NA,NA,NA,NA,unpleasant,pleasant,NA,NA,NA,NA,NA,right,2648.20000000298,true,NA,NA,NA,NA,NA,NA,NA,NA
nKxgXMuB,3bawbgqgzoco8yjjw9p686v3rigv79,3634bbtx0s7yo5cj6nt16teilg4ifn,nKxgXMuB,2020-0188,2021-10-31,00:47:50,02:13:52,NA,incomplete,false,true,NA,NA,5,15,NA,purple,m_l_075.jpg,NA,NA,NA,NA,NA,pleasant,unpleasant,NA,NA,NA,NA,NA,left,1684.30000000447,true,NA,NA,NA,NA,NA,NA,NA,NA
nKxgXMuB,3bawbgqgzoco8yjjw9p686v3rigv79,3634bbtx0s7yo5cj6nt16teilg4ifn,nKxgXMuB,2020-0188,2021-10-31,00:47:50,02:13:52,NA,incomplete,false,true,NA,NA,5,16,NA,purple,n_s_020.jpg,NA,NA,NA,NA,NA,pleasant,unpleasant,NA,NA,NA,NA,NA,left,1091.70000000298,true,NA,NA,NA,NA,NA,NA,NA,NA
