workerId,hitId,assignmentId,subject,studyid,exp_date,exp_start,exp_end,time_start,time_end,practice,encoding,memory,association,block,trial,event_order,event,stim,answer,object,left_context,right_context,context_type,label_left,label_right,left_image,left_event,right_image,right_event,condition,response,response_time,response_acc,association_response_time,association_response,association_acc,order_response,order_response_time,order_acc,distance_response,distance_response_time
ua7whPr5,3fk4g712o0duz4m7qhicsa7sfszsso,36ahbnmv1vpngldsjzke4h5lzmmdyd,ua7whPr5,2020-0188,2021-10-30,23:35:42,01:23:54,NA,incomplete,true,true,NA,NA,0,0,NA,brown,n_l_052.jpg,NA,NA,NA,NA,NA,unpleasant,pleasant,NA,NA,NA,NA,NA,left,1608,true,NA,NA,NA,NA,NA,NA,NA,NA
ua7whPr5,3fk4g712o0duz4m7qhicsa7sfszsso,36ahbnmv1vpngldsjzke4h5lzmmdyd,ua7whPr5,2020-0188,2021-10-30,23:35:42,01:23:54,NA,incomplete,true,true,NA,NA,0,1,NA,brown,n_l_115.jpg,NA,NA,NA,NA,NA,unpleasant,pleasant,NA,NA,NA,NA,NA,right,2031.09999999963,true,NA,NA,NA,NA,NA,NA,NA,NA
ua7whPr5,3fk4g712o0duz4m7qhicsa7sfszsso,36ahbnmv1vpngldsjzke4h5lzmmdyd,ua7whPr5,2020-0188,2021-10-30,23:35:42,01:23:54,NA,incomplete,true,true,NA,NA,0,2,NA,brown,m_s_019.jpg,NA,NA,NA,NA,NA,unpleasant,pleasant,NA,NA,NA,NA,NA,left,1456.5,true,NA,NA,NA,NA,NA,NA,NA,NA
ua7whPr5,3fk4g712o0duz4m7qhicsa7sfszsso,36ahbnmv1vpngldsjzke4h5lzmmdyd,ua7whPr5,2020-0188,2021-10-30,23:35:42,01:23:54,NA,incomplete,true,true,NA,NA,0,3,NA,brown,n_l_011.jpg,NA,NA,NA,NA,NA,unpleasant,pleasant,NA,NA,NA,NA,NA,right,911.900000000373,true,NA,NA,NA,NA,NA,NA,NA,NA
ua7whPr5,3fk4g712o0duz4m7qhicsa7sfszsso,36ahbnmv1vpngldsjzke4h5lzmmdyd,ua7whPr5,2020-0188,2021-10-30,23:35:42,01:23:54,NA,incomplete,true,true,NA,NA,0,4,NA,brown,n_l_035.jpg,NA,NA,NA,NA,NA,pleasant,unpleasant,NA,NA,NA,NA,NA,right,1148.69999999925,true,NA,NA,NA,NA,NA,NA,NA,NA
ua7whPr5,3fk4g712o0duz4m7qhicsa7sfszsso,36ahbnmv1vpngldsjzke4h5lzmmdyd,ua7whPr5,2020-0188,2021-10-30,23:35:42,01:23:54,NA,incomplete,true,true,NA,NA,0,5,NA,brown,m_l_060.jpg,NA,NA,NA,NA,NA,pleasant,unpleasant,NA,NA,NA,NA,NA,right,1373.40000000037,true,NA,NA,NA,NA,NA,NA,NA,NA
ua7whPr5,3fk4g712o0duz4m7qhicsa7sfszsso,36ahbnmv1vpngldsjzke4h5lzmmdyd,ua7whPr5,2020-0188,2021-10-30,23:35:42,01:23:54,NA,incomplete,true,true,NA,NA,0,6,NA,yellow,n_l_043.jpg,NA,NA,NA,NA,NA,pleasant,unpleasant,NA,NA,NA,NA,NA,left,1777.90000000037,true,NA,NA,NA,NA,NA,NA,NA,NA
ua7whPr5,3fk4g712o0duz4m7qhicsa7sfszsso,36ahbnmv1vpngldsjzke4h5lzmmdyd,ua7whPr5,2020-0188,2021-10-30,23:35:42,01:23:54,NA,incomplete,true,true,NA,NA,0,7,NA,yellow,n_l_057.jpg,NA,NA,NA,NA,NA,unpleasant,pleasant,NA,NA,NA,NA,NA,left,1727.29999999981,true,NA,NA,NA,NA,NA,NA,NA,NA
ua7whPr5,3fk4g712o0duz4m7qhicsa7sfszsso,36ahbnmv1vpngldsjzke4h5lzmmdyd,ua7whPr5,2020-0188,2021-10-30,23:35:42,01:23:54,NA,incomplete,true,true,NA,NA,0,8,NA,yellow,m_s_073.jpg,NA,NA,NA,NA,NA,pleasant,unpleasant,NA,NA,NA,NA,NA,left,1484.80000000075,true,NA,NA,NA,NA,NA,NA,NA,NA
ua7whPr5,3fk4g712o0duz4m7qhicsa7sfszsso,36ahbnmv1vpngldsjzke4h5lzmmdyd,ua7whPr5,2020-0188,2021-10-30,23:35:42,01:23:54,NA,incomplete,true,true,NA,NA,0,9,NA,yellow,n_l_054.jpg,NA,NA,NA,NA,NA,pleasant,unpleasant,NA,NA,NA,NA,NA,right,1584.20000000019,true,NA,NA,NA,NA,NA,NA,NA,NA
ua7whPr5,3fk4g712o0duz4m7qhicsa7sfszsso,36ahbnmv1vpngldsjzke4h5lzmmdyd,ua7whPr5,2020-0188,2021-10-30,23:35:42,01:23:54,NA,incomplete,true,true,NA,NA,0,10,NA,yellow,n_l_006.jpg,NA,NA,NA,NA,NA,unpleasant,pleasant,NA,NA,NA,NA,NA,left,1466.5,true,NA,NA,NA,NA,NA,NA,NA,NA
ua7whPr5,3fk4g712o0duz4m7qhicsa7sfszsso,36ahbnmv1vpngldsjzke4h5lzmmdyd,ua7whPr5,2020-0188,2021-10-30,23:35:42,01:23:54,NA,incomplete,true,true,NA,NA,0,11,NA,yellow,n_s_020.jpg,NA,NA,NA,NA,NA,unpleasant,pleasant,NA,NA,NA,NA,NA,left,1782.89999999944,true,NA,NA,NA,NA,NA,NA,NA,NA
ua7whPr5,3fk4g712o0duz4m7qhicsa7sfszsso,36ahbnmv1vpngldsjzke4h5lzmmdyd,ua7whPr5,2020-0188,2021-10-30,23:35:42,01:23:54,NA,incomplete,true,true,NA,NA,0,12,NA,red,n_l_048.jpg,NA,NA,NA,NA,NA,pleasant,unpleasant,NA,NA,NA,NA,NA,right,2108.10000000056,true,NA,NA,NA,NA,NA,NA,NA,NA
ua7whPr5,3fk4g712o0duz4m7qhicsa7sfszsso,36ahbnmv1vpngldsjzke4h5lzmmdyd,ua7whPr5,2020-0188,2021-10-30,23:35:42,01:23:54,NA,incomplete,true,true,NA,NA,0,13,NA,red,m_s_091.jpg,NA,NA,NA,NA,NA,pleasant,unpleasant,NA,NA,NA,NA,NA,left,2086.40000000037,true,NA,NA,NA,NA,NA,NA,NA,NA
ua7whPr5,3fk4g712o0duz4m7qhicsa7sfszsso,36ahbnmv1vpngldsjzke4h5lzmmdyd,ua7whPr5,2020-0188,2021-10-30,23:35:42,01:23:54,NA,incomplete,true,true,NA,NA,0,14,NA,red,m_l_037.jpg,NA,NA,NA,NA,NA,pleasant,unpleasant,NA,NA,NA,NA,NA,left,1580,true,NA,NA,NA,NA,NA,NA,NA,NA
ua7whPr5,3fk4g712o0duz4m7qhicsa7sfszsso,36ahbnmv1vpngldsjzke4h5lzmmdyd,ua7whPr5,2020-0188,2021-10-30,23:35:42,01:23:54,NA,incomplete,true,true,NA,NA,0,15,NA,red,m_l_095.jpg,NA,NA,NA,NA,NA,pleasant,unpleasant,NA,NA,NA,NA,NA,right,1444.20000000019,true,NA,NA,NA,NA,NA,NA,NA,NA
ua7whPr5,3fk4g712o0duz4m7qhicsa7sfszsso,36ahbnmv1vpngldsjzke4h5lzmmdyd,ua7whPr5,2020-0188,2021-10-30,23:35:42,01:23:54,NA,incomplete,true,true,NA,NA,0,16,NA,red,n_l_058.jpg,NA,NA,NA,NA,NA,pleasant,unpleasant,NA,NA,NA,NA,NA,right,1453.5,true,NA,NA,NA,NA,NA,NA,NA,NA
ua7whPr5,3fk4g712o0duz4m7qhicsa7sfszsso,36ahbnmv1vpngldsjzke4h5lzmmdyd,ua7whPr5,2020-0188,2021-10-30,23:35:42,01:23:54,NA,incomplete,true,true,NA,NA,0,17,NA,red,m_l_030.jpg,NA,NA,NA,NA,NA,unpleasant,pleasant,NA,NA,NA,NA,NA,right,1768.10000000056,true,NA,NA,NA,NA,NA,NA,NA,NA
ua7whPr5,3fk4g712o0duz4m7qhicsa7sfszsso,36ahbnmv1vpngldsjzke4h5lzmmdyd,ua7whPr5,2020-0188,2021-10-30,23:35:42,01:23:54,NA,incomplete,true,true,NA,NA,0,18,NA,gray,n_s_002.jpg,NA,NA,NA,NA,NA,pleasant,unpleasant,NA,NA,NA,NA,NA,right,2089.5,true,NA,NA,NA,NA,NA,NA,NA,NA
ua7whPr5,3fk4g712o0duz4m7qhicsa7sfszsso,36ahbnmv1vpngldsjzke4h5lzmmdyd,ua7whPr5,2020-0188,2021-10-30,23:35:42,01:23:54,NA,incomplete,true,true,NA,NA,0,19,NA,gray,n_s_104.jpg,NA,NA,NA,NA,NA,unpleasant,pleasant,NA,NA,NA,NA,NA,left,1475.09999999963,true,NA,NA,NA,NA,NA,NA,NA,NA
ua7whPr5,3fk4g712o0duz4m7qhicsa7sfszsso,36ahbnmv1vpngldsjzke4h5lzmmdyd,ua7whPr5,2020-0188,2021-10-30,23:35:42,01:23:54,NA,incomplete,true,true,NA,NA,0,20,NA,gray,m_s_048.jpg,NA,NA,NA,NA,NA,pleasant,unpleasant,NA,NA,NA,NA,NA,left,1675.89999999944,true,NA,NA,NA,NA,NA,NA,NA,NA
ua7whPr5,3fk4g712o0duz4m7qhicsa7sfszsso,36ahbnmv1vpngldsjzke4h5lzmmdyd,ua7whPr5,2020-0188,2021-10-30,23:35:42,01:23:54,NA,incomplete,true,true,NA,NA,0,21,NA,gray,m_l_099.jpg,NA,NA,NA,NA,NA,pleasant,unpleasant,NA,NA,NA,NA,NA,right,1594.59999999963,true,NA,NA,NA,NA,NA,NA,NA,NA
ua7whPr5,3fk4g712o0duz4m7qhicsa7sfszsso,36ahbnmv1vpngldsjzke4h5lzmmdyd,ua7whPr5,2020-0188,2021-10-30,23:35:42,01:23:54,NA,incomplete,true,true,NA,NA,0,22,NA,gray,m_l_041.jpg,NA,NA,NA,NA,NA,unpleasant,pleasant,NA,NA,NA,NA,NA,right,2511.40000000037,true,NA,NA,NA,NA,NA,NA,NA,NA
ua7whPr5,3fk4g712o0duz4m7qhicsa7sfszsso,36ahbnmv1vpngldsjzke4h5lzmmdyd,ua7whPr5,2020-0188,2021-10-30,23:35:42,01:23:54,NA,incomplete,true,true,NA,NA,0,23,NA,gray,n_l_040.jpg,NA,NA,NA,NA,NA,unpleasant,pleasant,NA,NA,NA,NA,NA,left,1251.19999999925,true,NA,NA,NA,NA,NA,NA,NA,NA
ua7whPr5,3fk4g712o0duz4m7qhicsa7sfszsso,36ahbnmv1vpngldsjzke4h5lzmmdyd,ua7whPr5,2020-0188,2021-10-30,23:35:42,01:23:54,NA,incomplete,true,true,NA,NA,0,24,NA,green,n_s_024.jpg,NA,NA,NA,NA,NA,pleasant,unpleasant,NA,NA,NA,NA,NA,right,2124.80000000075,true,NA,NA,NA,NA,NA,NA,NA,NA
ua7whPr5,3fk4g712o0duz4m7qhicsa7sfszsso,36ahbnmv1vpngldsjzke4h5lzmmdyd,ua7whPr5,2020-0188,2021-10-30,23:35:42,01:23:54,NA,incomplete,true,true,NA,NA,0,25,NA,green,n_s_114.jpg,NA,NA,NA,NA,NA,pleasant,unpleasant,NA,NA,NA,NA,NA,left,1950.09999999963,true,NA,NA,NA,NA,NA,NA,NA,NA
ua7whPr5,3fk4g712o0duz4m7qhicsa7sfszsso,36ahbnmv1vpngldsjzke4h5lzmmdyd,ua7whPr5,2020-0188,2021-10-30,23:35:42,01:23:54,NA,incomplete,true,true,NA,NA,0,26,NA,green,n_l_037.jpg,NA,NA,NA,NA,NA,unpleasant,pleasant,NA,NA,NA,NA,NA,right,1257.09999999963,true,NA,NA,NA,NA,NA,NA,NA,NA
ua7whPr5,3fk4g712o0duz4m7qhicsa7sfszsso,36ahbnmv1vpngldsjzke4h5lzmmdyd,ua7whPr5,2020-0188,2021-10-30,23:35:42,01:23:54,NA,incomplete,true,true,NA,NA,0,27,NA,green,m_l_007.jpg,NA,NA,NA,NA,NA,unpleasant,pleasant,NA,NA,NA,NA,NA,right,1714.29999999981,true,NA,NA,NA,NA,NA,NA,NA,NA
ua7whPr5,3fk4g712o0duz4m7qhicsa7sfszsso,36ahbnmv1vpngldsjzke4h5lzmmdyd,ua7whPr5,2020-0188,2021-10-30,23:35:42,01:23:54,NA,incomplete,true,true,NA,NA,0,28,NA,green,n_l_041.jpg,NA,NA,NA,NA,NA,pleasant,unpleasant,NA,NA,NA,NA,NA,right,1615.79999999981,true,NA,NA,NA,NA,NA,NA,NA,NA
ua7whPr5,3fk4g712o0duz4m7qhicsa7sfszsso,36ahbnmv1vpngldsjzke4h5lzmmdyd,ua7whPr5,2020-0188,2021-10-30,23:35:42,01:23:54,NA,incomplete,true,true,NA,NA,0,29,NA,green,m_l_062.jpg,NA,NA,NA,NA,NA,unpleasant,pleasant,NA,NA,NA,NA,NA,right,1180.29999999981,true,NA,NA,NA,NA,NA,NA,NA,NA
ua7whPr5,3fk4g712o0duz4m7qhicsa7sfszsso,36ahbnmv1vpngldsjzke4h5lzmmdyd,ua7whPr5,2020-0188,2021-10-30,23:35:42,01:23:54,NA,incomplete,true,true,NA,NA,0,30,NA,black,n_l_017.jpg,NA,NA,NA,NA,NA,pleasant,unpleasant,NA,NA,NA,NA,NA,left,1927.29999999981,true,NA,NA,NA,NA,NA,NA,NA,NA
ua7whPr5,3fk4g712o0duz4m7qhicsa7sfszsso,36ahbnmv1vpngldsjzke4h5lzmmdyd,ua7whPr5,2020-0188,2021-10-30,23:35:42,01:23:54,NA,incomplete,true,true,NA,NA,0,31,NA,black,n_l_051.jpg,NA,NA,NA,NA,NA,unpleasant,pleasant,NA,NA,NA,NA,NA,left,1369.70000000019,true,NA,NA,NA,NA,NA,NA,NA,NA
ua7whPr5,3fk4g712o0duz4m7qhicsa7sfszsso,36ahbnmv1vpngldsjzke4h5lzmmdyd,ua7whPr5,2020-0188,2021-10-30,23:35:42,01:23:54,NA,incomplete,true,true,NA,NA,0,32,NA,black,m_s_104.jpg,NA,NA,NA,NA,NA,pleasant,unpleasant,NA,NA,NA,NA,NA,left,1326.10000000056,true,NA,NA,NA,NA,NA,NA,NA,NA
ua7whPr5,3fk4g712o0duz4m7qhicsa7sfszsso,36ahbnmv1vpngldsjzke4h5lzmmdyd,ua7whPr5,2020-0188,2021-10-30,23:35:42,01:23:54,NA,incomplete,true,true,NA,NA,0,33,NA,black,n_l_071.jpg,NA,NA,NA,NA,NA,pleasant,unpleasant,NA,NA,NA,NA,NA,right,1032.39999999944,true,NA,NA,NA,NA,NA,NA,NA,NA
ua7whPr5,3fk4g712o0duz4m7qhicsa7sfszsso,36ahbnmv1vpngldsjzke4h5lzmmdyd,ua7whPr5,2020-0188,2021-10-30,23:35:42,01:23:54,NA,incomplete,true,true,NA,NA,0,34,NA,black,n_l_085.jpg,NA,NA,NA,NA,NA,unpleasant,pleasant,NA,NA,NA,NA,NA,left,1487.89999999944,true,NA,NA,NA,NA,NA,NA,NA,NA
ua7whPr5,3fk4g712o0duz4m7qhicsa7sfszsso,36ahbnmv1vpngldsjzke4h5lzmmdyd,ua7whPr5,2020-0188,2021-10-30,23:35:42,01:23:54,NA,incomplete,true,true,NA,NA,0,35,NA,black,m_s_079.jpg,NA,NA,NA,NA,NA,unpleasant,pleasant,NA,NA,NA,NA,NA,right,1826.70000000019,true,NA,NA,NA,NA,NA,NA,NA,NA
ua7whPr5,3fk4g712o0duz4m7qhicsa7sfszsso,36ahbnmv1vpngldsjzke4h5lzmmdyd,ua7whPr5,2020-0188,2021-10-30,23:35:42,01:23:54,NA,incomplete,true,NA,NA,true,0,0,NA,NA,NA,left,n_l_006.jpg,yellow,brown,NA,NA,NA,NA,NA,NA,NA,NA,NA,NaN,NA,2269.4000000003725,left,1,NA,NA,NA,NA,NA
ua7whPr5,3fk4g712o0duz4m7qhicsa7sfszsso,36ahbnmv1vpngldsjzke4h5lzmmdyd,ua7whPr5,2020-0188,2021-10-30,23:35:42,01:23:54,NA,incomplete,true,NA,NA,true,0,1,NA,NA,NA,left,n_l_040.jpg,gray,green,NA,NA,NA,NA,NA,NA,NA,NA,NA,NaN,NA,3127.7999999998137,left,1,NA,NA,NA,NA,NA
ua7whPr5,3fk4g712o0duz4m7qhicsa7sfszsso,36ahbnmv1vpngldsjzke4h5lzmmdyd,ua7whPr5,2020-0188,2021-10-30,23:35:42,01:23:54,NA,incomplete,true,NA,NA,true,0,2,NA,NA,NA,left,n_l_057.jpg,yellow,brown,NA,NA,NA,NA,NA,NA,NA,NA,NA,NaN,NA,4964.5,left,1,NA,NA,NA,NA,NA
ua7whPr5,3fk4g712o0duz4m7qhicsa7sfszsso,36ahbnmv1vpngldsjzke4h5lzmmdyd,ua7whPr5,2020-0188,2021-10-30,23:35:42,01:23:54,NA,incomplete,true,NA,NA,true,0,3,NA,NA,NA,left,n_l_115.jpg,brown,yellow,NA,NA,NA,NA,NA,NA,NA,NA,NA,NaN,NA,2084.899999999441,left,1,NA,NA,NA,NA,NA
ua7whPr5,3fk4g712o0duz4m7qhicsa7sfszsso,36ahbnmv1vpngldsjzke4h5lzmmdyd,ua7whPr5,2020-0188,2021-10-30,23:35:42,01:23:54,NA,incomplete,true,NA,NA,true,0,4,NA,NA,NA,right,m_l_037.jpg,gray,red,NA,NA,NA,NA,NA,NA,NA,NA,NA,NaN,NA,1639.2999999998137,right,1,NA,NA,NA,NA,NA
ua7whPr5,3fk4g712o0duz4m7qhicsa7sfszsso,36ahbnmv1vpngldsjzke4h5lzmmdyd,ua7whPr5,2020-0188,2021-10-30,23:35:42,01:23:54,NA,incomplete,true,NA,NA,true,0,5,NA,NA,NA,right,n_s_020.jpg,red,yellow,NA,NA,NA,NA,NA,NA,NA,NA,NA,NaN,NA,1560.5999999996275,right,1,NA,NA,NA,NA,NA
ua7whPr5,3fk4g712o0duz4m7qhicsa7sfszsso,36ahbnmv1vpngldsjzke4h5lzmmdyd,ua7whPr5,2020-0188,2021-10-30,23:35:42,01:23:54,NA,incomplete,true,NA,NA,true,0,6,NA,NA,NA,left,n_l_037.jpg,green,black,NA,NA,NA,NA,NA,NA,NA,NA,NA,NaN,NA,1413.2000000001863,left,1,NA,NA,NA,NA,NA
ua7whPr5,3fk4g712o0duz4m7qhicsa7sfszsso,36ahbnmv1vpngldsjzke4h5lzmmdyd,ua7whPr5,2020-0188,2021-10-30,23:35:42,01:23:54,NA,incomplete,true,NA,NA,true,0,7,NA,NA,NA,left,m_s_104.jpg,black,green,NA,NA,NA,NA,NA,NA,NA,NA,NA,NaN,NA,1685,left,1,NA,NA,NA,NA,NA
ua7whPr5,3fk4g712o0duz4m7qhicsa7sfszsso,36ahbnmv1vpngldsjzke4h5lzmmdyd,ua7whPr5,2020-0188,2021-10-30,23:35:42,01:23:54,NA,incomplete,true,NA,NA,true,0,8,NA,NA,NA,right,m_l_041.jpg,green,gray,NA,NA,NA,NA,NA,NA,NA,NA,NA,NaN,NA,1427,right,1,NA,NA,NA,NA,NA
ua7whPr5,3fk4g712o0duz4m7qhicsa7sfszsso,36ahbnmv1vpngldsjzke4h5lzmmdyd,ua7whPr5,2020-0188,2021-10-30,23:35:42,01:23:54,NA,incomplete,true,NA,NA,true,0,9,NA,NA,NA,left,n_l_058.jpg,red,yellow,NA,NA,NA,NA,NA,NA,NA,NA,NA,NaN,NA,1420.4000000003725,left,1,NA,NA,NA,NA,NA
ua7whPr5,3fk4g712o0duz4m7qhicsa7sfszsso,36ahbnmv1vpngldsjzke4h5lzmmdyd,ua7whPr5,2020-0188,2021-10-30,23:35:42,01:23:54,NA,incomplete,true,NA,NA,true,0,10,NA,NA,NA,right,m_l_062.jpg,black,green,NA,NA,NA,NA,NA,NA,NA,NA,NA,NaN,NA,1133.3999999994412,right,1,NA,NA,NA,NA,NA
ua7whPr5,3fk4g712o0duz4m7qhicsa7sfszsso,36ahbnmv1vpngldsjzke4h5lzmmdyd,ua7whPr5,2020-0188,2021-10-30,23:35:42,01:23:54,NA,incomplete,true,NA,NA,true,0,11,NA,NA,NA,right,m_s_079.jpg,green,black,NA,NA,NA,NA,NA,NA,NA,NA,NA,NaN,NA,1114.800000000745,right,1,NA,NA,NA,NA,NA
ua7whPr5,3fk4g712o0duz4m7qhicsa7sfszsso,36ahbnmv1vpngldsjzke4h5lzmmdyd,ua7whPr5,2020-0188,2021-10-30,23:35:42,01:23:54,NA,incomplete,true,NA,NA,true,0,12,NA,NA,NA,left,n_s_104.jpg,gray,red,NA,NA,NA,NA,NA,NA,NA,NA,NA,NaN,NA,1539.5,left,1,NA,NA,NA,NA,NA
ua7whPr5,3fk4g712o0duz4m7qhicsa7sfszsso,36ahbnmv1vpngldsjzke4h5lzmmdyd,ua7whPr5,2020-0188,2021-10-30,23:35:42,01:23:54,NA,incomplete,true,NA,NA,true,0,13,NA,NA,NA,right,m_l_060.jpg,yellow,brown,NA,NA,NA,NA,NA,NA,NA,NA,NA,NaN,NA,1865.2999999998137,right,1,NA,NA,NA,NA,NA
ua7whPr5,3fk4g712o0duz4m7qhicsa7sfszsso,36ahbnmv1vpngldsjzke4h5lzmmdyd,ua7whPr5,2020-0188,2021-10-30,23:35:42,01:23:54,NA,incomplete,true,NA,NA,true,0,14,NA,NA,NA,left,n_l_041.jpg,green,black,NA,NA,NA,NA,NA,NA,NA,NA,NA,NaN,NA,1568.7999999998137,left,1,NA,NA,NA,NA,NA
ua7whPr5,3fk4g712o0duz4m7qhicsa7sfszsso,36ahbnmv1vpngldsjzke4h5lzmmdyd,ua7whPr5,2020-0188,2021-10-30,23:35:42,01:23:54,NA,incomplete,true,NA,NA,true,0,15,NA,NA,NA,left,n_l_035.jpg,brown,yellow,NA,NA,NA,NA,NA,NA,NA,NA,NA,NaN,NA,4939.800000000745,right,0,NA,NA,NA,NA,NA
ua7whPr5,3fk4g712o0duz4m7qhicsa7sfszsso,36ahbnmv1vpngldsjzke4h5lzmmdyd,ua7whPr5,2020-0188,2021-10-30,23:35:42,01:23:54,NA,incomplete,true,NA,NA,true,0,16,NA,NA,NA,left,m_l_030.jpg,red,yellow,NA,NA,NA,NA,NA,NA,NA,NA,NA,NaN,NA,1598.2000000001863,left,1,NA,NA,NA,NA,NA
ua7whPr5,3fk4g712o0duz4m7qhicsa7sfszsso,36ahbnmv1vpngldsjzke4h5lzmmdyd,ua7whPr5,2020-0188,2021-10-30,23:35:42,01:23:54,NA,incomplete,true,NA,NA,true,0,17,NA,NA,NA,right,m_s_048.jpg,red,gray,NA,NA,NA,NA,NA,NA,NA,NA,NA,NaN,NA,1195.0999999996275,right,1,NA,NA,NA,NA,NA
ua7whPr5,3fk4g712o0duz4m7qhicsa7sfszsso,36ahbnmv1vpngldsjzke4h5lzmmdyd,ua7whPr5,2020-0188,2021-10-30,23:35:42,01:23:54,NA,incomplete,true,NA,NA,true,0,18,NA,NA,NA,right,n_l_051.jpg,green,black,NA,NA,NA,NA,NA,NA,NA,NA,NA,NaN,NA,2567.5,right,1,NA,NA,NA,NA,NA
ua7whPr5,3fk4g712o0duz4m7qhicsa7sfszsso,36ahbnmv1vpngldsjzke4h5lzmmdyd,ua7whPr5,2020-0188,2021-10-30,23:35:42,01:23:54,NA,incomplete,true,NA,NA,true,0,19,NA,NA,NA,right,m_s_073.jpg,brown,yellow,NA,NA,NA,NA,NA,NA,NA,NA,NA,NaN,NA,1291.7999999998137,right,1,NA,NA,NA,NA,NA
ua7whPr5,3fk4g712o0duz4m7qhicsa7sfszsso,36ahbnmv1vpngldsjzke4h5lzmmdyd,ua7whPr5,2020-0188,2021-10-30,23:35:42,01:23:54,NA,incomplete,true,NA,NA,true,0,20,NA,NA,NA,right,n_s_114.jpg,black,green,NA,NA,NA,NA,NA,NA,NA,NA,NA,NaN,NA,1382.3999999994412,right,1,NA,NA,NA,NA,NA
ua7whPr5,3fk4g712o0duz4m7qhicsa7sfszsso,36ahbnmv1vpngldsjzke4h5lzmmdyd,ua7whPr5,2020-0188,2021-10-30,23:35:42,01:23:54,NA,incomplete,true,NA,NA,true,0,21,NA,NA,NA,right,m_s_091.jpg,gray,red,NA,NA,NA,NA,NA,NA,NA,NA,NA,NaN,NA,1545.7000000001863,right,1,NA,NA,NA,NA,NA
ua7whPr5,3fk4g712o0duz4m7qhicsa7sfszsso,36ahbnmv1vpngldsjzke4h5lzmmdyd,ua7whPr5,2020-0188,2021-10-30,23:35:42,01:23:54,NA,incomplete,true,NA,true,NA,0,0,NA,NA,NA,left,NA,NA,NA,present,NA,NA,n_l_057.jpg,yellow,n_s_020.jpg,yellow,within,NA,NaN,NA,NA,NA,NA,left,3950.199999999255,1,1,4317.700000000186
ua7whPr5,3fk4g712o0duz4m7qhicsa7sfszsso,36ahbnmv1vpngldsjzke4h5lzmmdyd,ua7whPr5,2020-0188,2021-10-30,23:35:42,01:23:54,NA,incomplete,true,NA,true,NA,0,1,NA,NA,NA,right,NA,NA,NA,present,NA,NA,m_s_104.jpg,black,n_l_041.jpg,green,between,NA,NaN,NA,NA,NA,NA,right,1821.2999999998137,1,2,2075.5
ua7whPr5,3fk4g712o0duz4m7qhicsa7sfszsso,36ahbnmv1vpngldsjzke4h5lzmmdyd,ua7whPr5,2020-0188,2021-10-30,23:35:42,01:23:54,NA,incomplete,true,NA,true,NA,0,2,NA,NA,NA,right,NA,NA,NA,present,NA,NA,m_l_062.jpg,green,n_s_114.jpg,green,within,NA,NaN,NA,NA,NA,NA,right,5346.899999999441,1,0,809.6000000005588
ua7whPr5,3fk4g712o0duz4m7qhicsa7sfszsso,36ahbnmv1vpngldsjzke4h5lzmmdyd,ua7whPr5,2020-0188,2021-10-30,23:35:42,01:23:54,NA,incomplete,true,NA,true,NA,0,3,NA,NA,NA,right,NA,NA,NA,present,NA,NA,m_s_048.jpg,gray,n_l_058.jpg,red,between,NA,NaN,NA,NA,NA,NA,right,4736.799999999814,1,3,1881.3999999994412
ua7whPr5,3fk4g712o0duz4m7qhicsa7sfszsso,36ahbnmv1vpngldsjzke4h5lzmmdyd,ua7whPr5,2020-0188,2021-10-30,23:35:42,01:23:54,NA,incomplete,true,NA,true,NA,0,4,NA,NA,NA,left,NA,NA,NA,present,NA,NA,n_s_104.jpg,gray,n_l_040.jpg,gray,within,NA,NaN,NA,NA,NA,NA,left,4163.799999999814,1,0,1347.2000000001863
ua7whPr5,3fk4g712o0duz4m7qhicsa7sfszsso,36ahbnmv1vpngldsjzke4h5lzmmdyd,ua7whPr5,2020-0188,2021-10-30,23:35:42,01:23:54,NA,incomplete,true,NA,true,NA,0,5,NA,NA,NA,right,NA,NA,NA,present,NA,NA,m_s_073.jpg,yellow,n_l_035.jpg,brown,between,NA,NaN,NA,NA,NA,NA,right,3033.0999999996275,1,3,1563.2000000001863
ua7whPr5,3fk4g712o0duz4m7qhicsa7sfszsso,36ahbnmv1vpngldsjzke4h5lzmmdyd,ua7whPr5,2020-0188,2021-10-30,23:35:42,01:23:54,NA,incomplete,true,NA,true,NA,0,6,NA,NA,NA,right,NA,NA,NA,present,NA,NA,m_s_079.jpg,black,n_l_051.jpg,black,within,NA,NaN,NA,NA,NA,NA,left,2675.5,0,0,1615.2000000001863
ua7whPr5,3fk4g712o0duz4m7qhicsa7sfszsso,36ahbnmv1vpngldsjzke4h5lzmmdyd,ua7whPr5,2020-0188,2021-10-30,23:35:42,01:23:54,NA,incomplete,true,NA,true,NA,0,7,NA,NA,NA,left,NA,NA,NA,present,NA,NA,n_l_006.jpg,yellow,m_l_037.jpg,red,between,NA,NaN,NA,NA,NA,NA,left,3010.399999999441,1,2,1520.9000000003725
ua7whPr5,3fk4g712o0duz4m7qhicsa7sfszsso,36ahbnmv1vpngldsjzke4h5lzmmdyd,ua7whPr5,2020-0188,2021-10-30,23:35:42,01:23:54,NA,incomplete,true,NA,true,NA,0,8,NA,NA,NA,left,NA,NA,NA,present,NA,NA,n_l_115.jpg,brown,m_l_060.jpg,brown,within,NA,NaN,NA,NA,NA,NA,left,3859.2000000001863,1,0,1957.3999999994412
ua7whPr5,3fk4g712o0duz4m7qhicsa7sfszsso,36ahbnmv1vpngldsjzke4h5lzmmdyd,ua7whPr5,2020-0188,2021-10-30,23:35:42,01:23:54,NA,incomplete,true,NA,true,NA,0,9,NA,NA,NA,right,NA,NA,NA,present,NA,NA,m_l_030.jpg,red,m_s_091.jpg,red,within,NA,NaN,NA,NA,NA,NA,right,3656,1,0,979.6000000005588
ua7whPr5,3fk4g712o0duz4m7qhicsa7sfszsso,36ahbnmv1vpngldsjzke4h5lzmmdyd,ua7whPr5,2020-0188,2021-10-30,23:35:42,01:23:54,NA,incomplete,true,NA,true,NA,0,10,NA,NA,NA,left,NA,NA,NA,present,NA,NA,m_l_041.jpg,gray,n_l_037.jpg,green,between,NA,NaN,NA,NA,NA,NA,left,5829.399999999441,1,3,1330.8999999994412
ua7whPr5,3fk4g712o0duz4m7qhicsa7sfszsso,36ahbnmv1vpngldsjzke4h5lzmmdyd,ua7whPr5,2020-0188,2021-10-30,23:35:42,01:23:54,NA,incomplete,false,true,NA,NA,1,0,NA,black,m_s_020.jpg,NA,NA,NA,NA,NA,unpleasant,pleasant,NA,NA,NA,NA,NA,right,2014.40000000037,true,NA,NA,NA,NA,NA,NA,NA,NA
ua7whPr5,3fk4g712o0duz4m7qhicsa7sfszsso,36ahbnmv1vpngldsjzke4h5lzmmdyd,ua7whPr5,2020-0188,2021-10-30,23:35:42,01:23:54,NA,incomplete,false,true,NA,NA,1,1,NA,black,n_l_064.jpg,NA,NA,NA,NA,NA,unpleasant,pleasant,NA,NA,NA,NA,NA,right,1462.79999999981,true,NA,NA,NA,NA,NA,NA,NA,NA
ua7whPr5,3fk4g712o0duz4m7qhicsa7sfszsso,36ahbnmv1vpngldsjzke4h5lzmmdyd,ua7whPr5,2020-0188,2021-10-30,23:35:42,01:23:54,NA,incomplete,false,true,NA,NA,1,2,NA,black,m_s_106.jpg,NA,NA,NA,NA,NA,pleasant,unpleasant,NA,NA,NA,NA,NA,right,1891.5,true,NA,NA,NA,NA,NA,NA,NA,NA
ua7whPr5,3fk4g712o0duz4m7qhicsa7sfszsso,36ahbnmv1vpngldsjzke4h5lzmmdyd,ua7whPr5,2020-0188,2021-10-30,23:35:42,01:23:54,NA,incomplete,false,true,NA,NA,1,3,NA,black,m_s_047.jpg,NA,NA,NA,NA,NA,unpleasant,pleasant,NA,NA,NA,NA,NA,right,1721.5,true,NA,NA,NA,NA,NA,NA,NA,NA
ua7whPr5,3fk4g712o0duz4m7qhicsa7sfszsso,36ahbnmv1vpngldsjzke4h5lzmmdyd,ua7whPr5,2020-0188,2021-10-30,23:35:42,01:23:54,NA,incomplete,false,true,NA,NA,1,4,NA,black,m_l_091.jpg,NA,NA,NA,NA,NA,unpleasant,pleasant,NA,NA,NA,NA,NA,left,2273.39999999944,true,NA,NA,NA,NA,NA,NA,NA,NA
ua7whPr5,3fk4g712o0duz4m7qhicsa7sfszsso,36ahbnmv1vpngldsjzke4h5lzmmdyd,ua7whPr5,2020-0188,2021-10-30,23:35:42,01:23:54,NA,incomplete,false,true,NA,NA,1,5,NA,black,m_s_034.jpg,NA,NA,NA,NA,NA,unpleasant,pleasant,NA,NA,NA,NA,NA,right,1637.09999999963,true,NA,NA,NA,NA,NA,NA,NA,NA
ua7whPr5,3fk4g712o0duz4m7qhicsa7sfszsso,36ahbnmv1vpngldsjzke4h5lzmmdyd,ua7whPr5,2020-0188,2021-10-30,23:35:42,01:23:54,NA,incomplete,false,true,NA,NA,1,6,NA,orange,m_l_003.jpg,NA,NA,NA,NA,NA,pleasant,unpleasant,NA,NA,NA,NA,NA,left,1381.20000000019,true,NA,NA,NA,NA,NA,NA,NA,NA
ua7whPr5,3fk4g712o0duz4m7qhicsa7sfszsso,36ahbnmv1vpngldsjzke4h5lzmmdyd,ua7whPr5,2020-0188,2021-10-30,23:35:42,01:23:54,NA,incomplete,false,true,NA,NA,1,7,NA,orange,m_l_031.jpg,NA,NA,NA,NA,NA,unpleasant,pleasant,NA,NA,NA,NA,NA,right,2845.79999999981,true,NA,NA,NA,NA,NA,NA,NA,NA
ua7whPr5,3fk4g712o0duz4m7qhicsa7sfszsso,36ahbnmv1vpngldsjzke4h5lzmmdyd,ua7whPr5,2020-0188,2021-10-30,23:35:42,01:23:54,NA,incomplete,false,true,NA,NA,1,8,NA,orange,n_l_114.jpg,NA,NA,NA,NA,NA,pleasant,unpleasant,NA,NA,NA,NA,NA,left,1226.29999999981,true,NA,NA,NA,NA,NA,NA,NA,NA
ua7whPr5,3fk4g712o0duz4m7qhicsa7sfszsso,36ahbnmv1vpngldsjzke4h5lzmmdyd,ua7whPr5,2020-0188,2021-10-30,23:35:42,01:23:54,NA,incomplete,false,true,NA,NA,1,9,NA,orange,n_l_070.jpg,NA,NA,NA,NA,NA,unpleasant,pleasant,NA,NA,NA,NA,NA,right,1736.29999999981,true,NA,NA,NA,NA,NA,NA,NA,NA
ua7whPr5,3fk4g712o0duz4m7qhicsa7sfszsso,36ahbnmv1vpngldsjzke4h5lzmmdyd,ua7whPr5,2020-0188,2021-10-30,23:35:42,01:23:54,NA,incomplete,false,true,NA,NA,1,10,NA,orange,n_s_005.jpg,NA,NA,NA,NA,NA,pleasant,unpleasant,NA,NA,NA,NA,NA,left,1247.79999999981,true,NA,NA,NA,NA,NA,NA,NA,NA
ua7whPr5,3fk4g712o0duz4m7qhicsa7sfszsso,36ahbnmv1vpngldsjzke4h5lzmmdyd,ua7whPr5,2020-0188,2021-10-30,23:35:42,01:23:54,NA,incomplete,false,true,NA,NA,1,11,NA,orange,n_s_092.jpg,NA,NA,NA,NA,NA,pleasant,unpleasant,NA,NA,NA,NA,NA,left,1248.79999999981,true,NA,NA,NA,NA,NA,NA,NA,NA
ua7whPr5,3fk4g712o0duz4m7qhicsa7sfszsso,36ahbnmv1vpngldsjzke4h5lzmmdyd,ua7whPr5,2020-0188,2021-10-30,23:35:42,01:23:54,NA,incomplete,false,true,NA,NA,1,12,NA,yellow,m_s_018.jpg,NA,NA,NA,NA,NA,pleasant,unpleasant,NA,NA,NA,NA,NA,right,2647.20000000019,true,NA,NA,NA,NA,NA,NA,NA,NA
ua7whPr5,3fk4g712o0duz4m7qhicsa7sfszsso,36ahbnmv1vpngldsjzke4h5lzmmdyd,ua7whPr5,2020-0188,2021-10-30,23:35:42,01:23:54,NA,incomplete,false,true,NA,NA,1,13,NA,yellow,m_l_049.jpg,NA,NA,NA,NA,NA,unpleasant,pleasant,NA,NA,NA,NA,NA,right,1666.79999999981,true,NA,NA,NA,NA,NA,NA,NA,NA
ua7whPr5,3fk4g712o0duz4m7qhicsa7sfszsso,36ahbnmv1vpngldsjzke4h5lzmmdyd,ua7whPr5,2020-0188,2021-10-30,23:35:42,01:23:54,NA,incomplete,false,true,NA,NA,1,14,NA,yellow,n_s_004.jpg,NA,NA,NA,NA,NA,pleasant,unpleasant,NA,NA,NA,NA,NA,right,1946.5,true,NA,NA,NA,NA,NA,NA,NA,NA
ua7whPr5,3fk4g712o0duz4m7qhicsa7sfszsso,36ahbnmv1vpngldsjzke4h5lzmmdyd,ua7whPr5,2020-0188,2021-10-30,23:35:42,01:23:54,NA,incomplete,false,true,NA,NA,1,15,NA,yellow,n_s_068.jpg,NA,NA,NA,NA,NA,pleasant,unpleasant,NA,NA,NA,NA,NA,left,902.099999999627,true,NA,NA,NA,NA,NA,NA,NA,NA
ua7whPr5,3fk4g712o0duz4m7qhicsa7sfszsso,36ahbnmv1vpngldsjzke4h5lzmmdyd,ua7whPr5,2020-0188,2021-10-30,23:35:42,01:23:54,NA,incomplete,false,true,NA,NA,1,16,NA,yellow,n_l_012.jpg,NA,NA,NA,NA,NA,pleasant,unpleasant,NA,NA,NA,NA,NA,right,1129.20000000019,true,NA,NA,NA,NA,NA,NA,NA,NA
ua7whPr5,3fk4g712o0duz4m7qhicsa7sfszsso,36ahbnmv1vpngldsjzke4h5lzmmdyd,ua7whPr5,2020-0188,2021-10-30,23:35:42,01:23:54,NA,incomplete,false,true,NA,NA,1,17,NA,yellow,n_s_073.jpg,NA,NA,NA,NA,NA,unpleasant,pleasant,NA,NA,NA,NA,NA,left,1380.69999999925,true,NA,NA,NA,NA,NA,NA,NA,NA
ua7whPr5,3fk4g712o0duz4m7qhicsa7sfszsso,36ahbnmv1vpngldsjzke4h5lzmmdyd,ua7whPr5,2020-0188,2021-10-30,23:35:42,01:23:54,NA,incomplete,false,true,NA,NA,1,18,NA,white,m_s_040.jpg,NA,NA,NA,NA,NA,pleasant,unpleasant,NA,NA,NA,NA,NA,left,1959.79999999981,true,NA,NA,NA,NA,NA,NA,NA,NA
ua7whPr5,3fk4g712o0duz4m7qhicsa7sfszsso,36ahbnmv1vpngldsjzke4h5lzmmdyd,ua7whPr5,2020-0188,2021-10-30,23:35:42,01:23:54,NA,incomplete,false,true,NA,NA,1,19,NA,white,m_l_043.jpg,NA,NA,NA,NA,NA,unpleasant,pleasant,NA,NA,NA,NA,NA,right,1584,true,NA,NA,NA,NA,NA,NA,NA,NA
ua7whPr5,3fk4g712o0duz4m7qhicsa7sfszsso,36ahbnmv1vpngldsjzke4h5lzmmdyd,ua7whPr5,2020-0188,2021-10-30,23:35:42,01:23:54,NA,incomplete,false,true,NA,NA,1,20,NA,white,n_s_094.jpg,NA,NA,NA,NA,NA,pleasant,unpleasant,NA,NA,NA,NA,NA,left,1737.90000000037,true,NA,NA,NA,NA,NA,NA,NA,NA
ua7whPr5,3fk4g712o0duz4m7qhicsa7sfszsso,36ahbnmv1vpngldsjzke4h5lzmmdyd,ua7whPr5,2020-0188,2021-10-30,23:35:42,01:23:54,NA,incomplete,false,true,NA,NA,1,21,NA,white,m_s_083.jpg,NA,NA,NA,NA,NA,unpleasant,pleasant,NA,NA,NA,NA,NA,right,1580.59999999963,true,NA,NA,NA,NA,NA,NA,NA,NA
ua7whPr5,3fk4g712o0duz4m7qhicsa7sfszsso,36ahbnmv1vpngldsjzke4h5lzmmdyd,ua7whPr5,2020-0188,2021-10-30,23:35:42,01:23:54,NA,incomplete,false,true,NA,NA,1,22,NA,white,m_s_013.jpg,NA,NA,NA,NA,NA,pleasant,unpleasant,NA,NA,NA,NA,NA,right,1767,true,NA,NA,NA,NA,NA,NA,NA,NA
ua7whPr5,3fk4g712o0duz4m7qhicsa7sfszsso,36ahbnmv1vpngldsjzke4h5lzmmdyd,ua7whPr5,2020-0188,2021-10-30,23:35:42,01:23:54,NA,incomplete,false,true,NA,NA,1,23,NA,white,m_l_104.jpg,NA,NA,NA,NA,NA,pleasant,unpleasant,NA,NA,NA,NA,NA,left,2286.60000000056,true,NA,NA,NA,NA,NA,NA,NA,NA
ua7whPr5,3fk4g712o0duz4m7qhicsa7sfszsso,36ahbnmv1vpngldsjzke4h5lzmmdyd,ua7whPr5,2020-0188,2021-10-30,23:35:42,01:23:54,NA,incomplete,false,true,NA,NA,1,24,NA,gray,m_l_051.jpg,NA,NA,NA,NA,NA,pleasant,unpleasant,NA,NA,NA,NA,NA,left,1161.30000000075,true,NA,NA,NA,NA,NA,NA,NA,NA
ua7whPr5,3fk4g712o0duz4m7qhicsa7sfszsso,36ahbnmv1vpngldsjzke4h5lzmmdyd,ua7whPr5,2020-0188,2021-10-30,23:35:42,01:23:54,NA,incomplete,false,true,NA,NA,1,25,NA,gray,m_s_101.jpg,NA,NA,NA,NA,NA,pleasant,unpleasant,NA,NA,NA,NA,NA,left,2278,true,NA,NA,NA,NA,NA,NA,NA,NA
ua7whPr5,3fk4g712o0duz4m7qhicsa7sfszsso,36ahbnmv1vpngldsjzke4h5lzmmdyd,ua7whPr5,2020-0188,2021-10-30,23:35:42,01:23:54,NA,incomplete,false,true,NA,NA,1,26,NA,gray,m_l_018.jpg,NA,NA,NA,NA,NA,pleasant,unpleasant,NA,NA,NA,NA,NA,left,1766.29999999981,true,NA,NA,NA,NA,NA,NA,NA,NA
ua7whPr5,3fk4g712o0duz4m7qhicsa7sfszsso,36ahbnmv1vpngldsjzke4h5lzmmdyd,ua7whPr5,2020-0188,2021-10-30,23:35:42,01:23:54,NA,incomplete,false,true,NA,NA,1,27,NA,gray,m_l_004.jpg,NA,NA,NA,NA,NA,unpleasant,pleasant,NA,NA,NA,NA,NA,right,1981.70000000019,true,NA,NA,NA,NA,NA,NA,NA,NA
ua7whPr5,3fk4g712o0duz4m7qhicsa7sfszsso,36ahbnmv1vpngldsjzke4h5lzmmdyd,ua7whPr5,2020-0188,2021-10-30,23:35:42,01:23:54,NA,incomplete,false,true,NA,NA,1,28,NA,gray,m_s_096.jpg,NA,NA,NA,NA,NA,unpleasant,pleasant,NA,NA,NA,NA,NA,right,1015.5,true,NA,NA,NA,NA,NA,NA,NA,NA
ua7whPr5,3fk4g712o0duz4m7qhicsa7sfszsso,36ahbnmv1vpngldsjzke4h5lzmmdyd,ua7whPr5,2020-0188,2021-10-30,23:35:42,01:23:54,NA,incomplete,false,true,NA,NA,1,29,NA,gray,n_s_067.jpg,NA,NA,NA,NA,NA,pleasant,unpleasant,NA,NA,NA,NA,NA,right,1498.59999999963,true,NA,NA,NA,NA,NA,NA,NA,NA
ua7whPr5,3fk4g712o0duz4m7qhicsa7sfszsso,36ahbnmv1vpngldsjzke4h5lzmmdyd,ua7whPr5,2020-0188,2021-10-30,23:35:42,01:23:54,NA,incomplete,false,true,NA,NA,1,30,NA,blue,m_l_047.jpg,NA,NA,NA,NA,NA,unpleasant,pleasant,NA,NA,NA,NA,NA,left,2280.20000000112,true,NA,NA,NA,NA,NA,NA,NA,NA
ua7whPr5,3fk4g712o0duz4m7qhicsa7sfszsso,36ahbnmv1vpngldsjzke4h5lzmmdyd,ua7whPr5,2020-0188,2021-10-30,23:35:42,01:23:54,NA,incomplete,false,true,NA,NA,1,31,NA,blue,m_s_099.jpg,NA,NA,NA,NA,NA,pleasant,unpleasant,NA,NA,NA,NA,NA,right,1955.30000000075,true,NA,NA,NA,NA,NA,NA,NA,NA
ua7whPr5,3fk4g712o0duz4m7qhicsa7sfszsso,36ahbnmv1vpngldsjzke4h5lzmmdyd,ua7whPr5,2020-0188,2021-10-30,23:35:42,01:23:54,NA,incomplete,false,true,NA,NA,1,32,NA,blue,m_l_053.jpg,NA,NA,NA,NA,NA,pleasant,unpleasant,NA,NA,NA,NA,NA,left,1801,true,NA,NA,NA,NA,NA,NA,NA,NA
ua7whPr5,3fk4g712o0duz4m7qhicsa7sfszsso,36ahbnmv1vpngldsjzke4h5lzmmdyd,ua7whPr5,2020-0188,2021-10-30,23:35:42,01:23:54,NA,incomplete,false,true,NA,NA,1,33,NA,blue,m_s_014.jpg,NA,NA,NA,NA,NA,unpleasant,pleasant,NA,NA,NA,NA,NA,right,1471.60000000149,true,NA,NA,NA,NA,NA,NA,NA,NA
ua7whPr5,3fk4g712o0duz4m7qhicsa7sfszsso,36ahbnmv1vpngldsjzke4h5lzmmdyd,ua7whPr5,2020-0188,2021-10-30,23:35:42,01:23:54,NA,incomplete,false,true,NA,NA,1,34,NA,blue,m_l_028.jpg,NA,NA,NA,NA,NA,pleasant,unpleasant,NA,NA,NA,NA,NA,right,1425.69999999925,true,NA,NA,NA,NA,NA,NA,NA,NA
ua7whPr5,3fk4g712o0duz4m7qhicsa7sfszsso,36ahbnmv1vpngldsjzke4h5lzmmdyd,ua7whPr5,2020-0188,2021-10-30,23:35:42,01:23:54,NA,incomplete,false,true,NA,NA,1,35,NA,blue,m_l_081.jpg,NA,NA,NA,NA,NA,pleasant,unpleasant,NA,NA,NA,NA,NA,right,1410.5,true,NA,NA,NA,NA,NA,NA,NA,NA
ua7whPr5,3fk4g712o0duz4m7qhicsa7sfszsso,36ahbnmv1vpngldsjzke4h5lzmmdyd,ua7whPr5,2020-0188,2021-10-30,23:35:42,01:23:54,NA,incomplete,false,NA,NA,true,1,0,NA,NA,NA,right,n_l_114.jpg,yellow,orange,NA,NA,NA,NA,NA,NA,NA,NA,NA,NaN,NA,2460.9000000003725,right,1,NA,NA,NA,NA,NA
ua7whPr5,3fk4g712o0duz4m7qhicsa7sfszsso,36ahbnmv1vpngldsjzke4h5lzmmdyd,ua7whPr5,2020-0188,2021-10-30,23:35:42,01:23:54,NA,incomplete,false,NA,NA,true,1,1,NA,NA,NA,left,m_l_018.jpg,gray,blue,NA,NA,NA,NA,NA,NA,NA,NA,NA,NaN,NA,2089.5999999996275,left,1,NA,NA,NA,NA,NA
ua7whPr5,3fk4g712o0duz4m7qhicsa7sfszsso,36ahbnmv1vpngldsjzke4h5lzmmdyd,ua7whPr5,2020-0188,2021-10-30,23:35:42,01:23:54,NA,incomplete,false,NA,NA,true,1,2,NA,NA,NA,left,n_s_005.jpg,orange,black,NA,NA,NA,NA,NA,NA,NA,NA,NA,NaN,NA,1837.800000000745,left,1,NA,NA,NA,NA,NA
ua7whPr5,3fk4g712o0duz4m7qhicsa7sfszsso,36ahbnmv1vpngldsjzke4h5lzmmdyd,ua7whPr5,2020-0188,2021-10-30,23:35:42,01:23:54,NA,incomplete,false,NA,NA,true,1,3,NA,NA,NA,right,m_l_031.jpg,black,orange,NA,NA,NA,NA,NA,NA,NA,NA,NA,NaN,NA,1790.300000000745,right,1,NA,NA,NA,NA,NA
ua7whPr5,3fk4g712o0duz4m7qhicsa7sfszsso,36ahbnmv1vpngldsjzke4h5lzmmdyd,ua7whPr5,2020-0188,2021-10-30,23:35:42,01:23:54,NA,incomplete,false,NA,NA,true,1,4,NA,NA,NA,right,n_s_094.jpg,yellow,white,NA,NA,NA,NA,NA,NA,NA,NA,NA,NaN,NA,1455.300000000745,right,1,NA,NA,NA,NA,NA
ua7whPr5,3fk4g712o0duz4m7qhicsa7sfszsso,36ahbnmv1vpngldsjzke4h5lzmmdyd,ua7whPr5,2020-0188,2021-10-30,23:35:42,01:23:54,NA,incomplete,false,NA,NA,true,1,5,NA,NA,NA,left,m_s_096.jpg,gray,white,NA,NA,NA,NA,NA,NA,NA,NA,NA,NaN,NA,4720.5,left,1,NA,NA,NA,NA,NA
ua7whPr5,3fk4g712o0duz4m7qhicsa7sfszsso,36ahbnmv1vpngldsjzke4h5lzmmdyd,ua7whPr5,2020-0188,2021-10-30,23:35:42,01:23:54,NA,incomplete,false,NA,NA,true,1,6,NA,NA,NA,left,m_s_099.jpg,blue,gray,NA,NA,NA,NA,NA,NA,NA,NA,NA,NaN,NA,1575,left,1,NA,NA,NA,NA,NA
ua7whPr5,3fk4g712o0duz4m7qhicsa7sfszsso,36ahbnmv1vpngldsjzke4h5lzmmdyd,ua7whPr5,2020-0188,2021-10-30,23:35:42,01:23:54,NA,incomplete,false,NA,NA,true,1,7,NA,NA,NA,left,m_l_049.jpg,yellow,orange,NA,NA,NA,NA,NA,NA,NA,NA,NA,NaN,NA,2515.5999999996275,left,1,NA,NA,NA,NA,NA
ua7whPr5,3fk4g712o0duz4m7qhicsa7sfszsso,36ahbnmv1vpngldsjzke4h5lzmmdyd,ua7whPr5,2020-0188,2021-10-30,23:35:42,01:23:54,NA,incomplete,false,NA,NA,true,1,8,NA,NA,NA,left,m_l_043.jpg,white,yellow,NA,NA,NA,NA,NA,NA,NA,NA,NA,NaN,NA,1230.5999999996275,left,1,NA,NA,NA,NA,NA
ua7whPr5,3fk4g712o0duz4m7qhicsa7sfszsso,36ahbnmv1vpngldsjzke4h5lzmmdyd,ua7whPr5,2020-0188,2021-10-30,23:35:42,01:23:54,NA,incomplete,false,NA,NA,true,1,9,NA,NA,NA,left,n_l_012.jpg,yellow,orange,NA,NA,NA,NA,NA,NA,NA,NA,NA,NaN,NA,3227.5,left,1,NA,NA,NA,NA,NA
ua7whPr5,3fk4g712o0duz4m7qhicsa7sfszsso,36ahbnmv1vpngldsjzke4h5lzmmdyd,ua7whPr5,2020-0188,2021-10-30,23:35:42,01:23:54,NA,incomplete,false,NA,NA,true,1,10,NA,NA,NA,left,m_s_101.jpg,gray,blue,NA,NA,NA,NA,NA,NA,NA,NA,NA,NaN,NA,1367.2000000011176,left,1,NA,NA,NA,NA,NA
ua7whPr5,3fk4g712o0duz4m7qhicsa7sfszsso,36ahbnmv1vpngldsjzke4h5lzmmdyd,ua7whPr5,2020-0188,2021-10-30,23:35:42,01:23:54,NA,incomplete,false,NA,NA,true,1,11,NA,NA,NA,left,n_s_073.jpg,yellow,white,NA,NA,NA,NA,NA,NA,NA,NA,NA,NaN,NA,3208.5999999996275,left,1,NA,NA,NA,NA,NA
ua7whPr5,3fk4g712o0duz4m7qhicsa7sfszsso,36ahbnmv1vpngldsjzke4h5lzmmdyd,ua7whPr5,2020-0188,2021-10-30,23:35:42,01:23:54,NA,incomplete,false,NA,NA,true,1,12,NA,NA,NA,right,n_s_092.jpg,black,orange,NA,NA,NA,NA,NA,NA,NA,NA,NA,NaN,NA,2819.39999999851,right,1,NA,NA,NA,NA,NA
ua7whPr5,3fk4g712o0duz4m7qhicsa7sfszsso,36ahbnmv1vpngldsjzke4h5lzmmdyd,ua7whPr5,2020-0188,2021-10-30,23:35:42,01:23:54,NA,incomplete,false,NA,NA,true,1,13,NA,NA,NA,left,m_l_081.jpg,blue,gray,NA,NA,NA,NA,NA,NA,NA,NA,NA,NaN,NA,1328.7999999988824,left,1,NA,NA,NA,NA,NA
ua7whPr5,3fk4g712o0duz4m7qhicsa7sfszsso,36ahbnmv1vpngldsjzke4h5lzmmdyd,ua7whPr5,2020-0188,2021-10-30,23:35:42,01:23:54,NA,incomplete,false,NA,NA,true,1,14,NA,NA,NA,left,n_l_064.jpg,black,orange,NA,NA,NA,NA,NA,NA,NA,NA,NA,NaN,NA,1545.4000000003725,left,1,NA,NA,NA,NA,NA
ua7whPr5,3fk4g712o0duz4m7qhicsa7sfszsso,36ahbnmv1vpngldsjzke4h5lzmmdyd,ua7whPr5,2020-0188,2021-10-30,23:35:42,01:23:54,NA,incomplete,false,NA,NA,true,1,15,NA,NA,NA,left,n_s_067.jpg,gray,white,NA,NA,NA,NA,NA,NA,NA,NA,NA,NaN,NA,3669.5,left,1,NA,NA,NA,NA,NA
ua7whPr5,3fk4g712o0duz4m7qhicsa7sfszsso,36ahbnmv1vpngldsjzke4h5lzmmdyd,ua7whPr5,2020-0188,2021-10-30,23:35:42,01:23:54,NA,incomplete,false,NA,NA,true,1,16,NA,NA,NA,right,m_l_053.jpg,gray,blue,NA,NA,NA,NA,NA,NA,NA,NA,NA,NaN,NA,1423.300000000745,right,1,NA,NA,NA,NA,NA
ua7whPr5,3fk4g712o0duz4m7qhicsa7sfszsso,36ahbnmv1vpngldsjzke4h5lzmmdyd,ua7whPr5,2020-0188,2021-10-30,23:35:42,01:23:54,NA,incomplete,false,NA,NA,true,1,17,NA,NA,NA,right,m_s_013.jpg,yellow,white,NA,NA,NA,NA,NA,NA,NA,NA,NA,NaN,NA,2334.2000000011176,right,1,NA,NA,NA,NA,NA
ua7whPr5,3fk4g712o0duz4m7qhicsa7sfszsso,36ahbnmv1vpngldsjzke4h5lzmmdyd,ua7whPr5,2020-0188,2021-10-30,23:35:42,01:23:54,NA,incomplete,false,NA,NA,true,1,18,NA,NA,NA,right,m_l_104.jpg,gray,white,NA,NA,NA,NA,NA,NA,NA,NA,NA,NaN,NA,1667.2999999988824,right,1,NA,NA,NA,NA,NA
ua7whPr5,3fk4g712o0duz4m7qhicsa7sfszsso,36ahbnmv1vpngldsjzke4h5lzmmdyd,ua7whPr5,2020-0188,2021-10-30,23:35:42,01:23:54,NA,incomplete,false,NA,NA,true,1,19,NA,NA,NA,left,m_l_091.jpg,black,orange,NA,NA,NA,NA,NA,NA,NA,NA,NA,NaN,NA,1655.9000000003725,right,0,NA,NA,NA,NA,NA
ua7whPr5,3fk4g712o0duz4m7qhicsa7sfszsso,36ahbnmv1vpngldsjzke4h5lzmmdyd,ua7whPr5,2020-0188,2021-10-30,23:35:42,01:23:54,NA,incomplete,false,NA,NA,true,1,20,NA,NA,NA,right,n_s_004.jpg,orange,yellow,NA,NA,NA,NA,NA,NA,NA,NA,NA,NaN,NA,2361.4000000003725,right,1,NA,NA,NA,NA,NA
ua7whPr5,3fk4g712o0duz4m7qhicsa7sfszsso,36ahbnmv1vpngldsjzke4h5lzmmdyd,ua7whPr5,2020-0188,2021-10-30,23:35:42,01:23:54,NA,incomplete,false,NA,NA,true,1,21,NA,NA,NA,right,m_s_034.jpg,orange,black,NA,NA,NA,NA,NA,NA,NA,NA,NA,NaN,NA,1453.2000000011176,right,1,NA,NA,NA,NA,NA
ua7whPr5,3fk4g712o0duz4m7qhicsa7sfszsso,36ahbnmv1vpngldsjzke4h5lzmmdyd,ua7whPr5,2020-0188,2021-10-30,23:35:42,01:23:54,NA,incomplete,false,NA,true,NA,1,0,NA,NA,NA,left,NA,NA,NA,present,NA,NA,m_l_049.jpg,yellow,n_s_073.jpg,yellow,within,NA,NaN,NA,NA,NA,NA,left,2122.800000000745,1,0,1997.1000000014901
ua7whPr5,3fk4g712o0duz4m7qhicsa7sfszsso,36ahbnmv1vpngldsjzke4h5lzmmdyd,ua7whPr5,2020-0188,2021-10-30,23:35:42,01:23:54,NA,incomplete,false,NA,true,NA,1,1,NA,NA,NA,left,NA,NA,NA,present,NA,NA,m_s_099.jpg,blue,m_l_081.jpg,blue,within,NA,NaN,NA,NA,NA,NA,left,3557,1,0,3589.0999999996275
ua7whPr5,3fk4g712o0duz4m7qhicsa7sfszsso,36ahbnmv1vpngldsjzke4h5lzmmdyd,ua7whPr5,2020-0188,2021-10-30,23:35:42,01:23:54,NA,incomplete,false,NA,true,NA,1,2,NA,NA,NA,left,NA,NA,NA,present,NA,NA,m_s_013.jpg,white,m_l_018.jpg,gray,between,NA,NaN,NA,NA,NA,NA,left,2689.699999999255,1,2,1206.0999999996275
ua7whPr5,3fk4g712o0duz4m7qhicsa7sfszsso,36ahbnmv1vpngldsjzke4h5lzmmdyd,ua7whPr5,2020-0188,2021-10-30,23:35:42,01:23:54,NA,incomplete,false,NA,true,NA,1,3,NA,NA,NA,right,NA,NA,NA,present,NA,NA,n_l_114.jpg,orange,m_l_091.jpg,black,between,NA,NaN,NA,NA,NA,NA,right,2373.4000000003725,1,2,1209.199999999255
ua7whPr5,3fk4g712o0duz4m7qhicsa7sfszsso,36ahbnmv1vpngldsjzke4h5lzmmdyd,ua7whPr5,2020-0188,2021-10-30,23:35:42,01:23:54,NA,incomplete,false,NA,true,NA,1,4,NA,NA,NA,left,NA,NA,NA,present,NA,NA,m_s_096.jpg,gray,m_l_053.jpg,blue,between,NA,NaN,NA,NA,NA,NA,left,2543.9000000003725,1,2,2987.5
ua7whPr5,3fk4g712o0duz4m7qhicsa7sfszsso,36ahbnmv1vpngldsjzke4h5lzmmdyd,ua7whPr5,2020-0188,2021-10-30,23:35:42,01:23:54,NA,incomplete,false,NA,true,NA,1,5,NA,NA,NA,right,NA,NA,NA,present,NA,NA,m_s_034.jpg,black,n_l_064.jpg,black,within,NA,NaN,NA,NA,NA,NA,right,2393.5999999996275,1,0,1179.0999999996275
ua7whPr5,3fk4g712o0duz4m7qhicsa7sfszsso,36ahbnmv1vpngldsjzke4h5lzmmdyd,ua7whPr5,2020-0188,2021-10-30,23:35:42,01:23:54,NA,incomplete,false,NA,true,NA,1,6,NA,NA,NA,left,NA,NA,NA,present,NA,NA,m_l_043.jpg,white,m_l_104.jpg,white,within,NA,NaN,NA,NA,NA,NA,left,3955.800000000745,1,1,1336.5
ua7whPr5,3fk4g712o0duz4m7qhicsa7sfszsso,36ahbnmv1vpngldsjzke4h5lzmmdyd,ua7whPr5,2020-0188,2021-10-30,23:35:42,01:23:54,NA,incomplete,false,NA,true,NA,1,7,NA,NA,NA,right,NA,NA,NA,present,NA,NA,n_s_092.jpg,orange,m_l_031.jpg,orange,within,NA,NaN,NA,NA,NA,NA,left,3393.800000000745,0,0,779
ua7whPr5,3fk4g712o0duz4m7qhicsa7sfszsso,36ahbnmv1vpngldsjzke4h5lzmmdyd,ua7whPr5,2020-0188,2021-10-30,23:35:42,01:23:54,NA,incomplete,false,NA,true,NA,1,8,NA,NA,NA,left,NA,NA,NA,present,NA,NA,n_l_012.jpg,yellow,n_s_094.jpg,white,between,NA,NaN,NA,NA,NA,NA,left,7612.89999999851,1,2,975
ua7whPr5,3fk4g712o0duz4m7qhicsa7sfszsso,36ahbnmv1vpngldsjzke4h5lzmmdyd,ua7whPr5,2020-0188,2021-10-30,23:35:42,01:23:54,NA,incomplete,false,NA,true,NA,1,9,NA,NA,NA,right,NA,NA,NA,present,NA,NA,n_s_004.jpg,yellow,n_s_005.jpg,orange,between,NA,NaN,NA,NA,NA,NA,right,2185.699999999255,1,3,1281.5
ua7whPr5,3fk4g712o0duz4m7qhicsa7sfszsso,36ahbnmv1vpngldsjzke4h5lzmmdyd,ua7whPr5,2020-0188,2021-10-30,23:35:42,01:23:54,NA,incomplete,false,NA,true,NA,1,10,NA,NA,NA,right,NA,NA,NA,present,NA,NA,n_s_067.jpg,gray,m_s_101.jpg,gray,within,NA,NaN,NA,NA,NA,NA,left,2240.5,0,0,1304.699999999255
ua7whPr5,3fk4g712o0duz4m7qhicsa7sfszsso,36ahbnmv1vpngldsjzke4h5lzmmdyd,ua7whPr5,2020-0188,2021-10-30,23:35:42,01:23:54,NA,incomplete,false,true,NA,NA,2,0,NA,black,m_l_117.jpg,NA,NA,NA,NA,NA,pleasant,unpleasant,NA,NA,NA,NA,NA,right,2620.59999999963,true,NA,NA,NA,NA,NA,NA,NA,NA
ua7whPr5,3fk4g712o0duz4m7qhicsa7sfszsso,36ahbnmv1vpngldsjzke4h5lzmmdyd,ua7whPr5,2020-0188,2021-10-30,23:35:42,01:23:54,NA,incomplete,false,true,NA,NA,2,1,NA,black,m_s_049.jpg,NA,NA,NA,NA,NA,pleasant,unpleasant,NA,NA,NA,NA,NA,right,1655.59999999963,true,NA,NA,NA,NA,NA,NA,NA,NA
ua7whPr5,3fk4g712o0duz4m7qhicsa7sfszsso,36ahbnmv1vpngldsjzke4h5lzmmdyd,ua7whPr5,2020-0188,2021-10-30,23:35:42,01:23:54,NA,incomplete,false,true,NA,NA,2,2,NA,black,m_l_064.jpg,NA,NA,NA,NA,NA,unpleasant,pleasant,NA,NA,NA,NA,NA,right,1893.40000000037,true,NA,NA,NA,NA,NA,NA,NA,NA
ua7whPr5,3fk4g712o0duz4m7qhicsa7sfszsso,36ahbnmv1vpngldsjzke4h5lzmmdyd,ua7whPr5,2020-0188,2021-10-30,23:35:42,01:23:54,NA,incomplete,false,true,NA,NA,2,3,NA,black,m_l_055.jpg,NA,NA,NA,NA,NA,pleasant,unpleasant,NA,NA,NA,NA,NA,right,2579,true,NA,NA,NA,NA,NA,NA,NA,NA
ua7whPr5,3fk4g712o0duz4m7qhicsa7sfszsso,36ahbnmv1vpngldsjzke4h5lzmmdyd,ua7whPr5,2020-0188,2021-10-30,23:35:42,01:23:54,NA,incomplete,false,true,NA,NA,2,4,NA,black,n_s_111.jpg,NA,NA,NA,NA,NA,pleasant,unpleasant,NA,NA,NA,NA,NA,right,1437.5,true,NA,NA,NA,NA,NA,NA,NA,NA
ua7whPr5,3fk4g712o0duz4m7qhicsa7sfszsso,36ahbnmv1vpngldsjzke4h5lzmmdyd,ua7whPr5,2020-0188,2021-10-30,23:35:42,01:23:54,NA,incomplete,false,true,NA,NA,2,5,NA,black,n_s_098.jpg,NA,NA,NA,NA,NA,unpleasant,pleasant,NA,NA,NA,NA,NA,right,2081.10000000149,true,NA,NA,NA,NA,NA,NA,NA,NA
ua7whPr5,3fk4g712o0duz4m7qhicsa7sfszsso,36ahbnmv1vpngldsjzke4h5lzmmdyd,ua7whPr5,2020-0188,2021-10-30,23:35:42,01:23:54,NA,incomplete,false,true,NA,NA,2,6,NA,white,n_l_008.jpg,NA,NA,NA,NA,NA,unpleasant,pleasant,NA,NA,NA,NA,NA,right,2209.80000000075,true,NA,NA,NA,NA,NA,NA,NA,NA
ua7whPr5,3fk4g712o0duz4m7qhicsa7sfszsso,36ahbnmv1vpngldsjzke4h5lzmmdyd,ua7whPr5,2020-0188,2021-10-30,23:35:42,01:23:54,NA,incomplete,false,true,NA,NA,2,7,NA,white,n_l_076.jpg,NA,NA,NA,NA,NA,unpleasant,pleasant,NA,NA,NA,NA,NA,right,3312.30000000075,true,NA,NA,NA,NA,NA,NA,NA,NA
ua7whPr5,3fk4g712o0duz4m7qhicsa7sfszsso,36ahbnmv1vpngldsjzke4h5lzmmdyd,ua7whPr5,2020-0188,2021-10-30,23:35:42,01:23:54,NA,incomplete,false,true,NA,NA,2,8,NA,white,m_l_105.jpg,NA,NA,NA,NA,NA,pleasant,unpleasant,NA,NA,NA,NA,NA,left,1299.09999999963,true,NA,NA,NA,NA,NA,NA,NA,NA
ua7whPr5,3fk4g712o0duz4m7qhicsa7sfszsso,36ahbnmv1vpngldsjzke4h5lzmmdyd,ua7whPr5,2020-0188,2021-10-30,23:35:42,01:23:54,NA,incomplete,false,true,NA,NA,2,9,NA,white,m_l_039.jpg,NA,NA,NA,NA,NA,pleasant,unpleasant,NA,NA,NA,NA,NA,left,2246.19999999925,true,NA,NA,NA,NA,NA,NA,NA,NA
ua7whPr5,3fk4g712o0duz4m7qhicsa7sfszsso,36ahbnmv1vpngldsjzke4h5lzmmdyd,ua7whPr5,2020-0188,2021-10-30,23:35:42,01:23:54,NA,incomplete,false,true,NA,NA,2,10,NA,white,m_s_095.jpg,NA,NA,NA,NA,NA,unpleasant,pleasant,NA,NA,NA,NA,NA,right,2035,true,NA,NA,NA,NA,NA,NA,NA,NA
ua7whPr5,3fk4g712o0duz4m7qhicsa7sfszsso,36ahbnmv1vpngldsjzke4h5lzmmdyd,ua7whPr5,2020-0188,2021-10-30,23:35:42,01:23:54,NA,incomplete,false,true,NA,NA,2,11,NA,white,n_l_050.jpg,NA,NA,NA,NA,NA,pleasant,unpleasant,NA,NA,NA,NA,NA,left,1280.79999999888,true,NA,NA,NA,NA,NA,NA,NA,NA
ua7whPr5,3fk4g712o0duz4m7qhicsa7sfszsso,36ahbnmv1vpngldsjzke4h5lzmmdyd,ua7whPr5,2020-0188,2021-10-30,23:35:42,01:23:54,NA,incomplete,false,true,NA,NA,2,12,NA,brown,n_s_016.jpg,NA,NA,NA,NA,NA,unpleasant,pleasant,NA,NA,NA,NA,NA,right,2462.40000000037,true,NA,NA,NA,NA,NA,NA,NA,NA
ua7whPr5,3fk4g712o0duz4m7qhicsa7sfszsso,36ahbnmv1vpngldsjzke4h5lzmmdyd,ua7whPr5,2020-0188,2021-10-30,23:35:42,01:23:54,NA,incomplete,false,true,NA,NA,2,13,NA,brown,n_s_013.jpg,NA,NA,NA,NA,NA,unpleasant,pleasant,NA,NA,NA,NA,NA,left,1769,true,NA,NA,NA,NA,NA,NA,NA,NA
ua7whPr5,3fk4g712o0duz4m7qhicsa7sfszsso,36ahbnmv1vpngldsjzke4h5lzmmdyd,ua7whPr5,2020-0188,2021-10-30,23:35:42,01:23:54,NA,incomplete,false,true,NA,NA,2,14,NA,brown,m_s_082.jpg,NA,NA,NA,NA,NA,pleasant,unpleasant,NA,NA,NA,NA,NA,left,1299.40000000037,true,NA,NA,NA,NA,NA,NA,NA,NA
ua7whPr5,3fk4g712o0duz4m7qhicsa7sfszsso,36ahbnmv1vpngldsjzke4h5lzmmdyd,ua7whPr5,2020-0188,2021-10-30,23:35:42,01:23:54,NA,incomplete,false,true,NA,NA,2,15,NA,brown,m_l_034.jpg,NA,NA,NA,NA,NA,pleasant,unpleasant,NA,NA,NA,NA,NA,right,2591.69999999925,true,NA,NA,NA,NA,NA,NA,NA,NA
ua7whPr5,3fk4g712o0duz4m7qhicsa7sfszsso,36ahbnmv1vpngldsjzke4h5lzmmdyd,ua7whPr5,2020-0188,2021-10-30,23:35:42,01:23:54,NA,incomplete,false,true,NA,NA,2,16,NA,brown,n_s_055.jpg,NA,NA,NA,NA,NA,unpleasant,pleasant,NA,NA,NA,NA,NA,left,1699.19999999925,true,NA,NA,NA,NA,NA,NA,NA,NA
ua7whPr5,3fk4g712o0duz4m7qhicsa7sfszsso,36ahbnmv1vpngldsjzke4h5lzmmdyd,ua7whPr5,2020-0188,2021-10-30,23:35:42,01:23:54,NA,incomplete,false,true,NA,NA,2,17,NA,brown,m_l_012.jpg,NA,NA,NA,NA,NA,unpleasant,pleasant,NA,NA,NA,NA,NA,left,1355.60000000149,true,NA,NA,NA,NA,NA,NA,NA,NA
ua7whPr5,3fk4g712o0duz4m7qhicsa7sfszsso,36ahbnmv1vpngldsjzke4h5lzmmdyd,ua7whPr5,2020-0188,2021-10-30,23:35:42,01:23:54,NA,incomplete,false,true,NA,NA,2,18,NA,orange,m_l_046.jpg,NA,NA,NA,NA,NA,unpleasant,pleasant,NA,NA,NA,NA,NA,left,1940,true,NA,NA,NA,NA,NA,NA,NA,NA
ua7whPr5,3fk4g712o0duz4m7qhicsa7sfszsso,36ahbnmv1vpngldsjzke4h5lzmmdyd,ua7whPr5,2020-0188,2021-10-30,23:35:42,01:23:54,NA,incomplete,false,true,NA,NA,2,19,NA,orange,m_s_060.jpg,NA,NA,NA,NA,NA,pleasant,unpleasant,NA,NA,NA,NA,NA,right,2116.30000000075,true,NA,NA,NA,NA,NA,NA,NA,NA
ua7whPr5,3fk4g712o0duz4m7qhicsa7sfszsso,36ahbnmv1vpngldsjzke4h5lzmmdyd,ua7whPr5,2020-0188,2021-10-30,23:35:42,01:23:54,NA,incomplete,false,true,NA,NA,2,20,NA,orange,n_l_083.jpg,NA,NA,NA,NA,NA,pleasant,unpleasant,NA,NA,NA,NA,NA,right,1200.80000000075,true,NA,NA,NA,NA,NA,NA,NA,NA
ua7whPr5,3fk4g712o0duz4m7qhicsa7sfszsso,36ahbnmv1vpngldsjzke4h5lzmmdyd,ua7whPr5,2020-0188,2021-10-30,23:35:42,01:23:54,NA,incomplete,false,true,NA,NA,2,21,NA,orange,m_l_061.jpg,NA,NA,NA,NA,NA,unpleasant,pleasant,NA,NA,NA,NA,NA,right,2230.69999999925,true,NA,NA,NA,NA,NA,NA,NA,NA
ua7whPr5,3fk4g712o0duz4m7qhicsa7sfszsso,36ahbnmv1vpngldsjzke4h5lzmmdyd,ua7whPr5,2020-0188,2021-10-30,23:35:42,01:23:54,NA,incomplete,false,true,NA,NA,2,22,NA,orange,n_s_022.jpg,NA,NA,NA,NA,NA,unpleasant,pleasant,NA,NA,NA,NA,NA,left,1834.60000000149,true,NA,NA,NA,NA,NA,NA,NA,NA
ua7whPr5,3fk4g712o0duz4m7qhicsa7sfszsso,36ahbnmv1vpngldsjzke4h5lzmmdyd,ua7whPr5,2020-0188,2021-10-30,23:35:42,01:23:54,NA,incomplete,false,true,NA,NA,2,23,NA,orange,m_s_084.jpg,NA,NA,NA,NA,NA,unpleasant,pleasant,NA,NA,NA,NA,NA,right,1381.20000000112,true,NA,NA,NA,NA,NA,NA,NA,NA
ua7whPr5,3fk4g712o0duz4m7qhicsa7sfszsso,36ahbnmv1vpngldsjzke4h5lzmmdyd,ua7whPr5,2020-0188,2021-10-30,23:35:42,01:23:54,NA,incomplete,false,true,NA,NA,2,24,NA,red,n_l_075.jpg,NA,NA,NA,NA,NA,unpleasant,pleasant,NA,NA,NA,NA,NA,left,1929.29999999888,true,NA,NA,NA,NA,NA,NA,NA,NA
ua7whPr5,3fk4g712o0duz4m7qhicsa7sfszsso,36ahbnmv1vpngldsjzke4h5lzmmdyd,ua7whPr5,2020-0188,2021-10-30,23:35:42,01:23:54,NA,incomplete,false,true,NA,NA,2,25,NA,red,n_s_008.jpg,NA,NA,NA,NA,NA,unpleasant,pleasant,NA,NA,NA,NA,NA,left,1597.19999999925,true,NA,NA,NA,NA,NA,NA,NA,NA
ua7whPr5,3fk4g712o0duz4m7qhicsa7sfszsso,36ahbnmv1vpngldsjzke4h5lzmmdyd,ua7whPr5,2020-0188,2021-10-30,23:35:42,01:23:54,NA,incomplete,false,true,NA,NA,2,26,NA,red,n_s_014.jpg,NA,NA,NA,NA,NA,pleasant,unpleasant,NA,NA,NA,NA,NA,right,1223.90000000037,true,NA,NA,NA,NA,NA,NA,NA,NA
ua7whPr5,3fk4g712o0duz4m7qhicsa7sfszsso,36ahbnmv1vpngldsjzke4h5lzmmdyd,ua7whPr5,2020-0188,2021-10-30,23:35:42,01:23:54,NA,incomplete,false,true,NA,NA,2,27,NA,red,n_s_077.jpg,NA,NA,NA,NA,NA,unpleasant,pleasant,NA,NA,NA,NA,NA,left,1426.59999999963,true,NA,NA,NA,NA,NA,NA,NA,NA
ua7whPr5,3fk4g712o0duz4m7qhicsa7sfszsso,36ahbnmv1vpngldsjzke4h5lzmmdyd,ua7whPr5,2020-0188,2021-10-30,23:35:42,01:23:54,NA,incomplete,false,true,NA,NA,2,28,NA,red,n_s_117.jpg,NA,NA,NA,NA,NA,pleasant,unpleasant,NA,NA,NA,NA,NA,right,2383.09999999963,true,NA,NA,NA,NA,NA,NA,NA,NA
ua7whPr5,3fk4g712o0duz4m7qhicsa7sfszsso,36ahbnmv1vpngldsjzke4h5lzmmdyd,ua7whPr5,2020-0188,2021-10-30,23:35:42,01:23:54,NA,incomplete,false,true,NA,NA,2,29,NA,red,m_s_015.jpg,NA,NA,NA,NA,NA,unpleasant,pleasant,NA,NA,NA,NA,NA,right,1500.30000000075,true,NA,NA,NA,NA,NA,NA,NA,NA
ua7whPr5,3fk4g712o0duz4m7qhicsa7sfszsso,36ahbnmv1vpngldsjzke4h5lzmmdyd,ua7whPr5,2020-0188,2021-10-30,23:35:42,01:23:54,NA,incomplete,false,true,NA,NA,2,30,NA,blue,m_s_061.jpg,NA,NA,NA,NA,NA,unpleasant,pleasant,NA,NA,NA,NA,NA,right,2713.79999999888,true,NA,NA,NA,NA,NA,NA,NA,NA
ua7whPr5,3fk4g712o0duz4m7qhicsa7sfszsso,36ahbnmv1vpngldsjzke4h5lzmmdyd,ua7whPr5,2020-0188,2021-10-30,23:35:42,01:23:54,NA,incomplete,false,true,NA,NA,2,31,NA,blue,n_s_108.jpg,NA,NA,NA,NA,NA,unpleasant,pleasant,NA,NA,NA,NA,NA,left,1756.19999999925,true,NA,NA,NA,NA,NA,NA,NA,NA
ua7whPr5,3fk4g712o0duz4m7qhicsa7sfszsso,36ahbnmv1vpngldsjzke4h5lzmmdyd,ua7whPr5,2020-0188,2021-10-30,23:35:42,01:23:54,NA,incomplete,false,true,NA,NA,2,32,NA,blue,n_s_087.jpg,NA,NA,NA,NA,NA,pleasant,unpleasant,NA,NA,NA,NA,NA,left,2114,true,NA,NA,NA,NA,NA,NA,NA,NA
ua7whPr5,3fk4g712o0duz4m7qhicsa7sfszsso,36ahbnmv1vpngldsjzke4h5lzmmdyd,ua7whPr5,2020-0188,2021-10-30,23:35:42,01:23:54,NA,incomplete,false,true,NA,NA,2,33,NA,blue,n_s_099.jpg,NA,NA,NA,NA,NA,unpleasant,pleasant,NA,NA,NA,NA,NA,right,1983.40000000037,true,NA,NA,NA,NA,NA,NA,NA,NA
ua7whPr5,3fk4g712o0duz4m7qhicsa7sfszsso,36ahbnmv1vpngldsjzke4h5lzmmdyd,ua7whPr5,2020-0188,2021-10-30,23:35:42,01:23:54,NA,incomplete,false,true,NA,NA,2,34,NA,blue,m_l_111.jpg,NA,NA,NA,NA,NA,unpleasant,pleasant,NA,NA,NA,NA,NA,left,1045.30000000075,true,NA,NA,NA,NA,NA,NA,NA,NA
ua7whPr5,3fk4g712o0duz4m7qhicsa7sfszsso,36ahbnmv1vpngldsjzke4h5lzmmdyd,ua7whPr5,2020-0188,2021-10-30,23:35:42,01:23:54,NA,incomplete,false,true,NA,NA,2,35,NA,blue,m_s_107.jpg,NA,NA,NA,NA,NA,unpleasant,pleasant,NA,NA,NA,NA,NA,left,1416.59999999963,true,NA,NA,NA,NA,NA,NA,NA,NA
ua7whPr5,3fk4g712o0duz4m7qhicsa7sfszsso,36ahbnmv1vpngldsjzke4h5lzmmdyd,ua7whPr5,2020-0188,2021-10-30,23:35:42,01:23:54,NA,incomplete,false,NA,NA,true,2,0,NA,NA,NA,right,n_l_083.jpg,brown,orange,NA,NA,NA,NA,NA,NA,NA,NA,NA,NaN,NA,6187.9000000003725,right,1,NA,NA,NA,NA,NA
ua7whPr5,3fk4g712o0duz4m7qhicsa7sfszsso,36ahbnmv1vpngldsjzke4h5lzmmdyd,ua7whPr5,2020-0188,2021-10-30,23:35:42,01:23:54,NA,incomplete,false,NA,NA,true,2,1,NA,NA,NA,right,n_s_087.jpg,red,blue,NA,NA,NA,NA,NA,NA,NA,NA,NA,NaN,NA,1429.1000000014901,right,1,NA,NA,NA,NA,NA
ua7whPr5,3fk4g712o0duz4m7qhicsa7sfszsso,36ahbnmv1vpngldsjzke4h5lzmmdyd,ua7whPr5,2020-0188,2021-10-30,23:35:42,01:23:54,NA,incomplete,false,NA,NA,true,2,2,NA,NA,NA,left,n_s_013.jpg,brown,white,NA,NA,NA,NA,NA,NA,NA,NA,NA,NaN,NA,2670.0999999996275,right,0,NA,NA,NA,NA,NA
ua7whPr5,3fk4g712o0duz4m7qhicsa7sfszsso,36ahbnmv1vpngldsjzke4h5lzmmdyd,ua7whPr5,2020-0188,2021-10-30,23:35:42,01:23:54,NA,incomplete,false,NA,NA,true,2,3,NA,NA,NA,left,n_s_022.jpg,orange,red,NA,NA,NA,NA,NA,NA,NA,NA,NA,NaN,NA,2613.699999999255,left,1,NA,NA,NA,NA,NA
ua7whPr5,3fk4g712o0duz4m7qhicsa7sfszsso,36ahbnmv1vpngldsjzke4h5lzmmdyd,ua7whPr5,2020-0188,2021-10-30,23:35:42,01:23:54,NA,incomplete,false,NA,NA,true,2,4,NA,NA,NA,left,n_s_014.jpg,red,orange,NA,NA,NA,NA,NA,NA,NA,NA,NA,NaN,NA,2349.300000000745,left,1,NA,NA,NA,NA,NA
ua7whPr5,3fk4g712o0duz4m7qhicsa7sfszsso,36ahbnmv1vpngldsjzke4h5lzmmdyd,ua7whPr5,2020-0188,2021-10-30,23:35:42,01:23:54,NA,incomplete,false,NA,NA,true,2,5,NA,NA,NA,left,m_s_095.jpg,white,brown,NA,NA,NA,NA,NA,NA,NA,NA,NA,NaN,NA,1311.5,left,1,NA,NA,NA,NA,NA
ua7whPr5,3fk4g712o0duz4m7qhicsa7sfszsso,36ahbnmv1vpngldsjzke4h5lzmmdyd,ua7whPr5,2020-0188,2021-10-30,23:35:42,01:23:54,NA,incomplete,false,NA,NA,true,2,6,NA,NA,NA,right,m_s_060.jpg,red,orange,NA,NA,NA,NA,NA,NA,NA,NA,NA,NaN,NA,1299.2000000011176,right,1,NA,NA,NA,NA,NA
ua7whPr5,3fk4g712o0duz4m7qhicsa7sfszsso,36ahbnmv1vpngldsjzke4h5lzmmdyd,ua7whPr5,2020-0188,2021-10-30,23:35:42,01:23:54,NA,incomplete,false,NA,NA,true,2,7,NA,NA,NA,right,m_s_107.jpg,red,blue,NA,NA,NA,NA,NA,NA,NA,NA,NA,NaN,NA,1277.5,right,1,NA,NA,NA,NA,NA
ua7whPr5,3fk4g712o0duz4m7qhicsa7sfszsso,36ahbnmv1vpngldsjzke4h5lzmmdyd,ua7whPr5,2020-0188,2021-10-30,23:35:42,01:23:54,NA,incomplete,false,NA,NA,true,2,8,NA,NA,NA,right,m_s_015.jpg,orange,red,NA,NA,NA,NA,NA,NA,NA,NA,NA,NaN,NA,1737.0999999996275,right,1,NA,NA,NA,NA,NA
ua7whPr5,3fk4g712o0duz4m7qhicsa7sfszsso,36ahbnmv1vpngldsjzke4h5lzmmdyd,ua7whPr5,2020-0188,2021-10-30,23:35:42,01:23:54,NA,incomplete,false,NA,NA,true,2,9,NA,NA,NA,left,n_s_098.jpg,black,white,NA,NA,NA,NA,NA,NA,NA,NA,NA,NaN,NA,2885.5,left,1,NA,NA,NA,NA,NA
ua7whPr5,3fk4g712o0duz4m7qhicsa7sfszsso,36ahbnmv1vpngldsjzke4h5lzmmdyd,ua7whPr5,2020-0188,2021-10-30,23:35:42,01:23:54,NA,incomplete,false,NA,NA,true,2,10,NA,NA,NA,left,m_l_105.jpg,white,brown,NA,NA,NA,NA,NA,NA,NA,NA,NA,NaN,NA,1417,left,1,NA,NA,NA,NA,NA
ua7whPr5,3fk4g712o0duz4m7qhicsa7sfszsso,36ahbnmv1vpngldsjzke4h5lzmmdyd,ua7whPr5,2020-0188,2021-10-30,23:35:42,01:23:54,NA,incomplete,false,NA,NA,true,2,11,NA,NA,NA,left,n_s_117.jpg,red,orange,NA,NA,NA,NA,NA,NA,NA,NA,NA,NaN,NA,1689.5999999996275,left,1,NA,NA,NA,NA,NA
ua7whPr5,3fk4g712o0duz4m7qhicsa7sfszsso,36ahbnmv1vpngldsjzke4h5lzmmdyd,ua7whPr5,2020-0188,2021-10-30,23:35:42,01:23:54,NA,incomplete,false,NA,NA,true,2,12,NA,NA,NA,right,m_s_084.jpg,brown,orange,NA,NA,NA,NA,NA,NA,NA,NA,NA,NaN,NA,1656.5999999996275,right,1,NA,NA,NA,NA,NA
ua7whPr5,3fk4g712o0duz4m7qhicsa7sfszsso,36ahbnmv1vpngldsjzke4h5lzmmdyd,ua7whPr5,2020-0188,2021-10-30,23:35:42,01:23:54,NA,incomplete,false,NA,NA,true,2,13,NA,NA,NA,left,m_s_049.jpg,black,white,NA,NA,NA,NA,NA,NA,NA,NA,NA,NaN,NA,4076,left,1,NA,NA,NA,NA,NA
ua7whPr5,3fk4g712o0duz4m7qhicsa7sfszsso,36ahbnmv1vpngldsjzke4h5lzmmdyd,ua7whPr5,2020-0188,2021-10-30,23:35:42,01:23:54,NA,incomplete,false,NA,NA,true,2,14,NA,NA,NA,left,n_s_055.jpg,brown,white,NA,NA,NA,NA,NA,NA,NA,NA,NA,NaN,NA,1423.0999999996275,left,1,NA,NA,NA,NA,NA
ua7whPr5,3fk4g712o0duz4m7qhicsa7sfszsso,36ahbnmv1vpngldsjzke4h5lzmmdyd,ua7whPr5,2020-0188,2021-10-30,23:35:42,01:23:54,NA,incomplete,false,NA,NA,true,2,15,NA,NA,NA,left,n_s_108.jpg,blue,red,NA,NA,NA,NA,NA,NA,NA,NA,NA,NaN,NA,1324.699999999255,left,1,NA,NA,NA,NA,NA
ua7whPr5,3fk4g712o0duz4m7qhicsa7sfszsso,36ahbnmv1vpngldsjzke4h5lzmmdyd,ua7whPr5,2020-0188,2021-10-30,23:35:42,01:23:54,NA,incomplete,false,NA,NA,true,2,16,NA,NA,NA,left,n_l_076.jpg,white,black,NA,NA,NA,NA,NA,NA,NA,NA,NA,NaN,NA,1469.300000000745,left,1,NA,NA,NA,NA,NA
ua7whPr5,3fk4g712o0duz4m7qhicsa7sfszsso,36ahbnmv1vpngldsjzke4h5lzmmdyd,ua7whPr5,2020-0188,2021-10-30,23:35:42,01:23:54,NA,incomplete,false,NA,NA,true,2,17,NA,NA,NA,right,n_s_008.jpg,orange,red,NA,NA,NA,NA,NA,NA,NA,NA,NA,NaN,NA,1917.1000000014901,right,1,NA,NA,NA,NA,NA
ua7whPr5,3fk4g712o0duz4m7qhicsa7sfszsso,36ahbnmv1vpngldsjzke4h5lzmmdyd,ua7whPr5,2020-0188,2021-10-30,23:35:42,01:23:54,NA,incomplete,false,NA,NA,true,2,18,NA,NA,NA,right,n_s_111.jpg,white,black,NA,NA,NA,NA,NA,NA,NA,NA,NA,NaN,NA,2167.2999999988824,right,1,NA,NA,NA,NA,NA
ua7whPr5,3fk4g712o0duz4m7qhicsa7sfszsso,36ahbnmv1vpngldsjzke4h5lzmmdyd,ua7whPr5,2020-0188,2021-10-30,23:35:42,01:23:54,NA,incomplete,false,NA,NA,true,2,19,NA,NA,NA,right,n_l_050.jpg,black,white,NA,NA,NA,NA,NA,NA,NA,NA,NA,NaN,NA,1330.300000000745,right,1,NA,NA,NA,NA,NA
ua7whPr5,3fk4g712o0duz4m7qhicsa7sfszsso,36ahbnmv1vpngldsjzke4h5lzmmdyd,ua7whPr5,2020-0188,2021-10-30,23:35:42,01:23:54,NA,incomplete,false,NA,NA,true,2,20,NA,NA,NA,left,m_l_012.jpg,brown,orange,NA,NA,NA,NA,NA,NA,NA,NA,NA,NaN,NA,2423.5,left,1,NA,NA,NA,NA,NA
ua7whPr5,3fk4g712o0duz4m7qhicsa7sfszsso,36ahbnmv1vpngldsjzke4h5lzmmdyd,ua7whPr5,2020-0188,2021-10-30,23:35:42,01:23:54,NA,incomplete,false,NA,NA,true,2,21,NA,NA,NA,left,m_s_082.jpg,brown,orange,NA,NA,NA,NA,NA,NA,NA,NA,NA,NaN,NA,1377.300000000745,left,1,NA,NA,NA,NA,NA
ua7whPr5,3fk4g712o0duz4m7qhicsa7sfszsso,36ahbnmv1vpngldsjzke4h5lzmmdyd,ua7whPr5,2020-0188,2021-10-30,23:35:42,01:23:54,NA,incomplete,false,NA,true,NA,2,0,NA,NA,NA,left,NA,NA,NA,present,NA,NA,m_s_049.jpg,black,n_s_098.jpg,black,within,NA,NaN,NA,NA,NA,NA,left,3451,1,0,839.5999999996275
ua7whPr5,3fk4g712o0duz4m7qhicsa7sfszsso,36ahbnmv1vpngldsjzke4h5lzmmdyd,ua7whPr5,2020-0188,2021-10-30,23:35:42,01:23:54,NA,incomplete,false,NA,true,NA,2,1,NA,NA,NA,left,NA,NA,NA,present,NA,NA,n_s_117.jpg,red,n_s_087.jpg,blue,between,NA,NaN,NA,NA,NA,NA,left,9318.700000001118,1,3,801
ua7whPr5,3fk4g712o0duz4m7qhicsa7sfszsso,36ahbnmv1vpngldsjzke4h5lzmmdyd,ua7whPr5,2020-0188,2021-10-30,23:35:42,01:23:54,NA,incomplete,false,NA,true,NA,2,2,NA,NA,NA,right,NA,NA,NA,present,NA,NA,n_l_050.jpg,white,n_l_076.jpg,white,within,NA,NaN,NA,NA,NA,NA,left,4652.4000000003725,0,0,989.2999999988824
ua7whPr5,3fk4g712o0duz4m7qhicsa7sfszsso,36ahbnmv1vpngldsjzke4h5lzmmdyd,ua7whPr5,2020-0188,2021-10-30,23:35:42,01:23:54,NA,incomplete,false,NA,true,NA,2,3,NA,NA,NA,left,NA,NA,NA,present,NA,NA,n_s_013.jpg,brown,m_l_012.jpg,brown,within,NA,NaN,NA,NA,NA,NA,right,2705.4000000003725,0,0,719.4000000003725
ua7whPr5,3fk4g712o0duz4m7qhicsa7sfszsso,36ahbnmv1vpngldsjzke4h5lzmmdyd,ua7whPr5,2020-0188,2021-10-30,23:35:42,01:23:54,NA,incomplete,false,NA,true,NA,2,4,NA,NA,NA,right,NA,NA,NA,present,NA,NA,m_s_015.jpg,red,n_s_008.jpg,red,within,NA,NaN,NA,NA,NA,NA,right,3821.5,1,0,919.5
ua7whPr5,3fk4g712o0duz4m7qhicsa7sfszsso,36ahbnmv1vpngldsjzke4h5lzmmdyd,ua7whPr5,2020-0188,2021-10-30,23:35:42,01:23:54,NA,incomplete,false,NA,true,NA,2,5,NA,NA,NA,right,NA,NA,NA,present,NA,NA,m_s_107.jpg,blue,n_s_108.jpg,blue,within,NA,NaN,NA,NA,NA,NA,right,2867.60000000149,1,0,806.5
ua7whPr5,3fk4g712o0duz4m7qhicsa7sfszsso,36ahbnmv1vpngldsjzke4h5lzmmdyd,ua7whPr5,2020-0188,2021-10-30,23:35:42,01:23:54,NA,incomplete,false,NA,true,NA,2,6,NA,NA,NA,right,NA,NA,NA,present,NA,NA,m_s_082.jpg,brown,m_s_095.jpg,white,between,NA,NaN,NA,NA,NA,NA,right,2324.300000000745,1,3,827
ua7whPr5,3fk4g712o0duz4m7qhicsa7sfszsso,36ahbnmv1vpngldsjzke4h5lzmmdyd,ua7whPr5,2020-0188,2021-10-30,23:35:42,01:23:54,NA,incomplete,false,NA,true,NA,2,7,NA,NA,NA,left,NA,NA,NA,present,NA,NA,m_s_060.jpg,orange,m_s_084.jpg,orange,within,NA,NaN,NA,NA,NA,NA,right,2105.7000000011176,0,0,1330.0999999996275
ua7whPr5,3fk4g712o0duz4m7qhicsa7sfszsso,36ahbnmv1vpngldsjzke4h5lzmmdyd,ua7whPr5,2020-0188,2021-10-30,23:35:42,01:23:54,NA,incomplete,false,NA,true,NA,2,8,NA,NA,NA,right,NA,NA,NA,present,NA,NA,m_l_105.jpg,white,n_s_111.jpg,black,between,NA,NaN,NA,NA,NA,NA,right,2359.5,1,2,1573.2000000011176
ua7whPr5,3fk4g712o0duz4m7qhicsa7sfszsso,36ahbnmv1vpngldsjzke4h5lzmmdyd,ua7whPr5,2020-0188,2021-10-30,23:35:42,01:23:54,NA,incomplete,false,NA,true,NA,2,9,NA,NA,NA,right,NA,NA,NA,present,NA,NA,n_l_083.jpg,orange,n_s_055.jpg,brown,between,NA,NaN,NA,NA,NA,NA,right,5220.5999999996275,1,2,2031
ua7whPr5,3fk4g712o0duz4m7qhicsa7sfszsso,36ahbnmv1vpngldsjzke4h5lzmmdyd,ua7whPr5,2020-0188,2021-10-30,23:35:42,01:23:54,NA,incomplete,false,NA,true,NA,2,10,NA,NA,NA,right,NA,NA,NA,present,NA,NA,n_s_014.jpg,red,n_s_022.jpg,orange,between,NA,NaN,NA,NA,NA,NA,left,7917.0999999996275,0,2,1137.7000000011176
ua7whPr5,3fk4g712o0duz4m7qhicsa7sfszsso,36ahbnmv1vpngldsjzke4h5lzmmdyd,ua7whPr5,2020-0188,2021-10-30,23:35:42,01:23:54,NA,incomplete,false,true,NA,NA,3,0,NA,yellow,n_s_096.jpg,NA,NA,NA,NA,NA,unpleasant,pleasant,NA,NA,NA,NA,NA,none,0,false,NA,NA,NA,NA,NA,NA,NA,NA
ua7whPr5,3fk4g712o0duz4m7qhicsa7sfszsso,36ahbnmv1vpngldsjzke4h5lzmmdyd,ua7whPr5,2020-0188,2021-10-30,23:35:42,01:23:54,NA,incomplete,false,true,NA,NA,3,1,NA,yellow,n_s_053.jpg,NA,NA,NA,NA,NA,pleasant,unpleasant,NA,NA,NA,NA,NA,left,2194.59999999963,true,NA,NA,NA,NA,NA,NA,NA,NA
ua7whPr5,3fk4g712o0duz4m7qhicsa7sfszsso,36ahbnmv1vpngldsjzke4h5lzmmdyd,ua7whPr5,2020-0188,2021-10-30,23:35:42,01:23:54,NA,incomplete,false,true,NA,NA,3,2,NA,yellow,m_s_032.jpg,NA,NA,NA,NA,NA,unpleasant,pleasant,NA,NA,NA,NA,NA,none,0,false,NA,NA,NA,NA,NA,NA,NA,NA
ua7whPr5,3fk4g712o0duz4m7qhicsa7sfszsso,36ahbnmv1vpngldsjzke4h5lzmmdyd,ua7whPr5,2020-0188,2021-10-30,23:35:42,01:23:54,NA,incomplete,false,true,NA,NA,3,3,NA,yellow,n_l_086.jpg,NA,NA,NA,NA,NA,unpleasant,pleasant,NA,NA,NA,NA,NA,left,1137.09999999963,true,NA,NA,NA,NA,NA,NA,NA,NA
ua7whPr5,3fk4g712o0duz4m7qhicsa7sfszsso,36ahbnmv1vpngldsjzke4h5lzmmdyd,ua7whPr5,2020-0188,2021-10-30,23:35:42,01:23:54,NA,incomplete,false,true,NA,NA,3,4,NA,yellow,n_s_010.jpg,NA,NA,NA,NA,NA,pleasant,unpleasant,NA,NA,NA,NA,NA,left,1527.69999999925,true,NA,NA,NA,NA,NA,NA,NA,NA
ua7whPr5,3fk4g712o0duz4m7qhicsa7sfszsso,36ahbnmv1vpngldsjzke4h5lzmmdyd,ua7whPr5,2020-0188,2021-10-30,23:35:42,01:23:54,NA,incomplete,false,true,NA,NA,3,5,NA,yellow,n_l_092.jpg,NA,NA,NA,NA,NA,unpleasant,pleasant,NA,NA,NA,NA,NA,left,1580.70000000112,true,NA,NA,NA,NA,NA,NA,NA,NA
ua7whPr5,3fk4g712o0duz4m7qhicsa7sfszsso,36ahbnmv1vpngldsjzke4h5lzmmdyd,ua7whPr5,2020-0188,2021-10-30,23:35:42,01:23:54,NA,incomplete,false,true,NA,NA,3,6,NA,white,m_s_094.jpg,NA,NA,NA,NA,NA,unpleasant,pleasant,NA,NA,NA,NA,NA,none,0,false,NA,NA,NA,NA,NA,NA,NA,NA
ua7whPr5,3fk4g712o0duz4m7qhicsa7sfszsso,36ahbnmv1vpngldsjzke4h5lzmmdyd,ua7whPr5,2020-0188,2021-10-30,23:35:42,01:23:54,NA,incomplete,false,true,NA,NA,3,7,NA,white,m_l_016.jpg,NA,NA,NA,NA,NA,pleasant,unpleasant,NA,NA,NA,NA,NA,left,2083.19999999925,true,NA,NA,NA,NA,NA,NA,NA,NA
ua7whPr5,3fk4g712o0duz4m7qhicsa7sfszsso,36ahbnmv1vpngldsjzke4h5lzmmdyd,ua7whPr5,2020-0188,2021-10-30,23:35:42,01:23:54,NA,incomplete,false,true,NA,NA,3,8,NA,white,m_s_069.jpg,NA,NA,NA,NA,NA,pleasant,unpleasant,NA,NA,NA,NA,NA,left,1239.39999999851,true,NA,NA,NA,NA,NA,NA,NA,NA
ua7whPr5,3fk4g712o0duz4m7qhicsa7sfszsso,36ahbnmv1vpngldsjzke4h5lzmmdyd,ua7whPr5,2020-0188,2021-10-30,23:35:42,01:23:54,NA,incomplete,false,true,NA,NA,3,9,NA,white,m_s_100.jpg,NA,NA,NA,NA,NA,unpleasant,pleasant,NA,NA,NA,NA,NA,none,0,false,NA,NA,NA,NA,NA,NA,NA,NA
ua7whPr5,3fk4g712o0duz4m7qhicsa7sfszsso,36ahbnmv1vpngldsjzke4h5lzmmdyd,ua7whPr5,2020-0188,2021-10-30,23:35:42,01:23:54,NA,incomplete,false,true,NA,NA,3,10,NA,white,n_s_049.jpg,NA,NA,NA,NA,NA,unpleasant,pleasant,NA,NA,NA,NA,NA,left,1355.5,true,NA,NA,NA,NA,NA,NA,NA,NA
ua7whPr5,3fk4g712o0duz4m7qhicsa7sfszsso,36ahbnmv1vpngldsjzke4h5lzmmdyd,ua7whPr5,2020-0188,2021-10-30,23:35:42,01:23:54,NA,incomplete,false,true,NA,NA,3,11,NA,white,n_l_078.jpg,NA,NA,NA,NA,NA,unpleasant,pleasant,NA,NA,NA,NA,NA,none,0,false,NA,NA,NA,NA,NA,NA,NA,NA
ua7whPr5,3fk4g712o0duz4m7qhicsa7sfszsso,36ahbnmv1vpngldsjzke4h5lzmmdyd,ua7whPr5,2020-0188,2021-10-30,23:35:42,01:23:54,NA,incomplete,false,true,NA,NA,3,12,NA,brown,n_s_045.jpg,NA,NA,NA,NA,NA,pleasant,unpleasant,NA,NA,NA,NA,NA,left,1541.79999999888,true,NA,NA,NA,NA,NA,NA,NA,NA
ua7whPr5,3fk4g712o0duz4m7qhicsa7sfszsso,36ahbnmv1vpngldsjzke4h5lzmmdyd,ua7whPr5,2020-0188,2021-10-30,23:35:42,01:23:54,NA,incomplete,false,true,NA,NA,3,13,NA,brown,n_l_080.jpg,NA,NA,NA,NA,NA,unpleasant,pleasant,NA,NA,NA,NA,NA,none,0,false,NA,NA,NA,NA,NA,NA,NA,NA
ua7whPr5,3fk4g712o0duz4m7qhicsa7sfszsso,36ahbnmv1vpngldsjzke4h5lzmmdyd,ua7whPr5,2020-0188,2021-10-30,23:35:42,01:23:54,NA,incomplete,false,true,NA,NA,3,14,NA,brown,m_l_113.jpg,NA,NA,NA,NA,NA,pleasant,unpleasant,NA,NA,NA,NA,NA,none,0,false,NA,NA,NA,NA,NA,NA,NA,NA
ua7whPr5,3fk4g712o0duz4m7qhicsa7sfszsso,36ahbnmv1vpngldsjzke4h5lzmmdyd,ua7whPr5,2020-0188,2021-10-30,23:35:42,01:23:54,NA,incomplete,false,true,NA,NA,3,15,NA,brown,n_l_010.jpg,NA,NA,NA,NA,NA,unpleasant,pleasant,NA,NA,NA,NA,NA,none,0,false,NA,NA,NA,NA,NA,NA,NA,NA
ua7whPr5,3fk4g712o0duz4m7qhicsa7sfszsso,36ahbnmv1vpngldsjzke4h5lzmmdyd,ua7whPr5,2020-0188,2021-10-30,23:35:42,01:23:54,NA,incomplete,false,true,NA,NA,3,16,NA,brown,n_s_090.jpg,NA,NA,NA,NA,NA,unpleasant,pleasant,NA,NA,NA,NA,NA,left,1400,true,NA,NA,NA,NA,NA,NA,NA,NA
ua7whPr5,3fk4g712o0duz4m7qhicsa7sfszsso,36ahbnmv1vpngldsjzke4h5lzmmdyd,ua7whPr5,2020-0188,2021-10-30,23:35:42,01:23:54,NA,incomplete,false,true,NA,NA,3,17,NA,brown,n_s_048.jpg,NA,NA,NA,NA,NA,pleasant,unpleasant,NA,NA,NA,NA,NA,left,1539.69999999925,true,NA,NA,NA,NA,NA,NA,NA,NA
ua7whPr5,3fk4g712o0duz4m7qhicsa7sfszsso,36ahbnmv1vpngldsjzke4h5lzmmdyd,ua7whPr5,2020-0188,2021-10-30,23:35:42,01:23:54,NA,incomplete,false,true,NA,NA,3,18,NA,blue,n_l_018.jpg,NA,NA,NA,NA,NA,unpleasant,pleasant,NA,NA,NA,NA,NA,left,1927.30000000075,true,NA,NA,NA,NA,NA,NA,NA,NA
ua7whPr5,3fk4g712o0duz4m7qhicsa7sfszsso,36ahbnmv1vpngldsjzke4h5lzmmdyd,ua7whPr5,2020-0188,2021-10-30,23:35:42,01:23:54,NA,incomplete,false,true,NA,NA,3,19,NA,blue,m_l_082.jpg,NA,NA,NA,NA,NA,unpleasant,pleasant,NA,NA,NA,NA,NA,left,1345,true,NA,NA,NA,NA,NA,NA,NA,NA
ua7whPr5,3fk4g712o0duz4m7qhicsa7sfszsso,36ahbnmv1vpngldsjzke4h5lzmmdyd,ua7whPr5,2020-0188,2021-10-30,23:35:42,01:23:54,NA,incomplete,false,true,NA,NA,3,20,NA,blue,m_s_098.jpg,NA,NA,NA,NA,NA,unpleasant,pleasant,NA,NA,NA,NA,NA,none,0,false,NA,NA,NA,NA,NA,NA,NA,NA
ua7whPr5,3fk4g712o0duz4m7qhicsa7sfszsso,36ahbnmv1vpngldsjzke4h5lzmmdyd,ua7whPr5,2020-0188,2021-10-30,23:35:42,01:23:54,NA,incomplete,false,true,NA,NA,3,21,NA,blue,m_s_038.jpg,NA,NA,NA,NA,NA,unpleasant,pleasant,NA,NA,NA,NA,NA,left,1280.59999999963,true,NA,NA,NA,NA,NA,NA,NA,NA
ua7whPr5,3fk4g712o0duz4m7qhicsa7sfszsso,36ahbnmv1vpngldsjzke4h5lzmmdyd,ua7whPr5,2020-0188,2021-10-30,23:35:42,01:23:54,NA,incomplete,false,true,NA,NA,3,22,NA,blue,m_l_052.jpg,NA,NA,NA,NA,NA,pleasant,unpleasant,NA,NA,NA,NA,NA,none,0,false,NA,NA,NA,NA,NA,NA,NA,NA
ua7whPr5,3fk4g712o0duz4m7qhicsa7sfszsso,36ahbnmv1vpngldsjzke4h5lzmmdyd,ua7whPr5,2020-0188,2021-10-30,23:35:42,01:23:54,NA,incomplete,false,true,NA,NA,3,23,NA,blue,n_s_040.jpg,NA,NA,NA,NA,NA,pleasant,unpleasant,NA,NA,NA,NA,NA,none,0,false,NA,NA,NA,NA,NA,NA,NA,NA
ua7whPr5,3fk4g712o0duz4m7qhicsa7sfszsso,36ahbnmv1vpngldsjzke4h5lzmmdyd,ua7whPr5,2020-0188,2021-10-30,23:35:42,01:23:54,NA,incomplete,false,true,NA,NA,3,24,NA,black,n_l_109.jpg,NA,NA,NA,NA,NA,unpleasant,pleasant,NA,NA,NA,NA,NA,none,0,false,NA,NA,NA,NA,NA,NA,NA,NA
ua7whPr5,3fk4g712o0duz4m7qhicsa7sfszsso,36ahbnmv1vpngldsjzke4h5lzmmdyd,ua7whPr5,2020-0188,2021-10-30,23:35:42,01:23:54,NA,incomplete,false,true,NA,NA,3,25,NA,black,m_s_017.jpg,NA,NA,NA,NA,NA,pleasant,unpleasant,NA,NA,NA,NA,NA,none,0,false,NA,NA,NA,NA,NA,NA,NA,NA
ua7whPr5,3fk4g712o0duz4m7qhicsa7sfszsso,36ahbnmv1vpngldsjzke4h5lzmmdyd,ua7whPr5,2020-0188,2021-10-30,23:35:42,01:23:54,NA,incomplete,false,true,NA,NA,3,26,NA,black,m_s_050.jpg,NA,NA,NA,NA,NA,pleasant,unpleasant,NA,NA,NA,NA,NA,none,0,false,NA,NA,NA,NA,NA,NA,NA,NA
ua7whPr5,3fk4g712o0duz4m7qhicsa7sfszsso,36ahbnmv1vpngldsjzke4h5lzmmdyd,ua7whPr5,2020-0188,2021-10-30,23:35:42,01:23:54,NA,incomplete,false,true,NA,NA,3,27,NA,black,n_s_106.jpg,NA,NA,NA,NA,NA,unpleasant,pleasant,NA,NA,NA,NA,NA,left,1583,true,NA,NA,NA,NA,NA,NA,NA,NA
ua7whPr5,3fk4g712o0duz4m7qhicsa7sfszsso,36ahbnmv1vpngldsjzke4h5lzmmdyd,ua7whPr5,2020-0188,2021-10-30,23:35:42,01:23:54,NA,incomplete,false,true,NA,NA,3,28,NA,black,m_s_054.jpg,NA,NA,NA,NA,NA,pleasant,unpleasant,NA,NA,NA,NA,NA,none,0,false,NA,NA,NA,NA,NA,NA,NA,NA
ua7whPr5,3fk4g712o0duz4m7qhicsa7sfszsso,36ahbnmv1vpngldsjzke4h5lzmmdyd,ua7whPr5,2020-0188,2021-10-30,23:35:42,01:23:54,NA,incomplete,false,true,NA,NA,3,29,NA,black,n_s_030.jpg,NA,NA,NA,NA,NA,pleasant,unpleasant,NA,NA,NA,NA,NA,none,0,false,NA,NA,NA,NA,NA,NA,NA,NA
ua7whPr5,3fk4g712o0duz4m7qhicsa7sfszsso,36ahbnmv1vpngldsjzke4h5lzmmdyd,ua7whPr5,2020-0188,2021-10-30,23:35:42,01:23:54,NA,incomplete,false,true,NA,NA,3,30,NA,orange,n_l_099.jpg,NA,NA,NA,NA,NA,pleasant,unpleasant,NA,NA,NA,NA,NA,left,2500.5,true,NA,NA,NA,NA,NA,NA,NA,NA
ua7whPr5,3fk4g712o0duz4m7qhicsa7sfszsso,36ahbnmv1vpngldsjzke4h5lzmmdyd,ua7whPr5,2020-0188,2021-10-30,23:35:42,01:23:54,NA,incomplete,false,true,NA,NA,3,31,NA,orange,n_s_057.jpg,NA,NA,NA,NA,NA,unpleasant,pleasant,NA,NA,NA,NA,NA,none,0,false,NA,NA,NA,NA,NA,NA,NA,NA
ua7whPr5,3fk4g712o0duz4m7qhicsa7sfszsso,36ahbnmv1vpngldsjzke4h5lzmmdyd,ua7whPr5,2020-0188,2021-10-30,23:35:42,01:23:54,NA,incomplete,false,true,NA,NA,3,32,NA,orange,m_s_059.jpg,NA,NA,NA,NA,NA,pleasant,unpleasant,NA,NA,NA,NA,NA,none,0,false,NA,NA,NA,NA,NA,NA,NA,NA
ua7whPr5,3fk4g712o0duz4m7qhicsa7sfszsso,36ahbnmv1vpngldsjzke4h5lzmmdyd,ua7whPr5,2020-0188,2021-10-30,23:35:42,01:23:54,NA,incomplete,false,true,NA,NA,3,33,NA,orange,n_s_069.jpg,NA,NA,NA,NA,NA,pleasant,unpleasant,NA,NA,NA,NA,NA,left,2062.59999999963,true,NA,NA,NA,NA,NA,NA,NA,NA
ua7whPr5,3fk4g712o0duz4m7qhicsa7sfszsso,36ahbnmv1vpngldsjzke4h5lzmmdyd,ua7whPr5,2020-0188,2021-10-30,23:35:42,01:23:54,NA,incomplete,false,true,NA,NA,3,34,NA,orange,m_s_006.jpg,NA,NA,NA,NA,NA,pleasant,unpleasant,NA,NA,NA,NA,NA,none,0,false,NA,NA,NA,NA,NA,NA,NA,NA
ua7whPr5,3fk4g712o0duz4m7qhicsa7sfszsso,36ahbnmv1vpngldsjzke4h5lzmmdyd,ua7whPr5,2020-0188,2021-10-30,23:35:42,01:23:54,NA,incomplete,false,true,NA,NA,3,35,NA,orange,n_s_036.jpg,NA,NA,NA,NA,NA,pleasant,unpleasant,NA,NA,NA,NA,NA,none,0,false,NA,NA,NA,NA,NA,NA,NA,NA
ua7whPr5,3fk4g712o0duz4m7qhicsa7sfszsso,36ahbnmv1vpngldsjzke4h5lzmmdyd,ua7whPr5,2020-0188,2021-10-30,23:35:42,01:23:54,NA,incomplete,false,NA,NA,true,3,0,NA,NA,NA,left,n_l_080.jpg,brown,white,NA,NA,NA,NA,NA,NA,NA,NA,NA,NaN,NA,1999.199999999255,left,1,NA,NA,NA,NA,NA
ua7whPr5,3fk4g712o0duz4m7qhicsa7sfszsso,36ahbnmv1vpngldsjzke4h5lzmmdyd,ua7whPr5,2020-0188,2021-10-30,23:35:42,01:23:54,NA,incomplete,false,NA,NA,true,3,1,NA,NA,NA,left,m_s_017.jpg,black,orange,NA,NA,NA,NA,NA,NA,NA,NA,NA,NaN,NA,2139.2000000011176,left,1,NA,NA,NA,NA,NA
ua7whPr5,3fk4g712o0duz4m7qhicsa7sfszsso,36ahbnmv1vpngldsjzke4h5lzmmdyd,ua7whPr5,2020-0188,2021-10-30,23:35:42,01:23:54,NA,incomplete,false,NA,NA,true,3,2,NA,NA,NA,left,n_s_010.jpg,yellow,white,NA,NA,NA,NA,NA,NA,NA,NA,NA,NaN,NA,1799.3999999985099,left,1,NA,NA,NA,NA,NA
ua7whPr5,3fk4g712o0duz4m7qhicsa7sfszsso,36ahbnmv1vpngldsjzke4h5lzmmdyd,ua7whPr5,2020-0188,2021-10-30,23:35:42,01:23:54,NA,incomplete,false,NA,NA,true,3,3,NA,NA,NA,left,m_l_082.jpg,blue,brown,NA,NA,NA,NA,NA,NA,NA,NA,NA,NaN,NA,1609.300000000745,left,1,NA,NA,NA,NA,NA
ua7whPr5,3fk4g712o0duz4m7qhicsa7sfszsso,36ahbnmv1vpngldsjzke4h5lzmmdyd,ua7whPr5,2020-0188,2021-10-30,23:35:42,01:23:54,NA,incomplete,false,NA,NA,true,3,4,NA,NA,NA,right,n_s_048.jpg,white,brown,NA,NA,NA,NA,NA,NA,NA,NA,NA,NaN,NA,1603.2000000011176,right,1,NA,NA,NA,NA,NA
ua7whPr5,3fk4g712o0duz4m7qhicsa7sfszsso,36ahbnmv1vpngldsjzke4h5lzmmdyd,ua7whPr5,2020-0188,2021-10-30,23:35:42,01:23:54,NA,incomplete,false,NA,NA,true,3,5,NA,NA,NA,left,m_l_052.jpg,blue,black,NA,NA,NA,NA,NA,NA,NA,NA,NA,NaN,NA,1465.7000000011176,left,1,NA,NA,NA,NA,NA
ua7whPr5,3fk4g712o0duz4m7qhicsa7sfszsso,36ahbnmv1vpngldsjzke4h5lzmmdyd,ua7whPr5,2020-0188,2021-10-30,23:35:42,01:23:54,NA,incomplete,false,NA,NA,true,3,6,NA,NA,NA,left,n_l_092.jpg,yellow,white,NA,NA,NA,NA,NA,NA,NA,NA,NA,NaN,NA,1353.300000000745,left,1,NA,NA,NA,NA,NA
ua7whPr5,3fk4g712o0duz4m7qhicsa7sfszsso,36ahbnmv1vpngldsjzke4h5lzmmdyd,ua7whPr5,2020-0188,2021-10-30,23:35:42,01:23:54,NA,incomplete,false,NA,NA,true,3,7,NA,NA,NA,right,n_s_030.jpg,blue,black,NA,NA,NA,NA,NA,NA,NA,NA,NA,NaN,NA,1387.0999999996275,right,1,NA,NA,NA,NA,NA
ua7whPr5,3fk4g712o0duz4m7qhicsa7sfszsso,36ahbnmv1vpngldsjzke4h5lzmmdyd,ua7whPr5,2020-0188,2021-10-30,23:35:42,01:23:54,NA,incomplete,false,NA,NA,true,3,8,NA,NA,NA,right,m_s_069.jpg,brown,white,NA,NA,NA,NA,NA,NA,NA,NA,NA,NaN,NA,1244.300000000745,right,1,NA,NA,NA,NA,NA
ua7whPr5,3fk4g712o0duz4m7qhicsa7sfszsso,36ahbnmv1vpngldsjzke4h5lzmmdyd,ua7whPr5,2020-0188,2021-10-30,23:35:42,01:23:54,NA,incomplete,false,NA,NA,true,3,9,NA,NA,NA,right,m_s_050.jpg,blue,black,NA,NA,NA,NA,NA,NA,NA,NA,NA,NaN,NA,1771.5999999996275,left,0,NA,NA,NA,NA,NA
ua7whPr5,3fk4g712o0duz4m7qhicsa7sfszsso,36ahbnmv1vpngldsjzke4h5lzmmdyd,ua7whPr5,2020-0188,2021-10-30,23:35:42,01:23:54,NA,incomplete,false,NA,NA,true,3,10,NA,NA,NA,left,n_s_040.jpg,blue,black,NA,NA,NA,NA,NA,NA,NA,NA,NA,NaN,NA,1693.2000000011176,left,1,NA,NA,NA,NA,NA
ua7whPr5,3fk4g712o0duz4m7qhicsa7sfszsso,36ahbnmv1vpngldsjzke4h5lzmmdyd,ua7whPr5,2020-0188,2021-10-30,23:35:42,01:23:54,NA,incomplete,false,NA,NA,true,3,11,NA,NA,NA,right,n_s_049.jpg,brown,white,NA,NA,NA,NA,NA,NA,NA,NA,NA,NaN,NA,2492.5,right,1,NA,NA,NA,NA,NA
ua7whPr5,3fk4g712o0duz4m7qhicsa7sfszsso,36ahbnmv1vpngldsjzke4h5lzmmdyd,ua7whPr5,2020-0188,2021-10-30,23:35:42,01:23:54,NA,incomplete,false,NA,NA,true,3,12,NA,NA,NA,right,m_l_113.jpg,blue,brown,NA,NA,NA,NA,NA,NA,NA,NA,NA,NaN,NA,1763.300000000745,left,0,NA,NA,NA,NA,NA
ua7whPr5,3fk4g712o0duz4m7qhicsa7sfszsso,36ahbnmv1vpngldsjzke4h5lzmmdyd,ua7whPr5,2020-0188,2021-10-30,23:35:42,01:23:54,NA,incomplete,false,NA,NA,true,3,13,NA,NA,NA,left,m_l_016.jpg,white,yellow,NA,NA,NA,NA,NA,NA,NA,NA,NA,NaN,NA,1695.7000000011176,left,1,NA,NA,NA,NA,NA
ua7whPr5,3fk4g712o0duz4m7qhicsa7sfszsso,36ahbnmv1vpngldsjzke4h5lzmmdyd,ua7whPr5,2020-0188,2021-10-30,23:35:42,01:23:54,NA,incomplete,false,NA,NA,true,3,14,NA,NA,NA,right,m_s_054.jpg,orange,black,NA,NA,NA,NA,NA,NA,NA,NA,NA,NaN,NA,1209.4000000003725,right,1,NA,NA,NA,NA,NA
ua7whPr5,3fk4g712o0duz4m7qhicsa7sfszsso,36ahbnmv1vpngldsjzke4h5lzmmdyd,ua7whPr5,2020-0188,2021-10-30,23:35:42,01:23:54,NA,incomplete,false,NA,NA,true,3,15,NA,NA,NA,left,m_s_059.jpg,orange,black,NA,NA,NA,NA,NA,NA,NA,NA,NA,NaN,NA,1610.699999999255,left,1,NA,NA,NA,NA,NA
ua7whPr5,3fk4g712o0duz4m7qhicsa7sfszsso,36ahbnmv1vpngldsjzke4h5lzmmdyd,ua7whPr5,2020-0188,2021-10-30,23:35:42,01:23:54,NA,incomplete,false,NA,NA,true,3,16,NA,NA,NA,right,n_l_078.jpg,yellow,white,NA,NA,NA,NA,NA,NA,NA,NA,NA,NaN,NA,1341.5,right,1,NA,NA,NA,NA,NA
ua7whPr5,3fk4g712o0duz4m7qhicsa7sfszsso,36ahbnmv1vpngldsjzke4h5lzmmdyd,ua7whPr5,2020-0188,2021-10-30,23:35:42,01:23:54,NA,incomplete,false,NA,NA,true,3,17,NA,NA,NA,left,m_s_098.jpg,blue,brown,NA,NA,NA,NA,NA,NA,NA,NA,NA,NaN,NA,2025,left,1,NA,NA,NA,NA,NA
ua7whPr5,3fk4g712o0duz4m7qhicsa7sfszsso,36ahbnmv1vpngldsjzke4h5lzmmdyd,ua7whPr5,2020-0188,2021-10-30,23:35:42,01:23:54,NA,incomplete,false,NA,NA,true,3,18,NA,NA,NA,left,n_s_036.jpg,orange,black,NA,NA,NA,NA,NA,NA,NA,NA,NA,NaN,NA,1343.0999999996275,right,0,NA,NA,NA,NA,NA
ua7whPr5,3fk4g712o0duz4m7qhicsa7sfszsso,36ahbnmv1vpngldsjzke4h5lzmmdyd,ua7whPr5,2020-0188,2021-10-30,23:35:42,01:23:54,NA,incomplete,false,NA,NA,true,3,19,NA,NA,NA,right,n_s_090.jpg,blue,brown,NA,NA,NA,NA,NA,NA,NA,NA,NA,NaN,NA,2138.699999999255,right,1,NA,NA,NA,NA,NA
ua7whPr5,3fk4g712o0duz4m7qhicsa7sfszsso,36ahbnmv1vpngldsjzke4h5lzmmdyd,ua7whPr5,2020-0188,2021-10-30,23:35:42,01:23:54,NA,incomplete,false,NA,NA,true,3,20,NA,NA,NA,left,n_s_057.jpg,orange,black,NA,NA,NA,NA,NA,NA,NA,NA,NA,NaN,NA,3464.0999999996275,right,0,NA,NA,NA,NA,NA
ua7whPr5,3fk4g712o0duz4m7qhicsa7sfszsso,36ahbnmv1vpngldsjzke4h5lzmmdyd,ua7whPr5,2020-0188,2021-10-30,23:35:42,01:23:54,NA,incomplete,false,NA,NA,true,3,21,NA,NA,NA,right,n_s_053.jpg,white,yellow,NA,NA,NA,NA,NA,NA,NA,NA,NA,NaN,NA,1605.5999999996275,right,1,NA,NA,NA,NA,NA
ua7whPr5,3fk4g712o0duz4m7qhicsa7sfszsso,36ahbnmv1vpngldsjzke4h5lzmmdyd,ua7whPr5,2020-0188,2021-10-30,23:35:42,01:23:54,NA,incomplete,false,NA,true,NA,3,0,NA,NA,NA,right,NA,NA,NA,present,NA,NA,n_l_078.jpg,white,m_l_016.jpg,white,within,NA,NaN,NA,NA,NA,NA,left,2703.699999999255,0,0,1529.300000000745
ua7whPr5,3fk4g712o0duz4m7qhicsa7sfszsso,36ahbnmv1vpngldsjzke4h5lzmmdyd,ua7whPr5,2020-0188,2021-10-30,23:35:42,01:23:54,NA,incomplete,false,NA,true,NA,3,1,NA,NA,NA,right,NA,NA,NA,present,NA,NA,m_s_050.jpg,black,m_l_052.jpg,blue,between,NA,NaN,NA,NA,NA,NA,right,4439.5,1,3,1611
ua7whPr5,3fk4g712o0duz4m7qhicsa7sfszsso,36ahbnmv1vpngldsjzke4h5lzmmdyd,ua7whPr5,2020-0188,2021-10-30,23:35:42,01:23:54,NA,incomplete,false,NA,true,NA,3,2,NA,NA,NA,left,NA,NA,NA,present,NA,NA,m_l_082.jpg,blue,n_s_040.jpg,blue,within,NA,NaN,NA,NA,NA,NA,left,2221.5,1,0,1179.2999999988824
ua7whPr5,3fk4g712o0duz4m7qhicsa7sfszsso,36ahbnmv1vpngldsjzke4h5lzmmdyd,ua7whPr5,2020-0188,2021-10-30,23:35:42,01:23:54,NA,incomplete,false,NA,true,NA,3,3,NA,NA,NA,right,NA,NA,NA,present,NA,NA,m_s_069.jpg,white,n_s_010.jpg,yellow,between,NA,NaN,NA,NA,NA,NA,right,2318.2999999988824,1,2,1837.6000000014901
ua7whPr5,3fk4g712o0duz4m7qhicsa7sfszsso,36ahbnmv1vpngldsjzke4h5lzmmdyd,ua7whPr5,2020-0188,2021-10-30,23:35:42,01:23:54,NA,incomplete,false,NA,true,NA,3,4,NA,NA,NA,right,NA,NA,NA,present,NA,NA,n_s_048.jpg,brown,n_l_080.jpg,brown,within,NA,NaN,NA,NA,NA,NA,right,4253.699999999255,1,0,881.0999999996275
ua7whPr5,3fk4g712o0duz4m7qhicsa7sfszsso,36ahbnmv1vpngldsjzke4h5lzmmdyd,ua7whPr5,2020-0188,2021-10-30,23:35:42,01:23:54,NA,incomplete,false,NA,true,NA,3,5,NA,NA,NA,right,NA,NA,NA,present,NA,NA,n_l_092.jpg,yellow,n_s_053.jpg,yellow,within,NA,NaN,NA,NA,NA,NA,right,2645.5999999996275,1,0,893.3999999985099
ua7whPr5,3fk4g712o0duz4m7qhicsa7sfszsso,36ahbnmv1vpngldsjzke4h5lzmmdyd,ua7whPr5,2020-0188,2021-10-30,23:35:42,01:23:54,NA,incomplete,false,NA,true,NA,3,6,NA,NA,NA,right,NA,NA,NA,present,NA,NA,n_s_030.jpg,black,m_s_017.jpg,black,within,NA,NaN,NA,NA,NA,NA,right,3434.199999999255,1,0,1414.9000000003725
ua7whPr5,3fk4g712o0duz4m7qhicsa7sfszsso,36ahbnmv1vpngldsjzke4h5lzmmdyd,ua7whPr5,2020-0188,2021-10-30,23:35:42,01:23:54,NA,incomplete,false,NA,true,NA,3,7,NA,NA,NA,right,NA,NA,NA,present,NA,NA,m_l_113.jpg,brown,n_s_049.jpg,white,between,NA,NaN,NA,NA,NA,NA,right,3019.5,1,2,2283.300000000745
ua7whPr5,3fk4g712o0duz4m7qhicsa7sfszsso,36ahbnmv1vpngldsjzke4h5lzmmdyd,ua7whPr5,2020-0188,2021-10-30,23:35:42,01:23:54,NA,incomplete,false,NA,true,NA,3,8,NA,NA,NA,right,NA,NA,NA,present,NA,NA,n_s_036.jpg,orange,n_s_057.jpg,orange,within,NA,NaN,NA,NA,NA,NA,left,2318.5,0,1,867
ua7whPr5,3fk4g712o0duz4m7qhicsa7sfszsso,36ahbnmv1vpngldsjzke4h5lzmmdyd,ua7whPr5,2020-0188,2021-10-30,23:35:42,01:23:54,NA,incomplete,false,NA,true,NA,3,9,NA,NA,NA,left,NA,NA,NA,present,NA,NA,n_s_090.jpg,brown,m_s_098.jpg,blue,between,NA,NaN,NA,NA,NA,NA,left,2816,1,2,949.3000000007451
ua7whPr5,3fk4g712o0duz4m7qhicsa7sfszsso,36ahbnmv1vpngldsjzke4h5lzmmdyd,ua7whPr5,2020-0188,2021-10-30,23:35:42,01:23:54,NA,incomplete,false,NA,true,NA,3,10,NA,NA,NA,right,NA,NA,NA,present,NA,NA,m_s_059.jpg,orange,m_s_054.jpg,black,between,NA,NaN,NA,NA,NA,NA,right,2746.9000000003725,1,2,1123.2999999988824
ua7whPr5,3fk4g712o0duz4m7qhicsa7sfszsso,36ahbnmv1vpngldsjzke4h5lzmmdyd,ua7whPr5,2020-0188,2021-10-30,23:35:42,01:23:54,NA,incomplete,false,true,NA,NA,4,0,NA,red,m_s_036.jpg,NA,NA,NA,NA,NA,unpleasant,pleasant,NA,NA,NA,NA,NA,left,1697.30000000075,true,NA,NA,NA,NA,NA,NA,NA,NA
ua7whPr5,3fk4g712o0duz4m7qhicsa7sfszsso,36ahbnmv1vpngldsjzke4h5lzmmdyd,ua7whPr5,2020-0188,2021-10-30,23:35:42,01:23:54,NA,incomplete,false,true,NA,NA,4,1,NA,red,m_l_024.jpg,NA,NA,NA,NA,NA,unpleasant,pleasant,NA,NA,NA,NA,NA,left,1297.70000000112,true,NA,NA,NA,NA,NA,NA,NA,NA
ua7whPr5,3fk4g712o0duz4m7qhicsa7sfszsso,36ahbnmv1vpngldsjzke4h5lzmmdyd,ua7whPr5,2020-0188,2021-10-30,23:35:42,01:23:54,NA,incomplete,false,true,NA,NA,4,2,NA,red,n_l_081.jpg,NA,NA,NA,NA,NA,unpleasant,pleasant,NA,NA,NA,NA,NA,left,904.800000000745,true,NA,NA,NA,NA,NA,NA,NA,NA
ua7whPr5,3fk4g712o0duz4m7qhicsa7sfszsso,36ahbnmv1vpngldsjzke4h5lzmmdyd,ua7whPr5,2020-0188,2021-10-30,23:35:42,01:23:54,NA,incomplete,false,true,NA,NA,4,3,NA,red,m_s_052.jpg,NA,NA,NA,NA,NA,pleasant,unpleasant,NA,NA,NA,NA,NA,right,1603.30000000075,true,NA,NA,NA,NA,NA,NA,NA,NA
ua7whPr5,3fk4g712o0duz4m7qhicsa7sfszsso,36ahbnmv1vpngldsjzke4h5lzmmdyd,ua7whPr5,2020-0188,2021-10-30,23:35:42,01:23:54,NA,incomplete,false,true,NA,NA,4,4,NA,red,m_l_017.jpg,NA,NA,NA,NA,NA,unpleasant,pleasant,NA,NA,NA,NA,NA,left,1185.39999999851,true,NA,NA,NA,NA,NA,NA,NA,NA
ua7whPr5,3fk4g712o0duz4m7qhicsa7sfszsso,36ahbnmv1vpngldsjzke4h5lzmmdyd,ua7whPr5,2020-0188,2021-10-30,23:35:42,01:23:54,NA,incomplete,false,true,NA,NA,4,5,NA,red,m_l_114.jpg,NA,NA,NA,NA,NA,unpleasant,pleasant,NA,NA,NA,NA,NA,left,1013,true,NA,NA,NA,NA,NA,NA,NA,NA
ua7whPr5,3fk4g712o0duz4m7qhicsa7sfszsso,36ahbnmv1vpngldsjzke4h5lzmmdyd,ua7whPr5,2020-0188,2021-10-30,23:35:42,01:23:54,NA,incomplete,false,true,NA,NA,4,6,NA,brown,m_s_086.jpg,NA,NA,NA,NA,NA,pleasant,unpleasant,NA,NA,NA,NA,NA,right,2121.10000000149,true,NA,NA,NA,NA,NA,NA,NA,NA
ua7whPr5,3fk4g712o0duz4m7qhicsa7sfszsso,36ahbnmv1vpngldsjzke4h5lzmmdyd,ua7whPr5,2020-0188,2021-10-30,23:35:42,01:23:54,NA,incomplete,false,true,NA,NA,4,7,NA,brown,n_l_087.jpg,NA,NA,NA,NA,NA,pleasant,unpleasant,NA,NA,NA,NA,NA,left,1251.60000000149,true,NA,NA,NA,NA,NA,NA,NA,NA
ua7whPr5,3fk4g712o0duz4m7qhicsa7sfszsso,36ahbnmv1vpngldsjzke4h5lzmmdyd,ua7whPr5,2020-0188,2021-10-30,23:35:42,01:23:54,NA,incomplete,false,true,NA,NA,4,8,NA,brown,n_s_107.jpg,NA,NA,NA,NA,NA,pleasant,unpleasant,NA,NA,NA,NA,NA,left,1365.39999999851,true,NA,NA,NA,NA,NA,NA,NA,NA
ua7whPr5,3fk4g712o0duz4m7qhicsa7sfszsso,36ahbnmv1vpngldsjzke4h5lzmmdyd,ua7whPr5,2020-0188,2021-10-30,23:35:42,01:23:54,NA,incomplete,false,true,NA,NA,4,9,NA,brown,m_s_065.jpg,NA,NA,NA,NA,NA,pleasant,unpleasant,NA,NA,NA,NA,NA,right,1164.29999999888,true,NA,NA,NA,NA,NA,NA,NA,NA
ua7whPr5,3fk4g712o0duz4m7qhicsa7sfszsso,36ahbnmv1vpngldsjzke4h5lzmmdyd,ua7whPr5,2020-0188,2021-10-30,23:35:42,01:23:54,NA,incomplete,false,true,NA,NA,4,10,NA,brown,n_s_102.jpg,NA,NA,NA,NA,NA,pleasant,unpleasant,NA,NA,NA,NA,NA,left,1156.30000000075,true,NA,NA,NA,NA,NA,NA,NA,NA
ua7whPr5,3fk4g712o0duz4m7qhicsa7sfszsso,36ahbnmv1vpngldsjzke4h5lzmmdyd,ua7whPr5,2020-0188,2021-10-30,23:35:42,01:23:54,NA,incomplete,false,true,NA,NA,4,11,NA,brown,m_s_003.jpg,NA,NA,NA,NA,NA,pleasant,unpleasant,NA,NA,NA,NA,NA,right,1261,true,NA,NA,NA,NA,NA,NA,NA,NA
ua7whPr5,3fk4g712o0duz4m7qhicsa7sfszsso,36ahbnmv1vpngldsjzke4h5lzmmdyd,ua7whPr5,2020-0188,2021-10-30,23:35:42,01:23:54,NA,incomplete,false,true,NA,NA,4,12,NA,gray,n_s_081.jpg,NA,NA,NA,NA,NA,unpleasant,pleasant,NA,NA,NA,NA,NA,left,1678.20000000112,true,NA,NA,NA,NA,NA,NA,NA,NA
ua7whPr5,3fk4g712o0duz4m7qhicsa7sfszsso,36ahbnmv1vpngldsjzke4h5lzmmdyd,ua7whPr5,2020-0188,2021-10-30,23:35:42,01:23:54,NA,incomplete,false,true,NA,NA,4,13,NA,gray,n_s_009.jpg,NA,NA,NA,NA,NA,unpleasant,pleasant,NA,NA,NA,NA,NA,left,890.599999999627,true,NA,NA,NA,NA,NA,NA,NA,NA
ua7whPr5,3fk4g712o0duz4m7qhicsa7sfszsso,36ahbnmv1vpngldsjzke4h5lzmmdyd,ua7whPr5,2020-0188,2021-10-30,23:35:42,01:23:54,NA,incomplete,false,true,NA,NA,4,14,NA,gray,m_s_081.jpg,NA,NA,NA,NA,NA,unpleasant,pleasant,NA,NA,NA,NA,NA,right,1456.5,true,NA,NA,NA,NA,NA,NA,NA,NA
ua7whPr5,3fk4g712o0duz4m7qhicsa7sfszsso,36ahbnmv1vpngldsjzke4h5lzmmdyd,ua7whPr5,2020-0188,2021-10-30,23:35:42,01:23:54,NA,incomplete,false,true,NA,NA,4,15,NA,gray,n_s_031.jpg,NA,NA,NA,NA,NA,unpleasant,pleasant,NA,NA,NA,NA,NA,left,1113.20000000112,true,NA,NA,NA,NA,NA,NA,NA,NA
ua7whPr5,3fk4g712o0duz4m7qhicsa7sfszsso,36ahbnmv1vpngldsjzke4h5lzmmdyd,ua7whPr5,2020-0188,2021-10-30,23:35:42,01:23:54,NA,incomplete,false,true,NA,NA,4,16,NA,gray,n_s_076.jpg,NA,NA,NA,NA,NA,unpleasant,pleasant,NA,NA,NA,NA,NA,left,994.39999999851,true,NA,NA,NA,NA,NA,NA,NA,NA
ua7whPr5,3fk4g712o0duz4m7qhicsa7sfszsso,36ahbnmv1vpngldsjzke4h5lzmmdyd,ua7whPr5,2020-0188,2021-10-30,23:35:42,01:23:54,NA,incomplete,false,true,NA,NA,4,17,NA,gray,n_l_027.jpg,NA,NA,NA,NA,NA,pleasant,unpleasant,NA,NA,NA,NA,NA,left,2455.60000000149,true,NA,NA,NA,NA,NA,NA,NA,NA
ua7whPr5,3fk4g712o0duz4m7qhicsa7sfszsso,36ahbnmv1vpngldsjzke4h5lzmmdyd,ua7whPr5,2020-0188,2021-10-30,23:35:42,01:23:54,NA,incomplete,false,true,NA,NA,4,18,NA,yellow,m_l_009.jpg,NA,NA,NA,NA,NA,pleasant,unpleasant,NA,NA,NA,NA,NA,right,2018.90000000037,true,NA,NA,NA,NA,NA,NA,NA,NA
ua7whPr5,3fk4g712o0duz4m7qhicsa7sfszsso,36ahbnmv1vpngldsjzke4h5lzmmdyd,ua7whPr5,2020-0188,2021-10-30,23:35:42,01:23:54,NA,incomplete,false,true,NA,NA,4,19,NA,yellow,m_s_103.jpg,NA,NA,NA,NA,NA,pleasant,unpleasant,NA,NA,NA,NA,NA,left,2022.40000000037,true,NA,NA,NA,NA,NA,NA,NA,NA
ua7whPr5,3fk4g712o0duz4m7qhicsa7sfszsso,36ahbnmv1vpngldsjzke4h5lzmmdyd,ua7whPr5,2020-0188,2021-10-30,23:35:42,01:23:54,NA,incomplete,false,true,NA,NA,4,20,NA,yellow,m_s_041.jpg,NA,NA,NA,NA,NA,pleasant,unpleasant,NA,NA,NA,NA,NA,right,1152.90000000037,true,NA,NA,NA,NA,NA,NA,NA,NA
ua7whPr5,3fk4g712o0duz4m7qhicsa7sfszsso,36ahbnmv1vpngldsjzke4h5lzmmdyd,ua7whPr5,2020-0188,2021-10-30,23:35:42,01:23:54,NA,incomplete,false,true,NA,NA,4,21,NA,yellow,m_l_101.jpg,NA,NA,NA,NA,NA,pleasant,unpleasant,NA,NA,NA,NA,NA,right,1849.09999999963,true,NA,NA,NA,NA,NA,NA,NA,NA
ua7whPr5,3fk4g712o0duz4m7qhicsa7sfszsso,36ahbnmv1vpngldsjzke4h5lzmmdyd,ua7whPr5,2020-0188,2021-10-30,23:35:42,01:23:54,NA,incomplete,false,true,NA,NA,4,22,NA,yellow,n_l_077.jpg,NA,NA,NA,NA,NA,unpleasant,pleasant,NA,NA,NA,NA,NA,left,1112.19999999925,true,NA,NA,NA,NA,NA,NA,NA,NA
ua7whPr5,3fk4g712o0duz4m7qhicsa7sfszsso,36ahbnmv1vpngldsjzke4h5lzmmdyd,ua7whPr5,2020-0188,2021-10-30,23:35:42,01:23:54,NA,incomplete,false,true,NA,NA,4,23,NA,yellow,n_s_088.jpg,NA,NA,NA,NA,NA,unpleasant,pleasant,NA,NA,NA,NA,NA,right,1338.30000000075,true,NA,NA,NA,NA,NA,NA,NA,NA
ua7whPr5,3fk4g712o0duz4m7qhicsa7sfszsso,36ahbnmv1vpngldsjzke4h5lzmmdyd,ua7whPr5,2020-0188,2021-10-30,23:35:42,01:23:54,NA,incomplete,false,true,NA,NA,4,24,NA,white,m_l_103.jpg,NA,NA,NA,NA,NA,unpleasant,pleasant,NA,NA,NA,NA,NA,left,2249.40000000037,true,NA,NA,NA,NA,NA,NA,NA,NA
ua7whPr5,3fk4g712o0duz4m7qhicsa7sfszsso,36ahbnmv1vpngldsjzke4h5lzmmdyd,ua7whPr5,2020-0188,2021-10-30,23:35:42,01:23:54,NA,incomplete,false,true,NA,NA,4,25,NA,white,m_l_015.jpg,NA,NA,NA,NA,NA,unpleasant,pleasant,NA,NA,NA,NA,NA,right,1506.69999999925,true,NA,NA,NA,NA,NA,NA,NA,NA
ua7whPr5,3fk4g712o0duz4m7qhicsa7sfszsso,36ahbnmv1vpngldsjzke4h5lzmmdyd,ua7whPr5,2020-0188,2021-10-30,23:35:42,01:23:54,NA,incomplete,false,true,NA,NA,4,26,NA,white,n_s_109.jpg,NA,NA,NA,NA,NA,unpleasant,pleasant,NA,NA,NA,NA,NA,left,1919.40000000037,true,NA,NA,NA,NA,NA,NA,NA,NA
ua7whPr5,3fk4g712o0duz4m7qhicsa7sfszsso,36ahbnmv1vpngldsjzke4h5lzmmdyd,ua7whPr5,2020-0188,2021-10-30,23:35:42,01:23:54,NA,incomplete,false,true,NA,NA,4,27,NA,white,m_l_013.jpg,NA,NA,NA,NA,NA,unpleasant,pleasant,NA,NA,NA,NA,NA,right,1610.39999999851,true,NA,NA,NA,NA,NA,NA,NA,NA
ua7whPr5,3fk4g712o0duz4m7qhicsa7sfszsso,36ahbnmv1vpngldsjzke4h5lzmmdyd,ua7whPr5,2020-0188,2021-10-30,23:35:42,01:23:54,NA,incomplete,false,true,NA,NA,4,28,NA,white,m_s_114.jpg,NA,NA,NA,NA,NA,unpleasant,pleasant,NA,NA,NA,NA,NA,right,1423.5,true,NA,NA,NA,NA,NA,NA,NA,NA
ua7whPr5,3fk4g712o0duz4m7qhicsa7sfszsso,36ahbnmv1vpngldsjzke4h5lzmmdyd,ua7whPr5,2020-0188,2021-10-30,23:35:42,01:23:54,NA,incomplete,false,true,NA,NA,4,29,NA,white,n_l_082.jpg,NA,NA,NA,NA,NA,pleasant,unpleasant,NA,NA,NA,NA,NA,right,1748.59999999963,true,NA,NA,NA,NA,NA,NA,NA,NA
ua7whPr5,3fk4g712o0duz4m7qhicsa7sfszsso,36ahbnmv1vpngldsjzke4h5lzmmdyd,ua7whPr5,2020-0188,2021-10-30,23:35:42,01:23:54,NA,incomplete,false,true,NA,NA,4,30,NA,orange,n_s_027.jpg,NA,NA,NA,NA,NA,pleasant,unpleasant,NA,NA,NA,NA,NA,left,1805.59999999963,true,NA,NA,NA,NA,NA,NA,NA,NA
ua7whPr5,3fk4g712o0duz4m7qhicsa7sfszsso,36ahbnmv1vpngldsjzke4h5lzmmdyd,ua7whPr5,2020-0188,2021-10-30,23:35:42,01:23:54,NA,incomplete,false,true,NA,NA,4,31,NA,orange,m_l_097.jpg,NA,NA,NA,NA,NA,unpleasant,pleasant,NA,NA,NA,NA,NA,left,1526.40000000037,true,NA,NA,NA,NA,NA,NA,NA,NA
ua7whPr5,3fk4g712o0duz4m7qhicsa7sfszsso,36ahbnmv1vpngldsjzke4h5lzmmdyd,ua7whPr5,2020-0188,2021-10-30,23:35:42,01:23:54,NA,incomplete,false,true,NA,NA,4,32,NA,orange,n_l_031.jpg,NA,NA,NA,NA,NA,unpleasant,pleasant,NA,NA,NA,NA,NA,right,1038.19999999925,true,NA,NA,NA,NA,NA,NA,NA,NA
ua7whPr5,3fk4g712o0duz4m7qhicsa7sfszsso,36ahbnmv1vpngldsjzke4h5lzmmdyd,ua7whPr5,2020-0188,2021-10-30,23:35:42,01:23:54,NA,incomplete,false,true,NA,NA,4,33,NA,orange,n_s_007.jpg,NA,NA,NA,NA,NA,unpleasant,pleasant,NA,NA,NA,NA,NA,right,1340.69999999925,true,NA,NA,NA,NA,NA,NA,NA,NA
ua7whPr5,3fk4g712o0duz4m7qhicsa7sfszsso,36ahbnmv1vpngldsjzke4h5lzmmdyd,ua7whPr5,2020-0188,2021-10-30,23:35:42,01:23:54,NA,incomplete,false,true,NA,NA,4,34,NA,orange,m_l_116.jpg,NA,NA,NA,NA,NA,pleasant,unpleasant,NA,NA,NA,NA,NA,right,1314.70000000112,true,NA,NA,NA,NA,NA,NA,NA,NA
ua7whPr5,3fk4g712o0duz4m7qhicsa7sfszsso,36ahbnmv1vpngldsjzke4h5lzmmdyd,ua7whPr5,2020-0188,2021-10-30,23:35:42,01:23:54,NA,incomplete,false,true,NA,NA,4,35,NA,orange,n_s_019.jpg,NA,NA,NA,NA,NA,pleasant,unpleasant,NA,NA,NA,NA,NA,left,988.900000000373,true,NA,NA,NA,NA,NA,NA,NA,NA
ua7whPr5,3fk4g712o0duz4m7qhicsa7sfszsso,36ahbnmv1vpngldsjzke4h5lzmmdyd,ua7whPr5,2020-0188,2021-10-30,23:35:42,01:23:54,NA,incomplete,false,NA,NA,true,4,0,NA,NA,NA,left,n_s_107.jpg,brown,red,NA,NA,NA,NA,NA,NA,NA,NA,NA,NaN,NA,1756.5,left,1,NA,NA,NA,NA,NA
ua7whPr5,3fk4g712o0duz4m7qhicsa7sfszsso,36ahbnmv1vpngldsjzke4h5lzmmdyd,ua7whPr5,2020-0188,2021-10-30,23:35:42,01:23:54,NA,incomplete,false,NA,NA,true,4,1,NA,NA,NA,right,n_s_102.jpg,gray,brown,NA,NA,NA,NA,NA,NA,NA,NA,NA,NaN,NA,2030.2999999988824,right,1,NA,NA,NA,NA,NA
ua7whPr5,3fk4g712o0duz4m7qhicsa7sfszsso,36ahbnmv1vpngldsjzke4h5lzmmdyd,ua7whPr5,2020-0188,2021-10-30,23:35:42,01:23:54,NA,incomplete,false,NA,NA,true,4,2,NA,NA,NA,left,m_s_103.jpg,yellow,white,NA,NA,NA,NA,NA,NA,NA,NA,NA,NaN,NA,1189.4000000003725,left,1,NA,NA,NA,NA,NA
ua7whPr5,3fk4g712o0duz4m7qhicsa7sfszsso,36ahbnmv1vpngldsjzke4h5lzmmdyd,ua7whPr5,2020-0188,2021-10-30,23:35:42,01:23:54,NA,incomplete,false,NA,NA,true,4,3,NA,NA,NA,right,m_s_003.jpg,gray,brown,NA,NA,NA,NA,NA,NA,NA,NA,NA,NaN,NA,1837.5,right,1,NA,NA,NA,NA,NA
ua7whPr5,3fk4g712o0duz4m7qhicsa7sfszsso,36ahbnmv1vpngldsjzke4h5lzmmdyd,ua7whPr5,2020-0188,2021-10-30,23:35:42,01:23:54,NA,incomplete,false,NA,NA,true,4,4,NA,NA,NA,right,m_l_114.jpg,brown,red,NA,NA,NA,NA,NA,NA,NA,NA,NA,NaN,NA,1281.0999999996275,right,1,NA,NA,NA,NA,NA
ua7whPr5,3fk4g712o0duz4m7qhicsa7sfszsso,36ahbnmv1vpngldsjzke4h5lzmmdyd,ua7whPr5,2020-0188,2021-10-30,23:35:42,01:23:54,NA,incomplete,false,NA,NA,true,4,5,NA,NA,NA,left,n_s_109.jpg,white,orange,NA,NA,NA,NA,NA,NA,NA,NA,NA,NaN,NA,2037.9000000003725,left,1,NA,NA,NA,NA,NA
ua7whPr5,3fk4g712o0duz4m7qhicsa7sfszsso,36ahbnmv1vpngldsjzke4h5lzmmdyd,ua7whPr5,2020-0188,2021-10-30,23:35:42,01:23:54,NA,incomplete,false,NA,NA,true,4,6,NA,NA,NA,right,m_s_081.jpg,brown,gray,NA,NA,NA,NA,NA,NA,NA,NA,NA,NaN,NA,1623.699999999255,right,1,NA,NA,NA,NA,NA
ua7whPr5,3fk4g712o0duz4m7qhicsa7sfszsso,36ahbnmv1vpngldsjzke4h5lzmmdyd,ua7whPr5,2020-0188,2021-10-30,23:35:42,01:23:54,NA,incomplete,false,NA,NA,true,4,7,NA,NA,NA,left,n_l_082.jpg,white,orange,NA,NA,NA,NA,NA,NA,NA,NA,NA,NaN,NA,1565.300000000745,left,1,NA,NA,NA,NA,NA
ua7whPr5,3fk4g712o0duz4m7qhicsa7sfszsso,36ahbnmv1vpngldsjzke4h5lzmmdyd,ua7whPr5,2020-0188,2021-10-30,23:35:42,01:23:54,NA,incomplete,false,NA,NA,true,4,8,NA,NA,NA,left,m_l_024.jpg,red,brown,NA,NA,NA,NA,NA,NA,NA,NA,NA,NaN,NA,1883.4000000003725,left,1,NA,NA,NA,NA,NA
ua7whPr5,3fk4g712o0duz4m7qhicsa7sfszsso,36ahbnmv1vpngldsjzke4h5lzmmdyd,ua7whPr5,2020-0188,2021-10-30,23:35:42,01:23:54,NA,incomplete,false,NA,NA,true,4,9,NA,NA,NA,right,n_l_027.jpg,yellow,gray,NA,NA,NA,NA,NA,NA,NA,NA,NA,NaN,NA,1473.300000000745,right,1,NA,NA,NA,NA,NA
ua7whPr5,3fk4g712o0duz4m7qhicsa7sfszsso,36ahbnmv1vpngldsjzke4h5lzmmdyd,ua7whPr5,2020-0188,2021-10-30,23:35:42,01:23:54,NA,incomplete,false,NA,NA,true,4,10,NA,NA,NA,left,m_s_041.jpg,yellow,white,NA,NA,NA,NA,NA,NA,NA,NA,NA,NaN,NA,2399.4000000003725,left,1,NA,NA,NA,NA,NA
ua7whPr5,3fk4g712o0duz4m7qhicsa7sfszsso,36ahbnmv1vpngldsjzke4h5lzmmdyd,ua7whPr5,2020-0188,2021-10-30,23:35:42,01:23:54,NA,incomplete,false,NA,NA,true,4,11,NA,NA,NA,left,m_l_097.jpg,orange,white,NA,NA,NA,NA,NA,NA,NA,NA,NA,NaN,NA,1642.7999999988824,left,1,NA,NA,NA,NA,NA
ua7whPr5,3fk4g712o0duz4m7qhicsa7sfszsso,36ahbnmv1vpngldsjzke4h5lzmmdyd,ua7whPr5,2020-0188,2021-10-30,23:35:42,01:23:54,NA,incomplete,false,NA,NA,true,4,12,NA,NA,NA,left,n_s_009.jpg,gray,brown,NA,NA,NA,NA,NA,NA,NA,NA,NA,NaN,NA,1733.199999999255,left,1,NA,NA,NA,NA,NA
ua7whPr5,3fk4g712o0duz4m7qhicsa7sfszsso,36ahbnmv1vpngldsjzke4h5lzmmdyd,ua7whPr5,2020-0188,2021-10-30,23:35:42,01:23:54,NA,incomplete,false,NA,NA,true,4,13,NA,NA,NA,left,n_l_031.jpg,orange,white,NA,NA,NA,NA,NA,NA,NA,NA,NA,NaN,NA,1292.4000000003725,left,1,NA,NA,NA,NA,NA
ua7whPr5,3fk4g712o0duz4m7qhicsa7sfszsso,36ahbnmv1vpngldsjzke4h5lzmmdyd,ua7whPr5,2020-0188,2021-10-30,23:35:42,01:23:54,NA,incomplete,false,NA,NA,true,4,14,NA,NA,NA,left,m_l_015.jpg,white,yellow,NA,NA,NA,NA,NA,NA,NA,NA,NA,NaN,NA,3095.39999999851,left,1,NA,NA,NA,NA,NA
ua7whPr5,3fk4g712o0duz4m7qhicsa7sfszsso,36ahbnmv1vpngldsjzke4h5lzmmdyd,ua7whPr5,2020-0188,2021-10-30,23:35:42,01:23:54,NA,incomplete,false,NA,NA,true,4,15,NA,NA,NA,left,m_s_114.jpg,white,yellow,NA,NA,NA,NA,NA,NA,NA,NA,NA,NaN,NA,1523.199999999255,left,1,NA,NA,NA,NA,NA
ua7whPr5,3fk4g712o0duz4m7qhicsa7sfszsso,36ahbnmv1vpngldsjzke4h5lzmmdyd,ua7whPr5,2020-0188,2021-10-30,23:35:42,01:23:54,NA,incomplete,false,NA,NA,true,4,16,NA,NA,NA,left,n_l_087.jpg,brown,gray,NA,NA,NA,NA,NA,NA,NA,NA,NA,NaN,NA,1293.2000000011176,left,1,NA,NA,NA,NA,NA
ua7whPr5,3fk4g712o0duz4m7qhicsa7sfszsso,36ahbnmv1vpngldsjzke4h5lzmmdyd,ua7whPr5,2020-0188,2021-10-30,23:35:42,01:23:54,NA,incomplete,false,NA,NA,true,4,17,NA,NA,NA,right,n_l_077.jpg,white,yellow,NA,NA,NA,NA,NA,NA,NA,NA,NA,NaN,NA,1864.300000000745,right,1,NA,NA,NA,NA,NA
ua7whPr5,3fk4g712o0duz4m7qhicsa7sfszsso,36ahbnmv1vpngldsjzke4h5lzmmdyd,ua7whPr5,2020-0188,2021-10-30,23:35:42,01:23:54,NA,incomplete,false,NA,NA,true,4,18,NA,NA,NA,right,n_s_019.jpg,white,orange,NA,NA,NA,NA,NA,NA,NA,NA,NA,NaN,NA,1161.6000000014901,right,1,NA,NA,NA,NA,NA
ua7whPr5,3fk4g712o0duz4m7qhicsa7sfszsso,36ahbnmv1vpngldsjzke4h5lzmmdyd,ua7whPr5,2020-0188,2021-10-30,23:35:42,01:23:54,NA,incomplete,false,NA,NA,true,4,19,NA,NA,NA,left,n_s_076.jpg,gray,yellow,NA,NA,NA,NA,NA,NA,NA,NA,NA,NaN,NA,2185.39999999851,left,1,NA,NA,NA,NA,NA
ua7whPr5,3fk4g712o0duz4m7qhicsa7sfszsso,36ahbnmv1vpngldsjzke4h5lzmmdyd,ua7whPr5,2020-0188,2021-10-30,23:35:42,01:23:54,NA,incomplete,false,NA,NA,true,4,20,NA,NA,NA,right,n_s_088.jpg,gray,yellow,NA,NA,NA,NA,NA,NA,NA,NA,NA,NaN,NA,2128.4000000003725,right,1,NA,NA,NA,NA,NA
ua7whPr5,3fk4g712o0duz4m7qhicsa7sfszsso,36ahbnmv1vpngldsjzke4h5lzmmdyd,ua7whPr5,2020-0188,2021-10-30,23:35:42,01:23:54,NA,incomplete,false,NA,NA,true,4,21,NA,NA,NA,left,m_l_017.jpg,red,brown,NA,NA,NA,NA,NA,NA,NA,NA,NA,NaN,NA,1665.199999999255,left,1,NA,NA,NA,NA,NA
ua7whPr5,3fk4g712o0duz4m7qhicsa7sfszsso,36ahbnmv1vpngldsjzke4h5lzmmdyd,ua7whPr5,2020-0188,2021-10-30,23:35:42,01:23:54,NA,incomplete,false,NA,true,NA,4,0,NA,NA,NA,left,NA,NA,NA,present,NA,NA,n_s_102.jpg,brown,m_s_081.jpg,gray,between,NA,NaN,NA,NA,NA,NA,left,3218.4000000003725,1,2,1351.0999999996275
ua7whPr5,3fk4g712o0duz4m7qhicsa7sfszsso,36ahbnmv1vpngldsjzke4h5lzmmdyd,ua7whPr5,2020-0188,2021-10-30,23:35:42,01:23:54,NA,incomplete,false,NA,true,NA,4,1,NA,NA,NA,left,NA,NA,NA,present,NA,NA,m_s_103.jpg,yellow,n_s_088.jpg,yellow,within,NA,NaN,NA,NA,NA,NA,left,3608.7000000011176,1,0,769
ua7whPr5,3fk4g712o0duz4m7qhicsa7sfszsso,36ahbnmv1vpngldsjzke4h5lzmmdyd,ua7whPr5,2020-0188,2021-10-30,23:35:42,01:23:54,NA,incomplete,false,NA,true,NA,4,2,NA,NA,NA,right,NA,NA,NA,present,NA,NA,n_s_019.jpg,orange,m_l_097.jpg,orange,within,NA,NaN,NA,NA,NA,NA,right,2685.300000000745,1,1,1045.4000000003725
ua7whPr5,3fk4g712o0duz4m7qhicsa7sfszsso,36ahbnmv1vpngldsjzke4h5lzmmdyd,ua7whPr5,2020-0188,2021-10-30,23:35:42,01:23:54,NA,incomplete,false,NA,true,NA,4,3,NA,NA,NA,left,NA,NA,NA,present,NA,NA,n_l_087.jpg,brown,m_s_003.jpg,brown,within,NA,NaN,NA,NA,NA,NA,left,1471.3999999985099,1,0,1015.4000000003725
ua7whPr5,3fk4g712o0duz4m7qhicsa7sfszsso,36ahbnmv1vpngldsjzke4h5lzmmdyd,ua7whPr5,2020-0188,2021-10-30,23:35:42,01:23:54,NA,incomplete,false,NA,true,NA,4,4,NA,NA,NA,left,NA,NA,NA,present,NA,NA,m_l_015.jpg,white,n_l_082.jpg,white,within,NA,NaN,NA,NA,NA,NA,left,2463.300000000745,1,0,620.4000000003725
ua7whPr5,3fk4g712o0duz4m7qhicsa7sfszsso,36ahbnmv1vpngldsjzke4h5lzmmdyd,ua7whPr5,2020-0188,2021-10-30,23:35:42,01:23:54,NA,incomplete,false,NA,true,NA,4,5,NA,NA,NA,left,NA,NA,NA,present,NA,NA,m_s_114.jpg,white,n_l_031.jpg,orange,between,NA,NaN,NA,NA,NA,NA,left,3919.800000000745,1,2,941.0999999996275
ua7whPr5,3fk4g712o0duz4m7qhicsa7sfszsso,36ahbnmv1vpngldsjzke4h5lzmmdyd,ua7whPr5,2020-0188,2021-10-30,23:35:42,01:23:54,NA,incomplete,false,NA,true,NA,4,6,NA,NA,NA,left,NA,NA,NA,present,NA,NA,n_l_077.jpg,yellow,n_s_109.jpg,white,between,NA,NaN,NA,NA,NA,NA,left,3186.5999999996275,1,2,1669.4000000003725
ua7whPr5,3fk4g712o0duz4m7qhicsa7sfszsso,36ahbnmv1vpngldsjzke4h5lzmmdyd,ua7whPr5,2020-0188,2021-10-30,23:35:42,01:23:54,NA,incomplete,false,NA,true,NA,4,7,NA,NA,NA,left,NA,NA,NA,present,NA,NA,m_l_024.jpg,red,m_l_114.jpg,red,within,NA,NaN,NA,NA,NA,NA,left,4311.4000000003725,1,0,1608.0999999996275
ua7whPr5,3fk4g712o0duz4m7qhicsa7sfszsso,36ahbnmv1vpngldsjzke4h5lzmmdyd,ua7whPr5,2020-0188,2021-10-30,23:35:42,01:23:54,NA,incomplete,false,NA,true,NA,4,8,NA,NA,NA,left,NA,NA,NA,present,NA,NA,m_l_017.jpg,red,n_s_107.jpg,brown,between,NA,NaN,NA,NA,NA,NA,left,3037.2000000011176,1,2,877.1999999992549
ua7whPr5,3fk4g712o0duz4m7qhicsa7sfszsso,36ahbnmv1vpngldsjzke4h5lzmmdyd,ua7whPr5,2020-0188,2021-10-30,23:35:42,01:23:54,NA,incomplete,false,NA,true,NA,4,9,NA,NA,NA,right,NA,NA,NA,present,NA,NA,m_s_041.jpg,yellow,n_s_076.jpg,gray,between,NA,NaN,NA,NA,NA,NA,right,3822.60000000149,1,2,1752.0999999996275
ua7whPr5,3fk4g712o0duz4m7qhicsa7sfszsso,36ahbnmv1vpngldsjzke4h5lzmmdyd,ua7whPr5,2020-0188,2021-10-30,23:35:42,01:23:54,NA,incomplete,false,NA,true,NA,4,10,NA,NA,NA,right,NA,NA,NA,present,NA,NA,n_l_027.jpg,gray,n_s_009.jpg,gray,within,NA,NaN,NA,NA,NA,NA,right,3497.7000000011176,1,1,983.0999999996275
ua7whPr5,3fk4g712o0duz4m7qhicsa7sfszsso,36ahbnmv1vpngldsjzke4h5lzmmdyd,ua7whPr5,2020-0188,2021-10-30,23:35:42,01:23:54,NA,incomplete,false,true,NA,NA,5,0,NA,green,n_s_105.jpg,NA,NA,NA,NA,NA,unpleasant,pleasant,NA,NA,NA,NA,NA,left,2132.40000000037,true,NA,NA,NA,NA,NA,NA,NA,NA
ua7whPr5,3fk4g712o0duz4m7qhicsa7sfszsso,36ahbnmv1vpngldsjzke4h5lzmmdyd,ua7whPr5,2020-0188,2021-10-30,23:35:42,01:23:54,NA,incomplete,false,true,NA,NA,5,1,NA,green,m_s_008.jpg,NA,NA,NA,NA,NA,unpleasant,pleasant,NA,NA,NA,NA,NA,left,1227.90000000037,true,NA,NA,NA,NA,NA,NA,NA,NA
ua7whPr5,3fk4g712o0duz4m7qhicsa7sfszsso,36ahbnmv1vpngldsjzke4h5lzmmdyd,ua7whPr5,2020-0188,2021-10-30,23:35:42,01:23:54,NA,incomplete,false,true,NA,NA,5,2,NA,green,m_l_078.jpg,NA,NA,NA,NA,NA,pleasant,unpleasant,NA,NA,NA,NA,NA,right,1203.69999999925,true,NA,NA,NA,NA,NA,NA,NA,NA
ua7whPr5,3fk4g712o0duz4m7qhicsa7sfszsso,36ahbnmv1vpngldsjzke4h5lzmmdyd,ua7whPr5,2020-0188,2021-10-30,23:35:42,01:23:54,NA,incomplete,false,true,NA,NA,5,3,NA,green,m_s_028.jpg,NA,NA,NA,NA,NA,unpleasant,pleasant,NA,NA,NA,NA,NA,left,1063.40000000037,true,NA,NA,NA,NA,NA,NA,NA,NA
ua7whPr5,3fk4g712o0duz4m7qhicsa7sfszsso,36ahbnmv1vpngldsjzke4h5lzmmdyd,ua7whPr5,2020-0188,2021-10-30,23:35:42,01:23:54,NA,incomplete,false,true,NA,NA,5,4,NA,green,n_l_103.jpg,NA,NA,NA,NA,NA,pleasant,unpleasant,NA,NA,NA,NA,NA,right,1124.90000000037,true,NA,NA,NA,NA,NA,NA,NA,NA
ua7whPr5,3fk4g712o0duz4m7qhicsa7sfszsso,36ahbnmv1vpngldsjzke4h5lzmmdyd,ua7whPr5,2020-0188,2021-10-30,23:35:42,01:23:54,NA,incomplete,false,true,NA,NA,5,5,NA,green,n_l_093.jpg,NA,NA,NA,NA,NA,pleasant,unpleasant,NA,NA,NA,NA,NA,left,1288.90000000037,true,NA,NA,NA,NA,NA,NA,NA,NA
ua7whPr5,3fk4g712o0duz4m7qhicsa7sfszsso,36ahbnmv1vpngldsjzke4h5lzmmdyd,ua7whPr5,2020-0188,2021-10-30,23:35:42,01:23:54,NA,incomplete,false,true,NA,NA,5,6,NA,yellow,m_l_048.jpg,NA,NA,NA,NA,NA,unpleasant,pleasant,NA,NA,NA,NA,NA,right,2160.90000000037,true,NA,NA,NA,NA,NA,NA,NA,NA
ua7whPr5,3fk4g712o0duz4m7qhicsa7sfszsso,36ahbnmv1vpngldsjzke4h5lzmmdyd,ua7whPr5,2020-0188,2021-10-30,23:35:42,01:23:54,NA,incomplete,false,true,NA,NA,5,7,NA,yellow,m_l_115.jpg,NA,NA,NA,NA,NA,pleasant,unpleasant,NA,NA,NA,NA,NA,left,1443.30000000075,true,NA,NA,NA,NA,NA,NA,NA,NA
ua7whPr5,3fk4g712o0duz4m7qhicsa7sfszsso,36ahbnmv1vpngldsjzke4h5lzmmdyd,ua7whPr5,2020-0188,2021-10-30,23:35:42,01:23:54,NA,incomplete,false,true,NA,NA,5,8,NA,yellow,n_l_055.jpg,NA,NA,NA,NA,NA,pleasant,unpleasant,NA,NA,NA,NA,NA,right,971.700000001118,true,NA,NA,NA,NA,NA,NA,NA,NA
ua7whPr5,3fk4g712o0duz4m7qhicsa7sfszsso,36ahbnmv1vpngldsjzke4h5lzmmdyd,ua7whPr5,2020-0188,2021-10-30,23:35:42,01:23:54,NA,incomplete,false,true,NA,NA,5,9,NA,yellow,m_s_007.jpg,NA,NA,NA,NA,NA,pleasant,unpleasant,NA,NA,NA,NA,NA,right,1186.59999999963,true,NA,NA,NA,NA,NA,NA,NA,NA
ua7whPr5,3fk4g712o0duz4m7qhicsa7sfszsso,36ahbnmv1vpngldsjzke4h5lzmmdyd,ua7whPr5,2020-0188,2021-10-30,23:35:42,01:23:54,NA,incomplete,false,true,NA,NA,5,10,NA,yellow,m_l_088.jpg,NA,NA,NA,NA,NA,unpleasant,pleasant,NA,NA,NA,NA,NA,left,1092.90000000037,true,NA,NA,NA,NA,NA,NA,NA,NA
ua7whPr5,3fk4g712o0duz4m7qhicsa7sfszsso,36ahbnmv1vpngldsjzke4h5lzmmdyd,ua7whPr5,2020-0188,2021-10-30,23:35:42,01:23:54,NA,incomplete,false,true,NA,NA,5,11,NA,yellow,m_l_100.jpg,NA,NA,NA,NA,NA,pleasant,unpleasant,NA,NA,NA,NA,NA,right,1545.40000000037,true,NA,NA,NA,NA,NA,NA,NA,NA
ua7whPr5,3fk4g712o0duz4m7qhicsa7sfszsso,36ahbnmv1vpngldsjzke4h5lzmmdyd,ua7whPr5,2020-0188,2021-10-30,23:35:42,01:23:54,NA,incomplete,false,true,NA,NA,5,12,NA,gray,m_l_021.jpg,NA,NA,NA,NA,NA,pleasant,unpleasant,NA,NA,NA,NA,NA,left,1074.69999999925,true,NA,NA,NA,NA,NA,NA,NA,NA
ua7whPr5,3fk4g712o0duz4m7qhicsa7sfszsso,36ahbnmv1vpngldsjzke4h5lzmmdyd,ua7whPr5,2020-0188,2021-10-30,23:35:42,01:23:54,NA,incomplete,false,true,NA,NA,5,13,NA,gray,n_l_023.jpg,NA,NA,NA,NA,NA,pleasant,unpleasant,NA,NA,NA,NA,NA,right,1060.30000000075,true,NA,NA,NA,NA,NA,NA,NA,NA
ua7whPr5,3fk4g712o0duz4m7qhicsa7sfszsso,36ahbnmv1vpngldsjzke4h5lzmmdyd,ua7whPr5,2020-0188,2021-10-30,23:35:42,01:23:54,NA,incomplete,false,true,NA,NA,5,14,NA,gray,m_s_117.jpg,NA,NA,NA,NA,NA,unpleasant,pleasant,NA,NA,NA,NA,NA,right,1416.20000000112,true,NA,NA,NA,NA,NA,NA,NA,NA
ua7whPr5,3fk4g712o0duz4m7qhicsa7sfszsso,36ahbnmv1vpngldsjzke4h5lzmmdyd,ua7whPr5,2020-0188,2021-10-30,23:35:42,01:23:54,NA,incomplete,false,true,NA,NA,5,15,NA,gray,m_l_102.jpg,NA,NA,NA,NA,NA,pleasant,unpleasant,NA,NA,NA,NA,NA,right,1456.60000000149,true,NA,NA,NA,NA,NA,NA,NA,NA
ua7whPr5,3fk4g712o0duz4m7qhicsa7sfszsso,36ahbnmv1vpngldsjzke4h5lzmmdyd,ua7whPr5,2020-0188,2021-10-30,23:35:42,01:23:54,NA,incomplete,false,true,NA,NA,5,16,NA,gray,m_s_087.jpg,NA,NA,NA,NA,NA,unpleasant,pleasant,NA,NA,NA,NA,NA,left,1351.59999999963,true,NA,NA,NA,NA,NA,NA,NA,NA
