workerId,hitId,assignmentId,subject,studyid,exp_date,exp_start,exp_end,time_start,time_end,practice,encoding,memory,association,block,trial,event_order,event,stim,answer,object,left_context,right_context,context_type,label_left,label_right,left_image,left_event,right_image,right_event,condition,response,response_time,response_acc,association_response_time,association_response,association_acc,order_response,order_response_time,order_acc,distance_response,distance_response_time
9xOnU3gS,3ac6mfv6anv2a7u5af0lkpxttwbhzq,36nemu28xjqmvao5hr1t2a7zxrcmw1,9xOnU3gS,2020-0188,2021-10-30,13:07:42,14:56:15,NA,incomplete,true,true,NA,NA,0,0,NA,white,n_s_021.jpg,NA,NA,NA,NA,NA,pleasant,unpleasant,NA,NA,NA,NA,NA,left,1287.10000000894,true,NA,NA,NA,NA,NA,NA,NA,NA
9xOnU3gS,3ac6mfv6anv2a7u5af0lkpxttwbhzq,36nemu28xjqmvao5hr1t2a7zxrcmw1,9xOnU3gS,2020-0188,2021-10-30,13:07:42,14:56:15,NA,incomplete,true,true,NA,NA,0,1,NA,white,m_l_023.jpg,NA,NA,NA,NA,NA,unpleasant,pleasant,NA,NA,NA,NA,NA,right,1271.39999999106,true,NA,NA,NA,NA,NA,NA,NA,NA
9xOnU3gS,3ac6mfv6anv2a7u5af0lkpxttwbhzq,36nemu28xjqmvao5hr1t2a7zxrcmw1,9xOnU3gS,2020-0188,2021-10-30,13:07:42,14:56:15,NA,incomplete,true,true,NA,NA,0,2,NA,white,n_s_103.jpg,NA,NA,NA,NA,NA,unpleasant,pleasant,NA,NA,NA,NA,NA,right,1567.90000000596,true,NA,NA,NA,NA,NA,NA,NA,NA
9xOnU3gS,3ac6mfv6anv2a7u5af0lkpxttwbhzq,36nemu28xjqmvao5hr1t2a7zxrcmw1,9xOnU3gS,2020-0188,2021-10-30,13:07:42,14:56:15,NA,incomplete,true,true,NA,NA,0,3,NA,white,n_l_070.jpg,NA,NA,NA,NA,NA,unpleasant,pleasant,NA,NA,NA,NA,NA,right,1493.90000000596,true,NA,NA,NA,NA,NA,NA,NA,NA
9xOnU3gS,3ac6mfv6anv2a7u5af0lkpxttwbhzq,36nemu28xjqmvao5hr1t2a7zxrcmw1,9xOnU3gS,2020-0188,2021-10-30,13:07:42,14:56:15,NA,incomplete,true,true,NA,NA,0,4,NA,white,n_s_055.jpg,NA,NA,NA,NA,NA,unpleasant,pleasant,NA,NA,NA,NA,NA,left,1870.5,true,NA,NA,NA,NA,NA,NA,NA,NA
9xOnU3gS,3ac6mfv6anv2a7u5af0lkpxttwbhzq,36nemu28xjqmvao5hr1t2a7zxrcmw1,9xOnU3gS,2020-0188,2021-10-30,13:07:42,14:56:15,NA,incomplete,true,true,NA,NA,0,5,NA,white,n_l_022.jpg,NA,NA,NA,NA,NA,pleasant,unpleasant,NA,NA,NA,NA,NA,left,2008.09999999404,true,NA,NA,NA,NA,NA,NA,NA,NA
9xOnU3gS,3ac6mfv6anv2a7u5af0lkpxttwbhzq,36nemu28xjqmvao5hr1t2a7zxrcmw1,9xOnU3gS,2020-0188,2021-10-30,13:07:42,14:56:15,NA,incomplete,true,true,NA,NA,0,6,NA,brown,m_l_008.jpg,NA,NA,NA,NA,NA,unpleasant,pleasant,NA,NA,NA,NA,NA,right,1641.59999999404,true,NA,NA,NA,NA,NA,NA,NA,NA
9xOnU3gS,3ac6mfv6anv2a7u5af0lkpxttwbhzq,36nemu28xjqmvao5hr1t2a7zxrcmw1,9xOnU3gS,2020-0188,2021-10-30,13:07:42,14:56:15,NA,incomplete,true,true,NA,NA,0,7,NA,brown,m_s_093.jpg,NA,NA,NA,NA,NA,pleasant,unpleasant,NA,NA,NA,NA,NA,left,2822.40000000596,true,NA,NA,NA,NA,NA,NA,NA,NA
9xOnU3gS,3ac6mfv6anv2a7u5af0lkpxttwbhzq,36nemu28xjqmvao5hr1t2a7zxrcmw1,9xOnU3gS,2020-0188,2021-10-30,13:07:42,14:56:15,NA,incomplete,true,true,NA,NA,0,8,NA,brown,n_s_096.jpg,NA,NA,NA,NA,NA,unpleasant,pleasant,NA,NA,NA,NA,NA,right,2018.29999999702,true,NA,NA,NA,NA,NA,NA,NA,NA
9xOnU3gS,3ac6mfv6anv2a7u5af0lkpxttwbhzq,36nemu28xjqmvao5hr1t2a7zxrcmw1,9xOnU3gS,2020-0188,2021-10-30,13:07:42,14:56:15,NA,incomplete,true,true,NA,NA,0,9,NA,brown,m_s_004.jpg,NA,NA,NA,NA,NA,unpleasant,pleasant,NA,NA,NA,NA,NA,right,1643,true,NA,NA,NA,NA,NA,NA,NA,NA
9xOnU3gS,3ac6mfv6anv2a7u5af0lkpxttwbhzq,36nemu28xjqmvao5hr1t2a7zxrcmw1,9xOnU3gS,2020-0188,2021-10-30,13:07:42,14:56:15,NA,incomplete,true,true,NA,NA,0,10,NA,brown,m_l_041.jpg,NA,NA,NA,NA,NA,pleasant,unpleasant,NA,NA,NA,NA,NA,right,2660.89999999106,true,NA,NA,NA,NA,NA,NA,NA,NA
9xOnU3gS,3ac6mfv6anv2a7u5af0lkpxttwbhzq,36nemu28xjqmvao5hr1t2a7zxrcmw1,9xOnU3gS,2020-0188,2021-10-30,13:07:42,14:56:15,NA,incomplete,true,true,NA,NA,0,11,NA,brown,m_l_019.jpg,NA,NA,NA,NA,NA,pleasant,unpleasant,NA,NA,NA,NA,NA,left,1134.5,true,NA,NA,NA,NA,NA,NA,NA,NA
9xOnU3gS,3ac6mfv6anv2a7u5af0lkpxttwbhzq,36nemu28xjqmvao5hr1t2a7zxrcmw1,9xOnU3gS,2020-0188,2021-10-30,13:07:42,14:56:15,NA,incomplete,true,true,NA,NA,0,12,NA,yellow,m_s_073.jpg,NA,NA,NA,NA,NA,unpleasant,pleasant,NA,NA,NA,NA,NA,left,2017.79999999702,true,NA,NA,NA,NA,NA,NA,NA,NA
9xOnU3gS,3ac6mfv6anv2a7u5af0lkpxttwbhzq,36nemu28xjqmvao5hr1t2a7zxrcmw1,9xOnU3gS,2020-0188,2021-10-30,13:07:42,14:56:15,NA,incomplete,true,true,NA,NA,0,13,NA,yellow,n_l_065.jpg,NA,NA,NA,NA,NA,pleasant,unpleasant,NA,NA,NA,NA,NA,right,1686.59999999404,true,NA,NA,NA,NA,NA,NA,NA,NA
9xOnU3gS,3ac6mfv6anv2a7u5af0lkpxttwbhzq,36nemu28xjqmvao5hr1t2a7zxrcmw1,9xOnU3gS,2020-0188,2021-10-30,13:07:42,14:56:15,NA,incomplete,true,true,NA,NA,0,14,NA,yellow,m_l_056.jpg,NA,NA,NA,NA,NA,pleasant,unpleasant,NA,NA,NA,NA,NA,right,1727,true,NA,NA,NA,NA,NA,NA,NA,NA
9xOnU3gS,3ac6mfv6anv2a7u5af0lkpxttwbhzq,36nemu28xjqmvao5hr1t2a7zxrcmw1,9xOnU3gS,2020-0188,2021-10-30,13:07:42,14:56:15,NA,incomplete,true,true,NA,NA,0,15,NA,yellow,m_l_105.jpg,NA,NA,NA,NA,NA,unpleasant,pleasant,NA,NA,NA,NA,NA,left,2281.89999999106,true,NA,NA,NA,NA,NA,NA,NA,NA
9xOnU3gS,3ac6mfv6anv2a7u5af0lkpxttwbhzq,36nemu28xjqmvao5hr1t2a7zxrcmw1,9xOnU3gS,2020-0188,2021-10-30,13:07:42,14:56:15,NA,incomplete,true,true,NA,NA,0,16,NA,yellow,n_s_022.jpg,NA,NA,NA,NA,NA,pleasant,unpleasant,NA,NA,NA,NA,NA,right,1942.10000000894,true,NA,NA,NA,NA,NA,NA,NA,NA
9xOnU3gS,3ac6mfv6anv2a7u5af0lkpxttwbhzq,36nemu28xjqmvao5hr1t2a7zxrcmw1,9xOnU3gS,2020-0188,2021-10-30,13:07:42,14:56:15,NA,incomplete,true,true,NA,NA,0,17,NA,yellow,n_s_116.jpg,NA,NA,NA,NA,NA,unpleasant,pleasant,NA,NA,NA,NA,NA,left,1644.69999998808,true,NA,NA,NA,NA,NA,NA,NA,NA
9xOnU3gS,3ac6mfv6anv2a7u5af0lkpxttwbhzq,36nemu28xjqmvao5hr1t2a7zxrcmw1,9xOnU3gS,2020-0188,2021-10-30,13:07:42,14:56:15,NA,incomplete,true,true,NA,NA,0,18,NA,black,n_l_107.jpg,NA,NA,NA,NA,NA,pleasant,unpleasant,NA,NA,NA,NA,NA,left,1332.20000000298,true,NA,NA,NA,NA,NA,NA,NA,NA
9xOnU3gS,3ac6mfv6anv2a7u5af0lkpxttwbhzq,36nemu28xjqmvao5hr1t2a7zxrcmw1,9xOnU3gS,2020-0188,2021-10-30,13:07:42,14:56:15,NA,incomplete,true,true,NA,NA,0,19,NA,black,n_l_015.jpg,NA,NA,NA,NA,NA,unpleasant,pleasant,NA,NA,NA,NA,NA,right,1237.09999999404,true,NA,NA,NA,NA,NA,NA,NA,NA
9xOnU3gS,3ac6mfv6anv2a7u5af0lkpxttwbhzq,36nemu28xjqmvao5hr1t2a7zxrcmw1,9xOnU3gS,2020-0188,2021-10-30,13:07:42,14:56:15,NA,incomplete,true,true,NA,NA,0,20,NA,black,n_l_036.jpg,NA,NA,NA,NA,NA,unpleasant,pleasant,NA,NA,NA,NA,NA,right,1477.09999999404,true,NA,NA,NA,NA,NA,NA,NA,NA
9xOnU3gS,3ac6mfv6anv2a7u5af0lkpxttwbhzq,36nemu28xjqmvao5hr1t2a7zxrcmw1,9xOnU3gS,2020-0188,2021-10-30,13:07:42,14:56:15,NA,incomplete,true,true,NA,NA,0,21,NA,black,m_s_114.jpg,NA,NA,NA,NA,NA,pleasant,unpleasant,NA,NA,NA,NA,NA,left,1698,true,NA,NA,NA,NA,NA,NA,NA,NA
9xOnU3gS,3ac6mfv6anv2a7u5af0lkpxttwbhzq,36nemu28xjqmvao5hr1t2a7zxrcmw1,9xOnU3gS,2020-0188,2021-10-30,13:07:42,14:56:15,NA,incomplete,true,true,NA,NA,0,22,NA,black,n_s_034.jpg,NA,NA,NA,NA,NA,unpleasant,pleasant,NA,NA,NA,NA,NA,right,1146.79999999702,true,NA,NA,NA,NA,NA,NA,NA,NA
9xOnU3gS,3ac6mfv6anv2a7u5af0lkpxttwbhzq,36nemu28xjqmvao5hr1t2a7zxrcmw1,9xOnU3gS,2020-0188,2021-10-30,13:07:42,14:56:15,NA,incomplete,true,true,NA,NA,0,23,NA,black,m_s_087.jpg,NA,NA,NA,NA,NA,unpleasant,pleasant,NA,NA,NA,NA,NA,left,2238,true,NA,NA,NA,NA,NA,NA,NA,NA
9xOnU3gS,3ac6mfv6anv2a7u5af0lkpxttwbhzq,36nemu28xjqmvao5hr1t2a7zxrcmw1,9xOnU3gS,2020-0188,2021-10-30,13:07:42,14:56:15,NA,incomplete,true,true,NA,NA,0,24,NA,red,n_s_013.jpg,NA,NA,NA,NA,NA,pleasant,unpleasant,NA,NA,NA,NA,NA,left,1625.10000000894,true,NA,NA,NA,NA,NA,NA,NA,NA
9xOnU3gS,3ac6mfv6anv2a7u5af0lkpxttwbhzq,36nemu28xjqmvao5hr1t2a7zxrcmw1,9xOnU3gS,2020-0188,2021-10-30,13:07:42,14:56:15,NA,incomplete,true,true,NA,NA,0,25,NA,red,m_s_111.jpg,NA,NA,NA,NA,NA,unpleasant,pleasant,NA,NA,NA,NA,NA,left,1800.09999999404,true,NA,NA,NA,NA,NA,NA,NA,NA
9xOnU3gS,3ac6mfv6anv2a7u5af0lkpxttwbhzq,36nemu28xjqmvao5hr1t2a7zxrcmw1,9xOnU3gS,2020-0188,2021-10-30,13:07:42,14:56:15,NA,incomplete,true,true,NA,NA,0,26,NA,red,n_l_112.jpg,NA,NA,NA,NA,NA,unpleasant,pleasant,NA,NA,NA,NA,NA,left,1437.10000000894,true,NA,NA,NA,NA,NA,NA,NA,NA
9xOnU3gS,3ac6mfv6anv2a7u5af0lkpxttwbhzq,36nemu28xjqmvao5hr1t2a7zxrcmw1,9xOnU3gS,2020-0188,2021-10-30,13:07:42,14:56:15,NA,incomplete,true,true,NA,NA,0,27,NA,red,m_s_069.jpg,NA,NA,NA,NA,NA,unpleasant,pleasant,NA,NA,NA,NA,NA,left,1276.40000000596,true,NA,NA,NA,NA,NA,NA,NA,NA
9xOnU3gS,3ac6mfv6anv2a7u5af0lkpxttwbhzq,36nemu28xjqmvao5hr1t2a7zxrcmw1,9xOnU3gS,2020-0188,2021-10-30,13:07:42,14:56:15,NA,incomplete,true,true,NA,NA,0,28,NA,red,m_l_063.jpg,NA,NA,NA,NA,NA,unpleasant,pleasant,NA,NA,NA,NA,NA,left,2419.90000000596,true,NA,NA,NA,NA,NA,NA,NA,NA
9xOnU3gS,3ac6mfv6anv2a7u5af0lkpxttwbhzq,36nemu28xjqmvao5hr1t2a7zxrcmw1,9xOnU3gS,2020-0188,2021-10-30,13:07:42,14:56:15,NA,incomplete,true,true,NA,NA,0,29,NA,red,m_l_107.jpg,NA,NA,NA,NA,NA,unpleasant,pleasant,NA,NA,NA,NA,NA,left,2525.70000000298,true,NA,NA,NA,NA,NA,NA,NA,NA
9xOnU3gS,3ac6mfv6anv2a7u5af0lkpxttwbhzq,36nemu28xjqmvao5hr1t2a7zxrcmw1,9xOnU3gS,2020-0188,2021-10-30,13:07:42,14:56:15,NA,incomplete,true,true,NA,NA,0,30,NA,purple,m_l_007.jpg,NA,NA,NA,NA,NA,pleasant,unpleasant,NA,NA,NA,NA,NA,right,2107.80000001192,true,NA,NA,NA,NA,NA,NA,NA,NA
9xOnU3gS,3ac6mfv6anv2a7u5af0lkpxttwbhzq,36nemu28xjqmvao5hr1t2a7zxrcmw1,9xOnU3gS,2020-0188,2021-10-30,13:07:42,14:56:15,NA,incomplete,true,true,NA,NA,0,31,NA,purple,n_l_013.jpg,NA,NA,NA,NA,NA,unpleasant,pleasant,NA,NA,NA,NA,NA,left,1198.09999999404,true,NA,NA,NA,NA,NA,NA,NA,NA
9xOnU3gS,3ac6mfv6anv2a7u5af0lkpxttwbhzq,36nemu28xjqmvao5hr1t2a7zxrcmw1,9xOnU3gS,2020-0188,2021-10-30,13:07:42,14:56:15,NA,incomplete,true,true,NA,NA,0,32,NA,purple,m_l_076.jpg,NA,NA,NA,NA,NA,pleasant,unpleasant,NA,NA,NA,NA,NA,right,1425.70000000298,true,NA,NA,NA,NA,NA,NA,NA,NA
9xOnU3gS,3ac6mfv6anv2a7u5af0lkpxttwbhzq,36nemu28xjqmvao5hr1t2a7zxrcmw1,9xOnU3gS,2020-0188,2021-10-30,13:07:42,14:56:15,NA,incomplete,true,true,NA,NA,0,33,NA,purple,m_l_084.jpg,NA,NA,NA,NA,NA,pleasant,unpleasant,NA,NA,NA,NA,NA,right,1597.90000000596,true,NA,NA,NA,NA,NA,NA,NA,NA
9xOnU3gS,3ac6mfv6anv2a7u5af0lkpxttwbhzq,36nemu28xjqmvao5hr1t2a7zxrcmw1,9xOnU3gS,2020-0188,2021-10-30,13:07:42,14:56:15,NA,incomplete,true,true,NA,NA,0,34,NA,purple,m_s_050.jpg,NA,NA,NA,NA,NA,unpleasant,pleasant,NA,NA,NA,NA,NA,left,2058.09999999404,true,NA,NA,NA,NA,NA,NA,NA,NA
9xOnU3gS,3ac6mfv6anv2a7u5af0lkpxttwbhzq,36nemu28xjqmvao5hr1t2a7zxrcmw1,9xOnU3gS,2020-0188,2021-10-30,13:07:42,14:56:15,NA,incomplete,true,true,NA,NA,0,35,NA,purple,m_s_065.jpg,NA,NA,NA,NA,NA,unpleasant,pleasant,NA,NA,NA,NA,NA,right,2217.79999999702,true,NA,NA,NA,NA,NA,NA,NA,NA
9xOnU3gS,3ac6mfv6anv2a7u5af0lkpxttwbhzq,36nemu28xjqmvao5hr1t2a7zxrcmw1,9xOnU3gS,2020-0188,2021-10-30,13:07:42,14:56:15,NA,incomplete,true,NA,NA,true,0,0,NA,NA,NA,right,m_l_056.jpg,black,yellow,NA,NA,NA,NA,NA,NA,NA,NA,NA,NaN,NA,3746.699999988079,right,1,NA,NA,NA,NA,NA
9xOnU3gS,3ac6mfv6anv2a7u5af0lkpxttwbhzq,36nemu28xjqmvao5hr1t2a7zxrcmw1,9xOnU3gS,2020-0188,2021-10-30,13:07:42,14:56:15,NA,incomplete,true,NA,NA,true,0,1,NA,NA,NA,left,n_l_022.jpg,white,brown,NA,NA,NA,NA,NA,NA,NA,NA,NA,NaN,NA,3302.4000000059605,left,1,NA,NA,NA,NA,NA
9xOnU3gS,3ac6mfv6anv2a7u5af0lkpxttwbhzq,36nemu28xjqmvao5hr1t2a7zxrcmw1,9xOnU3gS,2020-0188,2021-10-30,13:07:42,14:56:15,NA,incomplete,true,NA,NA,true,0,2,NA,NA,NA,left,n_s_096.jpg,brown,yellow,NA,NA,NA,NA,NA,NA,NA,NA,NA,NaN,NA,3956.4000000059605,left,1,NA,NA,NA,NA,NA
9xOnU3gS,3ac6mfv6anv2a7u5af0lkpxttwbhzq,36nemu28xjqmvao5hr1t2a7zxrcmw1,9xOnU3gS,2020-0188,2021-10-30,13:07:42,14:56:15,NA,incomplete,true,NA,NA,true,0,3,NA,NA,NA,left,n_l_015.jpg,black,red,NA,NA,NA,NA,NA,NA,NA,NA,NA,NaN,NA,1980.2999999970198,left,1,NA,NA,NA,NA,NA
9xOnU3gS,3ac6mfv6anv2a7u5af0lkpxttwbhzq,36nemu28xjqmvao5hr1t2a7zxrcmw1,9xOnU3gS,2020-0188,2021-10-30,13:07:42,14:56:15,NA,incomplete,true,NA,NA,true,0,4,NA,NA,NA,right,m_l_019.jpg,white,brown,NA,NA,NA,NA,NA,NA,NA,NA,NA,NaN,NA,3413.6000000089407,right,1,NA,NA,NA,NA,NA
9xOnU3gS,3ac6mfv6anv2a7u5af0lkpxttwbhzq,36nemu28xjqmvao5hr1t2a7zxrcmw1,9xOnU3gS,2020-0188,2021-10-30,13:07:42,14:56:15,NA,incomplete,true,NA,NA,true,0,5,NA,NA,NA,left,n_l_013.jpg,purple,red,NA,NA,NA,NA,NA,NA,NA,NA,NA,NaN,NA,2860.5,left,1,NA,NA,NA,NA,NA
9xOnU3gS,3ac6mfv6anv2a7u5af0lkpxttwbhzq,36nemu28xjqmvao5hr1t2a7zxrcmw1,9xOnU3gS,2020-0188,2021-10-30,13:07:42,14:56:15,NA,incomplete,true,NA,NA,true,0,6,NA,NA,NA,left,m_l_041.jpg,brown,white,NA,NA,NA,NA,NA,NA,NA,NA,NA,NaN,NA,1707.1000000089407,right,0,NA,NA,NA,NA,NA
9xOnU3gS,3ac6mfv6anv2a7u5af0lkpxttwbhzq,36nemu28xjqmvao5hr1t2a7zxrcmw1,9xOnU3gS,2020-0188,2021-10-30,13:07:42,14:56:15,NA,incomplete,true,NA,NA,true,0,7,NA,NA,NA,left,m_l_063.jpg,red,black,NA,NA,NA,NA,NA,NA,NA,NA,NA,NaN,NA,5385.79999999702,left,1,NA,NA,NA,NA,NA
9xOnU3gS,3ac6mfv6anv2a7u5af0lkpxttwbhzq,36nemu28xjqmvao5hr1t2a7zxrcmw1,9xOnU3gS,2020-0188,2021-10-30,13:07:42,14:56:15,NA,incomplete,true,NA,NA,true,0,8,NA,NA,NA,right,m_l_076.jpg,red,purple,NA,NA,NA,NA,NA,NA,NA,NA,NA,NaN,NA,2907.7000000029802,right,1,NA,NA,NA,NA,NA
9xOnU3gS,3ac6mfv6anv2a7u5af0lkpxttwbhzq,36nemu28xjqmvao5hr1t2a7zxrcmw1,9xOnU3gS,2020-0188,2021-10-30,13:07:42,14:56:15,NA,incomplete,true,NA,NA,true,0,9,NA,NA,NA,right,n_l_112.jpg,purple,red,NA,NA,NA,NA,NA,NA,NA,NA,NA,NaN,NA,3595.199999988079,right,1,NA,NA,NA,NA,NA
9xOnU3gS,3ac6mfv6anv2a7u5af0lkpxttwbhzq,36nemu28xjqmvao5hr1t2a7zxrcmw1,9xOnU3gS,2020-0188,2021-10-30,13:07:42,14:56:15,NA,incomplete,true,NA,NA,true,0,10,NA,NA,NA,left,m_s_111.jpg,red,black,NA,NA,NA,NA,NA,NA,NA,NA,NA,NaN,NA,2170.9000000059605,left,1,NA,NA,NA,NA,NA
9xOnU3gS,3ac6mfv6anv2a7u5af0lkpxttwbhzq,36nemu28xjqmvao5hr1t2a7zxrcmw1,9xOnU3gS,2020-0188,2021-10-30,13:07:42,14:56:15,NA,incomplete,true,NA,NA,true,0,11,NA,NA,NA,left,m_s_093.jpg,brown,white,NA,NA,NA,NA,NA,NA,NA,NA,NA,NaN,NA,2475.0999999940395,left,1,NA,NA,NA,NA,NA
9xOnU3gS,3ac6mfv6anv2a7u5af0lkpxttwbhzq,36nemu28xjqmvao5hr1t2a7zxrcmw1,9xOnU3gS,2020-0188,2021-10-30,13:07:42,14:56:15,NA,incomplete,true,NA,NA,true,0,12,NA,NA,NA,left,m_s_065.jpg,purple,red,NA,NA,NA,NA,NA,NA,NA,NA,NA,NaN,NA,4307.5,left,1,NA,NA,NA,NA,NA
9xOnU3gS,3ac6mfv6anv2a7u5af0lkpxttwbhzq,36nemu28xjqmvao5hr1t2a7zxrcmw1,9xOnU3gS,2020-0188,2021-10-30,13:07:42,14:56:15,NA,incomplete,true,NA,NA,true,0,13,NA,NA,NA,right,m_l_023.jpg,brown,white,NA,NA,NA,NA,NA,NA,NA,NA,NA,NaN,NA,1676.4000000059605,right,1,NA,NA,NA,NA,NA
9xOnU3gS,3ac6mfv6anv2a7u5af0lkpxttwbhzq,36nemu28xjqmvao5hr1t2a7zxrcmw1,9xOnU3gS,2020-0188,2021-10-30,13:07:42,14:56:15,NA,incomplete,true,NA,NA,true,0,14,NA,NA,NA,left,n_l_065.jpg,yellow,black,NA,NA,NA,NA,NA,NA,NA,NA,NA,NaN,NA,5587.899999991059,left,1,NA,NA,NA,NA,NA
9xOnU3gS,3ac6mfv6anv2a7u5af0lkpxttwbhzq,36nemu28xjqmvao5hr1t2a7zxrcmw1,9xOnU3gS,2020-0188,2021-10-30,13:07:42,14:56:15,NA,incomplete,true,NA,NA,true,0,15,NA,NA,NA,right,m_l_107.jpg,purple,red,NA,NA,NA,NA,NA,NA,NA,NA,NA,NaN,NA,4377.5999999940395,left,0,NA,NA,NA,NA,NA
9xOnU3gS,3ac6mfv6anv2a7u5af0lkpxttwbhzq,36nemu28xjqmvao5hr1t2a7zxrcmw1,9xOnU3gS,2020-0188,2021-10-30,13:07:42,14:56:15,NA,incomplete,true,NA,NA,true,0,16,NA,NA,NA,left,n_s_034.jpg,black,red,NA,NA,NA,NA,NA,NA,NA,NA,NA,NaN,NA,2428.5999999940395,left,1,NA,NA,NA,NA,NA
9xOnU3gS,3ac6mfv6anv2a7u5af0lkpxttwbhzq,36nemu28xjqmvao5hr1t2a7zxrcmw1,9xOnU3gS,2020-0188,2021-10-30,13:07:42,14:56:15,NA,incomplete,true,NA,NA,true,0,17,NA,NA,NA,right,n_s_055.jpg,brown,white,NA,NA,NA,NA,NA,NA,NA,NA,NA,NaN,NA,1700.8999999910593,right,1,NA,NA,NA,NA,NA
9xOnU3gS,3ac6mfv6anv2a7u5af0lkpxttwbhzq,36nemu28xjqmvao5hr1t2a7zxrcmw1,9xOnU3gS,2020-0188,2021-10-30,13:07:42,14:56:15,NA,incomplete,true,NA,NA,true,0,18,NA,NA,NA,left,n_s_116.jpg,yellow,black,NA,NA,NA,NA,NA,NA,NA,NA,NA,NaN,NA,2108,left,1,NA,NA,NA,NA,NA
9xOnU3gS,3ac6mfv6anv2a7u5af0lkpxttwbhzq,36nemu28xjqmvao5hr1t2a7zxrcmw1,9xOnU3gS,2020-0188,2021-10-30,13:07:42,14:56:15,NA,incomplete,true,NA,NA,true,0,19,NA,NA,NA,right,n_s_022.jpg,brown,yellow,NA,NA,NA,NA,NA,NA,NA,NA,NA,NaN,NA,3561.7999999970198,right,1,NA,NA,NA,NA,NA
9xOnU3gS,3ac6mfv6anv2a7u5af0lkpxttwbhzq,36nemu28xjqmvao5hr1t2a7zxrcmw1,9xOnU3gS,2020-0188,2021-10-30,13:07:42,14:56:15,NA,incomplete,true,NA,NA,true,0,20,NA,NA,NA,left,m_s_087.jpg,black,red,NA,NA,NA,NA,NA,NA,NA,NA,NA,NaN,NA,2948.1000000089407,left,1,NA,NA,NA,NA,NA
9xOnU3gS,3ac6mfv6anv2a7u5af0lkpxttwbhzq,36nemu28xjqmvao5hr1t2a7zxrcmw1,9xOnU3gS,2020-0188,2021-10-30,13:07:42,14:56:15,NA,incomplete,true,NA,NA,true,0,21,NA,NA,NA,left,n_l_036.jpg,black,red,NA,NA,NA,NA,NA,NA,NA,NA,NA,NaN,NA,3787.2000000029802,right,0,NA,NA,NA,NA,NA
9xOnU3gS,3ac6mfv6anv2a7u5af0lkpxttwbhzq,36nemu28xjqmvao5hr1t2a7zxrcmw1,9xOnU3gS,2020-0188,2021-10-30,13:07:42,14:56:15,NA,incomplete,true,NA,true,NA,0,0,NA,NA,NA,left,NA,NA,NA,absent,NA,NA,m_l_063.jpg,red,m_l_076.jpg,purple,between,NA,NaN,NA,NA,NA,NA,left,6272.199999988079,1,1,5942.79999999702
9xOnU3gS,3ac6mfv6anv2a7u5af0lkpxttwbhzq,36nemu28xjqmvao5hr1t2a7zxrcmw1,9xOnU3gS,2020-0188,2021-10-30,13:07:42,14:56:15,NA,incomplete,true,NA,true,NA,0,1,NA,NA,NA,left,NA,NA,NA,absent,NA,NA,n_l_015.jpg,black,m_s_087.jpg,black,within,NA,NaN,NA,NA,NA,NA,left,3764.5999999940395,1,2,1595.9000000059605
9xOnU3gS,3ac6mfv6anv2a7u5af0lkpxttwbhzq,36nemu28xjqmvao5hr1t2a7zxrcmw1,9xOnU3gS,2020-0188,2021-10-30,13:07:42,14:56:15,NA,incomplete,true,NA,true,NA,0,2,NA,NA,NA,right,NA,NA,NA,absent,NA,NA,n_l_036.jpg,black,n_s_022.jpg,yellow,between,NA,NaN,NA,NA,NA,NA,right,3562.7999999970198,1,1,1555.4000000059605
9xOnU3gS,3ac6mfv6anv2a7u5af0lkpxttwbhzq,36nemu28xjqmvao5hr1t2a7zxrcmw1,9xOnU3gS,2020-0188,2021-10-30,13:07:42,14:56:15,NA,incomplete,true,NA,true,NA,0,3,NA,NA,NA,left,NA,NA,NA,absent,NA,NA,m_l_041.jpg,brown,m_l_056.jpg,yellow,between,NA,NaN,NA,NA,NA,NA,left,5580.20000000298,1,2,3060
9xOnU3gS,3ac6mfv6anv2a7u5af0lkpxttwbhzq,36nemu28xjqmvao5hr1t2a7zxrcmw1,9xOnU3gS,2020-0188,2021-10-30,13:07:42,14:56:15,NA,incomplete,true,NA,true,NA,0,4,NA,NA,NA,left,NA,NA,NA,absent,NA,NA,m_s_093.jpg,brown,m_l_019.jpg,brown,within,NA,NaN,NA,NA,NA,NA,left,9267.79999999702,1,0,1270
9xOnU3gS,3ac6mfv6anv2a7u5af0lkpxttwbhzq,36nemu28xjqmvao5hr1t2a7zxrcmw1,9xOnU3gS,2020-0188,2021-10-30,13:07:42,14:56:15,NA,incomplete,true,NA,true,NA,0,5,NA,NA,NA,right,NA,NA,NA,absent,NA,NA,m_l_107.jpg,red,m_s_111.jpg,red,within,NA,NaN,NA,NA,NA,NA,right,2715.4000000059605,1,2,3941
9xOnU3gS,3ac6mfv6anv2a7u5af0lkpxttwbhzq,36nemu28xjqmvao5hr1t2a7zxrcmw1,9xOnU3gS,2020-0188,2021-10-30,13:07:42,14:56:15,NA,incomplete,true,NA,true,NA,0,6,NA,NA,NA,right,NA,NA,NA,absent,NA,NA,n_l_112.jpg,red,n_s_034.jpg,black,between,NA,NaN,NA,NA,NA,NA,right,4282.300000011921,1,2,2259.800000011921
9xOnU3gS,3ac6mfv6anv2a7u5af0lkpxttwbhzq,36nemu28xjqmvao5hr1t2a7zxrcmw1,9xOnU3gS,2020-0188,2021-10-30,13:07:42,14:56:15,NA,incomplete,true,NA,true,NA,0,7,NA,NA,NA,right,NA,NA,NA,absent,NA,NA,n_s_096.jpg,brown,n_s_055.jpg,white,between,NA,NaN,NA,NA,NA,NA,left,4252.20000000298,0,1,1196.5999999940395
9xOnU3gS,3ac6mfv6anv2a7u5af0lkpxttwbhzq,36nemu28xjqmvao5hr1t2a7zxrcmw1,9xOnU3gS,2020-0188,2021-10-30,13:07:42,14:56:15,NA,incomplete,true,NA,true,NA,0,8,NA,NA,NA,right,NA,NA,NA,absent,NA,NA,m_s_065.jpg,purple,n_l_013.jpg,purple,within,NA,NaN,NA,NA,NA,NA,left,5182,0,3,1563.7000000029802
9xOnU3gS,3ac6mfv6anv2a7u5af0lkpxttwbhzq,36nemu28xjqmvao5hr1t2a7zxrcmw1,9xOnU3gS,2020-0188,2021-10-30,13:07:42,14:56:15,NA,incomplete,true,NA,true,NA,0,9,NA,NA,NA,left,NA,NA,NA,absent,NA,NA,m_l_023.jpg,white,n_l_022.jpg,white,within,NA,NaN,NA,NA,NA,NA,right,2963,0,2,1604.5
9xOnU3gS,3ac6mfv6anv2a7u5af0lkpxttwbhzq,36nemu28xjqmvao5hr1t2a7zxrcmw1,9xOnU3gS,2020-0188,2021-10-30,13:07:42,14:56:15,NA,incomplete,true,NA,true,NA,0,10,NA,NA,NA,left,NA,NA,NA,absent,NA,NA,n_l_065.jpg,yellow,n_s_116.jpg,yellow,within,NA,NaN,NA,NA,NA,NA,left,5036.29999999702,1,2,948.7999999970198
9xOnU3gS,3ac6mfv6anv2a7u5af0lkpxttwbhzq,36nemu28xjqmvao5hr1t2a7zxrcmw1,9xOnU3gS,2020-0188,2021-10-30,13:07:42,14:56:15,NA,incomplete,false,true,NA,NA,1,0,NA,black,n_l_082.jpg,NA,NA,NA,NA,NA,unpleasant,pleasant,NA,NA,NA,NA,NA,right,2612.40000000596,true,NA,NA,NA,NA,NA,NA,NA,NA
9xOnU3gS,3ac6mfv6anv2a7u5af0lkpxttwbhzq,36nemu28xjqmvao5hr1t2a7zxrcmw1,9xOnU3gS,2020-0188,2021-10-30,13:07:42,14:56:15,NA,incomplete,false,true,NA,NA,1,1,NA,black,n_l_113.jpg,NA,NA,NA,NA,NA,pleasant,unpleasant,NA,NA,NA,NA,NA,right,2484.79999999702,true,NA,NA,NA,NA,NA,NA,NA,NA
9xOnU3gS,3ac6mfv6anv2a7u5af0lkpxttwbhzq,36nemu28xjqmvao5hr1t2a7zxrcmw1,9xOnU3gS,2020-0188,2021-10-30,13:07:42,14:56:15,NA,incomplete,false,true,NA,NA,1,2,NA,black,n_s_051.jpg,NA,NA,NA,NA,NA,unpleasant,pleasant,NA,NA,NA,NA,NA,right,1910,true,NA,NA,NA,NA,NA,NA,NA,NA
9xOnU3gS,3ac6mfv6anv2a7u5af0lkpxttwbhzq,36nemu28xjqmvao5hr1t2a7zxrcmw1,9xOnU3gS,2020-0188,2021-10-30,13:07:42,14:56:15,NA,incomplete,false,true,NA,NA,1,3,NA,black,m_l_034.jpg,NA,NA,NA,NA,NA,pleasant,unpleasant,NA,NA,NA,NA,NA,left,1540.09999999404,true,NA,NA,NA,NA,NA,NA,NA,NA
9xOnU3gS,3ac6mfv6anv2a7u5af0lkpxttwbhzq,36nemu28xjqmvao5hr1t2a7zxrcmw1,9xOnU3gS,2020-0188,2021-10-30,13:07:42,14:56:15,NA,incomplete,false,true,NA,NA,1,4,NA,black,m_s_006.jpg,NA,NA,NA,NA,NA,unpleasant,pleasant,NA,NA,NA,NA,NA,right,2167.29999999702,true,NA,NA,NA,NA,NA,NA,NA,NA
9xOnU3gS,3ac6mfv6anv2a7u5af0lkpxttwbhzq,36nemu28xjqmvao5hr1t2a7zxrcmw1,9xOnU3gS,2020-0188,2021-10-30,13:07:42,14:56:15,NA,incomplete,false,true,NA,NA,1,5,NA,black,m_l_096.jpg,NA,NA,NA,NA,NA,unpleasant,pleasant,NA,NA,NA,NA,NA,right,2540.80000001192,true,NA,NA,NA,NA,NA,NA,NA,NA
9xOnU3gS,3ac6mfv6anv2a7u5af0lkpxttwbhzq,36nemu28xjqmvao5hr1t2a7zxrcmw1,9xOnU3gS,2020-0188,2021-10-30,13:07:42,14:56:15,NA,incomplete,false,true,NA,NA,1,6,NA,brown,m_s_049.jpg,NA,NA,NA,NA,NA,pleasant,unpleasant,NA,NA,NA,NA,NA,left,2444.59999999404,true,NA,NA,NA,NA,NA,NA,NA,NA
9xOnU3gS,3ac6mfv6anv2a7u5af0lkpxttwbhzq,36nemu28xjqmvao5hr1t2a7zxrcmw1,9xOnU3gS,2020-0188,2021-10-30,13:07:42,14:56:15,NA,incomplete,false,true,NA,NA,1,7,NA,brown,n_s_020.jpg,NA,NA,NA,NA,NA,pleasant,unpleasant,NA,NA,NA,NA,NA,left,2545.79999999702,true,NA,NA,NA,NA,NA,NA,NA,NA
9xOnU3gS,3ac6mfv6anv2a7u5af0lkpxttwbhzq,36nemu28xjqmvao5hr1t2a7zxrcmw1,9xOnU3gS,2020-0188,2021-10-30,13:07:42,14:56:15,NA,incomplete,false,true,NA,NA,1,8,NA,brown,m_l_097.jpg,NA,NA,NA,NA,NA,pleasant,unpleasant,NA,NA,NA,NA,NA,left,1560,true,NA,NA,NA,NA,NA,NA,NA,NA
9xOnU3gS,3ac6mfv6anv2a7u5af0lkpxttwbhzq,36nemu28xjqmvao5hr1t2a7zxrcmw1,9xOnU3gS,2020-0188,2021-10-30,13:07:42,14:56:15,NA,incomplete,false,true,NA,NA,1,9,NA,brown,n_s_058.jpg,NA,NA,NA,NA,NA,pleasant,unpleasant,NA,NA,NA,NA,NA,right,1420.69999998808,true,NA,NA,NA,NA,NA,NA,NA,NA
9xOnU3gS,3ac6mfv6anv2a7u5af0lkpxttwbhzq,36nemu28xjqmvao5hr1t2a7zxrcmw1,9xOnU3gS,2020-0188,2021-10-30,13:07:42,14:56:15,NA,incomplete,false,true,NA,NA,1,10,NA,brown,m_l_117.jpg,NA,NA,NA,NA,NA,pleasant,unpleasant,NA,NA,NA,NA,NA,left,2294.10000000894,true,NA,NA,NA,NA,NA,NA,NA,NA
9xOnU3gS,3ac6mfv6anv2a7u5af0lkpxttwbhzq,36nemu28xjqmvao5hr1t2a7zxrcmw1,9xOnU3gS,2020-0188,2021-10-30,13:07:42,14:56:15,NA,incomplete,false,true,NA,NA,1,11,NA,brown,m_l_102.jpg,NA,NA,NA,NA,NA,unpleasant,pleasant,NA,NA,NA,NA,NA,right,2480.40000000596,true,NA,NA,NA,NA,NA,NA,NA,NA
9xOnU3gS,3ac6mfv6anv2a7u5af0lkpxttwbhzq,36nemu28xjqmvao5hr1t2a7zxrcmw1,9xOnU3gS,2020-0188,2021-10-30,13:07:42,14:56:15,NA,incomplete,false,true,NA,NA,1,12,NA,red,n_l_034.jpg,NA,NA,NA,NA,NA,pleasant,unpleasant,NA,NA,NA,NA,NA,right,1901.09999999404,true,NA,NA,NA,NA,NA,NA,NA,NA
9xOnU3gS,3ac6mfv6anv2a7u5af0lkpxttwbhzq,36nemu28xjqmvao5hr1t2a7zxrcmw1,9xOnU3gS,2020-0188,2021-10-30,13:07:42,14:56:15,NA,incomplete,false,true,NA,NA,1,13,NA,red,n_l_091.jpg,NA,NA,NA,NA,NA,unpleasant,pleasant,NA,NA,NA,NA,NA,left,1803.29999999702,true,NA,NA,NA,NA,NA,NA,NA,NA
9xOnU3gS,3ac6mfv6anv2a7u5af0lkpxttwbhzq,36nemu28xjqmvao5hr1t2a7zxrcmw1,9xOnU3gS,2020-0188,2021-10-30,13:07:42,14:56:15,NA,incomplete,false,true,NA,NA,1,14,NA,red,n_l_088.jpg,NA,NA,NA,NA,NA,pleasant,unpleasant,NA,NA,NA,NA,NA,right,2234.59999999404,true,NA,NA,NA,NA,NA,NA,NA,NA
9xOnU3gS,3ac6mfv6anv2a7u5af0lkpxttwbhzq,36nemu28xjqmvao5hr1t2a7zxrcmw1,9xOnU3gS,2020-0188,2021-10-30,13:07:42,14:56:15,NA,incomplete,false,true,NA,NA,1,15,NA,red,m_l_026.jpg,NA,NA,NA,NA,NA,unpleasant,pleasant,NA,NA,NA,NA,NA,left,1943.09999999404,true,NA,NA,NA,NA,NA,NA,NA,NA
9xOnU3gS,3ac6mfv6anv2a7u5af0lkpxttwbhzq,36nemu28xjqmvao5hr1t2a7zxrcmw1,9xOnU3gS,2020-0188,2021-10-30,13:07:42,14:56:15,NA,incomplete,false,true,NA,NA,1,16,NA,red,n_l_038.jpg,NA,NA,NA,NA,NA,pleasant,unpleasant,NA,NA,NA,NA,NA,right,1348.59999999404,true,NA,NA,NA,NA,NA,NA,NA,NA
9xOnU3gS,3ac6mfv6anv2a7u5af0lkpxttwbhzq,36nemu28xjqmvao5hr1t2a7zxrcmw1,9xOnU3gS,2020-0188,2021-10-30,13:07:42,14:56:15,NA,incomplete,false,true,NA,NA,1,17,NA,red,m_s_043.jpg,NA,NA,NA,NA,NA,pleasant,unpleasant,NA,NA,NA,NA,NA,right,2148.29999999702,true,NA,NA,NA,NA,NA,NA,NA,NA
9xOnU3gS,3ac6mfv6anv2a7u5af0lkpxttwbhzq,36nemu28xjqmvao5hr1t2a7zxrcmw1,9xOnU3gS,2020-0188,2021-10-30,13:07:42,14:56:15,NA,incomplete,false,true,NA,NA,1,18,NA,gray,n_s_088.jpg,NA,NA,NA,NA,NA,pleasant,unpleasant,NA,NA,NA,NA,NA,left,1515.10000000894,true,NA,NA,NA,NA,NA,NA,NA,NA
9xOnU3gS,3ac6mfv6anv2a7u5af0lkpxttwbhzq,36nemu28xjqmvao5hr1t2a7zxrcmw1,9xOnU3gS,2020-0188,2021-10-30,13:07:42,14:56:15,NA,incomplete,false,true,NA,NA,1,19,NA,gray,n_l_093.jpg,NA,NA,NA,NA,NA,pleasant,unpleasant,NA,NA,NA,NA,NA,right,2474.90000000596,true,NA,NA,NA,NA,NA,NA,NA,NA
9xOnU3gS,3ac6mfv6anv2a7u5af0lkpxttwbhzq,36nemu28xjqmvao5hr1t2a7zxrcmw1,9xOnU3gS,2020-0188,2021-10-30,13:07:42,14:56:15,NA,incomplete,false,true,NA,NA,1,20,NA,gray,m_s_002.jpg,NA,NA,NA,NA,NA,pleasant,unpleasant,NA,NA,NA,NA,NA,right,2787.09999999404,true,NA,NA,NA,NA,NA,NA,NA,NA
9xOnU3gS,3ac6mfv6anv2a7u5af0lkpxttwbhzq,36nemu28xjqmvao5hr1t2a7zxrcmw1,9xOnU3gS,2020-0188,2021-10-30,13:07:42,14:56:15,NA,incomplete,false,true,NA,NA,1,21,NA,gray,n_l_114.jpg,NA,NA,NA,NA,NA,pleasant,unpleasant,NA,NA,NA,NA,NA,left,1585.69999998808,true,NA,NA,NA,NA,NA,NA,NA,NA
9xOnU3gS,3ac6mfv6anv2a7u5af0lkpxttwbhzq,36nemu28xjqmvao5hr1t2a7zxrcmw1,9xOnU3gS,2020-0188,2021-10-30,13:07:42,14:56:15,NA,incomplete,false,true,NA,NA,1,22,NA,gray,m_s_068.jpg,NA,NA,NA,NA,NA,pleasant,unpleasant,NA,NA,NA,NA,NA,left,1507.10000000894,true,NA,NA,NA,NA,NA,NA,NA,NA
9xOnU3gS,3ac6mfv6anv2a7u5af0lkpxttwbhzq,36nemu28xjqmvao5hr1t2a7zxrcmw1,9xOnU3gS,2020-0188,2021-10-30,13:07:42,14:56:15,NA,incomplete,false,true,NA,NA,1,23,NA,gray,m_s_029.jpg,NA,NA,NA,NA,NA,unpleasant,pleasant,NA,NA,NA,NA,NA,left,2717.70000000298,true,NA,NA,NA,NA,NA,NA,NA,NA
9xOnU3gS,3ac6mfv6anv2a7u5af0lkpxttwbhzq,36nemu28xjqmvao5hr1t2a7zxrcmw1,9xOnU3gS,2020-0188,2021-10-30,13:07:42,14:56:15,NA,incomplete,false,true,NA,NA,1,24,NA,white,m_s_112.jpg,NA,NA,NA,NA,NA,unpleasant,pleasant,NA,NA,NA,NA,NA,right,2339.09999999404,true,NA,NA,NA,NA,NA,NA,NA,NA
9xOnU3gS,3ac6mfv6anv2a7u5af0lkpxttwbhzq,36nemu28xjqmvao5hr1t2a7zxrcmw1,9xOnU3gS,2020-0188,2021-10-30,13:07:42,14:56:15,NA,incomplete,false,true,NA,NA,1,25,NA,white,n_s_028.jpg,NA,NA,NA,NA,NA,pleasant,unpleasant,NA,NA,NA,NA,NA,left,1625.29999999702,true,NA,NA,NA,NA,NA,NA,NA,NA
9xOnU3gS,3ac6mfv6anv2a7u5af0lkpxttwbhzq,36nemu28xjqmvao5hr1t2a7zxrcmw1,9xOnU3gS,2020-0188,2021-10-30,13:07:42,14:56:15,NA,incomplete,false,true,NA,NA,1,26,NA,white,m_s_044.jpg,NA,NA,NA,NA,NA,pleasant,unpleasant,NA,NA,NA,NA,NA,right,2268.29999999702,true,NA,NA,NA,NA,NA,NA,NA,NA
9xOnU3gS,3ac6mfv6anv2a7u5af0lkpxttwbhzq,36nemu28xjqmvao5hr1t2a7zxrcmw1,9xOnU3gS,2020-0188,2021-10-30,13:07:42,14:56:15,NA,incomplete,false,true,NA,NA,1,27,NA,white,m_s_057.jpg,NA,NA,NA,NA,NA,pleasant,unpleasant,NA,NA,NA,NA,NA,left,1648.79999999702,true,NA,NA,NA,NA,NA,NA,NA,NA
9xOnU3gS,3ac6mfv6anv2a7u5af0lkpxttwbhzq,36nemu28xjqmvao5hr1t2a7zxrcmw1,9xOnU3gS,2020-0188,2021-10-30,13:07:42,14:56:15,NA,incomplete,false,true,NA,NA,1,28,NA,white,m_s_005.jpg,NA,NA,NA,NA,NA,pleasant,unpleasant,NA,NA,NA,NA,NA,left,1622.70000000298,true,NA,NA,NA,NA,NA,NA,NA,NA
9xOnU3gS,3ac6mfv6anv2a7u5af0lkpxttwbhzq,36nemu28xjqmvao5hr1t2a7zxrcmw1,9xOnU3gS,2020-0188,2021-10-30,13:07:42,14:56:15,NA,incomplete,false,true,NA,NA,1,29,NA,white,m_s_031.jpg,NA,NA,NA,NA,NA,unpleasant,pleasant,NA,NA,NA,NA,NA,left,1838.5,true,NA,NA,NA,NA,NA,NA,NA,NA
9xOnU3gS,3ac6mfv6anv2a7u5af0lkpxttwbhzq,36nemu28xjqmvao5hr1t2a7zxrcmw1,9xOnU3gS,2020-0188,2021-10-30,13:07:42,14:56:15,NA,incomplete,false,true,NA,NA,1,30,NA,green,m_l_029.jpg,NA,NA,NA,NA,NA,pleasant,unpleasant,NA,NA,NA,NA,NA,right,1832.40000000596,true,NA,NA,NA,NA,NA,NA,NA,NA
9xOnU3gS,3ac6mfv6anv2a7u5af0lkpxttwbhzq,36nemu28xjqmvao5hr1t2a7zxrcmw1,9xOnU3gS,2020-0188,2021-10-30,13:07:42,14:56:15,NA,incomplete,false,true,NA,NA,1,31,NA,green,n_l_027.jpg,NA,NA,NA,NA,NA,unpleasant,pleasant,NA,NA,NA,NA,NA,right,1744.70000000298,true,NA,NA,NA,NA,NA,NA,NA,NA
9xOnU3gS,3ac6mfv6anv2a7u5af0lkpxttwbhzq,36nemu28xjqmvao5hr1t2a7zxrcmw1,9xOnU3gS,2020-0188,2021-10-30,13:07:42,14:56:15,NA,incomplete,false,true,NA,NA,1,32,NA,green,n_s_032.jpg,NA,NA,NA,NA,NA,unpleasant,pleasant,NA,NA,NA,NA,NA,left,1016.20000000298,true,NA,NA,NA,NA,NA,NA,NA,NA
9xOnU3gS,3ac6mfv6anv2a7u5af0lkpxttwbhzq,36nemu28xjqmvao5hr1t2a7zxrcmw1,9xOnU3gS,2020-0188,2021-10-30,13:07:42,14:56:15,NA,incomplete,false,true,NA,NA,1,33,NA,green,n_s_007.jpg,NA,NA,NA,NA,NA,unpleasant,pleasant,NA,NA,NA,NA,NA,left,1815.20000000298,true,NA,NA,NA,NA,NA,NA,NA,NA
9xOnU3gS,3ac6mfv6anv2a7u5af0lkpxttwbhzq,36nemu28xjqmvao5hr1t2a7zxrcmw1,9xOnU3gS,2020-0188,2021-10-30,13:07:42,14:56:15,NA,incomplete,false,true,NA,NA,1,34,NA,green,n_s_085.jpg,NA,NA,NA,NA,NA,pleasant,unpleasant,NA,NA,NA,NA,NA,left,2667.30000001192,true,NA,NA,NA,NA,NA,NA,NA,NA
9xOnU3gS,3ac6mfv6anv2a7u5af0lkpxttwbhzq,36nemu28xjqmvao5hr1t2a7zxrcmw1,9xOnU3gS,2020-0188,2021-10-30,13:07:42,14:56:15,NA,incomplete,false,true,NA,NA,1,35,NA,green,m_l_098.jpg,NA,NA,NA,NA,NA,unpleasant,pleasant,NA,NA,NA,NA,NA,left,1236.20000000298,true,NA,NA,NA,NA,NA,NA,NA,NA
9xOnU3gS,3ac6mfv6anv2a7u5af0lkpxttwbhzq,36nemu28xjqmvao5hr1t2a7zxrcmw1,9xOnU3gS,2020-0188,2021-10-30,13:07:42,14:56:15,NA,incomplete,false,NA,NA,true,1,0,NA,NA,NA,left,n_l_027.jpg,green,white,NA,NA,NA,NA,NA,NA,NA,NA,NA,NaN,NA,2265.7000000029802,left,1,NA,NA,NA,NA,NA
9xOnU3gS,3ac6mfv6anv2a7u5af0lkpxttwbhzq,36nemu28xjqmvao5hr1t2a7zxrcmw1,9xOnU3gS,2020-0188,2021-10-30,13:07:42,14:56:15,NA,incomplete,false,NA,NA,true,1,1,NA,NA,NA,left,n_l_113.jpg,black,brown,NA,NA,NA,NA,NA,NA,NA,NA,NA,NaN,NA,4652.20000000298,left,1,NA,NA,NA,NA,NA
9xOnU3gS,3ac6mfv6anv2a7u5af0lkpxttwbhzq,36nemu28xjqmvao5hr1t2a7zxrcmw1,9xOnU3gS,2020-0188,2021-10-30,13:07:42,14:56:15,NA,incomplete,false,NA,NA,true,1,2,NA,NA,NA,right,m_l_096.jpg,brown,black,NA,NA,NA,NA,NA,NA,NA,NA,NA,NaN,NA,1978.7000000029802,right,1,NA,NA,NA,NA,NA
9xOnU3gS,3ac6mfv6anv2a7u5af0lkpxttwbhzq,36nemu28xjqmvao5hr1t2a7zxrcmw1,9xOnU3gS,2020-0188,2021-10-30,13:07:42,14:56:15,NA,incomplete,false,NA,NA,true,1,3,NA,NA,NA,left,m_l_098.jpg,green,white,NA,NA,NA,NA,NA,NA,NA,NA,NA,NaN,NA,2131.2000000029802,left,1,NA,NA,NA,NA,NA
9xOnU3gS,3ac6mfv6anv2a7u5af0lkpxttwbhzq,36nemu28xjqmvao5hr1t2a7zxrcmw1,9xOnU3gS,2020-0188,2021-10-30,13:07:42,14:56:15,NA,incomplete,false,NA,NA,true,1,4,NA,NA,NA,left,m_s_044.jpg,white,gray,NA,NA,NA,NA,NA,NA,NA,NA,NA,NaN,NA,6394.29999999702,right,0,NA,NA,NA,NA,NA
9xOnU3gS,3ac6mfv6anv2a7u5af0lkpxttwbhzq,36nemu28xjqmvao5hr1t2a7zxrcmw1,9xOnU3gS,2020-0188,2021-10-30,13:07:42,14:56:15,NA,incomplete,false,NA,NA,true,1,5,NA,NA,NA,left,n_s_028.jpg,white,gray,NA,NA,NA,NA,NA,NA,NA,NA,NA,NaN,NA,1556.1000000089407,left,1,NA,NA,NA,NA,NA
9xOnU3gS,3ac6mfv6anv2a7u5af0lkpxttwbhzq,36nemu28xjqmvao5hr1t2a7zxrcmw1,9xOnU3gS,2020-0188,2021-10-30,13:07:42,14:56:15,NA,incomplete,false,NA,NA,true,1,6,NA,NA,NA,left,m_s_029.jpg,gray,red,NA,NA,NA,NA,NA,NA,NA,NA,NA,NaN,NA,1925.6000000089407,left,1,NA,NA,NA,NA,NA
9xOnU3gS,3ac6mfv6anv2a7u5af0lkpxttwbhzq,36nemu28xjqmvao5hr1t2a7zxrcmw1,9xOnU3gS,2020-0188,2021-10-30,13:07:42,14:56:15,NA,incomplete,false,NA,NA,true,1,7,NA,NA,NA,left,n_l_093.jpg,gray,red,NA,NA,NA,NA,NA,NA,NA,NA,NA,NaN,NA,1917.0999999940395,left,1,NA,NA,NA,NA,NA
9xOnU3gS,3ac6mfv6anv2a7u5af0lkpxttwbhzq,36nemu28xjqmvao5hr1t2a7zxrcmw1,9xOnU3gS,2020-0188,2021-10-30,13:07:42,14:56:15,NA,incomplete,false,NA,NA,true,1,8,NA,NA,NA,right,m_l_097.jpg,black,brown,NA,NA,NA,NA,NA,NA,NA,NA,NA,NaN,NA,1937.7999999970198,right,1,NA,NA,NA,NA,NA
9xOnU3gS,3ac6mfv6anv2a7u5af0lkpxttwbhzq,36nemu28xjqmvao5hr1t2a7zxrcmw1,9xOnU3gS,2020-0188,2021-10-30,13:07:42,14:56:15,NA,incomplete,false,NA,NA,true,1,9,NA,NA,NA,right,n_s_020.jpg,red,brown,NA,NA,NA,NA,NA,NA,NA,NA,NA,NaN,NA,1787.2999999970198,right,1,NA,NA,NA,NA,NA
9xOnU3gS,3ac6mfv6anv2a7u5af0lkpxttwbhzq,36nemu28xjqmvao5hr1t2a7zxrcmw1,9xOnU3gS,2020-0188,2021-10-30,13:07:42,14:56:15,NA,incomplete,false,NA,NA,true,1,10,NA,NA,NA,left,n_l_038.jpg,red,brown,NA,NA,NA,NA,NA,NA,NA,NA,NA,NaN,NA,1819.7999999970198,left,1,NA,NA,NA,NA,NA
9xOnU3gS,3ac6mfv6anv2a7u5af0lkpxttwbhzq,36nemu28xjqmvao5hr1t2a7zxrcmw1,9xOnU3gS,2020-0188,2021-10-30,13:07:42,14:56:15,NA,incomplete,false,NA,NA,true,1,11,NA,NA,NA,right,m_s_031.jpg,green,white,NA,NA,NA,NA,NA,NA,NA,NA,NA,NaN,NA,1683,right,1,NA,NA,NA,NA,NA
9xOnU3gS,3ac6mfv6anv2a7u5af0lkpxttwbhzq,36nemu28xjqmvao5hr1t2a7zxrcmw1,9xOnU3gS,2020-0188,2021-10-30,13:07:42,14:56:15,NA,incomplete,false,NA,NA,true,1,12,NA,NA,NA,right,m_s_043.jpg,brown,red,NA,NA,NA,NA,NA,NA,NA,NA,NA,NaN,NA,1860.0999999940395,left,0,NA,NA,NA,NA,NA
9xOnU3gS,3ac6mfv6anv2a7u5af0lkpxttwbhzq,36nemu28xjqmvao5hr1t2a7zxrcmw1,9xOnU3gS,2020-0188,2021-10-30,13:07:42,14:56:15,NA,incomplete,false,NA,NA,true,1,13,NA,NA,NA,right,m_s_068.jpg,red,gray,NA,NA,NA,NA,NA,NA,NA,NA,NA,NaN,NA,1576,right,1,NA,NA,NA,NA,NA
9xOnU3gS,3ac6mfv6anv2a7u5af0lkpxttwbhzq,36nemu28xjqmvao5hr1t2a7zxrcmw1,9xOnU3gS,2020-0188,2021-10-30,13:07:42,14:56:15,NA,incomplete,false,NA,NA,true,1,14,NA,NA,NA,right,m_s_005.jpg,gray,white,NA,NA,NA,NA,NA,NA,NA,NA,NA,NaN,NA,3735.5,right,1,NA,NA,NA,NA,NA
9xOnU3gS,3ac6mfv6anv2a7u5af0lkpxttwbhzq,36nemu28xjqmvao5hr1t2a7zxrcmw1,9xOnU3gS,2020-0188,2021-10-30,13:07:42,14:56:15,NA,incomplete,false,NA,NA,true,1,15,NA,NA,NA,right,m_s_002.jpg,white,gray,NA,NA,NA,NA,NA,NA,NA,NA,NA,NaN,NA,3739.4000000059605,right,1,NA,NA,NA,NA,NA
9xOnU3gS,3ac6mfv6anv2a7u5af0lkpxttwbhzq,36nemu28xjqmvao5hr1t2a7zxrcmw1,9xOnU3gS,2020-0188,2021-10-30,13:07:42,14:56:15,NA,incomplete,false,NA,NA,true,1,16,NA,NA,NA,left,m_l_117.jpg,brown,black,NA,NA,NA,NA,NA,NA,NA,NA,NA,NaN,NA,2059.8999999910593,left,1,NA,NA,NA,NA,NA
9xOnU3gS,3ac6mfv6anv2a7u5af0lkpxttwbhzq,36nemu28xjqmvao5hr1t2a7zxrcmw1,9xOnU3gS,2020-0188,2021-10-30,13:07:42,14:56:15,NA,incomplete,false,NA,NA,true,1,17,NA,NA,NA,right,n_s_032.jpg,white,green,NA,NA,NA,NA,NA,NA,NA,NA,NA,NaN,NA,1698.9000000059605,right,1,NA,NA,NA,NA,NA
9xOnU3gS,3ac6mfv6anv2a7u5af0lkpxttwbhzq,36nemu28xjqmvao5hr1t2a7zxrcmw1,9xOnU3gS,2020-0188,2021-10-30,13:07:42,14:56:15,NA,incomplete,false,NA,NA,true,1,18,NA,NA,NA,left,n_l_091.jpg,red,brown,NA,NA,NA,NA,NA,NA,NA,NA,NA,NaN,NA,1731.2999999970198,left,1,NA,NA,NA,NA,NA
9xOnU3gS,3ac6mfv6anv2a7u5af0lkpxttwbhzq,36nemu28xjqmvao5hr1t2a7zxrcmw1,9xOnU3gS,2020-0188,2021-10-30,13:07:42,14:56:15,NA,incomplete,false,NA,NA,true,1,19,NA,NA,NA,right,n_l_088.jpg,brown,red,NA,NA,NA,NA,NA,NA,NA,NA,NA,NaN,NA,1954,right,1,NA,NA,NA,NA,NA
9xOnU3gS,3ac6mfv6anv2a7u5af0lkpxttwbhzq,36nemu28xjqmvao5hr1t2a7zxrcmw1,9xOnU3gS,2020-0188,2021-10-30,13:07:42,14:56:15,NA,incomplete,false,NA,NA,true,1,20,NA,NA,NA,right,m_l_102.jpg,black,brown,NA,NA,NA,NA,NA,NA,NA,NA,NA,NaN,NA,3725.9000000059605,right,1,NA,NA,NA,NA,NA
9xOnU3gS,3ac6mfv6anv2a7u5af0lkpxttwbhzq,36nemu28xjqmvao5hr1t2a7zxrcmw1,9xOnU3gS,2020-0188,2021-10-30,13:07:42,14:56:15,NA,incomplete,false,NA,NA,true,1,21,NA,NA,NA,left,m_s_006.jpg,black,brown,NA,NA,NA,NA,NA,NA,NA,NA,NA,NaN,NA,2211.2000000029802,left,1,NA,NA,NA,NA,NA
9xOnU3gS,3ac6mfv6anv2a7u5af0lkpxttwbhzq,36nemu28xjqmvao5hr1t2a7zxrcmw1,9xOnU3gS,2020-0188,2021-10-30,13:07:42,14:56:15,NA,incomplete,false,NA,true,NA,1,0,NA,NA,NA,left,NA,NA,NA,absent,NA,NA,n_s_028.jpg,white,m_s_031.jpg,white,within,NA,NaN,NA,NA,NA,NA,right,3969.4000000059605,0,2,2665.7999999970198
9xOnU3gS,3ac6mfv6anv2a7u5af0lkpxttwbhzq,36nemu28xjqmvao5hr1t2a7zxrcmw1,9xOnU3gS,2020-0188,2021-10-30,13:07:42,14:56:15,NA,incomplete,false,NA,true,NA,1,1,NA,NA,NA,left,NA,NA,NA,absent,NA,NA,n_s_020.jpg,brown,m_l_102.jpg,brown,within,NA,NaN,NA,NA,NA,NA,left,2235.2999999970198,1,1,1857.6000000089407
9xOnU3gS,3ac6mfv6anv2a7u5af0lkpxttwbhzq,36nemu28xjqmvao5hr1t2a7zxrcmw1,9xOnU3gS,2020-0188,2021-10-30,13:07:42,14:56:15,NA,incomplete,false,NA,true,NA,1,2,NA,NA,NA,left,NA,NA,NA,absent,NA,NA,m_l_117.jpg,brown,n_l_088.jpg,red,between,NA,NaN,NA,NA,NA,NA,left,3516.800000011921,1,2,1347.2999999970198
9xOnU3gS,3ac6mfv6anv2a7u5af0lkpxttwbhzq,36nemu28xjqmvao5hr1t2a7zxrcmw1,9xOnU3gS,2020-0188,2021-10-30,13:07:42,14:56:15,NA,incomplete,false,NA,true,NA,1,3,NA,NA,NA,left,NA,NA,NA,absent,NA,NA,n_l_113.jpg,black,m_l_096.jpg,black,within,NA,NaN,NA,NA,NA,NA,right,2274.7999999970198,0,3,1361.5
9xOnU3gS,3ac6mfv6anv2a7u5af0lkpxttwbhzq,36nemu28xjqmvao5hr1t2a7zxrcmw1,9xOnU3gS,2020-0188,2021-10-30,13:07:42,14:56:15,NA,incomplete,false,NA,true,NA,1,4,NA,NA,NA,left,NA,NA,NA,absent,NA,NA,m_s_005.jpg,white,n_s_032.jpg,green,between,NA,NaN,NA,NA,NA,NA,left,4930.79999999702,1,2,2148.5999999940395
9xOnU3gS,3ac6mfv6anv2a7u5af0lkpxttwbhzq,36nemu28xjqmvao5hr1t2a7zxrcmw1,9xOnU3gS,2020-0188,2021-10-30,13:07:42,14:56:15,NA,incomplete,false,NA,true,NA,1,5,NA,NA,NA,right,NA,NA,NA,absent,NA,NA,m_l_097.jpg,brown,m_s_006.jpg,black,between,NA,NaN,NA,NA,NA,NA,left,2396.7000000029802,0,2,1964.5999999940395
9xOnU3gS,3ac6mfv6anv2a7u5af0lkpxttwbhzq,36nemu28xjqmvao5hr1t2a7zxrcmw1,9xOnU3gS,2020-0188,2021-10-30,13:07:42,14:56:15,NA,incomplete,false,NA,true,NA,1,6,NA,NA,NA,left,NA,NA,NA,absent,NA,NA,n_l_093.jpg,gray,m_s_029.jpg,gray,within,NA,NaN,NA,NA,NA,NA,left,2684.7999999970198,1,1,1412.5999999940395
9xOnU3gS,3ac6mfv6anv2a7u5af0lkpxttwbhzq,36nemu28xjqmvao5hr1t2a7zxrcmw1,9xOnU3gS,2020-0188,2021-10-30,13:07:42,14:56:15,NA,incomplete,false,NA,true,NA,1,7,NA,NA,NA,left,NA,NA,NA,absent,NA,NA,n_l_038.jpg,red,m_s_002.jpg,gray,between,NA,NaN,NA,NA,NA,NA,right,6011.79999999702,0,2,2411.2000000029802
9xOnU3gS,3ac6mfv6anv2a7u5af0lkpxttwbhzq,36nemu28xjqmvao5hr1t2a7zxrcmw1,9xOnU3gS,2020-0188,2021-10-30,13:07:42,14:56:15,NA,incomplete,false,NA,true,NA,1,8,NA,NA,NA,right,NA,NA,NA,absent,NA,NA,m_s_044.jpg,white,m_s_068.jpg,gray,between,NA,NaN,NA,NA,NA,NA,right,2539.5,1,0,3045.2000000029802
9xOnU3gS,3ac6mfv6anv2a7u5af0lkpxttwbhzq,36nemu28xjqmvao5hr1t2a7zxrcmw1,9xOnU3gS,2020-0188,2021-10-30,13:07:42,14:56:15,NA,incomplete,false,NA,true,NA,1,9,NA,NA,NA,left,NA,NA,NA,absent,NA,NA,n_l_091.jpg,red,m_s_043.jpg,red,within,NA,NaN,NA,NA,NA,NA,right,6692.0999999940395,0,1,1754.699999988079
9xOnU3gS,3ac6mfv6anv2a7u5af0lkpxttwbhzq,36nemu28xjqmvao5hr1t2a7zxrcmw1,9xOnU3gS,2020-0188,2021-10-30,13:07:42,14:56:15,NA,incomplete,false,NA,true,NA,1,10,NA,NA,NA,right,NA,NA,NA,absent,NA,NA,m_l_098.jpg,green,n_l_027.jpg,green,within,NA,NaN,NA,NA,NA,NA,left,3702.9000000059605,0,0,1325.0999999940395
9xOnU3gS,3ac6mfv6anv2a7u5af0lkpxttwbhzq,36nemu28xjqmvao5hr1t2a7zxrcmw1,9xOnU3gS,2020-0188,2021-10-30,13:07:42,14:56:15,NA,incomplete,false,true,NA,NA,2,0,NA,yellow,m_s_063.jpg,NA,NA,NA,NA,NA,pleasant,unpleasant,NA,NA,NA,NA,NA,left,2221.59999999404,true,NA,NA,NA,NA,NA,NA,NA,NA
9xOnU3gS,3ac6mfv6anv2a7u5af0lkpxttwbhzq,36nemu28xjqmvao5hr1t2a7zxrcmw1,9xOnU3gS,2020-0188,2021-10-30,13:07:42,14:56:15,NA,incomplete,false,true,NA,NA,2,1,NA,yellow,n_s_070.jpg,NA,NA,NA,NA,NA,pleasant,unpleasant,NA,NA,NA,NA,NA,left,2719.60000000894,true,NA,NA,NA,NA,NA,NA,NA,NA
9xOnU3gS,3ac6mfv6anv2a7u5af0lkpxttwbhzq,36nemu28xjqmvao5hr1t2a7zxrcmw1,9xOnU3gS,2020-0188,2021-10-30,13:07:42,14:56:15,NA,incomplete,false,true,NA,NA,2,2,NA,yellow,m_s_039.jpg,NA,NA,NA,NA,NA,pleasant,unpleasant,NA,NA,NA,NA,NA,right,2047.69999998808,true,NA,NA,NA,NA,NA,NA,NA,NA
9xOnU3gS,3ac6mfv6anv2a7u5af0lkpxttwbhzq,36nemu28xjqmvao5hr1t2a7zxrcmw1,9xOnU3gS,2020-0188,2021-10-30,13:07:42,14:56:15,NA,incomplete,false,true,NA,NA,2,3,NA,yellow,n_l_020.jpg,NA,NA,NA,NA,NA,unpleasant,pleasant,NA,NA,NA,NA,NA,left,2343.29999999702,true,NA,NA,NA,NA,NA,NA,NA,NA
9xOnU3gS,3ac6mfv6anv2a7u5af0lkpxttwbhzq,36nemu28xjqmvao5hr1t2a7zxrcmw1,9xOnU3gS,2020-0188,2021-10-30,13:07:42,14:56:15,NA,incomplete,false,true,NA,NA,2,4,NA,yellow,n_s_041.jpg,NA,NA,NA,NA,NA,pleasant,unpleasant,NA,NA,NA,NA,NA,right,2646.5,true,NA,NA,NA,NA,NA,NA,NA,NA
9xOnU3gS,3ac6mfv6anv2a7u5af0lkpxttwbhzq,36nemu28xjqmvao5hr1t2a7zxrcmw1,9xOnU3gS,2020-0188,2021-10-30,13:07:42,14:56:15,NA,incomplete,false,true,NA,NA,2,5,NA,yellow,n_s_061.jpg,NA,NA,NA,NA,NA,pleasant,unpleasant,NA,NA,NA,NA,NA,right,2035.90000000596,true,NA,NA,NA,NA,NA,NA,NA,NA
9xOnU3gS,3ac6mfv6anv2a7u5af0lkpxttwbhzq,36nemu28xjqmvao5hr1t2a7zxrcmw1,9xOnU3gS,2020-0188,2021-10-30,13:07:42,14:56:15,NA,incomplete,false,true,NA,NA,2,6,NA,green,m_s_034.jpg,NA,NA,NA,NA,NA,unpleasant,pleasant,NA,NA,NA,NA,NA,right,3043.39999999106,true,NA,NA,NA,NA,NA,NA,NA,NA
9xOnU3gS,3ac6mfv6anv2a7u5af0lkpxttwbhzq,36nemu28xjqmvao5hr1t2a7zxrcmw1,9xOnU3gS,2020-0188,2021-10-30,13:07:42,14:56:15,NA,incomplete,false,true,NA,NA,2,7,NA,green,m_l_001.jpg,NA,NA,NA,NA,NA,pleasant,unpleasant,NA,NA,NA,NA,NA,left,2296.40000000596,true,NA,NA,NA,NA,NA,NA,NA,NA
9xOnU3gS,3ac6mfv6anv2a7u5af0lkpxttwbhzq,36nemu28xjqmvao5hr1t2a7zxrcmw1,9xOnU3gS,2020-0188,2021-10-30,13:07:42,14:56:15,NA,incomplete,false,true,NA,NA,2,8,NA,green,m_s_027.jpg,NA,NA,NA,NA,NA,unpleasant,pleasant,NA,NA,NA,NA,NA,right,2110.90000000596,true,NA,NA,NA,NA,NA,NA,NA,NA
9xOnU3gS,3ac6mfv6anv2a7u5af0lkpxttwbhzq,36nemu28xjqmvao5hr1t2a7zxrcmw1,9xOnU3gS,2020-0188,2021-10-30,13:07:42,14:56:15,NA,incomplete,false,true,NA,NA,2,9,NA,green,n_s_005.jpg,NA,NA,NA,NA,NA,pleasant,unpleasant,NA,NA,NA,NA,NA,left,1839.09999999404,true,NA,NA,NA,NA,NA,NA,NA,NA
9xOnU3gS,3ac6mfv6anv2a7u5af0lkpxttwbhzq,36nemu28xjqmvao5hr1t2a7zxrcmw1,9xOnU3gS,2020-0188,2021-10-30,13:07:42,14:56:15,NA,incomplete,false,true,NA,NA,2,10,NA,green,n_l_078.jpg,NA,NA,NA,NA,NA,unpleasant,pleasant,NA,NA,NA,NA,NA,left,2560.40000000596,true,NA,NA,NA,NA,NA,NA,NA,NA
9xOnU3gS,3ac6mfv6anv2a7u5af0lkpxttwbhzq,36nemu28xjqmvao5hr1t2a7zxrcmw1,9xOnU3gS,2020-0188,2021-10-30,13:07:42,14:56:15,NA,incomplete,false,true,NA,NA,2,11,NA,green,n_s_104.jpg,NA,NA,NA,NA,NA,pleasant,unpleasant,NA,NA,NA,NA,NA,left,2124.5,true,NA,NA,NA,NA,NA,NA,NA,NA
9xOnU3gS,3ac6mfv6anv2a7u5af0lkpxttwbhzq,36nemu28xjqmvao5hr1t2a7zxrcmw1,9xOnU3gS,2020-0188,2021-10-30,13:07:42,14:56:15,NA,incomplete,false,true,NA,NA,2,12,NA,brown,n_s_083.jpg,NA,NA,NA,NA,NA,unpleasant,pleasant,NA,NA,NA,NA,NA,right,2669.79999999702,true,NA,NA,NA,NA,NA,NA,NA,NA
9xOnU3gS,3ac6mfv6anv2a7u5af0lkpxttwbhzq,36nemu28xjqmvao5hr1t2a7zxrcmw1,9xOnU3gS,2020-0188,2021-10-30,13:07:42,14:56:15,NA,incomplete,false,true,NA,NA,2,13,NA,brown,m_s_071.jpg,NA,NA,NA,NA,NA,unpleasant,pleasant,NA,NA,NA,NA,NA,right,2434.19999998808,true,NA,NA,NA,NA,NA,NA,NA,NA
9xOnU3gS,3ac6mfv6anv2a7u5af0lkpxttwbhzq,36nemu28xjqmvao5hr1t2a7zxrcmw1,9xOnU3gS,2020-0188,2021-10-30,13:07:42,14:56:15,NA,incomplete,false,true,NA,NA,2,14,NA,brown,m_l_077.jpg,NA,NA,NA,NA,NA,unpleasant,pleasant,NA,NA,NA,NA,NA,left,2090,true,NA,NA,NA,NA,NA,NA,NA,NA
9xOnU3gS,3ac6mfv6anv2a7u5af0lkpxttwbhzq,36nemu28xjqmvao5hr1t2a7zxrcmw1,9xOnU3gS,2020-0188,2021-10-30,13:07:42,14:56:15,NA,incomplete,false,true,NA,NA,2,15,NA,brown,m_l_062.jpg,NA,NA,NA,NA,NA,pleasant,unpleasant,NA,NA,NA,NA,NA,right,1493.09999999404,true,NA,NA,NA,NA,NA,NA,NA,NA
9xOnU3gS,3ac6mfv6anv2a7u5af0lkpxttwbhzq,36nemu28xjqmvao5hr1t2a7zxrcmw1,9xOnU3gS,2020-0188,2021-10-30,13:07:42,14:56:15,NA,incomplete,false,true,NA,NA,2,16,NA,brown,m_l_033.jpg,NA,NA,NA,NA,NA,unpleasant,pleasant,NA,NA,NA,NA,NA,left,3054.19999998808,true,NA,NA,NA,NA,NA,NA,NA,NA
9xOnU3gS,3ac6mfv6anv2a7u5af0lkpxttwbhzq,36nemu28xjqmvao5hr1t2a7zxrcmw1,9xOnU3gS,2020-0188,2021-10-30,13:07:42,14:56:15,NA,incomplete,false,true,NA,NA,2,17,NA,brown,n_l_085.jpg,NA,NA,NA,NA,NA,unpleasant,pleasant,NA,NA,NA,NA,NA,left,2748.39999999106,true,NA,NA,NA,NA,NA,NA,NA,NA
9xOnU3gS,3ac6mfv6anv2a7u5af0lkpxttwbhzq,36nemu28xjqmvao5hr1t2a7zxrcmw1,9xOnU3gS,2020-0188,2021-10-30,13:07:42,14:56:15,NA,incomplete,false,true,NA,NA,2,18,NA,gray,m_s_074.jpg,NA,NA,NA,NA,NA,unpleasant,pleasant,NA,NA,NA,NA,NA,right,2098.5,true,NA,NA,NA,NA,NA,NA,NA,NA
9xOnU3gS,3ac6mfv6anv2a7u5af0lkpxttwbhzq,36nemu28xjqmvao5hr1t2a7zxrcmw1,9xOnU3gS,2020-0188,2021-10-30,13:07:42,14:56:15,NA,incomplete,false,true,NA,NA,2,19,NA,gray,n_s_072.jpg,NA,NA,NA,NA,NA,unpleasant,pleasant,NA,NA,NA,NA,NA,right,2575.60000000894,true,NA,NA,NA,NA,NA,NA,NA,NA
9xOnU3gS,3ac6mfv6anv2a7u5af0lkpxttwbhzq,36nemu28xjqmvao5hr1t2a7zxrcmw1,9xOnU3gS,2020-0188,2021-10-30,13:07:42,14:56:15,NA,incomplete,false,true,NA,NA,2,20,NA,gray,n_l_056.jpg,NA,NA,NA,NA,NA,unpleasant,pleasant,NA,NA,NA,NA,NA,right,2259.60000000894,true,NA,NA,NA,NA,NA,NA,NA,NA
9xOnU3gS,3ac6mfv6anv2a7u5af0lkpxttwbhzq,36nemu28xjqmvao5hr1t2a7zxrcmw1,9xOnU3gS,2020-0188,2021-10-30,13:07:42,14:56:15,NA,incomplete,false,true,NA,NA,2,21,NA,gray,m_l_059.jpg,NA,NA,NA,NA,NA,pleasant,unpleasant,NA,NA,NA,NA,NA,left,2459.20000000298,true,NA,NA,NA,NA,NA,NA,NA,NA
9xOnU3gS,3ac6mfv6anv2a7u5af0lkpxttwbhzq,36nemu28xjqmvao5hr1t2a7zxrcmw1,9xOnU3gS,2020-0188,2021-10-30,13:07:42,14:56:15,NA,incomplete,false,true,NA,NA,2,22,NA,gray,n_s_050.jpg,NA,NA,NA,NA,NA,unpleasant,pleasant,NA,NA,NA,NA,NA,right,1420.70000000298,true,NA,NA,NA,NA,NA,NA,NA,NA
9xOnU3gS,3ac6mfv6anv2a7u5af0lkpxttwbhzq,36nemu28xjqmvao5hr1t2a7zxrcmw1,9xOnU3gS,2020-0188,2021-10-30,13:07:42,14:56:15,NA,incomplete,false,true,NA,NA,2,23,NA,gray,m_s_076.jpg,NA,NA,NA,NA,NA,pleasant,unpleasant,NA,NA,NA,NA,NA,left,2928.40000000596,true,NA,NA,NA,NA,NA,NA,NA,NA
9xOnU3gS,3ac6mfv6anv2a7u5af0lkpxttwbhzq,36nemu28xjqmvao5hr1t2a7zxrcmw1,9xOnU3gS,2020-0188,2021-10-30,13:07:42,14:56:15,NA,incomplete,false,true,NA,NA,2,24,NA,red,n_l_008.jpg,NA,NA,NA,NA,NA,pleasant,unpleasant,NA,NA,NA,NA,NA,right,2322.29999999702,true,NA,NA,NA,NA,NA,NA,NA,NA
9xOnU3gS,3ac6mfv6anv2a7u5af0lkpxttwbhzq,36nemu28xjqmvao5hr1t2a7zxrcmw1,9xOnU3gS,2020-0188,2021-10-30,13:07:42,14:56:15,NA,incomplete,false,true,NA,NA,2,25,NA,red,n_l_108.jpg,NA,NA,NA,NA,NA,pleasant,unpleasant,NA,NA,NA,NA,NA,right,1700.70000000298,true,NA,NA,NA,NA,NA,NA,NA,NA
9xOnU3gS,3ac6mfv6anv2a7u5af0lkpxttwbhzq,36nemu28xjqmvao5hr1t2a7zxrcmw1,9xOnU3gS,2020-0188,2021-10-30,13:07:42,14:56:15,NA,incomplete,false,true,NA,NA,2,26,NA,red,m_s_103.jpg,NA,NA,NA,NA,NA,pleasant,unpleasant,NA,NA,NA,NA,NA,right,1881.80000001192,true,NA,NA,NA,NA,NA,NA,NA,NA
9xOnU3gS,3ac6mfv6anv2a7u5af0lkpxttwbhzq,36nemu28xjqmvao5hr1t2a7zxrcmw1,9xOnU3gS,2020-0188,2021-10-30,13:07:42,14:56:15,NA,incomplete,false,true,NA,NA,2,27,NA,red,m_s_115.jpg,NA,NA,NA,NA,NA,unpleasant,pleasant,NA,NA,NA,NA,NA,left,2167.5,true,NA,NA,NA,NA,NA,NA,NA,NA
9xOnU3gS,3ac6mfv6anv2a7u5af0lkpxttwbhzq,36nemu28xjqmvao5hr1t2a7zxrcmw1,9xOnU3gS,2020-0188,2021-10-30,13:07:42,14:56:15,NA,incomplete,false,true,NA,NA,2,28,NA,red,n_l_025.jpg,NA,NA,NA,NA,NA,unpleasant,pleasant,NA,NA,NA,NA,NA,left,2257.20000000298,true,NA,NA,NA,NA,NA,NA,NA,NA
9xOnU3gS,3ac6mfv6anv2a7u5af0lkpxttwbhzq,36nemu28xjqmvao5hr1t2a7zxrcmw1,9xOnU3gS,2020-0188,2021-10-30,13:07:42,14:56:15,NA,incomplete,false,true,NA,NA,2,29,NA,red,m_s_064.jpg,NA,NA,NA,NA,NA,unpleasant,pleasant,NA,NA,NA,NA,NA,none,0,false,NA,NA,NA,NA,NA,NA,NA,NA
9xOnU3gS,3ac6mfv6anv2a7u5af0lkpxttwbhzq,36nemu28xjqmvao5hr1t2a7zxrcmw1,9xOnU3gS,2020-0188,2021-10-30,13:07:42,14:56:15,NA,incomplete,false,true,NA,NA,2,30,NA,purple,n_s_111.jpg,NA,NA,NA,NA,NA,pleasant,unpleasant,NA,NA,NA,NA,NA,left,1712.10000000894,true,NA,NA,NA,NA,NA,NA,NA,NA
9xOnU3gS,3ac6mfv6anv2a7u5af0lkpxttwbhzq,36nemu28xjqmvao5hr1t2a7zxrcmw1,9xOnU3gS,2020-0188,2021-10-30,13:07:42,14:56:15,NA,incomplete,false,true,NA,NA,2,31,NA,purple,n_s_110.jpg,NA,NA,NA,NA,NA,pleasant,unpleasant,NA,NA,NA,NA,NA,right,1868.89999999106,true,NA,NA,NA,NA,NA,NA,NA,NA
9xOnU3gS,3ac6mfv6anv2a7u5af0lkpxttwbhzq,36nemu28xjqmvao5hr1t2a7zxrcmw1,9xOnU3gS,2020-0188,2021-10-30,13:07:42,14:56:15,NA,incomplete,false,true,NA,NA,2,32,NA,purple,n_s_078.jpg,NA,NA,NA,NA,NA,unpleasant,pleasant,NA,NA,NA,NA,NA,left,1498.90000000596,true,NA,NA,NA,NA,NA,NA,NA,NA
9xOnU3gS,3ac6mfv6anv2a7u5af0lkpxttwbhzq,36nemu28xjqmvao5hr1t2a7zxrcmw1,9xOnU3gS,2020-0188,2021-10-30,13:07:42,14:56:15,NA,incomplete,false,true,NA,NA,2,33,NA,purple,m_s_091.jpg,NA,NA,NA,NA,NA,pleasant,unpleasant,NA,NA,NA,NA,NA,right,1494.90000000596,true,NA,NA,NA,NA,NA,NA,NA,NA
9xOnU3gS,3ac6mfv6anv2a7u5af0lkpxttwbhzq,36nemu28xjqmvao5hr1t2a7zxrcmw1,9xOnU3gS,2020-0188,2021-10-30,13:07:42,14:56:15,NA,incomplete,false,true,NA,NA,2,34,NA,purple,m_s_095.jpg,NA,NA,NA,NA,NA,pleasant,unpleasant,NA,NA,NA,NA,NA,right,1967.70000000298,true,NA,NA,NA,NA,NA,NA,NA,NA
9xOnU3gS,3ac6mfv6anv2a7u5af0lkpxttwbhzq,36nemu28xjqmvao5hr1t2a7zxrcmw1,9xOnU3gS,2020-0188,2021-10-30,13:07:42,14:56:15,NA,incomplete,false,true,NA,NA,2,35,NA,purple,m_l_103.jpg,NA,NA,NA,NA,NA,pleasant,unpleasant,NA,NA,NA,NA,NA,left,1139.40000000596,true,NA,NA,NA,NA,NA,NA,NA,NA
9xOnU3gS,3ac6mfv6anv2a7u5af0lkpxttwbhzq,36nemu28xjqmvao5hr1t2a7zxrcmw1,9xOnU3gS,2020-0188,2021-10-30,13:07:42,14:56:15,NA,incomplete,false,NA,NA,true,2,0,NA,NA,NA,left,n_s_110.jpg,purple,red,NA,NA,NA,NA,NA,NA,NA,NA,NA,NaN,NA,3796.7999999970198,right,0,NA,NA,NA,NA,NA
9xOnU3gS,3ac6mfv6anv2a7u5af0lkpxttwbhzq,36nemu28xjqmvao5hr1t2a7zxrcmw1,9xOnU3gS,2020-0188,2021-10-30,13:07:42,14:56:15,NA,incomplete,false,NA,NA,true,2,1,NA,NA,NA,right,n_l_108.jpg,purple,red,NA,NA,NA,NA,NA,NA,NA,NA,NA,NaN,NA,4060.800000011921,right,1,NA,NA,NA,NA,NA
9xOnU3gS,3ac6mfv6anv2a7u5af0lkpxttwbhzq,36nemu28xjqmvao5hr1t2a7zxrcmw1,9xOnU3gS,2020-0188,2021-10-30,13:07:42,14:56:15,NA,incomplete,false,NA,NA,true,2,2,NA,NA,NA,left,n_s_050.jpg,gray,red,NA,NA,NA,NA,NA,NA,NA,NA,NA,NaN,NA,1802.5,left,1,NA,NA,NA,NA,NA
9xOnU3gS,3ac6mfv6anv2a7u5af0lkpxttwbhzq,36nemu28xjqmvao5hr1t2a7zxrcmw1,9xOnU3gS,2020-0188,2021-10-30,13:07:42,14:56:15,NA,incomplete,false,NA,NA,true,2,3,NA,NA,NA,left,n_l_056.jpg,gray,red,NA,NA,NA,NA,NA,NA,NA,NA,NA,NaN,NA,2523.7000000029802,right,0,NA,NA,NA,NA,NA
9xOnU3gS,3ac6mfv6anv2a7u5af0lkpxttwbhzq,36nemu28xjqmvao5hr1t2a7zxrcmw1,9xOnU3gS,2020-0188,2021-10-30,13:07:42,14:56:15,NA,incomplete,false,NA,NA,true,2,4,NA,NA,NA,right,m_l_001.jpg,yellow,green,NA,NA,NA,NA,NA,NA,NA,NA,NA,NaN,NA,1564.2000000029802,right,1,NA,NA,NA,NA,NA
9xOnU3gS,3ac6mfv6anv2a7u5af0lkpxttwbhzq,36nemu28xjqmvao5hr1t2a7zxrcmw1,9xOnU3gS,2020-0188,2021-10-30,13:07:42,14:56:15,NA,incomplete,false,NA,NA,true,2,5,NA,NA,NA,right,m_l_103.jpg,red,purple,NA,NA,NA,NA,NA,NA,NA,NA,NA,NaN,NA,1613.5,right,1,NA,NA,NA,NA,NA
9xOnU3gS,3ac6mfv6anv2a7u5af0lkpxttwbhzq,36nemu28xjqmvao5hr1t2a7zxrcmw1,9xOnU3gS,2020-0188,2021-10-30,13:07:42,14:56:15,NA,incomplete,false,NA,NA,true,2,6,NA,NA,NA,left,n_s_104.jpg,green,brown,NA,NA,NA,NA,NA,NA,NA,NA,NA,NaN,NA,1563.5999999940395,left,1,NA,NA,NA,NA,NA
9xOnU3gS,3ac6mfv6anv2a7u5af0lkpxttwbhzq,36nemu28xjqmvao5hr1t2a7zxrcmw1,9xOnU3gS,2020-0188,2021-10-30,13:07:42,14:56:15,NA,incomplete,false,NA,NA,true,2,7,NA,NA,NA,left,m_s_103.jpg,red,gray,NA,NA,NA,NA,NA,NA,NA,NA,NA,NaN,NA,2275.2000000029802,left,1,NA,NA,NA,NA,NA
9xOnU3gS,3ac6mfv6anv2a7u5af0lkpxttwbhzq,36nemu28xjqmvao5hr1t2a7zxrcmw1,9xOnU3gS,2020-0188,2021-10-30,13:07:42,14:56:15,NA,incomplete,false,NA,NA,true,2,8,NA,NA,NA,left,n_l_078.jpg,green,brown,NA,NA,NA,NA,NA,NA,NA,NA,NA,NaN,NA,2074.9000000059605,left,1,NA,NA,NA,NA,NA
9xOnU3gS,3ac6mfv6anv2a7u5af0lkpxttwbhzq,36nemu28xjqmvao5hr1t2a7zxrcmw1,9xOnU3gS,2020-0188,2021-10-30,13:07:42,14:56:15,NA,incomplete,false,NA,NA,true,2,9,NA,NA,NA,left,n_s_078.jpg,purple,red,NA,NA,NA,NA,NA,NA,NA,NA,NA,NaN,NA,2683.2999999970198,right,0,NA,NA,NA,NA,NA
9xOnU3gS,3ac6mfv6anv2a7u5af0lkpxttwbhzq,36nemu28xjqmvao5hr1t2a7zxrcmw1,9xOnU3gS,2020-0188,2021-10-30,13:07:42,14:56:15,NA,incomplete,false,NA,NA,true,2,10,NA,NA,NA,right,n_l_085.jpg,gray,brown,NA,NA,NA,NA,NA,NA,NA,NA,NA,NaN,NA,2770.5999999940395,right,1,NA,NA,NA,NA,NA
9xOnU3gS,3ac6mfv6anv2a7u5af0lkpxttwbhzq,36nemu28xjqmvao5hr1t2a7zxrcmw1,9xOnU3gS,2020-0188,2021-10-30,13:07:42,14:56:15,NA,incomplete,false,NA,NA,true,2,11,NA,NA,NA,left,n_s_061.jpg,yellow,green,NA,NA,NA,NA,NA,NA,NA,NA,NA,NaN,NA,2731.5999999940395,left,1,NA,NA,NA,NA,NA
9xOnU3gS,3ac6mfv6anv2a7u5af0lkpxttwbhzq,36nemu28xjqmvao5hr1t2a7zxrcmw1,9xOnU3gS,2020-0188,2021-10-30,13:07:42,14:56:15,NA,incomplete,false,NA,NA,true,2,12,NA,NA,NA,left,n_s_041.jpg,yellow,green,NA,NA,NA,NA,NA,NA,NA,NA,NA,NaN,NA,1898.7999999970198,left,1,NA,NA,NA,NA,NA
9xOnU3gS,3ac6mfv6anv2a7u5af0lkpxttwbhzq,36nemu28xjqmvao5hr1t2a7zxrcmw1,9xOnU3gS,2020-0188,2021-10-30,13:07:42,14:56:15,NA,incomplete,false,NA,NA,true,2,13,NA,NA,NA,right,m_s_076.jpg,red,gray,NA,NA,NA,NA,NA,NA,NA,NA,NA,NaN,NA,3516,right,1,NA,NA,NA,NA,NA
9xOnU3gS,3ac6mfv6anv2a7u5af0lkpxttwbhzq,36nemu28xjqmvao5hr1t2a7zxrcmw1,9xOnU3gS,2020-0188,2021-10-30,13:07:42,14:56:15,NA,incomplete,false,NA,NA,true,2,14,NA,NA,NA,left,n_s_070.jpg,yellow,green,NA,NA,NA,NA,NA,NA,NA,NA,NA,NaN,NA,1931.0999999940395,left,1,NA,NA,NA,NA,NA
9xOnU3gS,3ac6mfv6anv2a7u5af0lkpxttwbhzq,36nemu28xjqmvao5hr1t2a7zxrcmw1,9xOnU3gS,2020-0188,2021-10-30,13:07:42,14:56:15,NA,incomplete,false,NA,NA,true,2,15,NA,NA,NA,left,m_s_071.jpg,brown,gray,NA,NA,NA,NA,NA,NA,NA,NA,NA,NaN,NA,2771.1000000089407,left,1,NA,NA,NA,NA,NA
9xOnU3gS,3ac6mfv6anv2a7u5af0lkpxttwbhzq,36nemu28xjqmvao5hr1t2a7zxrcmw1,9xOnU3gS,2020-0188,2021-10-30,13:07:42,14:56:15,NA,incomplete,false,NA,NA,true,2,16,NA,NA,NA,left,n_s_072.jpg,gray,red,NA,NA,NA,NA,NA,NA,NA,NA,NA,NaN,NA,2674.2999999970198,right,0,NA,NA,NA,NA,NA
9xOnU3gS,3ac6mfv6anv2a7u5af0lkpxttwbhzq,36nemu28xjqmvao5hr1t2a7zxrcmw1,9xOnU3gS,2020-0188,2021-10-30,13:07:42,14:56:15,NA,incomplete,false,NA,NA,true,2,17,NA,NA,NA,right,m_l_077.jpg,gray,brown,NA,NA,NA,NA,NA,NA,NA,NA,NA,NaN,NA,1692.1000000089407,right,1,NA,NA,NA,NA,NA
9xOnU3gS,3ac6mfv6anv2a7u5af0lkpxttwbhzq,36nemu28xjqmvao5hr1t2a7zxrcmw1,9xOnU3gS,2020-0188,2021-10-30,13:07:42,14:56:15,NA,incomplete,false,NA,NA,true,2,18,NA,NA,NA,left,m_l_033.jpg,brown,gray,NA,NA,NA,NA,NA,NA,NA,NA,NA,NaN,NA,2018.2999999970198,left,1,NA,NA,NA,NA,NA
9xOnU3gS,3ac6mfv6anv2a7u5af0lkpxttwbhzq,36nemu28xjqmvao5hr1t2a7zxrcmw1,9xOnU3gS,2020-0188,2021-10-30,13:07:42,14:56:15,NA,incomplete,false,NA,NA,true,2,19,NA,NA,NA,left,m_s_027.jpg,green,yellow,NA,NA,NA,NA,NA,NA,NA,NA,NA,NaN,NA,3355.5,right,0,NA,NA,NA,NA,NA
9xOnU3gS,3ac6mfv6anv2a7u5af0lkpxttwbhzq,36nemu28xjqmvao5hr1t2a7zxrcmw1,9xOnU3gS,2020-0188,2021-10-30,13:07:42,14:56:15,NA,incomplete,false,NA,NA,true,2,20,NA,NA,NA,right,n_l_025.jpg,purple,red,NA,NA,NA,NA,NA,NA,NA,NA,NA,NaN,NA,2610.0999999940395,right,1,NA,NA,NA,NA,NA
9xOnU3gS,3ac6mfv6anv2a7u5af0lkpxttwbhzq,36nemu28xjqmvao5hr1t2a7zxrcmw1,9xOnU3gS,2020-0188,2021-10-30,13:07:42,14:56:15,NA,incomplete,false,NA,NA,true,2,21,NA,NA,NA,right,m_s_064.jpg,gray,red,NA,NA,NA,NA,NA,NA,NA,NA,NA,NaN,NA,2923.2000000029802,right,1,NA,NA,NA,NA,NA
9xOnU3gS,3ac6mfv6anv2a7u5af0lkpxttwbhzq,36nemu28xjqmvao5hr1t2a7zxrcmw1,9xOnU3gS,2020-0188,2021-10-30,13:07:42,14:56:15,NA,incomplete,false,NA,true,NA,2,0,NA,NA,NA,left,NA,NA,NA,absent,NA,NA,n_s_070.jpg,yellow,n_s_061.jpg,yellow,within,NA,NaN,NA,NA,NA,NA,left,3338.2999999970198,1,1,2479.699999988079
9xOnU3gS,3ac6mfv6anv2a7u5af0lkpxttwbhzq,36nemu28xjqmvao5hr1t2a7zxrcmw1,9xOnU3gS,2020-0188,2021-10-30,13:07:42,14:56:15,NA,incomplete,false,NA,true,NA,2,1,NA,NA,NA,left,NA,NA,NA,absent,NA,NA,m_s_071.jpg,brown,n_l_085.jpg,brown,within,NA,NaN,NA,NA,NA,NA,right,3454.5,0,2,1995.5
9xOnU3gS,3ac6mfv6anv2a7u5af0lkpxttwbhzq,36nemu28xjqmvao5hr1t2a7zxrcmw1,9xOnU3gS,2020-0188,2021-10-30,13:07:42,14:56:15,NA,incomplete,false,NA,true,NA,2,2,NA,NA,NA,right,NA,NA,NA,absent,NA,NA,n_l_056.jpg,gray,m_l_033.jpg,brown,between,NA,NaN,NA,NA,NA,NA,right,2786.9000000059605,1,3,1161.0999999940395
9xOnU3gS,3ac6mfv6anv2a7u5af0lkpxttwbhzq,36nemu28xjqmvao5hr1t2a7zxrcmw1,9xOnU3gS,2020-0188,2021-10-30,13:07:42,14:56:15,NA,incomplete,false,NA,true,NA,2,3,NA,NA,NA,right,NA,NA,NA,absent,NA,NA,m_s_076.jpg,gray,n_s_072.jpg,gray,within,NA,NaN,NA,NA,NA,NA,right,1970,1,3,979.2999999970198
9xOnU3gS,3ac6mfv6anv2a7u5af0lkpxttwbhzq,36nemu28xjqmvao5hr1t2a7zxrcmw1,9xOnU3gS,2020-0188,2021-10-30,13:07:42,14:56:15,NA,incomplete,false,NA,true,NA,2,4,NA,NA,NA,left,NA,NA,NA,absent,NA,NA,n_s_050.jpg,gray,m_s_103.jpg,red,between,NA,NaN,NA,NA,NA,NA,left,1817.9000000059605,1,2,2202.5999999940395
9xOnU3gS,3ac6mfv6anv2a7u5af0lkpxttwbhzq,36nemu28xjqmvao5hr1t2a7zxrcmw1,9xOnU3gS,2020-0188,2021-10-30,13:07:42,14:56:15,NA,incomplete,false,NA,true,NA,2,5,NA,NA,NA,left,NA,NA,NA,absent,NA,NA,n_s_110.jpg,purple,m_l_103.jpg,purple,within,NA,NaN,NA,NA,NA,NA,left,2074.800000011921,1,2,1151.699999988079
9xOnU3gS,3ac6mfv6anv2a7u5af0lkpxttwbhzq,36nemu28xjqmvao5hr1t2a7zxrcmw1,9xOnU3gS,2020-0188,2021-10-30,13:07:42,14:56:15,NA,incomplete,false,NA,true,NA,2,6,NA,NA,NA,left,NA,NA,NA,absent,NA,NA,n_l_078.jpg,green,m_l_077.jpg,brown,between,NA,NaN,NA,NA,NA,NA,left,4375,1,1,3612
9xOnU3gS,3ac6mfv6anv2a7u5af0lkpxttwbhzq,36nemu28xjqmvao5hr1t2a7zxrcmw1,9xOnU3gS,2020-0188,2021-10-30,13:07:42,14:56:15,NA,incomplete,false,NA,true,NA,2,7,NA,NA,NA,right,NA,NA,NA,absent,NA,NA,n_s_078.jpg,purple,n_l_025.jpg,red,between,NA,NaN,NA,NA,NA,NA,left,3436.2999999970198,0,1,1394.7000000029802
9xOnU3gS,3ac6mfv6anv2a7u5af0lkpxttwbhzq,36nemu28xjqmvao5hr1t2a7zxrcmw1,9xOnU3gS,2020-0188,2021-10-30,13:07:42,14:56:15,NA,incomplete,false,NA,true,NA,2,8,NA,NA,NA,right,NA,NA,NA,absent,NA,NA,n_s_104.jpg,green,m_l_001.jpg,green,within,NA,NaN,NA,NA,NA,NA,right,6003.20000000298,1,0,3594.6000000089407
9xOnU3gS,3ac6mfv6anv2a7u5af0lkpxttwbhzq,36nemu28xjqmvao5hr1t2a7zxrcmw1,9xOnU3gS,2020-0188,2021-10-30,13:07:42,14:56:15,NA,incomplete,false,NA,true,NA,2,9,NA,NA,NA,right,NA,NA,NA,absent,NA,NA,m_s_027.jpg,green,n_s_041.jpg,yellow,between,NA,NaN,NA,NA,NA,NA,left,2852,0,1,2309.7000000029802
9xOnU3gS,3ac6mfv6anv2a7u5af0lkpxttwbhzq,36nemu28xjqmvao5hr1t2a7zxrcmw1,9xOnU3gS,2020-0188,2021-10-30,13:07:42,14:56:15,NA,incomplete,false,NA,true,NA,2,10,NA,NA,NA,right,NA,NA,NA,absent,NA,NA,m_s_064.jpg,red,n_l_108.jpg,red,within,NA,NaN,NA,NA,NA,NA,right,2427.7999999970198,1,2,1419.9000000059605
9xOnU3gS,3ac6mfv6anv2a7u5af0lkpxttwbhzq,36nemu28xjqmvao5hr1t2a7zxrcmw1,9xOnU3gS,2020-0188,2021-10-30,13:07:42,14:56:15,NA,incomplete,false,true,NA,NA,3,0,NA,blue,m_l_037.jpg,NA,NA,NA,NA,NA,unpleasant,pleasant,NA,NA,NA,NA,NA,right,1746.79999999702,true,NA,NA,NA,NA,NA,NA,NA,NA
9xOnU3gS,3ac6mfv6anv2a7u5af0lkpxttwbhzq,36nemu28xjqmvao5hr1t2a7zxrcmw1,9xOnU3gS,2020-0188,2021-10-30,13:07:42,14:56:15,NA,incomplete,false,true,NA,NA,3,1,NA,blue,n_l_033.jpg,NA,NA,NA,NA,NA,unpleasant,pleasant,NA,NA,NA,NA,NA,right,1798.90000000596,true,NA,NA,NA,NA,NA,NA,NA,NA
9xOnU3gS,3ac6mfv6anv2a7u5af0lkpxttwbhzq,36nemu28xjqmvao5hr1t2a7zxrcmw1,9xOnU3gS,2020-0188,2021-10-30,13:07:42,14:56:15,NA,incomplete,false,true,NA,NA,3,2,NA,blue,m_s_113.jpg,NA,NA,NA,NA,NA,unpleasant,pleasant,NA,NA,NA,NA,NA,left,1683.39999999106,true,NA,NA,NA,NA,NA,NA,NA,NA
9xOnU3gS,3ac6mfv6anv2a7u5af0lkpxttwbhzq,36nemu28xjqmvao5hr1t2a7zxrcmw1,9xOnU3gS,2020-0188,2021-10-30,13:07:42,14:56:15,NA,incomplete,false,true,NA,NA,3,3,NA,blue,n_s_026.jpg,NA,NA,NA,NA,NA,pleasant,unpleasant,NA,NA,NA,NA,NA,right,1156.10000000894,true,NA,NA,NA,NA,NA,NA,NA,NA
9xOnU3gS,3ac6mfv6anv2a7u5af0lkpxttwbhzq,36nemu28xjqmvao5hr1t2a7zxrcmw1,9xOnU3gS,2020-0188,2021-10-30,13:07:42,14:56:15,NA,incomplete,false,true,NA,NA,3,4,NA,blue,n_l_100.jpg,NA,NA,NA,NA,NA,pleasant,unpleasant,NA,NA,NA,NA,NA,right,1562.89999999106,true,NA,NA,NA,NA,NA,NA,NA,NA
9xOnU3gS,3ac6mfv6anv2a7u5af0lkpxttwbhzq,36nemu28xjqmvao5hr1t2a7zxrcmw1,9xOnU3gS,2020-0188,2021-10-30,13:07:42,14:56:15,NA,incomplete,false,true,NA,NA,3,5,NA,blue,m_s_085.jpg,NA,NA,NA,NA,NA,pleasant,unpleasant,NA,NA,NA,NA,NA,left,2421.09999999404,true,NA,NA,NA,NA,NA,NA,NA,NA
9xOnU3gS,3ac6mfv6anv2a7u5af0lkpxttwbhzq,36nemu28xjqmvao5hr1t2a7zxrcmw1,9xOnU3gS,2020-0188,2021-10-30,13:07:42,14:56:15,NA,incomplete,false,true,NA,NA,3,6,NA,brown,m_l_091.jpg,NA,NA,NA,NA,NA,pleasant,unpleasant,NA,NA,NA,NA,NA,left,1827.5,true,NA,NA,NA,NA,NA,NA,NA,NA
9xOnU3gS,3ac6mfv6anv2a7u5af0lkpxttwbhzq,36nemu28xjqmvao5hr1t2a7zxrcmw1,9xOnU3gS,2020-0188,2021-10-30,13:07:42,14:56:15,NA,incomplete,false,true,NA,NA,3,7,NA,brown,m_s_116.jpg,NA,NA,NA,NA,NA,pleasant,unpleasant,NA,NA,NA,NA,NA,left,2346.5,true,NA,NA,NA,NA,NA,NA,NA,NA
9xOnU3gS,3ac6mfv6anv2a7u5af0lkpxttwbhzq,36nemu28xjqmvao5hr1t2a7zxrcmw1,9xOnU3gS,2020-0188,2021-10-30,13:07:42,14:56:15,NA,incomplete,false,true,NA,NA,3,8,NA,brown,n_s_114.jpg,NA,NA,NA,NA,NA,pleasant,unpleasant,NA,NA,NA,NA,NA,left,2257.40000000596,true,NA,NA,NA,NA,NA,NA,NA,NA
9xOnU3gS,3ac6mfv6anv2a7u5af0lkpxttwbhzq,36nemu28xjqmvao5hr1t2a7zxrcmw1,9xOnU3gS,2020-0188,2021-10-30,13:07:42,14:56:15,NA,incomplete,false,true,NA,NA,3,9,NA,brown,m_l_094.jpg,NA,NA,NA,NA,NA,unpleasant,pleasant,NA,NA,NA,NA,NA,right,1222.70000000298,true,NA,NA,NA,NA,NA,NA,NA,NA
9xOnU3gS,3ac6mfv6anv2a7u5af0lkpxttwbhzq,36nemu28xjqmvao5hr1t2a7zxrcmw1,9xOnU3gS,2020-0188,2021-10-30,13:07:42,14:56:15,NA,incomplete,false,true,NA,NA,3,10,NA,brown,n_s_014.jpg,NA,NA,NA,NA,NA,unpleasant,pleasant,NA,NA,NA,NA,NA,left,1789.5,true,NA,NA,NA,NA,NA,NA,NA,NA
9xOnU3gS,3ac6mfv6anv2a7u5af0lkpxttwbhzq,36nemu28xjqmvao5hr1t2a7zxrcmw1,9xOnU3gS,2020-0188,2021-10-30,13:07:42,14:56:15,NA,incomplete,false,true,NA,NA,3,11,NA,brown,m_s_023.jpg,NA,NA,NA,NA,NA,unpleasant,pleasant,NA,NA,NA,NA,NA,right,1321.20000000298,true,NA,NA,NA,NA,NA,NA,NA,NA
9xOnU3gS,3ac6mfv6anv2a7u5af0lkpxttwbhzq,36nemu28xjqmvao5hr1t2a7zxrcmw1,9xOnU3gS,2020-0188,2021-10-30,13:07:42,14:56:15,NA,incomplete,false,true,NA,NA,3,12,NA,purple,n_l_066.jpg,NA,NA,NA,NA,NA,unpleasant,pleasant,NA,NA,NA,NA,NA,right,2910.20000000298,true,NA,NA,NA,NA,NA,NA,NA,NA
9xOnU3gS,3ac6mfv6anv2a7u5af0lkpxttwbhzq,36nemu28xjqmvao5hr1t2a7zxrcmw1,9xOnU3gS,2020-0188,2021-10-30,13:07:42,14:56:15,NA,incomplete,false,true,NA,NA,3,13,NA,purple,m_s_104.jpg,NA,NA,NA,NA,NA,pleasant,unpleasant,NA,NA,NA,NA,NA,left,1789.10000000894,true,NA,NA,NA,NA,NA,NA,NA,NA
9xOnU3gS,3ac6mfv6anv2a7u5af0lkpxttwbhzq,36nemu28xjqmvao5hr1t2a7zxrcmw1,9xOnU3gS,2020-0188,2021-10-30,13:07:42,14:56:15,NA,incomplete,false,true,NA,NA,3,14,NA,purple,n_s_046.jpg,NA,NA,NA,NA,NA,unpleasant,pleasant,NA,NA,NA,NA,NA,left,2235.40000000596,true,NA,NA,NA,NA,NA,NA,NA,NA
9xOnU3gS,3ac6mfv6anv2a7u5af0lkpxttwbhzq,36nemu28xjqmvao5hr1t2a7zxrcmw1,9xOnU3gS,2020-0188,2021-10-30,13:07:42,14:56:15,NA,incomplete,false,true,NA,NA,3,15,NA,purple,m_l_047.jpg,NA,NA,NA,NA,NA,unpleasant,pleasant,NA,NA,NA,NA,NA,right,1747.5,true,NA,NA,NA,NA,NA,NA,NA,NA
9xOnU3gS,3ac6mfv6anv2a7u5af0lkpxttwbhzq,36nemu28xjqmvao5hr1t2a7zxrcmw1,9xOnU3gS,2020-0188,2021-10-30,13:07:42,14:56:15,NA,incomplete,false,true,NA,NA,3,16,NA,purple,n_s_107.jpg,NA,NA,NA,NA,NA,pleasant,unpleasant,NA,NA,NA,NA,NA,left,1855.5,true,NA,NA,NA,NA,NA,NA,NA,NA
9xOnU3gS,3ac6mfv6anv2a7u5af0lkpxttwbhzq,36nemu28xjqmvao5hr1t2a7zxrcmw1,9xOnU3gS,2020-0188,2021-10-30,13:07:42,14:56:15,NA,incomplete,false,true,NA,NA,3,17,NA,purple,m_s_028.jpg,NA,NA,NA,NA,NA,unpleasant,pleasant,NA,NA,NA,NA,NA,right,1500.59999999404,true,NA,NA,NA,NA,NA,NA,NA,NA
9xOnU3gS,3ac6mfv6anv2a7u5af0lkpxttwbhzq,36nemu28xjqmvao5hr1t2a7zxrcmw1,9xOnU3gS,2020-0188,2021-10-30,13:07:42,14:56:15,NA,incomplete,false,true,NA,NA,3,18,NA,red,m_l_086.jpg,NA,NA,NA,NA,NA,pleasant,unpleasant,NA,NA,NA,NA,NA,right,2664.20000000298,true,NA,NA,NA,NA,NA,NA,NA,NA
9xOnU3gS,3ac6mfv6anv2a7u5af0lkpxttwbhzq,36nemu28xjqmvao5hr1t2a7zxrcmw1,9xOnU3gS,2020-0188,2021-10-30,13:07:42,14:56:15,NA,incomplete,false,true,NA,NA,3,19,NA,red,n_l_071.jpg,NA,NA,NA,NA,NA,unpleasant,pleasant,NA,NA,NA,NA,NA,left,1995.10000000894,true,NA,NA,NA,NA,NA,NA,NA,NA
9xOnU3gS,3ac6mfv6anv2a7u5af0lkpxttwbhzq,36nemu28xjqmvao5hr1t2a7zxrcmw1,9xOnU3gS,2020-0188,2021-10-30,13:07:42,14:56:15,NA,incomplete,false,true,NA,NA,3,20,NA,red,n_s_043.jpg,NA,NA,NA,NA,NA,unpleasant,pleasant,NA,NA,NA,NA,NA,left,1942.29999999702,true,NA,NA,NA,NA,NA,NA,NA,NA
9xOnU3gS,3ac6mfv6anv2a7u5af0lkpxttwbhzq,36nemu28xjqmvao5hr1t2a7zxrcmw1,9xOnU3gS,2020-0188,2021-10-30,13:07:42,14:56:15,NA,incomplete,false,true,NA,NA,3,21,NA,red,n_l_102.jpg,NA,NA,NA,NA,NA,pleasant,unpleasant,NA,NA,NA,NA,NA,right,1880.70000000298,true,NA,NA,NA,NA,NA,NA,NA,NA
9xOnU3gS,3ac6mfv6anv2a7u5af0lkpxttwbhzq,36nemu28xjqmvao5hr1t2a7zxrcmw1,9xOnU3gS,2020-0188,2021-10-30,13:07:42,14:56:15,NA,incomplete,false,true,NA,NA,3,22,NA,red,m_s_077.jpg,NA,NA,NA,NA,NA,unpleasant,pleasant,NA,NA,NA,NA,NA,right,1844.19999998808,true,NA,NA,NA,NA,NA,NA,NA,NA
9xOnU3gS,3ac6mfv6anv2a7u5af0lkpxttwbhzq,36nemu28xjqmvao5hr1t2a7zxrcmw1,9xOnU3gS,2020-0188,2021-10-30,13:07:42,14:56:15,NA,incomplete,false,true,NA,NA,3,23,NA,red,n_s_057.jpg,NA,NA,NA,NA,NA,unpleasant,pleasant,NA,NA,NA,NA,NA,right,2178.90000000596,true,NA,NA,NA,NA,NA,NA,NA,NA
9xOnU3gS,3ac6mfv6anv2a7u5af0lkpxttwbhzq,36nemu28xjqmvao5hr1t2a7zxrcmw1,9xOnU3gS,2020-0188,2021-10-30,13:07:42,14:56:15,NA,incomplete,false,true,NA,NA,3,24,NA,orange,m_s_020.jpg,NA,NA,NA,NA,NA,unpleasant,pleasant,NA,NA,NA,NA,NA,right,1777.5,true,NA,NA,NA,NA,NA,NA,NA,NA
9xOnU3gS,3ac6mfv6anv2a7u5af0lkpxttwbhzq,36nemu28xjqmvao5hr1t2a7zxrcmw1,9xOnU3gS,2020-0188,2021-10-30,13:07:42,14:56:15,NA,incomplete,false,true,NA,NA,3,25,NA,orange,m_l_110.jpg,NA,NA,NA,NA,NA,unpleasant,pleasant,NA,NA,NA,NA,NA,left,1946.59999999404,true,NA,NA,NA,NA,NA,NA,NA,NA
9xOnU3gS,3ac6mfv6anv2a7u5af0lkpxttwbhzq,36nemu28xjqmvao5hr1t2a7zxrcmw1,9xOnU3gS,2020-0188,2021-10-30,13:07:42,14:56:15,NA,incomplete,false,true,NA,NA,3,26,NA,orange,n_s_089.jpg,NA,NA,NA,NA,NA,pleasant,unpleasant,NA,NA,NA,NA,NA,left,2235.90000000596,true,NA,NA,NA,NA,NA,NA,NA,NA
9xOnU3gS,3ac6mfv6anv2a7u5af0lkpxttwbhzq,36nemu28xjqmvao5hr1t2a7zxrcmw1,9xOnU3gS,2020-0188,2021-10-30,13:07:42,14:56:15,NA,incomplete,false,true,NA,NA,3,27,NA,orange,m_s_026.jpg,NA,NA,NA,NA,NA,unpleasant,pleasant,NA,NA,NA,NA,NA,left,2095.29999999702,true,NA,NA,NA,NA,NA,NA,NA,NA
9xOnU3gS,3ac6mfv6anv2a7u5af0lkpxttwbhzq,36nemu28xjqmvao5hr1t2a7zxrcmw1,9xOnU3gS,2020-0188,2021-10-30,13:07:42,14:56:15,NA,incomplete,false,true,NA,NA,3,28,NA,orange,n_s_067.jpg,NA,NA,NA,NA,NA,pleasant,unpleasant,NA,NA,NA,NA,NA,left,2527.59999999404,true,NA,NA,NA,NA,NA,NA,NA,NA
9xOnU3gS,3ac6mfv6anv2a7u5af0lkpxttwbhzq,36nemu28xjqmvao5hr1t2a7zxrcmw1,9xOnU3gS,2020-0188,2021-10-30,13:07:42,14:56:15,NA,incomplete,false,true,NA,NA,3,29,NA,orange,n_l_006.jpg,NA,NA,NA,NA,NA,pleasant,unpleasant,NA,NA,NA,NA,NA,right,1281.80000001192,true,NA,NA,NA,NA,NA,NA,NA,NA
9xOnU3gS,3ac6mfv6anv2a7u5af0lkpxttwbhzq,36nemu28xjqmvao5hr1t2a7zxrcmw1,9xOnU3gS,2020-0188,2021-10-30,13:07:42,14:56:15,NA,incomplete,false,true,NA,NA,3,30,NA,white,n_s_045.jpg,NA,NA,NA,NA,NA,unpleasant,pleasant,NA,NA,NA,NA,NA,right,1813.79999999702,true,NA,NA,NA,NA,NA,NA,NA,NA
9xOnU3gS,3ac6mfv6anv2a7u5af0lkpxttwbhzq,36nemu28xjqmvao5hr1t2a7zxrcmw1,9xOnU3gS,2020-0188,2021-10-30,13:07:42,14:56:15,NA,incomplete,false,true,NA,NA,3,31,NA,white,n_s_029.jpg,NA,NA,NA,NA,NA,pleasant,unpleasant,NA,NA,NA,NA,NA,left,1847.70000000298,true,NA,NA,NA,NA,NA,NA,NA,NA
9xOnU3gS,3ac6mfv6anv2a7u5af0lkpxttwbhzq,36nemu28xjqmvao5hr1t2a7zxrcmw1,9xOnU3gS,2020-0188,2021-10-30,13:07:42,14:56:15,NA,incomplete,false,true,NA,NA,3,32,NA,white,m_l_025.jpg,NA,NA,NA,NA,NA,pleasant,unpleasant,NA,NA,NA,NA,NA,left,2364.20000000298,true,NA,NA,NA,NA,NA,NA,NA,NA
9xOnU3gS,3ac6mfv6anv2a7u5af0lkpxttwbhzq,36nemu28xjqmvao5hr1t2a7zxrcmw1,9xOnU3gS,2020-0188,2021-10-30,13:07:42,14:56:15,NA,incomplete,false,true,NA,NA,3,33,NA,white,n_l_061.jpg,NA,NA,NA,NA,NA,pleasant,unpleasant,NA,NA,NA,NA,NA,left,2142.39999999106,true,NA,NA,NA,NA,NA,NA,NA,NA
9xOnU3gS,3ac6mfv6anv2a7u5af0lkpxttwbhzq,36nemu28xjqmvao5hr1t2a7zxrcmw1,9xOnU3gS,2020-0188,2021-10-30,13:07:42,14:56:15,NA,incomplete,false,true,NA,NA,3,34,NA,white,n_l_045.jpg,NA,NA,NA,NA,NA,unpleasant,pleasant,NA,NA,NA,NA,NA,right,1438.5,true,NA,NA,NA,NA,NA,NA,NA,NA
9xOnU3gS,3ac6mfv6anv2a7u5af0lkpxttwbhzq,36nemu28xjqmvao5hr1t2a7zxrcmw1,9xOnU3gS,2020-0188,2021-10-30,13:07:42,14:56:15,NA,incomplete,false,true,NA,NA,3,35,NA,white,m_l_014.jpg,NA,NA,NA,NA,NA,unpleasant,pleasant,NA,NA,NA,NA,NA,right,1755.29999999702,true,NA,NA,NA,NA,NA,NA,NA,NA
9xOnU3gS,3ac6mfv6anv2a7u5af0lkpxttwbhzq,36nemu28xjqmvao5hr1t2a7zxrcmw1,9xOnU3gS,2020-0188,2021-10-30,13:07:42,14:56:15,NA,incomplete,false,NA,NA,true,3,0,NA,NA,NA,left,m_l_014.jpg,white,orange,NA,NA,NA,NA,NA,NA,NA,NA,NA,NaN,NA,3054,left,1,NA,NA,NA,NA,NA
9xOnU3gS,3ac6mfv6anv2a7u5af0lkpxttwbhzq,36nemu28xjqmvao5hr1t2a7zxrcmw1,9xOnU3gS,2020-0188,2021-10-30,13:07:42,14:56:15,NA,incomplete,false,NA,NA,true,3,1,NA,NA,NA,left,m_l_110.jpg,orange,red,NA,NA,NA,NA,NA,NA,NA,NA,NA,NaN,NA,3106.5,right,0,NA,NA,NA,NA,NA
9xOnU3gS,3ac6mfv6anv2a7u5af0lkpxttwbhzq,36nemu28xjqmvao5hr1t2a7zxrcmw1,9xOnU3gS,2020-0188,2021-10-30,13:07:42,14:56:15,NA,incomplete,false,NA,NA,true,3,2,NA,NA,NA,right,n_s_014.jpg,purple,brown,NA,NA,NA,NA,NA,NA,NA,NA,NA,NaN,NA,3172,left,0,NA,NA,NA,NA,NA
9xOnU3gS,3ac6mfv6anv2a7u5af0lkpxttwbhzq,36nemu28xjqmvao5hr1t2a7zxrcmw1,9xOnU3gS,2020-0188,2021-10-30,13:07:42,14:56:15,NA,incomplete,false,NA,NA,true,3,3,NA,NA,NA,right,m_l_025.jpg,orange,white,NA,NA,NA,NA,NA,NA,NA,NA,NA,NaN,NA,2972.0999999940395,right,1,NA,NA,NA,NA,NA
9xOnU3gS,3ac6mfv6anv2a7u5af0lkpxttwbhzq,36nemu28xjqmvao5hr1t2a7zxrcmw1,9xOnU3gS,2020-0188,2021-10-30,13:07:42,14:56:15,NA,incomplete,false,NA,NA,true,3,4,NA,NA,NA,right,n_s_067.jpg,white,orange,NA,NA,NA,NA,NA,NA,NA,NA,NA,NaN,NA,1649.6000000089407,right,1,NA,NA,NA,NA,NA
9xOnU3gS,3ac6mfv6anv2a7u5af0lkpxttwbhzq,36nemu28xjqmvao5hr1t2a7zxrcmw1,9xOnU3gS,2020-0188,2021-10-30,13:07:42,14:56:15,NA,incomplete,false,NA,NA,true,3,5,NA,NA,NA,left,m_s_104.jpg,purple,red,NA,NA,NA,NA,NA,NA,NA,NA,NA,NaN,NA,1684.8999999910593,left,1,NA,NA,NA,NA,NA
9xOnU3gS,3ac6mfv6anv2a7u5af0lkpxttwbhzq,36nemu28xjqmvao5hr1t2a7zxrcmw1,9xOnU3gS,2020-0188,2021-10-30,13:07:42,14:56:15,NA,incomplete,false,NA,NA,true,3,6,NA,NA,NA,right,n_s_089.jpg,white,orange,NA,NA,NA,NA,NA,NA,NA,NA,NA,NaN,NA,1791,right,1,NA,NA,NA,NA,NA
9xOnU3gS,3ac6mfv6anv2a7u5af0lkpxttwbhzq,36nemu28xjqmvao5hr1t2a7zxrcmw1,9xOnU3gS,2020-0188,2021-10-30,13:07:42,14:56:15,NA,incomplete,false,NA,NA,true,3,7,NA,NA,NA,right,n_s_107.jpg,brown,purple,NA,NA,NA,NA,NA,NA,NA,NA,NA,NaN,NA,2051.5,right,1,NA,NA,NA,NA,NA
9xOnU3gS,3ac6mfv6anv2a7u5af0lkpxttwbhzq,36nemu28xjqmvao5hr1t2a7zxrcmw1,9xOnU3gS,2020-0188,2021-10-30,13:07:42,14:56:15,NA,incomplete,false,NA,NA,true,3,8,NA,NA,NA,left,n_s_114.jpg,brown,blue,NA,NA,NA,NA,NA,NA,NA,NA,NA,NaN,NA,1843.1000000089407,right,0,NA,NA,NA,NA,NA
9xOnU3gS,3ac6mfv6anv2a7u5af0lkpxttwbhzq,36nemu28xjqmvao5hr1t2a7zxrcmw1,9xOnU3gS,2020-0188,2021-10-30,13:07:42,14:56:15,NA,incomplete,false,NA,NA,true,3,9,NA,NA,NA,left,m_s_077.jpg,red,orange,NA,NA,NA,NA,NA,NA,NA,NA,NA,NaN,NA,3556.7000000029802,left,1,NA,NA,NA,NA,NA
9xOnU3gS,3ac6mfv6anv2a7u5af0lkpxttwbhzq,36nemu28xjqmvao5hr1t2a7zxrcmw1,9xOnU3gS,2020-0188,2021-10-30,13:07:42,14:56:15,NA,incomplete,false,NA,NA,true,3,10,NA,NA,NA,right,n_l_071.jpg,purple,red,NA,NA,NA,NA,NA,NA,NA,NA,NA,NaN,NA,1732,right,1,NA,NA,NA,NA,NA
9xOnU3gS,3ac6mfv6anv2a7u5af0lkpxttwbhzq,36nemu28xjqmvao5hr1t2a7zxrcmw1,9xOnU3gS,2020-0188,2021-10-30,13:07:42,14:56:15,NA,incomplete,false,NA,NA,true,3,11,NA,NA,NA,right,n_s_043.jpg,purple,red,NA,NA,NA,NA,NA,NA,NA,NA,NA,NaN,NA,1627.0999999940395,right,1,NA,NA,NA,NA,NA
9xOnU3gS,3ac6mfv6anv2a7u5af0lkpxttwbhzq,36nemu28xjqmvao5hr1t2a7zxrcmw1,9xOnU3gS,2020-0188,2021-10-30,13:07:42,14:56:15,NA,incomplete,false,NA,NA,true,3,12,NA,NA,NA,right,n_s_057.jpg,purple,red,NA,NA,NA,NA,NA,NA,NA,NA,NA,NaN,NA,2022,right,1,NA,NA,NA,NA,NA
9xOnU3gS,3ac6mfv6anv2a7u5af0lkpxttwbhzq,36nemu28xjqmvao5hr1t2a7zxrcmw1,9xOnU3gS,2020-0188,2021-10-30,13:07:42,14:56:15,NA,incomplete,false,NA,NA,true,3,13,NA,NA,NA,left,m_s_028.jpg,purple,brown,NA,NA,NA,NA,NA,NA,NA,NA,NA,NaN,NA,1945.1000000089407,left,1,NA,NA,NA,NA,NA
9xOnU3gS,3ac6mfv6anv2a7u5af0lkpxttwbhzq,36nemu28xjqmvao5hr1t2a7zxrcmw1,9xOnU3gS,2020-0188,2021-10-30,13:07:42,14:56:15,NA,incomplete,false,NA,NA,true,3,14,NA,NA,NA,left,n_s_029.jpg,white,orange,NA,NA,NA,NA,NA,NA,NA,NA,NA,NaN,NA,2883.8999999910593,right,0,NA,NA,NA,NA,NA
9xOnU3gS,3ac6mfv6anv2a7u5af0lkpxttwbhzq,36nemu28xjqmvao5hr1t2a7zxrcmw1,9xOnU3gS,2020-0188,2021-10-30,13:07:42,14:56:15,NA,incomplete,false,NA,NA,true,3,15,NA,NA,NA,left,n_l_006.jpg,orange,red,NA,NA,NA,NA,NA,NA,NA,NA,NA,NaN,NA,2478.5,left,1,NA,NA,NA,NA,NA
9xOnU3gS,3ac6mfv6anv2a7u5af0lkpxttwbhzq,36nemu28xjqmvao5hr1t2a7zxrcmw1,9xOnU3gS,2020-0188,2021-10-30,13:07:42,14:56:15,NA,incomplete,false,NA,NA,true,3,16,NA,NA,NA,right,m_s_116.jpg,purple,brown,NA,NA,NA,NA,NA,NA,NA,NA,NA,NaN,NA,1899.7000000029802,right,1,NA,NA,NA,NA,NA
9xOnU3gS,3ac6mfv6anv2a7u5af0lkpxttwbhzq,36nemu28xjqmvao5hr1t2a7zxrcmw1,9xOnU3gS,2020-0188,2021-10-30,13:07:42,14:56:15,NA,incomplete,false,NA,NA,true,3,17,NA,NA,NA,right,n_s_046.jpg,red,purple,NA,NA,NA,NA,NA,NA,NA,NA,NA,NaN,NA,1833.5,right,1,NA,NA,NA,NA,NA
9xOnU3gS,3ac6mfv6anv2a7u5af0lkpxttwbhzq,36nemu28xjqmvao5hr1t2a7zxrcmw1,9xOnU3gS,2020-0188,2021-10-30,13:07:42,14:56:15,NA,incomplete,false,NA,NA,true,3,18,NA,NA,NA,right,n_l_033.jpg,brown,blue,NA,NA,NA,NA,NA,NA,NA,NA,NA,NaN,NA,1556.5,right,1,NA,NA,NA,NA,NA
9xOnU3gS,3ac6mfv6anv2a7u5af0lkpxttwbhzq,36nemu28xjqmvao5hr1t2a7zxrcmw1,9xOnU3gS,2020-0188,2021-10-30,13:07:42,14:56:15,NA,incomplete,false,NA,NA,true,3,19,NA,NA,NA,right,n_l_100.jpg,brown,blue,NA,NA,NA,NA,NA,NA,NA,NA,NA,NaN,NA,2037.2999999970198,right,1,NA,NA,NA,NA,NA
9xOnU3gS,3ac6mfv6anv2a7u5af0lkpxttwbhzq,36nemu28xjqmvao5hr1t2a7zxrcmw1,9xOnU3gS,2020-0188,2021-10-30,13:07:42,14:56:15,NA,incomplete,false,NA,NA,true,3,20,NA,NA,NA,right,m_s_023.jpg,purple,brown,NA,NA,NA,NA,NA,NA,NA,NA,NA,NaN,NA,1845,right,1,NA,NA,NA,NA,NA
9xOnU3gS,3ac6mfv6anv2a7u5af0lkpxttwbhzq,36nemu28xjqmvao5hr1t2a7zxrcmw1,9xOnU3gS,2020-0188,2021-10-30,13:07:42,14:56:15,NA,incomplete,false,NA,NA,true,3,21,NA,NA,NA,right,m_s_085.jpg,brown,blue,NA,NA,NA,NA,NA,NA,NA,NA,NA,NaN,NA,1859.2000000029802,right,1,NA,NA,NA,NA,NA
9xOnU3gS,3ac6mfv6anv2a7u5af0lkpxttwbhzq,36nemu28xjqmvao5hr1t2a7zxrcmw1,9xOnU3gS,2020-0188,2021-10-30,13:07:42,14:56:15,NA,incomplete,false,NA,true,NA,3,0,NA,NA,NA,left,NA,NA,NA,absent,NA,NA,m_s_077.jpg,red,n_s_089.jpg,orange,between,NA,NaN,NA,NA,NA,NA,right,3189.7999999970198,0,1,1052.6000000089407
9xOnU3gS,3ac6mfv6anv2a7u5af0lkpxttwbhzq,36nemu28xjqmvao5hr1t2a7zxrcmw1,9xOnU3gS,2020-0188,2021-10-30,13:07:42,14:56:15,NA,incomplete,false,NA,true,NA,3,1,NA,NA,NA,left,NA,NA,NA,absent,NA,NA,n_s_107.jpg,purple,n_s_043.jpg,red,between,NA,NaN,NA,NA,NA,NA,left,5267.5,1,1,1309.7000000029802
9xOnU3gS,3ac6mfv6anv2a7u5af0lkpxttwbhzq,36nemu28xjqmvao5hr1t2a7zxrcmw1,9xOnU3gS,2020-0188,2021-10-30,13:07:42,14:56:15,NA,incomplete,false,NA,true,NA,3,2,NA,NA,NA,left,NA,NA,NA,absent,NA,NA,n_l_071.jpg,red,n_s_057.jpg,red,within,NA,NaN,NA,NA,NA,NA,left,6451.79999999702,1,0,1203.7000000029802
9xOnU3gS,3ac6mfv6anv2a7u5af0lkpxttwbhzq,36nemu28xjqmvao5hr1t2a7zxrcmw1,9xOnU3gS,2020-0188,2021-10-30,13:07:42,14:56:15,NA,incomplete,false,NA,true,NA,3,3,NA,NA,NA,right,NA,NA,NA,absent,NA,NA,m_s_028.jpg,purple,m_s_104.jpg,purple,within,NA,NaN,NA,NA,NA,NA,left,2453.1000000089407,0,2,2028.2000000029802
9xOnU3gS,3ac6mfv6anv2a7u5af0lkpxttwbhzq,36nemu28xjqmvao5hr1t2a7zxrcmw1,9xOnU3gS,2020-0188,2021-10-30,13:07:42,14:56:15,NA,incomplete,false,NA,true,NA,3,4,NA,NA,NA,left,NA,NA,NA,absent,NA,NA,n_s_029.jpg,white,m_l_014.jpg,white,within,NA,NaN,NA,NA,NA,NA,left,3931.4000000059605,1,1,960.0999999940395
9xOnU3gS,3ac6mfv6anv2a7u5af0lkpxttwbhzq,36nemu28xjqmvao5hr1t2a7zxrcmw1,9xOnU3gS,2020-0188,2021-10-30,13:07:42,14:56:15,NA,incomplete,false,NA,true,NA,3,5,NA,NA,NA,left,NA,NA,NA,absent,NA,NA,n_s_067.jpg,orange,m_l_025.jpg,white,between,NA,NaN,NA,NA,NA,NA,right,3643.7999999970198,0,1,1442.9000000059605
9xOnU3gS,3ac6mfv6anv2a7u5af0lkpxttwbhzq,36nemu28xjqmvao5hr1t2a7zxrcmw1,9xOnU3gS,2020-0188,2021-10-30,13:07:42,14:56:15,NA,incomplete,false,NA,true,NA,3,6,NA,NA,NA,left,NA,NA,NA,absent,NA,NA,m_l_110.jpg,orange,n_l_006.jpg,orange,within,NA,NaN,NA,NA,NA,NA,left,2276.5,1,1,2733.800000011921
9xOnU3gS,3ac6mfv6anv2a7u5af0lkpxttwbhzq,36nemu28xjqmvao5hr1t2a7zxrcmw1,9xOnU3gS,2020-0188,2021-10-30,13:07:42,14:56:15,NA,incomplete,false,NA,true,NA,3,7,NA,NA,NA,left,NA,NA,NA,absent,NA,NA,m_s_116.jpg,brown,m_s_023.jpg,brown,within,NA,NaN,NA,NA,NA,NA,left,2804.7000000029802,1,0,1092.2999999970198
9xOnU3gS,3ac6mfv6anv2a7u5af0lkpxttwbhzq,36nemu28xjqmvao5hr1t2a7zxrcmw1,9xOnU3gS,2020-0188,2021-10-30,13:07:42,14:56:15,NA,incomplete,false,NA,true,NA,3,8,NA,NA,NA,right,NA,NA,NA,absent,NA,NA,n_s_114.jpg,brown,n_l_100.jpg,blue,between,NA,NaN,NA,NA,NA,NA,right,2582.5,1,1,2372.2000000029802
9xOnU3gS,3ac6mfv6anv2a7u5af0lkpxttwbhzq,36nemu28xjqmvao5hr1t2a7zxrcmw1,9xOnU3gS,2020-0188,2021-10-30,13:07:42,14:56:15,NA,incomplete,false,NA,true,NA,3,9,NA,NA,NA,right,NA,NA,NA,absent,NA,NA,n_s_046.jpg,purple,n_s_014.jpg,brown,between,NA,NaN,NA,NA,NA,NA,left,2753.5,0,2,1973.2000000029802
9xOnU3gS,3ac6mfv6anv2a7u5af0lkpxttwbhzq,36nemu28xjqmvao5hr1t2a7zxrcmw1,9xOnU3gS,2020-0188,2021-10-30,13:07:42,14:56:15,NA,incomplete,false,NA,true,NA,3,10,NA,NA,NA,right,NA,NA,NA,absent,NA,NA,m_s_085.jpg,blue,n_l_033.jpg,blue,within,NA,NaN,NA,NA,NA,NA,right,2235.1000000089407,1,0,2020.2999999970198
9xOnU3gS,3ac6mfv6anv2a7u5af0lkpxttwbhzq,36nemu28xjqmvao5hr1t2a7zxrcmw1,9xOnU3gS,2020-0188,2021-10-30,13:07:42,14:56:15,NA,incomplete,false,true,NA,NA,4,0,NA,green,m_s_048.jpg,NA,NA,NA,NA,NA,unpleasant,pleasant,NA,NA,NA,NA,NA,right,1814.30000001192,true,NA,NA,NA,NA,NA,NA,NA,NA
9xOnU3gS,3ac6mfv6anv2a7u5af0lkpxttwbhzq,36nemu28xjqmvao5hr1t2a7zxrcmw1,9xOnU3gS,2020-0188,2021-10-30,13:07:42,14:56:15,NA,incomplete,false,true,NA,NA,4,1,NA,green,m_l_039.jpg,NA,NA,NA,NA,NA,pleasant,unpleasant,NA,NA,NA,NA,NA,left,1737.19999998808,true,NA,NA,NA,NA,NA,NA,NA,NA
9xOnU3gS,3ac6mfv6anv2a7u5af0lkpxttwbhzq,36nemu28xjqmvao5hr1t2a7zxrcmw1,9xOnU3gS,2020-0188,2021-10-30,13:07:42,14:56:15,NA,incomplete,false,true,NA,NA,4,2,NA,green,m_l_075.jpg,NA,NA,NA,NA,NA,pleasant,unpleasant,NA,NA,NA,NA,NA,left,2081.5,true,NA,NA,NA,NA,NA,NA,NA,NA
9xOnU3gS,3ac6mfv6anv2a7u5af0lkpxttwbhzq,36nemu28xjqmvao5hr1t2a7zxrcmw1,9xOnU3gS,2020-0188,2021-10-30,13:07:42,14:56:15,NA,incomplete,false,true,NA,NA,4,3,NA,green,m_s_013.jpg,NA,NA,NA,NA,NA,unpleasant,pleasant,NA,NA,NA,NA,NA,right,1521.69999998808,true,NA,NA,NA,NA,NA,NA,NA,NA
9xOnU3gS,3ac6mfv6anv2a7u5af0lkpxttwbhzq,36nemu28xjqmvao5hr1t2a7zxrcmw1,9xOnU3gS,2020-0188,2021-10-30,13:07:42,14:56:15,NA,incomplete,false,true,NA,NA,4,4,NA,green,m_s_030.jpg,NA,NA,NA,NA,NA,unpleasant,pleasant,NA,NA,NA,NA,NA,right,1758.80000001192,true,NA,NA,NA,NA,NA,NA,NA,NA
9xOnU3gS,3ac6mfv6anv2a7u5af0lkpxttwbhzq,36nemu28xjqmvao5hr1t2a7zxrcmw1,9xOnU3gS,2020-0188,2021-10-30,13:07:42,14:56:15,NA,incomplete,false,true,NA,NA,4,5,NA,green,m_l_069.jpg,NA,NA,NA,NA,NA,unpleasant,pleasant,NA,NA,NA,NA,NA,left,1326.09999999404,true,NA,NA,NA,NA,NA,NA,NA,NA
9xOnU3gS,3ac6mfv6anv2a7u5af0lkpxttwbhzq,36nemu28xjqmvao5hr1t2a7zxrcmw1,9xOnU3gS,2020-0188,2021-10-30,13:07:42,14:56:15,NA,incomplete,false,true,NA,NA,4,6,NA,white,n_l_080.jpg,NA,NA,NA,NA,NA,unpleasant,pleasant,NA,NA,NA,NA,NA,right,2070.09999999404,true,NA,NA,NA,NA,NA,NA,NA,NA
9xOnU3gS,3ac6mfv6anv2a7u5af0lkpxttwbhzq,36nemu28xjqmvao5hr1t2a7zxrcmw1,9xOnU3gS,2020-0188,2021-10-30,13:07:42,14:56:15,NA,incomplete,false,true,NA,NA,4,7,NA,white,m_l_104.jpg,NA,NA,NA,NA,NA,unpleasant,pleasant,NA,NA,NA,NA,NA,right,1674.5,true,NA,NA,NA,NA,NA,NA,NA,NA
9xOnU3gS,3ac6mfv6anv2a7u5af0lkpxttwbhzq,36nemu28xjqmvao5hr1t2a7zxrcmw1,9xOnU3gS,2020-0188,2021-10-30,13:07:42,14:56:15,NA,incomplete,false,true,NA,NA,4,8,NA,white,m_l_004.jpg,NA,NA,NA,NA,NA,unpleasant,pleasant,NA,NA,NA,NA,NA,right,1619.09999999404,true,NA,NA,NA,NA,NA,NA,NA,NA
9xOnU3gS,3ac6mfv6anv2a7u5af0lkpxttwbhzq,36nemu28xjqmvao5hr1t2a7zxrcmw1,9xOnU3gS,2020-0188,2021-10-30,13:07:42,14:56:15,NA,incomplete,false,true,NA,NA,4,9,NA,white,n_s_094.jpg,NA,NA,NA,NA,NA,pleasant,unpleasant,NA,NA,NA,NA,NA,right,2350.70000000298,true,NA,NA,NA,NA,NA,NA,NA,NA
9xOnU3gS,3ac6mfv6anv2a7u5af0lkpxttwbhzq,36nemu28xjqmvao5hr1t2a7zxrcmw1,9xOnU3gS,2020-0188,2021-10-30,13:07:42,14:56:15,NA,incomplete,false,true,NA,NA,4,10,NA,white,m_l_013.jpg,NA,NA,NA,NA,NA,unpleasant,pleasant,NA,NA,NA,NA,NA,right,1928,true,NA,NA,NA,NA,NA,NA,NA,NA
9xOnU3gS,3ac6mfv6anv2a7u5af0lkpxttwbhzq,36nemu28xjqmvao5hr1t2a7zxrcmw1,9xOnU3gS,2020-0188,2021-10-30,13:07:42,14:56:15,NA,incomplete,false,true,NA,NA,4,11,NA,white,m_s_075.jpg,NA,NA,NA,NA,NA,pleasant,unpleasant,NA,NA,NA,NA,NA,left,1959.79999999702,true,NA,NA,NA,NA,NA,NA,NA,NA
9xOnU3gS,3ac6mfv6anv2a7u5af0lkpxttwbhzq,36nemu28xjqmvao5hr1t2a7zxrcmw1,9xOnU3gS,2020-0188,2021-10-30,13:07:42,14:56:15,NA,incomplete,false,true,NA,NA,4,12,NA,gray,n_s_076.jpg,NA,NA,NA,NA,NA,pleasant,unpleasant,NA,NA,NA,NA,NA,left,2518.90000000596,true,NA,NA,NA,NA,NA,NA,NA,NA
9xOnU3gS,3ac6mfv6anv2a7u5af0lkpxttwbhzq,36nemu28xjqmvao5hr1t2a7zxrcmw1,9xOnU3gS,2020-0188,2021-10-30,13:07:42,14:56:15,NA,incomplete,false,true,NA,NA,4,13,NA,gray,m_l_079.jpg,NA,NA,NA,NA,NA,unpleasant,pleasant,NA,NA,NA,NA,NA,right,2257.5,true,NA,NA,NA,NA,NA,NA,NA,NA
9xOnU3gS,3ac6mfv6anv2a7u5af0lkpxttwbhzq,36nemu28xjqmvao5hr1t2a7zxrcmw1,9xOnU3gS,2020-0188,2021-10-30,13:07:42,14:56:15,NA,incomplete,false,true,NA,NA,4,14,NA,gray,n_l_044.jpg,NA,NA,NA,NA,NA,unpleasant,pleasant,NA,NA,NA,NA,NA,right,1474.69999998808,true,NA,NA,NA,NA,NA,NA,NA,NA
9xOnU3gS,3ac6mfv6anv2a7u5af0lkpxttwbhzq,36nemu28xjqmvao5hr1t2a7zxrcmw1,9xOnU3gS,2020-0188,2021-10-30,13:07:42,14:56:15,NA,incomplete,false,true,NA,NA,4,15,NA,gray,m_s_078.jpg,NA,NA,NA,NA,NA,unpleasant,pleasant,NA,NA,NA,NA,NA,right,2210.29999999702,true,NA,NA,NA,NA,NA,NA,NA,NA
9xOnU3gS,3ac6mfv6anv2a7u5af0lkpxttwbhzq,36nemu28xjqmvao5hr1t2a7zxrcmw1,9xOnU3gS,2020-0188,2021-10-30,13:07:42,14:56:15,NA,incomplete,false,true,NA,NA,4,16,NA,gray,n_l_037.jpg,NA,NA,NA,NA,NA,pleasant,unpleasant,NA,NA,NA,NA,NA,left,1844.40000000596,true,NA,NA,NA,NA,NA,NA,NA,NA
9xOnU3gS,3ac6mfv6anv2a7u5af0lkpxttwbhzq,36nemu28xjqmvao5hr1t2a7zxrcmw1,9xOnU3gS,2020-0188,2021-10-30,13:07:42,14:56:15,NA,incomplete,false,true,NA,NA,4,17,NA,gray,n_s_097.jpg,NA,NA,NA,NA,NA,pleasant,unpleasant,NA,NA,NA,NA,NA,left,1650.09999999404,true,NA,NA,NA,NA,NA,NA,NA,NA
9xOnU3gS,3ac6mfv6anv2a7u5af0lkpxttwbhzq,36nemu28xjqmvao5hr1t2a7zxrcmw1,9xOnU3gS,2020-0188,2021-10-30,13:07:42,14:56:15,NA,incomplete,false,true,NA,NA,4,18,NA,yellow,m_l_035.jpg,NA,NA,NA,NA,NA,unpleasant,pleasant,NA,NA,NA,NA,NA,right,2189.09999999404,true,NA,NA,NA,NA,NA,NA,NA,NA
9xOnU3gS,3ac6mfv6anv2a7u5af0lkpxttwbhzq,36nemu28xjqmvao5hr1t2a7zxrcmw1,9xOnU3gS,2020-0188,2021-10-30,13:07:42,14:56:15,NA,incomplete,false,true,NA,NA,4,19,NA,yellow,n_s_008.jpg,NA,NA,NA,NA,NA,unpleasant,pleasant,NA,NA,NA,NA,NA,right,1707.39999999106,true,NA,NA,NA,NA,NA,NA,NA,NA
9xOnU3gS,3ac6mfv6anv2a7u5af0lkpxttwbhzq,36nemu28xjqmvao5hr1t2a7zxrcmw1,9xOnU3gS,2020-0188,2021-10-30,13:07:42,14:56:15,NA,incomplete,false,true,NA,NA,4,20,NA,yellow,m_s_012.jpg,NA,NA,NA,NA,NA,unpleasant,pleasant,NA,NA,NA,NA,NA,left,1500.29999999702,true,NA,NA,NA,NA,NA,NA,NA,NA
9xOnU3gS,3ac6mfv6anv2a7u5af0lkpxttwbhzq,36nemu28xjqmvao5hr1t2a7zxrcmw1,9xOnU3gS,2020-0188,2021-10-30,13:07:42,14:56:15,NA,incomplete,false,true,NA,NA,4,21,NA,yellow,m_l_057.jpg,NA,NA,NA,NA,NA,unpleasant,pleasant,NA,NA,NA,NA,NA,right,1506.09999999404,true,NA,NA,NA,NA,NA,NA,NA,NA
9xOnU3gS,3ac6mfv6anv2a7u5af0lkpxttwbhzq,36nemu28xjqmvao5hr1t2a7zxrcmw1,9xOnU3gS,2020-0188,2021-10-30,13:07:42,14:56:15,NA,incomplete,false,true,NA,NA,4,22,NA,yellow,n_l_064.jpg,NA,NA,NA,NA,NA,unpleasant,pleasant,NA,NA,NA,NA,NA,right,2285.5,true,NA,NA,NA,NA,NA,NA,NA,NA
9xOnU3gS,3ac6mfv6anv2a7u5af0lkpxttwbhzq,36nemu28xjqmvao5hr1t2a7zxrcmw1,9xOnU3gS,2020-0188,2021-10-30,13:07:42,14:56:15,NA,incomplete,false,true,NA,NA,4,23,NA,yellow,m_s_018.jpg,NA,NA,NA,NA,NA,pleasant,unpleasant,NA,NA,NA,NA,NA,right,1716.09999999404,true,NA,NA,NA,NA,NA,NA,NA,NA
9xOnU3gS,3ac6mfv6anv2a7u5af0lkpxttwbhzq,36nemu28xjqmvao5hr1t2a7zxrcmw1,9xOnU3gS,2020-0188,2021-10-30,13:07:42,14:56:15,NA,incomplete,false,true,NA,NA,4,24,NA,purple,m_s_117.jpg,NA,NA,NA,NA,NA,pleasant,unpleasant,NA,NA,NA,NA,NA,left,1986.5,true,NA,NA,NA,NA,NA,NA,NA,NA
9xOnU3gS,3ac6mfv6anv2a7u5af0lkpxttwbhzq,36nemu28xjqmvao5hr1t2a7zxrcmw1,9xOnU3gS,2020-0188,2021-10-30,13:07:42,14:56:15,NA,incomplete,false,true,NA,NA,4,25,NA,purple,m_s_053.jpg,NA,NA,NA,NA,NA,unpleasant,pleasant,NA,NA,NA,NA,NA,right,1589.70000000298,true,NA,NA,NA,NA,NA,NA,NA,NA
9xOnU3gS,3ac6mfv6anv2a7u5af0lkpxttwbhzq,36nemu28xjqmvao5hr1t2a7zxrcmw1,9xOnU3gS,2020-0188,2021-10-30,13:07:42,14:56:15,NA,incomplete,false,true,NA,NA,4,26,NA,purple,n_l_116.jpg,NA,NA,NA,NA,NA,pleasant,unpleasant,NA,NA,NA,NA,NA,left,1605.29999999702,true,NA,NA,NA,NA,NA,NA,NA,NA
9xOnU3gS,3ac6mfv6anv2a7u5af0lkpxttwbhzq,36nemu28xjqmvao5hr1t2a7zxrcmw1,9xOnU3gS,2020-0188,2021-10-30,13:07:42,14:56:15,NA,incomplete,false,true,NA,NA,4,27,NA,purple,m_l_101.jpg,NA,NA,NA,NA,NA,pleasant,unpleasant,NA,NA,NA,NA,NA,left,1282.39999999106,true,NA,NA,NA,NA,NA,NA,NA,NA
9xOnU3gS,3ac6mfv6anv2a7u5af0lkpxttwbhzq,36nemu28xjqmvao5hr1t2a7zxrcmw1,9xOnU3gS,2020-0188,2021-10-30,13:07:42,14:56:15,NA,incomplete,false,true,NA,NA,4,28,NA,purple,n_s_015.jpg,NA,NA,NA,NA,NA,unpleasant,pleasant,NA,NA,NA,NA,NA,left,2320.19999998808,true,NA,NA,NA,NA,NA,NA,NA,NA
9xOnU3gS,3ac6mfv6anv2a7u5af0lkpxttwbhzq,36nemu28xjqmvao5hr1t2a7zxrcmw1,9xOnU3gS,2020-0188,2021-10-30,13:07:42,14:56:15,NA,incomplete,false,true,NA,NA,4,29,NA,purple,n_l_001.jpg,NA,NA,NA,NA,NA,pleasant,unpleasant,NA,NA,NA,NA,NA,right,2294.5,true,NA,NA,NA,NA,NA,NA,NA,NA
9xOnU3gS,3ac6mfv6anv2a7u5af0lkpxttwbhzq,36nemu28xjqmvao5hr1t2a7zxrcmw1,9xOnU3gS,2020-0188,2021-10-30,13:07:42,14:56:15,NA,incomplete,false,true,NA,NA,4,30,NA,blue,m_l_087.jpg,NA,NA,NA,NA,NA,pleasant,unpleasant,NA,NA,NA,NA,NA,left,1958.79999999702,true,NA,NA,NA,NA,NA,NA,NA,NA
9xOnU3gS,3ac6mfv6anv2a7u5af0lkpxttwbhzq,36nemu28xjqmvao5hr1t2a7zxrcmw1,9xOnU3gS,2020-0188,2021-10-30,13:07:42,14:56:15,NA,incomplete,false,true,NA,NA,4,31,NA,blue,n_l_098.jpg,NA,NA,NA,NA,NA,unpleasant,pleasant,NA,NA,NA,NA,NA,right,2615.39999999106,true,NA,NA,NA,NA,NA,NA,NA,NA
9xOnU3gS,3ac6mfv6anv2a7u5af0lkpxttwbhzq,36nemu28xjqmvao5hr1t2a7zxrcmw1,9xOnU3gS,2020-0188,2021-10-30,13:07:42,14:56:15,NA,incomplete,false,true,NA,NA,4,32,NA,blue,m_l_049.jpg,NA,NA,NA,NA,NA,pleasant,unpleasant,NA,NA,NA,NA,NA,right,2836,true,NA,NA,NA,NA,NA,NA,NA,NA
9xOnU3gS,3ac6mfv6anv2a7u5af0lkpxttwbhzq,36nemu28xjqmvao5hr1t2a7zxrcmw1,9xOnU3gS,2020-0188,2021-10-30,13:07:42,14:56:15,NA,incomplete,false,true,NA,NA,4,33,NA,blue,n_l_117.jpg,NA,NA,NA,NA,NA,pleasant,unpleasant,NA,NA,NA,NA,NA,right,1946.80000001192,true,NA,NA,NA,NA,NA,NA,NA,NA
9xOnU3gS,3ac6mfv6anv2a7u5af0lkpxttwbhzq,36nemu28xjqmvao5hr1t2a7zxrcmw1,9xOnU3gS,2020-0188,2021-10-30,13:07:42,14:56:15,NA,incomplete,false,true,NA,NA,4,34,NA,blue,n_s_065.jpg,NA,NA,NA,NA,NA,pleasant,unpleasant,NA,NA,NA,NA,NA,right,2296,true,NA,NA,NA,NA,NA,NA,NA,NA
9xOnU3gS,3ac6mfv6anv2a7u5af0lkpxttwbhzq,36nemu28xjqmvao5hr1t2a7zxrcmw1,9xOnU3gS,2020-0188,2021-10-30,13:07:42,14:56:15,NA,incomplete,false,true,NA,NA,4,35,NA,blue,m_s_102.jpg,NA,NA,NA,NA,NA,pleasant,unpleasant,NA,NA,NA,NA,NA,left,1724.70000000298,true,NA,NA,NA,NA,NA,NA,NA,NA
9xOnU3gS,3ac6mfv6anv2a7u5af0lkpxttwbhzq,36nemu28xjqmvao5hr1t2a7zxrcmw1,9xOnU3gS,2020-0188,2021-10-30,13:07:42,14:56:15,NA,incomplete,false,NA,NA,true,4,0,NA,NA,NA,left,n_l_064.jpg,yellow,gray,NA,NA,NA,NA,NA,NA,NA,NA,NA,NaN,NA,3451.4000000059605,left,1,NA,NA,NA,NA,NA
9xOnU3gS,3ac6mfv6anv2a7u5af0lkpxttwbhzq,36nemu28xjqmvao5hr1t2a7zxrcmw1,9xOnU3gS,2020-0188,2021-10-30,13:07:42,14:56:15,NA,incomplete,false,NA,NA,true,4,1,NA,NA,NA,left,n_l_098.jpg,blue,purple,NA,NA,NA,NA,NA,NA,NA,NA,NA,NaN,NA,3507.7999999970198,left,1,NA,NA,NA,NA,NA
9xOnU3gS,3ac6mfv6anv2a7u5af0lkpxttwbhzq,36nemu28xjqmvao5hr1t2a7zxrcmw1,9xOnU3gS,2020-0188,2021-10-30,13:07:42,14:56:15,NA,incomplete,false,NA,NA,true,4,2,NA,NA,NA,left,n_l_001.jpg,purple,yellow,NA,NA,NA,NA,NA,NA,NA,NA,NA,NaN,NA,2059.7000000029802,left,1,NA,NA,NA,NA,NA
9xOnU3gS,3ac6mfv6anv2a7u5af0lkpxttwbhzq,36nemu28xjqmvao5hr1t2a7zxrcmw1,9xOnU3gS,2020-0188,2021-10-30,13:07:42,14:56:15,NA,incomplete,false,NA,NA,true,4,3,NA,NA,NA,left,m_l_004.jpg,white,gray,NA,NA,NA,NA,NA,NA,NA,NA,NA,NaN,NA,2397.4000000059605,left,1,NA,NA,NA,NA,NA
9xOnU3gS,3ac6mfv6anv2a7u5af0lkpxttwbhzq,36nemu28xjqmvao5hr1t2a7zxrcmw1,9xOnU3gS,2020-0188,2021-10-30,13:07:42,14:56:15,NA,incomplete,false,NA,NA,true,4,4,NA,NA,NA,left,n_s_015.jpg,purple,yellow,NA,NA,NA,NA,NA,NA,NA,NA,NA,NaN,NA,3125,left,1,NA,NA,NA,NA,NA
9xOnU3gS,3ac6mfv6anv2a7u5af0lkpxttwbhzq,36nemu28xjqmvao5hr1t2a7zxrcmw1,9xOnU3gS,2020-0188,2021-10-30,13:07:42,14:56:15,NA,incomplete,false,NA,NA,true,4,5,NA,NA,NA,left,m_s_018.jpg,yellow,purple,NA,NA,NA,NA,NA,NA,NA,NA,NA,NaN,NA,1941.9000000059605,left,1,NA,NA,NA,NA,NA
9xOnU3gS,3ac6mfv6anv2a7u5af0lkpxttwbhzq,36nemu28xjqmvao5hr1t2a7zxrcmw1,9xOnU3gS,2020-0188,2021-10-30,13:07:42,14:56:15,NA,incomplete,false,NA,NA,true,4,6,NA,NA,NA,left,m_l_039.jpg,green,white,NA,NA,NA,NA,NA,NA,NA,NA,NA,NaN,NA,2131.7000000029802,left,1,NA,NA,NA,NA,NA
9xOnU3gS,3ac6mfv6anv2a7u5af0lkpxttwbhzq,36nemu28xjqmvao5hr1t2a7zxrcmw1,9xOnU3gS,2020-0188,2021-10-30,13:07:42,14:56:15,NA,incomplete,false,NA,NA,true,4,7,NA,NA,NA,left,m_l_013.jpg,white,green,NA,NA,NA,NA,NA,NA,NA,NA,NA,NaN,NA,3210.5999999940395,right,0,NA,NA,NA,NA,NA
9xOnU3gS,3ac6mfv6anv2a7u5af0lkpxttwbhzq,36nemu28xjqmvao5hr1t2a7zxrcmw1,9xOnU3gS,2020-0188,2021-10-30,13:07:42,14:56:15,NA,incomplete,false,NA,NA,true,4,8,NA,NA,NA,left,n_s_097.jpg,gray,yellow,NA,NA,NA,NA,NA,NA,NA,NA,NA,NaN,NA,3940.5,left,1,NA,NA,NA,NA,NA
9xOnU3gS,3ac6mfv6anv2a7u5af0lkpxttwbhzq,36nemu28xjqmvao5hr1t2a7zxrcmw1,9xOnU3gS,2020-0188,2021-10-30,13:07:42,14:56:15,NA,incomplete,false,NA,NA,true,4,9,NA,NA,NA,left,m_s_053.jpg,purple,blue,NA,NA,NA,NA,NA,NA,NA,NA,NA,NaN,NA,1986.9000000059605,right,0,NA,NA,NA,NA,NA
9xOnU3gS,3ac6mfv6anv2a7u5af0lkpxttwbhzq,36nemu28xjqmvao5hr1t2a7zxrcmw1,9xOnU3gS,2020-0188,2021-10-30,13:07:42,14:56:15,NA,incomplete,false,NA,NA,true,4,10,NA,NA,NA,right,m_l_104.jpg,gray,white,NA,NA,NA,NA,NA,NA,NA,NA,NA,NaN,NA,1834.0999999940395,right,1,NA,NA,NA,NA,NA
9xOnU3gS,3ac6mfv6anv2a7u5af0lkpxttwbhzq,36nemu28xjqmvao5hr1t2a7zxrcmw1,9xOnU3gS,2020-0188,2021-10-30,13:07:42,14:56:15,NA,incomplete,false,NA,NA,true,4,11,NA,NA,NA,left,m_l_069.jpg,green,white,NA,NA,NA,NA,NA,NA,NA,NA,NA,NaN,NA,1778.9000000059605,left,1,NA,NA,NA,NA,NA
9xOnU3gS,3ac6mfv6anv2a7u5af0lkpxttwbhzq,36nemu28xjqmvao5hr1t2a7zxrcmw1,9xOnU3gS,2020-0188,2021-10-30,13:07:42,14:56:15,NA,incomplete,false,NA,NA,true,4,12,NA,NA,NA,right,m_l_079.jpg,white,gray,NA,NA,NA,NA,NA,NA,NA,NA,NA,NaN,NA,1802.2000000029802,left,0,NA,NA,NA,NA,NA
9xOnU3gS,3ac6mfv6anv2a7u5af0lkpxttwbhzq,36nemu28xjqmvao5hr1t2a7zxrcmw1,9xOnU3gS,2020-0188,2021-10-30,13:07:42,14:56:15,NA,incomplete,false,NA,NA,true,4,13,NA,NA,NA,right,n_l_044.jpg,yellow,gray,NA,NA,NA,NA,NA,NA,NA,NA,NA,NaN,NA,3091.2999999970198,right,1,NA,NA,NA,NA,NA
9xOnU3gS,3ac6mfv6anv2a7u5af0lkpxttwbhzq,36nemu28xjqmvao5hr1t2a7zxrcmw1,9xOnU3gS,2020-0188,2021-10-30,13:07:42,14:56:15,NA,incomplete,false,NA,NA,true,4,14,NA,NA,NA,left,m_s_102.jpg,blue,purple,NA,NA,NA,NA,NA,NA,NA,NA,NA,NaN,NA,1989.2999999970198,left,1,NA,NA,NA,NA,NA
9xOnU3gS,3ac6mfv6anv2a7u5af0lkpxttwbhzq,36nemu28xjqmvao5hr1t2a7zxrcmw1,9xOnU3gS,2020-0188,2021-10-30,13:07:42,14:56:15,NA,incomplete,false,NA,NA,true,4,15,NA,NA,NA,right,m_s_030.jpg,white,green,NA,NA,NA,NA,NA,NA,NA,NA,NA,NaN,NA,1843.3999999910593,right,1,NA,NA,NA,NA,NA
9xOnU3gS,3ac6mfv6anv2a7u5af0lkpxttwbhzq,36nemu28xjqmvao5hr1t2a7zxrcmw1,9xOnU3gS,2020-0188,2021-10-30,13:07:42,14:56:15,NA,incomplete,false,NA,NA,true,4,16,NA,NA,NA,right,m_s_012.jpg,gray,yellow,NA,NA,NA,NA,NA,NA,NA,NA,NA,NaN,NA,1812.5,right,1,NA,NA,NA,NA,NA
9xOnU3gS,3ac6mfv6anv2a7u5af0lkpxttwbhzq,36nemu28xjqmvao5hr1t2a7zxrcmw1,9xOnU3gS,2020-0188,2021-10-30,13:07:42,14:56:15,NA,incomplete,false,NA,NA,true,4,17,NA,NA,NA,right,m_s_075.jpg,gray,white,NA,NA,NA,NA,NA,NA,NA,NA,NA,NaN,NA,4843.70000000298,right,1,NA,NA,NA,NA,NA
9xOnU3gS,3ac6mfv6anv2a7u5af0lkpxttwbhzq,36nemu28xjqmvao5hr1t2a7zxrcmw1,9xOnU3gS,2020-0188,2021-10-30,13:07:42,14:56:15,NA,incomplete,false,NA,NA,true,4,18,NA,NA,NA,left,n_s_008.jpg,yellow,gray,NA,NA,NA,NA,NA,NA,NA,NA,NA,NaN,NA,2323.4000000059605,left,1,NA,NA,NA,NA,NA
9xOnU3gS,3ac6mfv6anv2a7u5af0lkpxttwbhzq,36nemu28xjqmvao5hr1t2a7zxrcmw1,9xOnU3gS,2020-0188,2021-10-30,13:07:42,14:56:15,NA,incomplete,false,NA,NA,true,4,19,NA,NA,NA,right,n_l_116.jpg,yellow,purple,NA,NA,NA,NA,NA,NA,NA,NA,NA,NaN,NA,1605.2999999970198,right,1,NA,NA,NA,NA,NA
9xOnU3gS,3ac6mfv6anv2a7u5af0lkpxttwbhzq,36nemu28xjqmvao5hr1t2a7zxrcmw1,9xOnU3gS,2020-0188,2021-10-30,13:07:42,14:56:15,NA,incomplete,false,NA,NA,true,4,20,NA,NA,NA,left,m_l_049.jpg,blue,purple,NA,NA,NA,NA,NA,NA,NA,NA,NA,NaN,NA,3179.3999999910593,left,1,NA,NA,NA,NA,NA
9xOnU3gS,3ac6mfv6anv2a7u5af0lkpxttwbhzq,36nemu28xjqmvao5hr1t2a7zxrcmw1,9xOnU3gS,2020-0188,2021-10-30,13:07:42,14:56:15,NA,incomplete,false,NA,NA,true,4,21,NA,NA,NA,left,n_l_037.jpg,gray,white,NA,NA,NA,NA,NA,NA,NA,NA,NA,NaN,NA,1811.2999999970198,left,1,NA,NA,NA,NA,NA
9xOnU3gS,3ac6mfv6anv2a7u5af0lkpxttwbhzq,36nemu28xjqmvao5hr1t2a7zxrcmw1,9xOnU3gS,2020-0188,2021-10-30,13:07:42,14:56:15,NA,incomplete,false,NA,true,NA,4,0,NA,NA,NA,left,NA,NA,NA,absent,NA,NA,n_s_015.jpg,purple,m_l_049.jpg,blue,between,NA,NaN,NA,NA,NA,NA,left,3671.7000000029802,1,2,1587.800000011921
9xOnU3gS,3ac6mfv6anv2a7u5af0lkpxttwbhzq,36nemu28xjqmvao5hr1t2a7zxrcmw1,9xOnU3gS,2020-0188,2021-10-30,13:07:42,14:56:15,NA,incomplete,false,NA,true,NA,4,1,NA,NA,NA,left,NA,NA,NA,absent,NA,NA,m_s_030.jpg,green,m_l_004.jpg,white,between,NA,NaN,NA,NA,NA,NA,right,2338.5,0,1,3013.5
9xOnU3gS,3ac6mfv6anv2a7u5af0lkpxttwbhzq,36nemu28xjqmvao5hr1t2a7zxrcmw1,9xOnU3gS,2020-0188,2021-10-30,13:07:42,14:56:15,NA,incomplete,false,NA,true,NA,4,2,NA,NA,NA,right,NA,NA,NA,absent,NA,NA,m_s_102.jpg,blue,n_l_098.jpg,blue,within,NA,NaN,NA,NA,NA,NA,right,1907.5999999940395,1,0,1891.7999999970198
9xOnU3gS,3ac6mfv6anv2a7u5af0lkpxttwbhzq,36nemu28xjqmvao5hr1t2a7zxrcmw1,9xOnU3gS,2020-0188,2021-10-30,13:07:42,14:56:15,NA,incomplete,false,NA,true,NA,4,3,NA,NA,NA,left,NA,NA,NA,absent,NA,NA,m_l_079.jpg,gray,n_s_097.jpg,gray,within,NA,NaN,NA,NA,NA,NA,right,3138.0999999940395,0,3,1042.5999999940395
9xOnU3gS,3ac6mfv6anv2a7u5af0lkpxttwbhzq,36nemu28xjqmvao5hr1t2a7zxrcmw1,9xOnU3gS,2020-0188,2021-10-30,13:07:42,14:56:15,NA,incomplete,false,NA,true,NA,4,4,NA,NA,NA,left,NA,NA,NA,absent,NA,NA,n_l_064.jpg,yellow,n_l_116.jpg,purple,between,NA,NaN,NA,NA,NA,NA,right,7491.20000000298,0,1,1612.2999999970198
9xOnU3gS,3ac6mfv6anv2a7u5af0lkpxttwbhzq,36nemu28xjqmvao5hr1t2a7zxrcmw1,9xOnU3gS,2020-0188,2021-10-30,13:07:42,14:56:15,NA,incomplete,false,NA,true,NA,4,5,NA,NA,NA,right,NA,NA,NA,absent,NA,NA,n_l_044.jpg,gray,m_l_013.jpg,white,between,NA,NaN,NA,NA,NA,NA,right,2204.800000011921,1,2,1684.9000000059605
9xOnU3gS,3ac6mfv6anv2a7u5af0lkpxttwbhzq,36nemu28xjqmvao5hr1t2a7zxrcmw1,9xOnU3gS,2020-0188,2021-10-30,13:07:42,14:56:15,NA,incomplete,false,NA,true,NA,4,6,NA,NA,NA,right,NA,NA,NA,absent,NA,NA,n_l_001.jpg,purple,m_s_053.jpg,purple,within,NA,NaN,NA,NA,NA,NA,left,2268.0999999940395,0,0,2636.1000000089407
9xOnU3gS,3ac6mfv6anv2a7u5af0lkpxttwbhzq,36nemu28xjqmvao5hr1t2a7zxrcmw1,9xOnU3gS,2020-0188,2021-10-30,13:07:42,14:56:15,NA,incomplete,false,NA,true,NA,4,7,NA,NA,NA,left,NA,NA,NA,absent,NA,NA,n_l_037.jpg,gray,m_s_012.jpg,yellow,between,NA,NaN,NA,NA,NA,NA,left,2291.0999999940395,1,2,1144.1000000089407
9xOnU3gS,3ac6mfv6anv2a7u5af0lkpxttwbhzq,36nemu28xjqmvao5hr1t2a7zxrcmw1,9xOnU3gS,2020-0188,2021-10-30,13:07:42,14:56:15,NA,incomplete,false,NA,true,NA,4,8,NA,NA,NA,right,NA,NA,NA,absent,NA,NA,m_s_018.jpg,yellow,n_s_008.jpg,yellow,within,NA,NaN,NA,NA,NA,NA,right,4292.800000011921,1,0,1188.7999999970198
9xOnU3gS,3ac6mfv6anv2a7u5af0lkpxttwbhzq,36nemu28xjqmvao5hr1t2a7zxrcmw1,9xOnU3gS,2020-0188,2021-10-30,13:07:42,14:56:15,NA,incomplete,false,NA,true,NA,4,9,NA,NA,NA,left,NA,NA,NA,absent,NA,NA,m_l_039.jpg,green,m_l_069.jpg,green,within,NA,NaN,NA,NA,NA,NA,left,3028.3999999910593,1,2,1892.5999999940395
9xOnU3gS,3ac6mfv6anv2a7u5af0lkpxttwbhzq,36nemu28xjqmvao5hr1t2a7zxrcmw1,9xOnU3gS,2020-0188,2021-10-30,13:07:42,14:56:15,NA,incomplete,false,NA,true,NA,4,10,NA,NA,NA,left,NA,NA,NA,absent,NA,NA,m_l_104.jpg,white,m_s_075.jpg,white,within,NA,NaN,NA,NA,NA,NA,left,3644.2000000029802,1,1,5309.399999991059
9xOnU3gS,3ac6mfv6anv2a7u5af0lkpxttwbhzq,36nemu28xjqmvao5hr1t2a7zxrcmw1,9xOnU3gS,2020-0188,2021-10-30,13:07:42,14:56:15,NA,incomplete,false,true,NA,NA,5,0,NA,blue,m_s_082.jpg,NA,NA,NA,NA,NA,unpleasant,pleasant,NA,NA,NA,NA,NA,right,1931.5,true,NA,NA,NA,NA,NA,NA,NA,NA
9xOnU3gS,3ac6mfv6anv2a7u5af0lkpxttwbhzq,36nemu28xjqmvao5hr1t2a7zxrcmw1,9xOnU3gS,2020-0188,2021-10-30,13:07:42,14:56:15,NA,incomplete,false,true,NA,NA,5,1,NA,blue,n_l_048.jpg,NA,NA,NA,NA,NA,pleasant,unpleasant,NA,NA,NA,NA,NA,left,1697.90000000596,true,NA,NA,NA,NA,NA,NA,NA,NA
9xOnU3gS,3ac6mfv6anv2a7u5af0lkpxttwbhzq,36nemu28xjqmvao5hr1t2a7zxrcmw1,9xOnU3gS,2020-0188,2021-10-30,13:07:42,14:56:15,NA,incomplete,false,true,NA,NA,5,2,NA,blue,n_s_101.jpg,NA,NA,NA,NA,NA,unpleasant,pleasant,NA,NA,NA,NA,NA,left,2432.79999999702,true,NA,NA,NA,NA,NA,NA,NA,NA
9xOnU3gS,3ac6mfv6anv2a7u5af0lkpxttwbhzq,36nemu28xjqmvao5hr1t2a7zxrcmw1,9xOnU3gS,2020-0188,2021-10-30,13:07:42,14:56:15,NA,incomplete,false,true,NA,NA,5,3,NA,blue,m_s_110.jpg,NA,NA,NA,NA,NA,unpleasant,pleasant,NA,NA,NA,NA,NA,right,1566.09999999404,true,NA,NA,NA,NA,NA,NA,NA,NA
9xOnU3gS,3ac6mfv6anv2a7u5af0lkpxttwbhzq,36nemu28xjqmvao5hr1t2a7zxrcmw1,9xOnU3gS,2020-0188,2021-10-30,13:07:42,14:56:15,NA,incomplete,false,true,NA,NA,5,4,NA,blue,n_l_041.jpg,NA,NA,NA,NA,NA,pleasant,unpleasant,NA,NA,NA,NA,NA,right,1689.20000000298,true,NA,NA,NA,NA,NA,NA,NA,NA
9xOnU3gS,3ac6mfv6anv2a7u5af0lkpxttwbhzq,36nemu28xjqmvao5hr1t2a7zxrcmw1,9xOnU3gS,2020-0188,2021-10-30,13:07:42,14:56:15,NA,incomplete,false,true,NA,NA,5,5,NA,blue,m_l_038.jpg,NA,NA,NA,NA,NA,pleasant,unpleasant,NA,NA,NA,NA,NA,left,2439.10000000894,true,NA,NA,NA,NA,NA,NA,NA,NA
9xOnU3gS,3ac6mfv6anv2a7u5af0lkpxttwbhzq,36nemu28xjqmvao5hr1t2a7zxrcmw1,9xOnU3gS,2020-0188,2021-10-30,13:07:42,14:56:15,NA,incomplete,false,true,NA,NA,5,6,NA,yellow,m_l_048.jpg,NA,NA,NA,NA,NA,pleasant,unpleasant,NA,NA,NA,NA,NA,left,1938.60000000894,true,NA,NA,NA,NA,NA,NA,NA,NA
9xOnU3gS,3ac6mfv6anv2a7u5af0lkpxttwbhzq,36nemu28xjqmvao5hr1t2a7zxrcmw1,9xOnU3gS,2020-0188,2021-10-30,13:07:42,14:56:15,NA,incomplete,false,true,NA,NA,5,7,NA,yellow,m_l_112.jpg,NA,NA,NA,NA,NA,unpleasant,pleasant,NA,NA,NA,NA,NA,right,1676.09999999404,true,NA,NA,NA,NA,NA,NA,NA,NA
9xOnU3gS,3ac6mfv6anv2a7u5af0lkpxttwbhzq,36nemu28xjqmvao5hr1t2a7zxrcmw1,9xOnU3gS,2020-0188,2021-10-30,13:07:42,14:56:15,NA,incomplete,false,true,NA,NA,5,8,NA,yellow,n_s_019.jpg,NA,NA,NA,NA,NA,unpleasant,pleasant,NA,NA,NA,NA,NA,right,1938.59999999404,true,NA,NA,NA,NA,NA,NA,NA,NA
9xOnU3gS,3ac6mfv6anv2a7u5af0lkpxttwbhzq,36nemu28xjqmvao5hr1t2a7zxrcmw1,9xOnU3gS,2020-0188,2021-10-30,13:07:42,14:56:15,NA,incomplete,false,true,NA,NA,5,9,NA,yellow,n_s_001.jpg,NA,NA,NA,NA,NA,pleasant,unpleasant,NA,NA,NA,NA,NA,left,1709.29999999702,true,NA,NA,NA,NA,NA,NA,NA,NA
9xOnU3gS,3ac6mfv6anv2a7u5af0lkpxttwbhzq,36nemu28xjqmvao5hr1t2a7zxrcmw1,9xOnU3gS,2020-0188,2021-10-30,13:07:42,14:56:15,NA,incomplete,false,true,NA,NA,5,10,NA,yellow,m_l_012.jpg,NA,NA,NA,NA,NA,pleasant,unpleasant,NA,NA,NA,NA,NA,right,1713,true,NA,NA,NA,NA,NA,NA,NA,NA
9xOnU3gS,3ac6mfv6anv2a7u5af0lkpxttwbhzq,36nemu28xjqmvao5hr1t2a7zxrcmw1,9xOnU3gS,2020-0188,2021-10-30,13:07:42,14:56:15,NA,incomplete,false,true,NA,NA,5,11,NA,yellow,n_s_073.jpg,NA,NA,NA,NA,NA,pleasant,unpleasant,NA,NA,NA,NA,NA,right,1968.59999999404,true,NA,NA,NA,NA,NA,NA,NA,NA
9xOnU3gS,3ac6mfv6anv2a7u5af0lkpxttwbhzq,36nemu28xjqmvao5hr1t2a7zxrcmw1,9xOnU3gS,2020-0188,2021-10-30,13:07:42,14:56:15,NA,incomplete,false,true,NA,NA,5,12,NA,orange,m_l_109.jpg,NA,NA,NA,NA,NA,pleasant,unpleasant,NA,NA,NA,NA,NA,left,2189,true,NA,NA,NA,NA,NA,NA,NA,NA
9xOnU3gS,3ac6mfv6anv2a7u5af0lkpxttwbhzq,36nemu28xjqmvao5hr1t2a7zxrcmw1,9xOnU3gS,2020-0188,2021-10-30,13:07:42,14:56:15,NA,incomplete,false,true,NA,NA,5,13,NA,orange,n_s_093.jpg,NA,NA,NA,NA,NA,unpleasant,pleasant,NA,NA,NA,NA,NA,right,2129,true,NA,NA,NA,NA,NA,NA,NA,NA
9xOnU3gS,3ac6mfv6anv2a7u5af0lkpxttwbhzq,36nemu28xjqmvao5hr1t2a7zxrcmw1,9xOnU3gS,2020-0188,2021-10-30,13:07:42,14:56:15,NA,incomplete,false,true,NA,NA,5,14,NA,orange,m_s_014.jpg,NA,NA,NA,NA,NA,pleasant,unpleasant,NA,NA,NA,NA,NA,right,1305.5,true,NA,NA,NA,NA,NA,NA,NA,NA
9xOnU3gS,3ac6mfv6anv2a7u5af0lkpxttwbhzq,36nemu28xjqmvao5hr1t2a7zxrcmw1,9xOnU3gS,2020-0188,2021-10-30,13:07:42,14:56:15,NA,incomplete,false,true,NA,NA,5,15,NA,orange,m_l_042.jpg,NA,NA,NA,NA,NA,pleasant,unpleasant,NA,NA,NA,NA,NA,right,1125.20000000298,true,NA,NA,NA,NA,NA,NA,NA,NA
9xOnU3gS,3ac6mfv6anv2a7u5af0lkpxttwbhzq,36nemu28xjqmvao5hr1t2a7zxrcmw1,9xOnU3gS,2020-0188,2021-10-30,13:07:42,14:56:15,NA,incomplete,false,true,NA,NA,5,16,NA,orange,m_l_116.jpg,NA,NA,NA,NA,NA,pleasant,unpleasant,NA,NA,NA,NA,NA,left,1973,true,NA,NA,NA,NA,NA,NA,NA,NA
