workerId,hitId,assignmentId,subject,studyid,exp_date,exp_start,exp_end,time_start,time_end,practice,encoding,memory,association,block,trial,event_order,event,stim,answer,object,left_context,right_context,context_type,label_left,label_right,left_image,left_event,right_image,right_event,condition,response,response_time,response_acc,association_response_time,association_response,association_acc,order_response,order_response_time,order_acc,distance_response,distance_response_time
6k46IkLK,3087lxlj7ptluqx9bvztb5iuvan0fr,36wlnqg783nwvjyh52he2op5eqhbe3,6k46IkLK,2020-0188,2021-10-31,10:53:23,12:25:42,NA,incomplete,true,true,NA,NA,0,0,NA,purple,n_l_022.jpg,NA,NA,NA,NA,NA,unpleasant,pleasant,NA,NA,NA,NA,NA,right,1237.69999992847,true,NA,NA,NA,NA,NA,NA,NA,NA
6k46IkLK,3087lxlj7ptluqx9bvztb5iuvan0fr,36wlnqg783nwvjyh52he2op5eqhbe3,6k46IkLK,2020-0188,2021-10-31,10:53:23,12:25:42,NA,incomplete,true,true,NA,NA,0,1,NA,purple,n_s_060.jpg,NA,NA,NA,NA,NA,pleasant,unpleasant,NA,NA,NA,NA,NA,left,1044.79999995232,true,NA,NA,NA,NA,NA,NA,NA,NA
6k46IkLK,3087lxlj7ptluqx9bvztb5iuvan0fr,36wlnqg783nwvjyh52he2op5eqhbe3,6k46IkLK,2020-0188,2021-10-31,10:53:23,12:25:42,NA,incomplete,true,true,NA,NA,0,2,NA,purple,n_s_077.jpg,NA,NA,NA,NA,NA,pleasant,unpleasant,NA,NA,NA,NA,NA,right,2142.30000007153,true,NA,NA,NA,NA,NA,NA,NA,NA
6k46IkLK,3087lxlj7ptluqx9bvztb5iuvan0fr,36wlnqg783nwvjyh52he2op5eqhbe3,6k46IkLK,2020-0188,2021-10-31,10:53:23,12:25:42,NA,incomplete,true,true,NA,NA,0,3,NA,purple,m_s_090.jpg,NA,NA,NA,NA,NA,unpleasant,pleasant,NA,NA,NA,NA,NA,right,1362.60000002384,true,NA,NA,NA,NA,NA,NA,NA,NA
6k46IkLK,3087lxlj7ptluqx9bvztb5iuvan0fr,36wlnqg783nwvjyh52he2op5eqhbe3,6k46IkLK,2020-0188,2021-10-31,10:53:23,12:25:42,NA,incomplete,true,true,NA,NA,0,4,NA,purple,n_l_029.jpg,NA,NA,NA,NA,NA,pleasant,unpleasant,NA,NA,NA,NA,NA,right,1236.89999997616,true,NA,NA,NA,NA,NA,NA,NA,NA
6k46IkLK,3087lxlj7ptluqx9bvztb5iuvan0fr,36wlnqg783nwvjyh52he2op5eqhbe3,6k46IkLK,2020-0188,2021-10-31,10:53:23,12:25:42,NA,incomplete,true,true,NA,NA,0,5,NA,purple,n_l_047.jpg,NA,NA,NA,NA,NA,unpleasant,pleasant,NA,NA,NA,NA,NA,right,250.200000047684,true,NA,NA,NA,NA,NA,NA,NA,NA
6k46IkLK,3087lxlj7ptluqx9bvztb5iuvan0fr,36wlnqg783nwvjyh52he2op5eqhbe3,6k46IkLK,2020-0188,2021-10-31,10:53:23,12:25:42,NA,incomplete,true,true,NA,NA,0,6,NA,yellow,n_l_032.jpg,NA,NA,NA,NA,NA,unpleasant,pleasant,NA,NA,NA,NA,NA,right,936.200000047684,true,NA,NA,NA,NA,NA,NA,NA,NA
6k46IkLK,3087lxlj7ptluqx9bvztb5iuvan0fr,36wlnqg783nwvjyh52he2op5eqhbe3,6k46IkLK,2020-0188,2021-10-31,10:53:23,12:25:42,NA,incomplete,true,true,NA,NA,0,7,NA,yellow,m_l_004.jpg,NA,NA,NA,NA,NA,unpleasant,pleasant,NA,NA,NA,NA,NA,right,941.600000023842,true,NA,NA,NA,NA,NA,NA,NA,NA
6k46IkLK,3087lxlj7ptluqx9bvztb5iuvan0fr,36wlnqg783nwvjyh52he2op5eqhbe3,6k46IkLK,2020-0188,2021-10-31,10:53:23,12:25:42,NA,incomplete,true,true,NA,NA,0,8,NA,yellow,m_l_015.jpg,NA,NA,NA,NA,NA,pleasant,unpleasant,NA,NA,NA,NA,NA,left,936.199999928474,true,NA,NA,NA,NA,NA,NA,NA,NA
6k46IkLK,3087lxlj7ptluqx9bvztb5iuvan0fr,36wlnqg783nwvjyh52he2op5eqhbe3,6k46IkLK,2020-0188,2021-10-31,10:53:23,12:25:42,NA,incomplete,true,true,NA,NA,0,9,NA,yellow,n_l_005.jpg,NA,NA,NA,NA,NA,unpleasant,pleasant,NA,NA,NA,NA,NA,right,910,true,NA,NA,NA,NA,NA,NA,NA,NA
6k46IkLK,3087lxlj7ptluqx9bvztb5iuvan0fr,36wlnqg783nwvjyh52he2op5eqhbe3,6k46IkLK,2020-0188,2021-10-31,10:53:23,12:25:42,NA,incomplete,true,true,NA,NA,0,10,NA,yellow,m_l_082.jpg,NA,NA,NA,NA,NA,pleasant,unpleasant,NA,NA,NA,NA,NA,right,805.900000095367,true,NA,NA,NA,NA,NA,NA,NA,NA
6k46IkLK,3087lxlj7ptluqx9bvztb5iuvan0fr,36wlnqg783nwvjyh52he2op5eqhbe3,6k46IkLK,2020-0188,2021-10-31,10:53:23,12:25:42,NA,incomplete,true,true,NA,NA,0,11,NA,yellow,m_l_001.jpg,NA,NA,NA,NA,NA,unpleasant,pleasant,NA,NA,NA,NA,NA,right,747.700000047684,true,NA,NA,NA,NA,NA,NA,NA,NA
6k46IkLK,3087lxlj7ptluqx9bvztb5iuvan0fr,36wlnqg783nwvjyh52he2op5eqhbe3,6k46IkLK,2020-0188,2021-10-31,10:53:23,12:25:42,NA,incomplete,true,true,NA,NA,0,12,NA,red,m_s_001.jpg,NA,NA,NA,NA,NA,unpleasant,pleasant,NA,NA,NA,NA,NA,right,764.100000023842,true,NA,NA,NA,NA,NA,NA,NA,NA
6k46IkLK,3087lxlj7ptluqx9bvztb5iuvan0fr,36wlnqg783nwvjyh52he2op5eqhbe3,6k46IkLK,2020-0188,2021-10-31,10:53:23,12:25:42,NA,incomplete,true,true,NA,NA,0,13,NA,red,m_s_057.jpg,NA,NA,NA,NA,NA,unpleasant,pleasant,NA,NA,NA,NA,NA,right,822.600000023842,true,NA,NA,NA,NA,NA,NA,NA,NA
6k46IkLK,3087lxlj7ptluqx9bvztb5iuvan0fr,36wlnqg783nwvjyh52he2op5eqhbe3,6k46IkLK,2020-0188,2021-10-31,10:53:23,12:25:42,NA,incomplete,true,true,NA,NA,0,14,NA,red,m_s_092.jpg,NA,NA,NA,NA,NA,unpleasant,pleasant,NA,NA,NA,NA,NA,right,745.200000047684,true,NA,NA,NA,NA,NA,NA,NA,NA
6k46IkLK,3087lxlj7ptluqx9bvztb5iuvan0fr,36wlnqg783nwvjyh52he2op5eqhbe3,6k46IkLK,2020-0188,2021-10-31,10:53:23,12:25:42,NA,incomplete,true,true,NA,NA,0,15,NA,red,m_s_031.jpg,NA,NA,NA,NA,NA,unpleasant,pleasant,NA,NA,NA,NA,NA,left,947.299999952316,true,NA,NA,NA,NA,NA,NA,NA,NA
6k46IkLK,3087lxlj7ptluqx9bvztb5iuvan0fr,36wlnqg783nwvjyh52he2op5eqhbe3,6k46IkLK,2020-0188,2021-10-31,10:53:23,12:25:42,NA,incomplete,true,true,NA,NA,0,16,NA,red,n_l_066.jpg,NA,NA,NA,NA,NA,pleasant,unpleasant,NA,NA,NA,NA,NA,right,798.700000047684,true,NA,NA,NA,NA,NA,NA,NA,NA
6k46IkLK,3087lxlj7ptluqx9bvztb5iuvan0fr,36wlnqg783nwvjyh52he2op5eqhbe3,6k46IkLK,2020-0188,2021-10-31,10:53:23,12:25:42,NA,incomplete,true,true,NA,NA,0,17,NA,red,n_l_097.jpg,NA,NA,NA,NA,NA,pleasant,unpleasant,NA,NA,NA,NA,NA,right,1025.19999992847,true,NA,NA,NA,NA,NA,NA,NA,NA
6k46IkLK,3087lxlj7ptluqx9bvztb5iuvan0fr,36wlnqg783nwvjyh52he2op5eqhbe3,6k46IkLK,2020-0188,2021-10-31,10:53:23,12:25:42,NA,incomplete,true,true,NA,NA,0,18,NA,orange,n_s_091.jpg,NA,NA,NA,NA,NA,unpleasant,pleasant,NA,NA,NA,NA,NA,right,673.299999952316,true,NA,NA,NA,NA,NA,NA,NA,NA
6k46IkLK,3087lxlj7ptluqx9bvztb5iuvan0fr,36wlnqg783nwvjyh52he2op5eqhbe3,6k46IkLK,2020-0188,2021-10-31,10:53:23,12:25:42,NA,incomplete,true,true,NA,NA,0,19,NA,orange,m_s_079.jpg,NA,NA,NA,NA,NA,pleasant,unpleasant,NA,NA,NA,NA,NA,left,1157.89999997616,true,NA,NA,NA,NA,NA,NA,NA,NA
6k46IkLK,3087lxlj7ptluqx9bvztb5iuvan0fr,36wlnqg783nwvjyh52he2op5eqhbe3,6k46IkLK,2020-0188,2021-10-31,10:53:23,12:25:42,NA,incomplete,true,true,NA,NA,0,20,NA,orange,n_s_071.jpg,NA,NA,NA,NA,NA,unpleasant,pleasant,NA,NA,NA,NA,NA,right,1007,true,NA,NA,NA,NA,NA,NA,NA,NA
6k46IkLK,3087lxlj7ptluqx9bvztb5iuvan0fr,36wlnqg783nwvjyh52he2op5eqhbe3,6k46IkLK,2020-0188,2021-10-31,10:53:23,12:25:42,NA,incomplete,true,true,NA,NA,0,21,NA,orange,n_l_065.jpg,NA,NA,NA,NA,NA,pleasant,unpleasant,NA,NA,NA,NA,NA,right,1138.5,true,NA,NA,NA,NA,NA,NA,NA,NA
6k46IkLK,3087lxlj7ptluqx9bvztb5iuvan0fr,36wlnqg783nwvjyh52he2op5eqhbe3,6k46IkLK,2020-0188,2021-10-31,10:53:23,12:25:42,NA,incomplete,true,true,NA,NA,0,22,NA,orange,m_l_016.jpg,NA,NA,NA,NA,NA,unpleasant,pleasant,NA,NA,NA,NA,NA,right,799.100000023842,true,NA,NA,NA,NA,NA,NA,NA,NA
6k46IkLK,3087lxlj7ptluqx9bvztb5iuvan0fr,36wlnqg783nwvjyh52he2op5eqhbe3,6k46IkLK,2020-0188,2021-10-31,10:53:23,12:25:42,NA,incomplete,true,true,NA,NA,0,23,NA,orange,m_s_112.jpg,NA,NA,NA,NA,NA,unpleasant,pleasant,NA,NA,NA,NA,NA,right,745,true,NA,NA,NA,NA,NA,NA,NA,NA
6k46IkLK,3087lxlj7ptluqx9bvztb5iuvan0fr,36wlnqg783nwvjyh52he2op5eqhbe3,6k46IkLK,2020-0188,2021-10-31,10:53:23,12:25:42,NA,incomplete,true,true,NA,NA,0,24,NA,white,n_s_086.jpg,NA,NA,NA,NA,NA,unpleasant,pleasant,NA,NA,NA,NA,NA,right,770.199999928474,true,NA,NA,NA,NA,NA,NA,NA,NA
6k46IkLK,3087lxlj7ptluqx9bvztb5iuvan0fr,36wlnqg783nwvjyh52he2op5eqhbe3,6k46IkLK,2020-0188,2021-10-31,10:53:23,12:25:42,NA,incomplete,true,true,NA,NA,0,25,NA,white,n_s_090.jpg,NA,NA,NA,NA,NA,unpleasant,pleasant,NA,NA,NA,NA,NA,right,448.600000023842,true,NA,NA,NA,NA,NA,NA,NA,NA
6k46IkLK,3087lxlj7ptluqx9bvztb5iuvan0fr,36wlnqg783nwvjyh52he2op5eqhbe3,6k46IkLK,2020-0188,2021-10-31,10:53:23,12:25:42,NA,incomplete,true,true,NA,NA,0,26,NA,white,m_s_036.jpg,NA,NA,NA,NA,NA,pleasant,unpleasant,NA,NA,NA,NA,NA,none,0,false,NA,NA,NA,NA,NA,NA,NA,NA
6k46IkLK,3087lxlj7ptluqx9bvztb5iuvan0fr,36wlnqg783nwvjyh52he2op5eqhbe3,6k46IkLK,2020-0188,2021-10-31,10:53:23,12:25:42,NA,incomplete,true,true,NA,NA,0,27,NA,white,n_l_056.jpg,NA,NA,NA,NA,NA,pleasant,unpleasant,NA,NA,NA,NA,NA,right,1600,true,NA,NA,NA,NA,NA,NA,NA,NA
6k46IkLK,3087lxlj7ptluqx9bvztb5iuvan0fr,36wlnqg783nwvjyh52he2op5eqhbe3,6k46IkLK,2020-0188,2021-10-31,10:53:23,12:25:42,NA,incomplete,true,true,NA,NA,0,28,NA,white,n_s_041.jpg,NA,NA,NA,NA,NA,pleasant,unpleasant,NA,NA,NA,NA,NA,right,918.799999952316,true,NA,NA,NA,NA,NA,NA,NA,NA
6k46IkLK,3087lxlj7ptluqx9bvztb5iuvan0fr,36wlnqg783nwvjyh52he2op5eqhbe3,6k46IkLK,2020-0188,2021-10-31,10:53:23,12:25:42,NA,incomplete,true,true,NA,NA,0,29,NA,white,m_s_111.jpg,NA,NA,NA,NA,NA,unpleasant,pleasant,NA,NA,NA,NA,NA,right,259.800000071526,true,NA,NA,NA,NA,NA,NA,NA,NA
6k46IkLK,3087lxlj7ptluqx9bvztb5iuvan0fr,36wlnqg783nwvjyh52he2op5eqhbe3,6k46IkLK,2020-0188,2021-10-31,10:53:23,12:25:42,NA,incomplete,true,true,NA,NA,0,30,NA,black,m_l_041.jpg,NA,NA,NA,NA,NA,pleasant,unpleasant,NA,NA,NA,NA,NA,right,221.700000047684,true,NA,NA,NA,NA,NA,NA,NA,NA
6k46IkLK,3087lxlj7ptluqx9bvztb5iuvan0fr,36wlnqg783nwvjyh52he2op5eqhbe3,6k46IkLK,2020-0188,2021-10-31,10:53:23,12:25:42,NA,incomplete,true,true,NA,NA,0,31,NA,black,n_s_039.jpg,NA,NA,NA,NA,NA,pleasant,unpleasant,NA,NA,NA,NA,NA,right,1019.39999997616,true,NA,NA,NA,NA,NA,NA,NA,NA
6k46IkLK,3087lxlj7ptluqx9bvztb5iuvan0fr,36wlnqg783nwvjyh52he2op5eqhbe3,6k46IkLK,2020-0188,2021-10-31,10:53:23,12:25:42,NA,incomplete,true,true,NA,NA,0,32,NA,black,n_l_045.jpg,NA,NA,NA,NA,NA,pleasant,unpleasant,NA,NA,NA,NA,NA,right,1191.10000002384,true,NA,NA,NA,NA,NA,NA,NA,NA
6k46IkLK,3087lxlj7ptluqx9bvztb5iuvan0fr,36wlnqg783nwvjyh52he2op5eqhbe3,6k46IkLK,2020-0188,2021-10-31,10:53:23,12:25:42,NA,incomplete,true,true,NA,NA,0,33,NA,black,m_s_011.jpg,NA,NA,NA,NA,NA,pleasant,unpleasant,NA,NA,NA,NA,NA,right,1092.60000002384,true,NA,NA,NA,NA,NA,NA,NA,NA
6k46IkLK,3087lxlj7ptluqx9bvztb5iuvan0fr,36wlnqg783nwvjyh52he2op5eqhbe3,6k46IkLK,2020-0188,2021-10-31,10:53:23,12:25:42,NA,incomplete,true,true,NA,NA,0,34,NA,black,m_l_108.jpg,NA,NA,NA,NA,NA,unpleasant,pleasant,NA,NA,NA,NA,NA,right,1219.79999995232,true,NA,NA,NA,NA,NA,NA,NA,NA
6k46IkLK,3087lxlj7ptluqx9bvztb5iuvan0fr,36wlnqg783nwvjyh52he2op5eqhbe3,6k46IkLK,2020-0188,2021-10-31,10:53:23,12:25:42,NA,incomplete,true,true,NA,NA,0,35,NA,black,m_s_114.jpg,NA,NA,NA,NA,NA,unpleasant,pleasant,NA,NA,NA,NA,NA,left,678.699999928474,true,NA,NA,NA,NA,NA,NA,NA,NA
6k46IkLK,3087lxlj7ptluqx9bvztb5iuvan0fr,36wlnqg783nwvjyh52he2op5eqhbe3,6k46IkLK,2020-0188,2021-10-31,10:53:23,12:25:42,NA,incomplete,true,NA,NA,true,0,0,NA,NA,NA,right,n_l_045.jpg,white,black,NA,NA,NA,NA,NA,NA,NA,NA,NA,NaN,NA,6334.799999952316,right,1,NA,NA,NA,NA,NA
6k46IkLK,3087lxlj7ptluqx9bvztb5iuvan0fr,36wlnqg783nwvjyh52he2op5eqhbe3,6k46IkLK,2020-0188,2021-10-31,10:53:23,12:25:42,NA,incomplete,true,NA,NA,true,0,1,NA,NA,NA,right,m_s_036.jpg,black,white,NA,NA,NA,NA,NA,NA,NA,NA,NA,NaN,NA,3496.3000000715256,left,0,NA,NA,NA,NA,NA
6k46IkLK,3087lxlj7ptluqx9bvztb5iuvan0fr,36wlnqg783nwvjyh52he2op5eqhbe3,6k46IkLK,2020-0188,2021-10-31,10:53:23,12:25:42,NA,incomplete,true,NA,NA,true,0,2,NA,NA,NA,left,n_l_029.jpg,purple,yellow,NA,NA,NA,NA,NA,NA,NA,NA,NA,NaN,NA,5149.099999904633,right,0,NA,NA,NA,NA,NA
6k46IkLK,3087lxlj7ptluqx9bvztb5iuvan0fr,36wlnqg783nwvjyh52he2op5eqhbe3,6k46IkLK,2020-0188,2021-10-31,10:53:23,12:25:42,NA,incomplete,true,NA,NA,true,0,3,NA,NA,NA,right,m_s_111.jpg,orange,white,NA,NA,NA,NA,NA,NA,NA,NA,NA,NaN,NA,145209.40000009537,right,1,NA,NA,NA,NA,NA
6k46IkLK,3087lxlj7ptluqx9bvztb5iuvan0fr,36wlnqg783nwvjyh52he2op5eqhbe3,6k46IkLK,2020-0188,2021-10-31,10:53:23,12:25:42,NA,incomplete,true,NA,NA,true,0,4,NA,NA,NA,right,n_l_066.jpg,orange,red,NA,NA,NA,NA,NA,NA,NA,NA,NA,NaN,NA,1738.6000000238419,left,0,NA,NA,NA,NA,NA
6k46IkLK,3087lxlj7ptluqx9bvztb5iuvan0fr,36wlnqg783nwvjyh52he2op5eqhbe3,6k46IkLK,2020-0188,2021-10-31,10:53:23,12:25:42,NA,incomplete,true,NA,NA,true,0,5,NA,NA,NA,right,n_s_060.jpg,yellow,purple,NA,NA,NA,NA,NA,NA,NA,NA,NA,NaN,NA,1313.3999999761581,right,1,NA,NA,NA,NA,NA
6k46IkLK,3087lxlj7ptluqx9bvztb5iuvan0fr,36wlnqg783nwvjyh52he2op5eqhbe3,6k46IkLK,2020-0188,2021-10-31,10:53:23,12:25:42,NA,incomplete,true,NA,NA,true,0,6,NA,NA,NA,right,n_l_047.jpg,yellow,purple,NA,NA,NA,NA,NA,NA,NA,NA,NA,NaN,NA,1989,left,0,NA,NA,NA,NA,NA
6k46IkLK,3087lxlj7ptluqx9bvztb5iuvan0fr,36wlnqg783nwvjyh52he2op5eqhbe3,6k46IkLK,2020-0188,2021-10-31,10:53:23,12:25:42,NA,incomplete,true,NA,NA,true,0,7,NA,NA,NA,right,m_s_092.jpg,yellow,red,NA,NA,NA,NA,NA,NA,NA,NA,NA,NaN,NA,2838.899999976158,right,1,NA,NA,NA,NA,NA
6k46IkLK,3087lxlj7ptluqx9bvztb5iuvan0fr,36wlnqg783nwvjyh52he2op5eqhbe3,6k46IkLK,2020-0188,2021-10-31,10:53:23,12:25:42,NA,incomplete,true,NA,NA,true,0,8,NA,NA,NA,left,m_s_057.jpg,red,orange,NA,NA,NA,NA,NA,NA,NA,NA,NA,NaN,NA,7958.599999904633,right,0,NA,NA,NA,NA,NA
6k46IkLK,3087lxlj7ptluqx9bvztb5iuvan0fr,36wlnqg783nwvjyh52he2op5eqhbe3,6k46IkLK,2020-0188,2021-10-31,10:53:23,12:25:42,NA,incomplete,true,NA,NA,true,0,9,NA,NA,NA,right,m_l_001.jpg,purple,yellow,NA,NA,NA,NA,NA,NA,NA,NA,NA,NaN,NA,2459.2000000476837,right,1,NA,NA,NA,NA,NA
6k46IkLK,3087lxlj7ptluqx9bvztb5iuvan0fr,36wlnqg783nwvjyh52he2op5eqhbe3,6k46IkLK,2020-0188,2021-10-31,10:53:23,12:25:42,NA,incomplete,true,NA,NA,true,0,10,NA,NA,NA,left,n_s_039.jpg,black,white,NA,NA,NA,NA,NA,NA,NA,NA,NA,NaN,NA,1178.8999999761581,right,0,NA,NA,NA,NA,NA
6k46IkLK,3087lxlj7ptluqx9bvztb5iuvan0fr,36wlnqg783nwvjyh52he2op5eqhbe3,6k46IkLK,2020-0188,2021-10-31,10:53:23,12:25:42,NA,incomplete,true,NA,NA,true,0,11,NA,NA,NA,left,m_l_016.jpg,orange,red,NA,NA,NA,NA,NA,NA,NA,NA,NA,NaN,NA,1363.8000000715256,left,1,NA,NA,NA,NA,NA
6k46IkLK,3087lxlj7ptluqx9bvztb5iuvan0fr,36wlnqg783nwvjyh52he2op5eqhbe3,6k46IkLK,2020-0188,2021-10-31,10:53:23,12:25:42,NA,incomplete,true,NA,NA,true,0,12,NA,NA,NA,left,n_s_090.jpg,white,orange,NA,NA,NA,NA,NA,NA,NA,NA,NA,NaN,NA,1099,right,0,NA,NA,NA,NA,NA
6k46IkLK,3087lxlj7ptluqx9bvztb5iuvan0fr,36wlnqg783nwvjyh52he2op5eqhbe3,6k46IkLK,2020-0188,2021-10-31,10:53:23,12:25:42,NA,incomplete,true,NA,NA,true,0,13,NA,NA,NA,left,n_l_097.jpg,red,orange,NA,NA,NA,NA,NA,NA,NA,NA,NA,NaN,NA,1404,left,1,NA,NA,NA,NA,NA
6k46IkLK,3087lxlj7ptluqx9bvztb5iuvan0fr,36wlnqg783nwvjyh52he2op5eqhbe3,6k46IkLK,2020-0188,2021-10-31,10:53:23,12:25:42,NA,incomplete,true,NA,NA,true,0,14,NA,NA,NA,left,n_s_041.jpg,white,orange,NA,NA,NA,NA,NA,NA,NA,NA,NA,NaN,NA,919.1000000238419,right,0,NA,NA,NA,NA,NA
6k46IkLK,3087lxlj7ptluqx9bvztb5iuvan0fr,36wlnqg783nwvjyh52he2op5eqhbe3,6k46IkLK,2020-0188,2021-10-31,10:53:23,12:25:42,NA,incomplete,true,NA,NA,true,0,15,NA,NA,NA,left,n_s_071.jpg,orange,white,NA,NA,NA,NA,NA,NA,NA,NA,NA,NaN,NA,1679.4000000953674,left,1,NA,NA,NA,NA,NA
6k46IkLK,3087lxlj7ptluqx9bvztb5iuvan0fr,36wlnqg783nwvjyh52he2op5eqhbe3,6k46IkLK,2020-0188,2021-10-31,10:53:23,12:25:42,NA,incomplete,true,NA,NA,true,0,16,NA,NA,NA,left,m_s_079.jpg,orange,red,NA,NA,NA,NA,NA,NA,NA,NA,NA,NaN,NA,988.2000000476837,right,0,NA,NA,NA,NA,NA
6k46IkLK,3087lxlj7ptluqx9bvztb5iuvan0fr,36wlnqg783nwvjyh52he2op5eqhbe3,6k46IkLK,2020-0188,2021-10-31,10:53:23,12:25:42,NA,incomplete,true,NA,NA,true,0,17,NA,NA,NA,right,m_l_004.jpg,purple,yellow,NA,NA,NA,NA,NA,NA,NA,NA,NA,NaN,NA,1389.2000000476837,left,0,NA,NA,NA,NA,NA
6k46IkLK,3087lxlj7ptluqx9bvztb5iuvan0fr,36wlnqg783nwvjyh52he2op5eqhbe3,6k46IkLK,2020-0188,2021-10-31,10:53:23,12:25:42,NA,incomplete,true,NA,NA,true,0,18,NA,NA,NA,right,m_s_112.jpg,white,orange,NA,NA,NA,NA,NA,NA,NA,NA,NA,NaN,NA,1039,right,1,NA,NA,NA,NA,NA
6k46IkLK,3087lxlj7ptluqx9bvztb5iuvan0fr,36wlnqg783nwvjyh52he2op5eqhbe3,6k46IkLK,2020-0188,2021-10-31,10:53:23,12:25:42,NA,incomplete,true,NA,NA,true,0,19,NA,NA,NA,right,m_s_114.jpg,white,black,NA,NA,NA,NA,NA,NA,NA,NA,NA,NaN,NA,1408.9000000953674,left,0,NA,NA,NA,NA,NA
6k46IkLK,3087lxlj7ptluqx9bvztb5iuvan0fr,36wlnqg783nwvjyh52he2op5eqhbe3,6k46IkLK,2020-0188,2021-10-31,10:53:23,12:25:42,NA,incomplete,true,NA,NA,true,0,20,NA,NA,NA,right,m_l_082.jpg,purple,yellow,NA,NA,NA,NA,NA,NA,NA,NA,NA,NaN,NA,998.6000000238419,right,1,NA,NA,NA,NA,NA
6k46IkLK,3087lxlj7ptluqx9bvztb5iuvan0fr,36wlnqg783nwvjyh52he2op5eqhbe3,6k46IkLK,2020-0188,2021-10-31,10:53:23,12:25:42,NA,incomplete,true,NA,NA,true,0,21,NA,NA,NA,left,m_l_015.jpg,yellow,purple,NA,NA,NA,NA,NA,NA,NA,NA,NA,NaN,NA,1279,left,1,NA,NA,NA,NA,NA
6k46IkLK,3087lxlj7ptluqx9bvztb5iuvan0fr,36wlnqg783nwvjyh52he2op5eqhbe3,6k46IkLK,2020-0188,2021-10-31,10:53:23,12:25:42,NA,incomplete,true,NA,true,NA,0,0,NA,NA,NA,right,NA,NA,NA,absent,NA,NA,m_l_015.jpg,yellow,n_l_029.jpg,purple,between,NA,NaN,NA,NA,NA,NA,left,2506.7000000476837,0,1,2017.7000000476837
6k46IkLK,3087lxlj7ptluqx9bvztb5iuvan0fr,36wlnqg783nwvjyh52he2op5eqhbe3,6k46IkLK,2020-0188,2021-10-31,10:53:23,12:25:42,NA,incomplete,true,NA,true,NA,0,1,NA,NA,NA,left,NA,NA,NA,absent,NA,NA,n_l_066.jpg,red,n_s_071.jpg,orange,between,NA,NaN,NA,NA,NA,NA,left,1807,1,0,3596.899999976158
6k46IkLK,3087lxlj7ptluqx9bvztb5iuvan0fr,36wlnqg783nwvjyh52he2op5eqhbe3,6k46IkLK,2020-0188,2021-10-31,10:53:23,12:25:42,NA,incomplete,true,NA,true,NA,0,2,NA,NA,NA,left,NA,NA,NA,absent,NA,NA,n_s_060.jpg,purple,n_l_047.jpg,purple,within,NA,NaN,NA,NA,NA,NA,right,2127.399999976158,0,0,6098.300000071526
6k46IkLK,3087lxlj7ptluqx9bvztb5iuvan0fr,36wlnqg783nwvjyh52he2op5eqhbe3,6k46IkLK,2020-0188,2021-10-31,10:53:23,12:25:42,NA,incomplete,true,NA,true,NA,0,3,NA,NA,NA,left,NA,NA,NA,absent,NA,NA,n_s_090.jpg,white,m_s_111.jpg,white,within,NA,NaN,NA,NA,NA,NA,left,4304.899999976158,1,0,2952.5
6k46IkLK,3087lxlj7ptluqx9bvztb5iuvan0fr,36wlnqg783nwvjyh52he2op5eqhbe3,6k46IkLK,2020-0188,2021-10-31,10:53:23,12:25:42,NA,incomplete,true,NA,true,NA,0,4,NA,NA,NA,left,NA,NA,NA,absent,NA,NA,m_l_016.jpg,orange,m_s_036.jpg,white,between,NA,NaN,NA,NA,NA,NA,left,1822.2000000476837,1,0,1849.2999999523163
6k46IkLK,3087lxlj7ptluqx9bvztb5iuvan0fr,36wlnqg783nwvjyh52he2op5eqhbe3,6k46IkLK,2020-0188,2021-10-31,10:53:23,12:25:42,NA,incomplete,true,NA,true,NA,0,5,NA,NA,NA,left,NA,NA,NA,absent,NA,NA,m_s_079.jpg,orange,m_s_112.jpg,orange,within,NA,NaN,NA,NA,NA,NA,left,1649.3999999761581,1,0,2218.600000023842
6k46IkLK,3087lxlj7ptluqx9bvztb5iuvan0fr,36wlnqg783nwvjyh52he2op5eqhbe3,6k46IkLK,2020-0188,2021-10-31,10:53:23,12:25:42,NA,incomplete,true,NA,true,NA,0,6,NA,NA,NA,right,NA,NA,NA,absent,NA,NA,n_l_097.jpg,red,m_s_057.jpg,red,within,NA,NaN,NA,NA,NA,NA,left,1369.5,0,0,1634.2000000476837
6k46IkLK,3087lxlj7ptluqx9bvztb5iuvan0fr,36wlnqg783nwvjyh52he2op5eqhbe3,6k46IkLK,2020-0188,2021-10-31,10:53:23,12:25:42,NA,incomplete,true,NA,true,NA,0,7,NA,NA,NA,right,NA,NA,NA,absent,NA,NA,m_l_001.jpg,yellow,m_l_004.jpg,yellow,within,NA,NaN,NA,NA,NA,NA,left,1389.2000000476837,0,1,2324.0999999046326
6k46IkLK,3087lxlj7ptluqx9bvztb5iuvan0fr,36wlnqg783nwvjyh52he2op5eqhbe3,6k46IkLK,2020-0188,2021-10-31,10:53:23,12:25:42,NA,incomplete,true,NA,true,NA,0,8,NA,NA,NA,left,NA,NA,NA,absent,NA,NA,m_l_082.jpg,yellow,m_s_092.jpg,red,between,NA,NaN,NA,NA,NA,NA,left,1548.8999999761581,1,0,1994.6000000238419
6k46IkLK,3087lxlj7ptluqx9bvztb5iuvan0fr,36wlnqg783nwvjyh52he2op5eqhbe3,6k46IkLK,2020-0188,2021-10-31,10:53:23,12:25:42,NA,incomplete,true,NA,true,NA,0,9,NA,NA,NA,right,NA,NA,NA,absent,NA,NA,n_l_045.jpg,black,n_s_041.jpg,white,between,NA,NaN,NA,NA,NA,NA,left,3789.899999976158,0,0,1867.5
6k46IkLK,3087lxlj7ptluqx9bvztb5iuvan0fr,36wlnqg783nwvjyh52he2op5eqhbe3,6k46IkLK,2020-0188,2021-10-31,10:53:23,12:25:42,NA,incomplete,true,NA,true,NA,0,10,NA,NA,NA,left,NA,NA,NA,absent,NA,NA,n_s_039.jpg,black,m_s_114.jpg,black,within,NA,NaN,NA,NA,NA,NA,left,1488.5,1,0,2104.1999999284744
6k46IkLK,3087lxlj7ptluqx9bvztb5iuvan0fr,36wlnqg783nwvjyh52he2op5eqhbe3,6k46IkLK,2020-0188,2021-10-31,10:53:23,12:25:42,NA,incomplete,false,true,NA,NA,1,0,NA,orange,n_s_088.jpg,NA,NA,NA,NA,NA,pleasant,unpleasant,NA,NA,NA,NA,NA,right,2448.10000002384,true,NA,NA,NA,NA,NA,NA,NA,NA
6k46IkLK,3087lxlj7ptluqx9bvztb5iuvan0fr,36wlnqg783nwvjyh52he2op5eqhbe3,6k46IkLK,2020-0188,2021-10-31,10:53:23,12:25:42,NA,incomplete,false,true,NA,NA,1,1,NA,orange,m_l_055.jpg,NA,NA,NA,NA,NA,unpleasant,pleasant,NA,NA,NA,NA,NA,left,1073.5,true,NA,NA,NA,NA,NA,NA,NA,NA
6k46IkLK,3087lxlj7ptluqx9bvztb5iuvan0fr,36wlnqg783nwvjyh52he2op5eqhbe3,6k46IkLK,2020-0188,2021-10-31,10:53:23,12:25:42,NA,incomplete,false,true,NA,NA,1,2,NA,orange,m_s_040.jpg,NA,NA,NA,NA,NA,pleasant,unpleasant,NA,NA,NA,NA,NA,right,961.200000047684,true,NA,NA,NA,NA,NA,NA,NA,NA
6k46IkLK,3087lxlj7ptluqx9bvztb5iuvan0fr,36wlnqg783nwvjyh52he2op5eqhbe3,6k46IkLK,2020-0188,2021-10-31,10:53:23,12:25:42,NA,incomplete,false,true,NA,NA,1,3,NA,orange,n_l_093.jpg,NA,NA,NA,NA,NA,unpleasant,pleasant,NA,NA,NA,NA,NA,right,340.600000023842,true,NA,NA,NA,NA,NA,NA,NA,NA
6k46IkLK,3087lxlj7ptluqx9bvztb5iuvan0fr,36wlnqg783nwvjyh52he2op5eqhbe3,6k46IkLK,2020-0188,2021-10-31,10:53:23,12:25:42,NA,incomplete,false,true,NA,NA,1,4,NA,orange,n_l_003.jpg,NA,NA,NA,NA,NA,pleasant,unpleasant,NA,NA,NA,NA,NA,right,2482.79999995232,true,NA,NA,NA,NA,NA,NA,NA,NA
6k46IkLK,3087lxlj7ptluqx9bvztb5iuvan0fr,36wlnqg783nwvjyh52he2op5eqhbe3,6k46IkLK,2020-0188,2021-10-31,10:53:23,12:25:42,NA,incomplete,false,true,NA,NA,1,5,NA,orange,n_s_075.jpg,NA,NA,NA,NA,NA,unpleasant,pleasant,NA,NA,NA,NA,NA,right,813.700000047684,true,NA,NA,NA,NA,NA,NA,NA,NA
6k46IkLK,3087lxlj7ptluqx9bvztb5iuvan0fr,36wlnqg783nwvjyh52he2op5eqhbe3,6k46IkLK,2020-0188,2021-10-31,10:53:23,12:25:42,NA,incomplete,false,true,NA,NA,1,6,NA,blue,n_l_086.jpg,NA,NA,NA,NA,NA,pleasant,unpleasant,NA,NA,NA,NA,NA,right,773,true,NA,NA,NA,NA,NA,NA,NA,NA
6k46IkLK,3087lxlj7ptluqx9bvztb5iuvan0fr,36wlnqg783nwvjyh52he2op5eqhbe3,6k46IkLK,2020-0188,2021-10-31,10:53:23,12:25:42,NA,incomplete,false,true,NA,NA,1,7,NA,blue,m_s_049.jpg,NA,NA,NA,NA,NA,pleasant,unpleasant,NA,NA,NA,NA,NA,right,973.400000095367,true,NA,NA,NA,NA,NA,NA,NA,NA
6k46IkLK,3087lxlj7ptluqx9bvztb5iuvan0fr,36wlnqg783nwvjyh52he2op5eqhbe3,6k46IkLK,2020-0188,2021-10-31,10:53:23,12:25:42,NA,incomplete,false,true,NA,NA,1,8,NA,blue,n_l_098.jpg,NA,NA,NA,NA,NA,pleasant,unpleasant,NA,NA,NA,NA,NA,left,95.6000000238419,true,NA,NA,NA,NA,NA,NA,NA,NA
6k46IkLK,3087lxlj7ptluqx9bvztb5iuvan0fr,36wlnqg783nwvjyh52he2op5eqhbe3,6k46IkLK,2020-0188,2021-10-31,10:53:23,12:25:42,NA,incomplete,false,true,NA,NA,1,9,NA,blue,m_l_087.jpg,NA,NA,NA,NA,NA,pleasant,unpleasant,NA,NA,NA,NA,NA,right,1471.30000007153,true,NA,NA,NA,NA,NA,NA,NA,NA
6k46IkLK,3087lxlj7ptluqx9bvztb5iuvan0fr,36wlnqg783nwvjyh52he2op5eqhbe3,6k46IkLK,2020-0188,2021-10-31,10:53:23,12:25:42,NA,incomplete,false,true,NA,NA,1,10,NA,blue,m_l_003.jpg,NA,NA,NA,NA,NA,unpleasant,pleasant,NA,NA,NA,NA,NA,left,303.5,true,NA,NA,NA,NA,NA,NA,NA,NA
6k46IkLK,3087lxlj7ptluqx9bvztb5iuvan0fr,36wlnqg783nwvjyh52he2op5eqhbe3,6k46IkLK,2020-0188,2021-10-31,10:53:23,12:25:42,NA,incomplete,false,true,NA,NA,1,11,NA,blue,n_l_025.jpg,NA,NA,NA,NA,NA,unpleasant,pleasant,NA,NA,NA,NA,NA,left,649.799999952316,true,NA,NA,NA,NA,NA,NA,NA,NA
6k46IkLK,3087lxlj7ptluqx9bvztb5iuvan0fr,36wlnqg783nwvjyh52he2op5eqhbe3,6k46IkLK,2020-0188,2021-10-31,10:53:23,12:25:42,NA,incomplete,false,true,NA,NA,1,12,NA,purple,m_s_107.jpg,NA,NA,NA,NA,NA,pleasant,unpleasant,NA,NA,NA,NA,NA,right,736,true,NA,NA,NA,NA,NA,NA,NA,NA
6k46IkLK,3087lxlj7ptluqx9bvztb5iuvan0fr,36wlnqg783nwvjyh52he2op5eqhbe3,6k46IkLK,2020-0188,2021-10-31,10:53:23,12:25:42,NA,incomplete,false,true,NA,NA,1,13,NA,purple,n_s_043.jpg,NA,NA,NA,NA,NA,unpleasant,pleasant,NA,NA,NA,NA,NA,right,1002.19999992847,true,NA,NA,NA,NA,NA,NA,NA,NA
6k46IkLK,3087lxlj7ptluqx9bvztb5iuvan0fr,36wlnqg783nwvjyh52he2op5eqhbe3,6k46IkLK,2020-0188,2021-10-31,10:53:23,12:25:42,NA,incomplete,false,true,NA,NA,1,14,NA,purple,n_s_074.jpg,NA,NA,NA,NA,NA,pleasant,unpleasant,NA,NA,NA,NA,NA,left,196.899999976158,true,NA,NA,NA,NA,NA,NA,NA,NA
6k46IkLK,3087lxlj7ptluqx9bvztb5iuvan0fr,36wlnqg783nwvjyh52he2op5eqhbe3,6k46IkLK,2020-0188,2021-10-31,10:53:23,12:25:42,NA,incomplete,false,true,NA,NA,1,15,NA,purple,m_l_037.jpg,NA,NA,NA,NA,NA,pleasant,unpleasant,NA,NA,NA,NA,NA,right,515.200000047684,true,NA,NA,NA,NA,NA,NA,NA,NA
6k46IkLK,3087lxlj7ptluqx9bvztb5iuvan0fr,36wlnqg783nwvjyh52he2op5eqhbe3,6k46IkLK,2020-0188,2021-10-31,10:53:23,12:25:42,NA,incomplete,false,true,NA,NA,1,16,NA,purple,m_s_061.jpg,NA,NA,NA,NA,NA,pleasant,unpleasant,NA,NA,NA,NA,NA,left,871.700000047684,true,NA,NA,NA,NA,NA,NA,NA,NA
6k46IkLK,3087lxlj7ptluqx9bvztb5iuvan0fr,36wlnqg783nwvjyh52he2op5eqhbe3,6k46IkLK,2020-0188,2021-10-31,10:53:23,12:25:42,NA,incomplete,false,true,NA,NA,1,17,NA,purple,m_s_024.jpg,NA,NA,NA,NA,NA,unpleasant,pleasant,NA,NA,NA,NA,NA,right,711.899999976158,true,NA,NA,NA,NA,NA,NA,NA,NA
6k46IkLK,3087lxlj7ptluqx9bvztb5iuvan0fr,36wlnqg783nwvjyh52he2op5eqhbe3,6k46IkLK,2020-0188,2021-10-31,10:53:23,12:25:42,NA,incomplete,false,true,NA,NA,1,18,NA,white,n_l_094.jpg,NA,NA,NA,NA,NA,unpleasant,pleasant,NA,NA,NA,NA,NA,right,924.399999976158,true,NA,NA,NA,NA,NA,NA,NA,NA
6k46IkLK,3087lxlj7ptluqx9bvztb5iuvan0fr,36wlnqg783nwvjyh52he2op5eqhbe3,6k46IkLK,2020-0188,2021-10-31,10:53:23,12:25:42,NA,incomplete,false,true,NA,NA,1,19,NA,white,n_s_061.jpg,NA,NA,NA,NA,NA,unpleasant,pleasant,NA,NA,NA,NA,NA,right,932,true,NA,NA,NA,NA,NA,NA,NA,NA
6k46IkLK,3087lxlj7ptluqx9bvztb5iuvan0fr,36wlnqg783nwvjyh52he2op5eqhbe3,6k46IkLK,2020-0188,2021-10-31,10:53:23,12:25:42,NA,incomplete,false,true,NA,NA,1,20,NA,white,n_l_051.jpg,NA,NA,NA,NA,NA,pleasant,unpleasant,NA,NA,NA,NA,NA,right,562.800000071526,true,NA,NA,NA,NA,NA,NA,NA,NA
6k46IkLK,3087lxlj7ptluqx9bvztb5iuvan0fr,36wlnqg783nwvjyh52he2op5eqhbe3,6k46IkLK,2020-0188,2021-10-31,10:53:23,12:25:42,NA,incomplete,false,true,NA,NA,1,21,NA,white,n_s_085.jpg,NA,NA,NA,NA,NA,pleasant,unpleasant,NA,NA,NA,NA,NA,right,746.200000047684,true,NA,NA,NA,NA,NA,NA,NA,NA
6k46IkLK,3087lxlj7ptluqx9bvztb5iuvan0fr,36wlnqg783nwvjyh52he2op5eqhbe3,6k46IkLK,2020-0188,2021-10-31,10:53:23,12:25:42,NA,incomplete,false,true,NA,NA,1,22,NA,white,n_l_011.jpg,NA,NA,NA,NA,NA,pleasant,unpleasant,NA,NA,NA,NA,NA,right,1223,true,NA,NA,NA,NA,NA,NA,NA,NA
6k46IkLK,3087lxlj7ptluqx9bvztb5iuvan0fr,36wlnqg783nwvjyh52he2op5eqhbe3,6k46IkLK,2020-0188,2021-10-31,10:53:23,12:25:42,NA,incomplete,false,true,NA,NA,1,23,NA,white,m_l_039.jpg,NA,NA,NA,NA,NA,pleasant,unpleasant,NA,NA,NA,NA,NA,right,954,true,NA,NA,NA,NA,NA,NA,NA,NA
6k46IkLK,3087lxlj7ptluqx9bvztb5iuvan0fr,36wlnqg783nwvjyh52he2op5eqhbe3,6k46IkLK,2020-0188,2021-10-31,10:53:23,12:25:42,NA,incomplete,false,true,NA,NA,1,24,NA,gray,n_s_024.jpg,NA,NA,NA,NA,NA,unpleasant,pleasant,NA,NA,NA,NA,NA,right,1903.39999997616,true,NA,NA,NA,NA,NA,NA,NA,NA
6k46IkLK,3087lxlj7ptluqx9bvztb5iuvan0fr,36wlnqg783nwvjyh52he2op5eqhbe3,6k46IkLK,2020-0188,2021-10-31,10:53:23,12:25:42,NA,incomplete,false,true,NA,NA,1,25,NA,gray,m_s_028.jpg,NA,NA,NA,NA,NA,pleasant,unpleasant,NA,NA,NA,NA,NA,right,347,true,NA,NA,NA,NA,NA,NA,NA,NA
6k46IkLK,3087lxlj7ptluqx9bvztb5iuvan0fr,36wlnqg783nwvjyh52he2op5eqhbe3,6k46IkLK,2020-0188,2021-10-31,10:53:23,12:25:42,NA,incomplete,false,true,NA,NA,1,26,NA,gray,n_s_046.jpg,NA,NA,NA,NA,NA,pleasant,unpleasant,NA,NA,NA,NA,NA,right,1393.89999997616,true,NA,NA,NA,NA,NA,NA,NA,NA
6k46IkLK,3087lxlj7ptluqx9bvztb5iuvan0fr,36wlnqg783nwvjyh52he2op5eqhbe3,6k46IkLK,2020-0188,2021-10-31,10:53:23,12:25:42,NA,incomplete,false,true,NA,NA,1,27,NA,gray,n_l_092.jpg,NA,NA,NA,NA,NA,unpleasant,pleasant,NA,NA,NA,NA,NA,right,731.299999952316,true,NA,NA,NA,NA,NA,NA,NA,NA
6k46IkLK,3087lxlj7ptluqx9bvztb5iuvan0fr,36wlnqg783nwvjyh52he2op5eqhbe3,6k46IkLK,2020-0188,2021-10-31,10:53:23,12:25:42,NA,incomplete,false,true,NA,NA,1,28,NA,gray,n_l_033.jpg,NA,NA,NA,NA,NA,unpleasant,pleasant,NA,NA,NA,NA,NA,left,190.400000095367,true,NA,NA,NA,NA,NA,NA,NA,NA
6k46IkLK,3087lxlj7ptluqx9bvztb5iuvan0fr,36wlnqg783nwvjyh52he2op5eqhbe3,6k46IkLK,2020-0188,2021-10-31,10:53:23,12:25:42,NA,incomplete,false,true,NA,NA,1,29,NA,gray,m_l_085.jpg,NA,NA,NA,NA,NA,pleasant,unpleasant,NA,NA,NA,NA,NA,right,868,true,NA,NA,NA,NA,NA,NA,NA,NA
6k46IkLK,3087lxlj7ptluqx9bvztb5iuvan0fr,36wlnqg783nwvjyh52he2op5eqhbe3,6k46IkLK,2020-0188,2021-10-31,10:53:23,12:25:42,NA,incomplete,false,true,NA,NA,1,30,NA,yellow,n_s_010.jpg,NA,NA,NA,NA,NA,pleasant,unpleasant,NA,NA,NA,NA,NA,right,1019.10000002384,true,NA,NA,NA,NA,NA,NA,NA,NA
6k46IkLK,3087lxlj7ptluqx9bvztb5iuvan0fr,36wlnqg783nwvjyh52he2op5eqhbe3,6k46IkLK,2020-0188,2021-10-31,10:53:23,12:25:42,NA,incomplete,false,true,NA,NA,1,31,NA,yellow,n_l_040.jpg,NA,NA,NA,NA,NA,pleasant,unpleasant,NA,NA,NA,NA,NA,right,1282.39999997616,true,NA,NA,NA,NA,NA,NA,NA,NA
6k46IkLK,3087lxlj7ptluqx9bvztb5iuvan0fr,36wlnqg783nwvjyh52he2op5eqhbe3,6k46IkLK,2020-0188,2021-10-31,10:53:23,12:25:42,NA,incomplete,false,true,NA,NA,1,32,NA,yellow,n_s_096.jpg,NA,NA,NA,NA,NA,unpleasant,pleasant,NA,NA,NA,NA,NA,right,1115.89999997616,true,NA,NA,NA,NA,NA,NA,NA,NA
6k46IkLK,3087lxlj7ptluqx9bvztb5iuvan0fr,36wlnqg783nwvjyh52he2op5eqhbe3,6k46IkLK,2020-0188,2021-10-31,10:53:23,12:25:42,NA,incomplete,false,true,NA,NA,1,33,NA,yellow,m_s_081.jpg,NA,NA,NA,NA,NA,pleasant,unpleasant,NA,NA,NA,NA,NA,right,201.200000047684,true,NA,NA,NA,NA,NA,NA,NA,NA
6k46IkLK,3087lxlj7ptluqx9bvztb5iuvan0fr,36wlnqg783nwvjyh52he2op5eqhbe3,6k46IkLK,2020-0188,2021-10-31,10:53:23,12:25:42,NA,incomplete,false,true,NA,NA,1,34,NA,yellow,n_s_115.jpg,NA,NA,NA,NA,NA,pleasant,unpleasant,NA,NA,NA,NA,NA,right,400.399999976158,true,NA,NA,NA,NA,NA,NA,NA,NA
6k46IkLK,3087lxlj7ptluqx9bvztb5iuvan0fr,36wlnqg783nwvjyh52he2op5eqhbe3,6k46IkLK,2020-0188,2021-10-31,10:53:23,12:25:42,NA,incomplete,false,true,NA,NA,1,35,NA,yellow,n_s_067.jpg,NA,NA,NA,NA,NA,unpleasant,pleasant,NA,NA,NA,NA,NA,left,1776.70000004768,true,NA,NA,NA,NA,NA,NA,NA,NA
6k46IkLK,3087lxlj7ptluqx9bvztb5iuvan0fr,36wlnqg783nwvjyh52he2op5eqhbe3,6k46IkLK,2020-0188,2021-10-31,10:53:23,12:25:42,NA,incomplete,false,NA,NA,true,1,0,NA,NA,NA,right,n_l_025.jpg,purple,blue,NA,NA,NA,NA,NA,NA,NA,NA,NA,NaN,NA,1928.5,right,1,NA,NA,NA,NA,NA
6k46IkLK,3087lxlj7ptluqx9bvztb5iuvan0fr,36wlnqg783nwvjyh52he2op5eqhbe3,6k46IkLK,2020-0188,2021-10-31,10:53:23,12:25:42,NA,incomplete,false,NA,NA,true,1,1,NA,NA,NA,right,n_l_040.jpg,gray,yellow,NA,NA,NA,NA,NA,NA,NA,NA,NA,NaN,NA,1209.2000000476837,right,1,NA,NA,NA,NA,NA
6k46IkLK,3087lxlj7ptluqx9bvztb5iuvan0fr,36wlnqg783nwvjyh52he2op5eqhbe3,6k46IkLK,2020-0188,2021-10-31,10:53:23,12:25:42,NA,incomplete,false,NA,NA,true,1,2,NA,NA,NA,right,n_s_046.jpg,white,gray,NA,NA,NA,NA,NA,NA,NA,NA,NA,NaN,NA,1258.6000000238419,left,0,NA,NA,NA,NA,NA
6k46IkLK,3087lxlj7ptluqx9bvztb5iuvan0fr,36wlnqg783nwvjyh52he2op5eqhbe3,6k46IkLK,2020-0188,2021-10-31,10:53:23,12:25:42,NA,incomplete,false,NA,NA,true,1,3,NA,NA,NA,right,m_s_061.jpg,blue,purple,NA,NA,NA,NA,NA,NA,NA,NA,NA,NaN,NA,943.4000000953674,right,1,NA,NA,NA,NA,NA
6k46IkLK,3087lxlj7ptluqx9bvztb5iuvan0fr,36wlnqg783nwvjyh52he2op5eqhbe3,6k46IkLK,2020-0188,2021-10-31,10:53:23,12:25:42,NA,incomplete,false,NA,NA,true,1,4,NA,NA,NA,right,m_l_039.jpg,purple,white,NA,NA,NA,NA,NA,NA,NA,NA,NA,NaN,NA,1839.3000000715256,left,0,NA,NA,NA,NA,NA
6k46IkLK,3087lxlj7ptluqx9bvztb5iuvan0fr,36wlnqg783nwvjyh52he2op5eqhbe3,6k46IkLK,2020-0188,2021-10-31,10:53:23,12:25:42,NA,incomplete,false,NA,NA,true,1,5,NA,NA,NA,left,m_l_003.jpg,blue,purple,NA,NA,NA,NA,NA,NA,NA,NA,NA,NaN,NA,1114.3999999761581,right,0,NA,NA,NA,NA,NA
6k46IkLK,3087lxlj7ptluqx9bvztb5iuvan0fr,36wlnqg783nwvjyh52he2op5eqhbe3,6k46IkLK,2020-0188,2021-10-31,10:53:23,12:25:42,NA,incomplete,false,NA,NA,true,1,6,NA,NA,NA,right,n_l_098.jpg,purple,blue,NA,NA,NA,NA,NA,NA,NA,NA,NA,NaN,NA,1279.2000000476837,left,0,NA,NA,NA,NA,NA
6k46IkLK,3087lxlj7ptluqx9bvztb5iuvan0fr,36wlnqg783nwvjyh52he2op5eqhbe3,6k46IkLK,2020-0188,2021-10-31,10:53:23,12:25:42,NA,incomplete,false,NA,NA,true,1,7,NA,NA,NA,right,n_s_061.jpg,purple,white,NA,NA,NA,NA,NA,NA,NA,NA,NA,NaN,NA,938.5,right,1,NA,NA,NA,NA,NA
6k46IkLK,3087lxlj7ptluqx9bvztb5iuvan0fr,36wlnqg783nwvjyh52he2op5eqhbe3,6k46IkLK,2020-0188,2021-10-31,10:53:23,12:25:42,NA,incomplete,false,NA,NA,true,1,8,NA,NA,NA,left,n_s_096.jpg,yellow,gray,NA,NA,NA,NA,NA,NA,NA,NA,NA,NaN,NA,1228.8999999761581,left,1,NA,NA,NA,NA,NA
6k46IkLK,3087lxlj7ptluqx9bvztb5iuvan0fr,36wlnqg783nwvjyh52he2op5eqhbe3,6k46IkLK,2020-0188,2021-10-31,10:53:23,12:25:42,NA,incomplete,false,NA,NA,true,1,9,NA,NA,NA,left,n_l_033.jpg,gray,yellow,NA,NA,NA,NA,NA,NA,NA,NA,NA,NaN,NA,1368.5,right,0,NA,NA,NA,NA,NA
6k46IkLK,3087lxlj7ptluqx9bvztb5iuvan0fr,36wlnqg783nwvjyh52he2op5eqhbe3,6k46IkLK,2020-0188,2021-10-31,10:53:23,12:25:42,NA,incomplete,false,NA,NA,true,1,10,NA,NA,NA,right,m_s_024.jpg,blue,purple,NA,NA,NA,NA,NA,NA,NA,NA,NA,NaN,NA,1268.8999999761581,left,0,NA,NA,NA,NA,NA
6k46IkLK,3087lxlj7ptluqx9bvztb5iuvan0fr,36wlnqg783nwvjyh52he2op5eqhbe3,6k46IkLK,2020-0188,2021-10-31,10:53:23,12:25:42,NA,incomplete,false,NA,NA,true,1,11,NA,NA,NA,right,n_s_075.jpg,blue,orange,NA,NA,NA,NA,NA,NA,NA,NA,NA,NaN,NA,2728.1999999284744,right,1,NA,NA,NA,NA,NA
6k46IkLK,3087lxlj7ptluqx9bvztb5iuvan0fr,36wlnqg783nwvjyh52he2op5eqhbe3,6k46IkLK,2020-0188,2021-10-31,10:53:23,12:25:42,NA,incomplete,false,NA,NA,true,1,12,NA,NA,NA,left,m_s_028.jpg,gray,white,NA,NA,NA,NA,NA,NA,NA,NA,NA,NaN,NA,1348.7000000476837,left,1,NA,NA,NA,NA,NA
6k46IkLK,3087lxlj7ptluqx9bvztb5iuvan0fr,36wlnqg783nwvjyh52he2op5eqhbe3,6k46IkLK,2020-0188,2021-10-31,10:53:23,12:25:42,NA,incomplete,false,NA,NA,true,1,13,NA,NA,NA,right,n_l_011.jpg,gray,white,NA,NA,NA,NA,NA,NA,NA,NA,NA,NaN,NA,1048.5,right,1,NA,NA,NA,NA,NA
6k46IkLK,3087lxlj7ptluqx9bvztb5iuvan0fr,36wlnqg783nwvjyh52he2op5eqhbe3,6k46IkLK,2020-0188,2021-10-31,10:53:23,12:25:42,NA,incomplete,false,NA,NA,true,1,14,NA,NA,NA,left,n_l_003.jpg,orange,blue,NA,NA,NA,NA,NA,NA,NA,NA,NA,NaN,NA,1428.6999999284744,left,1,NA,NA,NA,NA,NA
6k46IkLK,3087lxlj7ptluqx9bvztb5iuvan0fr,36wlnqg783nwvjyh52he2op5eqhbe3,6k46IkLK,2020-0188,2021-10-31,10:53:23,12:25:42,NA,incomplete,false,NA,NA,true,1,15,NA,NA,NA,right,n_s_043.jpg,blue,purple,NA,NA,NA,NA,NA,NA,NA,NA,NA,NaN,NA,1268.7999999523163,right,1,NA,NA,NA,NA,NA
6k46IkLK,3087lxlj7ptluqx9bvztb5iuvan0fr,36wlnqg783nwvjyh52he2op5eqhbe3,6k46IkLK,2020-0188,2021-10-31,10:53:23,12:25:42,NA,incomplete,false,NA,NA,true,1,16,NA,NA,NA,right,m_l_055.jpg,blue,orange,NA,NA,NA,NA,NA,NA,NA,NA,NA,NaN,NA,1378.5,left,0,NA,NA,NA,NA,NA
6k46IkLK,3087lxlj7ptluqx9bvztb5iuvan0fr,36wlnqg783nwvjyh52he2op5eqhbe3,6k46IkLK,2020-0188,2021-10-31,10:53:23,12:25:42,NA,incomplete,false,NA,NA,true,1,17,NA,NA,NA,left,m_s_049.jpg,blue,orange,NA,NA,NA,NA,NA,NA,NA,NA,NA,NaN,NA,898.7000000476837,right,0,NA,NA,NA,NA,NA
6k46IkLK,3087lxlj7ptluqx9bvztb5iuvan0fr,36wlnqg783nwvjyh52he2op5eqhbe3,6k46IkLK,2020-0188,2021-10-31,10:53:23,12:25:42,NA,incomplete,false,NA,NA,true,1,18,NA,NA,NA,right,n_l_051.jpg,gray,white,NA,NA,NA,NA,NA,NA,NA,NA,NA,NaN,NA,878.6000000238419,right,1,NA,NA,NA,NA,NA
6k46IkLK,3087lxlj7ptluqx9bvztb5iuvan0fr,36wlnqg783nwvjyh52he2op5eqhbe3,6k46IkLK,2020-0188,2021-10-31,10:53:23,12:25:42,NA,incomplete,false,NA,NA,true,1,19,NA,NA,NA,right,n_s_067.jpg,gray,yellow,NA,NA,NA,NA,NA,NA,NA,NA,NA,NaN,NA,1108.6000000238419,right,1,NA,NA,NA,NA,NA
6k46IkLK,3087lxlj7ptluqx9bvztb5iuvan0fr,36wlnqg783nwvjyh52he2op5eqhbe3,6k46IkLK,2020-0188,2021-10-31,10:53:23,12:25:42,NA,incomplete,false,NA,NA,true,1,20,NA,NA,NA,left,m_l_085.jpg,gray,white,NA,NA,NA,NA,NA,NA,NA,NA,NA,NaN,NA,1143.6000000238419,right,0,NA,NA,NA,NA,NA
6k46IkLK,3087lxlj7ptluqx9bvztb5iuvan0fr,36wlnqg783nwvjyh52he2op5eqhbe3,6k46IkLK,2020-0188,2021-10-31,10:53:23,12:25:42,NA,incomplete,false,NA,NA,true,1,21,NA,NA,NA,right,n_s_074.jpg,blue,purple,NA,NA,NA,NA,NA,NA,NA,NA,NA,NaN,NA,1409,left,0,NA,NA,NA,NA,NA
6k46IkLK,3087lxlj7ptluqx9bvztb5iuvan0fr,36wlnqg783nwvjyh52he2op5eqhbe3,6k46IkLK,2020-0188,2021-10-31,10:53:23,12:25:42,NA,incomplete,false,NA,true,NA,1,0,NA,NA,NA,right,NA,NA,NA,absent,NA,NA,n_s_046.jpg,gray,n_l_011.jpg,white,between,NA,NaN,NA,NA,NA,NA,right,1418.3999999761581,1,0,1628.5
6k46IkLK,3087lxlj7ptluqx9bvztb5iuvan0fr,36wlnqg783nwvjyh52he2op5eqhbe3,6k46IkLK,2020-0188,2021-10-31,10:53:23,12:25:42,NA,incomplete,false,NA,true,NA,1,1,NA,NA,NA,right,NA,NA,NA,absent,NA,NA,n_s_096.jpg,yellow,n_l_033.jpg,gray,between,NA,NaN,NA,NA,NA,NA,left,1459.3000000715256,0,0,1598.2999999523163
6k46IkLK,3087lxlj7ptluqx9bvztb5iuvan0fr,36wlnqg783nwvjyh52he2op5eqhbe3,6k46IkLK,2020-0188,2021-10-31,10:53:23,12:25:42,NA,incomplete,false,NA,true,NA,1,2,NA,NA,NA,right,NA,NA,NA,absent,NA,NA,n_l_098.jpg,blue,n_l_003.jpg,orange,between,NA,NaN,NA,NA,NA,NA,left,1293.8000000715256,0,0,1358.6000000238419
6k46IkLK,3087lxlj7ptluqx9bvztb5iuvan0fr,36wlnqg783nwvjyh52he2op5eqhbe3,6k46IkLK,2020-0188,2021-10-31,10:53:23,12:25:42,NA,incomplete,false,NA,true,NA,1,3,NA,NA,NA,right,NA,NA,NA,absent,NA,NA,n_l_025.jpg,blue,m_s_049.jpg,blue,within,NA,NaN,NA,NA,NA,NA,left,1088.3000000715256,0,0,1668.6999999284744
6k46IkLK,3087lxlj7ptluqx9bvztb5iuvan0fr,36wlnqg783nwvjyh52he2op5eqhbe3,6k46IkLK,2020-0188,2021-10-31,10:53:23,12:25:42,NA,incomplete,false,NA,true,NA,1,4,NA,NA,NA,left,NA,NA,NA,absent,NA,NA,m_l_003.jpg,blue,n_s_074.jpg,purple,between,NA,NaN,NA,NA,NA,NA,left,1139.1999999284744,1,0,1278
6k46IkLK,3087lxlj7ptluqx9bvztb5iuvan0fr,36wlnqg783nwvjyh52he2op5eqhbe3,6k46IkLK,2020-0188,2021-10-31,10:53:23,12:25:42,NA,incomplete,false,NA,true,NA,1,5,NA,NA,NA,right,NA,NA,NA,absent,NA,NA,n_s_075.jpg,orange,m_l_055.jpg,orange,within,NA,NaN,NA,NA,NA,NA,left,1378.6999999284744,0,0,1568.7000000476837
6k46IkLK,3087lxlj7ptluqx9bvztb5iuvan0fr,36wlnqg783nwvjyh52he2op5eqhbe3,6k46IkLK,2020-0188,2021-10-31,10:53:23,12:25:42,NA,incomplete,false,NA,true,NA,1,6,NA,NA,NA,left,NA,NA,NA,absent,NA,NA,n_s_061.jpg,white,m_l_039.jpg,white,within,NA,NaN,NA,NA,NA,NA,left,1148.0999999046326,1,0,1368.5
6k46IkLK,3087lxlj7ptluqx9bvztb5iuvan0fr,36wlnqg783nwvjyh52he2op5eqhbe3,6k46IkLK,2020-0188,2021-10-31,10:53:23,12:25:42,NA,incomplete,false,NA,true,NA,1,7,NA,NA,NA,left,NA,NA,NA,absent,NA,NA,n_l_040.jpg,yellow,n_s_067.jpg,yellow,within,NA,NaN,NA,NA,NA,NA,left,1328.6000000238419,1,0,1378.3999999761581
6k46IkLK,3087lxlj7ptluqx9bvztb5iuvan0fr,36wlnqg783nwvjyh52he2op5eqhbe3,6k46IkLK,2020-0188,2021-10-31,10:53:23,12:25:42,NA,incomplete,false,NA,true,NA,1,8,NA,NA,NA,left,NA,NA,NA,absent,NA,NA,m_s_061.jpg,purple,n_l_051.jpg,white,between,NA,NaN,NA,NA,NA,NA,left,1234,1,0,1478.6000000238419
6k46IkLK,3087lxlj7ptluqx9bvztb5iuvan0fr,36wlnqg783nwvjyh52he2op5eqhbe3,6k46IkLK,2020-0188,2021-10-31,10:53:23,12:25:42,NA,incomplete,false,NA,true,NA,1,9,NA,NA,NA,right,NA,NA,NA,absent,NA,NA,m_l_085.jpg,gray,m_s_028.jpg,gray,within,NA,NaN,NA,NA,NA,NA,left,1113.5,0,0,1318.3999999761581
6k46IkLK,3087lxlj7ptluqx9bvztb5iuvan0fr,36wlnqg783nwvjyh52he2op5eqhbe3,6k46IkLK,2020-0188,2021-10-31,10:53:23,12:25:42,NA,incomplete,false,NA,true,NA,1,10,NA,NA,NA,right,NA,NA,NA,absent,NA,NA,m_s_024.jpg,purple,n_s_043.jpg,purple,within,NA,NaN,NA,NA,NA,NA,left,1208.0999999046326,0,1,1859.2000000476837
6k46IkLK,3087lxlj7ptluqx9bvztb5iuvan0fr,36wlnqg783nwvjyh52he2op5eqhbe3,6k46IkLK,2020-0188,2021-10-31,10:53:23,12:25:42,NA,incomplete,false,true,NA,NA,2,0,NA,yellow,m_s_034.jpg,NA,NA,NA,NA,NA,unpleasant,pleasant,NA,NA,NA,NA,NA,left,2619.60000002384,true,NA,NA,NA,NA,NA,NA,NA,NA
6k46IkLK,3087lxlj7ptluqx9bvztb5iuvan0fr,36wlnqg783nwvjyh52he2op5eqhbe3,6k46IkLK,2020-0188,2021-10-31,10:53:23,12:25:42,NA,incomplete,false,true,NA,NA,2,1,NA,yellow,n_s_116.jpg,NA,NA,NA,NA,NA,pleasant,unpleasant,NA,NA,NA,NA,NA,right,952.100000023842,true,NA,NA,NA,NA,NA,NA,NA,NA
6k46IkLK,3087lxlj7ptluqx9bvztb5iuvan0fr,36wlnqg783nwvjyh52he2op5eqhbe3,6k46IkLK,2020-0188,2021-10-31,10:53:23,12:25:42,NA,incomplete,false,true,NA,NA,2,2,NA,yellow,n_s_112.jpg,NA,NA,NA,NA,NA,pleasant,unpleasant,NA,NA,NA,NA,NA,left,854.5,true,NA,NA,NA,NA,NA,NA,NA,NA
6k46IkLK,3087lxlj7ptluqx9bvztb5iuvan0fr,36wlnqg783nwvjyh52he2op5eqhbe3,6k46IkLK,2020-0188,2021-10-31,10:53:23,12:25:42,NA,incomplete,false,true,NA,NA,2,3,NA,yellow,m_l_072.jpg,NA,NA,NA,NA,NA,pleasant,unpleasant,NA,NA,NA,NA,NA,right,1435.80000007153,true,NA,NA,NA,NA,NA,NA,NA,NA
6k46IkLK,3087lxlj7ptluqx9bvztb5iuvan0fr,36wlnqg783nwvjyh52he2op5eqhbe3,6k46IkLK,2020-0188,2021-10-31,10:53:23,12:25:42,NA,incomplete,false,true,NA,NA,2,4,NA,yellow,n_l_102.jpg,NA,NA,NA,NA,NA,unpleasant,pleasant,NA,NA,NA,NA,NA,left,681.899999976158,true,NA,NA,NA,NA,NA,NA,NA,NA
6k46IkLK,3087lxlj7ptluqx9bvztb5iuvan0fr,36wlnqg783nwvjyh52he2op5eqhbe3,6k46IkLK,2020-0188,2021-10-31,10:53:23,12:25:42,NA,incomplete,false,true,NA,NA,2,5,NA,yellow,m_s_069.jpg,NA,NA,NA,NA,NA,unpleasant,pleasant,NA,NA,NA,NA,NA,right,887.799999952316,true,NA,NA,NA,NA,NA,NA,NA,NA
6k46IkLK,3087lxlj7ptluqx9bvztb5iuvan0fr,36wlnqg783nwvjyh52he2op5eqhbe3,6k46IkLK,2020-0188,2021-10-31,10:53:23,12:25:42,NA,incomplete,false,true,NA,NA,2,6,NA,orange,n_l_008.jpg,NA,NA,NA,NA,NA,unpleasant,pleasant,NA,NA,NA,NA,NA,right,904.5,true,NA,NA,NA,NA,NA,NA,NA,NA
6k46IkLK,3087lxlj7ptluqx9bvztb5iuvan0fr,36wlnqg783nwvjyh52he2op5eqhbe3,6k46IkLK,2020-0188,2021-10-31,10:53:23,12:25:42,NA,incomplete,false,true,NA,NA,2,7,NA,orange,m_l_054.jpg,NA,NA,NA,NA,NA,pleasant,unpleasant,NA,NA,NA,NA,NA,right,754.899999976158,true,NA,NA,NA,NA,NA,NA,NA,NA
6k46IkLK,3087lxlj7ptluqx9bvztb5iuvan0fr,36wlnqg783nwvjyh52he2op5eqhbe3,6k46IkLK,2020-0188,2021-10-31,10:53:23,12:25:42,NA,incomplete,false,true,NA,NA,2,8,NA,orange,n_s_030.jpg,NA,NA,NA,NA,NA,unpleasant,pleasant,NA,NA,NA,NA,NA,right,385.5,true,NA,NA,NA,NA,NA,NA,NA,NA
6k46IkLK,3087lxlj7ptluqx9bvztb5iuvan0fr,36wlnqg783nwvjyh52he2op5eqhbe3,6k46IkLK,2020-0188,2021-10-31,10:53:23,12:25:42,NA,incomplete,false,true,NA,NA,2,9,NA,orange,m_l_076.jpg,NA,NA,NA,NA,NA,pleasant,unpleasant,NA,NA,NA,NA,NA,right,412.5,true,NA,NA,NA,NA,NA,NA,NA,NA
6k46IkLK,3087lxlj7ptluqx9bvztb5iuvan0fr,36wlnqg783nwvjyh52he2op5eqhbe3,6k46IkLK,2020-0188,2021-10-31,10:53:23,12:25:42,NA,incomplete,false,true,NA,NA,2,10,NA,orange,m_l_065.jpg,NA,NA,NA,NA,NA,pleasant,unpleasant,NA,NA,NA,NA,NA,right,319.700000047684,true,NA,NA,NA,NA,NA,NA,NA,NA
6k46IkLK,3087lxlj7ptluqx9bvztb5iuvan0fr,36wlnqg783nwvjyh52he2op5eqhbe3,6k46IkLK,2020-0188,2021-10-31,10:53:23,12:25:42,NA,incomplete,false,true,NA,NA,2,11,NA,orange,n_l_112.jpg,NA,NA,NA,NA,NA,pleasant,unpleasant,NA,NA,NA,NA,NA,left,656.700000047684,true,NA,NA,NA,NA,NA,NA,NA,NA
6k46IkLK,3087lxlj7ptluqx9bvztb5iuvan0fr,36wlnqg783nwvjyh52he2op5eqhbe3,6k46IkLK,2020-0188,2021-10-31,10:53:23,12:25:42,NA,incomplete,false,true,NA,NA,2,12,NA,red,m_s_038.jpg,NA,NA,NA,NA,NA,unpleasant,pleasant,NA,NA,NA,NA,NA,right,213.299999952316,true,NA,NA,NA,NA,NA,NA,NA,NA
6k46IkLK,3087lxlj7ptluqx9bvztb5iuvan0fr,36wlnqg783nwvjyh52he2op5eqhbe3,6k46IkLK,2020-0188,2021-10-31,10:53:23,12:25:42,NA,incomplete,false,true,NA,NA,2,13,NA,red,n_s_106.jpg,NA,NA,NA,NA,NA,unpleasant,pleasant,NA,NA,NA,NA,NA,right,751.600000023842,true,NA,NA,NA,NA,NA,NA,NA,NA
6k46IkLK,3087lxlj7ptluqx9bvztb5iuvan0fr,36wlnqg783nwvjyh52he2op5eqhbe3,6k46IkLK,2020-0188,2021-10-31,10:53:23,12:25:42,NA,incomplete,false,true,NA,NA,2,14,NA,red,n_s_038.jpg,NA,NA,NA,NA,NA,pleasant,unpleasant,NA,NA,NA,NA,NA,right,790,true,NA,NA,NA,NA,NA,NA,NA,NA
6k46IkLK,3087lxlj7ptluqx9bvztb5iuvan0fr,36wlnqg783nwvjyh52he2op5eqhbe3,6k46IkLK,2020-0188,2021-10-31,10:53:23,12:25:42,NA,incomplete,false,true,NA,NA,2,15,NA,red,n_s_081.jpg,NA,NA,NA,NA,NA,pleasant,unpleasant,NA,NA,NA,NA,NA,left,951.299999952316,true,NA,NA,NA,NA,NA,NA,NA,NA
6k46IkLK,3087lxlj7ptluqx9bvztb5iuvan0fr,36wlnqg783nwvjyh52he2op5eqhbe3,6k46IkLK,2020-0188,2021-10-31,10:53:23,12:25:42,NA,incomplete,false,true,NA,NA,2,16,NA,red,m_s_033.jpg,NA,NA,NA,NA,NA,unpleasant,pleasant,NA,NA,NA,NA,NA,right,208.900000095367,true,NA,NA,NA,NA,NA,NA,NA,NA
6k46IkLK,3087lxlj7ptluqx9bvztb5iuvan0fr,36wlnqg783nwvjyh52he2op5eqhbe3,6k46IkLK,2020-0188,2021-10-31,10:53:23,12:25:42,NA,incomplete,false,true,NA,NA,2,17,NA,red,m_s_085.jpg,NA,NA,NA,NA,NA,unpleasant,pleasant,NA,NA,NA,NA,NA,right,2227.39999997616,true,NA,NA,NA,NA,NA,NA,NA,NA
6k46IkLK,3087lxlj7ptluqx9bvztb5iuvan0fr,36wlnqg783nwvjyh52he2op5eqhbe3,6k46IkLK,2020-0188,2021-10-31,10:53:23,12:25:42,NA,incomplete,false,true,NA,NA,2,18,NA,white,m_s_080.jpg,NA,NA,NA,NA,NA,pleasant,unpleasant,NA,NA,NA,NA,NA,right,2581.60000002384,true,NA,NA,NA,NA,NA,NA,NA,NA
6k46IkLK,3087lxlj7ptluqx9bvztb5iuvan0fr,36wlnqg783nwvjyh52he2op5eqhbe3,6k46IkLK,2020-0188,2021-10-31,10:53:23,12:25:42,NA,incomplete,false,true,NA,NA,2,19,NA,white,m_l_058.jpg,NA,NA,NA,NA,NA,unpleasant,pleasant,NA,NA,NA,NA,NA,right,290,true,NA,NA,NA,NA,NA,NA,NA,NA
6k46IkLK,3087lxlj7ptluqx9bvztb5iuvan0fr,36wlnqg783nwvjyh52he2op5eqhbe3,6k46IkLK,2020-0188,2021-10-31,10:53:23,12:25:42,NA,incomplete,false,true,NA,NA,2,20,NA,white,n_l_018.jpg,NA,NA,NA,NA,NA,unpleasant,pleasant,NA,NA,NA,NA,NA,right,716.899999976158,true,NA,NA,NA,NA,NA,NA,NA,NA
6k46IkLK,3087lxlj7ptluqx9bvztb5iuvan0fr,36wlnqg783nwvjyh52he2op5eqhbe3,6k46IkLK,2020-0188,2021-10-31,10:53:23,12:25:42,NA,incomplete,false,true,NA,NA,2,21,NA,white,m_l_110.jpg,NA,NA,NA,NA,NA,pleasant,unpleasant,NA,NA,NA,NA,NA,right,1625.70000004768,true,NA,NA,NA,NA,NA,NA,NA,NA
6k46IkLK,3087lxlj7ptluqx9bvztb5iuvan0fr,36wlnqg783nwvjyh52he2op5eqhbe3,6k46IkLK,2020-0188,2021-10-31,10:53:23,12:25:42,NA,incomplete,false,true,NA,NA,2,22,NA,white,n_l_082.jpg,NA,NA,NA,NA,NA,pleasant,unpleasant,NA,NA,NA,NA,NA,right,1059.60000002384,true,NA,NA,NA,NA,NA,NA,NA,NA
6k46IkLK,3087lxlj7ptluqx9bvztb5iuvan0fr,36wlnqg783nwvjyh52he2op5eqhbe3,6k46IkLK,2020-0188,2021-10-31,10:53:23,12:25:42,NA,incomplete,false,true,NA,NA,2,23,NA,white,m_l_080.jpg,NA,NA,NA,NA,NA,unpleasant,pleasant,NA,NA,NA,NA,NA,right,1025.89999997616,true,NA,NA,NA,NA,NA,NA,NA,NA
6k46IkLK,3087lxlj7ptluqx9bvztb5iuvan0fr,36wlnqg783nwvjyh52he2op5eqhbe3,6k46IkLK,2020-0188,2021-10-31,10:53:23,12:25:42,NA,incomplete,false,true,NA,NA,2,24,NA,brown,n_s_040.jpg,NA,NA,NA,NA,NA,unpleasant,pleasant,NA,NA,NA,NA,NA,right,1253.90000009537,true,NA,NA,NA,NA,NA,NA,NA,NA
6k46IkLK,3087lxlj7ptluqx9bvztb5iuvan0fr,36wlnqg783nwvjyh52he2op5eqhbe3,6k46IkLK,2020-0188,2021-10-31,10:53:23,12:25:42,NA,incomplete,false,true,NA,NA,2,25,NA,brown,m_s_083.jpg,NA,NA,NA,NA,NA,unpleasant,pleasant,NA,NA,NA,NA,NA,right,2413.59999990463,true,NA,NA,NA,NA,NA,NA,NA,NA
6k46IkLK,3087lxlj7ptluqx9bvztb5iuvan0fr,36wlnqg783nwvjyh52he2op5eqhbe3,6k46IkLK,2020-0188,2021-10-31,10:53:23,12:25:42,NA,incomplete,false,true,NA,NA,2,26,NA,brown,m_l_048.jpg,NA,NA,NA,NA,NA,unpleasant,pleasant,NA,NA,NA,NA,NA,right,305.399999976158,true,NA,NA,NA,NA,NA,NA,NA,NA
6k46IkLK,3087lxlj7ptluqx9bvztb5iuvan0fr,36wlnqg783nwvjyh52he2op5eqhbe3,6k46IkLK,2020-0188,2021-10-31,10:53:23,12:25:42,NA,incomplete,false,true,NA,NA,2,27,NA,brown,n_l_041.jpg,NA,NA,NA,NA,NA,unpleasant,pleasant,NA,NA,NA,NA,NA,right,147.100000023842,true,NA,NA,NA,NA,NA,NA,NA,NA
6k46IkLK,3087lxlj7ptluqx9bvztb5iuvan0fr,36wlnqg783nwvjyh52he2op5eqhbe3,6k46IkLK,2020-0188,2021-10-31,10:53:23,12:25:42,NA,incomplete,false,true,NA,NA,2,28,NA,brown,m_s_109.jpg,NA,NA,NA,NA,NA,pleasant,unpleasant,NA,NA,NA,NA,NA,right,98.6000000238419,true,NA,NA,NA,NA,NA,NA,NA,NA
6k46IkLK,3087lxlj7ptluqx9bvztb5iuvan0fr,36wlnqg783nwvjyh52he2op5eqhbe3,6k46IkLK,2020-0188,2021-10-31,10:53:23,12:25:42,NA,incomplete,false,true,NA,NA,2,29,NA,brown,m_s_063.jpg,NA,NA,NA,NA,NA,unpleasant,pleasant,NA,NA,NA,NA,NA,right,2611.80000007153,true,NA,NA,NA,NA,NA,NA,NA,NA
6k46IkLK,3087lxlj7ptluqx9bvztb5iuvan0fr,36wlnqg783nwvjyh52he2op5eqhbe3,6k46IkLK,2020-0188,2021-10-31,10:53:23,12:25:42,NA,incomplete,false,true,NA,NA,2,30,NA,green,m_s_115.jpg,NA,NA,NA,NA,NA,unpleasant,pleasant,NA,NA,NA,NA,NA,right,538.200000047684,true,NA,NA,NA,NA,NA,NA,NA,NA
6k46IkLK,3087lxlj7ptluqx9bvztb5iuvan0fr,36wlnqg783nwvjyh52he2op5eqhbe3,6k46IkLK,2020-0188,2021-10-31,10:53:23,12:25:42,NA,incomplete,false,true,NA,NA,2,31,NA,green,n_s_008.jpg,NA,NA,NA,NA,NA,unpleasant,pleasant,NA,NA,NA,NA,NA,none,0,false,NA,NA,NA,NA,NA,NA,NA,NA
6k46IkLK,3087lxlj7ptluqx9bvztb5iuvan0fr,36wlnqg783nwvjyh52he2op5eqhbe3,6k46IkLK,2020-0188,2021-10-31,10:53:23,12:25:42,NA,incomplete,false,true,NA,NA,2,32,NA,green,m_s_046.jpg,NA,NA,NA,NA,NA,pleasant,unpleasant,NA,NA,NA,NA,NA,none,0,false,NA,NA,NA,NA,NA,NA,NA,NA
6k46IkLK,3087lxlj7ptluqx9bvztb5iuvan0fr,36wlnqg783nwvjyh52he2op5eqhbe3,6k46IkLK,2020-0188,2021-10-31,10:53:23,12:25:42,NA,incomplete,false,true,NA,NA,2,33,NA,green,n_s_057.jpg,NA,NA,NA,NA,NA,pleasant,unpleasant,NA,NA,NA,NA,NA,right,378,true,NA,NA,NA,NA,NA,NA,NA,NA
6k46IkLK,3087lxlj7ptluqx9bvztb5iuvan0fr,36wlnqg783nwvjyh52he2op5eqhbe3,6k46IkLK,2020-0188,2021-10-31,10:53:23,12:25:42,NA,incomplete,false,true,NA,NA,2,34,NA,green,n_s_013.jpg,NA,NA,NA,NA,NA,pleasant,unpleasant,NA,NA,NA,NA,NA,left,1669.5,true,NA,NA,NA,NA,NA,NA,NA,NA
6k46IkLK,3087lxlj7ptluqx9bvztb5iuvan0fr,36wlnqg783nwvjyh52he2op5eqhbe3,6k46IkLK,2020-0188,2021-10-31,10:53:23,12:25:42,NA,incomplete,false,true,NA,NA,2,35,NA,green,m_s_025.jpg,NA,NA,NA,NA,NA,pleasant,unpleasant,NA,NA,NA,NA,NA,right,722.100000023842,true,NA,NA,NA,NA,NA,NA,NA,NA
6k46IkLK,3087lxlj7ptluqx9bvztb5iuvan0fr,36wlnqg783nwvjyh52he2op5eqhbe3,6k46IkLK,2020-0188,2021-10-31,10:53:23,12:25:42,NA,incomplete,false,NA,NA,true,2,0,NA,NA,NA,left,m_s_033.jpg,red,white,NA,NA,NA,NA,NA,NA,NA,NA,NA,NaN,NA,1769,right,0,NA,NA,NA,NA,NA
6k46IkLK,3087lxlj7ptluqx9bvztb5iuvan0fr,36wlnqg783nwvjyh52he2op5eqhbe3,6k46IkLK,2020-0188,2021-10-31,10:53:23,12:25:42,NA,incomplete,false,NA,NA,true,2,1,NA,NA,NA,left,n_l_102.jpg,yellow,orange,NA,NA,NA,NA,NA,NA,NA,NA,NA,NaN,NA,1748.7999999523163,left,1,NA,NA,NA,NA,NA
6k46IkLK,3087lxlj7ptluqx9bvztb5iuvan0fr,36wlnqg783nwvjyh52he2op5eqhbe3,6k46IkLK,2020-0188,2021-10-31,10:53:23,12:25:42,NA,incomplete,false,NA,NA,true,2,2,NA,NA,NA,left,n_s_038.jpg,red,white,NA,NA,NA,NA,NA,NA,NA,NA,NA,NaN,NA,1184.0999999046326,right,0,NA,NA,NA,NA,NA
6k46IkLK,3087lxlj7ptluqx9bvztb5iuvan0fr,36wlnqg783nwvjyh52he2op5eqhbe3,6k46IkLK,2020-0188,2021-10-31,10:53:23,12:25:42,NA,incomplete,false,NA,NA,true,2,3,NA,NA,NA,right,m_s_109.jpg,green,brown,NA,NA,NA,NA,NA,NA,NA,NA,NA,NaN,NA,1478.5,left,0,NA,NA,NA,NA,NA
6k46IkLK,3087lxlj7ptluqx9bvztb5iuvan0fr,36wlnqg783nwvjyh52he2op5eqhbe3,6k46IkLK,2020-0188,2021-10-31,10:53:23,12:25:42,NA,incomplete,false,NA,NA,true,2,4,NA,NA,NA,left,m_s_063.jpg,brown,white,NA,NA,NA,NA,NA,NA,NA,NA,NA,NaN,NA,1154.2000000476837,right,0,NA,NA,NA,NA,NA
6k46IkLK,3087lxlj7ptluqx9bvztb5iuvan0fr,36wlnqg783nwvjyh52he2op5eqhbe3,6k46IkLK,2020-0188,2021-10-31,10:53:23,12:25:42,NA,incomplete,false,NA,NA,true,2,5,NA,NA,NA,right,m_l_058.jpg,brown,white,NA,NA,NA,NA,NA,NA,NA,NA,NA,NaN,NA,1218.1999999284744,left,0,NA,NA,NA,NA,NA
6k46IkLK,3087lxlj7ptluqx9bvztb5iuvan0fr,36wlnqg783nwvjyh52he2op5eqhbe3,6k46IkLK,2020-0188,2021-10-31,10:53:23,12:25:42,NA,incomplete,false,NA,NA,true,2,6,NA,NA,NA,right,n_l_112.jpg,yellow,orange,NA,NA,NA,NA,NA,NA,NA,NA,NA,NaN,NA,969.2000000476837,right,1,NA,NA,NA,NA,NA
6k46IkLK,3087lxlj7ptluqx9bvztb5iuvan0fr,36wlnqg783nwvjyh52he2op5eqhbe3,6k46IkLK,2020-0188,2021-10-31,10:53:23,12:25:42,NA,incomplete,false,NA,NA,true,2,7,NA,NA,NA,right,m_s_069.jpg,orange,yellow,NA,NA,NA,NA,NA,NA,NA,NA,NA,NaN,NA,1304.3999999761581,left,0,NA,NA,NA,NA,NA
6k46IkLK,3087lxlj7ptluqx9bvztb5iuvan0fr,36wlnqg783nwvjyh52he2op5eqhbe3,6k46IkLK,2020-0188,2021-10-31,10:53:23,12:25:42,NA,incomplete,false,NA,NA,true,2,8,NA,NA,NA,right,m_l_080.jpg,brown,white,NA,NA,NA,NA,NA,NA,NA,NA,NA,NaN,NA,1159,right,1,NA,NA,NA,NA,NA
6k46IkLK,3087lxlj7ptluqx9bvztb5iuvan0fr,36wlnqg783nwvjyh52he2op5eqhbe3,6k46IkLK,2020-0188,2021-10-31,10:53:23,12:25:42,NA,incomplete,false,NA,NA,true,2,9,NA,NA,NA,right,m_s_025.jpg,brown,green,NA,NA,NA,NA,NA,NA,NA,NA,NA,NaN,NA,2618.6999999284744,right,1,NA,NA,NA,NA,NA
6k46IkLK,3087lxlj7ptluqx9bvztb5iuvan0fr,36wlnqg783nwvjyh52he2op5eqhbe3,6k46IkLK,2020-0188,2021-10-31,10:53:23,12:25:42,NA,incomplete,false,NA,NA,true,2,10,NA,NA,NA,right,n_s_008.jpg,brown,green,NA,NA,NA,NA,NA,NA,NA,NA,NA,NaN,NA,1554.2000000476837,right,1,NA,NA,NA,NA,NA
6k46IkLK,3087lxlj7ptluqx9bvztb5iuvan0fr,36wlnqg783nwvjyh52he2op5eqhbe3,6k46IkLK,2020-0188,2021-10-31,10:53:23,12:25:42,NA,incomplete,false,NA,NA,true,2,11,NA,NA,NA,left,m_l_065.jpg,orange,yellow,NA,NA,NA,NA,NA,NA,NA,NA,NA,NaN,NA,1344,right,0,NA,NA,NA,NA,NA
6k46IkLK,3087lxlj7ptluqx9bvztb5iuvan0fr,36wlnqg783nwvjyh52he2op5eqhbe3,6k46IkLK,2020-0188,2021-10-31,10:53:23,12:25:42,NA,incomplete,false,NA,NA,true,2,12,NA,NA,NA,left,n_s_030.jpg,orange,yellow,NA,NA,NA,NA,NA,NA,NA,NA,NA,NaN,NA,1709.1000000238419,left,1,NA,NA,NA,NA,NA
6k46IkLK,3087lxlj7ptluqx9bvztb5iuvan0fr,36wlnqg783nwvjyh52he2op5eqhbe3,6k46IkLK,2020-0188,2021-10-31,10:53:23,12:25:42,NA,incomplete,false,NA,NA,true,2,13,NA,NA,NA,left,m_s_085.jpg,red,orange,NA,NA,NA,NA,NA,NA,NA,NA,NA,NaN,NA,1079.1000000238419,right,0,NA,NA,NA,NA,NA
6k46IkLK,3087lxlj7ptluqx9bvztb5iuvan0fr,36wlnqg783nwvjyh52he2op5eqhbe3,6k46IkLK,2020-0188,2021-10-31,10:53:23,12:25:42,NA,incomplete,false,NA,NA,true,2,14,NA,NA,NA,left,m_s_046.jpg,green,brown,NA,NA,NA,NA,NA,NA,NA,NA,NA,NaN,NA,1209.2000000476837,right,0,NA,NA,NA,NA,NA
6k46IkLK,3087lxlj7ptluqx9bvztb5iuvan0fr,36wlnqg783nwvjyh52he2op5eqhbe3,6k46IkLK,2020-0188,2021-10-31,10:53:23,12:25:42,NA,incomplete,false,NA,NA,true,2,15,NA,NA,NA,right,n_l_018.jpg,brown,white,NA,NA,NA,NA,NA,NA,NA,NA,NA,NaN,NA,1659,left,0,NA,NA,NA,NA,NA
6k46IkLK,3087lxlj7ptluqx9bvztb5iuvan0fr,36wlnqg783nwvjyh52he2op5eqhbe3,6k46IkLK,2020-0188,2021-10-31,10:53:23,12:25:42,NA,incomplete,false,NA,NA,true,2,16,NA,NA,NA,right,n_s_106.jpg,white,red,NA,NA,NA,NA,NA,NA,NA,NA,NA,NaN,NA,1454.1000000238419,right,1,NA,NA,NA,NA,NA
6k46IkLK,3087lxlj7ptluqx9bvztb5iuvan0fr,36wlnqg783nwvjyh52he2op5eqhbe3,6k46IkLK,2020-0188,2021-10-31,10:53:23,12:25:42,NA,incomplete,false,NA,NA,true,2,17,NA,NA,NA,right,m_l_048.jpg,white,brown,NA,NA,NA,NA,NA,NA,NA,NA,NA,NaN,NA,1478.7999999523163,left,0,NA,NA,NA,NA,NA
6k46IkLK,3087lxlj7ptluqx9bvztb5iuvan0fr,36wlnqg783nwvjyh52he2op5eqhbe3,6k46IkLK,2020-0188,2021-10-31,10:53:23,12:25:42,NA,incomplete,false,NA,NA,true,2,18,NA,NA,NA,right,n_s_116.jpg,orange,yellow,NA,NA,NA,NA,NA,NA,NA,NA,NA,NaN,NA,1404,right,1,NA,NA,NA,NA,NA
6k46IkLK,3087lxlj7ptluqx9bvztb5iuvan0fr,36wlnqg783nwvjyh52he2op5eqhbe3,6k46IkLK,2020-0188,2021-10-31,10:53:23,12:25:42,NA,incomplete,false,NA,NA,true,2,19,NA,NA,NA,left,m_s_083.jpg,brown,green,NA,NA,NA,NA,NA,NA,NA,NA,NA,NaN,NA,2504.5,right,0,NA,NA,NA,NA,NA
6k46IkLK,3087lxlj7ptluqx9bvztb5iuvan0fr,36wlnqg783nwvjyh52he2op5eqhbe3,6k46IkLK,2020-0188,2021-10-31,10:53:23,12:25:42,NA,incomplete,false,NA,NA,true,2,20,NA,NA,NA,left,m_l_054.jpg,orange,yellow,NA,NA,NA,NA,NA,NA,NA,NA,NA,NaN,NA,1978.7999999523163,right,0,NA,NA,NA,NA,NA
6k46IkLK,3087lxlj7ptluqx9bvztb5iuvan0fr,36wlnqg783nwvjyh52he2op5eqhbe3,6k46IkLK,2020-0188,2021-10-31,10:53:23,12:25:42,NA,incomplete,false,NA,NA,true,2,21,NA,NA,NA,left,n_l_082.jpg,white,brown,NA,NA,NA,NA,NA,NA,NA,NA,NA,NaN,NA,1067.5999999046326,right,0,NA,NA,NA,NA,NA
6k46IkLK,3087lxlj7ptluqx9bvztb5iuvan0fr,36wlnqg783nwvjyh52he2op5eqhbe3,6k46IkLK,2020-0188,2021-10-31,10:53:23,12:25:42,NA,incomplete,false,NA,true,NA,2,0,NA,NA,NA,right,NA,NA,NA,absent,NA,NA,m_l_048.jpg,brown,n_l_082.jpg,white,between,NA,NaN,NA,NA,NA,NA,left,2707.100000023842,0,0,1892.6999999284744
6k46IkLK,3087lxlj7ptluqx9bvztb5iuvan0fr,36wlnqg783nwvjyh52he2op5eqhbe3,6k46IkLK,2020-0188,2021-10-31,10:53:23,12:25:42,NA,incomplete,false,NA,true,NA,2,1,NA,NA,NA,right,NA,NA,NA,absent,NA,NA,n_s_038.jpg,red,m_l_065.jpg,orange,between,NA,NaN,NA,NA,NA,NA,left,2117.5,0,0,1767.1999999284744
6k46IkLK,3087lxlj7ptluqx9bvztb5iuvan0fr,36wlnqg783nwvjyh52he2op5eqhbe3,6k46IkLK,2020-0188,2021-10-31,10:53:23,12:25:42,NA,incomplete,false,NA,true,NA,2,2,NA,NA,NA,right,NA,NA,NA,absent,NA,NA,m_s_085.jpg,red,n_s_106.jpg,red,within,NA,NaN,NA,NA,NA,NA,right,9427,1,0,2297.899999976158
6k46IkLK,3087lxlj7ptluqx9bvztb5iuvan0fr,36wlnqg783nwvjyh52he2op5eqhbe3,6k46IkLK,2020-0188,2021-10-31,10:53:23,12:25:42,NA,incomplete,false,NA,true,NA,2,3,NA,NA,NA,left,NA,NA,NA,absent,NA,NA,n_l_102.jpg,yellow,n_s_030.jpg,orange,between,NA,NaN,NA,NA,NA,NA,left,1429.5,1,0,1789.3000000715256
6k46IkLK,3087lxlj7ptluqx9bvztb5iuvan0fr,36wlnqg783nwvjyh52he2op5eqhbe3,6k46IkLK,2020-0188,2021-10-31,10:53:23,12:25:42,NA,incomplete,false,NA,true,NA,2,4,NA,NA,NA,left,NA,NA,NA,absent,NA,NA,n_s_116.jpg,yellow,m_s_069.jpg,yellow,within,NA,NaN,NA,NA,NA,NA,left,1459.5999999046326,1,0,1169.2999999523163
6k46IkLK,3087lxlj7ptluqx9bvztb5iuvan0fr,36wlnqg783nwvjyh52he2op5eqhbe3,6k46IkLK,2020-0188,2021-10-31,10:53:23,12:25:42,NA,incomplete,false,NA,true,NA,2,5,NA,NA,NA,right,NA,NA,NA,absent,NA,NA,m_s_046.jpg,green,m_s_109.jpg,brown,between,NA,NaN,NA,NA,NA,NA,right,14884,1,0,3728.7999999523163
6k46IkLK,3087lxlj7ptluqx9bvztb5iuvan0fr,36wlnqg783nwvjyh52he2op5eqhbe3,6k46IkLK,2020-0188,2021-10-31,10:53:23,12:25:42,NA,incomplete,false,NA,true,NA,2,6,NA,NA,NA,left,NA,NA,NA,absent,NA,NA,m_l_058.jpg,white,m_l_080.jpg,white,within,NA,NaN,NA,NA,NA,NA,left,1329.7000000476837,1,0,1188.8999999761581
6k46IkLK,3087lxlj7ptluqx9bvztb5iuvan0fr,36wlnqg783nwvjyh52he2op5eqhbe3,6k46IkLK,2020-0188,2021-10-31,10:53:23,12:25:42,NA,incomplete,false,NA,true,NA,2,7,NA,NA,NA,right,NA,NA,NA,absent,NA,NA,n_l_018.jpg,white,m_s_033.jpg,red,between,NA,NaN,NA,NA,NA,NA,left,1499.6000000238419,0,0,1419
6k46IkLK,3087lxlj7ptluqx9bvztb5iuvan0fr,36wlnqg783nwvjyh52he2op5eqhbe3,6k46IkLK,2020-0188,2021-10-31,10:53:23,12:25:42,NA,incomplete,false,NA,true,NA,2,8,NA,NA,NA,right,NA,NA,NA,absent,NA,NA,m_s_025.jpg,green,n_s_008.jpg,green,within,NA,NaN,NA,NA,NA,NA,left,1179.0999999046326,0,0,3218.899999976158
6k46IkLK,3087lxlj7ptluqx9bvztb5iuvan0fr,36wlnqg783nwvjyh52he2op5eqhbe3,6k46IkLK,2020-0188,2021-10-31,10:53:23,12:25:42,NA,incomplete,false,NA,true,NA,2,9,NA,NA,NA,left,NA,NA,NA,absent,NA,NA,m_l_054.jpg,orange,n_l_112.jpg,orange,within,NA,NaN,NA,NA,NA,NA,left,1249,1,0,1419.3999999761581
6k46IkLK,3087lxlj7ptluqx9bvztb5iuvan0fr,36wlnqg783nwvjyh52he2op5eqhbe3,6k46IkLK,2020-0188,2021-10-31,10:53:23,12:25:42,NA,incomplete,false,NA,true,NA,2,10,NA,NA,NA,left,NA,NA,NA,absent,NA,NA,m_s_083.jpg,brown,m_s_063.jpg,brown,within,NA,NaN,NA,NA,NA,NA,left,1543.5999999046326,1,0,1649.2000000476837
6k46IkLK,3087lxlj7ptluqx9bvztb5iuvan0fr,36wlnqg783nwvjyh52he2op5eqhbe3,6k46IkLK,2020-0188,2021-10-31,10:53:23,12:25:42,NA,incomplete,false,true,NA,NA,3,0,NA,purple,n_l_095.jpg,NA,NA,NA,NA,NA,unpleasant,pleasant,NA,NA,NA,NA,NA,left,3309.70000004768,true,NA,NA,NA,NA,NA,NA,NA,NA
6k46IkLK,3087lxlj7ptluqx9bvztb5iuvan0fr,36wlnqg783nwvjyh52he2op5eqhbe3,6k46IkLK,2020-0188,2021-10-31,10:53:23,12:25:42,NA,incomplete,false,true,NA,NA,3,1,NA,purple,n_l_054.jpg,NA,NA,NA,NA,NA,unpleasant,pleasant,NA,NA,NA,NA,NA,right,1791.80000007153,true,NA,NA,NA,NA,NA,NA,NA,NA
6k46IkLK,3087lxlj7ptluqx9bvztb5iuvan0fr,36wlnqg783nwvjyh52he2op5eqhbe3,6k46IkLK,2020-0188,2021-10-31,10:53:23,12:25:42,NA,incomplete,false,true,NA,NA,3,2,NA,purple,m_s_019.jpg,NA,NA,NA,NA,NA,pleasant,unpleasant,NA,NA,NA,NA,NA,left,2208.5,true,NA,NA,NA,NA,NA,NA,NA,NA
6k46IkLK,3087lxlj7ptluqx9bvztb5iuvan0fr,36wlnqg783nwvjyh52he2op5eqhbe3,6k46IkLK,2020-0188,2021-10-31,10:53:23,12:25:42,NA,incomplete,false,true,NA,NA,3,3,NA,purple,n_s_020.jpg,NA,NA,NA,NA,NA,unpleasant,pleasant,NA,NA,NA,NA,NA,right,1188.5,true,NA,NA,NA,NA,NA,NA,NA,NA
6k46IkLK,3087lxlj7ptluqx9bvztb5iuvan0fr,36wlnqg783nwvjyh52he2op5eqhbe3,6k46IkLK,2020-0188,2021-10-31,10:53:23,12:25:42,NA,incomplete,false,true,NA,NA,3,4,NA,purple,m_s_068.jpg,NA,NA,NA,NA,NA,unpleasant,pleasant,NA,NA,NA,NA,NA,left,951.100000023842,true,NA,NA,NA,NA,NA,NA,NA,NA
6k46IkLK,3087lxlj7ptluqx9bvztb5iuvan0fr,36wlnqg783nwvjyh52he2op5eqhbe3,6k46IkLK,2020-0188,2021-10-31,10:53:23,12:25:42,NA,incomplete,false,true,NA,NA,3,5,NA,purple,n_l_055.jpg,NA,NA,NA,NA,NA,pleasant,unpleasant,NA,NA,NA,NA,NA,right,865.199999928474,true,NA,NA,NA,NA,NA,NA,NA,NA
6k46IkLK,3087lxlj7ptluqx9bvztb5iuvan0fr,36wlnqg783nwvjyh52he2op5eqhbe3,6k46IkLK,2020-0188,2021-10-31,10:53:23,12:25:42,NA,incomplete,false,true,NA,NA,3,6,NA,yellow,m_s_023.jpg,NA,NA,NA,NA,NA,unpleasant,pleasant,NA,NA,NA,NA,NA,right,2073.59999990463,true,NA,NA,NA,NA,NA,NA,NA,NA
6k46IkLK,3087lxlj7ptluqx9bvztb5iuvan0fr,36wlnqg783nwvjyh52he2op5eqhbe3,6k46IkLK,2020-0188,2021-10-31,10:53:23,12:25:42,NA,incomplete,false,true,NA,NA,3,7,NA,yellow,n_s_006.jpg,NA,NA,NA,NA,NA,pleasant,unpleasant,NA,NA,NA,NA,NA,left,1122.90000009537,true,NA,NA,NA,NA,NA,NA,NA,NA
6k46IkLK,3087lxlj7ptluqx9bvztb5iuvan0fr,36wlnqg783nwvjyh52he2op5eqhbe3,6k46IkLK,2020-0188,2021-10-31,10:53:23,12:25:42,NA,incomplete,false,true,NA,NA,3,8,NA,yellow,m_l_033.jpg,NA,NA,NA,NA,NA,unpleasant,pleasant,NA,NA,NA,NA,NA,right,929.200000047684,true,NA,NA,NA,NA,NA,NA,NA,NA
6k46IkLK,3087lxlj7ptluqx9bvztb5iuvan0fr,36wlnqg783nwvjyh52he2op5eqhbe3,6k46IkLK,2020-0188,2021-10-31,10:53:23,12:25:42,NA,incomplete,false,true,NA,NA,3,9,NA,yellow,m_s_004.jpg,NA,NA,NA,NA,NA,unpleasant,pleasant,NA,NA,NA,NA,NA,left,865.600000023842,true,NA,NA,NA,NA,NA,NA,NA,NA
6k46IkLK,3087lxlj7ptluqx9bvztb5iuvan0fr,36wlnqg783nwvjyh52he2op5eqhbe3,6k46IkLK,2020-0188,2021-10-31,10:53:23,12:25:42,NA,incomplete,false,true,NA,NA,3,10,NA,yellow,m_l_062.jpg,NA,NA,NA,NA,NA,pleasant,unpleasant,NA,NA,NA,NA,NA,right,542.399999976158,true,NA,NA,NA,NA,NA,NA,NA,NA
6k46IkLK,3087lxlj7ptluqx9bvztb5iuvan0fr,36wlnqg783nwvjyh52he2op5eqhbe3,6k46IkLK,2020-0188,2021-10-31,10:53:23,12:25:42,NA,incomplete,false,true,NA,NA,3,11,NA,yellow,n_s_100.jpg,NA,NA,NA,NA,NA,pleasant,unpleasant,NA,NA,NA,NA,NA,left,908.299999952316,true,NA,NA,NA,NA,NA,NA,NA,NA
6k46IkLK,3087lxlj7ptluqx9bvztb5iuvan0fr,36wlnqg783nwvjyh52he2op5eqhbe3,6k46IkLK,2020-0188,2021-10-31,10:53:23,12:25:42,NA,incomplete,false,true,NA,NA,3,12,NA,white,m_s_027.jpg,NA,NA,NA,NA,NA,unpleasant,pleasant,NA,NA,NA,NA,NA,left,1360.29999995232,true,NA,NA,NA,NA,NA,NA,NA,NA
6k46IkLK,3087lxlj7ptluqx9bvztb5iuvan0fr,36wlnqg783nwvjyh52he2op5eqhbe3,6k46IkLK,2020-0188,2021-10-31,10:53:23,12:25:42,NA,incomplete,false,true,NA,NA,3,13,NA,white,n_l_073.jpg,NA,NA,NA,NA,NA,pleasant,unpleasant,NA,NA,NA,NA,NA,left,926.799999952316,true,NA,NA,NA,NA,NA,NA,NA,NA
6k46IkLK,3087lxlj7ptluqx9bvztb5iuvan0fr,36wlnqg783nwvjyh52he2op5eqhbe3,6k46IkLK,2020-0188,2021-10-31,10:53:23,12:25:42,NA,incomplete,false,true,NA,NA,3,14,NA,white,m_l_010.jpg,NA,NA,NA,NA,NA,pleasant,unpleasant,NA,NA,NA,NA,NA,right,1003.5,true,NA,NA,NA,NA,NA,NA,NA,NA
6k46IkLK,3087lxlj7ptluqx9bvztb5iuvan0fr,36wlnqg783nwvjyh52he2op5eqhbe3,6k46IkLK,2020-0188,2021-10-31,10:53:23,12:25:42,NA,incomplete,false,true,NA,NA,3,15,NA,white,n_s_048.jpg,NA,NA,NA,NA,NA,unpleasant,pleasant,NA,NA,NA,NA,NA,left,777.300000071526,true,NA,NA,NA,NA,NA,NA,NA,NA
6k46IkLK,3087lxlj7ptluqx9bvztb5iuvan0fr,36wlnqg783nwvjyh52he2op5eqhbe3,6k46IkLK,2020-0188,2021-10-31,10:53:23,12:25:42,NA,incomplete,false,true,NA,NA,3,16,NA,white,m_l_104.jpg,NA,NA,NA,NA,NA,unpleasant,pleasant,NA,NA,NA,NA,NA,right,1160.39999997616,true,NA,NA,NA,NA,NA,NA,NA,NA
6k46IkLK,3087lxlj7ptluqx9bvztb5iuvan0fr,36wlnqg783nwvjyh52he2op5eqhbe3,6k46IkLK,2020-0188,2021-10-31,10:53:23,12:25:42,NA,incomplete,false,true,NA,NA,3,17,NA,white,m_l_035.jpg,NA,NA,NA,NA,NA,pleasant,unpleasant,NA,NA,NA,NA,NA,left,899.299999952316,true,NA,NA,NA,NA,NA,NA,NA,NA
6k46IkLK,3087lxlj7ptluqx9bvztb5iuvan0fr,36wlnqg783nwvjyh52he2op5eqhbe3,6k46IkLK,2020-0188,2021-10-31,10:53:23,12:25:42,NA,incomplete,false,true,NA,NA,3,18,NA,blue,n_s_051.jpg,NA,NA,NA,NA,NA,unpleasant,pleasant,NA,NA,NA,NA,NA,right,1039.5,true,NA,NA,NA,NA,NA,NA,NA,NA
6k46IkLK,3087lxlj7ptluqx9bvztb5iuvan0fr,36wlnqg783nwvjyh52he2op5eqhbe3,6k46IkLK,2020-0188,2021-10-31,10:53:23,12:25:42,NA,incomplete,false,true,NA,NA,3,19,NA,blue,m_l_024.jpg,NA,NA,NA,NA,NA,pleasant,unpleasant,NA,NA,NA,NA,NA,left,897.299999952316,true,NA,NA,NA,NA,NA,NA,NA,NA
6k46IkLK,3087lxlj7ptluqx9bvztb5iuvan0fr,36wlnqg783nwvjyh52he2op5eqhbe3,6k46IkLK,2020-0188,2021-10-31,10:53:23,12:25:42,NA,incomplete,false,true,NA,NA,3,20,NA,blue,n_l_072.jpg,NA,NA,NA,NA,NA,pleasant,unpleasant,NA,NA,NA,NA,NA,right,918.799999952316,true,NA,NA,NA,NA,NA,NA,NA,NA
6k46IkLK,3087lxlj7ptluqx9bvztb5iuvan0fr,36wlnqg783nwvjyh52he2op5eqhbe3,6k46IkLK,2020-0188,2021-10-31,10:53:23,12:25:42,NA,incomplete,false,true,NA,NA,3,21,NA,blue,m_s_093.jpg,NA,NA,NA,NA,NA,unpleasant,pleasant,NA,NA,NA,NA,NA,left,1009.59999990463,true,NA,NA,NA,NA,NA,NA,NA,NA
6k46IkLK,3087lxlj7ptluqx9bvztb5iuvan0fr,36wlnqg783nwvjyh52he2op5eqhbe3,6k46IkLK,2020-0188,2021-10-31,10:53:23,12:25:42,NA,incomplete,false,true,NA,NA,3,22,NA,blue,m_s_032.jpg,NA,NA,NA,NA,NA,unpleasant,pleasant,NA,NA,NA,NA,NA,right,896.400000095367,true,NA,NA,NA,NA,NA,NA,NA,NA
6k46IkLK,3087lxlj7ptluqx9bvztb5iuvan0fr,36wlnqg783nwvjyh52he2op5eqhbe3,6k46IkLK,2020-0188,2021-10-31,10:53:23,12:25:42,NA,incomplete,false,true,NA,NA,3,23,NA,blue,m_s_105.jpg,NA,NA,NA,NA,NA,unpleasant,pleasant,NA,NA,NA,NA,NA,left,1119.90000009537,true,NA,NA,NA,NA,NA,NA,NA,NA
6k46IkLK,3087lxlj7ptluqx9bvztb5iuvan0fr,36wlnqg783nwvjyh52he2op5eqhbe3,6k46IkLK,2020-0188,2021-10-31,10:53:23,12:25:42,NA,incomplete,false,true,NA,NA,3,24,NA,black,m_s_056.jpg,NA,NA,NA,NA,NA,pleasant,unpleasant,NA,NA,NA,NA,NA,left,2167.70000004768,true,NA,NA,NA,NA,NA,NA,NA,NA
6k46IkLK,3087lxlj7ptluqx9bvztb5iuvan0fr,36wlnqg783nwvjyh52he2op5eqhbe3,6k46IkLK,2020-0188,2021-10-31,10:53:23,12:25:42,NA,incomplete,false,true,NA,NA,3,25,NA,black,n_l_068.jpg,NA,NA,NA,NA,NA,pleasant,unpleasant,NA,NA,NA,NA,NA,right,1226.5,true,NA,NA,NA,NA,NA,NA,NA,NA
6k46IkLK,3087lxlj7ptluqx9bvztb5iuvan0fr,36wlnqg783nwvjyh52he2op5eqhbe3,6k46IkLK,2020-0188,2021-10-31,10:53:23,12:25:42,NA,incomplete,false,true,NA,NA,3,26,NA,black,m_s_055.jpg,NA,NA,NA,NA,NA,pleasant,unpleasant,NA,NA,NA,NA,NA,left,879.199999928474,true,NA,NA,NA,NA,NA,NA,NA,NA
6k46IkLK,3087lxlj7ptluqx9bvztb5iuvan0fr,36wlnqg783nwvjyh52he2op5eqhbe3,6k46IkLK,2020-0188,2021-10-31,10:53:23,12:25:42,NA,incomplete,false,true,NA,NA,3,27,NA,black,m_l_102.jpg,NA,NA,NA,NA,NA,unpleasant,pleasant,NA,NA,NA,NA,NA,right,1106.69999992847,true,NA,NA,NA,NA,NA,NA,NA,NA
6k46IkLK,3087lxlj7ptluqx9bvztb5iuvan0fr,36wlnqg783nwvjyh52he2op5eqhbe3,6k46IkLK,2020-0188,2021-10-31,10:53:23,12:25:42,NA,incomplete,false,true,NA,NA,3,28,NA,black,n_s_107.jpg,NA,NA,NA,NA,NA,pleasant,unpleasant,NA,NA,NA,NA,NA,left,774.899999976158,true,NA,NA,NA,NA,NA,NA,NA,NA
6k46IkLK,3087lxlj7ptluqx9bvztb5iuvan0fr,36wlnqg783nwvjyh52he2op5eqhbe3,6k46IkLK,2020-0188,2021-10-31,10:53:23,12:25:42,NA,incomplete,false,true,NA,NA,3,29,NA,black,m_l_113.jpg,NA,NA,NA,NA,NA,pleasant,unpleasant,NA,NA,NA,NA,NA,left,1064.5,true,NA,NA,NA,NA,NA,NA,NA,NA
6k46IkLK,3087lxlj7ptluqx9bvztb5iuvan0fr,36wlnqg783nwvjyh52he2op5eqhbe3,6k46IkLK,2020-0188,2021-10-31,10:53:23,12:25:42,NA,incomplete,false,true,NA,NA,3,30,NA,red,m_s_106.jpg,NA,NA,NA,NA,NA,pleasant,unpleasant,NA,NA,NA,NA,NA,right,774.800000071526,true,NA,NA,NA,NA,NA,NA,NA,NA
6k46IkLK,3087lxlj7ptluqx9bvztb5iuvan0fr,36wlnqg783nwvjyh52he2op5eqhbe3,6k46IkLK,2020-0188,2021-10-31,10:53:23,12:25:42,NA,incomplete,false,true,NA,NA,3,31,NA,red,n_l_035.jpg,NA,NA,NA,NA,NA,pleasant,unpleasant,NA,NA,NA,NA,NA,left,1013.90000009537,true,NA,NA,NA,NA,NA,NA,NA,NA
6k46IkLK,3087lxlj7ptluqx9bvztb5iuvan0fr,36wlnqg783nwvjyh52he2op5eqhbe3,6k46IkLK,2020-0188,2021-10-31,10:53:23,12:25:42,NA,incomplete,false,true,NA,NA,3,32,NA,red,m_s_062.jpg,NA,NA,NA,NA,NA,unpleasant,pleasant,NA,NA,NA,NA,NA,right,773.100000023842,true,NA,NA,NA,NA,NA,NA,NA,NA
6k46IkLK,3087lxlj7ptluqx9bvztb5iuvan0fr,36wlnqg783nwvjyh52he2op5eqhbe3,6k46IkLK,2020-0188,2021-10-31,10:53:23,12:25:42,NA,incomplete,false,true,NA,NA,3,33,NA,red,n_s_015.jpg,NA,NA,NA,NA,NA,unpleasant,pleasant,NA,NA,NA,NA,NA,left,981.5,true,NA,NA,NA,NA,NA,NA,NA,NA
6k46IkLK,3087lxlj7ptluqx9bvztb5iuvan0fr,36wlnqg783nwvjyh52he2op5eqhbe3,6k46IkLK,2020-0188,2021-10-31,10:53:23,12:25:42,NA,incomplete,false,true,NA,NA,3,34,NA,red,m_s_007.jpg,NA,NA,NA,NA,NA,unpleasant,pleasant,NA,NA,NA,NA,NA,right,720.299999952316,true,NA,NA,NA,NA,NA,NA,NA,NA
6k46IkLK,3087lxlj7ptluqx9bvztb5iuvan0fr,36wlnqg783nwvjyh52he2op5eqhbe3,6k46IkLK,2020-0188,2021-10-31,10:53:23,12:25:42,NA,incomplete,false,true,NA,NA,3,35,NA,red,n_s_080.jpg,NA,NA,NA,NA,NA,pleasant,unpleasant,NA,NA,NA,NA,NA,left,974,true,NA,NA,NA,NA,NA,NA,NA,NA
6k46IkLK,3087lxlj7ptluqx9bvztb5iuvan0fr,36wlnqg783nwvjyh52he2op5eqhbe3,6k46IkLK,2020-0188,2021-10-31,10:53:23,12:25:42,NA,incomplete,false,NA,NA,true,3,0,NA,NA,NA,right,m_l_062.jpg,purple,yellow,NA,NA,NA,NA,NA,NA,NA,NA,NA,NaN,NA,1908.7999999523163,right,1,NA,NA,NA,NA,NA
6k46IkLK,3087lxlj7ptluqx9bvztb5iuvan0fr,36wlnqg783nwvjyh52he2op5eqhbe3,6k46IkLK,2020-0188,2021-10-31,10:53:23,12:25:42,NA,incomplete,false,NA,NA,true,3,1,NA,NA,NA,left,m_s_062.jpg,red,black,NA,NA,NA,NA,NA,NA,NA,NA,NA,NaN,NA,1048.8000000715256,right,0,NA,NA,NA,NA,NA
6k46IkLK,3087lxlj7ptluqx9bvztb5iuvan0fr,36wlnqg783nwvjyh52he2op5eqhbe3,6k46IkLK,2020-0188,2021-10-31,10:53:23,12:25:42,NA,incomplete,false,NA,NA,true,3,2,NA,NA,NA,right,n_l_035.jpg,black,red,NA,NA,NA,NA,NA,NA,NA,NA,NA,NaN,NA,1408.7000000476837,left,0,NA,NA,NA,NA,NA
6k46IkLK,3087lxlj7ptluqx9bvztb5iuvan0fr,36wlnqg783nwvjyh52he2op5eqhbe3,6k46IkLK,2020-0188,2021-10-31,10:53:23,12:25:42,NA,incomplete,false,NA,NA,true,3,3,NA,NA,NA,left,m_s_032.jpg,blue,black,NA,NA,NA,NA,NA,NA,NA,NA,NA,NaN,NA,2038.8000000715256,right,0,NA,NA,NA,NA,NA
6k46IkLK,3087lxlj7ptluqx9bvztb5iuvan0fr,36wlnqg783nwvjyh52he2op5eqhbe3,6k46IkLK,2020-0188,2021-10-31,10:53:23,12:25:42,NA,incomplete,false,NA,NA,true,3,4,NA,NA,NA,right,n_s_100.jpg,white,yellow,NA,NA,NA,NA,NA,NA,NA,NA,NA,NaN,NA,1448.7999999523163,left,0,NA,NA,NA,NA,NA
6k46IkLK,3087lxlj7ptluqx9bvztb5iuvan0fr,36wlnqg783nwvjyh52he2op5eqhbe3,6k46IkLK,2020-0188,2021-10-31,10:53:23,12:25:42,NA,incomplete,false,NA,NA,true,3,5,NA,NA,NA,left,m_l_033.jpg,yellow,purple,NA,NA,NA,NA,NA,NA,NA,NA,NA,NaN,NA,998.7000000476837,right,0,NA,NA,NA,NA,NA
6k46IkLK,3087lxlj7ptluqx9bvztb5iuvan0fr,36wlnqg783nwvjyh52he2op5eqhbe3,6k46IkLK,2020-0188,2021-10-31,10:53:23,12:25:42,NA,incomplete,false,NA,NA,true,3,6,NA,NA,NA,left,n_l_055.jpg,purple,yellow,NA,NA,NA,NA,NA,NA,NA,NA,NA,NaN,NA,2598.5,left,1,NA,NA,NA,NA,NA
6k46IkLK,3087lxlj7ptluqx9bvztb5iuvan0fr,36wlnqg783nwvjyh52he2op5eqhbe3,6k46IkLK,2020-0188,2021-10-31,10:53:23,12:25:42,NA,incomplete,false,NA,NA,true,3,7,NA,NA,NA,right,m_l_113.jpg,red,black,NA,NA,NA,NA,NA,NA,NA,NA,NA,NaN,NA,1358.8999999761581,right,1,NA,NA,NA,NA,NA
6k46IkLK,3087lxlj7ptluqx9bvztb5iuvan0fr,36wlnqg783nwvjyh52he2op5eqhbe3,6k46IkLK,2020-0188,2021-10-31,10:53:23,12:25:42,NA,incomplete,false,NA,NA,true,3,8,NA,NA,NA,right,n_l_068.jpg,red,black,NA,NA,NA,NA,NA,NA,NA,NA,NA,NaN,NA,1483.6999999284744,left,0,NA,NA,NA,NA,NA
6k46IkLK,3087lxlj7ptluqx9bvztb5iuvan0fr,36wlnqg783nwvjyh52he2op5eqhbe3,6k46IkLK,2020-0188,2021-10-31,10:53:23,12:25:42,NA,incomplete,false,NA,NA,true,3,9,NA,NA,NA,right,m_s_068.jpg,yellow,purple,NA,NA,NA,NA,NA,NA,NA,NA,NA,NaN,NA,1288.7999999523163,right,1,NA,NA,NA,NA,NA
6k46IkLK,3087lxlj7ptluqx9bvztb5iuvan0fr,36wlnqg783nwvjyh52he2op5eqhbe3,6k46IkLK,2020-0188,2021-10-31,10:53:23,12:25:42,NA,incomplete,false,NA,NA,true,3,10,NA,NA,NA,right,n_l_073.jpg,blue,white,NA,NA,NA,NA,NA,NA,NA,NA,NA,NaN,NA,1828.8999999761581,left,0,NA,NA,NA,NA,NA
6k46IkLK,3087lxlj7ptluqx9bvztb5iuvan0fr,36wlnqg783nwvjyh52he2op5eqhbe3,6k46IkLK,2020-0188,2021-10-31,10:53:23,12:25:42,NA,incomplete,false,NA,NA,true,3,11,NA,NA,NA,right,n_s_107.jpg,blue,black,NA,NA,NA,NA,NA,NA,NA,NA,NA,NaN,NA,1138.6999999284744,right,1,NA,NA,NA,NA,NA
6k46IkLK,3087lxlj7ptluqx9bvztb5iuvan0fr,36wlnqg783nwvjyh52he2op5eqhbe3,6k46IkLK,2020-0188,2021-10-31,10:53:23,12:25:42,NA,incomplete,false,NA,NA,true,3,12,NA,NA,NA,left,m_l_010.jpg,white,blue,NA,NA,NA,NA,NA,NA,NA,NA,NA,NaN,NA,1308.3000000715256,left,1,NA,NA,NA,NA,NA
6k46IkLK,3087lxlj7ptluqx9bvztb5iuvan0fr,36wlnqg783nwvjyh52he2op5eqhbe3,6k46IkLK,2020-0188,2021-10-31,10:53:23,12:25:42,NA,incomplete,false,NA,NA,true,3,13,NA,NA,NA,left,m_s_105.jpg,blue,white,NA,NA,NA,NA,NA,NA,NA,NA,NA,NaN,NA,1108.3000000715256,right,0,NA,NA,NA,NA,NA
6k46IkLK,3087lxlj7ptluqx9bvztb5iuvan0fr,36wlnqg783nwvjyh52he2op5eqhbe3,6k46IkLK,2020-0188,2021-10-31,10:53:23,12:25:42,NA,incomplete,false,NA,NA,true,3,14,NA,NA,NA,right,m_l_035.jpg,blue,white,NA,NA,NA,NA,NA,NA,NA,NA,NA,NaN,NA,1459.2999999523163,left,0,NA,NA,NA,NA,NA
6k46IkLK,3087lxlj7ptluqx9bvztb5iuvan0fr,36wlnqg783nwvjyh52he2op5eqhbe3,6k46IkLK,2020-0188,2021-10-31,10:53:23,12:25:42,NA,incomplete,false,NA,NA,true,3,15,NA,NA,NA,left,m_l_024.jpg,blue,black,NA,NA,NA,NA,NA,NA,NA,NA,NA,NaN,NA,5688.700000047684,right,0,NA,NA,NA,NA,NA
6k46IkLK,3087lxlj7ptluqx9bvztb5iuvan0fr,36wlnqg783nwvjyh52he2op5eqhbe3,6k46IkLK,2020-0188,2021-10-31,10:53:23,12:25:42,NA,incomplete,false,NA,NA,true,3,16,NA,NA,NA,left,m_l_104.jpg,white,blue,NA,NA,NA,NA,NA,NA,NA,NA,NA,NaN,NA,1758.7000000476837,left,1,NA,NA,NA,NA,NA
6k46IkLK,3087lxlj7ptluqx9bvztb5iuvan0fr,36wlnqg783nwvjyh52he2op5eqhbe3,6k46IkLK,2020-0188,2021-10-31,10:53:23,12:25:42,NA,incomplete,false,NA,NA,true,3,17,NA,NA,NA,left,m_s_055.jpg,black,red,NA,NA,NA,NA,NA,NA,NA,NA,NA,NaN,NA,1109.0999999046326,right,0,NA,NA,NA,NA,NA
6k46IkLK,3087lxlj7ptluqx9bvztb5iuvan0fr,36wlnqg783nwvjyh52he2op5eqhbe3,6k46IkLK,2020-0188,2021-10-31,10:53:23,12:25:42,NA,incomplete,false,NA,NA,true,3,18,NA,NA,NA,left,n_s_006.jpg,yellow,purple,NA,NA,NA,NA,NA,NA,NA,NA,NA,NaN,NA,1579,left,1,NA,NA,NA,NA,NA
6k46IkLK,3087lxlj7ptluqx9bvztb5iuvan0fr,36wlnqg783nwvjyh52he2op5eqhbe3,6k46IkLK,2020-0188,2021-10-31,10:53:23,12:25:42,NA,incomplete,false,NA,NA,true,3,19,NA,NA,NA,left,n_l_072.jpg,blue,white,NA,NA,NA,NA,NA,NA,NA,NA,NA,NaN,NA,1049,right,0,NA,NA,NA,NA,NA
6k46IkLK,3087lxlj7ptluqx9bvztb5iuvan0fr,36wlnqg783nwvjyh52he2op5eqhbe3,6k46IkLK,2020-0188,2021-10-31,10:53:23,12:25:42,NA,incomplete,false,NA,NA,true,3,20,NA,NA,NA,right,n_s_080.jpg,black,red,NA,NA,NA,NA,NA,NA,NA,NA,NA,NaN,NA,1529.6000000238419,left,0,NA,NA,NA,NA,NA
6k46IkLK,3087lxlj7ptluqx9bvztb5iuvan0fr,36wlnqg783nwvjyh52he2op5eqhbe3,6k46IkLK,2020-0188,2021-10-31,10:53:23,12:25:42,NA,incomplete,false,NA,NA,true,3,21,NA,NA,NA,left,n_l_054.jpg,purple,yellow,NA,NA,NA,NA,NA,NA,NA,NA,NA,NaN,NA,969.1999999284744,right,0,NA,NA,NA,NA,NA
6k46IkLK,3087lxlj7ptluqx9bvztb5iuvan0fr,36wlnqg783nwvjyh52he2op5eqhbe3,6k46IkLK,2020-0188,2021-10-31,10:53:23,12:25:42,NA,incomplete,false,NA,true,NA,3,0,NA,NA,NA,left,NA,NA,NA,absent,NA,NA,n_l_073.jpg,white,m_l_035.jpg,white,within,NA,NaN,NA,NA,NA,NA,right,1817.3000000715256,0,0,1308.1000000238419
6k46IkLK,3087lxlj7ptluqx9bvztb5iuvan0fr,36wlnqg783nwvjyh52he2op5eqhbe3,6k46IkLK,2020-0188,2021-10-31,10:53:23,12:25:42,NA,incomplete,false,NA,true,NA,3,1,NA,NA,NA,left,NA,NA,NA,absent,NA,NA,m_s_068.jpg,purple,m_l_033.jpg,yellow,between,NA,NaN,NA,NA,NA,NA,left,1448.1999999284744,1,0,1708
6k46IkLK,3087lxlj7ptluqx9bvztb5iuvan0fr,36wlnqg783nwvjyh52he2op5eqhbe3,6k46IkLK,2020-0188,2021-10-31,10:53:23,12:25:42,NA,incomplete,false,NA,true,NA,3,2,NA,NA,NA,left,NA,NA,NA,absent,NA,NA,m_l_104.jpg,white,n_l_072.jpg,blue,between,NA,NaN,NA,NA,NA,NA,left,4542.899999976158,1,0,1632.6000000238419
6k46IkLK,3087lxlj7ptluqx9bvztb5iuvan0fr,36wlnqg783nwvjyh52he2op5eqhbe3,6k46IkLK,2020-0188,2021-10-31,10:53:23,12:25:42,NA,incomplete,false,NA,true,NA,3,3,NA,NA,NA,right,NA,NA,NA,absent,NA,NA,m_s_055.jpg,black,m_s_032.jpg,blue,between,NA,NaN,NA,NA,NA,NA,left,1487.5,0,0,1767.9000000953674
6k46IkLK,3087lxlj7ptluqx9bvztb5iuvan0fr,36wlnqg783nwvjyh52he2op5eqhbe3,6k46IkLK,2020-0188,2021-10-31,10:53:23,12:25:42,NA,incomplete,false,NA,true,NA,3,4,NA,NA,NA,right,NA,NA,NA,absent,NA,NA,n_s_080.jpg,red,n_l_035.jpg,red,within,NA,NaN,NA,NA,NA,NA,left,1517.1999999284744,0,0,1667.2999999523163
6k46IkLK,3087lxlj7ptluqx9bvztb5iuvan0fr,36wlnqg783nwvjyh52he2op5eqhbe3,6k46IkLK,2020-0188,2021-10-31,10:53:23,12:25:42,NA,incomplete,false,NA,true,NA,3,5,NA,NA,NA,left,NA,NA,NA,absent,NA,NA,n_s_107.jpg,black,m_s_062.jpg,red,between,NA,NaN,NA,NA,NA,NA,left,1228.3000000715256,1,0,1618.2999999523163
6k46IkLK,3087lxlj7ptluqx9bvztb5iuvan0fr,36wlnqg783nwvjyh52he2op5eqhbe3,6k46IkLK,2020-0188,2021-10-31,10:53:23,12:25:42,NA,incomplete,false,NA,true,NA,3,6,NA,NA,NA,right,NA,NA,NA,absent,NA,NA,m_s_105.jpg,blue,m_l_024.jpg,blue,within,NA,NaN,NA,NA,NA,NA,left,1524,0,0,2218.7999999523163
6k46IkLK,3087lxlj7ptluqx9bvztb5iuvan0fr,36wlnqg783nwvjyh52he2op5eqhbe3,6k46IkLK,2020-0188,2021-10-31,10:53:23,12:25:42,NA,incomplete,false,NA,true,NA,3,7,NA,NA,NA,right,NA,NA,NA,absent,NA,NA,m_l_010.jpg,white,m_l_062.jpg,yellow,between,NA,NaN,NA,NA,NA,NA,left,1178.8999999761581,0,0,1609.5
6k46IkLK,3087lxlj7ptluqx9bvztb5iuvan0fr,36wlnqg783nwvjyh52he2op5eqhbe3,6k46IkLK,2020-0188,2021-10-31,10:53:23,12:25:42,NA,incomplete,false,NA,true,NA,3,8,NA,NA,NA,right,NA,NA,NA,absent,NA,NA,n_s_100.jpg,yellow,n_s_006.jpg,yellow,within,NA,NaN,NA,NA,NA,NA,left,1419.1000000238419,0,0,1518.8000000715256
6k46IkLK,3087lxlj7ptluqx9bvztb5iuvan0fr,36wlnqg783nwvjyh52he2op5eqhbe3,6k46IkLK,2020-0188,2021-10-31,10:53:23,12:25:42,NA,incomplete,false,NA,true,NA,3,9,NA,NA,NA,left,NA,NA,NA,absent,NA,NA,n_l_068.jpg,black,m_l_113.jpg,black,within,NA,NaN,NA,NA,NA,NA,left,1279.5,1,0,1449.1000000238419
6k46IkLK,3087lxlj7ptluqx9bvztb5iuvan0fr,36wlnqg783nwvjyh52he2op5eqhbe3,6k46IkLK,2020-0188,2021-10-31,10:53:23,12:25:42,NA,incomplete,false,NA,true,NA,3,10,NA,NA,NA,right,NA,NA,NA,absent,NA,NA,n_l_055.jpg,purple,n_l_054.jpg,purple,within,NA,NaN,NA,NA,NA,NA,left,1459.1999999284744,0,0,1473.8999999761581
6k46IkLK,3087lxlj7ptluqx9bvztb5iuvan0fr,36wlnqg783nwvjyh52he2op5eqhbe3,6k46IkLK,2020-0188,2021-10-31,10:53:23,12:25:42,NA,incomplete,false,true,NA,NA,4,0,NA,blue,n_l_074.jpg,NA,NA,NA,NA,NA,pleasant,unpleasant,NA,NA,NA,NA,NA,left,2514.89999997616,true,NA,NA,NA,NA,NA,NA,NA,NA
6k46IkLK,3087lxlj7ptluqx9bvztb5iuvan0fr,36wlnqg783nwvjyh52he2op5eqhbe3,6k46IkLK,2020-0188,2021-10-31,10:53:23,12:25:42,NA,incomplete,false,true,NA,NA,4,1,NA,blue,n_l_069.jpg,NA,NA,NA,NA,NA,pleasant,unpleasant,NA,NA,NA,NA,NA,right,1112.89999997616,true,NA,NA,NA,NA,NA,NA,NA,NA
6k46IkLK,3087lxlj7ptluqx9bvztb5iuvan0fr,36wlnqg783nwvjyh52he2op5eqhbe3,6k46IkLK,2020-0188,2021-10-31,10:53:23,12:25:42,NA,incomplete,false,true,NA,NA,4,2,NA,blue,n_s_049.jpg,NA,NA,NA,NA,NA,unpleasant,pleasant,NA,NA,NA,NA,NA,left,696.700000047684,true,NA,NA,NA,NA,NA,NA,NA,NA
6k46IkLK,3087lxlj7ptluqx9bvztb5iuvan0fr,36wlnqg783nwvjyh52he2op5eqhbe3,6k46IkLK,2020-0188,2021-10-31,10:53:23,12:25:42,NA,incomplete,false,true,NA,NA,4,3,NA,blue,m_l_071.jpg,NA,NA,NA,NA,NA,unpleasant,pleasant,NA,NA,NA,NA,NA,right,834.100000023842,true,NA,NA,NA,NA,NA,NA,NA,NA
6k46IkLK,3087lxlj7ptluqx9bvztb5iuvan0fr,36wlnqg783nwvjyh52he2op5eqhbe3,6k46IkLK,2020-0188,2021-10-31,10:53:23,12:25:42,NA,incomplete,false,true,NA,NA,4,4,NA,blue,m_s_016.jpg,NA,NA,NA,NA,NA,unpleasant,pleasant,NA,NA,NA,NA,NA,left,734.700000047684,true,NA,NA,NA,NA,NA,NA,NA,NA
6k46IkLK,3087lxlj7ptluqx9bvztb5iuvan0fr,36wlnqg783nwvjyh52he2op5eqhbe3,6k46IkLK,2020-0188,2021-10-31,10:53:23,12:25:42,NA,incomplete,false,true,NA,NA,4,5,NA,blue,m_s_021.jpg,NA,NA,NA,NA,NA,pleasant,unpleasant,NA,NA,NA,NA,NA,right,979.600000023842,true,NA,NA,NA,NA,NA,NA,NA,NA
6k46IkLK,3087lxlj7ptluqx9bvztb5iuvan0fr,36wlnqg783nwvjyh52he2op5eqhbe3,6k46IkLK,2020-0188,2021-10-31,10:53:23,12:25:42,NA,incomplete,false,true,NA,NA,4,6,NA,white,m_l_107.jpg,NA,NA,NA,NA,NA,pleasant,unpleasant,NA,NA,NA,NA,NA,left,912.600000023842,true,NA,NA,NA,NA,NA,NA,NA,NA
6k46IkLK,3087lxlj7ptluqx9bvztb5iuvan0fr,36wlnqg783nwvjyh52he2op5eqhbe3,6k46IkLK,2020-0188,2021-10-31,10:53:23,12:25:42,NA,incomplete,false,true,NA,NA,4,7,NA,white,m_l_111.jpg,NA,NA,NA,NA,NA,pleasant,unpleasant,NA,NA,NA,NA,NA,right,689.299999952316,true,NA,NA,NA,NA,NA,NA,NA,NA
6k46IkLK,3087lxlj7ptluqx9bvztb5iuvan0fr,36wlnqg783nwvjyh52he2op5eqhbe3,6k46IkLK,2020-0188,2021-10-31,10:53:23,12:25:42,NA,incomplete,false,true,NA,NA,4,8,NA,white,n_s_073.jpg,NA,NA,NA,NA,NA,pleasant,unpleasant,NA,NA,NA,NA,NA,left,644.100000023842,true,NA,NA,NA,NA,NA,NA,NA,NA
6k46IkLK,3087lxlj7ptluqx9bvztb5iuvan0fr,36wlnqg783nwvjyh52he2op5eqhbe3,6k46IkLK,2020-0188,2021-10-31,10:53:23,12:25:42,NA,incomplete,false,true,NA,NA,4,9,NA,white,n_s_109.jpg,NA,NA,NA,NA,NA,pleasant,unpleasant,NA,NA,NA,NA,NA,right,699.899999976158,true,NA,NA,NA,NA,NA,NA,NA,NA
6k46IkLK,3087lxlj7ptluqx9bvztb5iuvan0fr,36wlnqg783nwvjyh52he2op5eqhbe3,6k46IkLK,2020-0188,2021-10-31,10:53:23,12:25:42,NA,incomplete,false,true,NA,NA,4,10,NA,white,m_l_043.jpg,NA,NA,NA,NA,NA,unpleasant,pleasant,NA,NA,NA,NA,NA,right,1037.89999997616,true,NA,NA,NA,NA,NA,NA,NA,NA
6k46IkLK,3087lxlj7ptluqx9bvztb5iuvan0fr,36wlnqg783nwvjyh52he2op5eqhbe3,6k46IkLK,2020-0188,2021-10-31,10:53:23,12:25:42,NA,incomplete,false,true,NA,NA,4,11,NA,white,m_s_003.jpg,NA,NA,NA,NA,NA,unpleasant,pleasant,NA,NA,NA,NA,NA,left,1378.5,true,NA,NA,NA,NA,NA,NA,NA,NA
6k46IkLK,3087lxlj7ptluqx9bvztb5iuvan0fr,36wlnqg783nwvjyh52he2op5eqhbe3,6k46IkLK,2020-0188,2021-10-31,10:53:23,12:25:42,NA,incomplete,false,true,NA,NA,4,12,NA,orange,m_s_084.jpg,NA,NA,NA,NA,NA,unpleasant,pleasant,NA,NA,NA,NA,NA,left,41.5,true,NA,NA,NA,NA,NA,NA,NA,NA
6k46IkLK,3087lxlj7ptluqx9bvztb5iuvan0fr,36wlnqg783nwvjyh52he2op5eqhbe3,6k46IkLK,2020-0188,2021-10-31,10:53:23,12:25:42,NA,incomplete,false,true,NA,NA,4,13,NA,orange,n_l_019.jpg,NA,NA,NA,NA,NA,unpleasant,pleasant,NA,NA,NA,NA,NA,right,1426.5,true,NA,NA,NA,NA,NA,NA,NA,NA
6k46IkLK,3087lxlj7ptluqx9bvztb5iuvan0fr,36wlnqg783nwvjyh52he2op5eqhbe3,6k46IkLK,2020-0188,2021-10-31,10:53:23,12:25:42,NA,incomplete,false,true,NA,NA,4,14,NA,orange,m_s_009.jpg,NA,NA,NA,NA,NA,pleasant,unpleasant,NA,NA,NA,NA,NA,right,793.700000047684,true,NA,NA,NA,NA,NA,NA,NA,NA
6k46IkLK,3087lxlj7ptluqx9bvztb5iuvan0fr,36wlnqg783nwvjyh52he2op5eqhbe3,6k46IkLK,2020-0188,2021-10-31,10:53:23,12:25:42,NA,incomplete,false,true,NA,NA,4,15,NA,orange,n_s_009.jpg,NA,NA,NA,NA,NA,unpleasant,pleasant,NA,NA,NA,NA,NA,left,736.299999952316,true,NA,NA,NA,NA,NA,NA,NA,NA
6k46IkLK,3087lxlj7ptluqx9bvztb5iuvan0fr,36wlnqg783nwvjyh52he2op5eqhbe3,6k46IkLK,2020-0188,2021-10-31,10:53:23,12:25:42,NA,incomplete,false,true,NA,NA,4,16,NA,orange,m_l_020.jpg,NA,NA,NA,NA,NA,unpleasant,pleasant,NA,NA,NA,NA,NA,right,709.899999976158,true,NA,NA,NA,NA,NA,NA,NA,NA
6k46IkLK,3087lxlj7ptluqx9bvztb5iuvan0fr,36wlnqg783nwvjyh52he2op5eqhbe3,6k46IkLK,2020-0188,2021-10-31,10:53:23,12:25:42,NA,incomplete,false,true,NA,NA,4,17,NA,orange,n_s_092.jpg,NA,NA,NA,NA,NA,pleasant,unpleasant,NA,NA,NA,NA,NA,left,786.5,true,NA,NA,NA,NA,NA,NA,NA,NA
6k46IkLK,3087lxlj7ptluqx9bvztb5iuvan0fr,36wlnqg783nwvjyh52he2op5eqhbe3,6k46IkLK,2020-0188,2021-10-31,10:53:23,12:25:42,NA,incomplete,false,true,NA,NA,4,18,NA,red,m_s_086.jpg,NA,NA,NA,NA,NA,unpleasant,pleasant,NA,NA,NA,NA,NA,right,666.799999952316,true,NA,NA,NA,NA,NA,NA,NA,NA
6k46IkLK,3087lxlj7ptluqx9bvztb5iuvan0fr,36wlnqg783nwvjyh52he2op5eqhbe3,6k46IkLK,2020-0188,2021-10-31,10:53:23,12:25:42,NA,incomplete,false,true,NA,NA,4,19,NA,red,n_s_079.jpg,NA,NA,NA,NA,NA,unpleasant,pleasant,NA,NA,NA,NA,NA,left,795.700000047684,true,NA,NA,NA,NA,NA,NA,NA,NA
6k46IkLK,3087lxlj7ptluqx9bvztb5iuvan0fr,36wlnqg783nwvjyh52he2op5eqhbe3,6k46IkLK,2020-0188,2021-10-31,10:53:23,12:25:42,NA,incomplete,false,true,NA,NA,4,20,NA,red,m_l_116.jpg,NA,NA,NA,NA,NA,unpleasant,pleasant,NA,NA,NA,NA,NA,right,201.700000047684,true,NA,NA,NA,NA,NA,NA,NA,NA
6k46IkLK,3087lxlj7ptluqx9bvztb5iuvan0fr,36wlnqg783nwvjyh52he2op5eqhbe3,6k46IkLK,2020-0188,2021-10-31,10:53:23,12:25:42,NA,incomplete,false,true,NA,NA,4,21,NA,red,n_s_052.jpg,NA,NA,NA,NA,NA,unpleasant,pleasant,NA,NA,NA,NA,NA,right,297.700000047684,true,NA,NA,NA,NA,NA,NA,NA,NA
6k46IkLK,3087lxlj7ptluqx9bvztb5iuvan0fr,36wlnqg783nwvjyh52he2op5eqhbe3,6k46IkLK,2020-0188,2021-10-31,10:53:23,12:25:42,NA,incomplete,false,true,NA,NA,4,22,NA,red,n_l_064.jpg,NA,NA,NA,NA,NA,unpleasant,pleasant,NA,NA,NA,NA,NA,left,1735,true,NA,NA,NA,NA,NA,NA,NA,NA
6k46IkLK,3087lxlj7ptluqx9bvztb5iuvan0fr,36wlnqg783nwvjyh52he2op5eqhbe3,6k46IkLK,2020-0188,2021-10-31,10:53:23,12:25:42,NA,incomplete,false,true,NA,NA,4,23,NA,red,n_l_034.jpg,NA,NA,NA,NA,NA,unpleasant,pleasant,NA,NA,NA,NA,NA,right,421.399999976158,true,NA,NA,NA,NA,NA,NA,NA,NA
6k46IkLK,3087lxlj7ptluqx9bvztb5iuvan0fr,36wlnqg783nwvjyh52he2op5eqhbe3,6k46IkLK,2020-0188,2021-10-31,10:53:23,12:25:42,NA,incomplete,false,true,NA,NA,4,24,NA,brown,n_l_057.jpg,NA,NA,NA,NA,NA,unpleasant,pleasant,NA,NA,NA,NA,NA,left,602,true,NA,NA,NA,NA,NA,NA,NA,NA
6k46IkLK,3087lxlj7ptluqx9bvztb5iuvan0fr,36wlnqg783nwvjyh52he2op5eqhbe3,6k46IkLK,2020-0188,2021-10-31,10:53:23,12:25:42,NA,incomplete,false,true,NA,NA,4,25,NA,brown,m_s_076.jpg,NA,NA,NA,NA,NA,pleasant,unpleasant,NA,NA,NA,NA,NA,right,1113.10000002384,true,NA,NA,NA,NA,NA,NA,NA,NA
6k46IkLK,3087lxlj7ptluqx9bvztb5iuvan0fr,36wlnqg783nwvjyh52he2op5eqhbe3,6k46IkLK,2020-0188,2021-10-31,10:53:23,12:25:42,NA,incomplete,false,true,NA,NA,4,26,NA,brown,n_l_058.jpg,NA,NA,NA,NA,NA,unpleasant,pleasant,NA,NA,NA,NA,NA,left,879.5,true,NA,NA,NA,NA,NA,NA,NA,NA
6k46IkLK,3087lxlj7ptluqx9bvztb5iuvan0fr,36wlnqg783nwvjyh52he2op5eqhbe3,6k46IkLK,2020-0188,2021-10-31,10:53:23,12:25:42,NA,incomplete,false,true,NA,NA,4,27,NA,brown,n_s_033.jpg,NA,NA,NA,NA,NA,unpleasant,pleasant,NA,NA,NA,NA,NA,right,939,true,NA,NA,NA,NA,NA,NA,NA,NA
6k46IkLK,3087lxlj7ptluqx9bvztb5iuvan0fr,36wlnqg783nwvjyh52he2op5eqhbe3,6k46IkLK,2020-0188,2021-10-31,10:53:23,12:25:42,NA,incomplete,false,true,NA,NA,4,28,NA,brown,m_l_098.jpg,NA,NA,NA,NA,NA,pleasant,unpleasant,NA,NA,NA,NA,NA,left,993,true,NA,NA,NA,NA,NA,NA,NA,NA
6k46IkLK,3087lxlj7ptluqx9bvztb5iuvan0fr,36wlnqg783nwvjyh52he2op5eqhbe3,6k46IkLK,2020-0188,2021-10-31,10:53:23,12:25:42,NA,incomplete,false,true,NA,NA,4,29,NA,brown,n_l_017.jpg,NA,NA,NA,NA,NA,pleasant,unpleasant,NA,NA,NA,NA,NA,right,803.799999952316,true,NA,NA,NA,NA,NA,NA,NA,NA
6k46IkLK,3087lxlj7ptluqx9bvztb5iuvan0fr,36wlnqg783nwvjyh52he2op5eqhbe3,6k46IkLK,2020-0188,2021-10-31,10:53:23,12:25:42,NA,incomplete,false,true,NA,NA,4,30,NA,black,m_l_007.jpg,NA,NA,NA,NA,NA,pleasant,unpleasant,NA,NA,NA,NA,NA,left,859.100000023842,true,NA,NA,NA,NA,NA,NA,NA,NA
6k46IkLK,3087lxlj7ptluqx9bvztb5iuvan0fr,36wlnqg783nwvjyh52he2op5eqhbe3,6k46IkLK,2020-0188,2021-10-31,10:53:23,12:25:42,NA,incomplete,false,true,NA,NA,4,31,NA,black,n_l_070.jpg,NA,NA,NA,NA,NA,unpleasant,pleasant,NA,NA,NA,NA,NA,right,900.5,true,NA,NA,NA,NA,NA,NA,NA,NA
6k46IkLK,3087lxlj7ptluqx9bvztb5iuvan0fr,36wlnqg783nwvjyh52he2op5eqhbe3,6k46IkLK,2020-0188,2021-10-31,10:53:23,12:25:42,NA,incomplete,false,true,NA,NA,4,32,NA,black,n_s_023.jpg,NA,NA,NA,NA,NA,pleasant,unpleasant,NA,NA,NA,NA,NA,left,601.700000047684,true,NA,NA,NA,NA,NA,NA,NA,NA
6k46IkLK,3087lxlj7ptluqx9bvztb5iuvan0fr,36wlnqg783nwvjyh52he2op5eqhbe3,6k46IkLK,2020-0188,2021-10-31,10:53:23,12:25:42,NA,incomplete,false,true,NA,NA,4,33,NA,black,n_s_032.jpg,NA,NA,NA,NA,NA,unpleasant,pleasant,NA,NA,NA,NA,NA,right,691.600000023842,true,NA,NA,NA,NA,NA,NA,NA,NA
6k46IkLK,3087lxlj7ptluqx9bvztb5iuvan0fr,36wlnqg783nwvjyh52he2op5eqhbe3,6k46IkLK,2020-0188,2021-10-31,10:53:23,12:25:42,NA,incomplete,false,true,NA,NA,4,34,NA,black,n_l_077.jpg,NA,NA,NA,NA,NA,unpleasant,pleasant,NA,NA,NA,NA,NA,left,690.100000023842,true,NA,NA,NA,NA,NA,NA,NA,NA
6k46IkLK,3087lxlj7ptluqx9bvztb5iuvan0fr,36wlnqg783nwvjyh52he2op5eqhbe3,6k46IkLK,2020-0188,2021-10-31,10:53:23,12:25:42,NA,incomplete,false,true,NA,NA,4,35,NA,black,n_l_049.jpg,NA,NA,NA,NA,NA,pleasant,unpleasant,NA,NA,NA,NA,NA,right,708.299999952316,true,NA,NA,NA,NA,NA,NA,NA,NA
6k46IkLK,3087lxlj7ptluqx9bvztb5iuvan0fr,36wlnqg783nwvjyh52he2op5eqhbe3,6k46IkLK,2020-0188,2021-10-31,10:53:23,12:25:42,NA,incomplete,false,NA,NA,true,4,0,NA,NA,NA,left,m_s_076.jpg,brown,black,NA,NA,NA,NA,NA,NA,NA,NA,NA,NaN,NA,1988.6000000238419,right,0,NA,NA,NA,NA,NA
6k46IkLK,3087lxlj7ptluqx9bvztb5iuvan0fr,36wlnqg783nwvjyh52he2op5eqhbe3,6k46IkLK,2020-0188,2021-10-31,10:53:23,12:25:42,NA,incomplete,false,NA,NA,true,4,1,NA,NA,NA,left,n_s_073.jpg,white,orange,NA,NA,NA,NA,NA,NA,NA,NA,NA,NaN,NA,1314.3999999761581,left,1,NA,NA,NA,NA,NA
6k46IkLK,3087lxlj7ptluqx9bvztb5iuvan0fr,36wlnqg783nwvjyh52he2op5eqhbe3,6k46IkLK,2020-0188,2021-10-31,10:53:23,12:25:42,NA,incomplete,false,NA,NA,true,4,2,NA,NA,NA,left,m_l_116.jpg,red,orange,NA,NA,NA,NA,NA,NA,NA,NA,NA,NaN,NA,1089.3999999761581,right,0,NA,NA,NA,NA,NA
6k46IkLK,3087lxlj7ptluqx9bvztb5iuvan0fr,36wlnqg783nwvjyh52he2op5eqhbe3,6k46IkLK,2020-0188,2021-10-31,10:53:23,12:25:42,NA,incomplete,false,NA,NA,true,4,3,NA,NA,NA,right,n_l_058.jpg,black,brown,NA,NA,NA,NA,NA,NA,NA,NA,NA,NaN,NA,1349.3000000715256,left,0,NA,NA,NA,NA,NA
6k46IkLK,3087lxlj7ptluqx9bvztb5iuvan0fr,36wlnqg783nwvjyh52he2op5eqhbe3,6k46IkLK,2020-0188,2021-10-31,10:53:23,12:25:42,NA,incomplete,false,NA,NA,true,4,4,NA,NA,NA,right,n_l_070.jpg,brown,black,NA,NA,NA,NA,NA,NA,NA,NA,NA,NaN,NA,1079.3000000715256,right,1,NA,NA,NA,NA,NA
6k46IkLK,3087lxlj7ptluqx9bvztb5iuvan0fr,36wlnqg783nwvjyh52he2op5eqhbe3,6k46IkLK,2020-0188,2021-10-31,10:53:23,12:25:42,NA,incomplete,false,NA,NA,true,4,5,NA,NA,NA,right,n_l_064.jpg,brown,red,NA,NA,NA,NA,NA,NA,NA,NA,NA,NaN,NA,1089.1000000238419,left,0,NA,NA,NA,NA,NA
6k46IkLK,3087lxlj7ptluqx9bvztb5iuvan0fr,36wlnqg783nwvjyh52he2op5eqhbe3,6k46IkLK,2020-0188,2021-10-31,10:53:23,12:25:42,NA,incomplete,false,NA,NA,true,4,6,NA,NA,NA,left,n_s_092.jpg,orange,white,NA,NA,NA,NA,NA,NA,NA,NA,NA,NaN,NA,1188.6000000238419,right,0,NA,NA,NA,NA,NA
6k46IkLK,3087lxlj7ptluqx9bvztb5iuvan0fr,36wlnqg783nwvjyh52he2op5eqhbe3,6k46IkLK,2020-0188,2021-10-31,10:53:23,12:25:42,NA,incomplete,false,NA,NA,true,4,7,NA,NA,NA,right,m_s_021.jpg,white,blue,NA,NA,NA,NA,NA,NA,NA,NA,NA,NaN,NA,1234.1000000238419,left,0,NA,NA,NA,NA,NA
6k46IkLK,3087lxlj7ptluqx9bvztb5iuvan0fr,36wlnqg783nwvjyh52he2op5eqhbe3,6k46IkLK,2020-0188,2021-10-31,10:53:23,12:25:42,NA,incomplete,false,NA,NA,true,4,8,NA,NA,NA,left,n_l_069.jpg,blue,white,NA,NA,NA,NA,NA,NA,NA,NA,NA,NaN,NA,1253.8000000715256,right,0,NA,NA,NA,NA,NA
6k46IkLK,3087lxlj7ptluqx9bvztb5iuvan0fr,36wlnqg783nwvjyh52he2op5eqhbe3,6k46IkLK,2020-0188,2021-10-31,10:53:23,12:25:42,NA,incomplete,false,NA,NA,true,4,9,NA,NA,NA,right,n_l_034.jpg,brown,red,NA,NA,NA,NA,NA,NA,NA,NA,NA,NaN,NA,1258.6000000238419,left,0,NA,NA,NA,NA,NA
6k46IkLK,3087lxlj7ptluqx9bvztb5iuvan0fr,36wlnqg783nwvjyh52he2op5eqhbe3,6k46IkLK,2020-0188,2021-10-31,10:53:23,12:25:42,NA,incomplete,false,NA,NA,true,4,10,NA,NA,NA,right,m_l_111.jpg,blue,white,NA,NA,NA,NA,NA,NA,NA,NA,NA,NaN,NA,1298.8999999761581,right,1,NA,NA,NA,NA,NA
6k46IkLK,3087lxlj7ptluqx9bvztb5iuvan0fr,36wlnqg783nwvjyh52he2op5eqhbe3,6k46IkLK,2020-0188,2021-10-31,10:53:23,12:25:42,NA,incomplete,false,NA,NA,true,4,11,NA,NA,NA,right,m_l_020.jpg,red,orange,NA,NA,NA,NA,NA,NA,NA,NA,NA,NaN,NA,1398.8000000715256,left,0,NA,NA,NA,NA,NA
6k46IkLK,3087lxlj7ptluqx9bvztb5iuvan0fr,36wlnqg783nwvjyh52he2op5eqhbe3,6k46IkLK,2020-0188,2021-10-31,10:53:23,12:25:42,NA,incomplete,false,NA,NA,true,4,12,NA,NA,NA,right,n_l_017.jpg,black,brown,NA,NA,NA,NA,NA,NA,NA,NA,NA,NaN,NA,929.1999999284744,right,1,NA,NA,NA,NA,NA
6k46IkLK,3087lxlj7ptluqx9bvztb5iuvan0fr,36wlnqg783nwvjyh52he2op5eqhbe3,6k46IkLK,2020-0188,2021-10-31,10:53:23,12:25:42,NA,incomplete,false,NA,NA,true,4,13,NA,NA,NA,left,n_s_079.jpg,red,orange,NA,NA,NA,NA,NA,NA,NA,NA,NA,NaN,NA,1228.6999999284744,left,1,NA,NA,NA,NA,NA
6k46IkLK,3087lxlj7ptluqx9bvztb5iuvan0fr,36wlnqg783nwvjyh52he2op5eqhbe3,6k46IkLK,2020-0188,2021-10-31,10:53:23,12:25:42,NA,incomplete,false,NA,NA,true,4,14,NA,NA,NA,left,m_l_098.jpg,brown,red,NA,NA,NA,NA,NA,NA,NA,NA,NA,NaN,NA,1119,right,0,NA,NA,NA,NA,NA
6k46IkLK,3087lxlj7ptluqx9bvztb5iuvan0fr,36wlnqg783nwvjyh52he2op5eqhbe3,6k46IkLK,2020-0188,2021-10-31,10:53:23,12:25:42,NA,incomplete,false,NA,NA,true,4,15,NA,NA,NA,right,m_s_003.jpg,orange,white,NA,NA,NA,NA,NA,NA,NA,NA,NA,NaN,NA,1448.8999999761581,left,0,NA,NA,NA,NA,NA
6k46IkLK,3087lxlj7ptluqx9bvztb5iuvan0fr,36wlnqg783nwvjyh52he2op5eqhbe3,6k46IkLK,2020-0188,2021-10-31,10:53:23,12:25:42,NA,incomplete,false,NA,NA,true,4,16,NA,NA,NA,left,m_s_009.jpg,orange,white,NA,NA,NA,NA,NA,NA,NA,NA,NA,NaN,NA,1108.7000000476837,right,0,NA,NA,NA,NA,NA
6k46IkLK,3087lxlj7ptluqx9bvztb5iuvan0fr,36wlnqg783nwvjyh52he2op5eqhbe3,6k46IkLK,2020-0188,2021-10-31,10:53:23,12:25:42,NA,incomplete,false,NA,NA,true,4,17,NA,NA,NA,right,m_l_043.jpg,blue,white,NA,NA,NA,NA,NA,NA,NA,NA,NA,NaN,NA,1389,right,1,NA,NA,NA,NA,NA
6k46IkLK,3087lxlj7ptluqx9bvztb5iuvan0fr,36wlnqg783nwvjyh52he2op5eqhbe3,6k46IkLK,2020-0188,2021-10-31,10:53:23,12:25:42,NA,incomplete,false,NA,NA,true,4,18,NA,NA,NA,right,n_l_019.jpg,white,orange,NA,NA,NA,NA,NA,NA,NA,NA,NA,NaN,NA,1128.2999999523163,right,1,NA,NA,NA,NA,NA
6k46IkLK,3087lxlj7ptluqx9bvztb5iuvan0fr,36wlnqg783nwvjyh52he2op5eqhbe3,6k46IkLK,2020-0188,2021-10-31,10:53:23,12:25:42,NA,incomplete,false,NA,NA,true,4,19,NA,NA,NA,left,n_s_023.jpg,black,brown,NA,NA,NA,NA,NA,NA,NA,NA,NA,NaN,NA,798.5,right,0,NA,NA,NA,NA,NA
6k46IkLK,3087lxlj7ptluqx9bvztb5iuvan0fr,36wlnqg783nwvjyh52he2op5eqhbe3,6k46IkLK,2020-0188,2021-10-31,10:53:23,12:25:42,NA,incomplete,false,NA,NA,true,4,20,NA,NA,NA,left,n_l_049.jpg,black,brown,NA,NA,NA,NA,NA,NA,NA,NA,NA,NaN,NA,1018.5,right,0,NA,NA,NA,NA,NA
6k46IkLK,3087lxlj7ptluqx9bvztb5iuvan0fr,36wlnqg783nwvjyh52he2op5eqhbe3,6k46IkLK,2020-0188,2021-10-31,10:53:23,12:25:42,NA,incomplete,false,NA,NA,true,4,21,NA,NA,NA,right,m_s_016.jpg,white,blue,NA,NA,NA,NA,NA,NA,NA,NA,NA,NaN,NA,1064,right,1,NA,NA,NA,NA,NA
6k46IkLK,3087lxlj7ptluqx9bvztb5iuvan0fr,36wlnqg783nwvjyh52he2op5eqhbe3,6k46IkLK,2020-0188,2021-10-31,10:53:23,12:25:42,NA,incomplete,false,NA,true,NA,4,0,NA,NA,NA,right,NA,NA,NA,absent,NA,NA,n_l_034.jpg,red,n_s_079.jpg,red,within,NA,NaN,NA,NA,NA,NA,right,1558.6999999284744,1,0,1649.1000000238419
6k46IkLK,3087lxlj7ptluqx9bvztb5iuvan0fr,36wlnqg783nwvjyh52he2op5eqhbe3,6k46IkLK,2020-0188,2021-10-31,10:53:23,12:25:42,NA,incomplete,false,NA,true,NA,4,1,NA,NA,NA,left,NA,NA,NA,absent,NA,NA,n_l_064.jpg,red,n_l_058.jpg,brown,between,NA,NaN,NA,NA,NA,NA,left,1288.6000000238419,1,1,1843.8999999761581
6k46IkLK,3087lxlj7ptluqx9bvztb5iuvan0fr,36wlnqg783nwvjyh52he2op5eqhbe3,6k46IkLK,2020-0188,2021-10-31,10:53:23,12:25:42,NA,incomplete,false,NA,true,NA,4,2,NA,NA,NA,right,NA,NA,NA,absent,NA,NA,n_s_092.jpg,orange,n_l_019.jpg,orange,within,NA,NaN,NA,NA,NA,NA,left,1748.6000000238419,0,0,1897.7999999523163
6k46IkLK,3087lxlj7ptluqx9bvztb5iuvan0fr,36wlnqg783nwvjyh52he2op5eqhbe3,6k46IkLK,2020-0188,2021-10-31,10:53:23,12:25:42,NA,incomplete,false,NA,true,NA,4,3,NA,NA,NA,left,NA,NA,NA,absent,NA,NA,m_s_016.jpg,blue,n_s_073.jpg,white,between,NA,NaN,NA,NA,NA,NA,left,1288.6000000238419,1,0,1808.8000000715256
6k46IkLK,3087lxlj7ptluqx9bvztb5iuvan0fr,36wlnqg783nwvjyh52he2op5eqhbe3,6k46IkLK,2020-0188,2021-10-31,10:53:23,12:25:42,NA,incomplete,false,NA,true,NA,4,4,NA,NA,NA,left,NA,NA,NA,absent,NA,NA,n_l_070.jpg,black,n_l_049.jpg,black,within,NA,NaN,NA,NA,NA,NA,left,1398.7999999523163,1,0,2048.3000000715256
6k46IkLK,3087lxlj7ptluqx9bvztb5iuvan0fr,36wlnqg783nwvjyh52he2op5eqhbe3,6k46IkLK,2020-0188,2021-10-31,10:53:23,12:25:42,NA,incomplete,false,NA,true,NA,4,5,NA,NA,NA,right,NA,NA,NA,absent,NA,NA,n_l_017.jpg,brown,m_s_076.jpg,brown,within,NA,NaN,NA,NA,NA,NA,left,1268.7000000476837,0,0,1638.3000000715256
6k46IkLK,3087lxlj7ptluqx9bvztb5iuvan0fr,36wlnqg783nwvjyh52he2op5eqhbe3,6k46IkLK,2020-0188,2021-10-31,10:53:23,12:25:42,NA,incomplete,false,NA,true,NA,4,6,NA,NA,NA,left,NA,NA,NA,absent,NA,NA,n_l_069.jpg,blue,m_s_021.jpg,blue,within,NA,NaN,NA,NA,NA,NA,left,1383.8999999761581,1,0,1707.2999999523163
6k46IkLK,3087lxlj7ptluqx9bvztb5iuvan0fr,36wlnqg783nwvjyh52he2op5eqhbe3,6k46IkLK,2020-0188,2021-10-31,10:53:23,12:25:42,NA,incomplete,false,NA,true,NA,4,7,NA,NA,NA,right,NA,NA,NA,absent,NA,NA,m_s_009.jpg,orange,m_l_043.jpg,white,between,NA,NaN,NA,NA,NA,NA,left,1288.4000000953674,0,0,1438.1000000238419
6k46IkLK,3087lxlj7ptluqx9bvztb5iuvan0fr,36wlnqg783nwvjyh52he2op5eqhbe3,6k46IkLK,2020-0188,2021-10-31,10:53:23,12:25:42,NA,incomplete,false,NA,true,NA,4,8,NA,NA,NA,left,NA,NA,NA,absent,NA,NA,m_l_111.jpg,white,m_s_003.jpg,white,within,NA,NaN,NA,NA,NA,NA,left,1193.1000000238419,1,0,1658.6000000238419
6k46IkLK,3087lxlj7ptluqx9bvztb5iuvan0fr,36wlnqg783nwvjyh52he2op5eqhbe3,6k46IkLK,2020-0188,2021-10-31,10:53:23,12:25:42,NA,incomplete,false,NA,true,NA,4,9,NA,NA,NA,left,NA,NA,NA,absent,NA,NA,m_l_098.jpg,brown,n_s_023.jpg,black,between,NA,NaN,NA,NA,NA,NA,left,1319.3000000715256,1,0,1334.2999999523163
6k46IkLK,3087lxlj7ptluqx9bvztb5iuvan0fr,36wlnqg783nwvjyh52he2op5eqhbe3,6k46IkLK,2020-0188,2021-10-31,10:53:23,12:25:42,NA,incomplete,false,NA,true,NA,4,10,NA,NA,NA,left,NA,NA,NA,absent,NA,NA,m_l_020.jpg,orange,m_l_116.jpg,red,between,NA,NaN,NA,NA,NA,NA,left,1229,1,0,1889.1999999284744
6k46IkLK,3087lxlj7ptluqx9bvztb5iuvan0fr,36wlnqg783nwvjyh52he2op5eqhbe3,6k46IkLK,2020-0188,2021-10-31,10:53:23,12:25:42,NA,incomplete,false,true,NA,NA,5,0,NA,black,m_s_060.jpg,NA,NA,NA,NA,NA,pleasant,unpleasant,NA,NA,NA,NA,NA,left,3283.79999995232,true,NA,NA,NA,NA,NA,NA,NA,NA
6k46IkLK,3087lxlj7ptluqx9bvztb5iuvan0fr,36wlnqg783nwvjyh52he2op5eqhbe3,6k46IkLK,2020-0188,2021-10-31,10:53:23,12:25:42,NA,incomplete,false,true,NA,NA,5,1,NA,black,m_l_050.jpg,NA,NA,NA,NA,NA,unpleasant,pleasant,NA,NA,NA,NA,NA,right,1782.5,true,NA,NA,NA,NA,NA,NA,NA,NA
6k46IkLK,3087lxlj7ptluqx9bvztb5iuvan0fr,36wlnqg783nwvjyh52he2op5eqhbe3,6k46IkLK,2020-0188,2021-10-31,10:53:23,12:25:42,NA,incomplete,false,true,NA,NA,5,2,NA,black,m_s_017.jpg,NA,NA,NA,NA,NA,pleasant,unpleasant,NA,NA,NA,NA,NA,left,1425,true,NA,NA,NA,NA,NA,NA,NA,NA
6k46IkLK,3087lxlj7ptluqx9bvztb5iuvan0fr,36wlnqg783nwvjyh52he2op5eqhbe3,6k46IkLK,2020-0188,2021-10-31,10:53:23,12:25:42,NA,incomplete,false,true,NA,NA,5,3,NA,black,m_s_089.jpg,NA,NA,NA,NA,NA,pleasant,unpleasant,NA,NA,NA,NA,NA,right,911.199999928474,true,NA,NA,NA,NA,NA,NA,NA,NA
6k46IkLK,3087lxlj7ptluqx9bvztb5iuvan0fr,36wlnqg783nwvjyh52he2op5eqhbe3,6k46IkLK,2020-0188,2021-10-31,10:53:23,12:25:42,NA,incomplete,false,true,NA,NA,5,4,NA,black,n_s_045.jpg,NA,NA,NA,NA,NA,unpleasant,pleasant,NA,NA,NA,NA,NA,left,404.5,true,NA,NA,NA,NA,NA,NA,NA,NA
6k46IkLK,3087lxlj7ptluqx9bvztb5iuvan0fr,36wlnqg783nwvjyh52he2op5eqhbe3,6k46IkLK,2020-0188,2021-10-31,10:53:23,12:25:42,NA,incomplete,false,true,NA,NA,5,5,NA,black,n_s_059.jpg,NA,NA,NA,NA,NA,unpleasant,pleasant,NA,NA,NA,NA,NA,left,158.299999952316,true,NA,NA,NA,NA,NA,NA,NA,NA
6k46IkLK,3087lxlj7ptluqx9bvztb5iuvan0fr,36wlnqg783nwvjyh52he2op5eqhbe3,6k46IkLK,2020-0188,2021-10-31,10:53:23,12:25:42,NA,incomplete,false,true,NA,NA,5,6,NA,brown,m_l_117.jpg,NA,NA,NA,NA,NA,pleasant,unpleasant,NA,NA,NA,NA,NA,right,33.6000000238419,true,NA,NA,NA,NA,NA,NA,NA,NA
6k46IkLK,3087lxlj7ptluqx9bvztb5iuvan0fr,36wlnqg783nwvjyh52he2op5eqhbe3,6k46IkLK,2020-0188,2021-10-31,10:53:23,12:25:42,NA,incomplete,false,true,NA,NA,5,7,NA,brown,m_s_082.jpg,NA,NA,NA,NA,NA,unpleasant,pleasant,NA,NA,NA,NA,NA,left,1033.10000002384,true,NA,NA,NA,NA,NA,NA,NA,NA
6k46IkLK,3087lxlj7ptluqx9bvztb5iuvan0fr,36wlnqg783nwvjyh52he2op5eqhbe3,6k46IkLK,2020-0188,2021-10-31,10:53:23,12:25:42,NA,incomplete,false,true,NA,NA,5,8,NA,brown,m_s_020.jpg,NA,NA,NA,NA,NA,pleasant,unpleasant,NA,NA,NA,NA,NA,left,1779,true,NA,NA,NA,NA,NA,NA,NA,NA
6k46IkLK,3087lxlj7ptluqx9bvztb5iuvan0fr,36wlnqg783nwvjyh52he2op5eqhbe3,6k46IkLK,2020-0188,2021-10-31,10:53:23,12:25:42,NA,incomplete,false,true,NA,NA,5,9,NA,brown,n_l_079.jpg,NA,NA,NA,NA,NA,unpleasant,pleasant,NA,NA,NA,NA,NA,right,827.399999976158,true,NA,NA,NA,NA,NA,NA,NA,NA
6k46IkLK,3087lxlj7ptluqx9bvztb5iuvan0fr,36wlnqg783nwvjyh52he2op5eqhbe3,6k46IkLK,2020-0188,2021-10-31,10:53:23,12:25:42,NA,incomplete,false,true,NA,NA,5,10,NA,brown,m_s_045.jpg,NA,NA,NA,NA,NA,unpleasant,pleasant,NA,NA,NA,NA,NA,left,727.700000047684,true,NA,NA,NA,NA,NA,NA,NA,NA
6k46IkLK,3087lxlj7ptluqx9bvztb5iuvan0fr,36wlnqg783nwvjyh52he2op5eqhbe3,6k46IkLK,2020-0188,2021-10-31,10:53:23,12:25:42,NA,incomplete,false,true,NA,NA,5,11,NA,brown,m_l_026.jpg,NA,NA,NA,NA,NA,pleasant,unpleasant,NA,NA,NA,NA,NA,right,1979.70000004768,true,NA,NA,NA,NA,NA,NA,NA,NA
6k46IkLK,3087lxlj7ptluqx9bvztb5iuvan0fr,36wlnqg783nwvjyh52he2op5eqhbe3,6k46IkLK,2020-0188,2021-10-31,10:53:23,12:25:42,NA,incomplete,false,true,NA,NA,5,12,NA,red,m_l_109.jpg,NA,NA,NA,NA,NA,pleasant,unpleasant,NA,NA,NA,NA,NA,left,778.700000047684,true,NA,NA,NA,NA,NA,NA,NA,NA
6k46IkLK,3087lxlj7ptluqx9bvztb5iuvan0fr,36wlnqg783nwvjyh52he2op5eqhbe3,6k46IkLK,2020-0188,2021-10-31,10:53:23,12:25:42,NA,incomplete,false,true,NA,NA,5,13,NA,red,n_l_026.jpg,NA,NA,NA,NA,NA,pleasant,unpleasant,NA,NA,NA,NA,NA,left,947.899999976158,true,NA,NA,NA,NA,NA,NA,NA,NA
6k46IkLK,3087lxlj7ptluqx9bvztb5iuvan0fr,36wlnqg783nwvjyh52he2op5eqhbe3,6k46IkLK,2020-0188,2021-10-31,10:53:23,12:25:42,NA,incomplete,false,true,NA,NA,5,14,NA,red,n_l_012.jpg,NA,NA,NA,NA,NA,pleasant,unpleasant,NA,NA,NA,NA,NA,right,644.399999976158,true,NA,NA,NA,NA,NA,NA,NA,NA
6k46IkLK,3087lxlj7ptluqx9bvztb5iuvan0fr,36wlnqg783nwvjyh52he2op5eqhbe3,6k46IkLK,2020-0188,2021-10-31,10:53:23,12:25:42,NA,incomplete,false,true,NA,NA,5,15,NA,red,m_s_030.jpg,NA,NA,NA,NA,NA,pleasant,unpleasant,NA,NA,NA,NA,NA,left,1012.79999995232,true,NA,NA,NA,NA,NA,NA,NA,NA
6k46IkLK,3087lxlj7ptluqx9bvztb5iuvan0fr,36wlnqg783nwvjyh52he2op5eqhbe3,6k46IkLK,2020-0188,2021-10-31,10:53:23,12:25:42,NA,incomplete,false,true,NA,NA,5,16,NA,red,m_s_108.jpg,NA,NA,NA,NA,NA,pleasant,unpleasant,NA,NA,NA,NA,NA,right,592.899999976158,true,NA,NA,NA,NA,NA,NA,NA,NA
