workerId,hitId,assignmentId,subject,studyid,exp_date,exp_start,exp_end,time_start,time_end,practice,encoding,memory,association,block,trial,event_order,event,stim,answer,object,left_context,right_context,context_type,label_left,label_right,left_image,left_event,right_image,right_event,condition,response,response_time,response_acc,association_response_time,association_response,association_acc,order_response,order_response_time,order_acc,distance_response,distance_response_time
BJVkpg3Z,3bakuke4akpi45n0y93n6zfn3q3r1f,38bquhla90deq1f3q5ajlguduqemos,BJVkpg3Z,2020-0188,2021-10-30,23:21:54,00:53:51,NA,incomplete,true,true,NA,NA,0,0,NA,yellow,m_l_032.jpg,NA,NA,NA,NA,NA,pleasant,unpleasant,NA,NA,NA,NA,NA,right,1930.29999995232,true,NA,NA,NA,NA,NA,NA,NA,NA
BJVkpg3Z,3bakuke4akpi45n0y93n6zfn3q3r1f,38bquhla90deq1f3q5ajlguduqemos,BJVkpg3Z,2020-0188,2021-10-30,23:21:54,00:53:51,NA,incomplete,true,true,NA,NA,0,1,NA,yellow,n_s_088.jpg,NA,NA,NA,NA,NA,pleasant,unpleasant,NA,NA,NA,NA,NA,left,2576.70000004768,true,NA,NA,NA,NA,NA,NA,NA,NA
BJVkpg3Z,3bakuke4akpi45n0y93n6zfn3q3r1f,38bquhla90deq1f3q5ajlguduqemos,BJVkpg3Z,2020-0188,2021-10-30,23:21:54,00:53:51,NA,incomplete,true,true,NA,NA,0,2,NA,yellow,m_s_117.jpg,NA,NA,NA,NA,NA,unpleasant,pleasant,NA,NA,NA,NA,NA,left,2723.29999995232,true,NA,NA,NA,NA,NA,NA,NA,NA
BJVkpg3Z,3bakuke4akpi45n0y93n6zfn3q3r1f,38bquhla90deq1f3q5ajlguduqemos,BJVkpg3Z,2020-0188,2021-10-30,23:21:54,00:53:51,NA,incomplete,true,true,NA,NA,0,3,NA,yellow,n_s_035.jpg,NA,NA,NA,NA,NA,unpleasant,pleasant,NA,NA,NA,NA,NA,left,2636.59999990463,true,NA,NA,NA,NA,NA,NA,NA,NA
BJVkpg3Z,3bakuke4akpi45n0y93n6zfn3q3r1f,38bquhla90deq1f3q5ajlguduqemos,BJVkpg3Z,2020-0188,2021-10-30,23:21:54,00:53:51,NA,incomplete,true,true,NA,NA,0,4,NA,yellow,m_s_042.jpg,NA,NA,NA,NA,NA,unpleasant,pleasant,NA,NA,NA,NA,NA,right,1714.79999995232,true,NA,NA,NA,NA,NA,NA,NA,NA
BJVkpg3Z,3bakuke4akpi45n0y93n6zfn3q3r1f,38bquhla90deq1f3q5ajlguduqemos,BJVkpg3Z,2020-0188,2021-10-30,23:21:54,00:53:51,NA,incomplete,true,true,NA,NA,0,5,NA,yellow,n_l_108.jpg,NA,NA,NA,NA,NA,unpleasant,pleasant,NA,NA,NA,NA,NA,right,2709.09999990463,true,NA,NA,NA,NA,NA,NA,NA,NA
BJVkpg3Z,3bakuke4akpi45n0y93n6zfn3q3r1f,38bquhla90deq1f3q5ajlguduqemos,BJVkpg3Z,2020-0188,2021-10-30,23:21:54,00:53:51,NA,incomplete,true,true,NA,NA,0,6,NA,blue,n_l_069.jpg,NA,NA,NA,NA,NA,unpleasant,pleasant,NA,NA,NA,NA,NA,right,2396.89999985695,true,NA,NA,NA,NA,NA,NA,NA,NA
BJVkpg3Z,3bakuke4akpi45n0y93n6zfn3q3r1f,38bquhla90deq1f3q5ajlguduqemos,BJVkpg3Z,2020-0188,2021-10-30,23:21:54,00:53:51,NA,incomplete,true,true,NA,NA,0,7,NA,blue,n_s_023.jpg,NA,NA,NA,NA,NA,unpleasant,pleasant,NA,NA,NA,NA,NA,left,1892.60000014305,true,NA,NA,NA,NA,NA,NA,NA,NA
BJVkpg3Z,3bakuke4akpi45n0y93n6zfn3q3r1f,38bquhla90deq1f3q5ajlguduqemos,BJVkpg3Z,2020-0188,2021-10-30,23:21:54,00:53:51,NA,incomplete,true,true,NA,NA,0,8,NA,blue,m_l_099.jpg,NA,NA,NA,NA,NA,pleasant,unpleasant,NA,NA,NA,NA,NA,right,1516.90000009537,true,NA,NA,NA,NA,NA,NA,NA,NA
BJVkpg3Z,3bakuke4akpi45n0y93n6zfn3q3r1f,38bquhla90deq1f3q5ajlguduqemos,BJVkpg3Z,2020-0188,2021-10-30,23:21:54,00:53:51,NA,incomplete,true,true,NA,NA,0,9,NA,blue,m_s_097.jpg,NA,NA,NA,NA,NA,pleasant,unpleasant,NA,NA,NA,NA,NA,right,1856.5,true,NA,NA,NA,NA,NA,NA,NA,NA
BJVkpg3Z,3bakuke4akpi45n0y93n6zfn3q3r1f,38bquhla90deq1f3q5ajlguduqemos,BJVkpg3Z,2020-0188,2021-10-30,23:21:54,00:53:51,NA,incomplete,true,true,NA,NA,0,10,NA,blue,n_l_065.jpg,NA,NA,NA,NA,NA,pleasant,unpleasant,NA,NA,NA,NA,NA,right,2618.79999995232,true,NA,NA,NA,NA,NA,NA,NA,NA
BJVkpg3Z,3bakuke4akpi45n0y93n6zfn3q3r1f,38bquhla90deq1f3q5ajlguduqemos,BJVkpg3Z,2020-0188,2021-10-30,23:21:54,00:53:51,NA,incomplete,true,true,NA,NA,0,11,NA,blue,m_l_013.jpg,NA,NA,NA,NA,NA,pleasant,unpleasant,NA,NA,NA,NA,NA,left,1572.59999990463,true,NA,NA,NA,NA,NA,NA,NA,NA
BJVkpg3Z,3bakuke4akpi45n0y93n6zfn3q3r1f,38bquhla90deq1f3q5ajlguduqemos,BJVkpg3Z,2020-0188,2021-10-30,23:21:54,00:53:51,NA,incomplete,true,true,NA,NA,0,12,NA,purple,m_l_090.jpg,NA,NA,NA,NA,NA,pleasant,unpleasant,NA,NA,NA,NA,NA,left,1675.09999990463,true,NA,NA,NA,NA,NA,NA,NA,NA
BJVkpg3Z,3bakuke4akpi45n0y93n6zfn3q3r1f,38bquhla90deq1f3q5ajlguduqemos,BJVkpg3Z,2020-0188,2021-10-30,23:21:54,00:53:51,NA,incomplete,true,true,NA,NA,0,13,NA,purple,m_s_053.jpg,NA,NA,NA,NA,NA,pleasant,unpleasant,NA,NA,NA,NA,NA,left,1491.40000009537,true,NA,NA,NA,NA,NA,NA,NA,NA
BJVkpg3Z,3bakuke4akpi45n0y93n6zfn3q3r1f,38bquhla90deq1f3q5ajlguduqemos,BJVkpg3Z,2020-0188,2021-10-30,23:21:54,00:53:51,NA,incomplete,true,true,NA,NA,0,14,NA,purple,n_s_069.jpg,NA,NA,NA,NA,NA,unpleasant,pleasant,NA,NA,NA,NA,NA,left,1985,true,NA,NA,NA,NA,NA,NA,NA,NA
BJVkpg3Z,3bakuke4akpi45n0y93n6zfn3q3r1f,38bquhla90deq1f3q5ajlguduqemos,BJVkpg3Z,2020-0188,2021-10-30,23:21:54,00:53:51,NA,incomplete,true,true,NA,NA,0,15,NA,purple,n_l_038.jpg,NA,NA,NA,NA,NA,unpleasant,pleasant,NA,NA,NA,NA,NA,right,2525.70000004768,true,NA,NA,NA,NA,NA,NA,NA,NA
BJVkpg3Z,3bakuke4akpi45n0y93n6zfn3q3r1f,38bquhla90deq1f3q5ajlguduqemos,BJVkpg3Z,2020-0188,2021-10-30,23:21:54,00:53:51,NA,incomplete,true,true,NA,NA,0,16,NA,purple,m_s_022.jpg,NA,NA,NA,NA,NA,pleasant,unpleasant,NA,NA,NA,NA,NA,left,1577.79999995232,true,NA,NA,NA,NA,NA,NA,NA,NA
BJVkpg3Z,3bakuke4akpi45n0y93n6zfn3q3r1f,38bquhla90deq1f3q5ajlguduqemos,BJVkpg3Z,2020-0188,2021-10-30,23:21:54,00:53:51,NA,incomplete,true,true,NA,NA,0,17,NA,purple,m_l_027.jpg,NA,NA,NA,NA,NA,unpleasant,pleasant,NA,NA,NA,NA,NA,right,2270.79999995232,true,NA,NA,NA,NA,NA,NA,NA,NA
BJVkpg3Z,3bakuke4akpi45n0y93n6zfn3q3r1f,38bquhla90deq1f3q5ajlguduqemos,BJVkpg3Z,2020-0188,2021-10-30,23:21:54,00:53:51,NA,incomplete,true,true,NA,NA,0,18,NA,green,n_s_053.jpg,NA,NA,NA,NA,NA,unpleasant,pleasant,NA,NA,NA,NA,NA,left,2601.5,true,NA,NA,NA,NA,NA,NA,NA,NA
BJVkpg3Z,3bakuke4akpi45n0y93n6zfn3q3r1f,38bquhla90deq1f3q5ajlguduqemos,BJVkpg3Z,2020-0188,2021-10-30,23:21:54,00:53:51,NA,incomplete,true,true,NA,NA,0,19,NA,green,n_s_048.jpg,NA,NA,NA,NA,NA,pleasant,unpleasant,NA,NA,NA,NA,NA,left,1890.09999990463,true,NA,NA,NA,NA,NA,NA,NA,NA
BJVkpg3Z,3bakuke4akpi45n0y93n6zfn3q3r1f,38bquhla90deq1f3q5ajlguduqemos,BJVkpg3Z,2020-0188,2021-10-30,23:21:54,00:53:51,NA,incomplete,true,true,NA,NA,0,20,NA,green,n_s_016.jpg,NA,NA,NA,NA,NA,unpleasant,pleasant,NA,NA,NA,NA,NA,left,1834.5,true,NA,NA,NA,NA,NA,NA,NA,NA
BJVkpg3Z,3bakuke4akpi45n0y93n6zfn3q3r1f,38bquhla90deq1f3q5ajlguduqemos,BJVkpg3Z,2020-0188,2021-10-30,23:21:54,00:53:51,NA,incomplete,true,true,NA,NA,0,21,NA,green,m_l_074.jpg,NA,NA,NA,NA,NA,pleasant,unpleasant,NA,NA,NA,NA,NA,left,2039.80000019073,true,NA,NA,NA,NA,NA,NA,NA,NA
BJVkpg3Z,3bakuke4akpi45n0y93n6zfn3q3r1f,38bquhla90deq1f3q5ajlguduqemos,BJVkpg3Z,2020-0188,2021-10-30,23:21:54,00:53:51,NA,incomplete,true,true,NA,NA,0,22,NA,green,m_s_050.jpg,NA,NA,NA,NA,NA,unpleasant,pleasant,NA,NA,NA,NA,NA,none,0,false,NA,NA,NA,NA,NA,NA,NA,NA
BJVkpg3Z,3bakuke4akpi45n0y93n6zfn3q3r1f,38bquhla90deq1f3q5ajlguduqemos,BJVkpg3Z,2020-0188,2021-10-30,23:21:54,00:53:51,NA,incomplete,true,true,NA,NA,0,23,NA,green,m_s_010.jpg,NA,NA,NA,NA,NA,pleasant,unpleasant,NA,NA,NA,NA,NA,right,1791.60000014305,true,NA,NA,NA,NA,NA,NA,NA,NA
BJVkpg3Z,3bakuke4akpi45n0y93n6zfn3q3r1f,38bquhla90deq1f3q5ajlguduqemos,BJVkpg3Z,2020-0188,2021-10-30,23:21:54,00:53:51,NA,incomplete,true,true,NA,NA,0,24,NA,orange,n_l_042.jpg,NA,NA,NA,NA,NA,unpleasant,pleasant,NA,NA,NA,NA,NA,right,2903.5,true,NA,NA,NA,NA,NA,NA,NA,NA
BJVkpg3Z,3bakuke4akpi45n0y93n6zfn3q3r1f,38bquhla90deq1f3q5ajlguduqemos,BJVkpg3Z,2020-0188,2021-10-30,23:21:54,00:53:51,NA,incomplete,true,true,NA,NA,0,25,NA,orange,n_s_031.jpg,NA,NA,NA,NA,NA,unpleasant,pleasant,NA,NA,NA,NA,NA,right,2445.60000014305,true,NA,NA,NA,NA,NA,NA,NA,NA
BJVkpg3Z,3bakuke4akpi45n0y93n6zfn3q3r1f,38bquhla90deq1f3q5ajlguduqemos,BJVkpg3Z,2020-0188,2021-10-30,23:21:54,00:53:51,NA,incomplete,true,true,NA,NA,0,26,NA,orange,m_s_005.jpg,NA,NA,NA,NA,NA,unpleasant,pleasant,NA,NA,NA,NA,NA,left,1823.29999995232,true,NA,NA,NA,NA,NA,NA,NA,NA
BJVkpg3Z,3bakuke4akpi45n0y93n6zfn3q3r1f,38bquhla90deq1f3q5ajlguduqemos,BJVkpg3Z,2020-0188,2021-10-30,23:21:54,00:53:51,NA,incomplete,true,true,NA,NA,0,27,NA,orange,n_s_029.jpg,NA,NA,NA,NA,NA,unpleasant,pleasant,NA,NA,NA,NA,NA,left,1668.79999995232,true,NA,NA,NA,NA,NA,NA,NA,NA
BJVkpg3Z,3bakuke4akpi45n0y93n6zfn3q3r1f,38bquhla90deq1f3q5ajlguduqemos,BJVkpg3Z,2020-0188,2021-10-30,23:21:54,00:53:51,NA,incomplete,true,true,NA,NA,0,28,NA,orange,m_l_086.jpg,NA,NA,NA,NA,NA,pleasant,unpleasant,NA,NA,NA,NA,NA,right,2317.29999995232,true,NA,NA,NA,NA,NA,NA,NA,NA
BJVkpg3Z,3bakuke4akpi45n0y93n6zfn3q3r1f,38bquhla90deq1f3q5ajlguduqemos,BJVkpg3Z,2020-0188,2021-10-30,23:21:54,00:53:51,NA,incomplete,true,true,NA,NA,0,29,NA,orange,m_s_105.jpg,NA,NA,NA,NA,NA,pleasant,unpleasant,NA,NA,NA,NA,NA,left,1874.09999990463,true,NA,NA,NA,NA,NA,NA,NA,NA
BJVkpg3Z,3bakuke4akpi45n0y93n6zfn3q3r1f,38bquhla90deq1f3q5ajlguduqemos,BJVkpg3Z,2020-0188,2021-10-30,23:21:54,00:53:51,NA,incomplete,true,true,NA,NA,0,30,NA,black,m_l_073.jpg,NA,NA,NA,NA,NA,pleasant,unpleasant,NA,NA,NA,NA,NA,left,1660,true,NA,NA,NA,NA,NA,NA,NA,NA
BJVkpg3Z,3bakuke4akpi45n0y93n6zfn3q3r1f,38bquhla90deq1f3q5ajlguduqemos,BJVkpg3Z,2020-0188,2021-10-30,23:21:54,00:53:51,NA,incomplete,true,true,NA,NA,0,31,NA,black,n_l_066.jpg,NA,NA,NA,NA,NA,pleasant,unpleasant,NA,NA,NA,NA,NA,left,2512.20000004768,true,NA,NA,NA,NA,NA,NA,NA,NA
BJVkpg3Z,3bakuke4akpi45n0y93n6zfn3q3r1f,38bquhla90deq1f3q5ajlguduqemos,BJVkpg3Z,2020-0188,2021-10-30,23:21:54,00:53:51,NA,incomplete,true,true,NA,NA,0,32,NA,black,n_s_043.jpg,NA,NA,NA,NA,NA,pleasant,unpleasant,NA,NA,NA,NA,NA,right,1606.10000014305,true,NA,NA,NA,NA,NA,NA,NA,NA
BJVkpg3Z,3bakuke4akpi45n0y93n6zfn3q3r1f,38bquhla90deq1f3q5ajlguduqemos,BJVkpg3Z,2020-0188,2021-10-30,23:21:54,00:53:51,NA,incomplete,true,true,NA,NA,0,33,NA,black,n_s_017.jpg,NA,NA,NA,NA,NA,unpleasant,pleasant,NA,NA,NA,NA,NA,left,2058.5,true,NA,NA,NA,NA,NA,NA,NA,NA
BJVkpg3Z,3bakuke4akpi45n0y93n6zfn3q3r1f,38bquhla90deq1f3q5ajlguduqemos,BJVkpg3Z,2020-0188,2021-10-30,23:21:54,00:53:51,NA,incomplete,true,true,NA,NA,0,34,NA,black,n_s_045.jpg,NA,NA,NA,NA,NA,unpleasant,pleasant,NA,NA,NA,NA,NA,right,2180.79999995232,true,NA,NA,NA,NA,NA,NA,NA,NA
BJVkpg3Z,3bakuke4akpi45n0y93n6zfn3q3r1f,38bquhla90deq1f3q5ajlguduqemos,BJVkpg3Z,2020-0188,2021-10-30,23:21:54,00:53:51,NA,incomplete,true,true,NA,NA,0,35,NA,black,m_s_044.jpg,NA,NA,NA,NA,NA,unpleasant,pleasant,NA,NA,NA,NA,NA,right,1786.5,true,NA,NA,NA,NA,NA,NA,NA,NA
BJVkpg3Z,3bakuke4akpi45n0y93n6zfn3q3r1f,38bquhla90deq1f3q5ajlguduqemos,BJVkpg3Z,2020-0188,2021-10-30,23:21:54,00:53:51,NA,incomplete,true,NA,NA,true,0,0,NA,NA,NA,left,n_s_031.jpg,orange,black,NA,NA,NA,NA,NA,NA,NA,NA,NA,NaN,NA,3957,left,1,NA,NA,NA,NA,NA
BJVkpg3Z,3bakuke4akpi45n0y93n6zfn3q3r1f,38bquhla90deq1f3q5ajlguduqemos,BJVkpg3Z,2020-0188,2021-10-30,23:21:54,00:53:51,NA,incomplete,true,NA,NA,true,0,1,NA,NA,NA,left,m_s_053.jpg,purple,blue,NA,NA,NA,NA,NA,NA,NA,NA,NA,NaN,NA,2413.4000000953674,left,1,NA,NA,NA,NA,NA
BJVkpg3Z,3bakuke4akpi45n0y93n6zfn3q3r1f,38bquhla90deq1f3q5ajlguduqemos,BJVkpg3Z,2020-0188,2021-10-30,23:21:54,00:53:51,NA,incomplete,true,NA,NA,true,0,2,NA,NA,NA,left,n_s_023.jpg,blue,yellow,NA,NA,NA,NA,NA,NA,NA,NA,NA,NaN,NA,2491.4000000953674,left,1,NA,NA,NA,NA,NA
BJVkpg3Z,3bakuke4akpi45n0y93n6zfn3q3r1f,38bquhla90deq1f3q5ajlguduqemos,BJVkpg3Z,2020-0188,2021-10-30,23:21:54,00:53:51,NA,incomplete,true,NA,NA,true,0,3,NA,NA,NA,right,m_l_099.jpg,purple,blue,NA,NA,NA,NA,NA,NA,NA,NA,NA,NaN,NA,1819.5,right,1,NA,NA,NA,NA,NA
BJVkpg3Z,3bakuke4akpi45n0y93n6zfn3q3r1f,38bquhla90deq1f3q5ajlguduqemos,BJVkpg3Z,2020-0188,2021-10-30,23:21:54,00:53:51,NA,incomplete,true,NA,NA,true,0,4,NA,NA,NA,left,n_s_069.jpg,purple,green,NA,NA,NA,NA,NA,NA,NA,NA,NA,NaN,NA,4261.700000047684,left,1,NA,NA,NA,NA,NA
BJVkpg3Z,3bakuke4akpi45n0y93n6zfn3q3r1f,38bquhla90deq1f3q5ajlguduqemos,BJVkpg3Z,2020-0188,2021-10-30,23:21:54,00:53:51,NA,incomplete,true,NA,NA,true,0,5,NA,NA,NA,left,n_s_088.jpg,yellow,blue,NA,NA,NA,NA,NA,NA,NA,NA,NA,NaN,NA,1962.1999998092651,left,1,NA,NA,NA,NA,NA
BJVkpg3Z,3bakuke4akpi45n0y93n6zfn3q3r1f,38bquhla90deq1f3q5ajlguduqemos,BJVkpg3Z,2020-0188,2021-10-30,23:21:54,00:53:51,NA,incomplete,true,NA,NA,true,0,6,NA,NA,NA,right,n_l_066.jpg,orange,black,NA,NA,NA,NA,NA,NA,NA,NA,NA,NaN,NA,2141.7999999523163,right,1,NA,NA,NA,NA,NA
BJVkpg3Z,3bakuke4akpi45n0y93n6zfn3q3r1f,38bquhla90deq1f3q5ajlguduqemos,BJVkpg3Z,2020-0188,2021-10-30,23:21:54,00:53:51,NA,incomplete,true,NA,NA,true,0,7,NA,NA,NA,left,n_s_043.jpg,black,orange,NA,NA,NA,NA,NA,NA,NA,NA,NA,NaN,NA,2052.300000190735,left,1,NA,NA,NA,NA,NA
BJVkpg3Z,3bakuke4akpi45n0y93n6zfn3q3r1f,38bquhla90deq1f3q5ajlguduqemos,BJVkpg3Z,2020-0188,2021-10-30,23:21:54,00:53:51,NA,incomplete,true,NA,NA,true,0,8,NA,NA,NA,left,n_s_048.jpg,green,purple,NA,NA,NA,NA,NA,NA,NA,NA,NA,NaN,NA,2154.0999999046326,left,1,NA,NA,NA,NA,NA
BJVkpg3Z,3bakuke4akpi45n0y93n6zfn3q3r1f,38bquhla90deq1f3q5ajlguduqemos,BJVkpg3Z,2020-0188,2021-10-30,23:21:54,00:53:51,NA,incomplete,true,NA,NA,true,0,9,NA,NA,NA,right,m_s_105.jpg,black,orange,NA,NA,NA,NA,NA,NA,NA,NA,NA,NaN,NA,2190.7000000476837,right,1,NA,NA,NA,NA,NA
BJVkpg3Z,3bakuke4akpi45n0y93n6zfn3q3r1f,38bquhla90deq1f3q5ajlguduqemos,BJVkpg3Z,2020-0188,2021-10-30,23:21:54,00:53:51,NA,incomplete,true,NA,NA,true,0,10,NA,NA,NA,right,n_l_108.jpg,blue,yellow,NA,NA,NA,NA,NA,NA,NA,NA,NA,NaN,NA,1892,right,1,NA,NA,NA,NA,NA
BJVkpg3Z,3bakuke4akpi45n0y93n6zfn3q3r1f,38bquhla90deq1f3q5ajlguduqemos,BJVkpg3Z,2020-0188,2021-10-30,23:21:54,00:53:51,NA,incomplete,true,NA,NA,true,0,11,NA,NA,NA,left,m_s_050.jpg,green,orange,NA,NA,NA,NA,NA,NA,NA,NA,NA,NaN,NA,4565.5,left,1,NA,NA,NA,NA,NA
BJVkpg3Z,3bakuke4akpi45n0y93n6zfn3q3r1f,38bquhla90deq1f3q5ajlguduqemos,BJVkpg3Z,2020-0188,2021-10-30,23:21:54,00:53:51,NA,incomplete,true,NA,NA,true,0,12,NA,NA,NA,right,m_l_086.jpg,green,orange,NA,NA,NA,NA,NA,NA,NA,NA,NA,NaN,NA,4401.200000047684,right,1,NA,NA,NA,NA,NA
BJVkpg3Z,3bakuke4akpi45n0y93n6zfn3q3r1f,38bquhla90deq1f3q5ajlguduqemos,BJVkpg3Z,2020-0188,2021-10-30,23:21:54,00:53:51,NA,incomplete,true,NA,NA,true,0,13,NA,NA,NA,left,n_l_065.jpg,blue,purple,NA,NA,NA,NA,NA,NA,NA,NA,NA,NaN,NA,2137.2000000476837,left,1,NA,NA,NA,NA,NA
BJVkpg3Z,3bakuke4akpi45n0y93n6zfn3q3r1f,38bquhla90deq1f3q5ajlguduqemos,BJVkpg3Z,2020-0188,2021-10-30,23:21:54,00:53:51,NA,incomplete,true,NA,NA,true,0,14,NA,NA,NA,left,m_s_044.jpg,black,orange,NA,NA,NA,NA,NA,NA,NA,NA,NA,NaN,NA,1950.1000001430511,left,1,NA,NA,NA,NA,NA
BJVkpg3Z,3bakuke4akpi45n0y93n6zfn3q3r1f,38bquhla90deq1f3q5ajlguduqemos,BJVkpg3Z,2020-0188,2021-10-30,23:21:54,00:53:51,NA,incomplete,true,NA,NA,true,0,15,NA,NA,NA,right,m_s_042.jpg,blue,yellow,NA,NA,NA,NA,NA,NA,NA,NA,NA,NaN,NA,1943.3000001907349,right,1,NA,NA,NA,NA,NA
BJVkpg3Z,3bakuke4akpi45n0y93n6zfn3q3r1f,38bquhla90deq1f3q5ajlguduqemos,BJVkpg3Z,2020-0188,2021-10-30,23:21:54,00:53:51,NA,incomplete,true,NA,NA,true,0,16,NA,NA,NA,right,m_s_005.jpg,black,orange,NA,NA,NA,NA,NA,NA,NA,NA,NA,NaN,NA,1995.7000000476837,right,1,NA,NA,NA,NA,NA
BJVkpg3Z,3bakuke4akpi45n0y93n6zfn3q3r1f,38bquhla90deq1f3q5ajlguduqemos,BJVkpg3Z,2020-0188,2021-10-30,23:21:54,00:53:51,NA,incomplete,true,NA,NA,true,0,17,NA,NA,NA,left,m_l_013.jpg,blue,purple,NA,NA,NA,NA,NA,NA,NA,NA,NA,NaN,NA,2047.6999998092651,left,1,NA,NA,NA,NA,NA
BJVkpg3Z,3bakuke4akpi45n0y93n6zfn3q3r1f,38bquhla90deq1f3q5ajlguduqemos,BJVkpg3Z,2020-0188,2021-10-30,23:21:54,00:53:51,NA,incomplete,true,NA,NA,true,0,18,NA,NA,NA,right,m_s_022.jpg,blue,purple,NA,NA,NA,NA,NA,NA,NA,NA,NA,NaN,NA,4175.600000143051,right,1,NA,NA,NA,NA,NA
BJVkpg3Z,3bakuke4akpi45n0y93n6zfn3q3r1f,38bquhla90deq1f3q5ajlguduqemos,BJVkpg3Z,2020-0188,2021-10-30,23:21:54,00:53:51,NA,incomplete,true,NA,NA,true,0,19,NA,NA,NA,right,n_s_016.jpg,orange,green,NA,NA,NA,NA,NA,NA,NA,NA,NA,NaN,NA,1852.6000001430511,right,1,NA,NA,NA,NA,NA
BJVkpg3Z,3bakuke4akpi45n0y93n6zfn3q3r1f,38bquhla90deq1f3q5ajlguduqemos,BJVkpg3Z,2020-0188,2021-10-30,23:21:54,00:53:51,NA,incomplete,true,NA,NA,true,0,20,NA,NA,NA,left,m_s_010.jpg,green,purple,NA,NA,NA,NA,NA,NA,NA,NA,NA,NaN,NA,7167.5,left,1,NA,NA,NA,NA,NA
BJVkpg3Z,3bakuke4akpi45n0y93n6zfn3q3r1f,38bquhla90deq1f3q5ajlguduqemos,BJVkpg3Z,2020-0188,2021-10-30,23:21:54,00:53:51,NA,incomplete,true,NA,NA,true,0,21,NA,NA,NA,right,m_l_027.jpg,blue,purple,NA,NA,NA,NA,NA,NA,NA,NA,NA,NaN,NA,2111.5,right,1,NA,NA,NA,NA,NA
BJVkpg3Z,3bakuke4akpi45n0y93n6zfn3q3r1f,38bquhla90deq1f3q5ajlguduqemos,BJVkpg3Z,2020-0188,2021-10-30,23:21:54,00:53:51,NA,incomplete,true,NA,true,NA,0,0,NA,NA,NA,left,NA,NA,NA,absent,NA,NA,m_s_050.jpg,green,m_s_005.jpg,orange,between,NA,NaN,NA,NA,NA,NA,left,3504.600000143051,1,1,7344.400000095367
BJVkpg3Z,3bakuke4akpi45n0y93n6zfn3q3r1f,38bquhla90deq1f3q5ajlguduqemos,BJVkpg3Z,2020-0188,2021-10-30,23:21:54,00:53:51,NA,incomplete,true,NA,true,NA,0,1,NA,NA,NA,left,NA,NA,NA,absent,NA,NA,m_s_053.jpg,purple,m_l_027.jpg,purple,within,NA,NaN,NA,NA,NA,NA,right,4273.799999952316,0,0,1949.4000000953674
BJVkpg3Z,3bakuke4akpi45n0y93n6zfn3q3r1f,38bquhla90deq1f3q5ajlguduqemos,BJVkpg3Z,2020-0188,2021-10-30,23:21:54,00:53:51,NA,incomplete,true,NA,true,NA,0,2,NA,NA,NA,left,NA,NA,NA,absent,NA,NA,m_s_022.jpg,purple,n_s_016.jpg,green,between,NA,NaN,NA,NA,NA,NA,left,5537.899999856949,1,2,1565.0999999046326
BJVkpg3Z,3bakuke4akpi45n0y93n6zfn3q3r1f,38bquhla90deq1f3q5ajlguduqemos,BJVkpg3Z,2020-0188,2021-10-30,23:21:54,00:53:51,NA,incomplete,true,NA,true,NA,0,3,NA,NA,NA,left,NA,NA,NA,absent,NA,NA,n_s_048.jpg,green,m_s_010.jpg,green,within,NA,NaN,NA,NA,NA,NA,right,4194,0,2,3649.899999856949
BJVkpg3Z,3bakuke4akpi45n0y93n6zfn3q3r1f,38bquhla90deq1f3q5ajlguduqemos,BJVkpg3Z,2020-0188,2021-10-30,23:21:54,00:53:51,NA,incomplete,true,NA,true,NA,0,4,NA,NA,NA,right,NA,NA,NA,absent,NA,NA,m_s_044.jpg,black,n_l_066.jpg,black,within,NA,NaN,NA,NA,NA,NA,right,4717.900000095367,1,0,3171.300000190735
BJVkpg3Z,3bakuke4akpi45n0y93n6zfn3q3r1f,38bquhla90deq1f3q5ajlguduqemos,BJVkpg3Z,2020-0188,2021-10-30,23:21:54,00:53:51,NA,incomplete,true,NA,true,NA,0,5,NA,NA,NA,left,NA,NA,NA,absent,NA,NA,n_s_031.jpg,orange,m_s_105.jpg,orange,within,NA,NaN,NA,NA,NA,NA,right,5896.199999809265,0,0,2141.7999999523163
BJVkpg3Z,3bakuke4akpi45n0y93n6zfn3q3r1f,38bquhla90deq1f3q5ajlguduqemos,BJVkpg3Z,2020-0188,2021-10-30,23:21:54,00:53:51,NA,incomplete,true,NA,true,NA,0,6,NA,NA,NA,left,NA,NA,NA,absent,NA,NA,n_l_065.jpg,blue,n_s_069.jpg,purple,between,NA,NaN,NA,NA,NA,NA,left,5401.400000095367,1,2,1612.5
BJVkpg3Z,3bakuke4akpi45n0y93n6zfn3q3r1f,38bquhla90deq1f3q5ajlguduqemos,BJVkpg3Z,2020-0188,2021-10-30,23:21:54,00:53:51,NA,incomplete,true,NA,true,NA,0,7,NA,NA,NA,right,NA,NA,NA,absent,NA,NA,m_l_099.jpg,blue,m_s_042.jpg,yellow,between,NA,NaN,NA,NA,NA,NA,left,5613.899999856949,0,2,1335.5999999046326
BJVkpg3Z,3bakuke4akpi45n0y93n6zfn3q3r1f,38bquhla90deq1f3q5ajlguduqemos,BJVkpg3Z,2020-0188,2021-10-30,23:21:54,00:53:51,NA,incomplete,true,NA,true,NA,0,8,NA,NA,NA,left,NA,NA,NA,absent,NA,NA,n_s_023.jpg,blue,m_l_013.jpg,blue,within,NA,NaN,NA,NA,NA,NA,left,4640,1,1,2586.399999856949
BJVkpg3Z,3bakuke4akpi45n0y93n6zfn3q3r1f,38bquhla90deq1f3q5ajlguduqemos,BJVkpg3Z,2020-0188,2021-10-30,23:21:54,00:53:51,NA,incomplete,true,NA,true,NA,0,9,NA,NA,NA,left,NA,NA,NA,absent,NA,NA,n_s_088.jpg,yellow,n_l_108.jpg,yellow,within,NA,NaN,NA,NA,NA,NA,left,3590.2000000476837,1,1,1420
BJVkpg3Z,3bakuke4akpi45n0y93n6zfn3q3r1f,38bquhla90deq1f3q5ajlguduqemos,BJVkpg3Z,2020-0188,2021-10-30,23:21:54,00:53:51,NA,incomplete,true,NA,true,NA,0,10,NA,NA,NA,left,NA,NA,NA,absent,NA,NA,m_l_086.jpg,orange,n_s_043.jpg,black,between,NA,NaN,NA,NA,NA,NA,left,5355.900000095367,1,2,3160.0999999046326
BJVkpg3Z,3bakuke4akpi45n0y93n6zfn3q3r1f,38bquhla90deq1f3q5ajlguduqemos,BJVkpg3Z,2020-0188,2021-10-30,23:21:54,00:53:51,NA,incomplete,false,true,NA,NA,1,0,NA,red,n_s_036.jpg,NA,NA,NA,NA,NA,unpleasant,pleasant,NA,NA,NA,NA,NA,left,2166.20000004768,true,NA,NA,NA,NA,NA,NA,NA,NA
BJVkpg3Z,3bakuke4akpi45n0y93n6zfn3q3r1f,38bquhla90deq1f3q5ajlguduqemos,BJVkpg3Z,2020-0188,2021-10-30,23:21:54,00:53:51,NA,incomplete,false,true,NA,NA,1,1,NA,red,n_l_023.jpg,NA,NA,NA,NA,NA,unpleasant,pleasant,NA,NA,NA,NA,NA,left,2029.39999985695,true,NA,NA,NA,NA,NA,NA,NA,NA
BJVkpg3Z,3bakuke4akpi45n0y93n6zfn3q3r1f,38bquhla90deq1f3q5ajlguduqemos,BJVkpg3Z,2020-0188,2021-10-30,23:21:54,00:53:51,NA,incomplete,false,true,NA,NA,1,2,NA,red,n_s_097.jpg,NA,NA,NA,NA,NA,unpleasant,pleasant,NA,NA,NA,NA,NA,left,1874.59999990463,true,NA,NA,NA,NA,NA,NA,NA,NA
BJVkpg3Z,3bakuke4akpi45n0y93n6zfn3q3r1f,38bquhla90deq1f3q5ajlguduqemos,BJVkpg3Z,2020-0188,2021-10-30,23:21:54,00:53:51,NA,incomplete,false,true,NA,NA,1,3,NA,red,n_l_111.jpg,NA,NA,NA,NA,NA,unpleasant,pleasant,NA,NA,NA,NA,NA,left,1673.19999980927,true,NA,NA,NA,NA,NA,NA,NA,NA
BJVkpg3Z,3bakuke4akpi45n0y93n6zfn3q3r1f,38bquhla90deq1f3q5ajlguduqemos,BJVkpg3Z,2020-0188,2021-10-30,23:21:54,00:53:51,NA,incomplete,false,true,NA,NA,1,4,NA,red,m_l_043.jpg,NA,NA,NA,NA,NA,pleasant,unpleasant,NA,NA,NA,NA,NA,left,1956.29999995232,true,NA,NA,NA,NA,NA,NA,NA,NA
BJVkpg3Z,3bakuke4akpi45n0y93n6zfn3q3r1f,38bquhla90deq1f3q5ajlguduqemos,BJVkpg3Z,2020-0188,2021-10-30,23:21:54,00:53:51,NA,incomplete,false,true,NA,NA,1,5,NA,red,n_s_113.jpg,NA,NA,NA,NA,NA,pleasant,unpleasant,NA,NA,NA,NA,NA,right,1514,true,NA,NA,NA,NA,NA,NA,NA,NA
BJVkpg3Z,3bakuke4akpi45n0y93n6zfn3q3r1f,38bquhla90deq1f3q5ajlguduqemos,BJVkpg3Z,2020-0188,2021-10-30,23:21:54,00:53:51,NA,incomplete,false,true,NA,NA,1,6,NA,purple,n_l_080.jpg,NA,NA,NA,NA,NA,unpleasant,pleasant,NA,NA,NA,NA,NA,right,2334.90000009537,true,NA,NA,NA,NA,NA,NA,NA,NA
BJVkpg3Z,3bakuke4akpi45n0y93n6zfn3q3r1f,38bquhla90deq1f3q5ajlguduqemos,BJVkpg3Z,2020-0188,2021-10-30,23:21:54,00:53:51,NA,incomplete,false,true,NA,NA,1,7,NA,purple,m_s_087.jpg,NA,NA,NA,NA,NA,unpleasant,pleasant,NA,NA,NA,NA,NA,right,1674,true,NA,NA,NA,NA,NA,NA,NA,NA
BJVkpg3Z,3bakuke4akpi45n0y93n6zfn3q3r1f,38bquhla90deq1f3q5ajlguduqemos,BJVkpg3Z,2020-0188,2021-10-30,23:21:54,00:53:51,NA,incomplete,false,true,NA,NA,1,8,NA,purple,m_s_019.jpg,NA,NA,NA,NA,NA,pleasant,unpleasant,NA,NA,NA,NA,NA,right,1540.60000014305,true,NA,NA,NA,NA,NA,NA,NA,NA
BJVkpg3Z,3bakuke4akpi45n0y93n6zfn3q3r1f,38bquhla90deq1f3q5ajlguduqemos,BJVkpg3Z,2020-0188,2021-10-30,23:21:54,00:53:51,NA,incomplete,false,true,NA,NA,1,9,NA,purple,m_s_094.jpg,NA,NA,NA,NA,NA,pleasant,unpleasant,NA,NA,NA,NA,NA,right,1805.39999985695,true,NA,NA,NA,NA,NA,NA,NA,NA
BJVkpg3Z,3bakuke4akpi45n0y93n6zfn3q3r1f,38bquhla90deq1f3q5ajlguduqemos,BJVkpg3Z,2020-0188,2021-10-30,23:21:54,00:53:51,NA,incomplete,false,true,NA,NA,1,10,NA,purple,m_s_032.jpg,NA,NA,NA,NA,NA,unpleasant,pleasant,NA,NA,NA,NA,NA,right,1335.59999990463,true,NA,NA,NA,NA,NA,NA,NA,NA
BJVkpg3Z,3bakuke4akpi45n0y93n6zfn3q3r1f,38bquhla90deq1f3q5ajlguduqemos,BJVkpg3Z,2020-0188,2021-10-30,23:21:54,00:53:51,NA,incomplete,false,true,NA,NA,1,11,NA,purple,n_l_008.jpg,NA,NA,NA,NA,NA,unpleasant,pleasant,NA,NA,NA,NA,NA,left,1227.30000019073,true,NA,NA,NA,NA,NA,NA,NA,NA
BJVkpg3Z,3bakuke4akpi45n0y93n6zfn3q3r1f,38bquhla90deq1f3q5ajlguduqemos,BJVkpg3Z,2020-0188,2021-10-30,23:21:54,00:53:51,NA,incomplete,false,true,NA,NA,1,12,NA,green,n_s_090.jpg,NA,NA,NA,NA,NA,pleasant,unpleasant,NA,NA,NA,NA,NA,left,1924.89999985695,true,NA,NA,NA,NA,NA,NA,NA,NA
BJVkpg3Z,3bakuke4akpi45n0y93n6zfn3q3r1f,38bquhla90deq1f3q5ajlguduqemos,BJVkpg3Z,2020-0188,2021-10-30,23:21:54,00:53:51,NA,incomplete,false,true,NA,NA,1,13,NA,green,m_s_092.jpg,NA,NA,NA,NA,NA,pleasant,unpleasant,NA,NA,NA,NA,NA,left,1738,true,NA,NA,NA,NA,NA,NA,NA,NA
BJVkpg3Z,3bakuke4akpi45n0y93n6zfn3q3r1f,38bquhla90deq1f3q5ajlguduqemos,BJVkpg3Z,2020-0188,2021-10-30,23:21:54,00:53:51,NA,incomplete,false,true,NA,NA,1,14,NA,green,n_l_107.jpg,NA,NA,NA,NA,NA,pleasant,unpleasant,NA,NA,NA,NA,NA,right,1314.90000009537,true,NA,NA,NA,NA,NA,NA,NA,NA
BJVkpg3Z,3bakuke4akpi45n0y93n6zfn3q3r1f,38bquhla90deq1f3q5ajlguduqemos,BJVkpg3Z,2020-0188,2021-10-30,23:21:54,00:53:51,NA,incomplete,false,true,NA,NA,1,15,NA,green,n_l_052.jpg,NA,NA,NA,NA,NA,pleasant,unpleasant,NA,NA,NA,NA,NA,right,1367.39999985695,true,NA,NA,NA,NA,NA,NA,NA,NA
BJVkpg3Z,3bakuke4akpi45n0y93n6zfn3q3r1f,38bquhla90deq1f3q5ajlguduqemos,BJVkpg3Z,2020-0188,2021-10-30,23:21:54,00:53:51,NA,incomplete,false,true,NA,NA,1,16,NA,green,n_l_104.jpg,NA,NA,NA,NA,NA,unpleasant,pleasant,NA,NA,NA,NA,NA,left,1695.20000004768,true,NA,NA,NA,NA,NA,NA,NA,NA
BJVkpg3Z,3bakuke4akpi45n0y93n6zfn3q3r1f,38bquhla90deq1f3q5ajlguduqemos,BJVkpg3Z,2020-0188,2021-10-30,23:21:54,00:53:51,NA,incomplete,false,true,NA,NA,1,17,NA,green,m_s_056.jpg,NA,NA,NA,NA,NA,unpleasant,pleasant,NA,NA,NA,NA,NA,right,1909.29999995232,true,NA,NA,NA,NA,NA,NA,NA,NA
BJVkpg3Z,3bakuke4akpi45n0y93n6zfn3q3r1f,38bquhla90deq1f3q5ajlguduqemos,BJVkpg3Z,2020-0188,2021-10-30,23:21:54,00:53:51,NA,incomplete,false,true,NA,NA,1,18,NA,brown,m_s_059.jpg,NA,NA,NA,NA,NA,unpleasant,pleasant,NA,NA,NA,NA,NA,right,1979.10000014305,true,NA,NA,NA,NA,NA,NA,NA,NA
BJVkpg3Z,3bakuke4akpi45n0y93n6zfn3q3r1f,38bquhla90deq1f3q5ajlguduqemos,BJVkpg3Z,2020-0188,2021-10-30,23:21:54,00:53:51,NA,incomplete,false,true,NA,NA,1,19,NA,brown,n_s_037.jpg,NA,NA,NA,NA,NA,unpleasant,pleasant,NA,NA,NA,NA,NA,left,1583.20000004768,true,NA,NA,NA,NA,NA,NA,NA,NA
BJVkpg3Z,3bakuke4akpi45n0y93n6zfn3q3r1f,38bquhla90deq1f3q5ajlguduqemos,BJVkpg3Z,2020-0188,2021-10-30,23:21:54,00:53:51,NA,incomplete,false,true,NA,NA,1,20,NA,brown,m_l_004.jpg,NA,NA,NA,NA,NA,pleasant,unpleasant,NA,NA,NA,NA,NA,left,1864.59999990463,true,NA,NA,NA,NA,NA,NA,NA,NA
BJVkpg3Z,3bakuke4akpi45n0y93n6zfn3q3r1f,38bquhla90deq1f3q5ajlguduqemos,BJVkpg3Z,2020-0188,2021-10-30,23:21:54,00:53:51,NA,incomplete,false,true,NA,NA,1,21,NA,brown,n_l_094.jpg,NA,NA,NA,NA,NA,unpleasant,pleasant,NA,NA,NA,NA,NA,right,1595.10000014305,true,NA,NA,NA,NA,NA,NA,NA,NA
BJVkpg3Z,3bakuke4akpi45n0y93n6zfn3q3r1f,38bquhla90deq1f3q5ajlguduqemos,BJVkpg3Z,2020-0188,2021-10-30,23:21:54,00:53:51,NA,incomplete,false,true,NA,NA,1,22,NA,brown,n_s_080.jpg,NA,NA,NA,NA,NA,pleasant,unpleasant,NA,NA,NA,NA,NA,right,2213.09999990463,true,NA,NA,NA,NA,NA,NA,NA,NA
BJVkpg3Z,3bakuke4akpi45n0y93n6zfn3q3r1f,38bquhla90deq1f3q5ajlguduqemos,BJVkpg3Z,2020-0188,2021-10-30,23:21:54,00:53:51,NA,incomplete,false,true,NA,NA,1,23,NA,brown,n_l_051.jpg,NA,NA,NA,NA,NA,pleasant,unpleasant,NA,NA,NA,NA,NA,left,1453.10000014305,true,NA,NA,NA,NA,NA,NA,NA,NA
BJVkpg3Z,3bakuke4akpi45n0y93n6zfn3q3r1f,38bquhla90deq1f3q5ajlguduqemos,BJVkpg3Z,2020-0188,2021-10-30,23:21:54,00:53:51,NA,incomplete,false,true,NA,NA,1,24,NA,gray,n_s_107.jpg,NA,NA,NA,NA,NA,unpleasant,pleasant,NA,NA,NA,NA,NA,left,2541.79999995232,true,NA,NA,NA,NA,NA,NA,NA,NA
BJVkpg3Z,3bakuke4akpi45n0y93n6zfn3q3r1f,38bquhla90deq1f3q5ajlguduqemos,BJVkpg3Z,2020-0188,2021-10-30,23:21:54,00:53:51,NA,incomplete,false,true,NA,NA,1,25,NA,gray,n_l_115.jpg,NA,NA,NA,NA,NA,unpleasant,pleasant,NA,NA,NA,NA,NA,right,2303,true,NA,NA,NA,NA,NA,NA,NA,NA
BJVkpg3Z,3bakuke4akpi45n0y93n6zfn3q3r1f,38bquhla90deq1f3q5ajlguduqemos,BJVkpg3Z,2020-0188,2021-10-30,23:21:54,00:53:51,NA,incomplete,false,true,NA,NA,1,26,NA,gray,n_s_087.jpg,NA,NA,NA,NA,NA,unpleasant,pleasant,NA,NA,NA,NA,NA,left,1730.29999995232,true,NA,NA,NA,NA,NA,NA,NA,NA
BJVkpg3Z,3bakuke4akpi45n0y93n6zfn3q3r1f,38bquhla90deq1f3q5ajlguduqemos,BJVkpg3Z,2020-0188,2021-10-30,23:21:54,00:53:51,NA,incomplete,false,true,NA,NA,1,27,NA,gray,n_l_096.jpg,NA,NA,NA,NA,NA,unpleasant,pleasant,NA,NA,NA,NA,NA,right,1618.60000014305,true,NA,NA,NA,NA,NA,NA,NA,NA
BJVkpg3Z,3bakuke4akpi45n0y93n6zfn3q3r1f,38bquhla90deq1f3q5ajlguduqemos,BJVkpg3Z,2020-0188,2021-10-30,23:21:54,00:53:51,NA,incomplete,false,true,NA,NA,1,28,NA,gray,n_l_049.jpg,NA,NA,NA,NA,NA,pleasant,unpleasant,NA,NA,NA,NA,NA,left,2043.29999995232,true,NA,NA,NA,NA,NA,NA,NA,NA
BJVkpg3Z,3bakuke4akpi45n0y93n6zfn3q3r1f,38bquhla90deq1f3q5ajlguduqemos,BJVkpg3Z,2020-0188,2021-10-30,23:21:54,00:53:51,NA,incomplete,false,true,NA,NA,1,29,NA,gray,n_s_011.jpg,NA,NA,NA,NA,NA,pleasant,unpleasant,NA,NA,NA,NA,NA,left,1636.90000009537,true,NA,NA,NA,NA,NA,NA,NA,NA
BJVkpg3Z,3bakuke4akpi45n0y93n6zfn3q3r1f,38bquhla90deq1f3q5ajlguduqemos,BJVkpg3Z,2020-0188,2021-10-30,23:21:54,00:53:51,NA,incomplete,false,true,NA,NA,1,30,NA,black,m_s_066.jpg,NA,NA,NA,NA,NA,pleasant,unpleasant,NA,NA,NA,NA,NA,left,1823.40000009537,true,NA,NA,NA,NA,NA,NA,NA,NA
BJVkpg3Z,3bakuke4akpi45n0y93n6zfn3q3r1f,38bquhla90deq1f3q5ajlguduqemos,BJVkpg3Z,2020-0188,2021-10-30,23:21:54,00:53:51,NA,incomplete,false,true,NA,NA,1,31,NA,black,m_s_082.jpg,NA,NA,NA,NA,NA,pleasant,unpleasant,NA,NA,NA,NA,NA,left,1250,true,NA,NA,NA,NA,NA,NA,NA,NA
BJVkpg3Z,3bakuke4akpi45n0y93n6zfn3q3r1f,38bquhla90deq1f3q5ajlguduqemos,BJVkpg3Z,2020-0188,2021-10-30,23:21:54,00:53:51,NA,incomplete,false,true,NA,NA,1,32,NA,black,m_s_073.jpg,NA,NA,NA,NA,NA,pleasant,unpleasant,NA,NA,NA,NA,NA,right,1476.5,true,NA,NA,NA,NA,NA,NA,NA,NA
BJVkpg3Z,3bakuke4akpi45n0y93n6zfn3q3r1f,38bquhla90deq1f3q5ajlguduqemos,BJVkpg3Z,2020-0188,2021-10-30,23:21:54,00:53:51,NA,incomplete,false,true,NA,NA,1,33,NA,black,m_s_095.jpg,NA,NA,NA,NA,NA,pleasant,unpleasant,NA,NA,NA,NA,NA,right,1992.09999990463,true,NA,NA,NA,NA,NA,NA,NA,NA
BJVkpg3Z,3bakuke4akpi45n0y93n6zfn3q3r1f,38bquhla90deq1f3q5ajlguduqemos,BJVkpg3Z,2020-0188,2021-10-30,23:21:54,00:53:51,NA,incomplete,false,true,NA,NA,1,34,NA,black,m_s_064.jpg,NA,NA,NA,NA,NA,pleasant,unpleasant,NA,NA,NA,NA,NA,left,1611.80000019073,true,NA,NA,NA,NA,NA,NA,NA,NA
BJVkpg3Z,3bakuke4akpi45n0y93n6zfn3q3r1f,38bquhla90deq1f3q5ajlguduqemos,BJVkpg3Z,2020-0188,2021-10-30,23:21:54,00:53:51,NA,incomplete,false,true,NA,NA,1,35,NA,black,n_s_103.jpg,NA,NA,NA,NA,NA,unpleasant,pleasant,NA,NA,NA,NA,NA,left,1629.69999980927,true,NA,NA,NA,NA,NA,NA,NA,NA
BJVkpg3Z,3bakuke4akpi45n0y93n6zfn3q3r1f,38bquhla90deq1f3q5ajlguduqemos,BJVkpg3Z,2020-0188,2021-10-30,23:21:54,00:53:51,NA,incomplete,false,NA,NA,true,1,0,NA,NA,NA,right,m_s_087.jpg,red,purple,NA,NA,NA,NA,NA,NA,NA,NA,NA,NaN,NA,2251,right,1,NA,NA,NA,NA,NA
BJVkpg3Z,3bakuke4akpi45n0y93n6zfn3q3r1f,38bquhla90deq1f3q5ajlguduqemos,BJVkpg3Z,2020-0188,2021-10-30,23:21:54,00:53:51,NA,incomplete,false,NA,NA,true,1,1,NA,NA,NA,left,m_s_073.jpg,black,gray,NA,NA,NA,NA,NA,NA,NA,NA,NA,NaN,NA,1729.3000001907349,left,1,NA,NA,NA,NA,NA
BJVkpg3Z,3bakuke4akpi45n0y93n6zfn3q3r1f,38bquhla90deq1f3q5ajlguduqemos,BJVkpg3Z,2020-0188,2021-10-30,23:21:54,00:53:51,NA,incomplete,false,NA,NA,true,1,2,NA,NA,NA,right,m_s_019.jpg,red,purple,NA,NA,NA,NA,NA,NA,NA,NA,NA,NaN,NA,1538.4000000953674,right,1,NA,NA,NA,NA,NA
BJVkpg3Z,3bakuke4akpi45n0y93n6zfn3q3r1f,38bquhla90deq1f3q5ajlguduqemos,BJVkpg3Z,2020-0188,2021-10-30,23:21:54,00:53:51,NA,incomplete,false,NA,NA,true,1,3,NA,NA,NA,left,n_l_049.jpg,gray,brown,NA,NA,NA,NA,NA,NA,NA,NA,NA,NaN,NA,1855.2999999523163,left,1,NA,NA,NA,NA,NA
BJVkpg3Z,3bakuke4akpi45n0y93n6zfn3q3r1f,38bquhla90deq1f3q5ajlguduqemos,BJVkpg3Z,2020-0188,2021-10-30,23:21:54,00:53:51,NA,incomplete,false,NA,NA,true,1,4,NA,NA,NA,left,n_l_107.jpg,green,purple,NA,NA,NA,NA,NA,NA,NA,NA,NA,NaN,NA,4212.5,left,1,NA,NA,NA,NA,NA
BJVkpg3Z,3bakuke4akpi45n0y93n6zfn3q3r1f,38bquhla90deq1f3q5ajlguduqemos,BJVkpg3Z,2020-0188,2021-10-30,23:21:54,00:53:51,NA,incomplete,false,NA,NA,true,1,5,NA,NA,NA,left,n_l_051.jpg,brown,green,NA,NA,NA,NA,NA,NA,NA,NA,NA,NaN,NA,1946.6000001430511,left,1,NA,NA,NA,NA,NA
BJVkpg3Z,3bakuke4akpi45n0y93n6zfn3q3r1f,38bquhla90deq1f3q5ajlguduqemos,BJVkpg3Z,2020-0188,2021-10-30,23:21:54,00:53:51,NA,incomplete,false,NA,NA,true,1,6,NA,NA,NA,right,m_s_082.jpg,gray,black,NA,NA,NA,NA,NA,NA,NA,NA,NA,NaN,NA,2245.4000000953674,right,1,NA,NA,NA,NA,NA
BJVkpg3Z,3bakuke4akpi45n0y93n6zfn3q3r1f,38bquhla90deq1f3q5ajlguduqemos,BJVkpg3Z,2020-0188,2021-10-30,23:21:54,00:53:51,NA,incomplete,false,NA,NA,true,1,7,NA,NA,NA,left,n_s_087.jpg,gray,black,NA,NA,NA,NA,NA,NA,NA,NA,NA,NaN,NA,2239.5,left,1,NA,NA,NA,NA,NA
BJVkpg3Z,3bakuke4akpi45n0y93n6zfn3q3r1f,38bquhla90deq1f3q5ajlguduqemos,BJVkpg3Z,2020-0188,2021-10-30,23:21:54,00:53:51,NA,incomplete,false,NA,NA,true,1,8,NA,NA,NA,right,n_l_023.jpg,purple,red,NA,NA,NA,NA,NA,NA,NA,NA,NA,NaN,NA,1553.6000001430511,right,1,NA,NA,NA,NA,NA
BJVkpg3Z,3bakuke4akpi45n0y93n6zfn3q3r1f,38bquhla90deq1f3q5ajlguduqemos,BJVkpg3Z,2020-0188,2021-10-30,23:21:54,00:53:51,NA,incomplete,false,NA,NA,true,1,9,NA,NA,NA,left,n_s_103.jpg,black,gray,NA,NA,NA,NA,NA,NA,NA,NA,NA,NaN,NA,2027.2999999523163,left,1,NA,NA,NA,NA,NA
BJVkpg3Z,3bakuke4akpi45n0y93n6zfn3q3r1f,38bquhla90deq1f3q5ajlguduqemos,BJVkpg3Z,2020-0188,2021-10-30,23:21:54,00:53:51,NA,incomplete,false,NA,NA,true,1,10,NA,NA,NA,left,m_s_032.jpg,purple,red,NA,NA,NA,NA,NA,NA,NA,NA,NA,NaN,NA,2262.899999856949,left,1,NA,NA,NA,NA,NA
BJVkpg3Z,3bakuke4akpi45n0y93n6zfn3q3r1f,38bquhla90deq1f3q5ajlguduqemos,BJVkpg3Z,2020-0188,2021-10-30,23:21:54,00:53:51,NA,incomplete,false,NA,NA,true,1,11,NA,NA,NA,right,n_s_011.jpg,black,gray,NA,NA,NA,NA,NA,NA,NA,NA,NA,NaN,NA,1765.7000000476837,right,1,NA,NA,NA,NA,NA
BJVkpg3Z,3bakuke4akpi45n0y93n6zfn3q3r1f,38bquhla90deq1f3q5ajlguduqemos,BJVkpg3Z,2020-0188,2021-10-30,23:21:54,00:53:51,NA,incomplete,false,NA,NA,true,1,12,NA,NA,NA,left,n_l_008.jpg,purple,red,NA,NA,NA,NA,NA,NA,NA,NA,NA,NaN,NA,2213.5,left,1,NA,NA,NA,NA,NA
BJVkpg3Z,3bakuke4akpi45n0y93n6zfn3q3r1f,38bquhla90deq1f3q5ajlguduqemos,BJVkpg3Z,2020-0188,2021-10-30,23:21:54,00:53:51,NA,incomplete,false,NA,NA,true,1,13,NA,NA,NA,right,m_s_092.jpg,purple,green,NA,NA,NA,NA,NA,NA,NA,NA,NA,NaN,NA,1570,right,1,NA,NA,NA,NA,NA
BJVkpg3Z,3bakuke4akpi45n0y93n6zfn3q3r1f,38bquhla90deq1f3q5ajlguduqemos,BJVkpg3Z,2020-0188,2021-10-30,23:21:54,00:53:51,NA,incomplete,false,NA,NA,true,1,14,NA,NA,NA,left,n_l_115.jpg,gray,brown,NA,NA,NA,NA,NA,NA,NA,NA,NA,NaN,NA,2009.4000000953674,left,1,NA,NA,NA,NA,NA
BJVkpg3Z,3bakuke4akpi45n0y93n6zfn3q3r1f,38bquhla90deq1f3q5ajlguduqemos,BJVkpg3Z,2020-0188,2021-10-30,23:21:54,00:53:51,NA,incomplete,false,NA,NA,true,1,15,NA,NA,NA,right,n_s_080.jpg,gray,brown,NA,NA,NA,NA,NA,NA,NA,NA,NA,NaN,NA,7143,right,1,NA,NA,NA,NA,NA
BJVkpg3Z,3bakuke4akpi45n0y93n6zfn3q3r1f,38bquhla90deq1f3q5ajlguduqemos,BJVkpg3Z,2020-0188,2021-10-30,23:21:54,00:53:51,NA,incomplete,false,NA,NA,true,1,16,NA,NA,NA,right,m_s_056.jpg,brown,green,NA,NA,NA,NA,NA,NA,NA,NA,NA,NaN,NA,2041.5,right,1,NA,NA,NA,NA,NA
BJVkpg3Z,3bakuke4akpi45n0y93n6zfn3q3r1f,38bquhla90deq1f3q5ajlguduqemos,BJVkpg3Z,2020-0188,2021-10-30,23:21:54,00:53:51,NA,incomplete,false,NA,NA,true,1,17,NA,NA,NA,right,n_s_113.jpg,purple,red,NA,NA,NA,NA,NA,NA,NA,NA,NA,NaN,NA,2529.2999999523163,right,1,NA,NA,NA,NA,NA
BJVkpg3Z,3bakuke4akpi45n0y93n6zfn3q3r1f,38bquhla90deq1f3q5ajlguduqemos,BJVkpg3Z,2020-0188,2021-10-30,23:21:54,00:53:51,NA,incomplete,false,NA,NA,true,1,18,NA,NA,NA,left,n_l_104.jpg,green,purple,NA,NA,NA,NA,NA,NA,NA,NA,NA,NaN,NA,2481.5,left,1,NA,NA,NA,NA,NA
BJVkpg3Z,3bakuke4akpi45n0y93n6zfn3q3r1f,38bquhla90deq1f3q5ajlguduqemos,BJVkpg3Z,2020-0188,2021-10-30,23:21:54,00:53:51,NA,incomplete,false,NA,NA,true,1,19,NA,NA,NA,left,m_l_004.jpg,brown,green,NA,NA,NA,NA,NA,NA,NA,NA,NA,NaN,NA,2153.7999999523163,left,1,NA,NA,NA,NA,NA
BJVkpg3Z,3bakuke4akpi45n0y93n6zfn3q3r1f,38bquhla90deq1f3q5ajlguduqemos,BJVkpg3Z,2020-0188,2021-10-30,23:21:54,00:53:51,NA,incomplete,false,NA,NA,true,1,20,NA,NA,NA,right,m_l_043.jpg,purple,red,NA,NA,NA,NA,NA,NA,NA,NA,NA,NaN,NA,1695.1999998092651,right,1,NA,NA,NA,NA,NA
BJVkpg3Z,3bakuke4akpi45n0y93n6zfn3q3r1f,38bquhla90deq1f3q5ajlguduqemos,BJVkpg3Z,2020-0188,2021-10-30,23:21:54,00:53:51,NA,incomplete,false,NA,NA,true,1,21,NA,NA,NA,left,n_s_037.jpg,brown,green,NA,NA,NA,NA,NA,NA,NA,NA,NA,NaN,NA,1745.7000000476837,left,1,NA,NA,NA,NA,NA
BJVkpg3Z,3bakuke4akpi45n0y93n6zfn3q3r1f,38bquhla90deq1f3q5ajlguduqemos,BJVkpg3Z,2020-0188,2021-10-30,23:21:54,00:53:51,NA,incomplete,false,NA,true,NA,1,0,NA,NA,NA,right,NA,NA,NA,absent,NA,NA,m_s_019.jpg,purple,m_l_043.jpg,red,between,NA,NaN,NA,NA,NA,NA,right,2959.2000000476837,1,2,7585.5
BJVkpg3Z,3bakuke4akpi45n0y93n6zfn3q3r1f,38bquhla90deq1f3q5ajlguduqemos,BJVkpg3Z,2020-0188,2021-10-30,23:21:54,00:53:51,NA,incomplete,false,NA,true,NA,1,1,NA,NA,NA,right,NA,NA,NA,absent,NA,NA,n_l_107.jpg,green,m_s_032.jpg,purple,between,NA,NaN,NA,NA,NA,NA,left,9205.5,0,1,5105.700000047684
BJVkpg3Z,3bakuke4akpi45n0y93n6zfn3q3r1f,38bquhla90deq1f3q5ajlguduqemos,BJVkpg3Z,2020-0188,2021-10-30,23:21:54,00:53:51,NA,incomplete,false,NA,true,NA,1,2,NA,NA,NA,left,NA,NA,NA,absent,NA,NA,n_s_080.jpg,brown,n_s_087.jpg,gray,between,NA,NaN,NA,NA,NA,NA,left,4923.700000047684,1,1,2243
BJVkpg3Z,3bakuke4akpi45n0y93n6zfn3q3r1f,38bquhla90deq1f3q5ajlguduqemos,BJVkpg3Z,2020-0188,2021-10-30,23:21:54,00:53:51,NA,incomplete,false,NA,true,NA,1,3,NA,NA,NA,right,NA,NA,NA,absent,NA,NA,n_s_113.jpg,red,n_l_023.jpg,red,within,NA,NaN,NA,NA,NA,NA,right,2831.899999856949,1,0,1881.7999999523163
BJVkpg3Z,3bakuke4akpi45n0y93n6zfn3q3r1f,38bquhla90deq1f3q5ajlguduqemos,BJVkpg3Z,2020-0188,2021-10-30,23:21:54,00:53:51,NA,incomplete,false,NA,true,NA,1,4,NA,NA,NA,right,NA,NA,NA,absent,NA,NA,n_s_011.jpg,gray,n_l_115.jpg,gray,within,NA,NaN,NA,NA,NA,NA,right,5501.899999856949,1,0,1223.2999999523163
BJVkpg3Z,3bakuke4akpi45n0y93n6zfn3q3r1f,38bquhla90deq1f3q5ajlguduqemos,BJVkpg3Z,2020-0188,2021-10-30,23:21:54,00:53:51,NA,incomplete,false,NA,true,NA,1,5,NA,NA,NA,left,NA,NA,NA,absent,NA,NA,m_s_082.jpg,black,n_s_103.jpg,black,within,NA,NaN,NA,NA,NA,NA,left,2651.199999809265,1,1,1723.7999999523163
BJVkpg3Z,3bakuke4akpi45n0y93n6zfn3q3r1f,38bquhla90deq1f3q5ajlguduqemos,BJVkpg3Z,2020-0188,2021-10-30,23:21:54,00:53:51,NA,incomplete,false,NA,true,NA,1,6,NA,NA,NA,right,NA,NA,NA,absent,NA,NA,n_l_008.jpg,purple,m_s_087.jpg,purple,within,NA,NaN,NA,NA,NA,NA,right,5845.900000095367,1,0,2788.2999999523163
BJVkpg3Z,3bakuke4akpi45n0y93n6zfn3q3r1f,38bquhla90deq1f3q5ajlguduqemos,BJVkpg3Z,2020-0188,2021-10-30,23:21:54,00:53:51,NA,incomplete,false,NA,true,NA,1,7,NA,NA,NA,right,NA,NA,NA,absent,NA,NA,n_l_051.jpg,brown,n_s_037.jpg,brown,within,NA,NaN,NA,NA,NA,NA,right,3821.5999999046326,1,0,8310.5
BJVkpg3Z,3bakuke4akpi45n0y93n6zfn3q3r1f,38bquhla90deq1f3q5ajlguduqemos,BJVkpg3Z,2020-0188,2021-10-30,23:21:54,00:53:51,NA,incomplete,false,NA,true,NA,1,8,NA,NA,NA,left,NA,NA,NA,absent,NA,NA,n_l_104.jpg,green,m_l_004.jpg,brown,between,NA,NaN,NA,NA,NA,NA,left,8126.700000047684,1,1,1610
BJVkpg3Z,3bakuke4akpi45n0y93n6zfn3q3r1f,38bquhla90deq1f3q5ajlguduqemos,BJVkpg3Z,2020-0188,2021-10-30,23:21:54,00:53:51,NA,incomplete,false,NA,true,NA,1,9,NA,NA,NA,left,NA,NA,NA,absent,NA,NA,m_s_092.jpg,green,m_s_056.jpg,green,within,NA,NaN,NA,NA,NA,NA,left,5150.900000095367,1,0,1412.9000000953674
BJVkpg3Z,3bakuke4akpi45n0y93n6zfn3q3r1f,38bquhla90deq1f3q5ajlguduqemos,BJVkpg3Z,2020-0188,2021-10-30,23:21:54,00:53:51,NA,incomplete,false,NA,true,NA,1,10,NA,NA,NA,left,NA,NA,NA,absent,NA,NA,n_l_049.jpg,gray,m_s_073.jpg,black,between,NA,NaN,NA,NA,NA,NA,left,7147.799999952316,1,2,6465.700000047684
BJVkpg3Z,3bakuke4akpi45n0y93n6zfn3q3r1f,38bquhla90deq1f3q5ajlguduqemos,BJVkpg3Z,2020-0188,2021-10-30,23:21:54,00:53:51,NA,incomplete,false,true,NA,NA,2,0,NA,red,m_l_064.jpg,NA,NA,NA,NA,NA,unpleasant,pleasant,NA,NA,NA,NA,NA,left,2340,true,NA,NA,NA,NA,NA,NA,NA,NA
BJVkpg3Z,3bakuke4akpi45n0y93n6zfn3q3r1f,38bquhla90deq1f3q5ajlguduqemos,BJVkpg3Z,2020-0188,2021-10-30,23:21:54,00:53:51,NA,incomplete,false,true,NA,NA,2,1,NA,red,n_s_064.jpg,NA,NA,NA,NA,NA,unpleasant,pleasant,NA,NA,NA,NA,NA,left,1370.19999980927,true,NA,NA,NA,NA,NA,NA,NA,NA
BJVkpg3Z,3bakuke4akpi45n0y93n6zfn3q3r1f,38bquhla90deq1f3q5ajlguduqemos,BJVkpg3Z,2020-0188,2021-10-30,23:21:54,00:53:51,NA,incomplete,false,true,NA,NA,2,2,NA,red,m_s_037.jpg,NA,NA,NA,NA,NA,unpleasant,pleasant,NA,NA,NA,NA,NA,right,1490.20000004768,true,NA,NA,NA,NA,NA,NA,NA,NA
BJVkpg3Z,3bakuke4akpi45n0y93n6zfn3q3r1f,38bquhla90deq1f3q5ajlguduqemos,BJVkpg3Z,2020-0188,2021-10-30,23:21:54,00:53:51,NA,incomplete,false,true,NA,NA,2,3,NA,red,m_l_044.jpg,NA,NA,NA,NA,NA,unpleasant,pleasant,NA,NA,NA,NA,NA,right,2328.79999995232,true,NA,NA,NA,NA,NA,NA,NA,NA
BJVkpg3Z,3bakuke4akpi45n0y93n6zfn3q3r1f,38bquhla90deq1f3q5ajlguduqemos,BJVkpg3Z,2020-0188,2021-10-30,23:21:54,00:53:51,NA,incomplete,false,true,NA,NA,2,4,NA,red,n_l_105.jpg,NA,NA,NA,NA,NA,pleasant,unpleasant,NA,NA,NA,NA,NA,right,1685,true,NA,NA,NA,NA,NA,NA,NA,NA
BJVkpg3Z,3bakuke4akpi45n0y93n6zfn3q3r1f,38bquhla90deq1f3q5ajlguduqemos,BJVkpg3Z,2020-0188,2021-10-30,23:21:54,00:53:51,NA,incomplete,false,true,NA,NA,2,5,NA,red,n_l_048.jpg,NA,NA,NA,NA,NA,unpleasant,pleasant,NA,NA,NA,NA,NA,left,1581.40000009537,true,NA,NA,NA,NA,NA,NA,NA,NA
BJVkpg3Z,3bakuke4akpi45n0y93n6zfn3q3r1f,38bquhla90deq1f3q5ajlguduqemos,BJVkpg3Z,2020-0188,2021-10-30,23:21:54,00:53:51,NA,incomplete,false,true,NA,NA,2,6,NA,green,n_l_044.jpg,NA,NA,NA,NA,NA,unpleasant,pleasant,NA,NA,NA,NA,NA,left,1607.19999980927,true,NA,NA,NA,NA,NA,NA,NA,NA
BJVkpg3Z,3bakuke4akpi45n0y93n6zfn3q3r1f,38bquhla90deq1f3q5ajlguduqemos,BJVkpg3Z,2020-0188,2021-10-30,23:21:54,00:53:51,NA,incomplete,false,true,NA,NA,2,7,NA,green,m_s_039.jpg,NA,NA,NA,NA,NA,pleasant,unpleasant,NA,NA,NA,NA,NA,right,1719,true,NA,NA,NA,NA,NA,NA,NA,NA
BJVkpg3Z,3bakuke4akpi45n0y93n6zfn3q3r1f,38bquhla90deq1f3q5ajlguduqemos,BJVkpg3Z,2020-0188,2021-10-30,23:21:54,00:53:51,NA,incomplete,false,true,NA,NA,2,8,NA,green,n_l_106.jpg,NA,NA,NA,NA,NA,unpleasant,pleasant,NA,NA,NA,NA,NA,left,1429.5,true,NA,NA,NA,NA,NA,NA,NA,NA
BJVkpg3Z,3bakuke4akpi45n0y93n6zfn3q3r1f,38bquhla90deq1f3q5ajlguduqemos,BJVkpg3Z,2020-0188,2021-10-30,23:21:54,00:53:51,NA,incomplete,false,true,NA,NA,2,9,NA,green,m_s_083.jpg,NA,NA,NA,NA,NA,pleasant,unpleasant,NA,NA,NA,NA,NA,left,2112.20000004768,true,NA,NA,NA,NA,NA,NA,NA,NA
BJVkpg3Z,3bakuke4akpi45n0y93n6zfn3q3r1f,38bquhla90deq1f3q5ajlguduqemos,BJVkpg3Z,2020-0188,2021-10-30,23:21:54,00:53:51,NA,incomplete,false,true,NA,NA,2,10,NA,green,n_l_086.jpg,NA,NA,NA,NA,NA,unpleasant,pleasant,NA,NA,NA,NA,NA,left,1761.5,true,NA,NA,NA,NA,NA,NA,NA,NA
BJVkpg3Z,3bakuke4akpi45n0y93n6zfn3q3r1f,38bquhla90deq1f3q5ajlguduqemos,BJVkpg3Z,2020-0188,2021-10-30,23:21:54,00:53:51,NA,incomplete,false,true,NA,NA,2,11,NA,green,m_l_117.jpg,NA,NA,NA,NA,NA,unpleasant,pleasant,NA,NA,NA,NA,NA,left,1668.90000009537,true,NA,NA,NA,NA,NA,NA,NA,NA
BJVkpg3Z,3bakuke4akpi45n0y93n6zfn3q3r1f,38bquhla90deq1f3q5ajlguduqemos,BJVkpg3Z,2020-0188,2021-10-30,23:21:54,00:53:51,NA,incomplete,false,true,NA,NA,2,12,NA,white,n_l_103.jpg,NA,NA,NA,NA,NA,pleasant,unpleasant,NA,NA,NA,NA,NA,left,2057.10000014305,true,NA,NA,NA,NA,NA,NA,NA,NA
BJVkpg3Z,3bakuke4akpi45n0y93n6zfn3q3r1f,38bquhla90deq1f3q5ajlguduqemos,BJVkpg3Z,2020-0188,2021-10-30,23:21:54,00:53:51,NA,incomplete,false,true,NA,NA,2,13,NA,white,m_s_048.jpg,NA,NA,NA,NA,NA,unpleasant,pleasant,NA,NA,NA,NA,NA,right,1587,true,NA,NA,NA,NA,NA,NA,NA,NA
BJVkpg3Z,3bakuke4akpi45n0y93n6zfn3q3r1f,38bquhla90deq1f3q5ajlguduqemos,BJVkpg3Z,2020-0188,2021-10-30,23:21:54,00:53:51,NA,incomplete,false,true,NA,NA,2,14,NA,white,n_l_004.jpg,NA,NA,NA,NA,NA,unpleasant,pleasant,NA,NA,NA,NA,NA,left,1344.29999995232,true,NA,NA,NA,NA,NA,NA,NA,NA
BJVkpg3Z,3bakuke4akpi45n0y93n6zfn3q3r1f,38bquhla90deq1f3q5ajlguduqemos,BJVkpg3Z,2020-0188,2021-10-30,23:21:54,00:53:51,NA,incomplete,false,true,NA,NA,2,15,NA,white,m_l_050.jpg,NA,NA,NA,NA,NA,unpleasant,pleasant,NA,NA,NA,NA,NA,right,1636.60000014305,true,NA,NA,NA,NA,NA,NA,NA,NA
BJVkpg3Z,3bakuke4akpi45n0y93n6zfn3q3r1f,38bquhla90deq1f3q5ajlguduqemos,BJVkpg3Z,2020-0188,2021-10-30,23:21:54,00:53:51,NA,incomplete,false,true,NA,NA,2,16,NA,white,m_l_030.jpg,NA,NA,NA,NA,NA,pleasant,unpleasant,NA,NA,NA,NA,NA,left,1681.30000019073,true,NA,NA,NA,NA,NA,NA,NA,NA
BJVkpg3Z,3bakuke4akpi45n0y93n6zfn3q3r1f,38bquhla90deq1f3q5ajlguduqemos,BJVkpg3Z,2020-0188,2021-10-30,23:21:54,00:53:51,NA,incomplete,false,true,NA,NA,2,17,NA,white,n_l_059.jpg,NA,NA,NA,NA,NA,unpleasant,pleasant,NA,NA,NA,NA,NA,left,1586.5,true,NA,NA,NA,NA,NA,NA,NA,NA
BJVkpg3Z,3bakuke4akpi45n0y93n6zfn3q3r1f,38bquhla90deq1f3q5ajlguduqemos,BJVkpg3Z,2020-0188,2021-10-30,23:21:54,00:53:51,NA,incomplete,false,true,NA,NA,2,18,NA,blue,n_l_026.jpg,NA,NA,NA,NA,NA,unpleasant,pleasant,NA,NA,NA,NA,NA,left,1770.09999990463,true,NA,NA,NA,NA,NA,NA,NA,NA
BJVkpg3Z,3bakuke4akpi45n0y93n6zfn3q3r1f,38bquhla90deq1f3q5ajlguduqemos,BJVkpg3Z,2020-0188,2021-10-30,23:21:54,00:53:51,NA,incomplete,false,true,NA,NA,2,19,NA,blue,n_s_092.jpg,NA,NA,NA,NA,NA,unpleasant,pleasant,NA,NA,NA,NA,NA,left,1443.40000009537,true,NA,NA,NA,NA,NA,NA,NA,NA
BJVkpg3Z,3bakuke4akpi45n0y93n6zfn3q3r1f,38bquhla90deq1f3q5ajlguduqemos,BJVkpg3Z,2020-0188,2021-10-30,23:21:54,00:53:51,NA,incomplete,false,true,NA,NA,2,20,NA,blue,m_l_048.jpg,NA,NA,NA,NA,NA,unpleasant,pleasant,NA,NA,NA,NA,NA,right,1393.90000009537,true,NA,NA,NA,NA,NA,NA,NA,NA
BJVkpg3Z,3bakuke4akpi45n0y93n6zfn3q3r1f,38bquhla90deq1f3q5ajlguduqemos,BJVkpg3Z,2020-0188,2021-10-30,23:21:54,00:53:51,NA,incomplete,false,true,NA,NA,2,21,NA,blue,m_l_095.jpg,NA,NA,NA,NA,NA,pleasant,unpleasant,NA,NA,NA,NA,NA,left,1704,true,NA,NA,NA,NA,NA,NA,NA,NA
BJVkpg3Z,3bakuke4akpi45n0y93n6zfn3q3r1f,38bquhla90deq1f3q5ajlguduqemos,BJVkpg3Z,2020-0188,2021-10-30,23:21:54,00:53:51,NA,incomplete,false,true,NA,NA,2,22,NA,blue,m_l_012.jpg,NA,NA,NA,NA,NA,unpleasant,pleasant,NA,NA,NA,NA,NA,right,1945,true,NA,NA,NA,NA,NA,NA,NA,NA
BJVkpg3Z,3bakuke4akpi45n0y93n6zfn3q3r1f,38bquhla90deq1f3q5ajlguduqemos,BJVkpg3Z,2020-0188,2021-10-30,23:21:54,00:53:51,NA,incomplete,false,true,NA,NA,2,23,NA,blue,n_l_062.jpg,NA,NA,NA,NA,NA,pleasant,unpleasant,NA,NA,NA,NA,NA,right,1587.59999990463,true,NA,NA,NA,NA,NA,NA,NA,NA
BJVkpg3Z,3bakuke4akpi45n0y93n6zfn3q3r1f,38bquhla90deq1f3q5ajlguduqemos,BJVkpg3Z,2020-0188,2021-10-30,23:21:54,00:53:51,NA,incomplete,false,true,NA,NA,2,24,NA,black,n_l_116.jpg,NA,NA,NA,NA,NA,unpleasant,pleasant,NA,NA,NA,NA,NA,right,2703.29999995232,true,NA,NA,NA,NA,NA,NA,NA,NA
BJVkpg3Z,3bakuke4akpi45n0y93n6zfn3q3r1f,38bquhla90deq1f3q5ajlguduqemos,BJVkpg3Z,2020-0188,2021-10-30,23:21:54,00:53:51,NA,incomplete,false,true,NA,NA,2,25,NA,black,m_s_081.jpg,NA,NA,NA,NA,NA,unpleasant,pleasant,NA,NA,NA,NA,NA,right,2129.79999995232,true,NA,NA,NA,NA,NA,NA,NA,NA
BJVkpg3Z,3bakuke4akpi45n0y93n6zfn3q3r1f,38bquhla90deq1f3q5ajlguduqemos,BJVkpg3Z,2020-0188,2021-10-30,23:21:54,00:53:51,NA,incomplete,false,true,NA,NA,2,26,NA,black,n_l_036.jpg,NA,NA,NA,NA,NA,pleasant,unpleasant,NA,NA,NA,NA,NA,left,2061.10000014305,true,NA,NA,NA,NA,NA,NA,NA,NA
BJVkpg3Z,3bakuke4akpi45n0y93n6zfn3q3r1f,38bquhla90deq1f3q5ajlguduqemos,BJVkpg3Z,2020-0188,2021-10-30,23:21:54,00:53:51,NA,incomplete,false,true,NA,NA,2,27,NA,black,n_l_076.jpg,NA,NA,NA,NA,NA,pleasant,unpleasant,NA,NA,NA,NA,NA,right,2328.10000014305,true,NA,NA,NA,NA,NA,NA,NA,NA
BJVkpg3Z,3bakuke4akpi45n0y93n6zfn3q3r1f,38bquhla90deq1f3q5ajlguduqemos,BJVkpg3Z,2020-0188,2021-10-30,23:21:54,00:53:51,NA,incomplete,false,true,NA,NA,2,28,NA,black,n_s_010.jpg,NA,NA,NA,NA,NA,pleasant,unpleasant,NA,NA,NA,NA,NA,right,2229.79999995232,true,NA,NA,NA,NA,NA,NA,NA,NA
BJVkpg3Z,3bakuke4akpi45n0y93n6zfn3q3r1f,38bquhla90deq1f3q5ajlguduqemos,BJVkpg3Z,2020-0188,2021-10-30,23:21:54,00:53:51,NA,incomplete,false,true,NA,NA,2,29,NA,black,m_l_078.jpg,NA,NA,NA,NA,NA,unpleasant,pleasant,NA,NA,NA,NA,NA,right,1890.19999980927,true,NA,NA,NA,NA,NA,NA,NA,NA
BJVkpg3Z,3bakuke4akpi45n0y93n6zfn3q3r1f,38bquhla90deq1f3q5ajlguduqemos,BJVkpg3Z,2020-0188,2021-10-30,23:21:54,00:53:51,NA,incomplete,false,true,NA,NA,2,30,NA,orange,n_l_031.jpg,NA,NA,NA,NA,NA,unpleasant,pleasant,NA,NA,NA,NA,NA,left,1412.20000004768,true,NA,NA,NA,NA,NA,NA,NA,NA
BJVkpg3Z,3bakuke4akpi45n0y93n6zfn3q3r1f,38bquhla90deq1f3q5ajlguduqemos,BJVkpg3Z,2020-0188,2021-10-30,23:21:54,00:53:51,NA,incomplete,false,true,NA,NA,2,31,NA,orange,n_s_012.jpg,NA,NA,NA,NA,NA,unpleasant,pleasant,NA,NA,NA,NA,NA,right,1886.40000009537,true,NA,NA,NA,NA,NA,NA,NA,NA
BJVkpg3Z,3bakuke4akpi45n0y93n6zfn3q3r1f,38bquhla90deq1f3q5ajlguduqemos,BJVkpg3Z,2020-0188,2021-10-30,23:21:54,00:53:51,NA,incomplete,false,true,NA,NA,2,32,NA,orange,n_s_046.jpg,NA,NA,NA,NA,NA,unpleasant,pleasant,NA,NA,NA,NA,NA,left,1569.09999990463,true,NA,NA,NA,NA,NA,NA,NA,NA
BJVkpg3Z,3bakuke4akpi45n0y93n6zfn3q3r1f,38bquhla90deq1f3q5ajlguduqemos,BJVkpg3Z,2020-0188,2021-10-30,23:21:54,00:53:51,NA,incomplete,false,true,NA,NA,2,33,NA,orange,n_l_025.jpg,NA,NA,NA,NA,NA,unpleasant,pleasant,NA,NA,NA,NA,NA,left,1523.60000014305,true,NA,NA,NA,NA,NA,NA,NA,NA
BJVkpg3Z,3bakuke4akpi45n0y93n6zfn3q3r1f,38bquhla90deq1f3q5ajlguduqemos,BJVkpg3Z,2020-0188,2021-10-30,23:21:54,00:53:51,NA,incomplete,false,true,NA,NA,2,34,NA,orange,n_l_010.jpg,NA,NA,NA,NA,NA,pleasant,unpleasant,NA,NA,NA,NA,NA,right,2037.60000014305,true,NA,NA,NA,NA,NA,NA,NA,NA
BJVkpg3Z,3bakuke4akpi45n0y93n6zfn3q3r1f,38bquhla90deq1f3q5ajlguduqemos,BJVkpg3Z,2020-0188,2021-10-30,23:21:54,00:53:51,NA,incomplete,false,true,NA,NA,2,35,NA,orange,m_l_059.jpg,NA,NA,NA,NA,NA,pleasant,unpleasant,NA,NA,NA,NA,NA,right,1911.80000019073,true,NA,NA,NA,NA,NA,NA,NA,NA
BJVkpg3Z,3bakuke4akpi45n0y93n6zfn3q3r1f,38bquhla90deq1f3q5ajlguduqemos,BJVkpg3Z,2020-0188,2021-10-30,23:21:54,00:53:51,NA,incomplete,false,NA,NA,true,2,0,NA,NA,NA,left,m_s_081.jpg,black,orange,NA,NA,NA,NA,NA,NA,NA,NA,NA,NaN,NA,2147.5,left,1,NA,NA,NA,NA,NA
BJVkpg3Z,3bakuke4akpi45n0y93n6zfn3q3r1f,38bquhla90deq1f3q5ajlguduqemos,BJVkpg3Z,2020-0188,2021-10-30,23:21:54,00:53:51,NA,incomplete,false,NA,NA,true,2,1,NA,NA,NA,right,m_s_048.jpg,blue,white,NA,NA,NA,NA,NA,NA,NA,NA,NA,NaN,NA,3071.2999999523163,right,1,NA,NA,NA,NA,NA
BJVkpg3Z,3bakuke4akpi45n0y93n6zfn3q3r1f,38bquhla90deq1f3q5ajlguduqemos,BJVkpg3Z,2020-0188,2021-10-30,23:21:54,00:53:51,NA,incomplete,false,NA,NA,true,2,2,NA,NA,NA,left,m_l_048.jpg,blue,black,NA,NA,NA,NA,NA,NA,NA,NA,NA,NaN,NA,1997.2000000476837,left,1,NA,NA,NA,NA,NA
BJVkpg3Z,3bakuke4akpi45n0y93n6zfn3q3r1f,38bquhla90deq1f3q5ajlguduqemos,BJVkpg3Z,2020-0188,2021-10-30,23:21:54,00:53:51,NA,incomplete,false,NA,NA,true,2,3,NA,NA,NA,left,m_l_030.jpg,white,blue,NA,NA,NA,NA,NA,NA,NA,NA,NA,NaN,NA,1665.7999999523163,left,1,NA,NA,NA,NA,NA
BJVkpg3Z,3bakuke4akpi45n0y93n6zfn3q3r1f,38bquhla90deq1f3q5ajlguduqemos,BJVkpg3Z,2020-0188,2021-10-30,23:21:54,00:53:51,NA,incomplete,false,NA,NA,true,2,4,NA,NA,NA,right,n_l_048.jpg,green,red,NA,NA,NA,NA,NA,NA,NA,NA,NA,NaN,NA,4802.399999856949,left,0,NA,NA,NA,NA,NA
BJVkpg3Z,3bakuke4akpi45n0y93n6zfn3q3r1f,38bquhla90deq1f3q5ajlguduqemos,BJVkpg3Z,2020-0188,2021-10-30,23:21:54,00:53:51,NA,incomplete,false,NA,NA,true,2,5,NA,NA,NA,right,n_l_086.jpg,red,green,NA,NA,NA,NA,NA,NA,NA,NA,NA,NaN,NA,2802.5999999046326,right,1,NA,NA,NA,NA,NA
BJVkpg3Z,3bakuke4akpi45n0y93n6zfn3q3r1f,38bquhla90deq1f3q5ajlguduqemos,BJVkpg3Z,2020-0188,2021-10-30,23:21:54,00:53:51,NA,incomplete,false,NA,NA,true,2,6,NA,NA,NA,left,n_s_046.jpg,orange,black,NA,NA,NA,NA,NA,NA,NA,NA,NA,NaN,NA,3299.4000000953674,left,1,NA,NA,NA,NA,NA
BJVkpg3Z,3bakuke4akpi45n0y93n6zfn3q3r1f,38bquhla90deq1f3q5ajlguduqemos,BJVkpg3Z,2020-0188,2021-10-30,23:21:54,00:53:51,NA,incomplete,false,NA,NA,true,2,7,NA,NA,NA,right,m_l_059.jpg,black,orange,NA,NA,NA,NA,NA,NA,NA,NA,NA,NaN,NA,2894.2000000476837,right,1,NA,NA,NA,NA,NA
BJVkpg3Z,3bakuke4akpi45n0y93n6zfn3q3r1f,38bquhla90deq1f3q5ajlguduqemos,BJVkpg3Z,2020-0188,2021-10-30,23:21:54,00:53:51,NA,incomplete,false,NA,NA,true,2,8,NA,NA,NA,left,m_l_012.jpg,blue,white,NA,NA,NA,NA,NA,NA,NA,NA,NA,NaN,NA,2027.0999999046326,left,1,NA,NA,NA,NA,NA
BJVkpg3Z,3bakuke4akpi45n0y93n6zfn3q3r1f,38bquhla90deq1f3q5ajlguduqemos,BJVkpg3Z,2020-0188,2021-10-30,23:21:54,00:53:51,NA,incomplete,false,NA,NA,true,2,9,NA,NA,NA,right,n_s_064.jpg,green,red,NA,NA,NA,NA,NA,NA,NA,NA,NA,NaN,NA,1715.7000000476837,right,1,NA,NA,NA,NA,NA
BJVkpg3Z,3bakuke4akpi45n0y93n6zfn3q3r1f,38bquhla90deq1f3q5ajlguduqemos,BJVkpg3Z,2020-0188,2021-10-30,23:21:54,00:53:51,NA,incomplete,false,NA,NA,true,2,10,NA,NA,NA,right,n_l_062.jpg,black,blue,NA,NA,NA,NA,NA,NA,NA,NA,NA,NaN,NA,2553,right,1,NA,NA,NA,NA,NA
BJVkpg3Z,3bakuke4akpi45n0y93n6zfn3q3r1f,38bquhla90deq1f3q5ajlguduqemos,BJVkpg3Z,2020-0188,2021-10-30,23:21:54,00:53:51,NA,incomplete,false,NA,NA,true,2,11,NA,NA,NA,left,n_l_004.jpg,white,green,NA,NA,NA,NA,NA,NA,NA,NA,NA,NaN,NA,1760.5,left,1,NA,NA,NA,NA,NA
BJVkpg3Z,3bakuke4akpi45n0y93n6zfn3q3r1f,38bquhla90deq1f3q5ajlguduqemos,BJVkpg3Z,2020-0188,2021-10-30,23:21:54,00:53:51,NA,incomplete,false,NA,NA,true,2,12,NA,NA,NA,right,n_s_092.jpg,black,blue,NA,NA,NA,NA,NA,NA,NA,NA,NA,NaN,NA,2477.9000000953674,right,1,NA,NA,NA,NA,NA
BJVkpg3Z,3bakuke4akpi45n0y93n6zfn3q3r1f,38bquhla90deq1f3q5ajlguduqemos,BJVkpg3Z,2020-0188,2021-10-30,23:21:54,00:53:51,NA,incomplete,false,NA,NA,true,2,13,NA,NA,NA,right,n_s_010.jpg,blue,black,NA,NA,NA,NA,NA,NA,NA,NA,NA,NaN,NA,1922.9000000953674,right,1,NA,NA,NA,NA,NA
BJVkpg3Z,3bakuke4akpi45n0y93n6zfn3q3r1f,38bquhla90deq1f3q5ajlguduqemos,BJVkpg3Z,2020-0188,2021-10-30,23:21:54,00:53:51,NA,incomplete,false,NA,NA,true,2,14,NA,NA,NA,right,n_l_036.jpg,orange,black,NA,NA,NA,NA,NA,NA,NA,NA,NA,NaN,NA,2803.7999999523163,right,1,NA,NA,NA,NA,NA
BJVkpg3Z,3bakuke4akpi45n0y93n6zfn3q3r1f,38bquhla90deq1f3q5ajlguduqemos,BJVkpg3Z,2020-0188,2021-10-30,23:21:54,00:53:51,NA,incomplete,false,NA,NA,true,2,15,NA,NA,NA,left,m_l_078.jpg,black,blue,NA,NA,NA,NA,NA,NA,NA,NA,NA,NaN,NA,1802.7999999523163,left,1,NA,NA,NA,NA,NA
BJVkpg3Z,3bakuke4akpi45n0y93n6zfn3q3r1f,38bquhla90deq1f3q5ajlguduqemos,BJVkpg3Z,2020-0188,2021-10-30,23:21:54,00:53:51,NA,incomplete,false,NA,NA,true,2,16,NA,NA,NA,left,n_l_105.jpg,red,green,NA,NA,NA,NA,NA,NA,NA,NA,NA,NaN,NA,2169.5999999046326,left,1,NA,NA,NA,NA,NA
BJVkpg3Z,3bakuke4akpi45n0y93n6zfn3q3r1f,38bquhla90deq1f3q5ajlguduqemos,BJVkpg3Z,2020-0188,2021-10-30,23:21:54,00:53:51,NA,incomplete,false,NA,NA,true,2,17,NA,NA,NA,right,m_s_039.jpg,red,green,NA,NA,NA,NA,NA,NA,NA,NA,NA,NaN,NA,2275,right,1,NA,NA,NA,NA,NA
BJVkpg3Z,3bakuke4akpi45n0y93n6zfn3q3r1f,38bquhla90deq1f3q5ajlguduqemos,BJVkpg3Z,2020-0188,2021-10-30,23:21:54,00:53:51,NA,incomplete,false,NA,NA,true,2,18,NA,NA,NA,left,n_s_012.jpg,orange,black,NA,NA,NA,NA,NA,NA,NA,NA,NA,NaN,NA,1694.3000001907349,left,1,NA,NA,NA,NA,NA
BJVkpg3Z,3bakuke4akpi45n0y93n6zfn3q3r1f,38bquhla90deq1f3q5ajlguduqemos,BJVkpg3Z,2020-0188,2021-10-30,23:21:54,00:53:51,NA,incomplete,false,NA,NA,true,2,19,NA,NA,NA,left,n_l_059.jpg,white,green,NA,NA,NA,NA,NA,NA,NA,NA,NA,NaN,NA,1664.0999999046326,left,1,NA,NA,NA,NA,NA
BJVkpg3Z,3bakuke4akpi45n0y93n6zfn3q3r1f,38bquhla90deq1f3q5ajlguduqemos,BJVkpg3Z,2020-0188,2021-10-30,23:21:54,00:53:51,NA,incomplete,false,NA,NA,true,2,20,NA,NA,NA,right,m_l_117.jpg,red,green,NA,NA,NA,NA,NA,NA,NA,NA,NA,NaN,NA,2168.2999999523163,right,1,NA,NA,NA,NA,NA
BJVkpg3Z,3bakuke4akpi45n0y93n6zfn3q3r1f,38bquhla90deq1f3q5ajlguduqemos,BJVkpg3Z,2020-0188,2021-10-30,23:21:54,00:53:51,NA,incomplete,false,NA,NA,true,2,21,NA,NA,NA,left,n_l_106.jpg,green,red,NA,NA,NA,NA,NA,NA,NA,NA,NA,NaN,NA,5827.599999904633,left,1,NA,NA,NA,NA,NA
BJVkpg3Z,3bakuke4akpi45n0y93n6zfn3q3r1f,38bquhla90deq1f3q5ajlguduqemos,BJVkpg3Z,2020-0188,2021-10-30,23:21:54,00:53:51,NA,incomplete,false,NA,true,NA,2,0,NA,NA,NA,right,NA,NA,NA,absent,NA,NA,m_l_117.jpg,green,m_s_039.jpg,green,within,NA,NaN,NA,NA,NA,NA,right,5020.299999952316,1,0,2260.5
BJVkpg3Z,3bakuke4akpi45n0y93n6zfn3q3r1f,38bquhla90deq1f3q5ajlguduqemos,BJVkpg3Z,2020-0188,2021-10-30,23:21:54,00:53:51,NA,incomplete,false,NA,true,NA,2,1,NA,NA,NA,right,NA,NA,NA,absent,NA,NA,n_l_036.jpg,black,m_l_012.jpg,blue,between,NA,NaN,NA,NA,NA,NA,right,4450.799999952316,1,2,1204.4000000953674
BJVkpg3Z,3bakuke4akpi45n0y93n6zfn3q3r1f,38bquhla90deq1f3q5ajlguduqemos,BJVkpg3Z,2020-0188,2021-10-30,23:21:54,00:53:51,NA,incomplete,false,NA,true,NA,2,2,NA,NA,NA,right,NA,NA,NA,absent,NA,NA,n_s_046.jpg,orange,n_s_010.jpg,black,between,NA,NaN,NA,NA,NA,NA,left,5320.200000047684,0,2,1230.8999998569489
BJVkpg3Z,3bakuke4akpi45n0y93n6zfn3q3r1f,38bquhla90deq1f3q5ajlguduqemos,BJVkpg3Z,2020-0188,2021-10-30,23:21:54,00:53:51,NA,incomplete,false,NA,true,NA,2,3,NA,NA,NA,left,NA,NA,NA,absent,NA,NA,n_l_086.jpg,green,n_l_004.jpg,white,between,NA,NaN,NA,NA,NA,NA,left,4692.100000143051,1,2,2023
BJVkpg3Z,3bakuke4akpi45n0y93n6zfn3q3r1f,38bquhla90deq1f3q5ajlguduqemos,BJVkpg3Z,2020-0188,2021-10-30,23:21:54,00:53:51,NA,incomplete,false,NA,true,NA,2,4,NA,NA,NA,right,NA,NA,NA,absent,NA,NA,n_l_062.jpg,blue,n_s_092.jpg,blue,within,NA,NaN,NA,NA,NA,NA,right,7542.5,1,2,2738.7999999523163
BJVkpg3Z,3bakuke4akpi45n0y93n6zfn3q3r1f,38bquhla90deq1f3q5ajlguduqemos,BJVkpg3Z,2020-0188,2021-10-30,23:21:54,00:53:51,NA,incomplete,false,NA,true,NA,2,5,NA,NA,NA,right,NA,NA,NA,absent,NA,NA,m_l_048.jpg,blue,m_l_030.jpg,white,between,NA,NaN,NA,NA,NA,NA,left,3282,0,2,7779.799999952316
BJVkpg3Z,3bakuke4akpi45n0y93n6zfn3q3r1f,38bquhla90deq1f3q5ajlguduqemos,BJVkpg3Z,2020-0188,2021-10-30,23:21:54,00:53:51,NA,incomplete,false,NA,true,NA,2,6,NA,NA,NA,right,NA,NA,NA,absent,NA,NA,m_l_059.jpg,orange,n_s_012.jpg,orange,within,NA,NaN,NA,NA,NA,NA,right,4425.5,1,0,1923.0999999046326
BJVkpg3Z,3bakuke4akpi45n0y93n6zfn3q3r1f,38bquhla90deq1f3q5ajlguduqemos,BJVkpg3Z,2020-0188,2021-10-30,23:21:54,00:53:51,NA,incomplete,false,NA,true,NA,2,7,NA,NA,NA,left,NA,NA,NA,absent,NA,NA,n_l_105.jpg,red,n_l_106.jpg,green,between,NA,NaN,NA,NA,NA,NA,left,6856.899999856949,1,1,2690.0999999046326
BJVkpg3Z,3bakuke4akpi45n0y93n6zfn3q3r1f,38bquhla90deq1f3q5ajlguduqemos,BJVkpg3Z,2020-0188,2021-10-30,23:21:54,00:53:51,NA,incomplete,false,NA,true,NA,2,8,NA,NA,NA,left,NA,NA,NA,absent,NA,NA,m_s_081.jpg,black,m_l_078.jpg,black,within,NA,NaN,NA,NA,NA,NA,left,3801.9000000953674,1,0,1406.1000001430511
BJVkpg3Z,3bakuke4akpi45n0y93n6zfn3q3r1f,38bquhla90deq1f3q5ajlguduqemos,BJVkpg3Z,2020-0188,2021-10-30,23:21:54,00:53:51,NA,incomplete,false,NA,true,NA,2,9,NA,NA,NA,left,NA,NA,NA,absent,NA,NA,m_s_048.jpg,white,n_l_059.jpg,white,within,NA,NaN,NA,NA,NA,NA,left,3744,1,0,1095.6000001430511
BJVkpg3Z,3bakuke4akpi45n0y93n6zfn3q3r1f,38bquhla90deq1f3q5ajlguduqemos,BJVkpg3Z,2020-0188,2021-10-30,23:21:54,00:53:51,NA,incomplete,false,NA,true,NA,2,10,NA,NA,NA,right,NA,NA,NA,absent,NA,NA,n_l_048.jpg,red,n_s_064.jpg,red,within,NA,NaN,NA,NA,NA,NA,right,4394.900000095367,1,2,1165.8999998569489
BJVkpg3Z,3bakuke4akpi45n0y93n6zfn3q3r1f,38bquhla90deq1f3q5ajlguduqemos,BJVkpg3Z,2020-0188,2021-10-30,23:21:54,00:53:51,NA,incomplete,false,true,NA,NA,3,0,NA,green,n_l_060.jpg,NA,NA,NA,NA,NA,unpleasant,pleasant,NA,NA,NA,NA,NA,left,2287,true,NA,NA,NA,NA,NA,NA,NA,NA
BJVkpg3Z,3bakuke4akpi45n0y93n6zfn3q3r1f,38bquhla90deq1f3q5ajlguduqemos,BJVkpg3Z,2020-0188,2021-10-30,23:21:54,00:53:51,NA,incomplete,false,true,NA,NA,3,1,NA,green,n_l_001.jpg,NA,NA,NA,NA,NA,pleasant,unpleasant,NA,NA,NA,NA,NA,right,1264.30000019073,true,NA,NA,NA,NA,NA,NA,NA,NA
BJVkpg3Z,3bakuke4akpi45n0y93n6zfn3q3r1f,38bquhla90deq1f3q5ajlguduqemos,BJVkpg3Z,2020-0188,2021-10-30,23:21:54,00:53:51,NA,incomplete,false,true,NA,NA,3,2,NA,green,m_l_057.jpg,NA,NA,NA,NA,NA,unpleasant,pleasant,NA,NA,NA,NA,NA,right,1687.19999980927,true,NA,NA,NA,NA,NA,NA,NA,NA
BJVkpg3Z,3bakuke4akpi45n0y93n6zfn3q3r1f,38bquhla90deq1f3q5ajlguduqemos,BJVkpg3Z,2020-0188,2021-10-30,23:21:54,00:53:51,NA,incomplete,false,true,NA,NA,3,3,NA,green,m_l_061.jpg,NA,NA,NA,NA,NA,unpleasant,pleasant,NA,NA,NA,NA,NA,right,1640,true,NA,NA,NA,NA,NA,NA,NA,NA
BJVkpg3Z,3bakuke4akpi45n0y93n6zfn3q3r1f,38bquhla90deq1f3q5ajlguduqemos,BJVkpg3Z,2020-0188,2021-10-30,23:21:54,00:53:51,NA,incomplete,false,true,NA,NA,3,4,NA,green,m_l_024.jpg,NA,NA,NA,NA,NA,unpleasant,pleasant,NA,NA,NA,NA,NA,left,2116.29999995232,true,NA,NA,NA,NA,NA,NA,NA,NA
BJVkpg3Z,3bakuke4akpi45n0y93n6zfn3q3r1f,38bquhla90deq1f3q5ajlguduqemos,BJVkpg3Z,2020-0188,2021-10-30,23:21:54,00:53:51,NA,incomplete,false,true,NA,NA,3,5,NA,green,n_l_084.jpg,NA,NA,NA,NA,NA,pleasant,unpleasant,NA,NA,NA,NA,NA,right,1403.39999985695,true,NA,NA,NA,NA,NA,NA,NA,NA
BJVkpg3Z,3bakuke4akpi45n0y93n6zfn3q3r1f,38bquhla90deq1f3q5ajlguduqemos,BJVkpg3Z,2020-0188,2021-10-30,23:21:54,00:53:51,NA,incomplete,false,true,NA,NA,3,6,NA,brown,n_l_009.jpg,NA,NA,NA,NA,NA,pleasant,unpleasant,NA,NA,NA,NA,NA,left,1822.79999995232,true,NA,NA,NA,NA,NA,NA,NA,NA
BJVkpg3Z,3bakuke4akpi45n0y93n6zfn3q3r1f,38bquhla90deq1f3q5ajlguduqemos,BJVkpg3Z,2020-0188,2021-10-30,23:21:54,00:53:51,NA,incomplete,false,true,NA,NA,3,7,NA,brown,n_l_070.jpg,NA,NA,NA,NA,NA,pleasant,unpleasant,NA,NA,NA,NA,NA,right,2123.40000009537,true,NA,NA,NA,NA,NA,NA,NA,NA
BJVkpg3Z,3bakuke4akpi45n0y93n6zfn3q3r1f,38bquhla90deq1f3q5ajlguduqemos,BJVkpg3Z,2020-0188,2021-10-30,23:21:54,00:53:51,NA,incomplete,false,true,NA,NA,3,8,NA,brown,m_l_053.jpg,NA,NA,NA,NA,NA,pleasant,unpleasant,NA,NA,NA,NA,NA,right,2042.5,true,NA,NA,NA,NA,NA,NA,NA,NA
BJVkpg3Z,3bakuke4akpi45n0y93n6zfn3q3r1f,38bquhla90deq1f3q5ajlguduqemos,BJVkpg3Z,2020-0188,2021-10-30,23:21:54,00:53:51,NA,incomplete,false,true,NA,NA,3,9,NA,brown,n_s_052.jpg,NA,NA,NA,NA,NA,unpleasant,pleasant,NA,NA,NA,NA,NA,left,1646.29999995232,true,NA,NA,NA,NA,NA,NA,NA,NA
BJVkpg3Z,3bakuke4akpi45n0y93n6zfn3q3r1f,38bquhla90deq1f3q5ajlguduqemos,BJVkpg3Z,2020-0188,2021-10-30,23:21:54,00:53:51,NA,incomplete,false,true,NA,NA,3,10,NA,brown,n_l_016.jpg,NA,NA,NA,NA,NA,unpleasant,pleasant,NA,NA,NA,NA,NA,right,1915.89999985695,true,NA,NA,NA,NA,NA,NA,NA,NA
BJVkpg3Z,3bakuke4akpi45n0y93n6zfn3q3r1f,38bquhla90deq1f3q5ajlguduqemos,BJVkpg3Z,2020-0188,2021-10-30,23:21:54,00:53:51,NA,incomplete,false,true,NA,NA,3,11,NA,brown,m_s_026.jpg,NA,NA,NA,NA,NA,pleasant,unpleasant,NA,NA,NA,NA,NA,left,1997.5,true,NA,NA,NA,NA,NA,NA,NA,NA
BJVkpg3Z,3bakuke4akpi45n0y93n6zfn3q3r1f,38bquhla90deq1f3q5ajlguduqemos,BJVkpg3Z,2020-0188,2021-10-30,23:21:54,00:53:51,NA,incomplete,false,true,NA,NA,3,12,NA,red,m_l_085.jpg,NA,NA,NA,NA,NA,unpleasant,pleasant,NA,NA,NA,NA,NA,right,2298.39999985695,true,NA,NA,NA,NA,NA,NA,NA,NA
BJVkpg3Z,3bakuke4akpi45n0y93n6zfn3q3r1f,38bquhla90deq1f3q5ajlguduqemos,BJVkpg3Z,2020-0188,2021-10-30,23:21:54,00:53:51,NA,incomplete,false,true,NA,NA,3,13,NA,red,n_l_015.jpg,NA,NA,NA,NA,NA,unpleasant,pleasant,NA,NA,NA,NA,NA,left,1672.59999990463,true,NA,NA,NA,NA,NA,NA,NA,NA
BJVkpg3Z,3bakuke4akpi45n0y93n6zfn3q3r1f,38bquhla90deq1f3q5ajlguduqemos,BJVkpg3Z,2020-0188,2021-10-30,23:21:54,00:53:51,NA,incomplete,false,true,NA,NA,3,14,NA,red,n_l_058.jpg,NA,NA,NA,NA,NA,unpleasant,pleasant,NA,NA,NA,NA,NA,left,1686.29999995232,true,NA,NA,NA,NA,NA,NA,NA,NA
BJVkpg3Z,3bakuke4akpi45n0y93n6zfn3q3r1f,38bquhla90deq1f3q5ajlguduqemos,BJVkpg3Z,2020-0188,2021-10-30,23:21:54,00:53:51,NA,incomplete,false,true,NA,NA,3,15,NA,red,m_s_112.jpg,NA,NA,NA,NA,NA,unpleasant,pleasant,NA,NA,NA,NA,NA,left,2403.89999985695,true,NA,NA,NA,NA,NA,NA,NA,NA
BJVkpg3Z,3bakuke4akpi45n0y93n6zfn3q3r1f,38bquhla90deq1f3q5ajlguduqemos,BJVkpg3Z,2020-0188,2021-10-30,23:21:54,00:53:51,NA,incomplete,false,true,NA,NA,3,16,NA,red,n_s_071.jpg,NA,NA,NA,NA,NA,unpleasant,pleasant,NA,NA,NA,NA,NA,left,1562.89999985695,true,NA,NA,NA,NA,NA,NA,NA,NA
BJVkpg3Z,3bakuke4akpi45n0y93n6zfn3q3r1f,38bquhla90deq1f3q5ajlguduqemos,BJVkpg3Z,2020-0188,2021-10-30,23:21:54,00:53:51,NA,incomplete,false,true,NA,NA,3,17,NA,red,m_s_108.jpg,NA,NA,NA,NA,NA,unpleasant,pleasant,NA,NA,NA,NA,NA,right,1908.20000004768,true,NA,NA,NA,NA,NA,NA,NA,NA
BJVkpg3Z,3bakuke4akpi45n0y93n6zfn3q3r1f,38bquhla90deq1f3q5ajlguduqemos,BJVkpg3Z,2020-0188,2021-10-30,23:21:54,00:53:51,NA,incomplete,false,true,NA,NA,3,18,NA,black,n_s_042.jpg,NA,NA,NA,NA,NA,pleasant,unpleasant,NA,NA,NA,NA,NA,right,2185.20000004768,true,NA,NA,NA,NA,NA,NA,NA,NA
BJVkpg3Z,3bakuke4akpi45n0y93n6zfn3q3r1f,38bquhla90deq1f3q5ajlguduqemos,BJVkpg3Z,2020-0188,2021-10-30,23:21:54,00:53:51,NA,incomplete,false,true,NA,NA,3,19,NA,black,n_l_090.jpg,NA,NA,NA,NA,NA,unpleasant,pleasant,NA,NA,NA,NA,NA,left,2786.69999980927,true,NA,NA,NA,NA,NA,NA,NA,NA
BJVkpg3Z,3bakuke4akpi45n0y93n6zfn3q3r1f,38bquhla90deq1f3q5ajlguduqemos,BJVkpg3Z,2020-0188,2021-10-30,23:21:54,00:53:51,NA,incomplete,false,true,NA,NA,3,20,NA,black,n_l_014.jpg,NA,NA,NA,NA,NA,unpleasant,pleasant,NA,NA,NA,NA,NA,left,2230.29999995232,true,NA,NA,NA,NA,NA,NA,NA,NA
BJVkpg3Z,3bakuke4akpi45n0y93n6zfn3q3r1f,38bquhla90deq1f3q5ajlguduqemos,BJVkpg3Z,2020-0188,2021-10-30,23:21:54,00:53:51,NA,incomplete,false,true,NA,NA,3,21,NA,black,n_s_007.jpg,NA,NA,NA,NA,NA,unpleasant,pleasant,NA,NA,NA,NA,NA,left,1593,true,NA,NA,NA,NA,NA,NA,NA,NA
BJVkpg3Z,3bakuke4akpi45n0y93n6zfn3q3r1f,38bquhla90deq1f3q5ajlguduqemos,BJVkpg3Z,2020-0188,2021-10-30,23:21:54,00:53:51,NA,incomplete,false,true,NA,NA,3,22,NA,black,m_l_071.jpg,NA,NA,NA,NA,NA,unpleasant,pleasant,NA,NA,NA,NA,NA,right,1722.70000004768,true,NA,NA,NA,NA,NA,NA,NA,NA
BJVkpg3Z,3bakuke4akpi45n0y93n6zfn3q3r1f,38bquhla90deq1f3q5ajlguduqemos,BJVkpg3Z,2020-0188,2021-10-30,23:21:54,00:53:51,NA,incomplete,false,true,NA,NA,3,23,NA,black,m_l_040.jpg,NA,NA,NA,NA,NA,unpleasant,pleasant,NA,NA,NA,NA,NA,right,1626.70000004768,true,NA,NA,NA,NA,NA,NA,NA,NA
BJVkpg3Z,3bakuke4akpi45n0y93n6zfn3q3r1f,38bquhla90deq1f3q5ajlguduqemos,BJVkpg3Z,2020-0188,2021-10-30,23:21:54,00:53:51,NA,incomplete,false,true,NA,NA,3,24,NA,gray,m_s_107.jpg,NA,NA,NA,NA,NA,pleasant,unpleasant,NA,NA,NA,NA,NA,left,2704.10000014305,true,NA,NA,NA,NA,NA,NA,NA,NA
BJVkpg3Z,3bakuke4akpi45n0y93n6zfn3q3r1f,38bquhla90deq1f3q5ajlguduqemos,BJVkpg3Z,2020-0188,2021-10-30,23:21:54,00:53:51,NA,incomplete,false,true,NA,NA,3,25,NA,gray,n_l_030.jpg,NA,NA,NA,NA,NA,unpleasant,pleasant,NA,NA,NA,NA,NA,left,2496.5,true,NA,NA,NA,NA,NA,NA,NA,NA
BJVkpg3Z,3bakuke4akpi45n0y93n6zfn3q3r1f,38bquhla90deq1f3q5ajlguduqemos,BJVkpg3Z,2020-0188,2021-10-30,23:21:54,00:53:51,NA,incomplete,false,true,NA,NA,3,26,NA,gray,m_s_101.jpg,NA,NA,NA,NA,NA,pleasant,unpleasant,NA,NA,NA,NA,NA,left,2159.80000019073,true,NA,NA,NA,NA,NA,NA,NA,NA
BJVkpg3Z,3bakuke4akpi45n0y93n6zfn3q3r1f,38bquhla90deq1f3q5ajlguduqemos,BJVkpg3Z,2020-0188,2021-10-30,23:21:54,00:53:51,NA,incomplete,false,true,NA,NA,3,27,NA,gray,m_s_085.jpg,NA,NA,NA,NA,NA,unpleasant,pleasant,NA,NA,NA,NA,NA,right,1470.5,true,NA,NA,NA,NA,NA,NA,NA,NA
BJVkpg3Z,3bakuke4akpi45n0y93n6zfn3q3r1f,38bquhla90deq1f3q5ajlguduqemos,BJVkpg3Z,2020-0188,2021-10-30,23:21:54,00:53:51,NA,incomplete,false,true,NA,NA,3,28,NA,gray,m_s_110.jpg,NA,NA,NA,NA,NA,pleasant,unpleasant,NA,NA,NA,NA,NA,right,2214.69999980927,true,NA,NA,NA,NA,NA,NA,NA,NA
BJVkpg3Z,3bakuke4akpi45n0y93n6zfn3q3r1f,38bquhla90deq1f3q5ajlguduqemos,BJVkpg3Z,2020-0188,2021-10-30,23:21:54,00:53:51,NA,incomplete,false,true,NA,NA,3,29,NA,gray,m_l_035.jpg,NA,NA,NA,NA,NA,unpleasant,pleasant,NA,NA,NA,NA,NA,left,2527.29999995232,true,NA,NA,NA,NA,NA,NA,NA,NA
BJVkpg3Z,3bakuke4akpi45n0y93n6zfn3q3r1f,38bquhla90deq1f3q5ajlguduqemos,BJVkpg3Z,2020-0188,2021-10-30,23:21:54,00:53:51,NA,incomplete,false,true,NA,NA,3,30,NA,purple,n_s_077.jpg,NA,NA,NA,NA,NA,pleasant,unpleasant,NA,NA,NA,NA,NA,right,2302.79999995232,true,NA,NA,NA,NA,NA,NA,NA,NA
BJVkpg3Z,3bakuke4akpi45n0y93n6zfn3q3r1f,38bquhla90deq1f3q5ajlguduqemos,BJVkpg3Z,2020-0188,2021-10-30,23:21:54,00:53:51,NA,incomplete,false,true,NA,NA,3,31,NA,purple,m_l_065.jpg,NA,NA,NA,NA,NA,unpleasant,pleasant,NA,NA,NA,NA,NA,left,2176.5,true,NA,NA,NA,NA,NA,NA,NA,NA
BJVkpg3Z,3bakuke4akpi45n0y93n6zfn3q3r1f,38bquhla90deq1f3q5ajlguduqemos,BJVkpg3Z,2020-0188,2021-10-30,23:21:54,00:53:51,NA,incomplete,false,true,NA,NA,3,32,NA,purple,n_s_033.jpg,NA,NA,NA,NA,NA,unpleasant,pleasant,NA,NA,NA,NA,NA,right,2482,true,NA,NA,NA,NA,NA,NA,NA,NA
BJVkpg3Z,3bakuke4akpi45n0y93n6zfn3q3r1f,38bquhla90deq1f3q5ajlguduqemos,BJVkpg3Z,2020-0188,2021-10-30,23:21:54,00:53:51,NA,incomplete,false,true,NA,NA,3,33,NA,purple,m_l_094.jpg,NA,NA,NA,NA,NA,unpleasant,pleasant,NA,NA,NA,NA,NA,right,2677.70000004768,true,NA,NA,NA,NA,NA,NA,NA,NA
BJVkpg3Z,3bakuke4akpi45n0y93n6zfn3q3r1f,38bquhla90deq1f3q5ajlguduqemos,BJVkpg3Z,2020-0188,2021-10-30,23:21:54,00:53:51,NA,incomplete,false,true,NA,NA,3,34,NA,purple,n_l_046.jpg,NA,NA,NA,NA,NA,unpleasant,pleasant,NA,NA,NA,NA,NA,left,1938.79999995232,true,NA,NA,NA,NA,NA,NA,NA,NA
BJVkpg3Z,3bakuke4akpi45n0y93n6zfn3q3r1f,38bquhla90deq1f3q5ajlguduqemos,BJVkpg3Z,2020-0188,2021-10-30,23:21:54,00:53:51,NA,incomplete,false,true,NA,NA,3,35,NA,purple,m_l_103.jpg,NA,NA,NA,NA,NA,unpleasant,pleasant,NA,NA,NA,NA,NA,right,1602.29999995232,true,NA,NA,NA,NA,NA,NA,NA,NA
BJVkpg3Z,3bakuke4akpi45n0y93n6zfn3q3r1f,38bquhla90deq1f3q5ajlguduqemos,BJVkpg3Z,2020-0188,2021-10-30,23:21:54,00:53:51,NA,incomplete,false,NA,NA,true,3,0,NA,NA,NA,left,n_l_058.jpg,red,black,NA,NA,NA,NA,NA,NA,NA,NA,NA,NaN,NA,2846.2000000476837,left,1,NA,NA,NA,NA,NA
BJVkpg3Z,3bakuke4akpi45n0y93n6zfn3q3r1f,38bquhla90deq1f3q5ajlguduqemos,BJVkpg3Z,2020-0188,2021-10-30,23:21:54,00:53:51,NA,incomplete,false,NA,NA,true,3,1,NA,NA,NA,right,n_l_016.jpg,red,brown,NA,NA,NA,NA,NA,NA,NA,NA,NA,NaN,NA,2625.2000000476837,right,1,NA,NA,NA,NA,NA
BJVkpg3Z,3bakuke4akpi45n0y93n6zfn3q3r1f,38bquhla90deq1f3q5ajlguduqemos,BJVkpg3Z,2020-0188,2021-10-30,23:21:54,00:53:51,NA,incomplete,false,NA,NA,true,3,2,NA,NA,NA,right,n_l_014.jpg,gray,black,NA,NA,NA,NA,NA,NA,NA,NA,NA,NaN,NA,2849.2000000476837,right,1,NA,NA,NA,NA,NA
BJVkpg3Z,3bakuke4akpi45n0y93n6zfn3q3r1f,38bquhla90deq1f3q5ajlguduqemos,BJVkpg3Z,2020-0188,2021-10-30,23:21:54,00:53:51,NA,incomplete,false,NA,NA,true,3,3,NA,NA,NA,right,n_l_001.jpg,brown,green,NA,NA,NA,NA,NA,NA,NA,NA,NA,NaN,NA,1742.8000001907349,right,1,NA,NA,NA,NA,NA
BJVkpg3Z,3bakuke4akpi45n0y93n6zfn3q3r1f,38bquhla90deq1f3q5ajlguduqemos,BJVkpg3Z,2020-0188,2021-10-30,23:21:54,00:53:51,NA,incomplete,false,NA,NA,true,3,4,NA,NA,NA,left,m_l_040.jpg,black,gray,NA,NA,NA,NA,NA,NA,NA,NA,NA,NaN,NA,2173.7999999523163,left,1,NA,NA,NA,NA,NA
BJVkpg3Z,3bakuke4akpi45n0y93n6zfn3q3r1f,38bquhla90deq1f3q5ajlguduqemos,BJVkpg3Z,2020-0188,2021-10-30,23:21:54,00:53:51,NA,incomplete,false,NA,NA,true,3,5,NA,NA,NA,right,n_s_033.jpg,gray,purple,NA,NA,NA,NA,NA,NA,NA,NA,NA,NaN,NA,1665,right,1,NA,NA,NA,NA,NA
BJVkpg3Z,3bakuke4akpi45n0y93n6zfn3q3r1f,38bquhla90deq1f3q5ajlguduqemos,BJVkpg3Z,2020-0188,2021-10-30,23:21:54,00:53:51,NA,incomplete,false,NA,NA,true,3,6,NA,NA,NA,right,m_l_053.jpg,green,brown,NA,NA,NA,NA,NA,NA,NA,NA,NA,NaN,NA,1926.2000000476837,right,1,NA,NA,NA,NA,NA
BJVkpg3Z,3bakuke4akpi45n0y93n6zfn3q3r1f,38bquhla90deq1f3q5ajlguduqemos,BJVkpg3Z,2020-0188,2021-10-30,23:21:54,00:53:51,NA,incomplete,false,NA,NA,true,3,7,NA,NA,NA,right,m_l_103.jpg,gray,purple,NA,NA,NA,NA,NA,NA,NA,NA,NA,NaN,NA,2246.2000000476837,right,1,NA,NA,NA,NA,NA
BJVkpg3Z,3bakuke4akpi45n0y93n6zfn3q3r1f,38bquhla90deq1f3q5ajlguduqemos,BJVkpg3Z,2020-0188,2021-10-30,23:21:54,00:53:51,NA,incomplete,false,NA,NA,true,3,8,NA,NA,NA,left,m_l_065.jpg,purple,gray,NA,NA,NA,NA,NA,NA,NA,NA,NA,NaN,NA,2040.9000000953674,left,1,NA,NA,NA,NA,NA
BJVkpg3Z,3bakuke4akpi45n0y93n6zfn3q3r1f,38bquhla90deq1f3q5ajlguduqemos,BJVkpg3Z,2020-0188,2021-10-30,23:21:54,00:53:51,NA,incomplete,false,NA,NA,true,3,9,NA,NA,NA,left,m_l_071.jpg,black,gray,NA,NA,NA,NA,NA,NA,NA,NA,NA,NaN,NA,2510,left,1,NA,NA,NA,NA,NA
BJVkpg3Z,3bakuke4akpi45n0y93n6zfn3q3r1f,38bquhla90deq1f3q5ajlguduqemos,BJVkpg3Z,2020-0188,2021-10-30,23:21:54,00:53:51,NA,incomplete,false,NA,NA,true,3,10,NA,NA,NA,left,n_s_071.jpg,red,black,NA,NA,NA,NA,NA,NA,NA,NA,NA,NaN,NA,2197.7000000476837,left,1,NA,NA,NA,NA,NA
BJVkpg3Z,3bakuke4akpi45n0y93n6zfn3q3r1f,38bquhla90deq1f3q5ajlguduqemos,BJVkpg3Z,2020-0188,2021-10-30,23:21:54,00:53:51,NA,incomplete,false,NA,NA,true,3,11,NA,NA,NA,right,m_l_035.jpg,purple,gray,NA,NA,NA,NA,NA,NA,NA,NA,NA,NaN,NA,2325.4000000953674,right,1,NA,NA,NA,NA,NA
BJVkpg3Z,3bakuke4akpi45n0y93n6zfn3q3r1f,38bquhla90deq1f3q5ajlguduqemos,BJVkpg3Z,2020-0188,2021-10-30,23:21:54,00:53:51,NA,incomplete,false,NA,NA,true,3,12,NA,NA,NA,right,m_l_024.jpg,brown,green,NA,NA,NA,NA,NA,NA,NA,NA,NA,NaN,NA,2580.7999999523163,right,1,NA,NA,NA,NA,NA
BJVkpg3Z,3bakuke4akpi45n0y93n6zfn3q3r1f,38bquhla90deq1f3q5ajlguduqemos,BJVkpg3Z,2020-0188,2021-10-30,23:21:54,00:53:51,NA,incomplete,false,NA,NA,true,3,13,NA,NA,NA,left,m_s_110.jpg,gray,black,NA,NA,NA,NA,NA,NA,NA,NA,NA,NaN,NA,1741.3999998569489,left,1,NA,NA,NA,NA,NA
BJVkpg3Z,3bakuke4akpi45n0y93n6zfn3q3r1f,38bquhla90deq1f3q5ajlguduqemos,BJVkpg3Z,2020-0188,2021-10-30,23:21:54,00:53:51,NA,incomplete,false,NA,NA,true,3,14,NA,NA,NA,right,m_s_101.jpg,black,gray,NA,NA,NA,NA,NA,NA,NA,NA,NA,NaN,NA,4475.099999904633,right,1,NA,NA,NA,NA,NA
BJVkpg3Z,3bakuke4akpi45n0y93n6zfn3q3r1f,38bquhla90deq1f3q5ajlguduqemos,BJVkpg3Z,2020-0188,2021-10-30,23:21:54,00:53:51,NA,incomplete,false,NA,NA,true,3,15,NA,NA,NA,right,m_s_026.jpg,red,brown,NA,NA,NA,NA,NA,NA,NA,NA,NA,NaN,NA,2204.699999809265,right,1,NA,NA,NA,NA,NA
BJVkpg3Z,3bakuke4akpi45n0y93n6zfn3q3r1f,38bquhla90deq1f3q5ajlguduqemos,BJVkpg3Z,2020-0188,2021-10-30,23:21:54,00:53:51,NA,incomplete,false,NA,NA,true,3,16,NA,NA,NA,right,m_s_108.jpg,black,red,NA,NA,NA,NA,NA,NA,NA,NA,NA,NaN,NA,2085.7999999523163,right,1,NA,NA,NA,NA,NA
BJVkpg3Z,3bakuke4akpi45n0y93n6zfn3q3r1f,38bquhla90deq1f3q5ajlguduqemos,BJVkpg3Z,2020-0188,2021-10-30,23:21:54,00:53:51,NA,incomplete,false,NA,NA,true,3,17,NA,NA,NA,left,n_l_090.jpg,black,gray,NA,NA,NA,NA,NA,NA,NA,NA,NA,NaN,NA,2835.4000000953674,left,1,NA,NA,NA,NA,NA
BJVkpg3Z,3bakuke4akpi45n0y93n6zfn3q3r1f,38bquhla90deq1f3q5ajlguduqemos,BJVkpg3Z,2020-0188,2021-10-30,23:21:54,00:53:51,NA,incomplete,false,NA,NA,true,3,18,NA,NA,NA,left,n_l_084.jpg,green,brown,NA,NA,NA,NA,NA,NA,NA,NA,NA,NaN,NA,1963.2999999523163,left,1,NA,NA,NA,NA,NA
BJVkpg3Z,3bakuke4akpi45n0y93n6zfn3q3r1f,38bquhla90deq1f3q5ajlguduqemos,BJVkpg3Z,2020-0188,2021-10-30,23:21:54,00:53:51,NA,incomplete,false,NA,NA,true,3,19,NA,NA,NA,right,n_l_015.jpg,brown,red,NA,NA,NA,NA,NA,NA,NA,NA,NA,NaN,NA,1558.5,right,1,NA,NA,NA,NA,NA
BJVkpg3Z,3bakuke4akpi45n0y93n6zfn3q3r1f,38bquhla90deq1f3q5ajlguduqemos,BJVkpg3Z,2020-0188,2021-10-30,23:21:54,00:53:51,NA,incomplete,false,NA,NA,true,3,20,NA,NA,NA,left,n_l_030.jpg,gray,black,NA,NA,NA,NA,NA,NA,NA,NA,NA,NaN,NA,2499.7000000476837,left,1,NA,NA,NA,NA,NA
BJVkpg3Z,3bakuke4akpi45n0y93n6zfn3q3r1f,38bquhla90deq1f3q5ajlguduqemos,BJVkpg3Z,2020-0188,2021-10-30,23:21:54,00:53:51,NA,incomplete,false,NA,NA,true,3,21,NA,NA,NA,right,n_l_070.jpg,green,brown,NA,NA,NA,NA,NA,NA,NA,NA,NA,NaN,NA,2411,right,1,NA,NA,NA,NA,NA
BJVkpg3Z,3bakuke4akpi45n0y93n6zfn3q3r1f,38bquhla90deq1f3q5ajlguduqemos,BJVkpg3Z,2020-0188,2021-10-30,23:21:54,00:53:51,NA,incomplete,false,NA,true,NA,3,0,NA,NA,NA,right,NA,NA,NA,absent,NA,NA,m_s_101.jpg,gray,m_l_071.jpg,black,between,NA,NaN,NA,NA,NA,NA,left,3623.600000143051,0,2,3107.2000000476837
BJVkpg3Z,3bakuke4akpi45n0y93n6zfn3q3r1f,38bquhla90deq1f3q5ajlguduqemos,BJVkpg3Z,2020-0188,2021-10-30,23:21:54,00:53:51,NA,incomplete,false,NA,true,NA,3,1,NA,NA,NA,right,NA,NA,NA,absent,NA,NA,m_l_035.jpg,gray,n_l_030.jpg,gray,within,NA,NaN,NA,NA,NA,NA,left,7559.399999856949,0,1,1498.4000000953674
BJVkpg3Z,3bakuke4akpi45n0y93n6zfn3q3r1f,38bquhla90deq1f3q5ajlguduqemos,BJVkpg3Z,2020-0188,2021-10-30,23:21:54,00:53:51,NA,incomplete,false,NA,true,NA,3,2,NA,NA,NA,right,NA,NA,NA,absent,NA,NA,m_s_108.jpg,red,n_l_015.jpg,red,within,NA,NaN,NA,NA,NA,NA,left,4392.599999904633,0,0,1584.7000000476837
BJVkpg3Z,3bakuke4akpi45n0y93n6zfn3q3r1f,38bquhla90deq1f3q5ajlguduqemos,BJVkpg3Z,2020-0188,2021-10-30,23:21:54,00:53:51,NA,incomplete,false,NA,true,NA,3,3,NA,NA,NA,right,NA,NA,NA,absent,NA,NA,n_l_014.jpg,black,n_s_071.jpg,red,between,NA,NaN,NA,NA,NA,NA,right,5858.5,1,2,2466.9000000953674
BJVkpg3Z,3bakuke4akpi45n0y93n6zfn3q3r1f,38bquhla90deq1f3q5ajlguduqemos,BJVkpg3Z,2020-0188,2021-10-30,23:21:54,00:53:51,NA,incomplete,false,NA,true,NA,3,4,NA,NA,NA,left,NA,NA,NA,absent,NA,NA,m_l_024.jpg,green,m_l_053.jpg,brown,between,NA,NaN,NA,NA,NA,NA,left,6381,1,3,4674.400000095367
BJVkpg3Z,3bakuke4akpi45n0y93n6zfn3q3r1f,38bquhla90deq1f3q5ajlguduqemos,BJVkpg3Z,2020-0188,2021-10-30,23:21:54,00:53:51,NA,incomplete,false,NA,true,NA,3,5,NA,NA,NA,left,NA,NA,NA,absent,NA,NA,m_l_065.jpg,purple,m_l_103.jpg,purple,within,NA,NaN,NA,NA,NA,NA,left,4157.900000095367,1,0,3585.0999999046326
BJVkpg3Z,3bakuke4akpi45n0y93n6zfn3q3r1f,38bquhla90deq1f3q5ajlguduqemos,BJVkpg3Z,2020-0188,2021-10-30,23:21:54,00:53:51,NA,incomplete,false,NA,true,NA,3,6,NA,NA,NA,right,NA,NA,NA,absent,NA,NA,n_l_058.jpg,red,n_l_016.jpg,brown,between,NA,NaN,NA,NA,NA,NA,left,3975.7000000476837,0,1,1296.1999998092651
BJVkpg3Z,3bakuke4akpi45n0y93n6zfn3q3r1f,38bquhla90deq1f3q5ajlguduqemos,BJVkpg3Z,2020-0188,2021-10-30,23:21:54,00:53:51,NA,incomplete,false,NA,true,NA,3,7,NA,NA,NA,left,NA,NA,NA,absent,NA,NA,n_l_070.jpg,brown,m_s_026.jpg,brown,within,NA,NaN,NA,NA,NA,NA,left,3253.5,1,0,1125.8999998569489
BJVkpg3Z,3bakuke4akpi45n0y93n6zfn3q3r1f,38bquhla90deq1f3q5ajlguduqemos,BJVkpg3Z,2020-0188,2021-10-30,23:21:54,00:53:51,NA,incomplete,false,NA,true,NA,3,8,NA,NA,NA,left,NA,NA,NA,absent,NA,NA,m_s_110.jpg,gray,n_s_033.jpg,purple,between,NA,NaN,NA,NA,NA,NA,left,3968.0999999046326,1,2,2381.2000000476837
BJVkpg3Z,3bakuke4akpi45n0y93n6zfn3q3r1f,38bquhla90deq1f3q5ajlguduqemos,BJVkpg3Z,2020-0188,2021-10-30,23:21:54,00:53:51,NA,incomplete,false,NA,true,NA,3,9,NA,NA,NA,right,NA,NA,NA,absent,NA,NA,m_l_040.jpg,black,n_l_090.jpg,black,within,NA,NaN,NA,NA,NA,NA,left,7702.099999904633,0,1,2536.2999999523163
BJVkpg3Z,3bakuke4akpi45n0y93n6zfn3q3r1f,38bquhla90deq1f3q5ajlguduqemos,BJVkpg3Z,2020-0188,2021-10-30,23:21:54,00:53:51,NA,incomplete,false,NA,true,NA,3,10,NA,NA,NA,right,NA,NA,NA,absent,NA,NA,n_l_084.jpg,green,n_l_001.jpg,green,within,NA,NaN,NA,NA,NA,NA,right,3479.800000190735,1,0,1472.7000000476837
BJVkpg3Z,3bakuke4akpi45n0y93n6zfn3q3r1f,38bquhla90deq1f3q5ajlguduqemos,BJVkpg3Z,2020-0188,2021-10-30,23:21:54,00:53:51,NA,incomplete,false,true,NA,NA,4,0,NA,black,m_l_066.jpg,NA,NA,NA,NA,NA,unpleasant,pleasant,NA,NA,NA,NA,NA,right,2258.59999990463,true,NA,NA,NA,NA,NA,NA,NA,NA
BJVkpg3Z,3bakuke4akpi45n0y93n6zfn3q3r1f,38bquhla90deq1f3q5ajlguduqemos,BJVkpg3Z,2020-0188,2021-10-30,23:21:54,00:53:51,NA,incomplete,false,true,NA,NA,4,1,NA,black,m_s_089.jpg,NA,NA,NA,NA,NA,unpleasant,pleasant,NA,NA,NA,NA,NA,right,1647.69999980927,true,NA,NA,NA,NA,NA,NA,NA,NA
BJVkpg3Z,3bakuke4akpi45n0y93n6zfn3q3r1f,38bquhla90deq1f3q5ajlguduqemos,BJVkpg3Z,2020-0188,2021-10-30,23:21:54,00:53:51,NA,incomplete,false,true,NA,NA,4,2,NA,black,m_l_009.jpg,NA,NA,NA,NA,NA,pleasant,unpleasant,NA,NA,NA,NA,NA,left,1796.59999990463,true,NA,NA,NA,NA,NA,NA,NA,NA
BJVkpg3Z,3bakuke4akpi45n0y93n6zfn3q3r1f,38bquhla90deq1f3q5ajlguduqemos,BJVkpg3Z,2020-0188,2021-10-30,23:21:54,00:53:51,NA,incomplete,false,true,NA,NA,4,3,NA,black,m_s_035.jpg,NA,NA,NA,NA,NA,pleasant,unpleasant,NA,NA,NA,NA,NA,right,1936.20000004768,true,NA,NA,NA,NA,NA,NA,NA,NA
BJVkpg3Z,3bakuke4akpi45n0y93n6zfn3q3r1f,38bquhla90deq1f3q5ajlguduqemos,BJVkpg3Z,2020-0188,2021-10-30,23:21:54,00:53:51,NA,incomplete,false,true,NA,NA,4,4,NA,black,n_l_093.jpg,NA,NA,NA,NA,NA,pleasant,unpleasant,NA,NA,NA,NA,NA,right,1696.40000009537,true,NA,NA,NA,NA,NA,NA,NA,NA
BJVkpg3Z,3bakuke4akpi45n0y93n6zfn3q3r1f,38bquhla90deq1f3q5ajlguduqemos,BJVkpg3Z,2020-0188,2021-10-30,23:21:54,00:53:51,NA,incomplete,false,true,NA,NA,4,5,NA,black,n_l_112.jpg,NA,NA,NA,NA,NA,unpleasant,pleasant,NA,NA,NA,NA,NA,right,2392.39999985695,true,NA,NA,NA,NA,NA,NA,NA,NA
BJVkpg3Z,3bakuke4akpi45n0y93n6zfn3q3r1f,38bquhla90deq1f3q5ajlguduqemos,BJVkpg3Z,2020-0188,2021-10-30,23:21:54,00:53:51,NA,incomplete,false,true,NA,NA,4,6,NA,blue,n_s_078.jpg,NA,NA,NA,NA,NA,unpleasant,pleasant,NA,NA,NA,NA,NA,left,2221.90000009537,true,NA,NA,NA,NA,NA,NA,NA,NA
BJVkpg3Z,3bakuke4akpi45n0y93n6zfn3q3r1f,38bquhla90deq1f3q5ajlguduqemos,BJVkpg3Z,2020-0188,2021-10-30,23:21:54,00:53:51,NA,incomplete,false,true,NA,NA,4,7,NA,blue,m_l_022.jpg,NA,NA,NA,NA,NA,pleasant,unpleasant,NA,NA,NA,NA,NA,left,2285.5,true,NA,NA,NA,NA,NA,NA,NA,NA
BJVkpg3Z,3bakuke4akpi45n0y93n6zfn3q3r1f,38bquhla90deq1f3q5ajlguduqemos,BJVkpg3Z,2020-0188,2021-10-30,23:21:54,00:53:51,NA,incomplete,false,true,NA,NA,4,8,NA,blue,m_l_026.jpg,NA,NA,NA,NA,NA,pleasant,unpleasant,NA,NA,NA,NA,NA,left,2008,true,NA,NA,NA,NA,NA,NA,NA,NA
BJVkpg3Z,3bakuke4akpi45n0y93n6zfn3q3r1f,38bquhla90deq1f3q5ajlguduqemos,BJVkpg3Z,2020-0188,2021-10-30,23:21:54,00:53:51,NA,incomplete,false,true,NA,NA,4,9,NA,blue,n_l_045.jpg,NA,NA,NA,NA,NA,unpleasant,pleasant,NA,NA,NA,NA,NA,left,1853.60000014305,true,NA,NA,NA,NA,NA,NA,NA,NA
BJVkpg3Z,3bakuke4akpi45n0y93n6zfn3q3r1f,38bquhla90deq1f3q5ajlguduqemos,BJVkpg3Z,2020-0188,2021-10-30,23:21:54,00:53:51,NA,incomplete,false,true,NA,NA,4,10,NA,blue,m_s_008.jpg,NA,NA,NA,NA,NA,unpleasant,pleasant,NA,NA,NA,NA,NA,right,1731.29999995232,true,NA,NA,NA,NA,NA,NA,NA,NA
BJVkpg3Z,3bakuke4akpi45n0y93n6zfn3q3r1f,38bquhla90deq1f3q5ajlguduqemos,BJVkpg3Z,2020-0188,2021-10-30,23:21:54,00:53:51,NA,incomplete,false,true,NA,NA,4,11,NA,blue,m_s_116.jpg,NA,NA,NA,NA,NA,pleasant,unpleasant,NA,NA,NA,NA,NA,left,1863.79999995232,true,NA,NA,NA,NA,NA,NA,NA,NA
BJVkpg3Z,3bakuke4akpi45n0y93n6zfn3q3r1f,38bquhla90deq1f3q5ajlguduqemos,BJVkpg3Z,2020-0188,2021-10-30,23:21:54,00:53:51,NA,incomplete,false,true,NA,NA,4,12,NA,brown,m_s_029.jpg,NA,NA,NA,NA,NA,unpleasant,pleasant,NA,NA,NA,NA,NA,left,1751.60000014305,true,NA,NA,NA,NA,NA,NA,NA,NA
BJVkpg3Z,3bakuke4akpi45n0y93n6zfn3q3r1f,38bquhla90deq1f3q5ajlguduqemos,BJVkpg3Z,2020-0188,2021-10-30,23:21:54,00:53:51,NA,incomplete,false,true,NA,NA,4,13,NA,brown,m_s_057.jpg,NA,NA,NA,NA,NA,unpleasant,pleasant,NA,NA,NA,NA,NA,left,1826.69999980927,true,NA,NA,NA,NA,NA,NA,NA,NA
BJVkpg3Z,3bakuke4akpi45n0y93n6zfn3q3r1f,38bquhla90deq1f3q5ajlguduqemos,BJVkpg3Z,2020-0188,2021-10-30,23:21:54,00:53:51,NA,incomplete,false,true,NA,NA,4,14,NA,brown,n_s_084.jpg,NA,NA,NA,NA,NA,pleasant,unpleasant,NA,NA,NA,NA,NA,left,2160.79999995232,true,NA,NA,NA,NA,NA,NA,NA,NA
BJVkpg3Z,3bakuke4akpi45n0y93n6zfn3q3r1f,38bquhla90deq1f3q5ajlguduqemos,BJVkpg3Z,2020-0188,2021-10-30,23:21:54,00:53:51,NA,incomplete,false,true,NA,NA,4,15,NA,brown,n_l_019.jpg,NA,NA,NA,NA,NA,unpleasant,pleasant,NA,NA,NA,NA,NA,right,2502.79999995232,true,NA,NA,NA,NA,NA,NA,NA,NA
BJVkpg3Z,3bakuke4akpi45n0y93n6zfn3q3r1f,38bquhla90deq1f3q5ajlguduqemos,BJVkpg3Z,2020-0188,2021-10-30,23:21:54,00:53:51,NA,incomplete,false,true,NA,NA,4,16,NA,brown,n_l_055.jpg,NA,NA,NA,NA,NA,pleasant,unpleasant,NA,NA,NA,NA,NA,left,1676.5,true,NA,NA,NA,NA,NA,NA,NA,NA
BJVkpg3Z,3bakuke4akpi45n0y93n6zfn3q3r1f,38bquhla90deq1f3q5ajlguduqemos,BJVkpg3Z,2020-0188,2021-10-30,23:21:54,00:53:51,NA,incomplete,false,true,NA,NA,4,17,NA,brown,m_s_100.jpg,NA,NA,NA,NA,NA,pleasant,unpleasant,NA,NA,NA,NA,NA,right,1743.10000014305,true,NA,NA,NA,NA,NA,NA,NA,NA
BJVkpg3Z,3bakuke4akpi45n0y93n6zfn3q3r1f,38bquhla90deq1f3q5ajlguduqemos,BJVkpg3Z,2020-0188,2021-10-30,23:21:54,00:53:51,NA,incomplete,false,true,NA,NA,4,18,NA,orange,m_l_075.jpg,NA,NA,NA,NA,NA,unpleasant,pleasant,NA,NA,NA,NA,NA,left,2353,true,NA,NA,NA,NA,NA,NA,NA,NA
BJVkpg3Z,3bakuke4akpi45n0y93n6zfn3q3r1f,38bquhla90deq1f3q5ajlguduqemos,BJVkpg3Z,2020-0188,2021-10-30,23:21:54,00:53:51,NA,incomplete,false,true,NA,NA,4,19,NA,orange,n_s_014.jpg,NA,NA,NA,NA,NA,unpleasant,pleasant,NA,NA,NA,NA,NA,left,1343.5,true,NA,NA,NA,NA,NA,NA,NA,NA
BJVkpg3Z,3bakuke4akpi45n0y93n6zfn3q3r1f,38bquhla90deq1f3q5ajlguduqemos,BJVkpg3Z,2020-0188,2021-10-30,23:21:54,00:53:51,NA,incomplete,false,true,NA,NA,4,20,NA,orange,m_s_027.jpg,NA,NA,NA,NA,NA,pleasant,unpleasant,NA,NA,NA,NA,NA,right,1694.5,true,NA,NA,NA,NA,NA,NA,NA,NA
BJVkpg3Z,3bakuke4akpi45n0y93n6zfn3q3r1f,38bquhla90deq1f3q5ajlguduqemos,BJVkpg3Z,2020-0188,2021-10-30,23:21:54,00:53:51,NA,incomplete,false,true,NA,NA,4,21,NA,orange,n_l_068.jpg,NA,NA,NA,NA,NA,unpleasant,pleasant,NA,NA,NA,NA,NA,left,1863.79999995232,true,NA,NA,NA,NA,NA,NA,NA,NA
BJVkpg3Z,3bakuke4akpi45n0y93n6zfn3q3r1f,38bquhla90deq1f3q5ajlguduqemos,BJVkpg3Z,2020-0188,2021-10-30,23:21:54,00:53:51,NA,incomplete,false,true,NA,NA,4,22,NA,orange,m_l_038.jpg,NA,NA,NA,NA,NA,unpleasant,pleasant,NA,NA,NA,NA,NA,left,1778.5,true,NA,NA,NA,NA,NA,NA,NA,NA
BJVkpg3Z,3bakuke4akpi45n0y93n6zfn3q3r1f,38bquhla90deq1f3q5ajlguduqemos,BJVkpg3Z,2020-0188,2021-10-30,23:21:54,00:53:51,NA,incomplete,false,true,NA,NA,4,23,NA,orange,n_l_037.jpg,NA,NA,NA,NA,NA,pleasant,unpleasant,NA,NA,NA,NA,NA,right,1676.39999985695,true,NA,NA,NA,NA,NA,NA,NA,NA
BJVkpg3Z,3bakuke4akpi45n0y93n6zfn3q3r1f,38bquhla90deq1f3q5ajlguduqemos,BJVkpg3Z,2020-0188,2021-10-30,23:21:54,00:53:51,NA,incomplete,false,true,NA,NA,4,24,NA,white,n_s_099.jpg,NA,NA,NA,NA,NA,pleasant,unpleasant,NA,NA,NA,NA,NA,right,2585.5,true,NA,NA,NA,NA,NA,NA,NA,NA
BJVkpg3Z,3bakuke4akpi45n0y93n6zfn3q3r1f,38bquhla90deq1f3q5ajlguduqemos,BJVkpg3Z,2020-0188,2021-10-30,23:21:54,00:53:51,NA,incomplete,false,true,NA,NA,4,25,NA,white,m_l_081.jpg,NA,NA,NA,NA,NA,pleasant,unpleasant,NA,NA,NA,NA,NA,left,1492.5,true,NA,NA,NA,NA,NA,NA,NA,NA
BJVkpg3Z,3bakuke4akpi45n0y93n6zfn3q3r1f,38bquhla90deq1f3q5ajlguduqemos,BJVkpg3Z,2020-0188,2021-10-30,23:21:54,00:53:51,NA,incomplete,false,true,NA,NA,4,26,NA,white,n_l_061.jpg,NA,NA,NA,NA,NA,pleasant,unpleasant,NA,NA,NA,NA,NA,left,1437,true,NA,NA,NA,NA,NA,NA,NA,NA
BJVkpg3Z,3bakuke4akpi45n0y93n6zfn3q3r1f,38bquhla90deq1f3q5ajlguduqemos,BJVkpg3Z,2020-0188,2021-10-30,23:21:54,00:53:51,NA,incomplete,false,true,NA,NA,4,27,NA,white,m_l_092.jpg,NA,NA,NA,NA,NA,pleasant,unpleasant,NA,NA,NA,NA,NA,left,2128.20000004768,true,NA,NA,NA,NA,NA,NA,NA,NA
BJVkpg3Z,3bakuke4akpi45n0y93n6zfn3q3r1f,38bquhla90deq1f3q5ajlguduqemos,BJVkpg3Z,2020-0188,2021-10-30,23:21:54,00:53:51,NA,incomplete,false,true,NA,NA,4,28,NA,white,m_l_034.jpg,NA,NA,NA,NA,NA,unpleasant,pleasant,NA,NA,NA,NA,NA,right,1853.79999995232,true,NA,NA,NA,NA,NA,NA,NA,NA
BJVkpg3Z,3bakuke4akpi45n0y93n6zfn3q3r1f,38bquhla90deq1f3q5ajlguduqemos,BJVkpg3Z,2020-0188,2021-10-30,23:21:54,00:53:51,NA,incomplete,false,true,NA,NA,4,29,NA,white,m_s_041.jpg,NA,NA,NA,NA,NA,unpleasant,pleasant,NA,NA,NA,NA,NA,left,2703,true,NA,NA,NA,NA,NA,NA,NA,NA
BJVkpg3Z,3bakuke4akpi45n0y93n6zfn3q3r1f,38bquhla90deq1f3q5ajlguduqemos,BJVkpg3Z,2020-0188,2021-10-30,23:21:54,00:53:51,NA,incomplete,false,true,NA,NA,4,30,NA,red,m_l_036.jpg,NA,NA,NA,NA,NA,unpleasant,pleasant,NA,NA,NA,NA,NA,left,2418.10000014305,true,NA,NA,NA,NA,NA,NA,NA,NA
BJVkpg3Z,3bakuke4akpi45n0y93n6zfn3q3r1f,38bquhla90deq1f3q5ajlguduqemos,BJVkpg3Z,2020-0188,2021-10-30,23:21:54,00:53:51,NA,incomplete,false,true,NA,NA,4,31,NA,red,m_s_058.jpg,NA,NA,NA,NA,NA,pleasant,unpleasant,NA,NA,NA,NA,NA,left,1834,true,NA,NA,NA,NA,NA,NA,NA,NA
BJVkpg3Z,3bakuke4akpi45n0y93n6zfn3q3r1f,38bquhla90deq1f3q5ajlguduqemos,BJVkpg3Z,2020-0188,2021-10-30,23:21:54,00:53:51,NA,incomplete,false,true,NA,NA,4,32,NA,red,m_l_001.jpg,NA,NA,NA,NA,NA,unpleasant,pleasant,NA,NA,NA,NA,NA,right,1958.60000014305,true,NA,NA,NA,NA,NA,NA,NA,NA
BJVkpg3Z,3bakuke4akpi45n0y93n6zfn3q3r1f,38bquhla90deq1f3q5ajlguduqemos,BJVkpg3Z,2020-0188,2021-10-30,23:21:54,00:53:51,NA,incomplete,false,true,NA,NA,4,33,NA,red,n_l_007.jpg,NA,NA,NA,NA,NA,pleasant,unpleasant,NA,NA,NA,NA,NA,right,1585.40000009537,true,NA,NA,NA,NA,NA,NA,NA,NA
BJVkpg3Z,3bakuke4akpi45n0y93n6zfn3q3r1f,38bquhla90deq1f3q5ajlguduqemos,BJVkpg3Z,2020-0188,2021-10-30,23:21:54,00:53:51,NA,incomplete,false,true,NA,NA,4,34,NA,red,n_l_087.jpg,NA,NA,NA,NA,NA,pleasant,unpleasant,NA,NA,NA,NA,NA,right,2508.70000004768,true,NA,NA,NA,NA,NA,NA,NA,NA
BJVkpg3Z,3bakuke4akpi45n0y93n6zfn3q3r1f,38bquhla90deq1f3q5ajlguduqemos,BJVkpg3Z,2020-0188,2021-10-30,23:21:54,00:53:51,NA,incomplete,false,true,NA,NA,4,35,NA,red,n_s_039.jpg,NA,NA,NA,NA,NA,unpleasant,pleasant,NA,NA,NA,NA,NA,right,2124.39999985695,true,NA,NA,NA,NA,NA,NA,NA,NA
BJVkpg3Z,3bakuke4akpi45n0y93n6zfn3q3r1f,38bquhla90deq1f3q5ajlguduqemos,BJVkpg3Z,2020-0188,2021-10-30,23:21:54,00:53:51,NA,incomplete,false,NA,NA,true,4,0,NA,NA,NA,left,n_s_084.jpg,brown,blue,NA,NA,NA,NA,NA,NA,NA,NA,NA,NaN,NA,2508,left,1,NA,NA,NA,NA,NA
BJVkpg3Z,3bakuke4akpi45n0y93n6zfn3q3r1f,38bquhla90deq1f3q5ajlguduqemos,BJVkpg3Z,2020-0188,2021-10-30,23:21:54,00:53:51,NA,incomplete,false,NA,NA,true,4,1,NA,NA,NA,right,m_l_038.jpg,white,orange,NA,NA,NA,NA,NA,NA,NA,NA,NA,NaN,NA,1865.5,right,1,NA,NA,NA,NA,NA
BJVkpg3Z,3bakuke4akpi45n0y93n6zfn3q3r1f,38bquhla90deq1f3q5ajlguduqemos,BJVkpg3Z,2020-0188,2021-10-30,23:21:54,00:53:51,NA,incomplete,false,NA,NA,true,4,2,NA,NA,NA,left,m_s_100.jpg,brown,blue,NA,NA,NA,NA,NA,NA,NA,NA,NA,NaN,NA,2264.7000000476837,left,1,NA,NA,NA,NA,NA
BJVkpg3Z,3bakuke4akpi45n0y93n6zfn3q3r1f,38bquhla90deq1f3q5ajlguduqemos,BJVkpg3Z,2020-0188,2021-10-30,23:21:54,00:53:51,NA,incomplete,false,NA,NA,true,4,3,NA,NA,NA,left,m_s_008.jpg,blue,brown,NA,NA,NA,NA,NA,NA,NA,NA,NA,NaN,NA,6231.200000047684,left,1,NA,NA,NA,NA,NA
BJVkpg3Z,3bakuke4akpi45n0y93n6zfn3q3r1f,38bquhla90deq1f3q5ajlguduqemos,BJVkpg3Z,2020-0188,2021-10-30,23:21:54,00:53:51,NA,incomplete,false,NA,NA,true,4,4,NA,NA,NA,left,n_l_061.jpg,white,orange,NA,NA,NA,NA,NA,NA,NA,NA,NA,NaN,NA,2389,left,1,NA,NA,NA,NA,NA
BJVkpg3Z,3bakuke4akpi45n0y93n6zfn3q3r1f,38bquhla90deq1f3q5ajlguduqemos,BJVkpg3Z,2020-0188,2021-10-30,23:21:54,00:53:51,NA,incomplete,false,NA,NA,true,4,5,NA,NA,NA,left,m_l_081.jpg,white,red,NA,NA,NA,NA,NA,NA,NA,NA,NA,NaN,NA,3664.100000143051,left,1,NA,NA,NA,NA,NA
BJVkpg3Z,3bakuke4akpi45n0y93n6zfn3q3r1f,38bquhla90deq1f3q5ajlguduqemos,BJVkpg3Z,2020-0188,2021-10-30,23:21:54,00:53:51,NA,incomplete,false,NA,NA,true,4,6,NA,NA,NA,right,m_s_116.jpg,brown,blue,NA,NA,NA,NA,NA,NA,NA,NA,NA,NaN,NA,2515.4000000953674,right,1,NA,NA,NA,NA,NA
BJVkpg3Z,3bakuke4akpi45n0y93n6zfn3q3r1f,38bquhla90deq1f3q5ajlguduqemos,BJVkpg3Z,2020-0188,2021-10-30,23:21:54,00:53:51,NA,incomplete,false,NA,NA,true,4,7,NA,NA,NA,right,m_s_041.jpg,red,white,NA,NA,NA,NA,NA,NA,NA,NA,NA,NaN,NA,2393.5,right,1,NA,NA,NA,NA,NA
BJVkpg3Z,3bakuke4akpi45n0y93n6zfn3q3r1f,38bquhla90deq1f3q5ajlguduqemos,BJVkpg3Z,2020-0188,2021-10-30,23:21:54,00:53:51,NA,incomplete,false,NA,NA,true,4,8,NA,NA,NA,left,m_s_027.jpg,orange,white,NA,NA,NA,NA,NA,NA,NA,NA,NA,NaN,NA,2628.5,left,1,NA,NA,NA,NA,NA
BJVkpg3Z,3bakuke4akpi45n0y93n6zfn3q3r1f,38bquhla90deq1f3q5ajlguduqemos,BJVkpg3Z,2020-0188,2021-10-30,23:21:54,00:53:51,NA,incomplete,false,NA,NA,true,4,9,NA,NA,NA,left,m_l_034.jpg,white,orange,NA,NA,NA,NA,NA,NA,NA,NA,NA,NaN,NA,1807.4000000953674,left,1,NA,NA,NA,NA,NA
BJVkpg3Z,3bakuke4akpi45n0y93n6zfn3q3r1f,38bquhla90deq1f3q5ajlguduqemos,BJVkpg3Z,2020-0188,2021-10-30,23:21:54,00:53:51,NA,incomplete,false,NA,NA,true,4,10,NA,NA,NA,left,n_s_014.jpg,orange,white,NA,NA,NA,NA,NA,NA,NA,NA,NA,NaN,NA,2510.4000000953674,left,1,NA,NA,NA,NA,NA
BJVkpg3Z,3bakuke4akpi45n0y93n6zfn3q3r1f,38bquhla90deq1f3q5ajlguduqemos,BJVkpg3Z,2020-0188,2021-10-30,23:21:54,00:53:51,NA,incomplete,false,NA,NA,true,4,11,NA,NA,NA,left,m_l_022.jpg,blue,brown,NA,NA,NA,NA,NA,NA,NA,NA,NA,NaN,NA,2026.7000000476837,left,1,NA,NA,NA,NA,NA
BJVkpg3Z,3bakuke4akpi45n0y93n6zfn3q3r1f,38bquhla90deq1f3q5ajlguduqemos,BJVkpg3Z,2020-0188,2021-10-30,23:21:54,00:53:51,NA,incomplete,false,NA,NA,true,4,12,NA,NA,NA,right,m_s_057.jpg,orange,brown,NA,NA,NA,NA,NA,NA,NA,NA,NA,NaN,NA,2649.7000000476837,right,1,NA,NA,NA,NA,NA
BJVkpg3Z,3bakuke4akpi45n0y93n6zfn3q3r1f,38bquhla90deq1f3q5ajlguduqemos,BJVkpg3Z,2020-0188,2021-10-30,23:21:54,00:53:51,NA,incomplete,false,NA,NA,true,4,13,NA,NA,NA,right,n_l_112.jpg,blue,black,NA,NA,NA,NA,NA,NA,NA,NA,NA,NaN,NA,2688.5,right,1,NA,NA,NA,NA,NA
BJVkpg3Z,3bakuke4akpi45n0y93n6zfn3q3r1f,38bquhla90deq1f3q5ajlguduqemos,BJVkpg3Z,2020-0188,2021-10-30,23:21:54,00:53:51,NA,incomplete,false,NA,NA,true,4,14,NA,NA,NA,right,n_l_055.jpg,blue,brown,NA,NA,NA,NA,NA,NA,NA,NA,NA,NaN,NA,2647.899999856949,right,1,NA,NA,NA,NA,NA
BJVkpg3Z,3bakuke4akpi45n0y93n6zfn3q3r1f,38bquhla90deq1f3q5ajlguduqemos,BJVkpg3Z,2020-0188,2021-10-30,23:21:54,00:53:51,NA,incomplete,false,NA,NA,true,4,15,NA,NA,NA,right,n_l_037.jpg,white,orange,NA,NA,NA,NA,NA,NA,NA,NA,NA,NaN,NA,2290.0999999046326,right,1,NA,NA,NA,NA,NA
BJVkpg3Z,3bakuke4akpi45n0y93n6zfn3q3r1f,38bquhla90deq1f3q5ajlguduqemos,BJVkpg3Z,2020-0188,2021-10-30,23:21:54,00:53:51,NA,incomplete,false,NA,NA,true,4,16,NA,NA,NA,left,n_l_093.jpg,black,blue,NA,NA,NA,NA,NA,NA,NA,NA,NA,NaN,NA,1709.5,left,1,NA,NA,NA,NA,NA
BJVkpg3Z,3bakuke4akpi45n0y93n6zfn3q3r1f,38bquhla90deq1f3q5ajlguduqemos,BJVkpg3Z,2020-0188,2021-10-30,23:21:54,00:53:51,NA,incomplete,false,NA,NA,true,4,17,NA,NA,NA,right,m_s_058.jpg,white,red,NA,NA,NA,NA,NA,NA,NA,NA,NA,NaN,NA,1953.9000000953674,right,1,NA,NA,NA,NA,NA
BJVkpg3Z,3bakuke4akpi45n0y93n6zfn3q3r1f,38bquhla90deq1f3q5ajlguduqemos,BJVkpg3Z,2020-0188,2021-10-30,23:21:54,00:53:51,NA,incomplete,false,NA,NA,true,4,18,NA,NA,NA,left,m_s_089.jpg,black,blue,NA,NA,NA,NA,NA,NA,NA,NA,NA,NaN,NA,1657.7999999523163,left,1,NA,NA,NA,NA,NA
BJVkpg3Z,3bakuke4akpi45n0y93n6zfn3q3r1f,38bquhla90deq1f3q5ajlguduqemos,BJVkpg3Z,2020-0188,2021-10-30,23:21:54,00:53:51,NA,incomplete,false,NA,NA,true,4,19,NA,NA,NA,right,m_l_026.jpg,black,blue,NA,NA,NA,NA,NA,NA,NA,NA,NA,NaN,NA,1585.5999999046326,right,1,NA,NA,NA,NA,NA
BJVkpg3Z,3bakuke4akpi45n0y93n6zfn3q3r1f,38bquhla90deq1f3q5ajlguduqemos,BJVkpg3Z,2020-0188,2021-10-30,23:21:54,00:53:51,NA,incomplete,false,NA,NA,true,4,20,NA,NA,NA,right,n_s_039.jpg,white,red,NA,NA,NA,NA,NA,NA,NA,NA,NA,NaN,NA,1748.7999999523163,right,1,NA,NA,NA,NA,NA
BJVkpg3Z,3bakuke4akpi45n0y93n6zfn3q3r1f,38bquhla90deq1f3q5ajlguduqemos,BJVkpg3Z,2020-0188,2021-10-30,23:21:54,00:53:51,NA,incomplete,false,NA,NA,true,4,21,NA,NA,NA,left,m_l_001.jpg,red,white,NA,NA,NA,NA,NA,NA,NA,NA,NA,NaN,NA,4809.400000095367,left,1,NA,NA,NA,NA,NA
BJVkpg3Z,3bakuke4akpi45n0y93n6zfn3q3r1f,38bquhla90deq1f3q5ajlguduqemos,BJVkpg3Z,2020-0188,2021-10-30,23:21:54,00:53:51,NA,incomplete,false,NA,true,NA,4,0,NA,NA,NA,right,NA,NA,NA,absent,NA,NA,m_s_027.jpg,orange,n_l_055.jpg,brown,between,NA,NaN,NA,NA,NA,NA,right,4911.799999952316,1,2,2117.9000000953674
BJVkpg3Z,3bakuke4akpi45n0y93n6zfn3q3r1f,38bquhla90deq1f3q5ajlguduqemos,BJVkpg3Z,2020-0188,2021-10-30,23:21:54,00:53:51,NA,incomplete,false,NA,true,NA,4,1,NA,NA,NA,right,NA,NA,NA,absent,NA,NA,m_l_001.jpg,red,m_l_034.jpg,white,between,NA,NaN,NA,NA,NA,NA,left,3076,0,2,4427.900000095367
BJVkpg3Z,3bakuke4akpi45n0y93n6zfn3q3r1f,38bquhla90deq1f3q5ajlguduqemos,BJVkpg3Z,2020-0188,2021-10-30,23:21:54,00:53:51,NA,incomplete,false,NA,true,NA,4,2,NA,NA,NA,right,NA,NA,NA,absent,NA,NA,n_l_112.jpg,black,m_s_089.jpg,black,within,NA,NaN,NA,NA,NA,NA,right,7498.5,1,1,4492.700000047684
BJVkpg3Z,3bakuke4akpi45n0y93n6zfn3q3r1f,38bquhla90deq1f3q5ajlguduqemos,BJVkpg3Z,2020-0188,2021-10-30,23:21:54,00:53:51,NA,incomplete,false,NA,true,NA,4,3,NA,NA,NA,right,NA,NA,NA,absent,NA,NA,n_s_084.jpg,brown,m_s_008.jpg,blue,between,NA,NaN,NA,NA,NA,NA,right,9152.799999952316,1,2,1671.9000000953674
BJVkpg3Z,3bakuke4akpi45n0y93n6zfn3q3r1f,38bquhla90deq1f3q5ajlguduqemos,BJVkpg3Z,2020-0188,2021-10-30,23:21:54,00:53:51,NA,incomplete,false,NA,true,NA,4,4,NA,NA,NA,right,NA,NA,NA,absent,NA,NA,m_s_116.jpg,blue,m_l_022.jpg,blue,within,NA,NaN,NA,NA,NA,NA,right,5316,1,0,1581.8999998569489
BJVkpg3Z,3bakuke4akpi45n0y93n6zfn3q3r1f,38bquhla90deq1f3q5ajlguduqemos,BJVkpg3Z,2020-0188,2021-10-30,23:21:54,00:53:51,NA,incomplete,false,NA,true,NA,4,5,NA,NA,NA,left,NA,NA,NA,absent,NA,NA,m_s_058.jpg,red,n_s_039.jpg,red,within,NA,NaN,NA,NA,NA,NA,left,3190.199999809265,1,0,1621
BJVkpg3Z,3bakuke4akpi45n0y93n6zfn3q3r1f,38bquhla90deq1f3q5ajlguduqemos,BJVkpg3Z,2020-0188,2021-10-30,23:21:54,00:53:51,NA,incomplete,false,NA,true,NA,4,6,NA,NA,NA,left,NA,NA,NA,absent,NA,NA,m_l_081.jpg,white,m_s_041.jpg,white,within,NA,NaN,NA,NA,NA,NA,left,3059.7999999523163,1,0,1058.7999999523163
BJVkpg3Z,3bakuke4akpi45n0y93n6zfn3q3r1f,38bquhla90deq1f3q5ajlguduqemos,BJVkpg3Z,2020-0188,2021-10-30,23:21:54,00:53:51,NA,incomplete,false,NA,true,NA,4,7,NA,NA,NA,left,NA,NA,NA,absent,NA,NA,n_s_014.jpg,orange,n_l_037.jpg,orange,within,NA,NaN,NA,NA,NA,NA,left,3341.5,1,0,1673.5
BJVkpg3Z,3bakuke4akpi45n0y93n6zfn3q3r1f,38bquhla90deq1f3q5ajlguduqemos,BJVkpg3Z,2020-0188,2021-10-30,23:21:54,00:53:51,NA,incomplete,false,NA,true,NA,4,8,NA,NA,NA,left,NA,NA,NA,absent,NA,NA,m_l_038.jpg,orange,n_l_061.jpg,white,between,NA,NaN,NA,NA,NA,NA,left,4492.100000143051,1,2,1160.5
BJVkpg3Z,3bakuke4akpi45n0y93n6zfn3q3r1f,38bquhla90deq1f3q5ajlguduqemos,BJVkpg3Z,2020-0188,2021-10-30,23:21:54,00:53:51,NA,incomplete,false,NA,true,NA,4,9,NA,NA,NA,right,NA,NA,NA,absent,NA,NA,m_l_026.jpg,blue,n_l_093.jpg,black,between,NA,NaN,NA,NA,NA,NA,left,4526.299999952316,0,2,1636.6000001430511
BJVkpg3Z,3bakuke4akpi45n0y93n6zfn3q3r1f,38bquhla90deq1f3q5ajlguduqemos,BJVkpg3Z,2020-0188,2021-10-30,23:21:54,00:53:51,NA,incomplete,false,NA,true,NA,4,10,NA,NA,NA,right,NA,NA,NA,absent,NA,NA,m_s_100.jpg,brown,m_s_057.jpg,brown,within,NA,NaN,NA,NA,NA,NA,right,4552.099999904633,1,1,4281.600000143051
BJVkpg3Z,3bakuke4akpi45n0y93n6zfn3q3r1f,38bquhla90deq1f3q5ajlguduqemos,BJVkpg3Z,2020-0188,2021-10-30,23:21:54,00:53:51,NA,incomplete,false,true,NA,NA,5,0,NA,red,n_l_032.jpg,NA,NA,NA,NA,NA,pleasant,unpleasant,NA,NA,NA,NA,NA,left,1876.69999980927,true,NA,NA,NA,NA,NA,NA,NA,NA
BJVkpg3Z,3bakuke4akpi45n0y93n6zfn3q3r1f,38bquhla90deq1f3q5ajlguduqemos,BJVkpg3Z,2020-0188,2021-10-30,23:21:54,00:53:51,NA,incomplete,false,true,NA,NA,5,1,NA,red,n_s_038.jpg,NA,NA,NA,NA,NA,pleasant,unpleasant,NA,NA,NA,NA,NA,right,1393.39999985695,true,NA,NA,NA,NA,NA,NA,NA,NA
BJVkpg3Z,3bakuke4akpi45n0y93n6zfn3q3r1f,38bquhla90deq1f3q5ajlguduqemos,BJVkpg3Z,2020-0188,2021-10-30,23:21:54,00:53:51,NA,incomplete,false,true,NA,NA,5,2,NA,red,n_s_055.jpg,NA,NA,NA,NA,NA,unpleasant,pleasant,NA,NA,NA,NA,NA,left,2128.90000009537,true,NA,NA,NA,NA,NA,NA,NA,NA
BJVkpg3Z,3bakuke4akpi45n0y93n6zfn3q3r1f,38bquhla90deq1f3q5ajlguduqemos,BJVkpg3Z,2020-0188,2021-10-30,23:21:54,00:53:51,NA,incomplete,false,true,NA,NA,5,3,NA,red,n_s_070.jpg,NA,NA,NA,NA,NA,unpleasant,pleasant,NA,NA,NA,NA,NA,left,1452.19999980927,true,NA,NA,NA,NA,NA,NA,NA,NA
BJVkpg3Z,3bakuke4akpi45n0y93n6zfn3q3r1f,38bquhla90deq1f3q5ajlguduqemos,BJVkpg3Z,2020-0188,2021-10-30,23:21:54,00:53:51,NA,incomplete,false,true,NA,NA,5,4,NA,red,m_s_114.jpg,NA,NA,NA,NA,NA,pleasant,unpleasant,NA,NA,NA,NA,NA,left,2162.09999990463,true,NA,NA,NA,NA,NA,NA,NA,NA
BJVkpg3Z,3bakuke4akpi45n0y93n6zfn3q3r1f,38bquhla90deq1f3q5ajlguduqemos,BJVkpg3Z,2020-0188,2021-10-30,23:21:54,00:53:51,NA,incomplete,false,true,NA,NA,5,5,NA,red,m_l_067.jpg,NA,NA,NA,NA,NA,unpleasant,pleasant,NA,NA,NA,NA,NA,right,1809.40000009537,true,NA,NA,NA,NA,NA,NA,NA,NA
BJVkpg3Z,3bakuke4akpi45n0y93n6zfn3q3r1f,38bquhla90deq1f3q5ajlguduqemos,BJVkpg3Z,2020-0188,2021-10-30,23:21:54,00:53:51,NA,incomplete,false,true,NA,NA,5,6,NA,blue,n_l_100.jpg,NA,NA,NA,NA,NA,unpleasant,pleasant,NA,NA,NA,NA,NA,left,1897,true,NA,NA,NA,NA,NA,NA,NA,NA
BJVkpg3Z,3bakuke4akpi45n0y93n6zfn3q3r1f,38bquhla90deq1f3q5ajlguduqemos,BJVkpg3Z,2020-0188,2021-10-30,23:21:54,00:53:51,NA,incomplete,false,true,NA,NA,5,7,NA,blue,m_l_041.jpg,NA,NA,NA,NA,NA,pleasant,unpleasant,NA,NA,NA,NA,NA,left,1767.90000009537,true,NA,NA,NA,NA,NA,NA,NA,NA
BJVkpg3Z,3bakuke4akpi45n0y93n6zfn3q3r1f,38bquhla90deq1f3q5ajlguduqemos,BJVkpg3Z,2020-0188,2021-10-30,23:21:54,00:53:51,NA,incomplete,false,true,NA,NA,5,8,NA,blue,m_s_077.jpg,NA,NA,NA,NA,NA,pleasant,unpleasant,NA,NA,NA,NA,NA,left,1672,true,NA,NA,NA,NA,NA,NA,NA,NA
BJVkpg3Z,3bakuke4akpi45n0y93n6zfn3q3r1f,38bquhla90deq1f3q5ajlguduqemos,BJVkpg3Z,2020-0188,2021-10-30,23:21:54,00:53:51,NA,incomplete,false,true,NA,NA,5,9,NA,blue,m_s_109.jpg,NA,NA,NA,NA,NA,unpleasant,pleasant,NA,NA,NA,NA,NA,left,1617.5,true,NA,NA,NA,NA,NA,NA,NA,NA
BJVkpg3Z,3bakuke4akpi45n0y93n6zfn3q3r1f,38bquhla90deq1f3q5ajlguduqemos,BJVkpg3Z,2020-0188,2021-10-30,23:21:54,00:53:51,NA,incomplete,false,true,NA,NA,5,10,NA,blue,n_s_021.jpg,NA,NA,NA,NA,NA,unpleasant,pleasant,NA,NA,NA,NA,NA,left,2254.69999980927,true,NA,NA,NA,NA,NA,NA,NA,NA
BJVkpg3Z,3bakuke4akpi45n0y93n6zfn3q3r1f,38bquhla90deq1f3q5ajlguduqemos,BJVkpg3Z,2020-0188,2021-10-30,23:21:54,00:53:51,NA,incomplete,false,true,NA,NA,5,11,NA,blue,m_l_031.jpg,NA,NA,NA,NA,NA,pleasant,unpleasant,NA,NA,NA,NA,NA,left,1759.70000004768,true,NA,NA,NA,NA,NA,NA,NA,NA
BJVkpg3Z,3bakuke4akpi45n0y93n6zfn3q3r1f,38bquhla90deq1f3q5ajlguduqemos,BJVkpg3Z,2020-0188,2021-10-30,23:21:54,00:53:51,NA,incomplete,false,true,NA,NA,5,12,NA,orange,n_l_071.jpg,NA,NA,NA,NA,NA,pleasant,unpleasant,NA,NA,NA,NA,NA,right,1921.20000004768,true,NA,NA,NA,NA,NA,NA,NA,NA
BJVkpg3Z,3bakuke4akpi45n0y93n6zfn3q3r1f,38bquhla90deq1f3q5ajlguduqemos,BJVkpg3Z,2020-0188,2021-10-30,23:21:54,00:53:51,NA,incomplete,false,true,NA,NA,5,13,NA,orange,n_s_024.jpg,NA,NA,NA,NA,NA,unpleasant,pleasant,NA,NA,NA,NA,NA,left,1834.20000004768,true,NA,NA,NA,NA,NA,NA,NA,NA
BJVkpg3Z,3bakuke4akpi45n0y93n6zfn3q3r1f,38bquhla90deq1f3q5ajlguduqemos,BJVkpg3Z,2020-0188,2021-10-30,23:21:54,00:53:51,NA,incomplete,false,true,NA,NA,5,14,NA,orange,n_l_113.jpg,NA,NA,NA,NA,NA,unpleasant,pleasant,NA,NA,NA,NA,NA,left,1619.39999985695,true,NA,NA,NA,NA,NA,NA,NA,NA
BJVkpg3Z,3bakuke4akpi45n0y93n6zfn3q3r1f,38bquhla90deq1f3q5ajlguduqemos,BJVkpg3Z,2020-0188,2021-10-30,23:21:54,00:53:51,NA,incomplete,false,true,NA,NA,5,15,NA,orange,n_s_028.jpg,NA,NA,NA,NA,NA,pleasant,unpleasant,NA,NA,NA,NA,NA,right,2181.70000004768,true,NA,NA,NA,NA,NA,NA,NA,NA
BJVkpg3Z,3bakuke4akpi45n0y93n6zfn3q3r1f,38bquhla90deq1f3q5ajlguduqemos,BJVkpg3Z,2020-0188,2021-10-30,23:21:54,00:53:51,NA,incomplete,false,true,NA,NA,5,16,NA,orange,n_s_013.jpg,NA,NA,NA,NA,NA,pleasant,unpleasant,NA,NA,NA,NA,NA,right,1955.10000014305,true,NA,NA,NA,NA,NA,NA,NA,NA
BJVkpg3Z,3bakuke4akpi45n0y93n6zfn3q3r1f,38bquhla90deq1f3q5ajlguduqemos,BJVkpg3Z,2020-0188,2021-10-30,23:21:54,00:53:51,NA,incomplete,false,true,NA,NA,5,17,NA,orange,n_s_034.jpg,NA,NA,NA,NA,NA,pleasant,unpleasant,NA,NA,NA,NA,NA,right,1902.30000019073,true,NA,NA,NA,NA,NA,NA,NA,NA
