workerId,hitId,assignmentId,subject,studyid,exp_date,exp_start,exp_end,time_start,time_end,practice,encoding,memory,association,block,trial,event_order,event,stim,answer,object,left_context,right_context,context_type,label_left,label_right,left_image,left_event,right_image,right_event,condition,response,response_time,response_acc,association_response_time,association_response,association_acc,order_response,order_response_time,order_acc,distance_response,distance_response_time
CONv8KhQ,3z33ic0jd3zsmh7cb6nqm2m9m84v9l,39asuflu61k38m1iay9wrlgxxsyex6,CONv8KhQ,2020-0188,2021-10-31,03:06:42,04:52:43,NA,incomplete,true,true,NA,NA,0,0,NA,white,n_l_050.jpg,NA,NA,NA,NA,NA,unpleasant,pleasant,NA,NA,NA,NA,NA,right,2494,true,NA,NA,NA,NA,NA,NA,NA,NA
CONv8KhQ,3z33ic0jd3zsmh7cb6nqm2m9m84v9l,39asuflu61k38m1iay9wrlgxxsyex6,CONv8KhQ,2020-0188,2021-10-31,03:06:42,04:52:43,NA,incomplete,true,true,NA,NA,0,1,NA,white,m_s_003.jpg,NA,NA,NA,NA,NA,unpleasant,pleasant,NA,NA,NA,NA,NA,right,1484,true,NA,NA,NA,NA,NA,NA,NA,NA
CONv8KhQ,3z33ic0jd3zsmh7cb6nqm2m9m84v9l,39asuflu61k38m1iay9wrlgxxsyex6,CONv8KhQ,2020-0188,2021-10-31,03:06:42,04:52:43,NA,incomplete,true,true,NA,NA,0,2,NA,white,m_l_036.jpg,NA,NA,NA,NA,NA,pleasant,unpleasant,NA,NA,NA,NA,NA,right,1265,true,NA,NA,NA,NA,NA,NA,NA,NA
CONv8KhQ,3z33ic0jd3zsmh7cb6nqm2m9m84v9l,39asuflu61k38m1iay9wrlgxxsyex6,CONv8KhQ,2020-0188,2021-10-31,03:06:42,04:52:43,NA,incomplete,true,true,NA,NA,0,3,NA,white,m_l_101.jpg,NA,NA,NA,NA,NA,pleasant,unpleasant,NA,NA,NA,NA,NA,right,1516,true,NA,NA,NA,NA,NA,NA,NA,NA
CONv8KhQ,3z33ic0jd3zsmh7cb6nqm2m9m84v9l,39asuflu61k38m1iay9wrlgxxsyex6,CONv8KhQ,2020-0188,2021-10-31,03:06:42,04:52:43,NA,incomplete,true,true,NA,NA,0,4,NA,white,m_l_086.jpg,NA,NA,NA,NA,NA,pleasant,unpleasant,NA,NA,NA,NA,NA,left,1700,true,NA,NA,NA,NA,NA,NA,NA,NA
CONv8KhQ,3z33ic0jd3zsmh7cb6nqm2m9m84v9l,39asuflu61k38m1iay9wrlgxxsyex6,CONv8KhQ,2020-0188,2021-10-31,03:06:42,04:52:43,NA,incomplete,true,true,NA,NA,0,5,NA,white,n_l_074.jpg,NA,NA,NA,NA,NA,pleasant,unpleasant,NA,NA,NA,NA,NA,right,1110,true,NA,NA,NA,NA,NA,NA,NA,NA
CONv8KhQ,3z33ic0jd3zsmh7cb6nqm2m9m84v9l,39asuflu61k38m1iay9wrlgxxsyex6,CONv8KhQ,2020-0188,2021-10-31,03:06:42,04:52:43,NA,incomplete,true,true,NA,NA,0,6,NA,gray,m_l_065.jpg,NA,NA,NA,NA,NA,pleasant,unpleasant,NA,NA,NA,NA,NA,left,2021,true,NA,NA,NA,NA,NA,NA,NA,NA
CONv8KhQ,3z33ic0jd3zsmh7cb6nqm2m9m84v9l,39asuflu61k38m1iay9wrlgxxsyex6,CONv8KhQ,2020-0188,2021-10-31,03:06:42,04:52:43,NA,incomplete,true,true,NA,NA,0,7,NA,gray,m_s_087.jpg,NA,NA,NA,NA,NA,unpleasant,pleasant,NA,NA,NA,NA,NA,none,0,false,NA,NA,NA,NA,NA,NA,NA,NA
CONv8KhQ,3z33ic0jd3zsmh7cb6nqm2m9m84v9l,39asuflu61k38m1iay9wrlgxxsyex6,CONv8KhQ,2020-0188,2021-10-31,03:06:42,04:52:43,NA,incomplete,true,true,NA,NA,0,8,NA,gray,m_l_109.jpg,NA,NA,NA,NA,NA,pleasant,unpleasant,NA,NA,NA,NA,NA,right,2086,true,NA,NA,NA,NA,NA,NA,NA,NA
CONv8KhQ,3z33ic0jd3zsmh7cb6nqm2m9m84v9l,39asuflu61k38m1iay9wrlgxxsyex6,CONv8KhQ,2020-0188,2021-10-31,03:06:42,04:52:43,NA,incomplete,true,true,NA,NA,0,9,NA,gray,n_l_058.jpg,NA,NA,NA,NA,NA,unpleasant,pleasant,NA,NA,NA,NA,NA,left,1998,true,NA,NA,NA,NA,NA,NA,NA,NA
CONv8KhQ,3z33ic0jd3zsmh7cb6nqm2m9m84v9l,39asuflu61k38m1iay9wrlgxxsyex6,CONv8KhQ,2020-0188,2021-10-31,03:06:42,04:52:43,NA,incomplete,true,true,NA,NA,0,10,NA,gray,n_s_028.jpg,NA,NA,NA,NA,NA,unpleasant,pleasant,NA,NA,NA,NA,NA,right,1322,true,NA,NA,NA,NA,NA,NA,NA,NA
CONv8KhQ,3z33ic0jd3zsmh7cb6nqm2m9m84v9l,39asuflu61k38m1iay9wrlgxxsyex6,CONv8KhQ,2020-0188,2021-10-31,03:06:42,04:52:43,NA,incomplete,true,true,NA,NA,0,11,NA,gray,n_s_039.jpg,NA,NA,NA,NA,NA,pleasant,unpleasant,NA,NA,NA,NA,NA,right,1058,true,NA,NA,NA,NA,NA,NA,NA,NA
CONv8KhQ,3z33ic0jd3zsmh7cb6nqm2m9m84v9l,39asuflu61k38m1iay9wrlgxxsyex6,CONv8KhQ,2020-0188,2021-10-31,03:06:42,04:52:43,NA,incomplete,true,true,NA,NA,0,12,NA,blue,m_l_066.jpg,NA,NA,NA,NA,NA,pleasant,unpleasant,NA,NA,NA,NA,NA,right,1407,true,NA,NA,NA,NA,NA,NA,NA,NA
CONv8KhQ,3z33ic0jd3zsmh7cb6nqm2m9m84v9l,39asuflu61k38m1iay9wrlgxxsyex6,CONv8KhQ,2020-0188,2021-10-31,03:06:42,04:52:43,NA,incomplete,true,true,NA,NA,0,13,NA,blue,n_s_030.jpg,NA,NA,NA,NA,NA,unpleasant,pleasant,NA,NA,NA,NA,NA,left,1520,true,NA,NA,NA,NA,NA,NA,NA,NA
CONv8KhQ,3z33ic0jd3zsmh7cb6nqm2m9m84v9l,39asuflu61k38m1iay9wrlgxxsyex6,CONv8KhQ,2020-0188,2021-10-31,03:06:42,04:52:43,NA,incomplete,true,true,NA,NA,0,14,NA,blue,m_s_048.jpg,NA,NA,NA,NA,NA,unpleasant,pleasant,NA,NA,NA,NA,NA,right,2293,true,NA,NA,NA,NA,NA,NA,NA,NA
CONv8KhQ,3z33ic0jd3zsmh7cb6nqm2m9m84v9l,39asuflu61k38m1iay9wrlgxxsyex6,CONv8KhQ,2020-0188,2021-10-31,03:06:42,04:52:43,NA,incomplete,true,true,NA,NA,0,15,NA,blue,n_s_005.jpg,NA,NA,NA,NA,NA,unpleasant,pleasant,NA,NA,NA,NA,NA,right,1974,true,NA,NA,NA,NA,NA,NA,NA,NA
CONv8KhQ,3z33ic0jd3zsmh7cb6nqm2m9m84v9l,39asuflu61k38m1iay9wrlgxxsyex6,CONv8KhQ,2020-0188,2021-10-31,03:06:42,04:52:43,NA,incomplete,true,true,NA,NA,0,16,NA,blue,n_s_016.jpg,NA,NA,NA,NA,NA,pleasant,unpleasant,NA,NA,NA,NA,NA,left,1992,true,NA,NA,NA,NA,NA,NA,NA,NA
CONv8KhQ,3z33ic0jd3zsmh7cb6nqm2m9m84v9l,39asuflu61k38m1iay9wrlgxxsyex6,CONv8KhQ,2020-0188,2021-10-31,03:06:42,04:52:43,NA,incomplete,true,true,NA,NA,0,17,NA,blue,m_l_006.jpg,NA,NA,NA,NA,NA,unpleasant,pleasant,NA,NA,NA,NA,NA,none,0,false,NA,NA,NA,NA,NA,NA,NA,NA
CONv8KhQ,3z33ic0jd3zsmh7cb6nqm2m9m84v9l,39asuflu61k38m1iay9wrlgxxsyex6,CONv8KhQ,2020-0188,2021-10-31,03:06:42,04:52:43,NA,incomplete,true,true,NA,NA,0,18,NA,black,n_s_117.jpg,NA,NA,NA,NA,NA,unpleasant,pleasant,NA,NA,NA,NA,NA,right,1996,true,NA,NA,NA,NA,NA,NA,NA,NA
CONv8KhQ,3z33ic0jd3zsmh7cb6nqm2m9m84v9l,39asuflu61k38m1iay9wrlgxxsyex6,CONv8KhQ,2020-0188,2021-10-31,03:06:42,04:52:43,NA,incomplete,true,true,NA,NA,0,19,NA,black,m_s_088.jpg,NA,NA,NA,NA,NA,unpleasant,pleasant,NA,NA,NA,NA,NA,right,2016,true,NA,NA,NA,NA,NA,NA,NA,NA
CONv8KhQ,3z33ic0jd3zsmh7cb6nqm2m9m84v9l,39asuflu61k38m1iay9wrlgxxsyex6,CONv8KhQ,2020-0188,2021-10-31,03:06:42,04:52:43,NA,incomplete,true,true,NA,NA,0,20,NA,black,n_s_056.jpg,NA,NA,NA,NA,NA,unpleasant,pleasant,NA,NA,NA,NA,NA,right,2112,true,NA,NA,NA,NA,NA,NA,NA,NA
CONv8KhQ,3z33ic0jd3zsmh7cb6nqm2m9m84v9l,39asuflu61k38m1iay9wrlgxxsyex6,CONv8KhQ,2020-0188,2021-10-31,03:06:42,04:52:43,NA,incomplete,true,true,NA,NA,0,21,NA,black,m_l_083.jpg,NA,NA,NA,NA,NA,unpleasant,pleasant,NA,NA,NA,NA,NA,right,3471,true,NA,NA,NA,NA,NA,NA,NA,NA
CONv8KhQ,3z33ic0jd3zsmh7cb6nqm2m9m84v9l,39asuflu61k38m1iay9wrlgxxsyex6,CONv8KhQ,2020-0188,2021-10-31,03:06:42,04:52:43,NA,incomplete,true,true,NA,NA,0,22,NA,black,m_l_045.jpg,NA,NA,NA,NA,NA,pleasant,unpleasant,NA,NA,NA,NA,NA,right,2604,true,NA,NA,NA,NA,NA,NA,NA,NA
CONv8KhQ,3z33ic0jd3zsmh7cb6nqm2m9m84v9l,39asuflu61k38m1iay9wrlgxxsyex6,CONv8KhQ,2020-0188,2021-10-31,03:06:42,04:52:43,NA,incomplete,true,true,NA,NA,0,23,NA,black,n_s_095.jpg,NA,NA,NA,NA,NA,pleasant,unpleasant,NA,NA,NA,NA,NA,left,1539,true,NA,NA,NA,NA,NA,NA,NA,NA
CONv8KhQ,3z33ic0jd3zsmh7cb6nqm2m9m84v9l,39asuflu61k38m1iay9wrlgxxsyex6,CONv8KhQ,2020-0188,2021-10-31,03:06:42,04:52:43,NA,incomplete,true,true,NA,NA,0,24,NA,green,m_l_069.jpg,NA,NA,NA,NA,NA,pleasant,unpleasant,NA,NA,NA,NA,NA,left,2585,true,NA,NA,NA,NA,NA,NA,NA,NA
CONv8KhQ,3z33ic0jd3zsmh7cb6nqm2m9m84v9l,39asuflu61k38m1iay9wrlgxxsyex6,CONv8KhQ,2020-0188,2021-10-31,03:06:42,04:52:43,NA,incomplete,true,true,NA,NA,0,25,NA,green,n_s_054.jpg,NA,NA,NA,NA,NA,pleasant,unpleasant,NA,NA,NA,NA,NA,left,1352,true,NA,NA,NA,NA,NA,NA,NA,NA
CONv8KhQ,3z33ic0jd3zsmh7cb6nqm2m9m84v9l,39asuflu61k38m1iay9wrlgxxsyex6,CONv8KhQ,2020-0188,2021-10-31,03:06:42,04:52:43,NA,incomplete,true,true,NA,NA,0,26,NA,green,n_s_113.jpg,NA,NA,NA,NA,NA,pleasant,unpleasant,NA,NA,NA,NA,NA,left,1584,true,NA,NA,NA,NA,NA,NA,NA,NA
CONv8KhQ,3z33ic0jd3zsmh7cb6nqm2m9m84v9l,39asuflu61k38m1iay9wrlgxxsyex6,CONv8KhQ,2020-0188,2021-10-31,03:06:42,04:52:43,NA,incomplete,true,true,NA,NA,0,27,NA,green,n_l_054.jpg,NA,NA,NA,NA,NA,pleasant,unpleasant,NA,NA,NA,NA,NA,left,1360,true,NA,NA,NA,NA,NA,NA,NA,NA
CONv8KhQ,3z33ic0jd3zsmh7cb6nqm2m9m84v9l,39asuflu61k38m1iay9wrlgxxsyex6,CONv8KhQ,2020-0188,2021-10-31,03:06:42,04:52:43,NA,incomplete,true,true,NA,NA,0,28,NA,green,m_s_051.jpg,NA,NA,NA,NA,NA,pleasant,unpleasant,NA,NA,NA,NA,NA,left,1244,true,NA,NA,NA,NA,NA,NA,NA,NA
CONv8KhQ,3z33ic0jd3zsmh7cb6nqm2m9m84v9l,39asuflu61k38m1iay9wrlgxxsyex6,CONv8KhQ,2020-0188,2021-10-31,03:06:42,04:52:43,NA,incomplete,true,true,NA,NA,0,29,NA,green,m_l_048.jpg,NA,NA,NA,NA,NA,unpleasant,pleasant,NA,NA,NA,NA,NA,right,1955,true,NA,NA,NA,NA,NA,NA,NA,NA
CONv8KhQ,3z33ic0jd3zsmh7cb6nqm2m9m84v9l,39asuflu61k38m1iay9wrlgxxsyex6,CONv8KhQ,2020-0188,2021-10-31,03:06:42,04:52:43,NA,incomplete,true,true,NA,NA,0,30,NA,orange,m_l_096.jpg,NA,NA,NA,NA,NA,pleasant,unpleasant,NA,NA,NA,NA,NA,left,1552,true,NA,NA,NA,NA,NA,NA,NA,NA
CONv8KhQ,3z33ic0jd3zsmh7cb6nqm2m9m84v9l,39asuflu61k38m1iay9wrlgxxsyex6,CONv8KhQ,2020-0188,2021-10-31,03:06:42,04:52:43,NA,incomplete,true,true,NA,NA,0,31,NA,orange,n_s_077.jpg,NA,NA,NA,NA,NA,unpleasant,pleasant,NA,NA,NA,NA,NA,right,2000,true,NA,NA,NA,NA,NA,NA,NA,NA
CONv8KhQ,3z33ic0jd3zsmh7cb6nqm2m9m84v9l,39asuflu61k38m1iay9wrlgxxsyex6,CONv8KhQ,2020-0188,2021-10-31,03:06:42,04:52:43,NA,incomplete,true,true,NA,NA,0,32,NA,orange,m_l_049.jpg,NA,NA,NA,NA,NA,pleasant,unpleasant,NA,NA,NA,NA,NA,left,2383,true,NA,NA,NA,NA,NA,NA,NA,NA
CONv8KhQ,3z33ic0jd3zsmh7cb6nqm2m9m84v9l,39asuflu61k38m1iay9wrlgxxsyex6,CONv8KhQ,2020-0188,2021-10-31,03:06:42,04:52:43,NA,incomplete,true,true,NA,NA,0,33,NA,orange,m_s_044.jpg,NA,NA,NA,NA,NA,pleasant,unpleasant,NA,NA,NA,NA,NA,left,1829,true,NA,NA,NA,NA,NA,NA,NA,NA
CONv8KhQ,3z33ic0jd3zsmh7cb6nqm2m9m84v9l,39asuflu61k38m1iay9wrlgxxsyex6,CONv8KhQ,2020-0188,2021-10-31,03:06:42,04:52:43,NA,incomplete,true,true,NA,NA,0,34,NA,orange,m_s_065.jpg,NA,NA,NA,NA,NA,unpleasant,pleasant,NA,NA,NA,NA,NA,right,1991,true,NA,NA,NA,NA,NA,NA,NA,NA
CONv8KhQ,3z33ic0jd3zsmh7cb6nqm2m9m84v9l,39asuflu61k38m1iay9wrlgxxsyex6,CONv8KhQ,2020-0188,2021-10-31,03:06:42,04:52:43,NA,incomplete,true,true,NA,NA,0,35,NA,orange,n_s_022.jpg,NA,NA,NA,NA,NA,pleasant,unpleasant,NA,NA,NA,NA,NA,left,1360,true,NA,NA,NA,NA,NA,NA,NA,NA
CONv8KhQ,3z33ic0jd3zsmh7cb6nqm2m9m84v9l,39asuflu61k38m1iay9wrlgxxsyex6,CONv8KhQ,2020-0188,2021-10-31,03:06:42,04:52:43,NA,incomplete,true,NA,NA,true,0,0,NA,NA,NA,left,m_l_045.jpg,black,green,NA,NA,NA,NA,NA,NA,NA,NA,NA,NaN,NA,18258,left,1,NA,NA,NA,NA,NA
CONv8KhQ,3z33ic0jd3zsmh7cb6nqm2m9m84v9l,39asuflu61k38m1iay9wrlgxxsyex6,CONv8KhQ,2020-0188,2021-10-31,03:06:42,04:52:43,NA,incomplete,true,NA,NA,true,0,1,NA,NA,NA,left,m_s_087.jpg,gray,white,NA,NA,NA,NA,NA,NA,NA,NA,NA,NaN,NA,4564,left,1,NA,NA,NA,NA,NA
CONv8KhQ,3z33ic0jd3zsmh7cb6nqm2m9m84v9l,39asuflu61k38m1iay9wrlgxxsyex6,CONv8KhQ,2020-0188,2021-10-31,03:06:42,04:52:43,NA,incomplete,true,NA,NA,true,0,2,NA,NA,NA,right,m_s_088.jpg,blue,black,NA,NA,NA,NA,NA,NA,NA,NA,NA,NaN,NA,3871,right,1,NA,NA,NA,NA,NA
CONv8KhQ,3z33ic0jd3zsmh7cb6nqm2m9m84v9l,39asuflu61k38m1iay9wrlgxxsyex6,CONv8KhQ,2020-0188,2021-10-31,03:06:42,04:52:43,NA,incomplete,true,NA,NA,true,0,3,NA,NA,NA,left,m_s_003.jpg,white,gray,NA,NA,NA,NA,NA,NA,NA,NA,NA,NaN,NA,2679,right,0,NA,NA,NA,NA,NA
CONv8KhQ,3z33ic0jd3zsmh7cb6nqm2m9m84v9l,39asuflu61k38m1iay9wrlgxxsyex6,CONv8KhQ,2020-0188,2021-10-31,03:06:42,04:52:43,NA,incomplete,true,NA,NA,true,0,4,NA,NA,NA,right,m_l_049.jpg,green,orange,NA,NA,NA,NA,NA,NA,NA,NA,NA,NaN,NA,3143,left,0,NA,NA,NA,NA,NA
CONv8KhQ,3z33ic0jd3zsmh7cb6nqm2m9m84v9l,39asuflu61k38m1iay9wrlgxxsyex6,CONv8KhQ,2020-0188,2021-10-31,03:06:42,04:52:43,NA,incomplete,true,NA,NA,true,0,5,NA,NA,NA,left,m_s_048.jpg,blue,gray,NA,NA,NA,NA,NA,NA,NA,NA,NA,NaN,NA,2343,left,1,NA,NA,NA,NA,NA
CONv8KhQ,3z33ic0jd3zsmh7cb6nqm2m9m84v9l,39asuflu61k38m1iay9wrlgxxsyex6,CONv8KhQ,2020-0188,2021-10-31,03:06:42,04:52:43,NA,incomplete,true,NA,NA,true,0,6,NA,NA,NA,right,m_l_006.jpg,gray,blue,NA,NA,NA,NA,NA,NA,NA,NA,NA,NaN,NA,3045,right,1,NA,NA,NA,NA,NA
CONv8KhQ,3z33ic0jd3zsmh7cb6nqm2m9m84v9l,39asuflu61k38m1iay9wrlgxxsyex6,CONv8KhQ,2020-0188,2021-10-31,03:06:42,04:52:43,NA,incomplete,true,NA,NA,true,0,7,NA,NA,NA,right,n_l_074.jpg,gray,white,NA,NA,NA,NA,NA,NA,NA,NA,NA,NaN,NA,4546,left,0,NA,NA,NA,NA,NA
CONv8KhQ,3z33ic0jd3zsmh7cb6nqm2m9m84v9l,39asuflu61k38m1iay9wrlgxxsyex6,CONv8KhQ,2020-0188,2021-10-31,03:06:42,04:52:43,NA,incomplete,true,NA,NA,true,0,8,NA,NA,NA,left,n_s_113.jpg,green,orange,NA,NA,NA,NA,NA,NA,NA,NA,NA,NaN,NA,2867,right,0,NA,NA,NA,NA,NA
CONv8KhQ,3z33ic0jd3zsmh7cb6nqm2m9m84v9l,39asuflu61k38m1iay9wrlgxxsyex6,CONv8KhQ,2020-0188,2021-10-31,03:06:42,04:52:43,NA,incomplete,true,NA,NA,true,0,9,NA,NA,NA,left,m_l_109.jpg,gray,white,NA,NA,NA,NA,NA,NA,NA,NA,NA,NaN,NA,2467,left,1,NA,NA,NA,NA,NA
CONv8KhQ,3z33ic0jd3zsmh7cb6nqm2m9m84v9l,39asuflu61k38m1iay9wrlgxxsyex6,CONv8KhQ,2020-0188,2021-10-31,03:06:42,04:52:43,NA,incomplete,true,NA,NA,true,0,10,NA,NA,NA,right,n_s_039.jpg,blue,gray,NA,NA,NA,NA,NA,NA,NA,NA,NA,NaN,NA,2643,right,1,NA,NA,NA,NA,NA
CONv8KhQ,3z33ic0jd3zsmh7cb6nqm2m9m84v9l,39asuflu61k38m1iay9wrlgxxsyex6,CONv8KhQ,2020-0188,2021-10-31,03:06:42,04:52:43,NA,incomplete,true,NA,NA,true,0,11,NA,NA,NA,right,n_s_022.jpg,green,orange,NA,NA,NA,NA,NA,NA,NA,NA,NA,NaN,NA,2174,left,0,NA,NA,NA,NA,NA
CONv8KhQ,3z33ic0jd3zsmh7cb6nqm2m9m84v9l,39asuflu61k38m1iay9wrlgxxsyex6,CONv8KhQ,2020-0188,2021-10-31,03:06:42,04:52:43,NA,incomplete,true,NA,NA,true,0,12,NA,NA,NA,left,m_l_048.jpg,green,black,NA,NA,NA,NA,NA,NA,NA,NA,NA,NaN,NA,3678,right,0,NA,NA,NA,NA,NA
CONv8KhQ,3z33ic0jd3zsmh7cb6nqm2m9m84v9l,39asuflu61k38m1iay9wrlgxxsyex6,CONv8KhQ,2020-0188,2021-10-31,03:06:42,04:52:43,NA,incomplete,true,NA,NA,true,0,13,NA,NA,NA,left,m_l_086.jpg,white,gray,NA,NA,NA,NA,NA,NA,NA,NA,NA,NaN,NA,3196,right,0,NA,NA,NA,NA,NA
CONv8KhQ,3z33ic0jd3zsmh7cb6nqm2m9m84v9l,39asuflu61k38m1iay9wrlgxxsyex6,CONv8KhQ,2020-0188,2021-10-31,03:06:42,04:52:43,NA,incomplete,true,NA,NA,true,0,14,NA,NA,NA,right,n_s_016.jpg,black,blue,NA,NA,NA,NA,NA,NA,NA,NA,NA,NaN,NA,2436,right,1,NA,NA,NA,NA,NA
CONv8KhQ,3z33ic0jd3zsmh7cb6nqm2m9m84v9l,39asuflu61k38m1iay9wrlgxxsyex6,CONv8KhQ,2020-0188,2021-10-31,03:06:42,04:52:43,NA,incomplete,true,NA,NA,true,0,15,NA,NA,NA,left,n_s_056.jpg,black,green,NA,NA,NA,NA,NA,NA,NA,NA,NA,NaN,NA,2424,left,1,NA,NA,NA,NA,NA
CONv8KhQ,3z33ic0jd3zsmh7cb6nqm2m9m84v9l,39asuflu61k38m1iay9wrlgxxsyex6,CONv8KhQ,2020-0188,2021-10-31,03:06:42,04:52:43,NA,incomplete,true,NA,NA,true,0,16,NA,NA,NA,right,n_s_077.jpg,green,orange,NA,NA,NA,NA,NA,NA,NA,NA,NA,NaN,NA,3450,right,1,NA,NA,NA,NA,NA
CONv8KhQ,3z33ic0jd3zsmh7cb6nqm2m9m84v9l,39asuflu61k38m1iay9wrlgxxsyex6,CONv8KhQ,2020-0188,2021-10-31,03:06:42,04:52:43,NA,incomplete,true,NA,NA,true,0,17,NA,NA,NA,left,n_s_028.jpg,gray,white,NA,NA,NA,NA,NA,NA,NA,NA,NA,NaN,NA,2013,left,1,NA,NA,NA,NA,NA
CONv8KhQ,3z33ic0jd3zsmh7cb6nqm2m9m84v9l,39asuflu61k38m1iay9wrlgxxsyex6,CONv8KhQ,2020-0188,2021-10-31,03:06:42,04:52:43,NA,incomplete,true,NA,NA,true,0,18,NA,NA,NA,left,m_s_051.jpg,green,black,NA,NA,NA,NA,NA,NA,NA,NA,NA,NaN,NA,2298,left,1,NA,NA,NA,NA,NA
CONv8KhQ,3z33ic0jd3zsmh7cb6nqm2m9m84v9l,39asuflu61k38m1iay9wrlgxxsyex6,CONv8KhQ,2020-0188,2021-10-31,03:06:42,04:52:43,NA,incomplete,true,NA,NA,true,0,19,NA,NA,NA,left,n_s_054.jpg,green,orange,NA,NA,NA,NA,NA,NA,NA,NA,NA,NaN,NA,2363,right,0,NA,NA,NA,NA,NA
CONv8KhQ,3z33ic0jd3zsmh7cb6nqm2m9m84v9l,39asuflu61k38m1iay9wrlgxxsyex6,CONv8KhQ,2020-0188,2021-10-31,03:06:42,04:52:43,NA,incomplete,true,NA,NA,true,0,20,NA,NA,NA,right,n_s_095.jpg,blue,black,NA,NA,NA,NA,NA,NA,NA,NA,NA,NaN,NA,1874,right,1,NA,NA,NA,NA,NA
CONv8KhQ,3z33ic0jd3zsmh7cb6nqm2m9m84v9l,39asuflu61k38m1iay9wrlgxxsyex6,CONv8KhQ,2020-0188,2021-10-31,03:06:42,04:52:43,NA,incomplete,true,NA,NA,true,0,21,NA,NA,NA,right,n_s_030.jpg,gray,blue,NA,NA,NA,NA,NA,NA,NA,NA,NA,NaN,NA,2358,right,1,NA,NA,NA,NA,NA
CONv8KhQ,3z33ic0jd3zsmh7cb6nqm2m9m84v9l,39asuflu61k38m1iay9wrlgxxsyex6,CONv8KhQ,2020-0188,2021-10-31,03:06:42,04:52:43,NA,incomplete,true,NA,true,NA,0,0,NA,NA,NA,left,NA,NA,NA,present,NA,NA,n_s_028.jpg,gray,m_s_048.jpg,blue,between,NA,NaN,NA,NA,NA,NA,right,2916,0,3,3300
CONv8KhQ,3z33ic0jd3zsmh7cb6nqm2m9m84v9l,39asuflu61k38m1iay9wrlgxxsyex6,CONv8KhQ,2020-0188,2021-10-31,03:06:42,04:52:43,NA,incomplete,true,NA,true,NA,0,1,NA,NA,NA,left,NA,NA,NA,present,NA,NA,m_s_003.jpg,white,n_l_074.jpg,white,within,NA,NaN,NA,NA,NA,NA,right,4649,0,1,2171
CONv8KhQ,3z33ic0jd3zsmh7cb6nqm2m9m84v9l,39asuflu61k38m1iay9wrlgxxsyex6,CONv8KhQ,2020-0188,2021-10-31,03:06:42,04:52:43,NA,incomplete,true,NA,true,NA,0,2,NA,NA,NA,left,NA,NA,NA,present,NA,NA,n_s_077.jpg,orange,n_s_022.jpg,orange,within,NA,NaN,NA,NA,NA,NA,right,2033,0,3,2369
CONv8KhQ,3z33ic0jd3zsmh7cb6nqm2m9m84v9l,39asuflu61k38m1iay9wrlgxxsyex6,CONv8KhQ,2020-0188,2021-10-31,03:06:42,04:52:43,NA,incomplete,true,NA,true,NA,0,3,NA,NA,NA,right,NA,NA,NA,present,NA,NA,n_s_039.jpg,gray,m_s_087.jpg,gray,within,NA,NaN,NA,NA,NA,NA,right,6505,1,1,3580
CONv8KhQ,3z33ic0jd3zsmh7cb6nqm2m9m84v9l,39asuflu61k38m1iay9wrlgxxsyex6,CONv8KhQ,2020-0188,2021-10-31,03:06:42,04:52:43,NA,incomplete,true,NA,true,NA,0,4,NA,NA,NA,left,NA,NA,NA,present,NA,NA,m_l_086.jpg,white,m_l_109.jpg,gray,between,NA,NaN,NA,NA,NA,NA,left,3887,1,3,3661
CONv8KhQ,3z33ic0jd3zsmh7cb6nqm2m9m84v9l,39asuflu61k38m1iay9wrlgxxsyex6,CONv8KhQ,2020-0188,2021-10-31,03:06:42,04:52:43,NA,incomplete,true,NA,true,NA,0,5,NA,NA,NA,right,NA,NA,NA,present,NA,NA,m_l_048.jpg,green,n_s_054.jpg,green,within,NA,NaN,NA,NA,NA,NA,right,2863,1,1,1893
CONv8KhQ,3z33ic0jd3zsmh7cb6nqm2m9m84v9l,39asuflu61k38m1iay9wrlgxxsyex6,CONv8KhQ,2020-0188,2021-10-31,03:06:42,04:52:43,NA,incomplete,true,NA,true,NA,0,6,NA,NA,NA,right,NA,NA,NA,present,NA,NA,n_s_095.jpg,black,m_s_088.jpg,black,within,NA,NaN,NA,NA,NA,NA,left,2522,0,2,2727
CONv8KhQ,3z33ic0jd3zsmh7cb6nqm2m9m84v9l,39asuflu61k38m1iay9wrlgxxsyex6,CONv8KhQ,2020-0188,2021-10-31,03:06:42,04:52:43,NA,incomplete,true,NA,true,NA,0,7,NA,NA,NA,right,NA,NA,NA,present,NA,NA,m_l_049.jpg,orange,m_s_051.jpg,green,between,NA,NaN,NA,NA,NA,NA,right,2378,1,2,2031
CONv8KhQ,3z33ic0jd3zsmh7cb6nqm2m9m84v9l,39asuflu61k38m1iay9wrlgxxsyex6,CONv8KhQ,2020-0188,2021-10-31,03:06:42,04:52:43,NA,incomplete,true,NA,true,NA,0,8,NA,NA,NA,left,NA,NA,NA,present,NA,NA,m_l_045.jpg,black,n_s_113.jpg,green,between,NA,NaN,NA,NA,NA,NA,right,2274,0,3,1668
CONv8KhQ,3z33ic0jd3zsmh7cb6nqm2m9m84v9l,39asuflu61k38m1iay9wrlgxxsyex6,CONv8KhQ,2020-0188,2021-10-31,03:06:42,04:52:43,NA,incomplete,true,NA,true,NA,0,9,NA,NA,NA,left,NA,NA,NA,present,NA,NA,n_s_016.jpg,blue,n_s_056.jpg,black,between,NA,NaN,NA,NA,NA,NA,left,5308,1,0,1596
CONv8KhQ,3z33ic0jd3zsmh7cb6nqm2m9m84v9l,39asuflu61k38m1iay9wrlgxxsyex6,CONv8KhQ,2020-0188,2021-10-31,03:06:42,04:52:43,NA,incomplete,true,NA,true,NA,0,10,NA,NA,NA,right,NA,NA,NA,present,NA,NA,m_l_006.jpg,blue,n_s_030.jpg,blue,within,NA,NaN,NA,NA,NA,NA,left,2033,0,3,2135
CONv8KhQ,3z33ic0jd3zsmh7cb6nqm2m9m84v9l,39asuflu61k38m1iay9wrlgxxsyex6,CONv8KhQ,2020-0188,2021-10-31,03:06:42,04:52:43,NA,incomplete,false,true,NA,NA,1,0,NA,orange,m_l_034.jpg,NA,NA,NA,NA,NA,unpleasant,pleasant,NA,NA,NA,NA,NA,none,0,false,NA,NA,NA,NA,NA,NA,NA,NA
CONv8KhQ,3z33ic0jd3zsmh7cb6nqm2m9m84v9l,39asuflu61k38m1iay9wrlgxxsyex6,CONv8KhQ,2020-0188,2021-10-31,03:06:42,04:52:43,NA,incomplete,false,true,NA,NA,1,1,NA,orange,n_l_021.jpg,NA,NA,NA,NA,NA,unpleasant,pleasant,NA,NA,NA,NA,NA,right,2933,true,NA,NA,NA,NA,NA,NA,NA,NA
CONv8KhQ,3z33ic0jd3zsmh7cb6nqm2m9m84v9l,39asuflu61k38m1iay9wrlgxxsyex6,CONv8KhQ,2020-0188,2021-10-31,03:06:42,04:52:43,NA,incomplete,false,true,NA,NA,1,2,NA,orange,m_l_107.jpg,NA,NA,NA,NA,NA,pleasant,unpleasant,NA,NA,NA,NA,NA,left,1455,true,NA,NA,NA,NA,NA,NA,NA,NA
CONv8KhQ,3z33ic0jd3zsmh7cb6nqm2m9m84v9l,39asuflu61k38m1iay9wrlgxxsyex6,CONv8KhQ,2020-0188,2021-10-31,03:06:42,04:52:43,NA,incomplete,false,true,NA,NA,1,3,NA,orange,m_s_052.jpg,NA,NA,NA,NA,NA,pleasant,unpleasant,NA,NA,NA,NA,NA,left,1273,true,NA,NA,NA,NA,NA,NA,NA,NA
CONv8KhQ,3z33ic0jd3zsmh7cb6nqm2m9m84v9l,39asuflu61k38m1iay9wrlgxxsyex6,CONv8KhQ,2020-0188,2021-10-31,03:06:42,04:52:43,NA,incomplete,false,true,NA,NA,1,4,NA,orange,m_l_082.jpg,NA,NA,NA,NA,NA,pleasant,unpleasant,NA,NA,NA,NA,NA,right,1859,true,NA,NA,NA,NA,NA,NA,NA,NA
CONv8KhQ,3z33ic0jd3zsmh7cb6nqm2m9m84v9l,39asuflu61k38m1iay9wrlgxxsyex6,CONv8KhQ,2020-0188,2021-10-31,03:06:42,04:52:43,NA,incomplete,false,true,NA,NA,1,5,NA,orange,n_s_091.jpg,NA,NA,NA,NA,NA,unpleasant,pleasant,NA,NA,NA,NA,NA,left,2285,true,NA,NA,NA,NA,NA,NA,NA,NA
CONv8KhQ,3z33ic0jd3zsmh7cb6nqm2m9m84v9l,39asuflu61k38m1iay9wrlgxxsyex6,CONv8KhQ,2020-0188,2021-10-31,03:06:42,04:52:43,NA,incomplete,false,true,NA,NA,1,6,NA,black,m_s_089.jpg,NA,NA,NA,NA,NA,unpleasant,pleasant,NA,NA,NA,NA,NA,none,0,false,NA,NA,NA,NA,NA,NA,NA,NA
CONv8KhQ,3z33ic0jd3zsmh7cb6nqm2m9m84v9l,39asuflu61k38m1iay9wrlgxxsyex6,CONv8KhQ,2020-0188,2021-10-31,03:06:42,04:52:43,NA,incomplete,false,true,NA,NA,1,7,NA,black,m_s_086.jpg,NA,NA,NA,NA,NA,unpleasant,pleasant,NA,NA,NA,NA,NA,right,1623,true,NA,NA,NA,NA,NA,NA,NA,NA
CONv8KhQ,3z33ic0jd3zsmh7cb6nqm2m9m84v9l,39asuflu61k38m1iay9wrlgxxsyex6,CONv8KhQ,2020-0188,2021-10-31,03:06:42,04:52:43,NA,incomplete,false,true,NA,NA,1,8,NA,black,m_s_075.jpg,NA,NA,NA,NA,NA,unpleasant,pleasant,NA,NA,NA,NA,NA,right,2138,true,NA,NA,NA,NA,NA,NA,NA,NA
CONv8KhQ,3z33ic0jd3zsmh7cb6nqm2m9m84v9l,39asuflu61k38m1iay9wrlgxxsyex6,CONv8KhQ,2020-0188,2021-10-31,03:06:42,04:52:43,NA,incomplete,false,true,NA,NA,1,9,NA,black,n_l_043.jpg,NA,NA,NA,NA,NA,unpleasant,pleasant,NA,NA,NA,NA,NA,right,2457,true,NA,NA,NA,NA,NA,NA,NA,NA
CONv8KhQ,3z33ic0jd3zsmh7cb6nqm2m9m84v9l,39asuflu61k38m1iay9wrlgxxsyex6,CONv8KhQ,2020-0188,2021-10-31,03:06:42,04:52:43,NA,incomplete,false,true,NA,NA,1,10,NA,black,m_l_105.jpg,NA,NA,NA,NA,NA,unpleasant,pleasant,NA,NA,NA,NA,NA,right,1877,true,NA,NA,NA,NA,NA,NA,NA,NA
CONv8KhQ,3z33ic0jd3zsmh7cb6nqm2m9m84v9l,39asuflu61k38m1iay9wrlgxxsyex6,CONv8KhQ,2020-0188,2021-10-31,03:06:42,04:52:43,NA,incomplete,false,true,NA,NA,1,11,NA,black,n_l_095.jpg,NA,NA,NA,NA,NA,unpleasant,pleasant,NA,NA,NA,NA,NA,right,3225,true,NA,NA,NA,NA,NA,NA,NA,NA
CONv8KhQ,3z33ic0jd3zsmh7cb6nqm2m9m84v9l,39asuflu61k38m1iay9wrlgxxsyex6,CONv8KhQ,2020-0188,2021-10-31,03:06:42,04:52:43,NA,incomplete,false,true,NA,NA,1,12,NA,gray,n_s_066.jpg,NA,NA,NA,NA,NA,unpleasant,pleasant,NA,NA,NA,NA,NA,right,2541,true,NA,NA,NA,NA,NA,NA,NA,NA
CONv8KhQ,3z33ic0jd3zsmh7cb6nqm2m9m84v9l,39asuflu61k38m1iay9wrlgxxsyex6,CONv8KhQ,2020-0188,2021-10-31,03:06:42,04:52:43,NA,incomplete,false,true,NA,NA,1,13,NA,gray,n_s_012.jpg,NA,NA,NA,NA,NA,pleasant,unpleasant,NA,NA,NA,NA,NA,left,2090,true,NA,NA,NA,NA,NA,NA,NA,NA
CONv8KhQ,3z33ic0jd3zsmh7cb6nqm2m9m84v9l,39asuflu61k38m1iay9wrlgxxsyex6,CONv8KhQ,2020-0188,2021-10-31,03:06:42,04:52:43,NA,incomplete,false,true,NA,NA,1,14,NA,gray,n_l_079.jpg,NA,NA,NA,NA,NA,unpleasant,pleasant,NA,NA,NA,NA,NA,right,3411,true,NA,NA,NA,NA,NA,NA,NA,NA
CONv8KhQ,3z33ic0jd3zsmh7cb6nqm2m9m84v9l,39asuflu61k38m1iay9wrlgxxsyex6,CONv8KhQ,2020-0188,2021-10-31,03:06:42,04:52:43,NA,incomplete,false,true,NA,NA,1,15,NA,gray,m_l_063.jpg,NA,NA,NA,NA,NA,unpleasant,pleasant,NA,NA,NA,NA,NA,right,2256,true,NA,NA,NA,NA,NA,NA,NA,NA
CONv8KhQ,3z33ic0jd3zsmh7cb6nqm2m9m84v9l,39asuflu61k38m1iay9wrlgxxsyex6,CONv8KhQ,2020-0188,2021-10-31,03:06:42,04:52:43,NA,incomplete,false,true,NA,NA,1,16,NA,gray,n_s_103.jpg,NA,NA,NA,NA,NA,unpleasant,pleasant,NA,NA,NA,NA,NA,right,2237,true,NA,NA,NA,NA,NA,NA,NA,NA
CONv8KhQ,3z33ic0jd3zsmh7cb6nqm2m9m84v9l,39asuflu61k38m1iay9wrlgxxsyex6,CONv8KhQ,2020-0188,2021-10-31,03:06:42,04:52:43,NA,incomplete,false,true,NA,NA,1,17,NA,gray,m_l_032.jpg,NA,NA,NA,NA,NA,unpleasant,pleasant,NA,NA,NA,NA,NA,right,3259,true,NA,NA,NA,NA,NA,NA,NA,NA
CONv8KhQ,3z33ic0jd3zsmh7cb6nqm2m9m84v9l,39asuflu61k38m1iay9wrlgxxsyex6,CONv8KhQ,2020-0188,2021-10-31,03:06:42,04:52:43,NA,incomplete,false,true,NA,NA,1,18,NA,red,m_s_042.jpg,NA,NA,NA,NA,NA,pleasant,unpleasant,NA,NA,NA,NA,NA,right,1318,true,NA,NA,NA,NA,NA,NA,NA,NA
CONv8KhQ,3z33ic0jd3zsmh7cb6nqm2m9m84v9l,39asuflu61k38m1iay9wrlgxxsyex6,CONv8KhQ,2020-0188,2021-10-31,03:06:42,04:52:43,NA,incomplete,false,true,NA,NA,1,19,NA,red,n_l_114.jpg,NA,NA,NA,NA,NA,unpleasant,pleasant,NA,NA,NA,NA,NA,right,2874,true,NA,NA,NA,NA,NA,NA,NA,NA
CONv8KhQ,3z33ic0jd3zsmh7cb6nqm2m9m84v9l,39asuflu61k38m1iay9wrlgxxsyex6,CONv8KhQ,2020-0188,2021-10-31,03:06:42,04:52:43,NA,incomplete,false,true,NA,NA,1,20,NA,red,m_l_005.jpg,NA,NA,NA,NA,NA,unpleasant,pleasant,NA,NA,NA,NA,NA,right,1508,true,NA,NA,NA,NA,NA,NA,NA,NA
CONv8KhQ,3z33ic0jd3zsmh7cb6nqm2m9m84v9l,39asuflu61k38m1iay9wrlgxxsyex6,CONv8KhQ,2020-0188,2021-10-31,03:06:42,04:52:43,NA,incomplete,false,true,NA,NA,1,21,NA,red,m_s_063.jpg,NA,NA,NA,NA,NA,unpleasant,pleasant,NA,NA,NA,NA,NA,right,2752,true,NA,NA,NA,NA,NA,NA,NA,NA
CONv8KhQ,3z33ic0jd3zsmh7cb6nqm2m9m84v9l,39asuflu61k38m1iay9wrlgxxsyex6,CONv8KhQ,2020-0188,2021-10-31,03:06:42,04:52:43,NA,incomplete,false,true,NA,NA,1,22,NA,red,m_l_080.jpg,NA,NA,NA,NA,NA,pleasant,unpleasant,NA,NA,NA,NA,NA,left,2243,true,NA,NA,NA,NA,NA,NA,NA,NA
CONv8KhQ,3z33ic0jd3zsmh7cb6nqm2m9m84v9l,39asuflu61k38m1iay9wrlgxxsyex6,CONv8KhQ,2020-0188,2021-10-31,03:06:42,04:52:43,NA,incomplete,false,true,NA,NA,1,23,NA,red,m_l_064.jpg,NA,NA,NA,NA,NA,unpleasant,pleasant,NA,NA,NA,NA,NA,right,1988,true,NA,NA,NA,NA,NA,NA,NA,NA
CONv8KhQ,3z33ic0jd3zsmh7cb6nqm2m9m84v9l,39asuflu61k38m1iay9wrlgxxsyex6,CONv8KhQ,2020-0188,2021-10-31,03:06:42,04:52:43,NA,incomplete,false,true,NA,NA,1,24,NA,green,n_l_057.jpg,NA,NA,NA,NA,NA,pleasant,unpleasant,NA,NA,NA,NA,NA,left,2024,true,NA,NA,NA,NA,NA,NA,NA,NA
CONv8KhQ,3z33ic0jd3zsmh7cb6nqm2m9m84v9l,39asuflu61k38m1iay9wrlgxxsyex6,CONv8KhQ,2020-0188,2021-10-31,03:06:42,04:52:43,NA,incomplete,false,true,NA,NA,1,25,NA,green,n_s_088.jpg,NA,NA,NA,NA,NA,pleasant,unpleasant,NA,NA,NA,NA,NA,left,2163,true,NA,NA,NA,NA,NA,NA,NA,NA
CONv8KhQ,3z33ic0jd3zsmh7cb6nqm2m9m84v9l,39asuflu61k38m1iay9wrlgxxsyex6,CONv8KhQ,2020-0188,2021-10-31,03:06:42,04:52:43,NA,incomplete,false,true,NA,NA,1,26,NA,green,m_s_022.jpg,NA,NA,NA,NA,NA,pleasant,unpleasant,NA,NA,NA,NA,NA,left,2253,true,NA,NA,NA,NA,NA,NA,NA,NA
CONv8KhQ,3z33ic0jd3zsmh7cb6nqm2m9m84v9l,39asuflu61k38m1iay9wrlgxxsyex6,CONv8KhQ,2020-0188,2021-10-31,03:06:42,04:52:43,NA,incomplete,false,true,NA,NA,1,27,NA,green,m_s_031.jpg,NA,NA,NA,NA,NA,pleasant,unpleasant,NA,NA,NA,NA,NA,left,2007,true,NA,NA,NA,NA,NA,NA,NA,NA
CONv8KhQ,3z33ic0jd3zsmh7cb6nqm2m9m84v9l,39asuflu61k38m1iay9wrlgxxsyex6,CONv8KhQ,2020-0188,2021-10-31,03:06:42,04:52:43,NA,incomplete,false,true,NA,NA,1,28,NA,green,m_l_021.jpg,NA,NA,NA,NA,NA,pleasant,unpleasant,NA,NA,NA,NA,NA,left,1866,true,NA,NA,NA,NA,NA,NA,NA,NA
CONv8KhQ,3z33ic0jd3zsmh7cb6nqm2m9m84v9l,39asuflu61k38m1iay9wrlgxxsyex6,CONv8KhQ,2020-0188,2021-10-31,03:06:42,04:52:43,NA,incomplete,false,true,NA,NA,1,29,NA,green,m_l_072.jpg,NA,NA,NA,NA,NA,pleasant,unpleasant,NA,NA,NA,NA,NA,left,2039,true,NA,NA,NA,NA,NA,NA,NA,NA
CONv8KhQ,3z33ic0jd3zsmh7cb6nqm2m9m84v9l,39asuflu61k38m1iay9wrlgxxsyex6,CONv8KhQ,2020-0188,2021-10-31,03:06:42,04:52:43,NA,incomplete,false,true,NA,NA,1,30,NA,purple,m_s_078.jpg,NA,NA,NA,NA,NA,unpleasant,pleasant,NA,NA,NA,NA,NA,right,1953,true,NA,NA,NA,NA,NA,NA,NA,NA
CONv8KhQ,3z33ic0jd3zsmh7cb6nqm2m9m84v9l,39asuflu61k38m1iay9wrlgxxsyex6,CONv8KhQ,2020-0188,2021-10-31,03:06:42,04:52:43,NA,incomplete,false,true,NA,NA,1,31,NA,purple,n_l_047.jpg,NA,NA,NA,NA,NA,pleasant,unpleasant,NA,NA,NA,NA,NA,left,1812,true,NA,NA,NA,NA,NA,NA,NA,NA
CONv8KhQ,3z33ic0jd3zsmh7cb6nqm2m9m84v9l,39asuflu61k38m1iay9wrlgxxsyex6,CONv8KhQ,2020-0188,2021-10-31,03:06:42,04:52:43,NA,incomplete,false,true,NA,NA,1,32,NA,purple,m_s_006.jpg,NA,NA,NA,NA,NA,unpleasant,pleasant,NA,NA,NA,NA,NA,right,1405,true,NA,NA,NA,NA,NA,NA,NA,NA
CONv8KhQ,3z33ic0jd3zsmh7cb6nqm2m9m84v9l,39asuflu61k38m1iay9wrlgxxsyex6,CONv8KhQ,2020-0188,2021-10-31,03:06:42,04:52:43,NA,incomplete,false,true,NA,NA,1,33,NA,purple,n_s_085.jpg,NA,NA,NA,NA,NA,unpleasant,pleasant,NA,NA,NA,NA,NA,right,2195,true,NA,NA,NA,NA,NA,NA,NA,NA
CONv8KhQ,3z33ic0jd3zsmh7cb6nqm2m9m84v9l,39asuflu61k38m1iay9wrlgxxsyex6,CONv8KhQ,2020-0188,2021-10-31,03:06:42,04:52:43,NA,incomplete,false,true,NA,NA,1,34,NA,purple,m_s_009.jpg,NA,NA,NA,NA,NA,unpleasant,pleasant,NA,NA,NA,NA,NA,right,1301,true,NA,NA,NA,NA,NA,NA,NA,NA
CONv8KhQ,3z33ic0jd3zsmh7cb6nqm2m9m84v9l,39asuflu61k38m1iay9wrlgxxsyex6,CONv8KhQ,2020-0188,2021-10-31,03:06:42,04:52:43,NA,incomplete,false,true,NA,NA,1,35,NA,purple,m_s_093.jpg,NA,NA,NA,NA,NA,unpleasant,pleasant,NA,NA,NA,NA,NA,right,2094,true,NA,NA,NA,NA,NA,NA,NA,NA
CONv8KhQ,3z33ic0jd3zsmh7cb6nqm2m9m84v9l,39asuflu61k38m1iay9wrlgxxsyex6,CONv8KhQ,2020-0188,2021-10-31,03:06:42,04:52:43,NA,incomplete,false,NA,NA,true,1,0,NA,NA,NA,left,m_l_021.jpg,green,red,NA,NA,NA,NA,NA,NA,NA,NA,NA,NaN,NA,4588,right,0,NA,NA,NA,NA,NA
CONv8KhQ,3z33ic0jd3zsmh7cb6nqm2m9m84v9l,39asuflu61k38m1iay9wrlgxxsyex6,CONv8KhQ,2020-0188,2021-10-31,03:06:42,04:52:43,NA,incomplete,false,NA,NA,true,1,1,NA,NA,NA,left,n_s_088.jpg,green,purple,NA,NA,NA,NA,NA,NA,NA,NA,NA,NaN,NA,2871,right,0,NA,NA,NA,NA,NA
CONv8KhQ,3z33ic0jd3zsmh7cb6nqm2m9m84v9l,39asuflu61k38m1iay9wrlgxxsyex6,CONv8KhQ,2020-0188,2021-10-31,03:06:42,04:52:43,NA,incomplete,false,NA,NA,true,1,2,NA,NA,NA,right,m_l_082.jpg,black,orange,NA,NA,NA,NA,NA,NA,NA,NA,NA,NaN,NA,1885,right,1,NA,NA,NA,NA,NA
CONv8KhQ,3z33ic0jd3zsmh7cb6nqm2m9m84v9l,39asuflu61k38m1iay9wrlgxxsyex6,CONv8KhQ,2020-0188,2021-10-31,03:06:42,04:52:43,NA,incomplete,false,NA,NA,true,1,3,NA,NA,NA,right,m_s_093.jpg,green,purple,NA,NA,NA,NA,NA,NA,NA,NA,NA,NaN,NA,3115,right,1,NA,NA,NA,NA,NA
CONv8KhQ,3z33ic0jd3zsmh7cb6nqm2m9m84v9l,39asuflu61k38m1iay9wrlgxxsyex6,CONv8KhQ,2020-0188,2021-10-31,03:06:42,04:52:43,NA,incomplete,false,NA,NA,true,1,4,NA,NA,NA,right,n_l_079.jpg,black,gray,NA,NA,NA,NA,NA,NA,NA,NA,NA,NaN,NA,2420,right,1,NA,NA,NA,NA,NA
CONv8KhQ,3z33ic0jd3zsmh7cb6nqm2m9m84v9l,39asuflu61k38m1iay9wrlgxxsyex6,CONv8KhQ,2020-0188,2021-10-31,03:06:42,04:52:43,NA,incomplete,false,NA,NA,true,1,5,NA,NA,NA,left,m_l_032.jpg,gray,black,NA,NA,NA,NA,NA,NA,NA,NA,NA,NaN,NA,2924,right,0,NA,NA,NA,NA,NA
CONv8KhQ,3z33ic0jd3zsmh7cb6nqm2m9m84v9l,39asuflu61k38m1iay9wrlgxxsyex6,CONv8KhQ,2020-0188,2021-10-31,03:06:42,04:52:43,NA,incomplete,false,NA,NA,true,1,6,NA,NA,NA,right,m_l_064.jpg,gray,red,NA,NA,NA,NA,NA,NA,NA,NA,NA,NaN,NA,3001,right,1,NA,NA,NA,NA,NA
CONv8KhQ,3z33ic0jd3zsmh7cb6nqm2m9m84v9l,39asuflu61k38m1iay9wrlgxxsyex6,CONv8KhQ,2020-0188,2021-10-31,03:06:42,04:52:43,NA,incomplete,false,NA,NA,true,1,7,NA,NA,NA,left,m_s_086.jpg,black,orange,NA,NA,NA,NA,NA,NA,NA,NA,NA,NaN,NA,3506,right,0,NA,NA,NA,NA,NA
CONv8KhQ,3z33ic0jd3zsmh7cb6nqm2m9m84v9l,39asuflu61k38m1iay9wrlgxxsyex6,CONv8KhQ,2020-0188,2021-10-31,03:06:42,04:52:43,NA,incomplete,false,NA,NA,true,1,8,NA,NA,NA,right,n_l_047.jpg,green,purple,NA,NA,NA,NA,NA,NA,NA,NA,NA,NaN,NA,2812,right,1,NA,NA,NA,NA,NA
CONv8KhQ,3z33ic0jd3zsmh7cb6nqm2m9m84v9l,39asuflu61k38m1iay9wrlgxxsyex6,CONv8KhQ,2020-0188,2021-10-31,03:06:42,04:52:43,NA,incomplete,false,NA,NA,true,1,9,NA,NA,NA,right,m_l_080.jpg,gray,red,NA,NA,NA,NA,NA,NA,NA,NA,NA,NaN,NA,5047,left,0,NA,NA,NA,NA,NA
CONv8KhQ,3z33ic0jd3zsmh7cb6nqm2m9m84v9l,39asuflu61k38m1iay9wrlgxxsyex6,CONv8KhQ,2020-0188,2021-10-31,03:06:42,04:52:43,NA,incomplete,false,NA,NA,true,1,10,NA,NA,NA,right,n_l_114.jpg,gray,red,NA,NA,NA,NA,NA,NA,NA,NA,NA,NaN,NA,4380,left,0,NA,NA,NA,NA,NA
CONv8KhQ,3z33ic0jd3zsmh7cb6nqm2m9m84v9l,39asuflu61k38m1iay9wrlgxxsyex6,CONv8KhQ,2020-0188,2021-10-31,03:06:42,04:52:43,NA,incomplete,false,NA,NA,true,1,11,NA,NA,NA,right,m_l_005.jpg,gray,red,NA,NA,NA,NA,NA,NA,NA,NA,NA,NaN,NA,1968,right,1,NA,NA,NA,NA,NA
CONv8KhQ,3z33ic0jd3zsmh7cb6nqm2m9m84v9l,39asuflu61k38m1iay9wrlgxxsyex6,CONv8KhQ,2020-0188,2021-10-31,03:06:42,04:52:43,NA,incomplete,false,NA,NA,true,1,12,NA,NA,NA,right,m_l_105.jpg,orange,black,NA,NA,NA,NA,NA,NA,NA,NA,NA,NaN,NA,2316,right,1,NA,NA,NA,NA,NA
CONv8KhQ,3z33ic0jd3zsmh7cb6nqm2m9m84v9l,39asuflu61k38m1iay9wrlgxxsyex6,CONv8KhQ,2020-0188,2021-10-31,03:06:42,04:52:43,NA,incomplete,false,NA,NA,true,1,13,NA,NA,NA,left,n_l_021.jpg,orange,black,NA,NA,NA,NA,NA,NA,NA,NA,NA,NaN,NA,2416,right,0,NA,NA,NA,NA,NA
CONv8KhQ,3z33ic0jd3zsmh7cb6nqm2m9m84v9l,39asuflu61k38m1iay9wrlgxxsyex6,CONv8KhQ,2020-0188,2021-10-31,03:06:42,04:52:43,NA,incomplete,false,NA,NA,true,1,14,NA,NA,NA,right,n_s_012.jpg,black,gray,NA,NA,NA,NA,NA,NA,NA,NA,NA,NaN,NA,2741,right,1,NA,NA,NA,NA,NA
CONv8KhQ,3z33ic0jd3zsmh7cb6nqm2m9m84v9l,39asuflu61k38m1iay9wrlgxxsyex6,CONv8KhQ,2020-0188,2021-10-31,03:06:42,04:52:43,NA,incomplete,false,NA,NA,true,1,15,NA,NA,NA,right,n_l_095.jpg,gray,black,NA,NA,NA,NA,NA,NA,NA,NA,NA,NaN,NA,2301,right,1,NA,NA,NA,NA,NA
CONv8KhQ,3z33ic0jd3zsmh7cb6nqm2m9m84v9l,39asuflu61k38m1iay9wrlgxxsyex6,CONv8KhQ,2020-0188,2021-10-31,03:06:42,04:52:43,NA,incomplete,false,NA,NA,true,1,16,NA,NA,NA,left,m_s_022.jpg,green,red,NA,NA,NA,NA,NA,NA,NA,NA,NA,NaN,NA,3436,right,0,NA,NA,NA,NA,NA
CONv8KhQ,3z33ic0jd3zsmh7cb6nqm2m9m84v9l,39asuflu61k38m1iay9wrlgxxsyex6,CONv8KhQ,2020-0188,2021-10-31,03:06:42,04:52:43,NA,incomplete,false,NA,NA,true,1,17,NA,NA,NA,right,m_s_075.jpg,gray,black,NA,NA,NA,NA,NA,NA,NA,NA,NA,NaN,NA,3233,right,1,NA,NA,NA,NA,NA
CONv8KhQ,3z33ic0jd3zsmh7cb6nqm2m9m84v9l,39asuflu61k38m1iay9wrlgxxsyex6,CONv8KhQ,2020-0188,2021-10-31,03:06:42,04:52:43,NA,incomplete,false,NA,NA,true,1,18,NA,NA,NA,left,n_s_103.jpg,gray,red,NA,NA,NA,NA,NA,NA,NA,NA,NA,NaN,NA,2286,right,0,NA,NA,NA,NA,NA
CONv8KhQ,3z33ic0jd3zsmh7cb6nqm2m9m84v9l,39asuflu61k38m1iay9wrlgxxsyex6,CONv8KhQ,2020-0188,2021-10-31,03:06:42,04:52:43,NA,incomplete,false,NA,NA,true,1,19,NA,NA,NA,right,m_s_006.jpg,green,purple,NA,NA,NA,NA,NA,NA,NA,NA,NA,NaN,NA,2296,right,1,NA,NA,NA,NA,NA
CONv8KhQ,3z33ic0jd3zsmh7cb6nqm2m9m84v9l,39asuflu61k38m1iay9wrlgxxsyex6,CONv8KhQ,2020-0188,2021-10-31,03:06:42,04:52:43,NA,incomplete,false,NA,NA,true,1,20,NA,NA,NA,right,n_s_091.jpg,black,orange,NA,NA,NA,NA,NA,NA,NA,NA,NA,NaN,NA,2635,right,1,NA,NA,NA,NA,NA
CONv8KhQ,3z33ic0jd3zsmh7cb6nqm2m9m84v9l,39asuflu61k38m1iay9wrlgxxsyex6,CONv8KhQ,2020-0188,2021-10-31,03:06:42,04:52:43,NA,incomplete,false,NA,NA,true,1,21,NA,NA,NA,right,m_l_072.jpg,red,green,NA,NA,NA,NA,NA,NA,NA,NA,NA,NaN,NA,2418,right,1,NA,NA,NA,NA,NA
CONv8KhQ,3z33ic0jd3zsmh7cb6nqm2m9m84v9l,39asuflu61k38m1iay9wrlgxxsyex6,CONv8KhQ,2020-0188,2021-10-31,03:06:42,04:52:43,NA,incomplete,false,NA,true,NA,1,0,NA,NA,NA,left,NA,NA,NA,present,NA,NA,m_l_080.jpg,red,m_s_022.jpg,green,between,NA,NaN,NA,NA,NA,NA,right,13702,0,3,3038
CONv8KhQ,3z33ic0jd3zsmh7cb6nqm2m9m84v9l,39asuflu61k38m1iay9wrlgxxsyex6,CONv8KhQ,2020-0188,2021-10-31,03:06:42,04:52:43,NA,incomplete,false,NA,true,NA,1,1,NA,NA,NA,right,NA,NA,NA,present,NA,NA,m_l_064.jpg,red,n_l_114.jpg,red,within,NA,NaN,NA,NA,NA,NA,right,3314,1,2,2619
CONv8KhQ,3z33ic0jd3zsmh7cb6nqm2m9m84v9l,39asuflu61k38m1iay9wrlgxxsyex6,CONv8KhQ,2020-0188,2021-10-31,03:06:42,04:52:43,NA,incomplete,false,NA,true,NA,1,2,NA,NA,NA,left,NA,NA,NA,present,NA,NA,m_l_105.jpg,black,n_l_079.jpg,gray,between,NA,NaN,NA,NA,NA,NA,right,4130,0,2,2188
CONv8KhQ,3z33ic0jd3zsmh7cb6nqm2m9m84v9l,39asuflu61k38m1iay9wrlgxxsyex6,CONv8KhQ,2020-0188,2021-10-31,03:06:42,04:52:43,NA,incomplete,false,NA,true,NA,1,3,NA,NA,NA,right,NA,NA,NA,present,NA,NA,m_s_093.jpg,purple,n_l_047.jpg,purple,within,NA,NaN,NA,NA,NA,NA,right,2895,1,1,2320
CONv8KhQ,3z33ic0jd3zsmh7cb6nqm2m9m84v9l,39asuflu61k38m1iay9wrlgxxsyex6,CONv8KhQ,2020-0188,2021-10-31,03:06:42,04:52:43,NA,incomplete,false,NA,true,NA,1,4,NA,NA,NA,right,NA,NA,NA,present,NA,NA,m_l_032.jpg,gray,n_s_012.jpg,gray,within,NA,NaN,NA,NA,NA,NA,right,2585,1,3,2105
CONv8KhQ,3z33ic0jd3zsmh7cb6nqm2m9m84v9l,39asuflu61k38m1iay9wrlgxxsyex6,CONv8KhQ,2020-0188,2021-10-31,03:06:42,04:52:43,NA,incomplete,false,NA,true,NA,1,5,NA,NA,NA,left,NA,NA,NA,present,NA,NA,m_s_086.jpg,black,n_l_095.jpg,black,within,NA,NaN,NA,NA,NA,NA,left,4152,1,3,1829
CONv8KhQ,3z33ic0jd3zsmh7cb6nqm2m9m84v9l,39asuflu61k38m1iay9wrlgxxsyex6,CONv8KhQ,2020-0188,2021-10-31,03:06:42,04:52:43,NA,incomplete,false,NA,true,NA,1,6,NA,NA,NA,right,NA,NA,NA,present,NA,NA,n_s_091.jpg,orange,n_l_021.jpg,orange,within,NA,NaN,NA,NA,NA,NA,right,3499,1,1,2421
CONv8KhQ,3z33ic0jd3zsmh7cb6nqm2m9m84v9l,39asuflu61k38m1iay9wrlgxxsyex6,CONv8KhQ,2020-0188,2021-10-31,03:06:42,04:52:43,NA,incomplete,false,NA,true,NA,1,7,NA,NA,NA,right,NA,NA,NA,present,NA,NA,m_l_072.jpg,green,n_s_088.jpg,green,within,NA,NaN,NA,NA,NA,NA,right,2536,1,1,1935
CONv8KhQ,3z33ic0jd3zsmh7cb6nqm2m9m84v9l,39asuflu61k38m1iay9wrlgxxsyex6,CONv8KhQ,2020-0188,2021-10-31,03:06:42,04:52:43,NA,incomplete,false,NA,true,NA,1,8,NA,NA,NA,left,NA,NA,NA,present,NA,NA,m_l_021.jpg,green,m_s_006.jpg,purple,between,NA,NaN,NA,NA,NA,NA,right,2457,0,1,2760
CONv8KhQ,3z33ic0jd3zsmh7cb6nqm2m9m84v9l,39asuflu61k38m1iay9wrlgxxsyex6,CONv8KhQ,2020-0188,2021-10-31,03:06:42,04:52:43,NA,incomplete,false,NA,true,NA,1,9,NA,NA,NA,right,NA,NA,NA,present,NA,NA,m_l_005.jpg,red,n_s_103.jpg,gray,between,NA,NaN,NA,NA,NA,NA,right,4265,1,0,2320
CONv8KhQ,3z33ic0jd3zsmh7cb6nqm2m9m84v9l,39asuflu61k38m1iay9wrlgxxsyex6,CONv8KhQ,2020-0188,2021-10-31,03:06:42,04:52:43,NA,incomplete,false,NA,true,NA,1,10,NA,NA,NA,right,NA,NA,NA,present,NA,NA,m_s_075.jpg,black,m_l_082.jpg,orange,between,NA,NaN,NA,NA,NA,NA,right,2050,1,2,2238
CONv8KhQ,3z33ic0jd3zsmh7cb6nqm2m9m84v9l,39asuflu61k38m1iay9wrlgxxsyex6,CONv8KhQ,2020-0188,2021-10-31,03:06:42,04:52:43,NA,incomplete,false,true,NA,NA,2,0,NA,brown,m_l_091.jpg,NA,NA,NA,NA,NA,unpleasant,pleasant,NA,NA,NA,NA,NA,none,0,false,NA,NA,NA,NA,NA,NA,NA,NA
CONv8KhQ,3z33ic0jd3zsmh7cb6nqm2m9m84v9l,39asuflu61k38m1iay9wrlgxxsyex6,CONv8KhQ,2020-0188,2021-10-31,03:06:42,04:52:43,NA,incomplete,false,true,NA,NA,2,1,NA,brown,n_l_086.jpg,NA,NA,NA,NA,NA,pleasant,unpleasant,NA,NA,NA,NA,NA,right,2590,true,NA,NA,NA,NA,NA,NA,NA,NA
CONv8KhQ,3z33ic0jd3zsmh7cb6nqm2m9m84v9l,39asuflu61k38m1iay9wrlgxxsyex6,CONv8KhQ,2020-0188,2021-10-31,03:06:42,04:52:43,NA,incomplete,false,true,NA,NA,2,2,NA,brown,n_s_013.jpg,NA,NA,NA,NA,NA,unpleasant,pleasant,NA,NA,NA,NA,NA,left,1312,true,NA,NA,NA,NA,NA,NA,NA,NA
CONv8KhQ,3z33ic0jd3zsmh7cb6nqm2m9m84v9l,39asuflu61k38m1iay9wrlgxxsyex6,CONv8KhQ,2020-0188,2021-10-31,03:06:42,04:52:43,NA,incomplete,false,true,NA,NA,2,3,NA,brown,m_l_022.jpg,NA,NA,NA,NA,NA,unpleasant,pleasant,NA,NA,NA,NA,NA,right,1591,true,NA,NA,NA,NA,NA,NA,NA,NA
CONv8KhQ,3z33ic0jd3zsmh7cb6nqm2m9m84v9l,39asuflu61k38m1iay9wrlgxxsyex6,CONv8KhQ,2020-0188,2021-10-31,03:06:42,04:52:43,NA,incomplete,false,true,NA,NA,2,4,NA,brown,m_s_035.jpg,NA,NA,NA,NA,NA,pleasant,unpleasant,NA,NA,NA,NA,NA,left,1408,true,NA,NA,NA,NA,NA,NA,NA,NA
CONv8KhQ,3z33ic0jd3zsmh7cb6nqm2m9m84v9l,39asuflu61k38m1iay9wrlgxxsyex6,CONv8KhQ,2020-0188,2021-10-31,03:06:42,04:52:43,NA,incomplete,false,true,NA,NA,2,5,NA,brown,m_s_106.jpg,NA,NA,NA,NA,NA,unpleasant,pleasant,NA,NA,NA,NA,NA,right,1399,true,NA,NA,NA,NA,NA,NA,NA,NA
CONv8KhQ,3z33ic0jd3zsmh7cb6nqm2m9m84v9l,39asuflu61k38m1iay9wrlgxxsyex6,CONv8KhQ,2020-0188,2021-10-31,03:06:42,04:52:43,NA,incomplete,false,true,NA,NA,2,6,NA,red,n_l_015.jpg,NA,NA,NA,NA,NA,unpleasant,pleasant,NA,NA,NA,NA,NA,right,1502,true,NA,NA,NA,NA,NA,NA,NA,NA
CONv8KhQ,3z33ic0jd3zsmh7cb6nqm2m9m84v9l,39asuflu61k38m1iay9wrlgxxsyex6,CONv8KhQ,2020-0188,2021-10-31,03:06:42,04:52:43,NA,incomplete,false,true,NA,NA,2,7,NA,red,n_l_064.jpg,NA,NA,NA,NA,NA,unpleasant,pleasant,NA,NA,NA,NA,NA,right,1705,true,NA,NA,NA,NA,NA,NA,NA,NA
CONv8KhQ,3z33ic0jd3zsmh7cb6nqm2m9m84v9l,39asuflu61k38m1iay9wrlgxxsyex6,CONv8KhQ,2020-0188,2021-10-31,03:06:42,04:52:43,NA,incomplete,false,true,NA,NA,2,8,NA,red,n_l_069.jpg,NA,NA,NA,NA,NA,unpleasant,pleasant,NA,NA,NA,NA,NA,right,2271,true,NA,NA,NA,NA,NA,NA,NA,NA
CONv8KhQ,3z33ic0jd3zsmh7cb6nqm2m9m84v9l,39asuflu61k38m1iay9wrlgxxsyex6,CONv8KhQ,2020-0188,2021-10-31,03:06:42,04:52:43,NA,incomplete,false,true,NA,NA,2,9,NA,red,n_l_035.jpg,NA,NA,NA,NA,NA,unpleasant,pleasant,NA,NA,NA,NA,NA,right,1223,true,NA,NA,NA,NA,NA,NA,NA,NA
CONv8KhQ,3z33ic0jd3zsmh7cb6nqm2m9m84v9l,39asuflu61k38m1iay9wrlgxxsyex6,CONv8KhQ,2020-0188,2021-10-31,03:06:42,04:52:43,NA,incomplete,false,true,NA,NA,2,10,NA,red,n_s_008.jpg,NA,NA,NA,NA,NA,pleasant,unpleasant,NA,NA,NA,NA,NA,right,1483,true,NA,NA,NA,NA,NA,NA,NA,NA
CONv8KhQ,3z33ic0jd3zsmh7cb6nqm2m9m84v9l,39asuflu61k38m1iay9wrlgxxsyex6,CONv8KhQ,2020-0188,2021-10-31,03:06:42,04:52:43,NA,incomplete,false,true,NA,NA,2,11,NA,red,m_s_054.jpg,NA,NA,NA,NA,NA,unpleasant,pleasant,NA,NA,NA,NA,NA,right,2053,true,NA,NA,NA,NA,NA,NA,NA,NA
CONv8KhQ,3z33ic0jd3zsmh7cb6nqm2m9m84v9l,39asuflu61k38m1iay9wrlgxxsyex6,CONv8KhQ,2020-0188,2021-10-31,03:06:42,04:52:43,NA,incomplete,false,true,NA,NA,2,12,NA,purple,m_s_103.jpg,NA,NA,NA,NA,NA,pleasant,unpleasant,NA,NA,NA,NA,NA,left,1794,true,NA,NA,NA,NA,NA,NA,NA,NA
CONv8KhQ,3z33ic0jd3zsmh7cb6nqm2m9m84v9l,39asuflu61k38m1iay9wrlgxxsyex6,CONv8KhQ,2020-0188,2021-10-31,03:06:42,04:52:43,NA,incomplete,false,true,NA,NA,2,13,NA,purple,m_l_002.jpg,NA,NA,NA,NA,NA,pleasant,unpleasant,NA,NA,NA,NA,NA,left,1376,true,NA,NA,NA,NA,NA,NA,NA,NA
CONv8KhQ,3z33ic0jd3zsmh7cb6nqm2m9m84v9l,39asuflu61k38m1iay9wrlgxxsyex6,CONv8KhQ,2020-0188,2021-10-31,03:06:42,04:52:43,NA,incomplete,false,true,NA,NA,2,14,NA,purple,m_s_033.jpg,NA,NA,NA,NA,NA,unpleasant,pleasant,NA,NA,NA,NA,NA,right,1217,true,NA,NA,NA,NA,NA,NA,NA,NA
CONv8KhQ,3z33ic0jd3zsmh7cb6nqm2m9m84v9l,39asuflu61k38m1iay9wrlgxxsyex6,CONv8KhQ,2020-0188,2021-10-31,03:06:42,04:52:43,NA,incomplete,false,true,NA,NA,2,15,NA,purple,n_l_084.jpg,NA,NA,NA,NA,NA,pleasant,unpleasant,NA,NA,NA,NA,NA,left,1726,true,NA,NA,NA,NA,NA,NA,NA,NA
CONv8KhQ,3z33ic0jd3zsmh7cb6nqm2m9m84v9l,39asuflu61k38m1iay9wrlgxxsyex6,CONv8KhQ,2020-0188,2021-10-31,03:06:42,04:52:43,NA,incomplete,false,true,NA,NA,2,16,NA,purple,m_l_035.jpg,NA,NA,NA,NA,NA,pleasant,unpleasant,NA,NA,NA,NA,NA,left,1436,true,NA,NA,NA,NA,NA,NA,NA,NA
CONv8KhQ,3z33ic0jd3zsmh7cb6nqm2m9m84v9l,39asuflu61k38m1iay9wrlgxxsyex6,CONv8KhQ,2020-0188,2021-10-31,03:06:42,04:52:43,NA,incomplete,false,true,NA,NA,2,17,NA,purple,m_l_071.jpg,NA,NA,NA,NA,NA,pleasant,unpleasant,NA,NA,NA,NA,NA,left,2066,true,NA,NA,NA,NA,NA,NA,NA,NA
CONv8KhQ,3z33ic0jd3zsmh7cb6nqm2m9m84v9l,39asuflu61k38m1iay9wrlgxxsyex6,CONv8KhQ,2020-0188,2021-10-31,03:06:42,04:52:43,NA,incomplete,false,true,NA,NA,2,18,NA,black,n_l_098.jpg,NA,NA,NA,NA,NA,unpleasant,pleasant,NA,NA,NA,NA,NA,right,3078,true,NA,NA,NA,NA,NA,NA,NA,NA
CONv8KhQ,3z33ic0jd3zsmh7cb6nqm2m9m84v9l,39asuflu61k38m1iay9wrlgxxsyex6,CONv8KhQ,2020-0188,2021-10-31,03:06:42,04:52:43,NA,incomplete,false,true,NA,NA,2,19,NA,black,n_s_094.jpg,NA,NA,NA,NA,NA,pleasant,unpleasant,NA,NA,NA,NA,NA,left,1860,true,NA,NA,NA,NA,NA,NA,NA,NA
CONv8KhQ,3z33ic0jd3zsmh7cb6nqm2m9m84v9l,39asuflu61k38m1iay9wrlgxxsyex6,CONv8KhQ,2020-0188,2021-10-31,03:06:42,04:52:43,NA,incomplete,false,true,NA,NA,2,20,NA,black,m_l_102.jpg,NA,NA,NA,NA,NA,pleasant,unpleasant,NA,NA,NA,NA,NA,left,2199,true,NA,NA,NA,NA,NA,NA,NA,NA
CONv8KhQ,3z33ic0jd3zsmh7cb6nqm2m9m84v9l,39asuflu61k38m1iay9wrlgxxsyex6,CONv8KhQ,2020-0188,2021-10-31,03:06:42,04:52:43,NA,incomplete,false,true,NA,NA,2,21,NA,black,n_s_061.jpg,NA,NA,NA,NA,NA,unpleasant,pleasant,NA,NA,NA,NA,NA,right,1456,true,NA,NA,NA,NA,NA,NA,NA,NA
CONv8KhQ,3z33ic0jd3zsmh7cb6nqm2m9m84v9l,39asuflu61k38m1iay9wrlgxxsyex6,CONv8KhQ,2020-0188,2021-10-31,03:06:42,04:52:43,NA,incomplete,false,true,NA,NA,2,22,NA,black,n_l_020.jpg,NA,NA,NA,NA,NA,unpleasant,pleasant,NA,NA,NA,NA,NA,right,2980,true,NA,NA,NA,NA,NA,NA,NA,NA
CONv8KhQ,3z33ic0jd3zsmh7cb6nqm2m9m84v9l,39asuflu61k38m1iay9wrlgxxsyex6,CONv8KhQ,2020-0188,2021-10-31,03:06:42,04:52:43,NA,incomplete,false,true,NA,NA,2,23,NA,black,n_l_091.jpg,NA,NA,NA,NA,NA,pleasant,unpleasant,NA,NA,NA,NA,NA,left,1482,true,NA,NA,NA,NA,NA,NA,NA,NA
CONv8KhQ,3z33ic0jd3zsmh7cb6nqm2m9m84v9l,39asuflu61k38m1iay9wrlgxxsyex6,CONv8KhQ,2020-0188,2021-10-31,03:06:42,04:52:43,NA,incomplete,false,true,NA,NA,2,24,NA,blue,n_l_022.jpg,NA,NA,NA,NA,NA,unpleasant,pleasant,NA,NA,NA,NA,NA,right,2168,true,NA,NA,NA,NA,NA,NA,NA,NA
CONv8KhQ,3z33ic0jd3zsmh7cb6nqm2m9m84v9l,39asuflu61k38m1iay9wrlgxxsyex6,CONv8KhQ,2020-0188,2021-10-31,03:06:42,04:52:43,NA,incomplete,false,true,NA,NA,2,25,NA,blue,m_l_088.jpg,NA,NA,NA,NA,NA,pleasant,unpleasant,NA,NA,NA,NA,NA,left,2115,true,NA,NA,NA,NA,NA,NA,NA,NA
CONv8KhQ,3z33ic0jd3zsmh7cb6nqm2m9m84v9l,39asuflu61k38m1iay9wrlgxxsyex6,CONv8KhQ,2020-0188,2021-10-31,03:06:42,04:52:43,NA,incomplete,false,true,NA,NA,2,26,NA,blue,n_l_055.jpg,NA,NA,NA,NA,NA,pleasant,unpleasant,NA,NA,NA,NA,NA,left,1358,true,NA,NA,NA,NA,NA,NA,NA,NA
CONv8KhQ,3z33ic0jd3zsmh7cb6nqm2m9m84v9l,39asuflu61k38m1iay9wrlgxxsyex6,CONv8KhQ,2020-0188,2021-10-31,03:06:42,04:52:43,NA,incomplete,false,true,NA,NA,2,27,NA,blue,m_s_085.jpg,NA,NA,NA,NA,NA,pleasant,unpleasant,NA,NA,NA,NA,NA,left,1784,true,NA,NA,NA,NA,NA,NA,NA,NA
CONv8KhQ,3z33ic0jd3zsmh7cb6nqm2m9m84v9l,39asuflu61k38m1iay9wrlgxxsyex6,CONv8KhQ,2020-0188,2021-10-31,03:06:42,04:52:43,NA,incomplete,false,true,NA,NA,2,28,NA,blue,m_s_004.jpg,NA,NA,NA,NA,NA,unpleasant,pleasant,NA,NA,NA,NA,NA,right,1422,true,NA,NA,NA,NA,NA,NA,NA,NA
CONv8KhQ,3z33ic0jd3zsmh7cb6nqm2m9m84v9l,39asuflu61k38m1iay9wrlgxxsyex6,CONv8KhQ,2020-0188,2021-10-31,03:06:42,04:52:43,NA,incomplete,false,true,NA,NA,2,29,NA,blue,n_l_007.jpg,NA,NA,NA,NA,NA,pleasant,unpleasant,NA,NA,NA,NA,NA,left,1581,true,NA,NA,NA,NA,NA,NA,NA,NA
CONv8KhQ,3z33ic0jd3zsmh7cb6nqm2m9m84v9l,39asuflu61k38m1iay9wrlgxxsyex6,CONv8KhQ,2020-0188,2021-10-31,03:06:42,04:52:43,NA,incomplete,false,true,NA,NA,2,30,NA,green,m_s_116.jpg,NA,NA,NA,NA,NA,unpleasant,pleasant,NA,NA,NA,NA,NA,right,1147,true,NA,NA,NA,NA,NA,NA,NA,NA
CONv8KhQ,3z33ic0jd3zsmh7cb6nqm2m9m84v9l,39asuflu61k38m1iay9wrlgxxsyex6,CONv8KhQ,2020-0188,2021-10-31,03:06:42,04:52:43,NA,incomplete,false,true,NA,NA,2,31,NA,green,n_s_090.jpg,NA,NA,NA,NA,NA,unpleasant,pleasant,NA,NA,NA,NA,NA,right,1568,true,NA,NA,NA,NA,NA,NA,NA,NA
CONv8KhQ,3z33ic0jd3zsmh7cb6nqm2m9m84v9l,39asuflu61k38m1iay9wrlgxxsyex6,CONv8KhQ,2020-0188,2021-10-31,03:06:42,04:52:43,NA,incomplete,false,true,NA,NA,2,32,NA,green,m_s_028.jpg,NA,NA,NA,NA,NA,pleasant,unpleasant,NA,NA,NA,NA,NA,left,1794,true,NA,NA,NA,NA,NA,NA,NA,NA
CONv8KhQ,3z33ic0jd3zsmh7cb6nqm2m9m84v9l,39asuflu61k38m1iay9wrlgxxsyex6,CONv8KhQ,2020-0188,2021-10-31,03:06:42,04:52:43,NA,incomplete,false,true,NA,NA,2,33,NA,green,m_s_017.jpg,NA,NA,NA,NA,NA,unpleasant,pleasant,NA,NA,NA,NA,NA,right,1920,true,NA,NA,NA,NA,NA,NA,NA,NA
CONv8KhQ,3z33ic0jd3zsmh7cb6nqm2m9m84v9l,39asuflu61k38m1iay9wrlgxxsyex6,CONv8KhQ,2020-0188,2021-10-31,03:06:42,04:52:43,NA,incomplete,false,true,NA,NA,2,34,NA,green,m_l_052.jpg,NA,NA,NA,NA,NA,unpleasant,pleasant,NA,NA,NA,NA,NA,right,1646,true,NA,NA,NA,NA,NA,NA,NA,NA
CONv8KhQ,3z33ic0jd3zsmh7cb6nqm2m9m84v9l,39asuflu61k38m1iay9wrlgxxsyex6,CONv8KhQ,2020-0188,2021-10-31,03:06:42,04:52:43,NA,incomplete,false,true,NA,NA,2,35,NA,green,m_s_109.jpg,NA,NA,NA,NA,NA,unpleasant,pleasant,NA,NA,NA,NA,NA,right,1735,true,NA,NA,NA,NA,NA,NA,NA,NA
CONv8KhQ,3z33ic0jd3zsmh7cb6nqm2m9m84v9l,39asuflu61k38m1iay9wrlgxxsyex6,CONv8KhQ,2020-0188,2021-10-31,03:06:42,04:52:43,NA,incomplete,false,NA,NA,true,2,0,NA,NA,NA,left,m_l_102.jpg,black,blue,NA,NA,NA,NA,NA,NA,NA,NA,NA,NaN,NA,8328,right,0,NA,NA,NA,NA,NA
CONv8KhQ,3z33ic0jd3zsmh7cb6nqm2m9m84v9l,39asuflu61k38m1iay9wrlgxxsyex6,CONv8KhQ,2020-0188,2021-10-31,03:06:42,04:52:43,NA,incomplete,false,NA,NA,true,2,1,NA,NA,NA,left,m_s_028.jpg,green,blue,NA,NA,NA,NA,NA,NA,NA,NA,NA,NaN,NA,2405,right,0,NA,NA,NA,NA,NA
CONv8KhQ,3z33ic0jd3zsmh7cb6nqm2m9m84v9l,39asuflu61k38m1iay9wrlgxxsyex6,CONv8KhQ,2020-0188,2021-10-31,03:06:42,04:52:43,NA,incomplete,false,NA,NA,true,2,2,NA,NA,NA,right,m_l_035.jpg,black,purple,NA,NA,NA,NA,NA,NA,NA,NA,NA,NaN,NA,1824,right,1,NA,NA,NA,NA,NA
CONv8KhQ,3z33ic0jd3zsmh7cb6nqm2m9m84v9l,39asuflu61k38m1iay9wrlgxxsyex6,CONv8KhQ,2020-0188,2021-10-31,03:06:42,04:52:43,NA,incomplete,false,NA,NA,true,2,3,NA,NA,NA,right,m_l_071.jpg,black,purple,NA,NA,NA,NA,NA,NA,NA,NA,NA,NaN,NA,1747,right,1,NA,NA,NA,NA,NA
CONv8KhQ,3z33ic0jd3zsmh7cb6nqm2m9m84v9l,39asuflu61k38m1iay9wrlgxxsyex6,CONv8KhQ,2020-0188,2021-10-31,03:06:42,04:52:43,NA,incomplete,false,NA,NA,true,2,4,NA,NA,NA,right,m_s_004.jpg,green,blue,NA,NA,NA,NA,NA,NA,NA,NA,NA,NaN,NA,1733,right,1,NA,NA,NA,NA,NA
CONv8KhQ,3z33ic0jd3zsmh7cb6nqm2m9m84v9l,39asuflu61k38m1iay9wrlgxxsyex6,CONv8KhQ,2020-0188,2021-10-31,03:06:42,04:52:43,NA,incomplete,false,NA,NA,true,2,5,NA,NA,NA,right,m_s_035.jpg,red,brown,NA,NA,NA,NA,NA,NA,NA,NA,NA,NaN,NA,3208,right,1,NA,NA,NA,NA,NA
CONv8KhQ,3z33ic0jd3zsmh7cb6nqm2m9m84v9l,39asuflu61k38m1iay9wrlgxxsyex6,CONv8KhQ,2020-0188,2021-10-31,03:06:42,04:52:43,NA,incomplete,false,NA,NA,true,2,6,NA,NA,NA,right,n_s_090.jpg,blue,green,NA,NA,NA,NA,NA,NA,NA,NA,NA,NaN,NA,3148,right,1,NA,NA,NA,NA,NA
CONv8KhQ,3z33ic0jd3zsmh7cb6nqm2m9m84v9l,39asuflu61k38m1iay9wrlgxxsyex6,CONv8KhQ,2020-0188,2021-10-31,03:06:42,04:52:43,NA,incomplete,false,NA,NA,true,2,7,NA,NA,NA,right,m_s_054.jpg,purple,red,NA,NA,NA,NA,NA,NA,NA,NA,NA,NaN,NA,3221,right,1,NA,NA,NA,NA,NA
CONv8KhQ,3z33ic0jd3zsmh7cb6nqm2m9m84v9l,39asuflu61k38m1iay9wrlgxxsyex6,CONv8KhQ,2020-0188,2021-10-31,03:06:42,04:52:43,NA,incomplete,false,NA,NA,true,2,8,NA,NA,NA,right,m_l_002.jpg,black,purple,NA,NA,NA,NA,NA,NA,NA,NA,NA,NaN,NA,2305,right,1,NA,NA,NA,NA,NA
CONv8KhQ,3z33ic0jd3zsmh7cb6nqm2m9m84v9l,39asuflu61k38m1iay9wrlgxxsyex6,CONv8KhQ,2020-0188,2021-10-31,03:06:42,04:52:43,NA,incomplete,false,NA,NA,true,2,9,NA,NA,NA,left,n_s_008.jpg,red,purple,NA,NA,NA,NA,NA,NA,NA,NA,NA,NaN,NA,2004,right,0,NA,NA,NA,NA,NA
CONv8KhQ,3z33ic0jd3zsmh7cb6nqm2m9m84v9l,39asuflu61k38m1iay9wrlgxxsyex6,CONv8KhQ,2020-0188,2021-10-31,03:06:42,04:52:43,NA,incomplete,false,NA,NA,true,2,10,NA,NA,NA,left,n_l_020.jpg,black,blue,NA,NA,NA,NA,NA,NA,NA,NA,NA,NaN,NA,8654,left,1,NA,NA,NA,NA,NA
CONv8KhQ,3z33ic0jd3zsmh7cb6nqm2m9m84v9l,39asuflu61k38m1iay9wrlgxxsyex6,CONv8KhQ,2020-0188,2021-10-31,03:06:42,04:52:43,NA,incomplete,false,NA,NA,true,2,11,NA,NA,NA,right,m_s_109.jpg,blue,green,NA,NA,NA,NA,NA,NA,NA,NA,NA,NaN,NA,2862,right,1,NA,NA,NA,NA,NA
CONv8KhQ,3z33ic0jd3zsmh7cb6nqm2m9m84v9l,39asuflu61k38m1iay9wrlgxxsyex6,CONv8KhQ,2020-0188,2021-10-31,03:06:42,04:52:43,NA,incomplete,false,NA,NA,true,2,12,NA,NA,NA,right,n_l_069.jpg,purple,red,NA,NA,NA,NA,NA,NA,NA,NA,NA,NaN,NA,5471,right,1,NA,NA,NA,NA,NA
CONv8KhQ,3z33ic0jd3zsmh7cb6nqm2m9m84v9l,39asuflu61k38m1iay9wrlgxxsyex6,CONv8KhQ,2020-0188,2021-10-31,03:06:42,04:52:43,NA,incomplete,false,NA,NA,true,2,13,NA,NA,NA,right,m_s_106.jpg,red,brown,NA,NA,NA,NA,NA,NA,NA,NA,NA,NaN,NA,1874,right,1,NA,NA,NA,NA,NA
CONv8KhQ,3z33ic0jd3zsmh7cb6nqm2m9m84v9l,39asuflu61k38m1iay9wrlgxxsyex6,CONv8KhQ,2020-0188,2021-10-31,03:06:42,04:52:43,NA,incomplete,false,NA,NA,true,2,14,NA,NA,NA,right,n_s_094.jpg,purple,black,NA,NA,NA,NA,NA,NA,NA,NA,NA,NaN,NA,2663,right,1,NA,NA,NA,NA,NA
CONv8KhQ,3z33ic0jd3zsmh7cb6nqm2m9m84v9l,39asuflu61k38m1iay9wrlgxxsyex6,CONv8KhQ,2020-0188,2021-10-31,03:06:42,04:52:43,NA,incomplete,false,NA,NA,true,2,15,NA,NA,NA,right,n_l_055.jpg,black,blue,NA,NA,NA,NA,NA,NA,NA,NA,NA,NaN,NA,2964,left,0,NA,NA,NA,NA,NA
CONv8KhQ,3z33ic0jd3zsmh7cb6nqm2m9m84v9l,39asuflu61k38m1iay9wrlgxxsyex6,CONv8KhQ,2020-0188,2021-10-31,03:06:42,04:52:43,NA,incomplete,false,NA,NA,true,2,16,NA,NA,NA,right,n_l_007.jpg,green,blue,NA,NA,NA,NA,NA,NA,NA,NA,NA,NaN,NA,2202,right,1,NA,NA,NA,NA,NA
CONv8KhQ,3z33ic0jd3zsmh7cb6nqm2m9m84v9l,39asuflu61k38m1iay9wrlgxxsyex6,CONv8KhQ,2020-0188,2021-10-31,03:06:42,04:52:43,NA,incomplete,false,NA,NA,true,2,17,NA,NA,NA,right,n_l_064.jpg,purple,red,NA,NA,NA,NA,NA,NA,NA,NA,NA,NaN,NA,3548,right,1,NA,NA,NA,NA,NA
CONv8KhQ,3z33ic0jd3zsmh7cb6nqm2m9m84v9l,39asuflu61k38m1iay9wrlgxxsyex6,CONv8KhQ,2020-0188,2021-10-31,03:06:42,04:52:43,NA,incomplete,false,NA,NA,true,2,18,NA,NA,NA,right,n_l_086.jpg,red,brown,NA,NA,NA,NA,NA,NA,NA,NA,NA,NaN,NA,2454,right,1,NA,NA,NA,NA,NA
CONv8KhQ,3z33ic0jd3zsmh7cb6nqm2m9m84v9l,39asuflu61k38m1iay9wrlgxxsyex6,CONv8KhQ,2020-0188,2021-10-31,03:06:42,04:52:43,NA,incomplete,false,NA,NA,true,2,19,NA,NA,NA,left,m_l_088.jpg,blue,green,NA,NA,NA,NA,NA,NA,NA,NA,NA,NaN,NA,3120,right,0,NA,NA,NA,NA,NA
CONv8KhQ,3z33ic0jd3zsmh7cb6nqm2m9m84v9l,39asuflu61k38m1iay9wrlgxxsyex6,CONv8KhQ,2020-0188,2021-10-31,03:06:42,04:52:43,NA,incomplete,false,NA,NA,true,2,20,NA,NA,NA,right,m_s_033.jpg,red,purple,NA,NA,NA,NA,NA,NA,NA,NA,NA,NaN,NA,2489,right,1,NA,NA,NA,NA,NA
CONv8KhQ,3z33ic0jd3zsmh7cb6nqm2m9m84v9l,39asuflu61k38m1iay9wrlgxxsyex6,CONv8KhQ,2020-0188,2021-10-31,03:06:42,04:52:43,NA,incomplete,false,NA,NA,true,2,21,NA,NA,NA,left,n_l_091.jpg,black,blue,NA,NA,NA,NA,NA,NA,NA,NA,NA,NaN,NA,3941,left,1,NA,NA,NA,NA,NA
CONv8KhQ,3z33ic0jd3zsmh7cb6nqm2m9m84v9l,39asuflu61k38m1iay9wrlgxxsyex6,CONv8KhQ,2020-0188,2021-10-31,03:06:42,04:52:43,NA,incomplete,false,NA,true,NA,2,0,NA,NA,NA,left,NA,NA,NA,present,NA,NA,m_l_002.jpg,purple,m_l_071.jpg,purple,within,NA,NaN,NA,NA,NA,NA,right,2956,0,3,2445
CONv8KhQ,3z33ic0jd3zsmh7cb6nqm2m9m84v9l,39asuflu61k38m1iay9wrlgxxsyex6,CONv8KhQ,2020-0188,2021-10-31,03:06:42,04:52:43,NA,incomplete,false,NA,true,NA,2,1,NA,NA,NA,right,NA,NA,NA,present,NA,NA,m_s_054.jpg,red,n_l_064.jpg,red,within,NA,NaN,NA,NA,NA,NA,right,2149,1,2,2825
CONv8KhQ,3z33ic0jd3zsmh7cb6nqm2m9m84v9l,39asuflu61k38m1iay9wrlgxxsyex6,CONv8KhQ,2020-0188,2021-10-31,03:06:42,04:52:43,NA,incomplete,false,NA,true,NA,2,2,NA,NA,NA,right,NA,NA,NA,present,NA,NA,m_s_106.jpg,brown,n_l_086.jpg,brown,within,NA,NaN,NA,NA,NA,NA,right,1816,1,2,1854
CONv8KhQ,3z33ic0jd3zsmh7cb6nqm2m9m84v9l,39asuflu61k38m1iay9wrlgxxsyex6,CONv8KhQ,2020-0188,2021-10-31,03:06:42,04:52:43,NA,incomplete,false,NA,true,NA,2,3,NA,NA,NA,right,NA,NA,NA,present,NA,NA,m_s_028.jpg,green,m_s_004.jpg,blue,between,NA,NaN,NA,NA,NA,NA,right,2936,1,1,2067
CONv8KhQ,3z33ic0jd3zsmh7cb6nqm2m9m84v9l,39asuflu61k38m1iay9wrlgxxsyex6,CONv8KhQ,2020-0188,2021-10-31,03:06:42,04:52:43,NA,incomplete,false,NA,true,NA,2,4,NA,NA,NA,right,NA,NA,NA,present,NA,NA,n_l_091.jpg,black,n_s_094.jpg,black,within,NA,NaN,NA,NA,NA,NA,right,2497,1,1,1595
CONv8KhQ,3z33ic0jd3zsmh7cb6nqm2m9m84v9l,39asuflu61k38m1iay9wrlgxxsyex6,CONv8KhQ,2020-0188,2021-10-31,03:06:42,04:52:43,NA,incomplete,false,NA,true,NA,2,5,NA,NA,NA,left,NA,NA,NA,present,NA,NA,n_l_020.jpg,black,n_l_055.jpg,blue,between,NA,NaN,NA,NA,NA,NA,left,4282,1,3,2245
CONv8KhQ,3z33ic0jd3zsmh7cb6nqm2m9m84v9l,39asuflu61k38m1iay9wrlgxxsyex6,CONv8KhQ,2020-0188,2021-10-31,03:06:42,04:52:43,NA,incomplete,false,NA,true,NA,2,6,NA,NA,NA,right,NA,NA,NA,present,NA,NA,m_s_109.jpg,green,n_s_090.jpg,green,within,NA,NaN,NA,NA,NA,NA,right,2508,1,2,2399
CONv8KhQ,3z33ic0jd3zsmh7cb6nqm2m9m84v9l,39asuflu61k38m1iay9wrlgxxsyex6,CONv8KhQ,2020-0188,2021-10-31,03:06:42,04:52:43,NA,incomplete,false,NA,true,NA,2,7,NA,NA,NA,right,NA,NA,NA,present,NA,NA,n_l_007.jpg,blue,m_l_088.jpg,blue,within,NA,NaN,NA,NA,NA,NA,right,9096,1,3,2518
CONv8KhQ,3z33ic0jd3zsmh7cb6nqm2m9m84v9l,39asuflu61k38m1iay9wrlgxxsyex6,CONv8KhQ,2020-0188,2021-10-31,03:06:42,04:52:43,NA,incomplete,false,NA,true,NA,2,8,NA,NA,NA,left,NA,NA,NA,present,NA,NA,m_s_035.jpg,brown,n_l_069.jpg,red,between,NA,NaN,NA,NA,NA,NA,right,3466,0,2,2342
CONv8KhQ,3z33ic0jd3zsmh7cb6nqm2m9m84v9l,39asuflu61k38m1iay9wrlgxxsyex6,CONv8KhQ,2020-0188,2021-10-31,03:06:42,04:52:43,NA,incomplete,false,NA,true,NA,2,9,NA,NA,NA,left,NA,NA,NA,present,NA,NA,m_l_035.jpg,purple,m_l_102.jpg,black,between,NA,NaN,NA,NA,NA,NA,right,2620,0,1,1376
CONv8KhQ,3z33ic0jd3zsmh7cb6nqm2m9m84v9l,39asuflu61k38m1iay9wrlgxxsyex6,CONv8KhQ,2020-0188,2021-10-31,03:06:42,04:52:43,NA,incomplete,false,NA,true,NA,2,10,NA,NA,NA,right,NA,NA,NA,present,NA,NA,m_s_033.jpg,purple,n_s_008.jpg,red,between,NA,NaN,NA,NA,NA,NA,right,2518,1,1,2738
CONv8KhQ,3z33ic0jd3zsmh7cb6nqm2m9m84v9l,39asuflu61k38m1iay9wrlgxxsyex6,CONv8KhQ,2020-0188,2021-10-31,03:06:42,04:52:43,NA,incomplete,false,true,NA,NA,3,0,NA,yellow,m_l_060.jpg,NA,NA,NA,NA,NA,unpleasant,pleasant,NA,NA,NA,NA,NA,none,0,false,NA,NA,NA,NA,NA,NA,NA,NA
CONv8KhQ,3z33ic0jd3zsmh7cb6nqm2m9m84v9l,39asuflu61k38m1iay9wrlgxxsyex6,CONv8KhQ,2020-0188,2021-10-31,03:06:42,04:52:43,NA,incomplete,false,true,NA,NA,3,1,NA,yellow,m_l_017.jpg,NA,NA,NA,NA,NA,unpleasant,pleasant,NA,NA,NA,NA,NA,right,2335,true,NA,NA,NA,NA,NA,NA,NA,NA
CONv8KhQ,3z33ic0jd3zsmh7cb6nqm2m9m84v9l,39asuflu61k38m1iay9wrlgxxsyex6,CONv8KhQ,2020-0188,2021-10-31,03:06:42,04:52:43,NA,incomplete,false,true,NA,NA,3,2,NA,yellow,n_s_115.jpg,NA,NA,NA,NA,NA,pleasant,unpleasant,NA,NA,NA,NA,NA,right,2000,true,NA,NA,NA,NA,NA,NA,NA,NA
CONv8KhQ,3z33ic0jd3zsmh7cb6nqm2m9m84v9l,39asuflu61k38m1iay9wrlgxxsyex6,CONv8KhQ,2020-0188,2021-10-31,03:06:42,04:52:43,NA,incomplete,false,true,NA,NA,3,3,NA,yellow,m_l_104.jpg,NA,NA,NA,NA,NA,pleasant,unpleasant,NA,NA,NA,NA,NA,left,1653,true,NA,NA,NA,NA,NA,NA,NA,NA
CONv8KhQ,3z33ic0jd3zsmh7cb6nqm2m9m84v9l,39asuflu61k38m1iay9wrlgxxsyex6,CONv8KhQ,2020-0188,2021-10-31,03:06:42,04:52:43,NA,incomplete,false,true,NA,NA,3,4,NA,yellow,n_l_115.jpg,NA,NA,NA,NA,NA,unpleasant,pleasant,NA,NA,NA,NA,NA,right,2655,true,NA,NA,NA,NA,NA,NA,NA,NA
CONv8KhQ,3z33ic0jd3zsmh7cb6nqm2m9m84v9l,39asuflu61k38m1iay9wrlgxxsyex6,CONv8KhQ,2020-0188,2021-10-31,03:06:42,04:52:43,NA,incomplete,false,true,NA,NA,3,5,NA,yellow,m_s_114.jpg,NA,NA,NA,NA,NA,unpleasant,pleasant,NA,NA,NA,NA,NA,right,1495,true,NA,NA,NA,NA,NA,NA,NA,NA
CONv8KhQ,3z33ic0jd3zsmh7cb6nqm2m9m84v9l,39asuflu61k38m1iay9wrlgxxsyex6,CONv8KhQ,2020-0188,2021-10-31,03:06:42,04:52:43,NA,incomplete,false,true,NA,NA,3,6,NA,orange,m_l_116.jpg,NA,NA,NA,NA,NA,pleasant,unpleasant,NA,NA,NA,NA,NA,right,1776,true,NA,NA,NA,NA,NA,NA,NA,NA
CONv8KhQ,3z33ic0jd3zsmh7cb6nqm2m9m84v9l,39asuflu61k38m1iay9wrlgxxsyex6,CONv8KhQ,2020-0188,2021-10-31,03:06:42,04:52:43,NA,incomplete,false,true,NA,NA,3,7,NA,orange,n_l_062.jpg,NA,NA,NA,NA,NA,unpleasant,pleasant,NA,NA,NA,NA,NA,right,2078,true,NA,NA,NA,NA,NA,NA,NA,NA
CONv8KhQ,3z33ic0jd3zsmh7cb6nqm2m9m84v9l,39asuflu61k38m1iay9wrlgxxsyex6,CONv8KhQ,2020-0188,2021-10-31,03:06:42,04:52:43,NA,incomplete,false,true,NA,NA,3,8,NA,orange,m_s_062.jpg,NA,NA,NA,NA,NA,unpleasant,pleasant,NA,NA,NA,NA,NA,right,1413,true,NA,NA,NA,NA,NA,NA,NA,NA
CONv8KhQ,3z33ic0jd3zsmh7cb6nqm2m9m84v9l,39asuflu61k38m1iay9wrlgxxsyex6,CONv8KhQ,2020-0188,2021-10-31,03:06:42,04:52:43,NA,incomplete,false,true,NA,NA,3,9,NA,orange,m_s_098.jpg,NA,NA,NA,NA,NA,unpleasant,pleasant,NA,NA,NA,NA,NA,right,1349,true,NA,NA,NA,NA,NA,NA,NA,NA
CONv8KhQ,3z33ic0jd3zsmh7cb6nqm2m9m84v9l,39asuflu61k38m1iay9wrlgxxsyex6,CONv8KhQ,2020-0188,2021-10-31,03:06:42,04:52:43,NA,incomplete,false,true,NA,NA,3,10,NA,orange,n_l_023.jpg,NA,NA,NA,NA,NA,unpleasant,pleasant,NA,NA,NA,NA,NA,right,1305,true,NA,NA,NA,NA,NA,NA,NA,NA
CONv8KhQ,3z33ic0jd3zsmh7cb6nqm2m9m84v9l,39asuflu61k38m1iay9wrlgxxsyex6,CONv8KhQ,2020-0188,2021-10-31,03:06:42,04:52:43,NA,incomplete,false,true,NA,NA,3,11,NA,orange,m_s_092.jpg,NA,NA,NA,NA,NA,pleasant,unpleasant,NA,NA,NA,NA,NA,right,1258,true,NA,NA,NA,NA,NA,NA,NA,NA
CONv8KhQ,3z33ic0jd3zsmh7cb6nqm2m9m84v9l,39asuflu61k38m1iay9wrlgxxsyex6,CONv8KhQ,2020-0188,2021-10-31,03:06:42,04:52:43,NA,incomplete,false,true,NA,NA,3,12,NA,black,n_l_011.jpg,NA,NA,NA,NA,NA,pleasant,unpleasant,NA,NA,NA,NA,NA,left,1213,true,NA,NA,NA,NA,NA,NA,NA,NA
CONv8KhQ,3z33ic0jd3zsmh7cb6nqm2m9m84v9l,39asuflu61k38m1iay9wrlgxxsyex6,CONv8KhQ,2020-0188,2021-10-31,03:06:42,04:52:43,NA,incomplete,false,true,NA,NA,3,13,NA,black,n_l_028.jpg,NA,NA,NA,NA,NA,pleasant,unpleasant,NA,NA,NA,NA,NA,left,1982,true,NA,NA,NA,NA,NA,NA,NA,NA
CONv8KhQ,3z33ic0jd3zsmh7cb6nqm2m9m84v9l,39asuflu61k38m1iay9wrlgxxsyex6,CONv8KhQ,2020-0188,2021-10-31,03:06:42,04:52:43,NA,incomplete,false,true,NA,NA,3,14,NA,black,n_s_019.jpg,NA,NA,NA,NA,NA,pleasant,unpleasant,NA,NA,NA,NA,NA,left,2030,true,NA,NA,NA,NA,NA,NA,NA,NA
CONv8KhQ,3z33ic0jd3zsmh7cb6nqm2m9m84v9l,39asuflu61k38m1iay9wrlgxxsyex6,CONv8KhQ,2020-0188,2021-10-31,03:06:42,04:52:43,NA,incomplete,false,true,NA,NA,3,15,NA,black,n_s_098.jpg,NA,NA,NA,NA,NA,pleasant,unpleasant,NA,NA,NA,NA,NA,left,2377,true,NA,NA,NA,NA,NA,NA,NA,NA
CONv8KhQ,3z33ic0jd3zsmh7cb6nqm2m9m84v9l,39asuflu61k38m1iay9wrlgxxsyex6,CONv8KhQ,2020-0188,2021-10-31,03:06:42,04:52:43,NA,incomplete,false,true,NA,NA,3,16,NA,black,m_l_016.jpg,NA,NA,NA,NA,NA,pleasant,unpleasant,NA,NA,NA,NA,NA,left,2564,true,NA,NA,NA,NA,NA,NA,NA,NA
CONv8KhQ,3z33ic0jd3zsmh7cb6nqm2m9m84v9l,39asuflu61k38m1iay9wrlgxxsyex6,CONv8KhQ,2020-0188,2021-10-31,03:06:42,04:52:43,NA,incomplete,false,true,NA,NA,3,17,NA,black,n_s_032.jpg,NA,NA,NA,NA,NA,pleasant,unpleasant,NA,NA,NA,NA,NA,left,2268,true,NA,NA,NA,NA,NA,NA,NA,NA
CONv8KhQ,3z33ic0jd3zsmh7cb6nqm2m9m84v9l,39asuflu61k38m1iay9wrlgxxsyex6,CONv8KhQ,2020-0188,2021-10-31,03:06:42,04:52:43,NA,incomplete,false,true,NA,NA,3,18,NA,gray,n_s_079.jpg,NA,NA,NA,NA,NA,pleasant,unpleasant,NA,NA,NA,NA,NA,left,1384,true,NA,NA,NA,NA,NA,NA,NA,NA
CONv8KhQ,3z33ic0jd3zsmh7cb6nqm2m9m84v9l,39asuflu61k38m1iay9wrlgxxsyex6,CONv8KhQ,2020-0188,2021-10-31,03:06:42,04:52:43,NA,incomplete,false,true,NA,NA,3,19,NA,gray,n_l_075.jpg,NA,NA,NA,NA,NA,pleasant,unpleasant,NA,NA,NA,NA,NA,left,1703,true,NA,NA,NA,NA,NA,NA,NA,NA
CONv8KhQ,3z33ic0jd3zsmh7cb6nqm2m9m84v9l,39asuflu61k38m1iay9wrlgxxsyex6,CONv8KhQ,2020-0188,2021-10-31,03:06:42,04:52:43,NA,incomplete,false,true,NA,NA,3,20,NA,gray,m_l_009.jpg,NA,NA,NA,NA,NA,pleasant,unpleasant,NA,NA,NA,NA,NA,left,1642,true,NA,NA,NA,NA,NA,NA,NA,NA
CONv8KhQ,3z33ic0jd3zsmh7cb6nqm2m9m84v9l,39asuflu61k38m1iay9wrlgxxsyex6,CONv8KhQ,2020-0188,2021-10-31,03:06:42,04:52:43,NA,incomplete,false,true,NA,NA,3,21,NA,gray,m_l_110.jpg,NA,NA,NA,NA,NA,unpleasant,pleasant,NA,NA,NA,NA,NA,right,3277,true,NA,NA,NA,NA,NA,NA,NA,NA
CONv8KhQ,3z33ic0jd3zsmh7cb6nqm2m9m84v9l,39asuflu61k38m1iay9wrlgxxsyex6,CONv8KhQ,2020-0188,2021-10-31,03:06:42,04:52:43,NA,incomplete,false,true,NA,NA,3,22,NA,gray,m_s_029.jpg,NA,NA,NA,NA,NA,unpleasant,pleasant,NA,NA,NA,NA,NA,none,0,false,NA,NA,NA,NA,NA,NA,NA,NA
CONv8KhQ,3z33ic0jd3zsmh7cb6nqm2m9m84v9l,39asuflu61k38m1iay9wrlgxxsyex6,CONv8KhQ,2020-0188,2021-10-31,03:06:42,04:52:43,NA,incomplete,false,true,NA,NA,3,23,NA,gray,n_s_084.jpg,NA,NA,NA,NA,NA,unpleasant,pleasant,NA,NA,NA,NA,NA,right,1641,true,NA,NA,NA,NA,NA,NA,NA,NA
CONv8KhQ,3z33ic0jd3zsmh7cb6nqm2m9m84v9l,39asuflu61k38m1iay9wrlgxxsyex6,CONv8KhQ,2020-0188,2021-10-31,03:06:42,04:52:43,NA,incomplete,false,true,NA,NA,3,24,NA,green,n_l_010.jpg,NA,NA,NA,NA,NA,unpleasant,pleasant,NA,NA,NA,NA,NA,right,2720,true,NA,NA,NA,NA,NA,NA,NA,NA
CONv8KhQ,3z33ic0jd3zsmh7cb6nqm2m9m84v9l,39asuflu61k38m1iay9wrlgxxsyex6,CONv8KhQ,2020-0188,2021-10-31,03:06:42,04:52:43,NA,incomplete,false,true,NA,NA,3,25,NA,green,n_l_027.jpg,NA,NA,NA,NA,NA,pleasant,unpleasant,NA,NA,NA,NA,NA,right,1628,true,NA,NA,NA,NA,NA,NA,NA,NA
CONv8KhQ,3z33ic0jd3zsmh7cb6nqm2m9m84v9l,39asuflu61k38m1iay9wrlgxxsyex6,CONv8KhQ,2020-0188,2021-10-31,03:06:42,04:52:43,NA,incomplete,false,true,NA,NA,3,26,NA,green,m_s_070.jpg,NA,NA,NA,NA,NA,pleasant,unpleasant,NA,NA,NA,NA,NA,left,1716,true,NA,NA,NA,NA,NA,NA,NA,NA
CONv8KhQ,3z33ic0jd3zsmh7cb6nqm2m9m84v9l,39asuflu61k38m1iay9wrlgxxsyex6,CONv8KhQ,2020-0188,2021-10-31,03:06:42,04:52:43,NA,incomplete,false,true,NA,NA,3,27,NA,green,m_l_004.jpg,NA,NA,NA,NA,NA,pleasant,unpleasant,NA,NA,NA,NA,NA,left,1591,true,NA,NA,NA,NA,NA,NA,NA,NA
CONv8KhQ,3z33ic0jd3zsmh7cb6nqm2m9m84v9l,39asuflu61k38m1iay9wrlgxxsyex6,CONv8KhQ,2020-0188,2021-10-31,03:06:42,04:52:43,NA,incomplete,false,true,NA,NA,3,28,NA,green,n_s_059.jpg,NA,NA,NA,NA,NA,pleasant,unpleasant,NA,NA,NA,NA,NA,left,1630,true,NA,NA,NA,NA,NA,NA,NA,NA
CONv8KhQ,3z33ic0jd3zsmh7cb6nqm2m9m84v9l,39asuflu61k38m1iay9wrlgxxsyex6,CONv8KhQ,2020-0188,2021-10-31,03:06:42,04:52:43,NA,incomplete,false,true,NA,NA,3,29,NA,green,n_s_053.jpg,NA,NA,NA,NA,NA,unpleasant,pleasant,NA,NA,NA,NA,NA,right,1426,true,NA,NA,NA,NA,NA,NA,NA,NA
CONv8KhQ,3z33ic0jd3zsmh7cb6nqm2m9m84v9l,39asuflu61k38m1iay9wrlgxxsyex6,CONv8KhQ,2020-0188,2021-10-31,03:06:42,04:52:43,NA,incomplete,false,true,NA,NA,3,30,NA,white,m_s_049.jpg,NA,NA,NA,NA,NA,pleasant,unpleasant,NA,NA,NA,NA,NA,left,2078,true,NA,NA,NA,NA,NA,NA,NA,NA
CONv8KhQ,3z33ic0jd3zsmh7cb6nqm2m9m84v9l,39asuflu61k38m1iay9wrlgxxsyex6,CONv8KhQ,2020-0188,2021-10-31,03:06:42,04:52:43,NA,incomplete,false,true,NA,NA,3,31,NA,white,n_l_088.jpg,NA,NA,NA,NA,NA,pleasant,unpleasant,NA,NA,NA,NA,NA,left,2146,true,NA,NA,NA,NA,NA,NA,NA,NA
CONv8KhQ,3z33ic0jd3zsmh7cb6nqm2m9m84v9l,39asuflu61k38m1iay9wrlgxxsyex6,CONv8KhQ,2020-0188,2021-10-31,03:06:42,04:52:43,NA,incomplete,false,true,NA,NA,3,32,NA,white,n_l_102.jpg,NA,NA,NA,NA,NA,pleasant,unpleasant,NA,NA,NA,NA,NA,left,2179,true,NA,NA,NA,NA,NA,NA,NA,NA
CONv8KhQ,3z33ic0jd3zsmh7cb6nqm2m9m84v9l,39asuflu61k38m1iay9wrlgxxsyex6,CONv8KhQ,2020-0188,2021-10-31,03:06:42,04:52:43,NA,incomplete,false,true,NA,NA,3,33,NA,white,m_l_044.jpg,NA,NA,NA,NA,NA,unpleasant,pleasant,NA,NA,NA,NA,NA,left,1384,true,NA,NA,NA,NA,NA,NA,NA,NA
CONv8KhQ,3z33ic0jd3zsmh7cb6nqm2m9m84v9l,39asuflu61k38m1iay9wrlgxxsyex6,CONv8KhQ,2020-0188,2021-10-31,03:06:42,04:52:43,NA,incomplete,false,true,NA,NA,3,34,NA,white,n_l_065.jpg,NA,NA,NA,NA,NA,pleasant,unpleasant,NA,NA,NA,NA,NA,right,1522,true,NA,NA,NA,NA,NA,NA,NA,NA
CONv8KhQ,3z33ic0jd3zsmh7cb6nqm2m9m84v9l,39asuflu61k38m1iay9wrlgxxsyex6,CONv8KhQ,2020-0188,2021-10-31,03:06:42,04:52:43,NA,incomplete,false,true,NA,NA,3,35,NA,white,n_l_049.jpg,NA,NA,NA,NA,NA,unpleasant,pleasant,NA,NA,NA,NA,NA,right,2644,true,NA,NA,NA,NA,NA,NA,NA,NA
CONv8KhQ,3z33ic0jd3zsmh7cb6nqm2m9m84v9l,39asuflu61k38m1iay9wrlgxxsyex6,CONv8KhQ,2020-0188,2021-10-31,03:06:42,04:52:43,NA,incomplete,false,NA,NA,true,3,0,NA,NA,NA,right,n_s_059.jpg,white,green,NA,NA,NA,NA,NA,NA,NA,NA,NA,NaN,NA,3970,right,1,NA,NA,NA,NA,NA
CONv8KhQ,3z33ic0jd3zsmh7cb6nqm2m9m84v9l,39asuflu61k38m1iay9wrlgxxsyex6,CONv8KhQ,2020-0188,2021-10-31,03:06:42,04:52:43,NA,incomplete,false,NA,NA,true,3,1,NA,NA,NA,right,n_l_075.jpg,green,gray,NA,NA,NA,NA,NA,NA,NA,NA,NA,NaN,NA,1800,right,1,NA,NA,NA,NA,NA
CONv8KhQ,3z33ic0jd3zsmh7cb6nqm2m9m84v9l,39asuflu61k38m1iay9wrlgxxsyex6,CONv8KhQ,2020-0188,2021-10-31,03:06:42,04:52:43,NA,incomplete,false,NA,NA,true,3,2,NA,NA,NA,left,n_s_032.jpg,black,gray,NA,NA,NA,NA,NA,NA,NA,NA,NA,NaN,NA,3608,right,0,NA,NA,NA,NA,NA
CONv8KhQ,3z33ic0jd3zsmh7cb6nqm2m9m84v9l,39asuflu61k38m1iay9wrlgxxsyex6,CONv8KhQ,2020-0188,2021-10-31,03:06:42,04:52:43,NA,incomplete,false,NA,NA,true,3,3,NA,NA,NA,left,m_s_092.jpg,orange,yellow,NA,NA,NA,NA,NA,NA,NA,NA,NA,NaN,NA,2972,left,1,NA,NA,NA,NA,NA
CONv8KhQ,3z33ic0jd3zsmh7cb6nqm2m9m84v9l,39asuflu61k38m1iay9wrlgxxsyex6,CONv8KhQ,2020-0188,2021-10-31,03:06:42,04:52:43,NA,incomplete,false,NA,NA,true,3,4,NA,NA,NA,right,n_l_102.jpg,green,white,NA,NA,NA,NA,NA,NA,NA,NA,NA,NaN,NA,2665,right,1,NA,NA,NA,NA,NA
CONv8KhQ,3z33ic0jd3zsmh7cb6nqm2m9m84v9l,39asuflu61k38m1iay9wrlgxxsyex6,CONv8KhQ,2020-0188,2021-10-31,03:06:42,04:52:43,NA,incomplete,false,NA,NA,true,3,5,NA,NA,NA,right,m_s_062.jpg,black,orange,NA,NA,NA,NA,NA,NA,NA,NA,NA,NaN,NA,2366,right,1,NA,NA,NA,NA,NA
CONv8KhQ,3z33ic0jd3zsmh7cb6nqm2m9m84v9l,39asuflu61k38m1iay9wrlgxxsyex6,CONv8KhQ,2020-0188,2021-10-31,03:06:42,04:52:43,NA,incomplete,false,NA,NA,true,3,6,NA,NA,NA,left,n_s_084.jpg,gray,black,NA,NA,NA,NA,NA,NA,NA,NA,NA,NaN,NA,3804,left,1,NA,NA,NA,NA,NA
CONv8KhQ,3z33ic0jd3zsmh7cb6nqm2m9m84v9l,39asuflu61k38m1iay9wrlgxxsyex6,CONv8KhQ,2020-0188,2021-10-31,03:06:42,04:52:43,NA,incomplete,false,NA,NA,true,3,7,NA,NA,NA,left,n_l_088.jpg,white,green,NA,NA,NA,NA,NA,NA,NA,NA,NA,NaN,NA,2577,left,1,NA,NA,NA,NA,NA
CONv8KhQ,3z33ic0jd3zsmh7cb6nqm2m9m84v9l,39asuflu61k38m1iay9wrlgxxsyex6,CONv8KhQ,2020-0188,2021-10-31,03:06:42,04:52:43,NA,incomplete,false,NA,NA,true,3,8,NA,NA,NA,left,m_s_114.jpg,yellow,orange,NA,NA,NA,NA,NA,NA,NA,NA,NA,NaN,NA,3478,right,0,NA,NA,NA,NA,NA
CONv8KhQ,3z33ic0jd3zsmh7cb6nqm2m9m84v9l,39asuflu61k38m1iay9wrlgxxsyex6,CONv8KhQ,2020-0188,2021-10-31,03:06:42,04:52:43,NA,incomplete,false,NA,NA,true,3,9,NA,NA,NA,left,n_s_019.jpg,black,orange,NA,NA,NA,NA,NA,NA,NA,NA,NA,NaN,NA,3014,right,0,NA,NA,NA,NA,NA
CONv8KhQ,3z33ic0jd3zsmh7cb6nqm2m9m84v9l,39asuflu61k38m1iay9wrlgxxsyex6,CONv8KhQ,2020-0188,2021-10-31,03:06:42,04:52:43,NA,incomplete,false,NA,NA,true,3,10,NA,NA,NA,right,m_s_070.jpg,white,green,NA,NA,NA,NA,NA,NA,NA,NA,NA,NaN,NA,3999,right,1,NA,NA,NA,NA,NA
CONv8KhQ,3z33ic0jd3zsmh7cb6nqm2m9m84v9l,39asuflu61k38m1iay9wrlgxxsyex6,CONv8KhQ,2020-0188,2021-10-31,03:06:42,04:52:43,NA,incomplete,false,NA,NA,true,3,11,NA,NA,NA,left,n_l_062.jpg,orange,yellow,NA,NA,NA,NA,NA,NA,NA,NA,NA,NaN,NA,3330,right,0,NA,NA,NA,NA,NA
CONv8KhQ,3z33ic0jd3zsmh7cb6nqm2m9m84v9l,39asuflu61k38m1iay9wrlgxxsyex6,CONv8KhQ,2020-0188,2021-10-31,03:06:42,04:52:43,NA,incomplete,false,NA,NA,true,3,12,NA,NA,NA,left,n_l_023.jpg,orange,black,NA,NA,NA,NA,NA,NA,NA,NA,NA,NaN,NA,2732,right,0,NA,NA,NA,NA,NA
CONv8KhQ,3z33ic0jd3zsmh7cb6nqm2m9m84v9l,39asuflu61k38m1iay9wrlgxxsyex6,CONv8KhQ,2020-0188,2021-10-31,03:06:42,04:52:43,NA,incomplete,false,NA,NA,true,3,13,NA,NA,NA,right,n_l_027.jpg,gray,green,NA,NA,NA,NA,NA,NA,NA,NA,NA,NaN,NA,2563,right,1,NA,NA,NA,NA,NA
CONv8KhQ,3z33ic0jd3zsmh7cb6nqm2m9m84v9l,39asuflu61k38m1iay9wrlgxxsyex6,CONv8KhQ,2020-0188,2021-10-31,03:06:42,04:52:43,NA,incomplete,false,NA,NA,true,3,14,NA,NA,NA,right,m_s_029.jpg,black,gray,NA,NA,NA,NA,NA,NA,NA,NA,NA,NaN,NA,2338,right,1,NA,NA,NA,NA,NA
CONv8KhQ,3z33ic0jd3zsmh7cb6nqm2m9m84v9l,39asuflu61k38m1iay9wrlgxxsyex6,CONv8KhQ,2020-0188,2021-10-31,03:06:42,04:52:43,NA,incomplete,false,NA,NA,true,3,15,NA,NA,NA,right,n_l_049.jpg,green,white,NA,NA,NA,NA,NA,NA,NA,NA,NA,NaN,NA,2297,right,1,NA,NA,NA,NA,NA
CONv8KhQ,3z33ic0jd3zsmh7cb6nqm2m9m84v9l,39asuflu61k38m1iay9wrlgxxsyex6,CONv8KhQ,2020-0188,2021-10-31,03:06:42,04:52:43,NA,incomplete,false,NA,NA,true,3,16,NA,NA,NA,left,n_l_115.jpg,yellow,orange,NA,NA,NA,NA,NA,NA,NA,NA,NA,NaN,NA,2328,left,1,NA,NA,NA,NA,NA
CONv8KhQ,3z33ic0jd3zsmh7cb6nqm2m9m84v9l,39asuflu61k38m1iay9wrlgxxsyex6,CONv8KhQ,2020-0188,2021-10-31,03:06:42,04:52:43,NA,incomplete,false,NA,NA,true,3,17,NA,NA,NA,left,m_l_016.jpg,black,gray,NA,NA,NA,NA,NA,NA,NA,NA,NA,NaN,NA,3336,right,0,NA,NA,NA,NA,NA
CONv8KhQ,3z33ic0jd3zsmh7cb6nqm2m9m84v9l,39asuflu61k38m1iay9wrlgxxsyex6,CONv8KhQ,2020-0188,2021-10-31,03:06:42,04:52:43,NA,incomplete,false,NA,NA,true,3,18,NA,NA,NA,left,m_l_017.jpg,yellow,orange,NA,NA,NA,NA,NA,NA,NA,NA,NA,NaN,NA,2908,right,0,NA,NA,NA,NA,NA
CONv8KhQ,3z33ic0jd3zsmh7cb6nqm2m9m84v9l,39asuflu61k38m1iay9wrlgxxsyex6,CONv8KhQ,2020-0188,2021-10-31,03:06:42,04:52:43,NA,incomplete,false,NA,NA,true,3,19,NA,NA,NA,right,n_s_053.jpg,gray,green,NA,NA,NA,NA,NA,NA,NA,NA,NA,NaN,NA,5033,left,0,NA,NA,NA,NA,NA
CONv8KhQ,3z33ic0jd3zsmh7cb6nqm2m9m84v9l,39asuflu61k38m1iay9wrlgxxsyex6,CONv8KhQ,2020-0188,2021-10-31,03:06:42,04:52:43,NA,incomplete,false,NA,NA,true,3,20,NA,NA,NA,left,m_l_009.jpg,gray,green,NA,NA,NA,NA,NA,NA,NA,NA,NA,NaN,NA,2747,right,0,NA,NA,NA,NA,NA
CONv8KhQ,3z33ic0jd3zsmh7cb6nqm2m9m84v9l,39asuflu61k38m1iay9wrlgxxsyex6,CONv8KhQ,2020-0188,2021-10-31,03:06:42,04:52:43,NA,incomplete,false,NA,NA,true,3,21,NA,NA,NA,left,n_l_028.jpg,black,gray,NA,NA,NA,NA,NA,NA,NA,NA,NA,NaN,NA,2846,right,0,NA,NA,NA,NA,NA
CONv8KhQ,3z33ic0jd3zsmh7cb6nqm2m9m84v9l,39asuflu61k38m1iay9wrlgxxsyex6,CONv8KhQ,2020-0188,2021-10-31,03:06:42,04:52:43,NA,incomplete,false,NA,true,NA,3,0,NA,NA,NA,left,NA,NA,NA,present,NA,NA,n_l_027.jpg,green,n_s_053.jpg,green,within,NA,NaN,NA,NA,NA,NA,right,4113,0,3,1972
CONv8KhQ,3z33ic0jd3zsmh7cb6nqm2m9m84v9l,39asuflu61k38m1iay9wrlgxxsyex6,CONv8KhQ,2020-0188,2021-10-31,03:06:42,04:52:43,NA,incomplete,false,NA,true,NA,3,1,NA,NA,NA,right,NA,NA,NA,present,NA,NA,n_s_032.jpg,black,n_l_028.jpg,black,within,NA,NaN,NA,NA,NA,NA,right,2502,1,2,1159
CONv8KhQ,3z33ic0jd3zsmh7cb6nqm2m9m84v9l,39asuflu61k38m1iay9wrlgxxsyex6,CONv8KhQ,2020-0188,2021-10-31,03:06:42,04:52:43,NA,incomplete,false,NA,true,NA,3,2,NA,NA,NA,right,NA,NA,NA,present,NA,NA,n_s_019.jpg,black,n_l_023.jpg,orange,between,NA,NaN,NA,NA,NA,NA,right,3059,1,1,2343
CONv8KhQ,3z33ic0jd3zsmh7cb6nqm2m9m84v9l,39asuflu61k38m1iay9wrlgxxsyex6,CONv8KhQ,2020-0188,2021-10-31,03:06:42,04:52:43,NA,incomplete,false,NA,true,NA,3,3,NA,NA,NA,left,NA,NA,NA,present,NA,NA,m_l_017.jpg,yellow,m_s_114.jpg,yellow,within,NA,NaN,NA,NA,NA,NA,right,2296,0,1,4303
CONv8KhQ,3z33ic0jd3zsmh7cb6nqm2m9m84v9l,39asuflu61k38m1iay9wrlgxxsyex6,CONv8KhQ,2020-0188,2021-10-31,03:06:42,04:52:43,NA,incomplete,false,NA,true,NA,3,4,NA,NA,NA,left,NA,NA,NA,present,NA,NA,m_l_016.jpg,black,m_l_009.jpg,gray,between,NA,NaN,NA,NA,NA,NA,left,3550,1,3,2244
CONv8KhQ,3z33ic0jd3zsmh7cb6nqm2m9m84v9l,39asuflu61k38m1iay9wrlgxxsyex6,CONv8KhQ,2020-0188,2021-10-31,03:06:42,04:52:43,NA,incomplete,false,NA,true,NA,3,5,NA,NA,NA,right,NA,NA,NA,present,NA,NA,m_s_070.jpg,green,m_s_029.jpg,gray,between,NA,NaN,NA,NA,NA,NA,left,3216,0,3,1929
CONv8KhQ,3z33ic0jd3zsmh7cb6nqm2m9m84v9l,39asuflu61k38m1iay9wrlgxxsyex6,CONv8KhQ,2020-0188,2021-10-31,03:06:42,04:52:43,NA,incomplete,false,NA,true,NA,3,6,NA,NA,NA,left,NA,NA,NA,present,NA,NA,n_l_075.jpg,gray,n_s_084.jpg,gray,within,NA,NaN,NA,NA,NA,NA,right,3357,0,2,2245
CONv8KhQ,3z33ic0jd3zsmh7cb6nqm2m9m84v9l,39asuflu61k38m1iay9wrlgxxsyex6,CONv8KhQ,2020-0188,2021-10-31,03:06:42,04:52:43,NA,incomplete,false,NA,true,NA,3,7,NA,NA,NA,right,NA,NA,NA,present,NA,NA,m_s_062.jpg,orange,n_l_115.jpg,yellow,between,NA,NaN,NA,NA,NA,NA,right,3234,1,3,2219
CONv8KhQ,3z33ic0jd3zsmh7cb6nqm2m9m84v9l,39asuflu61k38m1iay9wrlgxxsyex6,CONv8KhQ,2020-0188,2021-10-31,03:06:42,04:52:43,NA,incomplete,false,NA,true,NA,3,8,NA,NA,NA,right,NA,NA,NA,present,NA,NA,m_s_092.jpg,orange,n_l_062.jpg,orange,within,NA,NaN,NA,NA,NA,NA,right,2291,1,3,2730
CONv8KhQ,3z33ic0jd3zsmh7cb6nqm2m9m84v9l,39asuflu61k38m1iay9wrlgxxsyex6,CONv8KhQ,2020-0188,2021-10-31,03:06:42,04:52:43,NA,incomplete,false,NA,true,NA,3,9,NA,NA,NA,right,NA,NA,NA,present,NA,NA,n_l_102.jpg,white,n_s_059.jpg,green,between,NA,NaN,NA,NA,NA,NA,right,2716,1,2,1814
CONv8KhQ,3z33ic0jd3zsmh7cb6nqm2m9m84v9l,39asuflu61k38m1iay9wrlgxxsyex6,CONv8KhQ,2020-0188,2021-10-31,03:06:42,04:52:43,NA,incomplete,false,NA,true,NA,3,10,NA,NA,NA,right,NA,NA,NA,present,NA,NA,n_l_049.jpg,white,n_l_088.jpg,white,within,NA,NaN,NA,NA,NA,NA,left,3274,0,3,1545
CONv8KhQ,3z33ic0jd3zsmh7cb6nqm2m9m84v9l,39asuflu61k38m1iay9wrlgxxsyex6,CONv8KhQ,2020-0188,2021-10-31,03:06:42,04:52:43,NA,incomplete,false,true,NA,NA,4,0,NA,brown,n_l_076.jpg,NA,NA,NA,NA,NA,unpleasant,pleasant,NA,NA,NA,NA,NA,none,0,false,NA,NA,NA,NA,NA,NA,NA,NA
CONv8KhQ,3z33ic0jd3zsmh7cb6nqm2m9m84v9l,39asuflu61k38m1iay9wrlgxxsyex6,CONv8KhQ,2020-0188,2021-10-31,03:06:42,04:52:43,NA,incomplete,false,true,NA,NA,4,1,NA,brown,m_l_108.jpg,NA,NA,NA,NA,NA,unpleasant,pleasant,NA,NA,NA,NA,NA,right,36,true,NA,NA,NA,NA,NA,NA,NA,NA
CONv8KhQ,3z33ic0jd3zsmh7cb6nqm2m9m84v9l,39asuflu61k38m1iay9wrlgxxsyex6,CONv8KhQ,2020-0188,2021-10-31,03:06:42,04:52:43,NA,incomplete,false,true,NA,NA,4,2,NA,brown,m_s_081.jpg,NA,NA,NA,NA,NA,unpleasant,pleasant,NA,NA,NA,NA,NA,right,1630,true,NA,NA,NA,NA,NA,NA,NA,NA
CONv8KhQ,3z33ic0jd3zsmh7cb6nqm2m9m84v9l,39asuflu61k38m1iay9wrlgxxsyex6,CONv8KhQ,2020-0188,2021-10-31,03:06:42,04:52:43,NA,incomplete,false,true,NA,NA,4,3,NA,brown,n_l_048.jpg,NA,NA,NA,NA,NA,pleasant,unpleasant,NA,NA,NA,NA,NA,right,1800,true,NA,NA,NA,NA,NA,NA,NA,NA
CONv8KhQ,3z33ic0jd3zsmh7cb6nqm2m9m84v9l,39asuflu61k38m1iay9wrlgxxsyex6,CONv8KhQ,2020-0188,2021-10-31,03:06:42,04:52:43,NA,incomplete,false,true,NA,NA,4,4,NA,brown,m_l_018.jpg,NA,NA,NA,NA,NA,unpleasant,pleasant,NA,NA,NA,NA,NA,left,2692,true,NA,NA,NA,NA,NA,NA,NA,NA
CONv8KhQ,3z33ic0jd3zsmh7cb6nqm2m9m84v9l,39asuflu61k38m1iay9wrlgxxsyex6,CONv8KhQ,2020-0188,2021-10-31,03:06:42,04:52:43,NA,incomplete,false,true,NA,NA,4,5,NA,brown,m_s_094.jpg,NA,NA,NA,NA,NA,pleasant,unpleasant,NA,NA,NA,NA,NA,right,1907,true,NA,NA,NA,NA,NA,NA,NA,NA
CONv8KhQ,3z33ic0jd3zsmh7cb6nqm2m9m84v9l,39asuflu61k38m1iay9wrlgxxsyex6,CONv8KhQ,2020-0188,2021-10-31,03:06:42,04:52:43,NA,incomplete,false,true,NA,NA,4,6,NA,purple,n_l_080.jpg,NA,NA,NA,NA,NA,pleasant,unpleasant,NA,NA,NA,NA,NA,left,1435,true,NA,NA,NA,NA,NA,NA,NA,NA
CONv8KhQ,3z33ic0jd3zsmh7cb6nqm2m9m84v9l,39asuflu61k38m1iay9wrlgxxsyex6,CONv8KhQ,2020-0188,2021-10-31,03:06:42,04:52:43,NA,incomplete,false,true,NA,NA,4,7,NA,purple,n_l_078.jpg,NA,NA,NA,NA,NA,unpleasant,pleasant,NA,NA,NA,NA,NA,right,1671,true,NA,NA,NA,NA,NA,NA,NA,NA
CONv8KhQ,3z33ic0jd3zsmh7cb6nqm2m9m84v9l,39asuflu61k38m1iay9wrlgxxsyex6,CONv8KhQ,2020-0188,2021-10-31,03:06:42,04:52:43,NA,incomplete,false,true,NA,NA,4,8,NA,purple,m_s_038.jpg,NA,NA,NA,NA,NA,pleasant,unpleasant,NA,NA,NA,NA,NA,left,1888,true,NA,NA,NA,NA,NA,NA,NA,NA
CONv8KhQ,3z33ic0jd3zsmh7cb6nqm2m9m84v9l,39asuflu61k38m1iay9wrlgxxsyex6,CONv8KhQ,2020-0188,2021-10-31,03:06:42,04:52:43,NA,incomplete,false,true,NA,NA,4,9,NA,purple,n_s_065.jpg,NA,NA,NA,NA,NA,unpleasant,pleasant,NA,NA,NA,NA,NA,right,1959,true,NA,NA,NA,NA,NA,NA,NA,NA
CONv8KhQ,3z33ic0jd3zsmh7cb6nqm2m9m84v9l,39asuflu61k38m1iay9wrlgxxsyex6,CONv8KhQ,2020-0188,2021-10-31,03:06:42,04:52:43,NA,incomplete,false,true,NA,NA,4,10,NA,purple,n_s_062.jpg,NA,NA,NA,NA,NA,unpleasant,pleasant,NA,NA,NA,NA,NA,right,1112,true,NA,NA,NA,NA,NA,NA,NA,NA
CONv8KhQ,3z33ic0jd3zsmh7cb6nqm2m9m84v9l,39asuflu61k38m1iay9wrlgxxsyex6,CONv8KhQ,2020-0188,2021-10-31,03:06:42,04:52:43,NA,incomplete,false,true,NA,NA,4,11,NA,purple,n_s_045.jpg,NA,NA,NA,NA,NA,pleasant,unpleasant,NA,NA,NA,NA,NA,left,1924,true,NA,NA,NA,NA,NA,NA,NA,NA
CONv8KhQ,3z33ic0jd3zsmh7cb6nqm2m9m84v9l,39asuflu61k38m1iay9wrlgxxsyex6,CONv8KhQ,2020-0188,2021-10-31,03:06:42,04:52:43,NA,incomplete,false,true,NA,NA,4,12,NA,orange,m_l_085.jpg,NA,NA,NA,NA,NA,unpleasant,pleasant,NA,NA,NA,NA,NA,right,3217,true,NA,NA,NA,NA,NA,NA,NA,NA
CONv8KhQ,3z33ic0jd3zsmh7cb6nqm2m9m84v9l,39asuflu61k38m1iay9wrlgxxsyex6,CONv8KhQ,2020-0188,2021-10-31,03:06:42,04:52:43,NA,incomplete,false,true,NA,NA,4,13,NA,orange,m_s_068.jpg,NA,NA,NA,NA,NA,pleasant,unpleasant,NA,NA,NA,NA,NA,left,1795,true,NA,NA,NA,NA,NA,NA,NA,NA
CONv8KhQ,3z33ic0jd3zsmh7cb6nqm2m9m84v9l,39asuflu61k38m1iay9wrlgxxsyex6,CONv8KhQ,2020-0188,2021-10-31,03:06:42,04:52:43,NA,incomplete,false,true,NA,NA,4,14,NA,orange,n_s_041.jpg,NA,NA,NA,NA,NA,unpleasant,pleasant,NA,NA,NA,NA,NA,right,1278,true,NA,NA,NA,NA,NA,NA,NA,NA
CONv8KhQ,3z33ic0jd3zsmh7cb6nqm2m9m84v9l,39asuflu61k38m1iay9wrlgxxsyex6,CONv8KhQ,2020-0188,2021-10-31,03:06:42,04:52:43,NA,incomplete,false,true,NA,NA,4,15,NA,orange,n_l_034.jpg,NA,NA,NA,NA,NA,unpleasant,pleasant,NA,NA,NA,NA,NA,right,2300,true,NA,NA,NA,NA,NA,NA,NA,NA
CONv8KhQ,3z33ic0jd3zsmh7cb6nqm2m9m84v9l,39asuflu61k38m1iay9wrlgxxsyex6,CONv8KhQ,2020-0188,2021-10-31,03:06:42,04:52:43,NA,incomplete,false,true,NA,NA,4,16,NA,orange,m_s_077.jpg,NA,NA,NA,NA,NA,unpleasant,pleasant,NA,NA,NA,NA,NA,right,1316,true,NA,NA,NA,NA,NA,NA,NA,NA
CONv8KhQ,3z33ic0jd3zsmh7cb6nqm2m9m84v9l,39asuflu61k38m1iay9wrlgxxsyex6,CONv8KhQ,2020-0188,2021-10-31,03:06:42,04:52:43,NA,incomplete,false,true,NA,NA,4,17,NA,orange,m_s_010.jpg,NA,NA,NA,NA,NA,pleasant,unpleasant,NA,NA,NA,NA,NA,left,1790,true,NA,NA,NA,NA,NA,NA,NA,NA
CONv8KhQ,3z33ic0jd3zsmh7cb6nqm2m9m84v9l,39asuflu61k38m1iay9wrlgxxsyex6,CONv8KhQ,2020-0188,2021-10-31,03:06:42,04:52:43,NA,incomplete,false,true,NA,NA,4,18,NA,white,m_l_079.jpg,NA,NA,NA,NA,NA,unpleasant,pleasant,NA,NA,NA,NA,NA,right,1648,true,NA,NA,NA,NA,NA,NA,NA,NA
CONv8KhQ,3z33ic0jd3zsmh7cb6nqm2m9m84v9l,39asuflu61k38m1iay9wrlgxxsyex6,CONv8KhQ,2020-0188,2021-10-31,03:06:42,04:52:43,NA,incomplete,false,true,NA,NA,4,19,NA,white,m_l_031.jpg,NA,NA,NA,NA,NA,pleasant,unpleasant,NA,NA,NA,NA,NA,left,1679,true,NA,NA,NA,NA,NA,NA,NA,NA
CONv8KhQ,3z33ic0jd3zsmh7cb6nqm2m9m84v9l,39asuflu61k38m1iay9wrlgxxsyex6,CONv8KhQ,2020-0188,2021-10-31,03:06:42,04:52:43,NA,incomplete,false,true,NA,NA,4,20,NA,white,n_l_108.jpg,NA,NA,NA,NA,NA,pleasant,unpleasant,NA,NA,NA,NA,NA,left,1509,true,NA,NA,NA,NA,NA,NA,NA,NA
CONv8KhQ,3z33ic0jd3zsmh7cb6nqm2m9m84v9l,39asuflu61k38m1iay9wrlgxxsyex6,CONv8KhQ,2020-0188,2021-10-31,03:06:42,04:52:43,NA,incomplete,false,true,NA,NA,4,21,NA,white,n_l_030.jpg,NA,NA,NA,NA,NA,unpleasant,pleasant,NA,NA,NA,NA,NA,right,2111,true,NA,NA,NA,NA,NA,NA,NA,NA
CONv8KhQ,3z33ic0jd3zsmh7cb6nqm2m9m84v9l,39asuflu61k38m1iay9wrlgxxsyex6,CONv8KhQ,2020-0188,2021-10-31,03:06:42,04:52:43,NA,incomplete,false,true,NA,NA,4,22,NA,white,m_l_030.jpg,NA,NA,NA,NA,NA,unpleasant,pleasant,NA,NA,NA,NA,NA,right,1904,true,NA,NA,NA,NA,NA,NA,NA,NA
CONv8KhQ,3z33ic0jd3zsmh7cb6nqm2m9m84v9l,39asuflu61k38m1iay9wrlgxxsyex6,CONv8KhQ,2020-0188,2021-10-31,03:06:42,04:52:43,NA,incomplete,false,true,NA,NA,4,23,NA,white,n_l_092.jpg,NA,NA,NA,NA,NA,pleasant,unpleasant,NA,NA,NA,NA,NA,left,1821,true,NA,NA,NA,NA,NA,NA,NA,NA
CONv8KhQ,3z33ic0jd3zsmh7cb6nqm2m9m84v9l,39asuflu61k38m1iay9wrlgxxsyex6,CONv8KhQ,2020-0188,2021-10-31,03:06:42,04:52:43,NA,incomplete,false,true,NA,NA,4,24,NA,green,n_s_112.jpg,NA,NA,NA,NA,NA,unpleasant,pleasant,NA,NA,NA,NA,NA,right,1646,true,NA,NA,NA,NA,NA,NA,NA,NA
CONv8KhQ,3z33ic0jd3zsmh7cb6nqm2m9m84v9l,39asuflu61k38m1iay9wrlgxxsyex6,CONv8KhQ,2020-0188,2021-10-31,03:06:42,04:52:43,NA,incomplete,false,true,NA,NA,4,25,NA,green,m_l_059.jpg,NA,NA,NA,NA,NA,pleasant,unpleasant,NA,NA,NA,NA,NA,left,1403,true,NA,NA,NA,NA,NA,NA,NA,NA
CONv8KhQ,3z33ic0jd3zsmh7cb6nqm2m9m84v9l,39asuflu61k38m1iay9wrlgxxsyex6,CONv8KhQ,2020-0188,2021-10-31,03:06:42,04:52:43,NA,incomplete,false,true,NA,NA,4,26,NA,green,m_l_056.jpg,NA,NA,NA,NA,NA,pleasant,unpleasant,NA,NA,NA,NA,NA,left,1527,true,NA,NA,NA,NA,NA,NA,NA,NA
CONv8KhQ,3z33ic0jd3zsmh7cb6nqm2m9m84v9l,39asuflu61k38m1iay9wrlgxxsyex6,CONv8KhQ,2020-0188,2021-10-31,03:06:42,04:52:43,NA,incomplete,false,true,NA,NA,4,27,NA,green,m_l_061.jpg,NA,NA,NA,NA,NA,unpleasant,pleasant,NA,NA,NA,NA,NA,right,2460,true,NA,NA,NA,NA,NA,NA,NA,NA
CONv8KhQ,3z33ic0jd3zsmh7cb6nqm2m9m84v9l,39asuflu61k38m1iay9wrlgxxsyex6,CONv8KhQ,2020-0188,2021-10-31,03:06:42,04:52:43,NA,incomplete,false,true,NA,NA,4,28,NA,green,m_s_012.jpg,NA,NA,NA,NA,NA,unpleasant,pleasant,NA,NA,NA,NA,NA,right,1884,true,NA,NA,NA,NA,NA,NA,NA,NA
CONv8KhQ,3z33ic0jd3zsmh7cb6nqm2m9m84v9l,39asuflu61k38m1iay9wrlgxxsyex6,CONv8KhQ,2020-0188,2021-10-31,03:06:42,04:52:43,NA,incomplete,false,true,NA,NA,4,29,NA,green,n_s_106.jpg,NA,NA,NA,NA,NA,pleasant,unpleasant,NA,NA,NA,NA,NA,left,1281,true,NA,NA,NA,NA,NA,NA,NA,NA
CONv8KhQ,3z33ic0jd3zsmh7cb6nqm2m9m84v9l,39asuflu61k38m1iay9wrlgxxsyex6,CONv8KhQ,2020-0188,2021-10-31,03:06:42,04:52:43,NA,incomplete,false,true,NA,NA,4,30,NA,red,n_s_076.jpg,NA,NA,NA,NA,NA,pleasant,unpleasant,NA,NA,NA,NA,NA,left,1634,true,NA,NA,NA,NA,NA,NA,NA,NA
CONv8KhQ,3z33ic0jd3zsmh7cb6nqm2m9m84v9l,39asuflu61k38m1iay9wrlgxxsyex6,CONv8KhQ,2020-0188,2021-10-31,03:06:42,04:52:43,NA,incomplete,false,true,NA,NA,4,31,NA,red,n_l_042.jpg,NA,NA,NA,NA,NA,pleasant,unpleasant,NA,NA,NA,NA,NA,left,1308,true,NA,NA,NA,NA,NA,NA,NA,NA
CONv8KhQ,3z33ic0jd3zsmh7cb6nqm2m9m84v9l,39asuflu61k38m1iay9wrlgxxsyex6,CONv8KhQ,2020-0188,2021-10-31,03:06:42,04:52:43,NA,incomplete,false,true,NA,NA,4,32,NA,red,n_s_072.jpg,NA,NA,NA,NA,NA,unpleasant,pleasant,NA,NA,NA,NA,NA,right,1392,true,NA,NA,NA,NA,NA,NA,NA,NA
CONv8KhQ,3z33ic0jd3zsmh7cb6nqm2m9m84v9l,39asuflu61k38m1iay9wrlgxxsyex6,CONv8KhQ,2020-0188,2021-10-31,03:06:42,04:52:43,NA,incomplete,false,true,NA,NA,4,33,NA,red,n_s_105.jpg,NA,NA,NA,NA,NA,pleasant,unpleasant,NA,NA,NA,NA,NA,left,1493,true,NA,NA,NA,NA,NA,NA,NA,NA
CONv8KhQ,3z33ic0jd3zsmh7cb6nqm2m9m84v9l,39asuflu61k38m1iay9wrlgxxsyex6,CONv8KhQ,2020-0188,2021-10-31,03:06:42,04:52:43,NA,incomplete,false,true,NA,NA,4,34,NA,red,n_s_081.jpg,NA,NA,NA,NA,NA,pleasant,unpleasant,NA,NA,NA,NA,NA,left,1787,true,NA,NA,NA,NA,NA,NA,NA,NA
CONv8KhQ,3z33ic0jd3zsmh7cb6nqm2m9m84v9l,39asuflu61k38m1iay9wrlgxxsyex6,CONv8KhQ,2020-0188,2021-10-31,03:06:42,04:52:43,NA,incomplete,false,true,NA,NA,4,35,NA,red,m_s_023.jpg,NA,NA,NA,NA,NA,pleasant,unpleasant,NA,NA,NA,NA,NA,left,1874,true,NA,NA,NA,NA,NA,NA,NA,NA
CONv8KhQ,3z33ic0jd3zsmh7cb6nqm2m9m84v9l,39asuflu61k38m1iay9wrlgxxsyex6,CONv8KhQ,2020-0188,2021-10-31,03:06:42,04:52:43,NA,incomplete,false,NA,NA,true,4,0,NA,NA,NA,right,m_s_068.jpg,white,orange,NA,NA,NA,NA,NA,NA,NA,NA,NA,NaN,NA,5420,right,1,NA,NA,NA,NA,NA
CONv8KhQ,3z33ic0jd3zsmh7cb6nqm2m9m84v9l,39asuflu61k38m1iay9wrlgxxsyex6,CONv8KhQ,2020-0188,2021-10-31,03:06:42,04:52:43,NA,incomplete,false,NA,NA,true,4,1,NA,NA,NA,left,m_s_094.jpg,brown,purple,NA,NA,NA,NA,NA,NA,NA,NA,NA,NaN,NA,1631,right,0,NA,NA,NA,NA,NA
CONv8KhQ,3z33ic0jd3zsmh7cb6nqm2m9m84v9l,39asuflu61k38m1iay9wrlgxxsyex6,CONv8KhQ,2020-0188,2021-10-31,03:06:42,04:52:43,NA,incomplete,false,NA,NA,true,4,2,NA,NA,NA,left,m_l_018.jpg,brown,purple,NA,NA,NA,NA,NA,NA,NA,NA,NA,NaN,NA,1516,right,0,NA,NA,NA,NA,NA
CONv8KhQ,3z33ic0jd3zsmh7cb6nqm2m9m84v9l,39asuflu61k38m1iay9wrlgxxsyex6,CONv8KhQ,2020-0188,2021-10-31,03:06:42,04:52:43,NA,incomplete,false,NA,NA,true,4,3,NA,NA,NA,right,n_s_072.jpg,green,red,NA,NA,NA,NA,NA,NA,NA,NA,NA,NaN,NA,1788,right,1,NA,NA,NA,NA,NA
CONv8KhQ,3z33ic0jd3zsmh7cb6nqm2m9m84v9l,39asuflu61k38m1iay9wrlgxxsyex6,CONv8KhQ,2020-0188,2021-10-31,03:06:42,04:52:43,NA,incomplete,false,NA,NA,true,4,4,NA,NA,NA,right,m_l_030.jpg,green,white,NA,NA,NA,NA,NA,NA,NA,NA,NA,NaN,NA,2126,right,1,NA,NA,NA,NA,NA
CONv8KhQ,3z33ic0jd3zsmh7cb6nqm2m9m84v9l,39asuflu61k38m1iay9wrlgxxsyex6,CONv8KhQ,2020-0188,2021-10-31,03:06:42,04:52:43,NA,incomplete,false,NA,NA,true,4,5,NA,NA,NA,right,n_l_078.jpg,brown,purple,NA,NA,NA,NA,NA,NA,NA,NA,NA,NaN,NA,2115,right,1,NA,NA,NA,NA,NA
CONv8KhQ,3z33ic0jd3zsmh7cb6nqm2m9m84v9l,39asuflu61k38m1iay9wrlgxxsyex6,CONv8KhQ,2020-0188,2021-10-31,03:06:42,04:52:43,NA,incomplete,false,NA,NA,true,4,6,NA,NA,NA,right,n_l_092.jpg,orange,white,NA,NA,NA,NA,NA,NA,NA,NA,NA,NaN,NA,2411,right,1,NA,NA,NA,NA,NA
CONv8KhQ,3z33ic0jd3zsmh7cb6nqm2m9m84v9l,39asuflu61k38m1iay9wrlgxxsyex6,CONv8KhQ,2020-0188,2021-10-31,03:06:42,04:52:43,NA,incomplete,false,NA,NA,true,4,7,NA,NA,NA,right,m_s_077.jpg,white,orange,NA,NA,NA,NA,NA,NA,NA,NA,NA,NaN,NA,1786,right,1,NA,NA,NA,NA,NA
CONv8KhQ,3z33ic0jd3zsmh7cb6nqm2m9m84v9l,39asuflu61k38m1iay9wrlgxxsyex6,CONv8KhQ,2020-0188,2021-10-31,03:06:42,04:52:43,NA,incomplete,false,NA,NA,true,4,8,NA,NA,NA,left,n_l_108.jpg,white,orange,NA,NA,NA,NA,NA,NA,NA,NA,NA,NaN,NA,1874,right,0,NA,NA,NA,NA,NA
CONv8KhQ,3z33ic0jd3zsmh7cb6nqm2m9m84v9l,39asuflu61k38m1iay9wrlgxxsyex6,CONv8KhQ,2020-0188,2021-10-31,03:06:42,04:52:43,NA,incomplete,false,NA,NA,true,4,9,NA,NA,NA,right,m_s_010.jpg,white,orange,NA,NA,NA,NA,NA,NA,NA,NA,NA,NaN,NA,1657,right,1,NA,NA,NA,NA,NA
CONv8KhQ,3z33ic0jd3zsmh7cb6nqm2m9m84v9l,39asuflu61k38m1iay9wrlgxxsyex6,CONv8KhQ,2020-0188,2021-10-31,03:06:42,04:52:43,NA,incomplete,false,NA,NA,true,4,10,NA,NA,NA,right,n_s_045.jpg,orange,purple,NA,NA,NA,NA,NA,NA,NA,NA,NA,NaN,NA,1810,right,1,NA,NA,NA,NA,NA
CONv8KhQ,3z33ic0jd3zsmh7cb6nqm2m9m84v9l,39asuflu61k38m1iay9wrlgxxsyex6,CONv8KhQ,2020-0188,2021-10-31,03:06:42,04:52:43,NA,incomplete,false,NA,NA,true,4,11,NA,NA,NA,right,n_s_106.jpg,white,green,NA,NA,NA,NA,NA,NA,NA,NA,NA,NaN,NA,1770,right,1,NA,NA,NA,NA,NA
CONv8KhQ,3z33ic0jd3zsmh7cb6nqm2m9m84v9l,39asuflu61k38m1iay9wrlgxxsyex6,CONv8KhQ,2020-0188,2021-10-31,03:06:42,04:52:43,NA,incomplete,false,NA,NA,true,4,12,NA,NA,NA,left,m_l_056.jpg,green,red,NA,NA,NA,NA,NA,NA,NA,NA,NA,NaN,NA,3182,right,0,NA,NA,NA,NA,NA
CONv8KhQ,3z33ic0jd3zsmh7cb6nqm2m9m84v9l,39asuflu61k38m1iay9wrlgxxsyex6,CONv8KhQ,2020-0188,2021-10-31,03:06:42,04:52:43,NA,incomplete,false,NA,NA,true,4,13,NA,NA,NA,right,n_s_041.jpg,white,orange,NA,NA,NA,NA,NA,NA,NA,NA,NA,NaN,NA,2829,left,0,NA,NA,NA,NA,NA
CONv8KhQ,3z33ic0jd3zsmh7cb6nqm2m9m84v9l,39asuflu61k38m1iay9wrlgxxsyex6,CONv8KhQ,2020-0188,2021-10-31,03:06:42,04:52:43,NA,incomplete,false,NA,NA,true,4,14,NA,NA,NA,right,m_l_108.jpg,purple,brown,NA,NA,NA,NA,NA,NA,NA,NA,NA,NaN,NA,1661,right,1,NA,NA,NA,NA,NA
CONv8KhQ,3z33ic0jd3zsmh7cb6nqm2m9m84v9l,39asuflu61k38m1iay9wrlgxxsyex6,CONv8KhQ,2020-0188,2021-10-31,03:06:42,04:52:43,NA,incomplete,false,NA,NA,true,4,15,NA,NA,NA,right,n_s_062.jpg,orange,purple,NA,NA,NA,NA,NA,NA,NA,NA,NA,NaN,NA,1551,right,1,NA,NA,NA,NA,NA
CONv8KhQ,3z33ic0jd3zsmh7cb6nqm2m9m84v9l,39asuflu61k38m1iay9wrlgxxsyex6,CONv8KhQ,2020-0188,2021-10-31,03:06:42,04:52:43,NA,incomplete,false,NA,NA,true,4,16,NA,NA,NA,right,m_s_012.jpg,red,green,NA,NA,NA,NA,NA,NA,NA,NA,NA,NaN,NA,1603,right,1,NA,NA,NA,NA,NA
CONv8KhQ,3z33ic0jd3zsmh7cb6nqm2m9m84v9l,39asuflu61k38m1iay9wrlgxxsyex6,CONv8KhQ,2020-0188,2021-10-31,03:06:42,04:52:43,NA,incomplete,false,NA,NA,true,4,17,NA,NA,NA,right,m_l_059.jpg,red,green,NA,NA,NA,NA,NA,NA,NA,NA,NA,NaN,NA,2030,right,1,NA,NA,NA,NA,NA
CONv8KhQ,3z33ic0jd3zsmh7cb6nqm2m9m84v9l,39asuflu61k38m1iay9wrlgxxsyex6,CONv8KhQ,2020-0188,2021-10-31,03:06:42,04:52:43,NA,incomplete,false,NA,NA,true,4,18,NA,NA,NA,right,m_l_031.jpg,green,white,NA,NA,NA,NA,NA,NA,NA,NA,NA,NaN,NA,4432,right,1,NA,NA,NA,NA,NA
CONv8KhQ,3z33ic0jd3zsmh7cb6nqm2m9m84v9l,39asuflu61k38m1iay9wrlgxxsyex6,CONv8KhQ,2020-0188,2021-10-31,03:06:42,04:52:43,NA,incomplete,false,NA,NA,true,4,19,NA,NA,NA,left,m_s_023.jpg,red,green,NA,NA,NA,NA,NA,NA,NA,NA,NA,NaN,NA,2968,right,0,NA,NA,NA,NA,NA
CONv8KhQ,3z33ic0jd3zsmh7cb6nqm2m9m84v9l,39asuflu61k38m1iay9wrlgxxsyex6,CONv8KhQ,2020-0188,2021-10-31,03:06:42,04:52:43,NA,incomplete,false,NA,NA,true,4,20,NA,NA,NA,right,m_s_038.jpg,brown,purple,NA,NA,NA,NA,NA,NA,NA,NA,NA,NaN,NA,2040,right,1,NA,NA,NA,NA,NA
CONv8KhQ,3z33ic0jd3zsmh7cb6nqm2m9m84v9l,39asuflu61k38m1iay9wrlgxxsyex6,CONv8KhQ,2020-0188,2021-10-31,03:06:42,04:52:43,NA,incomplete,false,NA,NA,true,4,21,NA,NA,NA,left,n_l_042.jpg,red,green,NA,NA,NA,NA,NA,NA,NA,NA,NA,NaN,NA,2539,right,0,NA,NA,NA,NA,NA
CONv8KhQ,3z33ic0jd3zsmh7cb6nqm2m9m84v9l,39asuflu61k38m1iay9wrlgxxsyex6,CONv8KhQ,2020-0188,2021-10-31,03:06:42,04:52:43,NA,incomplete,false,NA,true,NA,4,0,NA,NA,NA,left,NA,NA,NA,present,NA,NA,m_s_012.jpg,green,n_s_072.jpg,red,between,NA,NaN,NA,NA,NA,NA,right,2718,0,3,1812
CONv8KhQ,3z33ic0jd3zsmh7cb6nqm2m9m84v9l,39asuflu61k38m1iay9wrlgxxsyex6,CONv8KhQ,2020-0188,2021-10-31,03:06:42,04:52:43,NA,incomplete,false,NA,true,NA,4,1,NA,NA,NA,right,NA,NA,NA,present,NA,NA,n_s_045.jpg,purple,n_l_078.jpg,purple,within,NA,NaN,NA,NA,NA,NA,right,4777,1,2,1843
CONv8KhQ,3z33ic0jd3zsmh7cb6nqm2m9m84v9l,39asuflu61k38m1iay9wrlgxxsyex6,CONv8KhQ,2020-0188,2021-10-31,03:06:42,04:52:43,NA,incomplete,false,NA,true,NA,4,2,NA,NA,NA,right,NA,NA,NA,present,NA,NA,n_s_041.jpg,orange,n_s_062.jpg,purple,between,NA,NaN,NA,NA,NA,NA,right,2182,1,1,2267
CONv8KhQ,3z33ic0jd3zsmh7cb6nqm2m9m84v9l,39asuflu61k38m1iay9wrlgxxsyex6,CONv8KhQ,2020-0188,2021-10-31,03:06:42,04:52:43,NA,incomplete,false,NA,true,NA,4,3,NA,NA,NA,left,NA,NA,NA,present,NA,NA,n_l_042.jpg,red,m_s_023.jpg,red,within,NA,NaN,NA,NA,NA,NA,right,2175,0,2,1385
CONv8KhQ,3z33ic0jd3zsmh7cb6nqm2m9m84v9l,39asuflu61k38m1iay9wrlgxxsyex6,CONv8KhQ,2020-0188,2021-10-31,03:06:42,04:52:43,NA,incomplete,false,NA,true,NA,4,4,NA,NA,NA,left,NA,NA,NA,present,NA,NA,m_l_108.jpg,brown,m_s_094.jpg,brown,within,NA,NaN,NA,NA,NA,NA,right,2549,0,1,2295
CONv8KhQ,3z33ic0jd3zsmh7cb6nqm2m9m84v9l,39asuflu61k38m1iay9wrlgxxsyex6,CONv8KhQ,2020-0188,2021-10-31,03:06:42,04:52:43,NA,incomplete,false,NA,true,NA,4,5,NA,NA,NA,right,NA,NA,NA,present,NA,NA,n_l_092.jpg,white,m_l_031.jpg,white,within,NA,NaN,NA,NA,NA,NA,left,2377,0,3,2235
CONv8KhQ,3z33ic0jd3zsmh7cb6nqm2m9m84v9l,39asuflu61k38m1iay9wrlgxxsyex6,CONv8KhQ,2020-0188,2021-10-31,03:06:42,04:52:43,NA,incomplete,false,NA,true,NA,4,6,NA,NA,NA,right,NA,NA,NA,present,NA,NA,n_s_106.jpg,green,m_l_059.jpg,green,within,NA,NaN,NA,NA,NA,NA,right,2890,1,2,2358
CONv8KhQ,3z33ic0jd3zsmh7cb6nqm2m9m84v9l,39asuflu61k38m1iay9wrlgxxsyex6,CONv8KhQ,2020-0188,2021-10-31,03:06:42,04:52:43,NA,incomplete,false,NA,true,NA,4,7,NA,NA,NA,left,NA,NA,NA,present,NA,NA,m_s_068.jpg,orange,m_s_010.jpg,orange,within,NA,NaN,NA,NA,NA,NA,right,2197,0,1,1955
CONv8KhQ,3z33ic0jd3zsmh7cb6nqm2m9m84v9l,39asuflu61k38m1iay9wrlgxxsyex6,CONv8KhQ,2020-0188,2021-10-31,03:06:42,04:52:43,NA,incomplete,false,NA,true,NA,4,8,NA,NA,NA,right,NA,NA,NA,present,NA,NA,n_l_108.jpg,white,m_s_077.jpg,orange,between,NA,NaN,NA,NA,NA,NA,right,2602,1,1,1724
CONv8KhQ,3z33ic0jd3zsmh7cb6nqm2m9m84v9l,39asuflu61k38m1iay9wrlgxxsyex6,CONv8KhQ,2020-0188,2021-10-31,03:06:42,04:52:43,NA,incomplete,false,NA,true,NA,4,9,NA,NA,NA,right,NA,NA,NA,present,NA,NA,m_l_056.jpg,green,m_l_030.jpg,white,between,NA,NaN,NA,NA,NA,NA,right,3408,1,1,2065
CONv8KhQ,3z33ic0jd3zsmh7cb6nqm2m9m84v9l,39asuflu61k38m1iay9wrlgxxsyex6,CONv8KhQ,2020-0188,2021-10-31,03:06:42,04:52:43,NA,incomplete,false,NA,true,NA,4,10,NA,NA,NA,right,NA,NA,NA,present,NA,NA,m_s_038.jpg,purple,m_l_018.jpg,brown,between,NA,NaN,NA,NA,NA,NA,right,2634,1,3,2157
CONv8KhQ,3z33ic0jd3zsmh7cb6nqm2m9m84v9l,39asuflu61k38m1iay9wrlgxxsyex6,CONv8KhQ,2020-0188,2021-10-31,03:06:42,04:52:43,NA,incomplete,false,true,NA,NA,5,0,NA,white,n_s_063.jpg,NA,NA,NA,NA,NA,unpleasant,pleasant,NA,NA,NA,NA,NA,none,0,false,NA,NA,NA,NA,NA,NA,NA,NA
CONv8KhQ,3z33ic0jd3zsmh7cb6nqm2m9m84v9l,39asuflu61k38m1iay9wrlgxxsyex6,CONv8KhQ,2020-0188,2021-10-31,03:06:42,04:52:43,NA,incomplete,false,true,NA,NA,5,1,NA,white,n_s_023.jpg,NA,NA,NA,NA,NA,pleasant,unpleasant,NA,NA,NA,NA,NA,left,1952,true,NA,NA,NA,NA,NA,NA,NA,NA
CONv8KhQ,3z33ic0jd3zsmh7cb6nqm2m9m84v9l,39asuflu61k38m1iay9wrlgxxsyex6,CONv8KhQ,2020-0188,2021-10-31,03:06:42,04:52:43,NA,incomplete,false,true,NA,NA,5,2,NA,white,n_s_004.jpg,NA,NA,NA,NA,NA,unpleasant,pleasant,NA,NA,NA,NA,NA,none,0,false,NA,NA,NA,NA,NA,NA,NA,NA
CONv8KhQ,3z33ic0jd3zsmh7cb6nqm2m9m84v9l,39asuflu61k38m1iay9wrlgxxsyex6,CONv8KhQ,2020-0188,2021-10-31,03:06:42,04:52:43,NA,incomplete,false,true,NA,NA,5,3,NA,white,m_s_111.jpg,NA,NA,NA,NA,NA,unpleasant,pleasant,NA,NA,NA,NA,NA,left,2189,true,NA,NA,NA,NA,NA,NA,NA,NA
CONv8KhQ,3z33ic0jd3zsmh7cb6nqm2m9m84v9l,39asuflu61k38m1iay9wrlgxxsyex6,CONv8KhQ,2020-0188,2021-10-31,03:06:42,04:52:43,NA,incomplete,false,true,NA,NA,5,4,NA,white,m_s_019.jpg,NA,NA,NA,NA,NA,unpleasant,pleasant,NA,NA,NA,NA,NA,left,1584,true,NA,NA,NA,NA,NA,NA,NA,NA
CONv8KhQ,3z33ic0jd3zsmh7cb6nqm2m9m84v9l,39asuflu61k38m1iay9wrlgxxsyex6,CONv8KhQ,2020-0188,2021-10-31,03:06:42,04:52:43,NA,incomplete,false,true,NA,NA,5,5,NA,white,m_s_043.jpg,NA,NA,NA,NA,NA,unpleasant,pleasant,NA,NA,NA,NA,NA,left,3017,true,NA,NA,NA,NA,NA,NA,NA,NA
CONv8KhQ,3z33ic0jd3zsmh7cb6nqm2m9m84v9l,39asuflu61k38m1iay9wrlgxxsyex6,CONv8KhQ,2020-0188,2021-10-31,03:06:42,04:52:43,NA,incomplete,false,true,NA,NA,5,6,NA,orange,n_l_052.jpg,NA,NA,NA,NA,NA,unpleasant,pleasant,NA,NA,NA,NA,NA,right,1210,true,NA,NA,NA,NA,NA,NA,NA,NA
CONv8KhQ,3z33ic0jd3zsmh7cb6nqm2m9m84v9l,39asuflu61k38m1iay9wrlgxxsyex6,CONv8KhQ,2020-0188,2021-10-31,03:06:42,04:52:43,NA,incomplete,false,true,NA,NA,5,7,NA,orange,n_l_013.jpg,NA,NA,NA,NA,NA,unpleasant,pleasant,NA,NA,NA,NA,NA,left,1599,true,NA,NA,NA,NA,NA,NA,NA,NA
CONv8KhQ,3z33ic0jd3zsmh7cb6nqm2m9m84v9l,39asuflu61k38m1iay9wrlgxxsyex6,CONv8KhQ,2020-0188,2021-10-31,03:06:42,04:52:43,NA,incomplete,false,true,NA,NA,5,8,NA,orange,n_s_102.jpg,NA,NA,NA,NA,NA,pleasant,unpleasant,NA,NA,NA,NA,NA,right,937,true,NA,NA,NA,NA,NA,NA,NA,NA
CONv8KhQ,3z33ic0jd3zsmh7cb6nqm2m9m84v9l,39asuflu61k38m1iay9wrlgxxsyex6,CONv8KhQ,2020-0188,2021-10-31,03:06:42,04:52:43,NA,incomplete,false,true,NA,NA,5,9,NA,orange,n_s_067.jpg,NA,NA,NA,NA,NA,pleasant,unpleasant,NA,NA,NA,NA,NA,left,1071,true,NA,NA,NA,NA,NA,NA,NA,NA
CONv8KhQ,3z33ic0jd3zsmh7cb6nqm2m9m84v9l,39asuflu61k38m1iay9wrlgxxsyex6,CONv8KhQ,2020-0188,2021-10-31,03:06:42,04:52:43,NA,incomplete,false,true,NA,NA,5,10,NA,orange,n_s_002.jpg,NA,NA,NA,NA,NA,unpleasant,pleasant,NA,NA,NA,NA,NA,right,1506,true,NA,NA,NA,NA,NA,NA,NA,NA
CONv8KhQ,3z33ic0jd3zsmh7cb6nqm2m9m84v9l,39asuflu61k38m1iay9wrlgxxsyex6,CONv8KhQ,2020-0188,2021-10-31,03:06:42,04:52:43,NA,incomplete,false,true,NA,NA,5,11,NA,orange,m_l_090.jpg,NA,NA,NA,NA,NA,unpleasant,pleasant,NA,NA,NA,NA,NA,left,1502,true,NA,NA,NA,NA,NA,NA,NA,NA
CONv8KhQ,3z33ic0jd3zsmh7cb6nqm2m9m84v9l,39asuflu61k38m1iay9wrlgxxsyex6,CONv8KhQ,2020-0188,2021-10-31,03:06:42,04:52:43,NA,incomplete,false,true,NA,NA,5,12,NA,yellow,n_l_112.jpg,NA,NA,NA,NA,NA,pleasant,unpleasant,NA,NA,NA,NA,NA,right,1326,true,NA,NA,NA,NA,NA,NA,NA,NA
CONv8KhQ,3z33ic0jd3zsmh7cb6nqm2m9m84v9l,39asuflu61k38m1iay9wrlgxxsyex6,CONv8KhQ,2020-0188,2021-10-31,03:06:42,04:52:43,NA,incomplete,false,true,NA,NA,5,13,NA,yellow,n_l_046.jpg,NA,NA,NA,NA,NA,pleasant,unpleasant,NA,NA,NA,NA,NA,left,1380,true,NA,NA,NA,NA,NA,NA,NA,NA
CONv8KhQ,3z33ic0jd3zsmh7cb6nqm2m9m84v9l,39asuflu61k38m1iay9wrlgxxsyex6,CONv8KhQ,2020-0188,2021-10-31,03:06:42,04:52:43,NA,incomplete,false,true,NA,NA,5,14,NA,yellow,m_s_025.jpg,NA,NA,NA,NA,NA,pleasant,unpleasant,NA,NA,NA,NA,NA,right,2128,true,NA,NA,NA,NA,NA,NA,NA,NA
CONv8KhQ,3z33ic0jd3zsmh7cb6nqm2m9m84v9l,39asuflu61k38m1iay9wrlgxxsyex6,CONv8KhQ,2020-0188,2021-10-31,03:06:42,04:52:43,NA,incomplete,false,true,NA,NA,5,15,NA,yellow,m_s_090.jpg,NA,NA,NA,NA,NA,pleasant,unpleasant,NA,NA,NA,NA,NA,left,2650,true,NA,NA,NA,NA,NA,NA,NA,NA
CONv8KhQ,3z33ic0jd3zsmh7cb6nqm2m9m84v9l,39asuflu61k38m1iay9wrlgxxsyex6,CONv8KhQ,2020-0188,2021-10-31,03:06:42,04:52:43,NA,incomplete,false,true,NA,NA,5,16,NA,yellow,n_l_073.jpg,NA,NA,NA,NA,NA,unpleasant,pleasant,NA,NA,NA,NA,NA,right,2207,true,NA,NA,NA,NA,NA,NA,NA,NA
CONv8KhQ,3z33ic0jd3zsmh7cb6nqm2m9m84v9l,39asuflu61k38m1iay9wrlgxxsyex6,CONv8KhQ,2020-0188,2021-10-31,03:06:42,04:52:43,NA,incomplete,false,true,NA,NA,5,17,NA,yellow,m_l_025.jpg,NA,NA,NA,NA,NA,pleasant,unpleasant,NA,NA,NA,NA,NA,left,1371,true,NA,NA,NA,NA,NA,NA,NA,NA
CONv8KhQ,3z33ic0jd3zsmh7cb6nqm2m9m84v9l,39asuflu61k38m1iay9wrlgxxsyex6,CONv8KhQ,2020-0188,2021-10-31,03:06:42,04:52:43,NA,incomplete,false,true,NA,NA,5,18,NA,gray,m_s_058.jpg,NA,NA,NA,NA,NA,unpleasant,pleasant,NA,NA,NA,NA,NA,right,1758,true,NA,NA,NA,NA,NA,NA,NA,NA
CONv8KhQ,3z33ic0jd3zsmh7cb6nqm2m9m84v9l,39asuflu61k38m1iay9wrlgxxsyex6,CONv8KhQ,2020-0188,2021-10-31,03:06:42,04:52:43,NA,incomplete,false,true,NA,NA,5,19,NA,gray,m_l_020.jpg,NA,NA,NA,NA,NA,unpleasant,pleasant,NA,NA,NA,NA,NA,right,1355,true,NA,NA,NA,NA,NA,NA,NA,NA
CONv8KhQ,3z33ic0jd3zsmh7cb6nqm2m9m84v9l,39asuflu61k38m1iay9wrlgxxsyex6,CONv8KhQ,2020-0188,2021-10-31,03:06:42,04:52:43,NA,incomplete,false,true,NA,NA,5,20,NA,gray,n_s_036.jpg,NA,NA,NA,NA,NA,pleasant,unpleasant,NA,NA,NA,NA,NA,left,1147,true,NA,NA,NA,NA,NA,NA,NA,NA
CONv8KhQ,3z33ic0jd3zsmh7cb6nqm2m9m84v9l,39asuflu61k38m1iay9wrlgxxsyex6,CONv8KhQ,2020-0188,2021-10-31,03:06:42,04:52:43,NA,incomplete,false,true,NA,NA,5,21,NA,gray,n_l_093.jpg,NA,NA,NA,NA,NA,pleasant,unpleasant,NA,NA,NA,NA,NA,right,2200,true,NA,NA,NA,NA,NA,NA,NA,NA
CONv8KhQ,3z33ic0jd3zsmh7cb6nqm2m9m84v9l,39asuflu61k38m1iay9wrlgxxsyex6,CONv8KhQ,2020-0188,2021-10-31,03:06:42,04:52:43,NA,incomplete,false,true,NA,NA,5,22,NA,gray,n_s_075.jpg,NA,NA,NA,NA,NA,unpleasant,pleasant,NA,NA,NA,NA,NA,left,1597,true,NA,NA,NA,NA,NA,NA,NA,NA
CONv8KhQ,3z33ic0jd3zsmh7cb6nqm2m9m84v9l,39asuflu61k38m1iay9wrlgxxsyex6,CONv8KhQ,2020-0188,2021-10-31,03:06:42,04:52:43,NA,incomplete,false,true,NA,NA,5,23,NA,gray,n_s_083.jpg,NA,NA,NA,NA,NA,pleasant,unpleasant,NA,NA,NA,NA,NA,right,1595,true,NA,NA,NA,NA,NA,NA,NA,NA
CONv8KhQ,3z33ic0jd3zsmh7cb6nqm2m9m84v9l,39asuflu61k38m1iay9wrlgxxsyex6,CONv8KhQ,2020-0188,2021-10-31,03:06:42,04:52:43,NA,incomplete,false,true,NA,NA,5,24,NA,purple,n_s_101.jpg,NA,NA,NA,NA,NA,pleasant,unpleasant,NA,NA,NA,NA,NA,left,1626,true,NA,NA,NA,NA,NA,NA,NA,NA
CONv8KhQ,3z33ic0jd3zsmh7cb6nqm2m9m84v9l,39asuflu61k38m1iay9wrlgxxsyex6,CONv8KhQ,2020-0188,2021-10-31,03:06:42,04:52:43,NA,incomplete,false,true,NA,NA,5,25,NA,purple,n_s_092.jpg,NA,NA,NA,NA,NA,unpleasant,pleasant,NA,NA,NA,NA,NA,left,1284,true,NA,NA,NA,NA,NA,NA,NA,NA
CONv8KhQ,3z33ic0jd3zsmh7cb6nqm2m9m84v9l,39asuflu61k38m1iay9wrlgxxsyex6,CONv8KhQ,2020-0188,2021-10-31,03:06:42,04:52:43,NA,incomplete,false,true,NA,NA,5,26,NA,purple,n_l_059.jpg,NA,NA,NA,NA,NA,unpleasant,pleasant,NA,NA,NA,NA,NA,left,1806,true,NA,NA,NA,NA,NA,NA,NA,NA
CONv8KhQ,3z33ic0jd3zsmh7cb6nqm2m9m84v9l,39asuflu61k38m1iay9wrlgxxsyex6,CONv8KhQ,2020-0188,2021-10-31,03:06:42,04:52:43,NA,incomplete,false,true,NA,NA,5,27,NA,purple,n_s_057.jpg,NA,NA,NA,NA,NA,pleasant,unpleasant,NA,NA,NA,NA,NA,left,1595,true,NA,NA,NA,NA,NA,NA,NA,NA
CONv8KhQ,3z33ic0jd3zsmh7cb6nqm2m9m84v9l,39asuflu61k38m1iay9wrlgxxsyex6,CONv8KhQ,2020-0188,2021-10-31,03:06:42,04:52:43,NA,incomplete,false,true,NA,NA,5,28,NA,purple,m_l_112.jpg,NA,NA,NA,NA,NA,unpleasant,pleasant,NA,NA,NA,NA,NA,left,1501,true,NA,NA,NA,NA,NA,NA,NA,NA
CONv8KhQ,3z33ic0jd3zsmh7cb6nqm2m9m84v9l,39asuflu61k38m1iay9wrlgxxsyex6,CONv8KhQ,2020-0188,2021-10-31,03:06:42,04:52:43,NA,incomplete,false,true,NA,NA,5,29,NA,purple,m_s_046.jpg,NA,NA,NA,NA,NA,unpleasant,pleasant,NA,NA,NA,NA,NA,right,1587,true,NA,NA,NA,NA,NA,NA,NA,NA
CONv8KhQ,3z33ic0jd3zsmh7cb6nqm2m9m84v9l,39asuflu61k38m1iay9wrlgxxsyex6,CONv8KhQ,2020-0188,2021-10-31,03:06:42,04:52:43,NA,incomplete,false,true,NA,NA,5,30,NA,black,n_l_099.jpg,NA,NA,NA,NA,NA,unpleasant,pleasant,NA,NA,NA,NA,NA,right,1390,true,NA,NA,NA,NA,NA,NA,NA,NA
CONv8KhQ,3z33ic0jd3zsmh7cb6nqm2m9m84v9l,39asuflu61k38m1iay9wrlgxxsyex6,CONv8KhQ,2020-0188,2021-10-31,03:06:42,04:52:43,NA,incomplete,false,true,NA,NA,5,31,NA,black,m_s_084.jpg,NA,NA,NA,NA,NA,unpleasant,pleasant,NA,NA,NA,NA,NA,right,1538,true,NA,NA,NA,NA,NA,NA,NA,NA
CONv8KhQ,3z33ic0jd3zsmh7cb6nqm2m9m84v9l,39asuflu61k38m1iay9wrlgxxsyex6,CONv8KhQ,2020-0188,2021-10-31,03:06:42,04:52:43,NA,incomplete,false,true,NA,NA,5,32,NA,black,n_s_058.jpg,NA,NA,NA,NA,NA,pleasant,unpleasant,NA,NA,NA,NA,NA,right,1907,true,NA,NA,NA,NA,NA,NA,NA,NA
