workerId,hitId,assignmentId,subject,studyid,exp_date,exp_start,exp_end,time_start,time_end,practice,encoding,memory,association,block,trial,event_order,event,stim,answer,object,left_context,right_context,context_type,label_left,label_right,left_image,left_event,right_image,right_event,condition,response,response_time,response_acc,association_response_time,association_response,association_acc,order_response,order_response_time,order_acc,distance_response,distance_response_time
zdFLHTFo,3ac6mfv6anv2a7u5af0lkpxttwbhzq,39dd6s19jtosdh1xbgxho6w85siezp,zdFLHTFo,2020-0188,2021-10-30,22:37:42,00:01:07,NA,incomplete,true,true,NA,NA,0,0,NA,black,m_l_037.jpg,NA,NA,NA,NA,NA,unpleasant,pleasant,NA,NA,NA,NA,NA,none,0,false,NA,NA,NA,NA,NA,NA,NA,NA
zdFLHTFo,3ac6mfv6anv2a7u5af0lkpxttwbhzq,39dd6s19jtosdh1xbgxho6w85siezp,zdFLHTFo,2020-0188,2021-10-30,22:37:42,00:01:07,NA,incomplete,true,true,NA,NA,0,1,NA,black,n_s_096.jpg,NA,NA,NA,NA,NA,unpleasant,pleasant,NA,NA,NA,NA,NA,right,2234.79999999702,true,NA,NA,NA,NA,NA,NA,NA,NA
zdFLHTFo,3ac6mfv6anv2a7u5af0lkpxttwbhzq,39dd6s19jtosdh1xbgxho6w85siezp,zdFLHTFo,2020-0188,2021-10-30,22:37:42,00:01:07,NA,incomplete,true,true,NA,NA,0,2,NA,black,n_s_099.jpg,NA,NA,NA,NA,NA,pleasant,unpleasant,NA,NA,NA,NA,NA,left,1520.60000000149,true,NA,NA,NA,NA,NA,NA,NA,NA
zdFLHTFo,3ac6mfv6anv2a7u5af0lkpxttwbhzq,39dd6s19jtosdh1xbgxho6w85siezp,zdFLHTFo,2020-0188,2021-10-30,22:37:42,00:01:07,NA,incomplete,true,true,NA,NA,0,3,NA,black,n_l_022.jpg,NA,NA,NA,NA,NA,pleasant,unpleasant,NA,NA,NA,NA,NA,left,1623.79999999702,true,NA,NA,NA,NA,NA,NA,NA,NA
zdFLHTFo,3ac6mfv6anv2a7u5af0lkpxttwbhzq,39dd6s19jtosdh1xbgxho6w85siezp,zdFLHTFo,2020-0188,2021-10-30,22:37:42,00:01:07,NA,incomplete,true,true,NA,NA,0,4,NA,black,n_l_041.jpg,NA,NA,NA,NA,NA,unpleasant,pleasant,NA,NA,NA,NA,NA,left,2077.89999999851,true,NA,NA,NA,NA,NA,NA,NA,NA
zdFLHTFo,3ac6mfv6anv2a7u5af0lkpxttwbhzq,39dd6s19jtosdh1xbgxho6w85siezp,zdFLHTFo,2020-0188,2021-10-30,22:37:42,00:01:07,NA,incomplete,true,true,NA,NA,0,5,NA,black,m_l_081.jpg,NA,NA,NA,NA,NA,unpleasant,pleasant,NA,NA,NA,NA,NA,left,2190.89999999851,true,NA,NA,NA,NA,NA,NA,NA,NA
zdFLHTFo,3ac6mfv6anv2a7u5af0lkpxttwbhzq,39dd6s19jtosdh1xbgxho6w85siezp,zdFLHTFo,2020-0188,2021-10-30,22:37:42,00:01:07,NA,incomplete,true,true,NA,NA,0,6,NA,gray,n_s_071.jpg,NA,NA,NA,NA,NA,pleasant,unpleasant,NA,NA,NA,NA,NA,left,2102,true,NA,NA,NA,NA,NA,NA,NA,NA
zdFLHTFo,3ac6mfv6anv2a7u5af0lkpxttwbhzq,39dd6s19jtosdh1xbgxho6w85siezp,zdFLHTFo,2020-0188,2021-10-30,22:37:42,00:01:07,NA,incomplete,true,true,NA,NA,0,7,NA,gray,m_s_058.jpg,NA,NA,NA,NA,NA,pleasant,unpleasant,NA,NA,NA,NA,NA,left,1842.59999999404,true,NA,NA,NA,NA,NA,NA,NA,NA
zdFLHTFo,3ac6mfv6anv2a7u5af0lkpxttwbhzq,39dd6s19jtosdh1xbgxho6w85siezp,zdFLHTFo,2020-0188,2021-10-30,22:37:42,00:01:07,NA,incomplete,true,true,NA,NA,0,8,NA,gray,m_s_082.jpg,NA,NA,NA,NA,NA,pleasant,unpleasant,NA,NA,NA,NA,NA,right,1322.79999999702,true,NA,NA,NA,NA,NA,NA,NA,NA
zdFLHTFo,3ac6mfv6anv2a7u5af0lkpxttwbhzq,39dd6s19jtosdh1xbgxho6w85siezp,zdFLHTFo,2020-0188,2021-10-30,22:37:42,00:01:07,NA,incomplete,true,true,NA,NA,0,9,NA,gray,n_s_011.jpg,NA,NA,NA,NA,NA,pleasant,unpleasant,NA,NA,NA,NA,NA,left,1201.39999999851,true,NA,NA,NA,NA,NA,NA,NA,NA
zdFLHTFo,3ac6mfv6anv2a7u5af0lkpxttwbhzq,39dd6s19jtosdh1xbgxho6w85siezp,zdFLHTFo,2020-0188,2021-10-30,22:37:42,00:01:07,NA,incomplete,true,true,NA,NA,0,10,NA,gray,m_s_061.jpg,NA,NA,NA,NA,NA,unpleasant,pleasant,NA,NA,NA,NA,NA,left,1592.79999999702,true,NA,NA,NA,NA,NA,NA,NA,NA
zdFLHTFo,3ac6mfv6anv2a7u5af0lkpxttwbhzq,39dd6s19jtosdh1xbgxho6w85siezp,zdFLHTFo,2020-0188,2021-10-30,22:37:42,00:01:07,NA,incomplete,true,true,NA,NA,0,11,NA,gray,n_l_071.jpg,NA,NA,NA,NA,NA,unpleasant,pleasant,NA,NA,NA,NA,NA,left,2431.70000000298,true,NA,NA,NA,NA,NA,NA,NA,NA
zdFLHTFo,3ac6mfv6anv2a7u5af0lkpxttwbhzq,39dd6s19jtosdh1xbgxho6w85siezp,zdFLHTFo,2020-0188,2021-10-30,22:37:42,00:01:07,NA,incomplete,true,true,NA,NA,0,12,NA,yellow,m_l_035.jpg,NA,NA,NA,NA,NA,unpleasant,pleasant,NA,NA,NA,NA,NA,right,1094.39999999851,true,NA,NA,NA,NA,NA,NA,NA,NA
zdFLHTFo,3ac6mfv6anv2a7u5af0lkpxttwbhzq,39dd6s19jtosdh1xbgxho6w85siezp,zdFLHTFo,2020-0188,2021-10-30,22:37:42,00:01:07,NA,incomplete,true,true,NA,NA,0,13,NA,yellow,m_l_014.jpg,NA,NA,NA,NA,NA,unpleasant,pleasant,NA,NA,NA,NA,NA,right,886.20000000298,true,NA,NA,NA,NA,NA,NA,NA,NA
zdFLHTFo,3ac6mfv6anv2a7u5af0lkpxttwbhzq,39dd6s19jtosdh1xbgxho6w85siezp,zdFLHTFo,2020-0188,2021-10-30,22:37:42,00:01:07,NA,incomplete,true,true,NA,NA,0,14,NA,yellow,m_l_110.jpg,NA,NA,NA,NA,NA,pleasant,unpleasant,NA,NA,NA,NA,NA,right,973.29999999702,true,NA,NA,NA,NA,NA,NA,NA,NA
zdFLHTFo,3ac6mfv6anv2a7u5af0lkpxttwbhzq,39dd6s19jtosdh1xbgxho6w85siezp,zdFLHTFo,2020-0188,2021-10-30,22:37:42,00:01:07,NA,incomplete,true,true,NA,NA,0,15,NA,yellow,m_l_109.jpg,NA,NA,NA,NA,NA,unpleasant,pleasant,NA,NA,NA,NA,NA,right,1179.19999999553,true,NA,NA,NA,NA,NA,NA,NA,NA
zdFLHTFo,3ac6mfv6anv2a7u5af0lkpxttwbhzq,39dd6s19jtosdh1xbgxho6w85siezp,zdFLHTFo,2020-0188,2021-10-30,22:37:42,00:01:07,NA,incomplete,true,true,NA,NA,0,16,NA,yellow,m_s_046.jpg,NA,NA,NA,NA,NA,pleasant,unpleasant,NA,NA,NA,NA,NA,left,1866,true,NA,NA,NA,NA,NA,NA,NA,NA
zdFLHTFo,3ac6mfv6anv2a7u5af0lkpxttwbhzq,39dd6s19jtosdh1xbgxho6w85siezp,zdFLHTFo,2020-0188,2021-10-30,22:37:42,00:01:07,NA,incomplete,true,true,NA,NA,0,17,NA,yellow,n_s_067.jpg,NA,NA,NA,NA,NA,unpleasant,pleasant,NA,NA,NA,NA,NA,left,770.60000000149,true,NA,NA,NA,NA,NA,NA,NA,NA
zdFLHTFo,3ac6mfv6anv2a7u5af0lkpxttwbhzq,39dd6s19jtosdh1xbgxho6w85siezp,zdFLHTFo,2020-0188,2021-10-30,22:37:42,00:01:07,NA,incomplete,true,true,NA,NA,0,18,NA,blue,n_s_053.jpg,NA,NA,NA,NA,NA,unpleasant,pleasant,NA,NA,NA,NA,NA,right,1032.10000000149,true,NA,NA,NA,NA,NA,NA,NA,NA
zdFLHTFo,3ac6mfv6anv2a7u5af0lkpxttwbhzq,39dd6s19jtosdh1xbgxho6w85siezp,zdFLHTFo,2020-0188,2021-10-30,22:37:42,00:01:07,NA,incomplete,true,true,NA,NA,0,19,NA,blue,n_s_106.jpg,NA,NA,NA,NA,NA,unpleasant,pleasant,NA,NA,NA,NA,NA,left,2032.30000000447,true,NA,NA,NA,NA,NA,NA,NA,NA
zdFLHTFo,3ac6mfv6anv2a7u5af0lkpxttwbhzq,39dd6s19jtosdh1xbgxho6w85siezp,zdFLHTFo,2020-0188,2021-10-30,22:37:42,00:01:07,NA,incomplete,true,true,NA,NA,0,20,NA,blue,n_l_044.jpg,NA,NA,NA,NA,NA,unpleasant,pleasant,NA,NA,NA,NA,NA,right,1181.89999999851,true,NA,NA,NA,NA,NA,NA,NA,NA
zdFLHTFo,3ac6mfv6anv2a7u5af0lkpxttwbhzq,39dd6s19jtosdh1xbgxho6w85siezp,zdFLHTFo,2020-0188,2021-10-30,22:37:42,00:01:07,NA,incomplete,true,true,NA,NA,0,21,NA,blue,n_l_065.jpg,NA,NA,NA,NA,NA,pleasant,unpleasant,NA,NA,NA,NA,NA,left,1341.5,true,NA,NA,NA,NA,NA,NA,NA,NA
zdFLHTFo,3ac6mfv6anv2a7u5af0lkpxttwbhzq,39dd6s19jtosdh1xbgxho6w85siezp,zdFLHTFo,2020-0188,2021-10-30,22:37:42,00:01:07,NA,incomplete,true,true,NA,NA,0,22,NA,blue,n_s_007.jpg,NA,NA,NA,NA,NA,pleasant,unpleasant,NA,NA,NA,NA,NA,right,1203.89999999851,true,NA,NA,NA,NA,NA,NA,NA,NA
zdFLHTFo,3ac6mfv6anv2a7u5af0lkpxttwbhzq,39dd6s19jtosdh1xbgxho6w85siezp,zdFLHTFo,2020-0188,2021-10-30,22:37:42,00:01:07,NA,incomplete,true,true,NA,NA,0,23,NA,blue,n_s_047.jpg,NA,NA,NA,NA,NA,pleasant,unpleasant,NA,NA,NA,NA,NA,right,1106.79999999702,true,NA,NA,NA,NA,NA,NA,NA,NA
zdFLHTFo,3ac6mfv6anv2a7u5af0lkpxttwbhzq,39dd6s19jtosdh1xbgxho6w85siezp,zdFLHTFo,2020-0188,2021-10-30,22:37:42,00:01:07,NA,incomplete,true,true,NA,NA,0,24,NA,orange,m_l_103.jpg,NA,NA,NA,NA,NA,pleasant,unpleasant,NA,NA,NA,NA,NA,left,1129.60000000149,true,NA,NA,NA,NA,NA,NA,NA,NA
zdFLHTFo,3ac6mfv6anv2a7u5af0lkpxttwbhzq,39dd6s19jtosdh1xbgxho6w85siezp,zdFLHTFo,2020-0188,2021-10-30,22:37:42,00:01:07,NA,incomplete,true,true,NA,NA,0,25,NA,orange,n_s_087.jpg,NA,NA,NA,NA,NA,unpleasant,pleasant,NA,NA,NA,NA,NA,right,1705.40000000596,true,NA,NA,NA,NA,NA,NA,NA,NA
zdFLHTFo,3ac6mfv6anv2a7u5af0lkpxttwbhzq,39dd6s19jtosdh1xbgxho6w85siezp,zdFLHTFo,2020-0188,2021-10-30,22:37:42,00:01:07,NA,incomplete,true,true,NA,NA,0,26,NA,orange,m_s_095.jpg,NA,NA,NA,NA,NA,unpleasant,pleasant,NA,NA,NA,NA,NA,right,1934.89999999851,true,NA,NA,NA,NA,NA,NA,NA,NA
zdFLHTFo,3ac6mfv6anv2a7u5af0lkpxttwbhzq,39dd6s19jtosdh1xbgxho6w85siezp,zdFLHTFo,2020-0188,2021-10-30,22:37:42,00:01:07,NA,incomplete,true,true,NA,NA,0,27,NA,orange,m_l_095.jpg,NA,NA,NA,NA,NA,unpleasant,pleasant,NA,NA,NA,NA,NA,right,981.89999999851,true,NA,NA,NA,NA,NA,NA,NA,NA
zdFLHTFo,3ac6mfv6anv2a7u5af0lkpxttwbhzq,39dd6s19jtosdh1xbgxho6w85siezp,zdFLHTFo,2020-0188,2021-10-30,22:37:42,00:01:07,NA,incomplete,true,true,NA,NA,0,28,NA,orange,m_l_029.jpg,NA,NA,NA,NA,NA,pleasant,unpleasant,NA,NA,NA,NA,NA,left,1150.39999999851,true,NA,NA,NA,NA,NA,NA,NA,NA
zdFLHTFo,3ac6mfv6anv2a7u5af0lkpxttwbhzq,39dd6s19jtosdh1xbgxho6w85siezp,zdFLHTFo,2020-0188,2021-10-30,22:37:42,00:01:07,NA,incomplete,true,true,NA,NA,0,29,NA,orange,m_s_036.jpg,NA,NA,NA,NA,NA,pleasant,unpleasant,NA,NA,NA,NA,NA,left,1284.60000000149,true,NA,NA,NA,NA,NA,NA,NA,NA
zdFLHTFo,3ac6mfv6anv2a7u5af0lkpxttwbhzq,39dd6s19jtosdh1xbgxho6w85siezp,zdFLHTFo,2020-0188,2021-10-30,22:37:42,00:01:07,NA,incomplete,true,true,NA,NA,0,30,NA,brown,n_l_051.jpg,NA,NA,NA,NA,NA,pleasant,unpleasant,NA,NA,NA,NA,NA,right,1291,true,NA,NA,NA,NA,NA,NA,NA,NA
zdFLHTFo,3ac6mfv6anv2a7u5af0lkpxttwbhzq,39dd6s19jtosdh1xbgxho6w85siezp,zdFLHTFo,2020-0188,2021-10-30,22:37:42,00:01:07,NA,incomplete,true,true,NA,NA,0,31,NA,brown,m_s_014.jpg,NA,NA,NA,NA,NA,pleasant,unpleasant,NA,NA,NA,NA,NA,right,961.59999999404,true,NA,NA,NA,NA,NA,NA,NA,NA
zdFLHTFo,3ac6mfv6anv2a7u5af0lkpxttwbhzq,39dd6s19jtosdh1xbgxho6w85siezp,zdFLHTFo,2020-0188,2021-10-30,22:37:42,00:01:07,NA,incomplete,true,true,NA,NA,0,32,NA,brown,n_s_115.jpg,NA,NA,NA,NA,NA,unpleasant,pleasant,NA,NA,NA,NA,NA,right,1536.69999999553,true,NA,NA,NA,NA,NA,NA,NA,NA
zdFLHTFo,3ac6mfv6anv2a7u5af0lkpxttwbhzq,39dd6s19jtosdh1xbgxho6w85siezp,zdFLHTFo,2020-0188,2021-10-30,22:37:42,00:01:07,NA,incomplete,true,true,NA,NA,0,33,NA,brown,m_s_105.jpg,NA,NA,NA,NA,NA,unpleasant,pleasant,NA,NA,NA,NA,NA,right,1128.5,true,NA,NA,NA,NA,NA,NA,NA,NA
zdFLHTFo,3ac6mfv6anv2a7u5af0lkpxttwbhzq,39dd6s19jtosdh1xbgxho6w85siezp,zdFLHTFo,2020-0188,2021-10-30,22:37:42,00:01:07,NA,incomplete,true,true,NA,NA,0,34,NA,brown,n_l_105.jpg,NA,NA,NA,NA,NA,pleasant,unpleasant,NA,NA,NA,NA,NA,left,1272.39999999851,true,NA,NA,NA,NA,NA,NA,NA,NA
zdFLHTFo,3ac6mfv6anv2a7u5af0lkpxttwbhzq,39dd6s19jtosdh1xbgxho6w85siezp,zdFLHTFo,2020-0188,2021-10-30,22:37:42,00:01:07,NA,incomplete,true,true,NA,NA,0,35,NA,brown,n_l_002.jpg,NA,NA,NA,NA,NA,pleasant,unpleasant,NA,NA,NA,NA,NA,left,1070.10000000149,true,NA,NA,NA,NA,NA,NA,NA,NA
zdFLHTFo,3ac6mfv6anv2a7u5af0lkpxttwbhzq,39dd6s19jtosdh1xbgxho6w85siezp,zdFLHTFo,2020-0188,2021-10-30,22:37:42,00:01:07,NA,incomplete,true,NA,NA,true,0,0,NA,NA,NA,left,n_l_071.jpg,gray,black,NA,NA,NA,NA,NA,NA,NA,NA,NA,NaN,NA,5340.69999999553,left,1,NA,NA,NA,NA,NA
zdFLHTFo,3ac6mfv6anv2a7u5af0lkpxttwbhzq,39dd6s19jtosdh1xbgxho6w85siezp,zdFLHTFo,2020-0188,2021-10-30,22:37:42,00:01:07,NA,incomplete,true,NA,NA,true,0,1,NA,NA,NA,left,n_l_044.jpg,blue,orange,NA,NA,NA,NA,NA,NA,NA,NA,NA,NaN,NA,2835.7000000029802,right,0,NA,NA,NA,NA,NA
zdFLHTFo,3ac6mfv6anv2a7u5af0lkpxttwbhzq,39dd6s19jtosdh1xbgxho6w85siezp,zdFLHTFo,2020-0188,2021-10-30,22:37:42,00:01:07,NA,incomplete,true,NA,NA,true,0,2,NA,NA,NA,right,n_s_007.jpg,yellow,blue,NA,NA,NA,NA,NA,NA,NA,NA,NA,NaN,NA,2615.89999999851,right,1,NA,NA,NA,NA,NA
zdFLHTFo,3ac6mfv6anv2a7u5af0lkpxttwbhzq,39dd6s19jtosdh1xbgxho6w85siezp,zdFLHTFo,2020-0188,2021-10-30,22:37:42,00:01:07,NA,incomplete,true,NA,NA,true,0,3,NA,NA,NA,right,m_l_029.jpg,blue,orange,NA,NA,NA,NA,NA,NA,NA,NA,NA,NaN,NA,2036.9000000059605,right,1,NA,NA,NA,NA,NA
zdFLHTFo,3ac6mfv6anv2a7u5af0lkpxttwbhzq,39dd6s19jtosdh1xbgxho6w85siezp,zdFLHTFo,2020-0188,2021-10-30,22:37:42,00:01:07,NA,incomplete,true,NA,NA,true,0,4,NA,NA,NA,left,n_s_096.jpg,black,gray,NA,NA,NA,NA,NA,NA,NA,NA,NA,NaN,NA,2158.3000000044703,right,0,NA,NA,NA,NA,NA
zdFLHTFo,3ac6mfv6anv2a7u5af0lkpxttwbhzq,39dd6s19jtosdh1xbgxho6w85siezp,zdFLHTFo,2020-0188,2021-10-30,22:37:42,00:01:07,NA,incomplete,true,NA,NA,true,0,5,NA,NA,NA,left,n_s_087.jpg,orange,brown,NA,NA,NA,NA,NA,NA,NA,NA,NA,NaN,NA,2864.4000000059605,right,0,NA,NA,NA,NA,NA
zdFLHTFo,3ac6mfv6anv2a7u5af0lkpxttwbhzq,39dd6s19jtosdh1xbgxho6w85siezp,zdFLHTFo,2020-0188,2021-10-30,22:37:42,00:01:07,NA,incomplete,true,NA,NA,true,0,6,NA,NA,NA,left,m_l_110.jpg,yellow,gray,NA,NA,NA,NA,NA,NA,NA,NA,NA,NaN,NA,3414.89999999851,left,1,NA,NA,NA,NA,NA
zdFLHTFo,3ac6mfv6anv2a7u5af0lkpxttwbhzq,39dd6s19jtosdh1xbgxho6w85siezp,zdFLHTFo,2020-0188,2021-10-30,22:37:42,00:01:07,NA,incomplete,true,NA,NA,true,0,7,NA,NA,NA,left,m_l_014.jpg,yellow,blue,NA,NA,NA,NA,NA,NA,NA,NA,NA,NaN,NA,1842.5999999940395,right,0,NA,NA,NA,NA,NA
zdFLHTFo,3ac6mfv6anv2a7u5af0lkpxttwbhzq,39dd6s19jtosdh1xbgxho6w85siezp,zdFLHTFo,2020-0188,2021-10-30,22:37:42,00:01:07,NA,incomplete,true,NA,NA,true,0,8,NA,NA,NA,left,n_s_115.jpg,brown,orange,NA,NA,NA,NA,NA,NA,NA,NA,NA,NaN,NA,2594.10000000149,left,1,NA,NA,NA,NA,NA
zdFLHTFo,3ac6mfv6anv2a7u5af0lkpxttwbhzq,39dd6s19jtosdh1xbgxho6w85siezp,zdFLHTFo,2020-0188,2021-10-30,22:37:42,00:01:07,NA,incomplete,true,NA,NA,true,0,9,NA,NA,NA,left,m_s_061.jpg,gray,yellow,NA,NA,NA,NA,NA,NA,NA,NA,NA,NaN,NA,2268.8000000044703,left,1,NA,NA,NA,NA,NA
zdFLHTFo,3ac6mfv6anv2a7u5af0lkpxttwbhzq,39dd6s19jtosdh1xbgxho6w85siezp,zdFLHTFo,2020-0188,2021-10-30,22:37:42,00:01:07,NA,incomplete,true,NA,NA,true,0,10,NA,NA,NA,left,m_s_082.jpg,gray,yellow,NA,NA,NA,NA,NA,NA,NA,NA,NA,NaN,NA,2011.1999999955297,left,1,NA,NA,NA,NA,NA
zdFLHTFo,3ac6mfv6anv2a7u5af0lkpxttwbhzq,39dd6s19jtosdh1xbgxho6w85siezp,zdFLHTFo,2020-0188,2021-10-30,22:37:42,00:01:07,NA,incomplete,true,NA,NA,true,0,11,NA,NA,NA,left,m_s_058.jpg,gray,yellow,NA,NA,NA,NA,NA,NA,NA,NA,NA,NaN,NA,2368.7999999970198,left,1,NA,NA,NA,NA,NA
zdFLHTFo,3ac6mfv6anv2a7u5af0lkpxttwbhzq,39dd6s19jtosdh1xbgxho6w85siezp,zdFLHTFo,2020-0188,2021-10-30,22:37:42,00:01:07,NA,incomplete,true,NA,NA,true,0,12,NA,NA,NA,right,n_l_002.jpg,orange,brown,NA,NA,NA,NA,NA,NA,NA,NA,NA,NaN,NA,2108.7999999970198,right,1,NA,NA,NA,NA,NA
zdFLHTFo,3ac6mfv6anv2a7u5af0lkpxttwbhzq,39dd6s19jtosdh1xbgxho6w85siezp,zdFLHTFo,2020-0188,2021-10-30,22:37:42,00:01:07,NA,incomplete,true,NA,NA,true,0,13,NA,NA,NA,left,m_l_081.jpg,black,gray,NA,NA,NA,NA,NA,NA,NA,NA,NA,NaN,NA,2155.10000000149,right,0,NA,NA,NA,NA,NA
zdFLHTFo,3ac6mfv6anv2a7u5af0lkpxttwbhzq,39dd6s19jtosdh1xbgxho6w85siezp,zdFLHTFo,2020-0188,2021-10-30,22:37:42,00:01:07,NA,incomplete,true,NA,NA,true,0,14,NA,NA,NA,right,m_s_036.jpg,brown,orange,NA,NA,NA,NA,NA,NA,NA,NA,NA,NaN,NA,2716.6999999955297,left,0,NA,NA,NA,NA,NA
zdFLHTFo,3ac6mfv6anv2a7u5af0lkpxttwbhzq,39dd6s19jtosdh1xbgxho6w85siezp,zdFLHTFo,2020-0188,2021-10-30,22:37:42,00:01:07,NA,incomplete,true,NA,NA,true,0,15,NA,NA,NA,left,n_s_047.jpg,blue,orange,NA,NA,NA,NA,NA,NA,NA,NA,NA,NaN,NA,2040.3000000044703,right,0,NA,NA,NA,NA,NA
zdFLHTFo,3ac6mfv6anv2a7u5af0lkpxttwbhzq,39dd6s19jtosdh1xbgxho6w85siezp,zdFLHTFo,2020-0188,2021-10-30,22:37:42,00:01:07,NA,incomplete,true,NA,NA,true,0,16,NA,NA,NA,right,n_s_067.jpg,blue,yellow,NA,NA,NA,NA,NA,NA,NA,NA,NA,NaN,NA,2829,right,1,NA,NA,NA,NA,NA
zdFLHTFo,3ac6mfv6anv2a7u5af0lkpxttwbhzq,39dd6s19jtosdh1xbgxho6w85siezp,zdFLHTFo,2020-0188,2021-10-30,22:37:42,00:01:07,NA,incomplete,true,NA,NA,true,0,17,NA,NA,NA,left,n_l_041.jpg,black,gray,NA,NA,NA,NA,NA,NA,NA,NA,NA,NaN,NA,1930.5999999940395,right,0,NA,NA,NA,NA,NA
zdFLHTFo,3ac6mfv6anv2a7u5af0lkpxttwbhzq,39dd6s19jtosdh1xbgxho6w85siezp,zdFLHTFo,2020-0188,2021-10-30,22:37:42,00:01:07,NA,incomplete,true,NA,NA,true,0,18,NA,NA,NA,left,m_s_046.jpg,yellow,blue,NA,NA,NA,NA,NA,NA,NA,NA,NA,NaN,NA,2796.2000000029802,left,1,NA,NA,NA,NA,NA
zdFLHTFo,3ac6mfv6anv2a7u5af0lkpxttwbhzq,39dd6s19jtosdh1xbgxho6w85siezp,zdFLHTFo,2020-0188,2021-10-30,22:37:42,00:01:07,NA,incomplete,true,NA,NA,true,0,19,NA,NA,NA,left,m_s_014.jpg,brown,orange,NA,NA,NA,NA,NA,NA,NA,NA,NA,NaN,NA,3958.60000000149,left,1,NA,NA,NA,NA,NA
zdFLHTFo,3ac6mfv6anv2a7u5af0lkpxttwbhzq,39dd6s19jtosdh1xbgxho6w85siezp,zdFLHTFo,2020-0188,2021-10-30,22:37:42,00:01:07,NA,incomplete,true,NA,NA,true,0,20,NA,NA,NA,right,m_s_095.jpg,brown,orange,NA,NA,NA,NA,NA,NA,NA,NA,NA,NaN,NA,2552.60000000149,right,1,NA,NA,NA,NA,NA
zdFLHTFo,3ac6mfv6anv2a7u5af0lkpxttwbhzq,39dd6s19jtosdh1xbgxho6w85siezp,zdFLHTFo,2020-0188,2021-10-30,22:37:42,00:01:07,NA,incomplete,true,NA,NA,true,0,21,NA,NA,NA,right,n_s_106.jpg,yellow,blue,NA,NA,NA,NA,NA,NA,NA,NA,NA,NaN,NA,2914.10000000149,left,0,NA,NA,NA,NA,NA
zdFLHTFo,3ac6mfv6anv2a7u5af0lkpxttwbhzq,39dd6s19jtosdh1xbgxho6w85siezp,zdFLHTFo,2020-0188,2021-10-30,22:37:42,00:01:07,NA,incomplete,true,NA,true,NA,0,0,NA,NA,NA,left,NA,NA,NA,absent,NA,NA,n_s_087.jpg,orange,m_s_036.jpg,orange,within,NA,NaN,NA,NA,NA,NA,left,5387,1,2,3184.6999999955297
zdFLHTFo,3ac6mfv6anv2a7u5af0lkpxttwbhzq,39dd6s19jtosdh1xbgxho6w85siezp,zdFLHTFo,2020-0188,2021-10-30,22:37:42,00:01:07,NA,incomplete,true,NA,true,NA,0,1,NA,NA,NA,left,NA,NA,NA,absent,NA,NA,m_s_061.jpg,gray,m_l_110.jpg,yellow,between,NA,NaN,NA,NA,NA,NA,right,2434.7999999970198,0,2,2028.8999999985099
zdFLHTFo,3ac6mfv6anv2a7u5af0lkpxttwbhzq,39dd6s19jtosdh1xbgxho6w85siezp,zdFLHTFo,2020-0188,2021-10-30,22:37:42,00:01:07,NA,incomplete,true,NA,true,NA,0,2,NA,NA,NA,right,NA,NA,NA,absent,NA,NA,m_l_081.jpg,black,n_s_096.jpg,black,within,NA,NaN,NA,NA,NA,NA,left,4561.39999999851,0,1,1941.3999999985099
zdFLHTFo,3ac6mfv6anv2a7u5af0lkpxttwbhzq,39dd6s19jtosdh1xbgxho6w85siezp,zdFLHTFo,2020-0188,2021-10-30,22:37:42,00:01:07,NA,incomplete,true,NA,true,NA,0,3,NA,NA,NA,left,NA,NA,NA,absent,NA,NA,m_l_029.jpg,orange,n_s_115.jpg,brown,between,NA,NaN,NA,NA,NA,NA,left,2261.5,1,2,2059
zdFLHTFo,3ac6mfv6anv2a7u5af0lkpxttwbhzq,39dd6s19jtosdh1xbgxho6w85siezp,zdFLHTFo,2020-0188,2021-10-30,22:37:42,00:01:07,NA,incomplete,true,NA,true,NA,0,4,NA,NA,NA,left,NA,NA,NA,absent,NA,NA,n_s_007.jpg,blue,m_s_095.jpg,orange,between,NA,NaN,NA,NA,NA,NA,right,2410.10000000149,0,1,4612.9000000059605
zdFLHTFo,3ac6mfv6anv2a7u5af0lkpxttwbhzq,39dd6s19jtosdh1xbgxho6w85siezp,zdFLHTFo,2020-0188,2021-10-30,22:37:42,00:01:07,NA,incomplete,true,NA,true,NA,0,5,NA,NA,NA,right,NA,NA,NA,absent,NA,NA,n_l_044.jpg,blue,m_s_046.jpg,yellow,between,NA,NaN,NA,NA,NA,NA,left,3918.3000000044703,0,3,1603.1999999955297
zdFLHTFo,3ac6mfv6anv2a7u5af0lkpxttwbhzq,39dd6s19jtosdh1xbgxho6w85siezp,zdFLHTFo,2020-0188,2021-10-30,22:37:42,00:01:07,NA,incomplete,true,NA,true,NA,0,6,NA,NA,NA,right,NA,NA,NA,absent,NA,NA,n_l_002.jpg,brown,m_s_014.jpg,brown,within,NA,NaN,NA,NA,NA,NA,right,3960.3000000044703,1,2,2517.6999999955297
zdFLHTFo,3ac6mfv6anv2a7u5af0lkpxttwbhzq,39dd6s19jtosdh1xbgxho6w85siezp,zdFLHTFo,2020-0188,2021-10-30,22:37:42,00:01:07,NA,incomplete,true,NA,true,NA,0,7,NA,NA,NA,right,NA,NA,NA,absent,NA,NA,n_l_071.jpg,gray,m_s_058.jpg,gray,within,NA,NaN,NA,NA,NA,NA,right,2820.6999999955297,1,0,4290.20000000298
zdFLHTFo,3ac6mfv6anv2a7u5af0lkpxttwbhzq,39dd6s19jtosdh1xbgxho6w85siezp,zdFLHTFo,2020-0188,2021-10-30,22:37:42,00:01:07,NA,incomplete,true,NA,true,NA,0,8,NA,NA,NA,right,NA,NA,NA,absent,NA,NA,n_s_047.jpg,blue,n_s_106.jpg,blue,within,NA,NaN,NA,NA,NA,NA,right,2168.5,1,2,1841.1000000014901
zdFLHTFo,3ac6mfv6anv2a7u5af0lkpxttwbhzq,39dd6s19jtosdh1xbgxho6w85siezp,zdFLHTFo,2020-0188,2021-10-30,22:37:42,00:01:07,NA,incomplete,true,NA,true,NA,0,9,NA,NA,NA,left,NA,NA,NA,absent,NA,NA,m_l_014.jpg,yellow,n_s_067.jpg,yellow,within,NA,NaN,NA,NA,NA,NA,left,2206.6999999955297,1,2,2253.5
zdFLHTFo,3ac6mfv6anv2a7u5af0lkpxttwbhzq,39dd6s19jtosdh1xbgxho6w85siezp,zdFLHTFo,2020-0188,2021-10-30,22:37:42,00:01:07,NA,incomplete,true,NA,true,NA,0,10,NA,NA,NA,left,NA,NA,NA,absent,NA,NA,n_l_041.jpg,black,m_s_082.jpg,gray,between,NA,NaN,NA,NA,NA,NA,right,2346.7000000029802,0,1,1568.5
zdFLHTFo,3ac6mfv6anv2a7u5af0lkpxttwbhzq,39dd6s19jtosdh1xbgxho6w85siezp,zdFLHTFo,2020-0188,2021-10-30,22:37:42,00:01:07,NA,incomplete,false,true,NA,NA,1,0,NA,orange,n_s_073.jpg,NA,NA,NA,NA,NA,unpleasant,pleasant,NA,NA,NA,NA,NA,right,2018.5,true,NA,NA,NA,NA,NA,NA,NA,NA
zdFLHTFo,3ac6mfv6anv2a7u5af0lkpxttwbhzq,39dd6s19jtosdh1xbgxho6w85siezp,zdFLHTFo,2020-0188,2021-10-30,22:37:42,00:01:07,NA,incomplete,false,true,NA,NA,1,1,NA,orange,m_l_022.jpg,NA,NA,NA,NA,NA,pleasant,unpleasant,NA,NA,NA,NA,NA,left,1633.89999999851,true,NA,NA,NA,NA,NA,NA,NA,NA
zdFLHTFo,3ac6mfv6anv2a7u5af0lkpxttwbhzq,39dd6s19jtosdh1xbgxho6w85siezp,zdFLHTFo,2020-0188,2021-10-30,22:37:42,00:01:07,NA,incomplete,false,true,NA,NA,1,2,NA,orange,n_s_074.jpg,NA,NA,NA,NA,NA,pleasant,unpleasant,NA,NA,NA,NA,NA,left,1062.30000000447,true,NA,NA,NA,NA,NA,NA,NA,NA
zdFLHTFo,3ac6mfv6anv2a7u5af0lkpxttwbhzq,39dd6s19jtosdh1xbgxho6w85siezp,zdFLHTFo,2020-0188,2021-10-30,22:37:42,00:01:07,NA,incomplete,false,true,NA,NA,1,3,NA,orange,m_s_086.jpg,NA,NA,NA,NA,NA,pleasant,unpleasant,NA,NA,NA,NA,NA,left,1149.60000000149,true,NA,NA,NA,NA,NA,NA,NA,NA
zdFLHTFo,3ac6mfv6anv2a7u5af0lkpxttwbhzq,39dd6s19jtosdh1xbgxho6w85siezp,zdFLHTFo,2020-0188,2021-10-30,22:37:42,00:01:07,NA,incomplete,false,true,NA,NA,1,4,NA,orange,m_l_086.jpg,NA,NA,NA,NA,NA,pleasant,unpleasant,NA,NA,NA,NA,NA,right,981.29999999702,true,NA,NA,NA,NA,NA,NA,NA,NA
zdFLHTFo,3ac6mfv6anv2a7u5af0lkpxttwbhzq,39dd6s19jtosdh1xbgxho6w85siezp,zdFLHTFo,2020-0188,2021-10-30,22:37:42,00:01:07,NA,incomplete,false,true,NA,NA,1,5,NA,orange,m_s_115.jpg,NA,NA,NA,NA,NA,unpleasant,pleasant,NA,NA,NA,NA,NA,left,1340.10000000149,true,NA,NA,NA,NA,NA,NA,NA,NA
zdFLHTFo,3ac6mfv6anv2a7u5af0lkpxttwbhzq,39dd6s19jtosdh1xbgxho6w85siezp,zdFLHTFo,2020-0188,2021-10-30,22:37:42,00:01:07,NA,incomplete,false,true,NA,NA,1,6,NA,black,m_l_044.jpg,NA,NA,NA,NA,NA,unpleasant,pleasant,NA,NA,NA,NA,NA,right,1594.30000000447,true,NA,NA,NA,NA,NA,NA,NA,NA
zdFLHTFo,3ac6mfv6anv2a7u5af0lkpxttwbhzq,39dd6s19jtosdh1xbgxho6w85siezp,zdFLHTFo,2020-0188,2021-10-30,22:37:42,00:01:07,NA,incomplete,false,true,NA,NA,1,7,NA,black,n_l_047.jpg,NA,NA,NA,NA,NA,pleasant,unpleasant,NA,NA,NA,NA,NA,left,1083.19999999553,true,NA,NA,NA,NA,NA,NA,NA,NA
zdFLHTFo,3ac6mfv6anv2a7u5af0lkpxttwbhzq,39dd6s19jtosdh1xbgxho6w85siezp,zdFLHTFo,2020-0188,2021-10-30,22:37:42,00:01:07,NA,incomplete,false,true,NA,NA,1,8,NA,black,n_s_036.jpg,NA,NA,NA,NA,NA,unpleasant,pleasant,NA,NA,NA,NA,NA,right,1344.29999999702,true,NA,NA,NA,NA,NA,NA,NA,NA
zdFLHTFo,3ac6mfv6anv2a7u5af0lkpxttwbhzq,39dd6s19jtosdh1xbgxho6w85siezp,zdFLHTFo,2020-0188,2021-10-30,22:37:42,00:01:07,NA,incomplete,false,true,NA,NA,1,9,NA,black,m_s_065.jpg,NA,NA,NA,NA,NA,pleasant,unpleasant,NA,NA,NA,NA,NA,right,1143.5,true,NA,NA,NA,NA,NA,NA,NA,NA
zdFLHTFo,3ac6mfv6anv2a7u5af0lkpxttwbhzq,39dd6s19jtosdh1xbgxho6w85siezp,zdFLHTFo,2020-0188,2021-10-30,22:37:42,00:01:07,NA,incomplete,false,true,NA,NA,1,10,NA,black,n_s_117.jpg,NA,NA,NA,NA,NA,unpleasant,pleasant,NA,NA,NA,NA,NA,left,1543.89999999851,true,NA,NA,NA,NA,NA,NA,NA,NA
zdFLHTFo,3ac6mfv6anv2a7u5af0lkpxttwbhzq,39dd6s19jtosdh1xbgxho6w85siezp,zdFLHTFo,2020-0188,2021-10-30,22:37:42,00:01:07,NA,incomplete,false,true,NA,NA,1,11,NA,black,m_s_081.jpg,NA,NA,NA,NA,NA,pleasant,unpleasant,NA,NA,NA,NA,NA,left,2399.19999999553,true,NA,NA,NA,NA,NA,NA,NA,NA
zdFLHTFo,3ac6mfv6anv2a7u5af0lkpxttwbhzq,39dd6s19jtosdh1xbgxho6w85siezp,zdFLHTFo,2020-0188,2021-10-30,22:37:42,00:01:07,NA,incomplete,false,true,NA,NA,1,12,NA,brown,n_s_039.jpg,NA,NA,NA,NA,NA,unpleasant,pleasant,NA,NA,NA,NA,NA,right,1445.70000000298,true,NA,NA,NA,NA,NA,NA,NA,NA
zdFLHTFo,3ac6mfv6anv2a7u5af0lkpxttwbhzq,39dd6s19jtosdh1xbgxho6w85siezp,zdFLHTFo,2020-0188,2021-10-30,22:37:42,00:01:07,NA,incomplete,false,true,NA,NA,1,13,NA,brown,n_l_067.jpg,NA,NA,NA,NA,NA,pleasant,unpleasant,NA,NA,NA,NA,NA,left,1565.60000000149,true,NA,NA,NA,NA,NA,NA,NA,NA
zdFLHTFo,3ac6mfv6anv2a7u5af0lkpxttwbhzq,39dd6s19jtosdh1xbgxho6w85siezp,zdFLHTFo,2020-0188,2021-10-30,22:37:42,00:01:07,NA,incomplete,false,true,NA,NA,1,14,NA,brown,m_l_106.jpg,NA,NA,NA,NA,NA,unpleasant,pleasant,NA,NA,NA,NA,NA,right,1701.70000000298,true,NA,NA,NA,NA,NA,NA,NA,NA
zdFLHTFo,3ac6mfv6anv2a7u5af0lkpxttwbhzq,39dd6s19jtosdh1xbgxho6w85siezp,zdFLHTFo,2020-0188,2021-10-30,22:37:42,00:01:07,NA,incomplete,false,true,NA,NA,1,15,NA,brown,m_l_005.jpg,NA,NA,NA,NA,NA,pleasant,unpleasant,NA,NA,NA,NA,NA,right,1803.20000000298,true,NA,NA,NA,NA,NA,NA,NA,NA
zdFLHTFo,3ac6mfv6anv2a7u5af0lkpxttwbhzq,39dd6s19jtosdh1xbgxho6w85siezp,zdFLHTFo,2020-0188,2021-10-30,22:37:42,00:01:07,NA,incomplete,false,true,NA,NA,1,16,NA,brown,n_l_075.jpg,NA,NA,NA,NA,NA,unpleasant,pleasant,NA,NA,NA,NA,NA,left,1538.5,true,NA,NA,NA,NA,NA,NA,NA,NA
zdFLHTFo,3ac6mfv6anv2a7u5af0lkpxttwbhzq,39dd6s19jtosdh1xbgxho6w85siezp,zdFLHTFo,2020-0188,2021-10-30,22:37:42,00:01:07,NA,incomplete,false,true,NA,NA,1,17,NA,brown,m_l_075.jpg,NA,NA,NA,NA,NA,pleasant,unpleasant,NA,NA,NA,NA,NA,left,1487.89999999851,true,NA,NA,NA,NA,NA,NA,NA,NA
zdFLHTFo,3ac6mfv6anv2a7u5af0lkpxttwbhzq,39dd6s19jtosdh1xbgxho6w85siezp,zdFLHTFo,2020-0188,2021-10-30,22:37:42,00:01:07,NA,incomplete,false,true,NA,NA,1,18,NA,gray,n_l_070.jpg,NA,NA,NA,NA,NA,pleasant,unpleasant,NA,NA,NA,NA,NA,right,1550.20000000298,true,NA,NA,NA,NA,NA,NA,NA,NA
zdFLHTFo,3ac6mfv6anv2a7u5af0lkpxttwbhzq,39dd6s19jtosdh1xbgxho6w85siezp,zdFLHTFo,2020-0188,2021-10-30,22:37:42,00:01:07,NA,incomplete,false,true,NA,NA,1,19,NA,gray,n_l_033.jpg,NA,NA,NA,NA,NA,pleasant,unpleasant,NA,NA,NA,NA,NA,right,1173.89999999851,true,NA,NA,NA,NA,NA,NA,NA,NA
zdFLHTFo,3ac6mfv6anv2a7u5af0lkpxttwbhzq,39dd6s19jtosdh1xbgxho6w85siezp,zdFLHTFo,2020-0188,2021-10-30,22:37:42,00:01:07,NA,incomplete,false,true,NA,NA,1,20,NA,gray,n_l_088.jpg,NA,NA,NA,NA,NA,pleasant,unpleasant,NA,NA,NA,NA,NA,right,1300.80000000447,true,NA,NA,NA,NA,NA,NA,NA,NA
zdFLHTFo,3ac6mfv6anv2a7u5af0lkpxttwbhzq,39dd6s19jtosdh1xbgxho6w85siezp,zdFLHTFo,2020-0188,2021-10-30,22:37:42,00:01:07,NA,incomplete,false,true,NA,NA,1,21,NA,gray,n_s_033.jpg,NA,NA,NA,NA,NA,pleasant,unpleasant,NA,NA,NA,NA,NA,left,1308.10000000149,true,NA,NA,NA,NA,NA,NA,NA,NA
zdFLHTFo,3ac6mfv6anv2a7u5af0lkpxttwbhzq,39dd6s19jtosdh1xbgxho6w85siezp,zdFLHTFo,2020-0188,2021-10-30,22:37:42,00:01:07,NA,incomplete,false,true,NA,NA,1,22,NA,gray,n_l_039.jpg,NA,NA,NA,NA,NA,unpleasant,pleasant,NA,NA,NA,NA,NA,left,1306.90000000596,true,NA,NA,NA,NA,NA,NA,NA,NA
zdFLHTFo,3ac6mfv6anv2a7u5af0lkpxttwbhzq,39dd6s19jtosdh1xbgxho6w85siezp,zdFLHTFo,2020-0188,2021-10-30,22:37:42,00:01:07,NA,incomplete,false,true,NA,NA,1,23,NA,gray,m_s_018.jpg,NA,NA,NA,NA,NA,unpleasant,pleasant,NA,NA,NA,NA,NA,right,1024.10000000149,true,NA,NA,NA,NA,NA,NA,NA,NA
zdFLHTFo,3ac6mfv6anv2a7u5af0lkpxttwbhzq,39dd6s19jtosdh1xbgxho6w85siezp,zdFLHTFo,2020-0188,2021-10-30,22:37:42,00:01:07,NA,incomplete,false,true,NA,NA,1,24,NA,blue,n_l_058.jpg,NA,NA,NA,NA,NA,unpleasant,pleasant,NA,NA,NA,NA,NA,left,1287.70000000298,true,NA,NA,NA,NA,NA,NA,NA,NA
zdFLHTFo,3ac6mfv6anv2a7u5af0lkpxttwbhzq,39dd6s19jtosdh1xbgxho6w85siezp,zdFLHTFo,2020-0188,2021-10-30,22:37:42,00:01:07,NA,incomplete,false,true,NA,NA,1,25,NA,blue,m_l_051.jpg,NA,NA,NA,NA,NA,unpleasant,pleasant,NA,NA,NA,NA,NA,left,1408.30000000447,true,NA,NA,NA,NA,NA,NA,NA,NA
zdFLHTFo,3ac6mfv6anv2a7u5af0lkpxttwbhzq,39dd6s19jtosdh1xbgxho6w85siezp,zdFLHTFo,2020-0188,2021-10-30,22:37:42,00:01:07,NA,incomplete,false,true,NA,NA,1,26,NA,blue,n_l_054.jpg,NA,NA,NA,NA,NA,unpleasant,pleasant,NA,NA,NA,NA,NA,left,1197.10000000149,true,NA,NA,NA,NA,NA,NA,NA,NA
zdFLHTFo,3ac6mfv6anv2a7u5af0lkpxttwbhzq,39dd6s19jtosdh1xbgxho6w85siezp,zdFLHTFo,2020-0188,2021-10-30,22:37:42,00:01:07,NA,incomplete,false,true,NA,NA,1,27,NA,blue,m_s_083.jpg,NA,NA,NA,NA,NA,pleasant,unpleasant,NA,NA,NA,NA,NA,left,1140.69999999553,true,NA,NA,NA,NA,NA,NA,NA,NA
zdFLHTFo,3ac6mfv6anv2a7u5af0lkpxttwbhzq,39dd6s19jtosdh1xbgxho6w85siezp,zdFLHTFo,2020-0188,2021-10-30,22:37:42,00:01:07,NA,incomplete,false,true,NA,NA,1,28,NA,blue,n_l_096.jpg,NA,NA,NA,NA,NA,pleasant,unpleasant,NA,NA,NA,NA,NA,left,1372.39999999851,true,NA,NA,NA,NA,NA,NA,NA,NA
zdFLHTFo,3ac6mfv6anv2a7u5af0lkpxttwbhzq,39dd6s19jtosdh1xbgxho6w85siezp,zdFLHTFo,2020-0188,2021-10-30,22:37:42,00:01:07,NA,incomplete,false,true,NA,NA,1,29,NA,blue,n_l_025.jpg,NA,NA,NA,NA,NA,unpleasant,pleasant,NA,NA,NA,NA,NA,left,987,true,NA,NA,NA,NA,NA,NA,NA,NA
zdFLHTFo,3ac6mfv6anv2a7u5af0lkpxttwbhzq,39dd6s19jtosdh1xbgxho6w85siezp,zdFLHTFo,2020-0188,2021-10-30,22:37:42,00:01:07,NA,incomplete,false,true,NA,NA,1,30,NA,purple,m_l_071.jpg,NA,NA,NA,NA,NA,pleasant,unpleasant,NA,NA,NA,NA,NA,left,1096.19999999553,true,NA,NA,NA,NA,NA,NA,NA,NA
zdFLHTFo,3ac6mfv6anv2a7u5af0lkpxttwbhzq,39dd6s19jtosdh1xbgxho6w85siezp,zdFLHTFo,2020-0188,2021-10-30,22:37:42,00:01:07,NA,incomplete,false,true,NA,NA,1,31,NA,purple,n_s_088.jpg,NA,NA,NA,NA,NA,pleasant,unpleasant,NA,NA,NA,NA,NA,left,993,true,NA,NA,NA,NA,NA,NA,NA,NA
zdFLHTFo,3ac6mfv6anv2a7u5af0lkpxttwbhzq,39dd6s19jtosdh1xbgxho6w85siezp,zdFLHTFo,2020-0188,2021-10-30,22:37:42,00:01:07,NA,incomplete,false,true,NA,NA,1,32,NA,purple,m_s_025.jpg,NA,NA,NA,NA,NA,unpleasant,pleasant,NA,NA,NA,NA,NA,right,943.5,true,NA,NA,NA,NA,NA,NA,NA,NA
zdFLHTFo,3ac6mfv6anv2a7u5af0lkpxttwbhzq,39dd6s19jtosdh1xbgxho6w85siezp,zdFLHTFo,2020-0188,2021-10-30,22:37:42,00:01:07,NA,incomplete,false,true,NA,NA,1,33,NA,purple,n_s_042.jpg,NA,NA,NA,NA,NA,pleasant,unpleasant,NA,NA,NA,NA,NA,right,1670.69999999553,true,NA,NA,NA,NA,NA,NA,NA,NA
zdFLHTFo,3ac6mfv6anv2a7u5af0lkpxttwbhzq,39dd6s19jtosdh1xbgxho6w85siezp,zdFLHTFo,2020-0188,2021-10-30,22:37:42,00:01:07,NA,incomplete,false,true,NA,NA,1,34,NA,purple,n_s_086.jpg,NA,NA,NA,NA,NA,pleasant,unpleasant,NA,NA,NA,NA,NA,left,1294.79999999702,true,NA,NA,NA,NA,NA,NA,NA,NA
zdFLHTFo,3ac6mfv6anv2a7u5af0lkpxttwbhzq,39dd6s19jtosdh1xbgxho6w85siezp,zdFLHTFo,2020-0188,2021-10-30,22:37:42,00:01:07,NA,incomplete,false,true,NA,NA,1,35,NA,purple,m_l_061.jpg,NA,NA,NA,NA,NA,pleasant,unpleasant,NA,NA,NA,NA,NA,left,1355.89999999851,true,NA,NA,NA,NA,NA,NA,NA,NA
zdFLHTFo,3ac6mfv6anv2a7u5af0lkpxttwbhzq,39dd6s19jtosdh1xbgxho6w85siezp,zdFLHTFo,2020-0188,2021-10-30,22:37:42,00:01:07,NA,incomplete,false,NA,NA,true,1,0,NA,NA,NA,left,m_l_051.jpg,blue,purple,NA,NA,NA,NA,NA,NA,NA,NA,NA,NaN,NA,4206.39999999851,left,1,NA,NA,NA,NA,NA
zdFLHTFo,3ac6mfv6anv2a7u5af0lkpxttwbhzq,39dd6s19jtosdh1xbgxho6w85siezp,zdFLHTFo,2020-0188,2021-10-30,22:37:42,00:01:07,NA,incomplete,false,NA,NA,true,1,1,NA,NA,NA,right,n_s_117.jpg,orange,black,NA,NA,NA,NA,NA,NA,NA,NA,NA,NaN,NA,1914.2999999970198,right,1,NA,NA,NA,NA,NA
zdFLHTFo,3ac6mfv6anv2a7u5af0lkpxttwbhzq,39dd6s19jtosdh1xbgxho6w85siezp,zdFLHTFo,2020-0188,2021-10-30,22:37:42,00:01:07,NA,incomplete,false,NA,NA,true,1,2,NA,NA,NA,right,n_l_039.jpg,blue,gray,NA,NA,NA,NA,NA,NA,NA,NA,NA,NaN,NA,1680.3999999985099,right,1,NA,NA,NA,NA,NA
zdFLHTFo,3ac6mfv6anv2a7u5af0lkpxttwbhzq,39dd6s19jtosdh1xbgxho6w85siezp,zdFLHTFo,2020-0188,2021-10-30,22:37:42,00:01:07,NA,incomplete,false,NA,NA,true,1,3,NA,NA,NA,left,n_l_047.jpg,black,brown,NA,NA,NA,NA,NA,NA,NA,NA,NA,NaN,NA,2024.6000000014901,right,0,NA,NA,NA,NA,NA
zdFLHTFo,3ac6mfv6anv2a7u5af0lkpxttwbhzq,39dd6s19jtosdh1xbgxho6w85siezp,zdFLHTFo,2020-0188,2021-10-30,22:37:42,00:01:07,NA,incomplete,false,NA,NA,true,1,4,NA,NA,NA,left,n_s_036.jpg,black,brown,NA,NA,NA,NA,NA,NA,NA,NA,NA,NaN,NA,1796.6000000014901,left,1,NA,NA,NA,NA,NA
zdFLHTFo,3ac6mfv6anv2a7u5af0lkpxttwbhzq,39dd6s19jtosdh1xbgxho6w85siezp,zdFLHTFo,2020-0188,2021-10-30,22:37:42,00:01:07,NA,incomplete,false,NA,NA,true,1,5,NA,NA,NA,right,n_l_075.jpg,gray,brown,NA,NA,NA,NA,NA,NA,NA,NA,NA,NaN,NA,1956.6999999955297,left,0,NA,NA,NA,NA,NA
zdFLHTFo,3ac6mfv6anv2a7u5af0lkpxttwbhzq,39dd6s19jtosdh1xbgxho6w85siezp,zdFLHTFo,2020-0188,2021-10-30,22:37:42,00:01:07,NA,incomplete,false,NA,NA,true,1,6,NA,NA,NA,right,m_s_025.jpg,blue,purple,NA,NA,NA,NA,NA,NA,NA,NA,NA,NaN,NA,1945.3999999985099,right,1,NA,NA,NA,NA,NA
zdFLHTFo,3ac6mfv6anv2a7u5af0lkpxttwbhzq,39dd6s19jtosdh1xbgxho6w85siezp,zdFLHTFo,2020-0188,2021-10-30,22:37:42,00:01:07,NA,incomplete,false,NA,NA,true,1,7,NA,NA,NA,left,m_s_018.jpg,gray,brown,NA,NA,NA,NA,NA,NA,NA,NA,NA,NaN,NA,3744.89999999851,right,0,NA,NA,NA,NA,NA
zdFLHTFo,3ac6mfv6anv2a7u5af0lkpxttwbhzq,39dd6s19jtosdh1xbgxho6w85siezp,zdFLHTFo,2020-0188,2021-10-30,22:37:42,00:01:07,NA,incomplete,false,NA,NA,true,1,8,NA,NA,NA,left,n_l_054.jpg,blue,gray,NA,NA,NA,NA,NA,NA,NA,NA,NA,NaN,NA,3312.5,left,1,NA,NA,NA,NA,NA
zdFLHTFo,3ac6mfv6anv2a7u5af0lkpxttwbhzq,39dd6s19jtosdh1xbgxho6w85siezp,zdFLHTFo,2020-0188,2021-10-30,22:37:42,00:01:07,NA,incomplete,false,NA,NA,true,1,9,NA,NA,NA,right,m_s_081.jpg,brown,black,NA,NA,NA,NA,NA,NA,NA,NA,NA,NaN,NA,1614.7999999970198,right,1,NA,NA,NA,NA,NA
zdFLHTFo,3ac6mfv6anv2a7u5af0lkpxttwbhzq,39dd6s19jtosdh1xbgxho6w85siezp,zdFLHTFo,2020-0188,2021-10-30,22:37:42,00:01:07,NA,incomplete,false,NA,NA,true,1,10,NA,NA,NA,left,m_l_061.jpg,purple,blue,NA,NA,NA,NA,NA,NA,NA,NA,NA,NaN,NA,1630.5,right,0,NA,NA,NA,NA,NA
zdFLHTFo,3ac6mfv6anv2a7u5af0lkpxttwbhzq,39dd6s19jtosdh1xbgxho6w85siezp,zdFLHTFo,2020-0188,2021-10-30,22:37:42,00:01:07,NA,incomplete,false,NA,NA,true,1,11,NA,NA,NA,left,m_l_106.jpg,brown,black,NA,NA,NA,NA,NA,NA,NA,NA,NA,NaN,NA,1762.5,right,0,NA,NA,NA,NA,NA
zdFLHTFo,3ac6mfv6anv2a7u5af0lkpxttwbhzq,39dd6s19jtosdh1xbgxho6w85siezp,zdFLHTFo,2020-0188,2021-10-30,22:37:42,00:01:07,NA,incomplete,false,NA,NA,true,1,12,NA,NA,NA,right,m_l_075.jpg,gray,brown,NA,NA,NA,NA,NA,NA,NA,NA,NA,NaN,NA,3199.10000000149,left,0,NA,NA,NA,NA,NA
zdFLHTFo,3ac6mfv6anv2a7u5af0lkpxttwbhzq,39dd6s19jtosdh1xbgxho6w85siezp,zdFLHTFo,2020-0188,2021-10-30,22:37:42,00:01:07,NA,incomplete,false,NA,NA,true,1,13,NA,NA,NA,right,m_l_022.jpg,black,orange,NA,NA,NA,NA,NA,NA,NA,NA,NA,NaN,NA,2204.3000000044703,left,0,NA,NA,NA,NA,NA
zdFLHTFo,3ac6mfv6anv2a7u5af0lkpxttwbhzq,39dd6s19jtosdh1xbgxho6w85siezp,zdFLHTFo,2020-0188,2021-10-30,22:37:42,00:01:07,NA,incomplete,false,NA,NA,true,1,14,NA,NA,NA,right,n_l_088.jpg,blue,gray,NA,NA,NA,NA,NA,NA,NA,NA,NA,NaN,NA,1796.5,right,1,NA,NA,NA,NA,NA
zdFLHTFo,3ac6mfv6anv2a7u5af0lkpxttwbhzq,39dd6s19jtosdh1xbgxho6w85siezp,zdFLHTFo,2020-0188,2021-10-30,22:37:42,00:01:07,NA,incomplete,false,NA,NA,true,1,15,NA,NA,NA,right,m_l_086.jpg,black,orange,NA,NA,NA,NA,NA,NA,NA,NA,NA,NaN,NA,1454.7000000029802,left,0,NA,NA,NA,NA,NA
zdFLHTFo,3ac6mfv6anv2a7u5af0lkpxttwbhzq,39dd6s19jtosdh1xbgxho6w85siezp,zdFLHTFo,2020-0188,2021-10-30,22:37:42,00:01:07,NA,incomplete,false,NA,NA,true,1,16,NA,NA,NA,right,n_l_067.jpg,black,brown,NA,NA,NA,NA,NA,NA,NA,NA,NA,NaN,NA,1695.8000000044703,right,1,NA,NA,NA,NA,NA
zdFLHTFo,3ac6mfv6anv2a7u5af0lkpxttwbhzq,39dd6s19jtosdh1xbgxho6w85siezp,zdFLHTFo,2020-0188,2021-10-30,22:37:42,00:01:07,NA,incomplete,false,NA,NA,true,1,17,NA,NA,NA,left,m_s_115.jpg,orange,black,NA,NA,NA,NA,NA,NA,NA,NA,NA,NaN,NA,1718.3999999985099,right,0,NA,NA,NA,NA,NA
zdFLHTFo,3ac6mfv6anv2a7u5af0lkpxttwbhzq,39dd6s19jtosdh1xbgxho6w85siezp,zdFLHTFo,2020-0188,2021-10-30,22:37:42,00:01:07,NA,incomplete,false,NA,NA,true,1,18,NA,NA,NA,right,n_l_096.jpg,gray,blue,NA,NA,NA,NA,NA,NA,NA,NA,NA,NaN,NA,2383.3000000044703,right,1,NA,NA,NA,NA,NA
zdFLHTFo,3ac6mfv6anv2a7u5af0lkpxttwbhzq,39dd6s19jtosdh1xbgxho6w85siezp,zdFLHTFo,2020-0188,2021-10-30,22:37:42,00:01:07,NA,incomplete,false,NA,NA,true,1,19,NA,NA,NA,right,n_s_088.jpg,blue,purple,NA,NA,NA,NA,NA,NA,NA,NA,NA,NaN,NA,3164.3000000044703,right,1,NA,NA,NA,NA,NA
zdFLHTFo,3ac6mfv6anv2a7u5af0lkpxttwbhzq,39dd6s19jtosdh1xbgxho6w85siezp,zdFLHTFo,2020-0188,2021-10-30,22:37:42,00:01:07,NA,incomplete,false,NA,NA,true,1,20,NA,NA,NA,right,n_l_025.jpg,gray,blue,NA,NA,NA,NA,NA,NA,NA,NA,NA,NaN,NA,2414.5,right,1,NA,NA,NA,NA,NA
zdFLHTFo,3ac6mfv6anv2a7u5af0lkpxttwbhzq,39dd6s19jtosdh1xbgxho6w85siezp,zdFLHTFo,2020-0188,2021-10-30,22:37:42,00:01:07,NA,incomplete,false,NA,NA,true,1,21,NA,NA,NA,right,n_l_033.jpg,blue,gray,NA,NA,NA,NA,NA,NA,NA,NA,NA,NaN,NA,3847.1999999955297,right,1,NA,NA,NA,NA,NA
zdFLHTFo,3ac6mfv6anv2a7u5af0lkpxttwbhzq,39dd6s19jtosdh1xbgxho6w85siezp,zdFLHTFo,2020-0188,2021-10-30,22:37:42,00:01:07,NA,incomplete,false,NA,true,NA,1,0,NA,NA,NA,right,NA,NA,NA,absent,NA,NA,n_l_025.jpg,blue,m_l_051.jpg,blue,within,NA,NaN,NA,NA,NA,NA,left,3857.2000000029802,0,2,2269.89999999851
zdFLHTFo,3ac6mfv6anv2a7u5af0lkpxttwbhzq,39dd6s19jtosdh1xbgxho6w85siezp,zdFLHTFo,2020-0188,2021-10-30,22:37:42,00:01:07,NA,incomplete,false,NA,true,NA,1,1,NA,NA,NA,right,NA,NA,NA,absent,NA,NA,m_l_106.jpg,brown,n_s_117.jpg,black,between,NA,NaN,NA,NA,NA,NA,left,4153,0,2,1927.6000000014901
zdFLHTFo,3ac6mfv6anv2a7u5af0lkpxttwbhzq,39dd6s19jtosdh1xbgxho6w85siezp,zdFLHTFo,2020-0188,2021-10-30,22:37:42,00:01:07,NA,incomplete,false,NA,true,NA,1,2,NA,NA,NA,right,NA,NA,NA,absent,NA,NA,m_s_018.jpg,gray,n_l_033.jpg,gray,within,NA,NaN,NA,NA,NA,NA,right,4203.20000000298,1,1,1325.6000000014901
zdFLHTFo,3ac6mfv6anv2a7u5af0lkpxttwbhzq,39dd6s19jtosdh1xbgxho6w85siezp,zdFLHTFo,2020-0188,2021-10-30,22:37:42,00:01:07,NA,incomplete,false,NA,true,NA,1,3,NA,NA,NA,left,NA,NA,NA,absent,NA,NA,m_l_086.jpg,orange,n_s_036.jpg,black,between,NA,NaN,NA,NA,NA,NA,right,2611.7000000029802,0,1,2427.89999999851
zdFLHTFo,3ac6mfv6anv2a7u5af0lkpxttwbhzq,39dd6s19jtosdh1xbgxho6w85siezp,zdFLHTFo,2020-0188,2021-10-30,22:37:42,00:01:07,NA,incomplete,false,NA,true,NA,1,4,NA,NA,NA,left,NA,NA,NA,absent,NA,NA,m_l_022.jpg,orange,m_s_115.jpg,orange,within,NA,NaN,NA,NA,NA,NA,right,4511.5,0,1,4103
zdFLHTFo,3ac6mfv6anv2a7u5af0lkpxttwbhzq,39dd6s19jtosdh1xbgxho6w85siezp,zdFLHTFo,2020-0188,2021-10-30,22:37:42,00:01:07,NA,incomplete,false,NA,true,NA,1,5,NA,NA,NA,right,NA,NA,NA,absent,NA,NA,m_s_081.jpg,black,n_l_047.jpg,black,within,NA,NaN,NA,NA,NA,NA,left,4576.79999999702,0,1,2414.89999999851
zdFLHTFo,3ac6mfv6anv2a7u5af0lkpxttwbhzq,39dd6s19jtosdh1xbgxho6w85siezp,zdFLHTFo,2020-0188,2021-10-30,22:37:42,00:01:07,NA,incomplete,false,NA,true,NA,1,6,NA,NA,NA,right,NA,NA,NA,absent,NA,NA,m_s_025.jpg,purple,n_l_096.jpg,blue,between,NA,NaN,NA,NA,NA,NA,right,2773.1999999955297,1,2,2025
zdFLHTFo,3ac6mfv6anv2a7u5af0lkpxttwbhzq,39dd6s19jtosdh1xbgxho6w85siezp,zdFLHTFo,2020-0188,2021-10-30,22:37:42,00:01:07,NA,incomplete,false,NA,true,NA,1,7,NA,NA,NA,left,NA,NA,NA,absent,NA,NA,n_l_067.jpg,brown,m_l_075.jpg,brown,within,NA,NaN,NA,NA,NA,NA,right,2778.9000000059605,0,2,1436.7000000029802
zdFLHTFo,3ac6mfv6anv2a7u5af0lkpxttwbhzq,39dd6s19jtosdh1xbgxho6w85siezp,zdFLHTFo,2020-0188,2021-10-30,22:37:42,00:01:07,NA,incomplete,false,NA,true,NA,1,8,NA,NA,NA,right,NA,NA,NA,absent,NA,NA,m_l_061.jpg,purple,n_s_088.jpg,purple,within,NA,NaN,NA,NA,NA,NA,right,2834.5,1,2,1917
zdFLHTFo,3ac6mfv6anv2a7u5af0lkpxttwbhzq,39dd6s19jtosdh1xbgxho6w85siezp,zdFLHTFo,2020-0188,2021-10-30,22:37:42,00:01:07,NA,incomplete,false,NA,true,NA,1,9,NA,NA,NA,left,NA,NA,NA,absent,NA,NA,n_l_075.jpg,brown,n_l_088.jpg,gray,between,NA,NaN,NA,NA,NA,NA,right,2487.10000000149,0,2,3445.8000000044703
zdFLHTFo,3ac6mfv6anv2a7u5af0lkpxttwbhzq,39dd6s19jtosdh1xbgxho6w85siezp,zdFLHTFo,2020-0188,2021-10-30,22:37:42,00:01:07,NA,incomplete,false,NA,true,NA,1,10,NA,NA,NA,right,NA,NA,NA,absent,NA,NA,n_l_054.jpg,blue,n_l_039.jpg,gray,between,NA,NaN,NA,NA,NA,NA,right,2388.2000000029802,1,2,2078.7000000029802
zdFLHTFo,3ac6mfv6anv2a7u5af0lkpxttwbhzq,39dd6s19jtosdh1xbgxho6w85siezp,zdFLHTFo,2020-0188,2021-10-30,22:37:42,00:01:07,NA,incomplete,false,true,NA,NA,2,0,NA,white,n_l_042.jpg,NA,NA,NA,NA,NA,unpleasant,pleasant,NA,NA,NA,NA,NA,left,3220.39999999851,true,NA,NA,NA,NA,NA,NA,NA,NA
zdFLHTFo,3ac6mfv6anv2a7u5af0lkpxttwbhzq,39dd6s19jtosdh1xbgxho6w85siezp,zdFLHTFo,2020-0188,2021-10-30,22:37:42,00:01:07,NA,incomplete,false,true,NA,NA,2,1,NA,white,n_s_091.jpg,NA,NA,NA,NA,NA,unpleasant,pleasant,NA,NA,NA,NA,NA,left,1369.5,true,NA,NA,NA,NA,NA,NA,NA,NA
zdFLHTFo,3ac6mfv6anv2a7u5af0lkpxttwbhzq,39dd6s19jtosdh1xbgxho6w85siezp,zdFLHTFo,2020-0188,2021-10-30,22:37:42,00:01:07,NA,incomplete,false,true,NA,NA,2,2,NA,white,m_l_117.jpg,NA,NA,NA,NA,NA,pleasant,unpleasant,NA,NA,NA,NA,NA,left,1744.5,true,NA,NA,NA,NA,NA,NA,NA,NA
zdFLHTFo,3ac6mfv6anv2a7u5af0lkpxttwbhzq,39dd6s19jtosdh1xbgxho6w85siezp,zdFLHTFo,2020-0188,2021-10-30,22:37:42,00:01:07,NA,incomplete,false,true,NA,NA,2,3,NA,white,n_l_040.jpg,NA,NA,NA,NA,NA,pleasant,unpleasant,NA,NA,NA,NA,NA,left,1472.39999999851,true,NA,NA,NA,NA,NA,NA,NA,NA
zdFLHTFo,3ac6mfv6anv2a7u5af0lkpxttwbhzq,39dd6s19jtosdh1xbgxho6w85siezp,zdFLHTFo,2020-0188,2021-10-30,22:37:42,00:01:07,NA,incomplete,false,true,NA,NA,2,4,NA,white,m_l_078.jpg,NA,NA,NA,NA,NA,pleasant,unpleasant,NA,NA,NA,NA,NA,left,1134.5,true,NA,NA,NA,NA,NA,NA,NA,NA
zdFLHTFo,3ac6mfv6anv2a7u5af0lkpxttwbhzq,39dd6s19jtosdh1xbgxho6w85siezp,zdFLHTFo,2020-0188,2021-10-30,22:37:42,00:01:07,NA,incomplete,false,true,NA,NA,2,5,NA,white,m_l_004.jpg,NA,NA,NA,NA,NA,pleasant,unpleasant,NA,NA,NA,NA,NA,left,1093.39999999851,true,NA,NA,NA,NA,NA,NA,NA,NA
zdFLHTFo,3ac6mfv6anv2a7u5af0lkpxttwbhzq,39dd6s19jtosdh1xbgxho6w85siezp,zdFLHTFo,2020-0188,2021-10-30,22:37:42,00:01:07,NA,incomplete,false,true,NA,NA,2,6,NA,green,n_l_012.jpg,NA,NA,NA,NA,NA,unpleasant,pleasant,NA,NA,NA,NA,NA,right,1436.10000000149,true,NA,NA,NA,NA,NA,NA,NA,NA
zdFLHTFo,3ac6mfv6anv2a7u5af0lkpxttwbhzq,39dd6s19jtosdh1xbgxho6w85siezp,zdFLHTFo,2020-0188,2021-10-30,22:37:42,00:01:07,NA,incomplete,false,true,NA,NA,2,7,NA,green,m_l_105.jpg,NA,NA,NA,NA,NA,unpleasant,pleasant,NA,NA,NA,NA,NA,right,1818.89999999851,true,NA,NA,NA,NA,NA,NA,NA,NA
zdFLHTFo,3ac6mfv6anv2a7u5af0lkpxttwbhzq,39dd6s19jtosdh1xbgxho6w85siezp,zdFLHTFo,2020-0188,2021-10-30,22:37:42,00:01:07,NA,incomplete,false,true,NA,NA,2,8,NA,green,n_l_005.jpg,NA,NA,NA,NA,NA,pleasant,unpleasant,NA,NA,NA,NA,NA,left,1241.89999999851,true,NA,NA,NA,NA,NA,NA,NA,NA
zdFLHTFo,3ac6mfv6anv2a7u5af0lkpxttwbhzq,39dd6s19jtosdh1xbgxho6w85siezp,zdFLHTFo,2020-0188,2021-10-30,22:37:42,00:01:07,NA,incomplete,false,true,NA,NA,2,9,NA,green,m_s_109.jpg,NA,NA,NA,NA,NA,pleasant,unpleasant,NA,NA,NA,NA,NA,left,1267.60000000149,true,NA,NA,NA,NA,NA,NA,NA,NA
zdFLHTFo,3ac6mfv6anv2a7u5af0lkpxttwbhzq,39dd6s19jtosdh1xbgxho6w85siezp,zdFLHTFo,2020-0188,2021-10-30,22:37:42,00:01:07,NA,incomplete,false,true,NA,NA,2,10,NA,green,n_l_049.jpg,NA,NA,NA,NA,NA,unpleasant,pleasant,NA,NA,NA,NA,NA,right,1096.20000000298,true,NA,NA,NA,NA,NA,NA,NA,NA
zdFLHTFo,3ac6mfv6anv2a7u5af0lkpxttwbhzq,39dd6s19jtosdh1xbgxho6w85siezp,zdFLHTFo,2020-0188,2021-10-30,22:37:42,00:01:07,NA,incomplete,false,true,NA,NA,2,11,NA,green,n_s_022.jpg,NA,NA,NA,NA,NA,unpleasant,pleasant,NA,NA,NA,NA,NA,right,1543.29999999702,true,NA,NA,NA,NA,NA,NA,NA,NA
zdFLHTFo,3ac6mfv6anv2a7u5af0lkpxttwbhzq,39dd6s19jtosdh1xbgxho6w85siezp,zdFLHTFo,2020-0188,2021-10-30,22:37:42,00:01:07,NA,incomplete,false,true,NA,NA,2,12,NA,brown,n_l_110.jpg,NA,NA,NA,NA,NA,pleasant,unpleasant,NA,NA,NA,NA,NA,left,1575.29999999702,true,NA,NA,NA,NA,NA,NA,NA,NA
zdFLHTFo,3ac6mfv6anv2a7u5af0lkpxttwbhzq,39dd6s19jtosdh1xbgxho6w85siezp,zdFLHTFo,2020-0188,2021-10-30,22:37:42,00:01:07,NA,incomplete,false,true,NA,NA,2,13,NA,brown,n_s_035.jpg,NA,NA,NA,NA,NA,unpleasant,pleasant,NA,NA,NA,NA,NA,right,1015.70000000298,true,NA,NA,NA,NA,NA,NA,NA,NA
zdFLHTFo,3ac6mfv6anv2a7u5af0lkpxttwbhzq,39dd6s19jtosdh1xbgxho6w85siezp,zdFLHTFo,2020-0188,2021-10-30,22:37:42,00:01:07,NA,incomplete,false,true,NA,NA,2,14,NA,brown,n_l_038.jpg,NA,NA,NA,NA,NA,unpleasant,pleasant,NA,NA,NA,NA,NA,right,1046.40000000596,true,NA,NA,NA,NA,NA,NA,NA,NA
zdFLHTFo,3ac6mfv6anv2a7u5af0lkpxttwbhzq,39dd6s19jtosdh1xbgxho6w85siezp,zdFLHTFo,2020-0188,2021-10-30,22:37:42,00:01:07,NA,incomplete,false,true,NA,NA,2,15,NA,brown,m_l_094.jpg,NA,NA,NA,NA,NA,pleasant,unpleasant,NA,NA,NA,NA,NA,left,1476.79999999702,true,NA,NA,NA,NA,NA,NA,NA,NA
zdFLHTFo,3ac6mfv6anv2a7u5af0lkpxttwbhzq,39dd6s19jtosdh1xbgxho6w85siezp,zdFLHTFo,2020-0188,2021-10-30,22:37:42,00:01:07,NA,incomplete,false,true,NA,NA,2,16,NA,brown,m_l_039.jpg,NA,NA,NA,NA,NA,unpleasant,pleasant,NA,NA,NA,NA,NA,right,1596.59999999404,true,NA,NA,NA,NA,NA,NA,NA,NA
zdFLHTFo,3ac6mfv6anv2a7u5af0lkpxttwbhzq,39dd6s19jtosdh1xbgxho6w85siezp,zdFLHTFo,2020-0188,2021-10-30,22:37:42,00:01:07,NA,incomplete,false,true,NA,NA,2,17,NA,brown,n_s_016.jpg,NA,NA,NA,NA,NA,unpleasant,pleasant,NA,NA,NA,NA,NA,right,1092.89999999851,true,NA,NA,NA,NA,NA,NA,NA,NA
zdFLHTFo,3ac6mfv6anv2a7u5af0lkpxttwbhzq,39dd6s19jtosdh1xbgxho6w85siezp,zdFLHTFo,2020-0188,2021-10-30,22:37:42,00:01:07,NA,incomplete,false,true,NA,NA,2,18,NA,orange,n_s_059.jpg,NA,NA,NA,NA,NA,pleasant,unpleasant,NA,NA,NA,NA,NA,left,1493.20000000298,true,NA,NA,NA,NA,NA,NA,NA,NA
zdFLHTFo,3ac6mfv6anv2a7u5af0lkpxttwbhzq,39dd6s19jtosdh1xbgxho6w85siezp,zdFLHTFo,2020-0188,2021-10-30,22:37:42,00:01:07,NA,incomplete,false,true,NA,NA,2,19,NA,orange,m_s_070.jpg,NA,NA,NA,NA,NA,pleasant,unpleasant,NA,NA,NA,NA,NA,left,1034.70000000298,true,NA,NA,NA,NA,NA,NA,NA,NA
zdFLHTFo,3ac6mfv6anv2a7u5af0lkpxttwbhzq,39dd6s19jtosdh1xbgxho6w85siezp,zdFLHTFo,2020-0188,2021-10-30,22:37:42,00:01:07,NA,incomplete,false,true,NA,NA,2,20,NA,orange,m_s_093.jpg,NA,NA,NA,NA,NA,unpleasant,pleasant,NA,NA,NA,NA,NA,right,1419.30000000447,true,NA,NA,NA,NA,NA,NA,NA,NA
zdFLHTFo,3ac6mfv6anv2a7u5af0lkpxttwbhzq,39dd6s19jtosdh1xbgxho6w85siezp,zdFLHTFo,2020-0188,2021-10-30,22:37:42,00:01:07,NA,incomplete,false,true,NA,NA,2,21,NA,orange,n_s_040.jpg,NA,NA,NA,NA,NA,pleasant,unpleasant,NA,NA,NA,NA,NA,right,1496.79999999702,true,NA,NA,NA,NA,NA,NA,NA,NA
zdFLHTFo,3ac6mfv6anv2a7u5af0lkpxttwbhzq,39dd6s19jtosdh1xbgxho6w85siezp,zdFLHTFo,2020-0188,2021-10-30,22:37:42,00:01:07,NA,incomplete,false,true,NA,NA,2,22,NA,orange,m_s_015.jpg,NA,NA,NA,NA,NA,unpleasant,pleasant,NA,NA,NA,NA,NA,right,1167.69999999553,true,NA,NA,NA,NA,NA,NA,NA,NA
zdFLHTFo,3ac6mfv6anv2a7u5af0lkpxttwbhzq,39dd6s19jtosdh1xbgxho6w85siezp,zdFLHTFo,2020-0188,2021-10-30,22:37:42,00:01:07,NA,incomplete,false,true,NA,NA,2,23,NA,orange,n_l_108.jpg,NA,NA,NA,NA,NA,pleasant,unpleasant,NA,NA,NA,NA,NA,left,1399.10000000149,true,NA,NA,NA,NA,NA,NA,NA,NA
zdFLHTFo,3ac6mfv6anv2a7u5af0lkpxttwbhzq,39dd6s19jtosdh1xbgxho6w85siezp,zdFLHTFo,2020-0188,2021-10-30,22:37:42,00:01:07,NA,incomplete,false,true,NA,NA,2,24,NA,blue,m_s_072.jpg,NA,NA,NA,NA,NA,unpleasant,pleasant,NA,NA,NA,NA,NA,right,1182.79999999702,true,NA,NA,NA,NA,NA,NA,NA,NA
zdFLHTFo,3ac6mfv6anv2a7u5af0lkpxttwbhzq,39dd6s19jtosdh1xbgxho6w85siezp,zdFLHTFo,2020-0188,2021-10-30,22:37:42,00:01:07,NA,incomplete,false,true,NA,NA,2,25,NA,blue,m_l_093.jpg,NA,NA,NA,NA,NA,unpleasant,pleasant,NA,NA,NA,NA,NA,right,1301.39999999851,true,NA,NA,NA,NA,NA,NA,NA,NA
zdFLHTFo,3ac6mfv6anv2a7u5af0lkpxttwbhzq,39dd6s19jtosdh1xbgxho6w85siezp,zdFLHTFo,2020-0188,2021-10-30,22:37:42,00:01:07,NA,incomplete,false,true,NA,NA,2,26,NA,blue,n_l_086.jpg,NA,NA,NA,NA,NA,pleasant,unpleasant,NA,NA,NA,NA,NA,left,1908.5,true,NA,NA,NA,NA,NA,NA,NA,NA
zdFLHTFo,3ac6mfv6anv2a7u5af0lkpxttwbhzq,39dd6s19jtosdh1xbgxho6w85siezp,zdFLHTFo,2020-0188,2021-10-30,22:37:42,00:01:07,NA,incomplete,false,true,NA,NA,2,27,NA,blue,n_s_051.jpg,NA,NA,NA,NA,NA,pleasant,unpleasant,NA,NA,NA,NA,NA,left,1267.60000000149,true,NA,NA,NA,NA,NA,NA,NA,NA
zdFLHTFo,3ac6mfv6anv2a7u5af0lkpxttwbhzq,39dd6s19jtosdh1xbgxho6w85siezp,zdFLHTFo,2020-0188,2021-10-30,22:37:42,00:01:07,NA,incomplete,false,true,NA,NA,2,28,NA,blue,m_s_113.jpg,NA,NA,NA,NA,NA,unpleasant,pleasant,NA,NA,NA,NA,NA,right,1186.20000000298,true,NA,NA,NA,NA,NA,NA,NA,NA
zdFLHTFo,3ac6mfv6anv2a7u5af0lkpxttwbhzq,39dd6s19jtosdh1xbgxho6w85siezp,zdFLHTFo,2020-0188,2021-10-30,22:37:42,00:01:07,NA,incomplete,false,true,NA,NA,2,29,NA,blue,m_s_100.jpg,NA,NA,NA,NA,NA,unpleasant,pleasant,NA,NA,NA,NA,NA,right,793.30000000447,true,NA,NA,NA,NA,NA,NA,NA,NA
zdFLHTFo,3ac6mfv6anv2a7u5af0lkpxttwbhzq,39dd6s19jtosdh1xbgxho6w85siezp,zdFLHTFo,2020-0188,2021-10-30,22:37:42,00:01:07,NA,incomplete,false,true,NA,NA,2,30,NA,gray,m_l_063.jpg,NA,NA,NA,NA,NA,unpleasant,pleasant,NA,NA,NA,NA,NA,right,823.29999999702,true,NA,NA,NA,NA,NA,NA,NA,NA
zdFLHTFo,3ac6mfv6anv2a7u5af0lkpxttwbhzq,39dd6s19jtosdh1xbgxho6w85siezp,zdFLHTFo,2020-0188,2021-10-30,22:37:42,00:01:07,NA,incomplete,false,true,NA,NA,2,31,NA,gray,m_l_092.jpg,NA,NA,NA,NA,NA,unpleasant,pleasant,NA,NA,NA,NA,NA,left,1608.20000000298,true,NA,NA,NA,NA,NA,NA,NA,NA
zdFLHTFo,3ac6mfv6anv2a7u5af0lkpxttwbhzq,39dd6s19jtosdh1xbgxho6w85siezp,zdFLHTFo,2020-0188,2021-10-30,22:37:42,00:01:07,NA,incomplete,false,true,NA,NA,2,32,NA,gray,n_s_076.jpg,NA,NA,NA,NA,NA,unpleasant,pleasant,NA,NA,NA,NA,NA,right,1021.20000000298,true,NA,NA,NA,NA,NA,NA,NA,NA
zdFLHTFo,3ac6mfv6anv2a7u5af0lkpxttwbhzq,39dd6s19jtosdh1xbgxho6w85siezp,zdFLHTFo,2020-0188,2021-10-30,22:37:42,00:01:07,NA,incomplete,false,true,NA,NA,2,33,NA,gray,m_s_042.jpg,NA,NA,NA,NA,NA,pleasant,unpleasant,NA,NA,NA,NA,NA,left,1395.79999999702,true,NA,NA,NA,NA,NA,NA,NA,NA
zdFLHTFo,3ac6mfv6anv2a7u5af0lkpxttwbhzq,39dd6s19jtosdh1xbgxho6w85siezp,zdFLHTFo,2020-0188,2021-10-30,22:37:42,00:01:07,NA,incomplete,false,true,NA,NA,2,34,NA,gray,n_s_045.jpg,NA,NA,NA,NA,NA,unpleasant,pleasant,NA,NA,NA,NA,NA,right,1083.29999999702,true,NA,NA,NA,NA,NA,NA,NA,NA
zdFLHTFo,3ac6mfv6anv2a7u5af0lkpxttwbhzq,39dd6s19jtosdh1xbgxho6w85siezp,zdFLHTFo,2020-0188,2021-10-30,22:37:42,00:01:07,NA,incomplete,false,true,NA,NA,2,35,NA,gray,m_s_085.jpg,NA,NA,NA,NA,NA,pleasant,unpleasant,NA,NA,NA,NA,NA,right,1794.80000000447,true,NA,NA,NA,NA,NA,NA,NA,NA
zdFLHTFo,3ac6mfv6anv2a7u5af0lkpxttwbhzq,39dd6s19jtosdh1xbgxho6w85siezp,zdFLHTFo,2020-0188,2021-10-30,22:37:42,00:01:07,NA,incomplete,false,NA,NA,true,2,0,NA,NA,NA,left,n_l_108.jpg,orange,brown,NA,NA,NA,NA,NA,NA,NA,NA,NA,NaN,NA,3536.2999999970198,right,0,NA,NA,NA,NA,NA
zdFLHTFo,3ac6mfv6anv2a7u5af0lkpxttwbhzq,39dd6s19jtosdh1xbgxho6w85siezp,zdFLHTFo,2020-0188,2021-10-30,22:37:42,00:01:07,NA,incomplete,false,NA,NA,true,2,1,NA,NA,NA,left,n_s_091.jpg,white,green,NA,NA,NA,NA,NA,NA,NA,NA,NA,NaN,NA,1758.3999999985099,right,0,NA,NA,NA,NA,NA
zdFLHTFo,3ac6mfv6anv2a7u5af0lkpxttwbhzq,39dd6s19jtosdh1xbgxho6w85siezp,zdFLHTFo,2020-0188,2021-10-30,22:37:42,00:01:07,NA,incomplete,false,NA,NA,true,2,2,NA,NA,NA,left,m_s_015.jpg,orange,blue,NA,NA,NA,NA,NA,NA,NA,NA,NA,NaN,NA,2197.7999999970198,right,0,NA,NA,NA,NA,NA
zdFLHTFo,3ac6mfv6anv2a7u5af0lkpxttwbhzq,39dd6s19jtosdh1xbgxho6w85siezp,zdFLHTFo,2020-0188,2021-10-30,22:37:42,00:01:07,NA,incomplete,false,NA,NA,true,2,3,NA,NA,NA,left,n_l_049.jpg,green,brown,NA,NA,NA,NA,NA,NA,NA,NA,NA,NaN,NA,1538.2999999970198,right,0,NA,NA,NA,NA,NA
zdFLHTFo,3ac6mfv6anv2a7u5af0lkpxttwbhzq,39dd6s19jtosdh1xbgxho6w85siezp,zdFLHTFo,2020-0188,2021-10-30,22:37:42,00:01:07,NA,incomplete,false,NA,NA,true,2,4,NA,NA,NA,right,n_s_035.jpg,green,brown,NA,NA,NA,NA,NA,NA,NA,NA,NA,NaN,NA,1746.1999999955297,right,1,NA,NA,NA,NA,NA
zdFLHTFo,3ac6mfv6anv2a7u5af0lkpxttwbhzq,39dd6s19jtosdh1xbgxho6w85siezp,zdFLHTFo,2020-0188,2021-10-30,22:37:42,00:01:07,NA,incomplete,false,NA,NA,true,2,5,NA,NA,NA,left,n_l_038.jpg,brown,green,NA,NA,NA,NA,NA,NA,NA,NA,NA,NaN,NA,2036.6000000014901,left,1,NA,NA,NA,NA,NA
zdFLHTFo,3ac6mfv6anv2a7u5af0lkpxttwbhzq,39dd6s19jtosdh1xbgxho6w85siezp,zdFLHTFo,2020-0188,2021-10-30,22:37:42,00:01:07,NA,incomplete,false,NA,NA,true,2,6,NA,NA,NA,right,m_l_092.jpg,blue,gray,NA,NA,NA,NA,NA,NA,NA,NA,NA,NaN,NA,1646.6999999955297,right,1,NA,NA,NA,NA,NA
zdFLHTFo,3ac6mfv6anv2a7u5af0lkpxttwbhzq,39dd6s19jtosdh1xbgxho6w85siezp,zdFLHTFo,2020-0188,2021-10-30,22:37:42,00:01:07,NA,incomplete,false,NA,NA,true,2,7,NA,NA,NA,left,m_l_093.jpg,blue,orange,NA,NA,NA,NA,NA,NA,NA,NA,NA,NaN,NA,5014.20000000298,right,0,NA,NA,NA,NA,NA
zdFLHTFo,3ac6mfv6anv2a7u5af0lkpxttwbhzq,39dd6s19jtosdh1xbgxho6w85siezp,zdFLHTFo,2020-0188,2021-10-30,22:37:42,00:01:07,NA,incomplete,false,NA,NA,true,2,8,NA,NA,NA,left,m_s_085.jpg,gray,blue,NA,NA,NA,NA,NA,NA,NA,NA,NA,NaN,NA,3822.7000000029802,right,0,NA,NA,NA,NA,NA
zdFLHTFo,3ac6mfv6anv2a7u5af0lkpxttwbhzq,39dd6s19jtosdh1xbgxho6w85siezp,zdFLHTFo,2020-0188,2021-10-30,22:37:42,00:01:07,NA,incomplete,false,NA,NA,true,2,9,NA,NA,NA,left,n_s_076.jpg,gray,blue,NA,NA,NA,NA,NA,NA,NA,NA,NA,NaN,NA,1890.6000000014901,right,0,NA,NA,NA,NA,NA
zdFLHTFo,3ac6mfv6anv2a7u5af0lkpxttwbhzq,39dd6s19jtosdh1xbgxho6w85siezp,zdFLHTFo,2020-0188,2021-10-30,22:37:42,00:01:07,NA,incomplete,false,NA,NA,true,2,10,NA,NA,NA,left,n_l_005.jpg,green,brown,NA,NA,NA,NA,NA,NA,NA,NA,NA,NaN,NA,1542.3000000044703,right,0,NA,NA,NA,NA,NA
zdFLHTFo,3ac6mfv6anv2a7u5af0lkpxttwbhzq,39dd6s19jtosdh1xbgxho6w85siezp,zdFLHTFo,2020-0188,2021-10-30,22:37:42,00:01:07,NA,incomplete,false,NA,NA,true,2,11,NA,NA,NA,right,n_s_016.jpg,orange,brown,NA,NA,NA,NA,NA,NA,NA,NA,NA,NaN,NA,1351.7999999970198,right,1,NA,NA,NA,NA,NA
zdFLHTFo,3ac6mfv6anv2a7u5af0lkpxttwbhzq,39dd6s19jtosdh1xbgxho6w85siezp,zdFLHTFo,2020-0188,2021-10-30,22:37:42,00:01:07,NA,incomplete,false,NA,NA,true,2,12,NA,NA,NA,left,n_l_086.jpg,blue,gray,NA,NA,NA,NA,NA,NA,NA,NA,NA,NaN,NA,2572.3000000044703,left,1,NA,NA,NA,NA,NA
zdFLHTFo,3ac6mfv6anv2a7u5af0lkpxttwbhzq,39dd6s19jtosdh1xbgxho6w85siezp,zdFLHTFo,2020-0188,2021-10-30,22:37:42,00:01:07,NA,incomplete,false,NA,NA,true,2,13,NA,NA,NA,left,n_s_022.jpg,green,white,NA,NA,NA,NA,NA,NA,NA,NA,NA,NaN,NA,2410.5999999940395,left,1,NA,NA,NA,NA,NA
zdFLHTFo,3ac6mfv6anv2a7u5af0lkpxttwbhzq,39dd6s19jtosdh1xbgxho6w85siezp,zdFLHTFo,2020-0188,2021-10-30,22:37:42,00:01:07,NA,incomplete,false,NA,NA,true,2,14,NA,NA,NA,right,m_l_105.jpg,brown,green,NA,NA,NA,NA,NA,NA,NA,NA,NA,NaN,NA,3004.5,left,0,NA,NA,NA,NA,NA
zdFLHTFo,3ac6mfv6anv2a7u5af0lkpxttwbhzq,39dd6s19jtosdh1xbgxho6w85siezp,zdFLHTFo,2020-0188,2021-10-30,22:37:42,00:01:07,NA,incomplete,false,NA,NA,true,2,15,NA,NA,NA,left,m_l_004.jpg,white,green,NA,NA,NA,NA,NA,NA,NA,NA,NA,NaN,NA,2032.9000000059605,right,0,NA,NA,NA,NA,NA
zdFLHTFo,3ac6mfv6anv2a7u5af0lkpxttwbhzq,39dd6s19jtosdh1xbgxho6w85siezp,zdFLHTFo,2020-0188,2021-10-30,22:37:42,00:01:07,NA,incomplete,false,NA,NA,true,2,16,NA,NA,NA,right,m_s_093.jpg,blue,orange,NA,NA,NA,NA,NA,NA,NA,NA,NA,NaN,NA,3968.6999999955297,right,1,NA,NA,NA,NA,NA
zdFLHTFo,3ac6mfv6anv2a7u5af0lkpxttwbhzq,39dd6s19jtosdh1xbgxho6w85siezp,zdFLHTFo,2020-0188,2021-10-30,22:37:42,00:01:07,NA,incomplete,false,NA,NA,true,2,17,NA,NA,NA,left,m_l_039.jpg,brown,orange,NA,NA,NA,NA,NA,NA,NA,NA,NA,NaN,NA,1675.8999999985099,right,0,NA,NA,NA,NA,NA
zdFLHTFo,3ac6mfv6anv2a7u5af0lkpxttwbhzq,39dd6s19jtosdh1xbgxho6w85siezp,zdFLHTFo,2020-0188,2021-10-30,22:37:42,00:01:07,NA,incomplete,false,NA,NA,true,2,18,NA,NA,NA,left,m_s_070.jpg,orange,brown,NA,NA,NA,NA,NA,NA,NA,NA,NA,NaN,NA,2402,right,0,NA,NA,NA,NA,NA
zdFLHTFo,3ac6mfv6anv2a7u5af0lkpxttwbhzq,39dd6s19jtosdh1xbgxho6w85siezp,zdFLHTFo,2020-0188,2021-10-30,22:37:42,00:01:07,NA,incomplete,false,NA,NA,true,2,19,NA,NA,NA,right,m_s_113.jpg,gray,blue,NA,NA,NA,NA,NA,NA,NA,NA,NA,NaN,NA,2514.5,right,1,NA,NA,NA,NA,NA
zdFLHTFo,3ac6mfv6anv2a7u5af0lkpxttwbhzq,39dd6s19jtosdh1xbgxho6w85siezp,zdFLHTFo,2020-0188,2021-10-30,22:37:42,00:01:07,NA,incomplete,false,NA,NA,true,2,20,NA,NA,NA,left,m_s_100.jpg,blue,gray,NA,NA,NA,NA,NA,NA,NA,NA,NA,NaN,NA,2876.7999999970198,right,0,NA,NA,NA,NA,NA
zdFLHTFo,3ac6mfv6anv2a7u5af0lkpxttwbhzq,39dd6s19jtosdh1xbgxho6w85siezp,zdFLHTFo,2020-0188,2021-10-30,22:37:42,00:01:07,NA,incomplete,false,NA,NA,true,2,21,NA,NA,NA,right,m_l_078.jpg,green,white,NA,NA,NA,NA,NA,NA,NA,NA,NA,NaN,NA,2282.89999999851,right,1,NA,NA,NA,NA,NA
zdFLHTFo,3ac6mfv6anv2a7u5af0lkpxttwbhzq,39dd6s19jtosdh1xbgxho6w85siezp,zdFLHTFo,2020-0188,2021-10-30,22:37:42,00:01:07,NA,incomplete,false,NA,true,NA,2,0,NA,NA,NA,right,NA,NA,NA,absent,NA,NA,n_l_038.jpg,brown,n_l_049.jpg,green,between,NA,NaN,NA,NA,NA,NA,left,3115.10000000149,0,1,2265.3000000044703
zdFLHTFo,3ac6mfv6anv2a7u5af0lkpxttwbhzq,39dd6s19jtosdh1xbgxho6w85siezp,zdFLHTFo,2020-0188,2021-10-30,22:37:42,00:01:07,NA,incomplete,false,NA,true,NA,2,1,NA,NA,NA,left,NA,NA,NA,absent,NA,NA,m_s_070.jpg,orange,n_l_108.jpg,orange,within,NA,NaN,NA,NA,NA,NA,right,2667,0,2,1777.3999999985099
zdFLHTFo,3ac6mfv6anv2a7u5af0lkpxttwbhzq,39dd6s19jtosdh1xbgxho6w85siezp,zdFLHTFo,2020-0188,2021-10-30,22:37:42,00:01:07,NA,incomplete,false,NA,true,NA,2,2,NA,NA,NA,right,NA,NA,NA,absent,NA,NA,n_s_076.jpg,gray,m_s_113.jpg,blue,between,NA,NaN,NA,NA,NA,NA,left,3741.10000000149,0,3,1524.6000000014901
zdFLHTFo,3ac6mfv6anv2a7u5af0lkpxttwbhzq,39dd6s19jtosdh1xbgxho6w85siezp,zdFLHTFo,2020-0188,2021-10-30,22:37:42,00:01:07,NA,incomplete,false,NA,true,NA,2,3,NA,NA,NA,right,NA,NA,NA,absent,NA,NA,m_s_100.jpg,blue,m_l_093.jpg,blue,within,NA,NaN,NA,NA,NA,NA,right,2218.9000000059605,1,2,1231.2000000029802
zdFLHTFo,3ac6mfv6anv2a7u5af0lkpxttwbhzq,39dd6s19jtosdh1xbgxho6w85siezp,zdFLHTFo,2020-0188,2021-10-30,22:37:42,00:01:07,NA,incomplete,false,NA,true,NA,2,4,NA,NA,NA,right,NA,NA,NA,absent,NA,NA,n_l_005.jpg,green,m_l_078.jpg,white,between,NA,NaN,NA,NA,NA,NA,left,2354.3000000044703,0,2,1713.0999999940395
zdFLHTFo,3ac6mfv6anv2a7u5af0lkpxttwbhzq,39dd6s19jtosdh1xbgxho6w85siezp,zdFLHTFo,2020-0188,2021-10-30,22:37:42,00:01:07,NA,incomplete,false,NA,true,NA,2,5,NA,NA,NA,left,NA,NA,NA,absent,NA,NA,m_s_015.jpg,orange,n_l_086.jpg,blue,between,NA,NaN,NA,NA,NA,NA,left,2648.9000000059605,1,2,1442.5
zdFLHTFo,3ac6mfv6anv2a7u5af0lkpxttwbhzq,39dd6s19jtosdh1xbgxho6w85siezp,zdFLHTFo,2020-0188,2021-10-30,22:37:42,00:01:07,NA,incomplete,false,NA,true,NA,2,6,NA,NA,NA,left,NA,NA,NA,absent,NA,NA,m_l_092.jpg,gray,m_s_085.jpg,gray,within,NA,NaN,NA,NA,NA,NA,left,2606.60000000149,1,2,1355.8000000044703
zdFLHTFo,3ac6mfv6anv2a7u5af0lkpxttwbhzq,39dd6s19jtosdh1xbgxho6w85siezp,zdFLHTFo,2020-0188,2021-10-30,22:37:42,00:01:07,NA,incomplete,false,NA,true,NA,2,7,NA,NA,NA,left,NA,NA,NA,absent,NA,NA,m_l_039.jpg,brown,m_s_093.jpg,orange,between,NA,NaN,NA,NA,NA,NA,right,1858.8000000044703,0,2,1700.7000000029802
zdFLHTFo,3ac6mfv6anv2a7u5af0lkpxttwbhzq,39dd6s19jtosdh1xbgxho6w85siezp,zdFLHTFo,2020-0188,2021-10-30,22:37:42,00:01:07,NA,incomplete,false,NA,true,NA,2,8,NA,NA,NA,right,NA,NA,NA,absent,NA,NA,m_l_004.jpg,white,n_s_091.jpg,white,within,NA,NaN,NA,NA,NA,NA,left,3062.5,0,2,1689.2000000029802
zdFLHTFo,3ac6mfv6anv2a7u5af0lkpxttwbhzq,39dd6s19jtosdh1xbgxho6w85siezp,zdFLHTFo,2020-0188,2021-10-30,22:37:42,00:01:07,NA,incomplete,false,NA,true,NA,2,9,NA,NA,NA,left,NA,NA,NA,absent,NA,NA,n_s_035.jpg,brown,n_s_016.jpg,brown,within,NA,NaN,NA,NA,NA,NA,left,2162.7999999970198,1,1,1338.8000000044703
zdFLHTFo,3ac6mfv6anv2a7u5af0lkpxttwbhzq,39dd6s19jtosdh1xbgxho6w85siezp,zdFLHTFo,2020-0188,2021-10-30,22:37:42,00:01:07,NA,incomplete,false,NA,true,NA,2,10,NA,NA,NA,left,NA,NA,NA,absent,NA,NA,m_l_105.jpg,green,n_s_022.jpg,green,within,NA,NaN,NA,NA,NA,NA,right,3378.5,0,2,1526.7000000029802
zdFLHTFo,3ac6mfv6anv2a7u5af0lkpxttwbhzq,39dd6s19jtosdh1xbgxho6w85siezp,zdFLHTFo,2020-0188,2021-10-30,22:37:42,00:01:07,NA,incomplete,false,true,NA,NA,3,0,NA,blue,m_l_031.jpg,NA,NA,NA,NA,NA,unpleasant,pleasant,NA,NA,NA,NA,NA,right,2207,true,NA,NA,NA,NA,NA,NA,NA,NA
zdFLHTFo,3ac6mfv6anv2a7u5af0lkpxttwbhzq,39dd6s19jtosdh1xbgxho6w85siezp,zdFLHTFo,2020-0188,2021-10-30,22:37:42,00:01:07,NA,incomplete,false,true,NA,NA,3,1,NA,blue,m_l_024.jpg,NA,NA,NA,NA,NA,pleasant,unpleasant,NA,NA,NA,NA,NA,left,2532.40000000596,true,NA,NA,NA,NA,NA,NA,NA,NA
zdFLHTFo,3ac6mfv6anv2a7u5af0lkpxttwbhzq,39dd6s19jtosdh1xbgxho6w85siezp,zdFLHTFo,2020-0188,2021-10-30,22:37:42,00:01:07,NA,incomplete,false,true,NA,NA,3,2,NA,blue,n_l_109.jpg,NA,NA,NA,NA,NA,unpleasant,pleasant,NA,NA,NA,NA,NA,left,1619.89999999851,true,NA,NA,NA,NA,NA,NA,NA,NA
zdFLHTFo,3ac6mfv6anv2a7u5af0lkpxttwbhzq,39dd6s19jtosdh1xbgxho6w85siezp,zdFLHTFo,2020-0188,2021-10-30,22:37:42,00:01:07,NA,incomplete,false,true,NA,NA,3,3,NA,blue,n_l_072.jpg,NA,NA,NA,NA,NA,pleasant,unpleasant,NA,NA,NA,NA,NA,right,1954.5,true,NA,NA,NA,NA,NA,NA,NA,NA
zdFLHTFo,3ac6mfv6anv2a7u5af0lkpxttwbhzq,39dd6s19jtosdh1xbgxho6w85siezp,zdFLHTFo,2020-0188,2021-10-30,22:37:42,00:01:07,NA,incomplete,false,true,NA,NA,3,4,NA,blue,m_s_021.jpg,NA,NA,NA,NA,NA,unpleasant,pleasant,NA,NA,NA,NA,NA,right,1231.19999999553,true,NA,NA,NA,NA,NA,NA,NA,NA
zdFLHTFo,3ac6mfv6anv2a7u5af0lkpxttwbhzq,39dd6s19jtosdh1xbgxho6w85siezp,zdFLHTFo,2020-0188,2021-10-30,22:37:42,00:01:07,NA,incomplete,false,true,NA,NA,3,5,NA,blue,m_s_111.jpg,NA,NA,NA,NA,NA,pleasant,unpleasant,NA,NA,NA,NA,NA,left,1159,true,NA,NA,NA,NA,NA,NA,NA,NA
zdFLHTFo,3ac6mfv6anv2a7u5af0lkpxttwbhzq,39dd6s19jtosdh1xbgxho6w85siezp,zdFLHTFo,2020-0188,2021-10-30,22:37:42,00:01:07,NA,incomplete,false,true,NA,NA,3,6,NA,brown,m_s_037.jpg,NA,NA,NA,NA,NA,unpleasant,pleasant,NA,NA,NA,NA,NA,right,1143.10000000149,true,NA,NA,NA,NA,NA,NA,NA,NA
zdFLHTFo,3ac6mfv6anv2a7u5af0lkpxttwbhzq,39dd6s19jtosdh1xbgxho6w85siezp,zdFLHTFo,2020-0188,2021-10-30,22:37:42,00:01:07,NA,incomplete,false,true,NA,NA,3,7,NA,brown,n_s_057.jpg,NA,NA,NA,NA,NA,pleasant,unpleasant,NA,NA,NA,NA,NA,right,1413.80000000447,true,NA,NA,NA,NA,NA,NA,NA,NA
zdFLHTFo,3ac6mfv6anv2a7u5af0lkpxttwbhzq,39dd6s19jtosdh1xbgxho6w85siezp,zdFLHTFo,2020-0188,2021-10-30,22:37:42,00:01:07,NA,incomplete,false,true,NA,NA,3,8,NA,brown,m_s_008.jpg,NA,NA,NA,NA,NA,pleasant,unpleasant,NA,NA,NA,NA,NA,left,2109.60000000149,true,NA,NA,NA,NA,NA,NA,NA,NA
zdFLHTFo,3ac6mfv6anv2a7u5af0lkpxttwbhzq,39dd6s19jtosdh1xbgxho6w85siezp,zdFLHTFo,2020-0188,2021-10-30,22:37:42,00:01:07,NA,incomplete,false,true,NA,NA,3,9,NA,brown,m_s_045.jpg,NA,NA,NA,NA,NA,pleasant,unpleasant,NA,NA,NA,NA,NA,left,2501.40000000596,true,NA,NA,NA,NA,NA,NA,NA,NA
zdFLHTFo,3ac6mfv6anv2a7u5af0lkpxttwbhzq,39dd6s19jtosdh1xbgxho6w85siezp,zdFLHTFo,2020-0188,2021-10-30,22:37:42,00:01:07,NA,incomplete,false,true,NA,NA,3,10,NA,brown,n_l_084.jpg,NA,NA,NA,NA,NA,pleasant,unpleasant,NA,NA,NA,NA,NA,right,1395.20000000298,true,NA,NA,NA,NA,NA,NA,NA,NA
zdFLHTFo,3ac6mfv6anv2a7u5af0lkpxttwbhzq,39dd6s19jtosdh1xbgxho6w85siezp,zdFLHTFo,2020-0188,2021-10-30,22:37:42,00:01:07,NA,incomplete,false,true,NA,NA,3,11,NA,brown,m_s_110.jpg,NA,NA,NA,NA,NA,pleasant,unpleasant,NA,NA,NA,NA,NA,left,1130,true,NA,NA,NA,NA,NA,NA,NA,NA
zdFLHTFo,3ac6mfv6anv2a7u5af0lkpxttwbhzq,39dd6s19jtosdh1xbgxho6w85siezp,zdFLHTFo,2020-0188,2021-10-30,22:37:42,00:01:07,NA,incomplete,false,true,NA,NA,3,12,NA,red,n_l_102.jpg,NA,NA,NA,NA,NA,unpleasant,pleasant,NA,NA,NA,NA,NA,right,1931.09999999404,true,NA,NA,NA,NA,NA,NA,NA,NA
zdFLHTFo,3ac6mfv6anv2a7u5af0lkpxttwbhzq,39dd6s19jtosdh1xbgxho6w85siezp,zdFLHTFo,2020-0188,2021-10-30,22:37:42,00:01:07,NA,incomplete,false,true,NA,NA,3,13,NA,red,n_l_099.jpg,NA,NA,NA,NA,NA,pleasant,unpleasant,NA,NA,NA,NA,NA,right,1297.89999999851,true,NA,NA,NA,NA,NA,NA,NA,NA
zdFLHTFo,3ac6mfv6anv2a7u5af0lkpxttwbhzq,39dd6s19jtosdh1xbgxho6w85siezp,zdFLHTFo,2020-0188,2021-10-30,22:37:42,00:01:07,NA,incomplete,false,true,NA,NA,3,14,NA,red,m_l_096.jpg,NA,NA,NA,NA,NA,unpleasant,pleasant,NA,NA,NA,NA,NA,right,1896.30000000447,true,NA,NA,NA,NA,NA,NA,NA,NA
zdFLHTFo,3ac6mfv6anv2a7u5af0lkpxttwbhzq,39dd6s19jtosdh1xbgxho6w85siezp,zdFLHTFo,2020-0188,2021-10-30,22:37:42,00:01:07,NA,incomplete,false,true,NA,NA,3,15,NA,red,m_l_077.jpg,NA,NA,NA,NA,NA,pleasant,unpleasant,NA,NA,NA,NA,NA,left,1024.70000000298,true,NA,NA,NA,NA,NA,NA,NA,NA
zdFLHTFo,3ac6mfv6anv2a7u5af0lkpxttwbhzq,39dd6s19jtosdh1xbgxho6w85siezp,zdFLHTFo,2020-0188,2021-10-30,22:37:42,00:01:07,NA,incomplete,false,true,NA,NA,3,16,NA,red,n_l_095.jpg,NA,NA,NA,NA,NA,unpleasant,pleasant,NA,NA,NA,NA,NA,right,2015.10000000149,true,NA,NA,NA,NA,NA,NA,NA,NA
zdFLHTFo,3ac6mfv6anv2a7u5af0lkpxttwbhzq,39dd6s19jtosdh1xbgxho6w85siezp,zdFLHTFo,2020-0188,2021-10-30,22:37:42,00:01:07,NA,incomplete,false,true,NA,NA,3,17,NA,red,n_l_074.jpg,NA,NA,NA,NA,NA,pleasant,unpleasant,NA,NA,NA,NA,NA,left,1366.39999999851,true,NA,NA,NA,NA,NA,NA,NA,NA
zdFLHTFo,3ac6mfv6anv2a7u5af0lkpxttwbhzq,39dd6s19jtosdh1xbgxho6w85siezp,zdFLHTFo,2020-0188,2021-10-30,22:37:42,00:01:07,NA,incomplete,false,true,NA,NA,3,18,NA,black,n_s_075.jpg,NA,NA,NA,NA,NA,unpleasant,pleasant,NA,NA,NA,NA,NA,left,1493.60000000149,true,NA,NA,NA,NA,NA,NA,NA,NA
zdFLHTFo,3ac6mfv6anv2a7u5af0lkpxttwbhzq,39dd6s19jtosdh1xbgxho6w85siezp,zdFLHTFo,2020-0188,2021-10-30,22:37:42,00:01:07,NA,incomplete,false,true,NA,NA,3,19,NA,black,m_s_074.jpg,NA,NA,NA,NA,NA,unpleasant,pleasant,NA,NA,NA,NA,NA,right,1101.30000000447,true,NA,NA,NA,NA,NA,NA,NA,NA
zdFLHTFo,3ac6mfv6anv2a7u5af0lkpxttwbhzq,39dd6s19jtosdh1xbgxho6w85siezp,zdFLHTFo,2020-0188,2021-10-30,22:37:42,00:01:07,NA,incomplete,false,true,NA,NA,3,20,NA,black,n_l_092.jpg,NA,NA,NA,NA,NA,unpleasant,pleasant,NA,NA,NA,NA,NA,left,1362.90000000596,true,NA,NA,NA,NA,NA,NA,NA,NA
zdFLHTFo,3ac6mfv6anv2a7u5af0lkpxttwbhzq,39dd6s19jtosdh1xbgxho6w85siezp,zdFLHTFo,2020-0188,2021-10-30,22:37:42,00:01:07,NA,incomplete,false,true,NA,NA,3,21,NA,black,m_l_074.jpg,NA,NA,NA,NA,NA,pleasant,unpleasant,NA,NA,NA,NA,NA,left,1035.39999999851,true,NA,NA,NA,NA,NA,NA,NA,NA
zdFLHTFo,3ac6mfv6anv2a7u5af0lkpxttwbhzq,39dd6s19jtosdh1xbgxho6w85siezp,zdFLHTFo,2020-0188,2021-10-30,22:37:42,00:01:07,NA,incomplete,false,true,NA,NA,3,22,NA,black,m_l_104.jpg,NA,NA,NA,NA,NA,unpleasant,pleasant,NA,NA,NA,NA,NA,right,1704.89999999851,true,NA,NA,NA,NA,NA,NA,NA,NA
zdFLHTFo,3ac6mfv6anv2a7u5af0lkpxttwbhzq,39dd6s19jtosdh1xbgxho6w85siezp,zdFLHTFo,2020-0188,2021-10-30,22:37:42,00:01:07,NA,incomplete,false,true,NA,NA,3,23,NA,black,n_l_023.jpg,NA,NA,NA,NA,NA,unpleasant,pleasant,NA,NA,NA,NA,NA,right,782.59999999404,true,NA,NA,NA,NA,NA,NA,NA,NA
zdFLHTFo,3ac6mfv6anv2a7u5af0lkpxttwbhzq,39dd6s19jtosdh1xbgxho6w85siezp,zdFLHTFo,2020-0188,2021-10-30,22:37:42,00:01:07,NA,incomplete,false,true,NA,NA,3,24,NA,green,n_l_036.jpg,NA,NA,NA,NA,NA,pleasant,unpleasant,NA,NA,NA,NA,NA,right,1736.30000000447,true,NA,NA,NA,NA,NA,NA,NA,NA
zdFLHTFo,3ac6mfv6anv2a7u5af0lkpxttwbhzq,39dd6s19jtosdh1xbgxho6w85siezp,zdFLHTFo,2020-0188,2021-10-30,22:37:42,00:01:07,NA,incomplete,false,true,NA,NA,3,25,NA,green,m_l_064.jpg,NA,NA,NA,NA,NA,unpleasant,pleasant,NA,NA,NA,NA,NA,right,877.5,true,NA,NA,NA,NA,NA,NA,NA,NA
zdFLHTFo,3ac6mfv6anv2a7u5af0lkpxttwbhzq,39dd6s19jtosdh1xbgxho6w85siezp,zdFLHTFo,2020-0188,2021-10-30,22:37:42,00:01:07,NA,incomplete,false,true,NA,NA,3,26,NA,green,m_l_060.jpg,NA,NA,NA,NA,NA,pleasant,unpleasant,NA,NA,NA,NA,NA,left,1236.79999999702,true,NA,NA,NA,NA,NA,NA,NA,NA
zdFLHTFo,3ac6mfv6anv2a7u5af0lkpxttwbhzq,39dd6s19jtosdh1xbgxho6w85siezp,zdFLHTFo,2020-0188,2021-10-30,22:37:42,00:01:07,NA,incomplete,false,true,NA,NA,3,27,NA,green,n_s_012.jpg,NA,NA,NA,NA,NA,unpleasant,pleasant,NA,NA,NA,NA,NA,right,773,true,NA,NA,NA,NA,NA,NA,NA,NA
zdFLHTFo,3ac6mfv6anv2a7u5af0lkpxttwbhzq,39dd6s19jtosdh1xbgxho6w85siezp,zdFLHTFo,2020-0188,2021-10-30,22:37:42,00:01:07,NA,incomplete,false,true,NA,NA,3,28,NA,green,m_s_032.jpg,NA,NA,NA,NA,NA,pleasant,unpleasant,NA,NA,NA,NA,NA,left,1979.20000000298,true,NA,NA,NA,NA,NA,NA,NA,NA
zdFLHTFo,3ac6mfv6anv2a7u5af0lkpxttwbhzq,39dd6s19jtosdh1xbgxho6w85siezp,zdFLHTFo,2020-0188,2021-10-30,22:37:42,00:01:07,NA,incomplete,false,true,NA,NA,3,29,NA,green,m_s_067.jpg,NA,NA,NA,NA,NA,pleasant,unpleasant,NA,NA,NA,NA,NA,left,986.39999999851,true,NA,NA,NA,NA,NA,NA,NA,NA
zdFLHTFo,3ac6mfv6anv2a7u5af0lkpxttwbhzq,39dd6s19jtosdh1xbgxho6w85siezp,zdFLHTFo,2020-0188,2021-10-30,22:37:42,00:01:07,NA,incomplete,false,true,NA,NA,3,30,NA,yellow,m_l_087.jpg,NA,NA,NA,NA,NA,pleasant,unpleasant,NA,NA,NA,NA,NA,left,1073.10000000149,true,NA,NA,NA,NA,NA,NA,NA,NA
zdFLHTFo,3ac6mfv6anv2a7u5af0lkpxttwbhzq,39dd6s19jtosdh1xbgxho6w85siezp,zdFLHTFo,2020-0188,2021-10-30,22:37:42,00:01:07,NA,incomplete,false,true,NA,NA,3,31,NA,yellow,m_s_056.jpg,NA,NA,NA,NA,NA,unpleasant,pleasant,NA,NA,NA,NA,NA,right,942.5,true,NA,NA,NA,NA,NA,NA,NA,NA
zdFLHTFo,3ac6mfv6anv2a7u5af0lkpxttwbhzq,39dd6s19jtosdh1xbgxho6w85siezp,zdFLHTFo,2020-0188,2021-10-30,22:37:42,00:01:07,NA,incomplete,false,true,NA,NA,3,32,NA,yellow,n_l_085.jpg,NA,NA,NA,NA,NA,pleasant,unpleasant,NA,NA,NA,NA,NA,left,909.89999999851,true,NA,NA,NA,NA,NA,NA,NA,NA
zdFLHTFo,3ac6mfv6anv2a7u5af0lkpxttwbhzq,39dd6s19jtosdh1xbgxho6w85siezp,zdFLHTFo,2020-0188,2021-10-30,22:37:42,00:01:07,NA,incomplete,false,true,NA,NA,3,33,NA,yellow,n_l_063.jpg,NA,NA,NA,NA,NA,unpleasant,pleasant,NA,NA,NA,NA,NA,right,1063.70000000298,true,NA,NA,NA,NA,NA,NA,NA,NA
zdFLHTFo,3ac6mfv6anv2a7u5af0lkpxttwbhzq,39dd6s19jtosdh1xbgxho6w85siezp,zdFLHTFo,2020-0188,2021-10-30,22:37:42,00:01:07,NA,incomplete,false,true,NA,NA,3,34,NA,yellow,m_l_046.jpg,NA,NA,NA,NA,NA,pleasant,unpleasant,NA,NA,NA,NA,NA,left,1470.89999999851,true,NA,NA,NA,NA,NA,NA,NA,NA
zdFLHTFo,3ac6mfv6anv2a7u5af0lkpxttwbhzq,39dd6s19jtosdh1xbgxho6w85siezp,zdFLHTFo,2020-0188,2021-10-30,22:37:42,00:01:07,NA,incomplete,false,true,NA,NA,3,35,NA,yellow,m_l_112.jpg,NA,NA,NA,NA,NA,unpleasant,pleasant,NA,NA,NA,NA,NA,right,1188.89999999851,true,NA,NA,NA,NA,NA,NA,NA,NA
zdFLHTFo,3ac6mfv6anv2a7u5af0lkpxttwbhzq,39dd6s19jtosdh1xbgxho6w85siezp,zdFLHTFo,2020-0188,2021-10-30,22:37:42,00:01:07,NA,incomplete,false,NA,NA,true,3,0,NA,NA,NA,right,n_s_057.jpg,red,brown,NA,NA,NA,NA,NA,NA,NA,NA,NA,NaN,NA,1740.6000000014901,right,1,NA,NA,NA,NA,NA
zdFLHTFo,3ac6mfv6anv2a7u5af0lkpxttwbhzq,39dd6s19jtosdh1xbgxho6w85siezp,zdFLHTFo,2020-0188,2021-10-30,22:37:42,00:01:07,NA,incomplete,false,NA,NA,true,3,1,NA,NA,NA,right,m_s_067.jpg,black,green,NA,NA,NA,NA,NA,NA,NA,NA,NA,NaN,NA,1600.9000000059605,right,1,NA,NA,NA,NA,NA
zdFLHTFo,3ac6mfv6anv2a7u5af0lkpxttwbhzq,39dd6s19jtosdh1xbgxho6w85siezp,zdFLHTFo,2020-0188,2021-10-30,22:37:42,00:01:07,NA,incomplete,false,NA,NA,true,3,2,NA,NA,NA,right,m_l_024.jpg,brown,blue,NA,NA,NA,NA,NA,NA,NA,NA,NA,NaN,NA,1560.3999999985099,right,1,NA,NA,NA,NA,NA
zdFLHTFo,3ac6mfv6anv2a7u5af0lkpxttwbhzq,39dd6s19jtosdh1xbgxho6w85siezp,zdFLHTFo,2020-0188,2021-10-30,22:37:42,00:01:07,NA,incomplete,false,NA,NA,true,3,3,NA,NA,NA,left,n_l_095.jpg,red,black,NA,NA,NA,NA,NA,NA,NA,NA,NA,NaN,NA,1722.8000000044703,right,0,NA,NA,NA,NA,NA
zdFLHTFo,3ac6mfv6anv2a7u5af0lkpxttwbhzq,39dd6s19jtosdh1xbgxho6w85siezp,zdFLHTFo,2020-0188,2021-10-30,22:37:42,00:01:07,NA,incomplete,false,NA,NA,true,3,4,NA,NA,NA,left,m_s_021.jpg,blue,brown,NA,NA,NA,NA,NA,NA,NA,NA,NA,NaN,NA,1842.3000000044703,right,0,NA,NA,NA,NA,NA
zdFLHTFo,3ac6mfv6anv2a7u5af0lkpxttwbhzq,39dd6s19jtosdh1xbgxho6w85siezp,zdFLHTFo,2020-0188,2021-10-30,22:37:42,00:01:07,NA,incomplete,false,NA,NA,true,3,5,NA,NA,NA,right,m_l_104.jpg,red,black,NA,NA,NA,NA,NA,NA,NA,NA,NA,NaN,NA,3464.2000000029802,right,1,NA,NA,NA,NA,NA
zdFLHTFo,3ac6mfv6anv2a7u5af0lkpxttwbhzq,39dd6s19jtosdh1xbgxho6w85siezp,zdFLHTFo,2020-0188,2021-10-30,22:37:42,00:01:07,NA,incomplete,false,NA,NA,true,3,6,NA,NA,NA,left,m_l_112.jpg,yellow,green,NA,NA,NA,NA,NA,NA,NA,NA,NA,NaN,NA,2064.7999999970198,right,0,NA,NA,NA,NA,NA
zdFLHTFo,3ac6mfv6anv2a7u5af0lkpxttwbhzq,39dd6s19jtosdh1xbgxho6w85siezp,zdFLHTFo,2020-0188,2021-10-30,22:37:42,00:01:07,NA,incomplete,false,NA,NA,true,3,7,NA,NA,NA,right,n_l_023.jpg,green,black,NA,NA,NA,NA,NA,NA,NA,NA,NA,NaN,NA,1638.7000000029802,right,1,NA,NA,NA,NA,NA
zdFLHTFo,3ac6mfv6anv2a7u5af0lkpxttwbhzq,39dd6s19jtosdh1xbgxho6w85siezp,zdFLHTFo,2020-0188,2021-10-30,22:37:42,00:01:07,NA,incomplete,false,NA,NA,true,3,8,NA,NA,NA,right,n_l_092.jpg,red,black,NA,NA,NA,NA,NA,NA,NA,NA,NA,NaN,NA,2693.39999999851,right,1,NA,NA,NA,NA,NA
zdFLHTFo,3ac6mfv6anv2a7u5af0lkpxttwbhzq,39dd6s19jtosdh1xbgxho6w85siezp,zdFLHTFo,2020-0188,2021-10-30,22:37:42,00:01:07,NA,incomplete,false,NA,NA,true,3,9,NA,NA,NA,left,m_s_074.jpg,black,red,NA,NA,NA,NA,NA,NA,NA,NA,NA,NaN,NA,2564.7999999970198,left,1,NA,NA,NA,NA,NA
zdFLHTFo,3ac6mfv6anv2a7u5af0lkpxttwbhzq,39dd6s19jtosdh1xbgxho6w85siezp,zdFLHTFo,2020-0188,2021-10-30,22:37:42,00:01:07,NA,incomplete,false,NA,NA,true,3,10,NA,NA,NA,right,m_s_032.jpg,black,green,NA,NA,NA,NA,NA,NA,NA,NA,NA,NaN,NA,1812.3999999985099,right,1,NA,NA,NA,NA,NA
zdFLHTFo,3ac6mfv6anv2a7u5af0lkpxttwbhzq,39dd6s19jtosdh1xbgxho6w85siezp,zdFLHTFo,2020-0188,2021-10-30,22:37:42,00:01:07,NA,incomplete,false,NA,NA,true,3,11,NA,NA,NA,right,n_l_099.jpg,black,red,NA,NA,NA,NA,NA,NA,NA,NA,NA,NaN,NA,1658.5,left,0,NA,NA,NA,NA,NA
zdFLHTFo,3ac6mfv6anv2a7u5af0lkpxttwbhzq,39dd6s19jtosdh1xbgxho6w85siezp,zdFLHTFo,2020-0188,2021-10-30,22:37:42,00:01:07,NA,incomplete,false,NA,NA,true,3,12,NA,NA,NA,right,m_s_056.jpg,green,yellow,NA,NA,NA,NA,NA,NA,NA,NA,NA,NaN,NA,2834.5999999940395,left,0,NA,NA,NA,NA,NA
zdFLHTFo,3ac6mfv6anv2a7u5af0lkpxttwbhzq,39dd6s19jtosdh1xbgxho6w85siezp,zdFLHTFo,2020-0188,2021-10-30,22:37:42,00:01:07,NA,incomplete,false,NA,NA,true,3,13,NA,NA,NA,left,m_l_060.jpg,green,black,NA,NA,NA,NA,NA,NA,NA,NA,NA,NaN,NA,1530.6000000014901,right,0,NA,NA,NA,NA,NA
zdFLHTFo,3ac6mfv6anv2a7u5af0lkpxttwbhzq,39dd6s19jtosdh1xbgxho6w85siezp,zdFLHTFo,2020-0188,2021-10-30,22:37:42,00:01:07,NA,incomplete,false,NA,NA,true,3,14,NA,NA,NA,right,n_l_084.jpg,blue,brown,NA,NA,NA,NA,NA,NA,NA,NA,NA,NaN,NA,1518.5,right,1,NA,NA,NA,NA,NA
zdFLHTFo,3ac6mfv6anv2a7u5af0lkpxttwbhzq,39dd6s19jtosdh1xbgxho6w85siezp,zdFLHTFo,2020-0188,2021-10-30,22:37:42,00:01:07,NA,incomplete,false,NA,NA,true,3,15,NA,NA,NA,left,n_l_085.jpg,yellow,green,NA,NA,NA,NA,NA,NA,NA,NA,NA,NaN,NA,1454.2999999970198,right,0,NA,NA,NA,NA,NA
zdFLHTFo,3ac6mfv6anv2a7u5af0lkpxttwbhzq,39dd6s19jtosdh1xbgxho6w85siezp,zdFLHTFo,2020-0188,2021-10-30,22:37:42,00:01:07,NA,incomplete,false,NA,NA,true,3,16,NA,NA,NA,left,m_s_008.jpg,brown,red,NA,NA,NA,NA,NA,NA,NA,NA,NA,NaN,NA,1866.5,left,1,NA,NA,NA,NA,NA
zdFLHTFo,3ac6mfv6anv2a7u5af0lkpxttwbhzq,39dd6s19jtosdh1xbgxho6w85siezp,zdFLHTFo,2020-0188,2021-10-30,22:37:42,00:01:07,NA,incomplete,false,NA,NA,true,3,17,NA,NA,NA,right,m_s_110.jpg,red,brown,NA,NA,NA,NA,NA,NA,NA,NA,NA,NaN,NA,2135.6999999955297,left,0,NA,NA,NA,NA,NA
zdFLHTFo,3ac6mfv6anv2a7u5af0lkpxttwbhzq,39dd6s19jtosdh1xbgxho6w85siezp,zdFLHTFo,2020-0188,2021-10-30,22:37:42,00:01:07,NA,incomplete,false,NA,NA,true,3,18,NA,NA,NA,left,m_l_096.jpg,red,brown,NA,NA,NA,NA,NA,NA,NA,NA,NA,NaN,NA,1897.1999999955297,right,0,NA,NA,NA,NA,NA
zdFLHTFo,3ac6mfv6anv2a7u5af0lkpxttwbhzq,39dd6s19jtosdh1xbgxho6w85siezp,zdFLHTFo,2020-0188,2021-10-30,22:37:42,00:01:07,NA,incomplete,false,NA,NA,true,3,19,NA,NA,NA,left,n_l_074.jpg,red,black,NA,NA,NA,NA,NA,NA,NA,NA,NA,NaN,NA,1422.6000000014901,right,0,NA,NA,NA,NA,NA
zdFLHTFo,3ac6mfv6anv2a7u5af0lkpxttwbhzq,39dd6s19jtosdh1xbgxho6w85siezp,zdFLHTFo,2020-0188,2021-10-30,22:37:42,00:01:07,NA,incomplete,false,NA,NA,true,3,20,NA,NA,NA,right,m_s_111.jpg,brown,blue,NA,NA,NA,NA,NA,NA,NA,NA,NA,NaN,NA,2688.7000000029802,left,0,NA,NA,NA,NA,NA
zdFLHTFo,3ac6mfv6anv2a7u5af0lkpxttwbhzq,39dd6s19jtosdh1xbgxho6w85siezp,zdFLHTFo,2020-0188,2021-10-30,22:37:42,00:01:07,NA,incomplete,false,NA,NA,true,3,21,NA,NA,NA,left,m_l_064.jpg,green,yellow,NA,NA,NA,NA,NA,NA,NA,NA,NA,NaN,NA,2058.5,left,1,NA,NA,NA,NA,NA
zdFLHTFo,3ac6mfv6anv2a7u5af0lkpxttwbhzq,39dd6s19jtosdh1xbgxho6w85siezp,zdFLHTFo,2020-0188,2021-10-30,22:37:42,00:01:07,NA,incomplete,false,NA,true,NA,3,0,NA,NA,NA,right,NA,NA,NA,absent,NA,NA,m_l_096.jpg,red,n_l_084.jpg,brown,between,NA,NaN,NA,NA,NA,NA,left,3219.0999999940395,0,2,2031.1000000014901
zdFLHTFo,3ac6mfv6anv2a7u5af0lkpxttwbhzq,39dd6s19jtosdh1xbgxho6w85siezp,zdFLHTFo,2020-0188,2021-10-30,22:37:42,00:01:07,NA,incomplete,false,NA,true,NA,3,1,NA,NA,NA,left,NA,NA,NA,absent,NA,NA,m_s_074.jpg,black,n_l_023.jpg,black,within,NA,NaN,NA,NA,NA,NA,left,2697.10000000149,1,1,1529
zdFLHTFo,3ac6mfv6anv2a7u5af0lkpxttwbhzq,39dd6s19jtosdh1xbgxho6w85siezp,zdFLHTFo,2020-0188,2021-10-30,22:37:42,00:01:07,NA,incomplete,false,NA,true,NA,3,2,NA,NA,NA,left,NA,NA,NA,absent,NA,NA,n_s_057.jpg,brown,m_s_110.jpg,brown,within,NA,NaN,NA,NA,NA,NA,left,3624.89999999851,1,3,1862.9000000059605
zdFLHTFo,3ac6mfv6anv2a7u5af0lkpxttwbhzq,39dd6s19jtosdh1xbgxho6w85siezp,zdFLHTFo,2020-0188,2021-10-30,22:37:42,00:01:07,NA,incomplete,false,NA,true,NA,3,3,NA,NA,NA,right,NA,NA,NA,absent,NA,NA,m_s_008.jpg,brown,m_s_021.jpg,blue,between,NA,NaN,NA,NA,NA,NA,left,2370.5,0,2,2026.5
zdFLHTFo,3ac6mfv6anv2a7u5af0lkpxttwbhzq,39dd6s19jtosdh1xbgxho6w85siezp,zdFLHTFo,2020-0188,2021-10-30,22:37:42,00:01:07,NA,incomplete,false,NA,true,NA,3,4,NA,NA,NA,left,NA,NA,NA,absent,NA,NA,n_l_099.jpg,red,n_l_074.jpg,red,within,NA,NaN,NA,NA,NA,NA,right,4424.70000000298,0,3,1584.2999999970198
zdFLHTFo,3ac6mfv6anv2a7u5af0lkpxttwbhzq,39dd6s19jtosdh1xbgxho6w85siezp,zdFLHTFo,2020-0188,2021-10-30,22:37:42,00:01:07,NA,incomplete,false,NA,true,NA,3,5,NA,NA,NA,left,NA,NA,NA,absent,NA,NA,m_l_104.jpg,black,m_l_060.jpg,green,between,NA,NaN,NA,NA,NA,NA,left,1898.6999999955297,1,2,1276.2000000029802
zdFLHTFo,3ac6mfv6anv2a7u5af0lkpxttwbhzq,39dd6s19jtosdh1xbgxho6w85siezp,zdFLHTFo,2020-0188,2021-10-30,22:37:42,00:01:07,NA,incomplete,false,NA,true,NA,3,6,NA,NA,NA,right,NA,NA,NA,absent,NA,NA,m_s_067.jpg,green,m_l_064.jpg,green,within,NA,NaN,NA,NA,NA,NA,right,2665.4000000059605,1,3,1213.1000000014901
zdFLHTFo,3ac6mfv6anv2a7u5af0lkpxttwbhzq,39dd6s19jtosdh1xbgxho6w85siezp,zdFLHTFo,2020-0188,2021-10-30,22:37:42,00:01:07,NA,incomplete,false,NA,true,NA,3,7,NA,NA,NA,right,NA,NA,NA,absent,NA,NA,m_l_112.jpg,yellow,m_s_056.jpg,yellow,within,NA,NaN,NA,NA,NA,NA,left,1924.5,0,2,1001.7999999970198
zdFLHTFo,3ac6mfv6anv2a7u5af0lkpxttwbhzq,39dd6s19jtosdh1xbgxho6w85siezp,zdFLHTFo,2020-0188,2021-10-30,22:37:42,00:01:07,NA,incomplete,false,NA,true,NA,3,8,NA,NA,NA,left,NA,NA,NA,absent,NA,NA,m_s_032.jpg,green,n_l_085.jpg,yellow,between,NA,NaN,NA,NA,NA,NA,left,2696.60000000149,1,3,4207.70000000298
zdFLHTFo,3ac6mfv6anv2a7u5af0lkpxttwbhzq,39dd6s19jtosdh1xbgxho6w85siezp,zdFLHTFo,2020-0188,2021-10-30,22:37:42,00:01:07,NA,incomplete,false,NA,true,NA,3,9,NA,NA,NA,right,NA,NA,NA,absent,NA,NA,n_l_092.jpg,black,n_l_095.jpg,red,between,NA,NaN,NA,NA,NA,NA,right,2468.2999999970198,1,1,2158.5
zdFLHTFo,3ac6mfv6anv2a7u5af0lkpxttwbhzq,39dd6s19jtosdh1xbgxho6w85siezp,zdFLHTFo,2020-0188,2021-10-30,22:37:42,00:01:07,NA,incomplete,false,NA,true,NA,3,10,NA,NA,NA,right,NA,NA,NA,absent,NA,NA,m_s_111.jpg,blue,m_l_024.jpg,blue,within,NA,NaN,NA,NA,NA,NA,left,4482.5999999940395,0,2,1763.3000000044703
zdFLHTFo,3ac6mfv6anv2a7u5af0lkpxttwbhzq,39dd6s19jtosdh1xbgxho6w85siezp,zdFLHTFo,2020-0188,2021-10-30,22:37:42,00:01:07,NA,incomplete,false,true,NA,NA,4,0,NA,brown,m_s_022.jpg,NA,NA,NA,NA,NA,unpleasant,pleasant,NA,NA,NA,NA,NA,right,2435.89999999851,true,NA,NA,NA,NA,NA,NA,NA,NA
zdFLHTFo,3ac6mfv6anv2a7u5af0lkpxttwbhzq,39dd6s19jtosdh1xbgxho6w85siezp,zdFLHTFo,2020-0188,2021-10-30,22:37:42,00:01:07,NA,incomplete,false,true,NA,NA,4,1,NA,brown,m_l_065.jpg,NA,NA,NA,NA,NA,pleasant,unpleasant,NA,NA,NA,NA,NA,left,1416.70000000298,true,NA,NA,NA,NA,NA,NA,NA,NA
zdFLHTFo,3ac6mfv6anv2a7u5af0lkpxttwbhzq,39dd6s19jtosdh1xbgxho6w85siezp,zdFLHTFo,2020-0188,2021-10-30,22:37:42,00:01:07,NA,incomplete,false,true,NA,NA,4,2,NA,brown,n_s_072.jpg,NA,NA,NA,NA,NA,pleasant,unpleasant,NA,NA,NA,NA,NA,left,1024.10000000149,true,NA,NA,NA,NA,NA,NA,NA,NA
zdFLHTFo,3ac6mfv6anv2a7u5af0lkpxttwbhzq,39dd6s19jtosdh1xbgxho6w85siezp,zdFLHTFo,2020-0188,2021-10-30,22:37:42,00:01:07,NA,incomplete,false,true,NA,NA,4,3,NA,brown,m_s_027.jpg,NA,NA,NA,NA,NA,unpleasant,pleasant,NA,NA,NA,NA,NA,right,926.30000000447,true,NA,NA,NA,NA,NA,NA,NA,NA
zdFLHTFo,3ac6mfv6anv2a7u5af0lkpxttwbhzq,39dd6s19jtosdh1xbgxho6w85siezp,zdFLHTFo,2020-0188,2021-10-30,22:37:42,00:01:07,NA,incomplete,false,true,NA,NA,4,4,NA,brown,n_l_048.jpg,NA,NA,NA,NA,NA,unpleasant,pleasant,NA,NA,NA,NA,NA,left,1638.59999999404,true,NA,NA,NA,NA,NA,NA,NA,NA
zdFLHTFo,3ac6mfv6anv2a7u5af0lkpxttwbhzq,39dd6s19jtosdh1xbgxho6w85siezp,zdFLHTFo,2020-0188,2021-10-30,22:37:42,00:01:07,NA,incomplete,false,true,NA,NA,4,5,NA,brown,m_s_062.jpg,NA,NA,NA,NA,NA,unpleasant,pleasant,NA,NA,NA,NA,NA,right,1947.89999999851,true,NA,NA,NA,NA,NA,NA,NA,NA
zdFLHTFo,3ac6mfv6anv2a7u5af0lkpxttwbhzq,39dd6s19jtosdh1xbgxho6w85siezp,zdFLHTFo,2020-0188,2021-10-30,22:37:42,00:01:07,NA,incomplete,false,true,NA,NA,4,6,NA,yellow,m_l_068.jpg,NA,NA,NA,NA,NA,pleasant,unpleasant,NA,NA,NA,NA,NA,left,1418.30000000447,true,NA,NA,NA,NA,NA,NA,NA,NA
zdFLHTFo,3ac6mfv6anv2a7u5af0lkpxttwbhzq,39dd6s19jtosdh1xbgxho6w85siezp,zdFLHTFo,2020-0188,2021-10-30,22:37:42,00:01:07,NA,incomplete,false,true,NA,NA,4,7,NA,yellow,n_l_055.jpg,NA,NA,NA,NA,NA,unpleasant,pleasant,NA,NA,NA,NA,NA,left,1169.20000000298,true,NA,NA,NA,NA,NA,NA,NA,NA
zdFLHTFo,3ac6mfv6anv2a7u5af0lkpxttwbhzq,39dd6s19jtosdh1xbgxho6w85siezp,zdFLHTFo,2020-0188,2021-10-30,22:37:42,00:01:07,NA,incomplete,false,true,NA,NA,4,8,NA,yellow,m_s_054.jpg,NA,NA,NA,NA,NA,pleasant,unpleasant,NA,NA,NA,NA,NA,left,969.5,true,NA,NA,NA,NA,NA,NA,NA,NA
zdFLHTFo,3ac6mfv6anv2a7u5af0lkpxttwbhzq,39dd6s19jtosdh1xbgxho6w85siezp,zdFLHTFo,2020-0188,2021-10-30,22:37:42,00:01:07,NA,incomplete,false,true,NA,NA,4,9,NA,yellow,m_l_049.jpg,NA,NA,NA,NA,NA,pleasant,unpleasant,NA,NA,NA,NA,NA,left,927.10000000149,true,NA,NA,NA,NA,NA,NA,NA,NA
zdFLHTFo,3ac6mfv6anv2a7u5af0lkpxttwbhzq,39dd6s19jtosdh1xbgxho6w85siezp,zdFLHTFo,2020-0188,2021-10-30,22:37:42,00:01:07,NA,incomplete,false,true,NA,NA,4,10,NA,yellow,n_s_084.jpg,NA,NA,NA,NA,NA,unpleasant,pleasant,NA,NA,NA,NA,NA,right,1229.70000000298,true,NA,NA,NA,NA,NA,NA,NA,NA
zdFLHTFo,3ac6mfv6anv2a7u5af0lkpxttwbhzq,39dd6s19jtosdh1xbgxho6w85siezp,zdFLHTFo,2020-0188,2021-10-30,22:37:42,00:01:07,NA,incomplete,false,true,NA,NA,4,11,NA,yellow,n_s_037.jpg,NA,NA,NA,NA,NA,pleasant,unpleasant,NA,NA,NA,NA,NA,left,1105,true,NA,NA,NA,NA,NA,NA,NA,NA
zdFLHTFo,3ac6mfv6anv2a7u5af0lkpxttwbhzq,39dd6s19jtosdh1xbgxho6w85siezp,zdFLHTFo,2020-0188,2021-10-30,22:37:42,00:01:07,NA,incomplete,false,true,NA,NA,4,12,NA,red,m_s_106.jpg,NA,NA,NA,NA,NA,pleasant,unpleasant,NA,NA,NA,NA,NA,left,1028.80000000447,true,NA,NA,NA,NA,NA,NA,NA,NA
zdFLHTFo,3ac6mfv6anv2a7u5af0lkpxttwbhzq,39dd6s19jtosdh1xbgxho6w85siezp,zdFLHTFo,2020-0188,2021-10-30,22:37:42,00:01:07,NA,incomplete,false,true,NA,NA,4,13,NA,red,m_l_021.jpg,NA,NA,NA,NA,NA,unpleasant,pleasant,NA,NA,NA,NA,NA,right,1260.19999999553,true,NA,NA,NA,NA,NA,NA,NA,NA
zdFLHTFo,3ac6mfv6anv2a7u5af0lkpxttwbhzq,39dd6s19jtosdh1xbgxho6w85siezp,zdFLHTFo,2020-0188,2021-10-30,22:37:42,00:01:07,NA,incomplete,false,true,NA,NA,4,14,NA,red,m_s_004.jpg,NA,NA,NA,NA,NA,pleasant,unpleasant,NA,NA,NA,NA,NA,left,1108.39999999851,true,NA,NA,NA,NA,NA,NA,NA,NA
zdFLHTFo,3ac6mfv6anv2a7u5af0lkpxttwbhzq,39dd6s19jtosdh1xbgxho6w85siezp,zdFLHTFo,2020-0188,2021-10-30,22:37:42,00:01:07,NA,incomplete,false,true,NA,NA,4,15,NA,red,n_l_021.jpg,NA,NA,NA,NA,NA,pleasant,unpleasant,NA,NA,NA,NA,NA,left,738.69999999553,true,NA,NA,NA,NA,NA,NA,NA,NA
zdFLHTFo,3ac6mfv6anv2a7u5af0lkpxttwbhzq,39dd6s19jtosdh1xbgxho6w85siezp,zdFLHTFo,2020-0188,2021-10-30,22:37:42,00:01:07,NA,incomplete,false,true,NA,NA,4,16,NA,red,n_l_104.jpg,NA,NA,NA,NA,NA,unpleasant,pleasant,NA,NA,NA,NA,NA,right,1200.10000000149,true,NA,NA,NA,NA,NA,NA,NA,NA
zdFLHTFo,3ac6mfv6anv2a7u5af0lkpxttwbhzq,39dd6s19jtosdh1xbgxho6w85siezp,zdFLHTFo,2020-0188,2021-10-30,22:37:42,00:01:07,NA,incomplete,false,true,NA,NA,4,17,NA,red,m_s_069.jpg,NA,NA,NA,NA,NA,unpleasant,pleasant,NA,NA,NA,NA,NA,right,912,true,NA,NA,NA,NA,NA,NA,NA,NA
zdFLHTFo,3ac6mfv6anv2a7u5af0lkpxttwbhzq,39dd6s19jtosdh1xbgxho6w85siezp,zdFLHTFo,2020-0188,2021-10-30,22:37:42,00:01:07,NA,incomplete,false,true,NA,NA,4,18,NA,white,n_s_038.jpg,NA,NA,NA,NA,NA,pleasant,unpleasant,NA,NA,NA,NA,NA,left,1174.59999999404,true,NA,NA,NA,NA,NA,NA,NA,NA
zdFLHTFo,3ac6mfv6anv2a7u5af0lkpxttwbhzq,39dd6s19jtosdh1xbgxho6w85siezp,zdFLHTFo,2020-0188,2021-10-30,22:37:42,00:01:07,NA,incomplete,false,true,NA,NA,4,19,NA,white,m_l_009.jpg,NA,NA,NA,NA,NA,pleasant,unpleasant,NA,NA,NA,NA,NA,left,933.5,true,NA,NA,NA,NA,NA,NA,NA,NA
zdFLHTFo,3ac6mfv6anv2a7u5af0lkpxttwbhzq,39dd6s19jtosdh1xbgxho6w85siezp,zdFLHTFo,2020-0188,2021-10-30,22:37:42,00:01:07,NA,incomplete,false,true,NA,NA,4,20,NA,white,n_l_062.jpg,NA,NA,NA,NA,NA,pleasant,unpleasant,NA,NA,NA,NA,NA,left,812.60000000149,true,NA,NA,NA,NA,NA,NA,NA,NA
zdFLHTFo,3ac6mfv6anv2a7u5af0lkpxttwbhzq,39dd6s19jtosdh1xbgxho6w85siezp,zdFLHTFo,2020-0188,2021-10-30,22:37:42,00:01:07,NA,incomplete,false,true,NA,NA,4,21,NA,white,n_s_041.jpg,NA,NA,NA,NA,NA,unpleasant,pleasant,NA,NA,NA,NA,NA,right,788.69999999553,true,NA,NA,NA,NA,NA,NA,NA,NA
zdFLHTFo,3ac6mfv6anv2a7u5af0lkpxttwbhzq,39dd6s19jtosdh1xbgxho6w85siezp,zdFLHTFo,2020-0188,2021-10-30,22:37:42,00:01:07,NA,incomplete,false,true,NA,NA,4,22,NA,white,m_s_017.jpg,NA,NA,NA,NA,NA,unpleasant,pleasant,NA,NA,NA,NA,NA,right,571.20000000298,true,NA,NA,NA,NA,NA,NA,NA,NA
zdFLHTFo,3ac6mfv6anv2a7u5af0lkpxttwbhzq,39dd6s19jtosdh1xbgxho6w85siezp,zdFLHTFo,2020-0188,2021-10-30,22:37:42,00:01:07,NA,incomplete,false,true,NA,NA,4,23,NA,white,n_s_056.jpg,NA,NA,NA,NA,NA,pleasant,unpleasant,NA,NA,NA,NA,NA,left,3282.20000000298,true,NA,NA,NA,NA,NA,NA,NA,NA
zdFLHTFo,3ac6mfv6anv2a7u5af0lkpxttwbhzq,39dd6s19jtosdh1xbgxho6w85siezp,zdFLHTFo,2020-0188,2021-10-30,22:37:42,00:01:07,NA,incomplete,false,true,NA,NA,4,24,NA,blue,n_s_060.jpg,NA,NA,NA,NA,NA,pleasant,unpleasant,NA,NA,NA,NA,NA,left,1783.90000000596,true,NA,NA,NA,NA,NA,NA,NA,NA
zdFLHTFo,3ac6mfv6anv2a7u5af0lkpxttwbhzq,39dd6s19jtosdh1xbgxho6w85siezp,zdFLHTFo,2020-0188,2021-10-30,22:37:42,00:01:07,NA,incomplete,false,true,NA,NA,4,25,NA,blue,n_s_108.jpg,NA,NA,NA,NA,NA,pleasant,unpleasant,NA,NA,NA,NA,NA,left,936.89999999851,true,NA,NA,NA,NA,NA,NA,NA,NA
zdFLHTFo,3ac6mfv6anv2a7u5af0lkpxttwbhzq,39dd6s19jtosdh1xbgxho6w85siezp,zdFLHTFo,2020-0188,2021-10-30,22:37:42,00:01:07,NA,incomplete,false,true,NA,NA,4,26,NA,blue,n_s_004.jpg,NA,NA,NA,NA,NA,unpleasant,pleasant,NA,NA,NA,NA,NA,right,1079.40000000596,true,NA,NA,NA,NA,NA,NA,NA,NA
zdFLHTFo,3ac6mfv6anv2a7u5af0lkpxttwbhzq,39dd6s19jtosdh1xbgxho6w85siezp,zdFLHTFo,2020-0188,2021-10-30,22:37:42,00:01:07,NA,incomplete,false,true,NA,NA,4,27,NA,blue,n_l_001.jpg,NA,NA,NA,NA,NA,pleasant,unpleasant,NA,NA,NA,NA,NA,left,1237.5,true,NA,NA,NA,NA,NA,NA,NA,NA
zdFLHTFo,3ac6mfv6anv2a7u5af0lkpxttwbhzq,39dd6s19jtosdh1xbgxho6w85siezp,zdFLHTFo,2020-0188,2021-10-30,22:37:42,00:01:07,NA,incomplete,false,true,NA,NA,4,28,NA,blue,m_s_075.jpg,NA,NA,NA,NA,NA,pleasant,unpleasant,NA,NA,NA,NA,NA,left,757.30000000447,true,NA,NA,NA,NA,NA,NA,NA,NA
zdFLHTFo,3ac6mfv6anv2a7u5af0lkpxttwbhzq,39dd6s19jtosdh1xbgxho6w85siezp,zdFLHTFo,2020-0188,2021-10-30,22:37:42,00:01:07,NA,incomplete,false,true,NA,NA,4,29,NA,blue,n_l_089.jpg,NA,NA,NA,NA,NA,pleasant,unpleasant,NA,NA,NA,NA,NA,left,1251.60000000149,true,NA,NA,NA,NA,NA,NA,NA,NA
zdFLHTFo,3ac6mfv6anv2a7u5af0lkpxttwbhzq,39dd6s19jtosdh1xbgxho6w85siezp,zdFLHTFo,2020-0188,2021-10-30,22:37:42,00:01:07,NA,incomplete,false,true,NA,NA,4,30,NA,orange,m_l_101.jpg,NA,NA,NA,NA,NA,unpleasant,pleasant,NA,NA,NA,NA,NA,right,1474.29999999702,true,NA,NA,NA,NA,NA,NA,NA,NA
zdFLHTFo,3ac6mfv6anv2a7u5af0lkpxttwbhzq,39dd6s19jtosdh1xbgxho6w85siezp,zdFLHTFo,2020-0188,2021-10-30,22:37:42,00:01:07,NA,incomplete,false,true,NA,NA,4,31,NA,orange,m_s_090.jpg,NA,NA,NA,NA,NA,pleasant,unpleasant,NA,NA,NA,NA,NA,left,1681.19999999553,true,NA,NA,NA,NA,NA,NA,NA,NA
zdFLHTFo,3ac6mfv6anv2a7u5af0lkpxttwbhzq,39dd6s19jtosdh1xbgxho6w85siezp,zdFLHTFo,2020-0188,2021-10-30,22:37:42,00:01:07,NA,incomplete,false,true,NA,NA,4,32,NA,orange,n_s_068.jpg,NA,NA,NA,NA,NA,pleasant,unpleasant,NA,NA,NA,NA,NA,left,832.39999999851,true,NA,NA,NA,NA,NA,NA,NA,NA
zdFLHTFo,3ac6mfv6anv2a7u5af0lkpxttwbhzq,39dd6s19jtosdh1xbgxho6w85siezp,zdFLHTFo,2020-0188,2021-10-30,22:37:42,00:01:07,NA,incomplete,false,true,NA,NA,4,33,NA,orange,m_l_017.jpg,NA,NA,NA,NA,NA,pleasant,unpleasant,NA,NA,NA,NA,NA,left,1089,true,NA,NA,NA,NA,NA,NA,NA,NA
zdFLHTFo,3ac6mfv6anv2a7u5af0lkpxttwbhzq,39dd6s19jtosdh1xbgxho6w85siezp,zdFLHTFo,2020-0188,2021-10-30,22:37:42,00:01:07,NA,incomplete,false,true,NA,NA,4,34,NA,orange,m_s_059.jpg,NA,NA,NA,NA,NA,pleasant,unpleasant,NA,NA,NA,NA,NA,left,1710.80000000447,true,NA,NA,NA,NA,NA,NA,NA,NA
zdFLHTFo,3ac6mfv6anv2a7u5af0lkpxttwbhzq,39dd6s19jtosdh1xbgxho6w85siezp,zdFLHTFo,2020-0188,2021-10-30,22:37:42,00:01:07,NA,incomplete,false,true,NA,NA,4,35,NA,orange,n_l_050.jpg,NA,NA,NA,NA,NA,pleasant,unpleasant,NA,NA,NA,NA,NA,left,1133.39999999851,true,NA,NA,NA,NA,NA,NA,NA,NA
zdFLHTFo,3ac6mfv6anv2a7u5af0lkpxttwbhzq,39dd6s19jtosdh1xbgxho6w85siezp,zdFLHTFo,2020-0188,2021-10-30,22:37:42,00:01:07,NA,incomplete,false,NA,NA,true,4,0,NA,NA,NA,right,n_l_104.jpg,white,red,NA,NA,NA,NA,NA,NA,NA,NA,NA,NaN,NA,2900.6999999955297,right,1,NA,NA,NA,NA,NA
zdFLHTFo,3ac6mfv6anv2a7u5af0lkpxttwbhzq,39dd6s19jtosdh1xbgxho6w85siezp,zdFLHTFo,2020-0188,2021-10-30,22:37:42,00:01:07,NA,incomplete,false,NA,NA,true,4,1,NA,NA,NA,right,m_l_009.jpg,blue,white,NA,NA,NA,NA,NA,NA,NA,NA,NA,NaN,NA,2294.60000000149,left,0,NA,NA,NA,NA,NA
zdFLHTFo,3ac6mfv6anv2a7u5af0lkpxttwbhzq,39dd6s19jtosdh1xbgxho6w85siezp,zdFLHTFo,2020-0188,2021-10-30,22:37:42,00:01:07,NA,incomplete,false,NA,NA,true,4,2,NA,NA,NA,right,n_s_056.jpg,blue,white,NA,NA,NA,NA,NA,NA,NA,NA,NA,NaN,NA,2000.7000000029802,left,0,NA,NA,NA,NA,NA
zdFLHTFo,3ac6mfv6anv2a7u5af0lkpxttwbhzq,39dd6s19jtosdh1xbgxho6w85siezp,zdFLHTFo,2020-0188,2021-10-30,22:37:42,00:01:07,NA,incomplete,false,NA,NA,true,4,3,NA,NA,NA,right,n_l_062.jpg,red,white,NA,NA,NA,NA,NA,NA,NA,NA,NA,NaN,NA,2425.10000000149,right,1,NA,NA,NA,NA,NA
zdFLHTFo,3ac6mfv6anv2a7u5af0lkpxttwbhzq,39dd6s19jtosdh1xbgxho6w85siezp,zdFLHTFo,2020-0188,2021-10-30,22:37:42,00:01:07,NA,incomplete,false,NA,NA,true,4,4,NA,NA,NA,left,n_l_050.jpg,orange,blue,NA,NA,NA,NA,NA,NA,NA,NA,NA,NaN,NA,1597.8999999985099,right,0,NA,NA,NA,NA,NA
zdFLHTFo,3ac6mfv6anv2a7u5af0lkpxttwbhzq,39dd6s19jtosdh1xbgxho6w85siezp,zdFLHTFo,2020-0188,2021-10-30,22:37:42,00:01:07,NA,incomplete,false,NA,NA,true,4,5,NA,NA,NA,right,n_s_037.jpg,brown,yellow,NA,NA,NA,NA,NA,NA,NA,NA,NA,NaN,NA,1900.1000000014901,left,0,NA,NA,NA,NA,NA
zdFLHTFo,3ac6mfv6anv2a7u5af0lkpxttwbhzq,39dd6s19jtosdh1xbgxho6w85siezp,zdFLHTFo,2020-0188,2021-10-30,22:37:42,00:01:07,NA,incomplete,false,NA,NA,true,4,6,NA,NA,NA,right,m_s_004.jpg,yellow,red,NA,NA,NA,NA,NA,NA,NA,NA,NA,NaN,NA,3588.2999999970198,left,0,NA,NA,NA,NA,NA
zdFLHTFo,3ac6mfv6anv2a7u5af0lkpxttwbhzq,39dd6s19jtosdh1xbgxho6w85siezp,zdFLHTFo,2020-0188,2021-10-30,22:37:42,00:01:07,NA,incomplete,false,NA,NA,true,4,7,NA,NA,NA,right,n_l_089.jpg,white,blue,NA,NA,NA,NA,NA,NA,NA,NA,NA,NaN,NA,2784.2000000029802,right,1,NA,NA,NA,NA,NA
zdFLHTFo,3ac6mfv6anv2a7u5af0lkpxttwbhzq,39dd6s19jtosdh1xbgxho6w85siezp,zdFLHTFo,2020-0188,2021-10-30,22:37:42,00:01:07,NA,incomplete,false,NA,NA,true,4,8,NA,NA,NA,left,n_s_004.jpg,blue,white,NA,NA,NA,NA,NA,NA,NA,NA,NA,NaN,NA,2290.7000000029802,left,1,NA,NA,NA,NA,NA
zdFLHTFo,3ac6mfv6anv2a7u5af0lkpxttwbhzq,39dd6s19jtosdh1xbgxho6w85siezp,zdFLHTFo,2020-0188,2021-10-30,22:37:42,00:01:07,NA,incomplete,false,NA,NA,true,4,9,NA,NA,NA,left,m_l_021.jpg,red,white,NA,NA,NA,NA,NA,NA,NA,NA,NA,NaN,NA,3062.1999999955297,right,0,NA,NA,NA,NA,NA
zdFLHTFo,3ac6mfv6anv2a7u5af0lkpxttwbhzq,39dd6s19jtosdh1xbgxho6w85siezp,zdFLHTFo,2020-0188,2021-10-30,22:37:42,00:01:07,NA,incomplete,false,NA,NA,true,4,10,NA,NA,NA,right,m_s_075.jpg,orange,blue,NA,NA,NA,NA,NA,NA,NA,NA,NA,NaN,NA,2453.5,right,1,NA,NA,NA,NA,NA
zdFLHTFo,3ac6mfv6anv2a7u5af0lkpxttwbhzq,39dd6s19jtosdh1xbgxho6w85siezp,zdFLHTFo,2020-0188,2021-10-30,22:37:42,00:01:07,NA,incomplete,false,NA,NA,true,4,11,NA,NA,NA,right,n_s_108.jpg,orange,blue,NA,NA,NA,NA,NA,NA,NA,NA,NA,NaN,NA,1442.6000000014901,right,1,NA,NA,NA,NA,NA
zdFLHTFo,3ac6mfv6anv2a7u5af0lkpxttwbhzq,39dd6s19jtosdh1xbgxho6w85siezp,zdFLHTFo,2020-0188,2021-10-30,22:37:42,00:01:07,NA,incomplete,false,NA,NA,true,4,12,NA,NA,NA,left,m_s_090.jpg,orange,blue,NA,NA,NA,NA,NA,NA,NA,NA,NA,NaN,NA,1961.3999999985099,left,1,NA,NA,NA,NA,NA
zdFLHTFo,3ac6mfv6anv2a7u5af0lkpxttwbhzq,39dd6s19jtosdh1xbgxho6w85siezp,zdFLHTFo,2020-0188,2021-10-30,22:37:42,00:01:07,NA,incomplete,false,NA,NA,true,4,13,NA,NA,NA,right,n_s_068.jpg,blue,orange,NA,NA,NA,NA,NA,NA,NA,NA,NA,NaN,NA,1481.8999999985099,right,1,NA,NA,NA,NA,NA
zdFLHTFo,3ac6mfv6anv2a7u5af0lkpxttwbhzq,39dd6s19jtosdh1xbgxho6w85siezp,zdFLHTFo,2020-0188,2021-10-30,22:37:42,00:01:07,NA,incomplete,false,NA,NA,true,4,14,NA,NA,NA,right,m_s_054.jpg,brown,yellow,NA,NA,NA,NA,NA,NA,NA,NA,NA,NaN,NA,5752.39999999851,left,0,NA,NA,NA,NA,NA
zdFLHTFo,3ac6mfv6anv2a7u5af0lkpxttwbhzq,39dd6s19jtosdh1xbgxho6w85siezp,zdFLHTFo,2020-0188,2021-10-30,22:37:42,00:01:07,NA,incomplete,false,NA,NA,true,4,15,NA,NA,NA,left,m_l_065.jpg,brown,yellow,NA,NA,NA,NA,NA,NA,NA,NA,NA,NaN,NA,1800.7999999970198,left,1,NA,NA,NA,NA,NA
zdFLHTFo,3ac6mfv6anv2a7u5af0lkpxttwbhzq,39dd6s19jtosdh1xbgxho6w85siezp,zdFLHTFo,2020-0188,2021-10-30,22:37:42,00:01:07,NA,incomplete,false,NA,NA,true,4,16,NA,NA,NA,left,n_s_084.jpg,yellow,red,NA,NA,NA,NA,NA,NA,NA,NA,NA,NaN,NA,4038.5,left,1,NA,NA,NA,NA,NA
zdFLHTFo,3ac6mfv6anv2a7u5af0lkpxttwbhzq,39dd6s19jtosdh1xbgxho6w85siezp,zdFLHTFo,2020-0188,2021-10-30,22:37:42,00:01:07,NA,incomplete,false,NA,NA,true,4,17,NA,NA,NA,right,n_l_055.jpg,brown,yellow,NA,NA,NA,NA,NA,NA,NA,NA,NA,NaN,NA,2102.2999999970198,left,0,NA,NA,NA,NA,NA
zdFLHTFo,3ac6mfv6anv2a7u5af0lkpxttwbhzq,39dd6s19jtosdh1xbgxho6w85siezp,zdFLHTFo,2020-0188,2021-10-30,22:37:42,00:01:07,NA,incomplete,false,NA,NA,true,4,18,NA,NA,NA,left,n_l_048.jpg,brown,yellow,NA,NA,NA,NA,NA,NA,NA,NA,NA,NaN,NA,1974.2999999970198,left,1,NA,NA,NA,NA,NA
zdFLHTFo,3ac6mfv6anv2a7u5af0lkpxttwbhzq,39dd6s19jtosdh1xbgxho6w85siezp,zdFLHTFo,2020-0188,2021-10-30,22:37:42,00:01:07,NA,incomplete,false,NA,NA,true,4,19,NA,NA,NA,right,m_s_069.jpg,yellow,red,NA,NA,NA,NA,NA,NA,NA,NA,NA,NaN,NA,3904.60000000149,right,1,NA,NA,NA,NA,NA
zdFLHTFo,3ac6mfv6anv2a7u5af0lkpxttwbhzq,39dd6s19jtosdh1xbgxho6w85siezp,zdFLHTFo,2020-0188,2021-10-30,22:37:42,00:01:07,NA,incomplete,false,NA,NA,true,4,20,NA,NA,NA,right,m_s_017.jpg,blue,white,NA,NA,NA,NA,NA,NA,NA,NA,NA,NaN,NA,2186.2999999970198,right,1,NA,NA,NA,NA,NA
zdFLHTFo,3ac6mfv6anv2a7u5af0lkpxttwbhzq,39dd6s19jtosdh1xbgxho6w85siezp,zdFLHTFo,2020-0188,2021-10-30,22:37:42,00:01:07,NA,incomplete,false,NA,NA,true,4,21,NA,NA,NA,right,m_s_062.jpg,yellow,brown,NA,NA,NA,NA,NA,NA,NA,NA,NA,NaN,NA,1392.3999999985099,right,1,NA,NA,NA,NA,NA
zdFLHTFo,3ac6mfv6anv2a7u5af0lkpxttwbhzq,39dd6s19jtosdh1xbgxho6w85siezp,zdFLHTFo,2020-0188,2021-10-30,22:37:42,00:01:07,NA,incomplete,false,NA,true,NA,4,0,NA,NA,NA,left,NA,NA,NA,absent,NA,NA,n_l_055.jpg,yellow,n_s_037.jpg,yellow,within,NA,NaN,NA,NA,NA,NA,left,5726.4000000059605,1,2,2694.7000000029802
zdFLHTFo,3ac6mfv6anv2a7u5af0lkpxttwbhzq,39dd6s19jtosdh1xbgxho6w85siezp,zdFLHTFo,2020-0188,2021-10-30,22:37:42,00:01:07,NA,incomplete,false,NA,true,NA,4,1,NA,NA,NA,left,NA,NA,NA,absent,NA,NA,n_s_084.jpg,yellow,m_s_004.jpg,red,between,NA,NaN,NA,NA,NA,NA,right,1908.6000000014901,0,1,1523
zdFLHTFo,3ac6mfv6anv2a7u5af0lkpxttwbhzq,39dd6s19jtosdh1xbgxho6w85siezp,zdFLHTFo,2020-0188,2021-10-30,22:37:42,00:01:07,NA,incomplete,false,NA,true,NA,4,2,NA,NA,NA,left,NA,NA,NA,absent,NA,NA,n_l_048.jpg,brown,m_s_054.jpg,yellow,between,NA,NaN,NA,NA,NA,NA,left,5748.39999999851,1,2,1882.3999999985099
zdFLHTFo,3ac6mfv6anv2a7u5af0lkpxttwbhzq,39dd6s19jtosdh1xbgxho6w85siezp,zdFLHTFo,2020-0188,2021-10-30,22:37:42,00:01:07,NA,incomplete,false,NA,true,NA,4,3,NA,NA,NA,left,NA,NA,NA,absent,NA,NA,m_s_090.jpg,orange,n_l_050.jpg,orange,within,NA,NaN,NA,NA,NA,NA,right,2550.89999999851,0,3,1486.3999999985099
zdFLHTFo,3ac6mfv6anv2a7u5af0lkpxttwbhzq,39dd6s19jtosdh1xbgxho6w85siezp,zdFLHTFo,2020-0188,2021-10-30,22:37:42,00:01:07,NA,incomplete,false,NA,true,NA,4,4,NA,NA,NA,right,NA,NA,NA,absent,NA,NA,n_l_089.jpg,blue,n_s_108.jpg,blue,within,NA,NaN,NA,NA,NA,NA,left,2858.2000000029802,0,2,1778
zdFLHTFo,3ac6mfv6anv2a7u5af0lkpxttwbhzq,39dd6s19jtosdh1xbgxho6w85siezp,zdFLHTFo,2020-0188,2021-10-30,22:37:42,00:01:07,NA,incomplete,false,NA,true,NA,4,5,NA,NA,NA,left,NA,NA,NA,absent,NA,NA,m_l_021.jpg,red,m_s_069.jpg,red,within,NA,NaN,NA,NA,NA,NA,left,2642.6999999955297,1,1,4590.60000000149
zdFLHTFo,3ac6mfv6anv2a7u5af0lkpxttwbhzq,39dd6s19jtosdh1xbgxho6w85siezp,zdFLHTFo,2020-0188,2021-10-30,22:37:42,00:01:07,NA,incomplete,false,NA,true,NA,4,6,NA,NA,NA,right,NA,NA,NA,absent,NA,NA,n_l_062.jpg,white,n_l_104.jpg,red,between,NA,NaN,NA,NA,NA,NA,left,3044.39999999851,0,2,1898.5
zdFLHTFo,3ac6mfv6anv2a7u5af0lkpxttwbhzq,39dd6s19jtosdh1xbgxho6w85siezp,zdFLHTFo,2020-0188,2021-10-30,22:37:42,00:01:07,NA,incomplete,false,NA,true,NA,4,7,NA,NA,NA,left,NA,NA,NA,absent,NA,NA,m_s_017.jpg,white,n_s_004.jpg,blue,between,NA,NaN,NA,NA,NA,NA,right,4054.6999999955297,0,2,2622.7000000029802
zdFLHTFo,3ac6mfv6anv2a7u5af0lkpxttwbhzq,39dd6s19jtosdh1xbgxho6w85siezp,zdFLHTFo,2020-0188,2021-10-30,22:37:42,00:01:07,NA,incomplete,false,NA,true,NA,4,8,NA,NA,NA,left,NA,NA,NA,absent,NA,NA,m_s_075.jpg,blue,n_s_068.jpg,orange,between,NA,NaN,NA,NA,NA,NA,left,2710.8000000044703,1,2,1808.6000000014901
zdFLHTFo,3ac6mfv6anv2a7u5af0lkpxttwbhzq,39dd6s19jtosdh1xbgxho6w85siezp,zdFLHTFo,2020-0188,2021-10-30,22:37:42,00:01:07,NA,incomplete,false,NA,true,NA,4,9,NA,NA,NA,left,NA,NA,NA,absent,NA,NA,m_l_009.jpg,white,n_s_056.jpg,white,within,NA,NaN,NA,NA,NA,NA,right,1998.6000000014901,0,2,1870.7000000029802
zdFLHTFo,3ac6mfv6anv2a7u5af0lkpxttwbhzq,39dd6s19jtosdh1xbgxho6w85siezp,zdFLHTFo,2020-0188,2021-10-30,22:37:42,00:01:07,NA,incomplete,false,NA,true,NA,4,10,NA,NA,NA,left,NA,NA,NA,absent,NA,NA,m_l_065.jpg,brown,m_s_062.jpg,brown,within,NA,NaN,NA,NA,NA,NA,left,2484,1,2,1876.7999999970198
zdFLHTFo,3ac6mfv6anv2a7u5af0lkpxttwbhzq,39dd6s19jtosdh1xbgxho6w85siezp,zdFLHTFo,2020-0188,2021-10-30,22:37:42,00:01:07,NA,incomplete,false,true,NA,NA,5,0,NA,purple,m_l_115.jpg,NA,NA,NA,NA,NA,pleasant,unpleasant,NA,NA,NA,NA,NA,left,2618.70000000298,true,NA,NA,NA,NA,NA,NA,NA,NA
zdFLHTFo,3ac6mfv6anv2a7u5af0lkpxttwbhzq,39dd6s19jtosdh1xbgxho6w85siezp,zdFLHTFo,2020-0188,2021-10-30,22:37:42,00:01:07,NA,incomplete,false,true,NA,NA,5,1,NA,purple,m_s_033.jpg,NA,NA,NA,NA,NA,pleasant,unpleasant,NA,NA,NA,NA,NA,left,833.30000000447,true,NA,NA,NA,NA,NA,NA,NA,NA
zdFLHTFo,3ac6mfv6anv2a7u5af0lkpxttwbhzq,39dd6s19jtosdh1xbgxho6w85siezp,zdFLHTFo,2020-0188,2021-10-30,22:37:42,00:01:07,NA,incomplete,false,true,NA,NA,5,2,NA,purple,n_l_098.jpg,NA,NA,NA,NA,NA,pleasant,unpleasant,NA,NA,NA,NA,NA,left,953,true,NA,NA,NA,NA,NA,NA,NA,NA
zdFLHTFo,3ac6mfv6anv2a7u5af0lkpxttwbhzq,39dd6s19jtosdh1xbgxho6w85siezp,zdFLHTFo,2020-0188,2021-10-30,22:37:42,00:01:07,NA,incomplete,false,true,NA,NA,5,3,NA,purple,m_s_049.jpg,NA,NA,NA,NA,NA,unpleasant,pleasant,NA,NA,NA,NA,NA,right,926.30000000447,true,NA,NA,NA,NA,NA,NA,NA,NA
zdFLHTFo,3ac6mfv6anv2a7u5af0lkpxttwbhzq,39dd6s19jtosdh1xbgxho6w85siezp,zdFLHTFo,2020-0188,2021-10-30,22:37:42,00:01:07,NA,incomplete,false,true,NA,NA,5,4,NA,purple,m_l_034.jpg,NA,NA,NA,NA,NA,pleasant,unpleasant,NA,NA,NA,NA,NA,left,813.59999999404,true,NA,NA,NA,NA,NA,NA,NA,NA
zdFLHTFo,3ac6mfv6anv2a7u5af0lkpxttwbhzq,39dd6s19jtosdh1xbgxho6w85siezp,zdFLHTFo,2020-0188,2021-10-30,22:37:42,00:01:07,NA,incomplete,false,true,NA,NA,5,5,NA,purple,n_l_064.jpg,NA,NA,NA,NA,NA,unpleasant,pleasant,NA,NA,NA,NA,NA,right,1229.40000000596,true,NA,NA,NA,NA,NA,NA,NA,NA
zdFLHTFo,3ac6mfv6anv2a7u5af0lkpxttwbhzq,39dd6s19jtosdh1xbgxho6w85siezp,zdFLHTFo,2020-0188,2021-10-30,22:37:42,00:01:07,NA,incomplete,false,true,NA,NA,5,6,NA,blue,n_s_065.jpg,NA,NA,NA,NA,NA,pleasant,unpleasant,NA,NA,NA,NA,NA,left,1396.60000000149,true,NA,NA,NA,NA,NA,NA,NA,NA
zdFLHTFo,3ac6mfv6anv2a7u5af0lkpxttwbhzq,39dd6s19jtosdh1xbgxho6w85siezp,zdFLHTFo,2020-0188,2021-10-30,22:37:42,00:01:07,NA,incomplete,false,true,NA,NA,5,7,NA,blue,n_s_030.jpg,NA,NA,NA,NA,NA,unpleasant,pleasant,NA,NA,NA,NA,NA,right,82.8000000044703,true,NA,NA,NA,NA,NA,NA,NA,NA
zdFLHTFo,3ac6mfv6anv2a7u5af0lkpxttwbhzq,39dd6s19jtosdh1xbgxho6w85siezp,zdFLHTFo,2020-0188,2021-10-30,22:37:42,00:01:07,NA,incomplete,false,true,NA,NA,5,8,NA,blue,m_l_069.jpg,NA,NA,NA,NA,NA,pleasant,unpleasant,NA,NA,NA,NA,NA,right,2122.69999999553,true,NA,NA,NA,NA,NA,NA,NA,NA
zdFLHTFo,3ac6mfv6anv2a7u5af0lkpxttwbhzq,39dd6s19jtosdh1xbgxho6w85siezp,zdFLHTFo,2020-0188,2021-10-30,22:37:42,00:01:07,NA,incomplete,false,true,NA,NA,5,9,NA,blue,n_l_115.jpg,NA,NA,NA,NA,NA,unpleasant,pleasant,NA,NA,NA,NA,NA,right,1865.10000000149,true,NA,NA,NA,NA,NA,NA,NA,NA
zdFLHTFo,3ac6mfv6anv2a7u5af0lkpxttwbhzq,39dd6s19jtosdh1xbgxho6w85siezp,zdFLHTFo,2020-0188,2021-10-30,22:37:42,00:01:07,NA,incomplete,false,true,NA,NA,5,10,NA,blue,n_l_091.jpg,NA,NA,NA,NA,NA,pleasant,unpleasant,NA,NA,NA,NA,NA,left,896.70000000298,true,NA,NA,NA,NA,NA,NA,NA,NA
zdFLHTFo,3ac6mfv6anv2a7u5af0lkpxttwbhzq,39dd6s19jtosdh1xbgxho6w85siezp,zdFLHTFo,2020-0188,2021-10-30,22:37:42,00:01:07,NA,incomplete,false,true,NA,NA,5,11,NA,blue,m_l_085.jpg,NA,NA,NA,NA,NA,unpleasant,pleasant,NA,NA,NA,NA,NA,right,919.70000000298,true,NA,NA,NA,NA,NA,NA,NA,NA
zdFLHTFo,3ac6mfv6anv2a7u5af0lkpxttwbhzq,39dd6s19jtosdh1xbgxho6w85siezp,zdFLHTFo,2020-0188,2021-10-30,22:37:42,00:01:07,NA,incomplete,false,true,NA,NA,5,12,NA,orange,m_s_016.jpg,NA,NA,NA,NA,NA,unpleasant,pleasant,NA,NA,NA,NA,NA,right,1095.30000000447,true,NA,NA,NA,NA,NA,NA,NA,NA
zdFLHTFo,3ac6mfv6anv2a7u5af0lkpxttwbhzq,39dd6s19jtosdh1xbgxho6w85siezp,zdFLHTFo,2020-0188,2021-10-30,22:37:42,00:01:07,NA,incomplete,false,true,NA,NA,5,13,NA,orange,m_l_062.jpg,NA,NA,NA,NA,NA,unpleasant,pleasant,NA,NA,NA,NA,NA,right,1015.30000000447,true,NA,NA,NA,NA,NA,NA,NA,NA
zdFLHTFo,3ac6mfv6anv2a7u5af0lkpxttwbhzq,39dd6s19jtosdh1xbgxho6w85siezp,zdFLHTFo,2020-0188,2021-10-30,22:37:42,00:01:07,NA,incomplete,false,true,NA,NA,5,14,NA,orange,n_s_020.jpg,NA,NA,NA,NA,NA,unpleasant,pleasant,NA,NA,NA,NA,NA,right,437.10000000149,true,NA,NA,NA,NA,NA,NA,NA,NA
zdFLHTFo,3ac6mfv6anv2a7u5af0lkpxttwbhzq,39dd6s19jtosdh1xbgxho6w85siezp,zdFLHTFo,2020-0188,2021-10-30,22:37:42,00:01:07,NA,incomplete,false,true,NA,NA,5,15,NA,orange,n_s_003.jpg,NA,NA,NA,NA,NA,pleasant,unpleasant,NA,NA,NA,NA,NA,right,439.19999999553,true,NA,NA,NA,NA,NA,NA,NA,NA
