workerId,hitId,assignmentId,subject,studyid,exp_date,exp_start,exp_end,time_start,time_end,practice,encoding,memory,association,block,trial,event_order,event,stim,answer,object,left_context,right_context,context_type,label_left,label_right,left_image,left_event,right_image,right_event,condition,response,response_time,response_acc,association_response_time,association_response,association_acc,order_response,order_response_time,order_acc,distance_response,distance_response_time
f3SXGWFA,3bawbgqgzoco8yjjw9p686v3rigv79,3a0ex8zrnc1u1of853t89rhlw1aybr,f3SXGWFA,2020-0188,2021-10-31,03:20:50,04:35:25,NA,incomplete,true,true,NA,NA,0,0,NA,gray,m_l_035.jpg,NA,NA,NA,NA,NA,pleasant,unpleasant,NA,NA,NA,NA,NA,left,1725.90000000596,true,NA,NA,NA,NA,NA,NA,NA,NA
f3SXGWFA,3bawbgqgzoco8yjjw9p686v3rigv79,3a0ex8zrnc1u1of853t89rhlw1aybr,f3SXGWFA,2020-0188,2021-10-31,03:20:50,04:35:25,NA,incomplete,true,true,NA,NA,0,1,NA,gray,m_l_063.jpg,NA,NA,NA,NA,NA,unpleasant,pleasant,NA,NA,NA,NA,NA,left,2202.59999999404,true,NA,NA,NA,NA,NA,NA,NA,NA
f3SXGWFA,3bawbgqgzoco8yjjw9p686v3rigv79,3a0ex8zrnc1u1of853t89rhlw1aybr,f3SXGWFA,2020-0188,2021-10-31,03:20:50,04:35:25,NA,incomplete,true,true,NA,NA,0,2,NA,gray,m_l_009.jpg,NA,NA,NA,NA,NA,unpleasant,pleasant,NA,NA,NA,NA,NA,left,2073.39999997616,true,NA,NA,NA,NA,NA,NA,NA,NA
f3SXGWFA,3bawbgqgzoco8yjjw9p686v3rigv79,3a0ex8zrnc1u1of853t89rhlw1aybr,f3SXGWFA,2020-0188,2021-10-31,03:20:50,04:35:25,NA,incomplete,true,true,NA,NA,0,3,NA,gray,m_l_045.jpg,NA,NA,NA,NA,NA,pleasant,unpleasant,NA,NA,NA,NA,NA,left,1760.20000001788,true,NA,NA,NA,NA,NA,NA,NA,NA
f3SXGWFA,3bawbgqgzoco8yjjw9p686v3rigv79,3a0ex8zrnc1u1of853t89rhlw1aybr,f3SXGWFA,2020-0188,2021-10-31,03:20:50,04:35:25,NA,incomplete,true,true,NA,NA,0,4,NA,gray,n_l_030.jpg,NA,NA,NA,NA,NA,pleasant,unpleasant,NA,NA,NA,NA,NA,left,1520.5,true,NA,NA,NA,NA,NA,NA,NA,NA
f3SXGWFA,3bawbgqgzoco8yjjw9p686v3rigv79,3a0ex8zrnc1u1of853t89rhlw1aybr,f3SXGWFA,2020-0188,2021-10-31,03:20:50,04:35:25,NA,incomplete,true,true,NA,NA,0,5,NA,gray,m_l_042.jpg,NA,NA,NA,NA,NA,unpleasant,pleasant,NA,NA,NA,NA,NA,right,988,true,NA,NA,NA,NA,NA,NA,NA,NA
f3SXGWFA,3bawbgqgzoco8yjjw9p686v3rigv79,3a0ex8zrnc1u1of853t89rhlw1aybr,f3SXGWFA,2020-0188,2021-10-31,03:20:50,04:35:25,NA,incomplete,true,true,NA,NA,0,6,NA,red,n_s_059.jpg,NA,NA,NA,NA,NA,unpleasant,pleasant,NA,NA,NA,NA,NA,left,1461.40000000596,true,NA,NA,NA,NA,NA,NA,NA,NA
f3SXGWFA,3bawbgqgzoco8yjjw9p686v3rigv79,3a0ex8zrnc1u1of853t89rhlw1aybr,f3SXGWFA,2020-0188,2021-10-31,03:20:50,04:35:25,NA,incomplete,true,true,NA,NA,0,7,NA,red,m_l_021.jpg,NA,NA,NA,NA,NA,unpleasant,pleasant,NA,NA,NA,NA,NA,left,1060.69999998808,true,NA,NA,NA,NA,NA,NA,NA,NA
f3SXGWFA,3bawbgqgzoco8yjjw9p686v3rigv79,3a0ex8zrnc1u1of853t89rhlw1aybr,f3SXGWFA,2020-0188,2021-10-31,03:20:50,04:35:25,NA,incomplete,true,true,NA,NA,0,8,NA,red,n_l_058.jpg,NA,NA,NA,NA,NA,unpleasant,pleasant,NA,NA,NA,NA,NA,left,2061.59999999404,true,NA,NA,NA,NA,NA,NA,NA,NA
f3SXGWFA,3bawbgqgzoco8yjjw9p686v3rigv79,3a0ex8zrnc1u1of853t89rhlw1aybr,f3SXGWFA,2020-0188,2021-10-31,03:20:50,04:35:25,NA,incomplete,true,true,NA,NA,0,9,NA,red,n_l_052.jpg,NA,NA,NA,NA,NA,unpleasant,pleasant,NA,NA,NA,NA,NA,left,743.800000011921,true,NA,NA,NA,NA,NA,NA,NA,NA
f3SXGWFA,3bawbgqgzoco8yjjw9p686v3rigv79,3a0ex8zrnc1u1of853t89rhlw1aybr,f3SXGWFA,2020-0188,2021-10-31,03:20:50,04:35:25,NA,incomplete,true,true,NA,NA,0,10,NA,red,n_s_099.jpg,NA,NA,NA,NA,NA,unpleasant,pleasant,NA,NA,NA,NA,NA,right,1216.59999999404,true,NA,NA,NA,NA,NA,NA,NA,NA
f3SXGWFA,3bawbgqgzoco8yjjw9p686v3rigv79,3a0ex8zrnc1u1of853t89rhlw1aybr,f3SXGWFA,2020-0188,2021-10-31,03:20:50,04:35:25,NA,incomplete,true,true,NA,NA,0,11,NA,red,m_l_086.jpg,NA,NA,NA,NA,NA,unpleasant,pleasant,NA,NA,NA,NA,NA,left,1612.79999998212,true,NA,NA,NA,NA,NA,NA,NA,NA
f3SXGWFA,3bawbgqgzoco8yjjw9p686v3rigv79,3a0ex8zrnc1u1of853t89rhlw1aybr,f3SXGWFA,2020-0188,2021-10-31,03:20:50,04:35:25,NA,incomplete,true,true,NA,NA,0,12,NA,black,n_s_047.jpg,NA,NA,NA,NA,NA,unpleasant,pleasant,NA,NA,NA,NA,NA,right,1214.80000001192,true,NA,NA,NA,NA,NA,NA,NA,NA
f3SXGWFA,3bawbgqgzoco8yjjw9p686v3rigv79,3a0ex8zrnc1u1of853t89rhlw1aybr,f3SXGWFA,2020-0188,2021-10-31,03:20:50,04:35:25,NA,incomplete,true,true,NA,NA,0,13,NA,black,m_l_083.jpg,NA,NA,NA,NA,NA,unpleasant,pleasant,NA,NA,NA,NA,NA,right,1170.69999998808,true,NA,NA,NA,NA,NA,NA,NA,NA
f3SXGWFA,3bawbgqgzoco8yjjw9p686v3rigv79,3a0ex8zrnc1u1of853t89rhlw1aybr,f3SXGWFA,2020-0188,2021-10-31,03:20:50,04:35:25,NA,incomplete,true,true,NA,NA,0,14,NA,black,n_l_071.jpg,NA,NA,NA,NA,NA,unpleasant,pleasant,NA,NA,NA,NA,NA,right,1637.09999999404,true,NA,NA,NA,NA,NA,NA,NA,NA
f3SXGWFA,3bawbgqgzoco8yjjw9p686v3rigv79,3a0ex8zrnc1u1of853t89rhlw1aybr,f3SXGWFA,2020-0188,2021-10-31,03:20:50,04:35:25,NA,incomplete,true,true,NA,NA,0,15,NA,black,m_s_039.jpg,NA,NA,NA,NA,NA,unpleasant,pleasant,NA,NA,NA,NA,NA,left,1580.69999998808,true,NA,NA,NA,NA,NA,NA,NA,NA
f3SXGWFA,3bawbgqgzoco8yjjw9p686v3rigv79,3a0ex8zrnc1u1of853t89rhlw1aybr,f3SXGWFA,2020-0188,2021-10-31,03:20:50,04:35:25,NA,incomplete,true,true,NA,NA,0,16,NA,black,m_l_025.jpg,NA,NA,NA,NA,NA,unpleasant,pleasant,NA,NA,NA,NA,NA,right,1274.5,true,NA,NA,NA,NA,NA,NA,NA,NA
f3SXGWFA,3bawbgqgzoco8yjjw9p686v3rigv79,3a0ex8zrnc1u1of853t89rhlw1aybr,f3SXGWFA,2020-0188,2021-10-31,03:20:50,04:35:25,NA,incomplete,true,true,NA,NA,0,17,NA,black,m_s_114.jpg,NA,NA,NA,NA,NA,unpleasant,pleasant,NA,NA,NA,NA,NA,right,832,true,NA,NA,NA,NA,NA,NA,NA,NA
f3SXGWFA,3bawbgqgzoco8yjjw9p686v3rigv79,3a0ex8zrnc1u1of853t89rhlw1aybr,f3SXGWFA,2020-0188,2021-10-31,03:20:50,04:35:25,NA,incomplete,true,true,NA,NA,0,18,NA,white,m_s_009.jpg,NA,NA,NA,NA,NA,pleasant,unpleasant,NA,NA,NA,NA,NA,none,0,false,NA,NA,NA,NA,NA,NA,NA,NA
f3SXGWFA,3bawbgqgzoco8yjjw9p686v3rigv79,3a0ex8zrnc1u1of853t89rhlw1aybr,f3SXGWFA,2020-0188,2021-10-31,03:20:50,04:35:25,NA,incomplete,true,true,NA,NA,0,19,NA,white,n_s_021.jpg,NA,NA,NA,NA,NA,pleasant,unpleasant,NA,NA,NA,NA,NA,right,945.09999999404,true,NA,NA,NA,NA,NA,NA,NA,NA
f3SXGWFA,3bawbgqgzoco8yjjw9p686v3rigv79,3a0ex8zrnc1u1of853t89rhlw1aybr,f3SXGWFA,2020-0188,2021-10-31,03:20:50,04:35:25,NA,incomplete,true,true,NA,NA,0,20,NA,white,n_l_044.jpg,NA,NA,NA,NA,NA,unpleasant,pleasant,NA,NA,NA,NA,NA,right,726.40000000596,true,NA,NA,NA,NA,NA,NA,NA,NA
f3SXGWFA,3bawbgqgzoco8yjjw9p686v3rigv79,3a0ex8zrnc1u1of853t89rhlw1aybr,f3SXGWFA,2020-0188,2021-10-31,03:20:50,04:35:25,NA,incomplete,true,true,NA,NA,0,21,NA,white,n_l_038.jpg,NA,NA,NA,NA,NA,unpleasant,pleasant,NA,NA,NA,NA,NA,right,1010.5,true,NA,NA,NA,NA,NA,NA,NA,NA
f3SXGWFA,3bawbgqgzoco8yjjw9p686v3rigv79,3a0ex8zrnc1u1of853t89rhlw1aybr,f3SXGWFA,2020-0188,2021-10-31,03:20:50,04:35:25,NA,incomplete,true,true,NA,NA,0,22,NA,white,n_l_111.jpg,NA,NA,NA,NA,NA,pleasant,unpleasant,NA,NA,NA,NA,NA,right,863.299999982119,true,NA,NA,NA,NA,NA,NA,NA,NA
f3SXGWFA,3bawbgqgzoco8yjjw9p686v3rigv79,3a0ex8zrnc1u1of853t89rhlw1aybr,f3SXGWFA,2020-0188,2021-10-31,03:20:50,04:35:25,NA,incomplete,true,true,NA,NA,0,23,NA,white,m_l_085.jpg,NA,NA,NA,NA,NA,unpleasant,pleasant,NA,NA,NA,NA,NA,left,583.09999999404,true,NA,NA,NA,NA,NA,NA,NA,NA
f3SXGWFA,3bawbgqgzoco8yjjw9p686v3rigv79,3a0ex8zrnc1u1of853t89rhlw1aybr,f3SXGWFA,2020-0188,2021-10-31,03:20:50,04:35:25,NA,incomplete,true,true,NA,NA,0,24,NA,blue,m_l_059.jpg,NA,NA,NA,NA,NA,unpleasant,pleasant,NA,NA,NA,NA,NA,left,1521.20000001788,true,NA,NA,NA,NA,NA,NA,NA,NA
f3SXGWFA,3bawbgqgzoco8yjjw9p686v3rigv79,3a0ex8zrnc1u1of853t89rhlw1aybr,f3SXGWFA,2020-0188,2021-10-31,03:20:50,04:35:25,NA,incomplete,true,true,NA,NA,0,25,NA,blue,n_l_109.jpg,NA,NA,NA,NA,NA,unpleasant,pleasant,NA,NA,NA,NA,NA,left,1458.19999998808,true,NA,NA,NA,NA,NA,NA,NA,NA
f3SXGWFA,3bawbgqgzoco8yjjw9p686v3rigv79,3a0ex8zrnc1u1of853t89rhlw1aybr,f3SXGWFA,2020-0188,2021-10-31,03:20:50,04:35:25,NA,incomplete,true,true,NA,NA,0,26,NA,blue,n_l_089.jpg,NA,NA,NA,NA,NA,unpleasant,pleasant,NA,NA,NA,NA,NA,right,1072.5,true,NA,NA,NA,NA,NA,NA,NA,NA
f3SXGWFA,3bawbgqgzoco8yjjw9p686v3rigv79,3a0ex8zrnc1u1of853t89rhlw1aybr,f3SXGWFA,2020-0188,2021-10-31,03:20:50,04:35:25,NA,incomplete,true,true,NA,NA,0,27,NA,blue,m_s_001.jpg,NA,NA,NA,NA,NA,pleasant,unpleasant,NA,NA,NA,NA,NA,left,1040.90000000596,true,NA,NA,NA,NA,NA,NA,NA,NA
f3SXGWFA,3bawbgqgzoco8yjjw9p686v3rigv79,3a0ex8zrnc1u1of853t89rhlw1aybr,f3SXGWFA,2020-0188,2021-10-31,03:20:50,04:35:25,NA,incomplete,true,true,NA,NA,0,28,NA,blue,n_l_074.jpg,NA,NA,NA,NA,NA,unpleasant,pleasant,NA,NA,NA,NA,NA,left,1600.70000001788,true,NA,NA,NA,NA,NA,NA,NA,NA
f3SXGWFA,3bawbgqgzoco8yjjw9p686v3rigv79,3a0ex8zrnc1u1of853t89rhlw1aybr,f3SXGWFA,2020-0188,2021-10-31,03:20:50,04:35:25,NA,incomplete,true,true,NA,NA,0,29,NA,blue,n_s_003.jpg,NA,NA,NA,NA,NA,pleasant,unpleasant,NA,NA,NA,NA,NA,left,2370.5,true,NA,NA,NA,NA,NA,NA,NA,NA
f3SXGWFA,3bawbgqgzoco8yjjw9p686v3rigv79,3a0ex8zrnc1u1of853t89rhlw1aybr,f3SXGWFA,2020-0188,2021-10-31,03:20:50,04:35:25,NA,incomplete,true,true,NA,NA,0,30,NA,brown,m_l_066.jpg,NA,NA,NA,NA,NA,unpleasant,pleasant,NA,NA,NA,NA,NA,right,1309.70000001788,true,NA,NA,NA,NA,NA,NA,NA,NA
f3SXGWFA,3bawbgqgzoco8yjjw9p686v3rigv79,3a0ex8zrnc1u1of853t89rhlw1aybr,f3SXGWFA,2020-0188,2021-10-31,03:20:50,04:35:25,NA,incomplete,true,true,NA,NA,0,31,NA,brown,n_l_048.jpg,NA,NA,NA,NA,NA,unpleasant,pleasant,NA,NA,NA,NA,NA,right,776.90000000596,true,NA,NA,NA,NA,NA,NA,NA,NA
f3SXGWFA,3bawbgqgzoco8yjjw9p686v3rigv79,3a0ex8zrnc1u1of853t89rhlw1aybr,f3SXGWFA,2020-0188,2021-10-31,03:20:50,04:35:25,NA,incomplete,true,true,NA,NA,0,32,NA,brown,m_s_108.jpg,NA,NA,NA,NA,NA,unpleasant,pleasant,NA,NA,NA,NA,NA,left,2470.90000000596,true,NA,NA,NA,NA,NA,NA,NA,NA
f3SXGWFA,3bawbgqgzoco8yjjw9p686v3rigv79,3a0ex8zrnc1u1of853t89rhlw1aybr,f3SXGWFA,2020-0188,2021-10-31,03:20:50,04:35:25,NA,incomplete,true,true,NA,NA,0,33,NA,brown,n_l_082.jpg,NA,NA,NA,NA,NA,unpleasant,pleasant,NA,NA,NA,NA,NA,right,1141.59999999404,true,NA,NA,NA,NA,NA,NA,NA,NA
f3SXGWFA,3bawbgqgzoco8yjjw9p686v3rigv79,3a0ex8zrnc1u1of853t89rhlw1aybr,f3SXGWFA,2020-0188,2021-10-31,03:20:50,04:35:25,NA,incomplete,true,true,NA,NA,0,34,NA,brown,m_s_031.jpg,NA,NA,NA,NA,NA,unpleasant,pleasant,NA,NA,NA,NA,NA,left,960.59999999404,true,NA,NA,NA,NA,NA,NA,NA,NA
f3SXGWFA,3bawbgqgzoco8yjjw9p686v3rigv79,3a0ex8zrnc1u1of853t89rhlw1aybr,f3SXGWFA,2020-0188,2021-10-31,03:20:50,04:35:25,NA,incomplete,true,true,NA,NA,0,35,NA,brown,m_l_088.jpg,NA,NA,NA,NA,NA,unpleasant,pleasant,NA,NA,NA,NA,NA,right,1588.5,true,NA,NA,NA,NA,NA,NA,NA,NA
f3SXGWFA,3bawbgqgzoco8yjjw9p686v3rigv79,3a0ex8zrnc1u1of853t89rhlw1aybr,f3SXGWFA,2020-0188,2021-10-31,03:20:50,04:35:25,NA,incomplete,true,NA,NA,true,0,0,NA,NA,NA,left,m_l_088.jpg,brown,blue,NA,NA,NA,NA,NA,NA,NA,NA,NA,NaN,NA,2129.300000011921,left,1,NA,NA,NA,NA,NA
f3SXGWFA,3bawbgqgzoco8yjjw9p686v3rigv79,3a0ex8zrnc1u1of853t89rhlw1aybr,f3SXGWFA,2020-0188,2021-10-31,03:20:50,04:35:25,NA,incomplete,true,NA,NA,true,0,1,NA,NA,NA,right,n_l_071.jpg,white,black,NA,NA,NA,NA,NA,NA,NA,NA,NA,NaN,NA,6594,left,0,NA,NA,NA,NA,NA
f3SXGWFA,3bawbgqgzoco8yjjw9p686v3rigv79,3a0ex8zrnc1u1of853t89rhlw1aybr,f3SXGWFA,2020-0188,2021-10-31,03:20:50,04:35:25,NA,incomplete,true,NA,NA,true,0,2,NA,NA,NA,left,m_l_085.jpg,white,black,NA,NA,NA,NA,NA,NA,NA,NA,NA,NaN,NA,3049,left,1,NA,NA,NA,NA,NA
f3SXGWFA,3bawbgqgzoco8yjjw9p686v3rigv79,3a0ex8zrnc1u1of853t89rhlw1aybr,f3SXGWFA,2020-0188,2021-10-31,03:20:50,04:35:25,NA,incomplete,true,NA,NA,true,0,3,NA,NA,NA,left,n_l_058.jpg,red,black,NA,NA,NA,NA,NA,NA,NA,NA,NA,NaN,NA,1823.9000000059605,left,1,NA,NA,NA,NA,NA
f3SXGWFA,3bawbgqgzoco8yjjw9p686v3rigv79,3a0ex8zrnc1u1of853t89rhlw1aybr,f3SXGWFA,2020-0188,2021-10-31,03:20:50,04:35:25,NA,incomplete,true,NA,NA,true,0,4,NA,NA,NA,left,m_l_063.jpg,gray,red,NA,NA,NA,NA,NA,NA,NA,NA,NA,NaN,NA,1064.699999988079,left,1,NA,NA,NA,NA,NA
f3SXGWFA,3bawbgqgzoco8yjjw9p686v3rigv79,3a0ex8zrnc1u1of853t89rhlw1aybr,f3SXGWFA,2020-0188,2021-10-31,03:20:50,04:35:25,NA,incomplete,true,NA,NA,true,0,5,NA,NA,NA,right,n_l_089.jpg,brown,blue,NA,NA,NA,NA,NA,NA,NA,NA,NA,NaN,NA,1064.3999999761581,right,1,NA,NA,NA,NA,NA
f3SXGWFA,3bawbgqgzoco8yjjw9p686v3rigv79,3a0ex8zrnc1u1of853t89rhlw1aybr,f3SXGWFA,2020-0188,2021-10-31,03:20:50,04:35:25,NA,incomplete,true,NA,NA,true,0,6,NA,NA,NA,right,m_s_108.jpg,blue,brown,NA,NA,NA,NA,NA,NA,NA,NA,NA,NaN,NA,1036.699999988079,right,1,NA,NA,NA,NA,NA
f3SXGWFA,3bawbgqgzoco8yjjw9p686v3rigv79,3a0ex8zrnc1u1of853t89rhlw1aybr,f3SXGWFA,2020-0188,2021-10-31,03:20:50,04:35:25,NA,incomplete,true,NA,NA,true,0,7,NA,NA,NA,right,n_l_048.jpg,blue,brown,NA,NA,NA,NA,NA,NA,NA,NA,NA,NaN,NA,1725.0999999940395,right,1,NA,NA,NA,NA,NA
f3SXGWFA,3bawbgqgzoco8yjjw9p686v3rigv79,3a0ex8zrnc1u1of853t89rhlw1aybr,f3SXGWFA,2020-0188,2021-10-31,03:20:50,04:35:25,NA,incomplete,true,NA,NA,true,0,8,NA,NA,NA,right,m_l_021.jpg,gray,red,NA,NA,NA,NA,NA,NA,NA,NA,NA,NaN,NA,1290.699999988079,left,0,NA,NA,NA,NA,NA
f3SXGWFA,3bawbgqgzoco8yjjw9p686v3rigv79,3a0ex8zrnc1u1of853t89rhlw1aybr,f3SXGWFA,2020-0188,2021-10-31,03:20:50,04:35:25,NA,incomplete,true,NA,NA,true,0,9,NA,NA,NA,left,n_l_044.jpg,white,blue,NA,NA,NA,NA,NA,NA,NA,NA,NA,NaN,NA,1319.2000000178814,left,1,NA,NA,NA,NA,NA
f3SXGWFA,3bawbgqgzoco8yjjw9p686v3rigv79,3a0ex8zrnc1u1of853t89rhlw1aybr,f3SXGWFA,2020-0188,2021-10-31,03:20:50,04:35:25,NA,incomplete,true,NA,NA,true,0,10,NA,NA,NA,left,m_l_042.jpg,gray,red,NA,NA,NA,NA,NA,NA,NA,NA,NA,NaN,NA,3015.800000011921,left,1,NA,NA,NA,NA,NA
f3SXGWFA,3bawbgqgzoco8yjjw9p686v3rigv79,3a0ex8zrnc1u1of853t89rhlw1aybr,f3SXGWFA,2020-0188,2021-10-31,03:20:50,04:35:25,NA,incomplete,true,NA,NA,true,0,11,NA,NA,NA,left,m_s_114.jpg,black,white,NA,NA,NA,NA,NA,NA,NA,NA,NA,NaN,NA,1748.7000000178814,left,1,NA,NA,NA,NA,NA
f3SXGWFA,3bawbgqgzoco8yjjw9p686v3rigv79,3a0ex8zrnc1u1of853t89rhlw1aybr,f3SXGWFA,2020-0188,2021-10-31,03:20:50,04:35:25,NA,incomplete,true,NA,NA,true,0,12,NA,NA,NA,left,m_l_086.jpg,red,gray,NA,NA,NA,NA,NA,NA,NA,NA,NA,NaN,NA,1065.9000000059605,right,0,NA,NA,NA,NA,NA
f3SXGWFA,3bawbgqgzoco8yjjw9p686v3rigv79,3a0ex8zrnc1u1of853t89rhlw1aybr,f3SXGWFA,2020-0188,2021-10-31,03:20:50,04:35:25,NA,incomplete,true,NA,NA,true,0,13,NA,NA,NA,right,n_l_030.jpg,red,gray,NA,NA,NA,NA,NA,NA,NA,NA,NA,NaN,NA,5717.0999999940395,left,0,NA,NA,NA,NA,NA
f3SXGWFA,3bawbgqgzoco8yjjw9p686v3rigv79,3a0ex8zrnc1u1of853t89rhlw1aybr,f3SXGWFA,2020-0188,2021-10-31,03:20:50,04:35:25,NA,incomplete,true,NA,NA,true,0,14,NA,NA,NA,right,n_s_021.jpg,black,white,NA,NA,NA,NA,NA,NA,NA,NA,NA,NaN,NA,1780.7000000178814,left,0,NA,NA,NA,NA,NA
f3SXGWFA,3bawbgqgzoco8yjjw9p686v3rigv79,3a0ex8zrnc1u1of853t89rhlw1aybr,f3SXGWFA,2020-0188,2021-10-31,03:20:50,04:35:25,NA,incomplete,true,NA,NA,true,0,15,NA,NA,NA,right,n_l_109.jpg,white,blue,NA,NA,NA,NA,NA,NA,NA,NA,NA,NaN,NA,1011.0999999940395,right,1,NA,NA,NA,NA,NA
f3SXGWFA,3bawbgqgzoco8yjjw9p686v3rigv79,3a0ex8zrnc1u1of853t89rhlw1aybr,f3SXGWFA,2020-0188,2021-10-31,03:20:50,04:35:25,NA,incomplete,true,NA,NA,true,0,16,NA,NA,NA,right,n_l_074.jpg,brown,blue,NA,NA,NA,NA,NA,NA,NA,NA,NA,NaN,NA,3459.9000000059605,right,1,NA,NA,NA,NA,NA
f3SXGWFA,3bawbgqgzoco8yjjw9p686v3rigv79,3a0ex8zrnc1u1of853t89rhlw1aybr,f3SXGWFA,2020-0188,2021-10-31,03:20:50,04:35:25,NA,incomplete,true,NA,NA,true,0,17,NA,NA,NA,left,n_l_111.jpg,white,blue,NA,NA,NA,NA,NA,NA,NA,NA,NA,NaN,NA,1167.0999999940395,left,1,NA,NA,NA,NA,NA
f3SXGWFA,3bawbgqgzoco8yjjw9p686v3rigv79,3a0ex8zrnc1u1of853t89rhlw1aybr,f3SXGWFA,2020-0188,2021-10-31,03:20:50,04:35:25,NA,incomplete,true,NA,NA,true,0,18,NA,NA,NA,left,m_l_025.jpg,black,red,NA,NA,NA,NA,NA,NA,NA,NA,NA,NaN,NA,1191.7000000178814,left,1,NA,NA,NA,NA,NA
f3SXGWFA,3bawbgqgzoco8yjjw9p686v3rigv79,3a0ex8zrnc1u1of853t89rhlw1aybr,f3SXGWFA,2020-0188,2021-10-31,03:20:50,04:35:25,NA,incomplete,true,NA,NA,true,0,19,NA,NA,NA,right,n_s_003.jpg,brown,blue,NA,NA,NA,NA,NA,NA,NA,NA,NA,NaN,NA,2820.9000000059605,right,1,NA,NA,NA,NA,NA
f3SXGWFA,3bawbgqgzoco8yjjw9p686v3rigv79,3a0ex8zrnc1u1of853t89rhlw1aybr,f3SXGWFA,2020-0188,2021-10-31,03:20:50,04:35:25,NA,incomplete,true,NA,NA,true,0,20,NA,NA,NA,right,m_l_083.jpg,white,black,NA,NA,NA,NA,NA,NA,NA,NA,NA,NaN,NA,1701.199999988079,right,1,NA,NA,NA,NA,NA
f3SXGWFA,3bawbgqgzoco8yjjw9p686v3rigv79,3a0ex8zrnc1u1of853t89rhlw1aybr,f3SXGWFA,2020-0188,2021-10-31,03:20:50,04:35:25,NA,incomplete,true,NA,NA,true,0,21,NA,NA,NA,left,n_s_099.jpg,red,black,NA,NA,NA,NA,NA,NA,NA,NA,NA,NaN,NA,1075.1000000238419,left,1,NA,NA,NA,NA,NA
f3SXGWFA,3bawbgqgzoco8yjjw9p686v3rigv79,3a0ex8zrnc1u1of853t89rhlw1aybr,f3SXGWFA,2020-0188,2021-10-31,03:20:50,04:35:25,NA,incomplete,true,NA,true,NA,0,0,NA,NA,NA,left,NA,NA,NA,present,NA,NA,m_l_021.jpg,red,m_l_086.jpg,red,within,NA,NaN,NA,NA,NA,NA,left,2531.9000000059605,1,1,1811.5999999940395
f3SXGWFA,3bawbgqgzoco8yjjw9p686v3rigv79,3a0ex8zrnc1u1of853t89rhlw1aybr,f3SXGWFA,2020-0188,2021-10-31,03:20:50,04:35:25,NA,incomplete,true,NA,true,NA,0,1,NA,NA,NA,left,NA,NA,NA,present,NA,NA,m_l_083.jpg,black,m_s_114.jpg,black,within,NA,NaN,NA,NA,NA,NA,left,3847.9000000059605,1,1,3368.199999988079
f3SXGWFA,3bawbgqgzoco8yjjw9p686v3rigv79,3a0ex8zrnc1u1of853t89rhlw1aybr,f3SXGWFA,2020-0188,2021-10-31,03:20:50,04:35:25,NA,incomplete,true,NA,true,NA,0,2,NA,NA,NA,left,NA,NA,NA,present,NA,NA,m_l_063.jpg,gray,m_l_042.jpg,gray,within,NA,NaN,NA,NA,NA,NA,left,4683.299999982119,1,0,2667.2000000178814
f3SXGWFA,3bawbgqgzoco8yjjw9p686v3rigv79,3a0ex8zrnc1u1of853t89rhlw1aybr,f3SXGWFA,2020-0188,2021-10-31,03:20:50,04:35:25,NA,incomplete,true,NA,true,NA,0,3,NA,NA,NA,left,NA,NA,NA,present,NA,NA,n_l_030.jpg,gray,n_l_058.jpg,red,between,NA,NaN,NA,NA,NA,NA,left,3222.800000011921,1,2,2411.7999999821186
f3SXGWFA,3bawbgqgzoco8yjjw9p686v3rigv79,3a0ex8zrnc1u1of853t89rhlw1aybr,f3SXGWFA,2020-0188,2021-10-31,03:20:50,04:35:25,NA,incomplete,true,NA,true,NA,0,4,NA,NA,NA,right,NA,NA,NA,present,NA,NA,m_l_085.jpg,white,n_s_021.jpg,white,within,NA,NaN,NA,NA,NA,NA,left,3982,0,1,3379.300000011921
f3SXGWFA,3bawbgqgzoco8yjjw9p686v3rigv79,3a0ex8zrnc1u1of853t89rhlw1aybr,f3SXGWFA,2020-0188,2021-10-31,03:20:50,04:35:25,NA,incomplete,true,NA,true,NA,0,5,NA,NA,NA,right,NA,NA,NA,present,NA,NA,n_l_071.jpg,black,n_s_099.jpg,red,between,NA,NaN,NA,NA,NA,NA,left,6199.4000000059605,0,3,2905.5999999940395
f3SXGWFA,3bawbgqgzoco8yjjw9p686v3rigv79,3a0ex8zrnc1u1of853t89rhlw1aybr,f3SXGWFA,2020-0188,2021-10-31,03:20:50,04:35:25,NA,incomplete,true,NA,true,NA,0,6,NA,NA,NA,right,NA,NA,NA,present,NA,NA,m_l_088.jpg,brown,n_l_048.jpg,brown,within,NA,NaN,NA,NA,NA,NA,left,5047,0,1,2516.0999999940395
f3SXGWFA,3bawbgqgzoco8yjjw9p686v3rigv79,3a0ex8zrnc1u1of853t89rhlw1aybr,f3SXGWFA,2020-0188,2021-10-31,03:20:50,04:35:25,NA,incomplete,true,NA,true,NA,0,7,NA,NA,NA,left,NA,NA,NA,present,NA,NA,n_l_074.jpg,blue,m_s_108.jpg,brown,between,NA,NaN,NA,NA,NA,NA,left,3092,1,3,2313.300000011921
f3SXGWFA,3bawbgqgzoco8yjjw9p686v3rigv79,3a0ex8zrnc1u1of853t89rhlw1aybr,f3SXGWFA,2020-0188,2021-10-31,03:20:50,04:35:25,NA,incomplete,true,NA,true,NA,0,8,NA,NA,NA,right,NA,NA,NA,present,NA,NA,n_s_003.jpg,blue,n_l_109.jpg,blue,within,NA,NaN,NA,NA,NA,NA,left,3724.2999999821186,0,0,1159.5999999940395
f3SXGWFA,3bawbgqgzoco8yjjw9p686v3rigv79,3a0ex8zrnc1u1of853t89rhlw1aybr,f3SXGWFA,2020-0188,2021-10-31,03:20:50,04:35:25,NA,incomplete,true,NA,true,NA,0,9,NA,NA,NA,left,NA,NA,NA,present,NA,NA,n_l_111.jpg,white,n_l_089.jpg,blue,between,NA,NaN,NA,NA,NA,NA,left,4060.5,1,2,1594.2999999821186
f3SXGWFA,3bawbgqgzoco8yjjw9p686v3rigv79,3a0ex8zrnc1u1of853t89rhlw1aybr,f3SXGWFA,2020-0188,2021-10-31,03:20:50,04:35:25,NA,incomplete,true,NA,true,NA,0,10,NA,NA,NA,left,NA,NA,NA,present,NA,NA,m_l_025.jpg,black,n_l_044.jpg,white,between,NA,NaN,NA,NA,NA,NA,right,5577.699999988079,0,3,757.1999999880791
f3SXGWFA,3bawbgqgzoco8yjjw9p686v3rigv79,3a0ex8zrnc1u1of853t89rhlw1aybr,f3SXGWFA,2020-0188,2021-10-31,03:20:50,04:35:25,NA,incomplete,false,true,NA,NA,1,0,NA,brown,n_s_056.jpg,NA,NA,NA,NA,NA,pleasant,unpleasant,NA,NA,NA,NA,NA,right,2654.29999998212,true,NA,NA,NA,NA,NA,NA,NA,NA
f3SXGWFA,3bawbgqgzoco8yjjw9p686v3rigv79,3a0ex8zrnc1u1of853t89rhlw1aybr,f3SXGWFA,2020-0188,2021-10-31,03:20:50,04:35:25,NA,incomplete,false,true,NA,NA,1,1,NA,brown,n_s_111.jpg,NA,NA,NA,NA,NA,unpleasant,pleasant,NA,NA,NA,NA,NA,right,1846.90000000596,true,NA,NA,NA,NA,NA,NA,NA,NA
f3SXGWFA,3bawbgqgzoco8yjjw9p686v3rigv79,3a0ex8zrnc1u1of853t89rhlw1aybr,f3SXGWFA,2020-0188,2021-10-31,03:20:50,04:35:25,NA,incomplete,false,true,NA,NA,1,2,NA,brown,n_l_004.jpg,NA,NA,NA,NA,NA,unpleasant,pleasant,NA,NA,NA,NA,NA,right,1385.5,true,NA,NA,NA,NA,NA,NA,NA,NA
f3SXGWFA,3bawbgqgzoco8yjjw9p686v3rigv79,3a0ex8zrnc1u1of853t89rhlw1aybr,f3SXGWFA,2020-0188,2021-10-31,03:20:50,04:35:25,NA,incomplete,false,true,NA,NA,1,3,NA,brown,n_l_075.jpg,NA,NA,NA,NA,NA,unpleasant,pleasant,NA,NA,NA,NA,NA,left,1102.79999998212,true,NA,NA,NA,NA,NA,NA,NA,NA
f3SXGWFA,3bawbgqgzoco8yjjw9p686v3rigv79,3a0ex8zrnc1u1of853t89rhlw1aybr,f3SXGWFA,2020-0188,2021-10-31,03:20:50,04:35:25,NA,incomplete,false,true,NA,NA,1,4,NA,brown,m_s_088.jpg,NA,NA,NA,NA,NA,pleasant,unpleasant,NA,NA,NA,NA,NA,left,1247.19999998808,true,NA,NA,NA,NA,NA,NA,NA,NA
f3SXGWFA,3bawbgqgzoco8yjjw9p686v3rigv79,3a0ex8zrnc1u1of853t89rhlw1aybr,f3SXGWFA,2020-0188,2021-10-31,03:20:50,04:35:25,NA,incomplete,false,true,NA,NA,1,5,NA,brown,n_s_016.jpg,NA,NA,NA,NA,NA,pleasant,unpleasant,NA,NA,NA,NA,NA,right,1483.40000000596,true,NA,NA,NA,NA,NA,NA,NA,NA
f3SXGWFA,3bawbgqgzoco8yjjw9p686v3rigv79,3a0ex8zrnc1u1of853t89rhlw1aybr,f3SXGWFA,2020-0188,2021-10-31,03:20:50,04:35:25,NA,incomplete,false,true,NA,NA,1,6,NA,white,n_s_018.jpg,NA,NA,NA,NA,NA,unpleasant,pleasant,NA,NA,NA,NA,NA,right,1606.5,true,NA,NA,NA,NA,NA,NA,NA,NA
f3SXGWFA,3bawbgqgzoco8yjjw9p686v3rigv79,3a0ex8zrnc1u1of853t89rhlw1aybr,f3SXGWFA,2020-0188,2021-10-31,03:20:50,04:35:25,NA,incomplete,false,true,NA,NA,1,7,NA,white,n_s_042.jpg,NA,NA,NA,NA,NA,pleasant,unpleasant,NA,NA,NA,NA,NA,right,3068.80000001192,true,NA,NA,NA,NA,NA,NA,NA,NA
f3SXGWFA,3bawbgqgzoco8yjjw9p686v3rigv79,3a0ex8zrnc1u1of853t89rhlw1aybr,f3SXGWFA,2020-0188,2021-10-31,03:20:50,04:35:25,NA,incomplete,false,true,NA,NA,1,8,NA,white,m_s_032.jpg,NA,NA,NA,NA,NA,unpleasant,pleasant,NA,NA,NA,NA,NA,left,1426,true,NA,NA,NA,NA,NA,NA,NA,NA
f3SXGWFA,3bawbgqgzoco8yjjw9p686v3rigv79,3a0ex8zrnc1u1of853t89rhlw1aybr,f3SXGWFA,2020-0188,2021-10-31,03:20:50,04:35:25,NA,incomplete,false,true,NA,NA,1,9,NA,white,m_s_037.jpg,NA,NA,NA,NA,NA,unpleasant,pleasant,NA,NA,NA,NA,NA,left,1787.60000002384,true,NA,NA,NA,NA,NA,NA,NA,NA
f3SXGWFA,3bawbgqgzoco8yjjw9p686v3rigv79,3a0ex8zrnc1u1of853t89rhlw1aybr,f3SXGWFA,2020-0188,2021-10-31,03:20:50,04:35:25,NA,incomplete,false,true,NA,NA,1,10,NA,white,m_l_051.jpg,NA,NA,NA,NA,NA,pleasant,unpleasant,NA,NA,NA,NA,NA,right,1194.30000001192,true,NA,NA,NA,NA,NA,NA,NA,NA
f3SXGWFA,3bawbgqgzoco8yjjw9p686v3rigv79,3a0ex8zrnc1u1of853t89rhlw1aybr,f3SXGWFA,2020-0188,2021-10-31,03:20:50,04:35:25,NA,incomplete,false,true,NA,NA,1,11,NA,white,n_s_002.jpg,NA,NA,NA,NA,NA,pleasant,unpleasant,NA,NA,NA,NA,NA,right,1343.5,true,NA,NA,NA,NA,NA,NA,NA,NA
f3SXGWFA,3bawbgqgzoco8yjjw9p686v3rigv79,3a0ex8zrnc1u1of853t89rhlw1aybr,f3SXGWFA,2020-0188,2021-10-31,03:20:50,04:35:25,NA,incomplete,false,true,NA,NA,1,12,NA,purple,n_s_102.jpg,NA,NA,NA,NA,NA,pleasant,unpleasant,NA,NA,NA,NA,NA,left,1165.40000000596,true,NA,NA,NA,NA,NA,NA,NA,NA
f3SXGWFA,3bawbgqgzoco8yjjw9p686v3rigv79,3a0ex8zrnc1u1of853t89rhlw1aybr,f3SXGWFA,2020-0188,2021-10-31,03:20:50,04:35:25,NA,incomplete,false,true,NA,NA,1,13,NA,purple,n_s_025.jpg,NA,NA,NA,NA,NA,unpleasant,pleasant,NA,NA,NA,NA,NA,left,1118.30000001192,true,NA,NA,NA,NA,NA,NA,NA,NA
f3SXGWFA,3bawbgqgzoco8yjjw9p686v3rigv79,3a0ex8zrnc1u1of853t89rhlw1aybr,f3SXGWFA,2020-0188,2021-10-31,03:20:50,04:35:25,NA,incomplete,false,true,NA,NA,1,14,NA,purple,m_s_025.jpg,NA,NA,NA,NA,NA,unpleasant,pleasant,NA,NA,NA,NA,NA,right,1314.70000001788,true,NA,NA,NA,NA,NA,NA,NA,NA
f3SXGWFA,3bawbgqgzoco8yjjw9p686v3rigv79,3a0ex8zrnc1u1of853t89rhlw1aybr,f3SXGWFA,2020-0188,2021-10-31,03:20:50,04:35:25,NA,incomplete,false,true,NA,NA,1,15,NA,purple,n_l_105.jpg,NA,NA,NA,NA,NA,unpleasant,pleasant,NA,NA,NA,NA,NA,left,2685.59999999404,true,NA,NA,NA,NA,NA,NA,NA,NA
f3SXGWFA,3bawbgqgzoco8yjjw9p686v3rigv79,3a0ex8zrnc1u1of853t89rhlw1aybr,f3SXGWFA,2020-0188,2021-10-31,03:20:50,04:35:25,NA,incomplete,false,true,NA,NA,1,16,NA,purple,m_s_049.jpg,NA,NA,NA,NA,NA,pleasant,unpleasant,NA,NA,NA,NA,NA,right,1208.69999998808,true,NA,NA,NA,NA,NA,NA,NA,NA
f3SXGWFA,3bawbgqgzoco8yjjw9p686v3rigv79,3a0ex8zrnc1u1of853t89rhlw1aybr,f3SXGWFA,2020-0188,2021-10-31,03:20:50,04:35:25,NA,incomplete,false,true,NA,NA,1,17,NA,purple,n_l_021.jpg,NA,NA,NA,NA,NA,pleasant,unpleasant,NA,NA,NA,NA,NA,right,2091.69999998808,true,NA,NA,NA,NA,NA,NA,NA,NA
f3SXGWFA,3bawbgqgzoco8yjjw9p686v3rigv79,3a0ex8zrnc1u1of853t89rhlw1aybr,f3SXGWFA,2020-0188,2021-10-31,03:20:50,04:35:25,NA,incomplete,false,true,NA,NA,1,18,NA,red,n_s_035.jpg,NA,NA,NA,NA,NA,pleasant,unpleasant,NA,NA,NA,NA,NA,left,1434.20000001788,true,NA,NA,NA,NA,NA,NA,NA,NA
f3SXGWFA,3bawbgqgzoco8yjjw9p686v3rigv79,3a0ex8zrnc1u1of853t89rhlw1aybr,f3SXGWFA,2020-0188,2021-10-31,03:20:50,04:35:25,NA,incomplete,false,true,NA,NA,1,19,NA,red,n_l_096.jpg,NA,NA,NA,NA,NA,pleasant,unpleasant,NA,NA,NA,NA,NA,left,1230,true,NA,NA,NA,NA,NA,NA,NA,NA
f3SXGWFA,3bawbgqgzoco8yjjw9p686v3rigv79,3a0ex8zrnc1u1of853t89rhlw1aybr,f3SXGWFA,2020-0188,2021-10-31,03:20:50,04:35:25,NA,incomplete,false,true,NA,NA,1,20,NA,red,n_l_006.jpg,NA,NA,NA,NA,NA,pleasant,unpleasant,NA,NA,NA,NA,NA,left,1348.60000002384,true,NA,NA,NA,NA,NA,NA,NA,NA
f3SXGWFA,3bawbgqgzoco8yjjw9p686v3rigv79,3a0ex8zrnc1u1of853t89rhlw1aybr,f3SXGWFA,2020-0188,2021-10-31,03:20:50,04:35:25,NA,incomplete,false,true,NA,NA,1,21,NA,red,m_l_078.jpg,NA,NA,NA,NA,NA,pleasant,unpleasant,NA,NA,NA,NA,NA,right,1783.20000001788,true,NA,NA,NA,NA,NA,NA,NA,NA
f3SXGWFA,3bawbgqgzoco8yjjw9p686v3rigv79,3a0ex8zrnc1u1of853t89rhlw1aybr,f3SXGWFA,2020-0188,2021-10-31,03:20:50,04:35:25,NA,incomplete,false,true,NA,NA,1,22,NA,red,n_s_032.jpg,NA,NA,NA,NA,NA,pleasant,unpleasant,NA,NA,NA,NA,NA,left,2165.29999998212,true,NA,NA,NA,NA,NA,NA,NA,NA
f3SXGWFA,3bawbgqgzoco8yjjw9p686v3rigv79,3a0ex8zrnc1u1of853t89rhlw1aybr,f3SXGWFA,2020-0188,2021-10-31,03:20:50,04:35:25,NA,incomplete,false,true,NA,NA,1,23,NA,red,n_l_093.jpg,NA,NA,NA,NA,NA,unpleasant,pleasant,NA,NA,NA,NA,NA,right,1984.59999999404,true,NA,NA,NA,NA,NA,NA,NA,NA
f3SXGWFA,3bawbgqgzoco8yjjw9p686v3rigv79,3a0ex8zrnc1u1of853t89rhlw1aybr,f3SXGWFA,2020-0188,2021-10-31,03:20:50,04:35:25,NA,incomplete,false,true,NA,NA,1,24,NA,black,n_s_079.jpg,NA,NA,NA,NA,NA,unpleasant,pleasant,NA,NA,NA,NA,NA,right,3323.10000002384,true,NA,NA,NA,NA,NA,NA,NA,NA
f3SXGWFA,3bawbgqgzoco8yjjw9p686v3rigv79,3a0ex8zrnc1u1of853t89rhlw1aybr,f3SXGWFA,2020-0188,2021-10-31,03:20:50,04:35:25,NA,incomplete,false,true,NA,NA,1,25,NA,black,m_s_038.jpg,NA,NA,NA,NA,NA,pleasant,unpleasant,NA,NA,NA,NA,NA,right,1171.20000001788,true,NA,NA,NA,NA,NA,NA,NA,NA
f3SXGWFA,3bawbgqgzoco8yjjw9p686v3rigv79,3a0ex8zrnc1u1of853t89rhlw1aybr,f3SXGWFA,2020-0188,2021-10-31,03:20:50,04:35:25,NA,incomplete,false,true,NA,NA,1,26,NA,black,n_s_060.jpg,NA,NA,NA,NA,NA,pleasant,unpleasant,NA,NA,NA,NA,NA,left,1600.79999998212,true,NA,NA,NA,NA,NA,NA,NA,NA
f3SXGWFA,3bawbgqgzoco8yjjw9p686v3rigv79,3a0ex8zrnc1u1of853t89rhlw1aybr,f3SXGWFA,2020-0188,2021-10-31,03:20:50,04:35:25,NA,incomplete,false,true,NA,NA,1,27,NA,black,n_s_038.jpg,NA,NA,NA,NA,NA,unpleasant,pleasant,NA,NA,NA,NA,NA,left,835.09999999404,true,NA,NA,NA,NA,NA,NA,NA,NA
f3SXGWFA,3bawbgqgzoco8yjjw9p686v3rigv79,3a0ex8zrnc1u1of853t89rhlw1aybr,f3SXGWFA,2020-0188,2021-10-31,03:20:50,04:35:25,NA,incomplete,false,true,NA,NA,1,28,NA,black,m_s_024.jpg,NA,NA,NA,NA,NA,pleasant,unpleasant,NA,NA,NA,NA,NA,right,1137.19999998808,true,NA,NA,NA,NA,NA,NA,NA,NA
f3SXGWFA,3bawbgqgzoco8yjjw9p686v3rigv79,3a0ex8zrnc1u1of853t89rhlw1aybr,f3SXGWFA,2020-0188,2021-10-31,03:20:50,04:35:25,NA,incomplete,false,true,NA,NA,1,29,NA,black,n_s_089.jpg,NA,NA,NA,NA,NA,unpleasant,pleasant,NA,NA,NA,NA,NA,left,1138.09999999404,true,NA,NA,NA,NA,NA,NA,NA,NA
f3SXGWFA,3bawbgqgzoco8yjjw9p686v3rigv79,3a0ex8zrnc1u1of853t89rhlw1aybr,f3SXGWFA,2020-0188,2021-10-31,03:20:50,04:35:25,NA,incomplete,false,true,NA,NA,1,30,NA,yellow,m_s_073.jpg,NA,NA,NA,NA,NA,unpleasant,pleasant,NA,NA,NA,NA,NA,right,1430.89999997616,true,NA,NA,NA,NA,NA,NA,NA,NA
f3SXGWFA,3bawbgqgzoco8yjjw9p686v3rigv79,3a0ex8zrnc1u1of853t89rhlw1aybr,f3SXGWFA,2020-0188,2021-10-31,03:20:50,04:35:25,NA,incomplete,false,true,NA,NA,1,31,NA,yellow,m_l_003.jpg,NA,NA,NA,NA,NA,unpleasant,pleasant,NA,NA,NA,NA,NA,left,829.40000000596,true,NA,NA,NA,NA,NA,NA,NA,NA
f3SXGWFA,3bawbgqgzoco8yjjw9p686v3rigv79,3a0ex8zrnc1u1of853t89rhlw1aybr,f3SXGWFA,2020-0188,2021-10-31,03:20:50,04:35:25,NA,incomplete,false,true,NA,NA,1,32,NA,yellow,m_s_057.jpg,NA,NA,NA,NA,NA,pleasant,unpleasant,NA,NA,NA,NA,NA,left,1079.29999998212,true,NA,NA,NA,NA,NA,NA,NA,NA
f3SXGWFA,3bawbgqgzoco8yjjw9p686v3rigv79,3a0ex8zrnc1u1of853t89rhlw1aybr,f3SXGWFA,2020-0188,2021-10-31,03:20:50,04:35:25,NA,incomplete,false,true,NA,NA,1,33,NA,yellow,n_l_009.jpg,NA,NA,NA,NA,NA,unpleasant,pleasant,NA,NA,NA,NA,NA,right,1479.09999999404,true,NA,NA,NA,NA,NA,NA,NA,NA
f3SXGWFA,3bawbgqgzoco8yjjw9p686v3rigv79,3a0ex8zrnc1u1of853t89rhlw1aybr,f3SXGWFA,2020-0188,2021-10-31,03:20:50,04:35:25,NA,incomplete,false,true,NA,NA,1,34,NA,yellow,n_l_002.jpg,NA,NA,NA,NA,NA,unpleasant,pleasant,NA,NA,NA,NA,NA,left,1087.59999999404,true,NA,NA,NA,NA,NA,NA,NA,NA
f3SXGWFA,3bawbgqgzoco8yjjw9p686v3rigv79,3a0ex8zrnc1u1of853t89rhlw1aybr,f3SXGWFA,2020-0188,2021-10-31,03:20:50,04:35:25,NA,incomplete,false,true,NA,NA,1,35,NA,yellow,m_l_112.jpg,NA,NA,NA,NA,NA,pleasant,unpleasant,NA,NA,NA,NA,NA,left,1895.19999998808,true,NA,NA,NA,NA,NA,NA,NA,NA
f3SXGWFA,3bawbgqgzoco8yjjw9p686v3rigv79,3a0ex8zrnc1u1of853t89rhlw1aybr,f3SXGWFA,2020-0188,2021-10-31,03:20:50,04:35:25,NA,incomplete,false,NA,NA,true,1,0,NA,NA,NA,left,m_s_057.jpg,yellow,black,NA,NA,NA,NA,NA,NA,NA,NA,NA,NaN,NA,1487.9000000059605,left,1,NA,NA,NA,NA,NA
f3SXGWFA,3bawbgqgzoco8yjjw9p686v3rigv79,3a0ex8zrnc1u1of853t89rhlw1aybr,f3SXGWFA,2020-0188,2021-10-31,03:20:50,04:35:25,NA,incomplete,false,NA,NA,true,1,1,NA,NA,NA,left,n_l_096.jpg,red,black,NA,NA,NA,NA,NA,NA,NA,NA,NA,NaN,NA,1193.0999999940395,left,1,NA,NA,NA,NA,NA
f3SXGWFA,3bawbgqgzoco8yjjw9p686v3rigv79,3a0ex8zrnc1u1of853t89rhlw1aybr,f3SXGWFA,2020-0188,2021-10-31,03:20:50,04:35:25,NA,incomplete,false,NA,NA,true,1,2,NA,NA,NA,left,n_l_021.jpg,purple,white,NA,NA,NA,NA,NA,NA,NA,NA,NA,NaN,NA,1165.699999988079,left,1,NA,NA,NA,NA,NA
f3SXGWFA,3bawbgqgzoco8yjjw9p686v3rigv79,3a0ex8zrnc1u1of853t89rhlw1aybr,f3SXGWFA,2020-0188,2021-10-31,03:20:50,04:35:25,NA,incomplete,false,NA,NA,true,1,3,NA,NA,NA,left,m_l_112.jpg,yellow,black,NA,NA,NA,NA,NA,NA,NA,NA,NA,NaN,NA,1290.4000000059605,left,1,NA,NA,NA,NA,NA
f3SXGWFA,3bawbgqgzoco8yjjw9p686v3rigv79,3a0ex8zrnc1u1of853t89rhlw1aybr,f3SXGWFA,2020-0188,2021-10-31,03:20:50,04:35:25,NA,incomplete,false,NA,NA,true,1,4,NA,NA,NA,right,m_s_032.jpg,purple,white,NA,NA,NA,NA,NA,NA,NA,NA,NA,NaN,NA,1789.4000000059605,right,1,NA,NA,NA,NA,NA
f3SXGWFA,3bawbgqgzoco8yjjw9p686v3rigv79,3a0ex8zrnc1u1of853t89rhlw1aybr,f3SXGWFA,2020-0188,2021-10-31,03:20:50,04:35:25,NA,incomplete,false,NA,NA,true,1,5,NA,NA,NA,left,m_s_038.jpg,black,yellow,NA,NA,NA,NA,NA,NA,NA,NA,NA,NaN,NA,1317.4000000059605,left,1,NA,NA,NA,NA,NA
f3SXGWFA,3bawbgqgzoco8yjjw9p686v3rigv79,3a0ex8zrnc1u1of853t89rhlw1aybr,f3SXGWFA,2020-0188,2021-10-31,03:20:50,04:35:25,NA,incomplete,false,NA,NA,true,1,6,NA,NA,NA,right,m_s_025.jpg,white,purple,NA,NA,NA,NA,NA,NA,NA,NA,NA,NaN,NA,3547.5999999940395,right,1,NA,NA,NA,NA,NA
f3SXGWFA,3bawbgqgzoco8yjjw9p686v3rigv79,3a0ex8zrnc1u1of853t89rhlw1aybr,f3SXGWFA,2020-0188,2021-10-31,03:20:50,04:35:25,NA,incomplete,false,NA,NA,true,1,7,NA,NA,NA,right,m_l_003.jpg,black,yellow,NA,NA,NA,NA,NA,NA,NA,NA,NA,NaN,NA,2538.5,right,1,NA,NA,NA,NA,NA
f3SXGWFA,3bawbgqgzoco8yjjw9p686v3rigv79,3a0ex8zrnc1u1of853t89rhlw1aybr,f3SXGWFA,2020-0188,2021-10-31,03:20:50,04:35:25,NA,incomplete,false,NA,NA,true,1,8,NA,NA,NA,left,m_s_049.jpg,purple,white,NA,NA,NA,NA,NA,NA,NA,NA,NA,NaN,NA,1164.2000000178814,left,1,NA,NA,NA,NA,NA
f3SXGWFA,3bawbgqgzoco8yjjw9p686v3rigv79,3a0ex8zrnc1u1of853t89rhlw1aybr,f3SXGWFA,2020-0188,2021-10-31,03:20:50,04:35:25,NA,incomplete,false,NA,NA,true,1,9,NA,NA,NA,left,m_s_088.jpg,brown,white,NA,NA,NA,NA,NA,NA,NA,NA,NA,NaN,NA,1266.7999999821186,left,1,NA,NA,NA,NA,NA
f3SXGWFA,3bawbgqgzoco8yjjw9p686v3rigv79,3a0ex8zrnc1u1of853t89rhlw1aybr,f3SXGWFA,2020-0188,2021-10-31,03:20:50,04:35:25,NA,incomplete,false,NA,NA,true,1,10,NA,NA,NA,left,n_s_089.jpg,black,red,NA,NA,NA,NA,NA,NA,NA,NA,NA,NaN,NA,1671.699999988079,left,1,NA,NA,NA,NA,NA
f3SXGWFA,3bawbgqgzoco8yjjw9p686v3rigv79,3a0ex8zrnc1u1of853t89rhlw1aybr,f3SXGWFA,2020-0188,2021-10-31,03:20:50,04:35:25,NA,incomplete,false,NA,NA,true,1,11,NA,NA,NA,left,n_s_002.jpg,white,brown,NA,NA,NA,NA,NA,NA,NA,NA,NA,NaN,NA,2031.7999999821186,left,1,NA,NA,NA,NA,NA
f3SXGWFA,3bawbgqgzoco8yjjw9p686v3rigv79,3a0ex8zrnc1u1of853t89rhlw1aybr,f3SXGWFA,2020-0188,2021-10-31,03:20:50,04:35:25,NA,incomplete,false,NA,NA,true,1,12,NA,NA,NA,left,n_s_032.jpg,red,black,NA,NA,NA,NA,NA,NA,NA,NA,NA,NaN,NA,1165.9000000059605,left,1,NA,NA,NA,NA,NA
f3SXGWFA,3bawbgqgzoco8yjjw9p686v3rigv79,3a0ex8zrnc1u1of853t89rhlw1aybr,f3SXGWFA,2020-0188,2021-10-31,03:20:50,04:35:25,NA,incomplete,false,NA,NA,true,1,13,NA,NA,NA,left,n_s_016.jpg,brown,white,NA,NA,NA,NA,NA,NA,NA,NA,NA,NaN,NA,1238.2000000178814,left,1,NA,NA,NA,NA,NA
f3SXGWFA,3bawbgqgzoco8yjjw9p686v3rigv79,3a0ex8zrnc1u1of853t89rhlw1aybr,f3SXGWFA,2020-0188,2021-10-31,03:20:50,04:35:25,NA,incomplete,false,NA,NA,true,1,14,NA,NA,NA,right,n_s_025.jpg,white,purple,NA,NA,NA,NA,NA,NA,NA,NA,NA,NaN,NA,1618.699999988079,right,1,NA,NA,NA,NA,NA
f3SXGWFA,3bawbgqgzoco8yjjw9p686v3rigv79,3a0ex8zrnc1u1of853t89rhlw1aybr,f3SXGWFA,2020-0188,2021-10-31,03:20:50,04:35:25,NA,incomplete,false,NA,NA,true,1,15,NA,NA,NA,right,m_s_024.jpg,red,black,NA,NA,NA,NA,NA,NA,NA,NA,NA,NaN,NA,1750.2000000178814,right,1,NA,NA,NA,NA,NA
f3SXGWFA,3bawbgqgzoco8yjjw9p686v3rigv79,3a0ex8zrnc1u1of853t89rhlw1aybr,f3SXGWFA,2020-0188,2021-10-31,03:20:50,04:35:25,NA,incomplete,false,NA,NA,true,1,16,NA,NA,NA,right,n_l_093.jpg,black,red,NA,NA,NA,NA,NA,NA,NA,NA,NA,NaN,NA,3696.9000000059605,right,1,NA,NA,NA,NA,NA
f3SXGWFA,3bawbgqgzoco8yjjw9p686v3rigv79,3a0ex8zrnc1u1of853t89rhlw1aybr,f3SXGWFA,2020-0188,2021-10-31,03:20:50,04:35:25,NA,incomplete,false,NA,NA,true,1,17,NA,NA,NA,right,m_l_051.jpg,brown,white,NA,NA,NA,NA,NA,NA,NA,NA,NA,NaN,NA,1495.0999999940395,right,1,NA,NA,NA,NA,NA
f3SXGWFA,3bawbgqgzoco8yjjw9p686v3rigv79,3a0ex8zrnc1u1of853t89rhlw1aybr,f3SXGWFA,2020-0188,2021-10-31,03:20:50,04:35:25,NA,incomplete,false,NA,NA,true,1,18,NA,NA,NA,left,n_l_006.jpg,red,purple,NA,NA,NA,NA,NA,NA,NA,NA,NA,NaN,NA,1242.300000011921,left,1,NA,NA,NA,NA,NA
f3SXGWFA,3bawbgqgzoco8yjjw9p686v3rigv79,3a0ex8zrnc1u1of853t89rhlw1aybr,f3SXGWFA,2020-0188,2021-10-31,03:20:50,04:35:25,NA,incomplete,false,NA,NA,true,1,19,NA,NA,NA,right,n_s_042.jpg,purple,white,NA,NA,NA,NA,NA,NA,NA,NA,NA,NaN,NA,1600.4000000059605,right,1,NA,NA,NA,NA,NA
f3SXGWFA,3bawbgqgzoco8yjjw9p686v3rigv79,3a0ex8zrnc1u1of853t89rhlw1aybr,f3SXGWFA,2020-0188,2021-10-31,03:20:50,04:35:25,NA,incomplete,false,NA,NA,true,1,20,NA,NA,NA,right,n_s_060.jpg,red,black,NA,NA,NA,NA,NA,NA,NA,NA,NA,NaN,NA,2128.2000000178814,left,0,NA,NA,NA,NA,NA
f3SXGWFA,3bawbgqgzoco8yjjw9p686v3rigv79,3a0ex8zrnc1u1of853t89rhlw1aybr,f3SXGWFA,2020-0188,2021-10-31,03:20:50,04:35:25,NA,incomplete,false,NA,NA,true,1,21,NA,NA,NA,right,n_s_111.jpg,white,brown,NA,NA,NA,NA,NA,NA,NA,NA,NA,NaN,NA,1441.5,right,1,NA,NA,NA,NA,NA
f3SXGWFA,3bawbgqgzoco8yjjw9p686v3rigv79,3a0ex8zrnc1u1of853t89rhlw1aybr,f3SXGWFA,2020-0188,2021-10-31,03:20:50,04:35:25,NA,incomplete,false,NA,true,NA,1,0,NA,NA,NA,right,NA,NA,NA,present,NA,NA,n_l_006.jpg,red,m_s_049.jpg,purple,between,NA,NaN,NA,NA,NA,NA,left,3273.5999999940395,0,2,1474.9000000059605
f3SXGWFA,3bawbgqgzoco8yjjw9p686v3rigv79,3a0ex8zrnc1u1of853t89rhlw1aybr,f3SXGWFA,2020-0188,2021-10-31,03:20:50,04:35:25,NA,incomplete,false,NA,true,NA,1,1,NA,NA,NA,left,NA,NA,NA,present,NA,NA,m_s_024.jpg,black,m_s_057.jpg,yellow,between,NA,NaN,NA,NA,NA,NA,left,6234.0999999940395,1,2,2635.2999999821186
f3SXGWFA,3bawbgqgzoco8yjjw9p686v3rigv79,3a0ex8zrnc1u1of853t89rhlw1aybr,f3SXGWFA,2020-0188,2021-10-31,03:20:50,04:35:25,NA,incomplete,false,NA,true,NA,1,2,NA,NA,NA,right,NA,NA,NA,present,NA,NA,n_l_021.jpg,purple,n_s_025.jpg,purple,within,NA,NaN,NA,NA,NA,NA,right,9601.300000011921,1,0,2256.5
f3SXGWFA,3bawbgqgzoco8yjjw9p686v3rigv79,3a0ex8zrnc1u1of853t89rhlw1aybr,f3SXGWFA,2020-0188,2021-10-31,03:20:50,04:35:25,NA,incomplete,false,NA,true,NA,1,3,NA,NA,NA,right,NA,NA,NA,present,NA,NA,n_s_089.jpg,black,m_s_038.jpg,black,within,NA,NaN,NA,NA,NA,NA,right,2413.899999976158,1,0,1479.1000000238419
f3SXGWFA,3bawbgqgzoco8yjjw9p686v3rigv79,3a0ex8zrnc1u1of853t89rhlw1aybr,f3SXGWFA,2020-0188,2021-10-31,03:20:50,04:35:25,NA,incomplete,false,NA,true,NA,1,4,NA,NA,NA,right,NA,NA,NA,present,NA,NA,m_l_112.jpg,yellow,m_l_003.jpg,yellow,within,NA,NaN,NA,NA,NA,NA,left,3913.699999988079,0,1,837.5999999940395
f3SXGWFA,3bawbgqgzoco8yjjw9p686v3rigv79,3a0ex8zrnc1u1of853t89rhlw1aybr,f3SXGWFA,2020-0188,2021-10-31,03:20:50,04:35:25,NA,incomplete,false,NA,true,NA,1,5,NA,NA,NA,right,NA,NA,NA,present,NA,NA,n_s_060.jpg,black,n_s_032.jpg,red,between,NA,NaN,NA,NA,NA,NA,right,3569.2999999821186,1,2,1115.800000011921
f3SXGWFA,3bawbgqgzoco8yjjw9p686v3rigv79,3a0ex8zrnc1u1of853t89rhlw1aybr,f3SXGWFA,2020-0188,2021-10-31,03:20:50,04:35:25,NA,incomplete,false,NA,true,NA,1,6,NA,NA,NA,left,NA,NA,NA,present,NA,NA,n_l_096.jpg,red,n_l_093.jpg,red,within,NA,NaN,NA,NA,NA,NA,left,3477.9000000059605,1,0,806
f3SXGWFA,3bawbgqgzoco8yjjw9p686v3rigv79,3a0ex8zrnc1u1of853t89rhlw1aybr,f3SXGWFA,2020-0188,2021-10-31,03:20:50,04:35:25,NA,incomplete,false,NA,true,NA,1,7,NA,NA,NA,left,NA,NA,NA,present,NA,NA,n_s_042.jpg,white,n_s_002.jpg,white,within,NA,NaN,NA,NA,NA,NA,left,2108.9000000059605,1,1,913.3000000119209
f3SXGWFA,3bawbgqgzoco8yjjw9p686v3rigv79,3a0ex8zrnc1u1of853t89rhlw1aybr,f3SXGWFA,2020-0188,2021-10-31,03:20:50,04:35:25,NA,incomplete,false,NA,true,NA,1,8,NA,NA,NA,right,NA,NA,NA,present,NA,NA,m_s_032.jpg,white,m_s_088.jpg,brown,between,NA,NaN,NA,NA,NA,NA,right,2641.899999976158,1,2,622.9000000059605
f3SXGWFA,3bawbgqgzoco8yjjw9p686v3rigv79,3a0ex8zrnc1u1of853t89rhlw1aybr,f3SXGWFA,2020-0188,2021-10-31,03:20:50,04:35:25,NA,incomplete,false,NA,true,NA,1,9,NA,NA,NA,right,NA,NA,NA,present,NA,NA,m_s_025.jpg,purple,m_l_051.jpg,white,between,NA,NaN,NA,NA,NA,NA,right,3963,1,2,783.1999999880791
f3SXGWFA,3bawbgqgzoco8yjjw9p686v3rigv79,3a0ex8zrnc1u1of853t89rhlw1aybr,f3SXGWFA,2020-0188,2021-10-31,03:20:50,04:35:25,NA,incomplete,false,NA,true,NA,1,10,NA,NA,NA,left,NA,NA,NA,present,NA,NA,n_s_111.jpg,brown,n_s_016.jpg,brown,within,NA,NaN,NA,NA,NA,NA,left,4039,1,0,628.6999999880791
f3SXGWFA,3bawbgqgzoco8yjjw9p686v3rigv79,3a0ex8zrnc1u1of853t89rhlw1aybr,f3SXGWFA,2020-0188,2021-10-31,03:20:50,04:35:25,NA,incomplete,false,true,NA,NA,2,0,NA,red,m_s_060.jpg,NA,NA,NA,NA,NA,unpleasant,pleasant,NA,NA,NA,NA,NA,right,1742.19999998808,true,NA,NA,NA,NA,NA,NA,NA,NA
f3SXGWFA,3bawbgqgzoco8yjjw9p686v3rigv79,3a0ex8zrnc1u1of853t89rhlw1aybr,f3SXGWFA,2020-0188,2021-10-31,03:20:50,04:35:25,NA,incomplete,false,true,NA,NA,2,1,NA,red,n_s_006.jpg,NA,NA,NA,NA,NA,pleasant,unpleasant,NA,NA,NA,NA,NA,left,1788,true,NA,NA,NA,NA,NA,NA,NA,NA
f3SXGWFA,3bawbgqgzoco8yjjw9p686v3rigv79,3a0ex8zrnc1u1of853t89rhlw1aybr,f3SXGWFA,2020-0188,2021-10-31,03:20:50,04:35:25,NA,incomplete,false,true,NA,NA,2,2,NA,red,n_l_056.jpg,NA,NA,NA,NA,NA,unpleasant,pleasant,NA,NA,NA,NA,NA,right,1678.5,true,NA,NA,NA,NA,NA,NA,NA,NA
f3SXGWFA,3bawbgqgzoco8yjjw9p686v3rigv79,3a0ex8zrnc1u1of853t89rhlw1aybr,f3SXGWFA,2020-0188,2021-10-31,03:20:50,04:35:25,NA,incomplete,false,true,NA,NA,2,3,NA,red,n_s_098.jpg,NA,NA,NA,NA,NA,unpleasant,pleasant,NA,NA,NA,NA,NA,right,646.5,true,NA,NA,NA,NA,NA,NA,NA,NA
f3SXGWFA,3bawbgqgzoco8yjjw9p686v3rigv79,3a0ex8zrnc1u1of853t89rhlw1aybr,f3SXGWFA,2020-0188,2021-10-31,03:20:50,04:35:25,NA,incomplete,false,true,NA,NA,2,4,NA,red,m_l_034.jpg,NA,NA,NA,NA,NA,pleasant,unpleasant,NA,NA,NA,NA,NA,right,1762.30000001192,true,NA,NA,NA,NA,NA,NA,NA,NA
f3SXGWFA,3bawbgqgzoco8yjjw9p686v3rigv79,3a0ex8zrnc1u1of853t89rhlw1aybr,f3SXGWFA,2020-0188,2021-10-31,03:20:50,04:35:25,NA,incomplete,false,true,NA,NA,2,5,NA,red,m_l_062.jpg,NA,NA,NA,NA,NA,unpleasant,pleasant,NA,NA,NA,NA,NA,right,1243.19999998808,true,NA,NA,NA,NA,NA,NA,NA,NA
f3SXGWFA,3bawbgqgzoco8yjjw9p686v3rigv79,3a0ex8zrnc1u1of853t89rhlw1aybr,f3SXGWFA,2020-0188,2021-10-31,03:20:50,04:35:25,NA,incomplete,false,true,NA,NA,2,6,NA,purple,n_s_103.jpg,NA,NA,NA,NA,NA,pleasant,unpleasant,NA,NA,NA,NA,NA,right,1412.40000000596,true,NA,NA,NA,NA,NA,NA,NA,NA
f3SXGWFA,3bawbgqgzoco8yjjw9p686v3rigv79,3a0ex8zrnc1u1of853t89rhlw1aybr,f3SXGWFA,2020-0188,2021-10-31,03:20:50,04:35:25,NA,incomplete,false,true,NA,NA,2,7,NA,purple,n_s_075.jpg,NA,NA,NA,NA,NA,pleasant,unpleasant,NA,NA,NA,NA,NA,left,1091.5,true,NA,NA,NA,NA,NA,NA,NA,NA
f3SXGWFA,3bawbgqgzoco8yjjw9p686v3rigv79,3a0ex8zrnc1u1of853t89rhlw1aybr,f3SXGWFA,2020-0188,2021-10-31,03:20:50,04:35:25,NA,incomplete,false,true,NA,NA,2,8,NA,purple,n_l_104.jpg,NA,NA,NA,NA,NA,unpleasant,pleasant,NA,NA,NA,NA,NA,left,1808.80000001192,true,NA,NA,NA,NA,NA,NA,NA,NA
f3SXGWFA,3bawbgqgzoco8yjjw9p686v3rigv79,3a0ex8zrnc1u1of853t89rhlw1aybr,f3SXGWFA,2020-0188,2021-10-31,03:20:50,04:35:25,NA,incomplete,false,true,NA,NA,2,9,NA,purple,n_s_093.jpg,NA,NA,NA,NA,NA,pleasant,unpleasant,NA,NA,NA,NA,NA,left,2113.30000001192,true,NA,NA,NA,NA,NA,NA,NA,NA
f3SXGWFA,3bawbgqgzoco8yjjw9p686v3rigv79,3a0ex8zrnc1u1of853t89rhlw1aybr,f3SXGWFA,2020-0188,2021-10-31,03:20:50,04:35:25,NA,incomplete,false,true,NA,NA,2,10,NA,purple,n_s_066.jpg,NA,NA,NA,NA,NA,unpleasant,pleasant,NA,NA,NA,NA,NA,left,1183.59999999404,true,NA,NA,NA,NA,NA,NA,NA,NA
f3SXGWFA,3bawbgqgzoco8yjjw9p686v3rigv79,3a0ex8zrnc1u1of853t89rhlw1aybr,f3SXGWFA,2020-0188,2021-10-31,03:20:50,04:35:25,NA,incomplete,false,true,NA,NA,2,11,NA,purple,n_s_112.jpg,NA,NA,NA,NA,NA,pleasant,unpleasant,NA,NA,NA,NA,NA,left,1773.59999999404,true,NA,NA,NA,NA,NA,NA,NA,NA
f3SXGWFA,3bawbgqgzoco8yjjw9p686v3rigv79,3a0ex8zrnc1u1of853t89rhlw1aybr,f3SXGWFA,2020-0188,2021-10-31,03:20:50,04:35:25,NA,incomplete,false,true,NA,NA,2,12,NA,gray,n_l_072.jpg,NA,NA,NA,NA,NA,unpleasant,pleasant,NA,NA,NA,NA,NA,right,1084.40000000596,true,NA,NA,NA,NA,NA,NA,NA,NA
f3SXGWFA,3bawbgqgzoco8yjjw9p686v3rigv79,3a0ex8zrnc1u1of853t89rhlw1aybr,f3SXGWFA,2020-0188,2021-10-31,03:20:50,04:35:25,NA,incomplete,false,true,NA,NA,2,13,NA,gray,n_l_008.jpg,NA,NA,NA,NA,NA,unpleasant,pleasant,NA,NA,NA,NA,NA,right,1112.09999999404,true,NA,NA,NA,NA,NA,NA,NA,NA
f3SXGWFA,3bawbgqgzoco8yjjw9p686v3rigv79,3a0ex8zrnc1u1of853t89rhlw1aybr,f3SXGWFA,2020-0188,2021-10-31,03:20:50,04:35:25,NA,incomplete,false,true,NA,NA,2,14,NA,gray,n_s_024.jpg,NA,NA,NA,NA,NA,pleasant,unpleasant,NA,NA,NA,NA,NA,right,2033.59999999404,true,NA,NA,NA,NA,NA,NA,NA,NA
f3SXGWFA,3bawbgqgzoco8yjjw9p686v3rigv79,3a0ex8zrnc1u1of853t89rhlw1aybr,f3SXGWFA,2020-0188,2021-10-31,03:20:50,04:35:25,NA,incomplete,false,true,NA,NA,2,15,NA,gray,m_s_104.jpg,NA,NA,NA,NA,NA,pleasant,unpleasant,NA,NA,NA,NA,NA,right,1075.69999998808,true,NA,NA,NA,NA,NA,NA,NA,NA
f3SXGWFA,3bawbgqgzoco8yjjw9p686v3rigv79,3a0ex8zrnc1u1of853t89rhlw1aybr,f3SXGWFA,2020-0188,2021-10-31,03:20:50,04:35:25,NA,incomplete,false,true,NA,NA,2,16,NA,gray,n_l_042.jpg,NA,NA,NA,NA,NA,unpleasant,pleasant,NA,NA,NA,NA,NA,right,1065.19999998808,true,NA,NA,NA,NA,NA,NA,NA,NA
f3SXGWFA,3bawbgqgzoco8yjjw9p686v3rigv79,3a0ex8zrnc1u1of853t89rhlw1aybr,f3SXGWFA,2020-0188,2021-10-31,03:20:50,04:35:25,NA,incomplete,false,true,NA,NA,2,17,NA,gray,n_l_073.jpg,NA,NA,NA,NA,NA,unpleasant,pleasant,NA,NA,NA,NA,NA,right,1936.09999999404,true,NA,NA,NA,NA,NA,NA,NA,NA
f3SXGWFA,3bawbgqgzoco8yjjw9p686v3rigv79,3a0ex8zrnc1u1of853t89rhlw1aybr,f3SXGWFA,2020-0188,2021-10-31,03:20:50,04:35:25,NA,incomplete,false,true,NA,NA,2,18,NA,blue,n_s_063.jpg,NA,NA,NA,NA,NA,unpleasant,pleasant,NA,NA,NA,NA,NA,left,1487.09999999404,true,NA,NA,NA,NA,NA,NA,NA,NA
f3SXGWFA,3bawbgqgzoco8yjjw9p686v3rigv79,3a0ex8zrnc1u1of853t89rhlw1aybr,f3SXGWFA,2020-0188,2021-10-31,03:20:50,04:35:25,NA,incomplete,false,true,NA,NA,2,19,NA,blue,m_s_066.jpg,NA,NA,NA,NA,NA,unpleasant,pleasant,NA,NA,NA,NA,NA,left,1321.79999998212,true,NA,NA,NA,NA,NA,NA,NA,NA
f3SXGWFA,3bawbgqgzoco8yjjw9p686v3rigv79,3a0ex8zrnc1u1of853t89rhlw1aybr,f3SXGWFA,2020-0188,2021-10-31,03:20:50,04:35:25,NA,incomplete,false,true,NA,NA,2,20,NA,blue,m_s_099.jpg,NA,NA,NA,NA,NA,pleasant,unpleasant,NA,NA,NA,NA,NA,right,1313,true,NA,NA,NA,NA,NA,NA,NA,NA
f3SXGWFA,3bawbgqgzoco8yjjw9p686v3rigv79,3a0ex8zrnc1u1of853t89rhlw1aybr,f3SXGWFA,2020-0188,2021-10-31,03:20:50,04:35:25,NA,incomplete,false,true,NA,NA,2,21,NA,blue,n_l_066.jpg,NA,NA,NA,NA,NA,unpleasant,pleasant,NA,NA,NA,NA,NA,left,1110.19999998808,true,NA,NA,NA,NA,NA,NA,NA,NA
f3SXGWFA,3bawbgqgzoco8yjjw9p686v3rigv79,3a0ex8zrnc1u1of853t89rhlw1aybr,f3SXGWFA,2020-0188,2021-10-31,03:20:50,04:35:25,NA,incomplete,false,true,NA,NA,2,22,NA,blue,m_s_011.jpg,NA,NA,NA,NA,NA,pleasant,unpleasant,NA,NA,NA,NA,NA,right,920.700000017881,true,NA,NA,NA,NA,NA,NA,NA,NA
f3SXGWFA,3bawbgqgzoco8yjjw9p686v3rigv79,3a0ex8zrnc1u1of853t89rhlw1aybr,f3SXGWFA,2020-0188,2021-10-31,03:20:50,04:35:25,NA,incomplete,false,true,NA,NA,2,23,NA,blue,m_s_035.jpg,NA,NA,NA,NA,NA,pleasant,unpleasant,NA,NA,NA,NA,NA,left,1700.40000000596,true,NA,NA,NA,NA,NA,NA,NA,NA
f3SXGWFA,3bawbgqgzoco8yjjw9p686v3rigv79,3a0ex8zrnc1u1of853t89rhlw1aybr,f3SXGWFA,2020-0188,2021-10-31,03:20:50,04:35:25,NA,incomplete,false,true,NA,NA,2,24,NA,green,m_s_095.jpg,NA,NA,NA,NA,NA,unpleasant,pleasant,NA,NA,NA,NA,NA,left,1027.70000001788,true,NA,NA,NA,NA,NA,NA,NA,NA
f3SXGWFA,3bawbgqgzoco8yjjw9p686v3rigv79,3a0ex8zrnc1u1of853t89rhlw1aybr,f3SXGWFA,2020-0188,2021-10-31,03:20:50,04:35:25,NA,incomplete,false,true,NA,NA,2,25,NA,green,m_l_014.jpg,NA,NA,NA,NA,NA,pleasant,unpleasant,NA,NA,NA,NA,NA,right,938.300000011921,true,NA,NA,NA,NA,NA,NA,NA,NA
f3SXGWFA,3bawbgqgzoco8yjjw9p686v3rigv79,3a0ex8zrnc1u1of853t89rhlw1aybr,f3SXGWFA,2020-0188,2021-10-31,03:20:50,04:35:25,NA,incomplete,false,true,NA,NA,2,26,NA,green,n_l_037.jpg,NA,NA,NA,NA,NA,pleasant,unpleasant,NA,NA,NA,NA,NA,right,640.90000000596,true,NA,NA,NA,NA,NA,NA,NA,NA
f3SXGWFA,3bawbgqgzoco8yjjw9p686v3rigv79,3a0ex8zrnc1u1of853t89rhlw1aybr,f3SXGWFA,2020-0188,2021-10-31,03:20:50,04:35:25,NA,incomplete,false,true,NA,NA,2,27,NA,green,m_l_049.jpg,NA,NA,NA,NA,NA,unpleasant,pleasant,NA,NA,NA,NA,NA,right,1728.5,true,NA,NA,NA,NA,NA,NA,NA,NA
f3SXGWFA,3bawbgqgzoco8yjjw9p686v3rigv79,3a0ex8zrnc1u1of853t89rhlw1aybr,f3SXGWFA,2020-0188,2021-10-31,03:20:50,04:35:25,NA,incomplete,false,true,NA,NA,2,28,NA,green,m_s_059.jpg,NA,NA,NA,NA,NA,pleasant,unpleasant,NA,NA,NA,NA,NA,left,1173.30000001192,true,NA,NA,NA,NA,NA,NA,NA,NA
f3SXGWFA,3bawbgqgzoco8yjjw9p686v3rigv79,3a0ex8zrnc1u1of853t89rhlw1aybr,f3SXGWFA,2020-0188,2021-10-31,03:20:50,04:35:25,NA,incomplete,false,true,NA,NA,2,29,NA,green,m_s_080.jpg,NA,NA,NA,NA,NA,pleasant,unpleasant,NA,NA,NA,NA,NA,left,839.100000023842,true,NA,NA,NA,NA,NA,NA,NA,NA
f3SXGWFA,3bawbgqgzoco8yjjw9p686v3rigv79,3a0ex8zrnc1u1of853t89rhlw1aybr,f3SXGWFA,2020-0188,2021-10-31,03:20:50,04:35:25,NA,incomplete,false,true,NA,NA,2,30,NA,brown,m_l_082.jpg,NA,NA,NA,NA,NA,unpleasant,pleasant,NA,NA,NA,NA,NA,right,1191.20000001788,true,NA,NA,NA,NA,NA,NA,NA,NA
f3SXGWFA,3bawbgqgzoco8yjjw9p686v3rigv79,3a0ex8zrnc1u1of853t89rhlw1aybr,f3SXGWFA,2020-0188,2021-10-31,03:20:50,04:35:25,NA,incomplete,false,true,NA,NA,2,31,NA,brown,m_s_036.jpg,NA,NA,NA,NA,NA,unpleasant,pleasant,NA,NA,NA,NA,NA,right,1262.80000001192,true,NA,NA,NA,NA,NA,NA,NA,NA
f3SXGWFA,3bawbgqgzoco8yjjw9p686v3rigv79,3a0ex8zrnc1u1of853t89rhlw1aybr,f3SXGWFA,2020-0188,2021-10-31,03:20:50,04:35:25,NA,incomplete,false,true,NA,NA,2,32,NA,brown,m_l_058.jpg,NA,NA,NA,NA,NA,unpleasant,pleasant,NA,NA,NA,NA,NA,right,1147.19999998808,true,NA,NA,NA,NA,NA,NA,NA,NA
f3SXGWFA,3bawbgqgzoco8yjjw9p686v3rigv79,3a0ex8zrnc1u1of853t89rhlw1aybr,f3SXGWFA,2020-0188,2021-10-31,03:20:50,04:35:25,NA,incomplete,false,true,NA,NA,2,33,NA,brown,m_l_050.jpg,NA,NA,NA,NA,NA,pleasant,unpleasant,NA,NA,NA,NA,NA,right,1913.09999999404,true,NA,NA,NA,NA,NA,NA,NA,NA
f3SXGWFA,3bawbgqgzoco8yjjw9p686v3rigv79,3a0ex8zrnc1u1of853t89rhlw1aybr,f3SXGWFA,2020-0188,2021-10-31,03:20:50,04:35:25,NA,incomplete,false,true,NA,NA,2,34,NA,brown,m_s_074.jpg,NA,NA,NA,NA,NA,unpleasant,pleasant,NA,NA,NA,NA,NA,left,1033.20000001788,true,NA,NA,NA,NA,NA,NA,NA,NA
f3SXGWFA,3bawbgqgzoco8yjjw9p686v3rigv79,3a0ex8zrnc1u1of853t89rhlw1aybr,f3SXGWFA,2020-0188,2021-10-31,03:20:50,04:35:25,NA,incomplete,false,true,NA,NA,2,35,NA,brown,n_l_032.jpg,NA,NA,NA,NA,NA,pleasant,unpleasant,NA,NA,NA,NA,NA,left,1547.70000001788,true,NA,NA,NA,NA,NA,NA,NA,NA
f3SXGWFA,3bawbgqgzoco8yjjw9p686v3rigv79,3a0ex8zrnc1u1of853t89rhlw1aybr,f3SXGWFA,2020-0188,2021-10-31,03:20:50,04:35:25,NA,incomplete,false,NA,NA,true,2,0,NA,NA,NA,left,m_s_011.jpg,blue,gray,NA,NA,NA,NA,NA,NA,NA,NA,NA,NaN,NA,2023.4000000059605,left,1,NA,NA,NA,NA,NA
f3SXGWFA,3bawbgqgzoco8yjjw9p686v3rigv79,3a0ex8zrnc1u1of853t89rhlw1aybr,f3SXGWFA,2020-0188,2021-10-31,03:20:50,04:35:25,NA,incomplete,false,NA,NA,true,2,1,NA,NA,NA,right,n_l_042.jpg,blue,gray,NA,NA,NA,NA,NA,NA,NA,NA,NA,NaN,NA,1393.2999999821186,right,1,NA,NA,NA,NA,NA
f3SXGWFA,3bawbgqgzoco8yjjw9p686v3rigv79,3a0ex8zrnc1u1of853t89rhlw1aybr,f3SXGWFA,2020-0188,2021-10-31,03:20:50,04:35:25,NA,incomplete,false,NA,NA,true,2,2,NA,NA,NA,left,n_l_104.jpg,purple,red,NA,NA,NA,NA,NA,NA,NA,NA,NA,NaN,NA,1421.0999999940395,left,1,NA,NA,NA,NA,NA
f3SXGWFA,3bawbgqgzoco8yjjw9p686v3rigv79,3a0ex8zrnc1u1of853t89rhlw1aybr,f3SXGWFA,2020-0188,2021-10-31,03:20:50,04:35:25,NA,incomplete,false,NA,NA,true,2,3,NA,NA,NA,right,m_l_014.jpg,blue,green,NA,NA,NA,NA,NA,NA,NA,NA,NA,NaN,NA,1746.8999999761581,right,1,NA,NA,NA,NA,NA
f3SXGWFA,3bawbgqgzoco8yjjw9p686v3rigv79,3a0ex8zrnc1u1of853t89rhlw1aybr,f3SXGWFA,2020-0188,2021-10-31,03:20:50,04:35:25,NA,incomplete,false,NA,NA,true,2,4,NA,NA,NA,right,n_s_024.jpg,purple,gray,NA,NA,NA,NA,NA,NA,NA,NA,NA,NaN,NA,1673.2000000178814,left,0,NA,NA,NA,NA,NA
f3SXGWFA,3bawbgqgzoco8yjjw9p686v3rigv79,3a0ex8zrnc1u1of853t89rhlw1aybr,f3SXGWFA,2020-0188,2021-10-31,03:20:50,04:35:25,NA,incomplete,false,NA,NA,true,2,5,NA,NA,NA,left,m_s_035.jpg,blue,gray,NA,NA,NA,NA,NA,NA,NA,NA,NA,NaN,NA,1339.300000011921,left,1,NA,NA,NA,NA,NA
f3SXGWFA,3bawbgqgzoco8yjjw9p686v3rigv79,3a0ex8zrnc1u1of853t89rhlw1aybr,f3SXGWFA,2020-0188,2021-10-31,03:20:50,04:35:25,NA,incomplete,false,NA,NA,true,2,6,NA,NA,NA,left,m_l_062.jpg,red,purple,NA,NA,NA,NA,NA,NA,NA,NA,NA,NaN,NA,1899,left,1,NA,NA,NA,NA,NA
f3SXGWFA,3bawbgqgzoco8yjjw9p686v3rigv79,3a0ex8zrnc1u1of853t89rhlw1aybr,f3SXGWFA,2020-0188,2021-10-31,03:20:50,04:35:25,NA,incomplete,false,NA,NA,true,2,7,NA,NA,NA,right,m_s_066.jpg,gray,blue,NA,NA,NA,NA,NA,NA,NA,NA,NA,NaN,NA,1032.5999999940395,right,1,NA,NA,NA,NA,NA
f3SXGWFA,3bawbgqgzoco8yjjw9p686v3rigv79,3a0ex8zrnc1u1of853t89rhlw1aybr,f3SXGWFA,2020-0188,2021-10-31,03:20:50,04:35:25,NA,incomplete,false,NA,NA,true,2,8,NA,NA,NA,left,n_s_066.jpg,purple,gray,NA,NA,NA,NA,NA,NA,NA,NA,NA,NaN,NA,2713.100000023842,left,1,NA,NA,NA,NA,NA
f3SXGWFA,3bawbgqgzoco8yjjw9p686v3rigv79,3a0ex8zrnc1u1of853t89rhlw1aybr,f3SXGWFA,2020-0188,2021-10-31,03:20:50,04:35:25,NA,incomplete,false,NA,NA,true,2,9,NA,NA,NA,left,n_l_037.jpg,green,blue,NA,NA,NA,NA,NA,NA,NA,NA,NA,NaN,NA,1190.9000000059605,left,1,NA,NA,NA,NA,NA
f3SXGWFA,3bawbgqgzoco8yjjw9p686v3rigv79,3a0ex8zrnc1u1of853t89rhlw1aybr,f3SXGWFA,2020-0188,2021-10-31,03:20:50,04:35:25,NA,incomplete,false,NA,NA,true,2,10,NA,NA,NA,right,m_s_036.jpg,green,brown,NA,NA,NA,NA,NA,NA,NA,NA,NA,NaN,NA,1013.8000000119209,right,1,NA,NA,NA,NA,NA
f3SXGWFA,3bawbgqgzoco8yjjw9p686v3rigv79,3a0ex8zrnc1u1of853t89rhlw1aybr,f3SXGWFA,2020-0188,2021-10-31,03:20:50,04:35:25,NA,incomplete,false,NA,NA,true,2,11,NA,NA,NA,left,n_s_075.jpg,purple,gray,NA,NA,NA,NA,NA,NA,NA,NA,NA,NaN,NA,1110.699999988079,left,1,NA,NA,NA,NA,NA
f3SXGWFA,3bawbgqgzoco8yjjw9p686v3rigv79,3a0ex8zrnc1u1of853t89rhlw1aybr,f3SXGWFA,2020-0188,2021-10-31,03:20:50,04:35:25,NA,incomplete,false,NA,NA,true,2,12,NA,NA,NA,right,m_s_099.jpg,gray,blue,NA,NA,NA,NA,NA,NA,NA,NA,NA,NaN,NA,2203.199999988079,right,1,NA,NA,NA,NA,NA
f3SXGWFA,3bawbgqgzoco8yjjw9p686v3rigv79,3a0ex8zrnc1u1of853t89rhlw1aybr,f3SXGWFA,2020-0188,2021-10-31,03:20:50,04:35:25,NA,incomplete,false,NA,NA,true,2,13,NA,NA,NA,right,n_l_073.jpg,purple,gray,NA,NA,NA,NA,NA,NA,NA,NA,NA,NaN,NA,2840.5999999940395,left,0,NA,NA,NA,NA,NA
f3SXGWFA,3bawbgqgzoco8yjjw9p686v3rigv79,3a0ex8zrnc1u1of853t89rhlw1aybr,f3SXGWFA,2020-0188,2021-10-31,03:20:50,04:35:25,NA,incomplete,false,NA,NA,true,2,14,NA,NA,NA,left,m_s_080.jpg,green,blue,NA,NA,NA,NA,NA,NA,NA,NA,NA,NaN,NA,1188.5,left,1,NA,NA,NA,NA,NA
f3SXGWFA,3bawbgqgzoco8yjjw9p686v3rigv79,3a0ex8zrnc1u1of853t89rhlw1aybr,f3SXGWFA,2020-0188,2021-10-31,03:20:50,04:35:25,NA,incomplete,false,NA,NA,true,2,15,NA,NA,NA,right,n_s_112.jpg,gray,purple,NA,NA,NA,NA,NA,NA,NA,NA,NA,NaN,NA,1672.800000011921,left,0,NA,NA,NA,NA,NA
f3SXGWFA,3bawbgqgzoco8yjjw9p686v3rigv79,3a0ex8zrnc1u1of853t89rhlw1aybr,f3SXGWFA,2020-0188,2021-10-31,03:20:50,04:35:25,NA,incomplete,false,NA,NA,true,2,16,NA,NA,NA,left,m_s_059.jpg,green,blue,NA,NA,NA,NA,NA,NA,NA,NA,NA,NaN,NA,1153.6000000238419,left,1,NA,NA,NA,NA,NA
f3SXGWFA,3bawbgqgzoco8yjjw9p686v3rigv79,3a0ex8zrnc1u1of853t89rhlw1aybr,f3SXGWFA,2020-0188,2021-10-31,03:20:50,04:35:25,NA,incomplete,false,NA,NA,true,2,17,NA,NA,NA,right,m_l_034.jpg,purple,red,NA,NA,NA,NA,NA,NA,NA,NA,NA,NaN,NA,2208.5,right,1,NA,NA,NA,NA,NA
f3SXGWFA,3bawbgqgzoco8yjjw9p686v3rigv79,3a0ex8zrnc1u1of853t89rhlw1aybr,f3SXGWFA,2020-0188,2021-10-31,03:20:50,04:35:25,NA,incomplete,false,NA,NA,true,2,18,NA,NA,NA,left,n_l_008.jpg,gray,blue,NA,NA,NA,NA,NA,NA,NA,NA,NA,NaN,NA,1421,left,1,NA,NA,NA,NA,NA
f3SXGWFA,3bawbgqgzoco8yjjw9p686v3rigv79,3a0ex8zrnc1u1of853t89rhlw1aybr,f3SXGWFA,2020-0188,2021-10-31,03:20:50,04:35:25,NA,incomplete,false,NA,NA,true,2,19,NA,NA,NA,right,n_l_032.jpg,green,brown,NA,NA,NA,NA,NA,NA,NA,NA,NA,NaN,NA,2893.7000000178814,right,1,NA,NA,NA,NA,NA
f3SXGWFA,3bawbgqgzoco8yjjw9p686v3rigv79,3a0ex8zrnc1u1of853t89rhlw1aybr,f3SXGWFA,2020-0188,2021-10-31,03:20:50,04:35:25,NA,incomplete,false,NA,NA,true,2,20,NA,NA,NA,right,m_l_058.jpg,green,brown,NA,NA,NA,NA,NA,NA,NA,NA,NA,NaN,NA,1087.699999988079,right,1,NA,NA,NA,NA,NA
f3SXGWFA,3bawbgqgzoco8yjjw9p686v3rigv79,3a0ex8zrnc1u1of853t89rhlw1aybr,f3SXGWFA,2020-0188,2021-10-31,03:20:50,04:35:25,NA,incomplete,false,NA,NA,true,2,21,NA,NA,NA,left,n_s_006.jpg,red,purple,NA,NA,NA,NA,NA,NA,NA,NA,NA,NaN,NA,3829.800000011921,left,1,NA,NA,NA,NA,NA
f3SXGWFA,3bawbgqgzoco8yjjw9p686v3rigv79,3a0ex8zrnc1u1of853t89rhlw1aybr,f3SXGWFA,2020-0188,2021-10-31,03:20:50,04:35:25,NA,incomplete,false,NA,true,NA,2,0,NA,NA,NA,right,NA,NA,NA,present,NA,NA,n_l_032.jpg,brown,m_s_036.jpg,brown,within,NA,NaN,NA,NA,NA,NA,left,2249.399999976158,0,1,1898.0999999940395
f3SXGWFA,3bawbgqgzoco8yjjw9p686v3rigv79,3a0ex8zrnc1u1of853t89rhlw1aybr,f3SXGWFA,2020-0188,2021-10-31,03:20:50,04:35:25,NA,incomplete,false,NA,true,NA,2,1,NA,NA,NA,left,NA,NA,NA,present,NA,NA,n_l_042.jpg,gray,m_s_099.jpg,blue,between,NA,NaN,NA,NA,NA,NA,right,2917.5,0,2,1062.300000011921
f3SXGWFA,3bawbgqgzoco8yjjw9p686v3rigv79,3a0ex8zrnc1u1of853t89rhlw1aybr,f3SXGWFA,2020-0188,2021-10-31,03:20:50,04:35:25,NA,incomplete,false,NA,true,NA,2,2,NA,NA,NA,right,NA,NA,NA,present,NA,NA,n_l_104.jpg,purple,m_l_034.jpg,red,between,NA,NaN,NA,NA,NA,NA,left,5052.0999999940395,0,2,835.3000000119209
f3SXGWFA,3bawbgqgzoco8yjjw9p686v3rigv79,3a0ex8zrnc1u1of853t89rhlw1aybr,f3SXGWFA,2020-0188,2021-10-31,03:20:50,04:35:25,NA,incomplete,false,NA,true,NA,2,3,NA,NA,NA,left,NA,NA,NA,present,NA,NA,n_s_075.jpg,purple,n_s_112.jpg,purple,within,NA,NaN,NA,NA,NA,NA,left,5861.5999999940395,1,0,602.5999999940395
f3SXGWFA,3bawbgqgzoco8yjjw9p686v3rigv79,3a0ex8zrnc1u1of853t89rhlw1aybr,f3SXGWFA,2020-0188,2021-10-31,03:20:50,04:35:25,NA,incomplete,false,NA,true,NA,2,4,NA,NA,NA,left,NA,NA,NA,present,NA,NA,n_s_066.jpg,purple,n_s_024.jpg,gray,between,NA,NaN,NA,NA,NA,NA,left,2559.5,1,2,1138.2000000178814
f3SXGWFA,3bawbgqgzoco8yjjw9p686v3rigv79,3a0ex8zrnc1u1of853t89rhlw1aybr,f3SXGWFA,2020-0188,2021-10-31,03:20:50,04:35:25,NA,incomplete,false,NA,true,NA,2,5,NA,NA,NA,right,NA,NA,NA,present,NA,NA,m_s_080.jpg,green,m_l_014.jpg,green,within,NA,NaN,NA,NA,NA,NA,right,2583.699999988079,1,0,863
f3SXGWFA,3bawbgqgzoco8yjjw9p686v3rigv79,3a0ex8zrnc1u1of853t89rhlw1aybr,f3SXGWFA,2020-0188,2021-10-31,03:20:50,04:35:25,NA,incomplete,false,NA,true,NA,2,6,NA,NA,NA,right,NA,NA,NA,present,NA,NA,n_l_037.jpg,green,m_s_011.jpg,blue,between,NA,NaN,NA,NA,NA,NA,right,7122.199999988079,1,2,784.6999999880791
f3SXGWFA,3bawbgqgzoco8yjjw9p686v3rigv79,3a0ex8zrnc1u1of853t89rhlw1aybr,f3SXGWFA,2020-0188,2021-10-31,03:20:50,04:35:25,NA,incomplete,false,NA,true,NA,2,7,NA,NA,NA,left,NA,NA,NA,present,NA,NA,m_s_059.jpg,green,m_l_058.jpg,brown,between,NA,NaN,NA,NA,NA,NA,right,7593.9000000059605,0,3,835.1999999880791
f3SXGWFA,3bawbgqgzoco8yjjw9p686v3rigv79,3a0ex8zrnc1u1of853t89rhlw1aybr,f3SXGWFA,2020-0188,2021-10-31,03:20:50,04:35:25,NA,incomplete,false,NA,true,NA,2,8,NA,NA,NA,left,NA,NA,NA,present,NA,NA,n_l_008.jpg,gray,n_l_073.jpg,gray,within,NA,NaN,NA,NA,NA,NA,left,2251.699999988079,1,0,786.0999999940395
f3SXGWFA,3bawbgqgzoco8yjjw9p686v3rigv79,3a0ex8zrnc1u1of853t89rhlw1aybr,f3SXGWFA,2020-0188,2021-10-31,03:20:50,04:35:25,NA,incomplete,false,NA,true,NA,2,9,NA,NA,NA,left,NA,NA,NA,present,NA,NA,m_s_066.jpg,blue,m_s_035.jpg,blue,within,NA,NaN,NA,NA,NA,NA,right,2069.5999999940395,0,0,1393.0999999940395
f3SXGWFA,3bawbgqgzoco8yjjw9p686v3rigv79,3a0ex8zrnc1u1of853t89rhlw1aybr,f3SXGWFA,2020-0188,2021-10-31,03:20:50,04:35:25,NA,incomplete,false,NA,true,NA,2,10,NA,NA,NA,right,NA,NA,NA,present,NA,NA,m_l_062.jpg,red,n_s_006.jpg,red,within,NA,NaN,NA,NA,NA,NA,right,2671.4000000059605,1,2,634.3000000119209
f3SXGWFA,3bawbgqgzoco8yjjw9p686v3rigv79,3a0ex8zrnc1u1of853t89rhlw1aybr,f3SXGWFA,2020-0188,2021-10-31,03:20:50,04:35:25,NA,incomplete,false,true,NA,NA,3,0,NA,purple,m_s_065.jpg,NA,NA,NA,NA,NA,unpleasant,pleasant,NA,NA,NA,NA,NA,right,1165.79999998212,true,NA,NA,NA,NA,NA,NA,NA,NA
f3SXGWFA,3bawbgqgzoco8yjjw9p686v3rigv79,3a0ex8zrnc1u1of853t89rhlw1aybr,f3SXGWFA,2020-0188,2021-10-31,03:20:50,04:35:25,NA,incomplete,false,true,NA,NA,3,1,NA,purple,n_l_077.jpg,NA,NA,NA,NA,NA,pleasant,unpleasant,NA,NA,NA,NA,NA,right,1540,true,NA,NA,NA,NA,NA,NA,NA,NA
f3SXGWFA,3bawbgqgzoco8yjjw9p686v3rigv79,3a0ex8zrnc1u1of853t89rhlw1aybr,f3SXGWFA,2020-0188,2021-10-31,03:20:50,04:35:25,NA,incomplete,false,true,NA,NA,3,2,NA,purple,n_s_043.jpg,NA,NA,NA,NA,NA,pleasant,unpleasant,NA,NA,NA,NA,NA,none,0,false,NA,NA,NA,NA,NA,NA,NA,NA
f3SXGWFA,3bawbgqgzoco8yjjw9p686v3rigv79,3a0ex8zrnc1u1of853t89rhlw1aybr,f3SXGWFA,2020-0188,2021-10-31,03:20:50,04:35:25,NA,incomplete,false,true,NA,NA,3,3,NA,purple,m_s_102.jpg,NA,NA,NA,NA,NA,unpleasant,pleasant,NA,NA,NA,NA,NA,right,1305,true,NA,NA,NA,NA,NA,NA,NA,NA
f3SXGWFA,3bawbgqgzoco8yjjw9p686v3rigv79,3a0ex8zrnc1u1of853t89rhlw1aybr,f3SXGWFA,2020-0188,2021-10-31,03:20:50,04:35:25,NA,incomplete,false,true,NA,NA,3,4,NA,purple,n_s_022.jpg,NA,NA,NA,NA,NA,pleasant,unpleasant,NA,NA,NA,NA,NA,right,725.09999999404,true,NA,NA,NA,NA,NA,NA,NA,NA
f3SXGWFA,3bawbgqgzoco8yjjw9p686v3rigv79,3a0ex8zrnc1u1of853t89rhlw1aybr,f3SXGWFA,2020-0188,2021-10-31,03:20:50,04:35:25,NA,incomplete,false,true,NA,NA,3,5,NA,purple,n_s_105.jpg,NA,NA,NA,NA,NA,pleasant,unpleasant,NA,NA,NA,NA,NA,none,0,false,NA,NA,NA,NA,NA,NA,NA,NA
f3SXGWFA,3bawbgqgzoco8yjjw9p686v3rigv79,3a0ex8zrnc1u1of853t89rhlw1aybr,f3SXGWFA,2020-0188,2021-10-31,03:20:50,04:35:25,NA,incomplete,false,true,NA,NA,3,6,NA,red,m_s_045.jpg,NA,NA,NA,NA,NA,unpleasant,pleasant,NA,NA,NA,NA,NA,right,1357.10000002384,true,NA,NA,NA,NA,NA,NA,NA,NA
f3SXGWFA,3bawbgqgzoco8yjjw9p686v3rigv79,3a0ex8zrnc1u1of853t89rhlw1aybr,f3SXGWFA,2020-0188,2021-10-31,03:20:50,04:35:25,NA,incomplete,false,true,NA,NA,3,7,NA,red,n_s_040.jpg,NA,NA,NA,NA,NA,unpleasant,pleasant,NA,NA,NA,NA,NA,right,1250.60000002384,true,NA,NA,NA,NA,NA,NA,NA,NA
f3SXGWFA,3bawbgqgzoco8yjjw9p686v3rigv79,3a0ex8zrnc1u1of853t89rhlw1aybr,f3SXGWFA,2020-0188,2021-10-31,03:20:50,04:35:25,NA,incomplete,false,true,NA,NA,3,8,NA,red,m_l_067.jpg,NA,NA,NA,NA,NA,unpleasant,pleasant,NA,NA,NA,NA,NA,none,0,false,NA,NA,NA,NA,NA,NA,NA,NA
f3SXGWFA,3bawbgqgzoco8yjjw9p686v3rigv79,3a0ex8zrnc1u1of853t89rhlw1aybr,f3SXGWFA,2020-0188,2021-10-31,03:20:50,04:35:25,NA,incomplete,false,true,NA,NA,3,9,NA,red,m_l_075.jpg,NA,NA,NA,NA,NA,unpleasant,pleasant,NA,NA,NA,NA,NA,right,1242.19999998808,true,NA,NA,NA,NA,NA,NA,NA,NA
f3SXGWFA,3bawbgqgzoco8yjjw9p686v3rigv79,3a0ex8zrnc1u1of853t89rhlw1aybr,f3SXGWFA,2020-0188,2021-10-31,03:20:50,04:35:25,NA,incomplete,false,true,NA,NA,3,10,NA,red,n_l_001.jpg,NA,NA,NA,NA,NA,unpleasant,pleasant,NA,NA,NA,NA,NA,none,0,false,NA,NA,NA,NA,NA,NA,NA,NA
f3SXGWFA,3bawbgqgzoco8yjjw9p686v3rigv79,3a0ex8zrnc1u1of853t89rhlw1aybr,f3SXGWFA,2020-0188,2021-10-31,03:20:50,04:35:25,NA,incomplete,false,true,NA,NA,3,11,NA,red,m_s_008.jpg,NA,NA,NA,NA,NA,unpleasant,pleasant,NA,NA,NA,NA,NA,none,0,false,NA,NA,NA,NA,NA,NA,NA,NA
f3SXGWFA,3bawbgqgzoco8yjjw9p686v3rigv79,3a0ex8zrnc1u1of853t89rhlw1aybr,f3SXGWFA,2020-0188,2021-10-31,03:20:50,04:35:25,NA,incomplete,false,true,NA,NA,3,12,NA,yellow,n_l_051.jpg,NA,NA,NA,NA,NA,pleasant,unpleasant,NA,NA,NA,NA,NA,none,0,false,NA,NA,NA,NA,NA,NA,NA,NA
f3SXGWFA,3bawbgqgzoco8yjjw9p686v3rigv79,3a0ex8zrnc1u1of853t89rhlw1aybr,f3SXGWFA,2020-0188,2021-10-31,03:20:50,04:35:25,NA,incomplete,false,true,NA,NA,3,13,NA,yellow,m_l_047.jpg,NA,NA,NA,NA,NA,pleasant,unpleasant,NA,NA,NA,NA,NA,right,916.59999999404,true,NA,NA,NA,NA,NA,NA,NA,NA
f3SXGWFA,3bawbgqgzoco8yjjw9p686v3rigv79,3a0ex8zrnc1u1of853t89rhlw1aybr,f3SXGWFA,2020-0188,2021-10-31,03:20:50,04:35:25,NA,incomplete,false,true,NA,NA,3,14,NA,yellow,n_l_019.jpg,NA,NA,NA,NA,NA,unpleasant,pleasant,NA,NA,NA,NA,NA,none,0,false,NA,NA,NA,NA,NA,NA,NA,NA
f3SXGWFA,3bawbgqgzoco8yjjw9p686v3rigv79,3a0ex8zrnc1u1of853t89rhlw1aybr,f3SXGWFA,2020-0188,2021-10-31,03:20:50,04:35:25,NA,incomplete,false,true,NA,NA,3,15,NA,yellow,m_l_109.jpg,NA,NA,NA,NA,NA,unpleasant,pleasant,NA,NA,NA,NA,NA,right,775.59999999404,true,NA,NA,NA,NA,NA,NA,NA,NA
f3SXGWFA,3bawbgqgzoco8yjjw9p686v3rigv79,3a0ex8zrnc1u1of853t89rhlw1aybr,f3SXGWFA,2020-0188,2021-10-31,03:20:50,04:35:25,NA,incomplete,false,true,NA,NA,3,16,NA,yellow,n_s_054.jpg,NA,NA,NA,NA,NA,pleasant,unpleasant,NA,NA,NA,NA,NA,none,0,false,NA,NA,NA,NA,NA,NA,NA,NA
f3SXGWFA,3bawbgqgzoco8yjjw9p686v3rigv79,3a0ex8zrnc1u1of853t89rhlw1aybr,f3SXGWFA,2020-0188,2021-10-31,03:20:50,04:35:25,NA,incomplete,false,true,NA,NA,3,17,NA,yellow,m_s_041.jpg,NA,NA,NA,NA,NA,unpleasant,pleasant,NA,NA,NA,NA,NA,right,926,true,NA,NA,NA,NA,NA,NA,NA,NA
f3SXGWFA,3bawbgqgzoco8yjjw9p686v3rigv79,3a0ex8zrnc1u1of853t89rhlw1aybr,f3SXGWFA,2020-0188,2021-10-31,03:20:50,04:35:25,NA,incomplete,false,true,NA,NA,3,18,NA,green,m_l_102.jpg,NA,NA,NA,NA,NA,pleasant,unpleasant,NA,NA,NA,NA,NA,none,0,false,NA,NA,NA,NA,NA,NA,NA,NA
f3SXGWFA,3bawbgqgzoco8yjjw9p686v3rigv79,3a0ex8zrnc1u1of853t89rhlw1aybr,f3SXGWFA,2020-0188,2021-10-31,03:20:50,04:35:25,NA,incomplete,false,true,NA,NA,3,19,NA,green,m_s_029.jpg,NA,NA,NA,NA,NA,pleasant,unpleasant,NA,NA,NA,NA,NA,none,0,false,NA,NA,NA,NA,NA,NA,NA,NA
f3SXGWFA,3bawbgqgzoco8yjjw9p686v3rigv79,3a0ex8zrnc1u1of853t89rhlw1aybr,f3SXGWFA,2020-0188,2021-10-31,03:20:50,04:35:25,NA,incomplete,false,true,NA,NA,3,20,NA,green,n_s_057.jpg,NA,NA,NA,NA,NA,pleasant,unpleasant,NA,NA,NA,NA,NA,none,0,false,NA,NA,NA,NA,NA,NA,NA,NA
f3SXGWFA,3bawbgqgzoco8yjjw9p686v3rigv79,3a0ex8zrnc1u1of853t89rhlw1aybr,f3SXGWFA,2020-0188,2021-10-31,03:20:50,04:35:25,NA,incomplete,false,true,NA,NA,3,21,NA,green,m_l_007.jpg,NA,NA,NA,NA,NA,pleasant,unpleasant,NA,NA,NA,NA,NA,right,493.199999988079,true,NA,NA,NA,NA,NA,NA,NA,NA
f3SXGWFA,3bawbgqgzoco8yjjw9p686v3rigv79,3a0ex8zrnc1u1of853t89rhlw1aybr,f3SXGWFA,2020-0188,2021-10-31,03:20:50,04:35:25,NA,incomplete,false,true,NA,NA,3,22,NA,green,m_l_089.jpg,NA,NA,NA,NA,NA,pleasant,unpleasant,NA,NA,NA,NA,NA,right,1239.09999999404,true,NA,NA,NA,NA,NA,NA,NA,NA
f3SXGWFA,3bawbgqgzoco8yjjw9p686v3rigv79,3a0ex8zrnc1u1of853t89rhlw1aybr,f3SXGWFA,2020-0188,2021-10-31,03:20:50,04:35:25,NA,incomplete,false,true,NA,NA,3,23,NA,green,m_s_067.jpg,NA,NA,NA,NA,NA,unpleasant,pleasant,NA,NA,NA,NA,NA,none,0,false,NA,NA,NA,NA,NA,NA,NA,NA
f3SXGWFA,3bawbgqgzoco8yjjw9p686v3rigv79,3a0ex8zrnc1u1of853t89rhlw1aybr,f3SXGWFA,2020-0188,2021-10-31,03:20:50,04:35:25,NA,incomplete,false,true,NA,NA,3,24,NA,gray,m_l_057.jpg,NA,NA,NA,NA,NA,pleasant,unpleasant,NA,NA,NA,NA,NA,right,1478.30000001192,true,NA,NA,NA,NA,NA,NA,NA,NA
f3SXGWFA,3bawbgqgzoco8yjjw9p686v3rigv79,3a0ex8zrnc1u1of853t89rhlw1aybr,f3SXGWFA,2020-0188,2021-10-31,03:20:50,04:35:25,NA,incomplete,false,true,NA,NA,3,25,NA,gray,m_s_013.jpg,NA,NA,NA,NA,NA,pleasant,unpleasant,NA,NA,NA,NA,NA,right,475.90000000596,true,NA,NA,NA,NA,NA,NA,NA,NA
f3SXGWFA,3bawbgqgzoco8yjjw9p686v3rigv79,3a0ex8zrnc1u1of853t89rhlw1aybr,f3SXGWFA,2020-0188,2021-10-31,03:20:50,04:35:25,NA,incomplete,false,true,NA,NA,3,26,NA,gray,m_s_027.jpg,NA,NA,NA,NA,NA,unpleasant,pleasant,NA,NA,NA,NA,NA,right,1472,true,NA,NA,NA,NA,NA,NA,NA,NA
f3SXGWFA,3bawbgqgzoco8yjjw9p686v3rigv79,3a0ex8zrnc1u1of853t89rhlw1aybr,f3SXGWFA,2020-0188,2021-10-31,03:20:50,04:35:25,NA,incomplete,false,true,NA,NA,3,27,NA,gray,m_l_008.jpg,NA,NA,NA,NA,NA,pleasant,unpleasant,NA,NA,NA,NA,NA,right,1840.20000001788,true,NA,NA,NA,NA,NA,NA,NA,NA
f3SXGWFA,3bawbgqgzoco8yjjw9p686v3rigv79,3a0ex8zrnc1u1of853t89rhlw1aybr,f3SXGWFA,2020-0188,2021-10-31,03:20:50,04:35:25,NA,incomplete,false,true,NA,NA,3,28,NA,gray,m_l_094.jpg,NA,NA,NA,NA,NA,unpleasant,pleasant,NA,NA,NA,NA,NA,right,1808.5,true,NA,NA,NA,NA,NA,NA,NA,NA
f3SXGWFA,3bawbgqgzoco8yjjw9p686v3rigv79,3a0ex8zrnc1u1of853t89rhlw1aybr,f3SXGWFA,2020-0188,2021-10-31,03:20:50,04:35:25,NA,incomplete,false,true,NA,NA,3,29,NA,gray,n_s_117.jpg,NA,NA,NA,NA,NA,unpleasant,pleasant,NA,NA,NA,NA,NA,none,0,false,NA,NA,NA,NA,NA,NA,NA,NA
f3SXGWFA,3bawbgqgzoco8yjjw9p686v3rigv79,3a0ex8zrnc1u1of853t89rhlw1aybr,f3SXGWFA,2020-0188,2021-10-31,03:20:50,04:35:25,NA,incomplete,false,true,NA,NA,3,30,NA,white,m_s_081.jpg,NA,NA,NA,NA,NA,pleasant,unpleasant,NA,NA,NA,NA,NA,right,1761.09999999404,true,NA,NA,NA,NA,NA,NA,NA,NA
f3SXGWFA,3bawbgqgzoco8yjjw9p686v3rigv79,3a0ex8zrnc1u1of853t89rhlw1aybr,f3SXGWFA,2020-0188,2021-10-31,03:20:50,04:35:25,NA,incomplete,false,true,NA,NA,3,31,NA,white,n_s_076.jpg,NA,NA,NA,NA,NA,pleasant,unpleasant,NA,NA,NA,NA,NA,none,0,false,NA,NA,NA,NA,NA,NA,NA,NA
f3SXGWFA,3bawbgqgzoco8yjjw9p686v3rigv79,3a0ex8zrnc1u1of853t89rhlw1aybr,f3SXGWFA,2020-0188,2021-10-31,03:20:50,04:35:25,NA,incomplete,false,true,NA,NA,3,32,NA,white,n_l_047.jpg,NA,NA,NA,NA,NA,pleasant,unpleasant,NA,NA,NA,NA,NA,none,0,false,NA,NA,NA,NA,NA,NA,NA,NA
f3SXGWFA,3bawbgqgzoco8yjjw9p686v3rigv79,3a0ex8zrnc1u1of853t89rhlw1aybr,f3SXGWFA,2020-0188,2021-10-31,03:20:50,04:35:25,NA,incomplete,false,true,NA,NA,3,33,NA,white,m_s_034.jpg,NA,NA,NA,NA,NA,pleasant,unpleasant,NA,NA,NA,NA,NA,right,952,true,NA,NA,NA,NA,NA,NA,NA,NA
f3SXGWFA,3bawbgqgzoco8yjjw9p686v3rigv79,3a0ex8zrnc1u1of853t89rhlw1aybr,f3SXGWFA,2020-0188,2021-10-31,03:20:50,04:35:25,NA,incomplete,false,true,NA,NA,3,34,NA,white,n_l_016.jpg,NA,NA,NA,NA,NA,unpleasant,pleasant,NA,NA,NA,NA,NA,right,1340.90000000596,true,NA,NA,NA,NA,NA,NA,NA,NA
f3SXGWFA,3bawbgqgzoco8yjjw9p686v3rigv79,3a0ex8zrnc1u1of853t89rhlw1aybr,f3SXGWFA,2020-0188,2021-10-31,03:20:50,04:35:25,NA,incomplete,false,true,NA,NA,3,35,NA,white,n_l_067.jpg,NA,NA,NA,NA,NA,pleasant,unpleasant,NA,NA,NA,NA,NA,right,641.5,true,NA,NA,NA,NA,NA,NA,NA,NA
f3SXGWFA,3bawbgqgzoco8yjjw9p686v3rigv79,3a0ex8zrnc1u1of853t89rhlw1aybr,f3SXGWFA,2020-0188,2021-10-31,03:20:50,04:35:25,NA,incomplete,false,NA,NA,true,3,0,NA,NA,NA,right,m_l_067.jpg,yellow,red,NA,NA,NA,NA,NA,NA,NA,NA,NA,NaN,NA,2532.699999988079,right,1,NA,NA,NA,NA,NA
f3SXGWFA,3bawbgqgzoco8yjjw9p686v3rigv79,3a0ex8zrnc1u1of853t89rhlw1aybr,f3SXGWFA,2020-0188,2021-10-31,03:20:50,04:35:25,NA,incomplete,false,NA,NA,true,3,1,NA,NA,NA,right,m_s_029.jpg,gray,green,NA,NA,NA,NA,NA,NA,NA,NA,NA,NaN,NA,2053.9000000059605,right,1,NA,NA,NA,NA,NA
f3SXGWFA,3bawbgqgzoco8yjjw9p686v3rigv79,3a0ex8zrnc1u1of853t89rhlw1aybr,f3SXGWFA,2020-0188,2021-10-31,03:20:50,04:35:25,NA,incomplete,false,NA,NA,true,3,2,NA,NA,NA,left,n_l_019.jpg,yellow,red,NA,NA,NA,NA,NA,NA,NA,NA,NA,NaN,NA,3401.699999988079,left,1,NA,NA,NA,NA,NA
f3SXGWFA,3bawbgqgzoco8yjjw9p686v3rigv79,3a0ex8zrnc1u1of853t89rhlw1aybr,f3SXGWFA,2020-0188,2021-10-31,03:20:50,04:35:25,NA,incomplete,false,NA,NA,true,3,3,NA,NA,NA,left,m_s_013.jpg,gray,green,NA,NA,NA,NA,NA,NA,NA,NA,NA,NaN,NA,2051.5,right,0,NA,NA,NA,NA,NA
f3SXGWFA,3bawbgqgzoco8yjjw9p686v3rigv79,3a0ex8zrnc1u1of853t89rhlw1aybr,f3SXGWFA,2020-0188,2021-10-31,03:20:50,04:35:25,NA,incomplete,false,NA,NA,true,3,4,NA,NA,NA,left,n_l_001.jpg,red,yellow,NA,NA,NA,NA,NA,NA,NA,NA,NA,NaN,NA,1645.0999999940395,left,1,NA,NA,NA,NA,NA
f3SXGWFA,3bawbgqgzoco8yjjw9p686v3rigv79,3a0ex8zrnc1u1of853t89rhlw1aybr,f3SXGWFA,2020-0188,2021-10-31,03:20:50,04:35:25,NA,incomplete,false,NA,NA,true,3,5,NA,NA,NA,left,m_l_089.jpg,green,yellow,NA,NA,NA,NA,NA,NA,NA,NA,NA,NaN,NA,1109.0999999940395,left,1,NA,NA,NA,NA,NA
f3SXGWFA,3bawbgqgzoco8yjjw9p686v3rigv79,3a0ex8zrnc1u1of853t89rhlw1aybr,f3SXGWFA,2020-0188,2021-10-31,03:20:50,04:35:25,NA,incomplete,false,NA,NA,true,3,6,NA,NA,NA,right,m_l_047.jpg,red,yellow,NA,NA,NA,NA,NA,NA,NA,NA,NA,NaN,NA,1034.2999999821186,right,1,NA,NA,NA,NA,NA
f3SXGWFA,3bawbgqgzoco8yjjw9p686v3rigv79,3a0ex8zrnc1u1of853t89rhlw1aybr,f3SXGWFA,2020-0188,2021-10-31,03:20:50,04:35:25,NA,incomplete,false,NA,NA,true,3,7,NA,NA,NA,left,n_s_076.jpg,white,gray,NA,NA,NA,NA,NA,NA,NA,NA,NA,NaN,NA,1497.7000000178814,right,0,NA,NA,NA,NA,NA
f3SXGWFA,3bawbgqgzoco8yjjw9p686v3rigv79,3a0ex8zrnc1u1of853t89rhlw1aybr,f3SXGWFA,2020-0188,2021-10-31,03:20:50,04:35:25,NA,incomplete,false,NA,NA,true,3,8,NA,NA,NA,left,n_s_057.jpg,green,gray,NA,NA,NA,NA,NA,NA,NA,NA,NA,NaN,NA,1169,left,1,NA,NA,NA,NA,NA
f3SXGWFA,3bawbgqgzoco8yjjw9p686v3rigv79,3a0ex8zrnc1u1of853t89rhlw1aybr,f3SXGWFA,2020-0188,2021-10-31,03:20:50,04:35:25,NA,incomplete,false,NA,NA,true,3,9,NA,NA,NA,right,m_s_027.jpg,white,gray,NA,NA,NA,NA,NA,NA,NA,NA,NA,NaN,NA,1854.300000011921,right,1,NA,NA,NA,NA,NA
f3SXGWFA,3bawbgqgzoco8yjjw9p686v3rigv79,3a0ex8zrnc1u1of853t89rhlw1aybr,f3SXGWFA,2020-0188,2021-10-31,03:20:50,04:35:25,NA,incomplete,false,NA,NA,true,3,10,NA,NA,NA,left,m_s_041.jpg,yellow,red,NA,NA,NA,NA,NA,NA,NA,NA,NA,NaN,NA,1217.699999988079,left,1,NA,NA,NA,NA,NA
f3SXGWFA,3bawbgqgzoco8yjjw9p686v3rigv79,3a0ex8zrnc1u1of853t89rhlw1aybr,f3SXGWFA,2020-0188,2021-10-31,03:20:50,04:35:25,NA,incomplete,false,NA,NA,true,3,11,NA,NA,NA,right,n_l_047.jpg,gray,white,NA,NA,NA,NA,NA,NA,NA,NA,NA,NaN,NA,1446,right,1,NA,NA,NA,NA,NA
f3SXGWFA,3bawbgqgzoco8yjjw9p686v3rigv79,3a0ex8zrnc1u1of853t89rhlw1aybr,f3SXGWFA,2020-0188,2021-10-31,03:20:50,04:35:25,NA,incomplete,false,NA,NA,true,3,12,NA,NA,NA,left,m_s_067.jpg,green,gray,NA,NA,NA,NA,NA,NA,NA,NA,NA,NaN,NA,1166,left,1,NA,NA,NA,NA,NA
f3SXGWFA,3bawbgqgzoco8yjjw9p686v3rigv79,3a0ex8zrnc1u1of853t89rhlw1aybr,f3SXGWFA,2020-0188,2021-10-31,03:20:50,04:35:25,NA,incomplete,false,NA,NA,true,3,13,NA,NA,NA,left,n_s_117.jpg,gray,white,NA,NA,NA,NA,NA,NA,NA,NA,NA,NaN,NA,1524.3999999761581,left,1,NA,NA,NA,NA,NA
f3SXGWFA,3bawbgqgzoco8yjjw9p686v3rigv79,3a0ex8zrnc1u1of853t89rhlw1aybr,f3SXGWFA,2020-0188,2021-10-31,03:20:50,04:35:25,NA,incomplete,false,NA,NA,true,3,14,NA,NA,NA,left,n_l_067.jpg,white,gray,NA,NA,NA,NA,NA,NA,NA,NA,NA,NaN,NA,1163.4000000059605,left,1,NA,NA,NA,NA,NA
f3SXGWFA,3bawbgqgzoco8yjjw9p686v3rigv79,3a0ex8zrnc1u1of853t89rhlw1aybr,f3SXGWFA,2020-0188,2021-10-31,03:20:50,04:35:25,NA,incomplete,false,NA,NA,true,3,15,NA,NA,NA,right,n_l_077.jpg,red,purple,NA,NA,NA,NA,NA,NA,NA,NA,NA,NaN,NA,2000.7999999821186,left,0,NA,NA,NA,NA,NA
f3SXGWFA,3bawbgqgzoco8yjjw9p686v3rigv79,3a0ex8zrnc1u1of853t89rhlw1aybr,f3SXGWFA,2020-0188,2021-10-31,03:20:50,04:35:25,NA,incomplete,false,NA,NA,true,3,16,NA,NA,NA,left,n_s_105.jpg,purple,red,NA,NA,NA,NA,NA,NA,NA,NA,NA,NaN,NA,1239.9000000059605,left,1,NA,NA,NA,NA,NA
f3SXGWFA,3bawbgqgzoco8yjjw9p686v3rigv79,3a0ex8zrnc1u1of853t89rhlw1aybr,f3SXGWFA,2020-0188,2021-10-31,03:20:50,04:35:25,NA,incomplete,false,NA,NA,true,3,17,NA,NA,NA,right,n_s_054.jpg,green,yellow,NA,NA,NA,NA,NA,NA,NA,NA,NA,NaN,NA,5377.200000017881,left,0,NA,NA,NA,NA,NA
f3SXGWFA,3bawbgqgzoco8yjjw9p686v3rigv79,3a0ex8zrnc1u1of853t89rhlw1aybr,f3SXGWFA,2020-0188,2021-10-31,03:20:50,04:35:25,NA,incomplete,false,NA,NA,true,3,18,NA,NA,NA,left,m_s_008.jpg,red,purple,NA,NA,NA,NA,NA,NA,NA,NA,NA,NaN,NA,1245,left,1,NA,NA,NA,NA,NA
f3SXGWFA,3bawbgqgzoco8yjjw9p686v3rigv79,3a0ex8zrnc1u1of853t89rhlw1aybr,f3SXGWFA,2020-0188,2021-10-31,03:20:50,04:35:25,NA,incomplete,false,NA,NA,true,3,19,NA,NA,NA,left,n_s_022.jpg,purple,red,NA,NA,NA,NA,NA,NA,NA,NA,NA,NaN,NA,1236.5999999940395,left,1,NA,NA,NA,NA,NA
f3SXGWFA,3bawbgqgzoco8yjjw9p686v3rigv79,3a0ex8zrnc1u1of853t89rhlw1aybr,f3SXGWFA,2020-0188,2021-10-31,03:20:50,04:35:25,NA,incomplete,false,NA,NA,true,3,20,NA,NA,NA,left,n_s_040.jpg,red,purple,NA,NA,NA,NA,NA,NA,NA,NA,NA,NaN,NA,1649.0999999940395,right,0,NA,NA,NA,NA,NA
f3SXGWFA,3bawbgqgzoco8yjjw9p686v3rigv79,3a0ex8zrnc1u1of853t89rhlw1aybr,f3SXGWFA,2020-0188,2021-10-31,03:20:50,04:35:25,NA,incomplete,false,NA,NA,true,3,21,NA,NA,NA,left,m_l_094.jpg,gray,white,NA,NA,NA,NA,NA,NA,NA,NA,NA,NaN,NA,1697.300000011921,left,1,NA,NA,NA,NA,NA
f3SXGWFA,3bawbgqgzoco8yjjw9p686v3rigv79,3a0ex8zrnc1u1of853t89rhlw1aybr,f3SXGWFA,2020-0188,2021-10-31,03:20:50,04:35:25,NA,incomplete,false,NA,true,NA,3,0,NA,NA,NA,right,NA,NA,NA,present,NA,NA,n_s_117.jpg,gray,m_s_013.jpg,gray,within,NA,NaN,NA,NA,NA,NA,right,3884.7999999821186,1,0,2543.300000011921
f3SXGWFA,3bawbgqgzoco8yjjw9p686v3rigv79,3a0ex8zrnc1u1of853t89rhlw1aybr,f3SXGWFA,2020-0188,2021-10-31,03:20:50,04:35:25,NA,incomplete,false,NA,true,NA,3,1,NA,NA,NA,left,NA,NA,NA,present,NA,NA,n_s_022.jpg,purple,m_l_067.jpg,red,between,NA,NaN,NA,NA,NA,NA,left,2995.5,1,2,2054.4000000059605
f3SXGWFA,3bawbgqgzoco8yjjw9p686v3rigv79,3a0ex8zrnc1u1of853t89rhlw1aybr,f3SXGWFA,2020-0188,2021-10-31,03:20:50,04:35:25,NA,incomplete,false,NA,true,NA,3,2,NA,NA,NA,left,NA,NA,NA,present,NA,NA,n_s_076.jpg,white,n_l_067.jpg,white,within,NA,NaN,NA,NA,NA,NA,left,2323.600000023842,1,0,708
f3SXGWFA,3bawbgqgzoco8yjjw9p686v3rigv79,3a0ex8zrnc1u1of853t89rhlw1aybr,f3SXGWFA,2020-0188,2021-10-31,03:20:50,04:35:25,NA,incomplete,false,NA,true,NA,3,3,NA,NA,NA,right,NA,NA,NA,present,NA,NA,m_s_041.jpg,yellow,m_l_047.jpg,yellow,within,NA,NaN,NA,NA,NA,NA,right,3121.0999999940395,1,1,732
f3SXGWFA,3bawbgqgzoco8yjjw9p686v3rigv79,3a0ex8zrnc1u1of853t89rhlw1aybr,f3SXGWFA,2020-0188,2021-10-31,03:20:50,04:35:25,NA,incomplete,false,NA,true,NA,3,4,NA,NA,NA,left,NA,NA,NA,present,NA,NA,m_l_094.jpg,gray,n_l_047.jpg,white,between,NA,NaN,NA,NA,NA,NA,left,3615.7999999821186,1,2,1467.7999999821186
f3SXGWFA,3bawbgqgzoco8yjjw9p686v3rigv79,3a0ex8zrnc1u1of853t89rhlw1aybr,f3SXGWFA,2020-0188,2021-10-31,03:20:50,04:35:25,NA,incomplete,false,NA,true,NA,3,5,NA,NA,NA,left,NA,NA,NA,present,NA,NA,n_l_077.jpg,purple,n_s_105.jpg,purple,within,NA,NaN,NA,NA,NA,NA,right,3142.7000000178814,0,1,1113.5
f3SXGWFA,3bawbgqgzoco8yjjw9p686v3rigv79,3a0ex8zrnc1u1of853t89rhlw1aybr,f3SXGWFA,2020-0188,2021-10-31,03:20:50,04:35:25,NA,incomplete,false,NA,true,NA,3,6,NA,NA,NA,right,NA,NA,NA,present,NA,NA,m_s_027.jpg,gray,m_l_089.jpg,green,between,NA,NaN,NA,NA,NA,NA,right,2898.0999999940395,1,2,1092.5
f3SXGWFA,3bawbgqgzoco8yjjw9p686v3rigv79,3a0ex8zrnc1u1of853t89rhlw1aybr,f3SXGWFA,2020-0188,2021-10-31,03:20:50,04:35:25,NA,incomplete,false,NA,true,NA,3,7,NA,NA,NA,left,NA,NA,NA,present,NA,NA,n_l_001.jpg,red,n_l_019.jpg,yellow,between,NA,NaN,NA,NA,NA,NA,left,2458.899999976158,1,3,883.1999999880791
f3SXGWFA,3bawbgqgzoco8yjjw9p686v3rigv79,3a0ex8zrnc1u1of853t89rhlw1aybr,f3SXGWFA,2020-0188,2021-10-31,03:20:50,04:35:25,NA,incomplete,false,NA,true,NA,3,8,NA,NA,NA,left,NA,NA,NA,present,NA,NA,n_s_040.jpg,red,m_s_008.jpg,red,within,NA,NaN,NA,NA,NA,NA,left,4446.199999988079,1,0,1792.5
f3SXGWFA,3bawbgqgzoco8yjjw9p686v3rigv79,3a0ex8zrnc1u1of853t89rhlw1aybr,f3SXGWFA,2020-0188,2021-10-31,03:20:50,04:35:25,NA,incomplete,false,NA,true,NA,3,9,NA,NA,NA,left,NA,NA,NA,present,NA,NA,m_s_029.jpg,green,m_s_067.jpg,green,within,NA,NaN,NA,NA,NA,NA,left,2968.7000000178814,1,1,633.8999999761581
f3SXGWFA,3bawbgqgzoco8yjjw9p686v3rigv79,3a0ex8zrnc1u1of853t89rhlw1aybr,f3SXGWFA,2020-0188,2021-10-31,03:20:50,04:35:25,NA,incomplete,false,NA,true,NA,3,10,NA,NA,NA,right,NA,NA,NA,present,NA,NA,n_s_057.jpg,green,n_s_054.jpg,yellow,between,NA,NaN,NA,NA,NA,NA,left,3764.699999988079,0,2,759.5999999940395
f3SXGWFA,3bawbgqgzoco8yjjw9p686v3rigv79,3a0ex8zrnc1u1of853t89rhlw1aybr,f3SXGWFA,2020-0188,2021-10-31,03:20:50,04:35:25,NA,incomplete,false,true,NA,NA,4,0,NA,red,n_s_080.jpg,NA,NA,NA,NA,NA,unpleasant,pleasant,NA,NA,NA,NA,NA,left,1600.20000001788,true,NA,NA,NA,NA,NA,NA,NA,NA
f3SXGWFA,3bawbgqgzoco8yjjw9p686v3rigv79,3a0ex8zrnc1u1of853t89rhlw1aybr,f3SXGWFA,2020-0188,2021-10-31,03:20:50,04:35:25,NA,incomplete,false,true,NA,NA,4,1,NA,red,n_l_062.jpg,NA,NA,NA,NA,NA,pleasant,unpleasant,NA,NA,NA,NA,NA,left,1695,true,NA,NA,NA,NA,NA,NA,NA,NA
f3SXGWFA,3bawbgqgzoco8yjjw9p686v3rigv79,3a0ex8zrnc1u1of853t89rhlw1aybr,f3SXGWFA,2020-0188,2021-10-31,03:20:50,04:35:25,NA,incomplete,false,true,NA,NA,4,2,NA,red,n_l_116.jpg,NA,NA,NA,NA,NA,unpleasant,pleasant,NA,NA,NA,NA,NA,right,1390.80000001192,true,NA,NA,NA,NA,NA,NA,NA,NA
f3SXGWFA,3bawbgqgzoco8yjjw9p686v3rigv79,3a0ex8zrnc1u1of853t89rhlw1aybr,f3SXGWFA,2020-0188,2021-10-31,03:20:50,04:35:25,NA,incomplete,false,true,NA,NA,4,3,NA,red,n_l_102.jpg,NA,NA,NA,NA,NA,pleasant,unpleasant,NA,NA,NA,NA,NA,right,1504.5,true,NA,NA,NA,NA,NA,NA,NA,NA
f3SXGWFA,3bawbgqgzoco8yjjw9p686v3rigv79,3a0ex8zrnc1u1of853t89rhlw1aybr,f3SXGWFA,2020-0188,2021-10-31,03:20:50,04:35:25,NA,incomplete,false,true,NA,NA,4,4,NA,red,n_l_055.jpg,NA,NA,NA,NA,NA,unpleasant,pleasant,NA,NA,NA,NA,NA,right,1789.5,true,NA,NA,NA,NA,NA,NA,NA,NA
f3SXGWFA,3bawbgqgzoco8yjjw9p686v3rigv79,3a0ex8zrnc1u1of853t89rhlw1aybr,f3SXGWFA,2020-0188,2021-10-31,03:20:50,04:35:25,NA,incomplete,false,true,NA,NA,4,5,NA,red,n_l_091.jpg,NA,NA,NA,NA,NA,pleasant,unpleasant,NA,NA,NA,NA,NA,right,1137.09999999404,true,NA,NA,NA,NA,NA,NA,NA,NA
f3SXGWFA,3bawbgqgzoco8yjjw9p686v3rigv79,3a0ex8zrnc1u1of853t89rhlw1aybr,f3SXGWFA,2020-0188,2021-10-31,03:20:50,04:35:25,NA,incomplete,false,true,NA,NA,4,6,NA,gray,n_l_023.jpg,NA,NA,NA,NA,NA,pleasant,unpleasant,NA,NA,NA,NA,NA,right,1914.5,true,NA,NA,NA,NA,NA,NA,NA,NA
f3SXGWFA,3bawbgqgzoco8yjjw9p686v3rigv79,3a0ex8zrnc1u1of853t89rhlw1aybr,f3SXGWFA,2020-0188,2021-10-31,03:20:50,04:35:25,NA,incomplete,false,true,NA,NA,4,7,NA,gray,n_s_115.jpg,NA,NA,NA,NA,NA,pleasant,unpleasant,NA,NA,NA,NA,NA,right,1908.09999999404,true,NA,NA,NA,NA,NA,NA,NA,NA
f3SXGWFA,3bawbgqgzoco8yjjw9p686v3rigv79,3a0ex8zrnc1u1of853t89rhlw1aybr,f3SXGWFA,2020-0188,2021-10-31,03:20:50,04:35:25,NA,incomplete,false,true,NA,NA,4,8,NA,gray,n_s_064.jpg,NA,NA,NA,NA,NA,pleasant,unpleasant,NA,NA,NA,NA,NA,right,1126.40000000596,true,NA,NA,NA,NA,NA,NA,NA,NA
f3SXGWFA,3bawbgqgzoco8yjjw9p686v3rigv79,3a0ex8zrnc1u1of853t89rhlw1aybr,f3SXGWFA,2020-0188,2021-10-31,03:20:50,04:35:25,NA,incomplete,false,true,NA,NA,4,9,NA,gray,m_l_110.jpg,NA,NA,NA,NA,NA,unpleasant,pleasant,NA,NA,NA,NA,NA,left,1656.5,true,NA,NA,NA,NA,NA,NA,NA,NA
f3SXGWFA,3bawbgqgzoco8yjjw9p686v3rigv79,3a0ex8zrnc1u1of853t89rhlw1aybr,f3SXGWFA,2020-0188,2021-10-31,03:20:50,04:35:25,NA,incomplete,false,true,NA,NA,4,10,NA,gray,n_l_060.jpg,NA,NA,NA,NA,NA,pleasant,unpleasant,NA,NA,NA,NA,NA,right,1031,true,NA,NA,NA,NA,NA,NA,NA,NA
f3SXGWFA,3bawbgqgzoco8yjjw9p686v3rigv79,3a0ex8zrnc1u1of853t89rhlw1aybr,f3SXGWFA,2020-0188,2021-10-31,03:20:50,04:35:25,NA,incomplete,false,true,NA,NA,4,11,NA,gray,n_l_031.jpg,NA,NA,NA,NA,NA,unpleasant,pleasant,NA,NA,NA,NA,NA,right,1182.59999999404,true,NA,NA,NA,NA,NA,NA,NA,NA
f3SXGWFA,3bawbgqgzoco8yjjw9p686v3rigv79,3a0ex8zrnc1u1of853t89rhlw1aybr,f3SXGWFA,2020-0188,2021-10-31,03:20:50,04:35:25,NA,incomplete,false,true,NA,NA,4,12,NA,black,n_l_024.jpg,NA,NA,NA,NA,NA,unpleasant,pleasant,NA,NA,NA,NA,NA,right,1869.5,true,NA,NA,NA,NA,NA,NA,NA,NA
f3SXGWFA,3bawbgqgzoco8yjjw9p686v3rigv79,3a0ex8zrnc1u1of853t89rhlw1aybr,f3SXGWFA,2020-0188,2021-10-31,03:20:50,04:35:25,NA,incomplete,false,true,NA,NA,4,13,NA,black,n_l_063.jpg,NA,NA,NA,NA,NA,unpleasant,pleasant,NA,NA,NA,NA,NA,right,1301.80000001192,true,NA,NA,NA,NA,NA,NA,NA,NA
f3SXGWFA,3bawbgqgzoco8yjjw9p686v3rigv79,3a0ex8zrnc1u1of853t89rhlw1aybr,f3SXGWFA,2020-0188,2021-10-31,03:20:50,04:35:25,NA,incomplete,false,true,NA,NA,4,14,NA,black,n_l_028.jpg,NA,NA,NA,NA,NA,pleasant,unpleasant,NA,NA,NA,NA,NA,right,1538.40000000596,true,NA,NA,NA,NA,NA,NA,NA,NA
f3SXGWFA,3bawbgqgzoco8yjjw9p686v3rigv79,3a0ex8zrnc1u1of853t89rhlw1aybr,f3SXGWFA,2020-0188,2021-10-31,03:20:50,04:35:25,NA,incomplete,false,true,NA,NA,4,15,NA,black,n_s_005.jpg,NA,NA,NA,NA,NA,pleasant,unpleasant,NA,NA,NA,NA,NA,right,2412.59999999404,true,NA,NA,NA,NA,NA,NA,NA,NA
f3SXGWFA,3bawbgqgzoco8yjjw9p686v3rigv79,3a0ex8zrnc1u1of853t89rhlw1aybr,f3SXGWFA,2020-0188,2021-10-31,03:20:50,04:35:25,NA,incomplete,false,true,NA,NA,4,16,NA,black,n_l_036.jpg,NA,NA,NA,NA,NA,pleasant,unpleasant,NA,NA,NA,NA,NA,right,1155.10000002384,true,NA,NA,NA,NA,NA,NA,NA,NA
f3SXGWFA,3bawbgqgzoco8yjjw9p686v3rigv79,3a0ex8zrnc1u1of853t89rhlw1aybr,f3SXGWFA,2020-0188,2021-10-31,03:20:50,04:35:25,NA,incomplete,false,true,NA,NA,4,17,NA,black,m_l_065.jpg,NA,NA,NA,NA,NA,pleasant,unpleasant,NA,NA,NA,NA,NA,left,1141.20000001788,true,NA,NA,NA,NA,NA,NA,NA,NA
f3SXGWFA,3bawbgqgzoco8yjjw9p686v3rigv79,3a0ex8zrnc1u1of853t89rhlw1aybr,f3SXGWFA,2020-0188,2021-10-31,03:20:50,04:35:25,NA,incomplete,false,true,NA,NA,4,18,NA,green,n_s_061.jpg,NA,NA,NA,NA,NA,pleasant,unpleasant,NA,NA,NA,NA,NA,right,2092.40000000596,true,NA,NA,NA,NA,NA,NA,NA,NA
f3SXGWFA,3bawbgqgzoco8yjjw9p686v3rigv79,3a0ex8zrnc1u1of853t89rhlw1aybr,f3SXGWFA,2020-0188,2021-10-31,03:20:50,04:35:25,NA,incomplete,false,true,NA,NA,4,19,NA,green,m_s_033.jpg,NA,NA,NA,NA,NA,unpleasant,pleasant,NA,NA,NA,NA,NA,left,1287.09999999404,true,NA,NA,NA,NA,NA,NA,NA,NA
f3SXGWFA,3bawbgqgzoco8yjjw9p686v3rigv79,3a0ex8zrnc1u1of853t89rhlw1aybr,f3SXGWFA,2020-0188,2021-10-31,03:20:50,04:35:25,NA,incomplete,false,true,NA,NA,4,20,NA,green,m_s_100.jpg,NA,NA,NA,NA,NA,unpleasant,pleasant,NA,NA,NA,NA,NA,right,1084.59999999404,true,NA,NA,NA,NA,NA,NA,NA,NA
f3SXGWFA,3bawbgqgzoco8yjjw9p686v3rigv79,3a0ex8zrnc1u1of853t89rhlw1aybr,f3SXGWFA,2020-0188,2021-10-31,03:20:50,04:35:25,NA,incomplete,false,true,NA,NA,4,21,NA,green,m_l_097.jpg,NA,NA,NA,NA,NA,unpleasant,pleasant,NA,NA,NA,NA,NA,right,1220.80000001192,true,NA,NA,NA,NA,NA,NA,NA,NA
f3SXGWFA,3bawbgqgzoco8yjjw9p686v3rigv79,3a0ex8zrnc1u1of853t89rhlw1aybr,f3SXGWFA,2020-0188,2021-10-31,03:20:50,04:35:25,NA,incomplete,false,true,NA,NA,4,22,NA,green,n_l_114.jpg,NA,NA,NA,NA,NA,unpleasant,pleasant,NA,NA,NA,NA,NA,right,1324.5,true,NA,NA,NA,NA,NA,NA,NA,NA
f3SXGWFA,3bawbgqgzoco8yjjw9p686v3rigv79,3a0ex8zrnc1u1of853t89rhlw1aybr,f3SXGWFA,2020-0188,2021-10-31,03:20:50,04:35:25,NA,incomplete,false,true,NA,NA,4,23,NA,green,n_l_099.jpg,NA,NA,NA,NA,NA,pleasant,unpleasant,NA,NA,NA,NA,NA,right,1579.70000001788,true,NA,NA,NA,NA,NA,NA,NA,NA
f3SXGWFA,3bawbgqgzoco8yjjw9p686v3rigv79,3a0ex8zrnc1u1of853t89rhlw1aybr,f3SXGWFA,2020-0188,2021-10-31,03:20:50,04:35:25,NA,incomplete,false,true,NA,NA,4,24,NA,brown,m_l_033.jpg,NA,NA,NA,NA,NA,pleasant,unpleasant,NA,NA,NA,NA,NA,left,1459.5,true,NA,NA,NA,NA,NA,NA,NA,NA
f3SXGWFA,3bawbgqgzoco8yjjw9p686v3rigv79,3a0ex8zrnc1u1of853t89rhlw1aybr,f3SXGWFA,2020-0188,2021-10-31,03:20:50,04:35:25,NA,incomplete,false,true,NA,NA,4,25,NA,brown,m_l_056.jpg,NA,NA,NA,NA,NA,pleasant,unpleasant,NA,NA,NA,NA,NA,left,1316.39999997616,true,NA,NA,NA,NA,NA,NA,NA,NA
f3SXGWFA,3bawbgqgzoco8yjjw9p686v3rigv79,3a0ex8zrnc1u1of853t89rhlw1aybr,f3SXGWFA,2020-0188,2021-10-31,03:20:50,04:35:25,NA,incomplete,false,true,NA,NA,4,26,NA,brown,n_s_067.jpg,NA,NA,NA,NA,NA,pleasant,unpleasant,NA,NA,NA,NA,NA,right,1579.90000000596,true,NA,NA,NA,NA,NA,NA,NA,NA
f3SXGWFA,3bawbgqgzoco8yjjw9p686v3rigv79,3a0ex8zrnc1u1of853t89rhlw1aybr,f3SXGWFA,2020-0188,2021-10-31,03:20:50,04:35:25,NA,incomplete,false,true,NA,NA,4,27,NA,brown,n_s_070.jpg,NA,NA,NA,NA,NA,unpleasant,pleasant,NA,NA,NA,NA,NA,left,1727.19999998808,true,NA,NA,NA,NA,NA,NA,NA,NA
f3SXGWFA,3bawbgqgzoco8yjjw9p686v3rigv79,3a0ex8zrnc1u1of853t89rhlw1aybr,f3SXGWFA,2020-0188,2021-10-31,03:20:50,04:35:25,NA,incomplete,false,true,NA,NA,4,28,NA,brown,n_s_014.jpg,NA,NA,NA,NA,NA,pleasant,unpleasant,NA,NA,NA,NA,NA,left,884.40000000596,true,NA,NA,NA,NA,NA,NA,NA,NA
f3SXGWFA,3bawbgqgzoco8yjjw9p686v3rigv79,3a0ex8zrnc1u1of853t89rhlw1aybr,f3SXGWFA,2020-0188,2021-10-31,03:20:50,04:35:25,NA,incomplete,false,true,NA,NA,4,29,NA,brown,n_s_039.jpg,NA,NA,NA,NA,NA,unpleasant,pleasant,NA,NA,NA,NA,NA,right,2247.59999999404,true,NA,NA,NA,NA,NA,NA,NA,NA
f3SXGWFA,3bawbgqgzoco8yjjw9p686v3rigv79,3a0ex8zrnc1u1of853t89rhlw1aybr,f3SXGWFA,2020-0188,2021-10-31,03:20:50,04:35:25,NA,incomplete,false,true,NA,NA,4,30,NA,yellow,n_l_049.jpg,NA,NA,NA,NA,NA,unpleasant,pleasant,NA,NA,NA,NA,NA,left,2132.59999999404,true,NA,NA,NA,NA,NA,NA,NA,NA
f3SXGWFA,3bawbgqgzoco8yjjw9p686v3rigv79,3a0ex8zrnc1u1of853t89rhlw1aybr,f3SXGWFA,2020-0188,2021-10-31,03:20:50,04:35:25,NA,incomplete,false,true,NA,NA,4,31,NA,yellow,m_s_022.jpg,NA,NA,NA,NA,NA,unpleasant,pleasant,NA,NA,NA,NA,NA,left,1032.09999999404,true,NA,NA,NA,NA,NA,NA,NA,NA
f3SXGWFA,3bawbgqgzoco8yjjw9p686v3rigv79,3a0ex8zrnc1u1of853t89rhlw1aybr,f3SXGWFA,2020-0188,2021-10-31,03:20:50,04:35:25,NA,incomplete,false,true,NA,NA,4,32,NA,yellow,m_s_040.jpg,NA,NA,NA,NA,NA,unpleasant,pleasant,NA,NA,NA,NA,NA,left,961.40000000596,true,NA,NA,NA,NA,NA,NA,NA,NA
f3SXGWFA,3bawbgqgzoco8yjjw9p686v3rigv79,3a0ex8zrnc1u1of853t89rhlw1aybr,f3SXGWFA,2020-0188,2021-10-31,03:20:50,04:35:25,NA,incomplete,false,true,NA,NA,4,33,NA,yellow,n_s_085.jpg,NA,NA,NA,NA,NA,unpleasant,pleasant,NA,NA,NA,NA,NA,left,963.300000011921,true,NA,NA,NA,NA,NA,NA,NA,NA
f3SXGWFA,3bawbgqgzoco8yjjw9p686v3rigv79,3a0ex8zrnc1u1of853t89rhlw1aybr,f3SXGWFA,2020-0188,2021-10-31,03:20:50,04:35:25,NA,incomplete,false,true,NA,NA,4,34,NA,yellow,m_l_019.jpg,NA,NA,NA,NA,NA,pleasant,unpleasant,NA,NA,NA,NA,NA,right,2157.79999998212,true,NA,NA,NA,NA,NA,NA,NA,NA
f3SXGWFA,3bawbgqgzoco8yjjw9p686v3rigv79,3a0ex8zrnc1u1of853t89rhlw1aybr,f3SXGWFA,2020-0188,2021-10-31,03:20:50,04:35:25,NA,incomplete,false,true,NA,NA,4,35,NA,yellow,m_s_023.jpg,NA,NA,NA,NA,NA,unpleasant,pleasant,NA,NA,NA,NA,NA,right,1043.59999999404,true,NA,NA,NA,NA,NA,NA,NA,NA
f3SXGWFA,3bawbgqgzoco8yjjw9p686v3rigv79,3a0ex8zrnc1u1of853t89rhlw1aybr,f3SXGWFA,2020-0188,2021-10-31,03:20:50,04:35:25,NA,incomplete,false,NA,NA,true,4,0,NA,NA,NA,left,n_l_099.jpg,green,brown,NA,NA,NA,NA,NA,NA,NA,NA,NA,NaN,NA,4011.699999988079,right,0,NA,NA,NA,NA,NA
f3SXGWFA,3bawbgqgzoco8yjjw9p686v3rigv79,3a0ex8zrnc1u1of853t89rhlw1aybr,f3SXGWFA,2020-0188,2021-10-31,03:20:50,04:35:25,NA,incomplete,false,NA,NA,true,4,1,NA,NA,NA,right,n_l_028.jpg,gray,black,NA,NA,NA,NA,NA,NA,NA,NA,NA,NaN,NA,2264.5,right,1,NA,NA,NA,NA,NA
f3SXGWFA,3bawbgqgzoco8yjjw9p686v3rigv79,3a0ex8zrnc1u1of853t89rhlw1aybr,f3SXGWFA,2020-0188,2021-10-31,03:20:50,04:35:25,NA,incomplete,false,NA,NA,true,4,2,NA,NA,NA,left,m_s_023.jpg,yellow,brown,NA,NA,NA,NA,NA,NA,NA,NA,NA,NaN,NA,1297.6000000238419,left,1,NA,NA,NA,NA,NA
f3SXGWFA,3bawbgqgzoco8yjjw9p686v3rigv79,3a0ex8zrnc1u1of853t89rhlw1aybr,f3SXGWFA,2020-0188,2021-10-31,03:20:50,04:35:25,NA,incomplete,false,NA,NA,true,4,3,NA,NA,NA,left,n_l_060.jpg,gray,red,NA,NA,NA,NA,NA,NA,NA,NA,NA,NaN,NA,1315.3999999761581,left,1,NA,NA,NA,NA,NA
f3SXGWFA,3bawbgqgzoco8yjjw9p686v3rigv79,3a0ex8zrnc1u1of853t89rhlw1aybr,f3SXGWFA,2020-0188,2021-10-31,03:20:50,04:35:25,NA,incomplete,false,NA,NA,true,4,4,NA,NA,NA,right,n_l_063.jpg,green,black,NA,NA,NA,NA,NA,NA,NA,NA,NA,NaN,NA,1342,right,1,NA,NA,NA,NA,NA
f3SXGWFA,3bawbgqgzoco8yjjw9p686v3rigv79,3a0ex8zrnc1u1of853t89rhlw1aybr,f3SXGWFA,2020-0188,2021-10-31,03:20:50,04:35:25,NA,incomplete,false,NA,NA,true,4,5,NA,NA,NA,right,n_l_055.jpg,gray,red,NA,NA,NA,NA,NA,NA,NA,NA,NA,NaN,NA,2030.7000000178814,right,1,NA,NA,NA,NA,NA
f3SXGWFA,3bawbgqgzoco8yjjw9p686v3rigv79,3a0ex8zrnc1u1of853t89rhlw1aybr,f3SXGWFA,2020-0188,2021-10-31,03:20:50,04:35:25,NA,incomplete,false,NA,NA,true,4,6,NA,NA,NA,left,n_l_031.jpg,gray,red,NA,NA,NA,NA,NA,NA,NA,NA,NA,NaN,NA,2079.5,left,1,NA,NA,NA,NA,NA
f3SXGWFA,3bawbgqgzoco8yjjw9p686v3rigv79,3a0ex8zrnc1u1of853t89rhlw1aybr,f3SXGWFA,2020-0188,2021-10-31,03:20:50,04:35:25,NA,incomplete,false,NA,NA,true,4,7,NA,NA,NA,right,m_l_065.jpg,green,black,NA,NA,NA,NA,NA,NA,NA,NA,NA,NaN,NA,2270.699999988079,right,1,NA,NA,NA,NA,NA
f3SXGWFA,3bawbgqgzoco8yjjw9p686v3rigv79,3a0ex8zrnc1u1of853t89rhlw1aybr,f3SXGWFA,2020-0188,2021-10-31,03:20:50,04:35:25,NA,incomplete,false,NA,NA,true,4,8,NA,NA,NA,left,m_s_100.jpg,green,black,NA,NA,NA,NA,NA,NA,NA,NA,NA,NaN,NA,1194,left,1,NA,NA,NA,NA,NA
f3SXGWFA,3bawbgqgzoco8yjjw9p686v3rigv79,3a0ex8zrnc1u1of853t89rhlw1aybr,f3SXGWFA,2020-0188,2021-10-31,03:20:50,04:35:25,NA,incomplete,false,NA,NA,true,4,9,NA,NA,NA,right,m_l_056.jpg,green,brown,NA,NA,NA,NA,NA,NA,NA,NA,NA,NaN,NA,2162,right,1,NA,NA,NA,NA,NA
f3SXGWFA,3bawbgqgzoco8yjjw9p686v3rigv79,3a0ex8zrnc1u1of853t89rhlw1aybr,f3SXGWFA,2020-0188,2021-10-31,03:20:50,04:35:25,NA,incomplete,false,NA,NA,true,4,10,NA,NA,NA,left,n_l_091.jpg,red,gray,NA,NA,NA,NA,NA,NA,NA,NA,NA,NaN,NA,2367,right,0,NA,NA,NA,NA,NA
f3SXGWFA,3bawbgqgzoco8yjjw9p686v3rigv79,3a0ex8zrnc1u1of853t89rhlw1aybr,f3SXGWFA,2020-0188,2021-10-31,03:20:50,04:35:25,NA,incomplete,false,NA,NA,true,4,11,NA,NA,NA,right,n_s_039.jpg,green,brown,NA,NA,NA,NA,NA,NA,NA,NA,NA,NaN,NA,1805.4000000059605,right,1,NA,NA,NA,NA,NA
f3SXGWFA,3bawbgqgzoco8yjjw9p686v3rigv79,3a0ex8zrnc1u1of853t89rhlw1aybr,f3SXGWFA,2020-0188,2021-10-31,03:20:50,04:35:25,NA,incomplete,false,NA,NA,true,4,12,NA,NA,NA,right,m_s_040.jpg,brown,yellow,NA,NA,NA,NA,NA,NA,NA,NA,NA,NaN,NA,1272.199999988079,right,1,NA,NA,NA,NA,NA
f3SXGWFA,3bawbgqgzoco8yjjw9p686v3rigv79,3a0ex8zrnc1u1of853t89rhlw1aybr,f3SXGWFA,2020-0188,2021-10-31,03:20:50,04:35:25,NA,incomplete,false,NA,NA,true,4,13,NA,NA,NA,left,n_s_064.jpg,gray,black,NA,NA,NA,NA,NA,NA,NA,NA,NA,NaN,NA,1950.9000000059605,left,1,NA,NA,NA,NA,NA
f3SXGWFA,3bawbgqgzoco8yjjw9p686v3rigv79,3a0ex8zrnc1u1of853t89rhlw1aybr,f3SXGWFA,2020-0188,2021-10-31,03:20:50,04:35:25,NA,incomplete,false,NA,NA,true,4,14,NA,NA,NA,right,n_l_062.jpg,gray,red,NA,NA,NA,NA,NA,NA,NA,NA,NA,NaN,NA,2637.2999999821186,left,0,NA,NA,NA,NA,NA
f3SXGWFA,3bawbgqgzoco8yjjw9p686v3rigv79,3a0ex8zrnc1u1of853t89rhlw1aybr,f3SXGWFA,2020-0188,2021-10-31,03:20:50,04:35:25,NA,incomplete,false,NA,NA,true,4,15,NA,NA,NA,left,m_s_022.jpg,yellow,brown,NA,NA,NA,NA,NA,NA,NA,NA,NA,NaN,NA,1290.4000000059605,left,1,NA,NA,NA,NA,NA
f3SXGWFA,3bawbgqgzoco8yjjw9p686v3rigv79,3a0ex8zrnc1u1of853t89rhlw1aybr,f3SXGWFA,2020-0188,2021-10-31,03:20:50,04:35:25,NA,incomplete,false,NA,NA,true,4,16,NA,NA,NA,right,m_s_033.jpg,black,green,NA,NA,NA,NA,NA,NA,NA,NA,NA,NaN,NA,1164,right,1,NA,NA,NA,NA,NA
f3SXGWFA,3bawbgqgzoco8yjjw9p686v3rigv79,3a0ex8zrnc1u1of853t89rhlw1aybr,f3SXGWFA,2020-0188,2021-10-31,03:20:50,04:35:25,NA,incomplete,false,NA,NA,true,4,17,NA,NA,NA,left,n_l_036.jpg,black,green,NA,NA,NA,NA,NA,NA,NA,NA,NA,NaN,NA,3044,left,1,NA,NA,NA,NA,NA
f3SXGWFA,3bawbgqgzoco8yjjw9p686v3rigv79,3a0ex8zrnc1u1of853t89rhlw1aybr,f3SXGWFA,2020-0188,2021-10-31,03:20:50,04:35:25,NA,incomplete,false,NA,NA,true,4,18,NA,NA,NA,right,n_s_067.jpg,green,brown,NA,NA,NA,NA,NA,NA,NA,NA,NA,NaN,NA,1063.9000000059605,right,1,NA,NA,NA,NA,NA
f3SXGWFA,3bawbgqgzoco8yjjw9p686v3rigv79,3a0ex8zrnc1u1of853t89rhlw1aybr,f3SXGWFA,2020-0188,2021-10-31,03:20:50,04:35:25,NA,incomplete,false,NA,NA,true,4,19,NA,NA,NA,right,n_l_114.jpg,brown,green,NA,NA,NA,NA,NA,NA,NA,NA,NA,NaN,NA,1419.699999988079,left,0,NA,NA,NA,NA,NA
f3SXGWFA,3bawbgqgzoco8yjjw9p686v3rigv79,3a0ex8zrnc1u1of853t89rhlw1aybr,f3SXGWFA,2020-0188,2021-10-31,03:20:50,04:35:25,NA,incomplete,false,NA,NA,true,4,20,NA,NA,NA,right,n_s_014.jpg,yellow,brown,NA,NA,NA,NA,NA,NA,NA,NA,NA,NaN,NA,2356.100000023842,right,1,NA,NA,NA,NA,NA
f3SXGWFA,3bawbgqgzoco8yjjw9p686v3rigv79,3a0ex8zrnc1u1of853t89rhlw1aybr,f3SXGWFA,2020-0188,2021-10-31,03:20:50,04:35:25,NA,incomplete,false,NA,NA,true,4,21,NA,NA,NA,left,n_s_115.jpg,gray,black,NA,NA,NA,NA,NA,NA,NA,NA,NA,NaN,NA,1521.2999999821186,left,1,NA,NA,NA,NA,NA
f3SXGWFA,3bawbgqgzoco8yjjw9p686v3rigv79,3a0ex8zrnc1u1of853t89rhlw1aybr,f3SXGWFA,2020-0188,2021-10-31,03:20:50,04:35:25,NA,incomplete,false,NA,true,NA,4,0,NA,NA,NA,left,NA,NA,NA,present,NA,NA,m_l_056.jpg,brown,n_s_039.jpg,brown,within,NA,NaN,NA,NA,NA,NA,right,3671.7999999821186,0,1,2125.800000011921
f3SXGWFA,3bawbgqgzoco8yjjw9p686v3rigv79,3a0ex8zrnc1u1of853t89rhlw1aybr,f3SXGWFA,2020-0188,2021-10-31,03:20:50,04:35:25,NA,incomplete,false,NA,true,NA,4,1,NA,NA,NA,left,NA,NA,NA,present,NA,NA,n_l_114.jpg,green,n_s_067.jpg,brown,between,NA,NaN,NA,NA,NA,NA,right,3684.4000000059605,0,3,2128.9000000059605
f3SXGWFA,3bawbgqgzoco8yjjw9p686v3rigv79,3a0ex8zrnc1u1of853t89rhlw1aybr,f3SXGWFA,2020-0188,2021-10-31,03:20:50,04:35:25,NA,incomplete,false,NA,true,NA,4,2,NA,NA,NA,right,NA,NA,NA,present,NA,NA,n_l_031.jpg,gray,n_s_115.jpg,gray,within,NA,NaN,NA,NA,NA,NA,right,3622.5,1,0,2202.0999999940395
f3SXGWFA,3bawbgqgzoco8yjjw9p686v3rigv79,3a0ex8zrnc1u1of853t89rhlw1aybr,f3SXGWFA,2020-0188,2021-10-31,03:20:50,04:35:25,NA,incomplete,false,NA,true,NA,4,3,NA,NA,NA,left,NA,NA,NA,present,NA,NA,m_s_022.jpg,yellow,m_s_023.jpg,yellow,within,NA,NaN,NA,NA,NA,NA,right,4520.199999988079,0,1,1770.0999999940395
f3SXGWFA,3bawbgqgzoco8yjjw9p686v3rigv79,3a0ex8zrnc1u1of853t89rhlw1aybr,f3SXGWFA,2020-0188,2021-10-31,03:20:50,04:35:25,NA,incomplete,false,NA,true,NA,4,4,NA,NA,NA,left,NA,NA,NA,present,NA,NA,n_l_062.jpg,red,n_l_091.jpg,red,within,NA,NaN,NA,NA,NA,NA,right,3497.199999988079,0,1,1922.5
f3SXGWFA,3bawbgqgzoco8yjjw9p686v3rigv79,3a0ex8zrnc1u1of853t89rhlw1aybr,f3SXGWFA,2020-0188,2021-10-31,03:20:50,04:35:25,NA,incomplete,false,NA,true,NA,4,5,NA,NA,NA,right,NA,NA,NA,present,NA,NA,n_l_099.jpg,green,m_s_033.jpg,green,within,NA,NaN,NA,NA,NA,NA,left,3429.199999988079,0,2,1618.2999999821186
f3SXGWFA,3bawbgqgzoco8yjjw9p686v3rigv79,3a0ex8zrnc1u1of853t89rhlw1aybr,f3SXGWFA,2020-0188,2021-10-31,03:20:50,04:35:25,NA,incomplete,false,NA,true,NA,4,6,NA,NA,NA,left,NA,NA,NA,present,NA,NA,n_l_036.jpg,black,m_s_100.jpg,green,between,NA,NaN,NA,NA,NA,NA,right,5467.5999999940395,0,2,785.9000000059605
f3SXGWFA,3bawbgqgzoco8yjjw9p686v3rigv79,3a0ex8zrnc1u1of853t89rhlw1aybr,f3SXGWFA,2020-0188,2021-10-31,03:20:50,04:35:25,NA,incomplete,false,NA,true,NA,4,7,NA,NA,NA,left,NA,NA,NA,present,NA,NA,n_s_014.jpg,brown,m_s_040.jpg,yellow,between,NA,NaN,NA,NA,NA,NA,left,3512.5,1,3,1393.1000000238419
f3SXGWFA,3bawbgqgzoco8yjjw9p686v3rigv79,3a0ex8zrnc1u1of853t89rhlw1aybr,f3SXGWFA,2020-0188,2021-10-31,03:20:50,04:35:25,NA,incomplete,false,NA,true,NA,4,8,NA,NA,NA,left,NA,NA,NA,present,NA,NA,n_l_060.jpg,gray,n_l_028.jpg,black,between,NA,NaN,NA,NA,NA,NA,right,4705,0,2,682.5
f3SXGWFA,3bawbgqgzoco8yjjw9p686v3rigv79,3a0ex8zrnc1u1of853t89rhlw1aybr,f3SXGWFA,2020-0188,2021-10-31,03:20:50,04:35:25,NA,incomplete,false,NA,true,NA,4,9,NA,NA,NA,right,NA,NA,NA,present,NA,NA,m_l_065.jpg,black,n_l_063.jpg,black,within,NA,NaN,NA,NA,NA,NA,right,3834.800000011921,1,0,608.8999999761581
f3SXGWFA,3bawbgqgzoco8yjjw9p686v3rigv79,3a0ex8zrnc1u1of853t89rhlw1aybr,f3SXGWFA,2020-0188,2021-10-31,03:20:50,04:35:25,NA,incomplete,false,NA,true,NA,4,10,NA,NA,NA,right,NA,NA,NA,present,NA,NA,n_s_064.jpg,gray,n_l_055.jpg,red,between,NA,NaN,NA,NA,NA,NA,right,2228.4000000059605,1,2,2717.5999999940395
f3SXGWFA,3bawbgqgzoco8yjjw9p686v3rigv79,3a0ex8zrnc1u1of853t89rhlw1aybr,f3SXGWFA,2020-0188,2021-10-31,03:20:50,04:35:25,NA,incomplete,false,true,NA,NA,5,0,NA,yellow,m_l_080.jpg,NA,NA,NA,NA,NA,pleasant,unpleasant,NA,NA,NA,NA,NA,right,1195.90000000596,true,NA,NA,NA,NA,NA,NA,NA,NA
f3SXGWFA,3bawbgqgzoco8yjjw9p686v3rigv79,3a0ex8zrnc1u1of853t89rhlw1aybr,f3SXGWFA,2020-0188,2021-10-31,03:20:50,04:35:25,NA,incomplete,false,true,NA,NA,5,1,NA,yellow,n_s_004.jpg,NA,NA,NA,NA,NA,unpleasant,pleasant,NA,NA,NA,NA,NA,left,1397.59999999404,true,NA,NA,NA,NA,NA,NA,NA,NA
f3SXGWFA,3bawbgqgzoco8yjjw9p686v3rigv79,3a0ex8zrnc1u1of853t89rhlw1aybr,f3SXGWFA,2020-0188,2021-10-31,03:20:50,04:35:25,NA,incomplete,false,true,NA,NA,5,2,NA,yellow,m_l_116.jpg,NA,NA,NA,NA,NA,unpleasant,pleasant,NA,NA,NA,NA,NA,left,968.59999999404,true,NA,NA,NA,NA,NA,NA,NA,NA
f3SXGWFA,3bawbgqgzoco8yjjw9p686v3rigv79,3a0ex8zrnc1u1of853t89rhlw1aybr,f3SXGWFA,2020-0188,2021-10-31,03:20:50,04:35:25,NA,incomplete,false,true,NA,NA,5,3,NA,yellow,m_l_087.jpg,NA,NA,NA,NA,NA,unpleasant,pleasant,NA,NA,NA,NA,NA,right,1481.79999998212,true,NA,NA,NA,NA,NA,NA,NA,NA
f3SXGWFA,3bawbgqgzoco8yjjw9p686v3rigv79,3a0ex8zrnc1u1of853t89rhlw1aybr,f3SXGWFA,2020-0188,2021-10-31,03:20:50,04:35:25,NA,incomplete,false,true,NA,NA,5,4,NA,yellow,n_l_026.jpg,NA,NA,NA,NA,NA,unpleasant,pleasant,NA,NA,NA,NA,NA,left,1487.59999999404,true,NA,NA,NA,NA,NA,NA,NA,NA
f3SXGWFA,3bawbgqgzoco8yjjw9p686v3rigv79,3a0ex8zrnc1u1of853t89rhlw1aybr,f3SXGWFA,2020-0188,2021-10-31,03:20:50,04:35:25,NA,incomplete,false,true,NA,NA,5,5,NA,yellow,n_s_034.jpg,NA,NA,NA,NA,NA,unpleasant,pleasant,NA,NA,NA,NA,NA,left,1606.39999997616,true,NA,NA,NA,NA,NA,NA,NA,NA
f3SXGWFA,3bawbgqgzoco8yjjw9p686v3rigv79,3a0ex8zrnc1u1of853t89rhlw1aybr,f3SXGWFA,2020-0188,2021-10-31,03:20:50,04:35:25,NA,incomplete,false,true,NA,NA,5,6,NA,green,n_s_019.jpg,NA,NA,NA,NA,NA,pleasant,unpleasant,NA,NA,NA,NA,NA,right,1347.09999999404,true,NA,NA,NA,NA,NA,NA,NA,NA
f3SXGWFA,3bawbgqgzoco8yjjw9p686v3rigv79,3a0ex8zrnc1u1of853t89rhlw1aybr,f3SXGWFA,2020-0188,2021-10-31,03:20:50,04:35:25,NA,incomplete,false,true,NA,NA,5,7,NA,green,m_s_014.jpg,NA,NA,NA,NA,NA,pleasant,unpleasant,NA,NA,NA,NA,NA,right,1370.19999998808,true,NA,NA,NA,NA,NA,NA,NA,NA
f3SXGWFA,3bawbgqgzoco8yjjw9p686v3rigv79,3a0ex8zrnc1u1of853t89rhlw1aybr,f3SXGWFA,2020-0188,2021-10-31,03:20:50,04:35:25,NA,incomplete,false,true,NA,NA,5,8,NA,green,m_l_108.jpg,NA,NA,NA,NA,NA,unpleasant,pleasant,NA,NA,NA,NA,NA,left,1846.80000001192,true,NA,NA,NA,NA,NA,NA,NA,NA
f3SXGWFA,3bawbgqgzoco8yjjw9p686v3rigv79,3a0ex8zrnc1u1of853t89rhlw1aybr,f3SXGWFA,2020-0188,2021-10-31,03:20:50,04:35:25,NA,incomplete,false,true,NA,NA,5,9,NA,green,n_l_046.jpg,NA,NA,NA,NA,NA,unpleasant,pleasant,NA,NA,NA,NA,NA,left,1171.90000000596,true,NA,NA,NA,NA,NA,NA,NA,NA
f3SXGWFA,3bawbgqgzoco8yjjw9p686v3rigv79,3a0ex8zrnc1u1of853t89rhlw1aybr,f3SXGWFA,2020-0188,2021-10-31,03:20:50,04:35:25,NA,incomplete,false,true,NA,NA,5,10,NA,green,n_s_010.jpg,NA,NA,NA,NA,NA,pleasant,unpleasant,NA,NA,NA,NA,NA,right,2206.80000001192,true,NA,NA,NA,NA,NA,NA,NA,NA
f3SXGWFA,3bawbgqgzoco8yjjw9p686v3rigv79,3a0ex8zrnc1u1of853t89rhlw1aybr,f3SXGWFA,2020-0188,2021-10-31,03:20:50,04:35:25,NA,incomplete,false,true,NA,NA,5,11,NA,green,n_s_072.jpg,NA,NA,NA,NA,NA,pleasant,unpleasant,NA,NA,NA,NA,NA,left,884.300000011921,true,NA,NA,NA,NA,NA,NA,NA,NA
f3SXGWFA,3bawbgqgzoco8yjjw9p686v3rigv79,3a0ex8zrnc1u1of853t89rhlw1aybr,f3SXGWFA,2020-0188,2021-10-31,03:20:50,04:35:25,NA,incomplete,false,true,NA,NA,5,12,NA,black,m_s_004.jpg,NA,NA,NA,NA,NA,pleasant,unpleasant,NA,NA,NA,NA,NA,right,2254.80000001192,true,NA,NA,NA,NA,NA,NA,NA,NA
f3SXGWFA,3bawbgqgzoco8yjjw9p686v3rigv79,3a0ex8zrnc1u1of853t89rhlw1aybr,f3SXGWFA,2020-0188,2021-10-31,03:20:50,04:35:25,NA,incomplete,false,true,NA,NA,5,13,NA,black,n_s_108.jpg,NA,NA,NA,NA,NA,unpleasant,pleasant,NA,NA,NA,NA,NA,right,1193.90000000596,true,NA,NA,NA,NA,NA,NA,NA,NA
f3SXGWFA,3bawbgqgzoco8yjjw9p686v3rigv79,3a0ex8zrnc1u1of853t89rhlw1aybr,f3SXGWFA,2020-0188,2021-10-31,03:20:50,04:35:25,NA,incomplete,false,true,NA,NA,5,14,NA,black,m_l_027.jpg,NA,NA,NA,NA,NA,unpleasant,pleasant,NA,NA,NA,NA,NA,right,1029.19999998808,true,NA,NA,NA,NA,NA,NA,NA,NA
f3SXGWFA,3bawbgqgzoco8yjjw9p686v3rigv79,3a0ex8zrnc1u1of853t89rhlw1aybr,f3SXGWFA,2020-0188,2021-10-31,03:20:50,04:35:25,NA,incomplete,false,true,NA,NA,5,15,NA,black,m_l_096.jpg,NA,NA,NA,NA,NA,unpleasant,pleasant,NA,NA,NA,NA,NA,right,1245.40000000596,true,NA,NA,NA,NA,NA,NA,NA,NA
f3SXGWFA,3bawbgqgzoco8yjjw9p686v3rigv79,3a0ex8zrnc1u1of853t89rhlw1aybr,f3SXGWFA,2020-0188,2021-10-31,03:20:50,04:35:25,NA,incomplete,false,true,NA,NA,5,16,NA,black,n_l_079.jpg,NA,NA,NA,NA,NA,unpleasant,pleasant,NA,NA,NA,NA,NA,right,1551.30000001192,true,NA,NA,NA,NA,NA,NA,NA,NA
f3SXGWFA,3bawbgqgzoco8yjjw9p686v3rigv79,3a0ex8zrnc1u1of853t89rhlw1aybr,f3SXGWFA,2020-0188,2021-10-31,03:20:50,04:35:25,NA,incomplete,false,true,NA,NA,5,17,NA,black,m_s_076.jpg,NA,NA,NA,NA,NA,pleasant,unpleasant,NA,NA,NA,NA,NA,right,992.90000000596,true,NA,NA,NA,NA,NA,NA,NA,NA
