workerId,hitId,assignmentId,subject,studyid,exp_date,exp_start,exp_end,time_start,time_end,practice,encoding,memory,association,block,trial,event_order,event,stim,answer,object,left_context,right_context,context_type,label_left,label_right,left_image,left_event,right_image,right_event,condition,response,response_time,response_acc,association_response_time,association_response,association_acc,order_response,order_response_time,order_acc,distance_response,distance_response_time
RzNbgDtK,3ac6mfv6anv2a7u5af0lkpxttwbhzq,3a1cohj8nn8pdvrcsr5awpwhyzph8p,RzNbgDtK,2020-0188,2021-10-30,18:55:16,20:30:59,NA,incomplete,true,true,NA,NA,0,0,NA,green,n_s_084.jpg,NA,NA,NA,NA,NA,pleasant,unpleasant,NA,NA,NA,NA,NA,left,1704,true,NA,NA,NA,NA,NA,NA,NA,NA
RzNbgDtK,3ac6mfv6anv2a7u5af0lkpxttwbhzq,3a1cohj8nn8pdvrcsr5awpwhyzph8p,RzNbgDtK,2020-0188,2021-10-30,18:55:16,20:30:59,NA,incomplete,true,true,NA,NA,0,1,NA,green,m_l_016.jpg,NA,NA,NA,NA,NA,unpleasant,pleasant,NA,NA,NA,NA,NA,right,1666,true,NA,NA,NA,NA,NA,NA,NA,NA
RzNbgDtK,3ac6mfv6anv2a7u5af0lkpxttwbhzq,3a1cohj8nn8pdvrcsr5awpwhyzph8p,RzNbgDtK,2020-0188,2021-10-30,18:55:16,20:30:59,NA,incomplete,true,true,NA,NA,0,2,NA,green,n_s_117.jpg,NA,NA,NA,NA,NA,pleasant,unpleasant,NA,NA,NA,NA,NA,right,1701,true,NA,NA,NA,NA,NA,NA,NA,NA
RzNbgDtK,3ac6mfv6anv2a7u5af0lkpxttwbhzq,3a1cohj8nn8pdvrcsr5awpwhyzph8p,RzNbgDtK,2020-0188,2021-10-30,18:55:16,20:30:59,NA,incomplete,true,true,NA,NA,0,3,NA,green,n_l_027.jpg,NA,NA,NA,NA,NA,unpleasant,pleasant,NA,NA,NA,NA,NA,right,1733,true,NA,NA,NA,NA,NA,NA,NA,NA
RzNbgDtK,3ac6mfv6anv2a7u5af0lkpxttwbhzq,3a1cohj8nn8pdvrcsr5awpwhyzph8p,RzNbgDtK,2020-0188,2021-10-30,18:55:16,20:30:59,NA,incomplete,true,true,NA,NA,0,4,NA,green,m_l_050.jpg,NA,NA,NA,NA,NA,pleasant,unpleasant,NA,NA,NA,NA,NA,left,1567,true,NA,NA,NA,NA,NA,NA,NA,NA
RzNbgDtK,3ac6mfv6anv2a7u5af0lkpxttwbhzq,3a1cohj8nn8pdvrcsr5awpwhyzph8p,RzNbgDtK,2020-0188,2021-10-30,18:55:16,20:30:59,NA,incomplete,true,true,NA,NA,0,5,NA,green,n_s_060.jpg,NA,NA,NA,NA,NA,unpleasant,pleasant,NA,NA,NA,NA,NA,right,1796,true,NA,NA,NA,NA,NA,NA,NA,NA
RzNbgDtK,3ac6mfv6anv2a7u5af0lkpxttwbhzq,3a1cohj8nn8pdvrcsr5awpwhyzph8p,RzNbgDtK,2020-0188,2021-10-30,18:55:16,20:30:59,NA,incomplete,true,true,NA,NA,0,6,NA,orange,n_s_096.jpg,NA,NA,NA,NA,NA,pleasant,unpleasant,NA,NA,NA,NA,NA,left,1444,true,NA,NA,NA,NA,NA,NA,NA,NA
RzNbgDtK,3ac6mfv6anv2a7u5af0lkpxttwbhzq,3a1cohj8nn8pdvrcsr5awpwhyzph8p,RzNbgDtK,2020-0188,2021-10-30,18:55:16,20:30:59,NA,incomplete,true,true,NA,NA,0,7,NA,orange,m_s_011.jpg,NA,NA,NA,NA,NA,unpleasant,pleasant,NA,NA,NA,NA,NA,left,2330,true,NA,NA,NA,NA,NA,NA,NA,NA
RzNbgDtK,3ac6mfv6anv2a7u5af0lkpxttwbhzq,3a1cohj8nn8pdvrcsr5awpwhyzph8p,RzNbgDtK,2020-0188,2021-10-30,18:55:16,20:30:59,NA,incomplete,true,true,NA,NA,0,8,NA,orange,n_l_060.jpg,NA,NA,NA,NA,NA,unpleasant,pleasant,NA,NA,NA,NA,NA,left,1387,true,NA,NA,NA,NA,NA,NA,NA,NA
RzNbgDtK,3ac6mfv6anv2a7u5af0lkpxttwbhzq,3a1cohj8nn8pdvrcsr5awpwhyzph8p,RzNbgDtK,2020-0188,2021-10-30,18:55:16,20:30:59,NA,incomplete,true,true,NA,NA,0,9,NA,orange,n_s_079.jpg,NA,NA,NA,NA,NA,unpleasant,pleasant,NA,NA,NA,NA,NA,left,1340,true,NA,NA,NA,NA,NA,NA,NA,NA
RzNbgDtK,3ac6mfv6anv2a7u5af0lkpxttwbhzq,3a1cohj8nn8pdvrcsr5awpwhyzph8p,RzNbgDtK,2020-0188,2021-10-30,18:55:16,20:30:59,NA,incomplete,true,true,NA,NA,0,10,NA,orange,n_s_087.jpg,NA,NA,NA,NA,NA,unpleasant,pleasant,NA,NA,NA,NA,NA,left,2100,true,NA,NA,NA,NA,NA,NA,NA,NA
RzNbgDtK,3ac6mfv6anv2a7u5af0lkpxttwbhzq,3a1cohj8nn8pdvrcsr5awpwhyzph8p,RzNbgDtK,2020-0188,2021-10-30,18:55:16,20:30:59,NA,incomplete,true,true,NA,NA,0,11,NA,orange,m_s_094.jpg,NA,NA,NA,NA,NA,pleasant,unpleasant,NA,NA,NA,NA,NA,left,1536,true,NA,NA,NA,NA,NA,NA,NA,NA
RzNbgDtK,3ac6mfv6anv2a7u5af0lkpxttwbhzq,3a1cohj8nn8pdvrcsr5awpwhyzph8p,RzNbgDtK,2020-0188,2021-10-30,18:55:16,20:30:59,NA,incomplete,true,true,NA,NA,0,12,NA,red,n_l_035.jpg,NA,NA,NA,NA,NA,pleasant,unpleasant,NA,NA,NA,NA,NA,right,1250,true,NA,NA,NA,NA,NA,NA,NA,NA
RzNbgDtK,3ac6mfv6anv2a7u5af0lkpxttwbhzq,3a1cohj8nn8pdvrcsr5awpwhyzph8p,RzNbgDtK,2020-0188,2021-10-30,18:55:16,20:30:59,NA,incomplete,true,true,NA,NA,0,13,NA,red,m_l_036.jpg,NA,NA,NA,NA,NA,unpleasant,pleasant,NA,NA,NA,NA,NA,left,1361,true,NA,NA,NA,NA,NA,NA,NA,NA
RzNbgDtK,3ac6mfv6anv2a7u5af0lkpxttwbhzq,3a1cohj8nn8pdvrcsr5awpwhyzph8p,RzNbgDtK,2020-0188,2021-10-30,18:55:16,20:30:59,NA,incomplete,true,true,NA,NA,0,14,NA,red,m_l_080.jpg,NA,NA,NA,NA,NA,unpleasant,pleasant,NA,NA,NA,NA,NA,left,1618,true,NA,NA,NA,NA,NA,NA,NA,NA
RzNbgDtK,3ac6mfv6anv2a7u5af0lkpxttwbhzq,3a1cohj8nn8pdvrcsr5awpwhyzph8p,RzNbgDtK,2020-0188,2021-10-30,18:55:16,20:30:59,NA,incomplete,true,true,NA,NA,0,15,NA,red,m_s_068.jpg,NA,NA,NA,NA,NA,unpleasant,pleasant,NA,NA,NA,NA,NA,left,1947,true,NA,NA,NA,NA,NA,NA,NA,NA
RzNbgDtK,3ac6mfv6anv2a7u5af0lkpxttwbhzq,3a1cohj8nn8pdvrcsr5awpwhyzph8p,RzNbgDtK,2020-0188,2021-10-30,18:55:16,20:30:59,NA,incomplete,true,true,NA,NA,0,16,NA,red,m_l_055.jpg,NA,NA,NA,NA,NA,pleasant,unpleasant,NA,NA,NA,NA,NA,right,1298,true,NA,NA,NA,NA,NA,NA,NA,NA
RzNbgDtK,3ac6mfv6anv2a7u5af0lkpxttwbhzq,3a1cohj8nn8pdvrcsr5awpwhyzph8p,RzNbgDtK,2020-0188,2021-10-30,18:55:16,20:30:59,NA,incomplete,true,true,NA,NA,0,17,NA,red,n_l_056.jpg,NA,NA,NA,NA,NA,pleasant,unpleasant,NA,NA,NA,NA,NA,right,1469,true,NA,NA,NA,NA,NA,NA,NA,NA
RzNbgDtK,3ac6mfv6anv2a7u5af0lkpxttwbhzq,3a1cohj8nn8pdvrcsr5awpwhyzph8p,RzNbgDtK,2020-0188,2021-10-30,18:55:16,20:30:59,NA,incomplete,true,true,NA,NA,0,18,NA,white,n_l_055.jpg,NA,NA,NA,NA,NA,unpleasant,pleasant,NA,NA,NA,NA,NA,left,1310,true,NA,NA,NA,NA,NA,NA,NA,NA
RzNbgDtK,3ac6mfv6anv2a7u5af0lkpxttwbhzq,3a1cohj8nn8pdvrcsr5awpwhyzph8p,RzNbgDtK,2020-0188,2021-10-30,18:55:16,20:30:59,NA,incomplete,true,true,NA,NA,0,19,NA,white,n_s_011.jpg,NA,NA,NA,NA,NA,pleasant,unpleasant,NA,NA,NA,NA,NA,left,1374,true,NA,NA,NA,NA,NA,NA,NA,NA
RzNbgDtK,3ac6mfv6anv2a7u5af0lkpxttwbhzq,3a1cohj8nn8pdvrcsr5awpwhyzph8p,RzNbgDtK,2020-0188,2021-10-30,18:55:16,20:30:59,NA,incomplete,true,true,NA,NA,0,20,NA,white,n_s_051.jpg,NA,NA,NA,NA,NA,pleasant,unpleasant,NA,NA,NA,NA,NA,right,1448,true,NA,NA,NA,NA,NA,NA,NA,NA
RzNbgDtK,3ac6mfv6anv2a7u5af0lkpxttwbhzq,3a1cohj8nn8pdvrcsr5awpwhyzph8p,RzNbgDtK,2020-0188,2021-10-30,18:55:16,20:30:59,NA,incomplete,true,true,NA,NA,0,21,NA,white,n_s_099.jpg,NA,NA,NA,NA,NA,unpleasant,pleasant,NA,NA,NA,NA,NA,left,2198,true,NA,NA,NA,NA,NA,NA,NA,NA
RzNbgDtK,3ac6mfv6anv2a7u5af0lkpxttwbhzq,3a1cohj8nn8pdvrcsr5awpwhyzph8p,RzNbgDtK,2020-0188,2021-10-30,18:55:16,20:30:59,NA,incomplete,true,true,NA,NA,0,22,NA,white,m_l_097.jpg,NA,NA,NA,NA,NA,pleasant,unpleasant,NA,NA,NA,NA,NA,right,987,true,NA,NA,NA,NA,NA,NA,NA,NA
RzNbgDtK,3ac6mfv6anv2a7u5af0lkpxttwbhzq,3a1cohj8nn8pdvrcsr5awpwhyzph8p,RzNbgDtK,2020-0188,2021-10-30,18:55:16,20:30:59,NA,incomplete,true,true,NA,NA,0,23,NA,white,n_s_105.jpg,NA,NA,NA,NA,NA,unpleasant,pleasant,NA,NA,NA,NA,NA,left,1220,true,NA,NA,NA,NA,NA,NA,NA,NA
RzNbgDtK,3ac6mfv6anv2a7u5af0lkpxttwbhzq,3a1cohj8nn8pdvrcsr5awpwhyzph8p,RzNbgDtK,2020-0188,2021-10-30,18:55:16,20:30:59,NA,incomplete,true,true,NA,NA,0,24,NA,gray,n_l_086.jpg,NA,NA,NA,NA,NA,unpleasant,pleasant,NA,NA,NA,NA,NA,right,1202,true,NA,NA,NA,NA,NA,NA,NA,NA
RzNbgDtK,3ac6mfv6anv2a7u5af0lkpxttwbhzq,3a1cohj8nn8pdvrcsr5awpwhyzph8p,RzNbgDtK,2020-0188,2021-10-30,18:55:16,20:30:59,NA,incomplete,true,true,NA,NA,0,25,NA,gray,m_l_001.jpg,NA,NA,NA,NA,NA,pleasant,unpleasant,NA,NA,NA,NA,NA,right,1276,true,NA,NA,NA,NA,NA,NA,NA,NA
RzNbgDtK,3ac6mfv6anv2a7u5af0lkpxttwbhzq,3a1cohj8nn8pdvrcsr5awpwhyzph8p,RzNbgDtK,2020-0188,2021-10-30,18:55:16,20:30:59,NA,incomplete,true,true,NA,NA,0,26,NA,gray,n_s_064.jpg,NA,NA,NA,NA,NA,pleasant,unpleasant,NA,NA,NA,NA,NA,right,1132,true,NA,NA,NA,NA,NA,NA,NA,NA
RzNbgDtK,3ac6mfv6anv2a7u5af0lkpxttwbhzq,3a1cohj8nn8pdvrcsr5awpwhyzph8p,RzNbgDtK,2020-0188,2021-10-30,18:55:16,20:30:59,NA,incomplete,true,true,NA,NA,0,27,NA,gray,m_s_101.jpg,NA,NA,NA,NA,NA,pleasant,unpleasant,NA,NA,NA,NA,NA,right,1236,true,NA,NA,NA,NA,NA,NA,NA,NA
RzNbgDtK,3ac6mfv6anv2a7u5af0lkpxttwbhzq,3a1cohj8nn8pdvrcsr5awpwhyzph8p,RzNbgDtK,2020-0188,2021-10-30,18:55:16,20:30:59,NA,incomplete,true,true,NA,NA,0,28,NA,gray,m_l_022.jpg,NA,NA,NA,NA,NA,unpleasant,pleasant,NA,NA,NA,NA,NA,left,1655,true,NA,NA,NA,NA,NA,NA,NA,NA
RzNbgDtK,3ac6mfv6anv2a7u5af0lkpxttwbhzq,3a1cohj8nn8pdvrcsr5awpwhyzph8p,RzNbgDtK,2020-0188,2021-10-30,18:55:16,20:30:59,NA,incomplete,true,true,NA,NA,0,29,NA,gray,m_s_053.jpg,NA,NA,NA,NA,NA,pleasant,unpleasant,NA,NA,NA,NA,NA,right,1473,true,NA,NA,NA,NA,NA,NA,NA,NA
RzNbgDtK,3ac6mfv6anv2a7u5af0lkpxttwbhzq,3a1cohj8nn8pdvrcsr5awpwhyzph8p,RzNbgDtK,2020-0188,2021-10-30,18:55:16,20:30:59,NA,incomplete,true,true,NA,NA,0,30,NA,purple,m_s_116.jpg,NA,NA,NA,NA,NA,pleasant,unpleasant,NA,NA,NA,NA,NA,right,1943,true,NA,NA,NA,NA,NA,NA,NA,NA
RzNbgDtK,3ac6mfv6anv2a7u5af0lkpxttwbhzq,3a1cohj8nn8pdvrcsr5awpwhyzph8p,RzNbgDtK,2020-0188,2021-10-30,18:55:16,20:30:59,NA,incomplete,true,true,NA,NA,0,31,NA,purple,m_s_061.jpg,NA,NA,NA,NA,NA,unpleasant,pleasant,NA,NA,NA,NA,NA,left,1458,true,NA,NA,NA,NA,NA,NA,NA,NA
RzNbgDtK,3ac6mfv6anv2a7u5af0lkpxttwbhzq,3a1cohj8nn8pdvrcsr5awpwhyzph8p,RzNbgDtK,2020-0188,2021-10-30,18:55:16,20:30:59,NA,incomplete,true,true,NA,NA,0,32,NA,purple,m_l_035.jpg,NA,NA,NA,NA,NA,unpleasant,pleasant,NA,NA,NA,NA,NA,right,1740,true,NA,NA,NA,NA,NA,NA,NA,NA
RzNbgDtK,3ac6mfv6anv2a7u5af0lkpxttwbhzq,3a1cohj8nn8pdvrcsr5awpwhyzph8p,RzNbgDtK,2020-0188,2021-10-30,18:55:16,20:30:59,NA,incomplete,true,true,NA,NA,0,33,NA,purple,n_l_033.jpg,NA,NA,NA,NA,NA,pleasant,unpleasant,NA,NA,NA,NA,NA,right,1264,true,NA,NA,NA,NA,NA,NA,NA,NA
RzNbgDtK,3ac6mfv6anv2a7u5af0lkpxttwbhzq,3a1cohj8nn8pdvrcsr5awpwhyzph8p,RzNbgDtK,2020-0188,2021-10-30,18:55:16,20:30:59,NA,incomplete,true,true,NA,NA,0,34,NA,purple,n_l_110.jpg,NA,NA,NA,NA,NA,unpleasant,pleasant,NA,NA,NA,NA,NA,right,1208,true,NA,NA,NA,NA,NA,NA,NA,NA
RzNbgDtK,3ac6mfv6anv2a7u5af0lkpxttwbhzq,3a1cohj8nn8pdvrcsr5awpwhyzph8p,RzNbgDtK,2020-0188,2021-10-30,18:55:16,20:30:59,NA,incomplete,true,true,NA,NA,0,35,NA,purple,m_l_023.jpg,NA,NA,NA,NA,NA,unpleasant,pleasant,NA,NA,NA,NA,NA,left,1373,true,NA,NA,NA,NA,NA,NA,NA,NA
RzNbgDtK,3ac6mfv6anv2a7u5af0lkpxttwbhzq,3a1cohj8nn8pdvrcsr5awpwhyzph8p,RzNbgDtK,2020-0188,2021-10-30,18:55:16,20:30:59,NA,incomplete,true,NA,NA,true,0,0,NA,NA,NA,left,n_s_105.jpg,white,gray,NA,NA,NA,NA,NA,NA,NA,NA,NA,NaN,NA,5043,right,0,NA,NA,NA,NA,NA
RzNbgDtK,3ac6mfv6anv2a7u5af0lkpxttwbhzq,3a1cohj8nn8pdvrcsr5awpwhyzph8p,RzNbgDtK,2020-0188,2021-10-30,18:55:16,20:30:59,NA,incomplete,true,NA,NA,true,0,1,NA,NA,NA,right,m_l_035.jpg,gray,purple,NA,NA,NA,NA,NA,NA,NA,NA,NA,NaN,NA,2854,right,1,NA,NA,NA,NA,NA
RzNbgDtK,3ac6mfv6anv2a7u5af0lkpxttwbhzq,3a1cohj8nn8pdvrcsr5awpwhyzph8p,RzNbgDtK,2020-0188,2021-10-30,18:55:16,20:30:59,NA,incomplete,true,NA,NA,true,0,2,NA,NA,NA,right,m_l_022.jpg,purple,gray,NA,NA,NA,NA,NA,NA,NA,NA,NA,NaN,NA,1862,right,1,NA,NA,NA,NA,NA
RzNbgDtK,3ac6mfv6anv2a7u5af0lkpxttwbhzq,3a1cohj8nn8pdvrcsr5awpwhyzph8p,RzNbgDtK,2020-0188,2021-10-30,18:55:16,20:30:59,NA,incomplete,true,NA,NA,true,0,3,NA,NA,NA,right,m_l_080.jpg,white,red,NA,NA,NA,NA,NA,NA,NA,NA,NA,NaN,NA,4115,right,1,NA,NA,NA,NA,NA
RzNbgDtK,3ac6mfv6anv2a7u5af0lkpxttwbhzq,3a1cohj8nn8pdvrcsr5awpwhyzph8p,RzNbgDtK,2020-0188,2021-10-30,18:55:16,20:30:59,NA,incomplete,true,NA,NA,true,0,4,NA,NA,NA,left,m_l_016.jpg,green,orange,NA,NA,NA,NA,NA,NA,NA,NA,NA,NaN,NA,1984,left,1,NA,NA,NA,NA,NA
RzNbgDtK,3ac6mfv6anv2a7u5af0lkpxttwbhzq,3a1cohj8nn8pdvrcsr5awpwhyzph8p,RzNbgDtK,2020-0188,2021-10-30,18:55:16,20:30:59,NA,incomplete,true,NA,NA,true,0,5,NA,NA,NA,right,m_l_050.jpg,orange,green,NA,NA,NA,NA,NA,NA,NA,NA,NA,NaN,NA,3053,right,1,NA,NA,NA,NA,NA
RzNbgDtK,3ac6mfv6anv2a7u5af0lkpxttwbhzq,3a1cohj8nn8pdvrcsr5awpwhyzph8p,RzNbgDtK,2020-0188,2021-10-30,18:55:16,20:30:59,NA,incomplete,true,NA,NA,true,0,6,NA,NA,NA,left,m_s_053.jpg,gray,purple,NA,NA,NA,NA,NA,NA,NA,NA,NA,NaN,NA,4390,left,1,NA,NA,NA,NA,NA
RzNbgDtK,3ac6mfv6anv2a7u5af0lkpxttwbhzq,3a1cohj8nn8pdvrcsr5awpwhyzph8p,RzNbgDtK,2020-0188,2021-10-30,18:55:16,20:30:59,NA,incomplete,true,NA,NA,true,0,7,NA,NA,NA,left,n_s_011.jpg,white,red,NA,NA,NA,NA,NA,NA,NA,NA,NA,NaN,NA,3673,right,0,NA,NA,NA,NA,NA
RzNbgDtK,3ac6mfv6anv2a7u5af0lkpxttwbhzq,3a1cohj8nn8pdvrcsr5awpwhyzph8p,RzNbgDtK,2020-0188,2021-10-30,18:55:16,20:30:59,NA,incomplete,true,NA,NA,true,0,8,NA,NA,NA,right,m_s_094.jpg,red,orange,NA,NA,NA,NA,NA,NA,NA,NA,NA,NaN,NA,3505,left,0,NA,NA,NA,NA,NA
RzNbgDtK,3ac6mfv6anv2a7u5af0lkpxttwbhzq,3a1cohj8nn8pdvrcsr5awpwhyzph8p,RzNbgDtK,2020-0188,2021-10-30,18:55:16,20:30:59,NA,incomplete,true,NA,NA,true,0,9,NA,NA,NA,right,m_l_036.jpg,white,red,NA,NA,NA,NA,NA,NA,NA,NA,NA,NaN,NA,3518,left,0,NA,NA,NA,NA,NA
RzNbgDtK,3ac6mfv6anv2a7u5af0lkpxttwbhzq,3a1cohj8nn8pdvrcsr5awpwhyzph8p,RzNbgDtK,2020-0188,2021-10-30,18:55:16,20:30:59,NA,incomplete,true,NA,NA,true,0,10,NA,NA,NA,left,n_s_064.jpg,gray,white,NA,NA,NA,NA,NA,NA,NA,NA,NA,NaN,NA,4693,left,1,NA,NA,NA,NA,NA
RzNbgDtK,3ac6mfv6anv2a7u5af0lkpxttwbhzq,3a1cohj8nn8pdvrcsr5awpwhyzph8p,RzNbgDtK,2020-0188,2021-10-30,18:55:16,20:30:59,NA,incomplete,true,NA,NA,true,0,11,NA,NA,NA,left,n_l_060.jpg,orange,green,NA,NA,NA,NA,NA,NA,NA,NA,NA,NaN,NA,3143,right,0,NA,NA,NA,NA,NA
RzNbgDtK,3ac6mfv6anv2a7u5af0lkpxttwbhzq,3a1cohj8nn8pdvrcsr5awpwhyzph8p,RzNbgDtK,2020-0188,2021-10-30,18:55:16,20:30:59,NA,incomplete,true,NA,NA,true,0,12,NA,NA,NA,right,n_s_060.jpg,orange,green,NA,NA,NA,NA,NA,NA,NA,NA,NA,NaN,NA,2527,left,0,NA,NA,NA,NA,NA
RzNbgDtK,3ac6mfv6anv2a7u5af0lkpxttwbhzq,3a1cohj8nn8pdvrcsr5awpwhyzph8p,RzNbgDtK,2020-0188,2021-10-30,18:55:16,20:30:59,NA,incomplete,true,NA,NA,true,0,13,NA,NA,NA,right,m_l_097.jpg,red,white,NA,NA,NA,NA,NA,NA,NA,NA,NA,NaN,NA,3053,right,1,NA,NA,NA,NA,NA
RzNbgDtK,3ac6mfv6anv2a7u5af0lkpxttwbhzq,3a1cohj8nn8pdvrcsr5awpwhyzph8p,RzNbgDtK,2020-0188,2021-10-30,18:55:16,20:30:59,NA,incomplete,true,NA,NA,true,0,14,NA,NA,NA,left,m_l_055.jpg,red,white,NA,NA,NA,NA,NA,NA,NA,NA,NA,NaN,NA,1700,left,1,NA,NA,NA,NA,NA
RzNbgDtK,3ac6mfv6anv2a7u5af0lkpxttwbhzq,3a1cohj8nn8pdvrcsr5awpwhyzph8p,RzNbgDtK,2020-0188,2021-10-30,18:55:16,20:30:59,NA,incomplete,true,NA,NA,true,0,15,NA,NA,NA,left,m_s_061.jpg,purple,gray,NA,NA,NA,NA,NA,NA,NA,NA,NA,NaN,NA,2693,left,1,NA,NA,NA,NA,NA
RzNbgDtK,3ac6mfv6anv2a7u5af0lkpxttwbhzq,3a1cohj8nn8pdvrcsr5awpwhyzph8p,RzNbgDtK,2020-0188,2021-10-30,18:55:16,20:30:59,NA,incomplete,true,NA,NA,true,0,16,NA,NA,NA,left,m_l_001.jpg,gray,white,NA,NA,NA,NA,NA,NA,NA,NA,NA,NaN,NA,2230,left,1,NA,NA,NA,NA,NA
RzNbgDtK,3ac6mfv6anv2a7u5af0lkpxttwbhzq,3a1cohj8nn8pdvrcsr5awpwhyzph8p,RzNbgDtK,2020-0188,2021-10-30,18:55:16,20:30:59,NA,incomplete,true,NA,NA,true,0,17,NA,NA,NA,right,n_s_051.jpg,gray,white,NA,NA,NA,NA,NA,NA,NA,NA,NA,NaN,NA,3108,right,1,NA,NA,NA,NA,NA
RzNbgDtK,3ac6mfv6anv2a7u5af0lkpxttwbhzq,3a1cohj8nn8pdvrcsr5awpwhyzph8p,RzNbgDtK,2020-0188,2021-10-30,18:55:16,20:30:59,NA,incomplete,true,NA,NA,true,0,18,NA,NA,NA,left,n_s_087.jpg,orange,green,NA,NA,NA,NA,NA,NA,NA,NA,NA,NaN,NA,3166,left,1,NA,NA,NA,NA,NA
RzNbgDtK,3ac6mfv6anv2a7u5af0lkpxttwbhzq,3a1cohj8nn8pdvrcsr5awpwhyzph8p,RzNbgDtK,2020-0188,2021-10-30,18:55:16,20:30:59,NA,incomplete,true,NA,NA,true,0,19,NA,NA,NA,right,n_l_056.jpg,white,red,NA,NA,NA,NA,NA,NA,NA,NA,NA,NaN,NA,4111,right,1,NA,NA,NA,NA,NA
RzNbgDtK,3ac6mfv6anv2a7u5af0lkpxttwbhzq,3a1cohj8nn8pdvrcsr5awpwhyzph8p,RzNbgDtK,2020-0188,2021-10-30,18:55:16,20:30:59,NA,incomplete,true,NA,NA,true,0,20,NA,NA,NA,right,m_l_023.jpg,gray,purple,NA,NA,NA,NA,NA,NA,NA,NA,NA,NaN,NA,3286,right,1,NA,NA,NA,NA,NA
RzNbgDtK,3ac6mfv6anv2a7u5af0lkpxttwbhzq,3a1cohj8nn8pdvrcsr5awpwhyzph8p,RzNbgDtK,2020-0188,2021-10-30,18:55:16,20:30:59,NA,incomplete,true,NA,NA,true,0,21,NA,NA,NA,left,m_s_011.jpg,orange,red,NA,NA,NA,NA,NA,NA,NA,NA,NA,NaN,NA,1858,left,1,NA,NA,NA,NA,NA
RzNbgDtK,3ac6mfv6anv2a7u5af0lkpxttwbhzq,3a1cohj8nn8pdvrcsr5awpwhyzph8p,RzNbgDtK,2020-0188,2021-10-30,18:55:16,20:30:59,NA,incomplete,true,NA,true,NA,0,0,NA,NA,NA,right,NA,NA,NA,absent,NA,NA,m_l_035.jpg,purple,m_l_022.jpg,gray,between,NA,NaN,NA,NA,NA,NA,left,3660,0,1,4537
RzNbgDtK,3ac6mfv6anv2a7u5af0lkpxttwbhzq,3a1cohj8nn8pdvrcsr5awpwhyzph8p,RzNbgDtK,2020-0188,2021-10-30,18:55:16,20:30:59,NA,incomplete,true,NA,true,NA,0,1,NA,NA,NA,right,NA,NA,NA,absent,NA,NA,m_l_080.jpg,red,n_s_087.jpg,orange,between,NA,NaN,NA,NA,NA,NA,right,2338,1,0,6161
RzNbgDtK,3ac6mfv6anv2a7u5af0lkpxttwbhzq,3a1cohj8nn8pdvrcsr5awpwhyzph8p,RzNbgDtK,2020-0188,2021-10-30,18:55:16,20:30:59,NA,incomplete,true,NA,true,NA,0,2,NA,NA,NA,left,NA,NA,NA,absent,NA,NA,m_l_097.jpg,white,n_s_064.jpg,gray,between,NA,NaN,NA,NA,NA,NA,left,2192,1,1,1457
RzNbgDtK,3ac6mfv6anv2a7u5af0lkpxttwbhzq,3a1cohj8nn8pdvrcsr5awpwhyzph8p,RzNbgDtK,2020-0188,2021-10-30,18:55:16,20:30:59,NA,incomplete,true,NA,true,NA,0,3,NA,NA,NA,left,NA,NA,NA,absent,NA,NA,m_s_061.jpg,purple,m_l_023.jpg,purple,within,NA,NaN,NA,NA,NA,NA,left,4751,1,3,3742
RzNbgDtK,3ac6mfv6anv2a7u5af0lkpxttwbhzq,3a1cohj8nn8pdvrcsr5awpwhyzph8p,RzNbgDtK,2020-0188,2021-10-30,18:55:16,20:30:59,NA,incomplete,true,NA,true,NA,0,4,NA,NA,NA,left,NA,NA,NA,absent,NA,NA,m_s_011.jpg,orange,m_s_094.jpg,orange,within,NA,NaN,NA,NA,NA,NA,right,2988,0,1,2060
RzNbgDtK,3ac6mfv6anv2a7u5af0lkpxttwbhzq,3a1cohj8nn8pdvrcsr5awpwhyzph8p,RzNbgDtK,2020-0188,2021-10-30,18:55:16,20:30:59,NA,incomplete,true,NA,true,NA,0,5,NA,NA,NA,right,NA,NA,NA,absent,NA,NA,m_s_053.jpg,gray,m_l_001.jpg,gray,within,NA,NaN,NA,NA,NA,NA,right,4853,1,0,1348
RzNbgDtK,3ac6mfv6anv2a7u5af0lkpxttwbhzq,3a1cohj8nn8pdvrcsr5awpwhyzph8p,RzNbgDtK,2020-0188,2021-10-30,18:55:16,20:30:59,NA,incomplete,true,NA,true,NA,0,6,NA,NA,NA,left,NA,NA,NA,absent,NA,NA,m_l_016.jpg,green,n_s_060.jpg,green,within,NA,NaN,NA,NA,NA,NA,left,5477,1,3,2522
RzNbgDtK,3ac6mfv6anv2a7u5af0lkpxttwbhzq,3a1cohj8nn8pdvrcsr5awpwhyzph8p,RzNbgDtK,2020-0188,2021-10-30,18:55:16,20:30:59,NA,incomplete,true,NA,true,NA,0,7,NA,NA,NA,right,NA,NA,NA,absent,NA,NA,n_l_056.jpg,red,m_l_036.jpg,red,within,NA,NaN,NA,NA,NA,NA,left,5786,0,3,2053
RzNbgDtK,3ac6mfv6anv2a7u5af0lkpxttwbhzq,3a1cohj8nn8pdvrcsr5awpwhyzph8p,RzNbgDtK,2020-0188,2021-10-30,18:55:16,20:30:59,NA,incomplete,true,NA,true,NA,0,8,NA,NA,NA,left,NA,NA,NA,absent,NA,NA,n_s_011.jpg,white,n_s_105.jpg,white,within,NA,NaN,NA,NA,NA,NA,left,1896,1,2,2114
RzNbgDtK,3ac6mfv6anv2a7u5af0lkpxttwbhzq,3a1cohj8nn8pdvrcsr5awpwhyzph8p,RzNbgDtK,2020-0188,2021-10-30,18:55:16,20:30:59,NA,incomplete,true,NA,true,NA,0,9,NA,NA,NA,right,NA,NA,NA,absent,NA,NA,n_l_060.jpg,orange,m_l_050.jpg,green,between,NA,NaN,NA,NA,NA,NA,left,2601,0,1,1333
RzNbgDtK,3ac6mfv6anv2a7u5af0lkpxttwbhzq,3a1cohj8nn8pdvrcsr5awpwhyzph8p,RzNbgDtK,2020-0188,2021-10-30,18:55:16,20:30:59,NA,incomplete,true,NA,true,NA,0,10,NA,NA,NA,right,NA,NA,NA,absent,NA,NA,n_s_051.jpg,white,m_l_055.jpg,red,between,NA,NaN,NA,NA,NA,NA,left,4500,0,3,2223
RzNbgDtK,3ac6mfv6anv2a7u5af0lkpxttwbhzq,3a1cohj8nn8pdvrcsr5awpwhyzph8p,RzNbgDtK,2020-0188,2021-10-30,18:55:16,20:30:59,NA,incomplete,false,true,NA,NA,1,0,NA,yellow,m_s_115.jpg,NA,NA,NA,NA,NA,pleasant,unpleasant,NA,NA,NA,NA,NA,right,3359,true,NA,NA,NA,NA,NA,NA,NA,NA
RzNbgDtK,3ac6mfv6anv2a7u5af0lkpxttwbhzq,3a1cohj8nn8pdvrcsr5awpwhyzph8p,RzNbgDtK,2020-0188,2021-10-30,18:55:16,20:30:59,NA,incomplete,false,true,NA,NA,1,1,NA,yellow,n_l_028.jpg,NA,NA,NA,NA,NA,pleasant,unpleasant,NA,NA,NA,NA,NA,left,1584,true,NA,NA,NA,NA,NA,NA,NA,NA
RzNbgDtK,3ac6mfv6anv2a7u5af0lkpxttwbhzq,3a1cohj8nn8pdvrcsr5awpwhyzph8p,RzNbgDtK,2020-0188,2021-10-30,18:55:16,20:30:59,NA,incomplete,false,true,NA,NA,1,2,NA,yellow,n_l_053.jpg,NA,NA,NA,NA,NA,pleasant,unpleasant,NA,NA,NA,NA,NA,right,1201,true,NA,NA,NA,NA,NA,NA,NA,NA
RzNbgDtK,3ac6mfv6anv2a7u5af0lkpxttwbhzq,3a1cohj8nn8pdvrcsr5awpwhyzph8p,RzNbgDtK,2020-0188,2021-10-30,18:55:16,20:30:59,NA,incomplete,false,true,NA,NA,1,3,NA,yellow,m_l_093.jpg,NA,NA,NA,NA,NA,unpleasant,pleasant,NA,NA,NA,NA,NA,left,1319,true,NA,NA,NA,NA,NA,NA,NA,NA
RzNbgDtK,3ac6mfv6anv2a7u5af0lkpxttwbhzq,3a1cohj8nn8pdvrcsr5awpwhyzph8p,RzNbgDtK,2020-0188,2021-10-30,18:55:16,20:30:59,NA,incomplete,false,true,NA,NA,1,4,NA,yellow,m_l_046.jpg,NA,NA,NA,NA,NA,unpleasant,pleasant,NA,NA,NA,NA,NA,left,1968,true,NA,NA,NA,NA,NA,NA,NA,NA
RzNbgDtK,3ac6mfv6anv2a7u5af0lkpxttwbhzq,3a1cohj8nn8pdvrcsr5awpwhyzph8p,RzNbgDtK,2020-0188,2021-10-30,18:55:16,20:30:59,NA,incomplete,false,true,NA,NA,1,5,NA,yellow,m_l_087.jpg,NA,NA,NA,NA,NA,unpleasant,pleasant,NA,NA,NA,NA,NA,right,1179,true,NA,NA,NA,NA,NA,NA,NA,NA
RzNbgDtK,3ac6mfv6anv2a7u5af0lkpxttwbhzq,3a1cohj8nn8pdvrcsr5awpwhyzph8p,RzNbgDtK,2020-0188,2021-10-30,18:55:16,20:30:59,NA,incomplete,false,true,NA,NA,1,6,NA,black,m_l_103.jpg,NA,NA,NA,NA,NA,pleasant,unpleasant,NA,NA,NA,NA,NA,left,1184,true,NA,NA,NA,NA,NA,NA,NA,NA
RzNbgDtK,3ac6mfv6anv2a7u5af0lkpxttwbhzq,3a1cohj8nn8pdvrcsr5awpwhyzph8p,RzNbgDtK,2020-0188,2021-10-30,18:55:16,20:30:59,NA,incomplete,false,true,NA,NA,1,7,NA,black,n_s_110.jpg,NA,NA,NA,NA,NA,unpleasant,pleasant,NA,NA,NA,NA,NA,left,1349,true,NA,NA,NA,NA,NA,NA,NA,NA
RzNbgDtK,3ac6mfv6anv2a7u5af0lkpxttwbhzq,3a1cohj8nn8pdvrcsr5awpwhyzph8p,RzNbgDtK,2020-0188,2021-10-30,18:55:16,20:30:59,NA,incomplete,false,true,NA,NA,1,8,NA,black,n_s_108.jpg,NA,NA,NA,NA,NA,pleasant,unpleasant,NA,NA,NA,NA,NA,right,1400,true,NA,NA,NA,NA,NA,NA,NA,NA
RzNbgDtK,3ac6mfv6anv2a7u5af0lkpxttwbhzq,3a1cohj8nn8pdvrcsr5awpwhyzph8p,RzNbgDtK,2020-0188,2021-10-30,18:55:16,20:30:59,NA,incomplete,false,true,NA,NA,1,9,NA,black,n_s_043.jpg,NA,NA,NA,NA,NA,pleasant,unpleasant,NA,NA,NA,NA,NA,left,1919,true,NA,NA,NA,NA,NA,NA,NA,NA
RzNbgDtK,3ac6mfv6anv2a7u5af0lkpxttwbhzq,3a1cohj8nn8pdvrcsr5awpwhyzph8p,RzNbgDtK,2020-0188,2021-10-30,18:55:16,20:30:59,NA,incomplete,false,true,NA,NA,1,10,NA,black,m_s_049.jpg,NA,NA,NA,NA,NA,pleasant,unpleasant,NA,NA,NA,NA,NA,left,1574,true,NA,NA,NA,NA,NA,NA,NA,NA
RzNbgDtK,3ac6mfv6anv2a7u5af0lkpxttwbhzq,3a1cohj8nn8pdvrcsr5awpwhyzph8p,RzNbgDtK,2020-0188,2021-10-30,18:55:16,20:30:59,NA,incomplete,false,true,NA,NA,1,11,NA,black,n_s_100.jpg,NA,NA,NA,NA,NA,unpleasant,pleasant,NA,NA,NA,NA,NA,left,1599,true,NA,NA,NA,NA,NA,NA,NA,NA
RzNbgDtK,3ac6mfv6anv2a7u5af0lkpxttwbhzq,3a1cohj8nn8pdvrcsr5awpwhyzph8p,RzNbgDtK,2020-0188,2021-10-30,18:55:16,20:30:59,NA,incomplete,false,true,NA,NA,1,12,NA,red,n_l_090.jpg,NA,NA,NA,NA,NA,unpleasant,pleasant,NA,NA,NA,NA,NA,left,1921,true,NA,NA,NA,NA,NA,NA,NA,NA
RzNbgDtK,3ac6mfv6anv2a7u5af0lkpxttwbhzq,3a1cohj8nn8pdvrcsr5awpwhyzph8p,RzNbgDtK,2020-0188,2021-10-30,18:55:16,20:30:59,NA,incomplete,false,true,NA,NA,1,13,NA,red,n_l_069.jpg,NA,NA,NA,NA,NA,unpleasant,pleasant,NA,NA,NA,NA,NA,left,1504,true,NA,NA,NA,NA,NA,NA,NA,NA
RzNbgDtK,3ac6mfv6anv2a7u5af0lkpxttwbhzq,3a1cohj8nn8pdvrcsr5awpwhyzph8p,RzNbgDtK,2020-0188,2021-10-30,18:55:16,20:30:59,NA,incomplete,false,true,NA,NA,1,14,NA,red,m_s_046.jpg,NA,NA,NA,NA,NA,unpleasant,pleasant,NA,NA,NA,NA,NA,left,2664,true,NA,NA,NA,NA,NA,NA,NA,NA
RzNbgDtK,3ac6mfv6anv2a7u5af0lkpxttwbhzq,3a1cohj8nn8pdvrcsr5awpwhyzph8p,RzNbgDtK,2020-0188,2021-10-30,18:55:16,20:30:59,NA,incomplete,false,true,NA,NA,1,15,NA,red,m_l_025.jpg,NA,NA,NA,NA,NA,unpleasant,pleasant,NA,NA,NA,NA,NA,right,1331,true,NA,NA,NA,NA,NA,NA,NA,NA
RzNbgDtK,3ac6mfv6anv2a7u5af0lkpxttwbhzq,3a1cohj8nn8pdvrcsr5awpwhyzph8p,RzNbgDtK,2020-0188,2021-10-30,18:55:16,20:30:59,NA,incomplete,false,true,NA,NA,1,16,NA,red,n_s_032.jpg,NA,NA,NA,NA,NA,unpleasant,pleasant,NA,NA,NA,NA,NA,left,1235,true,NA,NA,NA,NA,NA,NA,NA,NA
RzNbgDtK,3ac6mfv6anv2a7u5af0lkpxttwbhzq,3a1cohj8nn8pdvrcsr5awpwhyzph8p,RzNbgDtK,2020-0188,2021-10-30,18:55:16,20:30:59,NA,incomplete,false,true,NA,NA,1,17,NA,red,m_l_026.jpg,NA,NA,NA,NA,NA,pleasant,unpleasant,NA,NA,NA,NA,NA,right,1140,true,NA,NA,NA,NA,NA,NA,NA,NA
RzNbgDtK,3ac6mfv6anv2a7u5af0lkpxttwbhzq,3a1cohj8nn8pdvrcsr5awpwhyzph8p,RzNbgDtK,2020-0188,2021-10-30,18:55:16,20:30:59,NA,incomplete,false,true,NA,NA,1,18,NA,white,n_l_050.jpg,NA,NA,NA,NA,NA,pleasant,unpleasant,NA,NA,NA,NA,NA,right,2559,true,NA,NA,NA,NA,NA,NA,NA,NA
RzNbgDtK,3ac6mfv6anv2a7u5af0lkpxttwbhzq,3a1cohj8nn8pdvrcsr5awpwhyzph8p,RzNbgDtK,2020-0188,2021-10-30,18:55:16,20:30:59,NA,incomplete,false,true,NA,NA,1,19,NA,white,m_l_047.jpg,NA,NA,NA,NA,NA,pleasant,unpleasant,NA,NA,NA,NA,NA,right,1227,true,NA,NA,NA,NA,NA,NA,NA,NA
RzNbgDtK,3ac6mfv6anv2a7u5af0lkpxttwbhzq,3a1cohj8nn8pdvrcsr5awpwhyzph8p,RzNbgDtK,2020-0188,2021-10-30,18:55:16,20:30:59,NA,incomplete,false,true,NA,NA,1,20,NA,white,m_l_115.jpg,NA,NA,NA,NA,NA,unpleasant,pleasant,NA,NA,NA,NA,NA,right,1321,true,NA,NA,NA,NA,NA,NA,NA,NA
RzNbgDtK,3ac6mfv6anv2a7u5af0lkpxttwbhzq,3a1cohj8nn8pdvrcsr5awpwhyzph8p,RzNbgDtK,2020-0188,2021-10-30,18:55:16,20:30:59,NA,incomplete,false,true,NA,NA,1,21,NA,white,n_s_083.jpg,NA,NA,NA,NA,NA,pleasant,unpleasant,NA,NA,NA,NA,NA,left,1740,true,NA,NA,NA,NA,NA,NA,NA,NA
RzNbgDtK,3ac6mfv6anv2a7u5af0lkpxttwbhzq,3a1cohj8nn8pdvrcsr5awpwhyzph8p,RzNbgDtK,2020-0188,2021-10-30,18:55:16,20:30:59,NA,incomplete,false,true,NA,NA,1,22,NA,white,n_s_095.jpg,NA,NA,NA,NA,NA,pleasant,unpleasant,NA,NA,NA,NA,NA,right,1595,true,NA,NA,NA,NA,NA,NA,NA,NA
RzNbgDtK,3ac6mfv6anv2a7u5af0lkpxttwbhzq,3a1cohj8nn8pdvrcsr5awpwhyzph8p,RzNbgDtK,2020-0188,2021-10-30,18:55:16,20:30:59,NA,incomplete,false,true,NA,NA,1,23,NA,white,m_s_117.jpg,NA,NA,NA,NA,NA,pleasant,unpleasant,NA,NA,NA,NA,NA,right,2150,true,NA,NA,NA,NA,NA,NA,NA,NA
RzNbgDtK,3ac6mfv6anv2a7u5af0lkpxttwbhzq,3a1cohj8nn8pdvrcsr5awpwhyzph8p,RzNbgDtK,2020-0188,2021-10-30,18:55:16,20:30:59,NA,incomplete,false,true,NA,NA,1,24,NA,gray,n_s_068.jpg,NA,NA,NA,NA,NA,pleasant,unpleasant,NA,NA,NA,NA,NA,left,1538,true,NA,NA,NA,NA,NA,NA,NA,NA
RzNbgDtK,3ac6mfv6anv2a7u5af0lkpxttwbhzq,3a1cohj8nn8pdvrcsr5awpwhyzph8p,RzNbgDtK,2020-0188,2021-10-30,18:55:16,20:30:59,NA,incomplete,false,true,NA,NA,1,25,NA,gray,n_l_067.jpg,NA,NA,NA,NA,NA,unpleasant,pleasant,NA,NA,NA,NA,NA,left,1558,true,NA,NA,NA,NA,NA,NA,NA,NA
RzNbgDtK,3ac6mfv6anv2a7u5af0lkpxttwbhzq,3a1cohj8nn8pdvrcsr5awpwhyzph8p,RzNbgDtK,2020-0188,2021-10-30,18:55:16,20:30:59,NA,incomplete,false,true,NA,NA,1,26,NA,gray,n_s_009.jpg,NA,NA,NA,NA,NA,unpleasant,pleasant,NA,NA,NA,NA,NA,right,946,true,NA,NA,NA,NA,NA,NA,NA,NA
RzNbgDtK,3ac6mfv6anv2a7u5af0lkpxttwbhzq,3a1cohj8nn8pdvrcsr5awpwhyzph8p,RzNbgDtK,2020-0188,2021-10-30,18:55:16,20:30:59,NA,incomplete,false,true,NA,NA,1,27,NA,gray,n_s_015.jpg,NA,NA,NA,NA,NA,pleasant,unpleasant,NA,NA,NA,NA,NA,right,1816,true,NA,NA,NA,NA,NA,NA,NA,NA
RzNbgDtK,3ac6mfv6anv2a7u5af0lkpxttwbhzq,3a1cohj8nn8pdvrcsr5awpwhyzph8p,RzNbgDtK,2020-0188,2021-10-30,18:55:16,20:30:59,NA,incomplete,false,true,NA,NA,1,28,NA,gray,m_l_109.jpg,NA,NA,NA,NA,NA,pleasant,unpleasant,NA,NA,NA,NA,NA,left,2131,true,NA,NA,NA,NA,NA,NA,NA,NA
RzNbgDtK,3ac6mfv6anv2a7u5af0lkpxttwbhzq,3a1cohj8nn8pdvrcsr5awpwhyzph8p,RzNbgDtK,2020-0188,2021-10-30,18:55:16,20:30:59,NA,incomplete,false,true,NA,NA,1,29,NA,gray,n_l_013.jpg,NA,NA,NA,NA,NA,pleasant,unpleasant,NA,NA,NA,NA,NA,right,1145,true,NA,NA,NA,NA,NA,NA,NA,NA
RzNbgDtK,3ac6mfv6anv2a7u5af0lkpxttwbhzq,3a1cohj8nn8pdvrcsr5awpwhyzph8p,RzNbgDtK,2020-0188,2021-10-30,18:55:16,20:30:59,NA,incomplete,false,true,NA,NA,1,30,NA,brown,n_s_003.jpg,NA,NA,NA,NA,NA,unpleasant,pleasant,NA,NA,NA,NA,NA,left,1392,true,NA,NA,NA,NA,NA,NA,NA,NA
RzNbgDtK,3ac6mfv6anv2a7u5af0lkpxttwbhzq,3a1cohj8nn8pdvrcsr5awpwhyzph8p,RzNbgDtK,2020-0188,2021-10-30,18:55:16,20:30:59,NA,incomplete,false,true,NA,NA,1,31,NA,brown,m_l_043.jpg,NA,NA,NA,NA,NA,unpleasant,pleasant,NA,NA,NA,NA,NA,right,1157,true,NA,NA,NA,NA,NA,NA,NA,NA
RzNbgDtK,3ac6mfv6anv2a7u5af0lkpxttwbhzq,3a1cohj8nn8pdvrcsr5awpwhyzph8p,RzNbgDtK,2020-0188,2021-10-30,18:55:16,20:30:59,NA,incomplete,false,true,NA,NA,1,32,NA,brown,n_l_095.jpg,NA,NA,NA,NA,NA,pleasant,unpleasant,NA,NA,NA,NA,NA,right,1744,true,NA,NA,NA,NA,NA,NA,NA,NA
RzNbgDtK,3ac6mfv6anv2a7u5af0lkpxttwbhzq,3a1cohj8nn8pdvrcsr5awpwhyzph8p,RzNbgDtK,2020-0188,2021-10-30,18:55:16,20:30:59,NA,incomplete,false,true,NA,NA,1,33,NA,brown,n_l_092.jpg,NA,NA,NA,NA,NA,pleasant,unpleasant,NA,NA,NA,NA,NA,right,1576,true,NA,NA,NA,NA,NA,NA,NA,NA
RzNbgDtK,3ac6mfv6anv2a7u5af0lkpxttwbhzq,3a1cohj8nn8pdvrcsr5awpwhyzph8p,RzNbgDtK,2020-0188,2021-10-30,18:55:16,20:30:59,NA,incomplete,false,true,NA,NA,1,34,NA,brown,n_s_037.jpg,NA,NA,NA,NA,NA,unpleasant,pleasant,NA,NA,NA,NA,NA,right,1765,true,NA,NA,NA,NA,NA,NA,NA,NA
RzNbgDtK,3ac6mfv6anv2a7u5af0lkpxttwbhzq,3a1cohj8nn8pdvrcsr5awpwhyzph8p,RzNbgDtK,2020-0188,2021-10-30,18:55:16,20:30:59,NA,incomplete,false,true,NA,NA,1,35,NA,brown,n_l_041.jpg,NA,NA,NA,NA,NA,unpleasant,pleasant,NA,NA,NA,NA,NA,left,1369,true,NA,NA,NA,NA,NA,NA,NA,NA
RzNbgDtK,3ac6mfv6anv2a7u5af0lkpxttwbhzq,3a1cohj8nn8pdvrcsr5awpwhyzph8p,RzNbgDtK,2020-0188,2021-10-30,18:55:16,20:30:59,NA,incomplete,false,NA,NA,true,1,0,NA,NA,NA,left,n_s_032.jpg,red,black,NA,NA,NA,NA,NA,NA,NA,NA,NA,NaN,NA,3806,right,0,NA,NA,NA,NA,NA
RzNbgDtK,3ac6mfv6anv2a7u5af0lkpxttwbhzq,3a1cohj8nn8pdvrcsr5awpwhyzph8p,RzNbgDtK,2020-0188,2021-10-30,18:55:16,20:30:59,NA,incomplete,false,NA,NA,true,1,1,NA,NA,NA,left,n_l_041.jpg,brown,gray,NA,NA,NA,NA,NA,NA,NA,NA,NA,NaN,NA,5042,left,1,NA,NA,NA,NA,NA
RzNbgDtK,3ac6mfv6anv2a7u5af0lkpxttwbhzq,3a1cohj8nn8pdvrcsr5awpwhyzph8p,RzNbgDtK,2020-0188,2021-10-30,18:55:16,20:30:59,NA,incomplete,false,NA,NA,true,1,2,NA,NA,NA,left,m_l_026.jpg,red,white,NA,NA,NA,NA,NA,NA,NA,NA,NA,NaN,NA,2573,left,1,NA,NA,NA,NA,NA
RzNbgDtK,3ac6mfv6anv2a7u5af0lkpxttwbhzq,3a1cohj8nn8pdvrcsr5awpwhyzph8p,RzNbgDtK,2020-0188,2021-10-30,18:55:16,20:30:59,NA,incomplete,false,NA,NA,true,1,3,NA,NA,NA,left,m_l_046.jpg,yellow,black,NA,NA,NA,NA,NA,NA,NA,NA,NA,NaN,NA,2308,left,1,NA,NA,NA,NA,NA
RzNbgDtK,3ac6mfv6anv2a7u5af0lkpxttwbhzq,3a1cohj8nn8pdvrcsr5awpwhyzph8p,RzNbgDtK,2020-0188,2021-10-30,18:55:16,20:30:59,NA,incomplete,false,NA,NA,true,1,4,NA,NA,NA,left,m_l_047.jpg,white,gray,NA,NA,NA,NA,NA,NA,NA,NA,NA,NaN,NA,2285,right,0,NA,NA,NA,NA,NA
RzNbgDtK,3ac6mfv6anv2a7u5af0lkpxttwbhzq,3a1cohj8nn8pdvrcsr5awpwhyzph8p,RzNbgDtK,2020-0188,2021-10-30,18:55:16,20:30:59,NA,incomplete,false,NA,NA,true,1,5,NA,NA,NA,left,m_l_087.jpg,yellow,black,NA,NA,NA,NA,NA,NA,NA,NA,NA,NaN,NA,3483,left,1,NA,NA,NA,NA,NA
RzNbgDtK,3ac6mfv6anv2a7u5af0lkpxttwbhzq,3a1cohj8nn8pdvrcsr5awpwhyzph8p,RzNbgDtK,2020-0188,2021-10-30,18:55:16,20:30:59,NA,incomplete,false,NA,NA,true,1,6,NA,NA,NA,left,n_l_013.jpg,gray,brown,NA,NA,NA,NA,NA,NA,NA,NA,NA,NaN,NA,2561,left,1,NA,NA,NA,NA,NA
RzNbgDtK,3ac6mfv6anv2a7u5af0lkpxttwbhzq,3a1cohj8nn8pdvrcsr5awpwhyzph8p,RzNbgDtK,2020-0188,2021-10-30,18:55:16,20:30:59,NA,incomplete,false,NA,NA,true,1,7,NA,NA,NA,left,n_s_100.jpg,black,yellow,NA,NA,NA,NA,NA,NA,NA,NA,NA,NaN,NA,2499,right,0,NA,NA,NA,NA,NA
RzNbgDtK,3ac6mfv6anv2a7u5af0lkpxttwbhzq,3a1cohj8nn8pdvrcsr5awpwhyzph8p,RzNbgDtK,2020-0188,2021-10-30,18:55:16,20:30:59,NA,incomplete,false,NA,NA,true,1,8,NA,NA,NA,left,m_s_117.jpg,white,red,NA,NA,NA,NA,NA,NA,NA,NA,NA,NaN,NA,4505,right,0,NA,NA,NA,NA,NA
RzNbgDtK,3ac6mfv6anv2a7u5af0lkpxttwbhzq,3a1cohj8nn8pdvrcsr5awpwhyzph8p,RzNbgDtK,2020-0188,2021-10-30,18:55:16,20:30:59,NA,incomplete,false,NA,NA,true,1,9,NA,NA,NA,right,n_s_108.jpg,red,black,NA,NA,NA,NA,NA,NA,NA,NA,NA,NaN,NA,3598,left,0,NA,NA,NA,NA,NA
RzNbgDtK,3ac6mfv6anv2a7u5af0lkpxttwbhzq,3a1cohj8nn8pdvrcsr5awpwhyzph8p,RzNbgDtK,2020-0188,2021-10-30,18:55:16,20:30:59,NA,incomplete,false,NA,NA,true,1,10,NA,NA,NA,left,n_s_095.jpg,white,gray,NA,NA,NA,NA,NA,NA,NA,NA,NA,NaN,NA,1714,right,0,NA,NA,NA,NA,NA
RzNbgDtK,3ac6mfv6anv2a7u5af0lkpxttwbhzq,3a1cohj8nn8pdvrcsr5awpwhyzph8p,RzNbgDtK,2020-0188,2021-10-30,18:55:16,20:30:59,NA,incomplete,false,NA,NA,true,1,11,NA,NA,NA,left,m_s_046.jpg,red,white,NA,NA,NA,NA,NA,NA,NA,NA,NA,NaN,NA,1786,right,0,NA,NA,NA,NA,NA
RzNbgDtK,3ac6mfv6anv2a7u5af0lkpxttwbhzq,3a1cohj8nn8pdvrcsr5awpwhyzph8p,RzNbgDtK,2020-0188,2021-10-30,18:55:16,20:30:59,NA,incomplete,false,NA,NA,true,1,12,NA,NA,NA,left,m_s_049.jpg,black,red,NA,NA,NA,NA,NA,NA,NA,NA,NA,NaN,NA,2509,right,0,NA,NA,NA,NA,NA
RzNbgDtK,3ac6mfv6anv2a7u5af0lkpxttwbhzq,3a1cohj8nn8pdvrcsr5awpwhyzph8p,RzNbgDtK,2020-0188,2021-10-30,18:55:16,20:30:59,NA,incomplete,false,NA,NA,true,1,13,NA,NA,NA,left,n_l_095.jpg,brown,gray,NA,NA,NA,NA,NA,NA,NA,NA,NA,NaN,NA,2215,right,0,NA,NA,NA,NA,NA
RzNbgDtK,3ac6mfv6anv2a7u5af0lkpxttwbhzq,3a1cohj8nn8pdvrcsr5awpwhyzph8p,RzNbgDtK,2020-0188,2021-10-30,18:55:16,20:30:59,NA,incomplete,false,NA,NA,true,1,14,NA,NA,NA,left,m_l_115.jpg,white,red,NA,NA,NA,NA,NA,NA,NA,NA,NA,NaN,NA,1678,left,1,NA,NA,NA,NA,NA
RzNbgDtK,3ac6mfv6anv2a7u5af0lkpxttwbhzq,3a1cohj8nn8pdvrcsr5awpwhyzph8p,RzNbgDtK,2020-0188,2021-10-30,18:55:16,20:30:59,NA,incomplete,false,NA,NA,true,1,15,NA,NA,NA,left,m_l_043.jpg,brown,gray,NA,NA,NA,NA,NA,NA,NA,NA,NA,NaN,NA,1908,right,0,NA,NA,NA,NA,NA
RzNbgDtK,3ac6mfv6anv2a7u5af0lkpxttwbhzq,3a1cohj8nn8pdvrcsr5awpwhyzph8p,RzNbgDtK,2020-0188,2021-10-30,18:55:16,20:30:59,NA,incomplete,false,NA,NA,true,1,16,NA,NA,NA,right,n_l_067.jpg,white,gray,NA,NA,NA,NA,NA,NA,NA,NA,NA,NaN,NA,4311,right,1,NA,NA,NA,NA,NA
RzNbgDtK,3ac6mfv6anv2a7u5af0lkpxttwbhzq,3a1cohj8nn8pdvrcsr5awpwhyzph8p,RzNbgDtK,2020-0188,2021-10-30,18:55:16,20:30:59,NA,incomplete,false,NA,NA,true,1,17,NA,NA,NA,right,n_s_110.jpg,red,black,NA,NA,NA,NA,NA,NA,NA,NA,NA,NaN,NA,2260,left,0,NA,NA,NA,NA,NA
RzNbgDtK,3ac6mfv6anv2a7u5af0lkpxttwbhzq,3a1cohj8nn8pdvrcsr5awpwhyzph8p,RzNbgDtK,2020-0188,2021-10-30,18:55:16,20:30:59,NA,incomplete,false,NA,NA,true,1,18,NA,NA,NA,left,m_l_109.jpg,gray,brown,NA,NA,NA,NA,NA,NA,NA,NA,NA,NaN,NA,3714,left,1,NA,NA,NA,NA,NA
RzNbgDtK,3ac6mfv6anv2a7u5af0lkpxttwbhzq,3a1cohj8nn8pdvrcsr5awpwhyzph8p,RzNbgDtK,2020-0188,2021-10-30,18:55:16,20:30:59,NA,incomplete,false,NA,NA,true,1,19,NA,NA,NA,right,n_l_069.jpg,black,red,NA,NA,NA,NA,NA,NA,NA,NA,NA,NaN,NA,7352,right,1,NA,NA,NA,NA,NA
RzNbgDtK,3ac6mfv6anv2a7u5af0lkpxttwbhzq,3a1cohj8nn8pdvrcsr5awpwhyzph8p,RzNbgDtK,2020-0188,2021-10-30,18:55:16,20:30:59,NA,incomplete,false,NA,NA,true,1,20,NA,NA,NA,left,n_s_009.jpg,gray,white,NA,NA,NA,NA,NA,NA,NA,NA,NA,NaN,NA,2611,left,1,NA,NA,NA,NA,NA
RzNbgDtK,3ac6mfv6anv2a7u5af0lkpxttwbhzq,3a1cohj8nn8pdvrcsr5awpwhyzph8p,RzNbgDtK,2020-0188,2021-10-30,18:55:16,20:30:59,NA,incomplete,false,NA,NA,true,1,21,NA,NA,NA,right,n_l_028.jpg,black,yellow,NA,NA,NA,NA,NA,NA,NA,NA,NA,NaN,NA,2156,right,1,NA,NA,NA,NA,NA
RzNbgDtK,3ac6mfv6anv2a7u5af0lkpxttwbhzq,3a1cohj8nn8pdvrcsr5awpwhyzph8p,RzNbgDtK,2020-0188,2021-10-30,18:55:16,20:30:59,NA,incomplete,false,NA,true,NA,1,0,NA,NA,NA,right,NA,NA,NA,absent,NA,NA,m_s_046.jpg,red,m_s_049.jpg,black,between,NA,NaN,NA,NA,NA,NA,right,3807,1,1,3362
RzNbgDtK,3ac6mfv6anv2a7u5af0lkpxttwbhzq,3a1cohj8nn8pdvrcsr5awpwhyzph8p,RzNbgDtK,2020-0188,2021-10-30,18:55:16,20:30:59,NA,incomplete,false,NA,true,NA,1,1,NA,NA,NA,right,NA,NA,NA,absent,NA,NA,m_s_117.jpg,white,m_l_047.jpg,white,within,NA,NaN,NA,NA,NA,NA,right,2448,1,0,1441
RzNbgDtK,3ac6mfv6anv2a7u5af0lkpxttwbhzq,3a1cohj8nn8pdvrcsr5awpwhyzph8p,RzNbgDtK,2020-0188,2021-10-30,18:55:16,20:30:59,NA,incomplete,false,NA,true,NA,1,2,NA,NA,NA,right,NA,NA,NA,absent,NA,NA,n_s_009.jpg,gray,n_s_095.jpg,white,between,NA,NaN,NA,NA,NA,NA,right,3647,1,3,1264
RzNbgDtK,3ac6mfv6anv2a7u5af0lkpxttwbhzq,3a1cohj8nn8pdvrcsr5awpwhyzph8p,RzNbgDtK,2020-0188,2021-10-30,18:55:16,20:30:59,NA,incomplete,false,NA,true,NA,1,3,NA,NA,NA,left,NA,NA,NA,absent,NA,NA,m_l_046.jpg,yellow,n_s_108.jpg,black,between,NA,NaN,NA,NA,NA,NA,left,2466,1,1,1828
RzNbgDtK,3ac6mfv6anv2a7u5af0lkpxttwbhzq,3a1cohj8nn8pdvrcsr5awpwhyzph8p,RzNbgDtK,2020-0188,2021-10-30,18:55:16,20:30:59,NA,incomplete,false,NA,true,NA,1,4,NA,NA,NA,left,NA,NA,NA,absent,NA,NA,n_s_110.jpg,black,n_s_100.jpg,black,within,NA,NaN,NA,NA,NA,NA,right,5091,0,2,4785
RzNbgDtK,3ac6mfv6anv2a7u5af0lkpxttwbhzq,3a1cohj8nn8pdvrcsr5awpwhyzph8p,RzNbgDtK,2020-0188,2021-10-30,18:55:16,20:30:59,NA,incomplete,false,NA,true,NA,1,5,NA,NA,NA,left,NA,NA,NA,absent,NA,NA,m_l_109.jpg,gray,n_l_095.jpg,brown,between,NA,NaN,NA,NA,NA,NA,left,4263,1,0,1197
RzNbgDtK,3ac6mfv6anv2a7u5af0lkpxttwbhzq,3a1cohj8nn8pdvrcsr5awpwhyzph8p,RzNbgDtK,2020-0188,2021-10-30,18:55:16,20:30:59,NA,incomplete,false,NA,true,NA,1,6,NA,NA,NA,right,NA,NA,NA,absent,NA,NA,n_l_041.jpg,brown,m_l_043.jpg,brown,within,NA,NaN,NA,NA,NA,NA,right,2208,1,3,1272
RzNbgDtK,3ac6mfv6anv2a7u5af0lkpxttwbhzq,3a1cohj8nn8pdvrcsr5awpwhyzph8p,RzNbgDtK,2020-0188,2021-10-30,18:55:16,20:30:59,NA,incomplete,false,NA,true,NA,1,7,NA,NA,NA,left,NA,NA,NA,absent,NA,NA,n_l_069.jpg,red,m_l_026.jpg,red,within,NA,NaN,NA,NA,NA,NA,right,2107,0,3,1183
RzNbgDtK,3ac6mfv6anv2a7u5af0lkpxttwbhzq,3a1cohj8nn8pdvrcsr5awpwhyzph8p,RzNbgDtK,2020-0188,2021-10-30,18:55:16,20:30:59,NA,incomplete,false,NA,true,NA,1,8,NA,NA,NA,right,NA,NA,NA,absent,NA,NA,n_l_013.jpg,gray,n_l_067.jpg,gray,within,NA,NaN,NA,NA,NA,NA,left,2689,0,2,1393
RzNbgDtK,3ac6mfv6anv2a7u5af0lkpxttwbhzq,3a1cohj8nn8pdvrcsr5awpwhyzph8p,RzNbgDtK,2020-0188,2021-10-30,18:55:16,20:30:59,NA,incomplete,false,NA,true,NA,1,9,NA,NA,NA,right,NA,NA,NA,absent,NA,NA,m_l_115.jpg,white,n_s_032.jpg,red,between,NA,NaN,NA,NA,NA,NA,left,4493,0,2,1180
RzNbgDtK,3ac6mfv6anv2a7u5af0lkpxttwbhzq,3a1cohj8nn8pdvrcsr5awpwhyzph8p,RzNbgDtK,2020-0188,2021-10-30,18:55:16,20:30:59,NA,incomplete,false,NA,true,NA,1,10,NA,NA,NA,right,NA,NA,NA,absent,NA,NA,m_l_087.jpg,yellow,n_l_028.jpg,yellow,within,NA,NaN,NA,NA,NA,NA,right,1981,1,0,1881
RzNbgDtK,3ac6mfv6anv2a7u5af0lkpxttwbhzq,3a1cohj8nn8pdvrcsr5awpwhyzph8p,RzNbgDtK,2020-0188,2021-10-30,18:55:16,20:30:59,NA,incomplete,false,true,NA,NA,2,0,NA,red,m_s_008.jpg,NA,NA,NA,NA,NA,pleasant,unpleasant,NA,NA,NA,NA,NA,left,1679,true,NA,NA,NA,NA,NA,NA,NA,NA
RzNbgDtK,3ac6mfv6anv2a7u5af0lkpxttwbhzq,3a1cohj8nn8pdvrcsr5awpwhyzph8p,RzNbgDtK,2020-0188,2021-10-30,18:55:16,20:30:59,NA,incomplete,false,true,NA,NA,2,1,NA,red,m_s_020.jpg,NA,NA,NA,NA,NA,unpleasant,pleasant,NA,NA,NA,NA,NA,right,1383,true,NA,NA,NA,NA,NA,NA,NA,NA
RzNbgDtK,3ac6mfv6anv2a7u5af0lkpxttwbhzq,3a1cohj8nn8pdvrcsr5awpwhyzph8p,RzNbgDtK,2020-0188,2021-10-30,18:55:16,20:30:59,NA,incomplete,false,true,NA,NA,2,2,NA,red,m_s_002.jpg,NA,NA,NA,NA,NA,unpleasant,pleasant,NA,NA,NA,NA,NA,left,1302,true,NA,NA,NA,NA,NA,NA,NA,NA
RzNbgDtK,3ac6mfv6anv2a7u5af0lkpxttwbhzq,3a1cohj8nn8pdvrcsr5awpwhyzph8p,RzNbgDtK,2020-0188,2021-10-30,18:55:16,20:30:59,NA,incomplete,false,true,NA,NA,2,3,NA,red,m_l_096.jpg,NA,NA,NA,NA,NA,pleasant,unpleasant,NA,NA,NA,NA,NA,right,1384,true,NA,NA,NA,NA,NA,NA,NA,NA
RzNbgDtK,3ac6mfv6anv2a7u5af0lkpxttwbhzq,3a1cohj8nn8pdvrcsr5awpwhyzph8p,RzNbgDtK,2020-0188,2021-10-30,18:55:16,20:30:59,NA,incomplete,false,true,NA,NA,2,4,NA,red,m_l_063.jpg,NA,NA,NA,NA,NA,pleasant,unpleasant,NA,NA,NA,NA,NA,right,1246,true,NA,NA,NA,NA,NA,NA,NA,NA
RzNbgDtK,3ac6mfv6anv2a7u5af0lkpxttwbhzq,3a1cohj8nn8pdvrcsr5awpwhyzph8p,RzNbgDtK,2020-0188,2021-10-30,18:55:16,20:30:59,NA,incomplete,false,true,NA,NA,2,5,NA,red,n_s_053.jpg,NA,NA,NA,NA,NA,pleasant,unpleasant,NA,NA,NA,NA,NA,right,1253,true,NA,NA,NA,NA,NA,NA,NA,NA
RzNbgDtK,3ac6mfv6anv2a7u5af0lkpxttwbhzq,3a1cohj8nn8pdvrcsr5awpwhyzph8p,RzNbgDtK,2020-0188,2021-10-30,18:55:16,20:30:59,NA,incomplete,false,true,NA,NA,2,6,NA,orange,n_s_073.jpg,NA,NA,NA,NA,NA,unpleasant,pleasant,NA,NA,NA,NA,NA,right,2332,true,NA,NA,NA,NA,NA,NA,NA,NA
RzNbgDtK,3ac6mfv6anv2a7u5af0lkpxttwbhzq,3a1cohj8nn8pdvrcsr5awpwhyzph8p,RzNbgDtK,2020-0188,2021-10-30,18:55:16,20:30:59,NA,incomplete,false,true,NA,NA,2,7,NA,orange,m_l_081.jpg,NA,NA,NA,NA,NA,unpleasant,pleasant,NA,NA,NA,NA,NA,left,1666,true,NA,NA,NA,NA,NA,NA,NA,NA
RzNbgDtK,3ac6mfv6anv2a7u5af0lkpxttwbhzq,3a1cohj8nn8pdvrcsr5awpwhyzph8p,RzNbgDtK,2020-0188,2021-10-30,18:55:16,20:30:59,NA,incomplete,false,true,NA,NA,2,8,NA,orange,n_s_063.jpg,NA,NA,NA,NA,NA,unpleasant,pleasant,NA,NA,NA,NA,NA,left,1346,true,NA,NA,NA,NA,NA,NA,NA,NA
RzNbgDtK,3ac6mfv6anv2a7u5af0lkpxttwbhzq,3a1cohj8nn8pdvrcsr5awpwhyzph8p,RzNbgDtK,2020-0188,2021-10-30,18:55:16,20:30:59,NA,incomplete,false,true,NA,NA,2,9,NA,orange,m_l_010.jpg,NA,NA,NA,NA,NA,unpleasant,pleasant,NA,NA,NA,NA,NA,right,1434,true,NA,NA,NA,NA,NA,NA,NA,NA
RzNbgDtK,3ac6mfv6anv2a7u5af0lkpxttwbhzq,3a1cohj8nn8pdvrcsr5awpwhyzph8p,RzNbgDtK,2020-0188,2021-10-30,18:55:16,20:30:59,NA,incomplete,false,true,NA,NA,2,10,NA,orange,m_l_021.jpg,NA,NA,NA,NA,NA,pleasant,unpleasant,NA,NA,NA,NA,NA,right,1587,true,NA,NA,NA,NA,NA,NA,NA,NA
RzNbgDtK,3ac6mfv6anv2a7u5af0lkpxttwbhzq,3a1cohj8nn8pdvrcsr5awpwhyzph8p,RzNbgDtK,2020-0188,2021-10-30,18:55:16,20:30:59,NA,incomplete,false,true,NA,NA,2,11,NA,orange,n_s_039.jpg,NA,NA,NA,NA,NA,pleasant,unpleasant,NA,NA,NA,NA,NA,right,1336,true,NA,NA,NA,NA,NA,NA,NA,NA
RzNbgDtK,3ac6mfv6anv2a7u5af0lkpxttwbhzq,3a1cohj8nn8pdvrcsr5awpwhyzph8p,RzNbgDtK,2020-0188,2021-10-30,18:55:16,20:30:59,NA,incomplete,false,true,NA,NA,2,12,NA,yellow,n_l_039.jpg,NA,NA,NA,NA,NA,pleasant,unpleasant,NA,NA,NA,NA,NA,left,1500,true,NA,NA,NA,NA,NA,NA,NA,NA
RzNbgDtK,3ac6mfv6anv2a7u5af0lkpxttwbhzq,3a1cohj8nn8pdvrcsr5awpwhyzph8p,RzNbgDtK,2020-0188,2021-10-30,18:55:16,20:30:59,NA,incomplete,false,true,NA,NA,2,13,NA,yellow,n_l_045.jpg,NA,NA,NA,NA,NA,unpleasant,pleasant,NA,NA,NA,NA,NA,left,1181,true,NA,NA,NA,NA,NA,NA,NA,NA
RzNbgDtK,3ac6mfv6anv2a7u5af0lkpxttwbhzq,3a1cohj8nn8pdvrcsr5awpwhyzph8p,RzNbgDtK,2020-0188,2021-10-30,18:55:16,20:30:59,NA,incomplete,false,true,NA,NA,2,14,NA,yellow,n_s_041.jpg,NA,NA,NA,NA,NA,unpleasant,pleasant,NA,NA,NA,NA,NA,left,1791,true,NA,NA,NA,NA,NA,NA,NA,NA
RzNbgDtK,3ac6mfv6anv2a7u5af0lkpxttwbhzq,3a1cohj8nn8pdvrcsr5awpwhyzph8p,RzNbgDtK,2020-0188,2021-10-30,18:55:16,20:30:59,NA,incomplete,false,true,NA,NA,2,15,NA,yellow,n_s_024.jpg,NA,NA,NA,NA,NA,pleasant,unpleasant,NA,NA,NA,NA,NA,right,1662,true,NA,NA,NA,NA,NA,NA,NA,NA
RzNbgDtK,3ac6mfv6anv2a7u5af0lkpxttwbhzq,3a1cohj8nn8pdvrcsr5awpwhyzph8p,RzNbgDtK,2020-0188,2021-10-30,18:55:16,20:30:59,NA,incomplete,false,true,NA,NA,2,16,NA,yellow,n_s_056.jpg,NA,NA,NA,NA,NA,unpleasant,pleasant,NA,NA,NA,NA,NA,right,1478,true,NA,NA,NA,NA,NA,NA,NA,NA
RzNbgDtK,3ac6mfv6anv2a7u5af0lkpxttwbhzq,3a1cohj8nn8pdvrcsr5awpwhyzph8p,RzNbgDtK,2020-0188,2021-10-30,18:55:16,20:30:59,NA,incomplete,false,true,NA,NA,2,17,NA,yellow,n_l_006.jpg,NA,NA,NA,NA,NA,unpleasant,pleasant,NA,NA,NA,NA,NA,right,1285,true,NA,NA,NA,NA,NA,NA,NA,NA
RzNbgDtK,3ac6mfv6anv2a7u5af0lkpxttwbhzq,3a1cohj8nn8pdvrcsr5awpwhyzph8p,RzNbgDtK,2020-0188,2021-10-30,18:55:16,20:30:59,NA,incomplete,false,true,NA,NA,2,18,NA,purple,m_s_098.jpg,NA,NA,NA,NA,NA,unpleasant,pleasant,NA,NA,NA,NA,NA,left,1493,true,NA,NA,NA,NA,NA,NA,NA,NA
RzNbgDtK,3ac6mfv6anv2a7u5af0lkpxttwbhzq,3a1cohj8nn8pdvrcsr5awpwhyzph8p,RzNbgDtK,2020-0188,2021-10-30,18:55:16,20:30:59,NA,incomplete,false,true,NA,NA,2,19,NA,purple,m_l_066.jpg,NA,NA,NA,NA,NA,pleasant,unpleasant,NA,NA,NA,NA,NA,right,1173,true,NA,NA,NA,NA,NA,NA,NA,NA
RzNbgDtK,3ac6mfv6anv2a7u5af0lkpxttwbhzq,3a1cohj8nn8pdvrcsr5awpwhyzph8p,RzNbgDtK,2020-0188,2021-10-30,18:55:16,20:30:59,NA,incomplete,false,true,NA,NA,2,20,NA,purple,n_l_017.jpg,NA,NA,NA,NA,NA,unpleasant,pleasant,NA,NA,NA,NA,NA,left,1045,true,NA,NA,NA,NA,NA,NA,NA,NA
RzNbgDtK,3ac6mfv6anv2a7u5af0lkpxttwbhzq,3a1cohj8nn8pdvrcsr5awpwhyzph8p,RzNbgDtK,2020-0188,2021-10-30,18:55:16,20:30:59,NA,incomplete,false,true,NA,NA,2,21,NA,purple,n_l_085.jpg,NA,NA,NA,NA,NA,unpleasant,pleasant,NA,NA,NA,NA,NA,left,1165,true,NA,NA,NA,NA,NA,NA,NA,NA
RzNbgDtK,3ac6mfv6anv2a7u5af0lkpxttwbhzq,3a1cohj8nn8pdvrcsr5awpwhyzph8p,RzNbgDtK,2020-0188,2021-10-30,18:55:16,20:30:59,NA,incomplete,false,true,NA,NA,2,22,NA,purple,m_l_041.jpg,NA,NA,NA,NA,NA,pleasant,unpleasant,NA,NA,NA,NA,NA,right,1311,true,NA,NA,NA,NA,NA,NA,NA,NA
RzNbgDtK,3ac6mfv6anv2a7u5af0lkpxttwbhzq,3a1cohj8nn8pdvrcsr5awpwhyzph8p,RzNbgDtK,2020-0188,2021-10-30,18:55:16,20:30:59,NA,incomplete,false,true,NA,NA,2,23,NA,purple,m_l_042.jpg,NA,NA,NA,NA,NA,unpleasant,pleasant,NA,NA,NA,NA,NA,left,1182,true,NA,NA,NA,NA,NA,NA,NA,NA
RzNbgDtK,3ac6mfv6anv2a7u5af0lkpxttwbhzq,3a1cohj8nn8pdvrcsr5awpwhyzph8p,RzNbgDtK,2020-0188,2021-10-30,18:55:16,20:30:59,NA,incomplete,false,true,NA,NA,2,24,NA,blue,m_l_107.jpg,NA,NA,NA,NA,NA,unpleasant,pleasant,NA,NA,NA,NA,NA,left,1490,true,NA,NA,NA,NA,NA,NA,NA,NA
RzNbgDtK,3ac6mfv6anv2a7u5af0lkpxttwbhzq,3a1cohj8nn8pdvrcsr5awpwhyzph8p,RzNbgDtK,2020-0188,2021-10-30,18:55:16,20:30:59,NA,incomplete,false,true,NA,NA,2,25,NA,blue,m_s_057.jpg,NA,NA,NA,NA,NA,pleasant,unpleasant,NA,NA,NA,NA,NA,right,1213,true,NA,NA,NA,NA,NA,NA,NA,NA
RzNbgDtK,3ac6mfv6anv2a7u5af0lkpxttwbhzq,3a1cohj8nn8pdvrcsr5awpwhyzph8p,RzNbgDtK,2020-0188,2021-10-30,18:55:16,20:30:59,NA,incomplete,false,true,NA,NA,2,26,NA,blue,n_l_007.jpg,NA,NA,NA,NA,NA,unpleasant,pleasant,NA,NA,NA,NA,NA,left,952,true,NA,NA,NA,NA,NA,NA,NA,NA
RzNbgDtK,3ac6mfv6anv2a7u5af0lkpxttwbhzq,3a1cohj8nn8pdvrcsr5awpwhyzph8p,RzNbgDtK,2020-0188,2021-10-30,18:55:16,20:30:59,NA,incomplete,false,true,NA,NA,2,27,NA,blue,n_s_036.jpg,NA,NA,NA,NA,NA,pleasant,unpleasant,NA,NA,NA,NA,NA,left,1476,true,NA,NA,NA,NA,NA,NA,NA,NA
RzNbgDtK,3ac6mfv6anv2a7u5af0lkpxttwbhzq,3a1cohj8nn8pdvrcsr5awpwhyzph8p,RzNbgDtK,2020-0188,2021-10-30,18:55:16,20:30:59,NA,incomplete,false,true,NA,NA,2,28,NA,blue,n_l_064.jpg,NA,NA,NA,NA,NA,unpleasant,pleasant,NA,NA,NA,NA,NA,right,1152,true,NA,NA,NA,NA,NA,NA,NA,NA
RzNbgDtK,3ac6mfv6anv2a7u5af0lkpxttwbhzq,3a1cohj8nn8pdvrcsr5awpwhyzph8p,RzNbgDtK,2020-0188,2021-10-30,18:55:16,20:30:59,NA,incomplete,false,true,NA,NA,2,29,NA,blue,n_s_090.jpg,NA,NA,NA,NA,NA,unpleasant,pleasant,NA,NA,NA,NA,NA,right,1422,true,NA,NA,NA,NA,NA,NA,NA,NA
RzNbgDtK,3ac6mfv6anv2a7u5af0lkpxttwbhzq,3a1cohj8nn8pdvrcsr5awpwhyzph8p,RzNbgDtK,2020-0188,2021-10-30,18:55:16,20:30:59,NA,incomplete,false,true,NA,NA,2,30,NA,white,m_l_014.jpg,NA,NA,NA,NA,NA,unpleasant,pleasant,NA,NA,NA,NA,NA,left,1405,true,NA,NA,NA,NA,NA,NA,NA,NA
RzNbgDtK,3ac6mfv6anv2a7u5af0lkpxttwbhzq,3a1cohj8nn8pdvrcsr5awpwhyzph8p,RzNbgDtK,2020-0188,2021-10-30,18:55:16,20:30:59,NA,incomplete,false,true,NA,NA,2,31,NA,white,n_l_082.jpg,NA,NA,NA,NA,NA,unpleasant,pleasant,NA,NA,NA,NA,NA,left,2036,true,NA,NA,NA,NA,NA,NA,NA,NA
RzNbgDtK,3ac6mfv6anv2a7u5af0lkpxttwbhzq,3a1cohj8nn8pdvrcsr5awpwhyzph8p,RzNbgDtK,2020-0188,2021-10-30,18:55:16,20:30:59,NA,incomplete,false,true,NA,NA,2,32,NA,white,m_s_062.jpg,NA,NA,NA,NA,NA,unpleasant,pleasant,NA,NA,NA,NA,NA,right,1263,true,NA,NA,NA,NA,NA,NA,NA,NA
RzNbgDtK,3ac6mfv6anv2a7u5af0lkpxttwbhzq,3a1cohj8nn8pdvrcsr5awpwhyzph8p,RzNbgDtK,2020-0188,2021-10-30,18:55:16,20:30:59,NA,incomplete,false,true,NA,NA,2,33,NA,white,m_s_036.jpg,NA,NA,NA,NA,NA,pleasant,unpleasant,NA,NA,NA,NA,NA,right,1225,true,NA,NA,NA,NA,NA,NA,NA,NA
RzNbgDtK,3ac6mfv6anv2a7u5af0lkpxttwbhzq,3a1cohj8nn8pdvrcsr5awpwhyzph8p,RzNbgDtK,2020-0188,2021-10-30,18:55:16,20:30:59,NA,incomplete,false,true,NA,NA,2,34,NA,white,n_l_020.jpg,NA,NA,NA,NA,NA,pleasant,unpleasant,NA,NA,NA,NA,NA,right,1615,true,NA,NA,NA,NA,NA,NA,NA,NA
RzNbgDtK,3ac6mfv6anv2a7u5af0lkpxttwbhzq,3a1cohj8nn8pdvrcsr5awpwhyzph8p,RzNbgDtK,2020-0188,2021-10-30,18:55:16,20:30:59,NA,incomplete,false,true,NA,NA,2,35,NA,white,n_s_034.jpg,NA,NA,NA,NA,NA,unpleasant,pleasant,NA,NA,NA,NA,NA,left,1322,true,NA,NA,NA,NA,NA,NA,NA,NA
RzNbgDtK,3ac6mfv6anv2a7u5af0lkpxttwbhzq,3a1cohj8nn8pdvrcsr5awpwhyzph8p,RzNbgDtK,2020-0188,2021-10-30,18:55:16,20:30:59,NA,incomplete,false,NA,NA,true,2,0,NA,NA,NA,right,n_s_063.jpg,red,orange,NA,NA,NA,NA,NA,NA,NA,NA,NA,NaN,NA,3474,right,1,NA,NA,NA,NA,NA
RzNbgDtK,3ac6mfv6anv2a7u5af0lkpxttwbhzq,3a1cohj8nn8pdvrcsr5awpwhyzph8p,RzNbgDtK,2020-0188,2021-10-30,18:55:16,20:30:59,NA,incomplete,false,NA,NA,true,2,1,NA,NA,NA,left,m_l_021.jpg,orange,red,NA,NA,NA,NA,NA,NA,NA,NA,NA,NaN,NA,3432,left,1,NA,NA,NA,NA,NA
RzNbgDtK,3ac6mfv6anv2a7u5af0lkpxttwbhzq,3a1cohj8nn8pdvrcsr5awpwhyzph8p,RzNbgDtK,2020-0188,2021-10-30,18:55:16,20:30:59,NA,incomplete,false,NA,NA,true,2,2,NA,NA,NA,right,n_s_039.jpg,red,orange,NA,NA,NA,NA,NA,NA,NA,NA,NA,NaN,NA,2074,left,0,NA,NA,NA,NA,NA
RzNbgDtK,3ac6mfv6anv2a7u5af0lkpxttwbhzq,3a1cohj8nn8pdvrcsr5awpwhyzph8p,RzNbgDtK,2020-0188,2021-10-30,18:55:16,20:30:59,NA,incomplete,false,NA,NA,true,2,3,NA,NA,NA,left,n_l_006.jpg,yellow,purple,NA,NA,NA,NA,NA,NA,NA,NA,NA,NaN,NA,1994,left,1,NA,NA,NA,NA,NA
RzNbgDtK,3ac6mfv6anv2a7u5af0lkpxttwbhzq,3a1cohj8nn8pdvrcsr5awpwhyzph8p,RzNbgDtK,2020-0188,2021-10-30,18:55:16,20:30:59,NA,incomplete,false,NA,NA,true,2,4,NA,NA,NA,right,n_s_056.jpg,purple,yellow,NA,NA,NA,NA,NA,NA,NA,NA,NA,NaN,NA,1413,right,1,NA,NA,NA,NA,NA
RzNbgDtK,3ac6mfv6anv2a7u5af0lkpxttwbhzq,3a1cohj8nn8pdvrcsr5awpwhyzph8p,RzNbgDtK,2020-0188,2021-10-30,18:55:16,20:30:59,NA,incomplete,false,NA,NA,true,2,5,NA,NA,NA,left,n_s_041.jpg,yellow,purple,NA,NA,NA,NA,NA,NA,NA,NA,NA,NaN,NA,2603,right,0,NA,NA,NA,NA,NA
RzNbgDtK,3ac6mfv6anv2a7u5af0lkpxttwbhzq,3a1cohj8nn8pdvrcsr5awpwhyzph8p,RzNbgDtK,2020-0188,2021-10-30,18:55:16,20:30:59,NA,incomplete,false,NA,NA,true,2,6,NA,NA,NA,left,n_l_082.jpg,white,blue,NA,NA,NA,NA,NA,NA,NA,NA,NA,NaN,NA,2977,right,0,NA,NA,NA,NA,NA
RzNbgDtK,3ac6mfv6anv2a7u5af0lkpxttwbhzq,3a1cohj8nn8pdvrcsr5awpwhyzph8p,RzNbgDtK,2020-0188,2021-10-30,18:55:16,20:30:59,NA,incomplete,false,NA,NA,true,2,7,NA,NA,NA,left,m_s_062.jpg,white,blue,NA,NA,NA,NA,NA,NA,NA,NA,NA,NaN,NA,1851,left,1,NA,NA,NA,NA,NA
RzNbgDtK,3ac6mfv6anv2a7u5af0lkpxttwbhzq,3a1cohj8nn8pdvrcsr5awpwhyzph8p,RzNbgDtK,2020-0188,2021-10-30,18:55:16,20:30:59,NA,incomplete,false,NA,NA,true,2,8,NA,NA,NA,left,n_s_034.jpg,white,blue,NA,NA,NA,NA,NA,NA,NA,NA,NA,NaN,NA,2495,right,0,NA,NA,NA,NA,NA
RzNbgDtK,3ac6mfv6anv2a7u5af0lkpxttwbhzq,3a1cohj8nn8pdvrcsr5awpwhyzph8p,RzNbgDtK,2020-0188,2021-10-30,18:55:16,20:30:59,NA,incomplete,false,NA,NA,true,2,9,NA,NA,NA,right,m_s_020.jpg,orange,red,NA,NA,NA,NA,NA,NA,NA,NA,NA,NaN,NA,2535,left,0,NA,NA,NA,NA,NA
RzNbgDtK,3ac6mfv6anv2a7u5af0lkpxttwbhzq,3a1cohj8nn8pdvrcsr5awpwhyzph8p,RzNbgDtK,2020-0188,2021-10-30,18:55:16,20:30:59,NA,incomplete,false,NA,NA,true,2,10,NA,NA,NA,right,m_l_041.jpg,blue,purple,NA,NA,NA,NA,NA,NA,NA,NA,NA,NaN,NA,1715,right,1,NA,NA,NA,NA,NA
RzNbgDtK,3ac6mfv6anv2a7u5af0lkpxttwbhzq,3a1cohj8nn8pdvrcsr5awpwhyzph8p,RzNbgDtK,2020-0188,2021-10-30,18:55:16,20:30:59,NA,incomplete,false,NA,NA,true,2,11,NA,NA,NA,right,n_l_017.jpg,yellow,purple,NA,NA,NA,NA,NA,NA,NA,NA,NA,NaN,NA,2350,left,0,NA,NA,NA,NA,NA
RzNbgDtK,3ac6mfv6anv2a7u5af0lkpxttwbhzq,3a1cohj8nn8pdvrcsr5awpwhyzph8p,RzNbgDtK,2020-0188,2021-10-30,18:55:16,20:30:59,NA,incomplete,false,NA,NA,true,2,12,NA,NA,NA,left,m_l_081.jpg,orange,yellow,NA,NA,NA,NA,NA,NA,NA,NA,NA,NaN,NA,1703,right,0,NA,NA,NA,NA,NA
RzNbgDtK,3ac6mfv6anv2a7u5af0lkpxttwbhzq,3a1cohj8nn8pdvrcsr5awpwhyzph8p,RzNbgDtK,2020-0188,2021-10-30,18:55:16,20:30:59,NA,incomplete,false,NA,NA,true,2,13,NA,NA,NA,right,m_l_063.jpg,orange,red,NA,NA,NA,NA,NA,NA,NA,NA,NA,NaN,NA,3675,left,0,NA,NA,NA,NA,NA
RzNbgDtK,3ac6mfv6anv2a7u5af0lkpxttwbhzq,3a1cohj8nn8pdvrcsr5awpwhyzph8p,RzNbgDtK,2020-0188,2021-10-30,18:55:16,20:30:59,NA,incomplete,false,NA,NA,true,2,14,NA,NA,NA,right,m_s_057.jpg,white,blue,NA,NA,NA,NA,NA,NA,NA,NA,NA,NaN,NA,2660,left,0,NA,NA,NA,NA,NA
RzNbgDtK,3ac6mfv6anv2a7u5af0lkpxttwbhzq,3a1cohj8nn8pdvrcsr5awpwhyzph8p,RzNbgDtK,2020-0188,2021-10-30,18:55:16,20:30:59,NA,incomplete,false,NA,NA,true,2,15,NA,NA,NA,right,n_s_053.jpg,orange,red,NA,NA,NA,NA,NA,NA,NA,NA,NA,NaN,NA,3514,left,0,NA,NA,NA,NA,NA
RzNbgDtK,3ac6mfv6anv2a7u5af0lkpxttwbhzq,3a1cohj8nn8pdvrcsr5awpwhyzph8p,RzNbgDtK,2020-0188,2021-10-30,18:55:16,20:30:59,NA,incomplete,false,NA,NA,true,2,16,NA,NA,NA,right,n_l_064.jpg,purple,blue,NA,NA,NA,NA,NA,NA,NA,NA,NA,NaN,NA,2922,right,1,NA,NA,NA,NA,NA
RzNbgDtK,3ac6mfv6anv2a7u5af0lkpxttwbhzq,3a1cohj8nn8pdvrcsr5awpwhyzph8p,RzNbgDtK,2020-0188,2021-10-30,18:55:16,20:30:59,NA,incomplete,false,NA,NA,true,2,17,NA,NA,NA,right,m_l_066.jpg,yellow,purple,NA,NA,NA,NA,NA,NA,NA,NA,NA,NaN,NA,2174,right,1,NA,NA,NA,NA,NA
RzNbgDtK,3ac6mfv6anv2a7u5af0lkpxttwbhzq,3a1cohj8nn8pdvrcsr5awpwhyzph8p,RzNbgDtK,2020-0188,2021-10-30,18:55:16,20:30:59,NA,incomplete,false,NA,NA,true,2,18,NA,NA,NA,left,n_l_045.jpg,yellow,orange,NA,NA,NA,NA,NA,NA,NA,NA,NA,NaN,NA,4042,left,1,NA,NA,NA,NA,NA
RzNbgDtK,3ac6mfv6anv2a7u5af0lkpxttwbhzq,3a1cohj8nn8pdvrcsr5awpwhyzph8p,RzNbgDtK,2020-0188,2021-10-30,18:55:16,20:30:59,NA,incomplete,false,NA,NA,true,2,19,NA,NA,NA,left,n_l_007.jpg,blue,white,NA,NA,NA,NA,NA,NA,NA,NA,NA,NaN,NA,3833,right,0,NA,NA,NA,NA,NA
RzNbgDtK,3ac6mfv6anv2a7u5af0lkpxttwbhzq,3a1cohj8nn8pdvrcsr5awpwhyzph8p,RzNbgDtK,2020-0188,2021-10-30,18:55:16,20:30:59,NA,incomplete,false,NA,NA,true,2,20,NA,NA,NA,left,n_s_090.jpg,blue,white,NA,NA,NA,NA,NA,NA,NA,NA,NA,NaN,NA,1526,left,1,NA,NA,NA,NA,NA
RzNbgDtK,3ac6mfv6anv2a7u5af0lkpxttwbhzq,3a1cohj8nn8pdvrcsr5awpwhyzph8p,RzNbgDtK,2020-0188,2021-10-30,18:55:16,20:30:59,NA,incomplete,false,NA,NA,true,2,21,NA,NA,NA,right,m_l_042.jpg,blue,purple,NA,NA,NA,NA,NA,NA,NA,NA,NA,NaN,NA,4823,right,1,NA,NA,NA,NA,NA
RzNbgDtK,3ac6mfv6anv2a7u5af0lkpxttwbhzq,3a1cohj8nn8pdvrcsr5awpwhyzph8p,RzNbgDtK,2020-0188,2021-10-30,18:55:16,20:30:59,NA,incomplete,false,NA,true,NA,2,0,NA,NA,NA,right,NA,NA,NA,absent,NA,NA,n_s_034.jpg,white,n_l_082.jpg,white,within,NA,NaN,NA,NA,NA,NA,right,4578,1,0,3826
RzNbgDtK,3ac6mfv6anv2a7u5af0lkpxttwbhzq,3a1cohj8nn8pdvrcsr5awpwhyzph8p,RzNbgDtK,2020-0188,2021-10-30,18:55:16,20:30:59,NA,incomplete,false,NA,true,NA,2,1,NA,NA,NA,left,NA,NA,NA,absent,NA,NA,n_l_064.jpg,blue,m_s_062.jpg,white,between,NA,NaN,NA,NA,NA,NA,left,2911,1,0,2231
RzNbgDtK,3ac6mfv6anv2a7u5af0lkpxttwbhzq,3a1cohj8nn8pdvrcsr5awpwhyzph8p,RzNbgDtK,2020-0188,2021-10-30,18:55:16,20:30:59,NA,incomplete,false,NA,true,NA,2,2,NA,NA,NA,left,NA,NA,NA,absent,NA,NA,m_l_041.jpg,purple,n_l_007.jpg,blue,between,NA,NaN,NA,NA,NA,NA,left,3638,1,3,1260
RzNbgDtK,3ac6mfv6anv2a7u5af0lkpxttwbhzq,3a1cohj8nn8pdvrcsr5awpwhyzph8p,RzNbgDtK,2020-0188,2021-10-30,18:55:16,20:30:59,NA,incomplete,false,NA,true,NA,2,3,NA,NA,NA,left,NA,NA,NA,absent,NA,NA,m_l_021.jpg,orange,n_s_041.jpg,yellow,between,NA,NaN,NA,NA,NA,NA,left,3296,1,2,1576
RzNbgDtK,3ac6mfv6anv2a7u5af0lkpxttwbhzq,3a1cohj8nn8pdvrcsr5awpwhyzph8p,RzNbgDtK,2020-0188,2021-10-30,18:55:16,20:30:59,NA,incomplete,false,NA,true,NA,2,4,NA,NA,NA,left,NA,NA,NA,absent,NA,NA,m_s_020.jpg,red,n_s_053.jpg,red,within,NA,NaN,NA,NA,NA,NA,right,2989,0,1,1372
RzNbgDtK,3ac6mfv6anv2a7u5af0lkpxttwbhzq,3a1cohj8nn8pdvrcsr5awpwhyzph8p,RzNbgDtK,2020-0188,2021-10-30,18:55:16,20:30:59,NA,incomplete,false,NA,true,NA,2,5,NA,NA,NA,left,NA,NA,NA,absent,NA,NA,m_l_063.jpg,red,n_s_063.jpg,orange,between,NA,NaN,NA,NA,NA,NA,left,2052,1,0,1359
RzNbgDtK,3ac6mfv6anv2a7u5af0lkpxttwbhzq,3a1cohj8nn8pdvrcsr5awpwhyzph8p,RzNbgDtK,2020-0188,2021-10-30,18:55:16,20:30:59,NA,incomplete,false,NA,true,NA,2,6,NA,NA,NA,right,NA,NA,NA,absent,NA,NA,n_s_090.jpg,blue,m_s_057.jpg,blue,within,NA,NaN,NA,NA,NA,NA,right,3134,1,2,1206
RzNbgDtK,3ac6mfv6anv2a7u5af0lkpxttwbhzq,3a1cohj8nn8pdvrcsr5awpwhyzph8p,RzNbgDtK,2020-0188,2021-10-30,18:55:16,20:30:59,NA,incomplete,false,NA,true,NA,2,7,NA,NA,NA,right,NA,NA,NA,absent,NA,NA,m_l_042.jpg,purple,m_l_066.jpg,purple,within,NA,NaN,NA,NA,NA,NA,left,1893,0,1,2994
RzNbgDtK,3ac6mfv6anv2a7u5af0lkpxttwbhzq,3a1cohj8nn8pdvrcsr5awpwhyzph8p,RzNbgDtK,2020-0188,2021-10-30,18:55:16,20:30:59,NA,incomplete,false,NA,true,NA,2,8,NA,NA,NA,left,NA,NA,NA,absent,NA,NA,m_l_081.jpg,orange,n_s_039.jpg,orange,within,NA,NaN,NA,NA,NA,NA,left,2046,1,0,1164
RzNbgDtK,3ac6mfv6anv2a7u5af0lkpxttwbhzq,3a1cohj8nn8pdvrcsr5awpwhyzph8p,RzNbgDtK,2020-0188,2021-10-30,18:55:16,20:30:59,NA,incomplete,false,NA,true,NA,2,9,NA,NA,NA,left,NA,NA,NA,absent,NA,NA,n_s_056.jpg,yellow,n_l_017.jpg,purple,between,NA,NaN,NA,NA,NA,NA,left,2254,1,0,1405
RzNbgDtK,3ac6mfv6anv2a7u5af0lkpxttwbhzq,3a1cohj8nn8pdvrcsr5awpwhyzph8p,RzNbgDtK,2020-0188,2021-10-30,18:55:16,20:30:59,NA,incomplete,false,NA,true,NA,2,10,NA,NA,NA,right,NA,NA,NA,absent,NA,NA,n_l_006.jpg,yellow,n_l_045.jpg,yellow,within,NA,NaN,NA,NA,NA,NA,right,1896,1,2,1299
RzNbgDtK,3ac6mfv6anv2a7u5af0lkpxttwbhzq,3a1cohj8nn8pdvrcsr5awpwhyzph8p,RzNbgDtK,2020-0188,2021-10-30,18:55:16,20:30:59,NA,incomplete,false,true,NA,NA,3,0,NA,white,n_l_075.jpg,NA,NA,NA,NA,NA,unpleasant,pleasant,NA,NA,NA,NA,NA,left,1793,true,NA,NA,NA,NA,NA,NA,NA,NA
RzNbgDtK,3ac6mfv6anv2a7u5af0lkpxttwbhzq,3a1cohj8nn8pdvrcsr5awpwhyzph8p,RzNbgDtK,2020-0188,2021-10-30,18:55:16,20:30:59,NA,incomplete,false,true,NA,NA,3,1,NA,white,n_l_094.jpg,NA,NA,NA,NA,NA,unpleasant,pleasant,NA,NA,NA,NA,NA,left,1228,true,NA,NA,NA,NA,NA,NA,NA,NA
RzNbgDtK,3ac6mfv6anv2a7u5af0lkpxttwbhzq,3a1cohj8nn8pdvrcsr5awpwhyzph8p,RzNbgDtK,2020-0188,2021-10-30,18:55:16,20:30:59,NA,incomplete,false,true,NA,NA,3,2,NA,white,m_s_003.jpg,NA,NA,NA,NA,NA,pleasant,unpleasant,NA,NA,NA,NA,NA,right,1346,true,NA,NA,NA,NA,NA,NA,NA,NA
RzNbgDtK,3ac6mfv6anv2a7u5af0lkpxttwbhzq,3a1cohj8nn8pdvrcsr5awpwhyzph8p,RzNbgDtK,2020-0188,2021-10-30,18:55:16,20:30:59,NA,incomplete,false,true,NA,NA,3,3,NA,white,n_s_033.jpg,NA,NA,NA,NA,NA,unpleasant,pleasant,NA,NA,NA,NA,NA,right,1192,true,NA,NA,NA,NA,NA,NA,NA,NA
RzNbgDtK,3ac6mfv6anv2a7u5af0lkpxttwbhzq,3a1cohj8nn8pdvrcsr5awpwhyzph8p,RzNbgDtK,2020-0188,2021-10-30,18:55:16,20:30:59,NA,incomplete,false,true,NA,NA,3,4,NA,white,n_s_062.jpg,NA,NA,NA,NA,NA,unpleasant,pleasant,NA,NA,NA,NA,NA,left,1150,true,NA,NA,NA,NA,NA,NA,NA,NA
RzNbgDtK,3ac6mfv6anv2a7u5af0lkpxttwbhzq,3a1cohj8nn8pdvrcsr5awpwhyzph8p,RzNbgDtK,2020-0188,2021-10-30,18:55:16,20:30:59,NA,incomplete,false,true,NA,NA,3,5,NA,white,m_l_088.jpg,NA,NA,NA,NA,NA,pleasant,unpleasant,NA,NA,NA,NA,NA,left,1317,true,NA,NA,NA,NA,NA,NA,NA,NA
RzNbgDtK,3ac6mfv6anv2a7u5af0lkpxttwbhzq,3a1cohj8nn8pdvrcsr5awpwhyzph8p,RzNbgDtK,2020-0188,2021-10-30,18:55:16,20:30:59,NA,incomplete,false,true,NA,NA,3,6,NA,yellow,n_s_045.jpg,NA,NA,NA,NA,NA,unpleasant,pleasant,NA,NA,NA,NA,NA,right,1515,true,NA,NA,NA,NA,NA,NA,NA,NA
RzNbgDtK,3ac6mfv6anv2a7u5af0lkpxttwbhzq,3a1cohj8nn8pdvrcsr5awpwhyzph8p,RzNbgDtK,2020-0188,2021-10-30,18:55:16,20:30:59,NA,incomplete,false,true,NA,NA,3,7,NA,yellow,n_l_018.jpg,NA,NA,NA,NA,NA,pleasant,unpleasant,NA,NA,NA,NA,NA,right,2006,true,NA,NA,NA,NA,NA,NA,NA,NA
RzNbgDtK,3ac6mfv6anv2a7u5af0lkpxttwbhzq,3a1cohj8nn8pdvrcsr5awpwhyzph8p,RzNbgDtK,2020-0188,2021-10-30,18:55:16,20:30:59,NA,incomplete,false,true,NA,NA,3,8,NA,yellow,m_s_048.jpg,NA,NA,NA,NA,NA,unpleasant,pleasant,NA,NA,NA,NA,NA,left,1814,true,NA,NA,NA,NA,NA,NA,NA,NA
RzNbgDtK,3ac6mfv6anv2a7u5af0lkpxttwbhzq,3a1cohj8nn8pdvrcsr5awpwhyzph8p,RzNbgDtK,2020-0188,2021-10-30,18:55:16,20:30:59,NA,incomplete,false,true,NA,NA,3,9,NA,yellow,n_l_107.jpg,NA,NA,NA,NA,NA,unpleasant,pleasant,NA,NA,NA,NA,NA,left,1522,true,NA,NA,NA,NA,NA,NA,NA,NA
RzNbgDtK,3ac6mfv6anv2a7u5af0lkpxttwbhzq,3a1cohj8nn8pdvrcsr5awpwhyzph8p,RzNbgDtK,2020-0188,2021-10-30,18:55:16,20:30:59,NA,incomplete,false,true,NA,NA,3,10,NA,yellow,n_l_097.jpg,NA,NA,NA,NA,NA,unpleasant,pleasant,NA,NA,NA,NA,NA,left,2440,true,NA,NA,NA,NA,NA,NA,NA,NA
RzNbgDtK,3ac6mfv6anv2a7u5af0lkpxttwbhzq,3a1cohj8nn8pdvrcsr5awpwhyzph8p,RzNbgDtK,2020-0188,2021-10-30,18:55:16,20:30:59,NA,incomplete,false,true,NA,NA,3,11,NA,yellow,m_s_072.jpg,NA,NA,NA,NA,NA,pleasant,unpleasant,NA,NA,NA,NA,NA,left,1398,true,NA,NA,NA,NA,NA,NA,NA,NA
RzNbgDtK,3ac6mfv6anv2a7u5af0lkpxttwbhzq,3a1cohj8nn8pdvrcsr5awpwhyzph8p,RzNbgDtK,2020-0188,2021-10-30,18:55:16,20:30:59,NA,incomplete,false,true,NA,NA,3,12,NA,gray,m_s_105.jpg,NA,NA,NA,NA,NA,pleasant,unpleasant,NA,NA,NA,NA,NA,left,1776,true,NA,NA,NA,NA,NA,NA,NA,NA
RzNbgDtK,3ac6mfv6anv2a7u5af0lkpxttwbhzq,3a1cohj8nn8pdvrcsr5awpwhyzph8p,RzNbgDtK,2020-0188,2021-10-30,18:55:16,20:30:59,NA,incomplete,false,true,NA,NA,3,13,NA,gray,m_l_073.jpg,NA,NA,NA,NA,NA,unpleasant,pleasant,NA,NA,NA,NA,NA,left,1317,true,NA,NA,NA,NA,NA,NA,NA,NA
RzNbgDtK,3ac6mfv6anv2a7u5af0lkpxttwbhzq,3a1cohj8nn8pdvrcsr5awpwhyzph8p,RzNbgDtK,2020-0188,2021-10-30,18:55:16,20:30:59,NA,incomplete,false,true,NA,NA,3,14,NA,gray,m_s_050.jpg,NA,NA,NA,NA,NA,unpleasant,pleasant,NA,NA,NA,NA,NA,left,1449,true,NA,NA,NA,NA,NA,NA,NA,NA
RzNbgDtK,3ac6mfv6anv2a7u5af0lkpxttwbhzq,3a1cohj8nn8pdvrcsr5awpwhyzph8p,RzNbgDtK,2020-0188,2021-10-30,18:55:16,20:30:59,NA,incomplete,false,true,NA,NA,3,15,NA,gray,m_s_043.jpg,NA,NA,NA,NA,NA,pleasant,unpleasant,NA,NA,NA,NA,NA,right,1338,true,NA,NA,NA,NA,NA,NA,NA,NA
RzNbgDtK,3ac6mfv6anv2a7u5af0lkpxttwbhzq,3a1cohj8nn8pdvrcsr5awpwhyzph8p,RzNbgDtK,2020-0188,2021-10-30,18:55:16,20:30:59,NA,incomplete,false,true,NA,NA,3,16,NA,gray,m_s_110.jpg,NA,NA,NA,NA,NA,pleasant,unpleasant,NA,NA,NA,NA,NA,left,1868,true,NA,NA,NA,NA,NA,NA,NA,NA
RzNbgDtK,3ac6mfv6anv2a7u5af0lkpxttwbhzq,3a1cohj8nn8pdvrcsr5awpwhyzph8p,RzNbgDtK,2020-0188,2021-10-30,18:55:16,20:30:59,NA,incomplete,false,true,NA,NA,3,17,NA,gray,m_s_035.jpg,NA,NA,NA,NA,NA,pleasant,unpleasant,NA,NA,NA,NA,NA,left,1969,true,NA,NA,NA,NA,NA,NA,NA,NA
RzNbgDtK,3ac6mfv6anv2a7u5af0lkpxttwbhzq,3a1cohj8nn8pdvrcsr5awpwhyzph8p,RzNbgDtK,2020-0188,2021-10-30,18:55:16,20:30:59,NA,incomplete,false,true,NA,NA,3,18,NA,blue,n_l_032.jpg,NA,NA,NA,NA,NA,unpleasant,pleasant,NA,NA,NA,NA,NA,left,1287,true,NA,NA,NA,NA,NA,NA,NA,NA
RzNbgDtK,3ac6mfv6anv2a7u5af0lkpxttwbhzq,3a1cohj8nn8pdvrcsr5awpwhyzph8p,RzNbgDtK,2020-0188,2021-10-30,18:55:16,20:30:59,NA,incomplete,false,true,NA,NA,3,19,NA,blue,n_l_003.jpg,NA,NA,NA,NA,NA,unpleasant,pleasant,NA,NA,NA,NA,NA,right,3020,true,NA,NA,NA,NA,NA,NA,NA,NA
RzNbgDtK,3ac6mfv6anv2a7u5af0lkpxttwbhzq,3a1cohj8nn8pdvrcsr5awpwhyzph8p,RzNbgDtK,2020-0188,2021-10-30,18:55:16,20:30:59,NA,incomplete,false,true,NA,NA,3,20,NA,blue,m_l_090.jpg,NA,NA,NA,NA,NA,unpleasant,pleasant,NA,NA,NA,NA,NA,left,2993,true,NA,NA,NA,NA,NA,NA,NA,NA
RzNbgDtK,3ac6mfv6anv2a7u5af0lkpxttwbhzq,3a1cohj8nn8pdvrcsr5awpwhyzph8p,RzNbgDtK,2020-0188,2021-10-30,18:55:16,20:30:59,NA,incomplete,false,true,NA,NA,3,21,NA,blue,n_s_106.jpg,NA,NA,NA,NA,NA,pleasant,unpleasant,NA,NA,NA,NA,NA,right,1214,true,NA,NA,NA,NA,NA,NA,NA,NA
RzNbgDtK,3ac6mfv6anv2a7u5af0lkpxttwbhzq,3a1cohj8nn8pdvrcsr5awpwhyzph8p,RzNbgDtK,2020-0188,2021-10-30,18:55:16,20:30:59,NA,incomplete,false,true,NA,NA,3,22,NA,blue,n_l_014.jpg,NA,NA,NA,NA,NA,pleasant,unpleasant,NA,NA,NA,NA,NA,right,1870,true,NA,NA,NA,NA,NA,NA,NA,NA
RzNbgDtK,3ac6mfv6anv2a7u5af0lkpxttwbhzq,3a1cohj8nn8pdvrcsr5awpwhyzph8p,RzNbgDtK,2020-0188,2021-10-30,18:55:16,20:30:59,NA,incomplete,false,true,NA,NA,3,23,NA,blue,n_s_091.jpg,NA,NA,NA,NA,NA,unpleasant,pleasant,NA,NA,NA,NA,NA,right,2392,true,NA,NA,NA,NA,NA,NA,NA,NA
RzNbgDtK,3ac6mfv6anv2a7u5af0lkpxttwbhzq,3a1cohj8nn8pdvrcsr5awpwhyzph8p,RzNbgDtK,2020-0188,2021-10-30,18:55:16,20:30:59,NA,incomplete,false,true,NA,NA,3,24,NA,orange,m_l_008.jpg,NA,NA,NA,NA,NA,unpleasant,pleasant,NA,NA,NA,NA,NA,right,1303,true,NA,NA,NA,NA,NA,NA,NA,NA
RzNbgDtK,3ac6mfv6anv2a7u5af0lkpxttwbhzq,3a1cohj8nn8pdvrcsr5awpwhyzph8p,RzNbgDtK,2020-0188,2021-10-30,18:55:16,20:30:59,NA,incomplete,false,true,NA,NA,3,25,NA,orange,n_l_116.jpg,NA,NA,NA,NA,NA,pleasant,unpleasant,NA,NA,NA,NA,NA,left,1833,true,NA,NA,NA,NA,NA,NA,NA,NA
RzNbgDtK,3ac6mfv6anv2a7u5af0lkpxttwbhzq,3a1cohj8nn8pdvrcsr5awpwhyzph8p,RzNbgDtK,2020-0188,2021-10-30,18:55:16,20:30:59,NA,incomplete,false,true,NA,NA,3,26,NA,orange,n_l_063.jpg,NA,NA,NA,NA,NA,unpleasant,pleasant,NA,NA,NA,NA,NA,left,1309,true,NA,NA,NA,NA,NA,NA,NA,NA
RzNbgDtK,3ac6mfv6anv2a7u5af0lkpxttwbhzq,3a1cohj8nn8pdvrcsr5awpwhyzph8p,RzNbgDtK,2020-0188,2021-10-30,18:55:16,20:30:59,NA,incomplete,false,true,NA,NA,3,27,NA,orange,n_s_065.jpg,NA,NA,NA,NA,NA,unpleasant,pleasant,NA,NA,NA,NA,NA,left,1189,true,NA,NA,NA,NA,NA,NA,NA,NA
RzNbgDtK,3ac6mfv6anv2a7u5af0lkpxttwbhzq,3a1cohj8nn8pdvrcsr5awpwhyzph8p,RzNbgDtK,2020-0188,2021-10-30,18:55:16,20:30:59,NA,incomplete,false,true,NA,NA,3,28,NA,orange,n_s_027.jpg,NA,NA,NA,NA,NA,pleasant,unpleasant,NA,NA,NA,NA,NA,right,1671,true,NA,NA,NA,NA,NA,NA,NA,NA
RzNbgDtK,3ac6mfv6anv2a7u5af0lkpxttwbhzq,3a1cohj8nn8pdvrcsr5awpwhyzph8p,RzNbgDtK,2020-0188,2021-10-30,18:55:16,20:30:59,NA,incomplete,false,true,NA,NA,3,29,NA,orange,n_s_023.jpg,NA,NA,NA,NA,NA,unpleasant,pleasant,NA,NA,NA,NA,NA,right,1403,true,NA,NA,NA,NA,NA,NA,NA,NA
RzNbgDtK,3ac6mfv6anv2a7u5af0lkpxttwbhzq,3a1cohj8nn8pdvrcsr5awpwhyzph8p,RzNbgDtK,2020-0188,2021-10-30,18:55:16,20:30:59,NA,incomplete,false,true,NA,NA,3,30,NA,brown,m_l_032.jpg,NA,NA,NA,NA,NA,pleasant,unpleasant,NA,NA,NA,NA,NA,left,1506,true,NA,NA,NA,NA,NA,NA,NA,NA
RzNbgDtK,3ac6mfv6anv2a7u5af0lkpxttwbhzq,3a1cohj8nn8pdvrcsr5awpwhyzph8p,RzNbgDtK,2020-0188,2021-10-30,18:55:16,20:30:59,NA,incomplete,false,true,NA,NA,3,31,NA,brown,m_l_005.jpg,NA,NA,NA,NA,NA,unpleasant,pleasant,NA,NA,NA,NA,NA,left,1215,true,NA,NA,NA,NA,NA,NA,NA,NA
RzNbgDtK,3ac6mfv6anv2a7u5af0lkpxttwbhzq,3a1cohj8nn8pdvrcsr5awpwhyzph8p,RzNbgDtK,2020-0188,2021-10-30,18:55:16,20:30:59,NA,incomplete,false,true,NA,NA,3,32,NA,brown,n_l_115.jpg,NA,NA,NA,NA,NA,pleasant,unpleasant,NA,NA,NA,NA,NA,left,1328,true,NA,NA,NA,NA,NA,NA,NA,NA
RzNbgDtK,3ac6mfv6anv2a7u5af0lkpxttwbhzq,3a1cohj8nn8pdvrcsr5awpwhyzph8p,RzNbgDtK,2020-0188,2021-10-30,18:55:16,20:30:59,NA,incomplete,false,true,NA,NA,3,33,NA,brown,m_l_086.jpg,NA,NA,NA,NA,NA,unpleasant,pleasant,NA,NA,NA,NA,NA,right,1962,true,NA,NA,NA,NA,NA,NA,NA,NA
RzNbgDtK,3ac6mfv6anv2a7u5af0lkpxttwbhzq,3a1cohj8nn8pdvrcsr5awpwhyzph8p,RzNbgDtK,2020-0188,2021-10-30,18:55:16,20:30:59,NA,incomplete,false,true,NA,NA,3,34,NA,brown,n_l_102.jpg,NA,NA,NA,NA,NA,pleasant,unpleasant,NA,NA,NA,NA,NA,left,1561,true,NA,NA,NA,NA,NA,NA,NA,NA
RzNbgDtK,3ac6mfv6anv2a7u5af0lkpxttwbhzq,3a1cohj8nn8pdvrcsr5awpwhyzph8p,RzNbgDtK,2020-0188,2021-10-30,18:55:16,20:30:59,NA,incomplete,false,true,NA,NA,3,35,NA,brown,m_s_044.jpg,NA,NA,NA,NA,NA,unpleasant,pleasant,NA,NA,NA,NA,NA,right,1161,true,NA,NA,NA,NA,NA,NA,NA,NA
RzNbgDtK,3ac6mfv6anv2a7u5af0lkpxttwbhzq,3a1cohj8nn8pdvrcsr5awpwhyzph8p,RzNbgDtK,2020-0188,2021-10-30,18:55:16,20:30:59,NA,incomplete,false,NA,NA,true,3,0,NA,NA,NA,right,n_s_062.jpg,yellow,white,NA,NA,NA,NA,NA,NA,NA,NA,NA,NaN,NA,2297,right,1,NA,NA,NA,NA,NA
RzNbgDtK,3ac6mfv6anv2a7u5af0lkpxttwbhzq,3a1cohj8nn8pdvrcsr5awpwhyzph8p,RzNbgDtK,2020-0188,2021-10-30,18:55:16,20:30:59,NA,incomplete,false,NA,NA,true,3,1,NA,NA,NA,right,n_l_014.jpg,orange,blue,NA,NA,NA,NA,NA,NA,NA,NA,NA,NaN,NA,1360,left,0,NA,NA,NA,NA,NA
RzNbgDtK,3ac6mfv6anv2a7u5af0lkpxttwbhzq,3a1cohj8nn8pdvrcsr5awpwhyzph8p,RzNbgDtK,2020-0188,2021-10-30,18:55:16,20:30:59,NA,incomplete,false,NA,NA,true,3,2,NA,NA,NA,right,n_l_094.jpg,yellow,white,NA,NA,NA,NA,NA,NA,NA,NA,NA,NaN,NA,4270,right,1,NA,NA,NA,NA,NA
RzNbgDtK,3ac6mfv6anv2a7u5af0lkpxttwbhzq,3a1cohj8nn8pdvrcsr5awpwhyzph8p,RzNbgDtK,2020-0188,2021-10-30,18:55:16,20:30:59,NA,incomplete,false,NA,NA,true,3,3,NA,NA,NA,left,m_l_088.jpg,white,yellow,NA,NA,NA,NA,NA,NA,NA,NA,NA,NaN,NA,2614,left,1,NA,NA,NA,NA,NA
RzNbgDtK,3ac6mfv6anv2a7u5af0lkpxttwbhzq,3a1cohj8nn8pdvrcsr5awpwhyzph8p,RzNbgDtK,2020-0188,2021-10-30,18:55:16,20:30:59,NA,incomplete,false,NA,NA,true,3,4,NA,NA,NA,right,n_l_018.jpg,gray,yellow,NA,NA,NA,NA,NA,NA,NA,NA,NA,NaN,NA,2164,right,1,NA,NA,NA,NA,NA
RzNbgDtK,3ac6mfv6anv2a7u5af0lkpxttwbhzq,3a1cohj8nn8pdvrcsr5awpwhyzph8p,RzNbgDtK,2020-0188,2021-10-30,18:55:16,20:30:59,NA,incomplete,false,NA,NA,true,3,5,NA,NA,NA,left,n_s_091.jpg,blue,gray,NA,NA,NA,NA,NA,NA,NA,NA,NA,NaN,NA,1883,left,1,NA,NA,NA,NA,NA
RzNbgDtK,3ac6mfv6anv2a7u5af0lkpxttwbhzq,3a1cohj8nn8pdvrcsr5awpwhyzph8p,RzNbgDtK,2020-0188,2021-10-30,18:55:16,20:30:59,NA,incomplete,false,NA,NA,true,3,6,NA,NA,NA,right,m_l_090.jpg,gray,blue,NA,NA,NA,NA,NA,NA,NA,NA,NA,NaN,NA,3447,right,1,NA,NA,NA,NA,NA
RzNbgDtK,3ac6mfv6anv2a7u5af0lkpxttwbhzq,3a1cohj8nn8pdvrcsr5awpwhyzph8p,RzNbgDtK,2020-0188,2021-10-30,18:55:16,20:30:59,NA,incomplete,false,NA,NA,true,3,7,NA,NA,NA,left,n_l_063.jpg,orange,brown,NA,NA,NA,NA,NA,NA,NA,NA,NA,NaN,NA,3408,right,0,NA,NA,NA,NA,NA
RzNbgDtK,3ac6mfv6anv2a7u5af0lkpxttwbhzq,3a1cohj8nn8pdvrcsr5awpwhyzph8p,RzNbgDtK,2020-0188,2021-10-30,18:55:16,20:30:59,NA,incomplete,false,NA,NA,true,3,8,NA,NA,NA,left,n_l_115.jpg,brown,orange,NA,NA,NA,NA,NA,NA,NA,NA,NA,NaN,NA,1564,right,0,NA,NA,NA,NA,NA
RzNbgDtK,3ac6mfv6anv2a7u5af0lkpxttwbhzq,3a1cohj8nn8pdvrcsr5awpwhyzph8p,RzNbgDtK,2020-0188,2021-10-30,18:55:16,20:30:59,NA,incomplete,false,NA,NA,true,3,9,NA,NA,NA,left,n_l_003.jpg,blue,orange,NA,NA,NA,NA,NA,NA,NA,NA,NA,NaN,NA,3815,left,1,NA,NA,NA,NA,NA
RzNbgDtK,3ac6mfv6anv2a7u5af0lkpxttwbhzq,3a1cohj8nn8pdvrcsr5awpwhyzph8p,RzNbgDtK,2020-0188,2021-10-30,18:55:16,20:30:59,NA,incomplete,false,NA,NA,true,3,10,NA,NA,NA,left,m_s_048.jpg,yellow,white,NA,NA,NA,NA,NA,NA,NA,NA,NA,NaN,NA,1593,right,0,NA,NA,NA,NA,NA
RzNbgDtK,3ac6mfv6anv2a7u5af0lkpxttwbhzq,3a1cohj8nn8pdvrcsr5awpwhyzph8p,RzNbgDtK,2020-0188,2021-10-30,18:55:16,20:30:59,NA,incomplete,false,NA,NA,true,3,11,NA,NA,NA,right,n_s_023.jpg,brown,orange,NA,NA,NA,NA,NA,NA,NA,NA,NA,NaN,NA,2484,right,1,NA,NA,NA,NA,NA
RzNbgDtK,3ac6mfv6anv2a7u5af0lkpxttwbhzq,3a1cohj8nn8pdvrcsr5awpwhyzph8p,RzNbgDtK,2020-0188,2021-10-30,18:55:16,20:30:59,NA,incomplete,false,NA,NA,true,3,12,NA,NA,NA,right,n_l_097.jpg,white,yellow,NA,NA,NA,NA,NA,NA,NA,NA,NA,NaN,NA,1840,right,1,NA,NA,NA,NA,NA
RzNbgDtK,3ac6mfv6anv2a7u5af0lkpxttwbhzq,3a1cohj8nn8pdvrcsr5awpwhyzph8p,RzNbgDtK,2020-0188,2021-10-30,18:55:16,20:30:59,NA,incomplete,false,NA,NA,true,3,13,NA,NA,NA,right,m_s_110.jpg,yellow,gray,NA,NA,NA,NA,NA,NA,NA,NA,NA,NaN,NA,2056,left,0,NA,NA,NA,NA,NA
RzNbgDtK,3ac6mfv6anv2a7u5af0lkpxttwbhzq,3a1cohj8nn8pdvrcsr5awpwhyzph8p,RzNbgDtK,2020-0188,2021-10-30,18:55:16,20:30:59,NA,incomplete,false,NA,NA,true,3,14,NA,NA,NA,right,n_s_027.jpg,blue,orange,NA,NA,NA,NA,NA,NA,NA,NA,NA,NaN,NA,2818,left,0,NA,NA,NA,NA,NA
RzNbgDtK,3ac6mfv6anv2a7u5af0lkpxttwbhzq,3a1cohj8nn8pdvrcsr5awpwhyzph8p,RzNbgDtK,2020-0188,2021-10-30,18:55:16,20:30:59,NA,incomplete,false,NA,NA,true,3,15,NA,NA,NA,left,m_l_073.jpg,gray,yellow,NA,NA,NA,NA,NA,NA,NA,NA,NA,NaN,NA,3532,right,0,NA,NA,NA,NA,NA
RzNbgDtK,3ac6mfv6anv2a7u5af0lkpxttwbhzq,3a1cohj8nn8pdvrcsr5awpwhyzph8p,RzNbgDtK,2020-0188,2021-10-30,18:55:16,20:30:59,NA,incomplete,false,NA,NA,true,3,16,NA,NA,NA,right,m_s_050.jpg,yellow,gray,NA,NA,NA,NA,NA,NA,NA,NA,NA,NaN,NA,1502,right,1,NA,NA,NA,NA,NA
RzNbgDtK,3ac6mfv6anv2a7u5af0lkpxttwbhzq,3a1cohj8nn8pdvrcsr5awpwhyzph8p,RzNbgDtK,2020-0188,2021-10-30,18:55:16,20:30:59,NA,incomplete,false,NA,NA,true,3,17,NA,NA,NA,left,m_s_044.jpg,brown,orange,NA,NA,NA,NA,NA,NA,NA,NA,NA,NaN,NA,1647,left,1,NA,NA,NA,NA,NA
RzNbgDtK,3ac6mfv6anv2a7u5af0lkpxttwbhzq,3a1cohj8nn8pdvrcsr5awpwhyzph8p,RzNbgDtK,2020-0188,2021-10-30,18:55:16,20:30:59,NA,incomplete,false,NA,NA,true,3,18,NA,NA,NA,right,m_l_005.jpg,orange,brown,NA,NA,NA,NA,NA,NA,NA,NA,NA,NaN,NA,1657,right,1,NA,NA,NA,NA,NA
RzNbgDtK,3ac6mfv6anv2a7u5af0lkpxttwbhzq,3a1cohj8nn8pdvrcsr5awpwhyzph8p,RzNbgDtK,2020-0188,2021-10-30,18:55:16,20:30:59,NA,incomplete,false,NA,NA,true,3,19,NA,NA,NA,left,m_s_072.jpg,yellow,white,NA,NA,NA,NA,NA,NA,NA,NA,NA,NaN,NA,2047,right,0,NA,NA,NA,NA,NA
RzNbgDtK,3ac6mfv6anv2a7u5af0lkpxttwbhzq,3a1cohj8nn8pdvrcsr5awpwhyzph8p,RzNbgDtK,2020-0188,2021-10-30,18:55:16,20:30:59,NA,incomplete,false,NA,NA,true,3,20,NA,NA,NA,left,n_l_116.jpg,orange,blue,NA,NA,NA,NA,NA,NA,NA,NA,NA,NaN,NA,2831,left,1,NA,NA,NA,NA,NA
RzNbgDtK,3ac6mfv6anv2a7u5af0lkpxttwbhzq,3a1cohj8nn8pdvrcsr5awpwhyzph8p,RzNbgDtK,2020-0188,2021-10-30,18:55:16,20:30:59,NA,incomplete,false,NA,NA,true,3,21,NA,NA,NA,right,m_s_035.jpg,blue,gray,NA,NA,NA,NA,NA,NA,NA,NA,NA,NaN,NA,2231,left,0,NA,NA,NA,NA,NA
RzNbgDtK,3ac6mfv6anv2a7u5af0lkpxttwbhzq,3a1cohj8nn8pdvrcsr5awpwhyzph8p,RzNbgDtK,2020-0188,2021-10-30,18:55:16,20:30:59,NA,incomplete,false,NA,true,NA,3,0,NA,NA,NA,right,NA,NA,NA,absent,NA,NA,m_l_088.jpg,white,n_l_094.jpg,white,within,NA,NaN,NA,NA,NA,NA,left,2887,0,0,4881
RzNbgDtK,3ac6mfv6anv2a7u5af0lkpxttwbhzq,3a1cohj8nn8pdvrcsr5awpwhyzph8p,RzNbgDtK,2020-0188,2021-10-30,18:55:16,20:30:59,NA,incomplete,false,NA,true,NA,3,1,NA,NA,NA,right,NA,NA,NA,absent,NA,NA,n_s_091.jpg,blue,n_l_003.jpg,blue,within,NA,NaN,NA,NA,NA,NA,right,4026,1,3,1239
RzNbgDtK,3ac6mfv6anv2a7u5af0lkpxttwbhzq,3a1cohj8nn8pdvrcsr5awpwhyzph8p,RzNbgDtK,2020-0188,2021-10-30,18:55:16,20:30:59,NA,incomplete,false,NA,true,NA,3,2,NA,NA,NA,left,NA,NA,NA,absent,NA,NA,n_l_097.jpg,yellow,m_s_050.jpg,gray,between,NA,NaN,NA,NA,NA,NA,right,2370,0,3,1157
RzNbgDtK,3ac6mfv6anv2a7u5af0lkpxttwbhzq,3a1cohj8nn8pdvrcsr5awpwhyzph8p,RzNbgDtK,2020-0188,2021-10-30,18:55:16,20:30:59,NA,incomplete,false,NA,true,NA,3,3,NA,NA,NA,right,NA,NA,NA,absent,NA,NA,m_s_044.jpg,brown,m_l_005.jpg,brown,within,NA,NaN,NA,NA,NA,NA,right,4624,1,1,1349
RzNbgDtK,3ac6mfv6anv2a7u5af0lkpxttwbhzq,3a1cohj8nn8pdvrcsr5awpwhyzph8p,RzNbgDtK,2020-0188,2021-10-30,18:55:16,20:30:59,NA,incomplete,false,NA,true,NA,3,4,NA,NA,NA,left,NA,NA,NA,absent,NA,NA,n_l_018.jpg,yellow,m_s_072.jpg,yellow,within,NA,NaN,NA,NA,NA,NA,left,3286,1,2,2414
RzNbgDtK,3ac6mfv6anv2a7u5af0lkpxttwbhzq,3a1cohj8nn8pdvrcsr5awpwhyzph8p,RzNbgDtK,2020-0188,2021-10-30,18:55:16,20:30:59,NA,incomplete,false,NA,true,NA,3,5,NA,NA,NA,left,NA,NA,NA,absent,NA,NA,m_l_073.jpg,gray,m_s_035.jpg,gray,within,NA,NaN,NA,NA,NA,NA,left,4180,1,3,4519
RzNbgDtK,3ac6mfv6anv2a7u5af0lkpxttwbhzq,3a1cohj8nn8pdvrcsr5awpwhyzph8p,RzNbgDtK,2020-0188,2021-10-30,18:55:16,20:30:59,NA,incomplete,false,NA,true,NA,3,6,NA,NA,NA,left,NA,NA,NA,absent,NA,NA,m_s_110.jpg,gray,m_l_090.jpg,blue,between,NA,NaN,NA,NA,NA,NA,right,1709,0,3,1045
RzNbgDtK,3ac6mfv6anv2a7u5af0lkpxttwbhzq,3a1cohj8nn8pdvrcsr5awpwhyzph8p,RzNbgDtK,2020-0188,2021-10-30,18:55:16,20:30:59,NA,incomplete,false,NA,true,NA,3,7,NA,NA,NA,left,NA,NA,NA,absent,NA,NA,n_l_116.jpg,orange,n_s_023.jpg,orange,within,NA,NaN,NA,NA,NA,NA,left,1638,1,2,3273
RzNbgDtK,3ac6mfv6anv2a7u5af0lkpxttwbhzq,3a1cohj8nn8pdvrcsr5awpwhyzph8p,RzNbgDtK,2020-0188,2021-10-30,18:55:16,20:30:59,NA,incomplete,false,NA,true,NA,3,8,NA,NA,NA,left,NA,NA,NA,absent,NA,NA,n_s_027.jpg,orange,n_l_115.jpg,brown,between,NA,NaN,NA,NA,NA,NA,left,2907,1,3,1037
RzNbgDtK,3ac6mfv6anv2a7u5af0lkpxttwbhzq,3a1cohj8nn8pdvrcsr5awpwhyzph8p,RzNbgDtK,2020-0188,2021-10-30,18:55:16,20:30:59,NA,incomplete,false,NA,true,NA,3,9,NA,NA,NA,right,NA,NA,NA,absent,NA,NA,m_s_048.jpg,yellow,n_s_062.jpg,white,between,NA,NaN,NA,NA,NA,NA,left,1432,0,0,1621
RzNbgDtK,3ac6mfv6anv2a7u5af0lkpxttwbhzq,3a1cohj8nn8pdvrcsr5awpwhyzph8p,RzNbgDtK,2020-0188,2021-10-30,18:55:16,20:30:59,NA,incomplete,false,NA,true,NA,3,10,NA,NA,NA,left,NA,NA,NA,absent,NA,NA,n_l_014.jpg,blue,n_l_063.jpg,orange,between,NA,NaN,NA,NA,NA,NA,right,4222,0,1,1290
RzNbgDtK,3ac6mfv6anv2a7u5af0lkpxttwbhzq,3a1cohj8nn8pdvrcsr5awpwhyzph8p,RzNbgDtK,2020-0188,2021-10-30,18:55:16,20:30:59,NA,incomplete,false,true,NA,NA,4,0,NA,green,m_s_093.jpg,NA,NA,NA,NA,NA,unpleasant,pleasant,NA,NA,NA,NA,NA,right,1667,true,NA,NA,NA,NA,NA,NA,NA,NA
RzNbgDtK,3ac6mfv6anv2a7u5af0lkpxttwbhzq,3a1cohj8nn8pdvrcsr5awpwhyzph8p,RzNbgDtK,2020-0188,2021-10-30,18:55:16,20:30:59,NA,incomplete,false,true,NA,NA,4,1,NA,green,m_s_090.jpg,NA,NA,NA,NA,NA,pleasant,unpleasant,NA,NA,NA,NA,NA,left,2186,true,NA,NA,NA,NA,NA,NA,NA,NA
RzNbgDtK,3ac6mfv6anv2a7u5af0lkpxttwbhzq,3a1cohj8nn8pdvrcsr5awpwhyzph8p,RzNbgDtK,2020-0188,2021-10-30,18:55:16,20:30:59,NA,incomplete,false,true,NA,NA,4,2,NA,green,m_l_039.jpg,NA,NA,NA,NA,NA,pleasant,unpleasant,NA,NA,NA,NA,NA,right,2669,true,NA,NA,NA,NA,NA,NA,NA,NA
RzNbgDtK,3ac6mfv6anv2a7u5af0lkpxttwbhzq,3a1cohj8nn8pdvrcsr5awpwhyzph8p,RzNbgDtK,2020-0188,2021-10-30,18:55:16,20:30:59,NA,incomplete,false,true,NA,NA,4,3,NA,green,n_l_111.jpg,NA,NA,NA,NA,NA,pleasant,unpleasant,NA,NA,NA,NA,NA,right,1709,true,NA,NA,NA,NA,NA,NA,NA,NA
RzNbgDtK,3ac6mfv6anv2a7u5af0lkpxttwbhzq,3a1cohj8nn8pdvrcsr5awpwhyzph8p,RzNbgDtK,2020-0188,2021-10-30,18:55:16,20:30:59,NA,incomplete,false,true,NA,NA,4,4,NA,green,n_l_099.jpg,NA,NA,NA,NA,NA,unpleasant,pleasant,NA,NA,NA,NA,NA,left,1788,true,NA,NA,NA,NA,NA,NA,NA,NA
RzNbgDtK,3ac6mfv6anv2a7u5af0lkpxttwbhzq,3a1cohj8nn8pdvrcsr5awpwhyzph8p,RzNbgDtK,2020-0188,2021-10-30,18:55:16,20:30:59,NA,incomplete,false,true,NA,NA,4,5,NA,green,n_l_074.jpg,NA,NA,NA,NA,NA,pleasant,unpleasant,NA,NA,NA,NA,NA,right,2219,true,NA,NA,NA,NA,NA,NA,NA,NA
RzNbgDtK,3ac6mfv6anv2a7u5af0lkpxttwbhzq,3a1cohj8nn8pdvrcsr5awpwhyzph8p,RzNbgDtK,2020-0188,2021-10-30,18:55:16,20:30:59,NA,incomplete,false,true,NA,NA,4,6,NA,white,m_s_012.jpg,NA,NA,NA,NA,NA,pleasant,unpleasant,NA,NA,NA,NA,NA,right,1899,true,NA,NA,NA,NA,NA,NA,NA,NA
RzNbgDtK,3ac6mfv6anv2a7u5af0lkpxttwbhzq,3a1cohj8nn8pdvrcsr5awpwhyzph8p,RzNbgDtK,2020-0188,2021-10-30,18:55:16,20:30:59,NA,incomplete,false,true,NA,NA,4,7,NA,white,m_s_086.jpg,NA,NA,NA,NA,NA,unpleasant,pleasant,NA,NA,NA,NA,NA,right,2287,true,NA,NA,NA,NA,NA,NA,NA,NA
RzNbgDtK,3ac6mfv6anv2a7u5af0lkpxttwbhzq,3a1cohj8nn8pdvrcsr5awpwhyzph8p,RzNbgDtK,2020-0188,2021-10-30,18:55:16,20:30:59,NA,incomplete,false,true,NA,NA,4,8,NA,white,m_l_072.jpg,NA,NA,NA,NA,NA,pleasant,unpleasant,NA,NA,NA,NA,NA,right,2962,true,NA,NA,NA,NA,NA,NA,NA,NA
RzNbgDtK,3ac6mfv6anv2a7u5af0lkpxttwbhzq,3a1cohj8nn8pdvrcsr5awpwhyzph8p,RzNbgDtK,2020-0188,2021-10-30,18:55:16,20:30:59,NA,incomplete,false,true,NA,NA,4,9,NA,white,m_s_078.jpg,NA,NA,NA,NA,NA,unpleasant,pleasant,NA,NA,NA,NA,NA,left,2708,true,NA,NA,NA,NA,NA,NA,NA,NA
RzNbgDtK,3ac6mfv6anv2a7u5af0lkpxttwbhzq,3a1cohj8nn8pdvrcsr5awpwhyzph8p,RzNbgDtK,2020-0188,2021-10-30,18:55:16,20:30:59,NA,incomplete,false,true,NA,NA,4,10,NA,white,m_s_067.jpg,NA,NA,NA,NA,NA,pleasant,unpleasant,NA,NA,NA,NA,NA,left,1351,true,NA,NA,NA,NA,NA,NA,NA,NA
RzNbgDtK,3ac6mfv6anv2a7u5af0lkpxttwbhzq,3a1cohj8nn8pdvrcsr5awpwhyzph8p,RzNbgDtK,2020-0188,2021-10-30,18:55:16,20:30:59,NA,incomplete,false,true,NA,NA,4,11,NA,white,m_s_045.jpg,NA,NA,NA,NA,NA,unpleasant,pleasant,NA,NA,NA,NA,NA,left,1645,true,NA,NA,NA,NA,NA,NA,NA,NA
RzNbgDtK,3ac6mfv6anv2a7u5af0lkpxttwbhzq,3a1cohj8nn8pdvrcsr5awpwhyzph8p,RzNbgDtK,2020-0188,2021-10-30,18:55:16,20:30:59,NA,incomplete,false,true,NA,NA,4,12,NA,red,m_s_082.jpg,NA,NA,NA,NA,NA,unpleasant,pleasant,NA,NA,NA,NA,NA,right,1566,true,NA,NA,NA,NA,NA,NA,NA,NA
RzNbgDtK,3ac6mfv6anv2a7u5af0lkpxttwbhzq,3a1cohj8nn8pdvrcsr5awpwhyzph8p,RzNbgDtK,2020-0188,2021-10-30,18:55:16,20:30:59,NA,incomplete,false,true,NA,NA,4,13,NA,red,n_s_112.jpg,NA,NA,NA,NA,NA,unpleasant,pleasant,NA,NA,NA,NA,NA,right,1518,true,NA,NA,NA,NA,NA,NA,NA,NA
RzNbgDtK,3ac6mfv6anv2a7u5af0lkpxttwbhzq,3a1cohj8nn8pdvrcsr5awpwhyzph8p,RzNbgDtK,2020-0188,2021-10-30,18:55:16,20:30:59,NA,incomplete,false,true,NA,NA,4,14,NA,red,n_s_070.jpg,NA,NA,NA,NA,NA,unpleasant,pleasant,NA,NA,NA,NA,NA,left,1638,true,NA,NA,NA,NA,NA,NA,NA,NA
RzNbgDtK,3ac6mfv6anv2a7u5af0lkpxttwbhzq,3a1cohj8nn8pdvrcsr5awpwhyzph8p,RzNbgDtK,2020-0188,2021-10-30,18:55:16,20:30:59,NA,incomplete,false,true,NA,NA,4,15,NA,red,m_s_031.jpg,NA,NA,NA,NA,NA,unpleasant,pleasant,NA,NA,NA,NA,NA,right,1480,true,NA,NA,NA,NA,NA,NA,NA,NA
RzNbgDtK,3ac6mfv6anv2a7u5af0lkpxttwbhzq,3a1cohj8nn8pdvrcsr5awpwhyzph8p,RzNbgDtK,2020-0188,2021-10-30,18:55:16,20:30:59,NA,incomplete,false,true,NA,NA,4,16,NA,red,m_s_071.jpg,NA,NA,NA,NA,NA,pleasant,unpleasant,NA,NA,NA,NA,NA,right,2412,true,NA,NA,NA,NA,NA,NA,NA,NA
RzNbgDtK,3ac6mfv6anv2a7u5af0lkpxttwbhzq,3a1cohj8nn8pdvrcsr5awpwhyzph8p,RzNbgDtK,2020-0188,2021-10-30,18:55:16,20:30:59,NA,incomplete,false,true,NA,NA,4,17,NA,red,n_l_010.jpg,NA,NA,NA,NA,NA,unpleasant,pleasant,NA,NA,NA,NA,NA,left,2951,true,NA,NA,NA,NA,NA,NA,NA,NA
RzNbgDtK,3ac6mfv6anv2a7u5af0lkpxttwbhzq,3a1cohj8nn8pdvrcsr5awpwhyzph8p,RzNbgDtK,2020-0188,2021-10-30,18:55:16,20:30:59,NA,incomplete,false,true,NA,NA,4,18,NA,blue,m_s_109.jpg,NA,NA,NA,NA,NA,unpleasant,pleasant,NA,NA,NA,NA,NA,none,0,false,NA,NA,NA,NA,NA,NA,NA,NA
RzNbgDtK,3ac6mfv6anv2a7u5af0lkpxttwbhzq,3a1cohj8nn8pdvrcsr5awpwhyzph8p,RzNbgDtK,2020-0188,2021-10-30,18:55:16,20:30:59,NA,incomplete,false,true,NA,NA,4,19,NA,blue,m_s_077.jpg,NA,NA,NA,NA,NA,unpleasant,pleasant,NA,NA,NA,NA,NA,right,2120,true,NA,NA,NA,NA,NA,NA,NA,NA
RzNbgDtK,3ac6mfv6anv2a7u5af0lkpxttwbhzq,3a1cohj8nn8pdvrcsr5awpwhyzph8p,RzNbgDtK,2020-0188,2021-10-30,18:55:16,20:30:59,NA,incomplete,false,true,NA,NA,4,20,NA,blue,m_s_076.jpg,NA,NA,NA,NA,NA,unpleasant,pleasant,NA,NA,NA,NA,NA,left,1194,true,NA,NA,NA,NA,NA,NA,NA,NA
RzNbgDtK,3ac6mfv6anv2a7u5af0lkpxttwbhzq,3a1cohj8nn8pdvrcsr5awpwhyzph8p,RzNbgDtK,2020-0188,2021-10-30,18:55:16,20:30:59,NA,incomplete,false,true,NA,NA,4,21,NA,blue,n_s_016.jpg,NA,NA,NA,NA,NA,unpleasant,pleasant,NA,NA,NA,NA,NA,left,1522,true,NA,NA,NA,NA,NA,NA,NA,NA
RzNbgDtK,3ac6mfv6anv2a7u5af0lkpxttwbhzq,3a1cohj8nn8pdvrcsr5awpwhyzph8p,RzNbgDtK,2020-0188,2021-10-30,18:55:16,20:30:59,NA,incomplete,false,true,NA,NA,4,22,NA,blue,n_l_081.jpg,NA,NA,NA,NA,NA,unpleasant,pleasant,NA,NA,NA,NA,NA,right,1004,true,NA,NA,NA,NA,NA,NA,NA,NA
RzNbgDtK,3ac6mfv6anv2a7u5af0lkpxttwbhzq,3a1cohj8nn8pdvrcsr5awpwhyzph8p,RzNbgDtK,2020-0188,2021-10-30,18:55:16,20:30:59,NA,incomplete,false,true,NA,NA,4,23,NA,blue,m_l_111.jpg,NA,NA,NA,NA,NA,pleasant,unpleasant,NA,NA,NA,NA,NA,right,1535,true,NA,NA,NA,NA,NA,NA,NA,NA
RzNbgDtK,3ac6mfv6anv2a7u5af0lkpxttwbhzq,3a1cohj8nn8pdvrcsr5awpwhyzph8p,RzNbgDtK,2020-0188,2021-10-30,18:55:16,20:30:59,NA,incomplete,false,true,NA,NA,4,24,NA,orange,m_s_034.jpg,NA,NA,NA,NA,NA,unpleasant,pleasant,NA,NA,NA,NA,NA,left,1149,true,NA,NA,NA,NA,NA,NA,NA,NA
RzNbgDtK,3ac6mfv6anv2a7u5af0lkpxttwbhzq,3a1cohj8nn8pdvrcsr5awpwhyzph8p,RzNbgDtK,2020-0188,2021-10-30,18:55:16,20:30:59,NA,incomplete,false,true,NA,NA,4,25,NA,orange,m_l_078.jpg,NA,NA,NA,NA,NA,pleasant,unpleasant,NA,NA,NA,NA,NA,right,1590,true,NA,NA,NA,NA,NA,NA,NA,NA
RzNbgDtK,3ac6mfv6anv2a7u5af0lkpxttwbhzq,3a1cohj8nn8pdvrcsr5awpwhyzph8p,RzNbgDtK,2020-0188,2021-10-30,18:55:16,20:30:59,NA,incomplete,false,true,NA,NA,4,26,NA,orange,n_s_054.jpg,NA,NA,NA,NA,NA,pleasant,unpleasant,NA,NA,NA,NA,NA,right,1630,true,NA,NA,NA,NA,NA,NA,NA,NA
RzNbgDtK,3ac6mfv6anv2a7u5af0lkpxttwbhzq,3a1cohj8nn8pdvrcsr5awpwhyzph8p,RzNbgDtK,2020-0188,2021-10-30,18:55:16,20:30:59,NA,incomplete,false,true,NA,NA,4,27,NA,orange,m_l_003.jpg,NA,NA,NA,NA,NA,unpleasant,pleasant,NA,NA,NA,NA,NA,left,1423,true,NA,NA,NA,NA,NA,NA,NA,NA
RzNbgDtK,3ac6mfv6anv2a7u5af0lkpxttwbhzq,3a1cohj8nn8pdvrcsr5awpwhyzph8p,RzNbgDtK,2020-0188,2021-10-30,18:55:16,20:30:59,NA,incomplete,false,true,NA,NA,4,28,NA,orange,n_l_109.jpg,NA,NA,NA,NA,NA,pleasant,unpleasant,NA,NA,NA,NA,NA,right,1437,true,NA,NA,NA,NA,NA,NA,NA,NA
RzNbgDtK,3ac6mfv6anv2a7u5af0lkpxttwbhzq,3a1cohj8nn8pdvrcsr5awpwhyzph8p,RzNbgDtK,2020-0188,2021-10-30,18:55:16,20:30:59,NA,incomplete,false,true,NA,NA,4,29,NA,orange,n_l_066.jpg,NA,NA,NA,NA,NA,pleasant,unpleasant,NA,NA,NA,NA,NA,right,1410,true,NA,NA,NA,NA,NA,NA,NA,NA
RzNbgDtK,3ac6mfv6anv2a7u5af0lkpxttwbhzq,3a1cohj8nn8pdvrcsr5awpwhyzph8p,RzNbgDtK,2020-0188,2021-10-30,18:55:16,20:30:59,NA,incomplete,false,true,NA,NA,4,30,NA,yellow,n_s_019.jpg,NA,NA,NA,NA,NA,pleasant,unpleasant,NA,NA,NA,NA,NA,left,2015,true,NA,NA,NA,NA,NA,NA,NA,NA
RzNbgDtK,3ac6mfv6anv2a7u5af0lkpxttwbhzq,3a1cohj8nn8pdvrcsr5awpwhyzph8p,RzNbgDtK,2020-0188,2021-10-30,18:55:16,20:30:59,NA,incomplete,false,true,NA,NA,4,31,NA,yellow,n_s_031.jpg,NA,NA,NA,NA,NA,pleasant,unpleasant,NA,NA,NA,NA,NA,right,1169,true,NA,NA,NA,NA,NA,NA,NA,NA
RzNbgDtK,3ac6mfv6anv2a7u5af0lkpxttwbhzq,3a1cohj8nn8pdvrcsr5awpwhyzph8p,RzNbgDtK,2020-0188,2021-10-30,18:55:16,20:30:59,NA,incomplete,false,true,NA,NA,4,32,NA,yellow,m_s_030.jpg,NA,NA,NA,NA,NA,pleasant,unpleasant,NA,NA,NA,NA,NA,right,1233,true,NA,NA,NA,NA,NA,NA,NA,NA
RzNbgDtK,3ac6mfv6anv2a7u5af0lkpxttwbhzq,3a1cohj8nn8pdvrcsr5awpwhyzph8p,RzNbgDtK,2020-0188,2021-10-30,18:55:16,20:30:59,NA,incomplete,false,true,NA,NA,4,33,NA,yellow,m_l_105.jpg,NA,NA,NA,NA,NA,pleasant,unpleasant,NA,NA,NA,NA,NA,right,1185,true,NA,NA,NA,NA,NA,NA,NA,NA
RzNbgDtK,3ac6mfv6anv2a7u5af0lkpxttwbhzq,3a1cohj8nn8pdvrcsr5awpwhyzph8p,RzNbgDtK,2020-0188,2021-10-30,18:55:16,20:30:59,NA,incomplete,false,true,NA,NA,4,34,NA,yellow,m_l_053.jpg,NA,NA,NA,NA,NA,unpleasant,pleasant,NA,NA,NA,NA,NA,left,992,true,NA,NA,NA,NA,NA,NA,NA,NA
RzNbgDtK,3ac6mfv6anv2a7u5af0lkpxttwbhzq,3a1cohj8nn8pdvrcsr5awpwhyzph8p,RzNbgDtK,2020-0188,2021-10-30,18:55:16,20:30:59,NA,incomplete,false,true,NA,NA,4,35,NA,yellow,n_s_115.jpg,NA,NA,NA,NA,NA,pleasant,unpleasant,NA,NA,NA,NA,NA,left,1303,true,NA,NA,NA,NA,NA,NA,NA,NA
RzNbgDtK,3ac6mfv6anv2a7u5af0lkpxttwbhzq,3a1cohj8nn8pdvrcsr5awpwhyzph8p,RzNbgDtK,2020-0188,2021-10-30,18:55:16,20:30:59,NA,incomplete,false,NA,NA,true,4,0,NA,NA,NA,left,m_l_111.jpg,blue,orange,NA,NA,NA,NA,NA,NA,NA,NA,NA,NaN,NA,7047,right,0,NA,NA,NA,NA,NA
RzNbgDtK,3ac6mfv6anv2a7u5af0lkpxttwbhzq,3a1cohj8nn8pdvrcsr5awpwhyzph8p,RzNbgDtK,2020-0188,2021-10-30,18:55:16,20:30:59,NA,incomplete,false,NA,NA,true,4,1,NA,NA,NA,right,n_s_031.jpg,orange,yellow,NA,NA,NA,NA,NA,NA,NA,NA,NA,NaN,NA,2358,right,1,NA,NA,NA,NA,NA
RzNbgDtK,3ac6mfv6anv2a7u5af0lkpxttwbhzq,3a1cohj8nn8pdvrcsr5awpwhyzph8p,RzNbgDtK,2020-0188,2021-10-30,18:55:16,20:30:59,NA,incomplete,false,NA,NA,true,4,2,NA,NA,NA,right,n_s_070.jpg,blue,red,NA,NA,NA,NA,NA,NA,NA,NA,NA,NaN,NA,2859,left,0,NA,NA,NA,NA,NA
RzNbgDtK,3ac6mfv6anv2a7u5af0lkpxttwbhzq,3a1cohj8nn8pdvrcsr5awpwhyzph8p,RzNbgDtK,2020-0188,2021-10-30,18:55:16,20:30:59,NA,incomplete,false,NA,NA,true,4,3,NA,NA,NA,right,m_s_030.jpg,orange,yellow,NA,NA,NA,NA,NA,NA,NA,NA,NA,NaN,NA,2034,right,1,NA,NA,NA,NA,NA
RzNbgDtK,3ac6mfv6anv2a7u5af0lkpxttwbhzq,3a1cohj8nn8pdvrcsr5awpwhyzph8p,RzNbgDtK,2020-0188,2021-10-30,18:55:16,20:30:59,NA,incomplete,false,NA,NA,true,4,4,NA,NA,NA,left,n_l_099.jpg,green,white,NA,NA,NA,NA,NA,NA,NA,NA,NA,NaN,NA,3520,right,0,NA,NA,NA,NA,NA
RzNbgDtK,3ac6mfv6anv2a7u5af0lkpxttwbhzq,3a1cohj8nn8pdvrcsr5awpwhyzph8p,RzNbgDtK,2020-0188,2021-10-30,18:55:16,20:30:59,NA,incomplete,false,NA,NA,true,4,5,NA,NA,NA,right,m_l_072.jpg,green,white,NA,NA,NA,NA,NA,NA,NA,NA,NA,NaN,NA,2603,right,1,NA,NA,NA,NA,NA
RzNbgDtK,3ac6mfv6anv2a7u5af0lkpxttwbhzq,3a1cohj8nn8pdvrcsr5awpwhyzph8p,RzNbgDtK,2020-0188,2021-10-30,18:55:16,20:30:59,NA,incomplete,false,NA,NA,true,4,6,NA,NA,NA,right,n_s_115.jpg,orange,yellow,NA,NA,NA,NA,NA,NA,NA,NA,NA,NaN,NA,2437,left,0,NA,NA,NA,NA,NA
RzNbgDtK,3ac6mfv6anv2a7u5af0lkpxttwbhzq,3a1cohj8nn8pdvrcsr5awpwhyzph8p,RzNbgDtK,2020-0188,2021-10-30,18:55:16,20:30:59,NA,incomplete,false,NA,NA,true,4,7,NA,NA,NA,right,m_s_077.jpg,orange,blue,NA,NA,NA,NA,NA,NA,NA,NA,NA,NaN,NA,1452,right,1,NA,NA,NA,NA,NA
RzNbgDtK,3ac6mfv6anv2a7u5af0lkpxttwbhzq,3a1cohj8nn8pdvrcsr5awpwhyzph8p,RzNbgDtK,2020-0188,2021-10-30,18:55:16,20:30:59,NA,incomplete,false,NA,NA,true,4,8,NA,NA,NA,right,n_s_054.jpg,blue,orange,NA,NA,NA,NA,NA,NA,NA,NA,NA,NaN,NA,1862,left,0,NA,NA,NA,NA,NA
RzNbgDtK,3ac6mfv6anv2a7u5af0lkpxttwbhzq,3a1cohj8nn8pdvrcsr5awpwhyzph8p,RzNbgDtK,2020-0188,2021-10-30,18:55:16,20:30:59,NA,incomplete,false,NA,NA,true,4,9,NA,NA,NA,right,m_s_071.jpg,blue,red,NA,NA,NA,NA,NA,NA,NA,NA,NA,NaN,NA,1368,right,1,NA,NA,NA,NA,NA
RzNbgDtK,3ac6mfv6anv2a7u5af0lkpxttwbhzq,3a1cohj8nn8pdvrcsr5awpwhyzph8p,RzNbgDtK,2020-0188,2021-10-30,18:55:16,20:30:59,NA,incomplete,false,NA,NA,true,4,10,NA,NA,NA,right,n_l_010.jpg,blue,red,NA,NA,NA,NA,NA,NA,NA,NA,NA,NaN,NA,2338,right,1,NA,NA,NA,NA,NA
RzNbgDtK,3ac6mfv6anv2a7u5af0lkpxttwbhzq,3a1cohj8nn8pdvrcsr5awpwhyzph8p,RzNbgDtK,2020-0188,2021-10-30,18:55:16,20:30:59,NA,incomplete,false,NA,NA,true,4,11,NA,NA,NA,left,m_s_045.jpg,white,red,NA,NA,NA,NA,NA,NA,NA,NA,NA,NaN,NA,2087,right,0,NA,NA,NA,NA,NA
RzNbgDtK,3ac6mfv6anv2a7u5af0lkpxttwbhzq,3a1cohj8nn8pdvrcsr5awpwhyzph8p,RzNbgDtK,2020-0188,2021-10-30,18:55:16,20:30:59,NA,incomplete,false,NA,NA,true,4,12,NA,NA,NA,left,m_s_086.jpg,white,green,NA,NA,NA,NA,NA,NA,NA,NA,NA,NaN,NA,2539,left,1,NA,NA,NA,NA,NA
RzNbgDtK,3ac6mfv6anv2a7u5af0lkpxttwbhzq,3a1cohj8nn8pdvrcsr5awpwhyzph8p,RzNbgDtK,2020-0188,2021-10-30,18:55:16,20:30:59,NA,incomplete,false,NA,NA,true,4,13,NA,NA,NA,right,m_s_090.jpg,white,green,NA,NA,NA,NA,NA,NA,NA,NA,NA,NaN,NA,1903,left,0,NA,NA,NA,NA,NA
RzNbgDtK,3ac6mfv6anv2a7u5af0lkpxttwbhzq,3a1cohj8nn8pdvrcsr5awpwhyzph8p,RzNbgDtK,2020-0188,2021-10-30,18:55:16,20:30:59,NA,incomplete,false,NA,NA,true,4,14,NA,NA,NA,left,m_l_078.jpg,orange,blue,NA,NA,NA,NA,NA,NA,NA,NA,NA,NaN,NA,1368,right,0,NA,NA,NA,NA,NA
RzNbgDtK,3ac6mfv6anv2a7u5af0lkpxttwbhzq,3a1cohj8nn8pdvrcsr5awpwhyzph8p,RzNbgDtK,2020-0188,2021-10-30,18:55:16,20:30:59,NA,incomplete,false,NA,NA,true,4,15,NA,NA,NA,left,m_s_067.jpg,white,green,NA,NA,NA,NA,NA,NA,NA,NA,NA,NaN,NA,1798,left,1,NA,NA,NA,NA,NA
RzNbgDtK,3ac6mfv6anv2a7u5af0lkpxttwbhzq,3a1cohj8nn8pdvrcsr5awpwhyzph8p,RzNbgDtK,2020-0188,2021-10-30,18:55:16,20:30:59,NA,incomplete,false,NA,NA,true,4,16,NA,NA,NA,right,n_l_081.jpg,orange,blue,NA,NA,NA,NA,NA,NA,NA,NA,NA,NaN,NA,2011,left,0,NA,NA,NA,NA,NA
RzNbgDtK,3ac6mfv6anv2a7u5af0lkpxttwbhzq,3a1cohj8nn8pdvrcsr5awpwhyzph8p,RzNbgDtK,2020-0188,2021-10-30,18:55:16,20:30:59,NA,incomplete,false,NA,NA,true,4,17,NA,NA,NA,left,n_s_112.jpg,red,blue,NA,NA,NA,NA,NA,NA,NA,NA,NA,NaN,NA,2324,left,1,NA,NA,NA,NA,NA
RzNbgDtK,3ac6mfv6anv2a7u5af0lkpxttwbhzq,3a1cohj8nn8pdvrcsr5awpwhyzph8p,RzNbgDtK,2020-0188,2021-10-30,18:55:16,20:30:59,NA,incomplete,false,NA,NA,true,4,18,NA,NA,NA,right,n_l_074.jpg,white,green,NA,NA,NA,NA,NA,NA,NA,NA,NA,NaN,NA,1609,right,1,NA,NA,NA,NA,NA
RzNbgDtK,3ac6mfv6anv2a7u5af0lkpxttwbhzq,3a1cohj8nn8pdvrcsr5awpwhyzph8p,RzNbgDtK,2020-0188,2021-10-30,18:55:16,20:30:59,NA,incomplete,false,NA,NA,true,4,19,NA,NA,NA,right,n_l_066.jpg,yellow,orange,NA,NA,NA,NA,NA,NA,NA,NA,NA,NaN,NA,1831,right,1,NA,NA,NA,NA,NA
RzNbgDtK,3ac6mfv6anv2a7u5af0lkpxttwbhzq,3a1cohj8nn8pdvrcsr5awpwhyzph8p,RzNbgDtK,2020-0188,2021-10-30,18:55:16,20:30:59,NA,incomplete,false,NA,NA,true,4,20,NA,NA,NA,left,m_s_076.jpg,blue,orange,NA,NA,NA,NA,NA,NA,NA,NA,NA,NaN,NA,1807,left,1,NA,NA,NA,NA,NA
RzNbgDtK,3ac6mfv6anv2a7u5af0lkpxttwbhzq,3a1cohj8nn8pdvrcsr5awpwhyzph8p,RzNbgDtK,2020-0188,2021-10-30,18:55:16,20:30:59,NA,incomplete,false,NA,NA,true,4,21,NA,NA,NA,left,n_l_109.jpg,orange,yellow,NA,NA,NA,NA,NA,NA,NA,NA,NA,NaN,NA,2226,right,0,NA,NA,NA,NA,NA
RzNbgDtK,3ac6mfv6anv2a7u5af0lkpxttwbhzq,3a1cohj8nn8pdvrcsr5awpwhyzph8p,RzNbgDtK,2020-0188,2021-10-30,18:55:16,20:30:59,NA,incomplete,false,NA,true,NA,4,0,NA,NA,NA,right,NA,NA,NA,absent,NA,NA,n_l_010.jpg,red,n_s_112.jpg,red,within,NA,NaN,NA,NA,NA,NA,left,1845,0,0,2901
RzNbgDtK,3ac6mfv6anv2a7u5af0lkpxttwbhzq,3a1cohj8nn8pdvrcsr5awpwhyzph8p,RzNbgDtK,2020-0188,2021-10-30,18:55:16,20:30:59,NA,incomplete,false,NA,true,NA,4,1,NA,NA,NA,right,NA,NA,NA,absent,NA,NA,m_s_076.jpg,blue,m_s_071.jpg,red,between,NA,NaN,NA,NA,NA,NA,left,3005,0,0,1352
RzNbgDtK,3ac6mfv6anv2a7u5af0lkpxttwbhzq,3a1cohj8nn8pdvrcsr5awpwhyzph8p,RzNbgDtK,2020-0188,2021-10-30,18:55:16,20:30:59,NA,incomplete,false,NA,true,NA,4,2,NA,NA,NA,left,NA,NA,NA,absent,NA,NA,n_l_081.jpg,blue,n_s_054.jpg,orange,between,NA,NaN,NA,NA,NA,NA,right,3603,0,3,2270
RzNbgDtK,3ac6mfv6anv2a7u5af0lkpxttwbhzq,3a1cohj8nn8pdvrcsr5awpwhyzph8p,RzNbgDtK,2020-0188,2021-10-30,18:55:16,20:30:59,NA,incomplete,false,NA,true,NA,4,3,NA,NA,NA,right,NA,NA,NA,absent,NA,NA,m_l_111.jpg,blue,m_s_077.jpg,blue,within,NA,NaN,NA,NA,NA,NA,left,2716,0,1,2499
RzNbgDtK,3ac6mfv6anv2a7u5af0lkpxttwbhzq,3a1cohj8nn8pdvrcsr5awpwhyzph8p,RzNbgDtK,2020-0188,2021-10-30,18:55:16,20:30:59,NA,incomplete,false,NA,true,NA,4,4,NA,NA,NA,right,NA,NA,NA,absent,NA,NA,m_s_045.jpg,white,m_s_086.jpg,white,within,NA,NaN,NA,NA,NA,NA,left,2872,0,3,1215
RzNbgDtK,3ac6mfv6anv2a7u5af0lkpxttwbhzq,3a1cohj8nn8pdvrcsr5awpwhyzph8p,RzNbgDtK,2020-0188,2021-10-30,18:55:16,20:30:59,NA,incomplete,false,NA,true,NA,4,5,NA,NA,NA,left,NA,NA,NA,absent,NA,NA,m_s_090.jpg,green,n_l_074.jpg,green,within,NA,NaN,NA,NA,NA,NA,left,2233,1,3,3801
RzNbgDtK,3ac6mfv6anv2a7u5af0lkpxttwbhzq,3a1cohj8nn8pdvrcsr5awpwhyzph8p,RzNbgDtK,2020-0188,2021-10-30,18:55:16,20:30:59,NA,incomplete,false,NA,true,NA,4,6,NA,NA,NA,left,NA,NA,NA,absent,NA,NA,n_l_099.jpg,green,m_l_072.jpg,white,between,NA,NaN,NA,NA,NA,NA,right,3824,0,2,2524
RzNbgDtK,3ac6mfv6anv2a7u5af0lkpxttwbhzq,3a1cohj8nn8pdvrcsr5awpwhyzph8p,RzNbgDtK,2020-0188,2021-10-30,18:55:16,20:30:59,NA,incomplete,false,NA,true,NA,4,7,NA,NA,NA,right,NA,NA,NA,absent,NA,NA,m_s_030.jpg,yellow,n_l_109.jpg,orange,between,NA,NaN,NA,NA,NA,NA,left,3601,0,3,1569
RzNbgDtK,3ac6mfv6anv2a7u5af0lkpxttwbhzq,3a1cohj8nn8pdvrcsr5awpwhyzph8p,RzNbgDtK,2020-0188,2021-10-30,18:55:16,20:30:59,NA,incomplete,false,NA,true,NA,4,8,NA,NA,NA,right,NA,NA,NA,absent,NA,NA,n_l_066.jpg,orange,m_l_078.jpg,orange,within,NA,NaN,NA,NA,NA,NA,left,3640,0,1,1429
RzNbgDtK,3ac6mfv6anv2a7u5af0lkpxttwbhzq,3a1cohj8nn8pdvrcsr5awpwhyzph8p,RzNbgDtK,2020-0188,2021-10-30,18:55:16,20:30:59,NA,incomplete,false,NA,true,NA,4,9,NA,NA,NA,right,NA,NA,NA,absent,NA,NA,n_s_115.jpg,yellow,n_s_031.jpg,yellow,within,NA,NaN,NA,NA,NA,NA,left,2662,0,2,2177
RzNbgDtK,3ac6mfv6anv2a7u5af0lkpxttwbhzq,3a1cohj8nn8pdvrcsr5awpwhyzph8p,RzNbgDtK,2020-0188,2021-10-30,18:55:16,20:30:59,NA,incomplete,false,NA,true,NA,4,10,NA,NA,NA,left,NA,NA,NA,absent,NA,NA,m_s_067.jpg,white,n_s_070.jpg,red,between,NA,NaN,NA,NA,NA,NA,left,2152,1,3,1428
RzNbgDtK,3ac6mfv6anv2a7u5af0lkpxttwbhzq,3a1cohj8nn8pdvrcsr5awpwhyzph8p,RzNbgDtK,2020-0188,2021-10-30,18:55:16,20:30:59,NA,incomplete,false,true,NA,NA,5,0,NA,orange,n_l_026.jpg,NA,NA,NA,NA,NA,unpleasant,pleasant,NA,NA,NA,NA,NA,left,2208,true,NA,NA,NA,NA,NA,NA,NA,NA
RzNbgDtK,3ac6mfv6anv2a7u5af0lkpxttwbhzq,3a1cohj8nn8pdvrcsr5awpwhyzph8p,RzNbgDtK,2020-0188,2021-10-30,18:55:16,20:30:59,NA,incomplete,false,true,NA,NA,5,1,NA,orange,n_s_029.jpg,NA,NA,NA,NA,NA,pleasant,unpleasant,NA,NA,NA,NA,NA,right,1206,true,NA,NA,NA,NA,NA,NA,NA,NA
RzNbgDtK,3ac6mfv6anv2a7u5af0lkpxttwbhzq,3a1cohj8nn8pdvrcsr5awpwhyzph8p,RzNbgDtK,2020-0188,2021-10-30,18:55:16,20:30:59,NA,incomplete,false,true,NA,NA,5,2,NA,orange,n_l_004.jpg,NA,NA,NA,NA,NA,unpleasant,pleasant,NA,NA,NA,NA,NA,left,1471,true,NA,NA,NA,NA,NA,NA,NA,NA
RzNbgDtK,3ac6mfv6anv2a7u5af0lkpxttwbhzq,3a1cohj8nn8pdvrcsr5awpwhyzph8p,RzNbgDtK,2020-0188,2021-10-30,18:55:16,20:30:59,NA,incomplete,false,true,NA,NA,5,3,NA,orange,n_l_112.jpg,NA,NA,NA,NA,NA,unpleasant,pleasant,NA,NA,NA,NA,NA,right,1690,true,NA,NA,NA,NA,NA,NA,NA,NA
RzNbgDtK,3ac6mfv6anv2a7u5af0lkpxttwbhzq,3a1cohj8nn8pdvrcsr5awpwhyzph8p,RzNbgDtK,2020-0188,2021-10-30,18:55:16,20:30:59,NA,incomplete,false,true,NA,NA,5,4,NA,orange,n_s_089.jpg,NA,NA,NA,NA,NA,unpleasant,pleasant,NA,NA,NA,NA,NA,left,1020,true,NA,NA,NA,NA,NA,NA,NA,NA
RzNbgDtK,3ac6mfv6anv2a7u5af0lkpxttwbhzq,3a1cohj8nn8pdvrcsr5awpwhyzph8p,RzNbgDtK,2020-0188,2021-10-30,18:55:16,20:30:59,NA,incomplete,false,true,NA,NA,5,5,NA,orange,n_s_074.jpg,NA,NA,NA,NA,NA,unpleasant,pleasant,NA,NA,NA,NA,NA,left,2019,true,NA,NA,NA,NA,NA,NA,NA,NA
RzNbgDtK,3ac6mfv6anv2a7u5af0lkpxttwbhzq,3a1cohj8nn8pdvrcsr5awpwhyzph8p,RzNbgDtK,2020-0188,2021-10-30,18:55:16,20:30:59,NA,incomplete,false,true,NA,NA,5,6,NA,red,m_s_037.jpg,NA,NA,NA,NA,NA,unpleasant,pleasant,NA,NA,NA,NA,NA,left,1354,true,NA,NA,NA,NA,NA,NA,NA,NA
RzNbgDtK,3ac6mfv6anv2a7u5af0lkpxttwbhzq,3a1cohj8nn8pdvrcsr5awpwhyzph8p,RzNbgDtK,2020-0188,2021-10-30,18:55:16,20:30:59,NA,incomplete,false,true,NA,NA,5,7,NA,red,m_s_004.jpg,NA,NA,NA,NA,NA,unpleasant,pleasant,NA,NA,NA,NA,NA,left,1175,true,NA,NA,NA,NA,NA,NA,NA,NA
RzNbgDtK,3ac6mfv6anv2a7u5af0lkpxttwbhzq,3a1cohj8nn8pdvrcsr5awpwhyzph8p,RzNbgDtK,2020-0188,2021-10-30,18:55:16,20:30:59,NA,incomplete,false,true,NA,NA,5,8,NA,red,m_l_059.jpg,NA,NA,NA,NA,NA,pleasant,unpleasant,NA,NA,NA,NA,NA,right,1647,true,NA,NA,NA,NA,NA,NA,NA,NA
RzNbgDtK,3ac6mfv6anv2a7u5af0lkpxttwbhzq,3a1cohj8nn8pdvrcsr5awpwhyzph8p,RzNbgDtK,2020-0188,2021-10-30,18:55:16,20:30:59,NA,incomplete,false,true,NA,NA,5,9,NA,red,n_s_071.jpg,NA,NA,NA,NA,NA,pleasant,unpleasant,NA,NA,NA,NA,NA,left,1477,true,NA,NA,NA,NA,NA,NA,NA,NA
RzNbgDtK,3ac6mfv6anv2a7u5af0lkpxttwbhzq,3a1cohj8nn8pdvrcsr5awpwhyzph8p,RzNbgDtK,2020-0188,2021-10-30,18:55:16,20:30:59,NA,incomplete,false,true,NA,NA,5,10,NA,red,n_l_080.jpg,NA,NA,NA,NA,NA,pleasant,unpleasant,NA,NA,NA,NA,NA,left,1354,true,NA,NA,NA,NA,NA,NA,NA,NA
RzNbgDtK,3ac6mfv6anv2a7u5af0lkpxttwbhzq,3a1cohj8nn8pdvrcsr5awpwhyzph8p,RzNbgDtK,2020-0188,2021-10-30,18:55:16,20:30:59,NA,incomplete,false,true,NA,NA,5,11,NA,red,n_s_040.jpg,NA,NA,NA,NA,NA,pleasant,unpleasant,NA,NA,NA,NA,NA,right,1206,true,NA,NA,NA,NA,NA,NA,NA,NA
RzNbgDtK,3ac6mfv6anv2a7u5af0lkpxttwbhzq,3a1cohj8nn8pdvrcsr5awpwhyzph8p,RzNbgDtK,2020-0188,2021-10-30,18:55:16,20:30:59,NA,incomplete,false,true,NA,NA,5,12,NA,black,m_s_056.jpg,NA,NA,NA,NA,NA,unpleasant,pleasant,NA,NA,NA,NA,NA,left,1385,true,NA,NA,NA,NA,NA,NA,NA,NA
RzNbgDtK,3ac6mfv6anv2a7u5af0lkpxttwbhzq,3a1cohj8nn8pdvrcsr5awpwhyzph8p,RzNbgDtK,2020-0188,2021-10-30,18:55:16,20:30:59,NA,incomplete,false,true,NA,NA,5,13,NA,black,n_s_058.jpg,NA,NA,NA,NA,NA,pleasant,unpleasant,NA,NA,NA,NA,NA,right,1297,true,NA,NA,NA,NA,NA,NA,NA,NA
RzNbgDtK,3ac6mfv6anv2a7u5af0lkpxttwbhzq,3a1cohj8nn8pdvrcsr5awpwhyzph8p,RzNbgDtK,2020-0188,2021-10-30,18:55:16,20:30:59,NA,incomplete,false,true,NA,NA,5,14,NA,black,n_l_087.jpg,NA,NA,NA,NA,NA,unpleasant,pleasant,NA,NA,NA,NA,NA,right,1502,true,NA,NA,NA,NA,NA,NA,NA,NA
RzNbgDtK,3ac6mfv6anv2a7u5af0lkpxttwbhzq,3a1cohj8nn8pdvrcsr5awpwhyzph8p,RzNbgDtK,2020-0188,2021-10-30,18:55:16,20:30:59,NA,incomplete,false,true,NA,NA,5,15,NA,black,n_l_071.jpg,NA,NA,NA,NA,NA,pleasant,unpleasant,NA,NA,NA,NA,NA,left,1364,true,NA,NA,NA,NA,NA,NA,NA,NA
RzNbgDtK,3ac6mfv6anv2a7u5af0lkpxttwbhzq,3a1cohj8nn8pdvrcsr5awpwhyzph8p,RzNbgDtK,2020-0188,2021-10-30,18:55:16,20:30:59,NA,incomplete,false,true,NA,NA,5,16,NA,black,m_l_116.jpg,NA,NA,NA,NA,NA,unpleasant,pleasant,NA,NA,NA,NA,NA,right,1053,true,NA,NA,NA,NA,NA,NA,NA,NA
RzNbgDtK,3ac6mfv6anv2a7u5af0lkpxttwbhzq,3a1cohj8nn8pdvrcsr5awpwhyzph8p,RzNbgDtK,2020-0188,2021-10-30,18:55:16,20:30:59,NA,incomplete,false,true,NA,NA,5,17,NA,black,n_s_017.jpg,NA,NA,NA,NA,NA,unpleasant,pleasant,NA,NA,NA,NA,NA,left,1134,true,NA,NA,NA,NA,NA,NA,NA,NA
RzNbgDtK,3ac6mfv6anv2a7u5af0lkpxttwbhzq,3a1cohj8nn8pdvrcsr5awpwhyzph8p,RzNbgDtK,2020-0188,2021-10-30,18:55:16,20:30:59,NA,incomplete,false,true,NA,NA,5,18,NA,blue,m_l_009.jpg,NA,NA,NA,NA,NA,unpleasant,pleasant,NA,NA,NA,NA,NA,right,1754,true,NA,NA,NA,NA,NA,NA,NA,NA
RzNbgDtK,3ac6mfv6anv2a7u5af0lkpxttwbhzq,3a1cohj8nn8pdvrcsr5awpwhyzph8p,RzNbgDtK,2020-0188,2021-10-30,18:55:16,20:30:59,NA,incomplete,false,true,NA,NA,5,19,NA,blue,m_l_044.jpg,NA,NA,NA,NA,NA,unpleasant,pleasant,NA,NA,NA,NA,NA,left,1015,true,NA,NA,NA,NA,NA,NA,NA,NA
RzNbgDtK,3ac6mfv6anv2a7u5af0lkpxttwbhzq,3a1cohj8nn8pdvrcsr5awpwhyzph8p,RzNbgDtK,2020-0188,2021-10-30,18:55:16,20:30:59,NA,incomplete,false,true,NA,NA,5,20,NA,blue,m_s_108.jpg,NA,NA,NA,NA,NA,unpleasant,pleasant,NA,NA,NA,NA,NA,right,1732,true,NA,NA,NA,NA,NA,NA,NA,NA
RzNbgDtK,3ac6mfv6anv2a7u5af0lkpxttwbhzq,3a1cohj8nn8pdvrcsr5awpwhyzph8p,RzNbgDtK,2020-0188,2021-10-30,18:55:16,20:30:59,NA,incomplete,false,true,NA,NA,5,21,NA,blue,m_l_051.jpg,NA,NA,NA,NA,NA,unpleasant,pleasant,NA,NA,NA,NA,NA,right,1395,true,NA,NA,NA,NA,NA,NA,NA,NA
RzNbgDtK,3ac6mfv6anv2a7u5af0lkpxttwbhzq,3a1cohj8nn8pdvrcsr5awpwhyzph8p,RzNbgDtK,2020-0188,2021-10-30,18:55:16,20:30:59,NA,incomplete,false,true,NA,NA,5,22,NA,blue,n_s_014.jpg,NA,NA,NA,NA,NA,unpleasant,pleasant,NA,NA,NA,NA,NA,left,1214,true,NA,NA,NA,NA,NA,NA,NA,NA
RzNbgDtK,3ac6mfv6anv2a7u5af0lkpxttwbhzq,3a1cohj8nn8pdvrcsr5awpwhyzph8p,RzNbgDtK,2020-0188,2021-10-30,18:55:16,20:30:59,NA,incomplete,false,true,NA,NA,5,23,NA,blue,n_s_012.jpg,NA,NA,NA,NA,NA,pleasant,unpleasant,NA,NA,NA,NA,NA,left,1286,true,NA,NA,NA,NA,NA,NA,NA,NA
RzNbgDtK,3ac6mfv6anv2a7u5af0lkpxttwbhzq,3a1cohj8nn8pdvrcsr5awpwhyzph8p,RzNbgDtK,2020-0188,2021-10-30,18:55:16,20:30:59,NA,incomplete,false,true,NA,NA,5,24,NA,purple,n_s_085.jpg,NA,NA,NA,NA,NA,unpleasant,pleasant,NA,NA,NA,NA,NA,left,1792,true,NA,NA,NA,NA,NA,NA,NA,NA
RzNbgDtK,3ac6mfv6anv2a7u5af0lkpxttwbhzq,3a1cohj8nn8pdvrcsr5awpwhyzph8p,RzNbgDtK,2020-0188,2021-10-30,18:55:16,20:30:59,NA,incomplete,false,true,NA,NA,5,25,NA,purple,n_l_096.jpg,NA,NA,NA,NA,NA,pleasant,unpleasant,NA,NA,NA,NA,NA,left,1177,true,NA,NA,NA,NA,NA,NA,NA,NA
RzNbgDtK,3ac6mfv6anv2a7u5af0lkpxttwbhzq,3a1cohj8nn8pdvrcsr5awpwhyzph8p,RzNbgDtK,2020-0188,2021-10-30,18:55:16,20:30:59,NA,incomplete,false,true,NA,NA,5,26,NA,purple,n_s_067.jpg,NA,NA,NA,NA,NA,pleasant,unpleasant,NA,NA,NA,NA,NA,right,1319,true,NA,NA,NA,NA,NA,NA,NA,NA
RzNbgDtK,3ac6mfv6anv2a7u5af0lkpxttwbhzq,3a1cohj8nn8pdvrcsr5awpwhyzph8p,RzNbgDtK,2020-0188,2021-10-30,18:55:16,20:30:59,NA,incomplete,false,true,NA,NA,5,27,NA,purple,n_l_103.jpg,NA,NA,NA,NA,NA,unpleasant,pleasant,NA,NA,NA,NA,NA,left,1100,true,NA,NA,NA,NA,NA,NA,NA,NA
RzNbgDtK,3ac6mfv6anv2a7u5af0lkpxttwbhzq,3a1cohj8nn8pdvrcsr5awpwhyzph8p,RzNbgDtK,2020-0188,2021-10-30,18:55:16,20:30:59,NA,incomplete,false,true,NA,NA,5,28,NA,purple,n_l_061.jpg,NA,NA,NA,NA,NA,pleasant,unpleasant,NA,NA,NA,NA,NA,right,1328,true,NA,NA,NA,NA,NA,NA,NA,NA
RzNbgDtK,3ac6mfv6anv2a7u5af0lkpxttwbhzq,3a1cohj8nn8pdvrcsr5awpwhyzph8p,RzNbgDtK,2020-0188,2021-10-30,18:55:16,20:30:59,NA,incomplete,false,true,NA,NA,5,29,NA,purple,m_s_059.jpg,NA,NA,NA,NA,NA,unpleasant,pleasant,NA,NA,NA,NA,NA,left,1189,true,NA,NA,NA,NA,NA,NA,NA,NA
RzNbgDtK,3ac6mfv6anv2a7u5af0lkpxttwbhzq,3a1cohj8nn8pdvrcsr5awpwhyzph8p,RzNbgDtK,2020-0188,2021-10-30,18:55:16,20:30:59,NA,incomplete,false,true,NA,NA,5,30,NA,gray,m_l_079.jpg,NA,NA,NA,NA,NA,unpleasant,pleasant,NA,NA,NA,NA,NA,left,1147,true,NA,NA,NA,NA,NA,NA,NA,NA
RzNbgDtK,3ac6mfv6anv2a7u5af0lkpxttwbhzq,3a1cohj8nn8pdvrcsr5awpwhyzph8p,RzNbgDtK,2020-0188,2021-10-30,18:55:16,20:30:59,NA,incomplete,false,true,NA,NA,5,31,NA,gray,m_s_079.jpg,NA,NA,NA,NA,NA,unpleasant,pleasant,NA,NA,NA,NA,NA,left,1263,true,NA,NA,NA,NA,NA,NA,NA,NA
RzNbgDtK,3ac6mfv6anv2a7u5af0lkpxttwbhzq,3a1cohj8nn8pdvrcsr5awpwhyzph8p,RzNbgDtK,2020-0188,2021-10-30,18:55:16,20:30:59,NA,incomplete,false,true,NA,NA,5,32,NA,gray,m_l_100.jpg,NA,NA,NA,NA,NA,unpleasant,pleasant,NA,NA,NA,NA,NA,left,1265,true,NA,NA,NA,NA,NA,NA,NA,NA
