workerId,hitId,assignmentId,subject,studyid,exp_date,exp_start,exp_end,time_start,time_end,practice,encoding,memory,association,block,trial,event_order,event,stim,answer,object,left_context,right_context,context_type,label_left,label_right,left_image,left_event,right_image,right_event,condition,response,response_time,response_acc,association_response_time,association_response,association_acc,order_response,order_response_time,order_acc,distance_response,distance_response_time
9L87LgEW,3087lxlj7ptluqx9bvztb5iuvan0fr,3a4tn5196ovrpyhp93lfybs0oqwhch,9L87LgEW,2020-0188,2021-10-31,09:30:50,11:37:11,NA,incomplete,true,true,NA,NA,0,0,NA,white,m_s_010.jpg,NA,NA,NA,NA,NA,pleasant,unpleasant,NA,NA,NA,NA,NA,none,0,false,NA,NA,NA,NA,NA,NA,NA,NA
9L87LgEW,3087lxlj7ptluqx9bvztb5iuvan0fr,3a4tn5196ovrpyhp93lfybs0oqwhch,9L87LgEW,2020-0188,2021-10-31,09:30:50,11:37:11,NA,incomplete,true,true,NA,NA,0,1,NA,white,n_s_097.jpg,NA,NA,NA,NA,NA,pleasant,unpleasant,NA,NA,NA,NA,NA,right,314.199999988079,true,NA,NA,NA,NA,NA,NA,NA,NA
9L87LgEW,3087lxlj7ptluqx9bvztb5iuvan0fr,3a4tn5196ovrpyhp93lfybs0oqwhch,9L87LgEW,2020-0188,2021-10-31,09:30:50,11:37:11,NA,incomplete,true,true,NA,NA,0,2,NA,white,m_l_019.jpg,NA,NA,NA,NA,NA,unpleasant,pleasant,NA,NA,NA,NA,NA,right,624.40000000596,true,NA,NA,NA,NA,NA,NA,NA,NA
9L87LgEW,3087lxlj7ptluqx9bvztb5iuvan0fr,3a4tn5196ovrpyhp93lfybs0oqwhch,9L87LgEW,2020-0188,2021-10-31,09:30:50,11:37:11,NA,incomplete,true,true,NA,NA,0,3,NA,white,m_s_031.jpg,NA,NA,NA,NA,NA,pleasant,unpleasant,NA,NA,NA,NA,NA,left,1187.19999998808,true,NA,NA,NA,NA,NA,NA,NA,NA
9L87LgEW,3087lxlj7ptluqx9bvztb5iuvan0fr,3a4tn5196ovrpyhp93lfybs0oqwhch,9L87LgEW,2020-0188,2021-10-31,09:30:50,11:37:11,NA,incomplete,true,true,NA,NA,0,4,NA,white,m_s_057.jpg,NA,NA,NA,NA,NA,unpleasant,pleasant,NA,NA,NA,NA,NA,right,526.5,true,NA,NA,NA,NA,NA,NA,NA,NA
9L87LgEW,3087lxlj7ptluqx9bvztb5iuvan0fr,3a4tn5196ovrpyhp93lfybs0oqwhch,9L87LgEW,2020-0188,2021-10-31,09:30:50,11:37:11,NA,incomplete,true,true,NA,NA,0,5,NA,white,n_s_093.jpg,NA,NA,NA,NA,NA,pleasant,unpleasant,NA,NA,NA,NA,NA,right,436.700000017881,true,NA,NA,NA,NA,NA,NA,NA,NA
9L87LgEW,3087lxlj7ptluqx9bvztb5iuvan0fr,3a4tn5196ovrpyhp93lfybs0oqwhch,9L87LgEW,2020-0188,2021-10-31,09:30:50,11:37:11,NA,incomplete,true,true,NA,NA,0,6,NA,green,n_s_015.jpg,NA,NA,NA,NA,NA,unpleasant,pleasant,NA,NA,NA,NA,NA,left,655.699999988079,true,NA,NA,NA,NA,NA,NA,NA,NA
9L87LgEW,3087lxlj7ptluqx9bvztb5iuvan0fr,3a4tn5196ovrpyhp93lfybs0oqwhch,9L87LgEW,2020-0188,2021-10-31,09:30:50,11:37:11,NA,incomplete,true,true,NA,NA,0,7,NA,green,m_l_029.jpg,NA,NA,NA,NA,NA,unpleasant,pleasant,NA,NA,NA,NA,NA,right,426.699999988079,true,NA,NA,NA,NA,NA,NA,NA,NA
9L87LgEW,3087lxlj7ptluqx9bvztb5iuvan0fr,3a4tn5196ovrpyhp93lfybs0oqwhch,9L87LgEW,2020-0188,2021-10-31,09:30:50,11:37:11,NA,incomplete,true,true,NA,NA,0,8,NA,green,n_s_035.jpg,NA,NA,NA,NA,NA,unpleasant,pleasant,NA,NA,NA,NA,NA,right,419.600000023842,true,NA,NA,NA,NA,NA,NA,NA,NA
9L87LgEW,3087lxlj7ptluqx9bvztb5iuvan0fr,3a4tn5196ovrpyhp93lfybs0oqwhch,9L87LgEW,2020-0188,2021-10-31,09:30:50,11:37:11,NA,incomplete,true,true,NA,NA,0,9,NA,green,n_l_027.jpg,NA,NA,NA,NA,NA,unpleasant,pleasant,NA,NA,NA,NA,NA,right,889.800000011921,true,NA,NA,NA,NA,NA,NA,NA,NA
9L87LgEW,3087lxlj7ptluqx9bvztb5iuvan0fr,3a4tn5196ovrpyhp93lfybs0oqwhch,9L87LgEW,2020-0188,2021-10-31,09:30:50,11:37:11,NA,incomplete,true,true,NA,NA,0,10,NA,green,m_l_037.jpg,NA,NA,NA,NA,NA,unpleasant,pleasant,NA,NA,NA,NA,NA,right,704.5,true,NA,NA,NA,NA,NA,NA,NA,NA
9L87LgEW,3087lxlj7ptluqx9bvztb5iuvan0fr,3a4tn5196ovrpyhp93lfybs0oqwhch,9L87LgEW,2020-0188,2021-10-31,09:30:50,11:37:11,NA,incomplete,true,true,NA,NA,0,11,NA,green,m_s_001.jpg,NA,NA,NA,NA,NA,unpleasant,pleasant,NA,NA,NA,NA,NA,right,1034.90000000596,true,NA,NA,NA,NA,NA,NA,NA,NA
9L87LgEW,3087lxlj7ptluqx9bvztb5iuvan0fr,3a4tn5196ovrpyhp93lfybs0oqwhch,9L87LgEW,2020-0188,2021-10-31,09:30:50,11:37:11,NA,incomplete,true,true,NA,NA,0,12,NA,brown,n_s_101.jpg,NA,NA,NA,NA,NA,unpleasant,pleasant,NA,NA,NA,NA,NA,right,968.90000000596,true,NA,NA,NA,NA,NA,NA,NA,NA
9L87LgEW,3087lxlj7ptluqx9bvztb5iuvan0fr,3a4tn5196ovrpyhp93lfybs0oqwhch,9L87LgEW,2020-0188,2021-10-31,09:30:50,11:37:11,NA,incomplete,true,true,NA,NA,0,13,NA,brown,m_l_079.jpg,NA,NA,NA,NA,NA,unpleasant,pleasant,NA,NA,NA,NA,NA,right,640.699999988079,true,NA,NA,NA,NA,NA,NA,NA,NA
9L87LgEW,3087lxlj7ptluqx9bvztb5iuvan0fr,3a4tn5196ovrpyhp93lfybs0oqwhch,9L87LgEW,2020-0188,2021-10-31,09:30:50,11:37:11,NA,incomplete,true,true,NA,NA,0,14,NA,brown,n_s_039.jpg,NA,NA,NA,NA,NA,pleasant,unpleasant,NA,NA,NA,NA,NA,right,1317.29999998212,true,NA,NA,NA,NA,NA,NA,NA,NA
9L87LgEW,3087lxlj7ptluqx9bvztb5iuvan0fr,3a4tn5196ovrpyhp93lfybs0oqwhch,9L87LgEW,2020-0188,2021-10-31,09:30:50,11:37:11,NA,incomplete,true,true,NA,NA,0,15,NA,brown,m_s_018.jpg,NA,NA,NA,NA,NA,pleasant,unpleasant,NA,NA,NA,NA,NA,left,1461,true,NA,NA,NA,NA,NA,NA,NA,NA
9L87LgEW,3087lxlj7ptluqx9bvztb5iuvan0fr,3a4tn5196ovrpyhp93lfybs0oqwhch,9L87LgEW,2020-0188,2021-10-31,09:30:50,11:37:11,NA,incomplete,true,true,NA,NA,0,16,NA,brown,m_l_020.jpg,NA,NA,NA,NA,NA,unpleasant,pleasant,NA,NA,NA,NA,NA,left,821.5,true,NA,NA,NA,NA,NA,NA,NA,NA
9L87LgEW,3087lxlj7ptluqx9bvztb5iuvan0fr,3a4tn5196ovrpyhp93lfybs0oqwhch,9L87LgEW,2020-0188,2021-10-31,09:30:50,11:37:11,NA,incomplete,true,true,NA,NA,0,17,NA,brown,m_s_066.jpg,NA,NA,NA,NA,NA,pleasant,unpleasant,NA,NA,NA,NA,NA,right,537.09999999404,true,NA,NA,NA,NA,NA,NA,NA,NA
9L87LgEW,3087lxlj7ptluqx9bvztb5iuvan0fr,3a4tn5196ovrpyhp93lfybs0oqwhch,9L87LgEW,2020-0188,2021-10-31,09:30:50,11:37:11,NA,incomplete,true,true,NA,NA,0,18,NA,red,n_l_094.jpg,NA,NA,NA,NA,NA,pleasant,unpleasant,NA,NA,NA,NA,NA,right,496.700000017881,true,NA,NA,NA,NA,NA,NA,NA,NA
9L87LgEW,3087lxlj7ptluqx9bvztb5iuvan0fr,3a4tn5196ovrpyhp93lfybs0oqwhch,9L87LgEW,2020-0188,2021-10-31,09:30:50,11:37:11,NA,incomplete,true,true,NA,NA,0,19,NA,red,n_s_027.jpg,NA,NA,NA,NA,NA,unpleasant,pleasant,NA,NA,NA,NA,NA,left,484,true,NA,NA,NA,NA,NA,NA,NA,NA
9L87LgEW,3087lxlj7ptluqx9bvztb5iuvan0fr,3a4tn5196ovrpyhp93lfybs0oqwhch,9L87LgEW,2020-0188,2021-10-31,09:30:50,11:37:11,NA,incomplete,true,true,NA,NA,0,20,NA,red,n_l_070.jpg,NA,NA,NA,NA,NA,pleasant,unpleasant,NA,NA,NA,NA,NA,left,702.699999988079,true,NA,NA,NA,NA,NA,NA,NA,NA
9L87LgEW,3087lxlj7ptluqx9bvztb5iuvan0fr,3a4tn5196ovrpyhp93lfybs0oqwhch,9L87LgEW,2020-0188,2021-10-31,09:30:50,11:37:11,NA,incomplete,true,true,NA,NA,0,21,NA,red,n_l_049.jpg,NA,NA,NA,NA,NA,unpleasant,pleasant,NA,NA,NA,NA,NA,left,462.5,true,NA,NA,NA,NA,NA,NA,NA,NA
9L87LgEW,3087lxlj7ptluqx9bvztb5iuvan0fr,3a4tn5196ovrpyhp93lfybs0oqwhch,9L87LgEW,2020-0188,2021-10-31,09:30:50,11:37:11,NA,incomplete,true,true,NA,NA,0,22,NA,red,m_l_025.jpg,NA,NA,NA,NA,NA,pleasant,unpleasant,NA,NA,NA,NA,NA,left,561.40000000596,true,NA,NA,NA,NA,NA,NA,NA,NA
9L87LgEW,3087lxlj7ptluqx9bvztb5iuvan0fr,3a4tn5196ovrpyhp93lfybs0oqwhch,9L87LgEW,2020-0188,2021-10-31,09:30:50,11:37:11,NA,incomplete,true,true,NA,NA,0,23,NA,red,m_l_038.jpg,NA,NA,NA,NA,NA,unpleasant,pleasant,NA,NA,NA,NA,NA,left,553.699999988079,true,NA,NA,NA,NA,NA,NA,NA,NA
9L87LgEW,3087lxlj7ptluqx9bvztb5iuvan0fr,3a4tn5196ovrpyhp93lfybs0oqwhch,9L87LgEW,2020-0188,2021-10-31,09:30:50,11:37:11,NA,incomplete,true,true,NA,NA,0,24,NA,orange,m_s_038.jpg,NA,NA,NA,NA,NA,pleasant,unpleasant,NA,NA,NA,NA,NA,left,1002.40000000596,true,NA,NA,NA,NA,NA,NA,NA,NA
9L87LgEW,3087lxlj7ptluqx9bvztb5iuvan0fr,3a4tn5196ovrpyhp93lfybs0oqwhch,9L87LgEW,2020-0188,2021-10-31,09:30:50,11:37:11,NA,incomplete,true,true,NA,NA,0,25,NA,orange,n_l_099.jpg,NA,NA,NA,NA,NA,pleasant,unpleasant,NA,NA,NA,NA,NA,right,1345.39999997616,true,NA,NA,NA,NA,NA,NA,NA,NA
9L87LgEW,3087lxlj7ptluqx9bvztb5iuvan0fr,3a4tn5196ovrpyhp93lfybs0oqwhch,9L87LgEW,2020-0188,2021-10-31,09:30:50,11:37:11,NA,incomplete,true,true,NA,NA,0,26,NA,orange,n_l_056.jpg,NA,NA,NA,NA,NA,pleasant,unpleasant,NA,NA,NA,NA,NA,left,578,true,NA,NA,NA,NA,NA,NA,NA,NA
9L87LgEW,3087lxlj7ptluqx9bvztb5iuvan0fr,3a4tn5196ovrpyhp93lfybs0oqwhch,9L87LgEW,2020-0188,2021-10-31,09:30:50,11:37:11,NA,incomplete,true,true,NA,NA,0,27,NA,orange,m_s_108.jpg,NA,NA,NA,NA,NA,unpleasant,pleasant,NA,NA,NA,NA,NA,left,1161.29999998212,true,NA,NA,NA,NA,NA,NA,NA,NA
9L87LgEW,3087lxlj7ptluqx9bvztb5iuvan0fr,3a4tn5196ovrpyhp93lfybs0oqwhch,9L87LgEW,2020-0188,2021-10-31,09:30:50,11:37:11,NA,incomplete,true,true,NA,NA,0,28,NA,orange,n_s_020.jpg,NA,NA,NA,NA,NA,pleasant,unpleasant,NA,NA,NA,NA,NA,right,930.90000000596,true,NA,NA,NA,NA,NA,NA,NA,NA
9L87LgEW,3087lxlj7ptluqx9bvztb5iuvan0fr,3a4tn5196ovrpyhp93lfybs0oqwhch,9L87LgEW,2020-0188,2021-10-31,09:30:50,11:37:11,NA,incomplete,true,true,NA,NA,0,29,NA,orange,n_l_078.jpg,NA,NA,NA,NA,NA,unpleasant,pleasant,NA,NA,NA,NA,NA,left,556.90000000596,true,NA,NA,NA,NA,NA,NA,NA,NA
9L87LgEW,3087lxlj7ptluqx9bvztb5iuvan0fr,3a4tn5196ovrpyhp93lfybs0oqwhch,9L87LgEW,2020-0188,2021-10-31,09:30:50,11:37:11,NA,incomplete,true,true,NA,NA,0,30,NA,black,n_s_055.jpg,NA,NA,NA,NA,NA,pleasant,unpleasant,NA,NA,NA,NA,NA,right,422.40000000596,true,NA,NA,NA,NA,NA,NA,NA,NA
9L87LgEW,3087lxlj7ptluqx9bvztb5iuvan0fr,3a4tn5196ovrpyhp93lfybs0oqwhch,9L87LgEW,2020-0188,2021-10-31,09:30:50,11:37:11,NA,incomplete,true,true,NA,NA,0,31,NA,black,n_l_112.jpg,NA,NA,NA,NA,NA,pleasant,unpleasant,NA,NA,NA,NA,NA,left,327.899999976158,true,NA,NA,NA,NA,NA,NA,NA,NA
9L87LgEW,3087lxlj7ptluqx9bvztb5iuvan0fr,3a4tn5196ovrpyhp93lfybs0oqwhch,9L87LgEW,2020-0188,2021-10-31,09:30:50,11:37:11,NA,incomplete,true,true,NA,NA,0,32,NA,black,n_l_041.jpg,NA,NA,NA,NA,NA,pleasant,unpleasant,NA,NA,NA,NA,NA,right,612.800000011921,true,NA,NA,NA,NA,NA,NA,NA,NA
9L87LgEW,3087lxlj7ptluqx9bvztb5iuvan0fr,3a4tn5196ovrpyhp93lfybs0oqwhch,9L87LgEW,2020-0188,2021-10-31,09:30:50,11:37:11,NA,incomplete,true,true,NA,NA,0,33,NA,black,n_l_097.jpg,NA,NA,NA,NA,NA,unpleasant,pleasant,NA,NA,NA,NA,NA,right,704.59999999404,true,NA,NA,NA,NA,NA,NA,NA,NA
9L87LgEW,3087lxlj7ptluqx9bvztb5iuvan0fr,3a4tn5196ovrpyhp93lfybs0oqwhch,9L87LgEW,2020-0188,2021-10-31,09:30:50,11:37:11,NA,incomplete,true,true,NA,NA,0,34,NA,black,m_l_018.jpg,NA,NA,NA,NA,NA,unpleasant,pleasant,NA,NA,NA,NA,NA,right,468.59999999404,true,NA,NA,NA,NA,NA,NA,NA,NA
9L87LgEW,3087lxlj7ptluqx9bvztb5iuvan0fr,3a4tn5196ovrpyhp93lfybs0oqwhch,9L87LgEW,2020-0188,2021-10-31,09:30:50,11:37:11,NA,incomplete,true,true,NA,NA,0,35,NA,black,n_l_043.jpg,NA,NA,NA,NA,NA,unpleasant,pleasant,NA,NA,NA,NA,NA,right,542.299999982119,true,NA,NA,NA,NA,NA,NA,NA,NA
9L87LgEW,3087lxlj7ptluqx9bvztb5iuvan0fr,3a4tn5196ovrpyhp93lfybs0oqwhch,9L87LgEW,2020-0188,2021-10-31,09:30:50,11:37:11,NA,incomplete,true,NA,NA,true,0,0,NA,NA,NA,left,m_l_079.jpg,brown,green,NA,NA,NA,NA,NA,NA,NA,NA,NA,NaN,NA,34021.30000001192,left,1,NA,NA,NA,NA,NA
9L87LgEW,3087lxlj7ptluqx9bvztb5iuvan0fr,3a4tn5196ovrpyhp93lfybs0oqwhch,9L87LgEW,2020-0188,2021-10-31,09:30:50,11:37:11,NA,incomplete,true,NA,NA,true,0,1,NA,NA,NA,left,m_s_066.jpg,brown,green,NA,NA,NA,NA,NA,NA,NA,NA,NA,NaN,NA,21735.20000001788,left,1,NA,NA,NA,NA,NA
9L87LgEW,3087lxlj7ptluqx9bvztb5iuvan0fr,3a4tn5196ovrpyhp93lfybs0oqwhch,9L87LgEW,2020-0188,2021-10-31,09:30:50,11:37:11,NA,incomplete,true,NA,NA,true,0,2,NA,NA,NA,left,m_s_057.jpg,white,green,NA,NA,NA,NA,NA,NA,NA,NA,NA,NaN,NA,47148.59999999404,left,1,NA,NA,NA,NA,NA
9L87LgEW,3087lxlj7ptluqx9bvztb5iuvan0fr,3a4tn5196ovrpyhp93lfybs0oqwhch,9L87LgEW,2020-0188,2021-10-31,09:30:50,11:37:11,NA,incomplete,true,NA,NA,true,0,3,NA,NA,NA,right,n_s_027.jpg,brown,red,NA,NA,NA,NA,NA,NA,NA,NA,NA,NaN,NA,200191,left,0,NA,NA,NA,NA,NA
9L87LgEW,3087lxlj7ptluqx9bvztb5iuvan0fr,3a4tn5196ovrpyhp93lfybs0oqwhch,9L87LgEW,2020-0188,2021-10-31,09:30:50,11:37:11,NA,incomplete,true,NA,NA,true,0,4,NA,NA,NA,left,m_l_020.jpg,brown,red,NA,NA,NA,NA,NA,NA,NA,NA,NA,NaN,NA,2646.5,left,1,NA,NA,NA,NA,NA
9L87LgEW,3087lxlj7ptluqx9bvztb5iuvan0fr,3a4tn5196ovrpyhp93lfybs0oqwhch,9L87LgEW,2020-0188,2021-10-31,09:30:50,11:37:11,NA,incomplete,true,NA,NA,true,0,5,NA,NA,NA,right,n_s_093.jpg,green,white,NA,NA,NA,NA,NA,NA,NA,NA,NA,NaN,NA,2831,left,0,NA,NA,NA,NA,NA
9L87LgEW,3087lxlj7ptluqx9bvztb5iuvan0fr,3a4tn5196ovrpyhp93lfybs0oqwhch,9L87LgEW,2020-0188,2021-10-31,09:30:50,11:37:11,NA,incomplete,true,NA,NA,true,0,6,NA,NA,NA,left,m_l_037.jpg,green,brown,NA,NA,NA,NA,NA,NA,NA,NA,NA,NaN,NA,4647.200000017881,left,1,NA,NA,NA,NA,NA
9L87LgEW,3087lxlj7ptluqx9bvztb5iuvan0fr,3a4tn5196ovrpyhp93lfybs0oqwhch,9L87LgEW,2020-0188,2021-10-31,09:30:50,11:37:11,NA,incomplete,true,NA,NA,true,0,7,NA,NA,NA,left,m_l_029.jpg,green,white,NA,NA,NA,NA,NA,NA,NA,NA,NA,NaN,NA,2999,left,1,NA,NA,NA,NA,NA
9L87LgEW,3087lxlj7ptluqx9bvztb5iuvan0fr,3a4tn5196ovrpyhp93lfybs0oqwhch,9L87LgEW,2020-0188,2021-10-31,09:30:50,11:37:11,NA,incomplete,true,NA,NA,true,0,8,NA,NA,NA,left,m_s_001.jpg,green,brown,NA,NA,NA,NA,NA,NA,NA,NA,NA,NaN,NA,1887.2000000178814,left,1,NA,NA,NA,NA,NA
9L87LgEW,3087lxlj7ptluqx9bvztb5iuvan0fr,3a4tn5196ovrpyhp93lfybs0oqwhch,9L87LgEW,2020-0188,2021-10-31,09:30:50,11:37:11,NA,incomplete,true,NA,NA,true,0,9,NA,NA,NA,left,n_l_056.jpg,orange,red,NA,NA,NA,NA,NA,NA,NA,NA,NA,NaN,NA,2247,left,1,NA,NA,NA,NA,NA
9L87LgEW,3087lxlj7ptluqx9bvztb5iuvan0fr,3a4tn5196ovrpyhp93lfybs0oqwhch,9L87LgEW,2020-0188,2021-10-31,09:30:50,11:37:11,NA,incomplete,true,NA,NA,true,0,10,NA,NA,NA,right,n_l_043.jpg,orange,black,NA,NA,NA,NA,NA,NA,NA,NA,NA,NaN,NA,1879.5,left,0,NA,NA,NA,NA,NA
9L87LgEW,3087lxlj7ptluqx9bvztb5iuvan0fr,3a4tn5196ovrpyhp93lfybs0oqwhch,9L87LgEW,2020-0188,2021-10-31,09:30:50,11:37:11,NA,incomplete,true,NA,NA,true,0,11,NA,NA,NA,right,n_l_112.jpg,orange,black,NA,NA,NA,NA,NA,NA,NA,NA,NA,NaN,NA,1647.300000011921,left,0,NA,NA,NA,NA,NA
9L87LgEW,3087lxlj7ptluqx9bvztb5iuvan0fr,3a4tn5196ovrpyhp93lfybs0oqwhch,9L87LgEW,2020-0188,2021-10-31,09:30:50,11:37:11,NA,incomplete,true,NA,NA,true,0,12,NA,NA,NA,right,n_s_035.jpg,white,green,NA,NA,NA,NA,NA,NA,NA,NA,NA,NaN,NA,2119.100000023842,right,1,NA,NA,NA,NA,NA
9L87LgEW,3087lxlj7ptluqx9bvztb5iuvan0fr,3a4tn5196ovrpyhp93lfybs0oqwhch,9L87LgEW,2020-0188,2021-10-31,09:30:50,11:37:11,NA,incomplete,true,NA,NA,true,0,13,NA,NA,NA,right,n_l_070.jpg,orange,red,NA,NA,NA,NA,NA,NA,NA,NA,NA,NaN,NA,1071,right,1,NA,NA,NA,NA,NA
9L87LgEW,3087lxlj7ptluqx9bvztb5iuvan0fr,3a4tn5196ovrpyhp93lfybs0oqwhch,9L87LgEW,2020-0188,2021-10-31,09:30:50,11:37:11,NA,incomplete,true,NA,NA,true,0,14,NA,NA,NA,right,m_l_025.jpg,orange,red,NA,NA,NA,NA,NA,NA,NA,NA,NA,NaN,NA,2047.1000000238419,right,1,NA,NA,NA,NA,NA
9L87LgEW,3087lxlj7ptluqx9bvztb5iuvan0fr,3a4tn5196ovrpyhp93lfybs0oqwhch,9L87LgEW,2020-0188,2021-10-31,09:30:50,11:37:11,NA,incomplete,true,NA,NA,true,0,15,NA,NA,NA,right,n_s_020.jpg,black,orange,NA,NA,NA,NA,NA,NA,NA,NA,NA,NaN,NA,1687,right,1,NA,NA,NA,NA,NA
9L87LgEW,3087lxlj7ptluqx9bvztb5iuvan0fr,3a4tn5196ovrpyhp93lfybs0oqwhch,9L87LgEW,2020-0188,2021-10-31,09:30:50,11:37:11,NA,incomplete,true,NA,NA,true,0,16,NA,NA,NA,left,n_s_097.jpg,white,green,NA,NA,NA,NA,NA,NA,NA,NA,NA,NaN,NA,1190.0999999940395,right,0,NA,NA,NA,NA,NA
9L87LgEW,3087lxlj7ptluqx9bvztb5iuvan0fr,3a4tn5196ovrpyhp93lfybs0oqwhch,9L87LgEW,2020-0188,2021-10-31,09:30:50,11:37:11,NA,incomplete,true,NA,NA,true,0,17,NA,NA,NA,right,n_l_041.jpg,orange,black,NA,NA,NA,NA,NA,NA,NA,NA,NA,NaN,NA,975.3000000119209,right,1,NA,NA,NA,NA,NA
9L87LgEW,3087lxlj7ptluqx9bvztb5iuvan0fr,3a4tn5196ovrpyhp93lfybs0oqwhch,9L87LgEW,2020-0188,2021-10-31,09:30:50,11:37:11,NA,incomplete,true,NA,NA,true,0,18,NA,NA,NA,right,n_l_078.jpg,red,orange,NA,NA,NA,NA,NA,NA,NA,NA,NA,NaN,NA,1207.1000000238419,right,1,NA,NA,NA,NA,NA
9L87LgEW,3087lxlj7ptluqx9bvztb5iuvan0fr,3a4tn5196ovrpyhp93lfybs0oqwhch,9L87LgEW,2020-0188,2021-10-31,09:30:50,11:37:11,NA,incomplete,true,NA,NA,true,0,19,NA,NA,NA,right,n_l_099.jpg,black,orange,NA,NA,NA,NA,NA,NA,NA,NA,NA,NaN,NA,1335.199999988079,right,1,NA,NA,NA,NA,NA
9L87LgEW,3087lxlj7ptluqx9bvztb5iuvan0fr,3a4tn5196ovrpyhp93lfybs0oqwhch,9L87LgEW,2020-0188,2021-10-31,09:30:50,11:37:11,NA,incomplete,true,NA,NA,true,0,20,NA,NA,NA,right,m_l_038.jpg,brown,red,NA,NA,NA,NA,NA,NA,NA,NA,NA,NaN,NA,1327.4000000059605,left,0,NA,NA,NA,NA,NA
9L87LgEW,3087lxlj7ptluqx9bvztb5iuvan0fr,3a4tn5196ovrpyhp93lfybs0oqwhch,9L87LgEW,2020-0188,2021-10-31,09:30:50,11:37:11,NA,incomplete,true,NA,NA,true,0,21,NA,NA,NA,left,n_s_039.jpg,brown,red,NA,NA,NA,NA,NA,NA,NA,NA,NA,NaN,NA,1491.4000000059605,right,0,NA,NA,NA,NA,NA
9L87LgEW,3087lxlj7ptluqx9bvztb5iuvan0fr,3a4tn5196ovrpyhp93lfybs0oqwhch,9L87LgEW,2020-0188,2021-10-31,09:30:50,11:37:11,NA,incomplete,true,NA,true,NA,0,0,NA,NA,NA,left,NA,NA,NA,present,NA,NA,m_l_025.jpg,red,n_l_056.jpg,orange,between,NA,NaN,NA,NA,NA,NA,left,25102.80000001192,1,2,3119.2000000178814
9L87LgEW,3087lxlj7ptluqx9bvztb5iuvan0fr,3a4tn5196ovrpyhp93lfybs0oqwhch,9L87LgEW,2020-0188,2021-10-31,09:30:50,11:37:11,NA,incomplete,true,NA,true,NA,0,1,NA,NA,NA,left,NA,NA,NA,present,NA,NA,m_s_057.jpg,white,n_s_035.jpg,green,between,NA,NaN,NA,NA,NA,NA,left,22295.09999999404,1,1,1615.0999999940395
9L87LgEW,3087lxlj7ptluqx9bvztb5iuvan0fr,3a4tn5196ovrpyhp93lfybs0oqwhch,9L87LgEW,2020-0188,2021-10-31,09:30:50,11:37:11,NA,incomplete,true,NA,true,NA,0,2,NA,NA,NA,right,NA,NA,NA,present,NA,NA,n_s_093.jpg,white,n_s_097.jpg,white,within,NA,NaN,NA,NA,NA,NA,right,12711.199999988079,1,1,1543
9L87LgEW,3087lxlj7ptluqx9bvztb5iuvan0fr,3a4tn5196ovrpyhp93lfybs0oqwhch,9L87LgEW,2020-0188,2021-10-31,09:30:50,11:37:11,NA,incomplete,true,NA,true,NA,0,3,NA,NA,NA,right,NA,NA,NA,present,NA,NA,n_l_078.jpg,orange,n_l_099.jpg,orange,within,NA,NaN,NA,NA,NA,NA,right,27911,1,2,1431
9L87LgEW,3087lxlj7ptluqx9bvztb5iuvan0fr,3a4tn5196ovrpyhp93lfybs0oqwhch,9L87LgEW,2020-0188,2021-10-31,09:30:50,11:37:11,NA,incomplete,true,NA,true,NA,0,4,NA,NA,NA,right,NA,NA,NA,present,NA,NA,m_s_066.jpg,brown,m_l_079.jpg,brown,within,NA,NaN,NA,NA,NA,NA,right,10902.899999976158,1,1,3222.899999976158
9L87LgEW,3087lxlj7ptluqx9bvztb5iuvan0fr,3a4tn5196ovrpyhp93lfybs0oqwhch,9L87LgEW,2020-0188,2021-10-31,09:30:50,11:37:11,NA,incomplete,true,NA,true,NA,0,5,NA,NA,NA,right,NA,NA,NA,present,NA,NA,n_s_039.jpg,brown,m_l_037.jpg,green,between,NA,NaN,NA,NA,NA,NA,right,22567,1,1,1519.199999988079
9L87LgEW,3087lxlj7ptluqx9bvztb5iuvan0fr,3a4tn5196ovrpyhp93lfybs0oqwhch,9L87LgEW,2020-0188,2021-10-31,09:30:50,11:37:11,NA,incomplete,true,NA,true,NA,0,6,NA,NA,NA,left,NA,NA,NA,present,NA,NA,n_l_112.jpg,black,n_l_043.jpg,black,within,NA,NaN,NA,NA,NA,NA,left,29494.899999976158,1,1,1702.7999999821186
9L87LgEW,3087lxlj7ptluqx9bvztb5iuvan0fr,3a4tn5196ovrpyhp93lfybs0oqwhch,9L87LgEW,2020-0188,2021-10-31,09:30:50,11:37:11,NA,incomplete,true,NA,true,NA,0,7,NA,NA,NA,left,NA,NA,NA,present,NA,NA,m_l_029.jpg,green,m_s_001.jpg,green,within,NA,NaN,NA,NA,NA,NA,left,56399.09999999404,1,1,1694.9000000059605
9L87LgEW,3087lxlj7ptluqx9bvztb5iuvan0fr,3a4tn5196ovrpyhp93lfybs0oqwhch,9L87LgEW,2020-0188,2021-10-31,09:30:50,11:37:11,NA,incomplete,true,NA,true,NA,0,8,NA,NA,NA,right,NA,NA,NA,present,NA,NA,n_l_070.jpg,red,m_l_020.jpg,brown,between,NA,NaN,NA,NA,NA,NA,right,24583.09999999404,1,1,5551.0999999940395
9L87LgEW,3087lxlj7ptluqx9bvztb5iuvan0fr,3a4tn5196ovrpyhp93lfybs0oqwhch,9L87LgEW,2020-0188,2021-10-31,09:30:50,11:37:11,NA,incomplete,true,NA,true,NA,0,9,NA,NA,NA,right,NA,NA,NA,present,NA,NA,m_l_038.jpg,red,n_s_027.jpg,red,within,NA,NaN,NA,NA,NA,NA,right,41007.09999999404,1,2,1039
9L87LgEW,3087lxlj7ptluqx9bvztb5iuvan0fr,3a4tn5196ovrpyhp93lfybs0oqwhch,9L87LgEW,2020-0188,2021-10-31,09:30:50,11:37:11,NA,incomplete,true,NA,true,NA,0,10,NA,NA,NA,right,NA,NA,NA,present,NA,NA,n_l_041.jpg,black,n_s_020.jpg,orange,between,NA,NaN,NA,NA,NA,NA,right,56543.19999998808,1,1,1975.199999988079
9L87LgEW,3087lxlj7ptluqx9bvztb5iuvan0fr,3a4tn5196ovrpyhp93lfybs0oqwhch,9L87LgEW,2020-0188,2021-10-31,09:30:50,11:37:11,NA,incomplete,false,true,NA,NA,1,0,NA,black,m_s_090.jpg,NA,NA,NA,NA,NA,unpleasant,pleasant,NA,NA,NA,NA,NA,none,0,false,NA,NA,NA,NA,NA,NA,NA,NA
9L87LgEW,3087lxlj7ptluqx9bvztb5iuvan0fr,3a4tn5196ovrpyhp93lfybs0oqwhch,9L87LgEW,2020-0188,2021-10-31,09:30:50,11:37:11,NA,incomplete,false,true,NA,NA,1,1,NA,black,m_l_115.jpg,NA,NA,NA,NA,NA,unpleasant,pleasant,NA,NA,NA,NA,NA,none,0,false,NA,NA,NA,NA,NA,NA,NA,NA
9L87LgEW,3087lxlj7ptluqx9bvztb5iuvan0fr,3a4tn5196ovrpyhp93lfybs0oqwhch,9L87LgEW,2020-0188,2021-10-31,09:30:50,11:37:11,NA,incomplete,false,true,NA,NA,1,2,NA,black,n_l_034.jpg,NA,NA,NA,NA,NA,pleasant,unpleasant,NA,NA,NA,NA,NA,left,1654.80000001192,true,NA,NA,NA,NA,NA,NA,NA,NA
9L87LgEW,3087lxlj7ptluqx9bvztb5iuvan0fr,3a4tn5196ovrpyhp93lfybs0oqwhch,9L87LgEW,2020-0188,2021-10-31,09:30:50,11:37:11,NA,incomplete,false,true,NA,NA,1,3,NA,black,m_s_014.jpg,NA,NA,NA,NA,NA,pleasant,unpleasant,NA,NA,NA,NA,NA,right,35.8999999761581,true,NA,NA,NA,NA,NA,NA,NA,NA
9L87LgEW,3087lxlj7ptluqx9bvztb5iuvan0fr,3a4tn5196ovrpyhp93lfybs0oqwhch,9L87LgEW,2020-0188,2021-10-31,09:30:50,11:37:11,NA,incomplete,false,true,NA,NA,1,4,NA,black,m_l_066.jpg,NA,NA,NA,NA,NA,unpleasant,pleasant,NA,NA,NA,NA,NA,left,59.8000000119209,true,NA,NA,NA,NA,NA,NA,NA,NA
9L87LgEW,3087lxlj7ptluqx9bvztb5iuvan0fr,3a4tn5196ovrpyhp93lfybs0oqwhch,9L87LgEW,2020-0188,2021-10-31,09:30:50,11:37:11,NA,incomplete,false,true,NA,NA,1,5,NA,black,m_l_011.jpg,NA,NA,NA,NA,NA,unpleasant,pleasant,NA,NA,NA,NA,NA,right,71,true,NA,NA,NA,NA,NA,NA,NA,NA
9L87LgEW,3087lxlj7ptluqx9bvztb5iuvan0fr,3a4tn5196ovrpyhp93lfybs0oqwhch,9L87LgEW,2020-0188,2021-10-31,09:30:50,11:37:11,NA,incomplete,false,true,NA,NA,1,6,NA,white,m_l_033.jpg,NA,NA,NA,NA,NA,unpleasant,pleasant,NA,NA,NA,NA,NA,right,245.699999988079,true,NA,NA,NA,NA,NA,NA,NA,NA
9L87LgEW,3087lxlj7ptluqx9bvztb5iuvan0fr,3a4tn5196ovrpyhp93lfybs0oqwhch,9L87LgEW,2020-0188,2021-10-31,09:30:50,11:37:11,NA,incomplete,false,true,NA,NA,1,7,NA,white,m_l_094.jpg,NA,NA,NA,NA,NA,unpleasant,pleasant,NA,NA,NA,NA,NA,right,1911.19999998808,true,NA,NA,NA,NA,NA,NA,NA,NA
9L87LgEW,3087lxlj7ptluqx9bvztb5iuvan0fr,3a4tn5196ovrpyhp93lfybs0oqwhch,9L87LgEW,2020-0188,2021-10-31,09:30:50,11:37:11,NA,incomplete,false,true,NA,NA,1,8,NA,white,n_s_011.jpg,NA,NA,NA,NA,NA,pleasant,unpleasant,NA,NA,NA,NA,NA,right,6,true,NA,NA,NA,NA,NA,NA,NA,NA
9L87LgEW,3087lxlj7ptluqx9bvztb5iuvan0fr,3a4tn5196ovrpyhp93lfybs0oqwhch,9L87LgEW,2020-0188,2021-10-31,09:30:50,11:37:11,NA,incomplete,false,true,NA,NA,1,9,NA,white,n_s_046.jpg,NA,NA,NA,NA,NA,pleasant,unpleasant,NA,NA,NA,NA,NA,left,46.8000000119209,true,NA,NA,NA,NA,NA,NA,NA,NA
9L87LgEW,3087lxlj7ptluqx9bvztb5iuvan0fr,3a4tn5196ovrpyhp93lfybs0oqwhch,9L87LgEW,2020-0188,2021-10-31,09:30:50,11:37:11,NA,incomplete,false,true,NA,NA,1,10,NA,white,n_s_029.jpg,NA,NA,NA,NA,NA,unpleasant,pleasant,NA,NA,NA,NA,NA,right,438.699999988079,true,NA,NA,NA,NA,NA,NA,NA,NA
9L87LgEW,3087lxlj7ptluqx9bvztb5iuvan0fr,3a4tn5196ovrpyhp93lfybs0oqwhch,9L87LgEW,2020-0188,2021-10-31,09:30:50,11:37:11,NA,incomplete,false,true,NA,NA,1,11,NA,white,n_s_028.jpg,NA,NA,NA,NA,NA,unpleasant,pleasant,NA,NA,NA,NA,NA,right,478.699999988079,true,NA,NA,NA,NA,NA,NA,NA,NA
9L87LgEW,3087lxlj7ptluqx9bvztb5iuvan0fr,3a4tn5196ovrpyhp93lfybs0oqwhch,9L87LgEW,2020-0188,2021-10-31,09:30:50,11:37:11,NA,incomplete,false,true,NA,NA,1,12,NA,red,n_l_069.jpg,NA,NA,NA,NA,NA,pleasant,unpleasant,NA,NA,NA,NA,NA,left,1909.80000001192,true,NA,NA,NA,NA,NA,NA,NA,NA
9L87LgEW,3087lxlj7ptluqx9bvztb5iuvan0fr,3a4tn5196ovrpyhp93lfybs0oqwhch,9L87LgEW,2020-0188,2021-10-31,09:30:50,11:37:11,NA,incomplete,false,true,NA,NA,1,13,NA,red,m_l_087.jpg,NA,NA,NA,NA,NA,unpleasant,pleasant,NA,NA,NA,NA,NA,right,1621.29999998212,true,NA,NA,NA,NA,NA,NA,NA,NA
9L87LgEW,3087lxlj7ptluqx9bvztb5iuvan0fr,3a4tn5196ovrpyhp93lfybs0oqwhch,9L87LgEW,2020-0188,2021-10-31,09:30:50,11:37:11,NA,incomplete,false,true,NA,NA,1,14,NA,red,n_s_023.jpg,NA,NA,NA,NA,NA,pleasant,unpleasant,NA,NA,NA,NA,NA,right,976.700000017881,true,NA,NA,NA,NA,NA,NA,NA,NA
9L87LgEW,3087lxlj7ptluqx9bvztb5iuvan0fr,3a4tn5196ovrpyhp93lfybs0oqwhch,9L87LgEW,2020-0188,2021-10-31,09:30:50,11:37:11,NA,incomplete,false,true,NA,NA,1,15,NA,red,m_s_003.jpg,NA,NA,NA,NA,NA,unpleasant,pleasant,NA,NA,NA,NA,NA,right,1407.90000000596,true,NA,NA,NA,NA,NA,NA,NA,NA
9L87LgEW,3087lxlj7ptluqx9bvztb5iuvan0fr,3a4tn5196ovrpyhp93lfybs0oqwhch,9L87LgEW,2020-0188,2021-10-31,09:30:50,11:37:11,NA,incomplete,false,true,NA,NA,1,16,NA,red,n_l_022.jpg,NA,NA,NA,NA,NA,unpleasant,pleasant,NA,NA,NA,NA,NA,right,538.90000000596,true,NA,NA,NA,NA,NA,NA,NA,NA
9L87LgEW,3087lxlj7ptluqx9bvztb5iuvan0fr,3a4tn5196ovrpyhp93lfybs0oqwhch,9L87LgEW,2020-0188,2021-10-31,09:30:50,11:37:11,NA,incomplete,false,true,NA,NA,1,17,NA,red,m_s_043.jpg,NA,NA,NA,NA,NA,pleasant,unpleasant,NA,NA,NA,NA,NA,right,50.1999999880791,true,NA,NA,NA,NA,NA,NA,NA,NA
9L87LgEW,3087lxlj7ptluqx9bvztb5iuvan0fr,3a4tn5196ovrpyhp93lfybs0oqwhch,9L87LgEW,2020-0188,2021-10-31,09:30:50,11:37:11,NA,incomplete,false,true,NA,NA,1,18,NA,green,n_l_103.jpg,NA,NA,NA,NA,NA,unpleasant,pleasant,NA,NA,NA,NA,NA,right,677.699999988079,true,NA,NA,NA,NA,NA,NA,NA,NA
9L87LgEW,3087lxlj7ptluqx9bvztb5iuvan0fr,3a4tn5196ovrpyhp93lfybs0oqwhch,9L87LgEW,2020-0188,2021-10-31,09:30:50,11:37:11,NA,incomplete,false,true,NA,NA,1,19,NA,green,m_s_109.jpg,NA,NA,NA,NA,NA,pleasant,unpleasant,NA,NA,NA,NA,NA,left,1373.70000001788,true,NA,NA,NA,NA,NA,NA,NA,NA
9L87LgEW,3087lxlj7ptluqx9bvztb5iuvan0fr,3a4tn5196ovrpyhp93lfybs0oqwhch,9L87LgEW,2020-0188,2021-10-31,09:30:50,11:37:11,NA,incomplete,false,true,NA,NA,1,20,NA,green,n_l_113.jpg,NA,NA,NA,NA,NA,unpleasant,pleasant,NA,NA,NA,NA,NA,right,1402.80000001192,true,NA,NA,NA,NA,NA,NA,NA,NA
9L87LgEW,3087lxlj7ptluqx9bvztb5iuvan0fr,3a4tn5196ovrpyhp93lfybs0oqwhch,9L87LgEW,2020-0188,2021-10-31,09:30:50,11:37:11,NA,incomplete,false,true,NA,NA,1,21,NA,green,m_s_051.jpg,NA,NA,NA,NA,NA,unpleasant,pleasant,NA,NA,NA,NA,NA,left,1835.59999999404,true,NA,NA,NA,NA,NA,NA,NA,NA
9L87LgEW,3087lxlj7ptluqx9bvztb5iuvan0fr,3a4tn5196ovrpyhp93lfybs0oqwhch,9L87LgEW,2020-0188,2021-10-31,09:30:50,11:37:11,NA,incomplete,false,true,NA,NA,1,22,NA,green,m_l_090.jpg,NA,NA,NA,NA,NA,pleasant,unpleasant,NA,NA,NA,NA,NA,right,343.90000000596,true,NA,NA,NA,NA,NA,NA,NA,NA
9L87LgEW,3087lxlj7ptluqx9bvztb5iuvan0fr,3a4tn5196ovrpyhp93lfybs0oqwhch,9L87LgEW,2020-0188,2021-10-31,09:30:50,11:37:11,NA,incomplete,false,true,NA,NA,1,23,NA,green,n_s_041.jpg,NA,NA,NA,NA,NA,pleasant,unpleasant,NA,NA,NA,NA,NA,right,1558.59999999404,true,NA,NA,NA,NA,NA,NA,NA,NA
9L87LgEW,3087lxlj7ptluqx9bvztb5iuvan0fr,3a4tn5196ovrpyhp93lfybs0oqwhch,9L87LgEW,2020-0188,2021-10-31,09:30:50,11:37:11,NA,incomplete,false,true,NA,NA,1,24,NA,yellow,n_s_094.jpg,NA,NA,NA,NA,NA,pleasant,unpleasant,NA,NA,NA,NA,NA,left,461.300000011921,true,NA,NA,NA,NA,NA,NA,NA,NA
9L87LgEW,3087lxlj7ptluqx9bvztb5iuvan0fr,3a4tn5196ovrpyhp93lfybs0oqwhch,9L87LgEW,2020-0188,2021-10-31,09:30:50,11:37:11,NA,incomplete,false,true,NA,NA,1,25,NA,yellow,n_l_073.jpg,NA,NA,NA,NA,NA,unpleasant,pleasant,NA,NA,NA,NA,NA,right,868.09999999404,true,NA,NA,NA,NA,NA,NA,NA,NA
9L87LgEW,3087lxlj7ptluqx9bvztb5iuvan0fr,3a4tn5196ovrpyhp93lfybs0oqwhch,9L87LgEW,2020-0188,2021-10-31,09:30:50,11:37:11,NA,incomplete,false,true,NA,NA,1,26,NA,yellow,n_s_076.jpg,NA,NA,NA,NA,NA,unpleasant,pleasant,NA,NA,NA,NA,NA,right,223.59999999404,true,NA,NA,NA,NA,NA,NA,NA,NA
9L87LgEW,3087lxlj7ptluqx9bvztb5iuvan0fr,3a4tn5196ovrpyhp93lfybs0oqwhch,9L87LgEW,2020-0188,2021-10-31,09:30:50,11:37:11,NA,incomplete,false,true,NA,NA,1,27,NA,yellow,m_s_081.jpg,NA,NA,NA,NA,NA,unpleasant,pleasant,NA,NA,NA,NA,NA,right,602.5,true,NA,NA,NA,NA,NA,NA,NA,NA
9L87LgEW,3087lxlj7ptluqx9bvztb5iuvan0fr,3a4tn5196ovrpyhp93lfybs0oqwhch,9L87LgEW,2020-0188,2021-10-31,09:30:50,11:37:11,NA,incomplete,false,true,NA,NA,1,28,NA,yellow,m_s_050.jpg,NA,NA,NA,NA,NA,pleasant,unpleasant,NA,NA,NA,NA,NA,left,1510.69999998808,true,NA,NA,NA,NA,NA,NA,NA,NA
9L87LgEW,3087lxlj7ptluqx9bvztb5iuvan0fr,3a4tn5196ovrpyhp93lfybs0oqwhch,9L87LgEW,2020-0188,2021-10-31,09:30:50,11:37:11,NA,incomplete,false,true,NA,NA,1,29,NA,yellow,m_l_110.jpg,NA,NA,NA,NA,NA,pleasant,unpleasant,NA,NA,NA,NA,NA,left,1097.5,true,NA,NA,NA,NA,NA,NA,NA,NA
9L87LgEW,3087lxlj7ptluqx9bvztb5iuvan0fr,3a4tn5196ovrpyhp93lfybs0oqwhch,9L87LgEW,2020-0188,2021-10-31,09:30:50,11:37:11,NA,incomplete,false,true,NA,NA,1,30,NA,gray,m_l_063.jpg,NA,NA,NA,NA,NA,pleasant,unpleasant,NA,NA,NA,NA,NA,left,1174.79999998212,true,NA,NA,NA,NA,NA,NA,NA,NA
9L87LgEW,3087lxlj7ptluqx9bvztb5iuvan0fr,3a4tn5196ovrpyhp93lfybs0oqwhch,9L87LgEW,2020-0188,2021-10-31,09:30:50,11:37:11,NA,incomplete,false,true,NA,NA,1,31,NA,gray,n_s_067.jpg,NA,NA,NA,NA,NA,unpleasant,pleasant,NA,NA,NA,NA,NA,right,1222.80000001192,true,NA,NA,NA,NA,NA,NA,NA,NA
9L87LgEW,3087lxlj7ptluqx9bvztb5iuvan0fr,3a4tn5196ovrpyhp93lfybs0oqwhch,9L87LgEW,2020-0188,2021-10-31,09:30:50,11:37:11,NA,incomplete,false,true,NA,NA,1,32,NA,gray,m_s_073.jpg,NA,NA,NA,NA,NA,unpleasant,pleasant,NA,NA,NA,NA,NA,right,988.300000011921,true,NA,NA,NA,NA,NA,NA,NA,NA
9L87LgEW,3087lxlj7ptluqx9bvztb5iuvan0fr,3a4tn5196ovrpyhp93lfybs0oqwhch,9L87LgEW,2020-0188,2021-10-31,09:30:50,11:37:11,NA,incomplete,false,true,NA,NA,1,33,NA,gray,n_l_068.jpg,NA,NA,NA,NA,NA,unpleasant,pleasant,NA,NA,NA,NA,NA,right,1093.40000000596,true,NA,NA,NA,NA,NA,NA,NA,NA
9L87LgEW,3087lxlj7ptluqx9bvztb5iuvan0fr,3a4tn5196ovrpyhp93lfybs0oqwhch,9L87LgEW,2020-0188,2021-10-31,09:30:50,11:37:11,NA,incomplete,false,true,NA,NA,1,34,NA,gray,n_l_055.jpg,NA,NA,NA,NA,NA,pleasant,unpleasant,NA,NA,NA,NA,NA,right,1559.80000001192,true,NA,NA,NA,NA,NA,NA,NA,NA
9L87LgEW,3087lxlj7ptluqx9bvztb5iuvan0fr,3a4tn5196ovrpyhp93lfybs0oqwhch,9L87LgEW,2020-0188,2021-10-31,09:30:50,11:37:11,NA,incomplete,false,true,NA,NA,1,35,NA,gray,m_l_092.jpg,NA,NA,NA,NA,NA,pleasant,unpleasant,NA,NA,NA,NA,NA,right,1392,true,NA,NA,NA,NA,NA,NA,NA,NA
9L87LgEW,3087lxlj7ptluqx9bvztb5iuvan0fr,3a4tn5196ovrpyhp93lfybs0oqwhch,9L87LgEW,2020-0188,2021-10-31,09:30:50,11:37:11,NA,incomplete,false,NA,NA,true,1,0,NA,NA,NA,right,m_l_011.jpg,white,black,NA,NA,NA,NA,NA,NA,NA,NA,NA,NaN,NA,2655,left,0,NA,NA,NA,NA,NA
9L87LgEW,3087lxlj7ptluqx9bvztb5iuvan0fr,3a4tn5196ovrpyhp93lfybs0oqwhch,9L87LgEW,2020-0188,2021-10-31,09:30:50,11:37:11,NA,incomplete,false,NA,NA,true,1,1,NA,NA,NA,left,n_s_076.jpg,yellow,gray,NA,NA,NA,NA,NA,NA,NA,NA,NA,NaN,NA,1967.0999999940395,left,1,NA,NA,NA,NA,NA
9L87LgEW,3087lxlj7ptluqx9bvztb5iuvan0fr,3a4tn5196ovrpyhp93lfybs0oqwhch,9L87LgEW,2020-0188,2021-10-31,09:30:50,11:37:11,NA,incomplete,false,NA,NA,true,1,2,NA,NA,NA,left,m_l_090.jpg,green,red,NA,NA,NA,NA,NA,NA,NA,NA,NA,NaN,NA,3855.300000011921,left,1,NA,NA,NA,NA,NA
9L87LgEW,3087lxlj7ptluqx9bvztb5iuvan0fr,3a4tn5196ovrpyhp93lfybs0oqwhch,9L87LgEW,2020-0188,2021-10-31,09:30:50,11:37:11,NA,incomplete,false,NA,NA,true,1,3,NA,NA,NA,left,n_s_041.jpg,green,red,NA,NA,NA,NA,NA,NA,NA,NA,NA,NaN,NA,1599,left,1,NA,NA,NA,NA,NA
9L87LgEW,3087lxlj7ptluqx9bvztb5iuvan0fr,3a4tn5196ovrpyhp93lfybs0oqwhch,9L87LgEW,2020-0188,2021-10-31,09:30:50,11:37:11,NA,incomplete,false,NA,NA,true,1,4,NA,NA,NA,left,n_s_029.jpg,white,red,NA,NA,NA,NA,NA,NA,NA,NA,NA,NaN,NA,2839.199999988079,left,1,NA,NA,NA,NA,NA
9L87LgEW,3087lxlj7ptluqx9bvztb5iuvan0fr,3a4tn5196ovrpyhp93lfybs0oqwhch,9L87LgEW,2020-0188,2021-10-31,09:30:50,11:37:11,NA,incomplete,false,NA,NA,true,1,5,NA,NA,NA,right,m_s_073.jpg,yellow,gray,NA,NA,NA,NA,NA,NA,NA,NA,NA,NaN,NA,3646.800000011921,right,1,NA,NA,NA,NA,NA
9L87LgEW,3087lxlj7ptluqx9bvztb5iuvan0fr,3a4tn5196ovrpyhp93lfybs0oqwhch,9L87LgEW,2020-0188,2021-10-31,09:30:50,11:37:11,NA,incomplete,false,NA,NA,true,1,6,NA,NA,NA,left,m_l_066.jpg,black,white,NA,NA,NA,NA,NA,NA,NA,NA,NA,NaN,NA,2863.199999988079,right,0,NA,NA,NA,NA,NA
9L87LgEW,3087lxlj7ptluqx9bvztb5iuvan0fr,3a4tn5196ovrpyhp93lfybs0oqwhch,9L87LgEW,2020-0188,2021-10-31,09:30:50,11:37:11,NA,incomplete,false,NA,NA,true,1,7,NA,NA,NA,left,m_l_087.jpg,red,white,NA,NA,NA,NA,NA,NA,NA,NA,NA,NaN,NA,2935,left,1,NA,NA,NA,NA,NA
9L87LgEW,3087lxlj7ptluqx9bvztb5iuvan0fr,3a4tn5196ovrpyhp93lfybs0oqwhch,9L87LgEW,2020-0188,2021-10-31,09:30:50,11:37:11,NA,incomplete,false,NA,NA,true,1,8,NA,NA,NA,right,n_s_011.jpg,red,white,NA,NA,NA,NA,NA,NA,NA,NA,NA,NaN,NA,3430.9000000059605,right,1,NA,NA,NA,NA,NA
9L87LgEW,3087lxlj7ptluqx9bvztb5iuvan0fr,3a4tn5196ovrpyhp93lfybs0oqwhch,9L87LgEW,2020-0188,2021-10-31,09:30:50,11:37:11,NA,incomplete,false,NA,NA,true,1,9,NA,NA,NA,right,m_l_110.jpg,gray,yellow,NA,NA,NA,NA,NA,NA,NA,NA,NA,NaN,NA,1902.9000000059605,left,0,NA,NA,NA,NA,NA
9L87LgEW,3087lxlj7ptluqx9bvztb5iuvan0fr,3a4tn5196ovrpyhp93lfybs0oqwhch,9L87LgEW,2020-0188,2021-10-31,09:30:50,11:37:11,NA,incomplete,false,NA,NA,true,1,10,NA,NA,NA,left,n_l_113.jpg,green,red,NA,NA,NA,NA,NA,NA,NA,NA,NA,NaN,NA,1487.4000000059605,left,1,NA,NA,NA,NA,NA
9L87LgEW,3087lxlj7ptluqx9bvztb5iuvan0fr,3a4tn5196ovrpyhp93lfybs0oqwhch,9L87LgEW,2020-0188,2021-10-31,09:30:50,11:37:11,NA,incomplete,false,NA,NA,true,1,11,NA,NA,NA,left,m_l_092.jpg,gray,yellow,NA,NA,NA,NA,NA,NA,NA,NA,NA,NaN,NA,3391.300000011921,left,1,NA,NA,NA,NA,NA
9L87LgEW,3087lxlj7ptluqx9bvztb5iuvan0fr,3a4tn5196ovrpyhp93lfybs0oqwhch,9L87LgEW,2020-0188,2021-10-31,09:30:50,11:37:11,NA,incomplete,false,NA,NA,true,1,12,NA,NA,NA,right,m_s_043.jpg,white,red,NA,NA,NA,NA,NA,NA,NA,NA,NA,NaN,NA,2895.0999999940395,left,0,NA,NA,NA,NA,NA
9L87LgEW,3087lxlj7ptluqx9bvztb5iuvan0fr,3a4tn5196ovrpyhp93lfybs0oqwhch,9L87LgEW,2020-0188,2021-10-31,09:30:50,11:37:11,NA,incomplete,false,NA,NA,true,1,13,NA,NA,NA,right,m_s_050.jpg,gray,yellow,NA,NA,NA,NA,NA,NA,NA,NA,NA,NaN,NA,2495,right,1,NA,NA,NA,NA,NA
9L87LgEW,3087lxlj7ptluqx9bvztb5iuvan0fr,3a4tn5196ovrpyhp93lfybs0oqwhch,9L87LgEW,2020-0188,2021-10-31,09:30:50,11:37:11,NA,incomplete,false,NA,NA,true,1,14,NA,NA,NA,right,m_l_094.jpg,black,white,NA,NA,NA,NA,NA,NA,NA,NA,NA,NaN,NA,2191.199999988079,right,1,NA,NA,NA,NA,NA
9L87LgEW,3087lxlj7ptluqx9bvztb5iuvan0fr,3a4tn5196ovrpyhp93lfybs0oqwhch,9L87LgEW,2020-0188,2021-10-31,09:30:50,11:37:11,NA,incomplete,false,NA,NA,true,1,15,NA,NA,NA,left,n_s_028.jpg,white,black,NA,NA,NA,NA,NA,NA,NA,NA,NA,NaN,NA,2278.9000000059605,left,1,NA,NA,NA,NA,NA
9L87LgEW,3087lxlj7ptluqx9bvztb5iuvan0fr,3a4tn5196ovrpyhp93lfybs0oqwhch,9L87LgEW,2020-0188,2021-10-31,09:30:50,11:37:11,NA,incomplete,false,NA,NA,true,1,16,NA,NA,NA,left,n_l_073.jpg,yellow,green,NA,NA,NA,NA,NA,NA,NA,NA,NA,NaN,NA,15695.199999988079,right,0,NA,NA,NA,NA,NA
9L87LgEW,3087lxlj7ptluqx9bvztb5iuvan0fr,3a4tn5196ovrpyhp93lfybs0oqwhch,9L87LgEW,2020-0188,2021-10-31,09:30:50,11:37:11,NA,incomplete,false,NA,NA,true,1,17,NA,NA,NA,left,m_l_115.jpg,black,white,NA,NA,NA,NA,NA,NA,NA,NA,NA,NaN,NA,2791.199999988079,right,0,NA,NA,NA,NA,NA
9L87LgEW,3087lxlj7ptluqx9bvztb5iuvan0fr,3a4tn5196ovrpyhp93lfybs0oqwhch,9L87LgEW,2020-0188,2021-10-31,09:30:50,11:37:11,NA,incomplete,false,NA,NA,true,1,18,NA,NA,NA,right,m_s_109.jpg,red,green,NA,NA,NA,NA,NA,NA,NA,NA,NA,NaN,NA,1847.300000011921,right,1,NA,NA,NA,NA,NA
9L87LgEW,3087lxlj7ptluqx9bvztb5iuvan0fr,3a4tn5196ovrpyhp93lfybs0oqwhch,9L87LgEW,2020-0188,2021-10-31,09:30:50,11:37:11,NA,incomplete,false,NA,NA,true,1,19,NA,NA,NA,left,n_s_023.jpg,red,white,NA,NA,NA,NA,NA,NA,NA,NA,NA,NaN,NA,1918.300000011921,right,0,NA,NA,NA,NA,NA
9L87LgEW,3087lxlj7ptluqx9bvztb5iuvan0fr,3a4tn5196ovrpyhp93lfybs0oqwhch,9L87LgEW,2020-0188,2021-10-31,09:30:50,11:37:11,NA,incomplete,false,NA,NA,true,1,20,NA,NA,NA,right,n_s_067.jpg,yellow,gray,NA,NA,NA,NA,NA,NA,NA,NA,NA,NaN,NA,2047,right,1,NA,NA,NA,NA,NA
9L87LgEW,3087lxlj7ptluqx9bvztb5iuvan0fr,3a4tn5196ovrpyhp93lfybs0oqwhch,9L87LgEW,2020-0188,2021-10-31,09:30:50,11:37:11,NA,incomplete,false,NA,NA,true,1,21,NA,NA,NA,right,n_l_022.jpg,green,red,NA,NA,NA,NA,NA,NA,NA,NA,NA,NaN,NA,2958.800000011921,left,0,NA,NA,NA,NA,NA
9L87LgEW,3087lxlj7ptluqx9bvztb5iuvan0fr,3a4tn5196ovrpyhp93lfybs0oqwhch,9L87LgEW,2020-0188,2021-10-31,09:30:50,11:37:11,NA,incomplete,false,NA,true,NA,1,0,NA,NA,NA,right,NA,NA,NA,present,NA,NA,m_s_043.jpg,red,m_l_087.jpg,red,within,NA,NaN,NA,NA,NA,NA,right,3982.5999999940395,1,1,2958.7999999821186
9L87LgEW,3087lxlj7ptluqx9bvztb5iuvan0fr,3a4tn5196ovrpyhp93lfybs0oqwhch,9L87LgEW,2020-0188,2021-10-31,09:30:50,11:37:11,NA,incomplete,false,NA,true,NA,1,1,NA,NA,NA,left,NA,NA,NA,present,NA,NA,n_s_067.jpg,gray,m_l_092.jpg,gray,within,NA,NaN,NA,NA,NA,NA,left,2566.699999988079,1,1,2205.4000000059605
9L87LgEW,3087lxlj7ptluqx9bvztb5iuvan0fr,3a4tn5196ovrpyhp93lfybs0oqwhch,9L87LgEW,2020-0188,2021-10-31,09:30:50,11:37:11,NA,incomplete,false,NA,true,NA,1,2,NA,NA,NA,right,NA,NA,NA,present,NA,NA,m_s_073.jpg,gray,m_s_050.jpg,yellow,between,NA,NaN,NA,NA,NA,NA,right,2134.7999999821186,1,1,1782.7999999821186
9L87LgEW,3087lxlj7ptluqx9bvztb5iuvan0fr,3a4tn5196ovrpyhp93lfybs0oqwhch,9L87LgEW,2020-0188,2021-10-31,09:30:50,11:37:11,NA,incomplete,false,NA,true,NA,1,3,NA,NA,NA,left,NA,NA,NA,present,NA,NA,m_l_066.jpg,black,n_s_011.jpg,white,between,NA,NaN,NA,NA,NA,NA,right,2839.0999999940395,0,1,2895.0999999940395
9L87LgEW,3087lxlj7ptluqx9bvztb5iuvan0fr,3a4tn5196ovrpyhp93lfybs0oqwhch,9L87LgEW,2020-0188,2021-10-31,09:30:50,11:37:11,NA,incomplete,false,NA,true,NA,1,4,NA,NA,NA,left,NA,NA,NA,present,NA,NA,m_l_094.jpg,white,n_s_028.jpg,white,within,NA,NaN,NA,NA,NA,NA,right,2663.199999988079,0,1,2239.199999988079
9L87LgEW,3087lxlj7ptluqx9bvztb5iuvan0fr,3a4tn5196ovrpyhp93lfybs0oqwhch,9L87LgEW,2020-0188,2021-10-31,09:30:50,11:37:11,NA,incomplete,false,NA,true,NA,1,5,NA,NA,NA,left,NA,NA,NA,present,NA,NA,n_s_029.jpg,white,n_s_023.jpg,red,between,NA,NaN,NA,NA,NA,NA,left,2911.199999988079,1,1,2951.199999988079
9L87LgEW,3087lxlj7ptluqx9bvztb5iuvan0fr,3a4tn5196ovrpyhp93lfybs0oqwhch,9L87LgEW,2020-0188,2021-10-31,09:30:50,11:37:11,NA,incomplete,false,NA,true,NA,1,6,NA,NA,NA,right,NA,NA,NA,present,NA,NA,m_l_110.jpg,yellow,n_l_073.jpg,yellow,within,NA,NaN,NA,NA,NA,NA,left,2359.0999999940395,0,1,4934.5999999940395
9L87LgEW,3087lxlj7ptluqx9bvztb5iuvan0fr,3a4tn5196ovrpyhp93lfybs0oqwhch,9L87LgEW,2020-0188,2021-10-31,09:30:50,11:37:11,NA,incomplete,false,NA,true,NA,1,7,NA,NA,NA,left,NA,NA,NA,present,NA,NA,n_l_022.jpg,red,n_l_113.jpg,green,between,NA,NaN,NA,NA,NA,NA,right,1927,0,1,1919.0999999940395
9L87LgEW,3087lxlj7ptluqx9bvztb5iuvan0fr,3a4tn5196ovrpyhp93lfybs0oqwhch,9L87LgEW,2020-0188,2021-10-31,09:30:50,11:37:11,NA,incomplete,false,NA,true,NA,1,8,NA,NA,NA,left,NA,NA,NA,present,NA,NA,m_l_090.jpg,green,n_s_076.jpg,yellow,between,NA,NaN,NA,NA,NA,NA,left,2071,1,1,2566.5999999940395
9L87LgEW,3087lxlj7ptluqx9bvztb5iuvan0fr,3a4tn5196ovrpyhp93lfybs0oqwhch,9L87LgEW,2020-0188,2021-10-31,09:30:50,11:37:11,NA,incomplete,false,NA,true,NA,1,9,NA,NA,NA,left,NA,NA,NA,present,NA,NA,m_s_109.jpg,green,n_s_041.jpg,green,within,NA,NaN,NA,NA,NA,NA,left,2311,1,0,12767.09999999404
9L87LgEW,3087lxlj7ptluqx9bvztb5iuvan0fr,3a4tn5196ovrpyhp93lfybs0oqwhch,9L87LgEW,2020-0188,2021-10-31,09:30:50,11:37:11,NA,incomplete,false,NA,true,NA,1,10,NA,NA,NA,left,NA,NA,NA,present,NA,NA,m_l_115.jpg,black,m_l_011.jpg,black,within,NA,NaN,NA,NA,NA,NA,left,2398.800000011921,1,1,2614.9000000059605
9L87LgEW,3087lxlj7ptluqx9bvztb5iuvan0fr,3a4tn5196ovrpyhp93lfybs0oqwhch,9L87LgEW,2020-0188,2021-10-31,09:30:50,11:37:11,NA,incomplete,false,true,NA,NA,2,0,NA,red,n_l_064.jpg,NA,NA,NA,NA,NA,pleasant,unpleasant,NA,NA,NA,NA,NA,right,3376.70000001788,true,NA,NA,NA,NA,NA,NA,NA,NA
9L87LgEW,3087lxlj7ptluqx9bvztb5iuvan0fr,3a4tn5196ovrpyhp93lfybs0oqwhch,9L87LgEW,2020-0188,2021-10-31,09:30:50,11:37:11,NA,incomplete,false,true,NA,NA,2,1,NA,red,m_l_030.jpg,NA,NA,NA,NA,NA,unpleasant,pleasant,NA,NA,NA,NA,NA,right,606.5,true,NA,NA,NA,NA,NA,NA,NA,NA
9L87LgEW,3087lxlj7ptluqx9bvztb5iuvan0fr,3a4tn5196ovrpyhp93lfybs0oqwhch,9L87LgEW,2020-0188,2021-10-31,09:30:50,11:37:11,NA,incomplete,false,true,NA,NA,2,2,NA,red,n_s_073.jpg,NA,NA,NA,NA,NA,pleasant,unpleasant,NA,NA,NA,NA,NA,right,76,true,NA,NA,NA,NA,NA,NA,NA,NA
9L87LgEW,3087lxlj7ptluqx9bvztb5iuvan0fr,3a4tn5196ovrpyhp93lfybs0oqwhch,9L87LgEW,2020-0188,2021-10-31,09:30:50,11:37:11,NA,incomplete,false,true,NA,NA,2,3,NA,red,n_s_092.jpg,NA,NA,NA,NA,NA,pleasant,unpleasant,NA,NA,NA,NA,NA,left,306,true,NA,NA,NA,NA,NA,NA,NA,NA
9L87LgEW,3087lxlj7ptluqx9bvztb5iuvan0fr,3a4tn5196ovrpyhp93lfybs0oqwhch,9L87LgEW,2020-0188,2021-10-31,09:30:50,11:37:11,NA,incomplete,false,true,NA,NA,2,4,NA,red,n_l_018.jpg,NA,NA,NA,NA,NA,unpleasant,pleasant,NA,NA,NA,NA,NA,left,1779.20000001788,true,NA,NA,NA,NA,NA,NA,NA,NA
9L87LgEW,3087lxlj7ptluqx9bvztb5iuvan0fr,3a4tn5196ovrpyhp93lfybs0oqwhch,9L87LgEW,2020-0188,2021-10-31,09:30:50,11:37:11,NA,incomplete,false,true,NA,NA,2,5,NA,red,m_l_028.jpg,NA,NA,NA,NA,NA,unpleasant,pleasant,NA,NA,NA,NA,NA,right,547.59999999404,true,NA,NA,NA,NA,NA,NA,NA,NA
9L87LgEW,3087lxlj7ptluqx9bvztb5iuvan0fr,3a4tn5196ovrpyhp93lfybs0oqwhch,9L87LgEW,2020-0188,2021-10-31,09:30:50,11:37:11,NA,incomplete,false,true,NA,NA,2,6,NA,blue,n_l_003.jpg,NA,NA,NA,NA,NA,unpleasant,pleasant,NA,NA,NA,NA,NA,left,151.300000011921,true,NA,NA,NA,NA,NA,NA,NA,NA
9L87LgEW,3087lxlj7ptluqx9bvztb5iuvan0fr,3a4tn5196ovrpyhp93lfybs0oqwhch,9L87LgEW,2020-0188,2021-10-31,09:30:50,11:37:11,NA,incomplete,false,true,NA,NA,2,7,NA,blue,m_l_080.jpg,NA,NA,NA,NA,NA,unpleasant,pleasant,NA,NA,NA,NA,NA,left,72.8000000119209,true,NA,NA,NA,NA,NA,NA,NA,NA
9L87LgEW,3087lxlj7ptluqx9bvztb5iuvan0fr,3a4tn5196ovrpyhp93lfybs0oqwhch,9L87LgEW,2020-0188,2021-10-31,09:30:50,11:37:11,NA,incomplete,false,true,NA,NA,2,8,NA,blue,m_l_048.jpg,NA,NA,NA,NA,NA,unpleasant,pleasant,NA,NA,NA,NA,NA,right,5.90000000596046,true,NA,NA,NA,NA,NA,NA,NA,NA
9L87LgEW,3087lxlj7ptluqx9bvztb5iuvan0fr,3a4tn5196ovrpyhp93lfybs0oqwhch,9L87LgEW,2020-0188,2021-10-31,09:30:50,11:37:11,NA,incomplete,false,true,NA,NA,2,9,NA,blue,n_l_114.jpg,NA,NA,NA,NA,NA,pleasant,unpleasant,NA,NA,NA,NA,NA,right,923.5,true,NA,NA,NA,NA,NA,NA,NA,NA
9L87LgEW,3087lxlj7ptluqx9bvztb5iuvan0fr,3a4tn5196ovrpyhp93lfybs0oqwhch,9L87LgEW,2020-0188,2021-10-31,09:30:50,11:37:11,NA,incomplete,false,true,NA,NA,2,10,NA,blue,n_s_022.jpg,NA,NA,NA,NA,NA,pleasant,unpleasant,NA,NA,NA,NA,NA,right,4.90000000596046,true,NA,NA,NA,NA,NA,NA,NA,NA
9L87LgEW,3087lxlj7ptluqx9bvztb5iuvan0fr,3a4tn5196ovrpyhp93lfybs0oqwhch,9L87LgEW,2020-0188,2021-10-31,09:30:50,11:37:11,NA,incomplete,false,true,NA,NA,2,11,NA,blue,m_s_012.jpg,NA,NA,NA,NA,NA,unpleasant,pleasant,NA,NA,NA,NA,NA,left,63.1999999880791,true,NA,NA,NA,NA,NA,NA,NA,NA
9L87LgEW,3087lxlj7ptluqx9bvztb5iuvan0fr,3a4tn5196ovrpyhp93lfybs0oqwhch,9L87LgEW,2020-0188,2021-10-31,09:30:50,11:37:11,NA,incomplete,false,true,NA,NA,2,12,NA,white,n_l_047.jpg,NA,NA,NA,NA,NA,unpleasant,pleasant,NA,NA,NA,NA,NA,right,457.100000023842,true,NA,NA,NA,NA,NA,NA,NA,NA
9L87LgEW,3087lxlj7ptluqx9bvztb5iuvan0fr,3a4tn5196ovrpyhp93lfybs0oqwhch,9L87LgEW,2020-0188,2021-10-31,09:30:50,11:37:11,NA,incomplete,false,true,NA,NA,2,13,NA,white,m_l_100.jpg,NA,NA,NA,NA,NA,pleasant,unpleasant,NA,NA,NA,NA,NA,right,238,true,NA,NA,NA,NA,NA,NA,NA,NA
9L87LgEW,3087lxlj7ptluqx9bvztb5iuvan0fr,3a4tn5196ovrpyhp93lfybs0oqwhch,9L87LgEW,2020-0188,2021-10-31,09:30:50,11:37:11,NA,incomplete,false,true,NA,NA,2,14,NA,white,m_l_004.jpg,NA,NA,NA,NA,NA,pleasant,unpleasant,NA,NA,NA,NA,NA,right,169.200000017881,true,NA,NA,NA,NA,NA,NA,NA,NA
9L87LgEW,3087lxlj7ptluqx9bvztb5iuvan0fr,3a4tn5196ovrpyhp93lfybs0oqwhch,9L87LgEW,2020-0188,2021-10-31,09:30:50,11:37:11,NA,incomplete,false,true,NA,NA,2,15,NA,white,n_s_103.jpg,NA,NA,NA,NA,NA,unpleasant,pleasant,NA,NA,NA,NA,NA,left,676.5,true,NA,NA,NA,NA,NA,NA,NA,NA
9L87LgEW,3087lxlj7ptluqx9bvztb5iuvan0fr,3a4tn5196ovrpyhp93lfybs0oqwhch,9L87LgEW,2020-0188,2021-10-31,09:30:50,11:37:11,NA,incomplete,false,true,NA,NA,2,16,NA,white,n_l_072.jpg,NA,NA,NA,NA,NA,unpleasant,pleasant,NA,NA,NA,NA,NA,left,504,true,NA,NA,NA,NA,NA,NA,NA,NA
9L87LgEW,3087lxlj7ptluqx9bvztb5iuvan0fr,3a4tn5196ovrpyhp93lfybs0oqwhch,9L87LgEW,2020-0188,2021-10-31,09:30:50,11:37:11,NA,incomplete,false,true,NA,NA,2,17,NA,white,n_s_037.jpg,NA,NA,NA,NA,NA,unpleasant,pleasant,NA,NA,NA,NA,NA,right,92.3000000119209,true,NA,NA,NA,NA,NA,NA,NA,NA
9L87LgEW,3087lxlj7ptluqx9bvztb5iuvan0fr,3a4tn5196ovrpyhp93lfybs0oqwhch,9L87LgEW,2020-0188,2021-10-31,09:30:50,11:37:11,NA,incomplete,false,true,NA,NA,2,18,NA,brown,n_s_012.jpg,NA,NA,NA,NA,NA,pleasant,unpleasant,NA,NA,NA,NA,NA,left,35.2000000178814,true,NA,NA,NA,NA,NA,NA,NA,NA
9L87LgEW,3087lxlj7ptluqx9bvztb5iuvan0fr,3a4tn5196ovrpyhp93lfybs0oqwhch,9L87LgEW,2020-0188,2021-10-31,09:30:50,11:37:11,NA,incomplete,false,true,NA,NA,2,19,NA,brown,m_l_031.jpg,NA,NA,NA,NA,NA,unpleasant,pleasant,NA,NA,NA,NA,NA,left,198.200000017881,true,NA,NA,NA,NA,NA,NA,NA,NA
9L87LgEW,3087lxlj7ptluqx9bvztb5iuvan0fr,3a4tn5196ovrpyhp93lfybs0oqwhch,9L87LgEW,2020-0188,2021-10-31,09:30:50,11:37:11,NA,incomplete,false,true,NA,NA,2,20,NA,brown,n_l_100.jpg,NA,NA,NA,NA,NA,pleasant,unpleasant,NA,NA,NA,NA,NA,left,2059.69999998808,true,NA,NA,NA,NA,NA,NA,NA,NA
9L87LgEW,3087lxlj7ptluqx9bvztb5iuvan0fr,3a4tn5196ovrpyhp93lfybs0oqwhch,9L87LgEW,2020-0188,2021-10-31,09:30:50,11:37:11,NA,incomplete,false,true,NA,NA,2,21,NA,brown,n_s_063.jpg,NA,NA,NA,NA,NA,pleasant,unpleasant,NA,NA,NA,NA,NA,left,525.299999982119,true,NA,NA,NA,NA,NA,NA,NA,NA
9L87LgEW,3087lxlj7ptluqx9bvztb5iuvan0fr,3a4tn5196ovrpyhp93lfybs0oqwhch,9L87LgEW,2020-0188,2021-10-31,09:30:50,11:37:11,NA,incomplete,false,true,NA,NA,2,22,NA,brown,m_l_056.jpg,NA,NA,NA,NA,NA,unpleasant,pleasant,NA,NA,NA,NA,NA,right,1614.70000001788,true,NA,NA,NA,NA,NA,NA,NA,NA
9L87LgEW,3087lxlj7ptluqx9bvztb5iuvan0fr,3a4tn5196ovrpyhp93lfybs0oqwhch,9L87LgEW,2020-0188,2021-10-31,09:30:50,11:37:11,NA,incomplete,false,true,NA,NA,2,23,NA,brown,n_s_058.jpg,NA,NA,NA,NA,NA,unpleasant,pleasant,NA,NA,NA,NA,NA,right,2347.19999998808,true,NA,NA,NA,NA,NA,NA,NA,NA
9L87LgEW,3087lxlj7ptluqx9bvztb5iuvan0fr,3a4tn5196ovrpyhp93lfybs0oqwhch,9L87LgEW,2020-0188,2021-10-31,09:30:50,11:37:11,NA,incomplete,false,true,NA,NA,2,24,NA,purple,n_l_107.jpg,NA,NA,NA,NA,NA,pleasant,unpleasant,NA,NA,NA,NA,NA,right,3022.40000000596,true,NA,NA,NA,NA,NA,NA,NA,NA
9L87LgEW,3087lxlj7ptluqx9bvztb5iuvan0fr,3a4tn5196ovrpyhp93lfybs0oqwhch,9L87LgEW,2020-0188,2021-10-31,09:30:50,11:37:11,NA,incomplete,false,true,NA,NA,2,25,NA,purple,n_l_076.jpg,NA,NA,NA,NA,NA,pleasant,unpleasant,NA,NA,NA,NA,NA,right,969.90000000596,true,NA,NA,NA,NA,NA,NA,NA,NA
9L87LgEW,3087lxlj7ptluqx9bvztb5iuvan0fr,3a4tn5196ovrpyhp93lfybs0oqwhch,9L87LgEW,2020-0188,2021-10-31,09:30:50,11:37:11,NA,incomplete,false,true,NA,NA,2,26,NA,purple,n_l_098.jpg,NA,NA,NA,NA,NA,pleasant,unpleasant,NA,NA,NA,NA,NA,left,1562.10000002384,true,NA,NA,NA,NA,NA,NA,NA,NA
9L87LgEW,3087lxlj7ptluqx9bvztb5iuvan0fr,3a4tn5196ovrpyhp93lfybs0oqwhch,9L87LgEW,2020-0188,2021-10-31,09:30:50,11:37:11,NA,incomplete,false,true,NA,NA,2,27,NA,purple,m_l_107.jpg,NA,NA,NA,NA,NA,pleasant,unpleasant,NA,NA,NA,NA,NA,right,623.90000000596,true,NA,NA,NA,NA,NA,NA,NA,NA
9L87LgEW,3087lxlj7ptluqx9bvztb5iuvan0fr,3a4tn5196ovrpyhp93lfybs0oqwhch,9L87LgEW,2020-0188,2021-10-31,09:30:50,11:37:11,NA,incomplete,false,true,NA,NA,2,28,NA,purple,n_s_084.jpg,NA,NA,NA,NA,NA,pleasant,unpleasant,NA,NA,NA,NA,NA,left,3134,true,NA,NA,NA,NA,NA,NA,NA,NA
9L87LgEW,3087lxlj7ptluqx9bvztb5iuvan0fr,3a4tn5196ovrpyhp93lfybs0oqwhch,9L87LgEW,2020-0188,2021-10-31,09:30:50,11:37:11,NA,incomplete,false,true,NA,NA,2,29,NA,purple,m_s_039.jpg,NA,NA,NA,NA,NA,unpleasant,pleasant,NA,NA,NA,NA,NA,right,741.59999999404,true,NA,NA,NA,NA,NA,NA,NA,NA
9L87LgEW,3087lxlj7ptluqx9bvztb5iuvan0fr,3a4tn5196ovrpyhp93lfybs0oqwhch,9L87LgEW,2020-0188,2021-10-31,09:30:50,11:37:11,NA,incomplete,false,true,NA,NA,2,30,NA,orange,n_l_059.jpg,NA,NA,NA,NA,NA,unpleasant,pleasant,NA,NA,NA,NA,NA,right,618.5,true,NA,NA,NA,NA,NA,NA,NA,NA
9L87LgEW,3087lxlj7ptluqx9bvztb5iuvan0fr,3a4tn5196ovrpyhp93lfybs0oqwhch,9L87LgEW,2020-0188,2021-10-31,09:30:50,11:37:11,NA,incomplete,false,true,NA,NA,2,31,NA,orange,n_l_086.jpg,NA,NA,NA,NA,NA,unpleasant,pleasant,NA,NA,NA,NA,NA,right,436.699999988079,true,NA,NA,NA,NA,NA,NA,NA,NA
9L87LgEW,3087lxlj7ptluqx9bvztb5iuvan0fr,3a4tn5196ovrpyhp93lfybs0oqwhch,9L87LgEW,2020-0188,2021-10-31,09:30:50,11:37:11,NA,incomplete,false,true,NA,NA,2,32,NA,orange,n_l_053.jpg,NA,NA,NA,NA,NA,unpleasant,pleasant,NA,NA,NA,NA,NA,right,139.199999988079,true,NA,NA,NA,NA,NA,NA,NA,NA
9L87LgEW,3087lxlj7ptluqx9bvztb5iuvan0fr,3a4tn5196ovrpyhp93lfybs0oqwhch,9L87LgEW,2020-0188,2021-10-31,09:30:50,11:37:11,NA,incomplete,false,true,NA,NA,2,33,NA,orange,m_s_067.jpg,NA,NA,NA,NA,NA,pleasant,unpleasant,NA,NA,NA,NA,NA,right,66.9000000059605,true,NA,NA,NA,NA,NA,NA,NA,NA
9L87LgEW,3087lxlj7ptluqx9bvztb5iuvan0fr,3a4tn5196ovrpyhp93lfybs0oqwhch,9L87LgEW,2020-0188,2021-10-31,09:30:50,11:37:11,NA,incomplete,false,true,NA,NA,2,34,NA,orange,n_s_004.jpg,NA,NA,NA,NA,NA,unpleasant,pleasant,NA,NA,NA,NA,NA,right,695,true,NA,NA,NA,NA,NA,NA,NA,NA
9L87LgEW,3087lxlj7ptluqx9bvztb5iuvan0fr,3a4tn5196ovrpyhp93lfybs0oqwhch,9L87LgEW,2020-0188,2021-10-31,09:30:50,11:37:11,NA,incomplete,false,true,NA,NA,2,35,NA,orange,m_l_113.jpg,NA,NA,NA,NA,NA,pleasant,unpleasant,NA,NA,NA,NA,NA,right,651.300000011921,true,NA,NA,NA,NA,NA,NA,NA,NA
9L87LgEW,3087lxlj7ptluqx9bvztb5iuvan0fr,3a4tn5196ovrpyhp93lfybs0oqwhch,9L87LgEW,2020-0188,2021-10-31,09:30:50,11:37:11,NA,incomplete,false,NA,NA,true,2,0,NA,NA,NA,right,m_l_030.jpg,blue,red,NA,NA,NA,NA,NA,NA,NA,NA,NA,NaN,NA,2630.9000000059605,left,0,NA,NA,NA,NA,NA
9L87LgEW,3087lxlj7ptluqx9bvztb5iuvan0fr,3a4tn5196ovrpyhp93lfybs0oqwhch,9L87LgEW,2020-0188,2021-10-31,09:30:50,11:37:11,NA,incomplete,false,NA,NA,true,2,1,NA,NA,NA,right,n_s_058.jpg,purple,brown,NA,NA,NA,NA,NA,NA,NA,NA,NA,NaN,NA,2703.2000000178814,left,0,NA,NA,NA,NA,NA
9L87LgEW,3087lxlj7ptluqx9bvztb5iuvan0fr,3a4tn5196ovrpyhp93lfybs0oqwhch,9L87LgEW,2020-0188,2021-10-31,09:30:50,11:37:11,NA,incomplete,false,NA,NA,true,2,2,NA,NA,NA,left,n_l_098.jpg,purple,brown,NA,NA,NA,NA,NA,NA,NA,NA,NA,NaN,NA,2383.199999988079,left,1,NA,NA,NA,NA,NA
9L87LgEW,3087lxlj7ptluqx9bvztb5iuvan0fr,3a4tn5196ovrpyhp93lfybs0oqwhch,9L87LgEW,2020-0188,2021-10-31,09:30:50,11:37:11,NA,incomplete,false,NA,NA,true,2,3,NA,NA,NA,left,n_l_018.jpg,red,blue,NA,NA,NA,NA,NA,NA,NA,NA,NA,NaN,NA,1671.0999999940395,left,1,NA,NA,NA,NA,NA
9L87LgEW,3087lxlj7ptluqx9bvztb5iuvan0fr,3a4tn5196ovrpyhp93lfybs0oqwhch,9L87LgEW,2020-0188,2021-10-31,09:30:50,11:37:11,NA,incomplete,false,NA,NA,true,2,4,NA,NA,NA,left,m_s_039.jpg,purple,orange,NA,NA,NA,NA,NA,NA,NA,NA,NA,NaN,NA,1575.5,left,1,NA,NA,NA,NA,NA
9L87LgEW,3087lxlj7ptluqx9bvztb5iuvan0fr,3a4tn5196ovrpyhp93lfybs0oqwhch,9L87LgEW,2020-0188,2021-10-31,09:30:50,11:37:11,NA,incomplete,false,NA,NA,true,2,5,NA,NA,NA,right,n_l_053.jpg,purple,orange,NA,NA,NA,NA,NA,NA,NA,NA,NA,NaN,NA,4294.4000000059605,left,0,NA,NA,NA,NA,NA
9L87LgEW,3087lxlj7ptluqx9bvztb5iuvan0fr,3a4tn5196ovrpyhp93lfybs0oqwhch,9L87LgEW,2020-0188,2021-10-31,09:30:50,11:37:11,NA,incomplete,false,NA,NA,true,2,6,NA,NA,NA,right,n_l_072.jpg,blue,white,NA,NA,NA,NA,NA,NA,NA,NA,NA,NaN,NA,2175.0999999940395,left,0,NA,NA,NA,NA,NA
9L87LgEW,3087lxlj7ptluqx9bvztb5iuvan0fr,3a4tn5196ovrpyhp93lfybs0oqwhch,9L87LgEW,2020-0188,2021-10-31,09:30:50,11:37:11,NA,incomplete,false,NA,NA,true,2,7,NA,NA,NA,right,m_l_031.jpg,purple,brown,NA,NA,NA,NA,NA,NA,NA,NA,NA,NaN,NA,1822.4000000059605,left,0,NA,NA,NA,NA,NA
9L87LgEW,3087lxlj7ptluqx9bvztb5iuvan0fr,3a4tn5196ovrpyhp93lfybs0oqwhch,9L87LgEW,2020-0188,2021-10-31,09:30:50,11:37:11,NA,incomplete,false,NA,NA,true,2,8,NA,NA,NA,left,n_s_037.jpg,white,blue,NA,NA,NA,NA,NA,NA,NA,NA,NA,NaN,NA,1239.5,left,1,NA,NA,NA,NA,NA
9L87LgEW,3087lxlj7ptluqx9bvztb5iuvan0fr,3a4tn5196ovrpyhp93lfybs0oqwhch,9L87LgEW,2020-0188,2021-10-31,09:30:50,11:37:11,NA,incomplete,false,NA,NA,true,2,9,NA,NA,NA,right,n_l_086.jpg,purple,orange,NA,NA,NA,NA,NA,NA,NA,NA,NA,NaN,NA,1118.699999988079,right,1,NA,NA,NA,NA,NA
9L87LgEW,3087lxlj7ptluqx9bvztb5iuvan0fr,3a4tn5196ovrpyhp93lfybs0oqwhch,9L87LgEW,2020-0188,2021-10-31,09:30:50,11:37:11,NA,incomplete,false,NA,NA,true,2,10,NA,NA,NA,right,n_l_100.jpg,purple,brown,NA,NA,NA,NA,NA,NA,NA,NA,NA,NaN,NA,1391.199999988079,right,1,NA,NA,NA,NA,NA
9L87LgEW,3087lxlj7ptluqx9bvztb5iuvan0fr,3a4tn5196ovrpyhp93lfybs0oqwhch,9L87LgEW,2020-0188,2021-10-31,09:30:50,11:37:11,NA,incomplete,false,NA,NA,true,2,11,NA,NA,NA,left,m_l_080.jpg,blue,white,NA,NA,NA,NA,NA,NA,NA,NA,NA,NaN,NA,1087,right,0,NA,NA,NA,NA,NA
9L87LgEW,3087lxlj7ptluqx9bvztb5iuvan0fr,3a4tn5196ovrpyhp93lfybs0oqwhch,9L87LgEW,2020-0188,2021-10-31,09:30:50,11:37:11,NA,incomplete,false,NA,NA,true,2,12,NA,NA,NA,left,n_s_084.jpg,purple,brown,NA,NA,NA,NA,NA,NA,NA,NA,NA,NaN,NA,1007.0999999940395,right,0,NA,NA,NA,NA,NA
9L87LgEW,3087lxlj7ptluqx9bvztb5iuvan0fr,3a4tn5196ovrpyhp93lfybs0oqwhch,9L87LgEW,2020-0188,2021-10-31,09:30:50,11:37:11,NA,incomplete,false,NA,NA,true,2,13,NA,NA,NA,right,m_l_004.jpg,brown,white,NA,NA,NA,NA,NA,NA,NA,NA,NA,NaN,NA,1303.199999988079,left,0,NA,NA,NA,NA,NA
9L87LgEW,3087lxlj7ptluqx9bvztb5iuvan0fr,3a4tn5196ovrpyhp93lfybs0oqwhch,9L87LgEW,2020-0188,2021-10-31,09:30:50,11:37:11,NA,incomplete,false,NA,NA,true,2,14,NA,NA,NA,right,m_l_113.jpg,purple,orange,NA,NA,NA,NA,NA,NA,NA,NA,NA,NaN,NA,3062.9000000059605,right,1,NA,NA,NA,NA,NA
9L87LgEW,3087lxlj7ptluqx9bvztb5iuvan0fr,3a4tn5196ovrpyhp93lfybs0oqwhch,9L87LgEW,2020-0188,2021-10-31,09:30:50,11:37:11,NA,incomplete,false,NA,NA,true,2,15,NA,NA,NA,left,m_l_100.jpg,white,blue,NA,NA,NA,NA,NA,NA,NA,NA,NA,NaN,NA,1327.199999988079,left,1,NA,NA,NA,NA,NA
9L87LgEW,3087lxlj7ptluqx9bvztb5iuvan0fr,3a4tn5196ovrpyhp93lfybs0oqwhch,9L87LgEW,2020-0188,2021-10-31,09:30:50,11:37:11,NA,incomplete,false,NA,NA,true,2,16,NA,NA,NA,left,m_s_012.jpg,blue,white,NA,NA,NA,NA,NA,NA,NA,NA,NA,NaN,NA,1559.4000000059605,left,1,NA,NA,NA,NA,NA
9L87LgEW,3087lxlj7ptluqx9bvztb5iuvan0fr,3a4tn5196ovrpyhp93lfybs0oqwhch,9L87LgEW,2020-0188,2021-10-31,09:30:50,11:37:11,NA,incomplete,false,NA,NA,true,2,17,NA,NA,NA,right,m_l_048.jpg,white,blue,NA,NA,NA,NA,NA,NA,NA,NA,NA,NaN,NA,1447.199999988079,left,0,NA,NA,NA,NA,NA
9L87LgEW,3087lxlj7ptluqx9bvztb5iuvan0fr,3a4tn5196ovrpyhp93lfybs0oqwhch,9L87LgEW,2020-0188,2021-10-31,09:30:50,11:37:11,NA,incomplete,false,NA,NA,true,2,18,NA,NA,NA,left,n_l_076.jpg,purple,orange,NA,NA,NA,NA,NA,NA,NA,NA,NA,NaN,NA,943,left,1,NA,NA,NA,NA,NA
9L87LgEW,3087lxlj7ptluqx9bvztb5iuvan0fr,3a4tn5196ovrpyhp93lfybs0oqwhch,9L87LgEW,2020-0188,2021-10-31,09:30:50,11:37:11,NA,incomplete,false,NA,NA,true,2,19,NA,NA,NA,right,m_l_056.jpg,purple,brown,NA,NA,NA,NA,NA,NA,NA,NA,NA,NaN,NA,3263.0999999940395,right,1,NA,NA,NA,NA,NA
9L87LgEW,3087lxlj7ptluqx9bvztb5iuvan0fr,3a4tn5196ovrpyhp93lfybs0oqwhch,9L87LgEW,2020-0188,2021-10-31,09:30:50,11:37:11,NA,incomplete,false,NA,NA,true,2,20,NA,NA,NA,right,m_l_028.jpg,blue,red,NA,NA,NA,NA,NA,NA,NA,NA,NA,NaN,NA,1599,right,1,NA,NA,NA,NA,NA
9L87LgEW,3087lxlj7ptluqx9bvztb5iuvan0fr,3a4tn5196ovrpyhp93lfybs0oqwhch,9L87LgEW,2020-0188,2021-10-31,09:30:50,11:37:11,NA,incomplete,false,NA,NA,true,2,21,NA,NA,NA,left,n_s_022.jpg,blue,white,NA,NA,NA,NA,NA,NA,NA,NA,NA,NaN,NA,1783.0999999940395,right,0,NA,NA,NA,NA,NA
9L87LgEW,3087lxlj7ptluqx9bvztb5iuvan0fr,3a4tn5196ovrpyhp93lfybs0oqwhch,9L87LgEW,2020-0188,2021-10-31,09:30:50,11:37:11,NA,incomplete,false,NA,true,NA,2,0,NA,NA,NA,left,NA,NA,NA,present,NA,NA,m_l_031.jpg,brown,n_s_058.jpg,brown,within,NA,NaN,NA,NA,NA,NA,left,1885.5,1,3,1910.6000000238419
9L87LgEW,3087lxlj7ptluqx9bvztb5iuvan0fr,3a4tn5196ovrpyhp93lfybs0oqwhch,9L87LgEW,2020-0188,2021-10-31,09:30:50,11:37:11,NA,incomplete,false,NA,true,NA,2,1,NA,NA,NA,left,NA,NA,NA,present,NA,NA,n_s_022.jpg,blue,m_l_004.jpg,white,between,NA,NaN,NA,NA,NA,NA,right,2334.899999976158,0,1,2335.100000023842
9L87LgEW,3087lxlj7ptluqx9bvztb5iuvan0fr,3a4tn5196ovrpyhp93lfybs0oqwhch,9L87LgEW,2020-0188,2021-10-31,09:30:50,11:37:11,NA,incomplete,false,NA,true,NA,2,2,NA,NA,NA,right,NA,NA,NA,present,NA,NA,m_l_028.jpg,red,m_l_030.jpg,red,within,NA,NaN,NA,NA,NA,NA,left,1487.1000000238419,0,0,1391
9L87LgEW,3087lxlj7ptluqx9bvztb5iuvan0fr,3a4tn5196ovrpyhp93lfybs0oqwhch,9L87LgEW,2020-0188,2021-10-31,09:30:50,11:37:11,NA,incomplete,false,NA,true,NA,2,3,NA,NA,NA,left,NA,NA,NA,present,NA,NA,n_l_072.jpg,white,n_l_100.jpg,brown,between,NA,NaN,NA,NA,NA,NA,left,1087.0999999940395,1,0,1647.2000000178814
9L87LgEW,3087lxlj7ptluqx9bvztb5iuvan0fr,3a4tn5196ovrpyhp93lfybs0oqwhch,9L87LgEW,2020-0188,2021-10-31,09:30:50,11:37:11,NA,incomplete,false,NA,true,NA,2,4,NA,NA,NA,right,NA,NA,NA,present,NA,NA,m_s_039.jpg,purple,n_l_076.jpg,purple,within,NA,NaN,NA,NA,NA,NA,left,1494.8999999761581,0,1,2102.899999976158
9L87LgEW,3087lxlj7ptluqx9bvztb5iuvan0fr,3a4tn5196ovrpyhp93lfybs0oqwhch,9L87LgEW,2020-0188,2021-10-31,09:30:50,11:37:11,NA,incomplete,false,NA,true,NA,2,5,NA,NA,NA,right,NA,NA,NA,present,NA,NA,m_s_012.jpg,blue,m_l_080.jpg,blue,within,NA,NaN,NA,NA,NA,NA,right,1399.199999988079,1,2,1967
9L87LgEW,3087lxlj7ptluqx9bvztb5iuvan0fr,3a4tn5196ovrpyhp93lfybs0oqwhch,9L87LgEW,2020-0188,2021-10-31,09:30:50,11:37:11,NA,incomplete,false,NA,true,NA,2,6,NA,NA,NA,right,NA,NA,NA,present,NA,NA,n_l_053.jpg,orange,n_s_084.jpg,purple,between,NA,NaN,NA,NA,NA,NA,left,1903.1000000238419,0,0,2646.9000000059605
9L87LgEW,3087lxlj7ptluqx9bvztb5iuvan0fr,3a4tn5196ovrpyhp93lfybs0oqwhch,9L87LgEW,2020-0188,2021-10-31,09:30:50,11:37:11,NA,incomplete,false,NA,true,NA,2,7,NA,NA,NA,left,NA,NA,NA,present,NA,NA,n_l_086.jpg,orange,m_l_113.jpg,orange,within,NA,NaN,NA,NA,NA,NA,left,4967,1,1,1463.199999988079
9L87LgEW,3087lxlj7ptluqx9bvztb5iuvan0fr,3a4tn5196ovrpyhp93lfybs0oqwhch,9L87LgEW,2020-0188,2021-10-31,09:30:50,11:37:11,NA,incomplete,false,NA,true,NA,2,8,NA,NA,NA,left,NA,NA,NA,present,NA,NA,m_l_100.jpg,white,n_s_037.jpg,white,within,NA,NaN,NA,NA,NA,NA,left,1622.9000000059605,1,1,2022.800000011921
9L87LgEW,3087lxlj7ptluqx9bvztb5iuvan0fr,3a4tn5196ovrpyhp93lfybs0oqwhch,9L87LgEW,2020-0188,2021-10-31,09:30:50,11:37:11,NA,incomplete,false,NA,true,NA,2,9,NA,NA,NA,right,NA,NA,NA,present,NA,NA,m_l_048.jpg,blue,n_l_018.jpg,red,between,NA,NaN,NA,NA,NA,NA,left,1935,0,2,1143
9L87LgEW,3087lxlj7ptluqx9bvztb5iuvan0fr,3a4tn5196ovrpyhp93lfybs0oqwhch,9L87LgEW,2020-0188,2021-10-31,09:30:50,11:37:11,NA,incomplete,false,NA,true,NA,2,10,NA,NA,NA,left,NA,NA,NA,present,NA,NA,m_l_056.jpg,brown,n_l_098.jpg,purple,between,NA,NaN,NA,NA,NA,NA,right,1207.1000000238419,0,2,1726.7999999821186
9L87LgEW,3087lxlj7ptluqx9bvztb5iuvan0fr,3a4tn5196ovrpyhp93lfybs0oqwhch,9L87LgEW,2020-0188,2021-10-31,09:30:50,11:37:11,NA,incomplete,false,true,NA,NA,3,0,NA,brown,m_s_112.jpg,NA,NA,NA,NA,NA,pleasant,unpleasant,NA,NA,NA,NA,NA,none,0,false,NA,NA,NA,NA,NA,NA,NA,NA
9L87LgEW,3087lxlj7ptluqx9bvztb5iuvan0fr,3a4tn5196ovrpyhp93lfybs0oqwhch,9L87LgEW,2020-0188,2021-10-31,09:30:50,11:37:11,NA,incomplete,false,true,NA,NA,3,1,NA,brown,n_s_060.jpg,NA,NA,NA,NA,NA,pleasant,unpleasant,NA,NA,NA,NA,NA,left,2062.09999999404,true,NA,NA,NA,NA,NA,NA,NA,NA
9L87LgEW,3087lxlj7ptluqx9bvztb5iuvan0fr,3a4tn5196ovrpyhp93lfybs0oqwhch,9L87LgEW,2020-0188,2021-10-31,09:30:50,11:37:11,NA,incomplete,false,true,NA,NA,3,2,NA,brown,m_l_081.jpg,NA,NA,NA,NA,NA,pleasant,unpleasant,NA,NA,NA,NA,NA,left,494.100000023842,true,NA,NA,NA,NA,NA,NA,NA,NA
9L87LgEW,3087lxlj7ptluqx9bvztb5iuvan0fr,3a4tn5196ovrpyhp93lfybs0oqwhch,9L87LgEW,2020-0188,2021-10-31,09:30:50,11:37:11,NA,incomplete,false,true,NA,NA,3,3,NA,brown,n_s_062.jpg,NA,NA,NA,NA,NA,unpleasant,pleasant,NA,NA,NA,NA,NA,left,344.800000011921,true,NA,NA,NA,NA,NA,NA,NA,NA
9L87LgEW,3087lxlj7ptluqx9bvztb5iuvan0fr,3a4tn5196ovrpyhp93lfybs0oqwhch,9L87LgEW,2020-0188,2021-10-31,09:30:50,11:37:11,NA,incomplete,false,true,NA,NA,3,4,NA,brown,m_s_007.jpg,NA,NA,NA,NA,NA,unpleasant,pleasant,NA,NA,NA,NA,NA,right,34.9000000059605,true,NA,NA,NA,NA,NA,NA,NA,NA
9L87LgEW,3087lxlj7ptluqx9bvztb5iuvan0fr,3a4tn5196ovrpyhp93lfybs0oqwhch,9L87LgEW,2020-0188,2021-10-31,09:30:50,11:37:11,NA,incomplete,false,true,NA,NA,3,5,NA,brown,m_l_016.jpg,NA,NA,NA,NA,NA,pleasant,unpleasant,NA,NA,NA,NA,NA,left,536.59999999404,true,NA,NA,NA,NA,NA,NA,NA,NA
9L87LgEW,3087lxlj7ptluqx9bvztb5iuvan0fr,3a4tn5196ovrpyhp93lfybs0oqwhch,9L87LgEW,2020-0188,2021-10-31,09:30:50,11:37:11,NA,incomplete,false,true,NA,NA,3,6,NA,purple,n_l_106.jpg,NA,NA,NA,NA,NA,pleasant,unpleasant,NA,NA,NA,NA,NA,left,1541.69999998808,true,NA,NA,NA,NA,NA,NA,NA,NA
9L87LgEW,3087lxlj7ptluqx9bvztb5iuvan0fr,3a4tn5196ovrpyhp93lfybs0oqwhch,9L87LgEW,2020-0188,2021-10-31,09:30:50,11:37:11,NA,incomplete,false,true,NA,NA,3,7,NA,purple,m_s_008.jpg,NA,NA,NA,NA,NA,unpleasant,pleasant,NA,NA,NA,NA,NA,right,26.1000000238419,true,NA,NA,NA,NA,NA,NA,NA,NA
9L87LgEW,3087lxlj7ptluqx9bvztb5iuvan0fr,3a4tn5196ovrpyhp93lfybs0oqwhch,9L87LgEW,2020-0188,2021-10-31,09:30:50,11:37:11,NA,incomplete,false,true,NA,NA,3,8,NA,purple,n_s_106.jpg,NA,NA,NA,NA,NA,pleasant,unpleasant,NA,NA,NA,NA,NA,none,0,false,NA,NA,NA,NA,NA,NA,NA,NA
9L87LgEW,3087lxlj7ptluqx9bvztb5iuvan0fr,3a4tn5196ovrpyhp93lfybs0oqwhch,9L87LgEW,2020-0188,2021-10-31,09:30:50,11:37:11,NA,incomplete,false,true,NA,NA,3,9,NA,purple,m_s_011.jpg,NA,NA,NA,NA,NA,unpleasant,pleasant,NA,NA,NA,NA,NA,left,493.5,true,NA,NA,NA,NA,NA,NA,NA,NA
9L87LgEW,3087lxlj7ptluqx9bvztb5iuvan0fr,3a4tn5196ovrpyhp93lfybs0oqwhch,9L87LgEW,2020-0188,2021-10-31,09:30:50,11:37:11,NA,incomplete,false,true,NA,NA,3,10,NA,purple,n_s_072.jpg,NA,NA,NA,NA,NA,unpleasant,pleasant,NA,NA,NA,NA,NA,right,1837.5,true,NA,NA,NA,NA,NA,NA,NA,NA
9L87LgEW,3087lxlj7ptluqx9bvztb5iuvan0fr,3a4tn5196ovrpyhp93lfybs0oqwhch,9L87LgEW,2020-0188,2021-10-31,09:30:50,11:37:11,NA,incomplete,false,true,NA,NA,3,11,NA,purple,n_l_017.jpg,NA,NA,NA,NA,NA,unpleasant,pleasant,NA,NA,NA,NA,NA,left,21.0999999940395,true,NA,NA,NA,NA,NA,NA,NA,NA
9L87LgEW,3087lxlj7ptluqx9bvztb5iuvan0fr,3a4tn5196ovrpyhp93lfybs0oqwhch,9L87LgEW,2020-0188,2021-10-31,09:30:50,11:37:11,NA,incomplete,false,true,NA,NA,3,12,NA,white,m_l_068.jpg,NA,NA,NA,NA,NA,pleasant,unpleasant,NA,NA,NA,NA,NA,left,269.300000011921,true,NA,NA,NA,NA,NA,NA,NA,NA
9L87LgEW,3087lxlj7ptluqx9bvztb5iuvan0fr,3a4tn5196ovrpyhp93lfybs0oqwhch,9L87LgEW,2020-0188,2021-10-31,09:30:50,11:37:11,NA,incomplete,false,true,NA,NA,3,13,NA,white,n_s_085.jpg,NA,NA,NA,NA,NA,unpleasant,pleasant,NA,NA,NA,NA,NA,right,147.90000000596,true,NA,NA,NA,NA,NA,NA,NA,NA
9L87LgEW,3087lxlj7ptluqx9bvztb5iuvan0fr,3a4tn5196ovrpyhp93lfybs0oqwhch,9L87LgEW,2020-0188,2021-10-31,09:30:50,11:37:11,NA,incomplete,false,true,NA,NA,3,14,NA,white,m_s_103.jpg,NA,NA,NA,NA,NA,unpleasant,pleasant,NA,NA,NA,NA,NA,left,916.699999988079,true,NA,NA,NA,NA,NA,NA,NA,NA
9L87LgEW,3087lxlj7ptluqx9bvztb5iuvan0fr,3a4tn5196ovrpyhp93lfybs0oqwhch,9L87LgEW,2020-0188,2021-10-31,09:30:50,11:37:11,NA,incomplete,false,true,NA,NA,3,15,NA,white,n_s_117.jpg,NA,NA,NA,NA,NA,unpleasant,pleasant,NA,NA,NA,NA,NA,right,431.90000000596,true,NA,NA,NA,NA,NA,NA,NA,NA
9L87LgEW,3087lxlj7ptluqx9bvztb5iuvan0fr,3a4tn5196ovrpyhp93lfybs0oqwhch,9L87LgEW,2020-0188,2021-10-31,09:30:50,11:37:11,NA,incomplete,false,true,NA,NA,3,16,NA,white,n_s_002.jpg,NA,NA,NA,NA,NA,pleasant,unpleasant,NA,NA,NA,NA,NA,left,135.5,true,NA,NA,NA,NA,NA,NA,NA,NA
9L87LgEW,3087lxlj7ptluqx9bvztb5iuvan0fr,3a4tn5196ovrpyhp93lfybs0oqwhch,9L87LgEW,2020-0188,2021-10-31,09:30:50,11:37:11,NA,incomplete,false,true,NA,NA,3,17,NA,white,m_s_106.jpg,NA,NA,NA,NA,NA,unpleasant,pleasant,NA,NA,NA,NA,NA,right,284.90000000596,true,NA,NA,NA,NA,NA,NA,NA,NA
9L87LgEW,3087lxlj7ptluqx9bvztb5iuvan0fr,3a4tn5196ovrpyhp93lfybs0oqwhch,9L87LgEW,2020-0188,2021-10-31,09:30:50,11:37:11,NA,incomplete,false,true,NA,NA,3,18,NA,red,m_s_015.jpg,NA,NA,NA,NA,NA,unpleasant,pleasant,NA,NA,NA,NA,NA,right,659.59999999404,true,NA,NA,NA,NA,NA,NA,NA,NA
9L87LgEW,3087lxlj7ptluqx9bvztb5iuvan0fr,3a4tn5196ovrpyhp93lfybs0oqwhch,9L87LgEW,2020-0188,2021-10-31,09:30:50,11:37:11,NA,incomplete,false,true,NA,NA,3,19,NA,red,m_l_071.jpg,NA,NA,NA,NA,NA,unpleasant,pleasant,NA,NA,NA,NA,NA,left,664.799999982119,true,NA,NA,NA,NA,NA,NA,NA,NA
9L87LgEW,3087lxlj7ptluqx9bvztb5iuvan0fr,3a4tn5196ovrpyhp93lfybs0oqwhch,9L87LgEW,2020-0188,2021-10-31,09:30:50,11:37:11,NA,incomplete,false,true,NA,NA,3,20,NA,red,m_s_047.jpg,NA,NA,NA,NA,NA,unpleasant,pleasant,NA,NA,NA,NA,NA,left,2046.30000001192,true,NA,NA,NA,NA,NA,NA,NA,NA
9L87LgEW,3087lxlj7ptluqx9bvztb5iuvan0fr,3a4tn5196ovrpyhp93lfybs0oqwhch,9L87LgEW,2020-0188,2021-10-31,09:30:50,11:37:11,NA,incomplete,false,true,NA,NA,3,21,NA,red,n_s_053.jpg,NA,NA,NA,NA,NA,unpleasant,pleasant,NA,NA,NA,NA,NA,right,146.09999999404,true,NA,NA,NA,NA,NA,NA,NA,NA
9L87LgEW,3087lxlj7ptluqx9bvztb5iuvan0fr,3a4tn5196ovrpyhp93lfybs0oqwhch,9L87LgEW,2020-0188,2021-10-31,09:30:50,11:37:11,NA,incomplete,false,true,NA,NA,3,22,NA,red,m_s_064.jpg,NA,NA,NA,NA,NA,unpleasant,pleasant,NA,NA,NA,NA,NA,right,132.800000011921,true,NA,NA,NA,NA,NA,NA,NA,NA
9L87LgEW,3087lxlj7ptluqx9bvztb5iuvan0fr,3a4tn5196ovrpyhp93lfybs0oqwhch,9L87LgEW,2020-0188,2021-10-31,09:30:50,11:37:11,NA,incomplete,false,true,NA,NA,3,23,NA,red,n_s_089.jpg,NA,NA,NA,NA,NA,pleasant,unpleasant,NA,NA,NA,NA,NA,right,222.600000023842,true,NA,NA,NA,NA,NA,NA,NA,NA
9L87LgEW,3087lxlj7ptluqx9bvztb5iuvan0fr,3a4tn5196ovrpyhp93lfybs0oqwhch,9L87LgEW,2020-0188,2021-10-31,09:30:50,11:37:11,NA,incomplete,false,true,NA,NA,3,24,NA,orange,m_l_112.jpg,NA,NA,NA,NA,NA,pleasant,unpleasant,NA,NA,NA,NA,NA,left,235.09999999404,true,NA,NA,NA,NA,NA,NA,NA,NA
9L87LgEW,3087lxlj7ptluqx9bvztb5iuvan0fr,3a4tn5196ovrpyhp93lfybs0oqwhch,9L87LgEW,2020-0188,2021-10-31,09:30:50,11:37:11,NA,incomplete,false,true,NA,NA,3,25,NA,orange,m_l_086.jpg,NA,NA,NA,NA,NA,pleasant,unpleasant,NA,NA,NA,NA,NA,left,26.5999999940395,true,NA,NA,NA,NA,NA,NA,NA,NA
9L87LgEW,3087lxlj7ptluqx9bvztb5iuvan0fr,3a4tn5196ovrpyhp93lfybs0oqwhch,9L87LgEW,2020-0188,2021-10-31,09:30:50,11:37:11,NA,incomplete,false,true,NA,NA,3,26,NA,orange,m_s_089.jpg,NA,NA,NA,NA,NA,unpleasant,pleasant,NA,NA,NA,NA,NA,left,84.4000000059605,true,NA,NA,NA,NA,NA,NA,NA,NA
9L87LgEW,3087lxlj7ptluqx9bvztb5iuvan0fr,3a4tn5196ovrpyhp93lfybs0oqwhch,9L87LgEW,2020-0188,2021-10-31,09:30:50,11:37:11,NA,incomplete,false,true,NA,NA,3,27,NA,orange,n_l_013.jpg,NA,NA,NA,NA,NA,pleasant,unpleasant,NA,NA,NA,NA,NA,left,750.800000011921,true,NA,NA,NA,NA,NA,NA,NA,NA
9L87LgEW,3087lxlj7ptluqx9bvztb5iuvan0fr,3a4tn5196ovrpyhp93lfybs0oqwhch,9L87LgEW,2020-0188,2021-10-31,09:30:50,11:37:11,NA,incomplete,false,true,NA,NA,3,28,NA,orange,n_l_084.jpg,NA,NA,NA,NA,NA,unpleasant,pleasant,NA,NA,NA,NA,NA,right,227,true,NA,NA,NA,NA,NA,NA,NA,NA
9L87LgEW,3087lxlj7ptluqx9bvztb5iuvan0fr,3a4tn5196ovrpyhp93lfybs0oqwhch,9L87LgEW,2020-0188,2021-10-31,09:30:50,11:37:11,NA,incomplete,false,true,NA,NA,3,29,NA,orange,n_s_051.jpg,NA,NA,NA,NA,NA,pleasant,unpleasant,NA,NA,NA,NA,NA,right,417.40000000596,true,NA,NA,NA,NA,NA,NA,NA,NA
9L87LgEW,3087lxlj7ptluqx9bvztb5iuvan0fr,3a4tn5196ovrpyhp93lfybs0oqwhch,9L87LgEW,2020-0188,2021-10-31,09:30:50,11:37:11,NA,incomplete,false,true,NA,NA,3,30,NA,blue,n_s_036.jpg,NA,NA,NA,NA,NA,unpleasant,pleasant,NA,NA,NA,NA,NA,right,1026.90000000596,true,NA,NA,NA,NA,NA,NA,NA,NA
9L87LgEW,3087lxlj7ptluqx9bvztb5iuvan0fr,3a4tn5196ovrpyhp93lfybs0oqwhch,9L87LgEW,2020-0188,2021-10-31,09:30:50,11:37:11,NA,incomplete,false,true,NA,NA,3,31,NA,blue,n_s_071.jpg,NA,NA,NA,NA,NA,unpleasant,pleasant,NA,NA,NA,NA,NA,right,12,true,NA,NA,NA,NA,NA,NA,NA,NA
9L87LgEW,3087lxlj7ptluqx9bvztb5iuvan0fr,3a4tn5196ovrpyhp93lfybs0oqwhch,9L87LgEW,2020-0188,2021-10-31,09:30:50,11:37:11,NA,incomplete,false,true,NA,NA,3,32,NA,blue,n_s_032.jpg,NA,NA,NA,NA,NA,unpleasant,pleasant,NA,NA,NA,NA,NA,right,572.199999988079,true,NA,NA,NA,NA,NA,NA,NA,NA
9L87LgEW,3087lxlj7ptluqx9bvztb5iuvan0fr,3a4tn5196ovrpyhp93lfybs0oqwhch,9L87LgEW,2020-0188,2021-10-31,09:30:50,11:37:11,NA,incomplete,false,true,NA,NA,3,33,NA,blue,m_s_009.jpg,NA,NA,NA,NA,NA,pleasant,unpleasant,NA,NA,NA,NA,NA,left,352.09999999404,true,NA,NA,NA,NA,NA,NA,NA,NA
9L87LgEW,3087lxlj7ptluqx9bvztb5iuvan0fr,3a4tn5196ovrpyhp93lfybs0oqwhch,9L87LgEW,2020-0188,2021-10-31,09:30:50,11:37:11,NA,incomplete,false,true,NA,NA,3,34,NA,blue,n_l_089.jpg,NA,NA,NA,NA,NA,unpleasant,pleasant,NA,NA,NA,NA,NA,right,986.200000017881,true,NA,NA,NA,NA,NA,NA,NA,NA
9L87LgEW,3087lxlj7ptluqx9bvztb5iuvan0fr,3a4tn5196ovrpyhp93lfybs0oqwhch,9L87LgEW,2020-0188,2021-10-31,09:30:50,11:37:11,NA,incomplete,false,true,NA,NA,3,35,NA,blue,n_s_069.jpg,NA,NA,NA,NA,NA,pleasant,unpleasant,NA,NA,NA,NA,NA,left,397.40000000596,true,NA,NA,NA,NA,NA,NA,NA,NA
9L87LgEW,3087lxlj7ptluqx9bvztb5iuvan0fr,3a4tn5196ovrpyhp93lfybs0oqwhch,9L87LgEW,2020-0188,2021-10-31,09:30:50,11:37:11,NA,incomplete,false,NA,NA,true,3,0,NA,NA,NA,left,m_l_071.jpg,red,white,NA,NA,NA,NA,NA,NA,NA,NA,NA,NaN,NA,2695,right,0,NA,NA,NA,NA,NA
9L87LgEW,3087lxlj7ptluqx9bvztb5iuvan0fr,3a4tn5196ovrpyhp93lfybs0oqwhch,9L87LgEW,2020-0188,2021-10-31,09:30:50,11:37:11,NA,incomplete,false,NA,NA,true,3,1,NA,NA,NA,left,m_s_089.jpg,orange,red,NA,NA,NA,NA,NA,NA,NA,NA,NA,NaN,NA,1094.9000000059605,right,0,NA,NA,NA,NA,NA
9L87LgEW,3087lxlj7ptluqx9bvztb5iuvan0fr,3a4tn5196ovrpyhp93lfybs0oqwhch,9L87LgEW,2020-0188,2021-10-31,09:30:50,11:37:11,NA,incomplete,false,NA,NA,true,3,2,NA,NA,NA,right,m_s_008.jpg,brown,purple,NA,NA,NA,NA,NA,NA,NA,NA,NA,NaN,NA,1023.6999999880791,left,0,NA,NA,NA,NA,NA
9L87LgEW,3087lxlj7ptluqx9bvztb5iuvan0fr,3a4tn5196ovrpyhp93lfybs0oqwhch,9L87LgEW,2020-0188,2021-10-31,09:30:50,11:37:11,NA,incomplete,false,NA,NA,true,3,3,NA,NA,NA,right,n_s_069.jpg,orange,blue,NA,NA,NA,NA,NA,NA,NA,NA,NA,NaN,NA,2063.300000011921,right,1,NA,NA,NA,NA,NA
9L87LgEW,3087lxlj7ptluqx9bvztb5iuvan0fr,3a4tn5196ovrpyhp93lfybs0oqwhch,9L87LgEW,2020-0188,2021-10-31,09:30:50,11:37:11,NA,incomplete,false,NA,NA,true,3,4,NA,NA,NA,left,n_s_072.jpg,purple,brown,NA,NA,NA,NA,NA,NA,NA,NA,NA,NaN,NA,3854.9000000059605,right,0,NA,NA,NA,NA,NA
9L87LgEW,3087lxlj7ptluqx9bvztb5iuvan0fr,3a4tn5196ovrpyhp93lfybs0oqwhch,9L87LgEW,2020-0188,2021-10-31,09:30:50,11:37:11,NA,incomplete,false,NA,NA,true,3,5,NA,NA,NA,right,m_l_016.jpg,purple,brown,NA,NA,NA,NA,NA,NA,NA,NA,NA,NaN,NA,1423.0999999940395,right,1,NA,NA,NA,NA,NA
9L87LgEW,3087lxlj7ptluqx9bvztb5iuvan0fr,3a4tn5196ovrpyhp93lfybs0oqwhch,9L87LgEW,2020-0188,2021-10-31,09:30:50,11:37:11,NA,incomplete,false,NA,NA,true,3,6,NA,NA,NA,left,n_s_060.jpg,brown,purple,NA,NA,NA,NA,NA,NA,NA,NA,NA,NaN,NA,1263.199999988079,right,0,NA,NA,NA,NA,NA
9L87LgEW,3087lxlj7ptluqx9bvztb5iuvan0fr,3a4tn5196ovrpyhp93lfybs0oqwhch,9L87LgEW,2020-0188,2021-10-31,09:30:50,11:37:11,NA,incomplete,false,NA,NA,true,3,7,NA,NA,NA,right,m_s_047.jpg,orange,red,NA,NA,NA,NA,NA,NA,NA,NA,NA,NaN,NA,2783.2000000178814,right,1,NA,NA,NA,NA,NA
9L87LgEW,3087lxlj7ptluqx9bvztb5iuvan0fr,3a4tn5196ovrpyhp93lfybs0oqwhch,9L87LgEW,2020-0188,2021-10-31,09:30:50,11:37:11,NA,incomplete,false,NA,NA,true,3,8,NA,NA,NA,left,m_s_064.jpg,red,orange,NA,NA,NA,NA,NA,NA,NA,NA,NA,NaN,NA,1159.0999999940395,left,1,NA,NA,NA,NA,NA
9L87LgEW,3087lxlj7ptluqx9bvztb5iuvan0fr,3a4tn5196ovrpyhp93lfybs0oqwhch,9L87LgEW,2020-0188,2021-10-31,09:30:50,11:37:11,NA,incomplete,false,NA,NA,true,3,9,NA,NA,NA,left,n_l_017.jpg,purple,brown,NA,NA,NA,NA,NA,NA,NA,NA,NA,NaN,NA,1487.2000000178814,right,0,NA,NA,NA,NA,NA
9L87LgEW,3087lxlj7ptluqx9bvztb5iuvan0fr,3a4tn5196ovrpyhp93lfybs0oqwhch,9L87LgEW,2020-0188,2021-10-31,09:30:50,11:37:11,NA,incomplete,false,NA,NA,true,3,10,NA,NA,NA,right,m_s_106.jpg,purple,white,NA,NA,NA,NA,NA,NA,NA,NA,NA,NaN,NA,1279.199999988079,right,1,NA,NA,NA,NA,NA
9L87LgEW,3087lxlj7ptluqx9bvztb5iuvan0fr,3a4tn5196ovrpyhp93lfybs0oqwhch,9L87LgEW,2020-0188,2021-10-31,09:30:50,11:37:11,NA,incomplete,false,NA,NA,true,3,11,NA,NA,NA,right,n_s_051.jpg,red,orange,NA,NA,NA,NA,NA,NA,NA,NA,NA,NaN,NA,887.0999999940395,right,1,NA,NA,NA,NA,NA
9L87LgEW,3087lxlj7ptluqx9bvztb5iuvan0fr,3a4tn5196ovrpyhp93lfybs0oqwhch,9L87LgEW,2020-0188,2021-10-31,09:30:50,11:37:11,NA,incomplete,false,NA,NA,true,3,12,NA,NA,NA,right,m_l_086.jpg,red,orange,NA,NA,NA,NA,NA,NA,NA,NA,NA,NaN,NA,1519.0999999940395,left,0,NA,NA,NA,NA,NA
9L87LgEW,3087lxlj7ptluqx9bvztb5iuvan0fr,3a4tn5196ovrpyhp93lfybs0oqwhch,9L87LgEW,2020-0188,2021-10-31,09:30:50,11:37:11,NA,incomplete,false,NA,NA,true,3,13,NA,NA,NA,right,n_s_071.jpg,orange,blue,NA,NA,NA,NA,NA,NA,NA,NA,NA,NaN,NA,1175.199999988079,right,1,NA,NA,NA,NA,NA
9L87LgEW,3087lxlj7ptluqx9bvztb5iuvan0fr,3a4tn5196ovrpyhp93lfybs0oqwhch,9L87LgEW,2020-0188,2021-10-31,09:30:50,11:37:11,NA,incomplete,false,NA,NA,true,3,14,NA,NA,NA,left,n_l_084.jpg,orange,blue,NA,NA,NA,NA,NA,NA,NA,NA,NA,NaN,NA,663.3999999761581,right,0,NA,NA,NA,NA,NA
9L87LgEW,3087lxlj7ptluqx9bvztb5iuvan0fr,3a4tn5196ovrpyhp93lfybs0oqwhch,9L87LgEW,2020-0188,2021-10-31,09:30:50,11:37:11,NA,incomplete,false,NA,NA,true,3,15,NA,NA,NA,left,n_s_032.jpg,blue,orange,NA,NA,NA,NA,NA,NA,NA,NA,NA,NaN,NA,1007.1999999880791,right,0,NA,NA,NA,NA,NA
9L87LgEW,3087lxlj7ptluqx9bvztb5iuvan0fr,3a4tn5196ovrpyhp93lfybs0oqwhch,9L87LgEW,2020-0188,2021-10-31,09:30:50,11:37:11,NA,incomplete,false,NA,NA,true,3,16,NA,NA,NA,right,n_s_085.jpg,red,white,NA,NA,NA,NA,NA,NA,NA,NA,NA,NaN,NA,823.0999999940395,right,1,NA,NA,NA,NA,NA
9L87LgEW,3087lxlj7ptluqx9bvztb5iuvan0fr,3a4tn5196ovrpyhp93lfybs0oqwhch,9L87LgEW,2020-0188,2021-10-31,09:30:50,11:37:11,NA,incomplete,false,NA,NA,true,3,17,NA,NA,NA,left,n_s_002.jpg,white,purple,NA,NA,NA,NA,NA,NA,NA,NA,NA,NaN,NA,886.6999999880791,right,0,NA,NA,NA,NA,NA
9L87LgEW,3087lxlj7ptluqx9bvztb5iuvan0fr,3a4tn5196ovrpyhp93lfybs0oqwhch,9L87LgEW,2020-0188,2021-10-31,09:30:50,11:37:11,NA,incomplete,false,NA,NA,true,3,18,NA,NA,NA,right,m_s_103.jpg,red,white,NA,NA,NA,NA,NA,NA,NA,NA,NA,NaN,NA,1807,right,1,NA,NA,NA,NA,NA
9L87LgEW,3087lxlj7ptluqx9bvztb5iuvan0fr,3a4tn5196ovrpyhp93lfybs0oqwhch,9L87LgEW,2020-0188,2021-10-31,09:30:50,11:37:11,NA,incomplete,false,NA,NA,true,3,19,NA,NA,NA,left,m_s_007.jpg,brown,purple,NA,NA,NA,NA,NA,NA,NA,NA,NA,NaN,NA,2254.9000000059605,right,0,NA,NA,NA,NA,NA
9L87LgEW,3087lxlj7ptluqx9bvztb5iuvan0fr,3a4tn5196ovrpyhp93lfybs0oqwhch,9L87LgEW,2020-0188,2021-10-31,09:30:50,11:37:11,NA,incomplete,false,NA,NA,true,3,20,NA,NA,NA,right,n_s_106.jpg,white,purple,NA,NA,NA,NA,NA,NA,NA,NA,NA,NaN,NA,1103.5,right,1,NA,NA,NA,NA,NA
9L87LgEW,3087lxlj7ptluqx9bvztb5iuvan0fr,3a4tn5196ovrpyhp93lfybs0oqwhch,9L87LgEW,2020-0188,2021-10-31,09:30:50,11:37:11,NA,incomplete,false,NA,NA,true,3,21,NA,NA,NA,left,n_s_089.jpg,red,white,NA,NA,NA,NA,NA,NA,NA,NA,NA,NaN,NA,882.8000000119209,right,0,NA,NA,NA,NA,NA
9L87LgEW,3087lxlj7ptluqx9bvztb5iuvan0fr,3a4tn5196ovrpyhp93lfybs0oqwhch,9L87LgEW,2020-0188,2021-10-31,09:30:50,11:37:11,NA,incomplete,false,NA,true,NA,3,0,NA,NA,NA,right,NA,NA,NA,present,NA,NA,m_s_047.jpg,red,n_s_002.jpg,white,between,NA,NaN,NA,NA,NA,NA,right,2542.7999999821186,1,0,2183
9L87LgEW,3087lxlj7ptluqx9bvztb5iuvan0fr,3a4tn5196ovrpyhp93lfybs0oqwhch,9L87LgEW,2020-0188,2021-10-31,09:30:50,11:37:11,NA,incomplete,false,NA,true,NA,3,1,NA,NA,NA,right,NA,NA,NA,present,NA,NA,m_s_106.jpg,white,n_s_085.jpg,white,within,NA,NaN,NA,NA,NA,NA,right,1159.300000011921,1,1,1167.199999988079
9L87LgEW,3087lxlj7ptluqx9bvztb5iuvan0fr,3a4tn5196ovrpyhp93lfybs0oqwhch,9L87LgEW,2020-0188,2021-10-31,09:30:50,11:37:11,NA,incomplete,false,NA,true,NA,3,2,NA,NA,NA,left,NA,NA,NA,present,NA,NA,n_s_072.jpg,purple,m_s_103.jpg,white,between,NA,NaN,NA,NA,NA,NA,right,3303.0999999940395,0,0,1423.4000000059605
9L87LgEW,3087lxlj7ptluqx9bvztb5iuvan0fr,3a4tn5196ovrpyhp93lfybs0oqwhch,9L87LgEW,2020-0188,2021-10-31,09:30:50,11:37:11,NA,incomplete,false,NA,true,NA,3,3,NA,NA,NA,right,NA,NA,NA,present,NA,NA,m_l_016.jpg,brown,n_s_060.jpg,brown,within,NA,NaN,NA,NA,NA,NA,right,2087.199999988079,1,2,2486.9000000059605
9L87LgEW,3087lxlj7ptluqx9bvztb5iuvan0fr,3a4tn5196ovrpyhp93lfybs0oqwhch,9L87LgEW,2020-0188,2021-10-31,09:30:50,11:37:11,NA,incomplete,false,NA,true,NA,3,4,NA,NA,NA,right,NA,NA,NA,present,NA,NA,n_s_106.jpg,purple,m_s_007.jpg,brown,between,NA,NaN,NA,NA,NA,NA,right,2598.9000000059605,1,2,2046.9000000059605
9L87LgEW,3087lxlj7ptluqx9bvztb5iuvan0fr,3a4tn5196ovrpyhp93lfybs0oqwhch,9L87LgEW,2020-0188,2021-10-31,09:30:50,11:37:11,NA,incomplete,false,NA,true,NA,3,5,NA,NA,NA,right,NA,NA,NA,present,NA,NA,n_s_051.jpg,orange,m_l_086.jpg,orange,within,NA,NaN,NA,NA,NA,NA,right,1734.4000000059605,1,2,1854.7000000178814
9L87LgEW,3087lxlj7ptluqx9bvztb5iuvan0fr,3a4tn5196ovrpyhp93lfybs0oqwhch,9L87LgEW,2020-0188,2021-10-31,09:30:50,11:37:11,NA,incomplete,false,NA,true,NA,3,6,NA,NA,NA,right,NA,NA,NA,present,NA,NA,n_l_017.jpg,purple,m_s_008.jpg,purple,within,NA,NaN,NA,NA,NA,NA,left,1550.9000000059605,0,1,2431.5
9L87LgEW,3087lxlj7ptluqx9bvztb5iuvan0fr,3a4tn5196ovrpyhp93lfybs0oqwhch,9L87LgEW,2020-0188,2021-10-31,09:30:50,11:37:11,NA,incomplete,false,NA,true,NA,3,7,NA,NA,NA,left,NA,NA,NA,present,NA,NA,m_s_064.jpg,red,m_s_089.jpg,orange,between,NA,NaN,NA,NA,NA,NA,right,1559.0999999940395,0,2,1567.199999988079
9L87LgEW,3087lxlj7ptluqx9bvztb5iuvan0fr,3a4tn5196ovrpyhp93lfybs0oqwhch,9L87LgEW,2020-0188,2021-10-31,09:30:50,11:37:11,NA,incomplete,false,NA,true,NA,3,8,NA,NA,NA,left,NA,NA,NA,present,NA,NA,m_l_071.jpg,red,n_s_089.jpg,red,within,NA,NaN,NA,NA,NA,NA,right,1127.2999999821186,0,2,1375.0999999940395
9L87LgEW,3087lxlj7ptluqx9bvztb5iuvan0fr,3a4tn5196ovrpyhp93lfybs0oqwhch,9L87LgEW,2020-0188,2021-10-31,09:30:50,11:37:11,NA,incomplete,false,NA,true,NA,3,9,NA,NA,NA,right,NA,NA,NA,present,NA,NA,n_s_069.jpg,blue,n_s_071.jpg,blue,within,NA,NaN,NA,NA,NA,NA,right,1151.0999999940395,1,1,2646.9000000059605
9L87LgEW,3087lxlj7ptluqx9bvztb5iuvan0fr,3a4tn5196ovrpyhp93lfybs0oqwhch,9L87LgEW,2020-0188,2021-10-31,09:30:50,11:37:11,NA,incomplete,false,NA,true,NA,3,10,NA,NA,NA,left,NA,NA,NA,present,NA,NA,n_l_084.jpg,orange,n_s_032.jpg,blue,between,NA,NaN,NA,NA,NA,NA,right,1239.0999999940395,0,2,1567.0999999940395
9L87LgEW,3087lxlj7ptluqx9bvztb5iuvan0fr,3a4tn5196ovrpyhp93lfybs0oqwhch,9L87LgEW,2020-0188,2021-10-31,09:30:50,11:37:11,NA,incomplete,false,true,NA,NA,4,0,NA,green,m_l_035.jpg,NA,NA,NA,NA,NA,unpleasant,pleasant,NA,NA,NA,NA,NA,left,606.700000017881,true,NA,NA,NA,NA,NA,NA,NA,NA
9L87LgEW,3087lxlj7ptluqx9bvztb5iuvan0fr,3a4tn5196ovrpyhp93lfybs0oqwhch,9L87LgEW,2020-0188,2021-10-31,09:30:50,11:37:11,NA,incomplete,false,true,NA,NA,4,1,NA,green,n_s_064.jpg,NA,NA,NA,NA,NA,unpleasant,pleasant,NA,NA,NA,NA,NA,right,1569.80000001192,true,NA,NA,NA,NA,NA,NA,NA,NA
9L87LgEW,3087lxlj7ptluqx9bvztb5iuvan0fr,3a4tn5196ovrpyhp93lfybs0oqwhch,9L87LgEW,2020-0188,2021-10-31,09:30:50,11:37:11,NA,incomplete,false,true,NA,NA,4,2,NA,green,n_s_045.jpg,NA,NA,NA,NA,NA,pleasant,unpleasant,NA,NA,NA,NA,NA,left,912,true,NA,NA,NA,NA,NA,NA,NA,NA
9L87LgEW,3087lxlj7ptluqx9bvztb5iuvan0fr,3a4tn5196ovrpyhp93lfybs0oqwhch,9L87LgEW,2020-0188,2021-10-31,09:30:50,11:37:11,NA,incomplete,false,true,NA,NA,4,3,NA,green,n_s_059.jpg,NA,NA,NA,NA,NA,unpleasant,pleasant,NA,NA,NA,NA,NA,right,481,true,NA,NA,NA,NA,NA,NA,NA,NA
9L87LgEW,3087lxlj7ptluqx9bvztb5iuvan0fr,3a4tn5196ovrpyhp93lfybs0oqwhch,9L87LgEW,2020-0188,2021-10-31,09:30:50,11:37:11,NA,incomplete,false,true,NA,NA,4,4,NA,green,n_s_088.jpg,NA,NA,NA,NA,NA,pleasant,unpleasant,NA,NA,NA,NA,NA,right,442.699999988079,true,NA,NA,NA,NA,NA,NA,NA,NA
9L87LgEW,3087lxlj7ptluqx9bvztb5iuvan0fr,3a4tn5196ovrpyhp93lfybs0oqwhch,9L87LgEW,2020-0188,2021-10-31,09:30:50,11:37:11,NA,incomplete,false,true,NA,NA,4,5,NA,green,m_s_099.jpg,NA,NA,NA,NA,NA,unpleasant,pleasant,NA,NA,NA,NA,NA,right,375.399999976158,true,NA,NA,NA,NA,NA,NA,NA,NA
9L87LgEW,3087lxlj7ptluqx9bvztb5iuvan0fr,3a4tn5196ovrpyhp93lfybs0oqwhch,9L87LgEW,2020-0188,2021-10-31,09:30:50,11:37:11,NA,incomplete,false,true,NA,NA,4,6,NA,brown,n_l_074.jpg,NA,NA,NA,NA,NA,pleasant,unpleasant,NA,NA,NA,NA,NA,right,439.699999988079,true,NA,NA,NA,NA,NA,NA,NA,NA
9L87LgEW,3087lxlj7ptluqx9bvztb5iuvan0fr,3a4tn5196ovrpyhp93lfybs0oqwhch,9L87LgEW,2020-0188,2021-10-31,09:30:50,11:37:11,NA,incomplete,false,true,NA,NA,4,7,NA,brown,m_s_101.jpg,NA,NA,NA,NA,NA,unpleasant,pleasant,NA,NA,NA,NA,NA,right,767.799999982119,true,NA,NA,NA,NA,NA,NA,NA,NA
9L87LgEW,3087lxlj7ptluqx9bvztb5iuvan0fr,3a4tn5196ovrpyhp93lfybs0oqwhch,9L87LgEW,2020-0188,2021-10-31,09:30:50,11:37:11,NA,incomplete,false,true,NA,NA,4,8,NA,brown,n_l_025.jpg,NA,NA,NA,NA,NA,unpleasant,pleasant,NA,NA,NA,NA,NA,right,490.40000000596,true,NA,NA,NA,NA,NA,NA,NA,NA
9L87LgEW,3087lxlj7ptluqx9bvztb5iuvan0fr,3a4tn5196ovrpyhp93lfybs0oqwhch,9L87LgEW,2020-0188,2021-10-31,09:30:50,11:37:11,NA,incomplete,false,true,NA,NA,4,9,NA,brown,n_s_081.jpg,NA,NA,NA,NA,NA,pleasant,unpleasant,NA,NA,NA,NA,NA,right,284.300000011921,true,NA,NA,NA,NA,NA,NA,NA,NA
9L87LgEW,3087lxlj7ptluqx9bvztb5iuvan0fr,3a4tn5196ovrpyhp93lfybs0oqwhch,9L87LgEW,2020-0188,2021-10-31,09:30:50,11:37:11,NA,incomplete,false,true,NA,NA,4,10,NA,brown,m_s_040.jpg,NA,NA,NA,NA,NA,pleasant,unpleasant,NA,NA,NA,NA,NA,right,250.59999999404,true,NA,NA,NA,NA,NA,NA,NA,NA
9L87LgEW,3087lxlj7ptluqx9bvztb5iuvan0fr,3a4tn5196ovrpyhp93lfybs0oqwhch,9L87LgEW,2020-0188,2021-10-31,09:30:50,11:37:11,NA,incomplete,false,true,NA,NA,4,11,NA,brown,m_s_022.jpg,NA,NA,NA,NA,NA,pleasant,unpleasant,NA,NA,NA,NA,NA,right,329,true,NA,NA,NA,NA,NA,NA,NA,NA
9L87LgEW,3087lxlj7ptluqx9bvztb5iuvan0fr,3a4tn5196ovrpyhp93lfybs0oqwhch,9L87LgEW,2020-0188,2021-10-31,09:30:50,11:37:11,NA,incomplete,false,true,NA,NA,4,12,NA,black,m_s_005.jpg,NA,NA,NA,NA,NA,pleasant,unpleasant,NA,NA,NA,NA,NA,right,601.700000017881,true,NA,NA,NA,NA,NA,NA,NA,NA
9L87LgEW,3087lxlj7ptluqx9bvztb5iuvan0fr,3a4tn5196ovrpyhp93lfybs0oqwhch,9L87LgEW,2020-0188,2021-10-31,09:30:50,11:37:11,NA,incomplete,false,true,NA,NA,4,13,NA,black,m_s_083.jpg,NA,NA,NA,NA,NA,unpleasant,pleasant,NA,NA,NA,NA,NA,right,604.59999999404,true,NA,NA,NA,NA,NA,NA,NA,NA
9L87LgEW,3087lxlj7ptluqx9bvztb5iuvan0fr,3a4tn5196ovrpyhp93lfybs0oqwhch,9L87LgEW,2020-0188,2021-10-31,09:30:50,11:37:11,NA,incomplete,false,true,NA,NA,4,14,NA,black,m_l_005.jpg,NA,NA,NA,NA,NA,pleasant,unpleasant,NA,NA,NA,NA,NA,left,658.90000000596,true,NA,NA,NA,NA,NA,NA,NA,NA
9L87LgEW,3087lxlj7ptluqx9bvztb5iuvan0fr,3a4tn5196ovrpyhp93lfybs0oqwhch,9L87LgEW,2020-0188,2021-10-31,09:30:50,11:37:11,NA,incomplete,false,true,NA,NA,4,15,NA,black,m_l_043.jpg,NA,NA,NA,NA,NA,pleasant,unpleasant,NA,NA,NA,NA,NA,left,750.800000011921,true,NA,NA,NA,NA,NA,NA,NA,NA
9L87LgEW,3087lxlj7ptluqx9bvztb5iuvan0fr,3a4tn5196ovrpyhp93lfybs0oqwhch,9L87LgEW,2020-0188,2021-10-31,09:30:50,11:37:11,NA,incomplete,false,true,NA,NA,4,16,NA,black,m_l_078.jpg,NA,NA,NA,NA,NA,pleasant,unpleasant,NA,NA,NA,NA,NA,right,602.300000011921,true,NA,NA,NA,NA,NA,NA,NA,NA
9L87LgEW,3087lxlj7ptluqx9bvztb5iuvan0fr,3a4tn5196ovrpyhp93lfybs0oqwhch,9L87LgEW,2020-0188,2021-10-31,09:30:50,11:37:11,NA,incomplete,false,true,NA,NA,4,17,NA,black,m_l_077.jpg,NA,NA,NA,NA,NA,pleasant,unpleasant,NA,NA,NA,NA,NA,left,474.799999982119,true,NA,NA,NA,NA,NA,NA,NA,NA
9L87LgEW,3087lxlj7ptluqx9bvztb5iuvan0fr,3a4tn5196ovrpyhp93lfybs0oqwhch,9L87LgEW,2020-0188,2021-10-31,09:30:50,11:37:11,NA,incomplete,false,true,NA,NA,4,18,NA,blue,m_s_061.jpg,NA,NA,NA,NA,NA,unpleasant,pleasant,NA,NA,NA,NA,NA,right,456.90000000596,true,NA,NA,NA,NA,NA,NA,NA,NA
9L87LgEW,3087lxlj7ptluqx9bvztb5iuvan0fr,3a4tn5196ovrpyhp93lfybs0oqwhch,9L87LgEW,2020-0188,2021-10-31,09:30:50,11:37:11,NA,incomplete,false,true,NA,NA,4,19,NA,blue,n_l_080.jpg,NA,NA,NA,NA,NA,pleasant,unpleasant,NA,NA,NA,NA,NA,left,499.200000017881,true,NA,NA,NA,NA,NA,NA,NA,NA
9L87LgEW,3087lxlj7ptluqx9bvztb5iuvan0fr,3a4tn5196ovrpyhp93lfybs0oqwhch,9L87LgEW,2020-0188,2021-10-31,09:30:50,11:37:11,NA,incomplete,false,true,NA,NA,4,20,NA,blue,n_s_034.jpg,NA,NA,NA,NA,NA,unpleasant,pleasant,NA,NA,NA,NA,NA,left,387.59999999404,true,NA,NA,NA,NA,NA,NA,NA,NA
9L87LgEW,3087lxlj7ptluqx9bvztb5iuvan0fr,3a4tn5196ovrpyhp93lfybs0oqwhch,9L87LgEW,2020-0188,2021-10-31,09:30:50,11:37:11,NA,incomplete,false,true,NA,NA,4,21,NA,blue,m_l_041.jpg,NA,NA,NA,NA,NA,pleasant,unpleasant,NA,NA,NA,NA,NA,right,377.5,true,NA,NA,NA,NA,NA,NA,NA,NA
9L87LgEW,3087lxlj7ptluqx9bvztb5iuvan0fr,3a4tn5196ovrpyhp93lfybs0oqwhch,9L87LgEW,2020-0188,2021-10-31,09:30:50,11:37:11,NA,incomplete,false,true,NA,NA,4,22,NA,blue,n_l_060.jpg,NA,NA,NA,NA,NA,pleasant,unpleasant,NA,NA,NA,NA,NA,left,305.399999976158,true,NA,NA,NA,NA,NA,NA,NA,NA
9L87LgEW,3087lxlj7ptluqx9bvztb5iuvan0fr,3a4tn5196ovrpyhp93lfybs0oqwhch,9L87LgEW,2020-0188,2021-10-31,09:30:50,11:37:11,NA,incomplete,false,true,NA,NA,4,23,NA,blue,m_s_077.jpg,NA,NA,NA,NA,NA,unpleasant,pleasant,NA,NA,NA,NA,NA,left,399.600000023842,true,NA,NA,NA,NA,NA,NA,NA,NA
9L87LgEW,3087lxlj7ptluqx9bvztb5iuvan0fr,3a4tn5196ovrpyhp93lfybs0oqwhch,9L87LgEW,2020-0188,2021-10-31,09:30:50,11:37:11,NA,incomplete,false,true,NA,NA,4,24,NA,red,n_s_068.jpg,NA,NA,NA,NA,NA,unpleasant,pleasant,NA,NA,NA,NA,NA,right,306.300000011921,true,NA,NA,NA,NA,NA,NA,NA,NA
9L87LgEW,3087lxlj7ptluqx9bvztb5iuvan0fr,3a4tn5196ovrpyhp93lfybs0oqwhch,9L87LgEW,2020-0188,2021-10-31,09:30:50,11:37:11,NA,incomplete,false,true,NA,NA,4,25,NA,red,n_s_031.jpg,NA,NA,NA,NA,NA,pleasant,unpleasant,NA,NA,NA,NA,NA,right,467.5,true,NA,NA,NA,NA,NA,NA,NA,NA
9L87LgEW,3087lxlj7ptluqx9bvztb5iuvan0fr,3a4tn5196ovrpyhp93lfybs0oqwhch,9L87LgEW,2020-0188,2021-10-31,09:30:50,11:37:11,NA,incomplete,false,true,NA,NA,4,26,NA,red,m_l_032.jpg,NA,NA,NA,NA,NA,unpleasant,pleasant,NA,NA,NA,NA,NA,left,298.800000011921,true,NA,NA,NA,NA,NA,NA,NA,NA
9L87LgEW,3087lxlj7ptluqx9bvztb5iuvan0fr,3a4tn5196ovrpyhp93lfybs0oqwhch,9L87LgEW,2020-0188,2021-10-31,09:30:50,11:37:11,NA,incomplete,false,true,NA,NA,4,27,NA,red,n_l_014.jpg,NA,NA,NA,NA,NA,pleasant,unpleasant,NA,NA,NA,NA,NA,right,334.5,true,NA,NA,NA,NA,NA,NA,NA,NA
9L87LgEW,3087lxlj7ptluqx9bvztb5iuvan0fr,3a4tn5196ovrpyhp93lfybs0oqwhch,9L87LgEW,2020-0188,2021-10-31,09:30:50,11:37:11,NA,incomplete,false,true,NA,NA,4,28,NA,red,n_s_074.jpg,NA,NA,NA,NA,NA,pleasant,unpleasant,NA,NA,NA,NA,NA,right,828.90000000596,true,NA,NA,NA,NA,NA,NA,NA,NA
9L87LgEW,3087lxlj7ptluqx9bvztb5iuvan0fr,3a4tn5196ovrpyhp93lfybs0oqwhch,9L87LgEW,2020-0188,2021-10-31,09:30:50,11:37:11,NA,incomplete,false,true,NA,NA,4,29,NA,red,n_s_086.jpg,NA,NA,NA,NA,NA,pleasant,unpleasant,NA,NA,NA,NA,NA,left,745.5,true,NA,NA,NA,NA,NA,NA,NA,NA
9L87LgEW,3087lxlj7ptluqx9bvztb5iuvan0fr,3a4tn5196ovrpyhp93lfybs0oqwhch,9L87LgEW,2020-0188,2021-10-31,09:30:50,11:37:11,NA,incomplete,false,true,NA,NA,4,30,NA,purple,n_l_032.jpg,NA,NA,NA,NA,NA,unpleasant,pleasant,NA,NA,NA,NA,NA,left,630.799999982119,true,NA,NA,NA,NA,NA,NA,NA,NA
9L87LgEW,3087lxlj7ptluqx9bvztb5iuvan0fr,3a4tn5196ovrpyhp93lfybs0oqwhch,9L87LgEW,2020-0188,2021-10-31,09:30:50,11:37:11,NA,incomplete,false,true,NA,NA,4,31,NA,purple,m_s_084.jpg,NA,NA,NA,NA,NA,unpleasant,pleasant,NA,NA,NA,NA,NA,right,1181.5,true,NA,NA,NA,NA,NA,NA,NA,NA
9L87LgEW,3087lxlj7ptluqx9bvztb5iuvan0fr,3a4tn5196ovrpyhp93lfybs0oqwhch,9L87LgEW,2020-0188,2021-10-31,09:30:50,11:37:11,NA,incomplete,false,true,NA,NA,4,32,NA,purple,n_s_077.jpg,NA,NA,NA,NA,NA,unpleasant,pleasant,NA,NA,NA,NA,NA,right,526.199999988079,true,NA,NA,NA,NA,NA,NA,NA,NA
9L87LgEW,3087lxlj7ptluqx9bvztb5iuvan0fr,3a4tn5196ovrpyhp93lfybs0oqwhch,9L87LgEW,2020-0188,2021-10-31,09:30:50,11:37:11,NA,incomplete,false,true,NA,NA,4,33,NA,purple,m_l_046.jpg,NA,NA,NA,NA,NA,pleasant,unpleasant,NA,NA,NA,NA,NA,left,1181.40000000596,true,NA,NA,NA,NA,NA,NA,NA,NA
9L87LgEW,3087lxlj7ptluqx9bvztb5iuvan0fr,3a4tn5196ovrpyhp93lfybs0oqwhch,9L87LgEW,2020-0188,2021-10-31,09:30:50,11:37:11,NA,incomplete,false,true,NA,NA,4,34,NA,purple,n_l_019.jpg,NA,NA,NA,NA,NA,unpleasant,pleasant,NA,NA,NA,NA,NA,right,483.59999999404,true,NA,NA,NA,NA,NA,NA,NA,NA
9L87LgEW,3087lxlj7ptluqx9bvztb5iuvan0fr,3a4tn5196ovrpyhp93lfybs0oqwhch,9L87LgEW,2020-0188,2021-10-31,09:30:50,11:37:11,NA,incomplete,false,true,NA,NA,4,35,NA,purple,m_l_065.jpg,NA,NA,NA,NA,NA,pleasant,unpleasant,NA,NA,NA,NA,NA,left,565.699999988079,true,NA,NA,NA,NA,NA,NA,NA,NA
9L87LgEW,3087lxlj7ptluqx9bvztb5iuvan0fr,3a4tn5196ovrpyhp93lfybs0oqwhch,9L87LgEW,2020-0188,2021-10-31,09:30:50,11:37:11,NA,incomplete,false,NA,NA,true,4,0,NA,NA,NA,left,m_s_040.jpg,brown,black,NA,NA,NA,NA,NA,NA,NA,NA,NA,NaN,NA,3078.600000023842,left,1,NA,NA,NA,NA,NA
9L87LgEW,3087lxlj7ptluqx9bvztb5iuvan0fr,3a4tn5196ovrpyhp93lfybs0oqwhch,9L87LgEW,2020-0188,2021-10-31,09:30:50,11:37:11,NA,incomplete,false,NA,NA,true,4,1,NA,NA,NA,right,m_l_005.jpg,blue,black,NA,NA,NA,NA,NA,NA,NA,NA,NA,NaN,NA,2694.899999976158,left,0,NA,NA,NA,NA,NA
9L87LgEW,3087lxlj7ptluqx9bvztb5iuvan0fr,3a4tn5196ovrpyhp93lfybs0oqwhch,9L87LgEW,2020-0188,2021-10-31,09:30:50,11:37:11,NA,incomplete,false,NA,NA,true,4,2,NA,NA,NA,right,m_s_099.jpg,brown,green,NA,NA,NA,NA,NA,NA,NA,NA,NA,NaN,NA,3718.899999976158,left,0,NA,NA,NA,NA,NA
9L87LgEW,3087lxlj7ptluqx9bvztb5iuvan0fr,3a4tn5196ovrpyhp93lfybs0oqwhch,9L87LgEW,2020-0188,2021-10-31,09:30:50,11:37:11,NA,incomplete,false,NA,NA,true,4,3,NA,NA,NA,left,m_l_032.jpg,red,purple,NA,NA,NA,NA,NA,NA,NA,NA,NA,NaN,NA,5063.300000011921,left,1,NA,NA,NA,NA,NA
9L87LgEW,3087lxlj7ptluqx9bvztb5iuvan0fr,3a4tn5196ovrpyhp93lfybs0oqwhch,9L87LgEW,2020-0188,2021-10-31,09:30:50,11:37:11,NA,incomplete,false,NA,NA,true,4,4,NA,NA,NA,left,n_s_074.jpg,red,blue,NA,NA,NA,NA,NA,NA,NA,NA,NA,NaN,NA,9678.899999976158,right,0,NA,NA,NA,NA,NA
9L87LgEW,3087lxlj7ptluqx9bvztb5iuvan0fr,3a4tn5196ovrpyhp93lfybs0oqwhch,9L87LgEW,2020-0188,2021-10-31,09:30:50,11:37:11,NA,incomplete,false,NA,NA,true,4,5,NA,NA,NA,right,m_s_083.jpg,blue,black,NA,NA,NA,NA,NA,NA,NA,NA,NA,NaN,NA,3382.7999999821186,right,1,NA,NA,NA,NA,NA
9L87LgEW,3087lxlj7ptluqx9bvztb5iuvan0fr,3a4tn5196ovrpyhp93lfybs0oqwhch,9L87LgEW,2020-0188,2021-10-31,09:30:50,11:37:11,NA,incomplete,false,NA,NA,true,4,6,NA,NA,NA,left,n_l_060.jpg,blue,black,NA,NA,NA,NA,NA,NA,NA,NA,NA,NaN,NA,1358.8999999761581,right,0,NA,NA,NA,NA,NA
9L87LgEW,3087lxlj7ptluqx9bvztb5iuvan0fr,3a4tn5196ovrpyhp93lfybs0oqwhch,9L87LgEW,2020-0188,2021-10-31,09:30:50,11:37:11,NA,incomplete,false,NA,NA,true,4,7,NA,NA,NA,left,m_s_022.jpg,brown,black,NA,NA,NA,NA,NA,NA,NA,NA,NA,NaN,NA,1214.8999999761581,right,0,NA,NA,NA,NA,NA
9L87LgEW,3087lxlj7ptluqx9bvztb5iuvan0fr,3a4tn5196ovrpyhp93lfybs0oqwhch,9L87LgEW,2020-0188,2021-10-31,09:30:50,11:37:11,NA,incomplete,false,NA,NA,true,4,8,NA,NA,NA,right,n_s_086.jpg,purple,red,NA,NA,NA,NA,NA,NA,NA,NA,NA,NaN,NA,2063,left,0,NA,NA,NA,NA,NA
9L87LgEW,3087lxlj7ptluqx9bvztb5iuvan0fr,3a4tn5196ovrpyhp93lfybs0oqwhch,9L87LgEW,2020-0188,2021-10-31,09:30:50,11:37:11,NA,incomplete,false,NA,NA,true,4,9,NA,NA,NA,left,n_s_077.jpg,purple,red,NA,NA,NA,NA,NA,NA,NA,NA,NA,NaN,NA,1687.1000000238419,left,1,NA,NA,NA,NA,NA
9L87LgEW,3087lxlj7ptluqx9bvztb5iuvan0fr,3a4tn5196ovrpyhp93lfybs0oqwhch,9L87LgEW,2020-0188,2021-10-31,09:30:50,11:37:11,NA,incomplete,false,NA,NA,true,4,10,NA,NA,NA,left,m_s_077.jpg,blue,red,NA,NA,NA,NA,NA,NA,NA,NA,NA,NaN,NA,1278.8999999761581,left,1,NA,NA,NA,NA,NA
9L87LgEW,3087lxlj7ptluqx9bvztb5iuvan0fr,3a4tn5196ovrpyhp93lfybs0oqwhch,9L87LgEW,2020-0188,2021-10-31,09:30:50,11:37:11,NA,incomplete,false,NA,NA,true,4,11,NA,NA,NA,right,m_l_078.jpg,blue,black,NA,NA,NA,NA,NA,NA,NA,NA,NA,NaN,NA,1702.2000000178814,left,0,NA,NA,NA,NA,NA
9L87LgEW,3087lxlj7ptluqx9bvztb5iuvan0fr,3a4tn5196ovrpyhp93lfybs0oqwhch,9L87LgEW,2020-0188,2021-10-31,09:30:50,11:37:11,NA,incomplete,false,NA,NA,true,4,12,NA,NA,NA,right,n_l_080.jpg,red,blue,NA,NA,NA,NA,NA,NA,NA,NA,NA,NaN,NA,1287,left,0,NA,NA,NA,NA,NA
9L87LgEW,3087lxlj7ptluqx9bvztb5iuvan0fr,3a4tn5196ovrpyhp93lfybs0oqwhch,9L87LgEW,2020-0188,2021-10-31,09:30:50,11:37:11,NA,incomplete,false,NA,NA,true,4,13,NA,NA,NA,right,n_s_034.jpg,black,blue,NA,NA,NA,NA,NA,NA,NA,NA,NA,NaN,NA,1279,right,1,NA,NA,NA,NA,NA
9L87LgEW,3087lxlj7ptluqx9bvztb5iuvan0fr,3a4tn5196ovrpyhp93lfybs0oqwhch,9L87LgEW,2020-0188,2021-10-31,09:30:50,11:37:11,NA,incomplete,false,NA,NA,true,4,14,NA,NA,NA,right,n_s_088.jpg,brown,green,NA,NA,NA,NA,NA,NA,NA,NA,NA,NaN,NA,1119.0999999940395,right,1,NA,NA,NA,NA,NA
9L87LgEW,3087lxlj7ptluqx9bvztb5iuvan0fr,3a4tn5196ovrpyhp93lfybs0oqwhch,9L87LgEW,2020-0188,2021-10-31,09:30:50,11:37:11,NA,incomplete,false,NA,NA,true,4,15,NA,NA,NA,right,m_s_084.jpg,red,purple,NA,NA,NA,NA,NA,NA,NA,NA,NA,NaN,NA,1446.8999999761581,right,1,NA,NA,NA,NA,NA
9L87LgEW,3087lxlj7ptluqx9bvztb5iuvan0fr,3a4tn5196ovrpyhp93lfybs0oqwhch,9L87LgEW,2020-0188,2021-10-31,09:30:50,11:37:11,NA,incomplete,false,NA,NA,true,4,16,NA,NA,NA,left,m_s_101.jpg,brown,green,NA,NA,NA,NA,NA,NA,NA,NA,NA,NaN,NA,2750.899999976158,right,0,NA,NA,NA,NA,NA
9L87LgEW,3087lxlj7ptluqx9bvztb5iuvan0fr,3a4tn5196ovrpyhp93lfybs0oqwhch,9L87LgEW,2020-0188,2021-10-31,09:30:50,11:37:11,NA,incomplete,false,NA,NA,true,4,17,NA,NA,NA,right,m_l_065.jpg,red,purple,NA,NA,NA,NA,NA,NA,NA,NA,NA,NaN,NA,1143.7000000178814,right,1,NA,NA,NA,NA,NA
9L87LgEW,3087lxlj7ptluqx9bvztb5iuvan0fr,3a4tn5196ovrpyhp93lfybs0oqwhch,9L87LgEW,2020-0188,2021-10-31,09:30:50,11:37:11,NA,incomplete,false,NA,NA,true,4,18,NA,NA,NA,right,n_s_031.jpg,purple,red,NA,NA,NA,NA,NA,NA,NA,NA,NA,NaN,NA,894.9000000059605,right,1,NA,NA,NA,NA,NA
9L87LgEW,3087lxlj7ptluqx9bvztb5iuvan0fr,3a4tn5196ovrpyhp93lfybs0oqwhch,9L87LgEW,2020-0188,2021-10-31,09:30:50,11:37:11,NA,incomplete,false,NA,NA,true,4,19,NA,NA,NA,right,m_l_077.jpg,brown,black,NA,NA,NA,NA,NA,NA,NA,NA,NA,NaN,NA,983,right,1,NA,NA,NA,NA,NA
9L87LgEW,3087lxlj7ptluqx9bvztb5iuvan0fr,3a4tn5196ovrpyhp93lfybs0oqwhch,9L87LgEW,2020-0188,2021-10-31,09:30:50,11:37:11,NA,incomplete,false,NA,NA,true,4,20,NA,NA,NA,right,n_s_064.jpg,brown,green,NA,NA,NA,NA,NA,NA,NA,NA,NA,NaN,NA,943.1999999880791,right,1,NA,NA,NA,NA,NA
9L87LgEW,3087lxlj7ptluqx9bvztb5iuvan0fr,3a4tn5196ovrpyhp93lfybs0oqwhch,9L87LgEW,2020-0188,2021-10-31,09:30:50,11:37:11,NA,incomplete,false,NA,NA,true,4,21,NA,NA,NA,right,n_l_025.jpg,green,brown,NA,NA,NA,NA,NA,NA,NA,NA,NA,NaN,NA,959.1999999880791,right,1,NA,NA,NA,NA,NA
9L87LgEW,3087lxlj7ptluqx9bvztb5iuvan0fr,3a4tn5196ovrpyhp93lfybs0oqwhch,9L87LgEW,2020-0188,2021-10-31,09:30:50,11:37:11,NA,incomplete,false,NA,true,NA,4,0,NA,NA,NA,left,NA,NA,NA,present,NA,NA,m_s_040.jpg,brown,m_l_005.jpg,black,between,NA,NaN,NA,NA,NA,NA,left,3163.7000000178814,1,1,2247
9L87LgEW,3087lxlj7ptluqx9bvztb5iuvan0fr,3a4tn5196ovrpyhp93lfybs0oqwhch,9L87LgEW,2020-0188,2021-10-31,09:30:50,11:37:11,NA,incomplete,false,NA,true,NA,4,1,NA,NA,NA,right,NA,NA,NA,present,NA,NA,m_l_032.jpg,red,n_l_060.jpg,blue,between,NA,NaN,NA,NA,NA,NA,right,2503.2000000178814,1,3,1727
9L87LgEW,3087lxlj7ptluqx9bvztb5iuvan0fr,3a4tn5196ovrpyhp93lfybs0oqwhch,9L87LgEW,2020-0188,2021-10-31,09:30:50,11:37:11,NA,incomplete,false,NA,true,NA,4,2,NA,NA,NA,right,NA,NA,NA,present,NA,NA,n_l_025.jpg,brown,n_s_088.jpg,green,between,NA,NaN,NA,NA,NA,NA,left,1791.1000000238419,0,2,1519.1000000238419
9L87LgEW,3087lxlj7ptluqx9bvztb5iuvan0fr,3a4tn5196ovrpyhp93lfybs0oqwhch,9L87LgEW,2020-0188,2021-10-31,09:30:50,11:37:11,NA,incomplete,false,NA,true,NA,4,3,NA,NA,NA,right,NA,NA,NA,present,NA,NA,m_s_099.jpg,green,n_s_064.jpg,green,within,NA,NaN,NA,NA,NA,NA,left,2406.899999976158,0,1,2103
9L87LgEW,3087lxlj7ptluqx9bvztb5iuvan0fr,3a4tn5196ovrpyhp93lfybs0oqwhch,9L87LgEW,2020-0188,2021-10-31,09:30:50,11:37:11,NA,incomplete,false,NA,true,NA,4,4,NA,NA,NA,left,NA,NA,NA,present,NA,NA,n_s_074.jpg,red,n_s_077.jpg,purple,between,NA,NaN,NA,NA,NA,NA,left,1687,1,2,1437.3999999761581
9L87LgEW,3087lxlj7ptluqx9bvztb5iuvan0fr,3a4tn5196ovrpyhp93lfybs0oqwhch,9L87LgEW,2020-0188,2021-10-31,09:30:50,11:37:11,NA,incomplete,false,NA,true,NA,4,5,NA,NA,NA,right,NA,NA,NA,present,NA,NA,m_s_077.jpg,blue,n_l_080.jpg,blue,within,NA,NaN,NA,NA,NA,NA,left,1631.2000000178814,0,1,1919.1000000238419
9L87LgEW,3087lxlj7ptluqx9bvztb5iuvan0fr,3a4tn5196ovrpyhp93lfybs0oqwhch,9L87LgEW,2020-0188,2021-10-31,09:30:50,11:37:11,NA,incomplete,false,NA,true,NA,4,6,NA,NA,NA,left,NA,NA,NA,present,NA,NA,m_l_078.jpg,black,n_s_034.jpg,blue,between,NA,NaN,NA,NA,NA,NA,right,1182.2000000178814,0,1,1839
9L87LgEW,3087lxlj7ptluqx9bvztb5iuvan0fr,3a4tn5196ovrpyhp93lfybs0oqwhch,9L87LgEW,2020-0188,2021-10-31,09:30:50,11:37:11,NA,incomplete,false,NA,true,NA,4,7,NA,NA,NA,right,NA,NA,NA,present,NA,NA,n_s_086.jpg,red,n_s_031.jpg,red,within,NA,NaN,NA,NA,NA,NA,right,1327.1000000238419,1,1,1694.800000011921
9L87LgEW,3087lxlj7ptluqx9bvztb5iuvan0fr,3a4tn5196ovrpyhp93lfybs0oqwhch,9L87LgEW,2020-0188,2021-10-31,09:30:50,11:37:11,NA,incomplete,false,NA,true,NA,4,8,NA,NA,NA,right,NA,NA,NA,present,NA,NA,m_l_065.jpg,purple,m_s_084.jpg,purple,within,NA,NaN,NA,NA,NA,NA,left,1302.699999988079,0,1,1271
9L87LgEW,3087lxlj7ptluqx9bvztb5iuvan0fr,3a4tn5196ovrpyhp93lfybs0oqwhch,9L87LgEW,2020-0188,2021-10-31,09:30:50,11:37:11,NA,incomplete,false,NA,true,NA,4,9,NA,NA,NA,right,NA,NA,NA,present,NA,NA,m_l_077.jpg,black,m_s_083.jpg,black,within,NA,NaN,NA,NA,NA,NA,right,1294.9000000059605,1,2,1279.1000000238419
9L87LgEW,3087lxlj7ptluqx9bvztb5iuvan0fr,3a4tn5196ovrpyhp93lfybs0oqwhch,9L87LgEW,2020-0188,2021-10-31,09:30:50,11:37:11,NA,incomplete,false,NA,true,NA,4,10,NA,NA,NA,left,NA,NA,NA,present,NA,NA,m_s_101.jpg,brown,m_s_022.jpg,brown,within,NA,NaN,NA,NA,NA,NA,left,1703.1000000238419,1,2,1926.699999988079
9L87LgEW,3087lxlj7ptluqx9bvztb5iuvan0fr,3a4tn5196ovrpyhp93lfybs0oqwhch,9L87LgEW,2020-0188,2021-10-31,09:30:50,11:37:11,NA,incomplete,false,true,NA,NA,5,0,NA,green,n_s_112.jpg,NA,NA,NA,NA,NA,pleasant,unpleasant,NA,NA,NA,NA,NA,left,1485.90000000596,true,NA,NA,NA,NA,NA,NA,NA,NA
9L87LgEW,3087lxlj7ptluqx9bvztb5iuvan0fr,3a4tn5196ovrpyhp93lfybs0oqwhch,9L87LgEW,2020-0188,2021-10-31,09:30:50,11:37:11,NA,incomplete,false,true,NA,NA,5,1,NA,green,n_l_079.jpg,NA,NA,NA,NA,NA,pleasant,unpleasant,NA,NA,NA,NA,NA,right,371.40000000596,true,NA,NA,NA,NA,NA,NA,NA,NA
9L87LgEW,3087lxlj7ptluqx9bvztb5iuvan0fr,3a4tn5196ovrpyhp93lfybs0oqwhch,9L87LgEW,2020-0188,2021-10-31,09:30:50,11:37:11,NA,incomplete,false,true,NA,NA,5,2,NA,green,m_l_017.jpg,NA,NA,NA,NA,NA,pleasant,unpleasant,NA,NA,NA,NA,NA,left,103.09999999404,true,NA,NA,NA,NA,NA,NA,NA,NA
9L87LgEW,3087lxlj7ptluqx9bvztb5iuvan0fr,3a4tn5196ovrpyhp93lfybs0oqwhch,9L87LgEW,2020-0188,2021-10-31,09:30:50,11:37:11,NA,incomplete,false,true,NA,NA,5,3,NA,green,m_l_096.jpg,NA,NA,NA,NA,NA,unpleasant,pleasant,NA,NA,NA,NA,NA,right,407.199999988079,true,NA,NA,NA,NA,NA,NA,NA,NA
9L87LgEW,3087lxlj7ptluqx9bvztb5iuvan0fr,3a4tn5196ovrpyhp93lfybs0oqwhch,9L87LgEW,2020-0188,2021-10-31,09:30:50,11:37:11,NA,incomplete,false,true,NA,NA,5,4,NA,green,m_l_010.jpg,NA,NA,NA,NA,NA,unpleasant,pleasant,NA,NA,NA,NA,NA,left,417.5,true,NA,NA,NA,NA,NA,NA,NA,NA
9L87LgEW,3087lxlj7ptluqx9bvztb5iuvan0fr,3a4tn5196ovrpyhp93lfybs0oqwhch,9L87LgEW,2020-0188,2021-10-31,09:30:50,11:37:11,NA,incomplete,false,true,NA,NA,5,5,NA,green,n_s_100.jpg,NA,NA,NA,NA,NA,pleasant,unpleasant,NA,NA,NA,NA,NA,right,328.700000017881,true,NA,NA,NA,NA,NA,NA,NA,NA
9L87LgEW,3087lxlj7ptluqx9bvztb5iuvan0fr,3a4tn5196ovrpyhp93lfybs0oqwhch,9L87LgEW,2020-0188,2021-10-31,09:30:50,11:37:11,NA,incomplete,false,true,NA,NA,5,6,NA,yellow,m_l_075.jpg,NA,NA,NA,NA,NA,unpleasant,pleasant,NA,NA,NA,NA,NA,left,357.800000011921,true,NA,NA,NA,NA,NA,NA,NA,NA
9L87LgEW,3087lxlj7ptluqx9bvztb5iuvan0fr,3a4tn5196ovrpyhp93lfybs0oqwhch,9L87LgEW,2020-0188,2021-10-31,09:30:50,11:37:11,NA,incomplete,false,true,NA,NA,5,7,NA,yellow,n_s_017.jpg,NA,NA,NA,NA,NA,pleasant,unpleasant,NA,NA,NA,NA,NA,right,548.90000000596,true,NA,NA,NA,NA,NA,NA,NA,NA
9L87LgEW,3087lxlj7ptluqx9bvztb5iuvan0fr,3a4tn5196ovrpyhp93lfybs0oqwhch,9L87LgEW,2020-0188,2021-10-31,09:30:50,11:37:11,NA,incomplete,false,true,NA,NA,5,8,NA,yellow,m_s_036.jpg,NA,NA,NA,NA,NA,pleasant,unpleasant,NA,NA,NA,NA,NA,right,488.5,true,NA,NA,NA,NA,NA,NA,NA,NA
9L87LgEW,3087lxlj7ptluqx9bvztb5iuvan0fr,3a4tn5196ovrpyhp93lfybs0oqwhch,9L87LgEW,2020-0188,2021-10-31,09:30:50,11:37:11,NA,incomplete,false,true,NA,NA,5,9,NA,yellow,n_s_026.jpg,NA,NA,NA,NA,NA,pleasant,unpleasant,NA,NA,NA,NA,NA,right,479,true,NA,NA,NA,NA,NA,NA,NA,NA
9L87LgEW,3087lxlj7ptluqx9bvztb5iuvan0fr,3a4tn5196ovrpyhp93lfybs0oqwhch,9L87LgEW,2020-0188,2021-10-31,09:30:50,11:37:11,NA,incomplete,false,true,NA,NA,5,10,NA,yellow,m_s_002.jpg,NA,NA,NA,NA,NA,pleasant,unpleasant,NA,NA,NA,NA,NA,right,556.699999988079,true,NA,NA,NA,NA,NA,NA,NA,NA
9L87LgEW,3087lxlj7ptluqx9bvztb5iuvan0fr,3a4tn5196ovrpyhp93lfybs0oqwhch,9L87LgEW,2020-0188,2021-10-31,09:30:50,11:37:11,NA,incomplete,false,true,NA,NA,5,11,NA,yellow,m_l_067.jpg,NA,NA,NA,NA,NA,pleasant,unpleasant,NA,NA,NA,NA,NA,right,548.5,true,NA,NA,NA,NA,NA,NA,NA,NA
9L87LgEW,3087lxlj7ptluqx9bvztb5iuvan0fr,3a4tn5196ovrpyhp93lfybs0oqwhch,9L87LgEW,2020-0188,2021-10-31,09:30:50,11:37:11,NA,incomplete,false,true,NA,NA,5,12,NA,white,n_s_054.jpg,NA,NA,NA,NA,NA,pleasant,unpleasant,NA,NA,NA,NA,NA,left,434.700000017881,true,NA,NA,NA,NA,NA,NA,NA,NA
9L87LgEW,3087lxlj7ptluqx9bvztb5iuvan0fr,3a4tn5196ovrpyhp93lfybs0oqwhch,9L87LgEW,2020-0188,2021-10-31,09:30:50,11:37:11,NA,incomplete,false,true,NA,NA,5,13,NA,white,n_l_096.jpg,NA,NA,NA,NA,NA,pleasant,unpleasant,NA,NA,NA,NA,NA,right,526.40000000596,true,NA,NA,NA,NA,NA,NA,NA,NA
9L87LgEW,3087lxlj7ptluqx9bvztb5iuvan0fr,3a4tn5196ovrpyhp93lfybs0oqwhch,9L87LgEW,2020-0188,2021-10-31,09:30:50,11:37:11,NA,incomplete,false,true,NA,NA,5,14,NA,white,n_s_048.jpg,NA,NA,NA,NA,NA,pleasant,unpleasant,NA,NA,NA,NA,NA,left,150,true,NA,NA,NA,NA,NA,NA,NA,NA
9L87LgEW,3087lxlj7ptluqx9bvztb5iuvan0fr,3a4tn5196ovrpyhp93lfybs0oqwhch,9L87LgEW,2020-0188,2021-10-31,09:30:50,11:37:11,NA,incomplete,false,true,NA,NA,5,15,NA,white,m_l_039.jpg,NA,NA,NA,NA,NA,unpleasant,pleasant,NA,NA,NA,NA,NA,right,238.700000017881,true,NA,NA,NA,NA,NA,NA,NA,NA
9L87LgEW,3087lxlj7ptluqx9bvztb5iuvan0fr,3a4tn5196ovrpyhp93lfybs0oqwhch,9L87LgEW,2020-0188,2021-10-31,09:30:50,11:37:11,NA,incomplete,false,true,NA,NA,5,16,NA,white,n_l_091.jpg,NA,NA,NA,NA,NA,unpleasant,pleasant,NA,NA,NA,NA,NA,left,450.200000017881,true,NA,NA,NA,NA,NA,NA,NA,NA
