workerId,hitId,assignmentId,subject,studyid,exp_date,exp_start,exp_end,time_start,time_end,practice,encoding,memory,association,block,trial,event_order,event,stim,answer,object,left_context,right_context,context_type,label_left,label_right,left_image,left_event,right_image,right_event,condition,response,response_time,response_acc,association_response_time,association_response,association_acc,order_response,order_response_time,order_acc,distance_response,distance_response_time
yobtMzfj,3ac6mfv6anv2a7u5af0lkpxttwbhzq,3b1nlc6ug39wjrviu2p3xbf689spgy,yobtMzfj,2020-0188,2021-10-30,23:54:46,01:05:25,NA,incomplete,true,true,NA,NA,0,0,NA,brown,n_s_104.jpg,NA,NA,NA,NA,NA,pleasant,unpleasant,NA,NA,NA,NA,NA,right,912.200000047684,true,NA,NA,NA,NA,NA,NA,NA,NA
yobtMzfj,3ac6mfv6anv2a7u5af0lkpxttwbhzq,3b1nlc6ug39wjrviu2p3xbf689spgy,yobtMzfj,2020-0188,2021-10-30,23:54:46,01:05:25,NA,incomplete,true,true,NA,NA,0,1,NA,brown,n_s_088.jpg,NA,NA,NA,NA,NA,unpleasant,pleasant,NA,NA,NA,NA,NA,right,1505.20000004768,true,NA,NA,NA,NA,NA,NA,NA,NA
yobtMzfj,3ac6mfv6anv2a7u5af0lkpxttwbhzq,3b1nlc6ug39wjrviu2p3xbf689spgy,yobtMzfj,2020-0188,2021-10-30,23:54:46,01:05:25,NA,incomplete,true,true,NA,NA,0,2,NA,brown,m_l_005.jpg,NA,NA,NA,NA,NA,unpleasant,pleasant,NA,NA,NA,NA,NA,right,1307.90000009537,true,NA,NA,NA,NA,NA,NA,NA,NA
yobtMzfj,3ac6mfv6anv2a7u5af0lkpxttwbhzq,3b1nlc6ug39wjrviu2p3xbf689spgy,yobtMzfj,2020-0188,2021-10-30,23:54:46,01:05:25,NA,incomplete,true,true,NA,NA,0,3,NA,brown,m_s_111.jpg,NA,NA,NA,NA,NA,unpleasant,pleasant,NA,NA,NA,NA,NA,left,1101.90000009537,true,NA,NA,NA,NA,NA,NA,NA,NA
yobtMzfj,3ac6mfv6anv2a7u5af0lkpxttwbhzq,3b1nlc6ug39wjrviu2p3xbf689spgy,yobtMzfj,2020-0188,2021-10-30,23:54:46,01:05:25,NA,incomplete,true,true,NA,NA,0,4,NA,brown,m_s_027.jpg,NA,NA,NA,NA,NA,unpleasant,pleasant,NA,NA,NA,NA,NA,left,1292.89999985695,true,NA,NA,NA,NA,NA,NA,NA,NA
yobtMzfj,3ac6mfv6anv2a7u5af0lkpxttwbhzq,3b1nlc6ug39wjrviu2p3xbf689spgy,yobtMzfj,2020-0188,2021-10-30,23:54:46,01:05:25,NA,incomplete,true,true,NA,NA,0,5,NA,brown,n_s_001.jpg,NA,NA,NA,NA,NA,unpleasant,pleasant,NA,NA,NA,NA,NA,right,1070.20000004768,true,NA,NA,NA,NA,NA,NA,NA,NA
yobtMzfj,3ac6mfv6anv2a7u5af0lkpxttwbhzq,3b1nlc6ug39wjrviu2p3xbf689spgy,yobtMzfj,2020-0188,2021-10-30,23:54:46,01:05:25,NA,incomplete,true,true,NA,NA,0,6,NA,orange,n_s_007.jpg,NA,NA,NA,NA,NA,unpleasant,pleasant,NA,NA,NA,NA,NA,left,1081.90000009537,true,NA,NA,NA,NA,NA,NA,NA,NA
yobtMzfj,3ac6mfv6anv2a7u5af0lkpxttwbhzq,3b1nlc6ug39wjrviu2p3xbf689spgy,yobtMzfj,2020-0188,2021-10-30,23:54:46,01:05:25,NA,incomplete,true,true,NA,NA,0,7,NA,orange,m_s_088.jpg,NA,NA,NA,NA,NA,pleasant,unpleasant,NA,NA,NA,NA,NA,right,1444.90000009537,true,NA,NA,NA,NA,NA,NA,NA,NA
yobtMzfj,3ac6mfv6anv2a7u5af0lkpxttwbhzq,3b1nlc6ug39wjrviu2p3xbf689spgy,yobtMzfj,2020-0188,2021-10-30,23:54:46,01:05:25,NA,incomplete,true,true,NA,NA,0,8,NA,orange,m_s_067.jpg,NA,NA,NA,NA,NA,pleasant,unpleasant,NA,NA,NA,NA,NA,left,1220.59999990463,true,NA,NA,NA,NA,NA,NA,NA,NA
yobtMzfj,3ac6mfv6anv2a7u5af0lkpxttwbhzq,3b1nlc6ug39wjrviu2p3xbf689spgy,yobtMzfj,2020-0188,2021-10-30,23:54:46,01:05:25,NA,incomplete,true,true,NA,NA,0,9,NA,orange,n_l_107.jpg,NA,NA,NA,NA,NA,pleasant,unpleasant,NA,NA,NA,NA,NA,right,1389.5,true,NA,NA,NA,NA,NA,NA,NA,NA
yobtMzfj,3ac6mfv6anv2a7u5af0lkpxttwbhzq,3b1nlc6ug39wjrviu2p3xbf689spgy,yobtMzfj,2020-0188,2021-10-30,23:54:46,01:05:25,NA,incomplete,true,true,NA,NA,0,10,NA,orange,m_s_021.jpg,NA,NA,NA,NA,NA,pleasant,unpleasant,NA,NA,NA,NA,NA,right,1192.79999995232,true,NA,NA,NA,NA,NA,NA,NA,NA
yobtMzfj,3ac6mfv6anv2a7u5af0lkpxttwbhzq,3b1nlc6ug39wjrviu2p3xbf689spgy,yobtMzfj,2020-0188,2021-10-30,23:54:46,01:05:25,NA,incomplete,true,true,NA,NA,0,11,NA,orange,n_l_066.jpg,NA,NA,NA,NA,NA,unpleasant,pleasant,NA,NA,NA,NA,NA,right,1241.5,true,NA,NA,NA,NA,NA,NA,NA,NA
yobtMzfj,3ac6mfv6anv2a7u5af0lkpxttwbhzq,3b1nlc6ug39wjrviu2p3xbf689spgy,yobtMzfj,2020-0188,2021-10-30,23:54:46,01:05:25,NA,incomplete,true,true,NA,NA,0,12,NA,purple,m_l_094.jpg,NA,NA,NA,NA,NA,pleasant,unpleasant,NA,NA,NA,NA,NA,right,1081.70000004768,true,NA,NA,NA,NA,NA,NA,NA,NA
yobtMzfj,3ac6mfv6anv2a7u5af0lkpxttwbhzq,3b1nlc6ug39wjrviu2p3xbf689spgy,yobtMzfj,2020-0188,2021-10-30,23:54:46,01:05:25,NA,incomplete,true,true,NA,NA,0,13,NA,purple,m_l_086.jpg,NA,NA,NA,NA,NA,unpleasant,pleasant,NA,NA,NA,NA,NA,left,1948.5,true,NA,NA,NA,NA,NA,NA,NA,NA
yobtMzfj,3ac6mfv6anv2a7u5af0lkpxttwbhzq,3b1nlc6ug39wjrviu2p3xbf689spgy,yobtMzfj,2020-0188,2021-10-30,23:54:46,01:05:25,NA,incomplete,true,true,NA,NA,0,14,NA,purple,n_s_086.jpg,NA,NA,NA,NA,NA,pleasant,unpleasant,NA,NA,NA,NA,NA,right,1224,true,NA,NA,NA,NA,NA,NA,NA,NA
yobtMzfj,3ac6mfv6anv2a7u5af0lkpxttwbhzq,3b1nlc6ug39wjrviu2p3xbf689spgy,yobtMzfj,2020-0188,2021-10-30,23:54:46,01:05:25,NA,incomplete,true,true,NA,NA,0,15,NA,purple,n_l_030.jpg,NA,NA,NA,NA,NA,unpleasant,pleasant,NA,NA,NA,NA,NA,left,1770.59999990463,true,NA,NA,NA,NA,NA,NA,NA,NA
yobtMzfj,3ac6mfv6anv2a7u5af0lkpxttwbhzq,3b1nlc6ug39wjrviu2p3xbf689spgy,yobtMzfj,2020-0188,2021-10-30,23:54:46,01:05:25,NA,incomplete,true,true,NA,NA,0,16,NA,purple,m_s_109.jpg,NA,NA,NA,NA,NA,pleasant,unpleasant,NA,NA,NA,NA,NA,left,1246.90000009537,true,NA,NA,NA,NA,NA,NA,NA,NA
yobtMzfj,3ac6mfv6anv2a7u5af0lkpxttwbhzq,3b1nlc6ug39wjrviu2p3xbf689spgy,yobtMzfj,2020-0188,2021-10-30,23:54:46,01:05:25,NA,incomplete,true,true,NA,NA,0,17,NA,purple,m_l_049.jpg,NA,NA,NA,NA,NA,unpleasant,pleasant,NA,NA,NA,NA,NA,left,1503.90000009537,true,NA,NA,NA,NA,NA,NA,NA,NA
yobtMzfj,3ac6mfv6anv2a7u5af0lkpxttwbhzq,3b1nlc6ug39wjrviu2p3xbf689spgy,yobtMzfj,2020-0188,2021-10-30,23:54:46,01:05:25,NA,incomplete,true,true,NA,NA,0,18,NA,white,n_l_043.jpg,NA,NA,NA,NA,NA,pleasant,unpleasant,NA,NA,NA,NA,NA,left,1776,true,NA,NA,NA,NA,NA,NA,NA,NA
yobtMzfj,3ac6mfv6anv2a7u5af0lkpxttwbhzq,3b1nlc6ug39wjrviu2p3xbf689spgy,yobtMzfj,2020-0188,2021-10-30,23:54:46,01:05:25,NA,incomplete,true,true,NA,NA,0,19,NA,white,n_s_084.jpg,NA,NA,NA,NA,NA,unpleasant,pleasant,NA,NA,NA,NA,NA,left,1988.70000004768,true,NA,NA,NA,NA,NA,NA,NA,NA
yobtMzfj,3ac6mfv6anv2a7u5af0lkpxttwbhzq,3b1nlc6ug39wjrviu2p3xbf689spgy,yobtMzfj,2020-0188,2021-10-30,23:54:46,01:05:25,NA,incomplete,true,true,NA,NA,0,20,NA,white,m_s_061.jpg,NA,NA,NA,NA,NA,unpleasant,pleasant,NA,NA,NA,NA,NA,right,2405.29999995232,true,NA,NA,NA,NA,NA,NA,NA,NA
yobtMzfj,3ac6mfv6anv2a7u5af0lkpxttwbhzq,3b1nlc6ug39wjrviu2p3xbf689spgy,yobtMzfj,2020-0188,2021-10-30,23:54:46,01:05:25,NA,incomplete,true,true,NA,NA,0,21,NA,white,n_s_090.jpg,NA,NA,NA,NA,NA,unpleasant,pleasant,NA,NA,NA,NA,NA,left,1593.59999990463,true,NA,NA,NA,NA,NA,NA,NA,NA
yobtMzfj,3ac6mfv6anv2a7u5af0lkpxttwbhzq,3b1nlc6ug39wjrviu2p3xbf689spgy,yobtMzfj,2020-0188,2021-10-30,23:54:46,01:05:25,NA,incomplete,true,true,NA,NA,0,22,NA,white,n_s_081.jpg,NA,NA,NA,NA,NA,unpleasant,pleasant,NA,NA,NA,NA,NA,left,1301.09999990463,true,NA,NA,NA,NA,NA,NA,NA,NA
yobtMzfj,3ac6mfv6anv2a7u5af0lkpxttwbhzq,3b1nlc6ug39wjrviu2p3xbf689spgy,yobtMzfj,2020-0188,2021-10-30,23:54:46,01:05:25,NA,incomplete,true,true,NA,NA,0,23,NA,white,n_l_078.jpg,NA,NA,NA,NA,NA,unpleasant,pleasant,NA,NA,NA,NA,NA,right,1082.10000014305,true,NA,NA,NA,NA,NA,NA,NA,NA
yobtMzfj,3ac6mfv6anv2a7u5af0lkpxttwbhzq,3b1nlc6ug39wjrviu2p3xbf689spgy,yobtMzfj,2020-0188,2021-10-30,23:54:46,01:05:25,NA,incomplete,true,true,NA,NA,0,24,NA,blue,n_s_114.jpg,NA,NA,NA,NA,NA,pleasant,unpleasant,NA,NA,NA,NA,NA,right,1241.40000009537,true,NA,NA,NA,NA,NA,NA,NA,NA
yobtMzfj,3ac6mfv6anv2a7u5af0lkpxttwbhzq,3b1nlc6ug39wjrviu2p3xbf689spgy,yobtMzfj,2020-0188,2021-10-30,23:54:46,01:05:25,NA,incomplete,true,true,NA,NA,0,25,NA,blue,m_l_076.jpg,NA,NA,NA,NA,NA,pleasant,unpleasant,NA,NA,NA,NA,NA,right,1145.80000019073,true,NA,NA,NA,NA,NA,NA,NA,NA
yobtMzfj,3ac6mfv6anv2a7u5af0lkpxttwbhzq,3b1nlc6ug39wjrviu2p3xbf689spgy,yobtMzfj,2020-0188,2021-10-30,23:54:46,01:05:25,NA,incomplete,true,true,NA,NA,0,26,NA,blue,m_l_091.jpg,NA,NA,NA,NA,NA,unpleasant,pleasant,NA,NA,NA,NA,NA,right,1351,true,NA,NA,NA,NA,NA,NA,NA,NA
yobtMzfj,3ac6mfv6anv2a7u5af0lkpxttwbhzq,3b1nlc6ug39wjrviu2p3xbf689spgy,yobtMzfj,2020-0188,2021-10-30,23:54:46,01:05:25,NA,incomplete,true,true,NA,NA,0,27,NA,blue,n_l_116.jpg,NA,NA,NA,NA,NA,pleasant,unpleasant,NA,NA,NA,NA,NA,left,1897.20000004768,true,NA,NA,NA,NA,NA,NA,NA,NA
yobtMzfj,3ac6mfv6anv2a7u5af0lkpxttwbhzq,3b1nlc6ug39wjrviu2p3xbf689spgy,yobtMzfj,2020-0188,2021-10-30,23:54:46,01:05:25,NA,incomplete,true,true,NA,NA,0,28,NA,blue,m_s_047.jpg,NA,NA,NA,NA,NA,unpleasant,pleasant,NA,NA,NA,NA,NA,right,1169.29999995232,true,NA,NA,NA,NA,NA,NA,NA,NA
yobtMzfj,3ac6mfv6anv2a7u5af0lkpxttwbhzq,3b1nlc6ug39wjrviu2p3xbf689spgy,yobtMzfj,2020-0188,2021-10-30,23:54:46,01:05:25,NA,incomplete,true,true,NA,NA,0,29,NA,blue,m_l_018.jpg,NA,NA,NA,NA,NA,unpleasant,pleasant,NA,NA,NA,NA,NA,right,2748.90000009537,true,NA,NA,NA,NA,NA,NA,NA,NA
yobtMzfj,3ac6mfv6anv2a7u5af0lkpxttwbhzq,3b1nlc6ug39wjrviu2p3xbf689spgy,yobtMzfj,2020-0188,2021-10-30,23:54:46,01:05:25,NA,incomplete,true,true,NA,NA,0,30,NA,green,n_s_064.jpg,NA,NA,NA,NA,NA,pleasant,unpleasant,NA,NA,NA,NA,NA,right,1097.20000004768,true,NA,NA,NA,NA,NA,NA,NA,NA
yobtMzfj,3ac6mfv6anv2a7u5af0lkpxttwbhzq,3b1nlc6ug39wjrviu2p3xbf689spgy,yobtMzfj,2020-0188,2021-10-30,23:54:46,01:05:25,NA,incomplete,true,true,NA,NA,0,31,NA,green,m_l_039.jpg,NA,NA,NA,NA,NA,unpleasant,pleasant,NA,NA,NA,NA,NA,right,2137,true,NA,NA,NA,NA,NA,NA,NA,NA
yobtMzfj,3ac6mfv6anv2a7u5af0lkpxttwbhzq,3b1nlc6ug39wjrviu2p3xbf689spgy,yobtMzfj,2020-0188,2021-10-30,23:54:46,01:05:25,NA,incomplete,true,true,NA,NA,0,32,NA,green,m_l_089.jpg,NA,NA,NA,NA,NA,pleasant,unpleasant,NA,NA,NA,NA,NA,left,2626.20000004768,true,NA,NA,NA,NA,NA,NA,NA,NA
yobtMzfj,3ac6mfv6anv2a7u5af0lkpxttwbhzq,3b1nlc6ug39wjrviu2p3xbf689spgy,yobtMzfj,2020-0188,2021-10-30,23:54:46,01:05:25,NA,incomplete,true,true,NA,NA,0,33,NA,green,n_s_057.jpg,NA,NA,NA,NA,NA,pleasant,unpleasant,NA,NA,NA,NA,NA,right,1339.90000009537,true,NA,NA,NA,NA,NA,NA,NA,NA
yobtMzfj,3ac6mfv6anv2a7u5af0lkpxttwbhzq,3b1nlc6ug39wjrviu2p3xbf689spgy,yobtMzfj,2020-0188,2021-10-30,23:54:46,01:05:25,NA,incomplete,true,true,NA,NA,0,34,NA,green,n_l_008.jpg,NA,NA,NA,NA,NA,unpleasant,pleasant,NA,NA,NA,NA,NA,right,1487,true,NA,NA,NA,NA,NA,NA,NA,NA
yobtMzfj,3ac6mfv6anv2a7u5af0lkpxttwbhzq,3b1nlc6ug39wjrviu2p3xbf689spgy,yobtMzfj,2020-0188,2021-10-30,23:54:46,01:05:25,NA,incomplete,true,true,NA,NA,0,35,NA,green,m_l_020.jpg,NA,NA,NA,NA,NA,unpleasant,pleasant,NA,NA,NA,NA,NA,left,1499,true,NA,NA,NA,NA,NA,NA,NA,NA
yobtMzfj,3ac6mfv6anv2a7u5af0lkpxttwbhzq,3b1nlc6ug39wjrviu2p3xbf689spgy,yobtMzfj,2020-0188,2021-10-30,23:54:46,01:05:25,NA,incomplete,true,NA,NA,true,0,0,NA,NA,NA,right,n_s_086.jpg,orange,purple,NA,NA,NA,NA,NA,NA,NA,NA,NA,NaN,NA,5339.199999809265,right,1,NA,NA,NA,NA,NA
yobtMzfj,3ac6mfv6anv2a7u5af0lkpxttwbhzq,3b1nlc6ug39wjrviu2p3xbf689spgy,yobtMzfj,2020-0188,2021-10-30,23:54:46,01:05:25,NA,incomplete,true,NA,NA,true,0,1,NA,NA,NA,left,m_s_021.jpg,orange,brown,NA,NA,NA,NA,NA,NA,NA,NA,NA,NaN,NA,4787,left,1,NA,NA,NA,NA,NA
yobtMzfj,3ac6mfv6anv2a7u5af0lkpxttwbhzq,3b1nlc6ug39wjrviu2p3xbf689spgy,yobtMzfj,2020-0188,2021-10-30,23:54:46,01:05:25,NA,incomplete,true,NA,NA,true,0,2,NA,NA,NA,right,m_l_039.jpg,blue,green,NA,NA,NA,NA,NA,NA,NA,NA,NA,NaN,NA,3594.600000143051,right,1,NA,NA,NA,NA,NA
yobtMzfj,3ac6mfv6anv2a7u5af0lkpxttwbhzq,3b1nlc6ug39wjrviu2p3xbf689spgy,yobtMzfj,2020-0188,2021-10-30,23:54:46,01:05:25,NA,incomplete,true,NA,NA,true,0,3,NA,NA,NA,right,m_l_018.jpg,green,blue,NA,NA,NA,NA,NA,NA,NA,NA,NA,NaN,NA,2700.5999999046326,right,1,NA,NA,NA,NA,NA
yobtMzfj,3ac6mfv6anv2a7u5af0lkpxttwbhzq,3b1nlc6ug39wjrviu2p3xbf689spgy,yobtMzfj,2020-0188,2021-10-30,23:54:46,01:05:25,NA,incomplete,true,NA,NA,true,0,4,NA,NA,NA,right,m_s_088.jpg,brown,orange,NA,NA,NA,NA,NA,NA,NA,NA,NA,NaN,NA,2461.2999999523163,right,1,NA,NA,NA,NA,NA
yobtMzfj,3ac6mfv6anv2a7u5af0lkpxttwbhzq,3b1nlc6ug39wjrviu2p3xbf689spgy,yobtMzfj,2020-0188,2021-10-30,23:54:46,01:05:25,NA,incomplete,true,NA,NA,true,0,5,NA,NA,NA,right,m_s_109.jpg,orange,purple,NA,NA,NA,NA,NA,NA,NA,NA,NA,NaN,NA,2300.0999999046326,right,1,NA,NA,NA,NA,NA
yobtMzfj,3ac6mfv6anv2a7u5af0lkpxttwbhzq,3b1nlc6ug39wjrviu2p3xbf689spgy,yobtMzfj,2020-0188,2021-10-30,23:54:46,01:05:25,NA,incomplete,true,NA,NA,true,0,6,NA,NA,NA,right,m_s_027.jpg,orange,brown,NA,NA,NA,NA,NA,NA,NA,NA,NA,NaN,NA,2369.100000143051,right,1,NA,NA,NA,NA,NA
yobtMzfj,3ac6mfv6anv2a7u5af0lkpxttwbhzq,3b1nlc6ug39wjrviu2p3xbf689spgy,yobtMzfj,2020-0188,2021-10-30,23:54:46,01:05:25,NA,incomplete,true,NA,NA,true,0,7,NA,NA,NA,left,m_s_067.jpg,orange,purple,NA,NA,NA,NA,NA,NA,NA,NA,NA,NaN,NA,2079.9000000953674,left,1,NA,NA,NA,NA,NA
yobtMzfj,3ac6mfv6anv2a7u5af0lkpxttwbhzq,3b1nlc6ug39wjrviu2p3xbf689spgy,yobtMzfj,2020-0188,2021-10-30,23:54:46,01:05:25,NA,incomplete,true,NA,NA,true,0,8,NA,NA,NA,left,n_s_088.jpg,brown,orange,NA,NA,NA,NA,NA,NA,NA,NA,NA,NaN,NA,2089.7000000476837,left,1,NA,NA,NA,NA,NA
yobtMzfj,3ac6mfv6anv2a7u5af0lkpxttwbhzq,3b1nlc6ug39wjrviu2p3xbf689spgy,yobtMzfj,2020-0188,2021-10-30,23:54:46,01:05:25,NA,incomplete,true,NA,NA,true,0,9,NA,NA,NA,left,m_s_047.jpg,blue,white,NA,NA,NA,NA,NA,NA,NA,NA,NA,NaN,NA,1544.0999999046326,right,0,NA,NA,NA,NA,NA
yobtMzfj,3ac6mfv6anv2a7u5af0lkpxttwbhzq,3b1nlc6ug39wjrviu2p3xbf689spgy,yobtMzfj,2020-0188,2021-10-30,23:54:46,01:05:25,NA,incomplete,true,NA,NA,true,0,10,NA,NA,NA,right,n_s_001.jpg,orange,brown,NA,NA,NA,NA,NA,NA,NA,NA,NA,NaN,NA,1810.5,right,1,NA,NA,NA,NA,NA
yobtMzfj,3ac6mfv6anv2a7u5af0lkpxttwbhzq,3b1nlc6ug39wjrviu2p3xbf689spgy,yobtMzfj,2020-0188,2021-10-30,23:54:46,01:05:25,NA,incomplete,true,NA,NA,true,0,11,NA,NA,NA,right,m_l_076.jpg,green,blue,NA,NA,NA,NA,NA,NA,NA,NA,NA,NaN,NA,3053.2999999523163,left,0,NA,NA,NA,NA,NA
yobtMzfj,3ac6mfv6anv2a7u5af0lkpxttwbhzq,3b1nlc6ug39wjrviu2p3xbf689spgy,yobtMzfj,2020-0188,2021-10-30,23:54:46,01:05:25,NA,incomplete,true,NA,NA,true,0,12,NA,NA,NA,left,n_l_066.jpg,orange,purple,NA,NA,NA,NA,NA,NA,NA,NA,NA,NaN,NA,3315.899999856949,left,1,NA,NA,NA,NA,NA
yobtMzfj,3ac6mfv6anv2a7u5af0lkpxttwbhzq,3b1nlc6ug39wjrviu2p3xbf689spgy,yobtMzfj,2020-0188,2021-10-30,23:54:46,01:05:25,NA,incomplete,true,NA,NA,true,0,13,NA,NA,NA,right,m_l_049.jpg,orange,purple,NA,NA,NA,NA,NA,NA,NA,NA,NA,NaN,NA,1806,right,1,NA,NA,NA,NA,NA
yobtMzfj,3ac6mfv6anv2a7u5af0lkpxttwbhzq,3b1nlc6ug39wjrviu2p3xbf689spgy,yobtMzfj,2020-0188,2021-10-30,23:54:46,01:05:25,NA,incomplete,true,NA,NA,true,0,14,NA,NA,NA,left,m_l_091.jpg,blue,green,NA,NA,NA,NA,NA,NA,NA,NA,NA,NaN,NA,1910.9000000953674,right,0,NA,NA,NA,NA,NA
yobtMzfj,3ac6mfv6anv2a7u5af0lkpxttwbhzq,3b1nlc6ug39wjrviu2p3xbf689spgy,yobtMzfj,2020-0188,2021-10-30,23:54:46,01:05:25,NA,incomplete,true,NA,NA,true,0,15,NA,NA,NA,left,n_s_084.jpg,white,blue,NA,NA,NA,NA,NA,NA,NA,NA,NA,NaN,NA,1666.2000000476837,left,1,NA,NA,NA,NA,NA
yobtMzfj,3ac6mfv6anv2a7u5af0lkpxttwbhzq,3b1nlc6ug39wjrviu2p3xbf689spgy,yobtMzfj,2020-0188,2021-10-30,23:54:46,01:05:25,NA,incomplete,true,NA,NA,true,0,16,NA,NA,NA,left,n_l_078.jpg,white,purple,NA,NA,NA,NA,NA,NA,NA,NA,NA,NaN,NA,2041.5,left,1,NA,NA,NA,NA,NA
yobtMzfj,3ac6mfv6anv2a7u5af0lkpxttwbhzq,3b1nlc6ug39wjrviu2p3xbf689spgy,yobtMzfj,2020-0188,2021-10-30,23:54:46,01:05:25,NA,incomplete,true,NA,NA,true,0,17,NA,NA,NA,left,m_l_020.jpg,green,blue,NA,NA,NA,NA,NA,NA,NA,NA,NA,NaN,NA,2066.199999809265,left,1,NA,NA,NA,NA,NA
yobtMzfj,3ac6mfv6anv2a7u5af0lkpxttwbhzq,3b1nlc6ug39wjrviu2p3xbf689spgy,yobtMzfj,2020-0188,2021-10-30,23:54:46,01:05:25,NA,incomplete,true,NA,NA,true,0,18,NA,NA,NA,right,m_s_061.jpg,blue,white,NA,NA,NA,NA,NA,NA,NA,NA,NA,NaN,NA,1544.9000000953674,right,1,NA,NA,NA,NA,NA
yobtMzfj,3ac6mfv6anv2a7u5af0lkpxttwbhzq,3b1nlc6ug39wjrviu2p3xbf689spgy,yobtMzfj,2020-0188,2021-10-30,23:54:46,01:05:25,NA,incomplete,true,NA,NA,true,0,19,NA,NA,NA,right,m_l_086.jpg,orange,purple,NA,NA,NA,NA,NA,NA,NA,NA,NA,NaN,NA,1617.9000000953674,right,1,NA,NA,NA,NA,NA
yobtMzfj,3ac6mfv6anv2a7u5af0lkpxttwbhzq,3b1nlc6ug39wjrviu2p3xbf689spgy,yobtMzfj,2020-0188,2021-10-30,23:54:46,01:05:25,NA,incomplete,true,NA,NA,true,0,20,NA,NA,NA,right,m_l_089.jpg,blue,green,NA,NA,NA,NA,NA,NA,NA,NA,NA,NaN,NA,2093.5999999046326,left,0,NA,NA,NA,NA,NA
yobtMzfj,3ac6mfv6anv2a7u5af0lkpxttwbhzq,3b1nlc6ug39wjrviu2p3xbf689spgy,yobtMzfj,2020-0188,2021-10-30,23:54:46,01:05:25,NA,incomplete,true,NA,NA,true,0,21,NA,NA,NA,left,n_s_081.jpg,white,blue,NA,NA,NA,NA,NA,NA,NA,NA,NA,NaN,NA,3429.9000000953674,right,0,NA,NA,NA,NA,NA
yobtMzfj,3ac6mfv6anv2a7u5af0lkpxttwbhzq,3b1nlc6ug39wjrviu2p3xbf689spgy,yobtMzfj,2020-0188,2021-10-30,23:54:46,01:05:25,NA,incomplete,true,NA,true,NA,0,0,NA,NA,NA,left,NA,NA,NA,absent,NA,NA,n_s_084.jpg,white,n_l_078.jpg,white,within,NA,NaN,NA,NA,NA,NA,left,3596.7000000476837,1,1,3008.4000000953674
yobtMzfj,3ac6mfv6anv2a7u5af0lkpxttwbhzq,3b1nlc6ug39wjrviu2p3xbf689spgy,yobtMzfj,2020-0188,2021-10-30,23:54:46,01:05:25,NA,incomplete,true,NA,true,NA,0,1,NA,NA,NA,right,NA,NA,NA,absent,NA,NA,n_l_066.jpg,orange,m_s_088.jpg,orange,within,NA,NaN,NA,NA,NA,NA,right,3529.2999999523163,1,2,1654.8000001907349
yobtMzfj,3ac6mfv6anv2a7u5af0lkpxttwbhzq,3b1nlc6ug39wjrviu2p3xbf689spgy,yobtMzfj,2020-0188,2021-10-30,23:54:46,01:05:25,NA,incomplete,true,NA,true,NA,0,2,NA,NA,NA,left,NA,NA,NA,absent,NA,NA,m_s_109.jpg,purple,m_s_061.jpg,white,between,NA,NaN,NA,NA,NA,NA,right,2908.600000143051,0,2,1764.2999999523163
yobtMzfj,3ac6mfv6anv2a7u5af0lkpxttwbhzq,3b1nlc6ug39wjrviu2p3xbf689spgy,yobtMzfj,2020-0188,2021-10-30,23:54:46,01:05:25,NA,incomplete,true,NA,true,NA,0,3,NA,NA,NA,right,NA,NA,NA,absent,NA,NA,m_l_049.jpg,purple,m_l_086.jpg,purple,within,NA,NaN,NA,NA,NA,NA,right,3699.5,1,2,1477.9000000953674
yobtMzfj,3ac6mfv6anv2a7u5af0lkpxttwbhzq,3b1nlc6ug39wjrviu2p3xbf689spgy,yobtMzfj,2020-0188,2021-10-30,23:54:46,01:05:25,NA,incomplete,true,NA,true,NA,0,4,NA,NA,NA,right,NA,NA,NA,absent,NA,NA,m_l_018.jpg,blue,m_l_076.jpg,blue,within,NA,NaN,NA,NA,NA,NA,right,3811.7999999523163,1,3,1164
yobtMzfj,3ac6mfv6anv2a7u5af0lkpxttwbhzq,3b1nlc6ug39wjrviu2p3xbf689spgy,yobtMzfj,2020-0188,2021-10-30,23:54:46,01:05:25,NA,incomplete,true,NA,true,NA,0,5,NA,NA,NA,right,NA,NA,NA,absent,NA,NA,m_l_091.jpg,blue,n_s_081.jpg,white,between,NA,NaN,NA,NA,NA,NA,right,3302.5,1,2,1531.2999999523163
yobtMzfj,3ac6mfv6anv2a7u5af0lkpxttwbhzq,3b1nlc6ug39wjrviu2p3xbf689spgy,yobtMzfj,2020-0188,2021-10-30,23:54:46,01:05:25,NA,incomplete,true,NA,true,NA,0,6,NA,NA,NA,right,NA,NA,NA,absent,NA,NA,m_s_067.jpg,orange,m_s_027.jpg,brown,between,NA,NaN,NA,NA,NA,NA,right,5610.800000190735,1,3,2479.9000000953674
yobtMzfj,3ac6mfv6anv2a7u5af0lkpxttwbhzq,3b1nlc6ug39wjrviu2p3xbf689spgy,yobtMzfj,2020-0188,2021-10-30,23:54:46,01:05:25,NA,incomplete,true,NA,true,NA,0,7,NA,NA,NA,right,NA,NA,NA,absent,NA,NA,n_s_001.jpg,brown,n_s_088.jpg,brown,within,NA,NaN,NA,NA,NA,NA,right,1999.6999998092651,1,1,7806.300000190735
yobtMzfj,3ac6mfv6anv2a7u5af0lkpxttwbhzq,3b1nlc6ug39wjrviu2p3xbf689spgy,yobtMzfj,2020-0188,2021-10-30,23:54:46,01:05:25,NA,incomplete,true,NA,true,NA,0,8,NA,NA,NA,right,NA,NA,NA,absent,NA,NA,n_s_086.jpg,purple,m_s_021.jpg,orange,between,NA,NaN,NA,NA,NA,NA,left,3290.4000000953674,0,2,1865.5
yobtMzfj,3ac6mfv6anv2a7u5af0lkpxttwbhzq,3b1nlc6ug39wjrviu2p3xbf689spgy,yobtMzfj,2020-0188,2021-10-30,23:54:46,01:05:25,NA,incomplete,true,NA,true,NA,0,9,NA,NA,NA,left,NA,NA,NA,absent,NA,NA,m_s_047.jpg,blue,m_l_089.jpg,green,between,NA,NaN,NA,NA,NA,NA,left,4005.2000000476837,1,2,2995.2999999523163
yobtMzfj,3ac6mfv6anv2a7u5af0lkpxttwbhzq,3b1nlc6ug39wjrviu2p3xbf689spgy,yobtMzfj,2020-0188,2021-10-30,23:54:46,01:05:25,NA,incomplete,true,NA,true,NA,0,10,NA,NA,NA,left,NA,NA,NA,absent,NA,NA,m_l_039.jpg,green,m_l_020.jpg,green,within,NA,NaN,NA,NA,NA,NA,left,5511.200000047684,1,1,4004.0999999046326
yobtMzfj,3ac6mfv6anv2a7u5af0lkpxttwbhzq,3b1nlc6ug39wjrviu2p3xbf689spgy,yobtMzfj,2020-0188,2021-10-30,23:54:46,01:05:25,NA,incomplete,false,true,NA,NA,1,0,NA,red,m_s_065.jpg,NA,NA,NA,NA,NA,unpleasant,pleasant,NA,NA,NA,NA,NA,right,1094.20000004768,true,NA,NA,NA,NA,NA,NA,NA,NA
yobtMzfj,3ac6mfv6anv2a7u5af0lkpxttwbhzq,3b1nlc6ug39wjrviu2p3xbf689spgy,yobtMzfj,2020-0188,2021-10-30,23:54:46,01:05:25,NA,incomplete,false,true,NA,NA,1,1,NA,red,n_s_046.jpg,NA,NA,NA,NA,NA,unpleasant,pleasant,NA,NA,NA,NA,NA,left,1481.09999990463,true,NA,NA,NA,NA,NA,NA,NA,NA
yobtMzfj,3ac6mfv6anv2a7u5af0lkpxttwbhzq,3b1nlc6ug39wjrviu2p3xbf689spgy,yobtMzfj,2020-0188,2021-10-30,23:54:46,01:05:25,NA,incomplete,false,true,NA,NA,1,2,NA,red,n_l_001.jpg,NA,NA,NA,NA,NA,unpleasant,pleasant,NA,NA,NA,NA,NA,right,1166,true,NA,NA,NA,NA,NA,NA,NA,NA
yobtMzfj,3ac6mfv6anv2a7u5af0lkpxttwbhzq,3b1nlc6ug39wjrviu2p3xbf689spgy,yobtMzfj,2020-0188,2021-10-30,23:54:46,01:05:25,NA,incomplete,false,true,NA,NA,1,3,NA,red,m_l_093.jpg,NA,NA,NA,NA,NA,pleasant,unpleasant,NA,NA,NA,NA,NA,left,2421.20000004768,true,NA,NA,NA,NA,NA,NA,NA,NA
yobtMzfj,3ac6mfv6anv2a7u5af0lkpxttwbhzq,3b1nlc6ug39wjrviu2p3xbf689spgy,yobtMzfj,2020-0188,2021-10-30,23:54:46,01:05:25,NA,incomplete,false,true,NA,NA,1,4,NA,red,n_s_011.jpg,NA,NA,NA,NA,NA,pleasant,unpleasant,NA,NA,NA,NA,NA,left,1412.70000004768,true,NA,NA,NA,NA,NA,NA,NA,NA
yobtMzfj,3ac6mfv6anv2a7u5af0lkpxttwbhzq,3b1nlc6ug39wjrviu2p3xbf689spgy,yobtMzfj,2020-0188,2021-10-30,23:54:46,01:05:25,NA,incomplete,false,true,NA,NA,1,5,NA,red,m_s_019.jpg,NA,NA,NA,NA,NA,unpleasant,pleasant,NA,NA,NA,NA,NA,right,1714.90000009537,true,NA,NA,NA,NA,NA,NA,NA,NA
yobtMzfj,3ac6mfv6anv2a7u5af0lkpxttwbhzq,3b1nlc6ug39wjrviu2p3xbf689spgy,yobtMzfj,2020-0188,2021-10-30,23:54:46,01:05:25,NA,incomplete,false,true,NA,NA,1,6,NA,green,n_s_047.jpg,NA,NA,NA,NA,NA,unpleasant,pleasant,NA,NA,NA,NA,NA,left,1171.89999985695,true,NA,NA,NA,NA,NA,NA,NA,NA
yobtMzfj,3ac6mfv6anv2a7u5af0lkpxttwbhzq,3b1nlc6ug39wjrviu2p3xbf689spgy,yobtMzfj,2020-0188,2021-10-30,23:54:46,01:05:25,NA,incomplete,false,true,NA,NA,1,7,NA,green,m_s_020.jpg,NA,NA,NA,NA,NA,pleasant,unpleasant,NA,NA,NA,NA,NA,left,1262.70000004768,true,NA,NA,NA,NA,NA,NA,NA,NA
yobtMzfj,3ac6mfv6anv2a7u5af0lkpxttwbhzq,3b1nlc6ug39wjrviu2p3xbf689spgy,yobtMzfj,2020-0188,2021-10-30,23:54:46,01:05:25,NA,incomplete,false,true,NA,NA,1,8,NA,green,m_l_061.jpg,NA,NA,NA,NA,NA,unpleasant,pleasant,NA,NA,NA,NA,NA,right,1187.60000014305,true,NA,NA,NA,NA,NA,NA,NA,NA
yobtMzfj,3ac6mfv6anv2a7u5af0lkpxttwbhzq,3b1nlc6ug39wjrviu2p3xbf689spgy,yobtMzfj,2020-0188,2021-10-30,23:54:46,01:05:25,NA,incomplete,false,true,NA,NA,1,9,NA,green,n_l_019.jpg,NA,NA,NA,NA,NA,unpleasant,pleasant,NA,NA,NA,NA,NA,right,1087,true,NA,NA,NA,NA,NA,NA,NA,NA
yobtMzfj,3ac6mfv6anv2a7u5af0lkpxttwbhzq,3b1nlc6ug39wjrviu2p3xbf689spgy,yobtMzfj,2020-0188,2021-10-30,23:54:46,01:05:25,NA,incomplete,false,true,NA,NA,1,10,NA,green,m_l_108.jpg,NA,NA,NA,NA,NA,unpleasant,pleasant,NA,NA,NA,NA,NA,right,1289.90000009537,true,NA,NA,NA,NA,NA,NA,NA,NA
yobtMzfj,3ac6mfv6anv2a7u5af0lkpxttwbhzq,3b1nlc6ug39wjrviu2p3xbf689spgy,yobtMzfj,2020-0188,2021-10-30,23:54:46,01:05:25,NA,incomplete,false,true,NA,NA,1,11,NA,green,m_s_055.jpg,NA,NA,NA,NA,NA,unpleasant,pleasant,NA,NA,NA,NA,NA,right,1989.30000019073,true,NA,NA,NA,NA,NA,NA,NA,NA
yobtMzfj,3ac6mfv6anv2a7u5af0lkpxttwbhzq,3b1nlc6ug39wjrviu2p3xbf689spgy,yobtMzfj,2020-0188,2021-10-30,23:54:46,01:05:25,NA,incomplete,false,true,NA,NA,1,12,NA,gray,m_s_100.jpg,NA,NA,NA,NA,NA,pleasant,unpleasant,NA,NA,NA,NA,NA,left,1636,true,NA,NA,NA,NA,NA,NA,NA,NA
yobtMzfj,3ac6mfv6anv2a7u5af0lkpxttwbhzq,3b1nlc6ug39wjrviu2p3xbf689spgy,yobtMzfj,2020-0188,2021-10-30,23:54:46,01:05:25,NA,incomplete,false,true,NA,NA,1,13,NA,gray,n_s_033.jpg,NA,NA,NA,NA,NA,pleasant,unpleasant,NA,NA,NA,NA,NA,left,2229.79999995232,true,NA,NA,NA,NA,NA,NA,NA,NA
yobtMzfj,3ac6mfv6anv2a7u5af0lkpxttwbhzq,3b1nlc6ug39wjrviu2p3xbf689spgy,yobtMzfj,2020-0188,2021-10-30,23:54:46,01:05:25,NA,incomplete,false,true,NA,NA,1,14,NA,gray,m_l_014.jpg,NA,NA,NA,NA,NA,unpleasant,pleasant,NA,NA,NA,NA,NA,right,3035.5,true,NA,NA,NA,NA,NA,NA,NA,NA
yobtMzfj,3ac6mfv6anv2a7u5af0lkpxttwbhzq,3b1nlc6ug39wjrviu2p3xbf689spgy,yobtMzfj,2020-0188,2021-10-30,23:54:46,01:05:25,NA,incomplete,false,true,NA,NA,1,15,NA,gray,n_s_065.jpg,NA,NA,NA,NA,NA,pleasant,unpleasant,NA,NA,NA,NA,NA,right,1319.29999995232,true,NA,NA,NA,NA,NA,NA,NA,NA
yobtMzfj,3ac6mfv6anv2a7u5af0lkpxttwbhzq,3b1nlc6ug39wjrviu2p3xbf689spgy,yobtMzfj,2020-0188,2021-10-30,23:54:46,01:05:25,NA,incomplete,false,true,NA,NA,1,16,NA,gray,n_s_092.jpg,NA,NA,NA,NA,NA,pleasant,unpleasant,NA,NA,NA,NA,NA,left,1225.5,true,NA,NA,NA,NA,NA,NA,NA,NA
yobtMzfj,3ac6mfv6anv2a7u5af0lkpxttwbhzq,3b1nlc6ug39wjrviu2p3xbf689spgy,yobtMzfj,2020-0188,2021-10-30,23:54:46,01:05:25,NA,incomplete,false,true,NA,NA,1,17,NA,gray,m_l_087.jpg,NA,NA,NA,NA,NA,unpleasant,pleasant,NA,NA,NA,NA,NA,right,1465.10000014305,true,NA,NA,NA,NA,NA,NA,NA,NA
yobtMzfj,3ac6mfv6anv2a7u5af0lkpxttwbhzq,3b1nlc6ug39wjrviu2p3xbf689spgy,yobtMzfj,2020-0188,2021-10-30,23:54:46,01:05:25,NA,incomplete,false,true,NA,NA,1,18,NA,black,m_s_012.jpg,NA,NA,NA,NA,NA,pleasant,unpleasant,NA,NA,NA,NA,NA,left,1800.29999995232,true,NA,NA,NA,NA,NA,NA,NA,NA
yobtMzfj,3ac6mfv6anv2a7u5af0lkpxttwbhzq,3b1nlc6ug39wjrviu2p3xbf689spgy,yobtMzfj,2020-0188,2021-10-30,23:54:46,01:05:25,NA,incomplete,false,true,NA,NA,1,19,NA,black,m_s_015.jpg,NA,NA,NA,NA,NA,unpleasant,pleasant,NA,NA,NA,NA,NA,right,1832.5,true,NA,NA,NA,NA,NA,NA,NA,NA
yobtMzfj,3ac6mfv6anv2a7u5af0lkpxttwbhzq,3b1nlc6ug39wjrviu2p3xbf689spgy,yobtMzfj,2020-0188,2021-10-30,23:54:46,01:05:25,NA,incomplete,false,true,NA,NA,1,20,NA,black,m_l_016.jpg,NA,NA,NA,NA,NA,unpleasant,pleasant,NA,NA,NA,NA,NA,right,1414.60000014305,true,NA,NA,NA,NA,NA,NA,NA,NA
yobtMzfj,3ac6mfv6anv2a7u5af0lkpxttwbhzq,3b1nlc6ug39wjrviu2p3xbf689spgy,yobtMzfj,2020-0188,2021-10-30,23:54:46,01:05:25,NA,incomplete,false,true,NA,NA,1,21,NA,black,n_l_087.jpg,NA,NA,NA,NA,NA,unpleasant,pleasant,NA,NA,NA,NA,NA,right,1214.5,true,NA,NA,NA,NA,NA,NA,NA,NA
yobtMzfj,3ac6mfv6anv2a7u5af0lkpxttwbhzq,3b1nlc6ug39wjrviu2p3xbf689spgy,yobtMzfj,2020-0188,2021-10-30,23:54:46,01:05:25,NA,incomplete,false,true,NA,NA,1,22,NA,black,m_s_085.jpg,NA,NA,NA,NA,NA,unpleasant,pleasant,NA,NA,NA,NA,NA,left,1622.20000004768,true,NA,NA,NA,NA,NA,NA,NA,NA
yobtMzfj,3ac6mfv6anv2a7u5af0lkpxttwbhzq,3b1nlc6ug39wjrviu2p3xbf689spgy,yobtMzfj,2020-0188,2021-10-30,23:54:46,01:05:25,NA,incomplete,false,true,NA,NA,1,23,NA,black,m_s_104.jpg,NA,NA,NA,NA,NA,unpleasant,pleasant,NA,NA,NA,NA,NA,right,1201.40000009537,true,NA,NA,NA,NA,NA,NA,NA,NA
yobtMzfj,3ac6mfv6anv2a7u5af0lkpxttwbhzq,3b1nlc6ug39wjrviu2p3xbf689spgy,yobtMzfj,2020-0188,2021-10-30,23:54:46,01:05:25,NA,incomplete,false,true,NA,NA,1,24,NA,purple,n_l_113.jpg,NA,NA,NA,NA,NA,pleasant,unpleasant,NA,NA,NA,NA,NA,left,1639.30000019073,true,NA,NA,NA,NA,NA,NA,NA,NA
yobtMzfj,3ac6mfv6anv2a7u5af0lkpxttwbhzq,3b1nlc6ug39wjrviu2p3xbf689spgy,yobtMzfj,2020-0188,2021-10-30,23:54:46,01:05:25,NA,incomplete,false,true,NA,NA,1,25,NA,purple,n_l_080.jpg,NA,NA,NA,NA,NA,unpleasant,pleasant,NA,NA,NA,NA,NA,left,1540.39999985695,true,NA,NA,NA,NA,NA,NA,NA,NA
yobtMzfj,3ac6mfv6anv2a7u5af0lkpxttwbhzq,3b1nlc6ug39wjrviu2p3xbf689spgy,yobtMzfj,2020-0188,2021-10-30,23:54:46,01:05:25,NA,incomplete,false,true,NA,NA,1,26,NA,purple,m_s_080.jpg,NA,NA,NA,NA,NA,pleasant,unpleasant,NA,NA,NA,NA,NA,left,1203.59999990463,true,NA,NA,NA,NA,NA,NA,NA,NA
yobtMzfj,3ac6mfv6anv2a7u5af0lkpxttwbhzq,3b1nlc6ug39wjrviu2p3xbf689spgy,yobtMzfj,2020-0188,2021-10-30,23:54:46,01:05:25,NA,incomplete,false,true,NA,NA,1,27,NA,purple,m_l_015.jpg,NA,NA,NA,NA,NA,pleasant,unpleasant,NA,NA,NA,NA,NA,left,1870.20000004768,true,NA,NA,NA,NA,NA,NA,NA,NA
yobtMzfj,3ac6mfv6anv2a7u5af0lkpxttwbhzq,3b1nlc6ug39wjrviu2p3xbf689spgy,yobtMzfj,2020-0188,2021-10-30,23:54:46,01:05:25,NA,incomplete,false,true,NA,NA,1,28,NA,purple,n_l_035.jpg,NA,NA,NA,NA,NA,pleasant,unpleasant,NA,NA,NA,NA,NA,left,1733,true,NA,NA,NA,NA,NA,NA,NA,NA
yobtMzfj,3ac6mfv6anv2a7u5af0lkpxttwbhzq,3b1nlc6ug39wjrviu2p3xbf689spgy,yobtMzfj,2020-0188,2021-10-30,23:54:46,01:05:25,NA,incomplete,false,true,NA,NA,1,29,NA,purple,m_s_043.jpg,NA,NA,NA,NA,NA,unpleasant,pleasant,NA,NA,NA,NA,NA,left,2647.90000009537,true,NA,NA,NA,NA,NA,NA,NA,NA
yobtMzfj,3ac6mfv6anv2a7u5af0lkpxttwbhzq,3b1nlc6ug39wjrviu2p3xbf689spgy,yobtMzfj,2020-0188,2021-10-30,23:54:46,01:05:25,NA,incomplete,false,true,NA,NA,1,30,NA,yellow,n_l_097.jpg,NA,NA,NA,NA,NA,pleasant,unpleasant,NA,NA,NA,NA,NA,left,2226.90000009537,true,NA,NA,NA,NA,NA,NA,NA,NA
yobtMzfj,3ac6mfv6anv2a7u5af0lkpxttwbhzq,3b1nlc6ug39wjrviu2p3xbf689spgy,yobtMzfj,2020-0188,2021-10-30,23:54:46,01:05:25,NA,incomplete,false,true,NA,NA,1,31,NA,yellow,m_s_073.jpg,NA,NA,NA,NA,NA,unpleasant,pleasant,NA,NA,NA,NA,NA,right,1319.59999990463,true,NA,NA,NA,NA,NA,NA,NA,NA
yobtMzfj,3ac6mfv6anv2a7u5af0lkpxttwbhzq,3b1nlc6ug39wjrviu2p3xbf689spgy,yobtMzfj,2020-0188,2021-10-30,23:54:46,01:05:25,NA,incomplete,false,true,NA,NA,1,32,NA,yellow,m_s_039.jpg,NA,NA,NA,NA,NA,unpleasant,pleasant,NA,NA,NA,NA,NA,right,1640.10000014305,true,NA,NA,NA,NA,NA,NA,NA,NA
yobtMzfj,3ac6mfv6anv2a7u5af0lkpxttwbhzq,3b1nlc6ug39wjrviu2p3xbf689spgy,yobtMzfj,2020-0188,2021-10-30,23:54:46,01:05:25,NA,incomplete,false,true,NA,NA,1,33,NA,yellow,m_s_098.jpg,NA,NA,NA,NA,NA,unpleasant,pleasant,NA,NA,NA,NA,NA,right,1546,true,NA,NA,NA,NA,NA,NA,NA,NA
yobtMzfj,3ac6mfv6anv2a7u5af0lkpxttwbhzq,3b1nlc6ug39wjrviu2p3xbf689spgy,yobtMzfj,2020-0188,2021-10-30,23:54:46,01:05:25,NA,incomplete,false,true,NA,NA,1,34,NA,yellow,n_l_020.jpg,NA,NA,NA,NA,NA,pleasant,unpleasant,NA,NA,NA,NA,NA,left,1579.79999995232,true,NA,NA,NA,NA,NA,NA,NA,NA
yobtMzfj,3ac6mfv6anv2a7u5af0lkpxttwbhzq,3b1nlc6ug39wjrviu2p3xbf689spgy,yobtMzfj,2020-0188,2021-10-30,23:54:46,01:05:25,NA,incomplete,false,true,NA,NA,1,35,NA,yellow,n_s_026.jpg,NA,NA,NA,NA,NA,unpleasant,pleasant,NA,NA,NA,NA,NA,left,1453.70000004768,true,NA,NA,NA,NA,NA,NA,NA,NA
yobtMzfj,3ac6mfv6anv2a7u5af0lkpxttwbhzq,3b1nlc6ug39wjrviu2p3xbf689spgy,yobtMzfj,2020-0188,2021-10-30,23:54:46,01:05:25,NA,incomplete,false,NA,NA,true,1,0,NA,NA,NA,left,m_s_055.jpg,green,gray,NA,NA,NA,NA,NA,NA,NA,NA,NA,NaN,NA,2681.4000000953674,right,0,NA,NA,NA,NA,NA
yobtMzfj,3ac6mfv6anv2a7u5af0lkpxttwbhzq,3b1nlc6ug39wjrviu2p3xbf689spgy,yobtMzfj,2020-0188,2021-10-30,23:54:46,01:05:25,NA,incomplete,false,NA,NA,true,1,1,NA,NA,NA,left,m_l_087.jpg,gray,green,NA,NA,NA,NA,NA,NA,NA,NA,NA,NaN,NA,1908.7999999523163,left,1,NA,NA,NA,NA,NA
yobtMzfj,3ac6mfv6anv2a7u5af0lkpxttwbhzq,3b1nlc6ug39wjrviu2p3xbf689spgy,yobtMzfj,2020-0188,2021-10-30,23:54:46,01:05:25,NA,incomplete,false,NA,NA,true,1,2,NA,NA,NA,right,m_s_015.jpg,purple,black,NA,NA,NA,NA,NA,NA,NA,NA,NA,NaN,NA,1732.0999999046326,right,1,NA,NA,NA,NA,NA
yobtMzfj,3ac6mfv6anv2a7u5af0lkpxttwbhzq,3b1nlc6ug39wjrviu2p3xbf689spgy,yobtMzfj,2020-0188,2021-10-30,23:54:46,01:05:25,NA,incomplete,false,NA,NA,true,1,3,NA,NA,NA,left,m_s_080.jpg,purple,black,NA,NA,NA,NA,NA,NA,NA,NA,NA,NaN,NA,1748.7999999523163,left,1,NA,NA,NA,NA,NA
yobtMzfj,3ac6mfv6anv2a7u5af0lkpxttwbhzq,3b1nlc6ug39wjrviu2p3xbf689spgy,yobtMzfj,2020-0188,2021-10-30,23:54:46,01:05:25,NA,incomplete,false,NA,NA,true,1,4,NA,NA,NA,right,m_l_016.jpg,gray,black,NA,NA,NA,NA,NA,NA,NA,NA,NA,NaN,NA,1644,right,1,NA,NA,NA,NA,NA
yobtMzfj,3ac6mfv6anv2a7u5af0lkpxttwbhzq,3b1nlc6ug39wjrviu2p3xbf689spgy,yobtMzfj,2020-0188,2021-10-30,23:54:46,01:05:25,NA,incomplete,false,NA,NA,true,1,5,NA,NA,NA,left,m_s_085.jpg,black,purple,NA,NA,NA,NA,NA,NA,NA,NA,NA,NaN,NA,1769.8999998569489,left,1,NA,NA,NA,NA,NA
yobtMzfj,3ac6mfv6anv2a7u5af0lkpxttwbhzq,3b1nlc6ug39wjrviu2p3xbf689spgy,yobtMzfj,2020-0188,2021-10-30,23:54:46,01:05:25,NA,incomplete,false,NA,NA,true,1,6,NA,NA,NA,right,m_s_019.jpg,green,red,NA,NA,NA,NA,NA,NA,NA,NA,NA,NaN,NA,1484.0999999046326,right,1,NA,NA,NA,NA,NA
yobtMzfj,3ac6mfv6anv2a7u5af0lkpxttwbhzq,3b1nlc6ug39wjrviu2p3xbf689spgy,yobtMzfj,2020-0188,2021-10-30,23:54:46,01:05:25,NA,incomplete,false,NA,NA,true,1,7,NA,NA,NA,right,m_s_039.jpg,purple,yellow,NA,NA,NA,NA,NA,NA,NA,NA,NA,NaN,NA,1399.3000001907349,right,1,NA,NA,NA,NA,NA
yobtMzfj,3ac6mfv6anv2a7u5af0lkpxttwbhzq,3b1nlc6ug39wjrviu2p3xbf689spgy,yobtMzfj,2020-0188,2021-10-30,23:54:46,01:05:25,NA,incomplete,false,NA,NA,true,1,8,NA,NA,NA,left,m_l_061.jpg,green,red,NA,NA,NA,NA,NA,NA,NA,NA,NA,NaN,NA,1633,left,1,NA,NA,NA,NA,NA
yobtMzfj,3ac6mfv6anv2a7u5af0lkpxttwbhzq,3b1nlc6ug39wjrviu2p3xbf689spgy,yobtMzfj,2020-0188,2021-10-30,23:54:46,01:05:25,NA,incomplete,false,NA,NA,true,1,9,NA,NA,NA,right,m_s_104.jpg,gray,black,NA,NA,NA,NA,NA,NA,NA,NA,NA,NaN,NA,1500.1999998092651,right,1,NA,NA,NA,NA,NA
yobtMzfj,3ac6mfv6anv2a7u5af0lkpxttwbhzq,3b1nlc6ug39wjrviu2p3xbf689spgy,yobtMzfj,2020-0188,2021-10-30,23:54:46,01:05:25,NA,incomplete,false,NA,NA,true,1,10,NA,NA,NA,right,m_s_020.jpg,gray,green,NA,NA,NA,NA,NA,NA,NA,NA,NA,NaN,NA,3680.699999809265,right,1,NA,NA,NA,NA,NA
yobtMzfj,3ac6mfv6anv2a7u5af0lkpxttwbhzq,3b1nlc6ug39wjrviu2p3xbf689spgy,yobtMzfj,2020-0188,2021-10-30,23:54:46,01:05:25,NA,incomplete,false,NA,NA,true,1,11,NA,NA,NA,right,n_s_092.jpg,green,gray,NA,NA,NA,NA,NA,NA,NA,NA,NA,NaN,NA,1402.0999999046326,right,1,NA,NA,NA,NA,NA
yobtMzfj,3ac6mfv6anv2a7u5af0lkpxttwbhzq,3b1nlc6ug39wjrviu2p3xbf689spgy,yobtMzfj,2020-0188,2021-10-30,23:54:46,01:05:25,NA,incomplete,false,NA,NA,true,1,12,NA,NA,NA,right,m_l_108.jpg,gray,green,NA,NA,NA,NA,NA,NA,NA,NA,NA,NaN,NA,1831.7999999523163,left,0,NA,NA,NA,NA,NA
yobtMzfj,3ac6mfv6anv2a7u5af0lkpxttwbhzq,3b1nlc6ug39wjrviu2p3xbf689spgy,yobtMzfj,2020-0188,2021-10-30,23:54:46,01:05:25,NA,incomplete,false,NA,NA,true,1,13,NA,NA,NA,left,m_s_073.jpg,yellow,purple,NA,NA,NA,NA,NA,NA,NA,NA,NA,NaN,NA,1447.2000000476837,left,1,NA,NA,NA,NA,NA
yobtMzfj,3ac6mfv6anv2a7u5af0lkpxttwbhzq,3b1nlc6ug39wjrviu2p3xbf689spgy,yobtMzfj,2020-0188,2021-10-30,23:54:46,01:05:25,NA,incomplete,false,NA,NA,true,1,14,NA,NA,NA,left,n_s_046.jpg,red,green,NA,NA,NA,NA,NA,NA,NA,NA,NA,NaN,NA,1785.2999999523163,left,1,NA,NA,NA,NA,NA
yobtMzfj,3ac6mfv6anv2a7u5af0lkpxttwbhzq,3b1nlc6ug39wjrviu2p3xbf689spgy,yobtMzfj,2020-0188,2021-10-30,23:54:46,01:05:25,NA,incomplete,false,NA,NA,true,1,15,NA,NA,NA,right,n_l_080.jpg,black,purple,NA,NA,NA,NA,NA,NA,NA,NA,NA,NaN,NA,1489.7000000476837,right,1,NA,NA,NA,NA,NA
yobtMzfj,3ac6mfv6anv2a7u5af0lkpxttwbhzq,3b1nlc6ug39wjrviu2p3xbf689spgy,yobtMzfj,2020-0188,2021-10-30,23:54:46,01:05:25,NA,incomplete,false,NA,NA,true,1,16,NA,NA,NA,right,m_s_043.jpg,yellow,purple,NA,NA,NA,NA,NA,NA,NA,NA,NA,NaN,NA,2855.5,right,1,NA,NA,NA,NA,NA
yobtMzfj,3ac6mfv6anv2a7u5af0lkpxttwbhzq,3b1nlc6ug39wjrviu2p3xbf689spgy,yobtMzfj,2020-0188,2021-10-30,23:54:46,01:05:25,NA,incomplete,false,NA,NA,true,1,17,NA,NA,NA,right,m_l_014.jpg,black,gray,NA,NA,NA,NA,NA,NA,NA,NA,NA,NaN,NA,3583.9000000953674,left,0,NA,NA,NA,NA,NA
yobtMzfj,3ac6mfv6anv2a7u5af0lkpxttwbhzq,3b1nlc6ug39wjrviu2p3xbf689spgy,yobtMzfj,2020-0188,2021-10-30,23:54:46,01:05:25,NA,incomplete,false,NA,NA,true,1,18,NA,NA,NA,right,n_s_011.jpg,green,red,NA,NA,NA,NA,NA,NA,NA,NA,NA,NaN,NA,1455.9000000953674,right,1,NA,NA,NA,NA,NA
yobtMzfj,3ac6mfv6anv2a7u5af0lkpxttwbhzq,3b1nlc6ug39wjrviu2p3xbf689spgy,yobtMzfj,2020-0188,2021-10-30,23:54:46,01:05:25,NA,incomplete,false,NA,NA,true,1,19,NA,NA,NA,right,n_s_033.jpg,black,gray,NA,NA,NA,NA,NA,NA,NA,NA,NA,NaN,NA,2244.7000000476837,right,1,NA,NA,NA,NA,NA
yobtMzfj,3ac6mfv6anv2a7u5af0lkpxttwbhzq,3b1nlc6ug39wjrviu2p3xbf689spgy,yobtMzfj,2020-0188,2021-10-30,23:54:46,01:05:25,NA,incomplete,false,NA,NA,true,1,20,NA,NA,NA,left,n_s_026.jpg,yellow,purple,NA,NA,NA,NA,NA,NA,NA,NA,NA,NaN,NA,1735.0999999046326,left,1,NA,NA,NA,NA,NA
yobtMzfj,3ac6mfv6anv2a7u5af0lkpxttwbhzq,3b1nlc6ug39wjrviu2p3xbf689spgy,yobtMzfj,2020-0188,2021-10-30,23:54:46,01:05:25,NA,incomplete,false,NA,NA,true,1,21,NA,NA,NA,left,n_l_035.jpg,purple,yellow,NA,NA,NA,NA,NA,NA,NA,NA,NA,NaN,NA,2018.5999999046326,left,1,NA,NA,NA,NA,NA
yobtMzfj,3ac6mfv6anv2a7u5af0lkpxttwbhzq,3b1nlc6ug39wjrviu2p3xbf689spgy,yobtMzfj,2020-0188,2021-10-30,23:54:46,01:05:25,NA,incomplete,false,NA,true,NA,1,0,NA,NA,NA,left,NA,NA,NA,absent,NA,NA,n_s_011.jpg,red,m_l_061.jpg,green,between,NA,NaN,NA,NA,NA,NA,left,2280.0999999046326,1,0,3362.2999999523163
yobtMzfj,3ac6mfv6anv2a7u5af0lkpxttwbhzq,3b1nlc6ug39wjrviu2p3xbf689spgy,yobtMzfj,2020-0188,2021-10-30,23:54:46,01:05:25,NA,incomplete,false,NA,true,NA,1,1,NA,NA,NA,left,NA,NA,NA,absent,NA,NA,n_s_046.jpg,red,m_s_019.jpg,red,within,NA,NaN,NA,NA,NA,NA,left,1793.9000000953674,1,1,7154.200000047684
yobtMzfj,3ac6mfv6anv2a7u5af0lkpxttwbhzq,3b1nlc6ug39wjrviu2p3xbf689spgy,yobtMzfj,2020-0188,2021-10-30,23:54:46,01:05:25,NA,incomplete,false,NA,true,NA,1,2,NA,NA,NA,left,NA,NA,NA,absent,NA,NA,m_s_020.jpg,green,m_s_055.jpg,green,within,NA,NaN,NA,NA,NA,NA,left,1949.7000000476837,1,3,2327.2000000476837
yobtMzfj,3ac6mfv6anv2a7u5af0lkpxttwbhzq,3b1nlc6ug39wjrviu2p3xbf689spgy,yobtMzfj,2020-0188,2021-10-30,23:54:46,01:05:25,NA,incomplete,false,NA,true,NA,1,3,NA,NA,NA,right,NA,NA,NA,absent,NA,NA,m_s_104.jpg,black,m_s_015.jpg,black,within,NA,NaN,NA,NA,NA,NA,right,1904.7000000476837,1,1,3617.4000000953674
yobtMzfj,3ac6mfv6anv2a7u5af0lkpxttwbhzq,3b1nlc6ug39wjrviu2p3xbf689spgy,yobtMzfj,2020-0188,2021-10-30,23:54:46,01:05:25,NA,incomplete,false,NA,true,NA,1,4,NA,NA,NA,left,NA,NA,NA,absent,NA,NA,m_l_108.jpg,green,m_l_014.jpg,gray,between,NA,NaN,NA,NA,NA,NA,left,5006.200000047684,1,2,3315.4000000953674
yobtMzfj,3ac6mfv6anv2a7u5af0lkpxttwbhzq,3b1nlc6ug39wjrviu2p3xbf689spgy,yobtMzfj,2020-0188,2021-10-30,23:54:46,01:05:25,NA,incomplete,false,NA,true,NA,1,5,NA,NA,NA,right,NA,NA,NA,absent,NA,NA,m_s_039.jpg,yellow,n_l_035.jpg,purple,between,NA,NaN,NA,NA,NA,NA,left,2546.0999999046326,0,1,1307.4000000953674
yobtMzfj,3ac6mfv6anv2a7u5af0lkpxttwbhzq,3b1nlc6ug39wjrviu2p3xbf689spgy,yobtMzfj,2020-0188,2021-10-30,23:54:46,01:05:25,NA,incomplete,false,NA,true,NA,1,6,NA,NA,NA,right,NA,NA,NA,absent,NA,NA,m_s_080.jpg,purple,m_s_085.jpg,black,between,NA,NaN,NA,NA,NA,NA,right,2195.5999999046326,1,2,1367.5999999046326
yobtMzfj,3ac6mfv6anv2a7u5af0lkpxttwbhzq,3b1nlc6ug39wjrviu2p3xbf689spgy,yobtMzfj,2020-0188,2021-10-30,23:54:46,01:05:25,NA,incomplete,false,NA,true,NA,1,7,NA,NA,NA,right,NA,NA,NA,absent,NA,NA,n_s_026.jpg,yellow,m_s_073.jpg,yellow,within,NA,NaN,NA,NA,NA,NA,left,4391.400000095367,0,0,945.2000000476837
yobtMzfj,3ac6mfv6anv2a7u5af0lkpxttwbhzq,3b1nlc6ug39wjrviu2p3xbf689spgy,yobtMzfj,2020-0188,2021-10-30,23:54:46,01:05:25,NA,incomplete,false,NA,true,NA,1,8,NA,NA,NA,right,NA,NA,NA,absent,NA,NA,m_l_087.jpg,gray,n_s_033.jpg,gray,within,NA,NaN,NA,NA,NA,NA,left,2616.9000000953674,0,2,2566
yobtMzfj,3ac6mfv6anv2a7u5af0lkpxttwbhzq,3b1nlc6ug39wjrviu2p3xbf689spgy,yobtMzfj,2020-0188,2021-10-30,23:54:46,01:05:25,NA,incomplete,false,NA,true,NA,1,9,NA,NA,NA,right,NA,NA,NA,absent,NA,NA,m_l_016.jpg,black,n_s_092.jpg,gray,between,NA,NaN,NA,NA,NA,NA,right,1917.2000000476837,1,2,1933.7999999523163
yobtMzfj,3ac6mfv6anv2a7u5af0lkpxttwbhzq,3b1nlc6ug39wjrviu2p3xbf689spgy,yobtMzfj,2020-0188,2021-10-30,23:54:46,01:05:25,NA,incomplete,false,NA,true,NA,1,10,NA,NA,NA,left,NA,NA,NA,absent,NA,NA,n_l_080.jpg,purple,m_s_043.jpg,purple,within,NA,NaN,NA,NA,NA,NA,right,2763.600000143051,0,2,1844.5
yobtMzfj,3ac6mfv6anv2a7u5af0lkpxttwbhzq,3b1nlc6ug39wjrviu2p3xbf689spgy,yobtMzfj,2020-0188,2021-10-30,23:54:46,01:05:25,NA,incomplete,false,true,NA,NA,2,0,NA,green,n_l_032.jpg,NA,NA,NA,NA,NA,pleasant,unpleasant,NA,NA,NA,NA,NA,left,1974.79999995232,true,NA,NA,NA,NA,NA,NA,NA,NA
yobtMzfj,3ac6mfv6anv2a7u5af0lkpxttwbhzq,3b1nlc6ug39wjrviu2p3xbf689spgy,yobtMzfj,2020-0188,2021-10-30,23:54:46,01:05:25,NA,incomplete,false,true,NA,NA,2,1,NA,green,n_s_034.jpg,NA,NA,NA,NA,NA,pleasant,unpleasant,NA,NA,NA,NA,NA,left,998.5,true,NA,NA,NA,NA,NA,NA,NA,NA
yobtMzfj,3ac6mfv6anv2a7u5af0lkpxttwbhzq,3b1nlc6ug39wjrviu2p3xbf689spgy,yobtMzfj,2020-0188,2021-10-30,23:54:46,01:05:25,NA,incomplete,false,true,NA,NA,2,2,NA,green,m_s_023.jpg,NA,NA,NA,NA,NA,pleasant,unpleasant,NA,NA,NA,NA,NA,left,1524.29999995232,true,NA,NA,NA,NA,NA,NA,NA,NA
yobtMzfj,3ac6mfv6anv2a7u5af0lkpxttwbhzq,3b1nlc6ug39wjrviu2p3xbf689spgy,yobtMzfj,2020-0188,2021-10-30,23:54:46,01:05:25,NA,incomplete,false,true,NA,NA,2,3,NA,green,n_s_056.jpg,NA,NA,NA,NA,NA,unpleasant,pleasant,NA,NA,NA,NA,NA,right,1511.79999995232,true,NA,NA,NA,NA,NA,NA,NA,NA
yobtMzfj,3ac6mfv6anv2a7u5af0lkpxttwbhzq,3b1nlc6ug39wjrviu2p3xbf689spgy,yobtMzfj,2020-0188,2021-10-30,23:54:46,01:05:25,NA,incomplete,false,true,NA,NA,2,4,NA,green,n_l_090.jpg,NA,NA,NA,NA,NA,pleasant,unpleasant,NA,NA,NA,NA,NA,right,1938.40000009537,true,NA,NA,NA,NA,NA,NA,NA,NA
yobtMzfj,3ac6mfv6anv2a7u5af0lkpxttwbhzq,3b1nlc6ug39wjrviu2p3xbf689spgy,yobtMzfj,2020-0188,2021-10-30,23:54:46,01:05:25,NA,incomplete,false,true,NA,NA,2,5,NA,green,n_s_082.jpg,NA,NA,NA,NA,NA,pleasant,unpleasant,NA,NA,NA,NA,NA,left,1626.20000004768,true,NA,NA,NA,NA,NA,NA,NA,NA
yobtMzfj,3ac6mfv6anv2a7u5af0lkpxttwbhzq,3b1nlc6ug39wjrviu2p3xbf689spgy,yobtMzfj,2020-0188,2021-10-30,23:54:46,01:05:25,NA,incomplete,false,true,NA,NA,2,6,NA,white,n_s_089.jpg,NA,NA,NA,NA,NA,unpleasant,pleasant,NA,NA,NA,NA,NA,right,1759.29999995232,true,NA,NA,NA,NA,NA,NA,NA,NA
yobtMzfj,3ac6mfv6anv2a7u5af0lkpxttwbhzq,3b1nlc6ug39wjrviu2p3xbf689spgy,yobtMzfj,2020-0188,2021-10-30,23:54:46,01:05:25,NA,incomplete,false,true,NA,NA,2,7,NA,white,m_s_034.jpg,NA,NA,NA,NA,NA,pleasant,unpleasant,NA,NA,NA,NA,NA,left,2015,true,NA,NA,NA,NA,NA,NA,NA,NA
yobtMzfj,3ac6mfv6anv2a7u5af0lkpxttwbhzq,3b1nlc6ug39wjrviu2p3xbf689spgy,yobtMzfj,2020-0188,2021-10-30,23:54:46,01:05:25,NA,incomplete,false,true,NA,NA,2,8,NA,white,m_l_099.jpg,NA,NA,NA,NA,NA,pleasant,unpleasant,NA,NA,NA,NA,NA,left,2137.60000014305,true,NA,NA,NA,NA,NA,NA,NA,NA
yobtMzfj,3ac6mfv6anv2a7u5af0lkpxttwbhzq,3b1nlc6ug39wjrviu2p3xbf689spgy,yobtMzfj,2020-0188,2021-10-30,23:54:46,01:05:25,NA,incomplete,false,true,NA,NA,2,9,NA,white,m_s_106.jpg,NA,NA,NA,NA,NA,pleasant,unpleasant,NA,NA,NA,NA,NA,left,1441.5,true,NA,NA,NA,NA,NA,NA,NA,NA
yobtMzfj,3ac6mfv6anv2a7u5af0lkpxttwbhzq,3b1nlc6ug39wjrviu2p3xbf689spgy,yobtMzfj,2020-0188,2021-10-30,23:54:46,01:05:25,NA,incomplete,false,true,NA,NA,2,10,NA,white,n_s_067.jpg,NA,NA,NA,NA,NA,unpleasant,pleasant,NA,NA,NA,NA,NA,right,2578.70000004768,true,NA,NA,NA,NA,NA,NA,NA,NA
yobtMzfj,3ac6mfv6anv2a7u5af0lkpxttwbhzq,3b1nlc6ug39wjrviu2p3xbf689spgy,yobtMzfj,2020-0188,2021-10-30,23:54:46,01:05:25,NA,incomplete,false,true,NA,NA,2,11,NA,white,m_l_034.jpg,NA,NA,NA,NA,NA,unpleasant,pleasant,NA,NA,NA,NA,NA,right,1973.29999995232,true,NA,NA,NA,NA,NA,NA,NA,NA
yobtMzfj,3ac6mfv6anv2a7u5af0lkpxttwbhzq,3b1nlc6ug39wjrviu2p3xbf689spgy,yobtMzfj,2020-0188,2021-10-30,23:54:46,01:05:25,NA,incomplete,false,true,NA,NA,2,12,NA,blue,m_l_082.jpg,NA,NA,NA,NA,NA,pleasant,unpleasant,NA,NA,NA,NA,NA,right,1796,true,NA,NA,NA,NA,NA,NA,NA,NA
yobtMzfj,3ac6mfv6anv2a7u5af0lkpxttwbhzq,3b1nlc6ug39wjrviu2p3xbf689spgy,yobtMzfj,2020-0188,2021-10-30,23:54:46,01:05:25,NA,incomplete,false,true,NA,NA,2,13,NA,blue,m_s_074.jpg,NA,NA,NA,NA,NA,pleasant,unpleasant,NA,NA,NA,NA,NA,left,1384,true,NA,NA,NA,NA,NA,NA,NA,NA
yobtMzfj,3ac6mfv6anv2a7u5af0lkpxttwbhzq,3b1nlc6ug39wjrviu2p3xbf689spgy,yobtMzfj,2020-0188,2021-10-30,23:54:46,01:05:25,NA,incomplete,false,true,NA,NA,2,14,NA,blue,n_l_095.jpg,NA,NA,NA,NA,NA,pleasant,unpleasant,NA,NA,NA,NA,NA,left,1203.79999995232,true,NA,NA,NA,NA,NA,NA,NA,NA
yobtMzfj,3ac6mfv6anv2a7u5af0lkpxttwbhzq,3b1nlc6ug39wjrviu2p3xbf689spgy,yobtMzfj,2020-0188,2021-10-30,23:54:46,01:05:25,NA,incomplete,false,true,NA,NA,2,15,NA,blue,m_l_077.jpg,NA,NA,NA,NA,NA,pleasant,unpleasant,NA,NA,NA,NA,NA,right,1584.69999980927,true,NA,NA,NA,NA,NA,NA,NA,NA
yobtMzfj,3ac6mfv6anv2a7u5af0lkpxttwbhzq,3b1nlc6ug39wjrviu2p3xbf689spgy,yobtMzfj,2020-0188,2021-10-30,23:54:46,01:05:25,NA,incomplete,false,true,NA,NA,2,16,NA,blue,m_s_105.jpg,NA,NA,NA,NA,NA,pleasant,unpleasant,NA,NA,NA,NA,NA,left,1570.20000004768,true,NA,NA,NA,NA,NA,NA,NA,NA
yobtMzfj,3ac6mfv6anv2a7u5af0lkpxttwbhzq,3b1nlc6ug39wjrviu2p3xbf689spgy,yobtMzfj,2020-0188,2021-10-30,23:54:46,01:05:25,NA,incomplete,false,true,NA,NA,2,17,NA,blue,m_l_030.jpg,NA,NA,NA,NA,NA,pleasant,unpleasant,NA,NA,NA,NA,NA,right,1163.30000019073,true,NA,NA,NA,NA,NA,NA,NA,NA
yobtMzfj,3ac6mfv6anv2a7u5af0lkpxttwbhzq,3b1nlc6ug39wjrviu2p3xbf689spgy,yobtMzfj,2020-0188,2021-10-30,23:54:46,01:05:25,NA,incomplete,false,true,NA,NA,2,18,NA,gray,n_s_112.jpg,NA,NA,NA,NA,NA,pleasant,unpleasant,NA,NA,NA,NA,NA,left,1626.40000009537,true,NA,NA,NA,NA,NA,NA,NA,NA
yobtMzfj,3ac6mfv6anv2a7u5af0lkpxttwbhzq,3b1nlc6ug39wjrviu2p3xbf689spgy,yobtMzfj,2020-0188,2021-10-30,23:54:46,01:05:25,NA,incomplete,false,true,NA,NA,2,19,NA,gray,m_s_017.jpg,NA,NA,NA,NA,NA,unpleasant,pleasant,NA,NA,NA,NA,NA,right,1660.09999990463,true,NA,NA,NA,NA,NA,NA,NA,NA
yobtMzfj,3ac6mfv6anv2a7u5af0lkpxttwbhzq,3b1nlc6ug39wjrviu2p3xbf689spgy,yobtMzfj,2020-0188,2021-10-30,23:54:46,01:05:25,NA,incomplete,false,true,NA,NA,2,20,NA,gray,n_s_101.jpg,NA,NA,NA,NA,NA,unpleasant,pleasant,NA,NA,NA,NA,NA,left,1435.69999980927,true,NA,NA,NA,NA,NA,NA,NA,NA
yobtMzfj,3ac6mfv6anv2a7u5af0lkpxttwbhzq,3b1nlc6ug39wjrviu2p3xbf689spgy,yobtMzfj,2020-0188,2021-10-30,23:54:46,01:05:25,NA,incomplete,false,true,NA,NA,2,21,NA,gray,m_s_084.jpg,NA,NA,NA,NA,NA,pleasant,unpleasant,NA,NA,NA,NA,NA,left,1695.59999990463,true,NA,NA,NA,NA,NA,NA,NA,NA
yobtMzfj,3ac6mfv6anv2a7u5af0lkpxttwbhzq,3b1nlc6ug39wjrviu2p3xbf689spgy,yobtMzfj,2020-0188,2021-10-30,23:54:46,01:05:25,NA,incomplete,false,true,NA,NA,2,22,NA,gray,n_s_083.jpg,NA,NA,NA,NA,NA,unpleasant,pleasant,NA,NA,NA,NA,NA,right,1066.29999995232,true,NA,NA,NA,NA,NA,NA,NA,NA
yobtMzfj,3ac6mfv6anv2a7u5af0lkpxttwbhzq,3b1nlc6ug39wjrviu2p3xbf689spgy,yobtMzfj,2020-0188,2021-10-30,23:54:46,01:05:25,NA,incomplete,false,true,NA,NA,2,23,NA,gray,n_s_099.jpg,NA,NA,NA,NA,NA,pleasant,unpleasant,NA,NA,NA,NA,NA,left,1121.5,true,NA,NA,NA,NA,NA,NA,NA,NA
yobtMzfj,3ac6mfv6anv2a7u5af0lkpxttwbhzq,3b1nlc6ug39wjrviu2p3xbf689spgy,yobtMzfj,2020-0188,2021-10-30,23:54:46,01:05:25,NA,incomplete,false,true,NA,NA,2,24,NA,red,n_s_015.jpg,NA,NA,NA,NA,NA,pleasant,unpleasant,NA,NA,NA,NA,NA,left,1215.40000009537,true,NA,NA,NA,NA,NA,NA,NA,NA
yobtMzfj,3ac6mfv6anv2a7u5af0lkpxttwbhzq,3b1nlc6ug39wjrviu2p3xbf689spgy,yobtMzfj,2020-0188,2021-10-30,23:54:46,01:05:25,NA,incomplete,false,true,NA,NA,2,25,NA,red,n_l_006.jpg,NA,NA,NA,NA,NA,pleasant,unpleasant,NA,NA,NA,NA,NA,left,987.799999952316,true,NA,NA,NA,NA,NA,NA,NA,NA
yobtMzfj,3ac6mfv6anv2a7u5af0lkpxttwbhzq,3b1nlc6ug39wjrviu2p3xbf689spgy,yobtMzfj,2020-0188,2021-10-30,23:54:46,01:05:25,NA,incomplete,false,true,NA,NA,2,26,NA,red,m_l_024.jpg,NA,NA,NA,NA,NA,pleasant,unpleasant,NA,NA,NA,NA,NA,left,1318.89999985695,true,NA,NA,NA,NA,NA,NA,NA,NA
yobtMzfj,3ac6mfv6anv2a7u5af0lkpxttwbhzq,3b1nlc6ug39wjrviu2p3xbf689spgy,yobtMzfj,2020-0188,2021-10-30,23:54:46,01:05:25,NA,incomplete,false,true,NA,NA,2,27,NA,red,m_s_032.jpg,NA,NA,NA,NA,NA,pleasant,unpleasant,NA,NA,NA,NA,NA,left,1876.39999985695,true,NA,NA,NA,NA,NA,NA,NA,NA
yobtMzfj,3ac6mfv6anv2a7u5af0lkpxttwbhzq,3b1nlc6ug39wjrviu2p3xbf689spgy,yobtMzfj,2020-0188,2021-10-30,23:54:46,01:05:25,NA,incomplete,false,true,NA,NA,2,28,NA,red,m_l_026.jpg,NA,NA,NA,NA,NA,pleasant,unpleasant,NA,NA,NA,NA,NA,left,1206.79999995232,true,NA,NA,NA,NA,NA,NA,NA,NA
yobtMzfj,3ac6mfv6anv2a7u5af0lkpxttwbhzq,3b1nlc6ug39wjrviu2p3xbf689spgy,yobtMzfj,2020-0188,2021-10-30,23:54:46,01:05:25,NA,incomplete,false,true,NA,NA,2,29,NA,red,m_l_056.jpg,NA,NA,NA,NA,NA,pleasant,unpleasant,NA,NA,NA,NA,NA,left,1446.29999995232,true,NA,NA,NA,NA,NA,NA,NA,NA
yobtMzfj,3ac6mfv6anv2a7u5af0lkpxttwbhzq,3b1nlc6ug39wjrviu2p3xbf689spgy,yobtMzfj,2020-0188,2021-10-30,23:54:46,01:05:25,NA,incomplete,false,true,NA,NA,2,30,NA,purple,n_l_046.jpg,NA,NA,NA,NA,NA,unpleasant,pleasant,NA,NA,NA,NA,NA,right,1011.09999990463,true,NA,NA,NA,NA,NA,NA,NA,NA
yobtMzfj,3ac6mfv6anv2a7u5af0lkpxttwbhzq,3b1nlc6ug39wjrviu2p3xbf689spgy,yobtMzfj,2020-0188,2021-10-30,23:54:46,01:05:25,NA,incomplete,false,true,NA,NA,2,31,NA,purple,m_l_029.jpg,NA,NA,NA,NA,NA,pleasant,unpleasant,NA,NA,NA,NA,NA,left,1084.80000019073,true,NA,NA,NA,NA,NA,NA,NA,NA
yobtMzfj,3ac6mfv6anv2a7u5af0lkpxttwbhzq,3b1nlc6ug39wjrviu2p3xbf689spgy,yobtMzfj,2020-0188,2021-10-30,23:54:46,01:05:25,NA,incomplete,false,true,NA,NA,2,32,NA,purple,m_s_037.jpg,NA,NA,NA,NA,NA,pleasant,unpleasant,NA,NA,NA,NA,NA,left,1176.40000009537,true,NA,NA,NA,NA,NA,NA,NA,NA
yobtMzfj,3ac6mfv6anv2a7u5af0lkpxttwbhzq,3b1nlc6ug39wjrviu2p3xbf689spgy,yobtMzfj,2020-0188,2021-10-30,23:54:46,01:05:25,NA,incomplete,false,true,NA,NA,2,33,NA,purple,m_s_082.jpg,NA,NA,NA,NA,NA,unpleasant,pleasant,NA,NA,NA,NA,NA,right,1242.5,true,NA,NA,NA,NA,NA,NA,NA,NA
yobtMzfj,3ac6mfv6anv2a7u5af0lkpxttwbhzq,3b1nlc6ug39wjrviu2p3xbf689spgy,yobtMzfj,2020-0188,2021-10-30,23:54:46,01:05:25,NA,incomplete,false,true,NA,NA,2,34,NA,purple,m_s_035.jpg,NA,NA,NA,NA,NA,unpleasant,pleasant,NA,NA,NA,NA,NA,right,952.600000143051,true,NA,NA,NA,NA,NA,NA,NA,NA
yobtMzfj,3ac6mfv6anv2a7u5af0lkpxttwbhzq,3b1nlc6ug39wjrviu2p3xbf689spgy,yobtMzfj,2020-0188,2021-10-30,23:54:46,01:05:25,NA,incomplete,false,true,NA,NA,2,35,NA,purple,n_l_022.jpg,NA,NA,NA,NA,NA,unpleasant,pleasant,NA,NA,NA,NA,NA,right,807.5,true,NA,NA,NA,NA,NA,NA,NA,NA
yobtMzfj,3ac6mfv6anv2a7u5af0lkpxttwbhzq,3b1nlc6ug39wjrviu2p3xbf689spgy,yobtMzfj,2020-0188,2021-10-30,23:54:46,01:05:25,NA,incomplete,false,NA,NA,true,2,0,NA,NA,NA,left,n_s_101.jpg,gray,blue,NA,NA,NA,NA,NA,NA,NA,NA,NA,NaN,NA,2558.2000000476837,left,1,NA,NA,NA,NA,NA
yobtMzfj,3ac6mfv6anv2a7u5af0lkpxttwbhzq,3b1nlc6ug39wjrviu2p3xbf689spgy,yobtMzfj,2020-0188,2021-10-30,23:54:46,01:05:25,NA,incomplete,false,NA,NA,true,2,1,NA,NA,NA,left,m_l_056.jpg,red,purple,NA,NA,NA,NA,NA,NA,NA,NA,NA,NaN,NA,2278.7000000476837,left,1,NA,NA,NA,NA,NA
yobtMzfj,3ac6mfv6anv2a7u5af0lkpxttwbhzq,3b1nlc6ug39wjrviu2p3xbf689spgy,yobtMzfj,2020-0188,2021-10-30,23:54:46,01:05:25,NA,incomplete,false,NA,NA,true,2,2,NA,NA,NA,right,n_l_022.jpg,red,purple,NA,NA,NA,NA,NA,NA,NA,NA,NA,NaN,NA,2715.300000190735,right,1,NA,NA,NA,NA,NA
yobtMzfj,3ac6mfv6anv2a7u5af0lkpxttwbhzq,3b1nlc6ug39wjrviu2p3xbf689spgy,yobtMzfj,2020-0188,2021-10-30,23:54:46,01:05:25,NA,incomplete,false,NA,NA,true,2,3,NA,NA,NA,right,n_s_082.jpg,white,green,NA,NA,NA,NA,NA,NA,NA,NA,NA,NaN,NA,1379.1999998092651,right,1,NA,NA,NA,NA,NA
yobtMzfj,3ac6mfv6anv2a7u5af0lkpxttwbhzq,3b1nlc6ug39wjrviu2p3xbf689spgy,yobtMzfj,2020-0188,2021-10-30,23:54:46,01:05:25,NA,incomplete,false,NA,NA,true,2,4,NA,NA,NA,left,n_l_095.jpg,blue,gray,NA,NA,NA,NA,NA,NA,NA,NA,NA,NaN,NA,2835.9000000953674,left,1,NA,NA,NA,NA,NA
yobtMzfj,3ac6mfv6anv2a7u5af0lkpxttwbhzq,3b1nlc6ug39wjrviu2p3xbf689spgy,yobtMzfj,2020-0188,2021-10-30,23:54:46,01:05:25,NA,incomplete,false,NA,NA,true,2,5,NA,NA,NA,left,m_s_105.jpg,blue,gray,NA,NA,NA,NA,NA,NA,NA,NA,NA,NaN,NA,1745.4000000953674,right,0,NA,NA,NA,NA,NA
yobtMzfj,3ac6mfv6anv2a7u5af0lkpxttwbhzq,3b1nlc6ug39wjrviu2p3xbf689spgy,yobtMzfj,2020-0188,2021-10-30,23:54:46,01:05:25,NA,incomplete,false,NA,NA,true,2,6,NA,NA,NA,right,m_l_029.jpg,red,purple,NA,NA,NA,NA,NA,NA,NA,NA,NA,NaN,NA,5813.299999952316,left,0,NA,NA,NA,NA,NA
yobtMzfj,3ac6mfv6anv2a7u5af0lkpxttwbhzq,3b1nlc6ug39wjrviu2p3xbf689spgy,yobtMzfj,2020-0188,2021-10-30,23:54:46,01:05:25,NA,incomplete,false,NA,NA,true,2,7,NA,NA,NA,left,n_s_099.jpg,gray,red,NA,NA,NA,NA,NA,NA,NA,NA,NA,NaN,NA,1699.1000001430511,left,1,NA,NA,NA,NA,NA
yobtMzfj,3ac6mfv6anv2a7u5af0lkpxttwbhzq,3b1nlc6ug39wjrviu2p3xbf689spgy,yobtMzfj,2020-0188,2021-10-30,23:54:46,01:05:25,NA,incomplete,false,NA,NA,true,2,8,NA,NA,NA,left,m_s_034.jpg,white,green,NA,NA,NA,NA,NA,NA,NA,NA,NA,NaN,NA,1533.9000000953674,left,1,NA,NA,NA,NA,NA
yobtMzfj,3ac6mfv6anv2a7u5af0lkpxttwbhzq,3b1nlc6ug39wjrviu2p3xbf689spgy,yobtMzfj,2020-0188,2021-10-30,23:54:46,01:05:25,NA,incomplete,false,NA,NA,true,2,9,NA,NA,NA,left,n_l_006.jpg,red,gray,NA,NA,NA,NA,NA,NA,NA,NA,NA,NaN,NA,1641.2999999523163,left,1,NA,NA,NA,NA,NA
yobtMzfj,3ac6mfv6anv2a7u5af0lkpxttwbhzq,3b1nlc6ug39wjrviu2p3xbf689spgy,yobtMzfj,2020-0188,2021-10-30,23:54:46,01:05:25,NA,incomplete,false,NA,NA,true,2,10,NA,NA,NA,left,m_s_017.jpg,gray,red,NA,NA,NA,NA,NA,NA,NA,NA,NA,NaN,NA,1903.1999998092651,left,1,NA,NA,NA,NA,NA
yobtMzfj,3ac6mfv6anv2a7u5af0lkpxttwbhzq,3b1nlc6ug39wjrviu2p3xbf689spgy,yobtMzfj,2020-0188,2021-10-30,23:54:46,01:05:25,NA,incomplete,false,NA,NA,true,2,11,NA,NA,NA,right,m_l_024.jpg,purple,red,NA,NA,NA,NA,NA,NA,NA,NA,NA,NaN,NA,5341.299999952316,left,0,NA,NA,NA,NA,NA
yobtMzfj,3ac6mfv6anv2a7u5af0lkpxttwbhzq,3b1nlc6ug39wjrviu2p3xbf689spgy,yobtMzfj,2020-0188,2021-10-30,23:54:46,01:05:25,NA,incomplete,false,NA,NA,true,2,12,NA,NA,NA,left,m_l_030.jpg,blue,gray,NA,NA,NA,NA,NA,NA,NA,NA,NA,NaN,NA,1786.4000000953674,left,1,NA,NA,NA,NA,NA
yobtMzfj,3ac6mfv6anv2a7u5af0lkpxttwbhzq,3b1nlc6ug39wjrviu2p3xbf689spgy,yobtMzfj,2020-0188,2021-10-30,23:54:46,01:05:25,NA,incomplete,false,NA,NA,true,2,13,NA,NA,NA,left,m_s_037.jpg,purple,red,NA,NA,NA,NA,NA,NA,NA,NA,NA,NaN,NA,2262.100000143051,left,1,NA,NA,NA,NA,NA
yobtMzfj,3ac6mfv6anv2a7u5af0lkpxttwbhzq,3b1nlc6ug39wjrviu2p3xbf689spgy,yobtMzfj,2020-0188,2021-10-30,23:54:46,01:05:25,NA,incomplete,false,NA,NA,true,2,14,NA,NA,NA,left,n_l_090.jpg,green,white,NA,NA,NA,NA,NA,NA,NA,NA,NA,NaN,NA,1658.7999999523163,left,1,NA,NA,NA,NA,NA
yobtMzfj,3ac6mfv6anv2a7u5af0lkpxttwbhzq,3b1nlc6ug39wjrviu2p3xbf689spgy,yobtMzfj,2020-0188,2021-10-30,23:54:46,01:05:25,NA,incomplete,false,NA,NA,true,2,15,NA,NA,NA,left,m_s_074.jpg,blue,gray,NA,NA,NA,NA,NA,NA,NA,NA,NA,NaN,NA,1424,left,1,NA,NA,NA,NA,NA
yobtMzfj,3ac6mfv6anv2a7u5af0lkpxttwbhzq,3b1nlc6ug39wjrviu2p3xbf689spgy,yobtMzfj,2020-0188,2021-10-30,23:54:46,01:05:25,NA,incomplete,false,NA,NA,true,2,16,NA,NA,NA,right,n_s_083.jpg,red,gray,NA,NA,NA,NA,NA,NA,NA,NA,NA,NaN,NA,1835.7999999523163,right,1,NA,NA,NA,NA,NA
yobtMzfj,3ac6mfv6anv2a7u5af0lkpxttwbhzq,3b1nlc6ug39wjrviu2p3xbf689spgy,yobtMzfj,2020-0188,2021-10-30,23:54:46,01:05:25,NA,incomplete,false,NA,NA,true,2,17,NA,NA,NA,right,m_l_099.jpg,green,white,NA,NA,NA,NA,NA,NA,NA,NA,NA,NaN,NA,2779.9000000953674,left,0,NA,NA,NA,NA,NA
yobtMzfj,3ac6mfv6anv2a7u5af0lkpxttwbhzq,3b1nlc6ug39wjrviu2p3xbf689spgy,yobtMzfj,2020-0188,2021-10-30,23:54:46,01:05:25,NA,incomplete,false,NA,NA,true,2,18,NA,NA,NA,right,n_s_034.jpg,white,green,NA,NA,NA,NA,NA,NA,NA,NA,NA,NaN,NA,1375,right,1,NA,NA,NA,NA,NA
yobtMzfj,3ac6mfv6anv2a7u5af0lkpxttwbhzq,3b1nlc6ug39wjrviu2p3xbf689spgy,yobtMzfj,2020-0188,2021-10-30,23:54:46,01:05:25,NA,incomplete,false,NA,NA,true,2,19,NA,NA,NA,left,m_l_026.jpg,red,gray,NA,NA,NA,NA,NA,NA,NA,NA,NA,NaN,NA,5140.199999809265,left,1,NA,NA,NA,NA,NA
yobtMzfj,3ac6mfv6anv2a7u5af0lkpxttwbhzq,3b1nlc6ug39wjrviu2p3xbf689spgy,yobtMzfj,2020-0188,2021-10-30,23:54:46,01:05:25,NA,incomplete,false,NA,NA,true,2,20,NA,NA,NA,left,n_s_067.jpg,white,blue,NA,NA,NA,NA,NA,NA,NA,NA,NA,NaN,NA,2910.7999999523163,left,1,NA,NA,NA,NA,NA
yobtMzfj,3ac6mfv6anv2a7u5af0lkpxttwbhzq,3b1nlc6ug39wjrviu2p3xbf689spgy,yobtMzfj,2020-0188,2021-10-30,23:54:46,01:05:25,NA,incomplete,false,NA,NA,true,2,21,NA,NA,NA,left,m_l_034.jpg,white,blue,NA,NA,NA,NA,NA,NA,NA,NA,NA,NaN,NA,1580.2000000476837,left,1,NA,NA,NA,NA,NA
yobtMzfj,3ac6mfv6anv2a7u5af0lkpxttwbhzq,3b1nlc6ug39wjrviu2p3xbf689spgy,yobtMzfj,2020-0188,2021-10-30,23:54:46,01:05:25,NA,incomplete,false,NA,true,NA,2,0,NA,NA,NA,left,NA,NA,NA,absent,NA,NA,m_l_029.jpg,purple,n_l_022.jpg,purple,within,NA,NaN,NA,NA,NA,NA,left,2754,1,2,2028.8000001907349
yobtMzfj,3ac6mfv6anv2a7u5af0lkpxttwbhzq,3b1nlc6ug39wjrviu2p3xbf689spgy,yobtMzfj,2020-0188,2021-10-30,23:54:46,01:05:25,NA,incomplete,false,NA,true,NA,2,1,NA,NA,NA,right,NA,NA,NA,absent,NA,NA,m_l_056.jpg,red,n_l_006.jpg,red,within,NA,NaN,NA,NA,NA,NA,right,2138.2000000476837,1,2,1420.0999999046326
yobtMzfj,3ac6mfv6anv2a7u5af0lkpxttwbhzq,3b1nlc6ug39wjrviu2p3xbf689spgy,yobtMzfj,2020-0188,2021-10-30,23:54:46,01:05:25,NA,incomplete,false,NA,true,NA,2,2,NA,NA,NA,right,NA,NA,NA,absent,NA,NA,m_l_030.jpg,blue,m_s_074.jpg,blue,within,NA,NaN,NA,NA,NA,NA,right,4654.200000047684,1,1,1258.9000000953674
yobtMzfj,3ac6mfv6anv2a7u5af0lkpxttwbhzq,3b1nlc6ug39wjrviu2p3xbf689spgy,yobtMzfj,2020-0188,2021-10-30,23:54:46,01:05:25,NA,incomplete,false,NA,true,NA,2,3,NA,NA,NA,left,NA,NA,NA,absent,NA,NA,n_s_067.jpg,white,n_l_095.jpg,blue,between,NA,NaN,NA,NA,NA,NA,left,4296.5,1,2,1076.5
yobtMzfj,3ac6mfv6anv2a7u5af0lkpxttwbhzq,3b1nlc6ug39wjrviu2p3xbf689spgy,yobtMzfj,2020-0188,2021-10-30,23:54:46,01:05:25,NA,incomplete,false,NA,true,NA,2,4,NA,NA,NA,left,NA,NA,NA,absent,NA,NA,m_l_026.jpg,red,m_s_037.jpg,purple,between,NA,NaN,NA,NA,NA,NA,right,6035.5,0,2,1524.5
yobtMzfj,3ac6mfv6anv2a7u5af0lkpxttwbhzq,3b1nlc6ug39wjrviu2p3xbf689spgy,yobtMzfj,2020-0188,2021-10-30,23:54:46,01:05:25,NA,incomplete,false,NA,true,NA,2,5,NA,NA,NA,right,NA,NA,NA,absent,NA,NA,m_l_034.jpg,white,m_s_034.jpg,white,within,NA,NaN,NA,NA,NA,NA,right,3046.2999999523163,1,1,1496.5
yobtMzfj,3ac6mfv6anv2a7u5af0lkpxttwbhzq,3b1nlc6ug39wjrviu2p3xbf689spgy,yobtMzfj,2020-0188,2021-10-30,23:54:46,01:05:25,NA,incomplete,false,NA,true,NA,2,6,NA,NA,NA,right,NA,NA,NA,absent,NA,NA,m_l_024.jpg,red,n_s_083.jpg,gray,between,NA,NaN,NA,NA,NA,NA,right,2838.9000000953674,1,1,1162.9000000953674
yobtMzfj,3ac6mfv6anv2a7u5af0lkpxttwbhzq,3b1nlc6ug39wjrviu2p3xbf689spgy,yobtMzfj,2020-0188,2021-10-30,23:54:46,01:05:25,NA,incomplete,false,NA,true,NA,2,7,NA,NA,NA,right,NA,NA,NA,absent,NA,NA,n_s_082.jpg,green,n_s_034.jpg,green,within,NA,NaN,NA,NA,NA,NA,right,1615.7000000476837,1,0,2017.6999998092651
yobtMzfj,3ac6mfv6anv2a7u5af0lkpxttwbhzq,3b1nlc6ug39wjrviu2p3xbf689spgy,yobtMzfj,2020-0188,2021-10-30,23:54:46,01:05:25,NA,incomplete,false,NA,true,NA,2,8,NA,NA,NA,right,NA,NA,NA,absent,NA,NA,m_l_099.jpg,white,n_l_090.jpg,green,between,NA,NaN,NA,NA,NA,NA,right,2187.9000000953674,1,2,2429.5
yobtMzfj,3ac6mfv6anv2a7u5af0lkpxttwbhzq,3b1nlc6ug39wjrviu2p3xbf689spgy,yobtMzfj,2020-0188,2021-10-30,23:54:46,01:05:25,NA,incomplete,false,NA,true,NA,2,9,NA,NA,NA,right,NA,NA,NA,absent,NA,NA,n_s_101.jpg,gray,m_s_105.jpg,blue,between,NA,NaN,NA,NA,NA,NA,right,2836.4000000953674,1,2,2694.5
yobtMzfj,3ac6mfv6anv2a7u5af0lkpxttwbhzq,3b1nlc6ug39wjrviu2p3xbf689spgy,yobtMzfj,2020-0188,2021-10-30,23:54:46,01:05:25,NA,incomplete,false,NA,true,NA,2,10,NA,NA,NA,right,NA,NA,NA,absent,NA,NA,n_s_099.jpg,gray,m_s_017.jpg,gray,within,NA,NaN,NA,NA,NA,NA,left,3819.5999999046326,0,1,1290.3999998569489
yobtMzfj,3ac6mfv6anv2a7u5af0lkpxttwbhzq,3b1nlc6ug39wjrviu2p3xbf689spgy,yobtMzfj,2020-0188,2021-10-30,23:54:46,01:05:25,NA,incomplete,false,true,NA,NA,3,0,NA,red,m_s_069.jpg,NA,NA,NA,NA,NA,pleasant,unpleasant,NA,NA,NA,NA,NA,left,1795.79999995232,true,NA,NA,NA,NA,NA,NA,NA,NA
yobtMzfj,3ac6mfv6anv2a7u5af0lkpxttwbhzq,3b1nlc6ug39wjrviu2p3xbf689spgy,yobtMzfj,2020-0188,2021-10-30,23:54:46,01:05:25,NA,incomplete,false,true,NA,NA,3,1,NA,red,m_l_023.jpg,NA,NA,NA,NA,NA,unpleasant,pleasant,NA,NA,NA,NA,NA,right,1780.29999995232,true,NA,NA,NA,NA,NA,NA,NA,NA
yobtMzfj,3ac6mfv6anv2a7u5af0lkpxttwbhzq,3b1nlc6ug39wjrviu2p3xbf689spgy,yobtMzfj,2020-0188,2021-10-30,23:54:46,01:05:25,NA,incomplete,false,true,NA,NA,3,2,NA,red,m_l_035.jpg,NA,NA,NA,NA,NA,pleasant,unpleasant,NA,NA,NA,NA,NA,right,2360.39999985695,true,NA,NA,NA,NA,NA,NA,NA,NA
yobtMzfj,3ac6mfv6anv2a7u5af0lkpxttwbhzq,3b1nlc6ug39wjrviu2p3xbf689spgy,yobtMzfj,2020-0188,2021-10-30,23:54:46,01:05:25,NA,incomplete,false,true,NA,NA,3,3,NA,red,m_l_106.jpg,NA,NA,NA,NA,NA,unpleasant,pleasant,NA,NA,NA,NA,NA,right,1469,true,NA,NA,NA,NA,NA,NA,NA,NA
yobtMzfj,3ac6mfv6anv2a7u5af0lkpxttwbhzq,3b1nlc6ug39wjrviu2p3xbf689spgy,yobtMzfj,2020-0188,2021-10-30,23:54:46,01:05:25,NA,incomplete,false,true,NA,NA,3,4,NA,red,n_l_093.jpg,NA,NA,NA,NA,NA,unpleasant,pleasant,NA,NA,NA,NA,NA,left,1591.10000014305,true,NA,NA,NA,NA,NA,NA,NA,NA
yobtMzfj,3ac6mfv6anv2a7u5af0lkpxttwbhzq,3b1nlc6ug39wjrviu2p3xbf689spgy,yobtMzfj,2020-0188,2021-10-30,23:54:46,01:05:25,NA,incomplete,false,true,NA,NA,3,5,NA,red,m_l_111.jpg,NA,NA,NA,NA,NA,pleasant,unpleasant,NA,NA,NA,NA,NA,left,2230.29999995232,true,NA,NA,NA,NA,NA,NA,NA,NA
yobtMzfj,3ac6mfv6anv2a7u5af0lkpxttwbhzq,3b1nlc6ug39wjrviu2p3xbf689spgy,yobtMzfj,2020-0188,2021-10-30,23:54:46,01:05:25,NA,incomplete,false,true,NA,NA,3,6,NA,blue,m_s_092.jpg,NA,NA,NA,NA,NA,pleasant,unpleasant,NA,NA,NA,NA,NA,left,1554.09999990463,true,NA,NA,NA,NA,NA,NA,NA,NA
yobtMzfj,3ac6mfv6anv2a7u5af0lkpxttwbhzq,3b1nlc6ug39wjrviu2p3xbf689spgy,yobtMzfj,2020-0188,2021-10-30,23:54:46,01:05:25,NA,incomplete,false,true,NA,NA,3,7,NA,blue,n_s_041.jpg,NA,NA,NA,NA,NA,pleasant,unpleasant,NA,NA,NA,NA,NA,left,1178.5,true,NA,NA,NA,NA,NA,NA,NA,NA
yobtMzfj,3ac6mfv6anv2a7u5af0lkpxttwbhzq,3b1nlc6ug39wjrviu2p3xbf689spgy,yobtMzfj,2020-0188,2021-10-30,23:54:46,01:05:25,NA,incomplete,false,true,NA,NA,3,8,NA,blue,n_l_117.jpg,NA,NA,NA,NA,NA,pleasant,unpleasant,NA,NA,NA,NA,NA,left,1112.90000009537,true,NA,NA,NA,NA,NA,NA,NA,NA
yobtMzfj,3ac6mfv6anv2a7u5af0lkpxttwbhzq,3b1nlc6ug39wjrviu2p3xbf689spgy,yobtMzfj,2020-0188,2021-10-30,23:54:46,01:05:25,NA,incomplete,false,true,NA,NA,3,9,NA,blue,n_s_025.jpg,NA,NA,NA,NA,NA,unpleasant,pleasant,NA,NA,NA,NA,NA,left,1388.29999995232,true,NA,NA,NA,NA,NA,NA,NA,NA
yobtMzfj,3ac6mfv6anv2a7u5af0lkpxttwbhzq,3b1nlc6ug39wjrviu2p3xbf689spgy,yobtMzfj,2020-0188,2021-10-30,23:54:46,01:05:25,NA,incomplete,false,true,NA,NA,3,10,NA,blue,n_s_116.jpg,NA,NA,NA,NA,NA,unpleasant,pleasant,NA,NA,NA,NA,NA,left,1065.29999995232,true,NA,NA,NA,NA,NA,NA,NA,NA
yobtMzfj,3ac6mfv6anv2a7u5af0lkpxttwbhzq,3b1nlc6ug39wjrviu2p3xbf689spgy,yobtMzfj,2020-0188,2021-10-30,23:54:46,01:05:25,NA,incomplete,false,true,NA,NA,3,11,NA,blue,m_s_087.jpg,NA,NA,NA,NA,NA,pleasant,unpleasant,NA,NA,NA,NA,NA,left,1461.30000019073,true,NA,NA,NA,NA,NA,NA,NA,NA
yobtMzfj,3ac6mfv6anv2a7u5af0lkpxttwbhzq,3b1nlc6ug39wjrviu2p3xbf689spgy,yobtMzfj,2020-0188,2021-10-30,23:54:46,01:05:25,NA,incomplete,false,true,NA,NA,3,12,NA,white,m_s_057.jpg,NA,NA,NA,NA,NA,pleasant,unpleasant,NA,NA,NA,NA,NA,left,1008,true,NA,NA,NA,NA,NA,NA,NA,NA
yobtMzfj,3ac6mfv6anv2a7u5af0lkpxttwbhzq,3b1nlc6ug39wjrviu2p3xbf689spgy,yobtMzfj,2020-0188,2021-10-30,23:54:46,01:05:25,NA,incomplete,false,true,NA,NA,3,13,NA,white,n_l_108.jpg,NA,NA,NA,NA,NA,pleasant,unpleasant,NA,NA,NA,NA,NA,left,1639,true,NA,NA,NA,NA,NA,NA,NA,NA
yobtMzfj,3ac6mfv6anv2a7u5af0lkpxttwbhzq,3b1nlc6ug39wjrviu2p3xbf689spgy,yobtMzfj,2020-0188,2021-10-30,23:54:46,01:05:25,NA,incomplete,false,true,NA,NA,3,14,NA,white,m_l_064.jpg,NA,NA,NA,NA,NA,pleasant,unpleasant,NA,NA,NA,NA,NA,left,1321.09999990463,true,NA,NA,NA,NA,NA,NA,NA,NA
yobtMzfj,3ac6mfv6anv2a7u5af0lkpxttwbhzq,3b1nlc6ug39wjrviu2p3xbf689spgy,yobtMzfj,2020-0188,2021-10-30,23:54:46,01:05:25,NA,incomplete,false,true,NA,NA,3,15,NA,white,m_s_013.jpg,NA,NA,NA,NA,NA,pleasant,unpleasant,NA,NA,NA,NA,NA,left,1870.20000004768,true,NA,NA,NA,NA,NA,NA,NA,NA
yobtMzfj,3ac6mfv6anv2a7u5af0lkpxttwbhzq,3b1nlc6ug39wjrviu2p3xbf689spgy,yobtMzfj,2020-0188,2021-10-30,23:54:46,01:05:25,NA,incomplete,false,true,NA,NA,3,16,NA,white,n_l_047.jpg,NA,NA,NA,NA,NA,pleasant,unpleasant,NA,NA,NA,NA,NA,left,1452.40000009537,true,NA,NA,NA,NA,NA,NA,NA,NA
yobtMzfj,3ac6mfv6anv2a7u5af0lkpxttwbhzq,3b1nlc6ug39wjrviu2p3xbf689spgy,yobtMzfj,2020-0188,2021-10-30,23:54:46,01:05:25,NA,incomplete,false,true,NA,NA,3,17,NA,white,n_s_079.jpg,NA,NA,NA,NA,NA,unpleasant,pleasant,NA,NA,NA,NA,NA,right,1427.09999990463,true,NA,NA,NA,NA,NA,NA,NA,NA
yobtMzfj,3ac6mfv6anv2a7u5af0lkpxttwbhzq,3b1nlc6ug39wjrviu2p3xbf689spgy,yobtMzfj,2020-0188,2021-10-30,23:54:46,01:05:25,NA,incomplete,false,true,NA,NA,3,18,NA,black,n_l_062.jpg,NA,NA,NA,NA,NA,unpleasant,pleasant,NA,NA,NA,NA,NA,right,1204.60000014305,true,NA,NA,NA,NA,NA,NA,NA,NA
yobtMzfj,3ac6mfv6anv2a7u5af0lkpxttwbhzq,3b1nlc6ug39wjrviu2p3xbf689spgy,yobtMzfj,2020-0188,2021-10-30,23:54:46,01:05:25,NA,incomplete,false,true,NA,NA,3,19,NA,black,n_l_044.jpg,NA,NA,NA,NA,NA,unpleasant,pleasant,NA,NA,NA,NA,NA,right,1052.09999990463,true,NA,NA,NA,NA,NA,NA,NA,NA
yobtMzfj,3ac6mfv6anv2a7u5af0lkpxttwbhzq,3b1nlc6ug39wjrviu2p3xbf689spgy,yobtMzfj,2020-0188,2021-10-30,23:54:46,01:05:25,NA,incomplete,false,true,NA,NA,3,20,NA,black,n_l_053.jpg,NA,NA,NA,NA,NA,pleasant,unpleasant,NA,NA,NA,NA,NA,left,1572.90000009537,true,NA,NA,NA,NA,NA,NA,NA,NA
yobtMzfj,3ac6mfv6anv2a7u5af0lkpxttwbhzq,3b1nlc6ug39wjrviu2p3xbf689spgy,yobtMzfj,2020-0188,2021-10-30,23:54:46,01:05:25,NA,incomplete,false,true,NA,NA,3,21,NA,black,n_s_020.jpg,NA,NA,NA,NA,NA,unpleasant,pleasant,NA,NA,NA,NA,NA,right,1218.70000004768,true,NA,NA,NA,NA,NA,NA,NA,NA
yobtMzfj,3ac6mfv6anv2a7u5af0lkpxttwbhzq,3b1nlc6ug39wjrviu2p3xbf689spgy,yobtMzfj,2020-0188,2021-10-30,23:54:46,01:05:25,NA,incomplete,false,true,NA,NA,3,22,NA,black,m_s_095.jpg,NA,NA,NA,NA,NA,pleasant,unpleasant,NA,NA,NA,NA,NA,left,1867.80000019073,true,NA,NA,NA,NA,NA,NA,NA,NA
yobtMzfj,3ac6mfv6anv2a7u5af0lkpxttwbhzq,3b1nlc6ug39wjrviu2p3xbf689spgy,yobtMzfj,2020-0188,2021-10-30,23:54:46,01:05:25,NA,incomplete,false,true,NA,NA,3,23,NA,black,n_l_040.jpg,NA,NA,NA,NA,NA,unpleasant,pleasant,NA,NA,NA,NA,NA,right,1081.5,true,NA,NA,NA,NA,NA,NA,NA,NA
yobtMzfj,3ac6mfv6anv2a7u5af0lkpxttwbhzq,3b1nlc6ug39wjrviu2p3xbf689spgy,yobtMzfj,2020-0188,2021-10-30,23:54:46,01:05:25,NA,incomplete,false,true,NA,NA,3,24,NA,yellow,n_l_029.jpg,NA,NA,NA,NA,NA,pleasant,unpleasant,NA,NA,NA,NA,NA,left,1154.5,true,NA,NA,NA,NA,NA,NA,NA,NA
yobtMzfj,3ac6mfv6anv2a7u5af0lkpxttwbhzq,3b1nlc6ug39wjrviu2p3xbf689spgy,yobtMzfj,2020-0188,2021-10-30,23:54:46,01:05:25,NA,incomplete,false,true,NA,NA,3,25,NA,yellow,m_l_002.jpg,NA,NA,NA,NA,NA,unpleasant,pleasant,NA,NA,NA,NA,NA,right,1896.80000019073,true,NA,NA,NA,NA,NA,NA,NA,NA
yobtMzfj,3ac6mfv6anv2a7u5af0lkpxttwbhzq,3b1nlc6ug39wjrviu2p3xbf689spgy,yobtMzfj,2020-0188,2021-10-30,23:54:46,01:05:25,NA,incomplete,false,true,NA,NA,3,26,NA,yellow,n_l_074.jpg,NA,NA,NA,NA,NA,pleasant,unpleasant,NA,NA,NA,NA,NA,left,1297.20000004768,true,NA,NA,NA,NA,NA,NA,NA,NA
yobtMzfj,3ac6mfv6anv2a7u5af0lkpxttwbhzq,3b1nlc6ug39wjrviu2p3xbf689spgy,yobtMzfj,2020-0188,2021-10-30,23:54:46,01:05:25,NA,incomplete,false,true,NA,NA,3,27,NA,yellow,m_s_030.jpg,NA,NA,NA,NA,NA,pleasant,unpleasant,NA,NA,NA,NA,NA,left,1180.70000004768,true,NA,NA,NA,NA,NA,NA,NA,NA
yobtMzfj,3ac6mfv6anv2a7u5af0lkpxttwbhzq,3b1nlc6ug39wjrviu2p3xbf689spgy,yobtMzfj,2020-0188,2021-10-30,23:54:46,01:05:25,NA,incomplete,false,true,NA,NA,3,28,NA,yellow,m_s_026.jpg,NA,NA,NA,NA,NA,unpleasant,pleasant,NA,NA,NA,NA,NA,right,1104.20000004768,true,NA,NA,NA,NA,NA,NA,NA,NA
yobtMzfj,3ac6mfv6anv2a7u5af0lkpxttwbhzq,3b1nlc6ug39wjrviu2p3xbf689spgy,yobtMzfj,2020-0188,2021-10-30,23:54:46,01:05:25,NA,incomplete,false,true,NA,NA,3,29,NA,yellow,n_s_058.jpg,NA,NA,NA,NA,NA,pleasant,unpleasant,NA,NA,NA,NA,NA,left,937.5,true,NA,NA,NA,NA,NA,NA,NA,NA
yobtMzfj,3ac6mfv6anv2a7u5af0lkpxttwbhzq,3b1nlc6ug39wjrviu2p3xbf689spgy,yobtMzfj,2020-0188,2021-10-30,23:54:46,01:05:25,NA,incomplete,false,true,NA,NA,3,30,NA,orange,n_l_016.jpg,NA,NA,NA,NA,NA,pleasant,unpleasant,NA,NA,NA,NA,NA,left,1029,true,NA,NA,NA,NA,NA,NA,NA,NA
yobtMzfj,3ac6mfv6anv2a7u5af0lkpxttwbhzq,3b1nlc6ug39wjrviu2p3xbf689spgy,yobtMzfj,2020-0188,2021-10-30,23:54:46,01:05:25,NA,incomplete,false,true,NA,NA,3,31,NA,orange,n_l_076.jpg,NA,NA,NA,NA,NA,unpleasant,pleasant,NA,NA,NA,NA,NA,right,932.699999809265,true,NA,NA,NA,NA,NA,NA,NA,NA
yobtMzfj,3ac6mfv6anv2a7u5af0lkpxttwbhzq,3b1nlc6ug39wjrviu2p3xbf689spgy,yobtMzfj,2020-0188,2021-10-30,23:54:46,01:05:25,NA,incomplete,false,true,NA,NA,3,32,NA,orange,m_l_105.jpg,NA,NA,NA,NA,NA,pleasant,unpleasant,NA,NA,NA,NA,NA,left,1028.10000014305,true,NA,NA,NA,NA,NA,NA,NA,NA
yobtMzfj,3ac6mfv6anv2a7u5af0lkpxttwbhzq,3b1nlc6ug39wjrviu2p3xbf689spgy,yobtMzfj,2020-0188,2021-10-30,23:54:46,01:05:25,NA,incomplete,false,true,NA,NA,3,33,NA,orange,m_s_059.jpg,NA,NA,NA,NA,NA,unpleasant,pleasant,NA,NA,NA,NA,NA,right,1197.60000014305,true,NA,NA,NA,NA,NA,NA,NA,NA
yobtMzfj,3ac6mfv6anv2a7u5af0lkpxttwbhzq,3b1nlc6ug39wjrviu2p3xbf689spgy,yobtMzfj,2020-0188,2021-10-30,23:54:46,01:05:25,NA,incomplete,false,true,NA,NA,3,34,NA,orange,m_l_057.jpg,NA,NA,NA,NA,NA,pleasant,unpleasant,NA,NA,NA,NA,NA,left,987.700000047684,true,NA,NA,NA,NA,NA,NA,NA,NA
yobtMzfj,3ac6mfv6anv2a7u5af0lkpxttwbhzq,3b1nlc6ug39wjrviu2p3xbf689spgy,yobtMzfj,2020-0188,2021-10-30,23:54:46,01:05:25,NA,incomplete,false,true,NA,NA,3,35,NA,orange,n_l_063.jpg,NA,NA,NA,NA,NA,pleasant,unpleasant,NA,NA,NA,NA,NA,left,1100,true,NA,NA,NA,NA,NA,NA,NA,NA
yobtMzfj,3ac6mfv6anv2a7u5af0lkpxttwbhzq,3b1nlc6ug39wjrviu2p3xbf689spgy,yobtMzfj,2020-0188,2021-10-30,23:54:46,01:05:25,NA,incomplete,false,NA,NA,true,3,0,NA,NA,NA,right,n_l_053.jpg,white,black,NA,NA,NA,NA,NA,NA,NA,NA,NA,NaN,NA,2628,right,1,NA,NA,NA,NA,NA
yobtMzfj,3ac6mfv6anv2a7u5af0lkpxttwbhzq,3b1nlc6ug39wjrviu2p3xbf689spgy,yobtMzfj,2020-0188,2021-10-30,23:54:46,01:05:25,NA,incomplete,false,NA,NA,true,3,1,NA,NA,NA,left,n_l_040.jpg,black,white,NA,NA,NA,NA,NA,NA,NA,NA,NA,NaN,NA,2771.7999999523163,left,1,NA,NA,NA,NA,NA
yobtMzfj,3ac6mfv6anv2a7u5af0lkpxttwbhzq,3b1nlc6ug39wjrviu2p3xbf689spgy,yobtMzfj,2020-0188,2021-10-30,23:54:46,01:05:25,NA,incomplete,false,NA,NA,true,3,2,NA,NA,NA,left,m_l_002.jpg,yellow,orange,NA,NA,NA,NA,NA,NA,NA,NA,NA,NaN,NA,2840.7999999523163,right,0,NA,NA,NA,NA,NA
yobtMzfj,3ac6mfv6anv2a7u5af0lkpxttwbhzq,3b1nlc6ug39wjrviu2p3xbf689spgy,yobtMzfj,2020-0188,2021-10-30,23:54:46,01:05:25,NA,incomplete,false,NA,NA,true,3,3,NA,NA,NA,left,n_s_058.jpg,yellow,orange,NA,NA,NA,NA,NA,NA,NA,NA,NA,NaN,NA,2274.600000143051,left,1,NA,NA,NA,NA,NA
yobtMzfj,3ac6mfv6anv2a7u5af0lkpxttwbhzq,3b1nlc6ug39wjrviu2p3xbf689spgy,yobtMzfj,2020-0188,2021-10-30,23:54:46,01:05:25,NA,incomplete,false,NA,NA,true,3,4,NA,NA,NA,left,m_s_026.jpg,yellow,black,NA,NA,NA,NA,NA,NA,NA,NA,NA,NaN,NA,3065.5,left,1,NA,NA,NA,NA,NA
yobtMzfj,3ac6mfv6anv2a7u5af0lkpxttwbhzq,3b1nlc6ug39wjrviu2p3xbf689spgy,yobtMzfj,2020-0188,2021-10-30,23:54:46,01:05:25,NA,incomplete,false,NA,NA,true,3,5,NA,NA,NA,right,m_l_111.jpg,blue,red,NA,NA,NA,NA,NA,NA,NA,NA,NA,NaN,NA,4308.899999856949,left,0,NA,NA,NA,NA,NA
yobtMzfj,3ac6mfv6anv2a7u5af0lkpxttwbhzq,3b1nlc6ug39wjrviu2p3xbf689spgy,yobtMzfj,2020-0188,2021-10-30,23:54:46,01:05:25,NA,incomplete,false,NA,NA,true,3,6,NA,NA,NA,right,m_l_023.jpg,blue,red,NA,NA,NA,NA,NA,NA,NA,NA,NA,NaN,NA,1586.7000000476837,right,1,NA,NA,NA,NA,NA
yobtMzfj,3ac6mfv6anv2a7u5af0lkpxttwbhzq,3b1nlc6ug39wjrviu2p3xbf689spgy,yobtMzfj,2020-0188,2021-10-30,23:54:46,01:05:25,NA,incomplete,false,NA,NA,true,3,7,NA,NA,NA,right,m_l_064.jpg,blue,white,NA,NA,NA,NA,NA,NA,NA,NA,NA,NaN,NA,2780.7000000476837,right,1,NA,NA,NA,NA,NA
yobtMzfj,3ac6mfv6anv2a7u5af0lkpxttwbhzq,3b1nlc6ug39wjrviu2p3xbf689spgy,yobtMzfj,2020-0188,2021-10-30,23:54:46,01:05:25,NA,incomplete,false,NA,NA,true,3,8,NA,NA,NA,right,n_l_117.jpg,red,blue,NA,NA,NA,NA,NA,NA,NA,NA,NA,NaN,NA,1168,right,1,NA,NA,NA,NA,NA
yobtMzfj,3ac6mfv6anv2a7u5af0lkpxttwbhzq,3b1nlc6ug39wjrviu2p3xbf689spgy,yobtMzfj,2020-0188,2021-10-30,23:54:46,01:05:25,NA,incomplete,false,NA,NA,true,3,9,NA,NA,NA,right,m_l_105.jpg,yellow,orange,NA,NA,NA,NA,NA,NA,NA,NA,NA,NaN,NA,2754.600000143051,right,1,NA,NA,NA,NA,NA
yobtMzfj,3ac6mfv6anv2a7u5af0lkpxttwbhzq,3b1nlc6ug39wjrviu2p3xbf689spgy,yobtMzfj,2020-0188,2021-10-30,23:54:46,01:05:25,NA,incomplete,false,NA,NA,true,3,10,NA,NA,NA,right,m_s_095.jpg,yellow,black,NA,NA,NA,NA,NA,NA,NA,NA,NA,NaN,NA,1718.5,right,1,NA,NA,NA,NA,NA
yobtMzfj,3ac6mfv6anv2a7u5af0lkpxttwbhzq,3b1nlc6ug39wjrviu2p3xbf689spgy,yobtMzfj,2020-0188,2021-10-30,23:54:46,01:05:25,NA,incomplete,false,NA,NA,true,3,11,NA,NA,NA,right,n_l_047.jpg,blue,white,NA,NA,NA,NA,NA,NA,NA,NA,NA,NaN,NA,1645.5999999046326,right,1,NA,NA,NA,NA,NA
yobtMzfj,3ac6mfv6anv2a7u5af0lkpxttwbhzq,3b1nlc6ug39wjrviu2p3xbf689spgy,yobtMzfj,2020-0188,2021-10-30,23:54:46,01:05:25,NA,incomplete,false,NA,NA,true,3,12,NA,NA,NA,left,n_l_076.jpg,orange,yellow,NA,NA,NA,NA,NA,NA,NA,NA,NA,NaN,NA,3796.5,right,0,NA,NA,NA,NA,NA
yobtMzfj,3ac6mfv6anv2a7u5af0lkpxttwbhzq,3b1nlc6ug39wjrviu2p3xbf689spgy,yobtMzfj,2020-0188,2021-10-30,23:54:46,01:05:25,NA,incomplete,false,NA,NA,true,3,13,NA,NA,NA,right,n_l_074.jpg,orange,yellow,NA,NA,NA,NA,NA,NA,NA,NA,NA,NaN,NA,2281.600000143051,right,1,NA,NA,NA,NA,NA
yobtMzfj,3ac6mfv6anv2a7u5af0lkpxttwbhzq,3b1nlc6ug39wjrviu2p3xbf689spgy,yobtMzfj,2020-0188,2021-10-30,23:54:46,01:05:25,NA,incomplete,false,NA,NA,true,3,14,NA,NA,NA,left,n_l_044.jpg,black,yellow,NA,NA,NA,NA,NA,NA,NA,NA,NA,NaN,NA,1491.5999999046326,left,1,NA,NA,NA,NA,NA
yobtMzfj,3ac6mfv6anv2a7u5af0lkpxttwbhzq,3b1nlc6ug39wjrviu2p3xbf689spgy,yobtMzfj,2020-0188,2021-10-30,23:54:46,01:05:25,NA,incomplete,false,NA,NA,true,3,15,NA,NA,NA,right,n_s_116.jpg,white,blue,NA,NA,NA,NA,NA,NA,NA,NA,NA,NaN,NA,2387.300000190735,right,1,NA,NA,NA,NA,NA
yobtMzfj,3ac6mfv6anv2a7u5af0lkpxttwbhzq,3b1nlc6ug39wjrviu2p3xbf689spgy,yobtMzfj,2020-0188,2021-10-30,23:54:46,01:05:25,NA,incomplete,false,NA,NA,true,3,16,NA,NA,NA,right,n_l_093.jpg,blue,red,NA,NA,NA,NA,NA,NA,NA,NA,NA,NaN,NA,1882.2999999523163,right,1,NA,NA,NA,NA,NA
yobtMzfj,3ac6mfv6anv2a7u5af0lkpxttwbhzq,3b1nlc6ug39wjrviu2p3xbf689spgy,yobtMzfj,2020-0188,2021-10-30,23:54:46,01:05:25,NA,incomplete,false,NA,NA,true,3,17,NA,NA,NA,left,n_s_041.jpg,blue,red,NA,NA,NA,NA,NA,NA,NA,NA,NA,NaN,NA,2998.2000000476837,right,0,NA,NA,NA,NA,NA
yobtMzfj,3ac6mfv6anv2a7u5af0lkpxttwbhzq,3b1nlc6ug39wjrviu2p3xbf689spgy,yobtMzfj,2020-0188,2021-10-30,23:54:46,01:05:25,NA,incomplete,false,NA,NA,true,3,18,NA,NA,NA,right,n_s_079.jpg,black,white,NA,NA,NA,NA,NA,NA,NA,NA,NA,NaN,NA,1453.2000000476837,right,1,NA,NA,NA,NA,NA
yobtMzfj,3ac6mfv6anv2a7u5af0lkpxttwbhzq,3b1nlc6ug39wjrviu2p3xbf689spgy,yobtMzfj,2020-0188,2021-10-30,23:54:46,01:05:25,NA,incomplete,false,NA,NA,true,3,19,NA,NA,NA,left,m_s_087.jpg,blue,white,NA,NA,NA,NA,NA,NA,NA,NA,NA,NaN,NA,2127.899999856949,right,0,NA,NA,NA,NA,NA
yobtMzfj,3ac6mfv6anv2a7u5af0lkpxttwbhzq,3b1nlc6ug39wjrviu2p3xbf689spgy,yobtMzfj,2020-0188,2021-10-30,23:54:46,01:05:25,NA,incomplete,false,NA,NA,true,3,20,NA,NA,NA,left,n_l_063.jpg,orange,yellow,NA,NA,NA,NA,NA,NA,NA,NA,NA,NaN,NA,1990.2000000476837,left,1,NA,NA,NA,NA,NA
yobtMzfj,3ac6mfv6anv2a7u5af0lkpxttwbhzq,3b1nlc6ug39wjrviu2p3xbf689spgy,yobtMzfj,2020-0188,2021-10-30,23:54:46,01:05:25,NA,incomplete,false,NA,NA,true,3,21,NA,NA,NA,right,n_l_108.jpg,black,white,NA,NA,NA,NA,NA,NA,NA,NA,NA,NaN,NA,2028.7000000476837,right,1,NA,NA,NA,NA,NA
yobtMzfj,3ac6mfv6anv2a7u5af0lkpxttwbhzq,3b1nlc6ug39wjrviu2p3xbf689spgy,yobtMzfj,2020-0188,2021-10-30,23:54:46,01:05:25,NA,incomplete,false,NA,true,NA,3,0,NA,NA,NA,left,NA,NA,NA,absent,NA,NA,m_s_095.jpg,black,n_l_074.jpg,yellow,between,NA,NaN,NA,NA,NA,NA,left,3600.2999999523163,1,3,2365.300000190735
yobtMzfj,3ac6mfv6anv2a7u5af0lkpxttwbhzq,3b1nlc6ug39wjrviu2p3xbf689spgy,yobtMzfj,2020-0188,2021-10-30,23:54:46,01:05:25,NA,incomplete,false,NA,true,NA,3,1,NA,NA,NA,left,NA,NA,NA,absent,NA,NA,n_s_041.jpg,blue,m_s_087.jpg,blue,within,NA,NaN,NA,NA,NA,NA,left,2546.300000190735,1,1,1118.1000001430511
yobtMzfj,3ac6mfv6anv2a7u5af0lkpxttwbhzq,3b1nlc6ug39wjrviu2p3xbf689spgy,yobtMzfj,2020-0188,2021-10-30,23:54:46,01:05:25,NA,incomplete,false,NA,true,NA,3,2,NA,NA,NA,right,NA,NA,NA,absent,NA,NA,n_l_040.jpg,black,n_l_044.jpg,black,within,NA,NaN,NA,NA,NA,NA,right,3426.4000000953674,1,2,1475.1000001430511
yobtMzfj,3ac6mfv6anv2a7u5af0lkpxttwbhzq,3b1nlc6ug39wjrviu2p3xbf689spgy,yobtMzfj,2020-0188,2021-10-30,23:54:46,01:05:25,NA,incomplete,false,NA,true,NA,3,3,NA,NA,NA,left,NA,NA,NA,absent,NA,NA,m_l_023.jpg,red,m_l_111.jpg,red,within,NA,NaN,NA,NA,NA,NA,left,2221.0999999046326,1,2,1329.3999998569489
yobtMzfj,3ac6mfv6anv2a7u5af0lkpxttwbhzq,3b1nlc6ug39wjrviu2p3xbf689spgy,yobtMzfj,2020-0188,2021-10-30,23:54:46,01:05:25,NA,incomplete,false,NA,true,NA,3,4,NA,NA,NA,left,NA,NA,NA,absent,NA,NA,n_l_047.jpg,white,n_l_053.jpg,black,between,NA,NaN,NA,NA,NA,NA,left,2312.2999999523163,1,2,1162.9000000953674
yobtMzfj,3ac6mfv6anv2a7u5af0lkpxttwbhzq,3b1nlc6ug39wjrviu2p3xbf689spgy,yobtMzfj,2020-0188,2021-10-30,23:54:46,01:05:25,NA,incomplete,false,NA,true,NA,3,5,NA,NA,NA,right,NA,NA,NA,absent,NA,NA,m_l_105.jpg,orange,m_s_026.jpg,yellow,between,NA,NaN,NA,NA,NA,NA,right,3391,1,1,1359.2999999523163
yobtMzfj,3ac6mfv6anv2a7u5af0lkpxttwbhzq,3b1nlc6ug39wjrviu2p3xbf689spgy,yobtMzfj,2020-0188,2021-10-30,23:54:46,01:05:25,NA,incomplete,false,NA,true,NA,3,6,NA,NA,NA,left,NA,NA,NA,absent,NA,NA,m_l_002.jpg,yellow,n_s_058.jpg,yellow,within,NA,NaN,NA,NA,NA,NA,right,5351.400000095367,0,2,1470.6000001430511
yobtMzfj,3ac6mfv6anv2a7u5af0lkpxttwbhzq,3b1nlc6ug39wjrviu2p3xbf689spgy,yobtMzfj,2020-0188,2021-10-30,23:54:46,01:05:25,NA,incomplete,false,NA,true,NA,3,7,NA,NA,NA,right,NA,NA,NA,absent,NA,NA,n_l_063.jpg,orange,n_l_076.jpg,orange,within,NA,NaN,NA,NA,NA,NA,right,3051,1,3,2157.7999999523163
yobtMzfj,3ac6mfv6anv2a7u5af0lkpxttwbhzq,3b1nlc6ug39wjrviu2p3xbf689spgy,yobtMzfj,2020-0188,2021-10-30,23:54:46,01:05:25,NA,incomplete,false,NA,true,NA,3,8,NA,NA,NA,left,NA,NA,NA,absent,NA,NA,n_s_116.jpg,blue,m_l_064.jpg,white,between,NA,NaN,NA,NA,NA,NA,right,6898.700000047684,0,1,2071.4000000953674
yobtMzfj,3ac6mfv6anv2a7u5af0lkpxttwbhzq,3b1nlc6ug39wjrviu2p3xbf689spgy,yobtMzfj,2020-0188,2021-10-30,23:54:46,01:05:25,NA,incomplete,false,NA,true,NA,3,9,NA,NA,NA,left,NA,NA,NA,absent,NA,NA,n_l_108.jpg,white,n_s_079.jpg,white,within,NA,NaN,NA,NA,NA,NA,left,4821.900000095367,1,0,2952.9000000953674
yobtMzfj,3ac6mfv6anv2a7u5af0lkpxttwbhzq,3b1nlc6ug39wjrviu2p3xbf689spgy,yobtMzfj,2020-0188,2021-10-30,23:54:46,01:05:25,NA,incomplete,false,NA,true,NA,3,10,NA,NA,NA,left,NA,NA,NA,absent,NA,NA,n_l_093.jpg,red,n_l_117.jpg,blue,between,NA,NaN,NA,NA,NA,NA,left,2661.5999999046326,1,1,2148.2000000476837
yobtMzfj,3ac6mfv6anv2a7u5af0lkpxttwbhzq,3b1nlc6ug39wjrviu2p3xbf689spgy,yobtMzfj,2020-0188,2021-10-30,23:54:46,01:05:25,NA,incomplete,false,true,NA,NA,4,0,NA,brown,m_l_047.jpg,NA,NA,NA,NA,NA,pleasant,unpleasant,NA,NA,NA,NA,NA,left,1956.40000009537,true,NA,NA,NA,NA,NA,NA,NA,NA
yobtMzfj,3ac6mfv6anv2a7u5af0lkpxttwbhzq,3b1nlc6ug39wjrviu2p3xbf689spgy,yobtMzfj,2020-0188,2021-10-30,23:54:46,01:05:25,NA,incomplete,false,true,NA,NA,4,1,NA,brown,n_s_109.jpg,NA,NA,NA,NA,NA,pleasant,unpleasant,NA,NA,NA,NA,NA,left,1531.5,true,NA,NA,NA,NA,NA,NA,NA,NA
yobtMzfj,3ac6mfv6anv2a7u5af0lkpxttwbhzq,3b1nlc6ug39wjrviu2p3xbf689spgy,yobtMzfj,2020-0188,2021-10-30,23:54:46,01:05:25,NA,incomplete,false,true,NA,NA,4,2,NA,brown,m_s_042.jpg,NA,NA,NA,NA,NA,pleasant,unpleasant,NA,NA,NA,NA,NA,left,1824.79999995232,true,NA,NA,NA,NA,NA,NA,NA,NA
yobtMzfj,3ac6mfv6anv2a7u5af0lkpxttwbhzq,3b1nlc6ug39wjrviu2p3xbf689spgy,yobtMzfj,2020-0188,2021-10-30,23:54:46,01:05:25,NA,incomplete,false,true,NA,NA,4,3,NA,brown,m_l_073.jpg,NA,NA,NA,NA,NA,pleasant,unpleasant,NA,NA,NA,NA,NA,right,1853.30000019073,true,NA,NA,NA,NA,NA,NA,NA,NA
yobtMzfj,3ac6mfv6anv2a7u5af0lkpxttwbhzq,3b1nlc6ug39wjrviu2p3xbf689spgy,yobtMzfj,2020-0188,2021-10-30,23:54:46,01:05:25,NA,incomplete,false,true,NA,NA,4,4,NA,brown,n_l_039.jpg,NA,NA,NA,NA,NA,unpleasant,pleasant,NA,NA,NA,NA,NA,right,1180.70000004768,true,NA,NA,NA,NA,NA,NA,NA,NA
yobtMzfj,3ac6mfv6anv2a7u5af0lkpxttwbhzq,3b1nlc6ug39wjrviu2p3xbf689spgy,yobtMzfj,2020-0188,2021-10-30,23:54:46,01:05:25,NA,incomplete,false,true,NA,NA,4,5,NA,brown,m_l_097.jpg,NA,NA,NA,NA,NA,pleasant,unpleasant,NA,NA,NA,NA,NA,left,1377.79999995232,true,NA,NA,NA,NA,NA,NA,NA,NA
yobtMzfj,3ac6mfv6anv2a7u5af0lkpxttwbhzq,3b1nlc6ug39wjrviu2p3xbf689spgy,yobtMzfj,2020-0188,2021-10-30,23:54:46,01:05:25,NA,incomplete,false,true,NA,NA,4,6,NA,red,n_l_021.jpg,NA,NA,NA,NA,NA,unpleasant,pleasant,NA,NA,NA,NA,NA,right,916.299999952316,true,NA,NA,NA,NA,NA,NA,NA,NA
yobtMzfj,3ac6mfv6anv2a7u5af0lkpxttwbhzq,3b1nlc6ug39wjrviu2p3xbf689spgy,yobtMzfj,2020-0188,2021-10-30,23:54:46,01:05:25,NA,incomplete,false,true,NA,NA,4,7,NA,red,m_s_099.jpg,NA,NA,NA,NA,NA,unpleasant,pleasant,NA,NA,NA,NA,NA,right,1774.20000004768,true,NA,NA,NA,NA,NA,NA,NA,NA
yobtMzfj,3ac6mfv6anv2a7u5af0lkpxttwbhzq,3b1nlc6ug39wjrviu2p3xbf689spgy,yobtMzfj,2020-0188,2021-10-30,23:54:46,01:05:25,NA,incomplete,false,true,NA,NA,4,8,NA,red,n_s_008.jpg,NA,NA,NA,NA,NA,pleasant,unpleasant,NA,NA,NA,NA,NA,left,1296.79999995232,true,NA,NA,NA,NA,NA,NA,NA,NA
yobtMzfj,3ac6mfv6anv2a7u5af0lkpxttwbhzq,3b1nlc6ug39wjrviu2p3xbf689spgy,yobtMzfj,2020-0188,2021-10-30,23:54:46,01:05:25,NA,incomplete,false,true,NA,NA,4,9,NA,red,n_s_042.jpg,NA,NA,NA,NA,NA,unpleasant,pleasant,NA,NA,NA,NA,NA,right,1501.29999995232,true,NA,NA,NA,NA,NA,NA,NA,NA
yobtMzfj,3ac6mfv6anv2a7u5af0lkpxttwbhzq,3b1nlc6ug39wjrviu2p3xbf689spgy,yobtMzfj,2020-0188,2021-10-30,23:54:46,01:05:25,NA,incomplete,false,true,NA,NA,4,10,NA,red,n_s_063.jpg,NA,NA,NA,NA,NA,unpleasant,pleasant,NA,NA,NA,NA,NA,right,1467.10000014305,true,NA,NA,NA,NA,NA,NA,NA,NA
yobtMzfj,3ac6mfv6anv2a7u5af0lkpxttwbhzq,3b1nlc6ug39wjrviu2p3xbf689spgy,yobtMzfj,2020-0188,2021-10-30,23:54:46,01:05:25,NA,incomplete,false,true,NA,NA,4,11,NA,red,n_l_052.jpg,NA,NA,NA,NA,NA,pleasant,unpleasant,NA,NA,NA,NA,NA,left,1780.59999990463,true,NA,NA,NA,NA,NA,NA,NA,NA
yobtMzfj,3ac6mfv6anv2a7u5af0lkpxttwbhzq,3b1nlc6ug39wjrviu2p3xbf689spgy,yobtMzfj,2020-0188,2021-10-30,23:54:46,01:05:25,NA,incomplete,false,true,NA,NA,4,12,NA,black,m_s_056.jpg,NA,NA,NA,NA,NA,unpleasant,pleasant,NA,NA,NA,NA,NA,right,2075.5,true,NA,NA,NA,NA,NA,NA,NA,NA
yobtMzfj,3ac6mfv6anv2a7u5af0lkpxttwbhzq,3b1nlc6ug39wjrviu2p3xbf689spgy,yobtMzfj,2020-0188,2021-10-30,23:54:46,01:05:25,NA,incomplete,false,true,NA,NA,4,13,NA,black,m_l_062.jpg,NA,NA,NA,NA,NA,unpleasant,pleasant,NA,NA,NA,NA,NA,right,2219,true,NA,NA,NA,NA,NA,NA,NA,NA
yobtMzfj,3ac6mfv6anv2a7u5af0lkpxttwbhzq,3b1nlc6ug39wjrviu2p3xbf689spgy,yobtMzfj,2020-0188,2021-10-30,23:54:46,01:05:25,NA,incomplete,false,true,NA,NA,4,14,NA,black,m_l_066.jpg,NA,NA,NA,NA,NA,unpleasant,pleasant,NA,NA,NA,NA,NA,right,1620.90000009537,true,NA,NA,NA,NA,NA,NA,NA,NA
yobtMzfj,3ac6mfv6anv2a7u5af0lkpxttwbhzq,3b1nlc6ug39wjrviu2p3xbf689spgy,yobtMzfj,2020-0188,2021-10-30,23:54:46,01:05:25,NA,incomplete,false,true,NA,NA,4,15,NA,black,m_l_053.jpg,NA,NA,NA,NA,NA,unpleasant,pleasant,NA,NA,NA,NA,NA,right,1698.89999985695,true,NA,NA,NA,NA,NA,NA,NA,NA
yobtMzfj,3ac6mfv6anv2a7u5af0lkpxttwbhzq,3b1nlc6ug39wjrviu2p3xbf689spgy,yobtMzfj,2020-0188,2021-10-30,23:54:46,01:05:25,NA,incomplete,false,true,NA,NA,4,16,NA,black,m_s_040.jpg,NA,NA,NA,NA,NA,pleasant,unpleasant,NA,NA,NA,NA,NA,left,2724.5,true,NA,NA,NA,NA,NA,NA,NA,NA
yobtMzfj,3ac6mfv6anv2a7u5af0lkpxttwbhzq,3b1nlc6ug39wjrviu2p3xbf689spgy,yobtMzfj,2020-0188,2021-10-30,23:54:46,01:05:25,NA,incomplete,false,true,NA,NA,4,17,NA,black,m_s_018.jpg,NA,NA,NA,NA,NA,unpleasant,pleasant,NA,NA,NA,NA,NA,left,2361.20000004768,true,NA,NA,NA,NA,NA,NA,NA,NA
yobtMzfj,3ac6mfv6anv2a7u5af0lkpxttwbhzq,3b1nlc6ug39wjrviu2p3xbf689spgy,yobtMzfj,2020-0188,2021-10-30,23:54:46,01:05:25,NA,incomplete,false,true,NA,NA,4,18,NA,gray,n_l_014.jpg,NA,NA,NA,NA,NA,pleasant,unpleasant,NA,NA,NA,NA,NA,left,1404.29999995232,true,NA,NA,NA,NA,NA,NA,NA,NA
yobtMzfj,3ac6mfv6anv2a7u5af0lkpxttwbhzq,3b1nlc6ug39wjrviu2p3xbf689spgy,yobtMzfj,2020-0188,2021-10-30,23:54:46,01:05:25,NA,incomplete,false,true,NA,NA,4,19,NA,gray,n_s_040.jpg,NA,NA,NA,NA,NA,unpleasant,pleasant,NA,NA,NA,NA,NA,left,1612.79999995232,true,NA,NA,NA,NA,NA,NA,NA,NA
yobtMzfj,3ac6mfv6anv2a7u5af0lkpxttwbhzq,3b1nlc6ug39wjrviu2p3xbf689spgy,yobtMzfj,2020-0188,2021-10-30,23:54:46,01:05:25,NA,incomplete,false,true,NA,NA,4,20,NA,gray,m_s_009.jpg,NA,NA,NA,NA,NA,unpleasant,pleasant,NA,NA,NA,NA,NA,left,1704.59999990463,true,NA,NA,NA,NA,NA,NA,NA,NA
yobtMzfj,3ac6mfv6anv2a7u5af0lkpxttwbhzq,3b1nlc6ug39wjrviu2p3xbf689spgy,yobtMzfj,2020-0188,2021-10-30,23:54:46,01:05:25,NA,incomplete,false,true,NA,NA,4,21,NA,gray,m_s_101.jpg,NA,NA,NA,NA,NA,unpleasant,pleasant,NA,NA,NA,NA,NA,right,1145,true,NA,NA,NA,NA,NA,NA,NA,NA
yobtMzfj,3ac6mfv6anv2a7u5af0lkpxttwbhzq,3b1nlc6ug39wjrviu2p3xbf689spgy,yobtMzfj,2020-0188,2021-10-30,23:54:46,01:05:25,NA,incomplete,false,true,NA,NA,4,22,NA,gray,m_l_102.jpg,NA,NA,NA,NA,NA,pleasant,unpleasant,NA,NA,NA,NA,NA,left,2463.60000014305,true,NA,NA,NA,NA,NA,NA,NA,NA
yobtMzfj,3ac6mfv6anv2a7u5af0lkpxttwbhzq,3b1nlc6ug39wjrviu2p3xbf689spgy,yobtMzfj,2020-0188,2021-10-30,23:54:46,01:05:25,NA,incomplete,false,true,NA,NA,4,23,NA,gray,n_l_051.jpg,NA,NA,NA,NA,NA,pleasant,unpleasant,NA,NA,NA,NA,NA,left,2344.40000009537,true,NA,NA,NA,NA,NA,NA,NA,NA
yobtMzfj,3ac6mfv6anv2a7u5af0lkpxttwbhzq,3b1nlc6ug39wjrviu2p3xbf689spgy,yobtMzfj,2020-0188,2021-10-30,23:54:46,01:05:25,NA,incomplete,false,true,NA,NA,4,24,NA,yellow,m_s_044.jpg,NA,NA,NA,NA,NA,pleasant,unpleasant,NA,NA,NA,NA,NA,left,1742.20000004768,true,NA,NA,NA,NA,NA,NA,NA,NA
yobtMzfj,3ac6mfv6anv2a7u5af0lkpxttwbhzq,3b1nlc6ug39wjrviu2p3xbf689spgy,yobtMzfj,2020-0188,2021-10-30,23:54:46,01:05:25,NA,incomplete,false,true,NA,NA,4,25,NA,yellow,n_l_115.jpg,NA,NA,NA,NA,NA,unpleasant,pleasant,NA,NA,NA,NA,NA,right,1271.70000004768,true,NA,NA,NA,NA,NA,NA,NA,NA
yobtMzfj,3ac6mfv6anv2a7u5af0lkpxttwbhzq,3b1nlc6ug39wjrviu2p3xbf689spgy,yobtMzfj,2020-0188,2021-10-30,23:54:46,01:05:25,NA,incomplete,false,true,NA,NA,4,26,NA,yellow,m_s_051.jpg,NA,NA,NA,NA,NA,unpleasant,pleasant,NA,NA,NA,NA,NA,right,1627.40000009537,true,NA,NA,NA,NA,NA,NA,NA,NA
yobtMzfj,3ac6mfv6anv2a7u5af0lkpxttwbhzq,3b1nlc6ug39wjrviu2p3xbf689spgy,yobtMzfj,2020-0188,2021-10-30,23:54:46,01:05:25,NA,incomplete,false,true,NA,NA,4,27,NA,yellow,n_s_010.jpg,NA,NA,NA,NA,NA,unpleasant,pleasant,NA,NA,NA,NA,NA,right,1288.89999985695,true,NA,NA,NA,NA,NA,NA,NA,NA
yobtMzfj,3ac6mfv6anv2a7u5af0lkpxttwbhzq,3b1nlc6ug39wjrviu2p3xbf689spgy,yobtMzfj,2020-0188,2021-10-30,23:54:46,01:05:25,NA,incomplete,false,true,NA,NA,4,28,NA,yellow,n_l_079.jpg,NA,NA,NA,NA,NA,unpleasant,pleasant,NA,NA,NA,NA,NA,right,1123.90000009537,true,NA,NA,NA,NA,NA,NA,NA,NA
yobtMzfj,3ac6mfv6anv2a7u5af0lkpxttwbhzq,3b1nlc6ug39wjrviu2p3xbf689spgy,yobtMzfj,2020-0188,2021-10-30,23:54:46,01:05:25,NA,incomplete,false,true,NA,NA,4,29,NA,yellow,n_s_031.jpg,NA,NA,NA,NA,NA,pleasant,unpleasant,NA,NA,NA,NA,NA,left,1545.29999995232,true,NA,NA,NA,NA,NA,NA,NA,NA
yobtMzfj,3ac6mfv6anv2a7u5af0lkpxttwbhzq,3b1nlc6ug39wjrviu2p3xbf689spgy,yobtMzfj,2020-0188,2021-10-30,23:54:46,01:05:25,NA,incomplete,false,true,NA,NA,4,30,NA,green,n_s_087.jpg,NA,NA,NA,NA,NA,unpleasant,pleasant,NA,NA,NA,NA,NA,right,1278.40000009537,true,NA,NA,NA,NA,NA,NA,NA,NA
yobtMzfj,3ac6mfv6anv2a7u5af0lkpxttwbhzq,3b1nlc6ug39wjrviu2p3xbf689spgy,yobtMzfj,2020-0188,2021-10-30,23:54:46,01:05:25,NA,incomplete,false,true,NA,NA,4,31,NA,green,m_l_055.jpg,NA,NA,NA,NA,NA,unpleasant,pleasant,NA,NA,NA,NA,NA,right,2082,true,NA,NA,NA,NA,NA,NA,NA,NA
yobtMzfj,3ac6mfv6anv2a7u5af0lkpxttwbhzq,3b1nlc6ug39wjrviu2p3xbf689spgy,yobtMzfj,2020-0188,2021-10-30,23:54:46,01:05:25,NA,incomplete,false,true,NA,NA,4,32,NA,green,n_s_110.jpg,NA,NA,NA,NA,NA,pleasant,unpleasant,NA,NA,NA,NA,NA,left,1735.79999995232,true,NA,NA,NA,NA,NA,NA,NA,NA
yobtMzfj,3ac6mfv6anv2a7u5af0lkpxttwbhzq,3b1nlc6ug39wjrviu2p3xbf689spgy,yobtMzfj,2020-0188,2021-10-30,23:54:46,01:05:25,NA,incomplete,false,true,NA,NA,4,33,NA,green,m_s_094.jpg,NA,NA,NA,NA,NA,pleasant,unpleasant,NA,NA,NA,NA,NA,left,1657.40000009537,true,NA,NA,NA,NA,NA,NA,NA,NA
yobtMzfj,3ac6mfv6anv2a7u5af0lkpxttwbhzq,3b1nlc6ug39wjrviu2p3xbf689spgy,yobtMzfj,2020-0188,2021-10-30,23:54:46,01:05:25,NA,incomplete,false,true,NA,NA,4,34,NA,green,n_s_098.jpg,NA,NA,NA,NA,NA,unpleasant,pleasant,NA,NA,NA,NA,NA,right,1448.90000009537,true,NA,NA,NA,NA,NA,NA,NA,NA
yobtMzfj,3ac6mfv6anv2a7u5af0lkpxttwbhzq,3b1nlc6ug39wjrviu2p3xbf689spgy,yobtMzfj,2020-0188,2021-10-30,23:54:46,01:05:25,NA,incomplete,false,true,NA,NA,4,35,NA,green,m_l_059.jpg,NA,NA,NA,NA,NA,pleasant,unpleasant,NA,NA,NA,NA,NA,left,1667.5,true,NA,NA,NA,NA,NA,NA,NA,NA
yobtMzfj,3ac6mfv6anv2a7u5af0lkpxttwbhzq,3b1nlc6ug39wjrviu2p3xbf689spgy,yobtMzfj,2020-0188,2021-10-30,23:54:46,01:05:25,NA,incomplete,false,NA,NA,true,4,0,NA,NA,NA,right,m_l_097.jpg,red,brown,NA,NA,NA,NA,NA,NA,NA,NA,NA,NaN,NA,2079.2000000476837,right,1,NA,NA,NA,NA,NA
yobtMzfj,3ac6mfv6anv2a7u5af0lkpxttwbhzq,3b1nlc6ug39wjrviu2p3xbf689spgy,yobtMzfj,2020-0188,2021-10-30,23:54:46,01:05:25,NA,incomplete,false,NA,NA,true,4,1,NA,NA,NA,left,m_s_018.jpg,black,red,NA,NA,NA,NA,NA,NA,NA,NA,NA,NaN,NA,2391.0999999046326,left,1,NA,NA,NA,NA,NA
yobtMzfj,3ac6mfv6anv2a7u5af0lkpxttwbhzq,3b1nlc6ug39wjrviu2p3xbf689spgy,yobtMzfj,2020-0188,2021-10-30,23:54:46,01:05:25,NA,incomplete,false,NA,NA,true,4,2,NA,NA,NA,left,n_s_031.jpg,yellow,gray,NA,NA,NA,NA,NA,NA,NA,NA,NA,NaN,NA,2307.5,right,0,NA,NA,NA,NA,NA
yobtMzfj,3ac6mfv6anv2a7u5af0lkpxttwbhzq,3b1nlc6ug39wjrviu2p3xbf689spgy,yobtMzfj,2020-0188,2021-10-30,23:54:46,01:05:25,NA,incomplete,false,NA,NA,true,4,3,NA,NA,NA,right,n_l_052.jpg,black,red,NA,NA,NA,NA,NA,NA,NA,NA,NA,NaN,NA,1538.8999998569489,right,1,NA,NA,NA,NA,NA
yobtMzfj,3ac6mfv6anv2a7u5af0lkpxttwbhzq,3b1nlc6ug39wjrviu2p3xbf689spgy,yobtMzfj,2020-0188,2021-10-30,23:54:46,01:05:25,NA,incomplete,false,NA,NA,true,4,4,NA,NA,NA,left,m_s_009.jpg,gray,yellow,NA,NA,NA,NA,NA,NA,NA,NA,NA,NaN,NA,1785.6000001430511,left,1,NA,NA,NA,NA,NA
yobtMzfj,3ac6mfv6anv2a7u5af0lkpxttwbhzq,3b1nlc6ug39wjrviu2p3xbf689spgy,yobtMzfj,2020-0188,2021-10-30,23:54:46,01:05:25,NA,incomplete,false,NA,NA,true,4,5,NA,NA,NA,left,n_l_079.jpg,yellow,green,NA,NA,NA,NA,NA,NA,NA,NA,NA,NaN,NA,3349,left,1,NA,NA,NA,NA,NA
yobtMzfj,3ac6mfv6anv2a7u5af0lkpxttwbhzq,3b1nlc6ug39wjrviu2p3xbf689spgy,yobtMzfj,2020-0188,2021-10-30,23:54:46,01:05:25,NA,incomplete,false,NA,NA,true,4,6,NA,NA,NA,right,m_s_099.jpg,brown,red,NA,NA,NA,NA,NA,NA,NA,NA,NA,NaN,NA,1300.5,right,1,NA,NA,NA,NA,NA
yobtMzfj,3ac6mfv6anv2a7u5af0lkpxttwbhzq,3b1nlc6ug39wjrviu2p3xbf689spgy,yobtMzfj,2020-0188,2021-10-30,23:54:46,01:05:25,NA,incomplete,false,NA,NA,true,4,7,NA,NA,NA,right,m_l_102.jpg,black,gray,NA,NA,NA,NA,NA,NA,NA,NA,NA,NaN,NA,2244.2999999523163,right,1,NA,NA,NA,NA,NA
yobtMzfj,3ac6mfv6anv2a7u5af0lkpxttwbhzq,3b1nlc6ug39wjrviu2p3xbf689spgy,yobtMzfj,2020-0188,2021-10-30,23:54:46,01:05:25,NA,incomplete,false,NA,NA,true,4,8,NA,NA,NA,left,m_l_066.jpg,black,gray,NA,NA,NA,NA,NA,NA,NA,NA,NA,NaN,NA,1433.6000001430511,left,1,NA,NA,NA,NA,NA
yobtMzfj,3ac6mfv6anv2a7u5af0lkpxttwbhzq,3b1nlc6ug39wjrviu2p3xbf689spgy,yobtMzfj,2020-0188,2021-10-30,23:54:46,01:05:25,NA,incomplete,false,NA,NA,true,4,9,NA,NA,NA,left,n_s_063.jpg,red,brown,NA,NA,NA,NA,NA,NA,NA,NA,NA,NaN,NA,4401.299999952316,right,0,NA,NA,NA,NA,NA
yobtMzfj,3ac6mfv6anv2a7u5af0lkpxttwbhzq,3b1nlc6ug39wjrviu2p3xbf689spgy,yobtMzfj,2020-0188,2021-10-30,23:54:46,01:05:25,NA,incomplete,false,NA,NA,true,4,10,NA,NA,NA,right,n_l_115.jpg,gray,yellow,NA,NA,NA,NA,NA,NA,NA,NA,NA,NaN,NA,1594.7999999523163,right,1,NA,NA,NA,NA,NA
yobtMzfj,3ac6mfv6anv2a7u5af0lkpxttwbhzq,3b1nlc6ug39wjrviu2p3xbf689spgy,yobtMzfj,2020-0188,2021-10-30,23:54:46,01:05:25,NA,incomplete,false,NA,NA,true,4,11,NA,NA,NA,left,m_s_040.jpg,black,red,NA,NA,NA,NA,NA,NA,NA,NA,NA,NaN,NA,1385.5999999046326,left,1,NA,NA,NA,NA,NA
yobtMzfj,3ac6mfv6anv2a7u5af0lkpxttwbhzq,3b1nlc6ug39wjrviu2p3xbf689spgy,yobtMzfj,2020-0188,2021-10-30,23:54:46,01:05:25,NA,incomplete,false,NA,NA,true,4,12,NA,NA,NA,left,m_l_055.jpg,green,yellow,NA,NA,NA,NA,NA,NA,NA,NA,NA,NaN,NA,2165.800000190735,left,1,NA,NA,NA,NA,NA
yobtMzfj,3ac6mfv6anv2a7u5af0lkpxttwbhzq,3b1nlc6ug39wjrviu2p3xbf689spgy,yobtMzfj,2020-0188,2021-10-30,23:54:46,01:05:25,NA,incomplete,false,NA,NA,true,4,13,NA,NA,NA,left,n_s_008.jpg,red,black,NA,NA,NA,NA,NA,NA,NA,NA,NA,NaN,NA,1688.5999999046326,left,1,NA,NA,NA,NA,NA
yobtMzfj,3ac6mfv6anv2a7u5af0lkpxttwbhzq,3b1nlc6ug39wjrviu2p3xbf689spgy,yobtMzfj,2020-0188,2021-10-30,23:54:46,01:05:25,NA,incomplete,false,NA,NA,true,4,14,NA,NA,NA,right,m_s_051.jpg,green,yellow,NA,NA,NA,NA,NA,NA,NA,NA,NA,NaN,NA,1623.2000000476837,right,1,NA,NA,NA,NA,NA
yobtMzfj,3ac6mfv6anv2a7u5af0lkpxttwbhzq,3b1nlc6ug39wjrviu2p3xbf689spgy,yobtMzfj,2020-0188,2021-10-30,23:54:46,01:05:25,NA,incomplete,false,NA,NA,true,4,15,NA,NA,NA,right,n_l_039.jpg,red,brown,NA,NA,NA,NA,NA,NA,NA,NA,NA,NaN,NA,1653.7000000476837,left,0,NA,NA,NA,NA,NA
yobtMzfj,3ac6mfv6anv2a7u5af0lkpxttwbhzq,3b1nlc6ug39wjrviu2p3xbf689spgy,yobtMzfj,2020-0188,2021-10-30,23:54:46,01:05:25,NA,incomplete,false,NA,NA,true,4,16,NA,NA,NA,right,n_s_109.jpg,red,brown,NA,NA,NA,NA,NA,NA,NA,NA,NA,NaN,NA,1191.0999999046326,right,1,NA,NA,NA,NA,NA
yobtMzfj,3ac6mfv6anv2a7u5af0lkpxttwbhzq,3b1nlc6ug39wjrviu2p3xbf689spgy,yobtMzfj,2020-0188,2021-10-30,23:54:46,01:05:25,NA,incomplete,false,NA,NA,true,4,17,NA,NA,NA,right,m_l_062.jpg,gray,black,NA,NA,NA,NA,NA,NA,NA,NA,NA,NaN,NA,3750.5,left,0,NA,NA,NA,NA,NA
yobtMzfj,3ac6mfv6anv2a7u5af0lkpxttwbhzq,3b1nlc6ug39wjrviu2p3xbf689spgy,yobtMzfj,2020-0188,2021-10-30,23:54:46,01:05:25,NA,incomplete,false,NA,NA,true,4,18,NA,NA,NA,right,m_l_059.jpg,yellow,green,NA,NA,NA,NA,NA,NA,NA,NA,NA,NaN,NA,1162,right,1,NA,NA,NA,NA,NA
yobtMzfj,3ac6mfv6anv2a7u5af0lkpxttwbhzq,3b1nlc6ug39wjrviu2p3xbf689spgy,yobtMzfj,2020-0188,2021-10-30,23:54:46,01:05:25,NA,incomplete,false,NA,NA,true,4,19,NA,NA,NA,right,n_l_051.jpg,black,gray,NA,NA,NA,NA,NA,NA,NA,NA,NA,NaN,NA,1506.5,right,1,NA,NA,NA,NA,NA
yobtMzfj,3ac6mfv6anv2a7u5af0lkpxttwbhzq,3b1nlc6ug39wjrviu2p3xbf689spgy,yobtMzfj,2020-0188,2021-10-30,23:54:46,01:05:25,NA,incomplete,false,NA,NA,true,4,20,NA,NA,NA,right,n_s_110.jpg,yellow,green,NA,NA,NA,NA,NA,NA,NA,NA,NA,NaN,NA,2236.9000000953674,right,1,NA,NA,NA,NA,NA
yobtMzfj,3ac6mfv6anv2a7u5af0lkpxttwbhzq,3b1nlc6ug39wjrviu2p3xbf689spgy,yobtMzfj,2020-0188,2021-10-30,23:54:46,01:05:25,NA,incomplete,false,NA,NA,true,4,21,NA,NA,NA,right,n_s_040.jpg,black,gray,NA,NA,NA,NA,NA,NA,NA,NA,NA,NaN,NA,1586.5999999046326,left,0,NA,NA,NA,NA,NA
yobtMzfj,3ac6mfv6anv2a7u5af0lkpxttwbhzq,3b1nlc6ug39wjrviu2p3xbf689spgy,yobtMzfj,2020-0188,2021-10-30,23:54:46,01:05:25,NA,incomplete,false,NA,true,NA,4,0,NA,NA,NA,left,NA,NA,NA,absent,NA,NA,n_s_063.jpg,red,m_l_066.jpg,black,between,NA,NaN,NA,NA,NA,NA,right,4336.899999856949,0,1,2655.5
yobtMzfj,3ac6mfv6anv2a7u5af0lkpxttwbhzq,3b1nlc6ug39wjrviu2p3xbf689spgy,yobtMzfj,2020-0188,2021-10-30,23:54:46,01:05:25,NA,incomplete,false,NA,true,NA,4,1,NA,NA,NA,left,NA,NA,NA,absent,NA,NA,n_s_109.jpg,brown,m_l_097.jpg,brown,within,NA,NaN,NA,NA,NA,NA,left,2583.5,1,0,1719.4000000953674
yobtMzfj,3ac6mfv6anv2a7u5af0lkpxttwbhzq,3b1nlc6ug39wjrviu2p3xbf689spgy,yobtMzfj,2020-0188,2021-10-30,23:54:46,01:05:25,NA,incomplete,false,NA,true,NA,4,2,NA,NA,NA,right,NA,NA,NA,absent,NA,NA,m_s_018.jpg,black,m_l_062.jpg,black,within,NA,NaN,NA,NA,NA,NA,right,2483.5999999046326,1,2,1817.0999999046326
yobtMzfj,3ac6mfv6anv2a7u5af0lkpxttwbhzq,3b1nlc6ug39wjrviu2p3xbf689spgy,yobtMzfj,2020-0188,2021-10-30,23:54:46,01:05:25,NA,incomplete,false,NA,true,NA,4,3,NA,NA,NA,left,NA,NA,NA,absent,NA,NA,n_l_115.jpg,yellow,n_s_031.jpg,yellow,within,NA,NaN,NA,NA,NA,NA,left,2906.7999999523163,1,1,2395.2000000476837
yobtMzfj,3ac6mfv6anv2a7u5af0lkpxttwbhzq,3b1nlc6ug39wjrviu2p3xbf689spgy,yobtMzfj,2020-0188,2021-10-30,23:54:46,01:05:25,NA,incomplete,false,NA,true,NA,4,4,NA,NA,NA,right,NA,NA,NA,absent,NA,NA,m_s_009.jpg,gray,m_s_040.jpg,black,between,NA,NaN,NA,NA,NA,NA,right,2487.9000000953674,1,2,2172.5
yobtMzfj,3ac6mfv6anv2a7u5af0lkpxttwbhzq,3b1nlc6ug39wjrviu2p3xbf689spgy,yobtMzfj,2020-0188,2021-10-30,23:54:46,01:05:25,NA,incomplete,false,NA,true,NA,4,5,NA,NA,NA,right,NA,NA,NA,absent,NA,NA,n_l_052.jpg,red,m_s_099.jpg,red,within,NA,NaN,NA,NA,NA,NA,right,4563.600000143051,1,0,1686
yobtMzfj,3ac6mfv6anv2a7u5af0lkpxttwbhzq,3b1nlc6ug39wjrviu2p3xbf689spgy,yobtMzfj,2020-0188,2021-10-30,23:54:46,01:05:25,NA,incomplete,false,NA,true,NA,4,6,NA,NA,NA,left,NA,NA,NA,absent,NA,NA,m_l_102.jpg,gray,m_s_051.jpg,yellow,between,NA,NaN,NA,NA,NA,NA,right,2327,0,2,1802.5999999046326
yobtMzfj,3ac6mfv6anv2a7u5af0lkpxttwbhzq,3b1nlc6ug39wjrviu2p3xbf689spgy,yobtMzfj,2020-0188,2021-10-30,23:54:46,01:05:25,NA,incomplete,false,NA,true,NA,4,7,NA,NA,NA,right,NA,NA,NA,absent,NA,NA,n_l_051.jpg,gray,n_s_040.jpg,gray,within,NA,NaN,NA,NA,NA,NA,right,4630.400000095367,1,2,1954.3999998569489
yobtMzfj,3ac6mfv6anv2a7u5af0lkpxttwbhzq,3b1nlc6ug39wjrviu2p3xbf689spgy,yobtMzfj,2020-0188,2021-10-30,23:54:46,01:05:25,NA,incomplete,false,NA,true,NA,4,8,NA,NA,NA,right,NA,NA,NA,absent,NA,NA,n_s_008.jpg,red,n_l_039.jpg,brown,between,NA,NaN,NA,NA,NA,NA,left,2715.4000000953674,0,1,3891.600000143051
yobtMzfj,3ac6mfv6anv2a7u5af0lkpxttwbhzq,3b1nlc6ug39wjrviu2p3xbf689spgy,yobtMzfj,2020-0188,2021-10-30,23:54:46,01:05:25,NA,incomplete,false,NA,true,NA,4,9,NA,NA,NA,left,NA,NA,NA,absent,NA,NA,m_l_055.jpg,green,m_l_059.jpg,green,within,NA,NaN,NA,NA,NA,NA,left,5293.900000095367,1,2,1701.5
yobtMzfj,3ac6mfv6anv2a7u5af0lkpxttwbhzq,3b1nlc6ug39wjrviu2p3xbf689spgy,yobtMzfj,2020-0188,2021-10-30,23:54:46,01:05:25,NA,incomplete,false,NA,true,NA,4,10,NA,NA,NA,left,NA,NA,NA,absent,NA,NA,n_l_079.jpg,yellow,n_s_110.jpg,green,between,NA,NaN,NA,NA,NA,NA,right,3618.0999999046326,0,2,2609.800000190735
yobtMzfj,3ac6mfv6anv2a7u5af0lkpxttwbhzq,3b1nlc6ug39wjrviu2p3xbf689spgy,yobtMzfj,2020-0188,2021-10-30,23:54:46,01:05:25,NA,incomplete,false,true,NA,NA,5,0,NA,blue,m_l_003.jpg,NA,NA,NA,NA,NA,pleasant,unpleasant,NA,NA,NA,NA,NA,left,1693.30000019073,true,NA,NA,NA,NA,NA,NA,NA,NA
yobtMzfj,3ac6mfv6anv2a7u5af0lkpxttwbhzq,3b1nlc6ug39wjrviu2p3xbf689spgy,yobtMzfj,2020-0188,2021-10-30,23:54:46,01:05:25,NA,incomplete,false,true,NA,NA,5,1,NA,blue,n_l_070.jpg,NA,NA,NA,NA,NA,pleasant,unpleasant,NA,NA,NA,NA,NA,left,1171.29999995232,true,NA,NA,NA,NA,NA,NA,NA,NA
yobtMzfj,3ac6mfv6anv2a7u5af0lkpxttwbhzq,3b1nlc6ug39wjrviu2p3xbf689spgy,yobtMzfj,2020-0188,2021-10-30,23:54:46,01:05:25,NA,incomplete,false,true,NA,NA,5,2,NA,blue,m_l_092.jpg,NA,NA,NA,NA,NA,unpleasant,pleasant,NA,NA,NA,NA,NA,right,2255.20000004768,true,NA,NA,NA,NA,NA,NA,NA,NA
yobtMzfj,3ac6mfv6anv2a7u5af0lkpxttwbhzq,3b1nlc6ug39wjrviu2p3xbf689spgy,yobtMzfj,2020-0188,2021-10-30,23:54:46,01:05:25,NA,incomplete,false,true,NA,NA,5,3,NA,blue,m_s_108.jpg,NA,NA,NA,NA,NA,pleasant,unpleasant,NA,NA,NA,NA,NA,right,3064.30000019073,true,NA,NA,NA,NA,NA,NA,NA,NA
yobtMzfj,3ac6mfv6anv2a7u5af0lkpxttwbhzq,3b1nlc6ug39wjrviu2p3xbf689spgy,yobtMzfj,2020-0188,2021-10-30,23:54:46,01:05:25,NA,incomplete,false,true,NA,NA,5,4,NA,blue,n_l_082.jpg,NA,NA,NA,NA,NA,pleasant,unpleasant,NA,NA,NA,NA,NA,left,1399.69999980927,true,NA,NA,NA,NA,NA,NA,NA,NA
yobtMzfj,3ac6mfv6anv2a7u5af0lkpxttwbhzq,3b1nlc6ug39wjrviu2p3xbf689spgy,yobtMzfj,2020-0188,2021-10-30,23:54:46,01:05:25,NA,incomplete,false,true,NA,NA,5,5,NA,blue,n_l_091.jpg,NA,NA,NA,NA,NA,pleasant,unpleasant,NA,NA,NA,NA,NA,left,1104.5,true,NA,NA,NA,NA,NA,NA,NA,NA
yobtMzfj,3ac6mfv6anv2a7u5af0lkpxttwbhzq,3b1nlc6ug39wjrviu2p3xbf689spgy,yobtMzfj,2020-0188,2021-10-30,23:54:46,01:05:25,NA,incomplete,false,true,NA,NA,5,6,NA,gray,n_s_075.jpg,NA,NA,NA,NA,NA,unpleasant,pleasant,NA,NA,NA,NA,NA,right,1945,true,NA,NA,NA,NA,NA,NA,NA,NA
yobtMzfj,3ac6mfv6anv2a7u5af0lkpxttwbhzq,3b1nlc6ug39wjrviu2p3xbf689spgy,yobtMzfj,2020-0188,2021-10-30,23:54:46,01:05:25,NA,incomplete,false,true,NA,NA,5,7,NA,gray,n_l_068.jpg,NA,NA,NA,NA,NA,unpleasant,pleasant,NA,NA,NA,NA,NA,right,1006.69999980927,true,NA,NA,NA,NA,NA,NA,NA,NA
yobtMzfj,3ac6mfv6anv2a7u5af0lkpxttwbhzq,3b1nlc6ug39wjrviu2p3xbf689spgy,yobtMzfj,2020-0188,2021-10-30,23:54:46,01:05:25,NA,incomplete,false,true,NA,NA,5,8,NA,gray,n_l_004.jpg,NA,NA,NA,NA,NA,pleasant,unpleasant,NA,NA,NA,NA,NA,left,1363.89999985695,true,NA,NA,NA,NA,NA,NA,NA,NA
yobtMzfj,3ac6mfv6anv2a7u5af0lkpxttwbhzq,3b1nlc6ug39wjrviu2p3xbf689spgy,yobtMzfj,2020-0188,2021-10-30,23:54:46,01:05:25,NA,incomplete,false,true,NA,NA,5,9,NA,gray,n_l_069.jpg,NA,NA,NA,NA,NA,unpleasant,pleasant,NA,NA,NA,NA,NA,right,1121,true,NA,NA,NA,NA,NA,NA,NA,NA
yobtMzfj,3ac6mfv6anv2a7u5af0lkpxttwbhzq,3b1nlc6ug39wjrviu2p3xbf689spgy,yobtMzfj,2020-0188,2021-10-30,23:54:46,01:05:25,NA,incomplete,false,true,NA,NA,5,10,NA,gray,n_l_100.jpg,NA,NA,NA,NA,NA,unpleasant,pleasant,NA,NA,NA,NA,NA,right,1019,true,NA,NA,NA,NA,NA,NA,NA,NA
yobtMzfj,3ac6mfv6anv2a7u5af0lkpxttwbhzq,3b1nlc6ug39wjrviu2p3xbf689spgy,yobtMzfj,2020-0188,2021-10-30,23:54:46,01:05:25,NA,incomplete,false,true,NA,NA,5,11,NA,gray,m_l_021.jpg,NA,NA,NA,NA,NA,unpleasant,pleasant,NA,NA,NA,NA,NA,right,1379.5,true,NA,NA,NA,NA,NA,NA,NA,NA
yobtMzfj,3ac6mfv6anv2a7u5af0lkpxttwbhzq,3b1nlc6ug39wjrviu2p3xbf689spgy,yobtMzfj,2020-0188,2021-10-30,23:54:46,01:05:25,NA,incomplete,false,true,NA,NA,5,12,NA,brown,m_l_101.jpg,NA,NA,NA,NA,NA,unpleasant,pleasant,NA,NA,NA,NA,NA,right,1292.79999995232,true,NA,NA,NA,NA,NA,NA,NA,NA
yobtMzfj,3ac6mfv6anv2a7u5af0lkpxttwbhzq,3b1nlc6ug39wjrviu2p3xbf689spgy,yobtMzfj,2020-0188,2021-10-30,23:54:46,01:05:25,NA,incomplete,false,true,NA,NA,5,13,NA,brown,m_l_019.jpg,NA,NA,NA,NA,NA,unpleasant,pleasant,NA,NA,NA,NA,NA,right,878.399999856949,true,NA,NA,NA,NA,NA,NA,NA,NA
yobtMzfj,3ac6mfv6anv2a7u5af0lkpxttwbhzq,3b1nlc6ug39wjrviu2p3xbf689spgy,yobtMzfj,2020-0188,2021-10-30,23:54:46,01:05:25,NA,incomplete,false,true,NA,NA,5,14,NA,brown,n_l_089.jpg,NA,NA,NA,NA,NA,pleasant,unpleasant,NA,NA,NA,NA,NA,left,1233.5,true,NA,NA,NA,NA,NA,NA,NA,NA
yobtMzfj,3ac6mfv6anv2a7u5af0lkpxttwbhzq,3b1nlc6ug39wjrviu2p3xbf689spgy,yobtMzfj,2020-0188,2021-10-30,23:54:46,01:05:25,NA,incomplete,false,true,NA,NA,5,15,NA,brown,m_l_048.jpg,NA,NA,NA,NA,NA,pleasant,unpleasant,NA,NA,NA,NA,NA,left,934.800000190735,true,NA,NA,NA,NA,NA,NA,NA,NA
yobtMzfj,3ac6mfv6anv2a7u5af0lkpxttwbhzq,3b1nlc6ug39wjrviu2p3xbf689spgy,yobtMzfj,2020-0188,2021-10-30,23:54:46,01:05:25,NA,incomplete,false,true,NA,NA,5,16,NA,brown,m_l_117.jpg,NA,NA,NA,NA,NA,pleasant,unpleasant,NA,NA,NA,NA,NA,left,1021.30000019073,true,NA,NA,NA,NA,NA,NA,NA,NA
