workerId,hitId,assignmentId,subject,studyid,exp_date,exp_start,exp_end,time_start,time_end,practice,encoding,memory,association,block,trial,event_order,event,stim,answer,object,left_context,right_context,context_type,label_left,label_right,left_image,left_event,right_image,right_event,condition,response,response_time,response_acc,association_response_time,association_response,association_acc,order_response,order_response_time,order_acc,distance_response,distance_response_time
zuHVd5k8,3fk4g712o0duz4m7qhicsa7sfszsso,3b3wtrp3dfflca74ey8h9hlqupv921,zuHVd5k8,2020-0188,2021-10-31,17:45:23,19:50:15,NA,incomplete,true,true,NA,NA,0,0,NA,green,m_l_054.jpg,NA,NA,NA,NA,NA,unpleasant,pleasant,NA,NA,NA,NA,NA,none,0,false,NA,NA,NA,NA,NA,NA,NA,NA
zuHVd5k8,3fk4g712o0duz4m7qhicsa7sfszsso,3b3wtrp3dfflca74ey8h9hlqupv921,zuHVd5k8,2020-0188,2021-10-31,17:45:23,19:50:15,NA,incomplete,true,true,NA,NA,0,1,NA,green,m_s_093.jpg,NA,NA,NA,NA,NA,pleasant,unpleasant,NA,NA,NA,NA,NA,right,767,true,NA,NA,NA,NA,NA,NA,NA,NA
zuHVd5k8,3fk4g712o0duz4m7qhicsa7sfszsso,3b3wtrp3dfflca74ey8h9hlqupv921,zuHVd5k8,2020-0188,2021-10-31,17:45:23,19:50:15,NA,incomplete,true,true,NA,NA,0,2,NA,green,m_s_019.jpg,NA,NA,NA,NA,NA,unpleasant,pleasant,NA,NA,NA,NA,NA,right,1764,true,NA,NA,NA,NA,NA,NA,NA,NA
zuHVd5k8,3fk4g712o0duz4m7qhicsa7sfszsso,3b3wtrp3dfflca74ey8h9hlqupv921,zuHVd5k8,2020-0188,2021-10-31,17:45:23,19:50:15,NA,incomplete,true,true,NA,NA,0,3,NA,green,m_l_018.jpg,NA,NA,NA,NA,NA,unpleasant,pleasant,NA,NA,NA,NA,NA,right,2013,true,NA,NA,NA,NA,NA,NA,NA,NA
zuHVd5k8,3fk4g712o0duz4m7qhicsa7sfszsso,3b3wtrp3dfflca74ey8h9hlqupv921,zuHVd5k8,2020-0188,2021-10-31,17:45:23,19:50:15,NA,incomplete,true,true,NA,NA,0,4,NA,green,n_l_093.jpg,NA,NA,NA,NA,NA,unpleasant,pleasant,NA,NA,NA,NA,NA,right,1511,true,NA,NA,NA,NA,NA,NA,NA,NA
zuHVd5k8,3fk4g712o0duz4m7qhicsa7sfszsso,3b3wtrp3dfflca74ey8h9hlqupv921,zuHVd5k8,2020-0188,2021-10-31,17:45:23,19:50:15,NA,incomplete,true,true,NA,NA,0,5,NA,green,n_s_057.jpg,NA,NA,NA,NA,NA,pleasant,unpleasant,NA,NA,NA,NA,NA,left,1677,true,NA,NA,NA,NA,NA,NA,NA,NA
zuHVd5k8,3fk4g712o0duz4m7qhicsa7sfszsso,3b3wtrp3dfflca74ey8h9hlqupv921,zuHVd5k8,2020-0188,2021-10-31,17:45:23,19:50:15,NA,incomplete,true,true,NA,NA,0,6,NA,yellow,n_s_110.jpg,NA,NA,NA,NA,NA,unpleasant,pleasant,NA,NA,NA,NA,NA,right,1728,true,NA,NA,NA,NA,NA,NA,NA,NA
zuHVd5k8,3fk4g712o0duz4m7qhicsa7sfszsso,3b3wtrp3dfflca74ey8h9hlqupv921,zuHVd5k8,2020-0188,2021-10-31,17:45:23,19:50:15,NA,incomplete,true,true,NA,NA,0,7,NA,yellow,n_s_042.jpg,NA,NA,NA,NA,NA,pleasant,unpleasant,NA,NA,NA,NA,NA,left,1302,true,NA,NA,NA,NA,NA,NA,NA,NA
zuHVd5k8,3fk4g712o0duz4m7qhicsa7sfszsso,3b3wtrp3dfflca74ey8h9hlqupv921,zuHVd5k8,2020-0188,2021-10-31,17:45:23,19:50:15,NA,incomplete,true,true,NA,NA,0,8,NA,yellow,n_s_097.jpg,NA,NA,NA,NA,NA,unpleasant,pleasant,NA,NA,NA,NA,NA,right,1653,true,NA,NA,NA,NA,NA,NA,NA,NA
zuHVd5k8,3fk4g712o0duz4m7qhicsa7sfszsso,3b3wtrp3dfflca74ey8h9hlqupv921,zuHVd5k8,2020-0188,2021-10-31,17:45:23,19:50:15,NA,incomplete,true,true,NA,NA,0,9,NA,yellow,m_s_073.jpg,NA,NA,NA,NA,NA,unpleasant,pleasant,NA,NA,NA,NA,NA,right,1250,true,NA,NA,NA,NA,NA,NA,NA,NA
zuHVd5k8,3fk4g712o0duz4m7qhicsa7sfszsso,3b3wtrp3dfflca74ey8h9hlqupv921,zuHVd5k8,2020-0188,2021-10-31,17:45:23,19:50:15,NA,incomplete,true,true,NA,NA,0,10,NA,yellow,m_l_107.jpg,NA,NA,NA,NA,NA,unpleasant,pleasant,NA,NA,NA,NA,NA,right,1384,true,NA,NA,NA,NA,NA,NA,NA,NA
zuHVd5k8,3fk4g712o0duz4m7qhicsa7sfszsso,3b3wtrp3dfflca74ey8h9hlqupv921,zuHVd5k8,2020-0188,2021-10-31,17:45:23,19:50:15,NA,incomplete,true,true,NA,NA,0,11,NA,yellow,n_l_028.jpg,NA,NA,NA,NA,NA,pleasant,unpleasant,NA,NA,NA,NA,NA,left,1477,true,NA,NA,NA,NA,NA,NA,NA,NA
zuHVd5k8,3fk4g712o0duz4m7qhicsa7sfszsso,3b3wtrp3dfflca74ey8h9hlqupv921,zuHVd5k8,2020-0188,2021-10-31,17:45:23,19:50:15,NA,incomplete,true,true,NA,NA,0,12,NA,purple,m_l_017.jpg,NA,NA,NA,NA,NA,pleasant,unpleasant,NA,NA,NA,NA,NA,left,1905,true,NA,NA,NA,NA,NA,NA,NA,NA
zuHVd5k8,3fk4g712o0duz4m7qhicsa7sfszsso,3b3wtrp3dfflca74ey8h9hlqupv921,zuHVd5k8,2020-0188,2021-10-31,17:45:23,19:50:15,NA,incomplete,true,true,NA,NA,0,13,NA,purple,m_l_048.jpg,NA,NA,NA,NA,NA,unpleasant,pleasant,NA,NA,NA,NA,NA,right,1692,true,NA,NA,NA,NA,NA,NA,NA,NA
zuHVd5k8,3fk4g712o0duz4m7qhicsa7sfszsso,3b3wtrp3dfflca74ey8h9hlqupv921,zuHVd5k8,2020-0188,2021-10-31,17:45:23,19:50:15,NA,incomplete,true,true,NA,NA,0,14,NA,purple,m_s_060.jpg,NA,NA,NA,NA,NA,unpleasant,pleasant,NA,NA,NA,NA,NA,right,1655,true,NA,NA,NA,NA,NA,NA,NA,NA
zuHVd5k8,3fk4g712o0duz4m7qhicsa7sfszsso,3b3wtrp3dfflca74ey8h9hlqupv921,zuHVd5k8,2020-0188,2021-10-31,17:45:23,19:50:15,NA,incomplete,true,true,NA,NA,0,15,NA,purple,n_s_090.jpg,NA,NA,NA,NA,NA,pleasant,unpleasant,NA,NA,NA,NA,NA,left,1599,true,NA,NA,NA,NA,NA,NA,NA,NA
zuHVd5k8,3fk4g712o0duz4m7qhicsa7sfszsso,3b3wtrp3dfflca74ey8h9hlqupv921,zuHVd5k8,2020-0188,2021-10-31,17:45:23,19:50:15,NA,incomplete,true,true,NA,NA,0,16,NA,purple,m_l_096.jpg,NA,NA,NA,NA,NA,unpleasant,pleasant,NA,NA,NA,NA,NA,right,1923,true,NA,NA,NA,NA,NA,NA,NA,NA
zuHVd5k8,3fk4g712o0duz4m7qhicsa7sfszsso,3b3wtrp3dfflca74ey8h9hlqupv921,zuHVd5k8,2020-0188,2021-10-31,17:45:23,19:50:15,NA,incomplete,true,true,NA,NA,0,17,NA,purple,m_l_058.jpg,NA,NA,NA,NA,NA,unpleasant,pleasant,NA,NA,NA,NA,NA,right,1458,true,NA,NA,NA,NA,NA,NA,NA,NA
zuHVd5k8,3fk4g712o0duz4m7qhicsa7sfszsso,3b3wtrp3dfflca74ey8h9hlqupv921,zuHVd5k8,2020-0188,2021-10-31,17:45:23,19:50:15,NA,incomplete,true,true,NA,NA,0,18,NA,black,n_l_109.jpg,NA,NA,NA,NA,NA,unpleasant,pleasant,NA,NA,NA,NA,NA,right,1768,true,NA,NA,NA,NA,NA,NA,NA,NA
zuHVd5k8,3fk4g712o0duz4m7qhicsa7sfszsso,3b3wtrp3dfflca74ey8h9hlqupv921,zuHVd5k8,2020-0188,2021-10-31,17:45:23,19:50:15,NA,incomplete,true,true,NA,NA,0,19,NA,black,m_l_027.jpg,NA,NA,NA,NA,NA,pleasant,unpleasant,NA,NA,NA,NA,NA,left,1554,true,NA,NA,NA,NA,NA,NA,NA,NA
zuHVd5k8,3fk4g712o0duz4m7qhicsa7sfszsso,3b3wtrp3dfflca74ey8h9hlqupv921,zuHVd5k8,2020-0188,2021-10-31,17:45:23,19:50:15,NA,incomplete,true,true,NA,NA,0,20,NA,black,m_l_095.jpg,NA,NA,NA,NA,NA,unpleasant,pleasant,NA,NA,NA,NA,NA,right,1277,true,NA,NA,NA,NA,NA,NA,NA,NA
zuHVd5k8,3fk4g712o0duz4m7qhicsa7sfszsso,3b3wtrp3dfflca74ey8h9hlqupv921,zuHVd5k8,2020-0188,2021-10-31,17:45:23,19:50:15,NA,incomplete,true,true,NA,NA,0,21,NA,black,m_s_069.jpg,NA,NA,NA,NA,NA,pleasant,unpleasant,NA,NA,NA,NA,NA,left,1515,true,NA,NA,NA,NA,NA,NA,NA,NA
zuHVd5k8,3fk4g712o0duz4m7qhicsa7sfszsso,3b3wtrp3dfflca74ey8h9hlqupv921,zuHVd5k8,2020-0188,2021-10-31,17:45:23,19:50:15,NA,incomplete,true,true,NA,NA,0,22,NA,black,n_l_053.jpg,NA,NA,NA,NA,NA,pleasant,unpleasant,NA,NA,NA,NA,NA,left,1276,true,NA,NA,NA,NA,NA,NA,NA,NA
zuHVd5k8,3fk4g712o0duz4m7qhicsa7sfszsso,3b3wtrp3dfflca74ey8h9hlqupv921,zuHVd5k8,2020-0188,2021-10-31,17:45:23,19:50:15,NA,incomplete,true,true,NA,NA,0,23,NA,black,n_l_085.jpg,NA,NA,NA,NA,NA,pleasant,unpleasant,NA,NA,NA,NA,NA,left,1924,true,NA,NA,NA,NA,NA,NA,NA,NA
zuHVd5k8,3fk4g712o0duz4m7qhicsa7sfszsso,3b3wtrp3dfflca74ey8h9hlqupv921,zuHVd5k8,2020-0188,2021-10-31,17:45:23,19:50:15,NA,incomplete,true,true,NA,NA,0,24,NA,white,m_l_049.jpg,NA,NA,NA,NA,NA,pleasant,unpleasant,NA,NA,NA,NA,NA,left,1520,true,NA,NA,NA,NA,NA,NA,NA,NA
zuHVd5k8,3fk4g712o0duz4m7qhicsa7sfszsso,3b3wtrp3dfflca74ey8h9hlqupv921,zuHVd5k8,2020-0188,2021-10-31,17:45:23,19:50:15,NA,incomplete,true,true,NA,NA,0,25,NA,white,n_s_064.jpg,NA,NA,NA,NA,NA,unpleasant,pleasant,NA,NA,NA,NA,NA,right,1184,true,NA,NA,NA,NA,NA,NA,NA,NA
zuHVd5k8,3fk4g712o0duz4m7qhicsa7sfszsso,3b3wtrp3dfflca74ey8h9hlqupv921,zuHVd5k8,2020-0188,2021-10-31,17:45:23,19:50:15,NA,incomplete,true,true,NA,NA,0,26,NA,white,m_s_092.jpg,NA,NA,NA,NA,NA,pleasant,unpleasant,NA,NA,NA,NA,NA,left,1382,true,NA,NA,NA,NA,NA,NA,NA,NA
zuHVd5k8,3fk4g712o0duz4m7qhicsa7sfszsso,3b3wtrp3dfflca74ey8h9hlqupv921,zuHVd5k8,2020-0188,2021-10-31,17:45:23,19:50:15,NA,incomplete,true,true,NA,NA,0,27,NA,white,m_s_022.jpg,NA,NA,NA,NA,NA,unpleasant,pleasant,NA,NA,NA,NA,NA,right,1521,true,NA,NA,NA,NA,NA,NA,NA,NA
zuHVd5k8,3fk4g712o0duz4m7qhicsa7sfszsso,3b3wtrp3dfflca74ey8h9hlqupv921,zuHVd5k8,2020-0188,2021-10-31,17:45:23,19:50:15,NA,incomplete,true,true,NA,NA,0,28,NA,white,m_l_042.jpg,NA,NA,NA,NA,NA,pleasant,unpleasant,NA,NA,NA,NA,NA,left,2053,true,NA,NA,NA,NA,NA,NA,NA,NA
zuHVd5k8,3fk4g712o0duz4m7qhicsa7sfszsso,3b3wtrp3dfflca74ey8h9hlqupv921,zuHVd5k8,2020-0188,2021-10-31,17:45:23,19:50:15,NA,incomplete,true,true,NA,NA,0,29,NA,white,m_s_038.jpg,NA,NA,NA,NA,NA,unpleasant,pleasant,NA,NA,NA,NA,NA,right,1401,true,NA,NA,NA,NA,NA,NA,NA,NA
zuHVd5k8,3fk4g712o0duz4m7qhicsa7sfszsso,3b3wtrp3dfflca74ey8h9hlqupv921,zuHVd5k8,2020-0188,2021-10-31,17:45:23,19:50:15,NA,incomplete,true,true,NA,NA,0,30,NA,blue,n_s_078.jpg,NA,NA,NA,NA,NA,pleasant,unpleasant,NA,NA,NA,NA,NA,left,1449,true,NA,NA,NA,NA,NA,NA,NA,NA
zuHVd5k8,3fk4g712o0duz4m7qhicsa7sfszsso,3b3wtrp3dfflca74ey8h9hlqupv921,zuHVd5k8,2020-0188,2021-10-31,17:45:23,19:50:15,NA,incomplete,true,true,NA,NA,0,31,NA,blue,n_l_056.jpg,NA,NA,NA,NA,NA,unpleasant,pleasant,NA,NA,NA,NA,NA,right,1819,true,NA,NA,NA,NA,NA,NA,NA,NA
zuHVd5k8,3fk4g712o0duz4m7qhicsa7sfszsso,3b3wtrp3dfflca74ey8h9hlqupv921,zuHVd5k8,2020-0188,2021-10-31,17:45:23,19:50:15,NA,incomplete,true,true,NA,NA,0,32,NA,blue,n_l_043.jpg,NA,NA,NA,NA,NA,unpleasant,pleasant,NA,NA,NA,NA,NA,right,1577,true,NA,NA,NA,NA,NA,NA,NA,NA
zuHVd5k8,3fk4g712o0duz4m7qhicsa7sfszsso,3b3wtrp3dfflca74ey8h9hlqupv921,zuHVd5k8,2020-0188,2021-10-31,17:45:23,19:50:15,NA,incomplete,true,true,NA,NA,0,33,NA,blue,m_s_016.jpg,NA,NA,NA,NA,NA,unpleasant,pleasant,NA,NA,NA,NA,NA,right,1585,true,NA,NA,NA,NA,NA,NA,NA,NA
zuHVd5k8,3fk4g712o0duz4m7qhicsa7sfszsso,3b3wtrp3dfflca74ey8h9hlqupv921,zuHVd5k8,2020-0188,2021-10-31,17:45:23,19:50:15,NA,incomplete,true,true,NA,NA,0,34,NA,blue,n_s_062.jpg,NA,NA,NA,NA,NA,pleasant,unpleasant,NA,NA,NA,NA,NA,left,1437,true,NA,NA,NA,NA,NA,NA,NA,NA
zuHVd5k8,3fk4g712o0duz4m7qhicsa7sfszsso,3b3wtrp3dfflca74ey8h9hlqupv921,zuHVd5k8,2020-0188,2021-10-31,17:45:23,19:50:15,NA,incomplete,true,true,NA,NA,0,35,NA,blue,n_l_067.jpg,NA,NA,NA,NA,NA,pleasant,unpleasant,NA,NA,NA,NA,NA,left,1373,true,NA,NA,NA,NA,NA,NA,NA,NA
zuHVd5k8,3fk4g712o0duz4m7qhicsa7sfszsso,3b3wtrp3dfflca74ey8h9hlqupv921,zuHVd5k8,2020-0188,2021-10-31,17:45:23,19:50:15,NA,incomplete,true,NA,NA,true,0,0,NA,NA,NA,left,n_l_093.jpg,green,yellow,NA,NA,NA,NA,NA,NA,NA,NA,NA,NaN,NA,5031,left,1,NA,NA,NA,NA,NA
zuHVd5k8,3fk4g712o0duz4m7qhicsa7sfszsso,3b3wtrp3dfflca74ey8h9hlqupv921,zuHVd5k8,2020-0188,2021-10-31,17:45:23,19:50:15,NA,incomplete,true,NA,NA,true,0,1,NA,NA,NA,left,m_l_096.jpg,purple,yellow,NA,NA,NA,NA,NA,NA,NA,NA,NA,NaN,NA,2209,left,1,NA,NA,NA,NA,NA
zuHVd5k8,3fk4g712o0duz4m7qhicsa7sfszsso,3b3wtrp3dfflca74ey8h9hlqupv921,zuHVd5k8,2020-0188,2021-10-31,17:45:23,19:50:15,NA,incomplete,true,NA,NA,true,0,2,NA,NA,NA,right,m_l_095.jpg,purple,black,NA,NA,NA,NA,NA,NA,NA,NA,NA,NaN,NA,1958,right,1,NA,NA,NA,NA,NA
zuHVd5k8,3fk4g712o0duz4m7qhicsa7sfszsso,3b3wtrp3dfflca74ey8h9hlqupv921,zuHVd5k8,2020-0188,2021-10-31,17:45:23,19:50:15,NA,incomplete,true,NA,NA,true,0,3,NA,NA,NA,right,m_l_048.jpg,yellow,purple,NA,NA,NA,NA,NA,NA,NA,NA,NA,NaN,NA,5525,left,0,NA,NA,NA,NA,NA
zuHVd5k8,3fk4g712o0duz4m7qhicsa7sfszsso,3b3wtrp3dfflca74ey8h9hlqupv921,zuHVd5k8,2020-0188,2021-10-31,17:45:23,19:50:15,NA,incomplete,true,NA,NA,true,0,4,NA,NA,NA,left,n_s_097.jpg,yellow,green,NA,NA,NA,NA,NA,NA,NA,NA,NA,NaN,NA,2635,left,1,NA,NA,NA,NA,NA
zuHVd5k8,3fk4g712o0duz4m7qhicsa7sfszsso,3b3wtrp3dfflca74ey8h9hlqupv921,zuHVd5k8,2020-0188,2021-10-31,17:45:23,19:50:15,NA,incomplete,true,NA,NA,true,0,5,NA,NA,NA,right,n_l_028.jpg,green,yellow,NA,NA,NA,NA,NA,NA,NA,NA,NA,NaN,NA,4457,right,1,NA,NA,NA,NA,NA
zuHVd5k8,3fk4g712o0duz4m7qhicsa7sfszsso,3b3wtrp3dfflca74ey8h9hlqupv921,zuHVd5k8,2020-0188,2021-10-31,17:45:23,19:50:15,NA,incomplete,true,NA,NA,true,0,6,NA,NA,NA,right,n_l_056.jpg,white,blue,NA,NA,NA,NA,NA,NA,NA,NA,NA,NaN,NA,2213,left,0,NA,NA,NA,NA,NA
zuHVd5k8,3fk4g712o0duz4m7qhicsa7sfszsso,3b3wtrp3dfflca74ey8h9hlqupv921,zuHVd5k8,2020-0188,2021-10-31,17:45:23,19:50:15,NA,incomplete,true,NA,NA,true,0,7,NA,NA,NA,right,m_l_042.jpg,black,white,NA,NA,NA,NA,NA,NA,NA,NA,NA,NaN,NA,1982,right,1,NA,NA,NA,NA,NA
zuHVd5k8,3fk4g712o0duz4m7qhicsa7sfszsso,3b3wtrp3dfflca74ey8h9hlqupv921,zuHVd5k8,2020-0188,2021-10-31,17:45:23,19:50:15,NA,incomplete,true,NA,NA,true,0,8,NA,NA,NA,left,m_s_093.jpg,green,yellow,NA,NA,NA,NA,NA,NA,NA,NA,NA,NaN,NA,2647,left,1,NA,NA,NA,NA,NA
zuHVd5k8,3fk4g712o0duz4m7qhicsa7sfszsso,3b3wtrp3dfflca74ey8h9hlqupv921,zuHVd5k8,2020-0188,2021-10-31,17:45:23,19:50:15,NA,incomplete,true,NA,NA,true,0,9,NA,NA,NA,right,n_s_057.jpg,yellow,green,NA,NA,NA,NA,NA,NA,NA,NA,NA,NaN,NA,2196,right,1,NA,NA,NA,NA,NA
zuHVd5k8,3fk4g712o0duz4m7qhicsa7sfszsso,3b3wtrp3dfflca74ey8h9hlqupv921,zuHVd5k8,2020-0188,2021-10-31,17:45:23,19:50:15,NA,incomplete,true,NA,NA,true,0,10,NA,NA,NA,left,n_s_064.jpg,white,black,NA,NA,NA,NA,NA,NA,NA,NA,NA,NaN,NA,2511,left,1,NA,NA,NA,NA,NA
zuHVd5k8,3fk4g712o0duz4m7qhicsa7sfszsso,3b3wtrp3dfflca74ey8h9hlqupv921,zuHVd5k8,2020-0188,2021-10-31,17:45:23,19:50:15,NA,incomplete,true,NA,NA,true,0,11,NA,NA,NA,right,m_s_060.jpg,black,purple,NA,NA,NA,NA,NA,NA,NA,NA,NA,NaN,NA,4412,right,1,NA,NA,NA,NA,NA
zuHVd5k8,3fk4g712o0duz4m7qhicsa7sfszsso,3b3wtrp3dfflca74ey8h9hlqupv921,zuHVd5k8,2020-0188,2021-10-31,17:45:23,19:50:15,NA,incomplete,true,NA,NA,true,0,12,NA,NA,NA,left,n_l_053.jpg,black,purple,NA,NA,NA,NA,NA,NA,NA,NA,NA,NaN,NA,1969,left,1,NA,NA,NA,NA,NA
zuHVd5k8,3fk4g712o0duz4m7qhicsa7sfszsso,3b3wtrp3dfflca74ey8h9hlqupv921,zuHVd5k8,2020-0188,2021-10-31,17:45:23,19:50:15,NA,incomplete,true,NA,NA,true,0,13,NA,NA,NA,right,n_l_085.jpg,white,black,NA,NA,NA,NA,NA,NA,NA,NA,NA,NaN,NA,2787,left,0,NA,NA,NA,NA,NA
zuHVd5k8,3fk4g712o0duz4m7qhicsa7sfszsso,3b3wtrp3dfflca74ey8h9hlqupv921,zuHVd5k8,2020-0188,2021-10-31,17:45:23,19:50:15,NA,incomplete,true,NA,NA,true,0,14,NA,NA,NA,left,m_s_092.jpg,white,black,NA,NA,NA,NA,NA,NA,NA,NA,NA,NaN,NA,5485,right,0,NA,NA,NA,NA,NA
zuHVd5k8,3fk4g712o0duz4m7qhicsa7sfszsso,3b3wtrp3dfflca74ey8h9hlqupv921,zuHVd5k8,2020-0188,2021-10-31,17:45:23,19:50:15,NA,incomplete,true,NA,NA,true,0,15,NA,NA,NA,left,m_l_058.jpg,purple,yellow,NA,NA,NA,NA,NA,NA,NA,NA,NA,NaN,NA,6379,right,0,NA,NA,NA,NA,NA
zuHVd5k8,3fk4g712o0duz4m7qhicsa7sfszsso,3b3wtrp3dfflca74ey8h9hlqupv921,zuHVd5k8,2020-0188,2021-10-31,17:45:23,19:50:15,NA,incomplete,true,NA,NA,true,0,16,NA,NA,NA,right,m_l_107.jpg,green,yellow,NA,NA,NA,NA,NA,NA,NA,NA,NA,NaN,NA,2245,right,1,NA,NA,NA,NA,NA
zuHVd5k8,3fk4g712o0duz4m7qhicsa7sfszsso,3b3wtrp3dfflca74ey8h9hlqupv921,zuHVd5k8,2020-0188,2021-10-31,17:45:23,19:50:15,NA,incomplete,true,NA,NA,true,0,17,NA,NA,NA,left,n_l_043.jpg,blue,white,NA,NA,NA,NA,NA,NA,NA,NA,NA,NaN,NA,2687,right,0,NA,NA,NA,NA,NA
zuHVd5k8,3fk4g712o0duz4m7qhicsa7sfszsso,3b3wtrp3dfflca74ey8h9hlqupv921,zuHVd5k8,2020-0188,2021-10-31,17:45:23,19:50:15,NA,incomplete,true,NA,NA,true,0,18,NA,NA,NA,left,m_s_038.jpg,white,blue,NA,NA,NA,NA,NA,NA,NA,NA,NA,NaN,NA,2296,left,1,NA,NA,NA,NA,NA
zuHVd5k8,3fk4g712o0duz4m7qhicsa7sfszsso,3b3wtrp3dfflca74ey8h9hlqupv921,zuHVd5k8,2020-0188,2021-10-31,17:45:23,19:50:15,NA,incomplete,true,NA,NA,true,0,19,NA,NA,NA,left,n_l_067.jpg,blue,white,NA,NA,NA,NA,NA,NA,NA,NA,NA,NaN,NA,3834,right,0,NA,NA,NA,NA,NA
zuHVd5k8,3fk4g712o0duz4m7qhicsa7sfszsso,3b3wtrp3dfflca74ey8h9hlqupv921,zuHVd5k8,2020-0188,2021-10-31,17:45:23,19:50:15,NA,incomplete,true,NA,NA,true,0,20,NA,NA,NA,right,m_l_027.jpg,purple,black,NA,NA,NA,NA,NA,NA,NA,NA,NA,NaN,NA,2470,right,1,NA,NA,NA,NA,NA
zuHVd5k8,3fk4g712o0duz4m7qhicsa7sfszsso,3b3wtrp3dfflca74ey8h9hlqupv921,zuHVd5k8,2020-0188,2021-10-31,17:45:23,19:50:15,NA,incomplete,true,NA,NA,true,0,21,NA,NA,NA,left,n_s_042.jpg,yellow,purple,NA,NA,NA,NA,NA,NA,NA,NA,NA,NaN,NA,7988,left,1,NA,NA,NA,NA,NA
zuHVd5k8,3fk4g712o0duz4m7qhicsa7sfszsso,3b3wtrp3dfflca74ey8h9hlqupv921,zuHVd5k8,2020-0188,2021-10-31,17:45:23,19:50:15,NA,incomplete,true,NA,true,NA,0,0,NA,NA,NA,right,NA,NA,NA,present,NA,NA,n_l_028.jpg,yellow,n_s_042.jpg,yellow,within,NA,NaN,NA,NA,NA,NA,left,6542,0,0,2846
zuHVd5k8,3fk4g712o0duz4m7qhicsa7sfszsso,3b3wtrp3dfflca74ey8h9hlqupv921,zuHVd5k8,2020-0188,2021-10-31,17:45:23,19:50:15,NA,incomplete,true,NA,true,NA,0,1,NA,NA,NA,left,NA,NA,NA,present,NA,NA,n_l_093.jpg,green,n_s_097.jpg,yellow,between,NA,NaN,NA,NA,NA,NA,left,2811,1,0,1525
zuHVd5k8,3fk4g712o0duz4m7qhicsa7sfszsso,3b3wtrp3dfflca74ey8h9hlqupv921,zuHVd5k8,2020-0188,2021-10-31,17:45:23,19:50:15,NA,incomplete,true,NA,true,NA,0,2,NA,NA,NA,right,NA,NA,NA,present,NA,NA,m_s_038.jpg,white,n_s_064.jpg,white,within,NA,NaN,NA,NA,NA,NA,left,2023,0,1,6843
zuHVd5k8,3fk4g712o0duz4m7qhicsa7sfszsso,3b3wtrp3dfflca74ey8h9hlqupv921,zuHVd5k8,2020-0188,2021-10-31,17:45:23,19:50:15,NA,incomplete,true,NA,true,NA,0,3,NA,NA,NA,left,NA,NA,NA,present,NA,NA,m_l_096.jpg,purple,m_l_095.jpg,black,between,NA,NaN,NA,NA,NA,NA,right,3852,0,1,4561
zuHVd5k8,3fk4g712o0duz4m7qhicsa7sfszsso,3b3wtrp3dfflca74ey8h9hlqupv921,zuHVd5k8,2020-0188,2021-10-31,17:45:23,19:50:15,NA,incomplete,true,NA,true,NA,0,4,NA,NA,NA,right,NA,NA,NA,present,NA,NA,n_l_043.jpg,blue,m_l_042.jpg,white,between,NA,NaN,NA,NA,NA,NA,left,2500,0,1,2366
zuHVd5k8,3fk4g712o0duz4m7qhicsa7sfszsso,3b3wtrp3dfflca74ey8h9hlqupv921,zuHVd5k8,2020-0188,2021-10-31,17:45:23,19:50:15,NA,incomplete,true,NA,true,NA,0,5,NA,NA,NA,left,NA,NA,NA,present,NA,NA,m_l_107.jpg,yellow,m_s_060.jpg,purple,between,NA,NaN,NA,NA,NA,NA,left,2728,1,1,2948
zuHVd5k8,3fk4g712o0duz4m7qhicsa7sfszsso,3b3wtrp3dfflca74ey8h9hlqupv921,zuHVd5k8,2020-0188,2021-10-31,17:45:23,19:50:15,NA,incomplete,true,NA,true,NA,0,6,NA,NA,NA,left,NA,NA,NA,present,NA,NA,m_l_048.jpg,purple,m_l_058.jpg,purple,within,NA,NaN,NA,NA,NA,NA,right,5158,0,1,5599
zuHVd5k8,3fk4g712o0duz4m7qhicsa7sfszsso,3b3wtrp3dfflca74ey8h9hlqupv921,zuHVd5k8,2020-0188,2021-10-31,17:45:23,19:50:15,NA,incomplete,true,NA,true,NA,0,7,NA,NA,NA,left,NA,NA,NA,present,NA,NA,n_l_053.jpg,black,m_s_092.jpg,white,between,NA,NaN,NA,NA,NA,NA,left,2257,1,1,5070
zuHVd5k8,3fk4g712o0duz4m7qhicsa7sfszsso,3b3wtrp3dfflca74ey8h9hlqupv921,zuHVd5k8,2020-0188,2021-10-31,17:45:23,19:50:15,NA,incomplete,true,NA,true,NA,0,8,NA,NA,NA,right,NA,NA,NA,present,NA,NA,n_l_085.jpg,black,m_l_027.jpg,black,within,NA,NaN,NA,NA,NA,NA,right,3439,1,1,3416
zuHVd5k8,3fk4g712o0duz4m7qhicsa7sfszsso,3b3wtrp3dfflca74ey8h9hlqupv921,zuHVd5k8,2020-0188,2021-10-31,17:45:23,19:50:15,NA,incomplete,true,NA,true,NA,0,9,NA,NA,NA,left,NA,NA,NA,present,NA,NA,m_s_093.jpg,green,n_s_057.jpg,green,within,NA,NaN,NA,NA,NA,NA,left,2219,1,1,2779
zuHVd5k8,3fk4g712o0duz4m7qhicsa7sfszsso,3b3wtrp3dfflca74ey8h9hlqupv921,zuHVd5k8,2020-0188,2021-10-31,17:45:23,19:50:15,NA,incomplete,true,NA,true,NA,0,10,NA,NA,NA,right,NA,NA,NA,present,NA,NA,n_l_067.jpg,blue,n_l_056.jpg,blue,within,NA,NaN,NA,NA,NA,NA,right,2749,1,1,3887
zuHVd5k8,3fk4g712o0duz4m7qhicsa7sfszsso,3b3wtrp3dfflca74ey8h9hlqupv921,zuHVd5k8,2020-0188,2021-10-31,17:45:23,19:50:15,NA,incomplete,false,true,NA,NA,1,0,NA,black,m_s_047.jpg,NA,NA,NA,NA,NA,unpleasant,pleasant,NA,NA,NA,NA,NA,right,3495,true,NA,NA,NA,NA,NA,NA,NA,NA
zuHVd5k8,3fk4g712o0duz4m7qhicsa7sfszsso,3b3wtrp3dfflca74ey8h9hlqupv921,zuHVd5k8,2020-0188,2021-10-31,17:45:23,19:50:15,NA,incomplete,false,true,NA,NA,1,1,NA,black,m_l_004.jpg,NA,NA,NA,NA,NA,pleasant,unpleasant,NA,NA,NA,NA,NA,left,2906,true,NA,NA,NA,NA,NA,NA,NA,NA
zuHVd5k8,3fk4g712o0duz4m7qhicsa7sfszsso,3b3wtrp3dfflca74ey8h9hlqupv921,zuHVd5k8,2020-0188,2021-10-31,17:45:23,19:50:15,NA,incomplete,false,true,NA,NA,1,2,NA,black,n_s_103.jpg,NA,NA,NA,NA,NA,pleasant,unpleasant,NA,NA,NA,NA,NA,left,2238,true,NA,NA,NA,NA,NA,NA,NA,NA
zuHVd5k8,3fk4g712o0duz4m7qhicsa7sfszsso,3b3wtrp3dfflca74ey8h9hlqupv921,zuHVd5k8,2020-0188,2021-10-31,17:45:23,19:50:15,NA,incomplete,false,true,NA,NA,1,3,NA,black,n_s_013.jpg,NA,NA,NA,NA,NA,pleasant,unpleasant,NA,NA,NA,NA,NA,left,1540,true,NA,NA,NA,NA,NA,NA,NA,NA
zuHVd5k8,3fk4g712o0duz4m7qhicsa7sfszsso,3b3wtrp3dfflca74ey8h9hlqupv921,zuHVd5k8,2020-0188,2021-10-31,17:45:23,19:50:15,NA,incomplete,false,true,NA,NA,1,4,NA,black,m_l_023.jpg,NA,NA,NA,NA,NA,pleasant,unpleasant,NA,NA,NA,NA,NA,left,1899,true,NA,NA,NA,NA,NA,NA,NA,NA
zuHVd5k8,3fk4g712o0duz4m7qhicsa7sfszsso,3b3wtrp3dfflca74ey8h9hlqupv921,zuHVd5k8,2020-0188,2021-10-31,17:45:23,19:50:15,NA,incomplete,false,true,NA,NA,1,5,NA,black,n_l_054.jpg,NA,NA,NA,NA,NA,unpleasant,pleasant,NA,NA,NA,NA,NA,right,1503,true,NA,NA,NA,NA,NA,NA,NA,NA
zuHVd5k8,3fk4g712o0duz4m7qhicsa7sfszsso,3b3wtrp3dfflca74ey8h9hlqupv921,zuHVd5k8,2020-0188,2021-10-31,17:45:23,19:50:15,NA,incomplete,false,true,NA,NA,1,6,NA,green,m_l_080.jpg,NA,NA,NA,NA,NA,pleasant,unpleasant,NA,NA,NA,NA,NA,left,2059,true,NA,NA,NA,NA,NA,NA,NA,NA
zuHVd5k8,3fk4g712o0duz4m7qhicsa7sfszsso,3b3wtrp3dfflca74ey8h9hlqupv921,zuHVd5k8,2020-0188,2021-10-31,17:45:23,19:50:15,NA,incomplete,false,true,NA,NA,1,7,NA,green,m_s_056.jpg,NA,NA,NA,NA,NA,unpleasant,pleasant,NA,NA,NA,NA,NA,right,1856,true,NA,NA,NA,NA,NA,NA,NA,NA
zuHVd5k8,3fk4g712o0duz4m7qhicsa7sfszsso,3b3wtrp3dfflca74ey8h9hlqupv921,zuHVd5k8,2020-0188,2021-10-31,17:45:23,19:50:15,NA,incomplete,false,true,NA,NA,1,8,NA,green,n_s_077.jpg,NA,NA,NA,NA,NA,pleasant,unpleasant,NA,NA,NA,NA,NA,left,1706,true,NA,NA,NA,NA,NA,NA,NA,NA
zuHVd5k8,3fk4g712o0duz4m7qhicsa7sfszsso,3b3wtrp3dfflca74ey8h9hlqupv921,zuHVd5k8,2020-0188,2021-10-31,17:45:23,19:50:15,NA,incomplete,false,true,NA,NA,1,9,NA,green,m_s_050.jpg,NA,NA,NA,NA,NA,pleasant,unpleasant,NA,NA,NA,NA,NA,left,2576,true,NA,NA,NA,NA,NA,NA,NA,NA
zuHVd5k8,3fk4g712o0duz4m7qhicsa7sfszsso,3b3wtrp3dfflca74ey8h9hlqupv921,zuHVd5k8,2020-0188,2021-10-31,17:45:23,19:50:15,NA,incomplete,false,true,NA,NA,1,10,NA,green,m_s_052.jpg,NA,NA,NA,NA,NA,pleasant,unpleasant,NA,NA,NA,NA,NA,left,1491,true,NA,NA,NA,NA,NA,NA,NA,NA
zuHVd5k8,3fk4g712o0duz4m7qhicsa7sfszsso,3b3wtrp3dfflca74ey8h9hlqupv921,zuHVd5k8,2020-0188,2021-10-31,17:45:23,19:50:15,NA,incomplete,false,true,NA,NA,1,11,NA,green,n_s_047.jpg,NA,NA,NA,NA,NA,pleasant,unpleasant,NA,NA,NA,NA,NA,left,1590,true,NA,NA,NA,NA,NA,NA,NA,NA
zuHVd5k8,3fk4g712o0duz4m7qhicsa7sfszsso,3b3wtrp3dfflca74ey8h9hlqupv921,zuHVd5k8,2020-0188,2021-10-31,17:45:23,19:50:15,NA,incomplete,false,true,NA,NA,1,12,NA,gray,n_s_012.jpg,NA,NA,NA,NA,NA,unpleasant,pleasant,NA,NA,NA,NA,NA,right,1494,true,NA,NA,NA,NA,NA,NA,NA,NA
zuHVd5k8,3fk4g712o0duz4m7qhicsa7sfszsso,3b3wtrp3dfflca74ey8h9hlqupv921,zuHVd5k8,2020-0188,2021-10-31,17:45:23,19:50:15,NA,incomplete,false,true,NA,NA,1,13,NA,gray,n_l_110.jpg,NA,NA,NA,NA,NA,pleasant,unpleasant,NA,NA,NA,NA,NA,left,2617,true,NA,NA,NA,NA,NA,NA,NA,NA
zuHVd5k8,3fk4g712o0duz4m7qhicsa7sfszsso,3b3wtrp3dfflca74ey8h9hlqupv921,zuHVd5k8,2020-0188,2021-10-31,17:45:23,19:50:15,NA,incomplete,false,true,NA,NA,1,14,NA,gray,m_l_050.jpg,NA,NA,NA,NA,NA,unpleasant,pleasant,NA,NA,NA,NA,NA,right,2158,true,NA,NA,NA,NA,NA,NA,NA,NA
zuHVd5k8,3fk4g712o0duz4m7qhicsa7sfszsso,3b3wtrp3dfflca74ey8h9hlqupv921,zuHVd5k8,2020-0188,2021-10-31,17:45:23,19:50:15,NA,incomplete,false,true,NA,NA,1,15,NA,gray,n_l_101.jpg,NA,NA,NA,NA,NA,unpleasant,pleasant,NA,NA,NA,NA,NA,right,1847,true,NA,NA,NA,NA,NA,NA,NA,NA
zuHVd5k8,3fk4g712o0duz4m7qhicsa7sfszsso,3b3wtrp3dfflca74ey8h9hlqupv921,zuHVd5k8,2020-0188,2021-10-31,17:45:23,19:50:15,NA,incomplete,false,true,NA,NA,1,16,NA,gray,m_s_035.jpg,NA,NA,NA,NA,NA,unpleasant,pleasant,NA,NA,NA,NA,NA,right,1326,true,NA,NA,NA,NA,NA,NA,NA,NA
zuHVd5k8,3fk4g712o0duz4m7qhicsa7sfszsso,3b3wtrp3dfflca74ey8h9hlqupv921,zuHVd5k8,2020-0188,2021-10-31,17:45:23,19:50:15,NA,incomplete,false,true,NA,NA,1,17,NA,gray,n_s_117.jpg,NA,NA,NA,NA,NA,unpleasant,pleasant,NA,NA,NA,NA,NA,right,1530,true,NA,NA,NA,NA,NA,NA,NA,NA
zuHVd5k8,3fk4g712o0duz4m7qhicsa7sfszsso,3b3wtrp3dfflca74ey8h9hlqupv921,zuHVd5k8,2020-0188,2021-10-31,17:45:23,19:50:15,NA,incomplete,false,true,NA,NA,1,18,NA,white,n_s_022.jpg,NA,NA,NA,NA,NA,unpleasant,pleasant,NA,NA,NA,NA,NA,right,2494,true,NA,NA,NA,NA,NA,NA,NA,NA
zuHVd5k8,3fk4g712o0duz4m7qhicsa7sfszsso,3b3wtrp3dfflca74ey8h9hlqupv921,zuHVd5k8,2020-0188,2021-10-31,17:45:23,19:50:15,NA,incomplete,false,true,NA,NA,1,19,NA,white,m_l_094.jpg,NA,NA,NA,NA,NA,pleasant,unpleasant,NA,NA,NA,NA,NA,left,1745,true,NA,NA,NA,NA,NA,NA,NA,NA
zuHVd5k8,3fk4g712o0duz4m7qhicsa7sfszsso,3b3wtrp3dfflca74ey8h9hlqupv921,zuHVd5k8,2020-0188,2021-10-31,17:45:23,19:50:15,NA,incomplete,false,true,NA,NA,1,20,NA,white,n_l_015.jpg,NA,NA,NA,NA,NA,unpleasant,pleasant,NA,NA,NA,NA,NA,none,0,false,NA,NA,NA,NA,NA,NA,NA,NA
zuHVd5k8,3fk4g712o0duz4m7qhicsa7sfszsso,3b3wtrp3dfflca74ey8h9hlqupv921,zuHVd5k8,2020-0188,2021-10-31,17:45:23,19:50:15,NA,incomplete,false,true,NA,NA,1,21,NA,white,m_l_075.jpg,NA,NA,NA,NA,NA,pleasant,unpleasant,NA,NA,NA,NA,NA,left,2697,true,NA,NA,NA,NA,NA,NA,NA,NA
zuHVd5k8,3fk4g712o0duz4m7qhicsa7sfszsso,3b3wtrp3dfflca74ey8h9hlqupv921,zuHVd5k8,2020-0188,2021-10-31,17:45:23,19:50:15,NA,incomplete,false,true,NA,NA,1,22,NA,white,n_s_112.jpg,NA,NA,NA,NA,NA,unpleasant,pleasant,NA,NA,NA,NA,NA,right,1656,true,NA,NA,NA,NA,NA,NA,NA,NA
zuHVd5k8,3fk4g712o0duz4m7qhicsa7sfszsso,3b3wtrp3dfflca74ey8h9hlqupv921,zuHVd5k8,2020-0188,2021-10-31,17:45:23,19:50:15,NA,incomplete,false,true,NA,NA,1,23,NA,white,m_s_057.jpg,NA,NA,NA,NA,NA,pleasant,unpleasant,NA,NA,NA,NA,NA,left,2460,true,NA,NA,NA,NA,NA,NA,NA,NA
zuHVd5k8,3fk4g712o0duz4m7qhicsa7sfszsso,3b3wtrp3dfflca74ey8h9hlqupv921,zuHVd5k8,2020-0188,2021-10-31,17:45:23,19:50:15,NA,incomplete,false,true,NA,NA,1,24,NA,blue,m_l_068.jpg,NA,NA,NA,NA,NA,unpleasant,pleasant,NA,NA,NA,NA,NA,right,2157,true,NA,NA,NA,NA,NA,NA,NA,NA
zuHVd5k8,3fk4g712o0duz4m7qhicsa7sfszsso,3b3wtrp3dfflca74ey8h9hlqupv921,zuHVd5k8,2020-0188,2021-10-31,17:45:23,19:50:15,NA,incomplete,false,true,NA,NA,1,25,NA,blue,n_l_065.jpg,NA,NA,NA,NA,NA,unpleasant,pleasant,NA,NA,NA,NA,NA,none,0,false,NA,NA,NA,NA,NA,NA,NA,NA
zuHVd5k8,3fk4g712o0duz4m7qhicsa7sfszsso,3b3wtrp3dfflca74ey8h9hlqupv921,zuHVd5k8,2020-0188,2021-10-31,17:45:23,19:50:15,NA,incomplete,false,true,NA,NA,1,26,NA,blue,m_s_104.jpg,NA,NA,NA,NA,NA,pleasant,unpleasant,NA,NA,NA,NA,NA,right,1593,true,NA,NA,NA,NA,NA,NA,NA,NA
zuHVd5k8,3fk4g712o0duz4m7qhicsa7sfszsso,3b3wtrp3dfflca74ey8h9hlqupv921,zuHVd5k8,2020-0188,2021-10-31,17:45:23,19:50:15,NA,incomplete,false,true,NA,NA,1,27,NA,blue,m_l_070.jpg,NA,NA,NA,NA,NA,unpleasant,pleasant,NA,NA,NA,NA,NA,none,0,false,NA,NA,NA,NA,NA,NA,NA,NA
zuHVd5k8,3fk4g712o0duz4m7qhicsa7sfszsso,3b3wtrp3dfflca74ey8h9hlqupv921,zuHVd5k8,2020-0188,2021-10-31,17:45:23,19:50:15,NA,incomplete,false,true,NA,NA,1,28,NA,blue,n_l_001.jpg,NA,NA,NA,NA,NA,pleasant,unpleasant,NA,NA,NA,NA,NA,none,0,false,NA,NA,NA,NA,NA,NA,NA,NA
zuHVd5k8,3fk4g712o0duz4m7qhicsa7sfszsso,3b3wtrp3dfflca74ey8h9hlqupv921,zuHVd5k8,2020-0188,2021-10-31,17:45:23,19:50:15,NA,incomplete,false,true,NA,NA,1,29,NA,blue,n_l_068.jpg,NA,NA,NA,NA,NA,pleasant,unpleasant,NA,NA,NA,NA,NA,none,0,false,NA,NA,NA,NA,NA,NA,NA,NA
zuHVd5k8,3fk4g712o0duz4m7qhicsa7sfszsso,3b3wtrp3dfflca74ey8h9hlqupv921,zuHVd5k8,2020-0188,2021-10-31,17:45:23,19:50:15,NA,incomplete,false,true,NA,NA,1,30,NA,brown,n_s_079.jpg,NA,NA,NA,NA,NA,unpleasant,pleasant,NA,NA,NA,NA,NA,right,417,true,NA,NA,NA,NA,NA,NA,NA,NA
zuHVd5k8,3fk4g712o0duz4m7qhicsa7sfszsso,3b3wtrp3dfflca74ey8h9hlqupv921,zuHVd5k8,2020-0188,2021-10-31,17:45:23,19:50:15,NA,incomplete,false,true,NA,NA,1,31,NA,brown,n_l_040.jpg,NA,NA,NA,NA,NA,unpleasant,pleasant,NA,NA,NA,NA,NA,right,1806,true,NA,NA,NA,NA,NA,NA,NA,NA
zuHVd5k8,3fk4g712o0duz4m7qhicsa7sfszsso,3b3wtrp3dfflca74ey8h9hlqupv921,zuHVd5k8,2020-0188,2021-10-31,17:45:23,19:50:15,NA,incomplete,false,true,NA,NA,1,32,NA,brown,m_s_020.jpg,NA,NA,NA,NA,NA,unpleasant,pleasant,NA,NA,NA,NA,NA,none,0,false,NA,NA,NA,NA,NA,NA,NA,NA
zuHVd5k8,3fk4g712o0duz4m7qhicsa7sfszsso,3b3wtrp3dfflca74ey8h9hlqupv921,zuHVd5k8,2020-0188,2021-10-31,17:45:23,19:50:15,NA,incomplete,false,true,NA,NA,1,33,NA,brown,n_s_069.jpg,NA,NA,NA,NA,NA,pleasant,unpleasant,NA,NA,NA,NA,NA,none,0,false,NA,NA,NA,NA,NA,NA,NA,NA
zuHVd5k8,3fk4g712o0duz4m7qhicsa7sfszsso,3b3wtrp3dfflca74ey8h9hlqupv921,zuHVd5k8,2020-0188,2021-10-31,17:45:23,19:50:15,NA,incomplete,false,true,NA,NA,1,34,NA,brown,n_l_050.jpg,NA,NA,NA,NA,NA,pleasant,unpleasant,NA,NA,NA,NA,NA,right,2735,true,NA,NA,NA,NA,NA,NA,NA,NA
zuHVd5k8,3fk4g712o0duz4m7qhicsa7sfszsso,3b3wtrp3dfflca74ey8h9hlqupv921,zuHVd5k8,2020-0188,2021-10-31,17:45:23,19:50:15,NA,incomplete,false,true,NA,NA,1,35,NA,brown,m_l_033.jpg,NA,NA,NA,NA,NA,unpleasant,pleasant,NA,NA,NA,NA,NA,left,676,true,NA,NA,NA,NA,NA,NA,NA,NA
zuHVd5k8,3fk4g712o0duz4m7qhicsa7sfszsso,3b3wtrp3dfflca74ey8h9hlqupv921,zuHVd5k8,2020-0188,2021-10-31,17:45:23,19:50:15,NA,incomplete,false,NA,NA,true,1,0,NA,NA,NA,left,m_l_033.jpg,brown,blue,NA,NA,NA,NA,NA,NA,NA,NA,NA,NaN,NA,5624,left,1,NA,NA,NA,NA,NA
zuHVd5k8,3fk4g712o0duz4m7qhicsa7sfszsso,3b3wtrp3dfflca74ey8h9hlqupv921,zuHVd5k8,2020-0188,2021-10-31,17:45:23,19:50:15,NA,incomplete,false,NA,NA,true,1,1,NA,NA,NA,right,n_l_054.jpg,green,black,NA,NA,NA,NA,NA,NA,NA,NA,NA,NaN,NA,3296,right,1,NA,NA,NA,NA,NA
zuHVd5k8,3fk4g712o0duz4m7qhicsa7sfszsso,3b3wtrp3dfflca74ey8h9hlqupv921,zuHVd5k8,2020-0188,2021-10-31,17:45:23,19:50:15,NA,incomplete,false,NA,NA,true,1,2,NA,NA,NA,left,m_l_004.jpg,black,green,NA,NA,NA,NA,NA,NA,NA,NA,NA,NaN,NA,2658,left,1,NA,NA,NA,NA,NA
zuHVd5k8,3fk4g712o0duz4m7qhicsa7sfszsso,3b3wtrp3dfflca74ey8h9hlqupv921,zuHVd5k8,2020-0188,2021-10-31,17:45:23,19:50:15,NA,incomplete,false,NA,NA,true,1,3,NA,NA,NA,right,m_s_052.jpg,gray,green,NA,NA,NA,NA,NA,NA,NA,NA,NA,NaN,NA,2300,right,1,NA,NA,NA,NA,NA
zuHVd5k8,3fk4g712o0duz4m7qhicsa7sfszsso,3b3wtrp3dfflca74ey8h9hlqupv921,zuHVd5k8,2020-0188,2021-10-31,17:45:23,19:50:15,NA,incomplete,false,NA,NA,true,1,4,NA,NA,NA,left,n_s_047.jpg,green,gray,NA,NA,NA,NA,NA,NA,NA,NA,NA,NaN,NA,2611,right,0,NA,NA,NA,NA,NA
zuHVd5k8,3fk4g712o0duz4m7qhicsa7sfszsso,3b3wtrp3dfflca74ey8h9hlqupv921,zuHVd5k8,2020-0188,2021-10-31,17:45:23,19:50:15,NA,incomplete,false,NA,NA,true,1,5,NA,NA,NA,right,n_l_110.jpg,white,gray,NA,NA,NA,NA,NA,NA,NA,NA,NA,NaN,NA,2682,right,1,NA,NA,NA,NA,NA
zuHVd5k8,3fk4g712o0duz4m7qhicsa7sfszsso,3b3wtrp3dfflca74ey8h9hlqupv921,zuHVd5k8,2020-0188,2021-10-31,17:45:23,19:50:15,NA,incomplete,false,NA,NA,true,1,6,NA,NA,NA,right,m_l_050.jpg,white,gray,NA,NA,NA,NA,NA,NA,NA,NA,NA,NaN,NA,2676,right,1,NA,NA,NA,NA,NA
zuHVd5k8,3fk4g712o0duz4m7qhicsa7sfszsso,3b3wtrp3dfflca74ey8h9hlqupv921,zuHVd5k8,2020-0188,2021-10-31,17:45:23,19:50:15,NA,incomplete,false,NA,NA,true,1,7,NA,NA,NA,left,m_s_104.jpg,blue,white,NA,NA,NA,NA,NA,NA,NA,NA,NA,NaN,NA,2079,left,1,NA,NA,NA,NA,NA
zuHVd5k8,3fk4g712o0duz4m7qhicsa7sfszsso,3b3wtrp3dfflca74ey8h9hlqupv921,zuHVd5k8,2020-0188,2021-10-31,17:45:23,19:50:15,NA,incomplete,false,NA,NA,true,1,8,NA,NA,NA,left,n_s_077.jpg,green,gray,NA,NA,NA,NA,NA,NA,NA,NA,NA,NaN,NA,2494,left,1,NA,NA,NA,NA,NA
zuHVd5k8,3fk4g712o0duz4m7qhicsa7sfszsso,3b3wtrp3dfflca74ey8h9hlqupv921,zuHVd5k8,2020-0188,2021-10-31,17:45:23,19:50:15,NA,incomplete,false,NA,NA,true,1,9,NA,NA,NA,left,n_l_068.jpg,blue,white,NA,NA,NA,NA,NA,NA,NA,NA,NA,NaN,NA,2652,left,1,NA,NA,NA,NA,NA
zuHVd5k8,3fk4g712o0duz4m7qhicsa7sfszsso,3b3wtrp3dfflca74ey8h9hlqupv921,zuHVd5k8,2020-0188,2021-10-31,17:45:23,19:50:15,NA,incomplete,false,NA,NA,true,1,10,NA,NA,NA,right,n_l_065.jpg,brown,blue,NA,NA,NA,NA,NA,NA,NA,NA,NA,NaN,NA,4209,left,0,NA,NA,NA,NA,NA
zuHVd5k8,3fk4g712o0duz4m7qhicsa7sfszsso,3b3wtrp3dfflca74ey8h9hlqupv921,zuHVd5k8,2020-0188,2021-10-31,17:45:23,19:50:15,NA,incomplete,false,NA,NA,true,1,11,NA,NA,NA,left,m_l_023.jpg,black,green,NA,NA,NA,NA,NA,NA,NA,NA,NA,NaN,NA,7836,right,0,NA,NA,NA,NA,NA
zuHVd5k8,3fk4g712o0duz4m7qhicsa7sfszsso,3b3wtrp3dfflca74ey8h9hlqupv921,zuHVd5k8,2020-0188,2021-10-31,17:45:23,19:50:15,NA,incomplete,false,NA,NA,true,1,12,NA,NA,NA,right,m_l_094.jpg,blue,white,NA,NA,NA,NA,NA,NA,NA,NA,NA,NaN,NA,2387,right,1,NA,NA,NA,NA,NA
zuHVd5k8,3fk4g712o0duz4m7qhicsa7sfszsso,3b3wtrp3dfflca74ey8h9hlqupv921,zuHVd5k8,2020-0188,2021-10-31,17:45:23,19:50:15,NA,incomplete,false,NA,NA,true,1,13,NA,NA,NA,right,n_s_117.jpg,white,gray,NA,NA,NA,NA,NA,NA,NA,NA,NA,NaN,NA,2586,right,1,NA,NA,NA,NA,NA
zuHVd5k8,3fk4g712o0duz4m7qhicsa7sfszsso,3b3wtrp3dfflca74ey8h9hlqupv921,zuHVd5k8,2020-0188,2021-10-31,17:45:23,19:50:15,NA,incomplete,false,NA,NA,true,1,14,NA,NA,NA,left,m_s_020.jpg,brown,blue,NA,NA,NA,NA,NA,NA,NA,NA,NA,NaN,NA,3050,right,0,NA,NA,NA,NA,NA
zuHVd5k8,3fk4g712o0duz4m7qhicsa7sfszsso,3b3wtrp3dfflca74ey8h9hlqupv921,zuHVd5k8,2020-0188,2021-10-31,17:45:23,19:50:15,NA,incomplete,false,NA,NA,true,1,15,NA,NA,NA,right,n_l_001.jpg,brown,blue,NA,NA,NA,NA,NA,NA,NA,NA,NA,NaN,NA,3346,left,0,NA,NA,NA,NA,NA
zuHVd5k8,3fk4g712o0duz4m7qhicsa7sfszsso,3b3wtrp3dfflca74ey8h9hlqupv921,zuHVd5k8,2020-0188,2021-10-31,17:45:23,19:50:15,NA,incomplete,false,NA,NA,true,1,16,NA,NA,NA,right,m_s_057.jpg,gray,white,NA,NA,NA,NA,NA,NA,NA,NA,NA,NaN,NA,3061,left,0,NA,NA,NA,NA,NA
zuHVd5k8,3fk4g712o0duz4m7qhicsa7sfszsso,3b3wtrp3dfflca74ey8h9hlqupv921,zuHVd5k8,2020-0188,2021-10-31,17:45:23,19:50:15,NA,incomplete,false,NA,NA,true,1,17,NA,NA,NA,right,m_s_035.jpg,white,gray,NA,NA,NA,NA,NA,NA,NA,NA,NA,NaN,NA,1999,right,1,NA,NA,NA,NA,NA
zuHVd5k8,3fk4g712o0duz4m7qhicsa7sfszsso,3b3wtrp3dfflca74ey8h9hlqupv921,zuHVd5k8,2020-0188,2021-10-31,17:45:23,19:50:15,NA,incomplete,false,NA,NA,true,1,18,NA,NA,NA,left,n_s_112.jpg,white,gray,NA,NA,NA,NA,NA,NA,NA,NA,NA,NaN,NA,2276,right,0,NA,NA,NA,NA,NA
zuHVd5k8,3fk4g712o0duz4m7qhicsa7sfszsso,3b3wtrp3dfflca74ey8h9hlqupv921,zuHVd5k8,2020-0188,2021-10-31,17:45:23,19:50:15,NA,incomplete,false,NA,NA,true,1,19,NA,NA,NA,right,m_s_056.jpg,black,green,NA,NA,NA,NA,NA,NA,NA,NA,NA,NaN,NA,2570,right,1,NA,NA,NA,NA,NA
zuHVd5k8,3fk4g712o0duz4m7qhicsa7sfszsso,3b3wtrp3dfflca74ey8h9hlqupv921,zuHVd5k8,2020-0188,2021-10-31,17:45:23,19:50:15,NA,incomplete,false,NA,NA,true,1,20,NA,NA,NA,left,n_l_040.jpg,brown,blue,NA,NA,NA,NA,NA,NA,NA,NA,NA,NaN,NA,3650,right,0,NA,NA,NA,NA,NA
zuHVd5k8,3fk4g712o0duz4m7qhicsa7sfszsso,3b3wtrp3dfflca74ey8h9hlqupv921,zuHVd5k8,2020-0188,2021-10-31,17:45:23,19:50:15,NA,incomplete,false,NA,NA,true,1,21,NA,NA,NA,right,n_l_015.jpg,gray,white,NA,NA,NA,NA,NA,NA,NA,NA,NA,NaN,NA,2725,left,0,NA,NA,NA,NA,NA
zuHVd5k8,3fk4g712o0duz4m7qhicsa7sfszsso,3b3wtrp3dfflca74ey8h9hlqupv921,zuHVd5k8,2020-0188,2021-10-31,17:45:23,19:50:15,NA,incomplete,false,NA,true,NA,1,0,NA,NA,NA,left,NA,NA,NA,present,NA,NA,n_l_065.jpg,blue,n_l_068.jpg,blue,within,NA,NaN,NA,NA,NA,NA,left,5093,1,2,12136
zuHVd5k8,3fk4g712o0duz4m7qhicsa7sfszsso,3b3wtrp3dfflca74ey8h9hlqupv921,zuHVd5k8,2020-0188,2021-10-31,17:45:23,19:50:15,NA,incomplete,false,NA,true,NA,1,1,NA,NA,NA,left,NA,NA,NA,present,NA,NA,m_s_035.jpg,gray,n_l_015.jpg,white,between,NA,NaN,NA,NA,NA,NA,right,8012,0,1,5819
zuHVd5k8,3fk4g712o0duz4m7qhicsa7sfszsso,3b3wtrp3dfflca74ey8h9hlqupv921,zuHVd5k8,2020-0188,2021-10-31,17:45:23,19:50:15,NA,incomplete,false,NA,true,NA,1,2,NA,NA,NA,right,NA,NA,NA,present,NA,NA,m_s_104.jpg,blue,n_s_112.jpg,white,between,NA,NaN,NA,NA,NA,NA,right,17140,1,1,2472
zuHVd5k8,3fk4g712o0duz4m7qhicsa7sfszsso,3b3wtrp3dfflca74ey8h9hlqupv921,zuHVd5k8,2020-0188,2021-10-31,17:45:23,19:50:15,NA,incomplete,false,NA,true,NA,1,3,NA,NA,NA,right,NA,NA,NA,present,NA,NA,n_l_054.jpg,black,m_l_004.jpg,black,within,NA,NaN,NA,NA,NA,NA,right,3696,1,1,1978
zuHVd5k8,3fk4g712o0duz4m7qhicsa7sfszsso,3b3wtrp3dfflca74ey8h9hlqupv921,zuHVd5k8,2020-0188,2021-10-31,17:45:23,19:50:15,NA,incomplete,false,NA,true,NA,1,4,NA,NA,NA,left,NA,NA,NA,present,NA,NA,n_l_040.jpg,brown,m_l_033.jpg,brown,within,NA,NaN,NA,NA,NA,NA,left,3560,1,2,4514
zuHVd5k8,3fk4g712o0duz4m7qhicsa7sfszsso,3b3wtrp3dfflca74ey8h9hlqupv921,zuHVd5k8,2020-0188,2021-10-31,17:45:23,19:50:15,NA,incomplete,false,NA,true,NA,1,5,NA,NA,NA,right,NA,NA,NA,present,NA,NA,m_s_020.jpg,brown,n_l_001.jpg,blue,between,NA,NaN,NA,NA,NA,NA,left,3293,0,1,1518
zuHVd5k8,3fk4g712o0duz4m7qhicsa7sfszsso,3b3wtrp3dfflca74ey8h9hlqupv921,zuHVd5k8,2020-0188,2021-10-31,17:45:23,19:50:15,NA,incomplete,false,NA,true,NA,1,6,NA,NA,NA,right,NA,NA,NA,present,NA,NA,n_s_047.jpg,green,m_s_056.jpg,green,within,NA,NaN,NA,NA,NA,NA,right,3191,1,0,1814
zuHVd5k8,3fk4g712o0duz4m7qhicsa7sfszsso,3b3wtrp3dfflca74ey8h9hlqupv921,zuHVd5k8,2020-0188,2021-10-31,17:45:23,19:50:15,NA,incomplete,false,NA,true,NA,1,7,NA,NA,NA,left,NA,NA,NA,present,NA,NA,m_s_052.jpg,green,m_l_050.jpg,gray,between,NA,NaN,NA,NA,NA,NA,left,4145,1,0,3330
zuHVd5k8,3fk4g712o0duz4m7qhicsa7sfszsso,3b3wtrp3dfflca74ey8h9hlqupv921,zuHVd5k8,2020-0188,2021-10-31,17:45:23,19:50:15,NA,incomplete,false,NA,true,NA,1,8,NA,NA,NA,left,NA,NA,NA,present,NA,NA,m_l_023.jpg,black,n_s_077.jpg,green,between,NA,NaN,NA,NA,NA,NA,right,2220,0,0,1560
zuHVd5k8,3fk4g712o0duz4m7qhicsa7sfszsso,3b3wtrp3dfflca74ey8h9hlqupv921,zuHVd5k8,2020-0188,2021-10-31,17:45:23,19:50:15,NA,incomplete,false,NA,true,NA,1,9,NA,NA,NA,left,NA,NA,NA,present,NA,NA,m_l_094.jpg,white,m_s_057.jpg,white,within,NA,NaN,NA,NA,NA,NA,left,2501,1,1,1258
zuHVd5k8,3fk4g712o0duz4m7qhicsa7sfszsso,3b3wtrp3dfflca74ey8h9hlqupv921,zuHVd5k8,2020-0188,2021-10-31,17:45:23,19:50:15,NA,incomplete,false,NA,true,NA,1,10,NA,NA,NA,left,NA,NA,NA,present,NA,NA,n_l_110.jpg,gray,n_s_117.jpg,gray,within,NA,NaN,NA,NA,NA,NA,left,2451,1,0,3028
zuHVd5k8,3fk4g712o0duz4m7qhicsa7sfszsso,3b3wtrp3dfflca74ey8h9hlqupv921,zuHVd5k8,2020-0188,2021-10-31,17:45:23,19:50:15,NA,incomplete,false,true,NA,NA,2,0,NA,orange,m_s_071.jpg,NA,NA,NA,NA,NA,pleasant,unpleasant,NA,NA,NA,NA,NA,none,0,false,NA,NA,NA,NA,NA,NA,NA,NA
zuHVd5k8,3fk4g712o0duz4m7qhicsa7sfszsso,3b3wtrp3dfflca74ey8h9hlqupv921,zuHVd5k8,2020-0188,2021-10-31,17:45:23,19:50:15,NA,incomplete,false,true,NA,NA,2,1,NA,orange,m_l_116.jpg,NA,NA,NA,NA,NA,pleasant,unpleasant,NA,NA,NA,NA,NA,left,1832,true,NA,NA,NA,NA,NA,NA,NA,NA
zuHVd5k8,3fk4g712o0duz4m7qhicsa7sfszsso,3b3wtrp3dfflca74ey8h9hlqupv921,zuHVd5k8,2020-0188,2021-10-31,17:45:23,19:50:15,NA,incomplete,false,true,NA,NA,2,2,NA,orange,m_s_034.jpg,NA,NA,NA,NA,NA,pleasant,unpleasant,NA,NA,NA,NA,NA,left,2364,true,NA,NA,NA,NA,NA,NA,NA,NA
zuHVd5k8,3fk4g712o0duz4m7qhicsa7sfszsso,3b3wtrp3dfflca74ey8h9hlqupv921,zuHVd5k8,2020-0188,2021-10-31,17:45:23,19:50:15,NA,incomplete,false,true,NA,NA,2,3,NA,orange,n_s_082.jpg,NA,NA,NA,NA,NA,pleasant,unpleasant,NA,NA,NA,NA,NA,left,1947,true,NA,NA,NA,NA,NA,NA,NA,NA
zuHVd5k8,3fk4g712o0duz4m7qhicsa7sfszsso,3b3wtrp3dfflca74ey8h9hlqupv921,zuHVd5k8,2020-0188,2021-10-31,17:45:23,19:50:15,NA,incomplete,false,true,NA,NA,2,4,NA,orange,m_l_109.jpg,NA,NA,NA,NA,NA,pleasant,unpleasant,NA,NA,NA,NA,NA,left,2797,true,NA,NA,NA,NA,NA,NA,NA,NA
zuHVd5k8,3fk4g712o0duz4m7qhicsa7sfszsso,3b3wtrp3dfflca74ey8h9hlqupv921,zuHVd5k8,2020-0188,2021-10-31,17:45:23,19:50:15,NA,incomplete,false,true,NA,NA,2,5,NA,orange,m_l_053.jpg,NA,NA,NA,NA,NA,pleasant,unpleasant,NA,NA,NA,NA,NA,left,1760,true,NA,NA,NA,NA,NA,NA,NA,NA
zuHVd5k8,3fk4g712o0duz4m7qhicsa7sfszsso,3b3wtrp3dfflca74ey8h9hlqupv921,zuHVd5k8,2020-0188,2021-10-31,17:45:23,19:50:15,NA,incomplete,false,true,NA,NA,2,6,NA,green,m_l_092.jpg,NA,NA,NA,NA,NA,pleasant,unpleasant,NA,NA,NA,NA,NA,left,1607,true,NA,NA,NA,NA,NA,NA,NA,NA
zuHVd5k8,3fk4g712o0duz4m7qhicsa7sfszsso,3b3wtrp3dfflca74ey8h9hlqupv921,zuHVd5k8,2020-0188,2021-10-31,17:45:23,19:50:15,NA,incomplete,false,true,NA,NA,2,7,NA,green,m_l_079.jpg,NA,NA,NA,NA,NA,unpleasant,pleasant,NA,NA,NA,NA,NA,right,1446,true,NA,NA,NA,NA,NA,NA,NA,NA
zuHVd5k8,3fk4g712o0duz4m7qhicsa7sfszsso,3b3wtrp3dfflca74ey8h9hlqupv921,zuHVd5k8,2020-0188,2021-10-31,17:45:23,19:50:15,NA,incomplete,false,true,NA,NA,2,8,NA,green,n_l_049.jpg,NA,NA,NA,NA,NA,unpleasant,pleasant,NA,NA,NA,NA,NA,right,3237,true,NA,NA,NA,NA,NA,NA,NA,NA
zuHVd5k8,3fk4g712o0duz4m7qhicsa7sfszsso,3b3wtrp3dfflca74ey8h9hlqupv921,zuHVd5k8,2020-0188,2021-10-31,17:45:23,19:50:15,NA,incomplete,false,true,NA,NA,2,9,NA,green,m_l_052.jpg,NA,NA,NA,NA,NA,pleasant,unpleasant,NA,NA,NA,NA,NA,left,1308,true,NA,NA,NA,NA,NA,NA,NA,NA
zuHVd5k8,3fk4g712o0duz4m7qhicsa7sfszsso,3b3wtrp3dfflca74ey8h9hlqupv921,zuHVd5k8,2020-0188,2021-10-31,17:45:23,19:50:15,NA,incomplete,false,true,NA,NA,2,10,NA,green,m_s_079.jpg,NA,NA,NA,NA,NA,pleasant,unpleasant,NA,NA,NA,NA,NA,left,1540,true,NA,NA,NA,NA,NA,NA,NA,NA
zuHVd5k8,3fk4g712o0duz4m7qhicsa7sfszsso,3b3wtrp3dfflca74ey8h9hlqupv921,zuHVd5k8,2020-0188,2021-10-31,17:45:23,19:50:15,NA,incomplete,false,true,NA,NA,2,11,NA,green,m_l_010.jpg,NA,NA,NA,NA,NA,unpleasant,pleasant,NA,NA,NA,NA,NA,right,1752,true,NA,NA,NA,NA,NA,NA,NA,NA
zuHVd5k8,3fk4g712o0duz4m7qhicsa7sfszsso,3b3wtrp3dfflca74ey8h9hlqupv921,zuHVd5k8,2020-0188,2021-10-31,17:45:23,19:50:15,NA,incomplete,false,true,NA,NA,2,12,NA,yellow,m_s_115.jpg,NA,NA,NA,NA,NA,unpleasant,pleasant,NA,NA,NA,NA,NA,right,1691,true,NA,NA,NA,NA,NA,NA,NA,NA
zuHVd5k8,3fk4g712o0duz4m7qhicsa7sfszsso,3b3wtrp3dfflca74ey8h9hlqupv921,zuHVd5k8,2020-0188,2021-10-31,17:45:23,19:50:15,NA,incomplete,false,true,NA,NA,2,13,NA,yellow,m_l_055.jpg,NA,NA,NA,NA,NA,unpleasant,pleasant,NA,NA,NA,NA,NA,right,1250,true,NA,NA,NA,NA,NA,NA,NA,NA
zuHVd5k8,3fk4g712o0duz4m7qhicsa7sfszsso,3b3wtrp3dfflca74ey8h9hlqupv921,zuHVd5k8,2020-0188,2021-10-31,17:45:23,19:50:15,NA,incomplete,false,true,NA,NA,2,14,NA,yellow,m_s_062.jpg,NA,NA,NA,NA,NA,pleasant,unpleasant,NA,NA,NA,NA,NA,left,1362,true,NA,NA,NA,NA,NA,NA,NA,NA
zuHVd5k8,3fk4g712o0duz4m7qhicsa7sfszsso,3b3wtrp3dfflca74ey8h9hlqupv921,zuHVd5k8,2020-0188,2021-10-31,17:45:23,19:50:15,NA,incomplete,false,true,NA,NA,2,15,NA,yellow,m_s_045.jpg,NA,NA,NA,NA,NA,pleasant,unpleasant,NA,NA,NA,NA,NA,left,1600,true,NA,NA,NA,NA,NA,NA,NA,NA
zuHVd5k8,3fk4g712o0duz4m7qhicsa7sfszsso,3b3wtrp3dfflca74ey8h9hlqupv921,zuHVd5k8,2020-0188,2021-10-31,17:45:23,19:50:15,NA,incomplete,false,true,NA,NA,2,16,NA,yellow,n_s_046.jpg,NA,NA,NA,NA,NA,pleasant,unpleasant,NA,NA,NA,NA,NA,left,1588,true,NA,NA,NA,NA,NA,NA,NA,NA
zuHVd5k8,3fk4g712o0duz4m7qhicsa7sfszsso,3b3wtrp3dfflca74ey8h9hlqupv921,zuHVd5k8,2020-0188,2021-10-31,17:45:23,19:50:15,NA,incomplete,false,true,NA,NA,2,17,NA,yellow,m_l_113.jpg,NA,NA,NA,NA,NA,unpleasant,pleasant,NA,NA,NA,NA,NA,right,1559,true,NA,NA,NA,NA,NA,NA,NA,NA
zuHVd5k8,3fk4g712o0duz4m7qhicsa7sfszsso,3b3wtrp3dfflca74ey8h9hlqupv921,zuHVd5k8,2020-0188,2021-10-31,17:45:23,19:50:15,NA,incomplete,false,true,NA,NA,2,18,NA,red,n_s_044.jpg,NA,NA,NA,NA,NA,pleasant,unpleasant,NA,NA,NA,NA,NA,left,1561,true,NA,NA,NA,NA,NA,NA,NA,NA
zuHVd5k8,3fk4g712o0duz4m7qhicsa7sfszsso,3b3wtrp3dfflca74ey8h9hlqupv921,zuHVd5k8,2020-0188,2021-10-31,17:45:23,19:50:15,NA,incomplete,false,true,NA,NA,2,19,NA,red,m_s_076.jpg,NA,NA,NA,NA,NA,unpleasant,pleasant,NA,NA,NA,NA,NA,right,1461,true,NA,NA,NA,NA,NA,NA,NA,NA
zuHVd5k8,3fk4g712o0duz4m7qhicsa7sfszsso,3b3wtrp3dfflca74ey8h9hlqupv921,zuHVd5k8,2020-0188,2021-10-31,17:45:23,19:50:15,NA,incomplete,false,true,NA,NA,2,20,NA,red,m_l_028.jpg,NA,NA,NA,NA,NA,unpleasant,pleasant,NA,NA,NA,NA,NA,right,1205,true,NA,NA,NA,NA,NA,NA,NA,NA
zuHVd5k8,3fk4g712o0duz4m7qhicsa7sfszsso,3b3wtrp3dfflca74ey8h9hlqupv921,zuHVd5k8,2020-0188,2021-10-31,17:45:23,19:50:15,NA,incomplete,false,true,NA,NA,2,21,NA,red,m_l_117.jpg,NA,NA,NA,NA,NA,pleasant,unpleasant,NA,NA,NA,NA,NA,left,2275,true,NA,NA,NA,NA,NA,NA,NA,NA
zuHVd5k8,3fk4g712o0duz4m7qhicsa7sfszsso,3b3wtrp3dfflca74ey8h9hlqupv921,zuHVd5k8,2020-0188,2021-10-31,17:45:23,19:50:15,NA,incomplete,false,true,NA,NA,2,22,NA,red,m_s_048.jpg,NA,NA,NA,NA,NA,unpleasant,pleasant,NA,NA,NA,NA,NA,right,2025,true,NA,NA,NA,NA,NA,NA,NA,NA
zuHVd5k8,3fk4g712o0duz4m7qhicsa7sfszsso,3b3wtrp3dfflca74ey8h9hlqupv921,zuHVd5k8,2020-0188,2021-10-31,17:45:23,19:50:15,NA,incomplete,false,true,NA,NA,2,23,NA,red,m_l_005.jpg,NA,NA,NA,NA,NA,unpleasant,pleasant,NA,NA,NA,NA,NA,right,2773,true,NA,NA,NA,NA,NA,NA,NA,NA
zuHVd5k8,3fk4g712o0duz4m7qhicsa7sfszsso,3b3wtrp3dfflca74ey8h9hlqupv921,zuHVd5k8,2020-0188,2021-10-31,17:45:23,19:50:15,NA,incomplete,false,true,NA,NA,2,24,NA,black,n_l_004.jpg,NA,NA,NA,NA,NA,pleasant,unpleasant,NA,NA,NA,NA,NA,left,1919,true,NA,NA,NA,NA,NA,NA,NA,NA
zuHVd5k8,3fk4g712o0duz4m7qhicsa7sfszsso,3b3wtrp3dfflca74ey8h9hlqupv921,zuHVd5k8,2020-0188,2021-10-31,17:45:23,19:50:15,NA,incomplete,false,true,NA,NA,2,25,NA,black,m_s_027.jpg,NA,NA,NA,NA,NA,pleasant,unpleasant,NA,NA,NA,NA,NA,left,1170,true,NA,NA,NA,NA,NA,NA,NA,NA
zuHVd5k8,3fk4g712o0duz4m7qhicsa7sfszsso,3b3wtrp3dfflca74ey8h9hlqupv921,zuHVd5k8,2020-0188,2021-10-31,17:45:23,19:50:15,NA,incomplete,false,true,NA,NA,2,26,NA,black,m_s_053.jpg,NA,NA,NA,NA,NA,unpleasant,pleasant,NA,NA,NA,NA,NA,right,1409,true,NA,NA,NA,NA,NA,NA,NA,NA
zuHVd5k8,3fk4g712o0duz4m7qhicsa7sfszsso,3b3wtrp3dfflca74ey8h9hlqupv921,zuHVd5k8,2020-0188,2021-10-31,17:45:23,19:50:15,NA,incomplete,false,true,NA,NA,2,27,NA,black,m_s_017.jpg,NA,NA,NA,NA,NA,pleasant,unpleasant,NA,NA,NA,NA,NA,left,1534,true,NA,NA,NA,NA,NA,NA,NA,NA
zuHVd5k8,3fk4g712o0duz4m7qhicsa7sfszsso,3b3wtrp3dfflca74ey8h9hlqupv921,zuHVd5k8,2020-0188,2021-10-31,17:45:23,19:50:15,NA,incomplete,false,true,NA,NA,2,28,NA,black,m_s_037.jpg,NA,NA,NA,NA,NA,pleasant,unpleasant,NA,NA,NA,NA,NA,left,1529,true,NA,NA,NA,NA,NA,NA,NA,NA
zuHVd5k8,3fk4g712o0duz4m7qhicsa7sfszsso,3b3wtrp3dfflca74ey8h9hlqupv921,zuHVd5k8,2020-0188,2021-10-31,17:45:23,19:50:15,NA,incomplete,false,true,NA,NA,2,29,NA,black,m_l_088.jpg,NA,NA,NA,NA,NA,unpleasant,pleasant,NA,NA,NA,NA,NA,right,1983,true,NA,NA,NA,NA,NA,NA,NA,NA
zuHVd5k8,3fk4g712o0duz4m7qhicsa7sfszsso,3b3wtrp3dfflca74ey8h9hlqupv921,zuHVd5k8,2020-0188,2021-10-31,17:45:23,19:50:15,NA,incomplete,false,true,NA,NA,2,30,NA,purple,m_l_002.jpg,NA,NA,NA,NA,NA,unpleasant,pleasant,NA,NA,NA,NA,NA,right,942,true,NA,NA,NA,NA,NA,NA,NA,NA
zuHVd5k8,3fk4g712o0duz4m7qhicsa7sfszsso,3b3wtrp3dfflca74ey8h9hlqupv921,zuHVd5k8,2020-0188,2021-10-31,17:45:23,19:50:15,NA,incomplete,false,true,NA,NA,2,31,NA,purple,m_s_091.jpg,NA,NA,NA,NA,NA,pleasant,unpleasant,NA,NA,NA,NA,NA,left,1324,true,NA,NA,NA,NA,NA,NA,NA,NA
zuHVd5k8,3fk4g712o0duz4m7qhicsa7sfszsso,3b3wtrp3dfflca74ey8h9hlqupv921,zuHVd5k8,2020-0188,2021-10-31,17:45:23,19:50:15,NA,incomplete,false,true,NA,NA,2,32,NA,purple,n_s_015.jpg,NA,NA,NA,NA,NA,unpleasant,pleasant,NA,NA,NA,NA,NA,right,1141,true,NA,NA,NA,NA,NA,NA,NA,NA
zuHVd5k8,3fk4g712o0duz4m7qhicsa7sfszsso,3b3wtrp3dfflca74ey8h9hlqupv921,zuHVd5k8,2020-0188,2021-10-31,17:45:23,19:50:15,NA,incomplete,false,true,NA,NA,2,33,NA,purple,m_l_111.jpg,NA,NA,NA,NA,NA,unpleasant,pleasant,NA,NA,NA,NA,NA,right,1512,true,NA,NA,NA,NA,NA,NA,NA,NA
zuHVd5k8,3fk4g712o0duz4m7qhicsa7sfszsso,3b3wtrp3dfflca74ey8h9hlqupv921,zuHVd5k8,2020-0188,2021-10-31,17:45:23,19:50:15,NA,incomplete,false,true,NA,NA,2,34,NA,purple,n_s_033.jpg,NA,NA,NA,NA,NA,pleasant,unpleasant,NA,NA,NA,NA,NA,left,1951,true,NA,NA,NA,NA,NA,NA,NA,NA
zuHVd5k8,3fk4g712o0duz4m7qhicsa7sfszsso,3b3wtrp3dfflca74ey8h9hlqupv921,zuHVd5k8,2020-0188,2021-10-31,17:45:23,19:50:15,NA,incomplete,false,true,NA,NA,2,35,NA,purple,m_s_112.jpg,NA,NA,NA,NA,NA,unpleasant,pleasant,NA,NA,NA,NA,NA,right,2141,true,NA,NA,NA,NA,NA,NA,NA,NA
zuHVd5k8,3fk4g712o0duz4m7qhicsa7sfszsso,3b3wtrp3dfflca74ey8h9hlqupv921,zuHVd5k8,2020-0188,2021-10-31,17:45:23,19:50:15,NA,incomplete,false,NA,NA,true,2,0,NA,NA,NA,right,n_s_046.jpg,red,yellow,NA,NA,NA,NA,NA,NA,NA,NA,NA,NaN,NA,3709,left,0,NA,NA,NA,NA,NA
zuHVd5k8,3fk4g712o0duz4m7qhicsa7sfszsso,3b3wtrp3dfflca74ey8h9hlqupv921,zuHVd5k8,2020-0188,2021-10-31,17:45:23,19:50:15,NA,incomplete,false,NA,NA,true,2,1,NA,NA,NA,right,m_l_113.jpg,red,yellow,NA,NA,NA,NA,NA,NA,NA,NA,NA,NaN,NA,2938,left,0,NA,NA,NA,NA,NA
zuHVd5k8,3fk4g712o0duz4m7qhicsa7sfszsso,3b3wtrp3dfflca74ey8h9hlqupv921,zuHVd5k8,2020-0188,2021-10-31,17:45:23,19:50:15,NA,incomplete,false,NA,NA,true,2,2,NA,NA,NA,left,m_s_112.jpg,purple,black,NA,NA,NA,NA,NA,NA,NA,NA,NA,NaN,NA,2526,right,0,NA,NA,NA,NA,NA
zuHVd5k8,3fk4g712o0duz4m7qhicsa7sfszsso,3b3wtrp3dfflca74ey8h9hlqupv921,zuHVd5k8,2020-0188,2021-10-31,17:45:23,19:50:15,NA,incomplete,false,NA,NA,true,2,3,NA,NA,NA,right,m_s_079.jpg,orange,green,NA,NA,NA,NA,NA,NA,NA,NA,NA,NaN,NA,2705,right,1,NA,NA,NA,NA,NA
zuHVd5k8,3fk4g712o0duz4m7qhicsa7sfszsso,3b3wtrp3dfflca74ey8h9hlqupv921,zuHVd5k8,2020-0188,2021-10-31,17:45:23,19:50:15,NA,incomplete,false,NA,NA,true,2,4,NA,NA,NA,right,m_l_079.jpg,orange,green,NA,NA,NA,NA,NA,NA,NA,NA,NA,NaN,NA,3130,right,1,NA,NA,NA,NA,NA
zuHVd5k8,3fk4g712o0duz4m7qhicsa7sfszsso,3b3wtrp3dfflca74ey8h9hlqupv921,zuHVd5k8,2020-0188,2021-10-31,17:45:23,19:50:15,NA,incomplete,false,NA,NA,true,2,5,NA,NA,NA,right,m_s_037.jpg,red,black,NA,NA,NA,NA,NA,NA,NA,NA,NA,NaN,NA,3099,right,1,NA,NA,NA,NA,NA
zuHVd5k8,3fk4g712o0duz4m7qhicsa7sfszsso,3b3wtrp3dfflca74ey8h9hlqupv921,zuHVd5k8,2020-0188,2021-10-31,17:45:23,19:50:15,NA,incomplete,false,NA,NA,true,2,6,NA,NA,NA,left,m_s_027.jpg,black,red,NA,NA,NA,NA,NA,NA,NA,NA,NA,NaN,NA,5925,right,0,NA,NA,NA,NA,NA
zuHVd5k8,3fk4g712o0duz4m7qhicsa7sfszsso,3b3wtrp3dfflca74ey8h9hlqupv921,zuHVd5k8,2020-0188,2021-10-31,17:45:23,19:50:15,NA,incomplete,false,NA,NA,true,2,7,NA,NA,NA,right,m_l_055.jpg,green,yellow,NA,NA,NA,NA,NA,NA,NA,NA,NA,NaN,NA,3458,left,0,NA,NA,NA,NA,NA
zuHVd5k8,3fk4g712o0duz4m7qhicsa7sfszsso,3b3wtrp3dfflca74ey8h9hlqupv921,zuHVd5k8,2020-0188,2021-10-31,17:45:23,19:50:15,NA,incomplete,false,NA,NA,true,2,8,NA,NA,NA,left,m_l_088.jpg,black,red,NA,NA,NA,NA,NA,NA,NA,NA,NA,NaN,NA,2960,left,1,NA,NA,NA,NA,NA
zuHVd5k8,3fk4g712o0duz4m7qhicsa7sfszsso,3b3wtrp3dfflca74ey8h9hlqupv921,zuHVd5k8,2020-0188,2021-10-31,17:45:23,19:50:15,NA,incomplete,false,NA,NA,true,2,9,NA,NA,NA,right,m_s_062.jpg,red,yellow,NA,NA,NA,NA,NA,NA,NA,NA,NA,NaN,NA,6685,right,1,NA,NA,NA,NA,NA
zuHVd5k8,3fk4g712o0duz4m7qhicsa7sfszsso,3b3wtrp3dfflca74ey8h9hlqupv921,zuHVd5k8,2020-0188,2021-10-31,17:45:23,19:50:15,NA,incomplete,false,NA,NA,true,2,10,NA,NA,NA,right,m_l_109.jpg,green,orange,NA,NA,NA,NA,NA,NA,NA,NA,NA,NaN,NA,1987,left,0,NA,NA,NA,NA,NA
zuHVd5k8,3fk4g712o0duz4m7qhicsa7sfszsso,3b3wtrp3dfflca74ey8h9hlqupv921,zuHVd5k8,2020-0188,2021-10-31,17:45:23,19:50:15,NA,incomplete,false,NA,NA,true,2,11,NA,NA,NA,right,m_l_028.jpg,yellow,red,NA,NA,NA,NA,NA,NA,NA,NA,NA,NaN,NA,2495,left,0,NA,NA,NA,NA,NA
zuHVd5k8,3fk4g712o0duz4m7qhicsa7sfszsso,3b3wtrp3dfflca74ey8h9hlqupv921,zuHVd5k8,2020-0188,2021-10-31,17:45:23,19:50:15,NA,incomplete,false,NA,NA,true,2,12,NA,NA,NA,right,m_s_048.jpg,black,red,NA,NA,NA,NA,NA,NA,NA,NA,NA,NaN,NA,4123,left,0,NA,NA,NA,NA,NA
zuHVd5k8,3fk4g712o0duz4m7qhicsa7sfszsso,3b3wtrp3dfflca74ey8h9hlqupv921,zuHVd5k8,2020-0188,2021-10-31,17:45:23,19:50:15,NA,incomplete,false,NA,NA,true,2,13,NA,NA,NA,left,n_l_049.jpg,green,orange,NA,NA,NA,NA,NA,NA,NA,NA,NA,NaN,NA,2744,left,1,NA,NA,NA,NA,NA
zuHVd5k8,3fk4g712o0duz4m7qhicsa7sfszsso,3b3wtrp3dfflca74ey8h9hlqupv921,zuHVd5k8,2020-0188,2021-10-31,17:45:23,19:50:15,NA,incomplete,false,NA,NA,true,2,14,NA,NA,NA,right,m_l_053.jpg,green,orange,NA,NA,NA,NA,NA,NA,NA,NA,NA,NaN,NA,4701,left,0,NA,NA,NA,NA,NA
zuHVd5k8,3fk4g712o0duz4m7qhicsa7sfszsso,3b3wtrp3dfflca74ey8h9hlqupv921,zuHVd5k8,2020-0188,2021-10-31,17:45:23,19:50:15,NA,incomplete,false,NA,NA,true,2,15,NA,NA,NA,right,m_s_091.jpg,black,purple,NA,NA,NA,NA,NA,NA,NA,NA,NA,NaN,NA,2158,left,0,NA,NA,NA,NA,NA
zuHVd5k8,3fk4g712o0duz4m7qhicsa7sfszsso,3b3wtrp3dfflca74ey8h9hlqupv921,zuHVd5k8,2020-0188,2021-10-31,17:45:23,19:50:15,NA,incomplete,false,NA,NA,true,2,16,NA,NA,NA,right,m_l_116.jpg,green,orange,NA,NA,NA,NA,NA,NA,NA,NA,NA,NaN,NA,2417,left,0,NA,NA,NA,NA,NA
zuHVd5k8,3fk4g712o0duz4m7qhicsa7sfszsso,3b3wtrp3dfflca74ey8h9hlqupv921,zuHVd5k8,2020-0188,2021-10-31,17:45:23,19:50:15,NA,incomplete,false,NA,NA,true,2,17,NA,NA,NA,left,m_l_010.jpg,green,orange,NA,NA,NA,NA,NA,NA,NA,NA,NA,NaN,NA,4610,left,1,NA,NA,NA,NA,NA
zuHVd5k8,3fk4g712o0duz4m7qhicsa7sfszsso,3b3wtrp3dfflca74ey8h9hlqupv921,zuHVd5k8,2020-0188,2021-10-31,17:45:23,19:50:15,NA,incomplete,false,NA,NA,true,2,18,NA,NA,NA,left,n_s_015.jpg,purple,black,NA,NA,NA,NA,NA,NA,NA,NA,NA,NaN,NA,4670,right,0,NA,NA,NA,NA,NA
zuHVd5k8,3fk4g712o0duz4m7qhicsa7sfszsso,3b3wtrp3dfflca74ey8h9hlqupv921,zuHVd5k8,2020-0188,2021-10-31,17:45:23,19:50:15,NA,incomplete,false,NA,NA,true,2,19,NA,NA,NA,right,m_s_053.jpg,purple,black,NA,NA,NA,NA,NA,NA,NA,NA,NA,NaN,NA,9816,right,1,NA,NA,NA,NA,NA
zuHVd5k8,3fk4g712o0duz4m7qhicsa7sfszsso,3b3wtrp3dfflca74ey8h9hlqupv921,zuHVd5k8,2020-0188,2021-10-31,17:45:23,19:50:15,NA,incomplete,false,NA,NA,true,2,20,NA,NA,NA,left,m_l_005.jpg,red,black,NA,NA,NA,NA,NA,NA,NA,NA,NA,NaN,NA,2883,right,0,NA,NA,NA,NA,NA
zuHVd5k8,3fk4g712o0duz4m7qhicsa7sfszsso,3b3wtrp3dfflca74ey8h9hlqupv921,zuHVd5k8,2020-0188,2021-10-31,17:45:23,19:50:15,NA,incomplete,false,NA,NA,true,2,21,NA,NA,NA,right,m_s_076.jpg,black,red,NA,NA,NA,NA,NA,NA,NA,NA,NA,NaN,NA,3276,right,1,NA,NA,NA,NA,NA
zuHVd5k8,3fk4g712o0duz4m7qhicsa7sfszsso,3b3wtrp3dfflca74ey8h9hlqupv921,zuHVd5k8,2020-0188,2021-10-31,17:45:23,19:50:15,NA,incomplete,false,NA,true,NA,2,0,NA,NA,NA,right,NA,NA,NA,present,NA,NA,m_l_113.jpg,yellow,m_l_055.jpg,yellow,within,NA,NaN,NA,NA,NA,NA,left,52489,0,1,2976
zuHVd5k8,3fk4g712o0duz4m7qhicsa7sfszsso,3b3wtrp3dfflca74ey8h9hlqupv921,zuHVd5k8,2020-0188,2021-10-31,17:45:23,19:50:15,NA,incomplete,false,NA,true,NA,2,1,NA,NA,NA,left,NA,NA,NA,present,NA,NA,m_l_079.jpg,green,m_l_010.jpg,green,within,NA,NaN,NA,NA,NA,NA,left,4167,1,2,3757
zuHVd5k8,3fk4g712o0duz4m7qhicsa7sfszsso,3b3wtrp3dfflca74ey8h9hlqupv921,zuHVd5k8,2020-0188,2021-10-31,17:45:23,19:50:15,NA,incomplete,false,NA,true,NA,2,2,NA,NA,NA,left,NA,NA,NA,present,NA,NA,m_s_079.jpg,green,m_s_062.jpg,yellow,between,NA,NaN,NA,NA,NA,NA,left,2845,1,1,2265
zuHVd5k8,3fk4g712o0duz4m7qhicsa7sfszsso,3b3wtrp3dfflca74ey8h9hlqupv921,zuHVd5k8,2020-0188,2021-10-31,17:45:23,19:50:15,NA,incomplete,false,NA,true,NA,2,3,NA,NA,NA,right,NA,NA,NA,present,NA,NA,n_l_049.jpg,green,m_l_109.jpg,orange,between,NA,NaN,NA,NA,NA,NA,left,4672,0,0,3378
zuHVd5k8,3fk4g712o0duz4m7qhicsa7sfszsso,3b3wtrp3dfflca74ey8h9hlqupv921,zuHVd5k8,2020-0188,2021-10-31,17:45:23,19:50:15,NA,incomplete,false,NA,true,NA,2,4,NA,NA,NA,right,NA,NA,NA,present,NA,NA,m_l_088.jpg,black,m_s_027.jpg,black,within,NA,NaN,NA,NA,NA,NA,right,3632,1,0,1811
zuHVd5k8,3fk4g712o0duz4m7qhicsa7sfszsso,3b3wtrp3dfflca74ey8h9hlqupv921,zuHVd5k8,2020-0188,2021-10-31,17:45:23,19:50:15,NA,incomplete,false,NA,true,NA,2,5,NA,NA,NA,right,NA,NA,NA,present,NA,NA,n_s_015.jpg,purple,m_s_037.jpg,black,between,NA,NaN,NA,NA,NA,NA,left,5867,0,0,2744
zuHVd5k8,3fk4g712o0duz4m7qhicsa7sfszsso,3b3wtrp3dfflca74ey8h9hlqupv921,zuHVd5k8,2020-0188,2021-10-31,17:45:23,19:50:15,NA,incomplete,false,NA,true,NA,2,6,NA,NA,NA,left,NA,NA,NA,present,NA,NA,m_s_091.jpg,purple,m_s_112.jpg,purple,within,NA,NaN,NA,NA,NA,NA,left,4291,1,1,4310
zuHVd5k8,3fk4g712o0duz4m7qhicsa7sfszsso,3b3wtrp3dfflca74ey8h9hlqupv921,zuHVd5k8,2020-0188,2021-10-31,17:45:23,19:50:15,NA,incomplete,false,NA,true,NA,2,7,NA,NA,NA,right,NA,NA,NA,present,NA,NA,m_l_028.jpg,red,n_s_046.jpg,yellow,between,NA,NaN,NA,NA,NA,NA,right,2755,1,1,3718
zuHVd5k8,3fk4g712o0duz4m7qhicsa7sfszsso,3b3wtrp3dfflca74ey8h9hlqupv921,zuHVd5k8,2020-0188,2021-10-31,17:45:23,19:50:15,NA,incomplete,false,NA,true,NA,2,8,NA,NA,NA,left,NA,NA,NA,present,NA,NA,m_l_116.jpg,orange,m_l_053.jpg,orange,within,NA,NaN,NA,NA,NA,NA,right,3158,0,0,3795
zuHVd5k8,3fk4g712o0duz4m7qhicsa7sfszsso,3b3wtrp3dfflca74ey8h9hlqupv921,zuHVd5k8,2020-0188,2021-10-31,17:45:23,19:50:15,NA,incomplete,false,NA,true,NA,2,9,NA,NA,NA,right,NA,NA,NA,present,NA,NA,m_s_053.jpg,black,m_s_048.jpg,red,between,NA,NaN,NA,NA,NA,NA,left,3381,0,1,4607
zuHVd5k8,3fk4g712o0duz4m7qhicsa7sfszsso,3b3wtrp3dfflca74ey8h9hlqupv921,zuHVd5k8,2020-0188,2021-10-31,17:45:23,19:50:15,NA,incomplete,false,NA,true,NA,2,10,NA,NA,NA,right,NA,NA,NA,present,NA,NA,m_l_005.jpg,red,m_s_076.jpg,red,within,NA,NaN,NA,NA,NA,NA,right,3370,1,0,2131
zuHVd5k8,3fk4g712o0duz4m7qhicsa7sfszsso,3b3wtrp3dfflca74ey8h9hlqupv921,zuHVd5k8,2020-0188,2021-10-31,17:45:23,19:50:15,NA,incomplete,false,true,NA,NA,3,0,NA,red,n_l_006.jpg,NA,NA,NA,NA,NA,unpleasant,pleasant,NA,NA,NA,NA,NA,none,0,false,NA,NA,NA,NA,NA,NA,NA,NA
zuHVd5k8,3fk4g712o0duz4m7qhicsa7sfszsso,3b3wtrp3dfflca74ey8h9hlqupv921,zuHVd5k8,2020-0188,2021-10-31,17:45:23,19:50:15,NA,incomplete,false,true,NA,NA,3,1,NA,red,m_l_043.jpg,NA,NA,NA,NA,NA,unpleasant,pleasant,NA,NA,NA,NA,NA,right,96,true,NA,NA,NA,NA,NA,NA,NA,NA
zuHVd5k8,3fk4g712o0duz4m7qhicsa7sfszsso,3b3wtrp3dfflca74ey8h9hlqupv921,zuHVd5k8,2020-0188,2021-10-31,17:45:23,19:50:15,NA,incomplete,false,true,NA,NA,3,2,NA,red,n_s_023.jpg,NA,NA,NA,NA,NA,pleasant,unpleasant,NA,NA,NA,NA,NA,left,1553,true,NA,NA,NA,NA,NA,NA,NA,NA
zuHVd5k8,3fk4g712o0duz4m7qhicsa7sfszsso,3b3wtrp3dfflca74ey8h9hlqupv921,zuHVd5k8,2020-0188,2021-10-31,17:45:23,19:50:15,NA,incomplete,false,true,NA,NA,3,3,NA,red,n_s_031.jpg,NA,NA,NA,NA,NA,pleasant,unpleasant,NA,NA,NA,NA,NA,left,1358,true,NA,NA,NA,NA,NA,NA,NA,NA
zuHVd5k8,3fk4g712o0duz4m7qhicsa7sfszsso,3b3wtrp3dfflca74ey8h9hlqupv921,zuHVd5k8,2020-0188,2021-10-31,17:45:23,19:50:15,NA,incomplete,false,true,NA,NA,3,4,NA,red,n_l_074.jpg,NA,NA,NA,NA,NA,unpleasant,pleasant,NA,NA,NA,NA,NA,right,1616,true,NA,NA,NA,NA,NA,NA,NA,NA
zuHVd5k8,3fk4g712o0duz4m7qhicsa7sfszsso,3b3wtrp3dfflca74ey8h9hlqupv921,zuHVd5k8,2020-0188,2021-10-31,17:45:23,19:50:15,NA,incomplete,false,true,NA,NA,3,5,NA,red,n_l_087.jpg,NA,NA,NA,NA,NA,unpleasant,pleasant,NA,NA,NA,NA,NA,right,1716,true,NA,NA,NA,NA,NA,NA,NA,NA
zuHVd5k8,3fk4g712o0duz4m7qhicsa7sfszsso,3b3wtrp3dfflca74ey8h9hlqupv921,zuHVd5k8,2020-0188,2021-10-31,17:45:23,19:50:15,NA,incomplete,false,true,NA,NA,3,6,NA,purple,m_s_023.jpg,NA,NA,NA,NA,NA,unpleasant,pleasant,NA,NA,NA,NA,NA,right,1541,true,NA,NA,NA,NA,NA,NA,NA,NA
zuHVd5k8,3fk4g712o0duz4m7qhicsa7sfszsso,3b3wtrp3dfflca74ey8h9hlqupv921,zuHVd5k8,2020-0188,2021-10-31,17:45:23,19:50:15,NA,incomplete,false,true,NA,NA,3,7,NA,purple,n_s_034.jpg,NA,NA,NA,NA,NA,pleasant,unpleasant,NA,NA,NA,NA,NA,left,1633,true,NA,NA,NA,NA,NA,NA,NA,NA
zuHVd5k8,3fk4g712o0duz4m7qhicsa7sfszsso,3b3wtrp3dfflca74ey8h9hlqupv921,zuHVd5k8,2020-0188,2021-10-31,17:45:23,19:50:15,NA,incomplete,false,true,NA,NA,3,8,NA,purple,m_s_095.jpg,NA,NA,NA,NA,NA,unpleasant,pleasant,NA,NA,NA,NA,NA,right,1422,true,NA,NA,NA,NA,NA,NA,NA,NA
zuHVd5k8,3fk4g712o0duz4m7qhicsa7sfszsso,3b3wtrp3dfflca74ey8h9hlqupv921,zuHVd5k8,2020-0188,2021-10-31,17:45:23,19:50:15,NA,incomplete,false,true,NA,NA,3,9,NA,purple,n_l_069.jpg,NA,NA,NA,NA,NA,pleasant,unpleasant,NA,NA,NA,NA,NA,left,1672,true,NA,NA,NA,NA,NA,NA,NA,NA
zuHVd5k8,3fk4g712o0duz4m7qhicsa7sfszsso,3b3wtrp3dfflca74ey8h9hlqupv921,zuHVd5k8,2020-0188,2021-10-31,17:45:23,19:50:15,NA,incomplete,false,true,NA,NA,3,10,NA,purple,n_l_011.jpg,NA,NA,NA,NA,NA,pleasant,unpleasant,NA,NA,NA,NA,NA,left,1592,true,NA,NA,NA,NA,NA,NA,NA,NA
zuHVd5k8,3fk4g712o0duz4m7qhicsa7sfszsso,3b3wtrp3dfflca74ey8h9hlqupv921,zuHVd5k8,2020-0188,2021-10-31,17:45:23,19:50:15,NA,incomplete,false,true,NA,NA,3,11,NA,purple,n_s_076.jpg,NA,NA,NA,NA,NA,unpleasant,pleasant,NA,NA,NA,NA,NA,right,1616,true,NA,NA,NA,NA,NA,NA,NA,NA
zuHVd5k8,3fk4g712o0duz4m7qhicsa7sfszsso,3b3wtrp3dfflca74ey8h9hlqupv921,zuHVd5k8,2020-0188,2021-10-31,17:45:23,19:50:15,NA,incomplete,false,true,NA,NA,3,12,NA,blue,n_s_001.jpg,NA,NA,NA,NA,NA,unpleasant,pleasant,NA,NA,NA,NA,NA,right,1316,true,NA,NA,NA,NA,NA,NA,NA,NA
zuHVd5k8,3fk4g712o0duz4m7qhicsa7sfszsso,3b3wtrp3dfflca74ey8h9hlqupv921,zuHVd5k8,2020-0188,2021-10-31,17:45:23,19:50:15,NA,incomplete,false,true,NA,NA,3,13,NA,blue,m_l_074.jpg,NA,NA,NA,NA,NA,pleasant,unpleasant,NA,NA,NA,NA,NA,left,1557,true,NA,NA,NA,NA,NA,NA,NA,NA
zuHVd5k8,3fk4g712o0duz4m7qhicsa7sfszsso,3b3wtrp3dfflca74ey8h9hlqupv921,zuHVd5k8,2020-0188,2021-10-31,17:45:23,19:50:15,NA,incomplete,false,true,NA,NA,3,14,NA,blue,n_l_088.jpg,NA,NA,NA,NA,NA,unpleasant,pleasant,NA,NA,NA,NA,NA,right,1548,true,NA,NA,NA,NA,NA,NA,NA,NA
zuHVd5k8,3fk4g712o0duz4m7qhicsa7sfszsso,3b3wtrp3dfflca74ey8h9hlqupv921,zuHVd5k8,2020-0188,2021-10-31,17:45:23,19:50:15,NA,incomplete,false,true,NA,NA,3,15,NA,blue,n_s_084.jpg,NA,NA,NA,NA,NA,pleasant,unpleasant,NA,NA,NA,NA,NA,right,306,true,NA,NA,NA,NA,NA,NA,NA,NA
zuHVd5k8,3fk4g712o0duz4m7qhicsa7sfszsso,3b3wtrp3dfflca74ey8h9hlqupv921,zuHVd5k8,2020-0188,2021-10-31,17:45:23,19:50:15,NA,incomplete,false,true,NA,NA,3,16,NA,blue,m_s_006.jpg,NA,NA,NA,NA,NA,pleasant,unpleasant,NA,NA,NA,NA,NA,left,1291,true,NA,NA,NA,NA,NA,NA,NA,NA
zuHVd5k8,3fk4g712o0duz4m7qhicsa7sfszsso,3b3wtrp3dfflca74ey8h9hlqupv921,zuHVd5k8,2020-0188,2021-10-31,17:45:23,19:50:15,NA,incomplete,false,true,NA,NA,3,17,NA,blue,n_l_063.jpg,NA,NA,NA,NA,NA,unpleasant,pleasant,NA,NA,NA,NA,NA,right,1263,true,NA,NA,NA,NA,NA,NA,NA,NA
zuHVd5k8,3fk4g712o0duz4m7qhicsa7sfszsso,3b3wtrp3dfflca74ey8h9hlqupv921,zuHVd5k8,2020-0188,2021-10-31,17:45:23,19:50:15,NA,incomplete,false,true,NA,NA,3,18,NA,gray,n_l_084.jpg,NA,NA,NA,NA,NA,pleasant,unpleasant,NA,NA,NA,NA,NA,right,965,true,NA,NA,NA,NA,NA,NA,NA,NA
zuHVd5k8,3fk4g712o0duz4m7qhicsa7sfszsso,3b3wtrp3dfflca74ey8h9hlqupv921,zuHVd5k8,2020-0188,2021-10-31,17:45:23,19:50:15,NA,incomplete,false,true,NA,NA,3,19,NA,gray,m_l_012.jpg,NA,NA,NA,NA,NA,pleasant,unpleasant,NA,NA,NA,NA,NA,left,2081,true,NA,NA,NA,NA,NA,NA,NA,NA
zuHVd5k8,3fk4g712o0duz4m7qhicsa7sfszsso,3b3wtrp3dfflca74ey8h9hlqupv921,zuHVd5k8,2020-0188,2021-10-31,17:45:23,19:50:15,NA,incomplete,false,true,NA,NA,3,20,NA,gray,m_l_015.jpg,NA,NA,NA,NA,NA,pleasant,unpleasant,NA,NA,NA,NA,NA,left,1263,true,NA,NA,NA,NA,NA,NA,NA,NA
zuHVd5k8,3fk4g712o0duz4m7qhicsa7sfszsso,3b3wtrp3dfflca74ey8h9hlqupv921,zuHVd5k8,2020-0188,2021-10-31,17:45:23,19:50:15,NA,incomplete,false,true,NA,NA,3,21,NA,gray,n_l_064.jpg,NA,NA,NA,NA,NA,pleasant,unpleasant,NA,NA,NA,NA,NA,left,1474,true,NA,NA,NA,NA,NA,NA,NA,NA
zuHVd5k8,3fk4g712o0duz4m7qhicsa7sfszsso,3b3wtrp3dfflca74ey8h9hlqupv921,zuHVd5k8,2020-0188,2021-10-31,17:45:23,19:50:15,NA,incomplete,false,true,NA,NA,3,22,NA,gray,n_s_016.jpg,NA,NA,NA,NA,NA,unpleasant,pleasant,NA,NA,NA,NA,NA,right,1617,true,NA,NA,NA,NA,NA,NA,NA,NA
zuHVd5k8,3fk4g712o0duz4m7qhicsa7sfszsso,3b3wtrp3dfflca74ey8h9hlqupv921,zuHVd5k8,2020-0188,2021-10-31,17:45:23,19:50:15,NA,incomplete,false,true,NA,NA,3,23,NA,gray,m_s_054.jpg,NA,NA,NA,NA,NA,pleasant,unpleasant,NA,NA,NA,NA,NA,left,1864,true,NA,NA,NA,NA,NA,NA,NA,NA
zuHVd5k8,3fk4g712o0duz4m7qhicsa7sfszsso,3b3wtrp3dfflca74ey8h9hlqupv921,zuHVd5k8,2020-0188,2021-10-31,17:45:23,19:50:15,NA,incomplete,false,true,NA,NA,3,24,NA,green,n_s_116.jpg,NA,NA,NA,NA,NA,unpleasant,pleasant,NA,NA,NA,NA,NA,right,1189,true,NA,NA,NA,NA,NA,NA,NA,NA
zuHVd5k8,3fk4g712o0duz4m7qhicsa7sfszsso,3b3wtrp3dfflca74ey8h9hlqupv921,zuHVd5k8,2020-0188,2021-10-31,17:45:23,19:50:15,NA,incomplete,false,true,NA,NA,3,25,NA,green,n_l_052.jpg,NA,NA,NA,NA,NA,pleasant,unpleasant,NA,NA,NA,NA,NA,left,1615,true,NA,NA,NA,NA,NA,NA,NA,NA
zuHVd5k8,3fk4g712o0duz4m7qhicsa7sfszsso,3b3wtrp3dfflca74ey8h9hlqupv921,zuHVd5k8,2020-0188,2021-10-31,17:45:23,19:50:15,NA,incomplete,false,true,NA,NA,3,26,NA,green,n_l_107.jpg,NA,NA,NA,NA,NA,unpleasant,pleasant,NA,NA,NA,NA,NA,right,1248,true,NA,NA,NA,NA,NA,NA,NA,NA
zuHVd5k8,3fk4g712o0duz4m7qhicsa7sfszsso,3b3wtrp3dfflca74ey8h9hlqupv921,zuHVd5k8,2020-0188,2021-10-31,17:45:23,19:50:15,NA,incomplete,false,true,NA,NA,3,27,NA,green,m_s_082.jpg,NA,NA,NA,NA,NA,unpleasant,pleasant,NA,NA,NA,NA,NA,right,1458,true,NA,NA,NA,NA,NA,NA,NA,NA
zuHVd5k8,3fk4g712o0duz4m7qhicsa7sfszsso,3b3wtrp3dfflca74ey8h9hlqupv921,zuHVd5k8,2020-0188,2021-10-31,17:45:23,19:50:15,NA,incomplete,false,true,NA,NA,3,28,NA,green,m_s_083.jpg,NA,NA,NA,NA,NA,unpleasant,pleasant,NA,NA,NA,NA,NA,right,999,true,NA,NA,NA,NA,NA,NA,NA,NA
zuHVd5k8,3fk4g712o0duz4m7qhicsa7sfszsso,3b3wtrp3dfflca74ey8h9hlqupv921,zuHVd5k8,2020-0188,2021-10-31,17:45:23,19:50:15,NA,incomplete,false,true,NA,NA,3,29,NA,green,n_l_057.jpg,NA,NA,NA,NA,NA,unpleasant,pleasant,NA,NA,NA,NA,NA,right,1613,true,NA,NA,NA,NA,NA,NA,NA,NA
zuHVd5k8,3fk4g712o0duz4m7qhicsa7sfszsso,3b3wtrp3dfflca74ey8h9hlqupv921,zuHVd5k8,2020-0188,2021-10-31,17:45:23,19:50:15,NA,incomplete,false,true,NA,NA,3,30,NA,brown,m_l_035.jpg,NA,NA,NA,NA,NA,pleasant,unpleasant,NA,NA,NA,NA,NA,left,3172,true,NA,NA,NA,NA,NA,NA,NA,NA
zuHVd5k8,3fk4g712o0duz4m7qhicsa7sfszsso,3b3wtrp3dfflca74ey8h9hlqupv921,zuHVd5k8,2020-0188,2021-10-31,17:45:23,19:50:15,NA,incomplete,false,true,NA,NA,3,31,NA,brown,m_l_059.jpg,NA,NA,NA,NA,NA,pleasant,unpleasant,NA,NA,NA,NA,NA,left,1112,true,NA,NA,NA,NA,NA,NA,NA,NA
zuHVd5k8,3fk4g712o0duz4m7qhicsa7sfszsso,3b3wtrp3dfflca74ey8h9hlqupv921,zuHVd5k8,2020-0188,2021-10-31,17:45:23,19:50:15,NA,incomplete,false,true,NA,NA,3,32,NA,brown,n_s_035.jpg,NA,NA,NA,NA,NA,pleasant,unpleasant,NA,NA,NA,NA,NA,left,1635,true,NA,NA,NA,NA,NA,NA,NA,NA
zuHVd5k8,3fk4g712o0duz4m7qhicsa7sfszsso,3b3wtrp3dfflca74ey8h9hlqupv921,zuHVd5k8,2020-0188,2021-10-31,17:45:23,19:50:15,NA,incomplete,false,true,NA,NA,3,33,NA,brown,n_l_041.jpg,NA,NA,NA,NA,NA,unpleasant,pleasant,NA,NA,NA,NA,NA,right,1036,true,NA,NA,NA,NA,NA,NA,NA,NA
zuHVd5k8,3fk4g712o0duz4m7qhicsa7sfszsso,3b3wtrp3dfflca74ey8h9hlqupv921,zuHVd5k8,2020-0188,2021-10-31,17:45:23,19:50:15,NA,incomplete,false,true,NA,NA,3,34,NA,brown,m_s_033.jpg,NA,NA,NA,NA,NA,pleasant,unpleasant,NA,NA,NA,NA,NA,left,1495,true,NA,NA,NA,NA,NA,NA,NA,NA
zuHVd5k8,3fk4g712o0duz4m7qhicsa7sfszsso,3b3wtrp3dfflca74ey8h9hlqupv921,zuHVd5k8,2020-0188,2021-10-31,17:45:23,19:50:15,NA,incomplete,false,true,NA,NA,3,35,NA,brown,n_s_028.jpg,NA,NA,NA,NA,NA,pleasant,unpleasant,NA,NA,NA,NA,NA,left,1274,true,NA,NA,NA,NA,NA,NA,NA,NA
zuHVd5k8,3fk4g712o0duz4m7qhicsa7sfszsso,3b3wtrp3dfflca74ey8h9hlqupv921,zuHVd5k8,2020-0188,2021-10-31,17:45:23,19:50:15,NA,incomplete,false,NA,NA,true,3,0,NA,NA,NA,left,n_l_011.jpg,purple,blue,NA,NA,NA,NA,NA,NA,NA,NA,NA,NaN,NA,3090,left,1,NA,NA,NA,NA,NA
zuHVd5k8,3fk4g712o0duz4m7qhicsa7sfszsso,3b3wtrp3dfflca74ey8h9hlqupv921,zuHVd5k8,2020-0188,2021-10-31,17:45:23,19:50:15,NA,incomplete,false,NA,NA,true,3,1,NA,NA,NA,left,m_s_095.jpg,purple,red,NA,NA,NA,NA,NA,NA,NA,NA,NA,NaN,NA,2509,right,0,NA,NA,NA,NA,NA
zuHVd5k8,3fk4g712o0duz4m7qhicsa7sfszsso,3b3wtrp3dfflca74ey8h9hlqupv921,zuHVd5k8,2020-0188,2021-10-31,17:45:23,19:50:15,NA,incomplete,false,NA,NA,true,3,2,NA,NA,NA,left,n_l_052.jpg,green,brown,NA,NA,NA,NA,NA,NA,NA,NA,NA,NaN,NA,1855,right,0,NA,NA,NA,NA,NA
zuHVd5k8,3fk4g712o0duz4m7qhicsa7sfszsso,3b3wtrp3dfflca74ey8h9hlqupv921,zuHVd5k8,2020-0188,2021-10-31,17:45:23,19:50:15,NA,incomplete,false,NA,NA,true,3,3,NA,NA,NA,left,n_s_076.jpg,purple,red,NA,NA,NA,NA,NA,NA,NA,NA,NA,NaN,NA,2403,left,1,NA,NA,NA,NA,NA
zuHVd5k8,3fk4g712o0duz4m7qhicsa7sfszsso,3b3wtrp3dfflca74ey8h9hlqupv921,zuHVd5k8,2020-0188,2021-10-31,17:45:23,19:50:15,NA,incomplete,false,NA,NA,true,3,4,NA,NA,NA,right,n_l_087.jpg,purple,red,NA,NA,NA,NA,NA,NA,NA,NA,NA,NaN,NA,2489,left,0,NA,NA,NA,NA,NA
zuHVd5k8,3fk4g712o0duz4m7qhicsa7sfszsso,3b3wtrp3dfflca74ey8h9hlqupv921,zuHVd5k8,2020-0188,2021-10-31,17:45:23,19:50:15,NA,incomplete,false,NA,NA,true,3,5,NA,NA,NA,right,m_l_059.jpg,green,brown,NA,NA,NA,NA,NA,NA,NA,NA,NA,NaN,NA,2238,right,1,NA,NA,NA,NA,NA
zuHVd5k8,3fk4g712o0duz4m7qhicsa7sfszsso,3b3wtrp3dfflca74ey8h9hlqupv921,zuHVd5k8,2020-0188,2021-10-31,17:45:23,19:50:15,NA,incomplete,false,NA,NA,true,3,6,NA,NA,NA,right,n_s_034.jpg,red,purple,NA,NA,NA,NA,NA,NA,NA,NA,NA,NaN,NA,2319,right,1,NA,NA,NA,NA,NA
zuHVd5k8,3fk4g712o0duz4m7qhicsa7sfszsso,3b3wtrp3dfflca74ey8h9hlqupv921,zuHVd5k8,2020-0188,2021-10-31,17:45:23,19:50:15,NA,incomplete,false,NA,NA,true,3,7,NA,NA,NA,right,n_l_074.jpg,purple,red,NA,NA,NA,NA,NA,NA,NA,NA,NA,NaN,NA,3110,left,0,NA,NA,NA,NA,NA
zuHVd5k8,3fk4g712o0duz4m7qhicsa7sfszsso,3b3wtrp3dfflca74ey8h9hlqupv921,zuHVd5k8,2020-0188,2021-10-31,17:45:23,19:50:15,NA,incomplete,false,NA,NA,true,3,8,NA,NA,NA,left,n_l_057.jpg,green,brown,NA,NA,NA,NA,NA,NA,NA,NA,NA,NaN,NA,3629,right,0,NA,NA,NA,NA,NA
zuHVd5k8,3fk4g712o0duz4m7qhicsa7sfszsso,3b3wtrp3dfflca74ey8h9hlqupv921,zuHVd5k8,2020-0188,2021-10-31,17:45:23,19:50:15,NA,incomplete,false,NA,NA,true,3,9,NA,NA,NA,right,m_s_083.jpg,brown,green,NA,NA,NA,NA,NA,NA,NA,NA,NA,NaN,NA,2486,left,0,NA,NA,NA,NA,NA
zuHVd5k8,3fk4g712o0duz4m7qhicsa7sfszsso,3b3wtrp3dfflca74ey8h9hlqupv921,zuHVd5k8,2020-0188,2021-10-31,17:45:23,19:50:15,NA,incomplete,false,NA,NA,true,3,10,NA,NA,NA,left,n_s_035.jpg,brown,green,NA,NA,NA,NA,NA,NA,NA,NA,NA,NaN,NA,2654,left,1,NA,NA,NA,NA,NA
zuHVd5k8,3fk4g712o0duz4m7qhicsa7sfszsso,3b3wtrp3dfflca74ey8h9hlqupv921,zuHVd5k8,2020-0188,2021-10-31,17:45:23,19:50:15,NA,incomplete,false,NA,NA,true,3,11,NA,NA,NA,right,n_s_016.jpg,green,gray,NA,NA,NA,NA,NA,NA,NA,NA,NA,NaN,NA,10922,left,0,NA,NA,NA,NA,NA
zuHVd5k8,3fk4g712o0duz4m7qhicsa7sfszsso,3b3wtrp3dfflca74ey8h9hlqupv921,zuHVd5k8,2020-0188,2021-10-31,17:45:23,19:50:15,NA,incomplete,false,NA,NA,true,3,12,NA,NA,NA,right,m_s_054.jpg,blue,gray,NA,NA,NA,NA,NA,NA,NA,NA,NA,NaN,NA,2589,right,1,NA,NA,NA,NA,NA
zuHVd5k8,3fk4g712o0duz4m7qhicsa7sfszsso,3b3wtrp3dfflca74ey8h9hlqupv921,zuHVd5k8,2020-0188,2021-10-31,17:45:23,19:50:15,NA,incomplete,false,NA,NA,true,3,13,NA,NA,NA,right,n_l_063.jpg,purple,blue,NA,NA,NA,NA,NA,NA,NA,NA,NA,NaN,NA,2258,left,0,NA,NA,NA,NA,NA
zuHVd5k8,3fk4g712o0duz4m7qhicsa7sfszsso,3b3wtrp3dfflca74ey8h9hlqupv921,zuHVd5k8,2020-0188,2021-10-31,17:45:23,19:50:15,NA,incomplete,false,NA,NA,true,3,14,NA,NA,NA,right,m_s_006.jpg,purple,blue,NA,NA,NA,NA,NA,NA,NA,NA,NA,NaN,NA,3676,right,1,NA,NA,NA,NA,NA
zuHVd5k8,3fk4g712o0duz4m7qhicsa7sfszsso,3b3wtrp3dfflca74ey8h9hlqupv921,zuHVd5k8,2020-0188,2021-10-31,17:45:23,19:50:15,NA,incomplete,false,NA,NA,true,3,15,NA,NA,NA,left,m_l_015.jpg,gray,blue,NA,NA,NA,NA,NA,NA,NA,NA,NA,NaN,NA,2337,left,1,NA,NA,NA,NA,NA
zuHVd5k8,3fk4g712o0duz4m7qhicsa7sfszsso,3b3wtrp3dfflca74ey8h9hlqupv921,zuHVd5k8,2020-0188,2021-10-31,17:45:23,19:50:15,NA,incomplete,false,NA,NA,true,3,16,NA,NA,NA,left,m_l_012.jpg,gray,green,NA,NA,NA,NA,NA,NA,NA,NA,NA,NaN,NA,2406,left,1,NA,NA,NA,NA,NA
zuHVd5k8,3fk4g712o0duz4m7qhicsa7sfszsso,3b3wtrp3dfflca74ey8h9hlqupv921,zuHVd5k8,2020-0188,2021-10-31,17:45:23,19:50:15,NA,incomplete,false,NA,NA,true,3,17,NA,NA,NA,left,n_l_088.jpg,blue,gray,NA,NA,NA,NA,NA,NA,NA,NA,NA,NaN,NA,2125,right,0,NA,NA,NA,NA,NA
zuHVd5k8,3fk4g712o0duz4m7qhicsa7sfszsso,3b3wtrp3dfflca74ey8h9hlqupv921,zuHVd5k8,2020-0188,2021-10-31,17:45:23,19:50:15,NA,incomplete,false,NA,NA,true,3,18,NA,NA,NA,right,n_l_107.jpg,gray,green,NA,NA,NA,NA,NA,NA,NA,NA,NA,NaN,NA,2233,left,0,NA,NA,NA,NA,NA
zuHVd5k8,3fk4g712o0duz4m7qhicsa7sfszsso,3b3wtrp3dfflca74ey8h9hlqupv921,zuHVd5k8,2020-0188,2021-10-31,17:45:23,19:50:15,NA,incomplete,false,NA,NA,true,3,19,NA,NA,NA,right,m_l_043.jpg,purple,red,NA,NA,NA,NA,NA,NA,NA,NA,NA,NaN,NA,2246,right,1,NA,NA,NA,NA,NA
zuHVd5k8,3fk4g712o0duz4m7qhicsa7sfszsso,3b3wtrp3dfflca74ey8h9hlqupv921,zuHVd5k8,2020-0188,2021-10-31,17:45:23,19:50:15,NA,incomplete,false,NA,NA,true,3,20,NA,NA,NA,left,n_s_028.jpg,brown,green,NA,NA,NA,NA,NA,NA,NA,NA,NA,NaN,NA,1787,right,0,NA,NA,NA,NA,NA
zuHVd5k8,3fk4g712o0duz4m7qhicsa7sfszsso,3b3wtrp3dfflca74ey8h9hlqupv921,zuHVd5k8,2020-0188,2021-10-31,17:45:23,19:50:15,NA,incomplete,false,NA,NA,true,3,21,NA,NA,NA,left,m_l_074.jpg,blue,gray,NA,NA,NA,NA,NA,NA,NA,NA,NA,NaN,NA,2260,right,0,NA,NA,NA,NA,NA
zuHVd5k8,3fk4g712o0duz4m7qhicsa7sfszsso,3b3wtrp3dfflca74ey8h9hlqupv921,zuHVd5k8,2020-0188,2021-10-31,17:45:23,19:50:15,NA,incomplete,false,NA,true,NA,3,0,NA,NA,NA,left,NA,NA,NA,present,NA,NA,n_s_034.jpg,purple,n_s_076.jpg,purple,within,NA,NaN,NA,NA,NA,NA,left,3740,1,1,2991
zuHVd5k8,3fk4g712o0duz4m7qhicsa7sfszsso,3b3wtrp3dfflca74ey8h9hlqupv921,zuHVd5k8,2020-0188,2021-10-31,17:45:23,19:50:15,NA,incomplete,false,NA,true,NA,3,1,NA,NA,NA,right,NA,NA,NA,present,NA,NA,n_s_035.jpg,brown,m_s_083.jpg,green,between,NA,NaN,NA,NA,NA,NA,left,2695,0,2,1857
zuHVd5k8,3fk4g712o0duz4m7qhicsa7sfszsso,3b3wtrp3dfflca74ey8h9hlqupv921,zuHVd5k8,2020-0188,2021-10-31,17:45:23,19:50:15,NA,incomplete,false,NA,true,NA,3,2,NA,NA,NA,left,NA,NA,NA,present,NA,NA,m_s_006.jpg,blue,m_l_015.jpg,gray,between,NA,NaN,NA,NA,NA,NA,left,3162,1,1,3289
zuHVd5k8,3fk4g712o0duz4m7qhicsa7sfszsso,3b3wtrp3dfflca74ey8h9hlqupv921,zuHVd5k8,2020-0188,2021-10-31,17:45:23,19:50:15,NA,incomplete,false,NA,true,NA,3,3,NA,NA,NA,right,NA,NA,NA,present,NA,NA,n_l_057.jpg,green,n_l_052.jpg,green,within,NA,NaN,NA,NA,NA,NA,left,5420,0,1,4520
zuHVd5k8,3fk4g712o0duz4m7qhicsa7sfszsso,3b3wtrp3dfflca74ey8h9hlqupv921,zuHVd5k8,2020-0188,2021-10-31,17:45:23,19:50:15,NA,incomplete,false,NA,true,NA,3,4,NA,NA,NA,left,NA,NA,NA,present,NA,NA,m_l_074.jpg,blue,n_l_063.jpg,blue,within,NA,NaN,NA,NA,NA,NA,left,7389,1,1,2297
zuHVd5k8,3fk4g712o0duz4m7qhicsa7sfszsso,3b3wtrp3dfflca74ey8h9hlqupv921,zuHVd5k8,2020-0188,2021-10-31,17:45:23,19:50:15,NA,incomplete,false,NA,true,NA,3,5,NA,NA,NA,right,NA,NA,NA,present,NA,NA,n_l_107.jpg,green,n_s_016.jpg,gray,between,NA,NaN,NA,NA,NA,NA,left,2905,0,1,2375
zuHVd5k8,3fk4g712o0duz4m7qhicsa7sfszsso,3b3wtrp3dfflca74ey8h9hlqupv921,zuHVd5k8,2020-0188,2021-10-31,17:45:23,19:50:15,NA,incomplete,false,NA,true,NA,3,6,NA,NA,NA,right,NA,NA,NA,present,NA,NA,n_s_028.jpg,brown,m_l_059.jpg,brown,within,NA,NaN,NA,NA,NA,NA,right,2538,1,1,2463
zuHVd5k8,3fk4g712o0duz4m7qhicsa7sfszsso,3b3wtrp3dfflca74ey8h9hlqupv921,zuHVd5k8,2020-0188,2021-10-31,17:45:23,19:50:15,NA,incomplete,false,NA,true,NA,3,7,NA,NA,NA,left,NA,NA,NA,present,NA,NA,n_l_011.jpg,purple,n_l_088.jpg,blue,between,NA,NaN,NA,NA,NA,NA,left,2770,1,1,1796
zuHVd5k8,3fk4g712o0duz4m7qhicsa7sfszsso,3b3wtrp3dfflca74ey8h9hlqupv921,zuHVd5k8,2020-0188,2021-10-31,17:45:23,19:50:15,NA,incomplete,false,NA,true,NA,3,8,NA,NA,NA,right,NA,NA,NA,present,NA,NA,n_l_087.jpg,red,m_l_043.jpg,red,within,NA,NaN,NA,NA,NA,NA,right,3433,1,1,4246
zuHVd5k8,3fk4g712o0duz4m7qhicsa7sfszsso,3b3wtrp3dfflca74ey8h9hlqupv921,zuHVd5k8,2020-0188,2021-10-31,17:45:23,19:50:15,NA,incomplete,false,NA,true,NA,3,9,NA,NA,NA,right,NA,NA,NA,present,NA,NA,m_s_095.jpg,purple,n_l_074.jpg,red,between,NA,NaN,NA,NA,NA,NA,left,2815,0,1,4703
zuHVd5k8,3fk4g712o0duz4m7qhicsa7sfszsso,3b3wtrp3dfflca74ey8h9hlqupv921,zuHVd5k8,2020-0188,2021-10-31,17:45:23,19:50:15,NA,incomplete,false,NA,true,NA,3,10,NA,NA,NA,right,NA,NA,NA,present,NA,NA,m_s_054.jpg,gray,m_l_012.jpg,gray,within,NA,NaN,NA,NA,NA,NA,right,20460,1,1,3630
zuHVd5k8,3fk4g712o0duz4m7qhicsa7sfszsso,3b3wtrp3dfflca74ey8h9hlqupv921,zuHVd5k8,2020-0188,2021-10-31,17:45:23,19:50:15,NA,incomplete,false,true,NA,NA,4,0,NA,purple,m_s_108.jpg,NA,NA,NA,NA,NA,pleasant,unpleasant,NA,NA,NA,NA,NA,none,0,false,NA,NA,NA,NA,NA,NA,NA,NA
zuHVd5k8,3fk4g712o0duz4m7qhicsa7sfszsso,3b3wtrp3dfflca74ey8h9hlqupv921,zuHVd5k8,2020-0188,2021-10-31,17:45:23,19:50:15,NA,incomplete,false,true,NA,NA,4,1,NA,purple,m_l_039.jpg,NA,NA,NA,NA,NA,pleasant,unpleasant,NA,NA,NA,NA,NA,none,0,false,NA,NA,NA,NA,NA,NA,NA,NA
zuHVd5k8,3fk4g712o0duz4m7qhicsa7sfszsso,3b3wtrp3dfflca74ey8h9hlqupv921,zuHVd5k8,2020-0188,2021-10-31,17:45:23,19:50:15,NA,incomplete,false,true,NA,NA,4,2,NA,purple,m_s_111.jpg,NA,NA,NA,NA,NA,pleasant,unpleasant,NA,NA,NA,NA,NA,left,638,true,NA,NA,NA,NA,NA,NA,NA,NA
zuHVd5k8,3fk4g712o0duz4m7qhicsa7sfszsso,3b3wtrp3dfflca74ey8h9hlqupv921,zuHVd5k8,2020-0188,2021-10-31,17:45:23,19:50:15,NA,incomplete,false,true,NA,NA,4,3,NA,purple,n_s_063.jpg,NA,NA,NA,NA,NA,pleasant,unpleasant,NA,NA,NA,NA,NA,left,1006,true,NA,NA,NA,NA,NA,NA,NA,NA
zuHVd5k8,3fk4g712o0duz4m7qhicsa7sfszsso,3b3wtrp3dfflca74ey8h9hlqupv921,zuHVd5k8,2020-0188,2021-10-31,17:45:23,19:50:15,NA,incomplete,false,true,NA,NA,4,4,NA,purple,n_s_098.jpg,NA,NA,NA,NA,NA,unpleasant,pleasant,NA,NA,NA,NA,NA,right,906,true,NA,NA,NA,NA,NA,NA,NA,NA
zuHVd5k8,3fk4g712o0duz4m7qhicsa7sfszsso,3b3wtrp3dfflca74ey8h9hlqupv921,zuHVd5k8,2020-0188,2021-10-31,17:45:23,19:50:15,NA,incomplete,false,true,NA,NA,4,5,NA,purple,n_s_101.jpg,NA,NA,NA,NA,NA,unpleasant,pleasant,NA,NA,NA,NA,NA,right,2039,true,NA,NA,NA,NA,NA,NA,NA,NA
zuHVd5k8,3fk4g712o0duz4m7qhicsa7sfszsso,3b3wtrp3dfflca74ey8h9hlqupv921,zuHVd5k8,2020-0188,2021-10-31,17:45:23,19:50:15,NA,incomplete,false,true,NA,NA,4,6,NA,gray,m_l_083.jpg,NA,NA,NA,NA,NA,unpleasant,pleasant,NA,NA,NA,NA,NA,right,917,true,NA,NA,NA,NA,NA,NA,NA,NA
zuHVd5k8,3fk4g712o0duz4m7qhicsa7sfszsso,3b3wtrp3dfflca74ey8h9hlqupv921,zuHVd5k8,2020-0188,2021-10-31,17:45:23,19:50:15,NA,incomplete,false,true,NA,NA,4,7,NA,gray,m_l_056.jpg,NA,NA,NA,NA,NA,pleasant,unpleasant,NA,NA,NA,NA,NA,left,1247,true,NA,NA,NA,NA,NA,NA,NA,NA
zuHVd5k8,3fk4g712o0duz4m7qhicsa7sfszsso,3b3wtrp3dfflca74ey8h9hlqupv921,zuHVd5k8,2020-0188,2021-10-31,17:45:23,19:50:15,NA,incomplete,false,true,NA,NA,4,8,NA,gray,m_s_077.jpg,NA,NA,NA,NA,NA,pleasant,unpleasant,NA,NA,NA,NA,NA,left,1221,true,NA,NA,NA,NA,NA,NA,NA,NA
zuHVd5k8,3fk4g712o0duz4m7qhicsa7sfszsso,3b3wtrp3dfflca74ey8h9hlqupv921,zuHVd5k8,2020-0188,2021-10-31,17:45:23,19:50:15,NA,incomplete,false,true,NA,NA,4,9,NA,gray,n_s_109.jpg,NA,NA,NA,NA,NA,pleasant,unpleasant,NA,NA,NA,NA,NA,left,1272,true,NA,NA,NA,NA,NA,NA,NA,NA
zuHVd5k8,3fk4g712o0duz4m7qhicsa7sfszsso,3b3wtrp3dfflca74ey8h9hlqupv921,zuHVd5k8,2020-0188,2021-10-31,17:45:23,19:50:15,NA,incomplete,false,true,NA,NA,4,10,NA,gray,n_l_094.jpg,NA,NA,NA,NA,NA,unpleasant,pleasant,NA,NA,NA,NA,NA,right,1352,true,NA,NA,NA,NA,NA,NA,NA,NA
zuHVd5k8,3fk4g712o0duz4m7qhicsa7sfszsso,3b3wtrp3dfflca74ey8h9hlqupv921,zuHVd5k8,2020-0188,2021-10-31,17:45:23,19:50:15,NA,incomplete,false,true,NA,NA,4,11,NA,gray,n_l_031.jpg,NA,NA,NA,NA,NA,pleasant,unpleasant,NA,NA,NA,NA,NA,left,1003,true,NA,NA,NA,NA,NA,NA,NA,NA
zuHVd5k8,3fk4g712o0duz4m7qhicsa7sfszsso,3b3wtrp3dfflca74ey8h9hlqupv921,zuHVd5k8,2020-0188,2021-10-31,17:45:23,19:50:15,NA,incomplete,false,true,NA,NA,4,12,NA,black,m_l_014.jpg,NA,NA,NA,NA,NA,pleasant,unpleasant,NA,NA,NA,NA,NA,left,1472,true,NA,NA,NA,NA,NA,NA,NA,NA
zuHVd5k8,3fk4g712o0duz4m7qhicsa7sfszsso,3b3wtrp3dfflca74ey8h9hlqupv921,zuHVd5k8,2020-0188,2021-10-31,17:45:23,19:50:15,NA,incomplete,false,true,NA,NA,4,13,NA,black,m_s_063.jpg,NA,NA,NA,NA,NA,pleasant,unpleasant,NA,NA,NA,NA,NA,left,1383,true,NA,NA,NA,NA,NA,NA,NA,NA
zuHVd5k8,3fk4g712o0duz4m7qhicsa7sfszsso,3b3wtrp3dfflca74ey8h9hlqupv921,zuHVd5k8,2020-0188,2021-10-31,17:45:23,19:50:15,NA,incomplete,false,true,NA,NA,4,14,NA,black,n_s_061.jpg,NA,NA,NA,NA,NA,pleasant,unpleasant,NA,NA,NA,NA,NA,left,1292,true,NA,NA,NA,NA,NA,NA,NA,NA
zuHVd5k8,3fk4g712o0duz4m7qhicsa7sfszsso,3b3wtrp3dfflca74ey8h9hlqupv921,zuHVd5k8,2020-0188,2021-10-31,17:45:23,19:50:15,NA,incomplete,false,true,NA,NA,4,15,NA,black,m_s_021.jpg,NA,NA,NA,NA,NA,pleasant,unpleasant,NA,NA,NA,NA,NA,left,793,true,NA,NA,NA,NA,NA,NA,NA,NA
zuHVd5k8,3fk4g712o0duz4m7qhicsa7sfszsso,3b3wtrp3dfflca74ey8h9hlqupv921,zuHVd5k8,2020-0188,2021-10-31,17:45:23,19:50:15,NA,incomplete,false,true,NA,NA,4,16,NA,black,n_s_072.jpg,NA,NA,NA,NA,NA,unpleasant,pleasant,NA,NA,NA,NA,NA,right,929,true,NA,NA,NA,NA,NA,NA,NA,NA
zuHVd5k8,3fk4g712o0duz4m7qhicsa7sfszsso,3b3wtrp3dfflca74ey8h9hlqupv921,zuHVd5k8,2020-0188,2021-10-31,17:45:23,19:50:15,NA,incomplete,false,true,NA,NA,4,17,NA,black,n_s_104.jpg,NA,NA,NA,NA,NA,unpleasant,pleasant,NA,NA,NA,NA,NA,right,890,true,NA,NA,NA,NA,NA,NA,NA,NA
zuHVd5k8,3fk4g712o0duz4m7qhicsa7sfszsso,3b3wtrp3dfflca74ey8h9hlqupv921,zuHVd5k8,2020-0188,2021-10-31,17:45:23,19:50:15,NA,incomplete,false,true,NA,NA,4,18,NA,orange,n_l_115.jpg,NA,NA,NA,NA,NA,unpleasant,pleasant,NA,NA,NA,NA,NA,right,1375,true,NA,NA,NA,NA,NA,NA,NA,NA
zuHVd5k8,3fk4g712o0duz4m7qhicsa7sfszsso,3b3wtrp3dfflca74ey8h9hlqupv921,zuHVd5k8,2020-0188,2021-10-31,17:45:23,19:50:15,NA,incomplete,false,true,NA,NA,4,19,NA,orange,m_s_106.jpg,NA,NA,NA,NA,NA,pleasant,unpleasant,NA,NA,NA,NA,NA,left,1621,true,NA,NA,NA,NA,NA,NA,NA,NA
zuHVd5k8,3fk4g712o0duz4m7qhicsa7sfszsso,3b3wtrp3dfflca74ey8h9hlqupv921,zuHVd5k8,2020-0188,2021-10-31,17:45:23,19:50:15,NA,incomplete,false,true,NA,NA,4,20,NA,orange,m_l_024.jpg,NA,NA,NA,NA,NA,pleasant,unpleasant,NA,NA,NA,NA,NA,left,1082,true,NA,NA,NA,NA,NA,NA,NA,NA
zuHVd5k8,3fk4g712o0duz4m7qhicsa7sfszsso,3b3wtrp3dfflca74ey8h9hlqupv921,zuHVd5k8,2020-0188,2021-10-31,17:45:23,19:50:15,NA,incomplete,false,true,NA,NA,4,21,NA,orange,m_s_007.jpg,NA,NA,NA,NA,NA,pleasant,unpleasant,NA,NA,NA,NA,NA,left,772,true,NA,NA,NA,NA,NA,NA,NA,NA
zuHVd5k8,3fk4g712o0duz4m7qhicsa7sfszsso,3b3wtrp3dfflca74ey8h9hlqupv921,zuHVd5k8,2020-0188,2021-10-31,17:45:23,19:50:15,NA,incomplete,false,true,NA,NA,4,22,NA,orange,n_l_060.jpg,NA,NA,NA,NA,NA,pleasant,unpleasant,NA,NA,NA,NA,NA,left,1062,true,NA,NA,NA,NA,NA,NA,NA,NA
zuHVd5k8,3fk4g712o0duz4m7qhicsa7sfszsso,3b3wtrp3dfflca74ey8h9hlqupv921,zuHVd5k8,2020-0188,2021-10-31,17:45:23,19:50:15,NA,incomplete,false,true,NA,NA,4,23,NA,orange,m_l_087.jpg,NA,NA,NA,NA,NA,unpleasant,pleasant,NA,NA,NA,NA,NA,right,867,true,NA,NA,NA,NA,NA,NA,NA,NA
zuHVd5k8,3fk4g712o0duz4m7qhicsa7sfszsso,3b3wtrp3dfflca74ey8h9hlqupv921,zuHVd5k8,2020-0188,2021-10-31,17:45:23,19:50:15,NA,incomplete,false,true,NA,NA,4,24,NA,green,m_s_009.jpg,NA,NA,NA,NA,NA,unpleasant,pleasant,NA,NA,NA,NA,NA,right,1704,true,NA,NA,NA,NA,NA,NA,NA,NA
zuHVd5k8,3fk4g712o0duz4m7qhicsa7sfszsso,3b3wtrp3dfflca74ey8h9hlqupv921,zuHVd5k8,2020-0188,2021-10-31,17:45:23,19:50:15,NA,incomplete,false,true,NA,NA,4,25,NA,green,m_l_090.jpg,NA,NA,NA,NA,NA,pleasant,unpleasant,NA,NA,NA,NA,NA,left,1162,true,NA,NA,NA,NA,NA,NA,NA,NA
zuHVd5k8,3fk4g712o0duz4m7qhicsa7sfszsso,3b3wtrp3dfflca74ey8h9hlqupv921,zuHVd5k8,2020-0188,2021-10-31,17:45:23,19:50:15,NA,incomplete,false,true,NA,NA,4,26,NA,green,m_l_115.jpg,NA,NA,NA,NA,NA,unpleasant,pleasant,NA,NA,NA,NA,NA,right,1326,true,NA,NA,NA,NA,NA,NA,NA,NA
zuHVd5k8,3fk4g712o0duz4m7qhicsa7sfszsso,3b3wtrp3dfflca74ey8h9hlqupv921,zuHVd5k8,2020-0188,2021-10-31,17:45:23,19:50:15,NA,incomplete,false,true,NA,NA,4,27,NA,green,n_l_013.jpg,NA,NA,NA,NA,NA,unpleasant,pleasant,NA,NA,NA,NA,NA,right,1306,true,NA,NA,NA,NA,NA,NA,NA,NA
zuHVd5k8,3fk4g712o0duz4m7qhicsa7sfszsso,3b3wtrp3dfflca74ey8h9hlqupv921,zuHVd5k8,2020-0188,2021-10-31,17:45:23,19:50:15,NA,incomplete,false,true,NA,NA,4,28,NA,green,n_s_102.jpg,NA,NA,NA,NA,NA,pleasant,unpleasant,NA,NA,NA,NA,NA,left,1160,true,NA,NA,NA,NA,NA,NA,NA,NA
zuHVd5k8,3fk4g712o0duz4m7qhicsa7sfszsso,3b3wtrp3dfflca74ey8h9hlqupv921,zuHVd5k8,2020-0188,2021-10-31,17:45:23,19:50:15,NA,incomplete,false,true,NA,NA,4,29,NA,green,n_l_116.jpg,NA,NA,NA,NA,NA,pleasant,unpleasant,NA,NA,NA,NA,NA,left,2774,true,NA,NA,NA,NA,NA,NA,NA,NA
zuHVd5k8,3fk4g712o0duz4m7qhicsa7sfszsso,3b3wtrp3dfflca74ey8h9hlqupv921,zuHVd5k8,2020-0188,2021-10-31,17:45:23,19:50:15,NA,incomplete,false,true,NA,NA,4,30,NA,white,m_s_044.jpg,NA,NA,NA,NA,NA,pleasant,unpleasant,NA,NA,NA,NA,NA,left,2018,true,NA,NA,NA,NA,NA,NA,NA,NA
zuHVd5k8,3fk4g712o0duz4m7qhicsa7sfszsso,3b3wtrp3dfflca74ey8h9hlqupv921,zuHVd5k8,2020-0188,2021-10-31,17:45:23,19:50:15,NA,incomplete,false,true,NA,NA,4,31,NA,white,n_l_073.jpg,NA,NA,NA,NA,NA,pleasant,unpleasant,NA,NA,NA,NA,NA,left,1623,true,NA,NA,NA,NA,NA,NA,NA,NA
zuHVd5k8,3fk4g712o0duz4m7qhicsa7sfszsso,3b3wtrp3dfflca74ey8h9hlqupv921,zuHVd5k8,2020-0188,2021-10-31,17:45:23,19:50:15,NA,incomplete,false,true,NA,NA,4,32,NA,white,m_l_066.jpg,NA,NA,NA,NA,NA,unpleasant,pleasant,NA,NA,NA,NA,NA,right,1639,true,NA,NA,NA,NA,NA,NA,NA,NA
zuHVd5k8,3fk4g712o0duz4m7qhicsa7sfszsso,3b3wtrp3dfflca74ey8h9hlqupv921,zuHVd5k8,2020-0188,2021-10-31,17:45:23,19:50:15,NA,incomplete,false,true,NA,NA,4,33,NA,white,n_s_114.jpg,NA,NA,NA,NA,NA,pleasant,unpleasant,NA,NA,NA,NA,NA,left,1015,true,NA,NA,NA,NA,NA,NA,NA,NA
zuHVd5k8,3fk4g712o0duz4m7qhicsa7sfszsso,3b3wtrp3dfflca74ey8h9hlqupv921,zuHVd5k8,2020-0188,2021-10-31,17:45:23,19:50:15,NA,incomplete,false,true,NA,NA,4,34,NA,white,n_l_039.jpg,NA,NA,NA,NA,NA,pleasant,unpleasant,NA,NA,NA,NA,NA,left,1360,true,NA,NA,NA,NA,NA,NA,NA,NA
zuHVd5k8,3fk4g712o0duz4m7qhicsa7sfszsso,3b3wtrp3dfflca74ey8h9hlqupv921,zuHVd5k8,2020-0188,2021-10-31,17:45:23,19:50:15,NA,incomplete,false,true,NA,NA,4,35,NA,white,m_l_044.jpg,NA,NA,NA,NA,NA,unpleasant,pleasant,NA,NA,NA,NA,NA,right,1482,true,NA,NA,NA,NA,NA,NA,NA,NA
zuHVd5k8,3fk4g712o0duz4m7qhicsa7sfszsso,3b3wtrp3dfflca74ey8h9hlqupv921,zuHVd5k8,2020-0188,2021-10-31,17:45:23,19:50:15,NA,incomplete,false,NA,NA,true,4,0,NA,NA,NA,right,m_l_115.jpg,white,green,NA,NA,NA,NA,NA,NA,NA,NA,NA,NaN,NA,9313,right,1,NA,NA,NA,NA,NA
zuHVd5k8,3fk4g712o0duz4m7qhicsa7sfszsso,3b3wtrp3dfflca74ey8h9hlqupv921,zuHVd5k8,2020-0188,2021-10-31,17:45:23,19:50:15,NA,incomplete,false,NA,NA,true,4,1,NA,NA,NA,left,m_s_063.jpg,black,orange,NA,NA,NA,NA,NA,NA,NA,NA,NA,NaN,NA,2749,left,1,NA,NA,NA,NA,NA
zuHVd5k8,3fk4g712o0duz4m7qhicsa7sfszsso,3b3wtrp3dfflca74ey8h9hlqupv921,zuHVd5k8,2020-0188,2021-10-31,17:45:23,19:50:15,NA,incomplete,false,NA,NA,true,4,2,NA,NA,NA,left,n_l_073.jpg,white,green,NA,NA,NA,NA,NA,NA,NA,NA,NA,NaN,NA,5067,left,1,NA,NA,NA,NA,NA
zuHVd5k8,3fk4g712o0duz4m7qhicsa7sfszsso,3b3wtrp3dfflca74ey8h9hlqupv921,zuHVd5k8,2020-0188,2021-10-31,17:45:23,19:50:15,NA,incomplete,false,NA,NA,true,4,3,NA,NA,NA,left,n_s_102.jpg,green,white,NA,NA,NA,NA,NA,NA,NA,NA,NA,NaN,NA,2222,right,0,NA,NA,NA,NA,NA
zuHVd5k8,3fk4g712o0duz4m7qhicsa7sfszsso,3b3wtrp3dfflca74ey8h9hlqupv921,zuHVd5k8,2020-0188,2021-10-31,17:45:23,19:50:15,NA,incomplete,false,NA,NA,true,4,4,NA,NA,NA,left,n_s_101.jpg,purple,gray,NA,NA,NA,NA,NA,NA,NA,NA,NA,NaN,NA,2256,right,0,NA,NA,NA,NA,NA
zuHVd5k8,3fk4g712o0duz4m7qhicsa7sfszsso,3b3wtrp3dfflca74ey8h9hlqupv921,zuHVd5k8,2020-0188,2021-10-31,17:45:23,19:50:15,NA,incomplete,false,NA,NA,true,4,5,NA,NA,NA,right,m_l_066.jpg,green,white,NA,NA,NA,NA,NA,NA,NA,NA,NA,NaN,NA,4424,right,1,NA,NA,NA,NA,NA
zuHVd5k8,3fk4g712o0duz4m7qhicsa7sfszsso,3b3wtrp3dfflca74ey8h9hlqupv921,zuHVd5k8,2020-0188,2021-10-31,17:45:23,19:50:15,NA,incomplete,false,NA,NA,true,4,6,NA,NA,NA,right,m_s_106.jpg,black,orange,NA,NA,NA,NA,NA,NA,NA,NA,NA,NaN,NA,2418,left,0,NA,NA,NA,NA,NA
zuHVd5k8,3fk4g712o0duz4m7qhicsa7sfszsso,3b3wtrp3dfflca74ey8h9hlqupv921,zuHVd5k8,2020-0188,2021-10-31,17:45:23,19:50:15,NA,incomplete,false,NA,NA,true,4,7,NA,NA,NA,right,m_s_077.jpg,purple,gray,NA,NA,NA,NA,NA,NA,NA,NA,NA,NaN,NA,2037,right,1,NA,NA,NA,NA,NA
zuHVd5k8,3fk4g712o0duz4m7qhicsa7sfszsso,3b3wtrp3dfflca74ey8h9hlqupv921,zuHVd5k8,2020-0188,2021-10-31,17:45:23,19:50:15,NA,incomplete,false,NA,NA,true,4,8,NA,NA,NA,left,m_l_087.jpg,orange,black,NA,NA,NA,NA,NA,NA,NA,NA,NA,NaN,NA,1667,right,0,NA,NA,NA,NA,NA
zuHVd5k8,3fk4g712o0duz4m7qhicsa7sfszsso,3b3wtrp3dfflca74ey8h9hlqupv921,zuHVd5k8,2020-0188,2021-10-31,17:45:23,19:50:15,NA,incomplete,false,NA,NA,true,4,9,NA,NA,NA,right,n_s_104.jpg,gray,black,NA,NA,NA,NA,NA,NA,NA,NA,NA,NaN,NA,2548,left,0,NA,NA,NA,NA,NA
zuHVd5k8,3fk4g712o0duz4m7qhicsa7sfszsso,3b3wtrp3dfflca74ey8h9hlqupv921,zuHVd5k8,2020-0188,2021-10-31,17:45:23,19:50:15,NA,incomplete,false,NA,NA,true,4,10,NA,NA,NA,right,n_s_072.jpg,gray,black,NA,NA,NA,NA,NA,NA,NA,NA,NA,NaN,NA,3538,left,0,NA,NA,NA,NA,NA
zuHVd5k8,3fk4g712o0duz4m7qhicsa7sfszsso,3b3wtrp3dfflca74ey8h9hlqupv921,zuHVd5k8,2020-0188,2021-10-31,17:45:23,19:50:15,NA,incomplete,false,NA,NA,true,4,11,NA,NA,NA,right,m_l_024.jpg,black,orange,NA,NA,NA,NA,NA,NA,NA,NA,NA,NaN,NA,2231,left,0,NA,NA,NA,NA,NA
zuHVd5k8,3fk4g712o0duz4m7qhicsa7sfszsso,3b3wtrp3dfflca74ey8h9hlqupv921,zuHVd5k8,2020-0188,2021-10-31,17:45:23,19:50:15,NA,incomplete,false,NA,NA,true,4,12,NA,NA,NA,left,m_l_044.jpg,white,green,NA,NA,NA,NA,NA,NA,NA,NA,NA,NaN,NA,4305,right,0,NA,NA,NA,NA,NA
zuHVd5k8,3fk4g712o0duz4m7qhicsa7sfszsso,3b3wtrp3dfflca74ey8h9hlqupv921,zuHVd5k8,2020-0188,2021-10-31,17:45:23,19:50:15,NA,incomplete,false,NA,NA,true,4,13,NA,NA,NA,right,n_s_061.jpg,orange,black,NA,NA,NA,NA,NA,NA,NA,NA,NA,NaN,NA,1803,right,1,NA,NA,NA,NA,NA
zuHVd5k8,3fk4g712o0duz4m7qhicsa7sfszsso,3b3wtrp3dfflca74ey8h9hlqupv921,zuHVd5k8,2020-0188,2021-10-31,17:45:23,19:50:15,NA,incomplete,false,NA,NA,true,4,14,NA,NA,NA,left,m_l_056.jpg,gray,black,NA,NA,NA,NA,NA,NA,NA,NA,NA,NaN,NA,1367,right,0,NA,NA,NA,NA,NA
zuHVd5k8,3fk4g712o0duz4m7qhicsa7sfszsso,3b3wtrp3dfflca74ey8h9hlqupv921,zuHVd5k8,2020-0188,2021-10-31,17:45:23,19:50:15,NA,incomplete,false,NA,NA,true,4,15,NA,NA,NA,left,n_l_116.jpg,green,white,NA,NA,NA,NA,NA,NA,NA,NA,NA,NaN,NA,3076,left,1,NA,NA,NA,NA,NA
zuHVd5k8,3fk4g712o0duz4m7qhicsa7sfszsso,3b3wtrp3dfflca74ey8h9hlqupv921,zuHVd5k8,2020-0188,2021-10-31,17:45:23,19:50:15,NA,incomplete,false,NA,NA,true,4,16,NA,NA,NA,right,n_s_098.jpg,gray,purple,NA,NA,NA,NA,NA,NA,NA,NA,NA,NaN,NA,1980,left,0,NA,NA,NA,NA,NA
zuHVd5k8,3fk4g712o0duz4m7qhicsa7sfszsso,3b3wtrp3dfflca74ey8h9hlqupv921,zuHVd5k8,2020-0188,2021-10-31,17:45:23,19:50:15,NA,incomplete,false,NA,NA,true,4,17,NA,NA,NA,right,n_l_060.jpg,green,orange,NA,NA,NA,NA,NA,NA,NA,NA,NA,NaN,NA,1949,left,0,NA,NA,NA,NA,NA
zuHVd5k8,3fk4g712o0duz4m7qhicsa7sfszsso,3b3wtrp3dfflca74ey8h9hlqupv921,zuHVd5k8,2020-0188,2021-10-31,17:45:23,19:50:15,NA,incomplete,false,NA,NA,true,4,18,NA,NA,NA,right,n_l_094.jpg,black,gray,NA,NA,NA,NA,NA,NA,NA,NA,NA,NaN,NA,2347,left,0,NA,NA,NA,NA,NA
zuHVd5k8,3fk4g712o0duz4m7qhicsa7sfszsso,3b3wtrp3dfflca74ey8h9hlqupv921,zuHVd5k8,2020-0188,2021-10-31,17:45:23,19:50:15,NA,incomplete,false,NA,NA,true,4,19,NA,NA,NA,left,n_l_031.jpg,gray,purple,NA,NA,NA,NA,NA,NA,NA,NA,NA,NaN,NA,2833,left,1,NA,NA,NA,NA,NA
zuHVd5k8,3fk4g712o0duz4m7qhicsa7sfszsso,3b3wtrp3dfflca74ey8h9hlqupv921,zuHVd5k8,2020-0188,2021-10-31,17:45:23,19:50:15,NA,incomplete,false,NA,NA,true,4,20,NA,NA,NA,left,m_l_090.jpg,green,orange,NA,NA,NA,NA,NA,NA,NA,NA,NA,NaN,NA,2495,right,0,NA,NA,NA,NA,NA
zuHVd5k8,3fk4g712o0duz4m7qhicsa7sfszsso,3b3wtrp3dfflca74ey8h9hlqupv921,zuHVd5k8,2020-0188,2021-10-31,17:45:23,19:50:15,NA,incomplete,false,NA,NA,true,4,21,NA,NA,NA,right,m_l_039.jpg,gray,purple,NA,NA,NA,NA,NA,NA,NA,NA,NA,NaN,NA,2128,left,0,NA,NA,NA,NA,NA
zuHVd5k8,3fk4g712o0duz4m7qhicsa7sfszsso,3b3wtrp3dfflca74ey8h9hlqupv921,zuHVd5k8,2020-0188,2021-10-31,17:45:23,19:50:15,NA,incomplete,false,NA,true,NA,4,0,NA,NA,NA,left,NA,NA,NA,present,NA,NA,n_s_072.jpg,black,m_l_024.jpg,orange,between,NA,NaN,NA,NA,NA,NA,left,4229,1,1,3279
zuHVd5k8,3fk4g712o0duz4m7qhicsa7sfszsso,3b3wtrp3dfflca74ey8h9hlqupv921,zuHVd5k8,2020-0188,2021-10-31,17:45:23,19:50:15,NA,incomplete,false,NA,true,NA,4,1,NA,NA,NA,right,NA,NA,NA,present,NA,NA,n_l_031.jpg,gray,m_l_056.jpg,gray,within,NA,NaN,NA,NA,NA,NA,left,3244,0,1,2423
zuHVd5k8,3fk4g712o0duz4m7qhicsa7sfszsso,3b3wtrp3dfflca74ey8h9hlqupv921,zuHVd5k8,2020-0188,2021-10-31,17:45:23,19:50:15,NA,incomplete,false,NA,true,NA,4,2,NA,NA,NA,right,NA,NA,NA,present,NA,NA,m_l_115.jpg,green,n_l_060.jpg,orange,between,NA,NaN,NA,NA,NA,NA,right,2273,1,2,1337
zuHVd5k8,3fk4g712o0duz4m7qhicsa7sfszsso,3b3wtrp3dfflca74ey8h9hlqupv921,zuHVd5k8,2020-0188,2021-10-31,17:45:23,19:50:15,NA,incomplete,false,NA,true,NA,4,3,NA,NA,NA,left,NA,NA,NA,present,NA,NA,n_l_073.jpg,white,m_l_044.jpg,white,within,NA,NaN,NA,NA,NA,NA,left,51419,1,1,3250
zuHVd5k8,3fk4g712o0duz4m7qhicsa7sfszsso,3b3wtrp3dfflca74ey8h9hlqupv921,zuHVd5k8,2020-0188,2021-10-31,17:45:23,19:50:15,NA,incomplete,false,NA,true,NA,4,4,NA,NA,NA,right,NA,NA,NA,present,NA,NA,n_s_061.jpg,black,n_l_094.jpg,gray,between,NA,NaN,NA,NA,NA,NA,right,2773,1,1,2352
zuHVd5k8,3fk4g712o0duz4m7qhicsa7sfszsso,3b3wtrp3dfflca74ey8h9hlqupv921,zuHVd5k8,2020-0188,2021-10-31,17:45:23,19:50:15,NA,incomplete,false,NA,true,NA,4,5,NA,NA,NA,right,NA,NA,NA,present,NA,NA,m_l_087.jpg,orange,m_s_106.jpg,orange,within,NA,NaN,NA,NA,NA,NA,right,2267,1,1,2739
zuHVd5k8,3fk4g712o0duz4m7qhicsa7sfszsso,3b3wtrp3dfflca74ey8h9hlqupv921,zuHVd5k8,2020-0188,2021-10-31,17:45:23,19:50:15,NA,incomplete,false,NA,true,NA,4,6,NA,NA,NA,left,NA,NA,NA,present,NA,NA,n_s_098.jpg,purple,m_s_077.jpg,gray,between,NA,NaN,NA,NA,NA,NA,right,1938,0,1,2803
zuHVd5k8,3fk4g712o0duz4m7qhicsa7sfszsso,3b3wtrp3dfflca74ey8h9hlqupv921,zuHVd5k8,2020-0188,2021-10-31,17:45:23,19:50:15,NA,incomplete,false,NA,true,NA,4,7,NA,NA,NA,right,NA,NA,NA,present,NA,NA,n_s_101.jpg,purple,m_l_039.jpg,purple,within,NA,NaN,NA,NA,NA,NA,right,3174,1,1,95606
zuHVd5k8,3fk4g712o0duz4m7qhicsa7sfszsso,3b3wtrp3dfflca74ey8h9hlqupv921,zuHVd5k8,2020-0188,2021-10-31,17:45:23,19:50:15,NA,incomplete,false,NA,true,NA,4,8,NA,NA,NA,right,NA,NA,NA,present,NA,NA,n_s_104.jpg,black,m_s_063.jpg,black,within,NA,NaN,NA,NA,NA,NA,left,2288,0,1,2348
zuHVd5k8,3fk4g712o0duz4m7qhicsa7sfszsso,3b3wtrp3dfflca74ey8h9hlqupv921,zuHVd5k8,2020-0188,2021-10-31,17:45:23,19:50:15,NA,incomplete,false,NA,true,NA,4,9,NA,NA,NA,left,NA,NA,NA,present,NA,NA,m_l_090.jpg,green,n_l_116.jpg,green,within,NA,NaN,NA,NA,NA,NA,right,1782,0,1,1867
zuHVd5k8,3fk4g712o0duz4m7qhicsa7sfszsso,3b3wtrp3dfflca74ey8h9hlqupv921,zuHVd5k8,2020-0188,2021-10-31,17:45:23,19:50:15,NA,incomplete,false,NA,true,NA,4,10,NA,NA,NA,right,NA,NA,NA,present,NA,NA,m_l_066.jpg,white,n_s_102.jpg,green,between,NA,NaN,NA,NA,NA,NA,right,2079,1,1,2488
zuHVd5k8,3fk4g712o0duz4m7qhicsa7sfszsso,3b3wtrp3dfflca74ey8h9hlqupv921,zuHVd5k8,2020-0188,2021-10-31,17:45:23,19:50:15,NA,incomplete,false,true,NA,NA,5,0,NA,blue,n_l_072.jpg,NA,NA,NA,NA,NA,unpleasant,pleasant,NA,NA,NA,NA,NA,right,2821,true,NA,NA,NA,NA,NA,NA,NA,NA
zuHVd5k8,3fk4g712o0duz4m7qhicsa7sfszsso,3b3wtrp3dfflca74ey8h9hlqupv921,zuHVd5k8,2020-0188,2021-10-31,17:45:23,19:50:15,NA,incomplete,false,true,NA,NA,5,1,NA,blue,n_l_076.jpg,NA,NA,NA,NA,NA,unpleasant,pleasant,NA,NA,NA,NA,NA,right,1615,true,NA,NA,NA,NA,NA,NA,NA,NA
zuHVd5k8,3fk4g712o0duz4m7qhicsa7sfszsso,3b3wtrp3dfflca74ey8h9hlqupv921,zuHVd5k8,2020-0188,2021-10-31,17:45:23,19:50:15,NA,incomplete,false,true,NA,NA,5,2,NA,blue,m_s_096.jpg,NA,NA,NA,NA,NA,pleasant,unpleasant,NA,NA,NA,NA,NA,left,1215,true,NA,NA,NA,NA,NA,NA,NA,NA
zuHVd5k8,3fk4g712o0duz4m7qhicsa7sfszsso,3b3wtrp3dfflca74ey8h9hlqupv921,zuHVd5k8,2020-0188,2021-10-31,17:45:23,19:50:15,NA,incomplete,false,true,NA,NA,5,3,NA,blue,m_l_007.jpg,NA,NA,NA,NA,NA,pleasant,unpleasant,NA,NA,NA,NA,NA,left,1037,true,NA,NA,NA,NA,NA,NA,NA,NA
zuHVd5k8,3fk4g712o0duz4m7qhicsa7sfszsso,3b3wtrp3dfflca74ey8h9hlqupv921,zuHVd5k8,2020-0188,2021-10-31,17:45:23,19:50:15,NA,incomplete,false,true,NA,NA,5,4,NA,blue,m_l_110.jpg,NA,NA,NA,NA,NA,unpleasant,pleasant,NA,NA,NA,NA,NA,right,936,true,NA,NA,NA,NA,NA,NA,NA,NA
zuHVd5k8,3fk4g712o0duz4m7qhicsa7sfszsso,3b3wtrp3dfflca74ey8h9hlqupv921,zuHVd5k8,2020-0188,2021-10-31,17:45:23,19:50:15,NA,incomplete,false,true,NA,NA,5,5,NA,blue,m_l_036.jpg,NA,NA,NA,NA,NA,pleasant,unpleasant,NA,NA,NA,NA,NA,left,1147,true,NA,NA,NA,NA,NA,NA,NA,NA
zuHVd5k8,3fk4g712o0duz4m7qhicsa7sfszsso,3b3wtrp3dfflca74ey8h9hlqupv921,zuHVd5k8,2020-0188,2021-10-31,17:45:23,19:50:15,NA,incomplete,false,true,NA,NA,5,6,NA,yellow,n_s_094.jpg,NA,NA,NA,NA,NA,unpleasant,pleasant,NA,NA,NA,NA,NA,right,851,true,NA,NA,NA,NA,NA,NA,NA,NA
zuHVd5k8,3fk4g712o0duz4m7qhicsa7sfszsso,3b3wtrp3dfflca74ey8h9hlqupv921,zuHVd5k8,2020-0188,2021-10-31,17:45:23,19:50:15,NA,incomplete,false,true,NA,NA,5,7,NA,yellow,m_l_019.jpg,NA,NA,NA,NA,NA,pleasant,unpleasant,NA,NA,NA,NA,NA,left,1351,true,NA,NA,NA,NA,NA,NA,NA,NA
zuHVd5k8,3fk4g712o0duz4m7qhicsa7sfszsso,3b3wtrp3dfflca74ey8h9hlqupv921,zuHVd5k8,2020-0188,2021-10-31,17:45:23,19:50:15,NA,incomplete,false,true,NA,NA,5,8,NA,yellow,m_l_086.jpg,NA,NA,NA,NA,NA,unpleasant,pleasant,NA,NA,NA,NA,NA,right,990,true,NA,NA,NA,NA,NA,NA,NA,NA
zuHVd5k8,3fk4g712o0duz4m7qhicsa7sfszsso,3b3wtrp3dfflca74ey8h9hlqupv921,zuHVd5k8,2020-0188,2021-10-31,17:45:23,19:50:15,NA,incomplete,false,true,NA,NA,5,9,NA,yellow,n_l_081.jpg,NA,NA,NA,NA,NA,unpleasant,pleasant,NA,NA,NA,NA,NA,right,1241,true,NA,NA,NA,NA,NA,NA,NA,NA
zuHVd5k8,3fk4g712o0duz4m7qhicsa7sfszsso,3b3wtrp3dfflca74ey8h9hlqupv921,zuHVd5k8,2020-0188,2021-10-31,17:45:23,19:50:15,NA,incomplete,false,true,NA,NA,5,10,NA,yellow,m_s_099.jpg,NA,NA,NA,NA,NA,pleasant,unpleasant,NA,NA,NA,NA,NA,left,1155,true,NA,NA,NA,NA,NA,NA,NA,NA
zuHVd5k8,3fk4g712o0duz4m7qhicsa7sfszsso,3b3wtrp3dfflca74ey8h9hlqupv921,zuHVd5k8,2020-0188,2021-10-31,17:45:23,19:50:15,NA,incomplete,false,true,NA,NA,5,11,NA,yellow,n_l_019.jpg,NA,NA,NA,NA,NA,pleasant,unpleasant,NA,NA,NA,NA,NA,left,2774,true,NA,NA,NA,NA,NA,NA,NA,NA
zuHVd5k8,3fk4g712o0duz4m7qhicsa7sfszsso,3b3wtrp3dfflca74ey8h9hlqupv921,zuHVd5k8,2020-0188,2021-10-31,17:45:23,19:50:15,NA,incomplete,false,true,NA,NA,5,12,NA,orange,n_s_096.jpg,NA,NA,NA,NA,NA,pleasant,unpleasant,NA,NA,NA,NA,NA,left,1855,true,NA,NA,NA,NA,NA,NA,NA,NA
zuHVd5k8,3fk4g712o0duz4m7qhicsa7sfszsso,3b3wtrp3dfflca74ey8h9hlqupv921,zuHVd5k8,2020-0188,2021-10-31,17:45:23,19:50:15,NA,incomplete,false,true,NA,NA,5,13,NA,orange,n_l_102.jpg,NA,NA,NA,NA,NA,pleasant,unpleasant,NA,NA,NA,NA,NA,left,1066,true,NA,NA,NA,NA,NA,NA,NA,NA
zuHVd5k8,3fk4g712o0duz4m7qhicsa7sfszsso,3b3wtrp3dfflca74ey8h9hlqupv921,zuHVd5k8,2020-0188,2021-10-31,17:45:23,19:50:15,NA,incomplete,false,true,NA,NA,5,14,NA,orange,m_s_043.jpg,NA,NA,NA,NA,NA,unpleasant,pleasant,NA,NA,NA,NA,NA,right,1202,true,NA,NA,NA,NA,NA,NA,NA,NA
zuHVd5k8,3fk4g712o0duz4m7qhicsa7sfszsso,3b3wtrp3dfflca74ey8h9hlqupv921,zuHVd5k8,2020-0188,2021-10-31,17:45:23,19:50:15,NA,incomplete,false,true,NA,NA,5,15,NA,orange,m_s_055.jpg,NA,NA,NA,NA,NA,unpleasant,pleasant,NA,NA,NA,NA,NA,right,1515,true,NA,NA,NA,NA,NA,NA,NA,NA
zuHVd5k8,3fk4g712o0duz4m7qhicsa7sfszsso,3b3wtrp3dfflca74ey8h9hlqupv921,zuHVd5k8,2020-0188,2021-10-31,17:45:23,19:50:15,NA,incomplete,false,true,NA,NA,5,16,NA,orange,m_l_072.jpg,NA,NA,NA,NA,NA,pleasant,unpleasant,NA,NA,NA,NA,NA,left,1307,true,NA,NA,NA,NA,NA,NA,NA,NA
zuHVd5k8,3fk4g712o0duz4m7qhicsa7sfszsso,3b3wtrp3dfflca74ey8h9hlqupv921,zuHVd5k8,2020-0188,2021-10-31,17:45:23,19:50:15,NA,incomplete,false,true,NA,NA,5,17,NA,orange,m_l_032.jpg,NA,NA,NA,NA,NA,unpleasant,pleasant,NA,NA,NA,NA,NA,right,1330,true,NA,NA,NA,NA,NA,NA,NA,NA
zuHVd5k8,3fk4g712o0duz4m7qhicsa7sfszsso,3b3wtrp3dfflca74ey8h9hlqupv921,zuHVd5k8,2020-0188,2021-10-31,17:45:23,19:50:15,NA,incomplete,false,true,NA,NA,5,18,NA,brown,m_s_089.jpg,NA,NA,NA,NA,NA,pleasant,unpleasant,NA,NA,NA,NA,NA,left,1408,true,NA,NA,NA,NA,NA,NA,NA,NA
zuHVd5k8,3fk4g712o0duz4m7qhicsa7sfszsso,3b3wtrp3dfflca74ey8h9hlqupv921,zuHVd5k8,2020-0188,2021-10-31,17:45:23,19:50:15,NA,incomplete,false,true,NA,NA,5,19,NA,brown,m_l_112.jpg,NA,NA,NA,NA,NA,unpleasant,pleasant,NA,NA,NA,NA,NA,right,1174,true,NA,NA,NA,NA,NA,NA,NA,NA
zuHVd5k8,3fk4g712o0duz4m7qhicsa7sfszsso,3b3wtrp3dfflca74ey8h9hlqupv921,zuHVd5k8,2020-0188,2021-10-31,17:45:23,19:50:15,NA,incomplete,false,true,NA,NA,5,20,NA,brown,m_s_058.jpg,NA,NA,NA,NA,NA,unpleasant,pleasant,NA,NA,NA,NA,NA,right,1226,true,NA,NA,NA,NA,NA,NA,NA,NA
zuHVd5k8,3fk4g712o0duz4m7qhicsa7sfszsso,3b3wtrp3dfflca74ey8h9hlqupv921,zuHVd5k8,2020-0188,2021-10-31,17:45:23,19:50:15,NA,incomplete,false,true,NA,NA,5,21,NA,brown,n_s_053.jpg,NA,NA,NA,NA,NA,pleasant,unpleasant,NA,NA,NA,NA,NA,left,1024,true,NA,NA,NA,NA,NA,NA,NA,NA
zuHVd5k8,3fk4g712o0duz4m7qhicsa7sfszsso,3b3wtrp3dfflca74ey8h9hlqupv921,zuHVd5k8,2020-0188,2021-10-31,17:45:23,19:50:15,NA,incomplete,false,true,NA,NA,5,22,NA,brown,m_l_084.jpg,NA,NA,NA,NA,NA,unpleasant,pleasant,NA,NA,NA,NA,NA,right,2968,true,NA,NA,NA,NA,NA,NA,NA,NA
zuHVd5k8,3fk4g712o0duz4m7qhicsa7sfszsso,3b3wtrp3dfflca74ey8h9hlqupv921,zuHVd5k8,2020-0188,2021-10-31,17:45:23,19:50:15,NA,incomplete,false,true,NA,NA,5,23,NA,brown,m_l_071.jpg,NA,NA,NA,NA,NA,unpleasant,pleasant,NA,NA,NA,NA,NA,right,1538,true,NA,NA,NA,NA,NA,NA,NA,NA
zuHVd5k8,3fk4g712o0duz4m7qhicsa7sfszsso,3b3wtrp3dfflca74ey8h9hlqupv921,zuHVd5k8,2020-0188,2021-10-31,17:45:23,19:50:15,NA,incomplete,false,true,NA,NA,5,24,NA,gray,n_s_050.jpg,NA,NA,NA,NA,NA,pleasant,unpleasant,NA,NA,NA,NA,NA,left,1054,true,NA,NA,NA,NA,NA,NA,NA,NA
zuHVd5k8,3fk4g712o0duz4m7qhicsa7sfszsso,3b3wtrp3dfflca74ey8h9hlqupv921,zuHVd5k8,2020-0188,2021-10-31,17:45:23,19:50:15,NA,incomplete,false,true,NA,NA,5,25,NA,gray,m_l_102.jpg,NA,NA,NA,NA,NA,pleasant,unpleasant,NA,NA,NA,NA,NA,left,1273,true,NA,NA,NA,NA,NA,NA,NA,NA
zuHVd5k8,3fk4g712o0duz4m7qhicsa7sfszsso,3b3wtrp3dfflca74ey8h9hlqupv921,zuHVd5k8,2020-0188,2021-10-31,17:45:23,19:50:15,NA,incomplete,false,true,NA,NA,5,26,NA,gray,n_l_114.jpg,NA,NA,NA,NA,NA,pleasant,unpleasant,NA,NA,NA,NA,NA,left,3014,true,NA,NA,NA,NA,NA,NA,NA,NA
zuHVd5k8,3fk4g712o0duz4m7qhicsa7sfszsso,3b3wtrp3dfflca74ey8h9hlqupv921,zuHVd5k8,2020-0188,2021-10-31,17:45:23,19:50:15,NA,incomplete,false,true,NA,NA,5,27,NA,gray,m_l_045.jpg,NA,NA,NA,NA,NA,pleasant,unpleasant,NA,NA,NA,NA,NA,left,1791,true,NA,NA,NA,NA,NA,NA,NA,NA
zuHVd5k8,3fk4g712o0duz4m7qhicsa7sfszsso,3b3wtrp3dfflca74ey8h9hlqupv921,zuHVd5k8,2020-0188,2021-10-31,17:45:23,19:50:15,NA,incomplete,false,true,NA,NA,5,28,NA,gray,m_s_066.jpg,NA,NA,NA,NA,NA,pleasant,unpleasant,NA,NA,NA,NA,NA,left,1242,true,NA,NA,NA,NA,NA,NA,NA,NA
zuHVd5k8,3fk4g712o0duz4m7qhicsa7sfszsso,3b3wtrp3dfflca74ey8h9hlqupv921,zuHVd5k8,2020-0188,2021-10-31,17:45:23,19:50:15,NA,incomplete,false,true,NA,NA,5,29,NA,gray,n_l_082.jpg,NA,NA,NA,NA,NA,unpleasant,pleasant,NA,NA,NA,NA,NA,right,1301,true,NA,NA,NA,NA,NA,NA,NA,NA
zuHVd5k8,3fk4g712o0duz4m7qhicsa7sfszsso,3b3wtrp3dfflca74ey8h9hlqupv921,zuHVd5k8,2020-0188,2021-10-31,17:45:23,19:50:15,NA,incomplete,false,true,NA,NA,5,30,NA,red,n_l_086.jpg,NA,NA,NA,NA,NA,unpleasant,pleasant,NA,NA,NA,NA,NA,right,1271,true,NA,NA,NA,NA,NA,NA,NA,NA
zuHVd5k8,3fk4g712o0duz4m7qhicsa7sfszsso,3b3wtrp3dfflca74ey8h9hlqupv921,zuHVd5k8,2020-0188,2021-10-31,17:45:23,19:50:15,NA,incomplete,false,true,NA,NA,5,31,NA,red,m_s_103.jpg,NA,NA,NA,NA,NA,pleasant,unpleasant,NA,NA,NA,NA,NA,left,1029,true,NA,NA,NA,NA,NA,NA,NA,NA
zuHVd5k8,3fk4g712o0duz4m7qhicsa7sfszsso,3b3wtrp3dfflca74ey8h9hlqupv921,zuHVd5k8,2020-0188,2021-10-31,17:45:23,19:50:15,NA,incomplete,false,true,NA,NA,5,32,NA,red,m_s_008.jpg,NA,NA,NA,NA,NA,unpleasant,pleasant,NA,NA,NA,NA,NA,right,1039,true,NA,NA,NA,NA,NA,NA,NA,NA
