workerId,hitId,assignmentId,subject,studyid,exp_date,exp_start,exp_end,time_start,time_end,practice,encoding,memory,association,block,trial,event_order,event,stim,answer,object,left_context,right_context,context_type,label_left,label_right,left_image,left_event,right_image,right_event,condition,response,response_time,response_acc,association_response_time,association_response,association_acc,order_response,order_response_time,order_acc,distance_response,distance_response_time
oTtpCm8c,3dw3bnf1hkvs8co26ehcm6ry22mv8w,3b837j3lds9kl9ko2un9rkyox2lrsn,oTtpCm8c,2020-0188,2021-10-31,04:22:37,06:20:19,NA,incomplete,true,true,NA,NA,0,0,NA,blue,n_s_093.jpg,NA,NA,NA,NA,NA,unpleasant,pleasant,NA,NA,NA,NA,NA,right,1741,true,NA,NA,NA,NA,NA,NA,NA,NA
oTtpCm8c,3dw3bnf1hkvs8co26ehcm6ry22mv8w,3b837j3lds9kl9ko2un9rkyox2lrsn,oTtpCm8c,2020-0188,2021-10-31,04:22:37,06:20:19,NA,incomplete,true,true,NA,NA,0,1,NA,blue,n_s_002.jpg,NA,NA,NA,NA,NA,unpleasant,pleasant,NA,NA,NA,NA,NA,right,1225.89999999851,true,NA,NA,NA,NA,NA,NA,NA,NA
oTtpCm8c,3dw3bnf1hkvs8co26ehcm6ry22mv8w,3b837j3lds9kl9ko2un9rkyox2lrsn,oTtpCm8c,2020-0188,2021-10-31,04:22:37,06:20:19,NA,incomplete,true,true,NA,NA,0,2,NA,blue,n_l_058.jpg,NA,NA,NA,NA,NA,unpleasant,pleasant,NA,NA,NA,NA,NA,none,0,false,NA,NA,NA,NA,NA,NA,NA,NA
oTtpCm8c,3dw3bnf1hkvs8co26ehcm6ry22mv8w,3b837j3lds9kl9ko2un9rkyox2lrsn,oTtpCm8c,2020-0188,2021-10-31,04:22:37,06:20:19,NA,incomplete,true,true,NA,NA,0,3,NA,blue,m_l_091.jpg,NA,NA,NA,NA,NA,unpleasant,pleasant,NA,NA,NA,NA,NA,right,483.39999999851,true,NA,NA,NA,NA,NA,NA,NA,NA
oTtpCm8c,3dw3bnf1hkvs8co26ehcm6ry22mv8w,3b837j3lds9kl9ko2un9rkyox2lrsn,oTtpCm8c,2020-0188,2021-10-31,04:22:37,06:20:19,NA,incomplete,true,true,NA,NA,0,4,NA,blue,n_s_061.jpg,NA,NA,NA,NA,NA,unpleasant,pleasant,NA,NA,NA,NA,NA,right,553.300000000745,true,NA,NA,NA,NA,NA,NA,NA,NA
oTtpCm8c,3dw3bnf1hkvs8co26ehcm6ry22mv8w,3b837j3lds9kl9ko2un9rkyox2lrsn,oTtpCm8c,2020-0188,2021-10-31,04:22:37,06:20:19,NA,incomplete,true,true,NA,NA,0,5,NA,blue,m_s_025.jpg,NA,NA,NA,NA,NA,pleasant,unpleasant,NA,NA,NA,NA,NA,right,1423.59999999963,true,NA,NA,NA,NA,NA,NA,NA,NA
oTtpCm8c,3dw3bnf1hkvs8co26ehcm6ry22mv8w,3b837j3lds9kl9ko2un9rkyox2lrsn,oTtpCm8c,2020-0188,2021-10-31,04:22:37,06:20:19,NA,incomplete,true,true,NA,NA,0,6,NA,purple,n_l_018.jpg,NA,NA,NA,NA,NA,pleasant,unpleasant,NA,NA,NA,NA,NA,right,1131,true,NA,NA,NA,NA,NA,NA,NA,NA
oTtpCm8c,3dw3bnf1hkvs8co26ehcm6ry22mv8w,3b837j3lds9kl9ko2un9rkyox2lrsn,oTtpCm8c,2020-0188,2021-10-31,04:22:37,06:20:19,NA,incomplete,true,true,NA,NA,0,7,NA,purple,n_l_032.jpg,NA,NA,NA,NA,NA,pleasant,unpleasant,NA,NA,NA,NA,NA,none,0,false,NA,NA,NA,NA,NA,NA,NA,NA
oTtpCm8c,3dw3bnf1hkvs8co26ehcm6ry22mv8w,3b837j3lds9kl9ko2un9rkyox2lrsn,oTtpCm8c,2020-0188,2021-10-31,04:22:37,06:20:19,NA,incomplete,true,true,NA,NA,0,8,NA,purple,m_l_063.jpg,NA,NA,NA,NA,NA,unpleasant,pleasant,NA,NA,NA,NA,NA,right,854.599999999627,true,NA,NA,NA,NA,NA,NA,NA,NA
oTtpCm8c,3dw3bnf1hkvs8co26ehcm6ry22mv8w,3b837j3lds9kl9ko2un9rkyox2lrsn,oTtpCm8c,2020-0188,2021-10-31,04:22:37,06:20:19,NA,incomplete,true,true,NA,NA,0,9,NA,purple,m_s_021.jpg,NA,NA,NA,NA,NA,pleasant,unpleasant,NA,NA,NA,NA,NA,right,1042.09999999963,true,NA,NA,NA,NA,NA,NA,NA,NA
oTtpCm8c,3dw3bnf1hkvs8co26ehcm6ry22mv8w,3b837j3lds9kl9ko2un9rkyox2lrsn,oTtpCm8c,2020-0188,2021-10-31,04:22:37,06:20:19,NA,incomplete,true,true,NA,NA,0,10,NA,purple,n_l_080.jpg,NA,NA,NA,NA,NA,unpleasant,pleasant,NA,NA,NA,NA,NA,right,1039.70000000112,true,NA,NA,NA,NA,NA,NA,NA,NA
oTtpCm8c,3dw3bnf1hkvs8co26ehcm6ry22mv8w,3b837j3lds9kl9ko2un9rkyox2lrsn,oTtpCm8c,2020-0188,2021-10-31,04:22:37,06:20:19,NA,incomplete,true,true,NA,NA,0,11,NA,purple,n_s_062.jpg,NA,NA,NA,NA,NA,pleasant,unpleasant,NA,NA,NA,NA,NA,none,0,false,NA,NA,NA,NA,NA,NA,NA,NA
oTtpCm8c,3dw3bnf1hkvs8co26ehcm6ry22mv8w,3b837j3lds9kl9ko2un9rkyox2lrsn,oTtpCm8c,2020-0188,2021-10-31,04:22:37,06:20:19,NA,incomplete,true,true,NA,NA,0,12,NA,green,n_s_024.jpg,NA,NA,NA,NA,NA,unpleasant,pleasant,NA,NA,NA,NA,NA,right,833.700000001118,true,NA,NA,NA,NA,NA,NA,NA,NA
oTtpCm8c,3dw3bnf1hkvs8co26ehcm6ry22mv8w,3b837j3lds9kl9ko2un9rkyox2lrsn,oTtpCm8c,2020-0188,2021-10-31,04:22:37,06:20:19,NA,incomplete,true,true,NA,NA,0,13,NA,green,n_s_055.jpg,NA,NA,NA,NA,NA,unpleasant,pleasant,NA,NA,NA,NA,NA,right,911.5,true,NA,NA,NA,NA,NA,NA,NA,NA
oTtpCm8c,3dw3bnf1hkvs8co26ehcm6ry22mv8w,3b837j3lds9kl9ko2un9rkyox2lrsn,oTtpCm8c,2020-0188,2021-10-31,04:22:37,06:20:19,NA,incomplete,true,true,NA,NA,0,14,NA,green,m_s_097.jpg,NA,NA,NA,NA,NA,pleasant,unpleasant,NA,NA,NA,NA,NA,right,452,true,NA,NA,NA,NA,NA,NA,NA,NA
oTtpCm8c,3dw3bnf1hkvs8co26ehcm6ry22mv8w,3b837j3lds9kl9ko2un9rkyox2lrsn,oTtpCm8c,2020-0188,2021-10-31,04:22:37,06:20:19,NA,incomplete,true,true,NA,NA,0,15,NA,green,n_l_001.jpg,NA,NA,NA,NA,NA,pleasant,unpleasant,NA,NA,NA,NA,NA,right,496.099999999627,true,NA,NA,NA,NA,NA,NA,NA,NA
oTtpCm8c,3dw3bnf1hkvs8co26ehcm6ry22mv8w,3b837j3lds9kl9ko2un9rkyox2lrsn,oTtpCm8c,2020-0188,2021-10-31,04:22:37,06:20:19,NA,incomplete,true,true,NA,NA,0,16,NA,green,m_l_058.jpg,NA,NA,NA,NA,NA,pleasant,unpleasant,NA,NA,NA,NA,NA,right,590.299999998882,true,NA,NA,NA,NA,NA,NA,NA,NA
oTtpCm8c,3dw3bnf1hkvs8co26ehcm6ry22mv8w,3b837j3lds9kl9ko2un9rkyox2lrsn,oTtpCm8c,2020-0188,2021-10-31,04:22:37,06:20:19,NA,incomplete,true,true,NA,NA,0,17,NA,green,n_l_005.jpg,NA,NA,NA,NA,NA,unpleasant,pleasant,NA,NA,NA,NA,NA,right,1148.10000000149,true,NA,NA,NA,NA,NA,NA,NA,NA
oTtpCm8c,3dw3bnf1hkvs8co26ehcm6ry22mv8w,3b837j3lds9kl9ko2un9rkyox2lrsn,oTtpCm8c,2020-0188,2021-10-31,04:22:37,06:20:19,NA,incomplete,true,true,NA,NA,0,18,NA,orange,n_s_067.jpg,NA,NA,NA,NA,NA,unpleasant,pleasant,NA,NA,NA,NA,NA,right,432.299999998882,true,NA,NA,NA,NA,NA,NA,NA,NA
oTtpCm8c,3dw3bnf1hkvs8co26ehcm6ry22mv8w,3b837j3lds9kl9ko2un9rkyox2lrsn,oTtpCm8c,2020-0188,2021-10-31,04:22:37,06:20:19,NA,incomplete,true,true,NA,NA,0,19,NA,orange,n_s_025.jpg,NA,NA,NA,NA,NA,pleasant,unpleasant,NA,NA,NA,NA,NA,right,534,true,NA,NA,NA,NA,NA,NA,NA,NA
oTtpCm8c,3dw3bnf1hkvs8co26ehcm6ry22mv8w,3b837j3lds9kl9ko2un9rkyox2lrsn,oTtpCm8c,2020-0188,2021-10-31,04:22:37,06:20:19,NA,incomplete,true,true,NA,NA,0,20,NA,orange,m_l_068.jpg,NA,NA,NA,NA,NA,unpleasant,pleasant,NA,NA,NA,NA,NA,right,1060.40000000037,true,NA,NA,NA,NA,NA,NA,NA,NA
oTtpCm8c,3dw3bnf1hkvs8co26ehcm6ry22mv8w,3b837j3lds9kl9ko2un9rkyox2lrsn,oTtpCm8c,2020-0188,2021-10-31,04:22:37,06:20:19,NA,incomplete,true,true,NA,NA,0,21,NA,orange,m_s_086.jpg,NA,NA,NA,NA,NA,unpleasant,pleasant,NA,NA,NA,NA,NA,right,952.800000000745,true,NA,NA,NA,NA,NA,NA,NA,NA
oTtpCm8c,3dw3bnf1hkvs8co26ehcm6ry22mv8w,3b837j3lds9kl9ko2un9rkyox2lrsn,oTtpCm8c,2020-0188,2021-10-31,04:22:37,06:20:19,NA,incomplete,true,true,NA,NA,0,22,NA,orange,n_l_024.jpg,NA,NA,NA,NA,NA,unpleasant,pleasant,NA,NA,NA,NA,NA,right,1038.40000000037,true,NA,NA,NA,NA,NA,NA,NA,NA
oTtpCm8c,3dw3bnf1hkvs8co26ehcm6ry22mv8w,3b837j3lds9kl9ko2un9rkyox2lrsn,oTtpCm8c,2020-0188,2021-10-31,04:22:37,06:20:19,NA,incomplete,true,true,NA,NA,0,23,NA,orange,n_s_038.jpg,NA,NA,NA,NA,NA,unpleasant,pleasant,NA,NA,NA,NA,NA,right,1003.80000000075,true,NA,NA,NA,NA,NA,NA,NA,NA
oTtpCm8c,3dw3bnf1hkvs8co26ehcm6ry22mv8w,3b837j3lds9kl9ko2un9rkyox2lrsn,oTtpCm8c,2020-0188,2021-10-31,04:22:37,06:20:19,NA,incomplete,true,true,NA,NA,0,24,NA,red,n_s_094.jpg,NA,NA,NA,NA,NA,unpleasant,pleasant,NA,NA,NA,NA,NA,right,1121.69999999925,true,NA,NA,NA,NA,NA,NA,NA,NA
oTtpCm8c,3dw3bnf1hkvs8co26ehcm6ry22mv8w,3b837j3lds9kl9ko2un9rkyox2lrsn,oTtpCm8c,2020-0188,2021-10-31,04:22:37,06:20:19,NA,incomplete,true,true,NA,NA,0,25,NA,red,m_l_075.jpg,NA,NA,NA,NA,NA,unpleasant,pleasant,NA,NA,NA,NA,NA,right,821.599999999627,true,NA,NA,NA,NA,NA,NA,NA,NA
oTtpCm8c,3dw3bnf1hkvs8co26ehcm6ry22mv8w,3b837j3lds9kl9ko2un9rkyox2lrsn,oTtpCm8c,2020-0188,2021-10-31,04:22:37,06:20:19,NA,incomplete,true,true,NA,NA,0,26,NA,red,m_s_033.jpg,NA,NA,NA,NA,NA,unpleasant,pleasant,NA,NA,NA,NA,NA,right,763.299999998882,true,NA,NA,NA,NA,NA,NA,NA,NA
oTtpCm8c,3dw3bnf1hkvs8co26ehcm6ry22mv8w,3b837j3lds9kl9ko2un9rkyox2lrsn,oTtpCm8c,2020-0188,2021-10-31,04:22:37,06:20:19,NA,incomplete,true,true,NA,NA,0,27,NA,red,m_s_004.jpg,NA,NA,NA,NA,NA,unpleasant,pleasant,NA,NA,NA,NA,NA,right,631.300000000745,true,NA,NA,NA,NA,NA,NA,NA,NA
oTtpCm8c,3dw3bnf1hkvs8co26ehcm6ry22mv8w,3b837j3lds9kl9ko2un9rkyox2lrsn,oTtpCm8c,2020-0188,2021-10-31,04:22:37,06:20:19,NA,incomplete,true,true,NA,NA,0,28,NA,red,n_s_091.jpg,NA,NA,NA,NA,NA,unpleasant,pleasant,NA,NA,NA,NA,NA,right,685.800000000745,true,NA,NA,NA,NA,NA,NA,NA,NA
oTtpCm8c,3dw3bnf1hkvs8co26ehcm6ry22mv8w,3b837j3lds9kl9ko2un9rkyox2lrsn,oTtpCm8c,2020-0188,2021-10-31,04:22:37,06:20:19,NA,incomplete,true,true,NA,NA,0,29,NA,red,m_s_051.jpg,NA,NA,NA,NA,NA,pleasant,unpleasant,NA,NA,NA,NA,NA,right,459.699999999255,true,NA,NA,NA,NA,NA,NA,NA,NA
oTtpCm8c,3dw3bnf1hkvs8co26ehcm6ry22mv8w,3b837j3lds9kl9ko2un9rkyox2lrsn,oTtpCm8c,2020-0188,2021-10-31,04:22:37,06:20:19,NA,incomplete,true,true,NA,NA,0,30,NA,brown,m_s_104.jpg,NA,NA,NA,NA,NA,pleasant,unpleasant,NA,NA,NA,NA,NA,right,616.39999999851,true,NA,NA,NA,NA,NA,NA,NA,NA
oTtpCm8c,3dw3bnf1hkvs8co26ehcm6ry22mv8w,3b837j3lds9kl9ko2un9rkyox2lrsn,oTtpCm8c,2020-0188,2021-10-31,04:22:37,06:20:19,NA,incomplete,true,true,NA,NA,0,31,NA,brown,n_l_110.jpg,NA,NA,NA,NA,NA,unpleasant,pleasant,NA,NA,NA,NA,NA,right,693.900000000373,true,NA,NA,NA,NA,NA,NA,NA,NA
oTtpCm8c,3dw3bnf1hkvs8co26ehcm6ry22mv8w,3b837j3lds9kl9ko2un9rkyox2lrsn,oTtpCm8c,2020-0188,2021-10-31,04:22:37,06:20:19,NA,incomplete,true,true,NA,NA,0,32,NA,brown,m_s_117.jpg,NA,NA,NA,NA,NA,unpleasant,pleasant,NA,NA,NA,NA,NA,right,563.300000000745,true,NA,NA,NA,NA,NA,NA,NA,NA
oTtpCm8c,3dw3bnf1hkvs8co26ehcm6ry22mv8w,3b837j3lds9kl9ko2un9rkyox2lrsn,oTtpCm8c,2020-0188,2021-10-31,04:22:37,06:20:19,NA,incomplete,true,true,NA,NA,0,33,NA,brown,m_s_040.jpg,NA,NA,NA,NA,NA,unpleasant,pleasant,NA,NA,NA,NA,NA,right,503.799999998882,true,NA,NA,NA,NA,NA,NA,NA,NA
oTtpCm8c,3dw3bnf1hkvs8co26ehcm6ry22mv8w,3b837j3lds9kl9ko2un9rkyox2lrsn,oTtpCm8c,2020-0188,2021-10-31,04:22:37,06:20:19,NA,incomplete,true,true,NA,NA,0,34,NA,brown,m_s_044.jpg,NA,NA,NA,NA,NA,unpleasant,pleasant,NA,NA,NA,NA,NA,right,645.099999999627,true,NA,NA,NA,NA,NA,NA,NA,NA
oTtpCm8c,3dw3bnf1hkvs8co26ehcm6ry22mv8w,3b837j3lds9kl9ko2un9rkyox2lrsn,oTtpCm8c,2020-0188,2021-10-31,04:22:37,06:20:19,NA,incomplete,true,true,NA,NA,0,35,NA,brown,m_l_086.jpg,NA,NA,NA,NA,NA,pleasant,unpleasant,NA,NA,NA,NA,NA,right,513.900000000373,true,NA,NA,NA,NA,NA,NA,NA,NA
oTtpCm8c,3dw3bnf1hkvs8co26ehcm6ry22mv8w,3b837j3lds9kl9ko2un9rkyox2lrsn,oTtpCm8c,2020-0188,2021-10-31,04:22:37,06:20:19,NA,incomplete,true,NA,NA,true,0,0,NA,NA,NA,left,m_l_063.jpg,purple,blue,NA,NA,NA,NA,NA,NA,NA,NA,NA,NaN,NA,17495.099999999627,left,1,NA,NA,NA,NA,NA
oTtpCm8c,3dw3bnf1hkvs8co26ehcm6ry22mv8w,3b837j3lds9kl9ko2un9rkyox2lrsn,oTtpCm8c,2020-0188,2021-10-31,04:22:37,06:20:19,NA,incomplete,true,NA,NA,true,0,1,NA,NA,NA,right,m_l_068.jpg,green,orange,NA,NA,NA,NA,NA,NA,NA,NA,NA,NaN,NA,21903.099999999627,right,1,NA,NA,NA,NA,NA
oTtpCm8c,3dw3bnf1hkvs8co26ehcm6ry22mv8w,3b837j3lds9kl9ko2un9rkyox2lrsn,oTtpCm8c,2020-0188,2021-10-31,04:22:37,06:20:19,NA,incomplete,true,NA,NA,true,0,2,NA,NA,NA,left,n_l_032.jpg,purple,blue,NA,NA,NA,NA,NA,NA,NA,NA,NA,NaN,NA,11591.400000000373,left,1,NA,NA,NA,NA,NA
oTtpCm8c,3dw3bnf1hkvs8co26ehcm6ry22mv8w,3b837j3lds9kl9ko2un9rkyox2lrsn,oTtpCm8c,2020-0188,2021-10-31,04:22:37,06:20:19,NA,incomplete,true,NA,NA,true,0,3,NA,NA,NA,right,m_s_033.jpg,brown,red,NA,NA,NA,NA,NA,NA,NA,NA,NA,NaN,NA,19327,right,1,NA,NA,NA,NA,NA
oTtpCm8c,3dw3bnf1hkvs8co26ehcm6ry22mv8w,3b837j3lds9kl9ko2un9rkyox2lrsn,oTtpCm8c,2020-0188,2021-10-31,04:22:37,06:20:19,NA,incomplete,true,NA,NA,true,0,4,NA,NA,NA,right,m_l_086.jpg,red,brown,NA,NA,NA,NA,NA,NA,NA,NA,NA,NaN,NA,16847.300000000745,right,1,NA,NA,NA,NA,NA
oTtpCm8c,3dw3bnf1hkvs8co26ehcm6ry22mv8w,3b837j3lds9kl9ko2un9rkyox2lrsn,oTtpCm8c,2020-0188,2021-10-31,04:22:37,06:20:19,NA,incomplete,true,NA,NA,true,0,5,NA,NA,NA,left,n_s_091.jpg,red,orange,NA,NA,NA,NA,NA,NA,NA,NA,NA,NaN,NA,10463.099999997765,left,1,NA,NA,NA,NA,NA
oTtpCm8c,3dw3bnf1hkvs8co26ehcm6ry22mv8w,3b837j3lds9kl9ko2un9rkyox2lrsn,oTtpCm8c,2020-0188,2021-10-31,04:22:37,06:20:19,NA,incomplete,true,NA,NA,true,0,6,NA,NA,NA,right,m_l_075.jpg,brown,red,NA,NA,NA,NA,NA,NA,NA,NA,NA,NaN,NA,6270.89999999851,right,1,NA,NA,NA,NA,NA
oTtpCm8c,3dw3bnf1hkvs8co26ehcm6ry22mv8w,3b837j3lds9kl9ko2un9rkyox2lrsn,oTtpCm8c,2020-0188,2021-10-31,04:22:37,06:20:19,NA,incomplete,true,NA,NA,true,0,7,NA,NA,NA,left,m_s_051.jpg,red,orange,NA,NA,NA,NA,NA,NA,NA,NA,NA,NaN,NA,30559,left,1,NA,NA,NA,NA,NA
oTtpCm8c,3dw3bnf1hkvs8co26ehcm6ry22mv8w,3b837j3lds9kl9ko2un9rkyox2lrsn,oTtpCm8c,2020-0188,2021-10-31,04:22:37,06:20:19,NA,incomplete,true,NA,NA,true,0,8,NA,NA,NA,right,m_s_025.jpg,purple,blue,NA,NA,NA,NA,NA,NA,NA,NA,NA,NaN,NA,16463.400000002235,right,1,NA,NA,NA,NA,NA
oTtpCm8c,3dw3bnf1hkvs8co26ehcm6ry22mv8w,3b837j3lds9kl9ko2un9rkyox2lrsn,oTtpCm8c,2020-0188,2021-10-31,04:22:37,06:20:19,NA,incomplete,true,NA,NA,true,0,9,NA,NA,NA,left,n_s_061.jpg,blue,purple,NA,NA,NA,NA,NA,NA,NA,NA,NA,NaN,NA,4502.800000000745,left,1,NA,NA,NA,NA,NA
oTtpCm8c,3dw3bnf1hkvs8co26ehcm6ry22mv8w,3b837j3lds9kl9ko2un9rkyox2lrsn,oTtpCm8c,2020-0188,2021-10-31,04:22:37,06:20:19,NA,incomplete,true,NA,NA,true,0,10,NA,NA,NA,left,n_l_005.jpg,green,orange,NA,NA,NA,NA,NA,NA,NA,NA,NA,NaN,NA,15303,left,1,NA,NA,NA,NA,NA
oTtpCm8c,3dw3bnf1hkvs8co26ehcm6ry22mv8w,3b837j3lds9kl9ko2un9rkyox2lrsn,oTtpCm8c,2020-0188,2021-10-31,04:22:37,06:20:19,NA,incomplete,true,NA,NA,true,0,11,NA,NA,NA,left,n_l_080.jpg,purple,green,NA,NA,NA,NA,NA,NA,NA,NA,NA,NaN,NA,11167.199999999255,left,1,NA,NA,NA,NA,NA
oTtpCm8c,3dw3bnf1hkvs8co26ehcm6ry22mv8w,3b837j3lds9kl9ko2un9rkyox2lrsn,oTtpCm8c,2020-0188,2021-10-31,04:22:37,06:20:19,NA,incomplete,true,NA,NA,true,0,12,NA,NA,NA,right,n_l_024.jpg,green,orange,NA,NA,NA,NA,NA,NA,NA,NA,NA,NaN,NA,7823.5,right,1,NA,NA,NA,NA,NA
oTtpCm8c,3dw3bnf1hkvs8co26ehcm6ry22mv8w,3b837j3lds9kl9ko2un9rkyox2lrsn,oTtpCm8c,2020-0188,2021-10-31,04:22:37,06:20:19,NA,incomplete,true,NA,NA,true,0,13,NA,NA,NA,right,n_s_025.jpg,red,orange,NA,NA,NA,NA,NA,NA,NA,NA,NA,NaN,NA,8719.099999997765,right,1,NA,NA,NA,NA,NA
oTtpCm8c,3dw3bnf1hkvs8co26ehcm6ry22mv8w,3b837j3lds9kl9ko2un9rkyox2lrsn,oTtpCm8c,2020-0188,2021-10-31,04:22:37,06:20:19,NA,incomplete,true,NA,NA,true,0,14,NA,NA,NA,left,m_s_117.jpg,brown,red,NA,NA,NA,NA,NA,NA,NA,NA,NA,NaN,NA,21399.099999997765,left,1,NA,NA,NA,NA,NA
oTtpCm8c,3dw3bnf1hkvs8co26ehcm6ry22mv8w,3b837j3lds9kl9ko2un9rkyox2lrsn,oTtpCm8c,2020-0188,2021-10-31,04:22:37,06:20:19,NA,incomplete,true,NA,NA,true,0,15,NA,NA,NA,left,n_s_038.jpg,orange,red,NA,NA,NA,NA,NA,NA,NA,NA,NA,NaN,NA,10303,left,1,NA,NA,NA,NA,NA
oTtpCm8c,3dw3bnf1hkvs8co26ehcm6ry22mv8w,3b837j3lds9kl9ko2un9rkyox2lrsn,oTtpCm8c,2020-0188,2021-10-31,04:22:37,06:20:19,NA,incomplete,true,NA,NA,true,0,16,NA,NA,NA,right,n_l_110.jpg,red,brown,NA,NA,NA,NA,NA,NA,NA,NA,NA,NaN,NA,15783.10000000149,right,1,NA,NA,NA,NA,NA
oTtpCm8c,3dw3bnf1hkvs8co26ehcm6ry22mv8w,3b837j3lds9kl9ko2un9rkyox2lrsn,oTtpCm8c,2020-0188,2021-10-31,04:22:37,06:20:19,NA,incomplete,true,NA,NA,true,0,17,NA,NA,NA,left,m_s_097.jpg,green,purple,NA,NA,NA,NA,NA,NA,NA,NA,NA,NaN,NA,11959.10000000149,left,1,NA,NA,NA,NA,NA
oTtpCm8c,3dw3bnf1hkvs8co26ehcm6ry22mv8w,3b837j3lds9kl9ko2un9rkyox2lrsn,oTtpCm8c,2020-0188,2021-10-31,04:22:37,06:20:19,NA,incomplete,true,NA,NA,true,0,18,NA,NA,NA,right,m_l_058.jpg,purple,green,NA,NA,NA,NA,NA,NA,NA,NA,NA,NaN,NA,8903,right,1,NA,NA,NA,NA,NA
oTtpCm8c,3dw3bnf1hkvs8co26ehcm6ry22mv8w,3b837j3lds9kl9ko2un9rkyox2lrsn,oTtpCm8c,2020-0188,2021-10-31,04:22:37,06:20:19,NA,incomplete,true,NA,NA,true,0,19,NA,NA,NA,right,n_s_002.jpg,purple,blue,NA,NA,NA,NA,NA,NA,NA,NA,NA,NaN,NA,11543,right,1,NA,NA,NA,NA,NA
oTtpCm8c,3dw3bnf1hkvs8co26ehcm6ry22mv8w,3b837j3lds9kl9ko2un9rkyox2lrsn,oTtpCm8c,2020-0188,2021-10-31,04:22:37,06:20:19,NA,incomplete,true,NA,NA,true,0,20,NA,NA,NA,right,n_s_062.jpg,blue,purple,NA,NA,NA,NA,NA,NA,NA,NA,NA,NaN,NA,16055.39999999851,right,1,NA,NA,NA,NA,NA
oTtpCm8c,3dw3bnf1hkvs8co26ehcm6ry22mv8w,3b837j3lds9kl9ko2un9rkyox2lrsn,oTtpCm8c,2020-0188,2021-10-31,04:22:37,06:20:19,NA,incomplete,true,NA,NA,true,0,21,NA,NA,NA,left,n_s_055.jpg,green,orange,NA,NA,NA,NA,NA,NA,NA,NA,NA,NaN,NA,7975.099999997765,left,1,NA,NA,NA,NA,NA
oTtpCm8c,3dw3bnf1hkvs8co26ehcm6ry22mv8w,3b837j3lds9kl9ko2un9rkyox2lrsn,oTtpCm8c,2020-0188,2021-10-31,04:22:37,06:20:19,NA,incomplete,true,NA,true,NA,0,0,NA,NA,NA,right,NA,NA,NA,absent,NA,NA,n_s_038.jpg,orange,n_s_025.jpg,orange,within,NA,NaN,NA,NA,NA,NA,right,15207,1,2,1535.3999999985099
oTtpCm8c,3dw3bnf1hkvs8co26ehcm6ry22mv8w,3b837j3lds9kl9ko2un9rkyox2lrsn,oTtpCm8c,2020-0188,2021-10-31,04:22:37,06:20:19,NA,incomplete,true,NA,true,NA,0,1,NA,NA,NA,right,NA,NA,NA,absent,NA,NA,m_s_025.jpg,blue,n_s_002.jpg,blue,within,NA,NaN,NA,NA,NA,NA,right,15655.5,1,2,5087.200000001118
oTtpCm8c,3dw3bnf1hkvs8co26ehcm6ry22mv8w,3b837j3lds9kl9ko2un9rkyox2lrsn,oTtpCm8c,2020-0188,2021-10-31,04:22:37,06:20:19,NA,incomplete,true,NA,true,NA,0,2,NA,NA,NA,left,NA,NA,NA,absent,NA,NA,n_l_032.jpg,purple,n_s_062.jpg,purple,within,NA,NaN,NA,NA,NA,NA,left,11415.200000001118,1,1,1775.1000000014901
oTtpCm8c,3dw3bnf1hkvs8co26ehcm6ry22mv8w,3b837j3lds9kl9ko2un9rkyox2lrsn,oTtpCm8c,2020-0188,2021-10-31,04:22:37,06:20:19,NA,incomplete,true,NA,true,NA,0,3,NA,NA,NA,right,NA,NA,NA,absent,NA,NA,m_s_117.jpg,brown,n_s_091.jpg,red,between,NA,NaN,NA,NA,NA,NA,right,35479.09999999963,1,1,1615.2999999988824
oTtpCm8c,3dw3bnf1hkvs8co26ehcm6ry22mv8w,3b837j3lds9kl9ko2un9rkyox2lrsn,oTtpCm8c,2020-0188,2021-10-31,04:22:37,06:20:19,NA,incomplete,true,NA,true,NA,0,4,NA,NA,NA,right,NA,NA,NA,absent,NA,NA,m_l_068.jpg,orange,m_l_058.jpg,green,between,NA,NaN,NA,NA,NA,NA,right,21351.300000000745,1,2,4831.0999999996275
oTtpCm8c,3dw3bnf1hkvs8co26ehcm6ry22mv8w,3b837j3lds9kl9ko2un9rkyox2lrsn,oTtpCm8c,2020-0188,2021-10-31,04:22:37,06:20:19,NA,incomplete,true,NA,true,NA,0,5,NA,NA,NA,right,NA,NA,NA,absent,NA,NA,m_s_097.jpg,green,n_l_080.jpg,purple,between,NA,NaN,NA,NA,NA,NA,right,6639.200000001118,1,3,1439.2999999988824
oTtpCm8c,3dw3bnf1hkvs8co26ehcm6ry22mv8w,3b837j3lds9kl9ko2un9rkyox2lrsn,oTtpCm8c,2020-0188,2021-10-31,04:22:37,06:20:19,NA,incomplete,true,NA,true,NA,0,6,NA,NA,NA,right,NA,NA,NA,absent,NA,NA,m_s_033.jpg,red,n_l_024.jpg,orange,between,NA,NaN,NA,NA,NA,NA,right,9807.5,1,1,1750.8999999985099
oTtpCm8c,3dw3bnf1hkvs8co26ehcm6ry22mv8w,3b837j3lds9kl9ko2un9rkyox2lrsn,oTtpCm8c,2020-0188,2021-10-31,04:22:37,06:20:19,NA,incomplete,true,NA,true,NA,0,7,NA,NA,NA,left,NA,NA,NA,absent,NA,NA,n_s_061.jpg,blue,m_l_063.jpg,purple,between,NA,NaN,NA,NA,NA,NA,left,2735.2000000011176,1,1,2087.0999999996275
oTtpCm8c,3dw3bnf1hkvs8co26ehcm6ry22mv8w,3b837j3lds9kl9ko2un9rkyox2lrsn,oTtpCm8c,2020-0188,2021-10-31,04:22:37,06:20:19,NA,incomplete,true,NA,true,NA,0,8,NA,NA,NA,right,NA,NA,NA,absent,NA,NA,n_l_005.jpg,green,n_s_055.jpg,green,within,NA,NaN,NA,NA,NA,NA,right,20231.400000000373,1,3,2407.2000000011176
oTtpCm8c,3dw3bnf1hkvs8co26ehcm6ry22mv8w,3b837j3lds9kl9ko2un9rkyox2lrsn,oTtpCm8c,2020-0188,2021-10-31,04:22:37,06:20:19,NA,incomplete,true,NA,true,NA,0,9,NA,NA,NA,left,NA,NA,NA,absent,NA,NA,n_l_110.jpg,brown,m_l_086.jpg,brown,within,NA,NaN,NA,NA,NA,NA,left,30015.099999999627,1,1,1967.199999999255
oTtpCm8c,3dw3bnf1hkvs8co26ehcm6ry22mv8w,3b837j3lds9kl9ko2un9rkyox2lrsn,oTtpCm8c,2020-0188,2021-10-31,04:22:37,06:20:19,NA,incomplete,true,NA,true,NA,0,10,NA,NA,NA,right,NA,NA,NA,absent,NA,NA,m_s_051.jpg,red,m_l_075.jpg,red,within,NA,NaN,NA,NA,NA,NA,left,7039.199999999255,0,1,2239.199999999255
oTtpCm8c,3dw3bnf1hkvs8co26ehcm6ry22mv8w,3b837j3lds9kl9ko2un9rkyox2lrsn,oTtpCm8c,2020-0188,2021-10-31,04:22:37,06:20:19,NA,incomplete,false,true,NA,NA,1,0,NA,green,m_s_112.jpg,NA,NA,NA,NA,NA,pleasant,unpleasant,NA,NA,NA,NA,NA,left,1781.39999999851,true,NA,NA,NA,NA,NA,NA,NA,NA
oTtpCm8c,3dw3bnf1hkvs8co26ehcm6ry22mv8w,3b837j3lds9kl9ko2un9rkyox2lrsn,oTtpCm8c,2020-0188,2021-10-31,04:22:37,06:20:19,NA,incomplete,false,true,NA,NA,1,1,NA,green,n_s_068.jpg,NA,NA,NA,NA,NA,unpleasant,pleasant,NA,NA,NA,NA,NA,right,1938.39999999851,true,NA,NA,NA,NA,NA,NA,NA,NA
oTtpCm8c,3dw3bnf1hkvs8co26ehcm6ry22mv8w,3b837j3lds9kl9ko2un9rkyox2lrsn,oTtpCm8c,2020-0188,2021-10-31,04:22:37,06:20:19,NA,incomplete,false,true,NA,NA,1,2,NA,green,n_s_057.jpg,NA,NA,NA,NA,NA,pleasant,unpleasant,NA,NA,NA,NA,NA,right,1159.40000000224,true,NA,NA,NA,NA,NA,NA,NA,NA
oTtpCm8c,3dw3bnf1hkvs8co26ehcm6ry22mv8w,3b837j3lds9kl9ko2un9rkyox2lrsn,oTtpCm8c,2020-0188,2021-10-31,04:22:37,06:20:19,NA,incomplete,false,true,NA,NA,1,3,NA,green,n_l_106.jpg,NA,NA,NA,NA,NA,pleasant,unpleasant,NA,NA,NA,NA,NA,right,1100.39999999851,true,NA,NA,NA,NA,NA,NA,NA,NA
oTtpCm8c,3dw3bnf1hkvs8co26ehcm6ry22mv8w,3b837j3lds9kl9ko2un9rkyox2lrsn,oTtpCm8c,2020-0188,2021-10-31,04:22:37,06:20:19,NA,incomplete,false,true,NA,NA,1,4,NA,green,m_s_081.jpg,NA,NA,NA,NA,NA,pleasant,unpleasant,NA,NA,NA,NA,NA,right,1033.80000000075,true,NA,NA,NA,NA,NA,NA,NA,NA
oTtpCm8c,3dw3bnf1hkvs8co26ehcm6ry22mv8w,3b837j3lds9kl9ko2un9rkyox2lrsn,oTtpCm8c,2020-0188,2021-10-31,04:22:37,06:20:19,NA,incomplete,false,true,NA,NA,1,5,NA,green,n_s_020.jpg,NA,NA,NA,NA,NA,unpleasant,pleasant,NA,NA,NA,NA,NA,right,1015.60000000149,true,NA,NA,NA,NA,NA,NA,NA,NA
oTtpCm8c,3dw3bnf1hkvs8co26ehcm6ry22mv8w,3b837j3lds9kl9ko2un9rkyox2lrsn,oTtpCm8c,2020-0188,2021-10-31,04:22:37,06:20:19,NA,incomplete,false,true,NA,NA,1,6,NA,blue,m_s_079.jpg,NA,NA,NA,NA,NA,unpleasant,pleasant,NA,NA,NA,NA,NA,right,893.5,true,NA,NA,NA,NA,NA,NA,NA,NA
oTtpCm8c,3dw3bnf1hkvs8co26ehcm6ry22mv8w,3b837j3lds9kl9ko2un9rkyox2lrsn,oTtpCm8c,2020-0188,2021-10-31,04:22:37,06:20:19,NA,incomplete,false,true,NA,NA,1,7,NA,blue,m_s_114.jpg,NA,NA,NA,NA,NA,pleasant,unpleasant,NA,NA,NA,NA,NA,right,930.60000000149,true,NA,NA,NA,NA,NA,NA,NA,NA
oTtpCm8c,3dw3bnf1hkvs8co26ehcm6ry22mv8w,3b837j3lds9kl9ko2un9rkyox2lrsn,oTtpCm8c,2020-0188,2021-10-31,04:22:37,06:20:19,NA,incomplete,false,true,NA,NA,1,8,NA,blue,n_s_028.jpg,NA,NA,NA,NA,NA,unpleasant,pleasant,NA,NA,NA,NA,NA,right,1504.10000000149,true,NA,NA,NA,NA,NA,NA,NA,NA
oTtpCm8c,3dw3bnf1hkvs8co26ehcm6ry22mv8w,3b837j3lds9kl9ko2un9rkyox2lrsn,oTtpCm8c,2020-0188,2021-10-31,04:22:37,06:20:19,NA,incomplete,false,true,NA,NA,1,9,NA,blue,n_l_087.jpg,NA,NA,NA,NA,NA,pleasant,unpleasant,NA,NA,NA,NA,NA,right,1269.39999999851,true,NA,NA,NA,NA,NA,NA,NA,NA
oTtpCm8c,3dw3bnf1hkvs8co26ehcm6ry22mv8w,3b837j3lds9kl9ko2un9rkyox2lrsn,oTtpCm8c,2020-0188,2021-10-31,04:22:37,06:20:19,NA,incomplete,false,true,NA,NA,1,10,NA,blue,m_l_011.jpg,NA,NA,NA,NA,NA,pleasant,unpleasant,NA,NA,NA,NA,NA,right,1499.5,true,NA,NA,NA,NA,NA,NA,NA,NA
oTtpCm8c,3dw3bnf1hkvs8co26ehcm6ry22mv8w,3b837j3lds9kl9ko2un9rkyox2lrsn,oTtpCm8c,2020-0188,2021-10-31,04:22:37,06:20:19,NA,incomplete,false,true,NA,NA,1,11,NA,blue,n_s_082.jpg,NA,NA,NA,NA,NA,unpleasant,pleasant,NA,NA,NA,NA,NA,right,1279.29999999702,true,NA,NA,NA,NA,NA,NA,NA,NA
oTtpCm8c,3dw3bnf1hkvs8co26ehcm6ry22mv8w,3b837j3lds9kl9ko2un9rkyox2lrsn,oTtpCm8c,2020-0188,2021-10-31,04:22:37,06:20:19,NA,incomplete,false,true,NA,NA,1,12,NA,white,n_s_040.jpg,NA,NA,NA,NA,NA,unpleasant,pleasant,NA,NA,NA,NA,NA,right,1357,true,NA,NA,NA,NA,NA,NA,NA,NA
oTtpCm8c,3dw3bnf1hkvs8co26ehcm6ry22mv8w,3b837j3lds9kl9ko2un9rkyox2lrsn,oTtpCm8c,2020-0188,2021-10-31,04:22:37,06:20:19,NA,incomplete,false,true,NA,NA,1,13,NA,white,m_s_094.jpg,NA,NA,NA,NA,NA,pleasant,unpleasant,NA,NA,NA,NA,NA,right,1273.89999999851,true,NA,NA,NA,NA,NA,NA,NA,NA
oTtpCm8c,3dw3bnf1hkvs8co26ehcm6ry22mv8w,3b837j3lds9kl9ko2un9rkyox2lrsn,oTtpCm8c,2020-0188,2021-10-31,04:22:37,06:20:19,NA,incomplete,false,true,NA,NA,1,14,NA,white,n_l_017.jpg,NA,NA,NA,NA,NA,unpleasant,pleasant,NA,NA,NA,NA,NA,right,1006.19999999925,true,NA,NA,NA,NA,NA,NA,NA,NA
oTtpCm8c,3dw3bnf1hkvs8co26ehcm6ry22mv8w,3b837j3lds9kl9ko2un9rkyox2lrsn,oTtpCm8c,2020-0188,2021-10-31,04:22:37,06:20:19,NA,incomplete,false,true,NA,NA,1,15,NA,white,m_s_077.jpg,NA,NA,NA,NA,NA,unpleasant,pleasant,NA,NA,NA,NA,NA,right,908,true,NA,NA,NA,NA,NA,NA,NA,NA
oTtpCm8c,3dw3bnf1hkvs8co26ehcm6ry22mv8w,3b837j3lds9kl9ko2un9rkyox2lrsn,oTtpCm8c,2020-0188,2021-10-31,04:22:37,06:20:19,NA,incomplete,false,true,NA,NA,1,16,NA,white,n_s_019.jpg,NA,NA,NA,NA,NA,unpleasant,pleasant,NA,NA,NA,NA,NA,right,993,true,NA,NA,NA,NA,NA,NA,NA,NA
oTtpCm8c,3dw3bnf1hkvs8co26ehcm6ry22mv8w,3b837j3lds9kl9ko2un9rkyox2lrsn,oTtpCm8c,2020-0188,2021-10-31,04:22:37,06:20:19,NA,incomplete,false,true,NA,NA,1,17,NA,white,n_s_072.jpg,NA,NA,NA,NA,NA,pleasant,unpleasant,NA,NA,NA,NA,NA,right,1078.60000000149,true,NA,NA,NA,NA,NA,NA,NA,NA
oTtpCm8c,3dw3bnf1hkvs8co26ehcm6ry22mv8w,3b837j3lds9kl9ko2un9rkyox2lrsn,oTtpCm8c,2020-0188,2021-10-31,04:22:37,06:20:19,NA,incomplete,false,true,NA,NA,1,18,NA,black,n_s_074.jpg,NA,NA,NA,NA,NA,unpleasant,pleasant,NA,NA,NA,NA,NA,right,515.20000000298,true,NA,NA,NA,NA,NA,NA,NA,NA
oTtpCm8c,3dw3bnf1hkvs8co26ehcm6ry22mv8w,3b837j3lds9kl9ko2un9rkyox2lrsn,oTtpCm8c,2020-0188,2021-10-31,04:22:37,06:20:19,NA,incomplete,false,true,NA,NA,1,19,NA,black,n_l_030.jpg,NA,NA,NA,NA,NA,pleasant,unpleasant,NA,NA,NA,NA,NA,right,1031.89999999851,true,NA,NA,NA,NA,NA,NA,NA,NA
oTtpCm8c,3dw3bnf1hkvs8co26ehcm6ry22mv8w,3b837j3lds9kl9ko2un9rkyox2lrsn,oTtpCm8c,2020-0188,2021-10-31,04:22:37,06:20:19,NA,incomplete,false,true,NA,NA,1,20,NA,black,n_s_023.jpg,NA,NA,NA,NA,NA,unpleasant,pleasant,NA,NA,NA,NA,NA,right,1189.30000000075,true,NA,NA,NA,NA,NA,NA,NA,NA
oTtpCm8c,3dw3bnf1hkvs8co26ehcm6ry22mv8w,3b837j3lds9kl9ko2un9rkyox2lrsn,oTtpCm8c,2020-0188,2021-10-31,04:22:37,06:20:19,NA,incomplete,false,true,NA,NA,1,21,NA,black,n_l_063.jpg,NA,NA,NA,NA,NA,pleasant,unpleasant,NA,NA,NA,NA,NA,right,650.400000002235,true,NA,NA,NA,NA,NA,NA,NA,NA
oTtpCm8c,3dw3bnf1hkvs8co26ehcm6ry22mv8w,3b837j3lds9kl9ko2un9rkyox2lrsn,oTtpCm8c,2020-0188,2021-10-31,04:22:37,06:20:19,NA,incomplete,false,true,NA,NA,1,22,NA,black,m_s_011.jpg,NA,NA,NA,NA,NA,unpleasant,pleasant,NA,NA,NA,NA,NA,right,1103.60000000149,true,NA,NA,NA,NA,NA,NA,NA,NA
oTtpCm8c,3dw3bnf1hkvs8co26ehcm6ry22mv8w,3b837j3lds9kl9ko2un9rkyox2lrsn,oTtpCm8c,2020-0188,2021-10-31,04:22:37,06:20:19,NA,incomplete,false,true,NA,NA,1,23,NA,black,m_l_039.jpg,NA,NA,NA,NA,NA,pleasant,unpleasant,NA,NA,NA,NA,NA,right,622.79999999702,true,NA,NA,NA,NA,NA,NA,NA,NA
oTtpCm8c,3dw3bnf1hkvs8co26ehcm6ry22mv8w,3b837j3lds9kl9ko2un9rkyox2lrsn,oTtpCm8c,2020-0188,2021-10-31,04:22:37,06:20:19,NA,incomplete,false,true,NA,NA,1,24,NA,purple,m_s_106.jpg,NA,NA,NA,NA,NA,unpleasant,pleasant,NA,NA,NA,NA,NA,right,587.199999999255,true,NA,NA,NA,NA,NA,NA,NA,NA
oTtpCm8c,3dw3bnf1hkvs8co26ehcm6ry22mv8w,3b837j3lds9kl9ko2un9rkyox2lrsn,oTtpCm8c,2020-0188,2021-10-31,04:22:37,06:20:19,NA,incomplete,false,true,NA,NA,1,25,NA,purple,n_s_086.jpg,NA,NA,NA,NA,NA,pleasant,unpleasant,NA,NA,NA,NA,NA,right,2335.69999999925,true,NA,NA,NA,NA,NA,NA,NA,NA
oTtpCm8c,3dw3bnf1hkvs8co26ehcm6ry22mv8w,3b837j3lds9kl9ko2un9rkyox2lrsn,oTtpCm8c,2020-0188,2021-10-31,04:22:37,06:20:19,NA,incomplete,false,true,NA,NA,1,26,NA,purple,n_l_031.jpg,NA,NA,NA,NA,NA,unpleasant,pleasant,NA,NA,NA,NA,NA,right,1373.09999999776,true,NA,NA,NA,NA,NA,NA,NA,NA
oTtpCm8c,3dw3bnf1hkvs8co26ehcm6ry22mv8w,3b837j3lds9kl9ko2un9rkyox2lrsn,oTtpCm8c,2020-0188,2021-10-31,04:22:37,06:20:19,NA,incomplete,false,true,NA,NA,1,27,NA,purple,n_s_029.jpg,NA,NA,NA,NA,NA,unpleasant,pleasant,NA,NA,NA,NA,NA,right,1186.19999999925,true,NA,NA,NA,NA,NA,NA,NA,NA
oTtpCm8c,3dw3bnf1hkvs8co26ehcm6ry22mv8w,3b837j3lds9kl9ko2un9rkyox2lrsn,oTtpCm8c,2020-0188,2021-10-31,04:22:37,06:20:19,NA,incomplete,false,true,NA,NA,1,28,NA,purple,n_s_084.jpg,NA,NA,NA,NA,NA,unpleasant,pleasant,NA,NA,NA,NA,NA,right,1103.29999999702,true,NA,NA,NA,NA,NA,NA,NA,NA
oTtpCm8c,3dw3bnf1hkvs8co26ehcm6ry22mv8w,3b837j3lds9kl9ko2un9rkyox2lrsn,oTtpCm8c,2020-0188,2021-10-31,04:22:37,06:20:19,NA,incomplete,false,true,NA,NA,1,29,NA,purple,m_s_091.jpg,NA,NA,NA,NA,NA,pleasant,unpleasant,NA,NA,NA,NA,NA,right,573.39999999851,true,NA,NA,NA,NA,NA,NA,NA,NA
oTtpCm8c,3dw3bnf1hkvs8co26ehcm6ry22mv8w,3b837j3lds9kl9ko2un9rkyox2lrsn,oTtpCm8c,2020-0188,2021-10-31,04:22:37,06:20:19,NA,incomplete,false,true,NA,NA,1,30,NA,brown,n_l_068.jpg,NA,NA,NA,NA,NA,pleasant,unpleasant,NA,NA,NA,NA,NA,right,617.599999997765,true,NA,NA,NA,NA,NA,NA,NA,NA
oTtpCm8c,3dw3bnf1hkvs8co26ehcm6ry22mv8w,3b837j3lds9kl9ko2un9rkyox2lrsn,oTtpCm8c,2020-0188,2021-10-31,04:22:37,06:20:19,NA,incomplete,false,true,NA,NA,1,31,NA,brown,m_s_030.jpg,NA,NA,NA,NA,NA,pleasant,unpleasant,NA,NA,NA,NA,NA,right,616.800000000745,true,NA,NA,NA,NA,NA,NA,NA,NA
oTtpCm8c,3dw3bnf1hkvs8co26ehcm6ry22mv8w,3b837j3lds9kl9ko2un9rkyox2lrsn,oTtpCm8c,2020-0188,2021-10-31,04:22:37,06:20:19,NA,incomplete,false,true,NA,NA,1,32,NA,brown,n_s_049.jpg,NA,NA,NA,NA,NA,pleasant,unpleasant,NA,NA,NA,NA,NA,right,702.39999999851,true,NA,NA,NA,NA,NA,NA,NA,NA
oTtpCm8c,3dw3bnf1hkvs8co26ehcm6ry22mv8w,3b837j3lds9kl9ko2un9rkyox2lrsn,oTtpCm8c,2020-0188,2021-10-31,04:22:37,06:20:19,NA,incomplete,false,true,NA,NA,1,33,NA,brown,n_s_018.jpg,NA,NA,NA,NA,NA,pleasant,unpleasant,NA,NA,NA,NA,NA,right,1211,true,NA,NA,NA,NA,NA,NA,NA,NA
oTtpCm8c,3dw3bnf1hkvs8co26ehcm6ry22mv8w,3b837j3lds9kl9ko2un9rkyox2lrsn,oTtpCm8c,2020-0188,2021-10-31,04:22:37,06:20:19,NA,incomplete,false,true,NA,NA,1,34,NA,brown,m_l_008.jpg,NA,NA,NA,NA,NA,pleasant,unpleasant,NA,NA,NA,NA,NA,right,1272.69999999925,true,NA,NA,NA,NA,NA,NA,NA,NA
oTtpCm8c,3dw3bnf1hkvs8co26ehcm6ry22mv8w,3b837j3lds9kl9ko2un9rkyox2lrsn,oTtpCm8c,2020-0188,2021-10-31,04:22:37,06:20:19,NA,incomplete,false,true,NA,NA,1,35,NA,brown,m_s_092.jpg,NA,NA,NA,NA,NA,unpleasant,pleasant,NA,NA,NA,NA,NA,right,1188.69999999925,true,NA,NA,NA,NA,NA,NA,NA,NA
oTtpCm8c,3dw3bnf1hkvs8co26ehcm6ry22mv8w,3b837j3lds9kl9ko2un9rkyox2lrsn,oTtpCm8c,2020-0188,2021-10-31,04:22:37,06:20:19,NA,incomplete,false,NA,NA,true,1,0,NA,NA,NA,left,n_s_084.jpg,purple,brown,NA,NA,NA,NA,NA,NA,NA,NA,NA,NaN,NA,12271,left,1,NA,NA,NA,NA,NA
oTtpCm8c,3dw3bnf1hkvs8co26ehcm6ry22mv8w,3b837j3lds9kl9ko2un9rkyox2lrsn,oTtpCm8c,2020-0188,2021-10-31,04:22:37,06:20:19,NA,incomplete,false,NA,NA,true,1,1,NA,NA,NA,right,m_s_081.jpg,blue,green,NA,NA,NA,NA,NA,NA,NA,NA,NA,NaN,NA,8855.199999999255,right,1,NA,NA,NA,NA,NA
oTtpCm8c,3dw3bnf1hkvs8co26ehcm6ry22mv8w,3b837j3lds9kl9ko2un9rkyox2lrsn,oTtpCm8c,2020-0188,2021-10-31,04:22:37,06:20:19,NA,incomplete,false,NA,NA,true,1,2,NA,NA,NA,left,m_s_092.jpg,brown,purple,NA,NA,NA,NA,NA,NA,NA,NA,NA,NaN,NA,6567,left,1,NA,NA,NA,NA,NA
oTtpCm8c,3dw3bnf1hkvs8co26ehcm6ry22mv8w,3b837j3lds9kl9ko2un9rkyox2lrsn,oTtpCm8c,2020-0188,2021-10-31,04:22:37,06:20:19,NA,incomplete,false,NA,NA,true,1,3,NA,NA,NA,left,n_l_031.jpg,purple,brown,NA,NA,NA,NA,NA,NA,NA,NA,NA,NaN,NA,9935.099999997765,left,1,NA,NA,NA,NA,NA
oTtpCm8c,3dw3bnf1hkvs8co26ehcm6ry22mv8w,3b837j3lds9kl9ko2un9rkyox2lrsn,oTtpCm8c,2020-0188,2021-10-31,04:22:37,06:20:19,NA,incomplete,false,NA,NA,true,1,4,NA,NA,NA,left,n_s_068.jpg,green,blue,NA,NA,NA,NA,NA,NA,NA,NA,NA,NaN,NA,4567.099999997765,left,1,NA,NA,NA,NA,NA
oTtpCm8c,3dw3bnf1hkvs8co26ehcm6ry22mv8w,3b837j3lds9kl9ko2un9rkyox2lrsn,oTtpCm8c,2020-0188,2021-10-31,04:22:37,06:20:19,NA,incomplete,false,NA,NA,true,1,5,NA,NA,NA,left,n_s_049.jpg,brown,purple,NA,NA,NA,NA,NA,NA,NA,NA,NA,NaN,NA,22695.10000000149,left,1,NA,NA,NA,NA,NA
oTtpCm8c,3dw3bnf1hkvs8co26ehcm6ry22mv8w,3b837j3lds9kl9ko2un9rkyox2lrsn,oTtpCm8c,2020-0188,2021-10-31,04:22:37,06:20:19,NA,incomplete,false,NA,NA,true,1,6,NA,NA,NA,right,n_s_020.jpg,blue,green,NA,NA,NA,NA,NA,NA,NA,NA,NA,NaN,NA,12070.89999999851,right,1,NA,NA,NA,NA,NA
oTtpCm8c,3dw3bnf1hkvs8co26ehcm6ry22mv8w,3b837j3lds9kl9ko2un9rkyox2lrsn,oTtpCm8c,2020-0188,2021-10-31,04:22:37,06:20:19,NA,incomplete,false,NA,NA,true,1,7,NA,NA,NA,right,n_l_030.jpg,purple,black,NA,NA,NA,NA,NA,NA,NA,NA,NA,NaN,NA,11415.300000000745,right,1,NA,NA,NA,NA,NA
oTtpCm8c,3dw3bnf1hkvs8co26ehcm6ry22mv8w,3b837j3lds9kl9ko2un9rkyox2lrsn,oTtpCm8c,2020-0188,2021-10-31,04:22:37,06:20:19,NA,incomplete,false,NA,NA,true,1,8,NA,NA,NA,left,m_l_039.jpg,black,white,NA,NA,NA,NA,NA,NA,NA,NA,NA,NaN,NA,7839,left,1,NA,NA,NA,NA,NA
oTtpCm8c,3dw3bnf1hkvs8co26ehcm6ry22mv8w,3b837j3lds9kl9ko2un9rkyox2lrsn,oTtpCm8c,2020-0188,2021-10-31,04:22:37,06:20:19,NA,incomplete,false,NA,NA,true,1,9,NA,NA,NA,left,n_s_082.jpg,blue,green,NA,NA,NA,NA,NA,NA,NA,NA,NA,NaN,NA,2655.199999999255,left,1,NA,NA,NA,NA,NA
oTtpCm8c,3dw3bnf1hkvs8co26ehcm6ry22mv8w,3b837j3lds9kl9ko2un9rkyox2lrsn,oTtpCm8c,2020-0188,2021-10-31,04:22:37,06:20:19,NA,incomplete,false,NA,NA,true,1,10,NA,NA,NA,right,m_s_091.jpg,black,purple,NA,NA,NA,NA,NA,NA,NA,NA,NA,NaN,NA,11455.29999999702,right,1,NA,NA,NA,NA,NA
oTtpCm8c,3dw3bnf1hkvs8co26ehcm6ry22mv8w,3b837j3lds9kl9ko2un9rkyox2lrsn,oTtpCm8c,2020-0188,2021-10-31,04:22:37,06:20:19,NA,incomplete,false,NA,NA,true,1,11,NA,NA,NA,right,m_l_011.jpg,white,blue,NA,NA,NA,NA,NA,NA,NA,NA,NA,NaN,NA,3519.2999999970198,left,0,NA,NA,NA,NA,NA
oTtpCm8c,3dw3bnf1hkvs8co26ehcm6ry22mv8w,3b837j3lds9kl9ko2un9rkyox2lrsn,oTtpCm8c,2020-0188,2021-10-31,04:22:37,06:20:19,NA,incomplete,false,NA,NA,true,1,12,NA,NA,NA,right,n_s_019.jpg,blue,white,NA,NA,NA,NA,NA,NA,NA,NA,NA,NaN,NA,15615,right,1,NA,NA,NA,NA,NA
oTtpCm8c,3dw3bnf1hkvs8co26ehcm6ry22mv8w,3b837j3lds9kl9ko2un9rkyox2lrsn,oTtpCm8c,2020-0188,2021-10-31,04:22:37,06:20:19,NA,incomplete,false,NA,NA,true,1,13,NA,NA,NA,left,m_s_114.jpg,blue,green,NA,NA,NA,NA,NA,NA,NA,NA,NA,NaN,NA,6335.300000000745,left,1,NA,NA,NA,NA,NA
oTtpCm8c,3dw3bnf1hkvs8co26ehcm6ry22mv8w,3b837j3lds9kl9ko2un9rkyox2lrsn,oTtpCm8c,2020-0188,2021-10-31,04:22:37,06:20:19,NA,incomplete,false,NA,NA,true,1,14,NA,NA,NA,right,m_s_011.jpg,white,black,NA,NA,NA,NA,NA,NA,NA,NA,NA,NaN,NA,2927.099999997765,left,0,NA,NA,NA,NA,NA
oTtpCm8c,3dw3bnf1hkvs8co26ehcm6ry22mv8w,3b837j3lds9kl9ko2un9rkyox2lrsn,oTtpCm8c,2020-0188,2021-10-31,04:22:37,06:20:19,NA,incomplete,false,NA,NA,true,1,15,NA,NA,NA,left,n_s_086.jpg,purple,brown,NA,NA,NA,NA,NA,NA,NA,NA,NA,NaN,NA,19071.29999999702,left,1,NA,NA,NA,NA,NA
oTtpCm8c,3dw3bnf1hkvs8co26ehcm6ry22mv8w,3b837j3lds9kl9ko2un9rkyox2lrsn,oTtpCm8c,2020-0188,2021-10-31,04:22:37,06:20:19,NA,incomplete,false,NA,NA,true,1,16,NA,NA,NA,right,m_s_094.jpg,black,white,NA,NA,NA,NA,NA,NA,NA,NA,NA,NaN,NA,17127.199999999255,right,1,NA,NA,NA,NA,NA
oTtpCm8c,3dw3bnf1hkvs8co26ehcm6ry22mv8w,3b837j3lds9kl9ko2un9rkyox2lrsn,oTtpCm8c,2020-0188,2021-10-31,04:22:37,06:20:19,NA,incomplete,false,NA,NA,true,1,17,NA,NA,NA,left,n_s_072.jpg,white,blue,NA,NA,NA,NA,NA,NA,NA,NA,NA,NaN,NA,8199.300000000745,left,1,NA,NA,NA,NA,NA
oTtpCm8c,3dw3bnf1hkvs8co26ehcm6ry22mv8w,3b837j3lds9kl9ko2un9rkyox2lrsn,oTtpCm8c,2020-0188,2021-10-31,04:22:37,06:20:19,NA,incomplete,false,NA,NA,true,1,18,NA,NA,NA,left,n_s_023.jpg,black,white,NA,NA,NA,NA,NA,NA,NA,NA,NA,NaN,NA,5167.39999999851,left,1,NA,NA,NA,NA,NA
oTtpCm8c,3dw3bnf1hkvs8co26ehcm6ry22mv8w,3b837j3lds9kl9ko2un9rkyox2lrsn,oTtpCm8c,2020-0188,2021-10-31,04:22:37,06:20:19,NA,incomplete,false,NA,NA,true,1,19,NA,NA,NA,right,n_l_017.jpg,blue,white,NA,NA,NA,NA,NA,NA,NA,NA,NA,NaN,NA,6543.199999999255,right,1,NA,NA,NA,NA,NA
oTtpCm8c,3dw3bnf1hkvs8co26ehcm6ry22mv8w,3b837j3lds9kl9ko2un9rkyox2lrsn,oTtpCm8c,2020-0188,2021-10-31,04:22:37,06:20:19,NA,incomplete,false,NA,NA,true,1,20,NA,NA,NA,right,m_s_030.jpg,purple,brown,NA,NA,NA,NA,NA,NA,NA,NA,NA,NaN,NA,20895.10000000149,right,1,NA,NA,NA,NA,NA
oTtpCm8c,3dw3bnf1hkvs8co26ehcm6ry22mv8w,3b837j3lds9kl9ko2un9rkyox2lrsn,oTtpCm8c,2020-0188,2021-10-31,04:22:37,06:20:19,NA,incomplete,false,NA,NA,true,1,21,NA,NA,NA,right,n_s_028.jpg,white,blue,NA,NA,NA,NA,NA,NA,NA,NA,NA,NaN,NA,16479.300000000745,right,1,NA,NA,NA,NA,NA
oTtpCm8c,3dw3bnf1hkvs8co26ehcm6ry22mv8w,3b837j3lds9kl9ko2un9rkyox2lrsn,oTtpCm8c,2020-0188,2021-10-31,04:22:37,06:20:19,NA,incomplete,false,NA,true,NA,1,0,NA,NA,NA,left,NA,NA,NA,absent,NA,NA,m_s_030.jpg,brown,m_s_092.jpg,brown,within,NA,NaN,NA,NA,NA,NA,left,4806.900000002235,1,2,2038.800000000745
oTtpCm8c,3dw3bnf1hkvs8co26ehcm6ry22mv8w,3b837j3lds9kl9ko2un9rkyox2lrsn,oTtpCm8c,2020-0188,2021-10-31,04:22:37,06:20:19,NA,incomplete,false,NA,true,NA,1,1,NA,NA,NA,right,NA,NA,NA,absent,NA,NA,n_s_082.jpg,blue,m_s_114.jpg,blue,within,NA,NaN,NA,NA,NA,NA,right,18351.199999999255,1,2,2119.199999999255
oTtpCm8c,3dw3bnf1hkvs8co26ehcm6ry22mv8w,3b837j3lds9kl9ko2un9rkyox2lrsn,oTtpCm8c,2020-0188,2021-10-31,04:22:37,06:20:19,NA,incomplete,false,NA,true,NA,1,2,NA,NA,NA,right,NA,NA,NA,absent,NA,NA,m_s_091.jpg,purple,n_s_086.jpg,purple,within,NA,NaN,NA,NA,NA,NA,right,18367.39999999851,1,2,2575.10000000149
oTtpCm8c,3dw3bnf1hkvs8co26ehcm6ry22mv8w,3b837j3lds9kl9ko2un9rkyox2lrsn,oTtpCm8c,2020-0188,2021-10-31,04:22:37,06:20:19,NA,incomplete,false,NA,true,NA,1,3,NA,NA,NA,right,NA,NA,NA,absent,NA,NA,n_s_072.jpg,white,m_s_094.jpg,white,within,NA,NaN,NA,NA,NA,NA,right,10479,1,1,1791.300000000745
oTtpCm8c,3dw3bnf1hkvs8co26ehcm6ry22mv8w,3b837j3lds9kl9ko2un9rkyox2lrsn,oTtpCm8c,2020-0188,2021-10-31,04:22:37,06:20:19,NA,incomplete,false,NA,true,NA,1,4,NA,NA,NA,right,NA,NA,NA,absent,NA,NA,n_l_017.jpg,white,m_l_011.jpg,blue,between,NA,NaN,NA,NA,NA,NA,right,7191,1,2,3991
oTtpCm8c,3dw3bnf1hkvs8co26ehcm6ry22mv8w,3b837j3lds9kl9ko2un9rkyox2lrsn,oTtpCm8c,2020-0188,2021-10-31,04:22:37,06:20:19,NA,incomplete,false,NA,true,NA,1,5,NA,NA,NA,left,NA,NA,NA,absent,NA,NA,n_l_030.jpg,black,m_l_039.jpg,black,within,NA,NaN,NA,NA,NA,NA,left,11383.199999999255,1,2,1743.3999999985099
oTtpCm8c,3dw3bnf1hkvs8co26ehcm6ry22mv8w,3b837j3lds9kl9ko2un9rkyox2lrsn,oTtpCm8c,2020-0188,2021-10-31,04:22:37,06:20:19,NA,incomplete,false,NA,true,NA,1,6,NA,NA,NA,left,NA,NA,NA,absent,NA,NA,m_s_081.jpg,green,n_s_028.jpg,blue,between,NA,NaN,NA,NA,NA,NA,left,40591.099999997765,1,3,2327.2999999970198
oTtpCm8c,3dw3bnf1hkvs8co26ehcm6ry22mv8w,3b837j3lds9kl9ko2un9rkyox2lrsn,oTtpCm8c,2020-0188,2021-10-31,04:22:37,06:20:19,NA,incomplete,false,NA,true,NA,1,7,NA,NA,NA,left,NA,NA,NA,absent,NA,NA,n_s_068.jpg,green,n_s_020.jpg,green,within,NA,NaN,NA,NA,NA,NA,left,10567.199999999255,1,3,1615.199999999255
oTtpCm8c,3dw3bnf1hkvs8co26ehcm6ry22mv8w,3b837j3lds9kl9ko2un9rkyox2lrsn,oTtpCm8c,2020-0188,2021-10-31,04:22:37,06:20:19,NA,incomplete,false,NA,true,NA,1,8,NA,NA,NA,right,NA,NA,NA,absent,NA,NA,n_s_049.jpg,brown,n_s_084.jpg,purple,between,NA,NaN,NA,NA,NA,NA,right,21647.199999999255,1,3,4135.199999999255
oTtpCm8c,3dw3bnf1hkvs8co26ehcm6ry22mv8w,3b837j3lds9kl9ko2un9rkyox2lrsn,oTtpCm8c,2020-0188,2021-10-31,04:22:37,06:20:19,NA,incomplete,false,NA,true,NA,1,9,NA,NA,NA,right,NA,NA,NA,absent,NA,NA,n_s_023.jpg,black,n_s_019.jpg,white,between,NA,NaN,NA,NA,NA,NA,right,12095.39999999851,1,2,1559.3999999985099
oTtpCm8c,3dw3bnf1hkvs8co26ehcm6ry22mv8w,3b837j3lds9kl9ko2un9rkyox2lrsn,oTtpCm8c,2020-0188,2021-10-31,04:22:37,06:20:19,NA,incomplete,false,NA,true,NA,1,10,NA,NA,NA,left,NA,NA,NA,absent,NA,NA,m_s_011.jpg,black,n_l_031.jpg,purple,between,NA,NaN,NA,NA,NA,NA,left,14271.199999999255,1,1,1983.4000000022352
oTtpCm8c,3dw3bnf1hkvs8co26ehcm6ry22mv8w,3b837j3lds9kl9ko2un9rkyox2lrsn,oTtpCm8c,2020-0188,2021-10-31,04:22:37,06:20:19,NA,incomplete,false,true,NA,NA,2,0,NA,white,m_s_020.jpg,NA,NA,NA,NA,NA,pleasant,unpleasant,NA,NA,NA,NA,NA,right,2243.69999999925,true,NA,NA,NA,NA,NA,NA,NA,NA
oTtpCm8c,3dw3bnf1hkvs8co26ehcm6ry22mv8w,3b837j3lds9kl9ko2un9rkyox2lrsn,oTtpCm8c,2020-0188,2021-10-31,04:22:37,06:20:19,NA,incomplete,false,true,NA,NA,2,1,NA,white,n_s_070.jpg,NA,NA,NA,NA,NA,pleasant,unpleasant,NA,NA,NA,NA,NA,right,1224.60000000149,true,NA,NA,NA,NA,NA,NA,NA,NA
oTtpCm8c,3dw3bnf1hkvs8co26ehcm6ry22mv8w,3b837j3lds9kl9ko2un9rkyox2lrsn,oTtpCm8c,2020-0188,2021-10-31,04:22:37,06:20:19,NA,incomplete,false,true,NA,NA,2,2,NA,white,n_l_112.jpg,NA,NA,NA,NA,NA,unpleasant,pleasant,NA,NA,NA,NA,NA,right,828.89999999851,true,NA,NA,NA,NA,NA,NA,NA,NA
oTtpCm8c,3dw3bnf1hkvs8co26ehcm6ry22mv8w,3b837j3lds9kl9ko2un9rkyox2lrsn,oTtpCm8c,2020-0188,2021-10-31,04:22:37,06:20:19,NA,incomplete,false,true,NA,NA,2,3,NA,white,n_s_016.jpg,NA,NA,NA,NA,NA,pleasant,unpleasant,NA,NA,NA,NA,NA,right,1074.40000000224,true,NA,NA,NA,NA,NA,NA,NA,NA
oTtpCm8c,3dw3bnf1hkvs8co26ehcm6ry22mv8w,3b837j3lds9kl9ko2un9rkyox2lrsn,oTtpCm8c,2020-0188,2021-10-31,04:22:37,06:20:19,NA,incomplete,false,true,NA,NA,2,4,NA,white,m_s_037.jpg,NA,NA,NA,NA,NA,pleasant,unpleasant,NA,NA,NA,NA,NA,right,1167.09999999776,true,NA,NA,NA,NA,NA,NA,NA,NA
oTtpCm8c,3dw3bnf1hkvs8co26ehcm6ry22mv8w,3b837j3lds9kl9ko2un9rkyox2lrsn,oTtpCm8c,2020-0188,2021-10-31,04:22:37,06:20:19,NA,incomplete,false,true,NA,NA,2,5,NA,white,m_l_021.jpg,NA,NA,NA,NA,NA,pleasant,unpleasant,NA,NA,NA,NA,NA,right,917.300000000745,true,NA,NA,NA,NA,NA,NA,NA,NA
oTtpCm8c,3dw3bnf1hkvs8co26ehcm6ry22mv8w,3b837j3lds9kl9ko2un9rkyox2lrsn,oTtpCm8c,2020-0188,2021-10-31,04:22:37,06:20:19,NA,incomplete,false,true,NA,NA,2,6,NA,orange,m_s_010.jpg,NA,NA,NA,NA,NA,pleasant,unpleasant,NA,NA,NA,NA,NA,right,947.300000000745,true,NA,NA,NA,NA,NA,NA,NA,NA
oTtpCm8c,3dw3bnf1hkvs8co26ehcm6ry22mv8w,3b837j3lds9kl9ko2un9rkyox2lrsn,oTtpCm8c,2020-0188,2021-10-31,04:22:37,06:20:19,NA,incomplete,false,true,NA,NA,2,7,NA,orange,m_l_105.jpg,NA,NA,NA,NA,NA,pleasant,unpleasant,NA,NA,NA,NA,NA,right,792.099999997765,true,NA,NA,NA,NA,NA,NA,NA,NA
oTtpCm8c,3dw3bnf1hkvs8co26ehcm6ry22mv8w,3b837j3lds9kl9ko2un9rkyox2lrsn,oTtpCm8c,2020-0188,2021-10-31,04:22:37,06:20:19,NA,incomplete,false,true,NA,NA,2,8,NA,orange,n_l_003.jpg,NA,NA,NA,NA,NA,pleasant,unpleasant,NA,NA,NA,NA,NA,right,1165,true,NA,NA,NA,NA,NA,NA,NA,NA
oTtpCm8c,3dw3bnf1hkvs8co26ehcm6ry22mv8w,3b837j3lds9kl9ko2un9rkyox2lrsn,oTtpCm8c,2020-0188,2021-10-31,04:22:37,06:20:19,NA,incomplete,false,true,NA,NA,2,9,NA,orange,m_l_037.jpg,NA,NA,NA,NA,NA,unpleasant,pleasant,NA,NA,NA,NA,NA,right,1034.5,true,NA,NA,NA,NA,NA,NA,NA,NA
oTtpCm8c,3dw3bnf1hkvs8co26ehcm6ry22mv8w,3b837j3lds9kl9ko2un9rkyox2lrsn,oTtpCm8c,2020-0188,2021-10-31,04:22:37,06:20:19,NA,incomplete,false,true,NA,NA,2,10,NA,orange,m_l_007.jpg,NA,NA,NA,NA,NA,unpleasant,pleasant,NA,NA,NA,NA,NA,right,1055,true,NA,NA,NA,NA,NA,NA,NA,NA
oTtpCm8c,3dw3bnf1hkvs8co26ehcm6ry22mv8w,3b837j3lds9kl9ko2un9rkyox2lrsn,oTtpCm8c,2020-0188,2021-10-31,04:22:37,06:20:19,NA,incomplete,false,true,NA,NA,2,11,NA,orange,m_l_056.jpg,NA,NA,NA,NA,NA,pleasant,unpleasant,NA,NA,NA,NA,NA,right,1109.80000000075,true,NA,NA,NA,NA,NA,NA,NA,NA
oTtpCm8c,3dw3bnf1hkvs8co26ehcm6ry22mv8w,3b837j3lds9kl9ko2un9rkyox2lrsn,oTtpCm8c,2020-0188,2021-10-31,04:22:37,06:20:19,NA,incomplete,false,true,NA,NA,2,12,NA,brown,m_l_002.jpg,NA,NA,NA,NA,NA,unpleasant,pleasant,NA,NA,NA,NA,NA,right,1129.20000000298,true,NA,NA,NA,NA,NA,NA,NA,NA
oTtpCm8c,3dw3bnf1hkvs8co26ehcm6ry22mv8w,3b837j3lds9kl9ko2un9rkyox2lrsn,oTtpCm8c,2020-0188,2021-10-31,04:22:37,06:20:19,NA,incomplete,false,true,NA,NA,2,13,NA,brown,m_s_067.jpg,NA,NA,NA,NA,NA,unpleasant,pleasant,NA,NA,NA,NA,NA,right,1103.30000000075,true,NA,NA,NA,NA,NA,NA,NA,NA
oTtpCm8c,3dw3bnf1hkvs8co26ehcm6ry22mv8w,3b837j3lds9kl9ko2un9rkyox2lrsn,oTtpCm8c,2020-0188,2021-10-31,04:22:37,06:20:19,NA,incomplete,false,true,NA,NA,2,14,NA,brown,m_s_034.jpg,NA,NA,NA,NA,NA,unpleasant,pleasant,NA,NA,NA,NA,NA,right,1229.40000000224,true,NA,NA,NA,NA,NA,NA,NA,NA
oTtpCm8c,3dw3bnf1hkvs8co26ehcm6ry22mv8w,3b837j3lds9kl9ko2un9rkyox2lrsn,oTtpCm8c,2020-0188,2021-10-31,04:22:37,06:20:19,NA,incomplete,false,true,NA,NA,2,15,NA,brown,m_l_085.jpg,NA,NA,NA,NA,NA,pleasant,unpleasant,NA,NA,NA,NA,NA,right,1249.09999999776,true,NA,NA,NA,NA,NA,NA,NA,NA
oTtpCm8c,3dw3bnf1hkvs8co26ehcm6ry22mv8w,3b837j3lds9kl9ko2un9rkyox2lrsn,oTtpCm8c,2020-0188,2021-10-31,04:22:37,06:20:19,NA,incomplete,false,true,NA,NA,2,16,NA,brown,m_l_038.jpg,NA,NA,NA,NA,NA,unpleasant,pleasant,NA,NA,NA,NA,NA,right,1405.70000000298,true,NA,NA,NA,NA,NA,NA,NA,NA
oTtpCm8c,3dw3bnf1hkvs8co26ehcm6ry22mv8w,3b837j3lds9kl9ko2un9rkyox2lrsn,oTtpCm8c,2020-0188,2021-10-31,04:22:37,06:20:19,NA,incomplete,false,true,NA,NA,2,17,NA,brown,m_l_090.jpg,NA,NA,NA,NA,NA,unpleasant,pleasant,NA,NA,NA,NA,NA,right,1644.20000000298,true,NA,NA,NA,NA,NA,NA,NA,NA
oTtpCm8c,3dw3bnf1hkvs8co26ehcm6ry22mv8w,3b837j3lds9kl9ko2un9rkyox2lrsn,oTtpCm8c,2020-0188,2021-10-31,04:22:37,06:20:19,NA,incomplete,false,true,NA,NA,2,18,NA,green,n_s_037.jpg,NA,NA,NA,NA,NA,unpleasant,pleasant,NA,NA,NA,NA,NA,right,1288.39999999851,true,NA,NA,NA,NA,NA,NA,NA,NA
oTtpCm8c,3dw3bnf1hkvs8co26ehcm6ry22mv8w,3b837j3lds9kl9ko2un9rkyox2lrsn,oTtpCm8c,2020-0188,2021-10-31,04:22:37,06:20:19,NA,incomplete,false,true,NA,NA,2,19,NA,green,n_l_025.jpg,NA,NA,NA,NA,NA,unpleasant,pleasant,NA,NA,NA,NA,NA,right,1342,true,NA,NA,NA,NA,NA,NA,NA,NA
oTtpCm8c,3dw3bnf1hkvs8co26ehcm6ry22mv8w,3b837j3lds9kl9ko2un9rkyox2lrsn,oTtpCm8c,2020-0188,2021-10-31,04:22:37,06:20:19,NA,incomplete,false,true,NA,NA,2,20,NA,green,n_l_066.jpg,NA,NA,NA,NA,NA,pleasant,unpleasant,NA,NA,NA,NA,NA,left,843.599999997765,true,NA,NA,NA,NA,NA,NA,NA,NA
oTtpCm8c,3dw3bnf1hkvs8co26ehcm6ry22mv8w,3b837j3lds9kl9ko2un9rkyox2lrsn,oTtpCm8c,2020-0188,2021-10-31,04:22:37,06:20:19,NA,incomplete,false,true,NA,NA,2,21,NA,green,n_l_049.jpg,NA,NA,NA,NA,NA,pleasant,unpleasant,NA,NA,NA,NA,NA,left,1159.80000000075,true,NA,NA,NA,NA,NA,NA,NA,NA
oTtpCm8c,3dw3bnf1hkvs8co26ehcm6ry22mv8w,3b837j3lds9kl9ko2un9rkyox2lrsn,oTtpCm8c,2020-0188,2021-10-31,04:22:37,06:20:19,NA,incomplete,false,true,NA,NA,2,22,NA,green,m_l_053.jpg,NA,NA,NA,NA,NA,unpleasant,pleasant,NA,NA,NA,NA,NA,left,1276.80000000075,true,NA,NA,NA,NA,NA,NA,NA,NA
oTtpCm8c,3dw3bnf1hkvs8co26ehcm6ry22mv8w,3b837j3lds9kl9ko2un9rkyox2lrsn,oTtpCm8c,2020-0188,2021-10-31,04:22:37,06:20:19,NA,incomplete,false,true,NA,NA,2,23,NA,green,m_s_028.jpg,NA,NA,NA,NA,NA,unpleasant,pleasant,NA,NA,NA,NA,NA,left,774,true,NA,NA,NA,NA,NA,NA,NA,NA
oTtpCm8c,3dw3bnf1hkvs8co26ehcm6ry22mv8w,3b837j3lds9kl9ko2un9rkyox2lrsn,oTtpCm8c,2020-0188,2021-10-31,04:22:37,06:20:19,NA,incomplete,false,true,NA,NA,2,24,NA,gray,m_s_015.jpg,NA,NA,NA,NA,NA,unpleasant,pleasant,NA,NA,NA,NA,NA,right,1055.40000000224,true,NA,NA,NA,NA,NA,NA,NA,NA
oTtpCm8c,3dw3bnf1hkvs8co26ehcm6ry22mv8w,3b837j3lds9kl9ko2un9rkyox2lrsn,oTtpCm8c,2020-0188,2021-10-31,04:22:37,06:20:19,NA,incomplete,false,true,NA,NA,2,25,NA,gray,m_l_005.jpg,NA,NA,NA,NA,NA,unpleasant,pleasant,NA,NA,NA,NA,NA,right,763.89999999851,true,NA,NA,NA,NA,NA,NA,NA,NA
oTtpCm8c,3dw3bnf1hkvs8co26ehcm6ry22mv8w,3b837j3lds9kl9ko2un9rkyox2lrsn,oTtpCm8c,2020-0188,2021-10-31,04:22:37,06:20:19,NA,incomplete,false,true,NA,NA,2,26,NA,gray,m_l_079.jpg,NA,NA,NA,NA,NA,unpleasant,pleasant,NA,NA,NA,NA,NA,right,1122,true,NA,NA,NA,NA,NA,NA,NA,NA
oTtpCm8c,3dw3bnf1hkvs8co26ehcm6ry22mv8w,3b837j3lds9kl9ko2un9rkyox2lrsn,oTtpCm8c,2020-0188,2021-10-31,04:22:37,06:20:19,NA,incomplete,false,true,NA,NA,2,27,NA,gray,m_s_107.jpg,NA,NA,NA,NA,NA,pleasant,unpleasant,NA,NA,NA,NA,NA,right,1038.59999999776,true,NA,NA,NA,NA,NA,NA,NA,NA
oTtpCm8c,3dw3bnf1hkvs8co26ehcm6ry22mv8w,3b837j3lds9kl9ko2un9rkyox2lrsn,oTtpCm8c,2020-0188,2021-10-31,04:22:37,06:20:19,NA,incomplete,false,true,NA,NA,2,28,NA,gray,n_s_048.jpg,NA,NA,NA,NA,NA,pleasant,unpleasant,NA,NA,NA,NA,NA,right,1171.5,true,NA,NA,NA,NA,NA,NA,NA,NA
oTtpCm8c,3dw3bnf1hkvs8co26ehcm6ry22mv8w,3b837j3lds9kl9ko2un9rkyox2lrsn,oTtpCm8c,2020-0188,2021-10-31,04:22:37,06:20:19,NA,incomplete,false,true,NA,NA,2,29,NA,gray,m_s_096.jpg,NA,NA,NA,NA,NA,unpleasant,pleasant,NA,NA,NA,NA,NA,right,528.10000000149,true,NA,NA,NA,NA,NA,NA,NA,NA
oTtpCm8c,3dw3bnf1hkvs8co26ehcm6ry22mv8w,3b837j3lds9kl9ko2un9rkyox2lrsn,oTtpCm8c,2020-0188,2021-10-31,04:22:37,06:20:19,NA,incomplete,false,true,NA,NA,2,30,NA,black,m_l_111.jpg,NA,NA,NA,NA,NA,pleasant,unpleasant,NA,NA,NA,NA,NA,right,1229.30000000075,true,NA,NA,NA,NA,NA,NA,NA,NA
oTtpCm8c,3dw3bnf1hkvs8co26ehcm6ry22mv8w,3b837j3lds9kl9ko2un9rkyox2lrsn,oTtpCm8c,2020-0188,2021-10-31,04:22:37,06:20:19,NA,incomplete,false,true,NA,NA,2,31,NA,black,n_s_050.jpg,NA,NA,NA,NA,NA,pleasant,unpleasant,NA,NA,NA,NA,NA,right,1146.89999999851,true,NA,NA,NA,NA,NA,NA,NA,NA
oTtpCm8c,3dw3bnf1hkvs8co26ehcm6ry22mv8w,3b837j3lds9kl9ko2un9rkyox2lrsn,oTtpCm8c,2020-0188,2021-10-31,04:22:37,06:20:19,NA,incomplete,false,true,NA,NA,2,32,NA,black,m_l_107.jpg,NA,NA,NA,NA,NA,unpleasant,pleasant,NA,NA,NA,NA,NA,right,872.199999999255,true,NA,NA,NA,NA,NA,NA,NA,NA
oTtpCm8c,3dw3bnf1hkvs8co26ehcm6ry22mv8w,3b837j3lds9kl9ko2un9rkyox2lrsn,oTtpCm8c,2020-0188,2021-10-31,04:22:37,06:20:19,NA,incomplete,false,true,NA,NA,2,33,NA,black,n_s_030.jpg,NA,NA,NA,NA,NA,unpleasant,pleasant,NA,NA,NA,NA,NA,right,1124.60000000149,true,NA,NA,NA,NA,NA,NA,NA,NA
oTtpCm8c,3dw3bnf1hkvs8co26ehcm6ry22mv8w,3b837j3lds9kl9ko2un9rkyox2lrsn,oTtpCm8c,2020-0188,2021-10-31,04:22:37,06:20:19,NA,incomplete,false,true,NA,NA,2,34,NA,black,m_l_114.jpg,NA,NA,NA,NA,NA,unpleasant,pleasant,NA,NA,NA,NA,NA,right,1122,true,NA,NA,NA,NA,NA,NA,NA,NA
oTtpCm8c,3dw3bnf1hkvs8co26ehcm6ry22mv8w,3b837j3lds9kl9ko2un9rkyox2lrsn,oTtpCm8c,2020-0188,2021-10-31,04:22:37,06:20:19,NA,incomplete,false,true,NA,NA,2,35,NA,black,m_l_047.jpg,NA,NA,NA,NA,NA,unpleasant,pleasant,NA,NA,NA,NA,NA,right,1160.40000000224,true,NA,NA,NA,NA,NA,NA,NA,NA
oTtpCm8c,3dw3bnf1hkvs8co26ehcm6ry22mv8w,3b837j3lds9kl9ko2un9rkyox2lrsn,oTtpCm8c,2020-0188,2021-10-31,04:22:37,06:20:19,NA,incomplete,false,NA,NA,true,2,0,NA,NA,NA,right,m_l_038.jpg,orange,brown,NA,NA,NA,NA,NA,NA,NA,NA,NA,NaN,NA,22206.900000002235,right,1,NA,NA,NA,NA,NA
oTtpCm8c,3dw3bnf1hkvs8co26ehcm6ry22mv8w,3b837j3lds9kl9ko2un9rkyox2lrsn,oTtpCm8c,2020-0188,2021-10-31,04:22:37,06:20:19,NA,incomplete,false,NA,NA,true,2,1,NA,NA,NA,left,m_s_037.jpg,white,orange,NA,NA,NA,NA,NA,NA,NA,NA,NA,NaN,NA,10239.199999999255,left,1,NA,NA,NA,NA,NA
oTtpCm8c,3dw3bnf1hkvs8co26ehcm6ry22mv8w,3b837j3lds9kl9ko2un9rkyox2lrsn,oTtpCm8c,2020-0188,2021-10-31,04:22:37,06:20:19,NA,incomplete,false,NA,NA,true,2,2,NA,NA,NA,left,m_l_079.jpg,gray,black,NA,NA,NA,NA,NA,NA,NA,NA,NA,NaN,NA,20215.10000000149,left,1,NA,NA,NA,NA,NA
oTtpCm8c,3dw3bnf1hkvs8co26ehcm6ry22mv8w,3b837j3lds9kl9ko2un9rkyox2lrsn,oTtpCm8c,2020-0188,2021-10-31,04:22:37,06:20:19,NA,incomplete,false,NA,NA,true,2,3,NA,NA,NA,right,m_l_105.jpg,brown,orange,NA,NA,NA,NA,NA,NA,NA,NA,NA,NaN,NA,43990.699999999255,right,1,NA,NA,NA,NA,NA
oTtpCm8c,3dw3bnf1hkvs8co26ehcm6ry22mv8w,3b837j3lds9kl9ko2un9rkyox2lrsn,oTtpCm8c,2020-0188,2021-10-31,04:22:37,06:20:19,NA,incomplete,false,NA,NA,true,2,4,NA,NA,NA,right,m_l_056.jpg,brown,orange,NA,NA,NA,NA,NA,NA,NA,NA,NA,NaN,NA,15460.70000000298,right,1,NA,NA,NA,NA,NA
oTtpCm8c,3dw3bnf1hkvs8co26ehcm6ry22mv8w,3b837j3lds9kl9ko2un9rkyox2lrsn,oTtpCm8c,2020-0188,2021-10-31,04:22:37,06:20:19,NA,incomplete,false,NA,NA,true,2,5,NA,NA,NA,right,n_l_066.jpg,brown,green,NA,NA,NA,NA,NA,NA,NA,NA,NA,NaN,NA,8767.199999999255,right,1,NA,NA,NA,NA,NA
oTtpCm8c,3dw3bnf1hkvs8co26ehcm6ry22mv8w,3b837j3lds9kl9ko2un9rkyox2lrsn,oTtpCm8c,2020-0188,2021-10-31,04:22:37,06:20:19,NA,incomplete,false,NA,NA,true,2,6,NA,NA,NA,right,m_s_028.jpg,gray,green,NA,NA,NA,NA,NA,NA,NA,NA,NA,NaN,NA,9431.300000000745,right,1,NA,NA,NA,NA,NA
oTtpCm8c,3dw3bnf1hkvs8co26ehcm6ry22mv8w,3b837j3lds9kl9ko2un9rkyox2lrsn,oTtpCm8c,2020-0188,2021-10-31,04:22:37,06:20:19,NA,incomplete,false,NA,NA,true,2,7,NA,NA,NA,left,m_s_096.jpg,gray,black,NA,NA,NA,NA,NA,NA,NA,NA,NA,NaN,NA,7823.39999999851,left,1,NA,NA,NA,NA,NA
oTtpCm8c,3dw3bnf1hkvs8co26ehcm6ry22mv8w,3b837j3lds9kl9ko2un9rkyox2lrsn,oTtpCm8c,2020-0188,2021-10-31,04:22:37,06:20:19,NA,incomplete,false,NA,NA,true,2,8,NA,NA,NA,right,m_l_021.jpg,orange,white,NA,NA,NA,NA,NA,NA,NA,NA,NA,NaN,NA,2703.099999997765,right,1,NA,NA,NA,NA,NA
oTtpCm8c,3dw3bnf1hkvs8co26ehcm6ry22mv8w,3b837j3lds9kl9ko2un9rkyox2lrsn,oTtpCm8c,2020-0188,2021-10-31,04:22:37,06:20:19,NA,incomplete,false,NA,NA,true,2,9,NA,NA,NA,left,m_l_107.jpg,black,gray,NA,NA,NA,NA,NA,NA,NA,NA,NA,NaN,NA,5207.199999999255,left,1,NA,NA,NA,NA,NA
oTtpCm8c,3dw3bnf1hkvs8co26ehcm6ry22mv8w,3b837j3lds9kl9ko2un9rkyox2lrsn,oTtpCm8c,2020-0188,2021-10-31,04:22:37,06:20:19,NA,incomplete,false,NA,NA,true,2,10,NA,NA,NA,right,m_l_007.jpg,brown,orange,NA,NA,NA,NA,NA,NA,NA,NA,NA,NaN,NA,3871.39999999851,right,1,NA,NA,NA,NA,NA
oTtpCm8c,3dw3bnf1hkvs8co26ehcm6ry22mv8w,3b837j3lds9kl9ko2un9rkyox2lrsn,oTtpCm8c,2020-0188,2021-10-31,04:22:37,06:20:19,NA,incomplete,false,NA,NA,true,2,11,NA,NA,NA,left,m_l_090.jpg,brown,green,NA,NA,NA,NA,NA,NA,NA,NA,NA,NaN,NA,10470.400000002235,left,1,NA,NA,NA,NA,NA
oTtpCm8c,3dw3bnf1hkvs8co26ehcm6ry22mv8w,3b837j3lds9kl9ko2un9rkyox2lrsn,oTtpCm8c,2020-0188,2021-10-31,04:22:37,06:20:19,NA,incomplete,false,NA,NA,true,2,12,NA,NA,NA,left,n_s_050.jpg,black,gray,NA,NA,NA,NA,NA,NA,NA,NA,NA,NaN,NA,2791,right,0,NA,NA,NA,NA,NA
oTtpCm8c,3dw3bnf1hkvs8co26ehcm6ry22mv8w,3b837j3lds9kl9ko2un9rkyox2lrsn,oTtpCm8c,2020-0188,2021-10-31,04:22:37,06:20:19,NA,incomplete,false,NA,NA,true,2,13,NA,NA,NA,right,n_s_070.jpg,orange,white,NA,NA,NA,NA,NA,NA,NA,NA,NA,NaN,NA,2966.89999999851,right,1,NA,NA,NA,NA,NA
oTtpCm8c,3dw3bnf1hkvs8co26ehcm6ry22mv8w,3b837j3lds9kl9ko2un9rkyox2lrsn,oTtpCm8c,2020-0188,2021-10-31,04:22:37,06:20:19,NA,incomplete,false,NA,NA,true,2,14,NA,NA,NA,right,m_s_034.jpg,orange,brown,NA,NA,NA,NA,NA,NA,NA,NA,NA,NaN,NA,18031.20000000298,right,1,NA,NA,NA,NA,NA
oTtpCm8c,3dw3bnf1hkvs8co26ehcm6ry22mv8w,3b837j3lds9kl9ko2un9rkyox2lrsn,oTtpCm8c,2020-0188,2021-10-31,04:22:37,06:20:19,NA,incomplete,false,NA,NA,true,2,15,NA,NA,NA,right,m_s_067.jpg,orange,brown,NA,NA,NA,NA,NA,NA,NA,NA,NA,NaN,NA,11287.199999999255,right,1,NA,NA,NA,NA,NA
oTtpCm8c,3dw3bnf1hkvs8co26ehcm6ry22mv8w,3b837j3lds9kl9ko2un9rkyox2lrsn,oTtpCm8c,2020-0188,2021-10-31,04:22:37,06:20:19,NA,incomplete,false,NA,NA,true,2,16,NA,NA,NA,right,m_l_053.jpg,gray,green,NA,NA,NA,NA,NA,NA,NA,NA,NA,NaN,NA,9471.10000000149,right,1,NA,NA,NA,NA,NA
oTtpCm8c,3dw3bnf1hkvs8co26ehcm6ry22mv8w,3b837j3lds9kl9ko2un9rkyox2lrsn,oTtpCm8c,2020-0188,2021-10-31,04:22:37,06:20:19,NA,incomplete,false,NA,NA,true,2,17,NA,NA,NA,left,n_s_048.jpg,gray,green,NA,NA,NA,NA,NA,NA,NA,NA,NA,NaN,NA,7543,left,1,NA,NA,NA,NA,NA
oTtpCm8c,3dw3bnf1hkvs8co26ehcm6ry22mv8w,3b837j3lds9kl9ko2un9rkyox2lrsn,oTtpCm8c,2020-0188,2021-10-31,04:22:37,06:20:19,NA,incomplete,false,NA,NA,true,2,18,NA,NA,NA,left,n_l_025.jpg,green,brown,NA,NA,NA,NA,NA,NA,NA,NA,NA,NaN,NA,5030.900000002235,left,1,NA,NA,NA,NA,NA
oTtpCm8c,3dw3bnf1hkvs8co26ehcm6ry22mv8w,3b837j3lds9kl9ko2un9rkyox2lrsn,oTtpCm8c,2020-0188,2021-10-31,04:22:37,06:20:19,NA,incomplete,false,NA,NA,true,2,19,NA,NA,NA,right,n_l_003.jpg,white,orange,NA,NA,NA,NA,NA,NA,NA,NA,NA,NaN,NA,9863.5,right,1,NA,NA,NA,NA,NA
oTtpCm8c,3dw3bnf1hkvs8co26ehcm6ry22mv8w,3b837j3lds9kl9ko2un9rkyox2lrsn,oTtpCm8c,2020-0188,2021-10-31,04:22:37,06:20:19,NA,incomplete,false,NA,NA,true,2,20,NA,NA,NA,left,m_l_005.jpg,gray,green,NA,NA,NA,NA,NA,NA,NA,NA,NA,NaN,NA,12551.20000000298,left,1,NA,NA,NA,NA,NA
oTtpCm8c,3dw3bnf1hkvs8co26ehcm6ry22mv8w,3b837j3lds9kl9ko2un9rkyox2lrsn,oTtpCm8c,2020-0188,2021-10-31,04:22:37,06:20:19,NA,incomplete,false,NA,NA,true,2,21,NA,NA,NA,right,m_l_047.jpg,gray,black,NA,NA,NA,NA,NA,NA,NA,NA,NA,NaN,NA,8095.099999997765,right,1,NA,NA,NA,NA,NA
oTtpCm8c,3dw3bnf1hkvs8co26ehcm6ry22mv8w,3b837j3lds9kl9ko2un9rkyox2lrsn,oTtpCm8c,2020-0188,2021-10-31,04:22:37,06:20:19,NA,incomplete,false,NA,true,NA,2,0,NA,NA,NA,right,NA,NA,NA,absent,NA,NA,m_l_079.jpg,gray,m_l_053.jpg,green,between,NA,NaN,NA,NA,NA,NA,right,8206.10000000149,1,1,1399
oTtpCm8c,3dw3bnf1hkvs8co26ehcm6ry22mv8w,3b837j3lds9kl9ko2un9rkyox2lrsn,oTtpCm8c,2020-0188,2021-10-31,04:22:37,06:20:19,NA,incomplete,false,NA,true,NA,2,1,NA,NA,NA,right,NA,NA,NA,absent,NA,NA,n_l_003.jpg,orange,m_s_037.jpg,white,between,NA,NaN,NA,NA,NA,NA,right,15391.699999999255,1,1,2183.199999999255
oTtpCm8c,3dw3bnf1hkvs8co26ehcm6ry22mv8w,3b837j3lds9kl9ko2un9rkyox2lrsn,oTtpCm8c,2020-0188,2021-10-31,04:22:37,06:20:19,NA,incomplete,false,NA,true,NA,2,2,NA,NA,NA,right,NA,NA,NA,absent,NA,NA,m_l_090.jpg,brown,m_s_067.jpg,brown,within,NA,NaN,NA,NA,NA,NA,right,15454.800000000745,1,2,1967.300000000745
oTtpCm8c,3dw3bnf1hkvs8co26ehcm6ry22mv8w,3b837j3lds9kl9ko2un9rkyox2lrsn,oTtpCm8c,2020-0188,2021-10-31,04:22:37,06:20:19,NA,incomplete,false,NA,true,NA,2,3,NA,NA,NA,left,NA,NA,NA,absent,NA,NA,n_s_070.jpg,white,m_l_021.jpg,white,within,NA,NaN,NA,NA,NA,NA,left,11703.10000000149,1,1,2359.300000000745
oTtpCm8c,3dw3bnf1hkvs8co26ehcm6ry22mv8w,3b837j3lds9kl9ko2un9rkyox2lrsn,oTtpCm8c,2020-0188,2021-10-31,04:22:37,06:20:19,NA,incomplete,false,NA,true,NA,2,4,NA,NA,NA,left,NA,NA,NA,absent,NA,NA,n_s_048.jpg,gray,m_l_107.jpg,black,between,NA,NaN,NA,NA,NA,NA,left,20823,1,2,1495.300000000745
oTtpCm8c,3dw3bnf1hkvs8co26ehcm6ry22mv8w,3b837j3lds9kl9ko2un9rkyox2lrsn,oTtpCm8c,2020-0188,2021-10-31,04:22:37,06:20:19,NA,incomplete,false,NA,true,NA,2,5,NA,NA,NA,right,NA,NA,NA,absent,NA,NA,m_s_028.jpg,green,n_l_025.jpg,green,within,NA,NaN,NA,NA,NA,NA,left,1711.199999999255,0,1,1407.300000000745
oTtpCm8c,3dw3bnf1hkvs8co26ehcm6ry22mv8w,3b837j3lds9kl9ko2un9rkyox2lrsn,oTtpCm8c,2020-0188,2021-10-31,04:22:37,06:20:19,NA,incomplete,false,NA,true,NA,2,6,NA,NA,NA,right,NA,NA,NA,absent,NA,NA,m_s_096.jpg,gray,m_l_005.jpg,gray,within,NA,NaN,NA,NA,NA,NA,right,8335.199999999255,1,2,1799.1000000014901
oTtpCm8c,3dw3bnf1hkvs8co26ehcm6ry22mv8w,3b837j3lds9kl9ko2un9rkyox2lrsn,oTtpCm8c,2020-0188,2021-10-31,04:22:37,06:20:19,NA,incomplete,false,NA,true,NA,2,7,NA,NA,NA,left,NA,NA,NA,absent,NA,NA,n_s_050.jpg,black,m_l_047.jpg,black,within,NA,NaN,NA,NA,NA,NA,left,5991.39999999851,1,2,2055.300000000745
oTtpCm8c,3dw3bnf1hkvs8co26ehcm6ry22mv8w,3b837j3lds9kl9ko2un9rkyox2lrsn,oTtpCm8c,2020-0188,2021-10-31,04:22:37,06:20:19,NA,incomplete,false,NA,true,NA,2,8,NA,NA,NA,right,NA,NA,NA,absent,NA,NA,m_l_056.jpg,orange,m_l_105.jpg,orange,within,NA,NaN,NA,NA,NA,NA,right,16094.89999999851,1,1,1687.5
oTtpCm8c,3dw3bnf1hkvs8co26ehcm6ry22mv8w,3b837j3lds9kl9ko2un9rkyox2lrsn,oTtpCm8c,2020-0188,2021-10-31,04:22:37,06:20:19,NA,incomplete,false,NA,true,NA,2,9,NA,NA,NA,right,NA,NA,NA,absent,NA,NA,m_s_034.jpg,brown,m_l_007.jpg,orange,between,NA,NaN,NA,NA,NA,NA,right,6247.5,1,2,2407.39999999851
oTtpCm8c,3dw3bnf1hkvs8co26ehcm6ry22mv8w,3b837j3lds9kl9ko2un9rkyox2lrsn,oTtpCm8c,2020-0188,2021-10-31,04:22:37,06:20:19,NA,incomplete,false,NA,true,NA,2,10,NA,NA,NA,left,NA,NA,NA,absent,NA,NA,m_l_038.jpg,brown,n_l_066.jpg,green,between,NA,NaN,NA,NA,NA,NA,left,2167.199999999255,1,1,1231
oTtpCm8c,3dw3bnf1hkvs8co26ehcm6ry22mv8w,3b837j3lds9kl9ko2un9rkyox2lrsn,oTtpCm8c,2020-0188,2021-10-31,04:22:37,06:20:19,NA,incomplete,false,true,NA,NA,3,0,NA,white,m_s_111.jpg,NA,NA,NA,NA,NA,unpleasant,pleasant,NA,NA,NA,NA,NA,right,1469,true,NA,NA,NA,NA,NA,NA,NA,NA
oTtpCm8c,3dw3bnf1hkvs8co26ehcm6ry22mv8w,3b837j3lds9kl9ko2un9rkyox2lrsn,oTtpCm8c,2020-0188,2021-10-31,04:22:37,06:20:19,NA,incomplete,false,true,NA,NA,3,1,NA,white,n_l_108.jpg,NA,NA,NA,NA,NA,unpleasant,pleasant,NA,NA,NA,NA,NA,right,1227.09999999776,true,NA,NA,NA,NA,NA,NA,NA,NA
oTtpCm8c,3dw3bnf1hkvs8co26ehcm6ry22mv8w,3b837j3lds9kl9ko2un9rkyox2lrsn,oTtpCm8c,2020-0188,2021-10-31,04:22:37,06:20:19,NA,incomplete,false,true,NA,NA,3,2,NA,white,m_l_040.jpg,NA,NA,NA,NA,NA,unpleasant,pleasant,NA,NA,NA,NA,NA,right,1129.09999999776,true,NA,NA,NA,NA,NA,NA,NA,NA
oTtpCm8c,3dw3bnf1hkvs8co26ehcm6ry22mv8w,3b837j3lds9kl9ko2un9rkyox2lrsn,oTtpCm8c,2020-0188,2021-10-31,04:22:37,06:20:19,NA,incomplete,false,true,NA,NA,3,3,NA,white,n_s_012.jpg,NA,NA,NA,NA,NA,unpleasant,pleasant,NA,NA,NA,NA,NA,right,917.599999997765,true,NA,NA,NA,NA,NA,NA,NA,NA
oTtpCm8c,3dw3bnf1hkvs8co26ehcm6ry22mv8w,3b837j3lds9kl9ko2un9rkyox2lrsn,oTtpCm8c,2020-0188,2021-10-31,04:22:37,06:20:19,NA,incomplete,false,true,NA,NA,3,4,NA,white,m_l_033.jpg,NA,NA,NA,NA,NA,unpleasant,pleasant,NA,NA,NA,NA,NA,right,1067.40000000224,true,NA,NA,NA,NA,NA,NA,NA,NA
oTtpCm8c,3dw3bnf1hkvs8co26ehcm6ry22mv8w,3b837j3lds9kl9ko2un9rkyox2lrsn,oTtpCm8c,2020-0188,2021-10-31,04:22:37,06:20:19,NA,incomplete,false,true,NA,NA,3,5,NA,white,m_s_057.jpg,NA,NA,NA,NA,NA,pleasant,unpleasant,NA,NA,NA,NA,NA,right,961.39999999851,true,NA,NA,NA,NA,NA,NA,NA,NA
oTtpCm8c,3dw3bnf1hkvs8co26ehcm6ry22mv8w,3b837j3lds9kl9ko2un9rkyox2lrsn,oTtpCm8c,2020-0188,2021-10-31,04:22:37,06:20:19,NA,incomplete,false,true,NA,NA,3,6,NA,blue,n_l_101.jpg,NA,NA,NA,NA,NA,unpleasant,pleasant,NA,NA,NA,NA,NA,right,1021.80000000075,true,NA,NA,NA,NA,NA,NA,NA,NA
oTtpCm8c,3dw3bnf1hkvs8co26ehcm6ry22mv8w,3b837j3lds9kl9ko2un9rkyox2lrsn,oTtpCm8c,2020-0188,2021-10-31,04:22:37,06:20:19,NA,incomplete,false,true,NA,NA,3,7,NA,blue,m_s_053.jpg,NA,NA,NA,NA,NA,pleasant,unpleasant,NA,NA,NA,NA,NA,right,1003.39999999851,true,NA,NA,NA,NA,NA,NA,NA,NA
oTtpCm8c,3dw3bnf1hkvs8co26ehcm6ry22mv8w,3b837j3lds9kl9ko2un9rkyox2lrsn,oTtpCm8c,2020-0188,2021-10-31,04:22:37,06:20:19,NA,incomplete,false,true,NA,NA,3,8,NA,blue,n_s_052.jpg,NA,NA,NA,NA,NA,pleasant,unpleasant,NA,NA,NA,NA,NA,right,986.300000000745,true,NA,NA,NA,NA,NA,NA,NA,NA
oTtpCm8c,3dw3bnf1hkvs8co26ehcm6ry22mv8w,3b837j3lds9kl9ko2un9rkyox2lrsn,oTtpCm8c,2020-0188,2021-10-31,04:22:37,06:20:19,NA,incomplete,false,true,NA,NA,3,9,NA,blue,n_l_116.jpg,NA,NA,NA,NA,NA,pleasant,unpleasant,NA,NA,NA,NA,NA,right,982.70000000298,true,NA,NA,NA,NA,NA,NA,NA,NA
oTtpCm8c,3dw3bnf1hkvs8co26ehcm6ry22mv8w,3b837j3lds9kl9ko2un9rkyox2lrsn,oTtpCm8c,2020-0188,2021-10-31,04:22:37,06:20:19,NA,incomplete,false,true,NA,NA,3,10,NA,blue,n_s_047.jpg,NA,NA,NA,NA,NA,unpleasant,pleasant,NA,NA,NA,NA,NA,right,891.60000000149,true,NA,NA,NA,NA,NA,NA,NA,NA
oTtpCm8c,3dw3bnf1hkvs8co26ehcm6ry22mv8w,3b837j3lds9kl9ko2un9rkyox2lrsn,oTtpCm8c,2020-0188,2021-10-31,04:22:37,06:20:19,NA,incomplete,false,true,NA,NA,3,11,NA,blue,m_s_019.jpg,NA,NA,NA,NA,NA,unpleasant,pleasant,NA,NA,NA,NA,NA,right,1073.19999999925,true,NA,NA,NA,NA,NA,NA,NA,NA
oTtpCm8c,3dw3bnf1hkvs8co26ehcm6ry22mv8w,3b837j3lds9kl9ko2un9rkyox2lrsn,oTtpCm8c,2020-0188,2021-10-31,04:22:37,06:20:19,NA,incomplete,false,true,NA,NA,3,12,NA,green,n_s_060.jpg,NA,NA,NA,NA,NA,pleasant,unpleasant,NA,NA,NA,NA,NA,right,1109.69999999925,true,NA,NA,NA,NA,NA,NA,NA,NA
oTtpCm8c,3dw3bnf1hkvs8co26ehcm6ry22mv8w,3b837j3lds9kl9ko2un9rkyox2lrsn,oTtpCm8c,2020-0188,2021-10-31,04:22:37,06:20:19,NA,incomplete,false,true,NA,NA,3,13,NA,green,n_l_113.jpg,NA,NA,NA,NA,NA,pleasant,unpleasant,NA,NA,NA,NA,NA,right,1202,true,NA,NA,NA,NA,NA,NA,NA,NA
oTtpCm8c,3dw3bnf1hkvs8co26ehcm6ry22mv8w,3b837j3lds9kl9ko2un9rkyox2lrsn,oTtpCm8c,2020-0188,2021-10-31,04:22:37,06:20:19,NA,incomplete,false,true,NA,NA,3,14,NA,green,n_l_043.jpg,NA,NA,NA,NA,NA,pleasant,unpleasant,NA,NA,NA,NA,NA,right,1088.79999999702,true,NA,NA,NA,NA,NA,NA,NA,NA
oTtpCm8c,3dw3bnf1hkvs8co26ehcm6ry22mv8w,3b837j3lds9kl9ko2un9rkyox2lrsn,oTtpCm8c,2020-0188,2021-10-31,04:22:37,06:20:19,NA,incomplete,false,true,NA,NA,3,15,NA,green,m_l_076.jpg,NA,NA,NA,NA,NA,unpleasant,pleasant,NA,NA,NA,NA,NA,right,997.39999999851,true,NA,NA,NA,NA,NA,NA,NA,NA
oTtpCm8c,3dw3bnf1hkvs8co26ehcm6ry22mv8w,3b837j3lds9kl9ko2un9rkyox2lrsn,oTtpCm8c,2020-0188,2021-10-31,04:22:37,06:20:19,NA,incomplete,false,true,NA,NA,3,16,NA,green,m_s_018.jpg,NA,NA,NA,NA,NA,pleasant,unpleasant,NA,NA,NA,NA,NA,right,1081.29999999702,true,NA,NA,NA,NA,NA,NA,NA,NA
oTtpCm8c,3dw3bnf1hkvs8co26ehcm6ry22mv8w,3b837j3lds9kl9ko2un9rkyox2lrsn,oTtpCm8c,2020-0188,2021-10-31,04:22:37,06:20:19,NA,incomplete,false,true,NA,NA,3,17,NA,green,n_s_099.jpg,NA,NA,NA,NA,NA,pleasant,unpleasant,NA,NA,NA,NA,NA,right,934.199999999255,true,NA,NA,NA,NA,NA,NA,NA,NA
oTtpCm8c,3dw3bnf1hkvs8co26ehcm6ry22mv8w,3b837j3lds9kl9ko2un9rkyox2lrsn,oTtpCm8c,2020-0188,2021-10-31,04:22:37,06:20:19,NA,incomplete,false,true,NA,NA,3,18,NA,black,n_s_076.jpg,NA,NA,NA,NA,NA,unpleasant,pleasant,NA,NA,NA,NA,NA,right,949,true,NA,NA,NA,NA,NA,NA,NA,NA
oTtpCm8c,3dw3bnf1hkvs8co26ehcm6ry22mv8w,3b837j3lds9kl9ko2un9rkyox2lrsn,oTtpCm8c,2020-0188,2021-10-31,04:22:37,06:20:19,NA,incomplete,false,true,NA,NA,3,19,NA,black,m_l_102.jpg,NA,NA,NA,NA,NA,unpleasant,pleasant,NA,NA,NA,NA,NA,right,1041.90000000224,true,NA,NA,NA,NA,NA,NA,NA,NA
oTtpCm8c,3dw3bnf1hkvs8co26ehcm6ry22mv8w,3b837j3lds9kl9ko2un9rkyox2lrsn,oTtpCm8c,2020-0188,2021-10-31,04:22:37,06:20:19,NA,incomplete,false,true,NA,NA,3,20,NA,black,n_s_053.jpg,NA,NA,NA,NA,NA,unpleasant,pleasant,NA,NA,NA,NA,NA,right,1128.19999999925,true,NA,NA,NA,NA,NA,NA,NA,NA
oTtpCm8c,3dw3bnf1hkvs8co26ehcm6ry22mv8w,3b837j3lds9kl9ko2un9rkyox2lrsn,oTtpCm8c,2020-0188,2021-10-31,04:22:37,06:20:19,NA,incomplete,false,true,NA,NA,3,21,NA,black,m_s_049.jpg,NA,NA,NA,NA,NA,pleasant,unpleasant,NA,NA,NA,NA,NA,right,1243.80000000075,true,NA,NA,NA,NA,NA,NA,NA,NA
oTtpCm8c,3dw3bnf1hkvs8co26ehcm6ry22mv8w,3b837j3lds9kl9ko2un9rkyox2lrsn,oTtpCm8c,2020-0188,2021-10-31,04:22:37,06:20:19,NA,incomplete,false,true,NA,NA,3,22,NA,black,n_l_057.jpg,NA,NA,NA,NA,NA,pleasant,unpleasant,NA,NA,NA,NA,NA,right,1088.19999999925,true,NA,NA,NA,NA,NA,NA,NA,NA
oTtpCm8c,3dw3bnf1hkvs8co26ehcm6ry22mv8w,3b837j3lds9kl9ko2un9rkyox2lrsn,oTtpCm8c,2020-0188,2021-10-31,04:22:37,06:20:19,NA,incomplete,false,true,NA,NA,3,23,NA,black,n_s_073.jpg,NA,NA,NA,NA,NA,unpleasant,pleasant,NA,NA,NA,NA,NA,right,1165.09999999776,true,NA,NA,NA,NA,NA,NA,NA,NA
oTtpCm8c,3dw3bnf1hkvs8co26ehcm6ry22mv8w,3b837j3lds9kl9ko2un9rkyox2lrsn,oTtpCm8c,2020-0188,2021-10-31,04:22:37,06:20:19,NA,incomplete,false,true,NA,NA,3,24,NA,purple,m_l_071.jpg,NA,NA,NA,NA,NA,pleasant,unpleasant,NA,NA,NA,NA,NA,right,947,true,NA,NA,NA,NA,NA,NA,NA,NA
oTtpCm8c,3dw3bnf1hkvs8co26ehcm6ry22mv8w,3b837j3lds9kl9ko2un9rkyox2lrsn,oTtpCm8c,2020-0188,2021-10-31,04:22:37,06:20:19,NA,incomplete,false,true,NA,NA,3,25,NA,purple,m_l_108.jpg,NA,NA,NA,NA,NA,unpleasant,pleasant,NA,NA,NA,NA,NA,right,1031.89999999851,true,NA,NA,NA,NA,NA,NA,NA,NA
oTtpCm8c,3dw3bnf1hkvs8co26ehcm6ry22mv8w,3b837j3lds9kl9ko2un9rkyox2lrsn,oTtpCm8c,2020-0188,2021-10-31,04:22:37,06:20:19,NA,incomplete,false,true,NA,NA,3,26,NA,purple,m_l_052.jpg,NA,NA,NA,NA,NA,pleasant,unpleasant,NA,NA,NA,NA,NA,right,1117.5,true,NA,NA,NA,NA,NA,NA,NA,NA
oTtpCm8c,3dw3bnf1hkvs8co26ehcm6ry22mv8w,3b837j3lds9kl9ko2un9rkyox2lrsn,oTtpCm8c,2020-0188,2021-10-31,04:22:37,06:20:19,NA,incomplete,false,true,NA,NA,3,27,NA,purple,n_l_077.jpg,NA,NA,NA,NA,NA,unpleasant,pleasant,NA,NA,NA,NA,NA,right,1130.69999999925,true,NA,NA,NA,NA,NA,NA,NA,NA
oTtpCm8c,3dw3bnf1hkvs8co26ehcm6ry22mv8w,3b837j3lds9kl9ko2un9rkyox2lrsn,oTtpCm8c,2020-0188,2021-10-31,04:22:37,06:20:19,NA,incomplete,false,true,NA,NA,3,28,NA,purple,n_l_079.jpg,NA,NA,NA,NA,NA,pleasant,unpleasant,NA,NA,NA,NA,NA,right,1335.09999999776,true,NA,NA,NA,NA,NA,NA,NA,NA
oTtpCm8c,3dw3bnf1hkvs8co26ehcm6ry22mv8w,3b837j3lds9kl9ko2un9rkyox2lrsn,oTtpCm8c,2020-0188,2021-10-31,04:22:37,06:20:19,NA,incomplete,false,true,NA,NA,3,29,NA,purple,m_s_029.jpg,NA,NA,NA,NA,NA,pleasant,unpleasant,NA,NA,NA,NA,NA,right,1004.69999999925,true,NA,NA,NA,NA,NA,NA,NA,NA
oTtpCm8c,3dw3bnf1hkvs8co26ehcm6ry22mv8w,3b837j3lds9kl9ko2un9rkyox2lrsn,oTtpCm8c,2020-0188,2021-10-31,04:22:37,06:20:19,NA,incomplete,false,true,NA,NA,3,30,NA,yellow,m_s_088.jpg,NA,NA,NA,NA,NA,unpleasant,pleasant,NA,NA,NA,NA,NA,right,1242.30000000075,true,NA,NA,NA,NA,NA,NA,NA,NA
oTtpCm8c,3dw3bnf1hkvs8co26ehcm6ry22mv8w,3b837j3lds9kl9ko2un9rkyox2lrsn,oTtpCm8c,2020-0188,2021-10-31,04:22:37,06:20:19,NA,incomplete,false,true,NA,NA,3,31,NA,yellow,m_l_055.jpg,NA,NA,NA,NA,NA,pleasant,unpleasant,NA,NA,NA,NA,NA,right,1150.69999999925,true,NA,NA,NA,NA,NA,NA,NA,NA
oTtpCm8c,3dw3bnf1hkvs8co26ehcm6ry22mv8w,3b837j3lds9kl9ko2un9rkyox2lrsn,oTtpCm8c,2020-0188,2021-10-31,04:22:37,06:20:19,NA,incomplete,false,true,NA,NA,3,32,NA,yellow,n_l_054.jpg,NA,NA,NA,NA,NA,unpleasant,pleasant,NA,NA,NA,NA,NA,right,1061.90000000224,true,NA,NA,NA,NA,NA,NA,NA,NA
oTtpCm8c,3dw3bnf1hkvs8co26ehcm6ry22mv8w,3b837j3lds9kl9ko2un9rkyox2lrsn,oTtpCm8c,2020-0188,2021-10-31,04:22:37,06:20:19,NA,incomplete,false,true,NA,NA,3,33,NA,yellow,n_l_040.jpg,NA,NA,NA,NA,NA,pleasant,unpleasant,NA,NA,NA,NA,NA,right,1186.20000000298,true,NA,NA,NA,NA,NA,NA,NA,NA
oTtpCm8c,3dw3bnf1hkvs8co26ehcm6ry22mv8w,3b837j3lds9kl9ko2un9rkyox2lrsn,oTtpCm8c,2020-0188,2021-10-31,04:22:37,06:20:19,NA,incomplete,false,true,NA,NA,3,34,NA,yellow,m_s_085.jpg,NA,NA,NA,NA,NA,pleasant,unpleasant,NA,NA,NA,NA,NA,right,1039.5,true,NA,NA,NA,NA,NA,NA,NA,NA
oTtpCm8c,3dw3bnf1hkvs8co26ehcm6ry22mv8w,3b837j3lds9kl9ko2un9rkyox2lrsn,oTtpCm8c,2020-0188,2021-10-31,04:22:37,06:20:19,NA,incomplete,false,true,NA,NA,3,35,NA,yellow,n_l_016.jpg,NA,NA,NA,NA,NA,pleasant,unpleasant,NA,NA,NA,NA,NA,right,1085.39999999851,true,NA,NA,NA,NA,NA,NA,NA,NA
oTtpCm8c,3dw3bnf1hkvs8co26ehcm6ry22mv8w,3b837j3lds9kl9ko2un9rkyox2lrsn,oTtpCm8c,2020-0188,2021-10-31,04:22:37,06:20:19,NA,incomplete,false,NA,NA,true,3,0,NA,NA,NA,left,m_l_108.jpg,purple,yellow,NA,NA,NA,NA,NA,NA,NA,NA,NA,NaN,NA,4791.300000000745,left,1,NA,NA,NA,NA,NA
oTtpCm8c,3dw3bnf1hkvs8co26ehcm6ry22mv8w,3b837j3lds9kl9ko2un9rkyox2lrsn,oTtpCm8c,2020-0188,2021-10-31,04:22:37,06:20:19,NA,incomplete,false,NA,NA,true,3,1,NA,NA,NA,left,n_s_099.jpg,green,black,NA,NA,NA,NA,NA,NA,NA,NA,NA,NaN,NA,3487.300000000745,left,1,NA,NA,NA,NA,NA
oTtpCm8c,3dw3bnf1hkvs8co26ehcm6ry22mv8w,3b837j3lds9kl9ko2un9rkyox2lrsn,oTtpCm8c,2020-0188,2021-10-31,04:22:37,06:20:19,NA,incomplete,false,NA,NA,true,3,2,NA,NA,NA,left,n_l_079.jpg,purple,yellow,NA,NA,NA,NA,NA,NA,NA,NA,NA,NaN,NA,9255.300000000745,left,1,NA,NA,NA,NA,NA
oTtpCm8c,3dw3bnf1hkvs8co26ehcm6ry22mv8w,3b837j3lds9kl9ko2un9rkyox2lrsn,oTtpCm8c,2020-0188,2021-10-31,04:22:37,06:20:19,NA,incomplete,false,NA,NA,true,3,3,NA,NA,NA,left,m_s_019.jpg,blue,green,NA,NA,NA,NA,NA,NA,NA,NA,NA,NaN,NA,16911,left,1,NA,NA,NA,NA,NA
oTtpCm8c,3dw3bnf1hkvs8co26ehcm6ry22mv8w,3b837j3lds9kl9ko2un9rkyox2lrsn,oTtpCm8c,2020-0188,2021-10-31,04:22:37,06:20:19,NA,incomplete,false,NA,NA,true,3,4,NA,NA,NA,right,n_l_043.jpg,black,green,NA,NA,NA,NA,NA,NA,NA,NA,NA,NaN,NA,35007,right,1,NA,NA,NA,NA,NA
oTtpCm8c,3dw3bnf1hkvs8co26ehcm6ry22mv8w,3b837j3lds9kl9ko2un9rkyox2lrsn,oTtpCm8c,2020-0188,2021-10-31,04:22:37,06:20:19,NA,incomplete,false,NA,NA,true,3,5,NA,NA,NA,right,n_s_073.jpg,green,black,NA,NA,NA,NA,NA,NA,NA,NA,NA,NaN,NA,3463.199999999255,right,1,NA,NA,NA,NA,NA
oTtpCm8c,3dw3bnf1hkvs8co26ehcm6ry22mv8w,3b837j3lds9kl9ko2un9rkyox2lrsn,oTtpCm8c,2020-0188,2021-10-31,04:22:37,06:20:19,NA,incomplete,false,NA,NA,true,3,6,NA,NA,NA,right,n_l_108.jpg,blue,white,NA,NA,NA,NA,NA,NA,NA,NA,NA,NaN,NA,22887.199999999255,right,1,NA,NA,NA,NA,NA
oTtpCm8c,3dw3bnf1hkvs8co26ehcm6ry22mv8w,3b837j3lds9kl9ko2un9rkyox2lrsn,oTtpCm8c,2020-0188,2021-10-31,04:22:37,06:20:19,NA,incomplete,false,NA,NA,true,3,7,NA,NA,NA,left,m_s_018.jpg,green,black,NA,NA,NA,NA,NA,NA,NA,NA,NA,NaN,NA,3447.099999997765,left,1,NA,NA,NA,NA,NA
oTtpCm8c,3dw3bnf1hkvs8co26ehcm6ry22mv8w,3b837j3lds9kl9ko2un9rkyox2lrsn,oTtpCm8c,2020-0188,2021-10-31,04:22:37,06:20:19,NA,incomplete,false,NA,NA,true,3,8,NA,NA,NA,left,n_l_057.jpg,black,purple,NA,NA,NA,NA,NA,NA,NA,NA,NA,NaN,NA,15319.10000000149,left,1,NA,NA,NA,NA,NA
oTtpCm8c,3dw3bnf1hkvs8co26ehcm6ry22mv8w,3b837j3lds9kl9ko2un9rkyox2lrsn,oTtpCm8c,2020-0188,2021-10-31,04:22:37,06:20:19,NA,incomplete,false,NA,NA,true,3,9,NA,NA,NA,right,m_s_053.jpg,white,blue,NA,NA,NA,NA,NA,NA,NA,NA,NA,NaN,NA,16455,right,1,NA,NA,NA,NA,NA
oTtpCm8c,3dw3bnf1hkvs8co26ehcm6ry22mv8w,3b837j3lds9kl9ko2un9rkyox2lrsn,oTtpCm8c,2020-0188,2021-10-31,04:22:37,06:20:19,NA,incomplete,false,NA,NA,true,3,10,NA,NA,NA,left,n_s_053.jpg,black,purple,NA,NA,NA,NA,NA,NA,NA,NA,NA,NaN,NA,15526.89999999851,left,1,NA,NA,NA,NA,NA
oTtpCm8c,3dw3bnf1hkvs8co26ehcm6ry22mv8w,3b837j3lds9kl9ko2un9rkyox2lrsn,oTtpCm8c,2020-0188,2021-10-31,04:22:37,06:20:19,NA,incomplete,false,NA,NA,true,3,11,NA,NA,NA,left,m_s_029.jpg,purple,black,NA,NA,NA,NA,NA,NA,NA,NA,NA,NaN,NA,15255,left,1,NA,NA,NA,NA,NA
oTtpCm8c,3dw3bnf1hkvs8co26ehcm6ry22mv8w,3b837j3lds9kl9ko2un9rkyox2lrsn,oTtpCm8c,2020-0188,2021-10-31,04:22:37,06:20:19,NA,incomplete,false,NA,NA,true,3,12,NA,NA,NA,left,m_l_055.jpg,yellow,purple,NA,NA,NA,NA,NA,NA,NA,NA,NA,NaN,NA,3079.099999997765,right,0,NA,NA,NA,NA,NA
oTtpCm8c,3dw3bnf1hkvs8co26ehcm6ry22mv8w,3b837j3lds9kl9ko2un9rkyox2lrsn,oTtpCm8c,2020-0188,2021-10-31,04:22:37,06:20:19,NA,incomplete,false,NA,NA,true,3,13,NA,NA,NA,left,n_l_016.jpg,yellow,purple,NA,NA,NA,NA,NA,NA,NA,NA,NA,NaN,NA,13063,left,1,NA,NA,NA,NA,NA
oTtpCm8c,3dw3bnf1hkvs8co26ehcm6ry22mv8w,3b837j3lds9kl9ko2un9rkyox2lrsn,oTtpCm8c,2020-0188,2021-10-31,04:22:37,06:20:19,NA,incomplete,false,NA,NA,true,3,14,NA,NA,NA,left,m_l_033.jpg,white,blue,NA,NA,NA,NA,NA,NA,NA,NA,NA,NaN,NA,19127.199999999255,left,1,NA,NA,NA,NA,NA
oTtpCm8c,3dw3bnf1hkvs8co26ehcm6ry22mv8w,3b837j3lds9kl9ko2un9rkyox2lrsn,oTtpCm8c,2020-0188,2021-10-31,04:22:37,06:20:19,NA,incomplete,false,NA,NA,true,3,15,NA,NA,NA,left,n_s_047.jpg,blue,green,NA,NA,NA,NA,NA,NA,NA,NA,NA,NaN,NA,10551.10000000149,left,1,NA,NA,NA,NA,NA
oTtpCm8c,3dw3bnf1hkvs8co26ehcm6ry22mv8w,3b837j3lds9kl9ko2un9rkyox2lrsn,oTtpCm8c,2020-0188,2021-10-31,04:22:37,06:20:19,NA,incomplete,false,NA,NA,true,3,16,NA,NA,NA,left,m_l_102.jpg,black,purple,NA,NA,NA,NA,NA,NA,NA,NA,NA,NaN,NA,10239.199999999255,left,1,NA,NA,NA,NA,NA
oTtpCm8c,3dw3bnf1hkvs8co26ehcm6ry22mv8w,3b837j3lds9kl9ko2un9rkyox2lrsn,oTtpCm8c,2020-0188,2021-10-31,04:22:37,06:20:19,NA,incomplete,false,NA,NA,true,3,17,NA,NA,NA,left,n_s_052.jpg,blue,white,NA,NA,NA,NA,NA,NA,NA,NA,NA,NaN,NA,4927.20000000298,left,1,NA,NA,NA,NA,NA
oTtpCm8c,3dw3bnf1hkvs8co26ehcm6ry22mv8w,3b837j3lds9kl9ko2un9rkyox2lrsn,oTtpCm8c,2020-0188,2021-10-31,04:22:37,06:20:19,NA,incomplete,false,NA,NA,true,3,18,NA,NA,NA,left,m_s_057.jpg,white,blue,NA,NA,NA,NA,NA,NA,NA,NA,NA,NaN,NA,10295.10000000149,left,1,NA,NA,NA,NA,NA
oTtpCm8c,3dw3bnf1hkvs8co26ehcm6ry22mv8w,3b837j3lds9kl9ko2un9rkyox2lrsn,oTtpCm8c,2020-0188,2021-10-31,04:22:37,06:20:19,NA,incomplete,false,NA,NA,true,3,19,NA,NA,NA,left,m_l_052.jpg,purple,black,NA,NA,NA,NA,NA,NA,NA,NA,NA,NaN,NA,3007.2000000029802,right,0,NA,NA,NA,NA,NA
oTtpCm8c,3dw3bnf1hkvs8co26ehcm6ry22mv8w,3b837j3lds9kl9ko2un9rkyox2lrsn,oTtpCm8c,2020-0188,2021-10-31,04:22:37,06:20:19,NA,incomplete,false,NA,NA,true,3,20,NA,NA,NA,right,n_l_054.jpg,purple,yellow,NA,NA,NA,NA,NA,NA,NA,NA,NA,NaN,NA,2854.900000002235,right,1,NA,NA,NA,NA,NA
oTtpCm8c,3dw3bnf1hkvs8co26ehcm6ry22mv8w,3b837j3lds9kl9ko2un9rkyox2lrsn,oTtpCm8c,2020-0188,2021-10-31,04:22:37,06:20:19,NA,incomplete,false,NA,NA,true,3,21,NA,NA,NA,right,n_l_113.jpg,black,green,NA,NA,NA,NA,NA,NA,NA,NA,NA,NaN,NA,16295.10000000149,right,1,NA,NA,NA,NA,NA
oTtpCm8c,3dw3bnf1hkvs8co26ehcm6ry22mv8w,3b837j3lds9kl9ko2un9rkyox2lrsn,oTtpCm8c,2020-0188,2021-10-31,04:22:37,06:20:19,NA,incomplete,false,NA,true,NA,3,0,NA,NA,NA,right,NA,NA,NA,absent,NA,NA,m_s_019.jpg,blue,m_s_053.jpg,blue,within,NA,NaN,NA,NA,NA,NA,right,24126.60000000149,1,2,1727.4000000022352
oTtpCm8c,3dw3bnf1hkvs8co26ehcm6ry22mv8w,3b837j3lds9kl9ko2un9rkyox2lrsn,oTtpCm8c,2020-0188,2021-10-31,04:22:37,06:20:19,NA,incomplete,false,NA,true,NA,3,1,NA,NA,NA,left,NA,NA,NA,absent,NA,NA,m_l_033.jpg,white,n_s_052.jpg,blue,between,NA,NaN,NA,NA,NA,NA,left,11631.199999999255,1,2,1215.300000000745
oTtpCm8c,3dw3bnf1hkvs8co26ehcm6ry22mv8w,3b837j3lds9kl9ko2un9rkyox2lrsn,oTtpCm8c,2020-0188,2021-10-31,04:22:37,06:20:19,NA,incomplete,false,NA,true,NA,3,2,NA,NA,NA,left,NA,NA,NA,absent,NA,NA,n_l_057.jpg,black,m_l_052.jpg,purple,between,NA,NaN,NA,NA,NA,NA,left,14071.199999999255,1,1,1183.199999999255
oTtpCm8c,3dw3bnf1hkvs8co26ehcm6ry22mv8w,3b837j3lds9kl9ko2un9rkyox2lrsn,oTtpCm8c,2020-0188,2021-10-31,04:22:37,06:20:19,NA,incomplete,false,NA,true,NA,3,3,NA,NA,NA,left,NA,NA,NA,absent,NA,NA,m_l_055.jpg,yellow,n_l_016.jpg,yellow,within,NA,NaN,NA,NA,NA,NA,left,10479.39999999851,1,3,2671.199999999255
oTtpCm8c,3dw3bnf1hkvs8co26ehcm6ry22mv8w,3b837j3lds9kl9ko2un9rkyox2lrsn,oTtpCm8c,2020-0188,2021-10-31,04:22:37,06:20:19,NA,incomplete,false,NA,true,NA,3,4,NA,NA,NA,left,NA,NA,NA,absent,NA,NA,m_l_102.jpg,black,n_s_073.jpg,black,within,NA,NaN,NA,NA,NA,NA,left,12631.10000000149,1,3,2335.199999999255
oTtpCm8c,3dw3bnf1hkvs8co26ehcm6ry22mv8w,3b837j3lds9kl9ko2un9rkyox2lrsn,oTtpCm8c,2020-0188,2021-10-31,04:22:37,06:20:19,NA,incomplete,false,NA,true,NA,3,5,NA,NA,NA,left,NA,NA,NA,absent,NA,NA,n_l_108.jpg,white,m_s_057.jpg,white,within,NA,NaN,NA,NA,NA,NA,left,12375.199999999255,1,2,1295.5999999977648
oTtpCm8c,3dw3bnf1hkvs8co26ehcm6ry22mv8w,3b837j3lds9kl9ko2un9rkyox2lrsn,oTtpCm8c,2020-0188,2021-10-31,04:22:37,06:20:19,NA,incomplete,false,NA,true,NA,3,6,NA,NA,NA,right,NA,NA,NA,absent,NA,NA,n_l_054.jpg,yellow,n_l_079.jpg,purple,between,NA,NaN,NA,NA,NA,NA,right,18767.20000000298,1,2,1351.300000000745
oTtpCm8c,3dw3bnf1hkvs8co26ehcm6ry22mv8w,3b837j3lds9kl9ko2un9rkyox2lrsn,oTtpCm8c,2020-0188,2021-10-31,04:22:37,06:20:19,NA,incomplete,false,NA,true,NA,3,7,NA,NA,NA,right,NA,NA,NA,absent,NA,NA,n_l_043.jpg,green,n_s_047.jpg,blue,between,NA,NaN,NA,NA,NA,NA,right,10383.199999999255,1,3,1919.1000000014901
oTtpCm8c,3dw3bnf1hkvs8co26ehcm6ry22mv8w,3b837j3lds9kl9ko2un9rkyox2lrsn,oTtpCm8c,2020-0188,2021-10-31,04:22:37,06:20:19,NA,incomplete,false,NA,true,NA,3,8,NA,NA,NA,right,NA,NA,NA,absent,NA,NA,n_s_099.jpg,green,n_l_113.jpg,green,within,NA,NaN,NA,NA,NA,NA,right,3111.300000000745,1,3,1359
oTtpCm8c,3dw3bnf1hkvs8co26ehcm6ry22mv8w,3b837j3lds9kl9ko2un9rkyox2lrsn,oTtpCm8c,2020-0188,2021-10-31,04:22:37,06:20:19,NA,incomplete,false,NA,true,NA,3,9,NA,NA,NA,left,NA,NA,NA,absent,NA,NA,m_s_018.jpg,green,n_s_053.jpg,black,between,NA,NaN,NA,NA,NA,NA,left,11687.199999999255,1,2,1215.199999999255
oTtpCm8c,3dw3bnf1hkvs8co26ehcm6ry22mv8w,3b837j3lds9kl9ko2un9rkyox2lrsn,oTtpCm8c,2020-0188,2021-10-31,04:22:37,06:20:19,NA,incomplete,false,NA,true,NA,3,10,NA,NA,NA,left,NA,NA,NA,absent,NA,NA,m_l_108.jpg,purple,m_s_029.jpg,purple,within,NA,NaN,NA,NA,NA,NA,left,19047.099999997765,1,3,1503
oTtpCm8c,3dw3bnf1hkvs8co26ehcm6ry22mv8w,3b837j3lds9kl9ko2un9rkyox2lrsn,oTtpCm8c,2020-0188,2021-10-31,04:22:37,06:20:19,NA,incomplete,false,true,NA,NA,4,0,NA,yellow,n_s_095.jpg,NA,NA,NA,NA,NA,pleasant,unpleasant,NA,NA,NA,NA,NA,right,1507.19999999925,true,NA,NA,NA,NA,NA,NA,NA,NA
oTtpCm8c,3dw3bnf1hkvs8co26ehcm6ry22mv8w,3b837j3lds9kl9ko2un9rkyox2lrsn,oTtpCm8c,2020-0188,2021-10-31,04:22:37,06:20:19,NA,incomplete,false,true,NA,NA,4,1,NA,yellow,n_s_105.jpg,NA,NA,NA,NA,NA,pleasant,unpleasant,NA,NA,NA,NA,NA,right,953.20000000298,true,NA,NA,NA,NA,NA,NA,NA,NA
oTtpCm8c,3dw3bnf1hkvs8co26ehcm6ry22mv8w,3b837j3lds9kl9ko2un9rkyox2lrsn,oTtpCm8c,2020-0188,2021-10-31,04:22:37,06:20:19,NA,incomplete,false,true,NA,NA,4,2,NA,yellow,m_s_069.jpg,NA,NA,NA,NA,NA,pleasant,unpleasant,NA,NA,NA,NA,NA,right,1207.40000000224,true,NA,NA,NA,NA,NA,NA,NA,NA
oTtpCm8c,3dw3bnf1hkvs8co26ehcm6ry22mv8w,3b837j3lds9kl9ko2un9rkyox2lrsn,oTtpCm8c,2020-0188,2021-10-31,04:22:37,06:20:19,NA,incomplete,false,true,NA,NA,4,3,NA,yellow,n_l_028.jpg,NA,NA,NA,NA,NA,unpleasant,pleasant,NA,NA,NA,NA,NA,right,1099.5,true,NA,NA,NA,NA,NA,NA,NA,NA
oTtpCm8c,3dw3bnf1hkvs8co26ehcm6ry22mv8w,3b837j3lds9kl9ko2un9rkyox2lrsn,oTtpCm8c,2020-0188,2021-10-31,04:22:37,06:20:19,NA,incomplete,false,true,NA,NA,4,4,NA,yellow,m_s_099.jpg,NA,NA,NA,NA,NA,unpleasant,pleasant,NA,NA,NA,NA,NA,right,1248.90000000224,true,NA,NA,NA,NA,NA,NA,NA,NA
oTtpCm8c,3dw3bnf1hkvs8co26ehcm6ry22mv8w,3b837j3lds9kl9ko2un9rkyox2lrsn,oTtpCm8c,2020-0188,2021-10-31,04:22:37,06:20:19,NA,incomplete,false,true,NA,NA,4,5,NA,yellow,m_s_003.jpg,NA,NA,NA,NA,NA,pleasant,unpleasant,NA,NA,NA,NA,NA,right,1102.09999999776,true,NA,NA,NA,NA,NA,NA,NA,NA
oTtpCm8c,3dw3bnf1hkvs8co26ehcm6ry22mv8w,3b837j3lds9kl9ko2un9rkyox2lrsn,oTtpCm8c,2020-0188,2021-10-31,04:22:37,06:20:19,NA,incomplete,false,true,NA,NA,4,6,NA,black,m_l_006.jpg,NA,NA,NA,NA,NA,pleasant,unpleasant,NA,NA,NA,NA,NA,right,1098.19999999925,true,NA,NA,NA,NA,NA,NA,NA,NA
oTtpCm8c,3dw3bnf1hkvs8co26ehcm6ry22mv8w,3b837j3lds9kl9ko2un9rkyox2lrsn,oTtpCm8c,2020-0188,2021-10-31,04:22:37,06:20:19,NA,incomplete,false,true,NA,NA,4,7,NA,black,m_l_096.jpg,NA,NA,NA,NA,NA,unpleasant,pleasant,NA,NA,NA,NA,NA,right,1071.30000000075,true,NA,NA,NA,NA,NA,NA,NA,NA
oTtpCm8c,3dw3bnf1hkvs8co26ehcm6ry22mv8w,3b837j3lds9kl9ko2un9rkyox2lrsn,oTtpCm8c,2020-0188,2021-10-31,04:22:37,06:20:19,NA,incomplete,false,true,NA,NA,4,8,NA,black,n_l_051.jpg,NA,NA,NA,NA,NA,pleasant,unpleasant,NA,NA,NA,NA,NA,right,1222.30000000075,true,NA,NA,NA,NA,NA,NA,NA,NA
oTtpCm8c,3dw3bnf1hkvs8co26ehcm6ry22mv8w,3b837j3lds9kl9ko2un9rkyox2lrsn,oTtpCm8c,2020-0188,2021-10-31,04:22:37,06:20:19,NA,incomplete,false,true,NA,NA,4,9,NA,black,n_s_026.jpg,NA,NA,NA,NA,NA,unpleasant,pleasant,NA,NA,NA,NA,NA,right,1106.30000000075,true,NA,NA,NA,NA,NA,NA,NA,NA
oTtpCm8c,3dw3bnf1hkvs8co26ehcm6ry22mv8w,3b837j3lds9kl9ko2un9rkyox2lrsn,oTtpCm8c,2020-0188,2021-10-31,04:22:37,06:20:19,NA,incomplete,false,true,NA,NA,4,10,NA,black,m_l_015.jpg,NA,NA,NA,NA,NA,pleasant,unpleasant,NA,NA,NA,NA,NA,right,1095.30000000075,true,NA,NA,NA,NA,NA,NA,NA,NA
oTtpCm8c,3dw3bnf1hkvs8co26ehcm6ry22mv8w,3b837j3lds9kl9ko2un9rkyox2lrsn,oTtpCm8c,2020-0188,2021-10-31,04:22:37,06:20:19,NA,incomplete,false,true,NA,NA,4,11,NA,black,n_l_037.jpg,NA,NA,NA,NA,NA,pleasant,unpleasant,NA,NA,NA,NA,NA,right,1187.69999999925,true,NA,NA,NA,NA,NA,NA,NA,NA
oTtpCm8c,3dw3bnf1hkvs8co26ehcm6ry22mv8w,3b837j3lds9kl9ko2un9rkyox2lrsn,oTtpCm8c,2020-0188,2021-10-31,04:22:37,06:20:19,NA,incomplete,false,true,NA,NA,4,12,NA,green,m_s_078.jpg,NA,NA,NA,NA,NA,pleasant,unpleasant,NA,NA,NA,NA,NA,right,1049.5,true,NA,NA,NA,NA,NA,NA,NA,NA
oTtpCm8c,3dw3bnf1hkvs8co26ehcm6ry22mv8w,3b837j3lds9kl9ko2un9rkyox2lrsn,oTtpCm8c,2020-0188,2021-10-31,04:22:37,06:20:19,NA,incomplete,false,true,NA,NA,4,13,NA,green,n_s_013.jpg,NA,NA,NA,NA,NA,pleasant,unpleasant,NA,NA,NA,NA,NA,right,1157.20000000298,true,NA,NA,NA,NA,NA,NA,NA,NA
oTtpCm8c,3dw3bnf1hkvs8co26ehcm6ry22mv8w,3b837j3lds9kl9ko2un9rkyox2lrsn,oTtpCm8c,2020-0188,2021-10-31,04:22:37,06:20:19,NA,incomplete,false,true,NA,NA,4,14,NA,green,m_l_104.jpg,NA,NA,NA,NA,NA,unpleasant,pleasant,NA,NA,NA,NA,NA,right,1283.5,true,NA,NA,NA,NA,NA,NA,NA,NA
oTtpCm8c,3dw3bnf1hkvs8co26ehcm6ry22mv8w,3b837j3lds9kl9ko2un9rkyox2lrsn,oTtpCm8c,2020-0188,2021-10-31,04:22:37,06:20:19,NA,incomplete,false,true,NA,NA,4,15,NA,green,n_l_098.jpg,NA,NA,NA,NA,NA,unpleasant,pleasant,NA,NA,NA,NA,NA,right,1288.39999999851,true,NA,NA,NA,NA,NA,NA,NA,NA
oTtpCm8c,3dw3bnf1hkvs8co26ehcm6ry22mv8w,3b837j3lds9kl9ko2un9rkyox2lrsn,oTtpCm8c,2020-0188,2021-10-31,04:22:37,06:20:19,NA,incomplete,false,true,NA,NA,4,16,NA,green,n_s_010.jpg,NA,NA,NA,NA,NA,unpleasant,pleasant,NA,NA,NA,NA,NA,right,1086.30000000075,true,NA,NA,NA,NA,NA,NA,NA,NA
oTtpCm8c,3dw3bnf1hkvs8co26ehcm6ry22mv8w,3b837j3lds9kl9ko2un9rkyox2lrsn,oTtpCm8c,2020-0188,2021-10-31,04:22:37,06:20:19,NA,incomplete,false,true,NA,NA,4,17,NA,green,n_l_039.jpg,NA,NA,NA,NA,NA,pleasant,unpleasant,NA,NA,NA,NA,NA,right,972.10000000149,true,NA,NA,NA,NA,NA,NA,NA,NA
oTtpCm8c,3dw3bnf1hkvs8co26ehcm6ry22mv8w,3b837j3lds9kl9ko2un9rkyox2lrsn,oTtpCm8c,2020-0188,2021-10-31,04:22:37,06:20:19,NA,incomplete,false,true,NA,NA,4,18,NA,purple,m_s_066.jpg,NA,NA,NA,NA,NA,pleasant,unpleasant,NA,NA,NA,NA,NA,right,240.699999999255,true,NA,NA,NA,NA,NA,NA,NA,NA
oTtpCm8c,3dw3bnf1hkvs8co26ehcm6ry22mv8w,3b837j3lds9kl9ko2un9rkyox2lrsn,oTtpCm8c,2020-0188,2021-10-31,04:22:37,06:20:19,NA,incomplete,false,true,NA,NA,4,19,NA,purple,n_s_005.jpg,NA,NA,NA,NA,NA,unpleasant,pleasant,NA,NA,NA,NA,NA,right,1166,true,NA,NA,NA,NA,NA,NA,NA,NA
oTtpCm8c,3dw3bnf1hkvs8co26ehcm6ry22mv8w,3b837j3lds9kl9ko2un9rkyox2lrsn,oTtpCm8c,2020-0188,2021-10-31,04:22:37,06:20:19,NA,incomplete,false,true,NA,NA,4,20,NA,purple,n_s_034.jpg,NA,NA,NA,NA,NA,unpleasant,pleasant,NA,NA,NA,NA,NA,right,1211.5,true,NA,NA,NA,NA,NA,NA,NA,NA
oTtpCm8c,3dw3bnf1hkvs8co26ehcm6ry22mv8w,3b837j3lds9kl9ko2un9rkyox2lrsn,oTtpCm8c,2020-0188,2021-10-31,04:22:37,06:20:19,NA,incomplete,false,true,NA,NA,4,21,NA,purple,m_l_042.jpg,NA,NA,NA,NA,NA,unpleasant,pleasant,NA,NA,NA,NA,NA,right,1191.80000000075,true,NA,NA,NA,NA,NA,NA,NA,NA
oTtpCm8c,3dw3bnf1hkvs8co26ehcm6ry22mv8w,3b837j3lds9kl9ko2un9rkyox2lrsn,oTtpCm8c,2020-0188,2021-10-31,04:22:37,06:20:19,NA,incomplete,false,true,NA,NA,4,22,NA,purple,m_s_061.jpg,NA,NA,NA,NA,NA,pleasant,unpleasant,NA,NA,NA,NA,NA,right,1091.69999999925,true,NA,NA,NA,NA,NA,NA,NA,NA
oTtpCm8c,3dw3bnf1hkvs8co26ehcm6ry22mv8w,3b837j3lds9kl9ko2un9rkyox2lrsn,oTtpCm8c,2020-0188,2021-10-31,04:22:37,06:20:19,NA,incomplete,false,true,NA,NA,4,23,NA,purple,m_l_013.jpg,NA,NA,NA,NA,NA,unpleasant,pleasant,NA,NA,NA,NA,NA,right,1058.40000000224,true,NA,NA,NA,NA,NA,NA,NA,NA
oTtpCm8c,3dw3bnf1hkvs8co26ehcm6ry22mv8w,3b837j3lds9kl9ko2un9rkyox2lrsn,oTtpCm8c,2020-0188,2021-10-31,04:22:37,06:20:19,NA,incomplete,false,true,NA,NA,4,24,NA,red,n_l_027.jpg,NA,NA,NA,NA,NA,pleasant,unpleasant,NA,NA,NA,NA,NA,right,1087,true,NA,NA,NA,NA,NA,NA,NA,NA
oTtpCm8c,3dw3bnf1hkvs8co26ehcm6ry22mv8w,3b837j3lds9kl9ko2un9rkyox2lrsn,oTtpCm8c,2020-0188,2021-10-31,04:22:37,06:20:19,NA,incomplete,false,true,NA,NA,4,25,NA,red,n_l_082.jpg,NA,NA,NA,NA,NA,pleasant,unpleasant,NA,NA,NA,NA,NA,right,1115.5,true,NA,NA,NA,NA,NA,NA,NA,NA
oTtpCm8c,3dw3bnf1hkvs8co26ehcm6ry22mv8w,3b837j3lds9kl9ko2un9rkyox2lrsn,oTtpCm8c,2020-0188,2021-10-31,04:22:37,06:20:19,NA,incomplete,false,true,NA,NA,4,26,NA,red,n_l_045.jpg,NA,NA,NA,NA,NA,unpleasant,pleasant,NA,NA,NA,NA,NA,right,1058,true,NA,NA,NA,NA,NA,NA,NA,NA
oTtpCm8c,3dw3bnf1hkvs8co26ehcm6ry22mv8w,3b837j3lds9kl9ko2un9rkyox2lrsn,oTtpCm8c,2020-0188,2021-10-31,04:22:37,06:20:19,NA,incomplete,false,true,NA,NA,4,27,NA,red,n_s_017.jpg,NA,NA,NA,NA,NA,pleasant,unpleasant,NA,NA,NA,NA,NA,right,1102.59999999776,true,NA,NA,NA,NA,NA,NA,NA,NA
oTtpCm8c,3dw3bnf1hkvs8co26ehcm6ry22mv8w,3b837j3lds9kl9ko2un9rkyox2lrsn,oTtpCm8c,2020-0188,2021-10-31,04:22:37,06:20:19,NA,incomplete,false,true,NA,NA,4,28,NA,red,n_l_094.jpg,NA,NA,NA,NA,NA,unpleasant,pleasant,NA,NA,NA,NA,NA,right,1116.19999999925,true,NA,NA,NA,NA,NA,NA,NA,NA
oTtpCm8c,3dw3bnf1hkvs8co26ehcm6ry22mv8w,3b837j3lds9kl9ko2un9rkyox2lrsn,oTtpCm8c,2020-0188,2021-10-31,04:22:37,06:20:19,NA,incomplete,false,true,NA,NA,4,29,NA,red,n_s_058.jpg,NA,NA,NA,NA,NA,unpleasant,pleasant,NA,NA,NA,NA,NA,right,1065.30000000075,true,NA,NA,NA,NA,NA,NA,NA,NA
oTtpCm8c,3dw3bnf1hkvs8co26ehcm6ry22mv8w,3b837j3lds9kl9ko2un9rkyox2lrsn,oTtpCm8c,2020-0188,2021-10-31,04:22:37,06:20:19,NA,incomplete,false,true,NA,NA,4,30,NA,brown,m_s_071.jpg,NA,NA,NA,NA,NA,unpleasant,pleasant,NA,NA,NA,NA,NA,right,1101.69999999925,true,NA,NA,NA,NA,NA,NA,NA,NA
oTtpCm8c,3dw3bnf1hkvs8co26ehcm6ry22mv8w,3b837j3lds9kl9ko2un9rkyox2lrsn,oTtpCm8c,2020-0188,2021-10-31,04:22:37,06:20:19,NA,incomplete,false,true,NA,NA,4,31,NA,brown,n_l_072.jpg,NA,NA,NA,NA,NA,pleasant,unpleasant,NA,NA,NA,NA,NA,right,1332,true,NA,NA,NA,NA,NA,NA,NA,NA
oTtpCm8c,3dw3bnf1hkvs8co26ehcm6ry22mv8w,3b837j3lds9kl9ko2un9rkyox2lrsn,oTtpCm8c,2020-0188,2021-10-31,04:22:37,06:20:19,NA,incomplete,false,true,NA,NA,4,32,NA,brown,n_s_008.jpg,NA,NA,NA,NA,NA,unpleasant,pleasant,NA,NA,NA,NA,NA,right,1097.69999999925,true,NA,NA,NA,NA,NA,NA,NA,NA
oTtpCm8c,3dw3bnf1hkvs8co26ehcm6ry22mv8w,3b837j3lds9kl9ko2un9rkyox2lrsn,oTtpCm8c,2020-0188,2021-10-31,04:22:37,06:20:19,NA,incomplete,false,true,NA,NA,4,33,NA,brown,n_s_097.jpg,NA,NA,NA,NA,NA,pleasant,unpleasant,NA,NA,NA,NA,NA,right,1637.60000000149,true,NA,NA,NA,NA,NA,NA,NA,NA
oTtpCm8c,3dw3bnf1hkvs8co26ehcm6ry22mv8w,3b837j3lds9kl9ko2un9rkyox2lrsn,oTtpCm8c,2020-0188,2021-10-31,04:22:37,06:20:19,NA,incomplete,false,true,NA,NA,4,34,NA,brown,m_s_109.jpg,NA,NA,NA,NA,NA,pleasant,unpleasant,NA,NA,NA,NA,NA,right,1388.10000000149,true,NA,NA,NA,NA,NA,NA,NA,NA
oTtpCm8c,3dw3bnf1hkvs8co26ehcm6ry22mv8w,3b837j3lds9kl9ko2un9rkyox2lrsn,oTtpCm8c,2020-0188,2021-10-31,04:22:37,06:20:19,NA,incomplete,false,true,NA,NA,4,35,NA,brown,m_l_074.jpg,NA,NA,NA,NA,NA,pleasant,unpleasant,NA,NA,NA,NA,NA,right,1561.90000000224,true,NA,NA,NA,NA,NA,NA,NA,NA
oTtpCm8c,3dw3bnf1hkvs8co26ehcm6ry22mv8w,3b837j3lds9kl9ko2un9rkyox2lrsn,oTtpCm8c,2020-0188,2021-10-31,04:22:37,06:20:19,NA,incomplete,false,NA,NA,true,4,0,NA,NA,NA,left,m_l_015.jpg,black,yellow,NA,NA,NA,NA,NA,NA,NA,NA,NA,NaN,NA,7727.10000000149,left,1,NA,NA,NA,NA,NA
oTtpCm8c,3dw3bnf1hkvs8co26ehcm6ry22mv8w,3b837j3lds9kl9ko2un9rkyox2lrsn,oTtpCm8c,2020-0188,2021-10-31,04:22:37,06:20:19,NA,incomplete,false,NA,NA,true,4,1,NA,NA,NA,right,n_s_010.jpg,purple,green,NA,NA,NA,NA,NA,NA,NA,NA,NA,NaN,NA,18143.300000000745,right,1,NA,NA,NA,NA,NA
oTtpCm8c,3dw3bnf1hkvs8co26ehcm6ry22mv8w,3b837j3lds9kl9ko2un9rkyox2lrsn,oTtpCm8c,2020-0188,2021-10-31,04:22:37,06:20:19,NA,incomplete,false,NA,NA,true,4,2,NA,NA,NA,right,n_l_094.jpg,brown,red,NA,NA,NA,NA,NA,NA,NA,NA,NA,NaN,NA,9223.300000000745,right,1,NA,NA,NA,NA,NA
oTtpCm8c,3dw3bnf1hkvs8co26ehcm6ry22mv8w,3b837j3lds9kl9ko2un9rkyox2lrsn,oTtpCm8c,2020-0188,2021-10-31,04:22:37,06:20:19,NA,incomplete,false,NA,NA,true,4,3,NA,NA,NA,left,n_l_037.jpg,black,green,NA,NA,NA,NA,NA,NA,NA,NA,NA,NaN,NA,12583.300000000745,left,1,NA,NA,NA,NA,NA
oTtpCm8c,3dw3bnf1hkvs8co26ehcm6ry22mv8w,3b837j3lds9kl9ko2un9rkyox2lrsn,oTtpCm8c,2020-0188,2021-10-31,04:22:37,06:20:19,NA,incomplete,false,NA,NA,true,4,4,NA,NA,NA,left,n_s_034.jpg,purple,red,NA,NA,NA,NA,NA,NA,NA,NA,NA,NaN,NA,8222.89999999851,left,1,NA,NA,NA,NA,NA
oTtpCm8c,3dw3bnf1hkvs8co26ehcm6ry22mv8w,3b837j3lds9kl9ko2un9rkyox2lrsn,oTtpCm8c,2020-0188,2021-10-31,04:22:37,06:20:19,NA,incomplete,false,NA,NA,true,4,5,NA,NA,NA,right,n_l_082.jpg,brown,red,NA,NA,NA,NA,NA,NA,NA,NA,NA,NaN,NA,6095,right,1,NA,NA,NA,NA,NA
oTtpCm8c,3dw3bnf1hkvs8co26ehcm6ry22mv8w,3b837j3lds9kl9ko2un9rkyox2lrsn,oTtpCm8c,2020-0188,2021-10-31,04:22:37,06:20:19,NA,incomplete,false,NA,NA,true,4,6,NA,NA,NA,right,n_l_039.jpg,black,green,NA,NA,NA,NA,NA,NA,NA,NA,NA,NaN,NA,3927.199999999255,right,1,NA,NA,NA,NA,NA
oTtpCm8c,3dw3bnf1hkvs8co26ehcm6ry22mv8w,3b837j3lds9kl9ko2un9rkyox2lrsn,oTtpCm8c,2020-0188,2021-10-31,04:22:37,06:20:19,NA,incomplete,false,NA,NA,true,4,7,NA,NA,NA,right,m_l_096.jpg,green,black,NA,NA,NA,NA,NA,NA,NA,NA,NA,NaN,NA,10287.5,right,1,NA,NA,NA,NA,NA
oTtpCm8c,3dw3bnf1hkvs8co26ehcm6ry22mv8w,3b837j3lds9kl9ko2un9rkyox2lrsn,oTtpCm8c,2020-0188,2021-10-31,04:22:37,06:20:19,NA,incomplete,false,NA,NA,true,4,8,NA,NA,NA,left,n_l_051.jpg,black,green,NA,NA,NA,NA,NA,NA,NA,NA,NA,NaN,NA,4647.099999997765,left,1,NA,NA,NA,NA,NA
oTtpCm8c,3dw3bnf1hkvs8co26ehcm6ry22mv8w,3b837j3lds9kl9ko2un9rkyox2lrsn,oTtpCm8c,2020-0188,2021-10-31,04:22:37,06:20:19,NA,incomplete,false,NA,NA,true,4,9,NA,NA,NA,right,m_s_099.jpg,black,yellow,NA,NA,NA,NA,NA,NA,NA,NA,NA,NaN,NA,3199.300000000745,left,0,NA,NA,NA,NA,NA
oTtpCm8c,3dw3bnf1hkvs8co26ehcm6ry22mv8w,3b837j3lds9kl9ko2un9rkyox2lrsn,oTtpCm8c,2020-0188,2021-10-31,04:22:37,06:20:19,NA,incomplete,false,NA,NA,true,4,10,NA,NA,NA,right,n_s_005.jpg,green,purple,NA,NA,NA,NA,NA,NA,NA,NA,NA,NaN,NA,3215.199999999255,right,1,NA,NA,NA,NA,NA
oTtpCm8c,3dw3bnf1hkvs8co26ehcm6ry22mv8w,3b837j3lds9kl9ko2un9rkyox2lrsn,oTtpCm8c,2020-0188,2021-10-31,04:22:37,06:20:19,NA,incomplete,false,NA,NA,true,4,11,NA,NA,NA,right,m_l_074.jpg,red,brown,NA,NA,NA,NA,NA,NA,NA,NA,NA,NaN,NA,3607.300000000745,right,1,NA,NA,NA,NA,NA
oTtpCm8c,3dw3bnf1hkvs8co26ehcm6ry22mv8w,3b837j3lds9kl9ko2un9rkyox2lrsn,oTtpCm8c,2020-0188,2021-10-31,04:22:37,06:20:19,NA,incomplete,false,NA,NA,true,4,12,NA,NA,NA,right,m_s_061.jpg,green,purple,NA,NA,NA,NA,NA,NA,NA,NA,NA,NaN,NA,2543.199999999255,left,0,NA,NA,NA,NA,NA
oTtpCm8c,3dw3bnf1hkvs8co26ehcm6ry22mv8w,3b837j3lds9kl9ko2un9rkyox2lrsn,oTtpCm8c,2020-0188,2021-10-31,04:22:37,06:20:19,NA,incomplete,false,NA,NA,true,4,13,NA,NA,NA,left,n_s_058.jpg,red,purple,NA,NA,NA,NA,NA,NA,NA,NA,NA,NaN,NA,4583.10000000149,right,0,NA,NA,NA,NA,NA
oTtpCm8c,3dw3bnf1hkvs8co26ehcm6ry22mv8w,3b837j3lds9kl9ko2un9rkyox2lrsn,oTtpCm8c,2020-0188,2021-10-31,04:22:37,06:20:19,NA,incomplete,false,NA,NA,true,4,14,NA,NA,NA,right,n_l_045.jpg,purple,red,NA,NA,NA,NA,NA,NA,NA,NA,NA,NaN,NA,11415.099999997765,right,1,NA,NA,NA,NA,NA
oTtpCm8c,3dw3bnf1hkvs8co26ehcm6ry22mv8w,3b837j3lds9kl9ko2un9rkyox2lrsn,oTtpCm8c,2020-0188,2021-10-31,04:22:37,06:20:19,NA,incomplete,false,NA,NA,true,4,15,NA,NA,NA,left,m_l_104.jpg,green,black,NA,NA,NA,NA,NA,NA,NA,NA,NA,NaN,NA,2926.800000000745,left,1,NA,NA,NA,NA,NA
oTtpCm8c,3dw3bnf1hkvs8co26ehcm6ry22mv8w,3b837j3lds9kl9ko2un9rkyox2lrsn,oTtpCm8c,2020-0188,2021-10-31,04:22:37,06:20:19,NA,incomplete,false,NA,NA,true,4,16,NA,NA,NA,left,n_s_105.jpg,yellow,black,NA,NA,NA,NA,NA,NA,NA,NA,NA,NaN,NA,15671.199999999255,left,1,NA,NA,NA,NA,NA
oTtpCm8c,3dw3bnf1hkvs8co26ehcm6ry22mv8w,3b837j3lds9kl9ko2un9rkyox2lrsn,oTtpCm8c,2020-0188,2021-10-31,04:22:37,06:20:19,NA,incomplete,false,NA,NA,true,4,17,NA,NA,NA,right,n_s_008.jpg,red,brown,NA,NA,NA,NA,NA,NA,NA,NA,NA,NaN,NA,20279.20000000298,right,1,NA,NA,NA,NA,NA
oTtpCm8c,3dw3bnf1hkvs8co26ehcm6ry22mv8w,3b837j3lds9kl9ko2un9rkyox2lrsn,oTtpCm8c,2020-0188,2021-10-31,04:22:37,06:20:19,NA,incomplete,false,NA,NA,true,4,18,NA,NA,NA,right,n_s_013.jpg,purple,green,NA,NA,NA,NA,NA,NA,NA,NA,NA,NaN,NA,10655.10000000149,right,1,NA,NA,NA,NA,NA
oTtpCm8c,3dw3bnf1hkvs8co26ehcm6ry22mv8w,3b837j3lds9kl9ko2un9rkyox2lrsn,oTtpCm8c,2020-0188,2021-10-31,04:22:37,06:20:19,NA,incomplete,false,NA,NA,true,4,19,NA,NA,NA,left,m_s_003.jpg,yellow,black,NA,NA,NA,NA,NA,NA,NA,NA,NA,NaN,NA,10767.10000000149,left,1,NA,NA,NA,NA,NA
oTtpCm8c,3dw3bnf1hkvs8co26ehcm6ry22mv8w,3b837j3lds9kl9ko2un9rkyox2lrsn,oTtpCm8c,2020-0188,2021-10-31,04:22:37,06:20:19,NA,incomplete,false,NA,NA,true,4,20,NA,NA,NA,right,n_l_072.jpg,red,brown,NA,NA,NA,NA,NA,NA,NA,NA,NA,NaN,NA,2814.800000000745,right,1,NA,NA,NA,NA,NA
oTtpCm8c,3dw3bnf1hkvs8co26ehcm6ry22mv8w,3b837j3lds9kl9ko2un9rkyox2lrsn,oTtpCm8c,2020-0188,2021-10-31,04:22:37,06:20:19,NA,incomplete,false,NA,NA,true,4,21,NA,NA,NA,right,m_l_013.jpg,red,purple,NA,NA,NA,NA,NA,NA,NA,NA,NA,NaN,NA,3191.199999999255,left,0,NA,NA,NA,NA,NA
oTtpCm8c,3dw3bnf1hkvs8co26ehcm6ry22mv8w,3b837j3lds9kl9ko2un9rkyox2lrsn,oTtpCm8c,2020-0188,2021-10-31,04:22:37,06:20:19,NA,incomplete,false,NA,true,NA,4,0,NA,NA,NA,right,NA,NA,NA,absent,NA,NA,n_l_037.jpg,black,m_l_096.jpg,black,within,NA,NaN,NA,NA,NA,NA,right,20118.300000000745,1,3,1143.5
oTtpCm8c,3dw3bnf1hkvs8co26ehcm6ry22mv8w,3b837j3lds9kl9ko2un9rkyox2lrsn,oTtpCm8c,2020-0188,2021-10-31,04:22:37,06:20:19,NA,incomplete,false,NA,true,NA,4,1,NA,NA,NA,right,NA,NA,NA,absent,NA,NA,m_l_074.jpg,brown,n_l_072.jpg,brown,within,NA,NaN,NA,NA,NA,NA,right,2983.300000000745,1,1,1647.3999999985099
oTtpCm8c,3dw3bnf1hkvs8co26ehcm6ry22mv8w,3b837j3lds9kl9ko2un9rkyox2lrsn,oTtpCm8c,2020-0188,2021-10-31,04:22:37,06:20:19,NA,incomplete,false,NA,true,NA,4,2,NA,NA,NA,left,NA,NA,NA,absent,NA,NA,n_l_082.jpg,red,n_s_058.jpg,red,within,NA,NaN,NA,NA,NA,NA,left,32127.10000000149,1,2,1831.2999999970198
oTtpCm8c,3dw3bnf1hkvs8co26ehcm6ry22mv8w,3b837j3lds9kl9ko2un9rkyox2lrsn,oTtpCm8c,2020-0188,2021-10-31,04:22:37,06:20:19,NA,incomplete,false,NA,true,NA,4,3,NA,NA,NA,left,NA,NA,NA,absent,NA,NA,n_s_013.jpg,green,n_l_039.jpg,green,within,NA,NaN,NA,NA,NA,NA,left,17775.300000000745,1,3,4031.199999999255
oTtpCm8c,3dw3bnf1hkvs8co26ehcm6ry22mv8w,3b837j3lds9kl9ko2un9rkyox2lrsn,oTtpCm8c,2020-0188,2021-10-31,04:22:37,06:20:19,NA,incomplete,false,NA,true,NA,4,4,NA,NA,NA,right,NA,NA,NA,absent,NA,NA,m_s_003.jpg,yellow,n_s_105.jpg,yellow,within,NA,NaN,NA,NA,NA,NA,right,6887.20000000298,1,2,1191.5
oTtpCm8c,3dw3bnf1hkvs8co26ehcm6ry22mv8w,3b837j3lds9kl9ko2un9rkyox2lrsn,oTtpCm8c,2020-0188,2021-10-31,04:22:37,06:20:19,NA,incomplete,false,NA,true,NA,4,5,NA,NA,NA,right,NA,NA,NA,absent,NA,NA,n_l_051.jpg,black,m_s_099.jpg,yellow,between,NA,NaN,NA,NA,NA,NA,right,9023.300000000745,1,2,2703.2000000029802
oTtpCm8c,3dw3bnf1hkvs8co26ehcm6ry22mv8w,3b837j3lds9kl9ko2un9rkyox2lrsn,oTtpCm8c,2020-0188,2021-10-31,04:22:37,06:20:19,NA,incomplete,false,NA,true,NA,4,6,NA,NA,NA,left,NA,NA,NA,absent,NA,NA,m_s_061.jpg,purple,n_l_045.jpg,red,between,NA,NaN,NA,NA,NA,NA,left,23815.29999999702,1,2,2303.2999999970198
oTtpCm8c,3dw3bnf1hkvs8co26ehcm6ry22mv8w,3b837j3lds9kl9ko2un9rkyox2lrsn,oTtpCm8c,2020-0188,2021-10-31,04:22:37,06:20:19,NA,incomplete,false,NA,true,NA,4,7,NA,NA,NA,right,NA,NA,NA,absent,NA,NA,n_s_008.jpg,brown,n_l_094.jpg,red,between,NA,NaN,NA,NA,NA,NA,left,13095.300000000745,0,2,1943.2999999970198
oTtpCm8c,3dw3bnf1hkvs8co26ehcm6ry22mv8w,3b837j3lds9kl9ko2un9rkyox2lrsn,oTtpCm8c,2020-0188,2021-10-31,04:22:37,06:20:19,NA,incomplete,false,NA,true,NA,4,8,NA,NA,NA,right,NA,NA,NA,absent,NA,NA,m_l_013.jpg,purple,n_s_005.jpg,purple,within,NA,NaN,NA,NA,NA,NA,right,18607.10000000149,1,2,1335.199999999255
oTtpCm8c,3dw3bnf1hkvs8co26ehcm6ry22mv8w,3b837j3lds9kl9ko2un9rkyox2lrsn,oTtpCm8c,2020-0188,2021-10-31,04:22:37,06:20:19,NA,incomplete,false,NA,true,NA,4,9,NA,NA,NA,right,NA,NA,NA,absent,NA,NA,n_s_034.jpg,purple,n_s_010.jpg,green,between,NA,NaN,NA,NA,NA,NA,right,7255.10000000149,1,3,1991.2000000029802
oTtpCm8c,3dw3bnf1hkvs8co26ehcm6ry22mv8w,3b837j3lds9kl9ko2un9rkyox2lrsn,oTtpCm8c,2020-0188,2021-10-31,04:22:37,06:20:19,NA,incomplete,false,NA,true,NA,4,10,NA,NA,NA,left,NA,NA,NA,absent,NA,NA,m_l_015.jpg,black,m_l_104.jpg,green,between,NA,NaN,NA,NA,NA,NA,left,6487.599999997765,1,2,1311.3999999985099
oTtpCm8c,3dw3bnf1hkvs8co26ehcm6ry22mv8w,3b837j3lds9kl9ko2un9rkyox2lrsn,oTtpCm8c,2020-0188,2021-10-31,04:22:37,06:20:19,NA,incomplete,false,true,NA,NA,5,0,NA,purple,m_l_083.jpg,NA,NA,NA,NA,NA,pleasant,unpleasant,NA,NA,NA,NA,NA,left,2600,true,NA,NA,NA,NA,NA,NA,NA,NA
oTtpCm8c,3dw3bnf1hkvs8co26ehcm6ry22mv8w,3b837j3lds9kl9ko2un9rkyox2lrsn,oTtpCm8c,2020-0188,2021-10-31,04:22:37,06:20:19,NA,incomplete,false,true,NA,NA,5,1,NA,purple,n_s_085.jpg,NA,NA,NA,NA,NA,unpleasant,pleasant,NA,NA,NA,NA,NA,right,1276.60000000149,true,NA,NA,NA,NA,NA,NA,NA,NA
oTtpCm8c,3dw3bnf1hkvs8co26ehcm6ry22mv8w,3b837j3lds9kl9ko2un9rkyox2lrsn,oTtpCm8c,2020-0188,2021-10-31,04:22:37,06:20:19,NA,incomplete,false,true,NA,NA,5,2,NA,purple,n_s_116.jpg,NA,NA,NA,NA,NA,pleasant,unpleasant,NA,NA,NA,NA,NA,right,1306.09999999776,true,NA,NA,NA,NA,NA,NA,NA,NA
oTtpCm8c,3dw3bnf1hkvs8co26ehcm6ry22mv8w,3b837j3lds9kl9ko2un9rkyox2lrsn,oTtpCm8c,2020-0188,2021-10-31,04:22:37,06:20:19,NA,incomplete,false,true,NA,NA,5,3,NA,purple,m_s_009.jpg,NA,NA,NA,NA,NA,pleasant,unpleasant,NA,NA,NA,NA,NA,right,1062.30000000075,true,NA,NA,NA,NA,NA,NA,NA,NA
oTtpCm8c,3dw3bnf1hkvs8co26ehcm6ry22mv8w,3b837j3lds9kl9ko2un9rkyox2lrsn,oTtpCm8c,2020-0188,2021-10-31,04:22:37,06:20:19,NA,incomplete,false,true,NA,NA,5,4,NA,purple,n_l_061.jpg,NA,NA,NA,NA,NA,pleasant,unpleasant,NA,NA,NA,NA,NA,right,1076.19999999925,true,NA,NA,NA,NA,NA,NA,NA,NA
oTtpCm8c,3dw3bnf1hkvs8co26ehcm6ry22mv8w,3b837j3lds9kl9ko2un9rkyox2lrsn,oTtpCm8c,2020-0188,2021-10-31,04:22:37,06:20:19,NA,incomplete,false,true,NA,NA,5,5,NA,purple,n_l_026.jpg,NA,NA,NA,NA,NA,unpleasant,pleasant,NA,NA,NA,NA,NA,right,1224.10000000149,true,NA,NA,NA,NA,NA,NA,NA,NA
oTtpCm8c,3dw3bnf1hkvs8co26ehcm6ry22mv8w,3b837j3lds9kl9ko2un9rkyox2lrsn,oTtpCm8c,2020-0188,2021-10-31,04:22:37,06:20:19,NA,incomplete,false,true,NA,NA,5,6,NA,black,m_s_115.jpg,NA,NA,NA,NA,NA,unpleasant,pleasant,NA,NA,NA,NA,NA,right,1358.69999999925,true,NA,NA,NA,NA,NA,NA,NA,NA
oTtpCm8c,3dw3bnf1hkvs8co26ehcm6ry22mv8w,3b837j3lds9kl9ko2un9rkyox2lrsn,oTtpCm8c,2020-0188,2021-10-31,04:22:37,06:20:19,NA,incomplete,false,true,NA,NA,5,7,NA,black,m_s_047.jpg,NA,NA,NA,NA,NA,pleasant,unpleasant,NA,NA,NA,NA,NA,right,1074,true,NA,NA,NA,NA,NA,NA,NA,NA
oTtpCm8c,3dw3bnf1hkvs8co26ehcm6ry22mv8w,3b837j3lds9kl9ko2un9rkyox2lrsn,oTtpCm8c,2020-0188,2021-10-31,04:22:37,06:20:19,NA,incomplete,false,true,NA,NA,5,8,NA,black,m_s_090.jpg,NA,NA,NA,NA,NA,unpleasant,pleasant,NA,NA,NA,NA,NA,right,1111.5,true,NA,NA,NA,NA,NA,NA,NA,NA
oTtpCm8c,3dw3bnf1hkvs8co26ehcm6ry22mv8w,3b837j3lds9kl9ko2un9rkyox2lrsn,oTtpCm8c,2020-0188,2021-10-31,04:22:37,06:20:19,NA,incomplete,false,true,NA,NA,5,9,NA,black,m_l_061.jpg,NA,NA,NA,NA,NA,pleasant,unpleasant,NA,NA,NA,NA,NA,right,1309.5,true,NA,NA,NA,NA,NA,NA,NA,NA
oTtpCm8c,3dw3bnf1hkvs8co26ehcm6ry22mv8w,3b837j3lds9kl9ko2un9rkyox2lrsn,oTtpCm8c,2020-0188,2021-10-31,04:22:37,06:20:19,NA,incomplete,false,true,NA,NA,5,10,NA,black,m_l_089.jpg,NA,NA,NA,NA,NA,pleasant,unpleasant,NA,NA,NA,NA,NA,right,953.20000000298,true,NA,NA,NA,NA,NA,NA,NA,NA
oTtpCm8c,3dw3bnf1hkvs8co26ehcm6ry22mv8w,3b837j3lds9kl9ko2un9rkyox2lrsn,oTtpCm8c,2020-0188,2021-10-31,04:22:37,06:20:19,NA,incomplete,false,true,NA,NA,5,11,NA,black,m_l_097.jpg,NA,NA,NA,NA,NA,pleasant,unpleasant,NA,NA,NA,NA,NA,right,1031.69999999925,true,NA,NA,NA,NA,NA,NA,NA,NA
oTtpCm8c,3dw3bnf1hkvs8co26ehcm6ry22mv8w,3b837j3lds9kl9ko2un9rkyox2lrsn,oTtpCm8c,2020-0188,2021-10-31,04:22:37,06:20:19,NA,incomplete,false,true,NA,NA,5,12,NA,blue,m_l_073.jpg,NA,NA,NA,NA,NA,pleasant,unpleasant,NA,NA,NA,NA,NA,right,1205.19999999925,true,NA,NA,NA,NA,NA,NA,NA,NA
oTtpCm8c,3dw3bnf1hkvs8co26ehcm6ry22mv8w,3b837j3lds9kl9ko2un9rkyox2lrsn,oTtpCm8c,2020-0188,2021-10-31,04:22:37,06:20:19,NA,incomplete,false,true,NA,NA,5,13,NA,blue,m_s_039.jpg,NA,NA,NA,NA,NA,unpleasant,pleasant,NA,NA,NA,NA,NA,right,1201.5,true,NA,NA,NA,NA,NA,NA,NA,NA
oTtpCm8c,3dw3bnf1hkvs8co26ehcm6ry22mv8w,3b837j3lds9kl9ko2un9rkyox2lrsn,oTtpCm8c,2020-0188,2021-10-31,04:22:37,06:20:19,NA,incomplete,false,true,NA,NA,5,14,NA,blue,n_s_077.jpg,NA,NA,NA,NA,NA,unpleasant,pleasant,NA,NA,NA,NA,NA,right,1094.09999999776,true,NA,NA,NA,NA,NA,NA,NA,NA
oTtpCm8c,3dw3bnf1hkvs8co26ehcm6ry22mv8w,3b837j3lds9kl9ko2un9rkyox2lrsn,oTtpCm8c,2020-0188,2021-10-31,04:22:37,06:20:19,NA,incomplete,false,true,NA,NA,5,15,NA,blue,m_l_027.jpg,NA,NA,NA,NA,NA,unpleasant,pleasant,NA,NA,NA,NA,NA,right,1268.80000000075,true,NA,NA,NA,NA,NA,NA,NA,NA
