workerId,hitId,assignmentId,subject,studyid,exp_date,exp_start,exp_end,time_start,time_end,practice,encoding,memory,association,block,trial,event_order,event,stim,answer,object,left_context,right_context,context_type,label_left,label_right,left_image,left_event,right_image,right_event,condition,response,response_time,response_acc,association_response_time,association_response,association_acc,order_response,order_response_time,order_acc,distance_response,distance_response_time
GAfb8P1N,3dw3bnf1hkvs8co26ehcm6ry22mv8w,3cfjtt4sxx3l9cxdo4vpi111nsl7i8,GAfb8P1N,2020-0188,2021-10-31,02:27:23,03:39:30,NA,incomplete,true,true,NA,NA,0,0,NA,green,m_s_058.jpg,NA,NA,NA,NA,NA,pleasant,unpleasant,NA,NA,NA,NA,NA,left,2748.7000002861,true,NA,NA,NA,NA,NA,NA,NA,NA
GAfb8P1N,3dw3bnf1hkvs8co26ehcm6ry22mv8w,3cfjtt4sxx3l9cxdo4vpi111nsl7i8,GAfb8P1N,2020-0188,2021-10-31,02:27:23,03:39:30,NA,incomplete,true,true,NA,NA,0,1,NA,green,n_s_034.jpg,NA,NA,NA,NA,NA,unpleasant,pleasant,NA,NA,NA,NA,NA,none,0,false,NA,NA,NA,NA,NA,NA,NA,NA
GAfb8P1N,3dw3bnf1hkvs8co26ehcm6ry22mv8w,3cfjtt4sxx3l9cxdo4vpi111nsl7i8,GAfb8P1N,2020-0188,2021-10-31,02:27:23,03:39:30,NA,incomplete,true,true,NA,NA,0,2,NA,green,n_l_043.jpg,NA,NA,NA,NA,NA,unpleasant,pleasant,NA,NA,NA,NA,NA,right,1766.5,true,NA,NA,NA,NA,NA,NA,NA,NA
GAfb8P1N,3dw3bnf1hkvs8co26ehcm6ry22mv8w,3cfjtt4sxx3l9cxdo4vpi111nsl7i8,GAfb8P1N,2020-0188,2021-10-31,02:27:23,03:39:30,NA,incomplete,true,true,NA,NA,0,3,NA,green,m_l_087.jpg,NA,NA,NA,NA,NA,unpleasant,pleasant,NA,NA,NA,NA,NA,right,1686.69999980927,true,NA,NA,NA,NA,NA,NA,NA,NA
GAfb8P1N,3dw3bnf1hkvs8co26ehcm6ry22mv8w,3cfjtt4sxx3l9cxdo4vpi111nsl7i8,GAfb8P1N,2020-0188,2021-10-31,02:27:23,03:39:30,NA,incomplete,true,true,NA,NA,0,4,NA,green,m_l_003.jpg,NA,NA,NA,NA,NA,unpleasant,pleasant,NA,NA,NA,NA,NA,right,1628.69999980927,true,NA,NA,NA,NA,NA,NA,NA,NA
GAfb8P1N,3dw3bnf1hkvs8co26ehcm6ry22mv8w,3cfjtt4sxx3l9cxdo4vpi111nsl7i8,GAfb8P1N,2020-0188,2021-10-31,02:27:23,03:39:30,NA,incomplete,true,true,NA,NA,0,5,NA,green,n_s_056.jpg,NA,NA,NA,NA,NA,pleasant,unpleasant,NA,NA,NA,NA,NA,left,1861.2000002861,true,NA,NA,NA,NA,NA,NA,NA,NA
GAfb8P1N,3dw3bnf1hkvs8co26ehcm6ry22mv8w,3cfjtt4sxx3l9cxdo4vpi111nsl7i8,GAfb8P1N,2020-0188,2021-10-31,02:27:23,03:39:30,NA,incomplete,true,true,NA,NA,0,6,NA,white,m_s_005.jpg,NA,NA,NA,NA,NA,unpleasant,pleasant,NA,NA,NA,NA,NA,right,2418.80000019073,true,NA,NA,NA,NA,NA,NA,NA,NA
GAfb8P1N,3dw3bnf1hkvs8co26ehcm6ry22mv8w,3cfjtt4sxx3l9cxdo4vpi111nsl7i8,GAfb8P1N,2020-0188,2021-10-31,02:27:23,03:39:30,NA,incomplete,true,true,NA,NA,0,7,NA,white,n_l_014.jpg,NA,NA,NA,NA,NA,pleasant,unpleasant,NA,NA,NA,NA,NA,none,0,false,NA,NA,NA,NA,NA,NA,NA,NA
GAfb8P1N,3dw3bnf1hkvs8co26ehcm6ry22mv8w,3cfjtt4sxx3l9cxdo4vpi111nsl7i8,GAfb8P1N,2020-0188,2021-10-31,02:27:23,03:39:30,NA,incomplete,true,true,NA,NA,0,8,NA,white,n_s_032.jpg,NA,NA,NA,NA,NA,pleasant,unpleasant,NA,NA,NA,NA,NA,left,2135.59999990463,true,NA,NA,NA,NA,NA,NA,NA,NA
GAfb8P1N,3dw3bnf1hkvs8co26ehcm6ry22mv8w,3cfjtt4sxx3l9cxdo4vpi111nsl7i8,GAfb8P1N,2020-0188,2021-10-31,02:27:23,03:39:30,NA,incomplete,true,true,NA,NA,0,9,NA,white,m_l_034.jpg,NA,NA,NA,NA,NA,unpleasant,pleasant,NA,NA,NA,NA,NA,right,1986,true,NA,NA,NA,NA,NA,NA,NA,NA
GAfb8P1N,3dw3bnf1hkvs8co26ehcm6ry22mv8w,3cfjtt4sxx3l9cxdo4vpi111nsl7i8,GAfb8P1N,2020-0188,2021-10-31,02:27:23,03:39:30,NA,incomplete,true,true,NA,NA,0,10,NA,white,m_s_048.jpg,NA,NA,NA,NA,NA,unpleasant,pleasant,NA,NA,NA,NA,NA,right,1374.80000019073,true,NA,NA,NA,NA,NA,NA,NA,NA
GAfb8P1N,3dw3bnf1hkvs8co26ehcm6ry22mv8w,3cfjtt4sxx3l9cxdo4vpi111nsl7i8,GAfb8P1N,2020-0188,2021-10-31,02:27:23,03:39:30,NA,incomplete,true,true,NA,NA,0,11,NA,white,n_l_104.jpg,NA,NA,NA,NA,NA,pleasant,unpleasant,NA,NA,NA,NA,NA,left,2390.90000009537,true,NA,NA,NA,NA,NA,NA,NA,NA
GAfb8P1N,3dw3bnf1hkvs8co26ehcm6ry22mv8w,3cfjtt4sxx3l9cxdo4vpi111nsl7i8,GAfb8P1N,2020-0188,2021-10-31,02:27:23,03:39:30,NA,incomplete,true,true,NA,NA,0,12,NA,purple,n_s_057.jpg,NA,NA,NA,NA,NA,unpleasant,pleasant,NA,NA,NA,NA,NA,right,1631.59999990463,true,NA,NA,NA,NA,NA,NA,NA,NA
GAfb8P1N,3dw3bnf1hkvs8co26ehcm6ry22mv8w,3cfjtt4sxx3l9cxdo4vpi111nsl7i8,GAfb8P1N,2020-0188,2021-10-31,02:27:23,03:39:30,NA,incomplete,true,true,NA,NA,0,13,NA,purple,n_s_090.jpg,NA,NA,NA,NA,NA,pleasant,unpleasant,NA,NA,NA,NA,NA,left,1422.90000009537,true,NA,NA,NA,NA,NA,NA,NA,NA
GAfb8P1N,3dw3bnf1hkvs8co26ehcm6ry22mv8w,3cfjtt4sxx3l9cxdo4vpi111nsl7i8,GAfb8P1N,2020-0188,2021-10-31,02:27:23,03:39:30,NA,incomplete,true,true,NA,NA,0,14,NA,purple,n_l_105.jpg,NA,NA,NA,NA,NA,unpleasant,pleasant,NA,NA,NA,NA,NA,right,1337.60000038147,true,NA,NA,NA,NA,NA,NA,NA,NA
GAfb8P1N,3dw3bnf1hkvs8co26ehcm6ry22mv8w,3cfjtt4sxx3l9cxdo4vpi111nsl7i8,GAfb8P1N,2020-0188,2021-10-31,02:27:23,03:39:30,NA,incomplete,true,true,NA,NA,0,15,NA,purple,n_s_060.jpg,NA,NA,NA,NA,NA,pleasant,unpleasant,NA,NA,NA,NA,NA,left,1326.7000002861,true,NA,NA,NA,NA,NA,NA,NA,NA
GAfb8P1N,3dw3bnf1hkvs8co26ehcm6ry22mv8w,3cfjtt4sxx3l9cxdo4vpi111nsl7i8,GAfb8P1N,2020-0188,2021-10-31,02:27:23,03:39:30,NA,incomplete,true,true,NA,NA,0,16,NA,purple,n_l_106.jpg,NA,NA,NA,NA,NA,unpleasant,pleasant,NA,NA,NA,NA,NA,right,1597.39999961853,true,NA,NA,NA,NA,NA,NA,NA,NA
GAfb8P1N,3dw3bnf1hkvs8co26ehcm6ry22mv8w,3cfjtt4sxx3l9cxdo4vpi111nsl7i8,GAfb8P1N,2020-0188,2021-10-31,02:27:23,03:39:30,NA,incomplete,true,true,NA,NA,0,17,NA,purple,m_l_068.jpg,NA,NA,NA,NA,NA,pleasant,unpleasant,NA,NA,NA,NA,NA,none,0,false,NA,NA,NA,NA,NA,NA,NA,NA
GAfb8P1N,3dw3bnf1hkvs8co26ehcm6ry22mv8w,3cfjtt4sxx3l9cxdo4vpi111nsl7i8,GAfb8P1N,2020-0188,2021-10-31,02:27:23,03:39:30,NA,incomplete,true,true,NA,NA,0,18,NA,yellow,m_s_020.jpg,NA,NA,NA,NA,NA,unpleasant,pleasant,NA,NA,NA,NA,NA,right,1838.30000019073,true,NA,NA,NA,NA,NA,NA,NA,NA
GAfb8P1N,3dw3bnf1hkvs8co26ehcm6ry22mv8w,3cfjtt4sxx3l9cxdo4vpi111nsl7i8,GAfb8P1N,2020-0188,2021-10-31,02:27:23,03:39:30,NA,incomplete,true,true,NA,NA,0,19,NA,yellow,n_s_112.jpg,NA,NA,NA,NA,NA,pleasant,unpleasant,NA,NA,NA,NA,NA,left,1688.80000019073,true,NA,NA,NA,NA,NA,NA,NA,NA
GAfb8P1N,3dw3bnf1hkvs8co26ehcm6ry22mv8w,3cfjtt4sxx3l9cxdo4vpi111nsl7i8,GAfb8P1N,2020-0188,2021-10-31,02:27:23,03:39:30,NA,incomplete,true,true,NA,NA,0,20,NA,yellow,n_s_100.jpg,NA,NA,NA,NA,NA,unpleasant,pleasant,NA,NA,NA,NA,NA,right,1100,true,NA,NA,NA,NA,NA,NA,NA,NA
GAfb8P1N,3dw3bnf1hkvs8co26ehcm6ry22mv8w,3cfjtt4sxx3l9cxdo4vpi111nsl7i8,GAfb8P1N,2020-0188,2021-10-31,02:27:23,03:39:30,NA,incomplete,true,true,NA,NA,0,21,NA,yellow,m_s_084.jpg,NA,NA,NA,NA,NA,pleasant,unpleasant,NA,NA,NA,NA,NA,left,1359,true,NA,NA,NA,NA,NA,NA,NA,NA
GAfb8P1N,3dw3bnf1hkvs8co26ehcm6ry22mv8w,3cfjtt4sxx3l9cxdo4vpi111nsl7i8,GAfb8P1N,2020-0188,2021-10-31,02:27:23,03:39:30,NA,incomplete,true,true,NA,NA,0,22,NA,yellow,n_l_066.jpg,NA,NA,NA,NA,NA,pleasant,unpleasant,NA,NA,NA,NA,NA,left,1588.2999997139,true,NA,NA,NA,NA,NA,NA,NA,NA
GAfb8P1N,3dw3bnf1hkvs8co26ehcm6ry22mv8w,3cfjtt4sxx3l9cxdo4vpi111nsl7i8,GAfb8P1N,2020-0188,2021-10-31,02:27:23,03:39:30,NA,incomplete,true,true,NA,NA,0,23,NA,yellow,n_s_077.jpg,NA,NA,NA,NA,NA,pleasant,unpleasant,NA,NA,NA,NA,NA,left,1839.40000009537,true,NA,NA,NA,NA,NA,NA,NA,NA
GAfb8P1N,3dw3bnf1hkvs8co26ehcm6ry22mv8w,3cfjtt4sxx3l9cxdo4vpi111nsl7i8,GAfb8P1N,2020-0188,2021-10-31,02:27:23,03:39:30,NA,incomplete,true,true,NA,NA,0,24,NA,blue,n_l_076.jpg,NA,NA,NA,NA,NA,pleasant,unpleasant,NA,NA,NA,NA,NA,left,1469.69999980927,true,NA,NA,NA,NA,NA,NA,NA,NA
GAfb8P1N,3dw3bnf1hkvs8co26ehcm6ry22mv8w,3cfjtt4sxx3l9cxdo4vpi111nsl7i8,GAfb8P1N,2020-0188,2021-10-31,02:27:23,03:39:30,NA,incomplete,true,true,NA,NA,0,25,NA,blue,m_l_106.jpg,NA,NA,NA,NA,NA,pleasant,unpleasant,NA,NA,NA,NA,NA,left,1118.40000009537,true,NA,NA,NA,NA,NA,NA,NA,NA
GAfb8P1N,3dw3bnf1hkvs8co26ehcm6ry22mv8w,3cfjtt4sxx3l9cxdo4vpi111nsl7i8,GAfb8P1N,2020-0188,2021-10-31,02:27:23,03:39:30,NA,incomplete,true,true,NA,NA,0,26,NA,blue,m_l_009.jpg,NA,NA,NA,NA,NA,pleasant,unpleasant,NA,NA,NA,NA,NA,left,1012.30000019073,true,NA,NA,NA,NA,NA,NA,NA,NA
GAfb8P1N,3dw3bnf1hkvs8co26ehcm6ry22mv8w,3cfjtt4sxx3l9cxdo4vpi111nsl7i8,GAfb8P1N,2020-0188,2021-10-31,02:27:23,03:39:30,NA,incomplete,true,true,NA,NA,0,27,NA,blue,n_l_109.jpg,NA,NA,NA,NA,NA,pleasant,unpleasant,NA,NA,NA,NA,NA,left,1017.90000009537,true,NA,NA,NA,NA,NA,NA,NA,NA
GAfb8P1N,3dw3bnf1hkvs8co26ehcm6ry22mv8w,3cfjtt4sxx3l9cxdo4vpi111nsl7i8,GAfb8P1N,2020-0188,2021-10-31,02:27:23,03:39:30,NA,incomplete,true,true,NA,NA,0,28,NA,blue,m_l_067.jpg,NA,NA,NA,NA,NA,pleasant,unpleasant,NA,NA,NA,NA,NA,left,1230,true,NA,NA,NA,NA,NA,NA,NA,NA
GAfb8P1N,3dw3bnf1hkvs8co26ehcm6ry22mv8w,3cfjtt4sxx3l9cxdo4vpi111nsl7i8,GAfb8P1N,2020-0188,2021-10-31,02:27:23,03:39:30,NA,incomplete,true,true,NA,NA,0,29,NA,blue,m_l_001.jpg,NA,NA,NA,NA,NA,unpleasant,pleasant,NA,NA,NA,NA,NA,left,1031.89999961853,true,NA,NA,NA,NA,NA,NA,NA,NA
GAfb8P1N,3dw3bnf1hkvs8co26ehcm6ry22mv8w,3cfjtt4sxx3l9cxdo4vpi111nsl7i8,GAfb8P1N,2020-0188,2021-10-31,02:27:23,03:39:30,NA,incomplete,true,true,NA,NA,0,30,NA,brown,n_l_055.jpg,NA,NA,NA,NA,NA,pleasant,unpleasant,NA,NA,NA,NA,NA,left,1579.7999997139,true,NA,NA,NA,NA,NA,NA,NA,NA
GAfb8P1N,3dw3bnf1hkvs8co26ehcm6ry22mv8w,3cfjtt4sxx3l9cxdo4vpi111nsl7i8,GAfb8P1N,2020-0188,2021-10-31,02:27:23,03:39:30,NA,incomplete,true,true,NA,NA,0,31,NA,brown,n_l_078.jpg,NA,NA,NA,NA,NA,pleasant,unpleasant,NA,NA,NA,NA,NA,left,1551.59999990463,true,NA,NA,NA,NA,NA,NA,NA,NA
GAfb8P1N,3dw3bnf1hkvs8co26ehcm6ry22mv8w,3cfjtt4sxx3l9cxdo4vpi111nsl7i8,GAfb8P1N,2020-0188,2021-10-31,02:27:23,03:39:30,NA,incomplete,true,true,NA,NA,0,32,NA,brown,m_l_044.jpg,NA,NA,NA,NA,NA,unpleasant,pleasant,NA,NA,NA,NA,NA,right,1109.7000002861,true,NA,NA,NA,NA,NA,NA,NA,NA
GAfb8P1N,3dw3bnf1hkvs8co26ehcm6ry22mv8w,3cfjtt4sxx3l9cxdo4vpi111nsl7i8,GAfb8P1N,2020-0188,2021-10-31,02:27:23,03:39:30,NA,incomplete,true,true,NA,NA,0,33,NA,brown,m_l_110.jpg,NA,NA,NA,NA,NA,unpleasant,pleasant,NA,NA,NA,NA,NA,right,1243.2000002861,true,NA,NA,NA,NA,NA,NA,NA,NA
GAfb8P1N,3dw3bnf1hkvs8co26ehcm6ry22mv8w,3cfjtt4sxx3l9cxdo4vpi111nsl7i8,GAfb8P1N,2020-0188,2021-10-31,02:27:23,03:39:30,NA,incomplete,true,true,NA,NA,0,34,NA,brown,n_s_037.jpg,NA,NA,NA,NA,NA,unpleasant,pleasant,NA,NA,NA,NA,NA,right,1833.09999990463,true,NA,NA,NA,NA,NA,NA,NA,NA
GAfb8P1N,3dw3bnf1hkvs8co26ehcm6ry22mv8w,3cfjtt4sxx3l9cxdo4vpi111nsl7i8,GAfb8P1N,2020-0188,2021-10-31,02:27:23,03:39:30,NA,incomplete,true,true,NA,NA,0,35,NA,brown,n_s_115.jpg,NA,NA,NA,NA,NA,pleasant,unpleasant,NA,NA,NA,NA,NA,left,1722.59999990463,true,NA,NA,NA,NA,NA,NA,NA,NA
GAfb8P1N,3dw3bnf1hkvs8co26ehcm6ry22mv8w,3cfjtt4sxx3l9cxdo4vpi111nsl7i8,GAfb8P1N,2020-0188,2021-10-31,02:27:23,03:39:30,NA,incomplete,true,NA,NA,true,0,0,NA,NA,NA,right,n_s_115.jpg,blue,brown,NA,NA,NA,NA,NA,NA,NA,NA,NA,NaN,NA,3106.7000002861023,left,0,NA,NA,NA,NA,NA
GAfb8P1N,3dw3bnf1hkvs8co26ehcm6ry22mv8w,3cfjtt4sxx3l9cxdo4vpi111nsl7i8,GAfb8P1N,2020-0188,2021-10-31,02:27:23,03:39:30,NA,incomplete,true,NA,NA,true,0,1,NA,NA,NA,left,n_s_100.jpg,yellow,blue,NA,NA,NA,NA,NA,NA,NA,NA,NA,NaN,NA,1733.1000003814697,left,1,NA,NA,NA,NA,NA
GAfb8P1N,3dw3bnf1hkvs8co26ehcm6ry22mv8w,3cfjtt4sxx3l9cxdo4vpi111nsl7i8,GAfb8P1N,2020-0188,2021-10-31,02:27:23,03:39:30,NA,incomplete,true,NA,NA,true,0,2,NA,NA,NA,left,n_s_034.jpg,green,white,NA,NA,NA,NA,NA,NA,NA,NA,NA,NaN,NA,1421.8000001907349,left,1,NA,NA,NA,NA,NA
GAfb8P1N,3dw3bnf1hkvs8co26ehcm6ry22mv8w,3cfjtt4sxx3l9cxdo4vpi111nsl7i8,GAfb8P1N,2020-0188,2021-10-31,02:27:23,03:39:30,NA,incomplete,true,NA,NA,true,0,3,NA,NA,NA,left,m_l_068.jpg,purple,white,NA,NA,NA,NA,NA,NA,NA,NA,NA,NaN,NA,1758.2000002861023,left,1,NA,NA,NA,NA,NA
GAfb8P1N,3dw3bnf1hkvs8co26ehcm6ry22mv8w,3cfjtt4sxx3l9cxdo4vpi111nsl7i8,GAfb8P1N,2020-0188,2021-10-31,02:27:23,03:39:30,NA,incomplete,true,NA,NA,true,0,4,NA,NA,NA,right,m_l_009.jpg,yellow,blue,NA,NA,NA,NA,NA,NA,NA,NA,NA,NaN,NA,3256.0999999046326,left,0,NA,NA,NA,NA,NA
GAfb8P1N,3dw3bnf1hkvs8co26ehcm6ry22mv8w,3cfjtt4sxx3l9cxdo4vpi111nsl7i8,GAfb8P1N,2020-0188,2021-10-31,02:27:23,03:39:30,NA,incomplete,true,NA,NA,true,0,5,NA,NA,NA,right,n_l_106.jpg,white,purple,NA,NA,NA,NA,NA,NA,NA,NA,NA,NaN,NA,2289.5999999046326,right,1,NA,NA,NA,NA,NA
GAfb8P1N,3dw3bnf1hkvs8co26ehcm6ry22mv8w,3cfjtt4sxx3l9cxdo4vpi111nsl7i8,GAfb8P1N,2020-0188,2021-10-31,02:27:23,03:39:30,NA,incomplete,true,NA,NA,true,0,6,NA,NA,NA,right,m_l_001.jpg,brown,blue,NA,NA,NA,NA,NA,NA,NA,NA,NA,NaN,NA,1855.1999998092651,right,1,NA,NA,NA,NA,NA
GAfb8P1N,3dw3bnf1hkvs8co26ehcm6ry22mv8w,3cfjtt4sxx3l9cxdo4vpi111nsl7i8,GAfb8P1N,2020-0188,2021-10-31,02:27:23,03:39:30,NA,incomplete,true,NA,NA,true,0,7,NA,NA,NA,right,n_s_077.jpg,purple,yellow,NA,NA,NA,NA,NA,NA,NA,NA,NA,NaN,NA,2053.199999809265,right,1,NA,NA,NA,NA,NA
GAfb8P1N,3dw3bnf1hkvs8co26ehcm6ry22mv8w,3cfjtt4sxx3l9cxdo4vpi111nsl7i8,GAfb8P1N,2020-0188,2021-10-31,02:27:23,03:39:30,NA,incomplete,true,NA,NA,true,0,8,NA,NA,NA,right,m_s_048.jpg,green,white,NA,NA,NA,NA,NA,NA,NA,NA,NA,NaN,NA,2353.699999809265,left,0,NA,NA,NA,NA,NA
GAfb8P1N,3dw3bnf1hkvs8co26ehcm6ry22mv8w,3cfjtt4sxx3l9cxdo4vpi111nsl7i8,GAfb8P1N,2020-0188,2021-10-31,02:27:23,03:39:30,NA,incomplete,true,NA,NA,true,0,9,NA,NA,NA,left,n_l_105.jpg,purple,yellow,NA,NA,NA,NA,NA,NA,NA,NA,NA,NaN,NA,2086,right,0,NA,NA,NA,NA,NA
GAfb8P1N,3dw3bnf1hkvs8co26ehcm6ry22mv8w,3cfjtt4sxx3l9cxdo4vpi111nsl7i8,GAfb8P1N,2020-0188,2021-10-31,02:27:23,03:39:30,NA,incomplete,true,NA,NA,true,0,10,NA,NA,NA,right,n_s_090.jpg,white,purple,NA,NA,NA,NA,NA,NA,NA,NA,NA,NaN,NA,1409.3000001907349,right,1,NA,NA,NA,NA,NA
GAfb8P1N,3dw3bnf1hkvs8co26ehcm6ry22mv8w,3cfjtt4sxx3l9cxdo4vpi111nsl7i8,GAfb8P1N,2020-0188,2021-10-31,02:27:23,03:39:30,NA,incomplete,true,NA,NA,true,0,11,NA,NA,NA,right,n_s_112.jpg,purple,yellow,NA,NA,NA,NA,NA,NA,NA,NA,NA,NaN,NA,1215.4000000953674,right,1,NA,NA,NA,NA,NA
GAfb8P1N,3dw3bnf1hkvs8co26ehcm6ry22mv8w,3cfjtt4sxx3l9cxdo4vpi111nsl7i8,GAfb8P1N,2020-0188,2021-10-31,02:27:23,03:39:30,NA,incomplete,true,NA,NA,true,0,12,NA,NA,NA,right,n_l_078.jpg,blue,brown,NA,NA,NA,NA,NA,NA,NA,NA,NA,NaN,NA,2173.4000000953674,left,0,NA,NA,NA,NA,NA
GAfb8P1N,3dw3bnf1hkvs8co26ehcm6ry22mv8w,3cfjtt4sxx3l9cxdo4vpi111nsl7i8,GAfb8P1N,2020-0188,2021-10-31,02:27:23,03:39:30,NA,incomplete,true,NA,NA,true,0,13,NA,NA,NA,left,m_l_106.jpg,blue,brown,NA,NA,NA,NA,NA,NA,NA,NA,NA,NaN,NA,2375.300000190735,left,1,NA,NA,NA,NA,NA
GAfb8P1N,3dw3bnf1hkvs8co26ehcm6ry22mv8w,3cfjtt4sxx3l9cxdo4vpi111nsl7i8,GAfb8P1N,2020-0188,2021-10-31,02:27:23,03:39:30,NA,incomplete,true,NA,NA,true,0,14,NA,NA,NA,right,m_l_067.jpg,brown,blue,NA,NA,NA,NA,NA,NA,NA,NA,NA,NaN,NA,2119.8999996185303,right,1,NA,NA,NA,NA,NA
GAfb8P1N,3dw3bnf1hkvs8co26ehcm6ry22mv8w,3cfjtt4sxx3l9cxdo4vpi111nsl7i8,GAfb8P1N,2020-0188,2021-10-31,02:27:23,03:39:30,NA,incomplete,true,NA,NA,true,0,15,NA,NA,NA,left,n_l_066.jpg,yellow,purple,NA,NA,NA,NA,NA,NA,NA,NA,NA,NaN,NA,1339.7000002861023,right,0,NA,NA,NA,NA,NA
GAfb8P1N,3dw3bnf1hkvs8co26ehcm6ry22mv8w,3cfjtt4sxx3l9cxdo4vpi111nsl7i8,GAfb8P1N,2020-0188,2021-10-31,02:27:23,03:39:30,NA,incomplete,true,NA,NA,true,0,16,NA,NA,NA,right,m_l_003.jpg,white,green,NA,NA,NA,NA,NA,NA,NA,NA,NA,NaN,NA,1279.8999996185303,right,1,NA,NA,NA,NA,NA
GAfb8P1N,3dw3bnf1hkvs8co26ehcm6ry22mv8w,3cfjtt4sxx3l9cxdo4vpi111nsl7i8,GAfb8P1N,2020-0188,2021-10-31,02:27:23,03:39:30,NA,incomplete,true,NA,NA,true,0,17,NA,NA,NA,right,m_l_044.jpg,blue,brown,NA,NA,NA,NA,NA,NA,NA,NA,NA,NaN,NA,1458.6999998092651,right,1,NA,NA,NA,NA,NA
GAfb8P1N,3dw3bnf1hkvs8co26ehcm6ry22mv8w,3cfjtt4sxx3l9cxdo4vpi111nsl7i8,GAfb8P1N,2020-0188,2021-10-31,02:27:23,03:39:30,NA,incomplete,true,NA,NA,true,0,18,NA,NA,NA,right,n_l_014.jpg,purple,white,NA,NA,NA,NA,NA,NA,NA,NA,NA,NaN,NA,1551.4000000953674,left,0,NA,NA,NA,NA,NA
GAfb8P1N,3dw3bnf1hkvs8co26ehcm6ry22mv8w,3cfjtt4sxx3l9cxdo4vpi111nsl7i8,GAfb8P1N,2020-0188,2021-10-31,02:27:23,03:39:30,NA,incomplete,true,NA,NA,true,0,19,NA,NA,NA,left,n_s_032.jpg,white,purple,NA,NA,NA,NA,NA,NA,NA,NA,NA,NaN,NA,1733.9000000953674,right,0,NA,NA,NA,NA,NA
GAfb8P1N,3dw3bnf1hkvs8co26ehcm6ry22mv8w,3cfjtt4sxx3l9cxdo4vpi111nsl7i8,GAfb8P1N,2020-0188,2021-10-31,02:27:23,03:39:30,NA,incomplete,true,NA,NA,true,0,20,NA,NA,NA,left,n_s_056.jpg,green,white,NA,NA,NA,NA,NA,NA,NA,NA,NA,NaN,NA,2013.6999998092651,left,1,NA,NA,NA,NA,NA
GAfb8P1N,3dw3bnf1hkvs8co26ehcm6ry22mv8w,3cfjtt4sxx3l9cxdo4vpi111nsl7i8,GAfb8P1N,2020-0188,2021-10-31,02:27:23,03:39:30,NA,incomplete,true,NA,NA,true,0,21,NA,NA,NA,right,n_l_104.jpg,purple,white,NA,NA,NA,NA,NA,NA,NA,NA,NA,NaN,NA,3289.199999809265,left,0,NA,NA,NA,NA,NA
GAfb8P1N,3dw3bnf1hkvs8co26ehcm6ry22mv8w,3cfjtt4sxx3l9cxdo4vpi111nsl7i8,GAfb8P1N,2020-0188,2021-10-31,02:27:23,03:39:30,NA,incomplete,true,NA,true,NA,0,0,NA,NA,NA,right,NA,NA,NA,present,NA,NA,m_l_009.jpg,blue,n_l_066.jpg,yellow,between,NA,NaN,NA,NA,NA,NA,left,9033.199999809265,0,0,7120.599999904633
GAfb8P1N,3dw3bnf1hkvs8co26ehcm6ry22mv8w,3cfjtt4sxx3l9cxdo4vpi111nsl7i8,GAfb8P1N,2020-0188,2021-10-31,02:27:23,03:39:30,NA,incomplete,true,NA,true,NA,0,1,NA,NA,NA,left,NA,NA,NA,present,NA,NA,n_s_090.jpg,purple,m_l_068.jpg,purple,within,NA,NaN,NA,NA,NA,NA,left,3142.8999996185303,1,0,2676.1000003814697
GAfb8P1N,3dw3bnf1hkvs8co26ehcm6ry22mv8w,3cfjtt4sxx3l9cxdo4vpi111nsl7i8,GAfb8P1N,2020-0188,2021-10-31,02:27:23,03:39:30,NA,incomplete,true,NA,true,NA,0,2,NA,NA,NA,left,NA,NA,NA,present,NA,NA,n_l_014.jpg,white,n_l_104.jpg,white,within,NA,NaN,NA,NA,NA,NA,left,3697.2000002861023,1,0,2495
GAfb8P1N,3dw3bnf1hkvs8co26ehcm6ry22mv8w,3cfjtt4sxx3l9cxdo4vpi111nsl7i8,GAfb8P1N,2020-0188,2021-10-31,02:27:23,03:39:30,NA,incomplete,true,NA,true,NA,0,3,NA,NA,NA,right,NA,NA,NA,present,NA,NA,m_l_001.jpg,blue,m_l_106.jpg,blue,within,NA,NaN,NA,NA,NA,NA,left,1913.5999999046326,0,0,1716.3000001907349
GAfb8P1N,3dw3bnf1hkvs8co26ehcm6ry22mv8w,3cfjtt4sxx3l9cxdo4vpi111nsl7i8,GAfb8P1N,2020-0188,2021-10-31,02:27:23,03:39:30,NA,incomplete,true,NA,true,NA,0,4,NA,NA,NA,right,NA,NA,NA,present,NA,NA,n_s_100.jpg,yellow,n_l_106.jpg,purple,between,NA,NaN,NA,NA,NA,NA,left,2061.4000000953674,0,0,2113
GAfb8P1N,3dw3bnf1hkvs8co26ehcm6ry22mv8w,3cfjtt4sxx3l9cxdo4vpi111nsl7i8,GAfb8P1N,2020-0188,2021-10-31,02:27:23,03:39:30,NA,incomplete,true,NA,true,NA,0,5,NA,NA,NA,left,NA,NA,NA,present,NA,NA,m_l_003.jpg,green,n_s_032.jpg,white,between,NA,NaN,NA,NA,NA,NA,left,1794.8000001907349,1,0,1820
GAfb8P1N,3dw3bnf1hkvs8co26ehcm6ry22mv8w,3cfjtt4sxx3l9cxdo4vpi111nsl7i8,GAfb8P1N,2020-0188,2021-10-31,02:27:23,03:39:30,NA,incomplete,true,NA,true,NA,0,6,NA,NA,NA,left,NA,NA,NA,present,NA,NA,n_s_034.jpg,green,n_s_056.jpg,green,within,NA,NaN,NA,NA,NA,NA,left,1670.7999997138977,1,0,1930.4000000953674
GAfb8P1N,3dw3bnf1hkvs8co26ehcm6ry22mv8w,3cfjtt4sxx3l9cxdo4vpi111nsl7i8,GAfb8P1N,2020-0188,2021-10-31,02:27:23,03:39:30,NA,incomplete,true,NA,true,NA,0,7,NA,NA,NA,left,NA,NA,NA,present,NA,NA,m_s_048.jpg,white,n_l_105.jpg,purple,between,NA,NaN,NA,NA,NA,NA,right,2221.5999999046326,0,0,2016
GAfb8P1N,3dw3bnf1hkvs8co26ehcm6ry22mv8w,3cfjtt4sxx3l9cxdo4vpi111nsl7i8,GAfb8P1N,2020-0188,2021-10-31,02:27:23,03:39:30,NA,incomplete,true,NA,true,NA,0,8,NA,NA,NA,left,NA,NA,NA,present,NA,NA,n_l_078.jpg,brown,n_s_115.jpg,brown,within,NA,NaN,NA,NA,NA,NA,left,2315.800000190735,1,0,1627.0999999046326
GAfb8P1N,3dw3bnf1hkvs8co26ehcm6ry22mv8w,3cfjtt4sxx3l9cxdo4vpi111nsl7i8,GAfb8P1N,2020-0188,2021-10-31,02:27:23,03:39:30,NA,incomplete,true,NA,true,NA,0,9,NA,NA,NA,left,NA,NA,NA,present,NA,NA,m_l_067.jpg,blue,m_l_044.jpg,brown,between,NA,NaN,NA,NA,NA,NA,left,1622,1,0,1901.5999999046326
GAfb8P1N,3dw3bnf1hkvs8co26ehcm6ry22mv8w,3cfjtt4sxx3l9cxdo4vpi111nsl7i8,GAfb8P1N,2020-0188,2021-10-31,02:27:23,03:39:30,NA,incomplete,true,NA,true,NA,0,10,NA,NA,NA,left,NA,NA,NA,present,NA,NA,n_s_112.jpg,yellow,n_s_077.jpg,yellow,within,NA,NaN,NA,NA,NA,NA,left,1570.6000003814697,1,0,4480.199999809265
GAfb8P1N,3dw3bnf1hkvs8co26ehcm6ry22mv8w,3cfjtt4sxx3l9cxdo4vpi111nsl7i8,GAfb8P1N,2020-0188,2021-10-31,02:27:23,03:39:30,NA,incomplete,false,true,NA,NA,1,0,NA,gray,m_l_056.jpg,NA,NA,NA,NA,NA,pleasant,unpleasant,NA,NA,NA,NA,NA,none,0,false,NA,NA,NA,NA,NA,NA,NA,NA
GAfb8P1N,3dw3bnf1hkvs8co26ehcm6ry22mv8w,3cfjtt4sxx3l9cxdo4vpi111nsl7i8,GAfb8P1N,2020-0188,2021-10-31,02:27:23,03:39:30,NA,incomplete,false,true,NA,NA,1,1,NA,gray,m_s_043.jpg,NA,NA,NA,NA,NA,pleasant,unpleasant,NA,NA,NA,NA,NA,left,1697,true,NA,NA,NA,NA,NA,NA,NA,NA
GAfb8P1N,3dw3bnf1hkvs8co26ehcm6ry22mv8w,3cfjtt4sxx3l9cxdo4vpi111nsl7i8,GAfb8P1N,2020-0188,2021-10-31,02:27:23,03:39:30,NA,incomplete,false,true,NA,NA,1,2,NA,gray,m_l_107.jpg,NA,NA,NA,NA,NA,pleasant,unpleasant,NA,NA,NA,NA,NA,left,1932.39999961853,true,NA,NA,NA,NA,NA,NA,NA,NA
GAfb8P1N,3dw3bnf1hkvs8co26ehcm6ry22mv8w,3cfjtt4sxx3l9cxdo4vpi111nsl7i8,GAfb8P1N,2020-0188,2021-10-31,02:27:23,03:39:30,NA,incomplete,false,true,NA,NA,1,3,NA,gray,m_s_065.jpg,NA,NA,NA,NA,NA,unpleasant,pleasant,NA,NA,NA,NA,NA,right,1474.5,true,NA,NA,NA,NA,NA,NA,NA,NA
GAfb8P1N,3dw3bnf1hkvs8co26ehcm6ry22mv8w,3cfjtt4sxx3l9cxdo4vpi111nsl7i8,GAfb8P1N,2020-0188,2021-10-31,02:27:23,03:39:30,NA,incomplete,false,true,NA,NA,1,4,NA,gray,m_s_017.jpg,NA,NA,NA,NA,NA,pleasant,unpleasant,NA,NA,NA,NA,NA,left,2116.19999980927,true,NA,NA,NA,NA,NA,NA,NA,NA
GAfb8P1N,3dw3bnf1hkvs8co26ehcm6ry22mv8w,3cfjtt4sxx3l9cxdo4vpi111nsl7i8,GAfb8P1N,2020-0188,2021-10-31,02:27:23,03:39:30,NA,incomplete,false,true,NA,NA,1,5,NA,gray,n_s_099.jpg,NA,NA,NA,NA,NA,pleasant,unpleasant,NA,NA,NA,NA,NA,left,1851.2999997139,true,NA,NA,NA,NA,NA,NA,NA,NA
GAfb8P1N,3dw3bnf1hkvs8co26ehcm6ry22mv8w,3cfjtt4sxx3l9cxdo4vpi111nsl7i8,GAfb8P1N,2020-0188,2021-10-31,02:27:23,03:39:30,NA,incomplete,false,true,NA,NA,1,6,NA,orange,m_s_080.jpg,NA,NA,NA,NA,NA,unpleasant,pleasant,NA,NA,NA,NA,NA,right,1645.30000019073,true,NA,NA,NA,NA,NA,NA,NA,NA
GAfb8P1N,3dw3bnf1hkvs8co26ehcm6ry22mv8w,3cfjtt4sxx3l9cxdo4vpi111nsl7i8,GAfb8P1N,2020-0188,2021-10-31,02:27:23,03:39:30,NA,incomplete,false,true,NA,NA,1,7,NA,orange,m_l_036.jpg,NA,NA,NA,NA,NA,unpleasant,pleasant,NA,NA,NA,NA,NA,right,1426.09999990463,true,NA,NA,NA,NA,NA,NA,NA,NA
GAfb8P1N,3dw3bnf1hkvs8co26ehcm6ry22mv8w,3cfjtt4sxx3l9cxdo4vpi111nsl7i8,GAfb8P1N,2020-0188,2021-10-31,02:27:23,03:39:30,NA,incomplete,false,true,NA,NA,1,8,NA,orange,m_s_069.jpg,NA,NA,NA,NA,NA,unpleasant,pleasant,NA,NA,NA,NA,NA,right,1201.7000002861,true,NA,NA,NA,NA,NA,NA,NA,NA
GAfb8P1N,3dw3bnf1hkvs8co26ehcm6ry22mv8w,3cfjtt4sxx3l9cxdo4vpi111nsl7i8,GAfb8P1N,2020-0188,2021-10-31,02:27:23,03:39:30,NA,incomplete,false,true,NA,NA,1,9,NA,orange,n_s_024.jpg,NA,NA,NA,NA,NA,unpleasant,pleasant,NA,NA,NA,NA,NA,right,1128,true,NA,NA,NA,NA,NA,NA,NA,NA
GAfb8P1N,3dw3bnf1hkvs8co26ehcm6ry22mv8w,3cfjtt4sxx3l9cxdo4vpi111nsl7i8,GAfb8P1N,2020-0188,2021-10-31,02:27:23,03:39:30,NA,incomplete,false,true,NA,NA,1,10,NA,orange,n_s_048.jpg,NA,NA,NA,NA,NA,unpleasant,pleasant,NA,NA,NA,NA,NA,left,1270.40000009537,true,NA,NA,NA,NA,NA,NA,NA,NA
GAfb8P1N,3dw3bnf1hkvs8co26ehcm6ry22mv8w,3cfjtt4sxx3l9cxdo4vpi111nsl7i8,GAfb8P1N,2020-0188,2021-10-31,02:27:23,03:39:30,NA,incomplete,false,true,NA,NA,1,11,NA,orange,n_s_051.jpg,NA,NA,NA,NA,NA,unpleasant,pleasant,NA,NA,NA,NA,NA,right,1502.19999980927,true,NA,NA,NA,NA,NA,NA,NA,NA
GAfb8P1N,3dw3bnf1hkvs8co26ehcm6ry22mv8w,3cfjtt4sxx3l9cxdo4vpi111nsl7i8,GAfb8P1N,2020-0188,2021-10-31,02:27:23,03:39:30,NA,incomplete,false,true,NA,NA,1,12,NA,green,n_l_024.jpg,NA,NA,NA,NA,NA,unpleasant,pleasant,NA,NA,NA,NA,NA,right,1148.5,true,NA,NA,NA,NA,NA,NA,NA,NA
GAfb8P1N,3dw3bnf1hkvs8co26ehcm6ry22mv8w,3cfjtt4sxx3l9cxdo4vpi111nsl7i8,GAfb8P1N,2020-0188,2021-10-31,02:27:23,03:39:30,NA,incomplete,false,true,NA,NA,1,13,NA,green,m_s_068.jpg,NA,NA,NA,NA,NA,pleasant,unpleasant,NA,NA,NA,NA,NA,right,1789.09999990463,true,NA,NA,NA,NA,NA,NA,NA,NA
GAfb8P1N,3dw3bnf1hkvs8co26ehcm6ry22mv8w,3cfjtt4sxx3l9cxdo4vpi111nsl7i8,GAfb8P1N,2020-0188,2021-10-31,02:27:23,03:39:30,NA,incomplete,false,true,NA,NA,1,14,NA,green,m_s_042.jpg,NA,NA,NA,NA,NA,unpleasant,pleasant,NA,NA,NA,NA,NA,right,1026.90000009537,true,NA,NA,NA,NA,NA,NA,NA,NA
GAfb8P1N,3dw3bnf1hkvs8co26ehcm6ry22mv8w,3cfjtt4sxx3l9cxdo4vpi111nsl7i8,GAfb8P1N,2020-0188,2021-10-31,02:27:23,03:39:30,NA,incomplete,false,true,NA,NA,1,15,NA,green,m_s_075.jpg,NA,NA,NA,NA,NA,unpleasant,pleasant,NA,NA,NA,NA,NA,right,1162.30000019073,true,NA,NA,NA,NA,NA,NA,NA,NA
GAfb8P1N,3dw3bnf1hkvs8co26ehcm6ry22mv8w,3cfjtt4sxx3l9cxdo4vpi111nsl7i8,GAfb8P1N,2020-0188,2021-10-31,02:27:23,03:39:30,NA,incomplete,false,true,NA,NA,1,16,NA,green,m_s_028.jpg,NA,NA,NA,NA,NA,unpleasant,pleasant,NA,NA,NA,NA,NA,right,1113.69999980927,true,NA,NA,NA,NA,NA,NA,NA,NA
GAfb8P1N,3dw3bnf1hkvs8co26ehcm6ry22mv8w,3cfjtt4sxx3l9cxdo4vpi111nsl7i8,GAfb8P1N,2020-0188,2021-10-31,02:27:23,03:39:30,NA,incomplete,false,true,NA,NA,1,17,NA,green,n_l_009.jpg,NA,NA,NA,NA,NA,unpleasant,pleasant,NA,NA,NA,NA,NA,right,1468.5,true,NA,NA,NA,NA,NA,NA,NA,NA
GAfb8P1N,3dw3bnf1hkvs8co26ehcm6ry22mv8w,3cfjtt4sxx3l9cxdo4vpi111nsl7i8,GAfb8P1N,2020-0188,2021-10-31,02:27:23,03:39:30,NA,incomplete,false,true,NA,NA,1,18,NA,brown,n_l_091.jpg,NA,NA,NA,NA,NA,unpleasant,pleasant,NA,NA,NA,NA,NA,right,1617.90000009537,true,NA,NA,NA,NA,NA,NA,NA,NA
GAfb8P1N,3dw3bnf1hkvs8co26ehcm6ry22mv8w,3cfjtt4sxx3l9cxdo4vpi111nsl7i8,GAfb8P1N,2020-0188,2021-10-31,02:27:23,03:39:30,NA,incomplete,false,true,NA,NA,1,19,NA,brown,n_s_114.jpg,NA,NA,NA,NA,NA,pleasant,unpleasant,NA,NA,NA,NA,NA,right,955.199999809265,true,NA,NA,NA,NA,NA,NA,NA,NA
GAfb8P1N,3dw3bnf1hkvs8co26ehcm6ry22mv8w,3cfjtt4sxx3l9cxdo4vpi111nsl7i8,GAfb8P1N,2020-0188,2021-10-31,02:27:23,03:39:30,NA,incomplete,false,true,NA,NA,1,20,NA,brown,m_s_055.jpg,NA,NA,NA,NA,NA,unpleasant,pleasant,NA,NA,NA,NA,NA,right,1380.69999980927,true,NA,NA,NA,NA,NA,NA,NA,NA
GAfb8P1N,3dw3bnf1hkvs8co26ehcm6ry22mv8w,3cfjtt4sxx3l9cxdo4vpi111nsl7i8,GAfb8P1N,2020-0188,2021-10-31,02:27:23,03:39:30,NA,incomplete,false,true,NA,NA,1,21,NA,brown,n_l_085.jpg,NA,NA,NA,NA,NA,unpleasant,pleasant,NA,NA,NA,NA,NA,right,1193,true,NA,NA,NA,NA,NA,NA,NA,NA
GAfb8P1N,3dw3bnf1hkvs8co26ehcm6ry22mv8w,3cfjtt4sxx3l9cxdo4vpi111nsl7i8,GAfb8P1N,2020-0188,2021-10-31,02:27:23,03:39:30,NA,incomplete,false,true,NA,NA,1,22,NA,brown,m_l_032.jpg,NA,NA,NA,NA,NA,unpleasant,pleasant,NA,NA,NA,NA,NA,right,1195,true,NA,NA,NA,NA,NA,NA,NA,NA
GAfb8P1N,3dw3bnf1hkvs8co26ehcm6ry22mv8w,3cfjtt4sxx3l9cxdo4vpi111nsl7i8,GAfb8P1N,2020-0188,2021-10-31,02:27:23,03:39:30,NA,incomplete,false,true,NA,NA,1,23,NA,brown,m_l_035.jpg,NA,NA,NA,NA,NA,pleasant,unpleasant,NA,NA,NA,NA,NA,left,1220,true,NA,NA,NA,NA,NA,NA,NA,NA
GAfb8P1N,3dw3bnf1hkvs8co26ehcm6ry22mv8w,3cfjtt4sxx3l9cxdo4vpi111nsl7i8,GAfb8P1N,2020-0188,2021-10-31,02:27:23,03:39:30,NA,incomplete,false,true,NA,NA,1,24,NA,black,m_l_023.jpg,NA,NA,NA,NA,NA,pleasant,unpleasant,NA,NA,NA,NA,NA,left,2654.80000019073,true,NA,NA,NA,NA,NA,NA,NA,NA
GAfb8P1N,3dw3bnf1hkvs8co26ehcm6ry22mv8w,3cfjtt4sxx3l9cxdo4vpi111nsl7i8,GAfb8P1N,2020-0188,2021-10-31,02:27:23,03:39:30,NA,incomplete,false,true,NA,NA,1,25,NA,black,m_s_022.jpg,NA,NA,NA,NA,NA,pleasant,unpleasant,NA,NA,NA,NA,NA,left,1210.7999997139,true,NA,NA,NA,NA,NA,NA,NA,NA
GAfb8P1N,3dw3bnf1hkvs8co26ehcm6ry22mv8w,3cfjtt4sxx3l9cxdo4vpi111nsl7i8,GAfb8P1N,2020-0188,2021-10-31,02:27:23,03:39:30,NA,incomplete,false,true,NA,NA,1,26,NA,black,n_l_083.jpg,NA,NA,NA,NA,NA,pleasant,unpleasant,NA,NA,NA,NA,NA,left,1264.19999980927,true,NA,NA,NA,NA,NA,NA,NA,NA
GAfb8P1N,3dw3bnf1hkvs8co26ehcm6ry22mv8w,3cfjtt4sxx3l9cxdo4vpi111nsl7i8,GAfb8P1N,2020-0188,2021-10-31,02:27:23,03:39:30,NA,incomplete,false,true,NA,NA,1,27,NA,black,n_s_078.jpg,NA,NA,NA,NA,NA,pleasant,unpleasant,NA,NA,NA,NA,NA,left,1198.30000019073,true,NA,NA,NA,NA,NA,NA,NA,NA
GAfb8P1N,3dw3bnf1hkvs8co26ehcm6ry22mv8w,3cfjtt4sxx3l9cxdo4vpi111nsl7i8,GAfb8P1N,2020-0188,2021-10-31,02:27:23,03:39:30,NA,incomplete,false,true,NA,NA,1,28,NA,black,n_s_044.jpg,NA,NA,NA,NA,NA,unpleasant,pleasant,NA,NA,NA,NA,NA,right,1522.30000019073,true,NA,NA,NA,NA,NA,NA,NA,NA
GAfb8P1N,3dw3bnf1hkvs8co26ehcm6ry22mv8w,3cfjtt4sxx3l9cxdo4vpi111nsl7i8,GAfb8P1N,2020-0188,2021-10-31,02:27:23,03:39:30,NA,incomplete,false,true,NA,NA,1,29,NA,black,m_s_072.jpg,NA,NA,NA,NA,NA,pleasant,unpleasant,NA,NA,NA,NA,NA,left,1357,true,NA,NA,NA,NA,NA,NA,NA,NA
GAfb8P1N,3dw3bnf1hkvs8co26ehcm6ry22mv8w,3cfjtt4sxx3l9cxdo4vpi111nsl7i8,GAfb8P1N,2020-0188,2021-10-31,02:27:23,03:39:30,NA,incomplete,false,true,NA,NA,1,30,NA,yellow,n_s_029.jpg,NA,NA,NA,NA,NA,pleasant,unpleasant,NA,NA,NA,NA,NA,left,1211.2999997139,true,NA,NA,NA,NA,NA,NA,NA,NA
GAfb8P1N,3dw3bnf1hkvs8co26ehcm6ry22mv8w,3cfjtt4sxx3l9cxdo4vpi111nsl7i8,GAfb8P1N,2020-0188,2021-10-31,02:27:23,03:39:30,NA,incomplete,false,true,NA,NA,1,31,NA,yellow,n_s_102.jpg,NA,NA,NA,NA,NA,pleasant,unpleasant,NA,NA,NA,NA,NA,none,0,false,NA,NA,NA,NA,NA,NA,NA,NA
GAfb8P1N,3dw3bnf1hkvs8co26ehcm6ry22mv8w,3cfjtt4sxx3l9cxdo4vpi111nsl7i8,GAfb8P1N,2020-0188,2021-10-31,02:27:23,03:39:30,NA,incomplete,false,true,NA,NA,1,32,NA,yellow,n_l_111.jpg,NA,NA,NA,NA,NA,pleasant,unpleasant,NA,NA,NA,NA,NA,left,1762.19999980927,true,NA,NA,NA,NA,NA,NA,NA,NA
GAfb8P1N,3dw3bnf1hkvs8co26ehcm6ry22mv8w,3cfjtt4sxx3l9cxdo4vpi111nsl7i8,GAfb8P1N,2020-0188,2021-10-31,02:27:23,03:39:30,NA,incomplete,false,true,NA,NA,1,33,NA,yellow,m_l_011.jpg,NA,NA,NA,NA,NA,pleasant,unpleasant,NA,NA,NA,NA,NA,left,1407.30000019073,true,NA,NA,NA,NA,NA,NA,NA,NA
GAfb8P1N,3dw3bnf1hkvs8co26ehcm6ry22mv8w,3cfjtt4sxx3l9cxdo4vpi111nsl7i8,GAfb8P1N,2020-0188,2021-10-31,02:27:23,03:39:30,NA,incomplete,false,true,NA,NA,1,34,NA,yellow,m_s_066.jpg,NA,NA,NA,NA,NA,pleasant,unpleasant,NA,NA,NA,NA,NA,left,1625,true,NA,NA,NA,NA,NA,NA,NA,NA
GAfb8P1N,3dw3bnf1hkvs8co26ehcm6ry22mv8w,3cfjtt4sxx3l9cxdo4vpi111nsl7i8,GAfb8P1N,2020-0188,2021-10-31,02:27:23,03:39:30,NA,incomplete,false,true,NA,NA,1,35,NA,yellow,n_s_039.jpg,NA,NA,NA,NA,NA,pleasant,unpleasant,NA,NA,NA,NA,NA,left,2754.7000002861,true,NA,NA,NA,NA,NA,NA,NA,NA
GAfb8P1N,3dw3bnf1hkvs8co26ehcm6ry22mv8w,3cfjtt4sxx3l9cxdo4vpi111nsl7i8,GAfb8P1N,2020-0188,2021-10-31,02:27:23,03:39:30,NA,incomplete,false,NA,NA,true,1,0,NA,NA,NA,left,m_s_068.jpg,green,orange,NA,NA,NA,NA,NA,NA,NA,NA,NA,NaN,NA,4332.60000038147,left,1,NA,NA,NA,NA,NA
GAfb8P1N,3dw3bnf1hkvs8co26ehcm6ry22mv8w,3cfjtt4sxx3l9cxdo4vpi111nsl7i8,GAfb8P1N,2020-0188,2021-10-31,02:27:23,03:39:30,NA,incomplete,false,NA,NA,true,1,1,NA,NA,NA,left,m_s_043.jpg,gray,orange,NA,NA,NA,NA,NA,NA,NA,NA,NA,NaN,NA,2023.7000002861023,right,0,NA,NA,NA,NA,NA
GAfb8P1N,3dw3bnf1hkvs8co26ehcm6ry22mv8w,3cfjtt4sxx3l9cxdo4vpi111nsl7i8,GAfb8P1N,2020-0188,2021-10-31,02:27:23,03:39:30,NA,incomplete,false,NA,NA,true,1,2,NA,NA,NA,right,n_s_114.jpg,green,brown,NA,NA,NA,NA,NA,NA,NA,NA,NA,NaN,NA,2006.0999999046326,left,0,NA,NA,NA,NA,NA
GAfb8P1N,3dw3bnf1hkvs8co26ehcm6ry22mv8w,3cfjtt4sxx3l9cxdo4vpi111nsl7i8,GAfb8P1N,2020-0188,2021-10-31,02:27:23,03:39:30,NA,incomplete,false,NA,NA,true,1,3,NA,NA,NA,left,n_s_102.jpg,yellow,black,NA,NA,NA,NA,NA,NA,NA,NA,NA,NaN,NA,2646.2000002861023,right,0,NA,NA,NA,NA,NA
GAfb8P1N,3dw3bnf1hkvs8co26ehcm6ry22mv8w,3cfjtt4sxx3l9cxdo4vpi111nsl7i8,GAfb8P1N,2020-0188,2021-10-31,02:27:23,03:39:30,NA,incomplete,false,NA,NA,true,1,4,NA,NA,NA,right,m_l_032.jpg,black,brown,NA,NA,NA,NA,NA,NA,NA,NA,NA,NaN,NA,2989.1000003814697,left,0,NA,NA,NA,NA,NA
GAfb8P1N,3dw3bnf1hkvs8co26ehcm6ry22mv8w,3cfjtt4sxx3l9cxdo4vpi111nsl7i8,GAfb8P1N,2020-0188,2021-10-31,02:27:23,03:39:30,NA,incomplete,false,NA,NA,true,1,5,NA,NA,NA,left,m_s_028.jpg,green,orange,NA,NA,NA,NA,NA,NA,NA,NA,NA,NaN,NA,1694.5,left,1,NA,NA,NA,NA,NA
GAfb8P1N,3dw3bnf1hkvs8co26ehcm6ry22mv8w,3cfjtt4sxx3l9cxdo4vpi111nsl7i8,GAfb8P1N,2020-0188,2021-10-31,02:27:23,03:39:30,NA,incomplete,false,NA,NA,true,1,6,NA,NA,NA,right,n_s_039.jpg,black,yellow,NA,NA,NA,NA,NA,NA,NA,NA,NA,NaN,NA,2607.300000190735,left,0,NA,NA,NA,NA,NA
GAfb8P1N,3dw3bnf1hkvs8co26ehcm6ry22mv8w,3cfjtt4sxx3l9cxdo4vpi111nsl7i8,GAfb8P1N,2020-0188,2021-10-31,02:27:23,03:39:30,NA,incomplete,false,NA,NA,true,1,7,NA,NA,NA,right,m_l_035.jpg,green,brown,NA,NA,NA,NA,NA,NA,NA,NA,NA,NaN,NA,2017.8000001907349,left,0,NA,NA,NA,NA,NA
GAfb8P1N,3dw3bnf1hkvs8co26ehcm6ry22mv8w,3cfjtt4sxx3l9cxdo4vpi111nsl7i8,GAfb8P1N,2020-0188,2021-10-31,02:27:23,03:39:30,NA,incomplete,false,NA,NA,true,1,8,NA,NA,NA,right,n_s_048.jpg,gray,orange,NA,NA,NA,NA,NA,NA,NA,NA,NA,NaN,NA,2838.6000003814697,left,0,NA,NA,NA,NA,NA
GAfb8P1N,3dw3bnf1hkvs8co26ehcm6ry22mv8w,3cfjtt4sxx3l9cxdo4vpi111nsl7i8,GAfb8P1N,2020-0188,2021-10-31,02:27:23,03:39:30,NA,incomplete,false,NA,NA,true,1,9,NA,NA,NA,left,n_l_009.jpg,green,brown,NA,NA,NA,NA,NA,NA,NA,NA,NA,NaN,NA,2228.7000002861023,left,1,NA,NA,NA,NA,NA
GAfb8P1N,3dw3bnf1hkvs8co26ehcm6ry22mv8w,3cfjtt4sxx3l9cxdo4vpi111nsl7i8,GAfb8P1N,2020-0188,2021-10-31,02:27:23,03:39:30,NA,incomplete,false,NA,NA,true,1,10,NA,NA,NA,right,m_s_022.jpg,yellow,black,NA,NA,NA,NA,NA,NA,NA,NA,NA,NaN,NA,2253.5999999046326,right,1,NA,NA,NA,NA,NA
GAfb8P1N,3dw3bnf1hkvs8co26ehcm6ry22mv8w,3cfjtt4sxx3l9cxdo4vpi111nsl7i8,GAfb8P1N,2020-0188,2021-10-31,02:27:23,03:39:30,NA,incomplete,false,NA,NA,true,1,11,NA,NA,NA,right,m_s_055.jpg,black,brown,NA,NA,NA,NA,NA,NA,NA,NA,NA,NaN,NA,5620.5,left,0,NA,NA,NA,NA,NA
GAfb8P1N,3dw3bnf1hkvs8co26ehcm6ry22mv8w,3cfjtt4sxx3l9cxdo4vpi111nsl7i8,GAfb8P1N,2020-0188,2021-10-31,02:27:23,03:39:30,NA,incomplete,false,NA,NA,true,1,12,NA,NA,NA,right,m_s_042.jpg,orange,green,NA,NA,NA,NA,NA,NA,NA,NA,NA,NaN,NA,1908.6999998092651,left,0,NA,NA,NA,NA,NA
GAfb8P1N,3dw3bnf1hkvs8co26ehcm6ry22mv8w,3cfjtt4sxx3l9cxdo4vpi111nsl7i8,GAfb8P1N,2020-0188,2021-10-31,02:27:23,03:39:30,NA,incomplete,false,NA,NA,true,1,13,NA,NA,NA,left,n_s_099.jpg,gray,orange,NA,NA,NA,NA,NA,NA,NA,NA,NA,NaN,NA,1921,left,1,NA,NA,NA,NA,NA
GAfb8P1N,3dw3bnf1hkvs8co26ehcm6ry22mv8w,3cfjtt4sxx3l9cxdo4vpi111nsl7i8,GAfb8P1N,2020-0188,2021-10-31,02:27:23,03:39:30,NA,incomplete,false,NA,NA,true,1,14,NA,NA,NA,right,m_s_017.jpg,orange,gray,NA,NA,NA,NA,NA,NA,NA,NA,NA,NaN,NA,2362,right,1,NA,NA,NA,NA,NA
GAfb8P1N,3dw3bnf1hkvs8co26ehcm6ry22mv8w,3cfjtt4sxx3l9cxdo4vpi111nsl7i8,GAfb8P1N,2020-0188,2021-10-31,02:27:23,03:39:30,NA,incomplete,false,NA,NA,true,1,15,NA,NA,NA,left,m_l_036.jpg,orange,green,NA,NA,NA,NA,NA,NA,NA,NA,NA,NaN,NA,2403.199999809265,left,1,NA,NA,NA,NA,NA
GAfb8P1N,3dw3bnf1hkvs8co26ehcm6ry22mv8w,3cfjtt4sxx3l9cxdo4vpi111nsl7i8,GAfb8P1N,2020-0188,2021-10-31,02:27:23,03:39:30,NA,incomplete,false,NA,NA,true,1,16,NA,NA,NA,right,n_s_044.jpg,yellow,black,NA,NA,NA,NA,NA,NA,NA,NA,NA,NaN,NA,2057.5999999046326,right,1,NA,NA,NA,NA,NA
GAfb8P1N,3dw3bnf1hkvs8co26ehcm6ry22mv8w,3cfjtt4sxx3l9cxdo4vpi111nsl7i8,GAfb8P1N,2020-0188,2021-10-31,02:27:23,03:39:30,NA,incomplete,false,NA,NA,true,1,17,NA,NA,NA,right,m_s_069.jpg,green,orange,NA,NA,NA,NA,NA,NA,NA,NA,NA,NaN,NA,2539.0999999046326,left,0,NA,NA,NA,NA,NA
GAfb8P1N,3dw3bnf1hkvs8co26ehcm6ry22mv8w,3cfjtt4sxx3l9cxdo4vpi111nsl7i8,GAfb8P1N,2020-0188,2021-10-31,02:27:23,03:39:30,NA,incomplete,false,NA,NA,true,1,18,NA,NA,NA,right,m_s_072.jpg,yellow,black,NA,NA,NA,NA,NA,NA,NA,NA,NA,NaN,NA,1783.2000002861023,left,0,NA,NA,NA,NA,NA
GAfb8P1N,3dw3bnf1hkvs8co26ehcm6ry22mv8w,3cfjtt4sxx3l9cxdo4vpi111nsl7i8,GAfb8P1N,2020-0188,2021-10-31,02:27:23,03:39:30,NA,incomplete,false,NA,NA,true,1,19,NA,NA,NA,right,n_s_051.jpg,gray,orange,NA,NA,NA,NA,NA,NA,NA,NA,NA,NaN,NA,2529.4000000953674,right,1,NA,NA,NA,NA,NA
GAfb8P1N,3dw3bnf1hkvs8co26ehcm6ry22mv8w,3cfjtt4sxx3l9cxdo4vpi111nsl7i8,GAfb8P1N,2020-0188,2021-10-31,02:27:23,03:39:30,NA,incomplete,false,NA,NA,true,1,20,NA,NA,NA,left,n_l_111.jpg,yellow,black,NA,NA,NA,NA,NA,NA,NA,NA,NA,NaN,NA,2666.3999996185303,left,1,NA,NA,NA,NA,NA
GAfb8P1N,3dw3bnf1hkvs8co26ehcm6ry22mv8w,3cfjtt4sxx3l9cxdo4vpi111nsl7i8,GAfb8P1N,2020-0188,2021-10-31,02:27:23,03:39:30,NA,incomplete,false,NA,NA,true,1,21,NA,NA,NA,right,n_l_083.jpg,brown,black,NA,NA,NA,NA,NA,NA,NA,NA,NA,NaN,NA,2426.7999997138977,left,0,NA,NA,NA,NA,NA
GAfb8P1N,3dw3bnf1hkvs8co26ehcm6ry22mv8w,3cfjtt4sxx3l9cxdo4vpi111nsl7i8,GAfb8P1N,2020-0188,2021-10-31,02:27:23,03:39:30,NA,incomplete,false,NA,true,NA,1,0,NA,NA,NA,left,NA,NA,NA,present,NA,NA,m_s_043.jpg,gray,n_s_099.jpg,gray,within,NA,NaN,NA,NA,NA,NA,right,3358.2999997138977,0,0,2756.7999997138977
GAfb8P1N,3dw3bnf1hkvs8co26ehcm6ry22mv8w,3cfjtt4sxx3l9cxdo4vpi111nsl7i8,GAfb8P1N,2020-0188,2021-10-31,02:27:23,03:39:30,NA,incomplete,false,NA,true,NA,1,1,NA,NA,NA,right,NA,NA,NA,present,NA,NA,n_l_009.jpg,green,m_s_068.jpg,green,within,NA,NaN,NA,NA,NA,NA,left,1846.5999999046326,0,0,2065.9000000953674
GAfb8P1N,3dw3bnf1hkvs8co26ehcm6ry22mv8w,3cfjtt4sxx3l9cxdo4vpi111nsl7i8,GAfb8P1N,2020-0188,2021-10-31,02:27:23,03:39:30,NA,incomplete,false,NA,true,NA,1,2,NA,NA,NA,right,NA,NA,NA,present,NA,NA,m_s_072.jpg,black,m_s_022.jpg,black,within,NA,NaN,NA,NA,NA,NA,left,1609,0,0,1977.4000000953674
GAfb8P1N,3dw3bnf1hkvs8co26ehcm6ry22mv8w,3cfjtt4sxx3l9cxdo4vpi111nsl7i8,GAfb8P1N,2020-0188,2021-10-31,02:27:23,03:39:30,NA,incomplete,false,NA,true,NA,1,3,NA,NA,NA,right,NA,NA,NA,present,NA,NA,n_l_111.jpg,yellow,n_s_044.jpg,black,between,NA,NaN,NA,NA,NA,NA,left,2044.8000001907349,0,0,2562.9000000953674
GAfb8P1N,3dw3bnf1hkvs8co26ehcm6ry22mv8w,3cfjtt4sxx3l9cxdo4vpi111nsl7i8,GAfb8P1N,2020-0188,2021-10-31,02:27:23,03:39:30,NA,incomplete,false,NA,true,NA,1,4,NA,NA,NA,left,NA,NA,NA,present,NA,NA,m_l_032.jpg,brown,n_l_083.jpg,black,between,NA,NaN,NA,NA,NA,NA,left,2431,1,0,1791.4000000953674
GAfb8P1N,3dw3bnf1hkvs8co26ehcm6ry22mv8w,3cfjtt4sxx3l9cxdo4vpi111nsl7i8,GAfb8P1N,2020-0188,2021-10-31,02:27:23,03:39:30,NA,incomplete,false,NA,true,NA,1,5,NA,NA,NA,left,NA,NA,NA,present,NA,NA,n_s_102.jpg,yellow,n_s_039.jpg,yellow,within,NA,NaN,NA,NA,NA,NA,left,1858.8999996185303,1,0,1530
GAfb8P1N,3dw3bnf1hkvs8co26ehcm6ry22mv8w,3cfjtt4sxx3l9cxdo4vpi111nsl7i8,GAfb8P1N,2020-0188,2021-10-31,02:27:23,03:39:30,NA,incomplete,false,NA,true,NA,1,6,NA,NA,NA,left,NA,NA,NA,present,NA,NA,n_s_114.jpg,brown,m_l_035.jpg,brown,within,NA,NaN,NA,NA,NA,NA,left,1293.6999998092651,1,0,1276.9000000953674
GAfb8P1N,3dw3bnf1hkvs8co26ehcm6ry22mv8w,3cfjtt4sxx3l9cxdo4vpi111nsl7i8,GAfb8P1N,2020-0188,2021-10-31,02:27:23,03:39:30,NA,incomplete,false,NA,true,NA,1,7,NA,NA,NA,left,NA,NA,NA,present,NA,NA,n_s_048.jpg,orange,m_s_042.jpg,green,between,NA,NaN,NA,NA,NA,NA,right,4518.900000095367,0,0,1942
GAfb8P1N,3dw3bnf1hkvs8co26ehcm6ry22mv8w,3cfjtt4sxx3l9cxdo4vpi111nsl7i8,GAfb8P1N,2020-0188,2021-10-31,02:27:23,03:39:30,NA,incomplete,false,NA,true,NA,1,8,NA,NA,NA,right,NA,NA,NA,present,NA,NA,n_s_051.jpg,orange,m_l_036.jpg,orange,within,NA,NaN,NA,NA,NA,NA,left,1661.4000000953674,0,0,2169.2000002861023
GAfb8P1N,3dw3bnf1hkvs8co26ehcm6ry22mv8w,3cfjtt4sxx3l9cxdo4vpi111nsl7i8,GAfb8P1N,2020-0188,2021-10-31,02:27:23,03:39:30,NA,incomplete,false,NA,true,NA,1,9,NA,NA,NA,right,NA,NA,NA,present,NA,NA,m_s_055.jpg,brown,m_s_028.jpg,green,between,NA,NaN,NA,NA,NA,NA,right,1985.8000001907349,1,0,2407.1000003814697
GAfb8P1N,3dw3bnf1hkvs8co26ehcm6ry22mv8w,3cfjtt4sxx3l9cxdo4vpi111nsl7i8,GAfb8P1N,2020-0188,2021-10-31,02:27:23,03:39:30,NA,incomplete,false,NA,true,NA,1,10,NA,NA,NA,left,NA,NA,NA,present,NA,NA,m_s_017.jpg,gray,m_s_069.jpg,orange,between,NA,NaN,NA,NA,NA,NA,left,3161,1,0,2635.699999809265
GAfb8P1N,3dw3bnf1hkvs8co26ehcm6ry22mv8w,3cfjtt4sxx3l9cxdo4vpi111nsl7i8,GAfb8P1N,2020-0188,2021-10-31,02:27:23,03:39:30,NA,incomplete,false,true,NA,NA,2,0,NA,red,m_s_051.jpg,NA,NA,NA,NA,NA,unpleasant,pleasant,NA,NA,NA,NA,NA,right,3009.09999990463,true,NA,NA,NA,NA,NA,NA,NA,NA
GAfb8P1N,3dw3bnf1hkvs8co26ehcm6ry22mv8w,3cfjtt4sxx3l9cxdo4vpi111nsl7i8,GAfb8P1N,2020-0188,2021-10-31,02:27:23,03:39:30,NA,incomplete,false,true,NA,NA,2,1,NA,red,n_s_074.jpg,NA,NA,NA,NA,NA,pleasant,unpleasant,NA,NA,NA,NA,NA,left,2594.90000009537,true,NA,NA,NA,NA,NA,NA,NA,NA
GAfb8P1N,3dw3bnf1hkvs8co26ehcm6ry22mv8w,3cfjtt4sxx3l9cxdo4vpi111nsl7i8,GAfb8P1N,2020-0188,2021-10-31,02:27:23,03:39:30,NA,incomplete,false,true,NA,NA,2,2,NA,red,m_s_061.jpg,NA,NA,NA,NA,NA,pleasant,unpleasant,NA,NA,NA,NA,NA,left,1698.69999980927,true,NA,NA,NA,NA,NA,NA,NA,NA
GAfb8P1N,3dw3bnf1hkvs8co26ehcm6ry22mv8w,3cfjtt4sxx3l9cxdo4vpi111nsl7i8,GAfb8P1N,2020-0188,2021-10-31,02:27:23,03:39:30,NA,incomplete,false,true,NA,NA,2,3,NA,red,n_l_052.jpg,NA,NA,NA,NA,NA,pleasant,unpleasant,NA,NA,NA,NA,NA,left,2832.30000019073,true,NA,NA,NA,NA,NA,NA,NA,NA
GAfb8P1N,3dw3bnf1hkvs8co26ehcm6ry22mv8w,3cfjtt4sxx3l9cxdo4vpi111nsl7i8,GAfb8P1N,2020-0188,2021-10-31,02:27:23,03:39:30,NA,incomplete,false,true,NA,NA,2,4,NA,red,n_l_040.jpg,NA,NA,NA,NA,NA,unpleasant,pleasant,NA,NA,NA,NA,NA,none,0,false,NA,NA,NA,NA,NA,NA,NA,NA
GAfb8P1N,3dw3bnf1hkvs8co26ehcm6ry22mv8w,3cfjtt4sxx3l9cxdo4vpi111nsl7i8,GAfb8P1N,2020-0188,2021-10-31,02:27:23,03:39:30,NA,incomplete,false,true,NA,NA,2,5,NA,red,n_l_042.jpg,NA,NA,NA,NA,NA,unpleasant,pleasant,NA,NA,NA,NA,NA,none,0,false,NA,NA,NA,NA,NA,NA,NA,NA
GAfb8P1N,3dw3bnf1hkvs8co26ehcm6ry22mv8w,3cfjtt4sxx3l9cxdo4vpi111nsl7i8,GAfb8P1N,2020-0188,2021-10-31,02:27:23,03:39:30,NA,incomplete,false,true,NA,NA,2,6,NA,brown,m_s_111.jpg,NA,NA,NA,NA,NA,unpleasant,pleasant,NA,NA,NA,NA,NA,right,2550,true,NA,NA,NA,NA,NA,NA,NA,NA
GAfb8P1N,3dw3bnf1hkvs8co26ehcm6ry22mv8w,3cfjtt4sxx3l9cxdo4vpi111nsl7i8,GAfb8P1N,2020-0188,2021-10-31,02:27:23,03:39:30,NA,incomplete,false,true,NA,NA,2,7,NA,brown,m_l_074.jpg,NA,NA,NA,NA,NA,pleasant,unpleasant,NA,NA,NA,NA,NA,right,1516.7000002861,true,NA,NA,NA,NA,NA,NA,NA,NA
GAfb8P1N,3dw3bnf1hkvs8co26ehcm6ry22mv8w,3cfjtt4sxx3l9cxdo4vpi111nsl7i8,GAfb8P1N,2020-0188,2021-10-31,02:27:23,03:39:30,NA,incomplete,false,true,NA,NA,2,8,NA,brown,n_s_093.jpg,NA,NA,NA,NA,NA,unpleasant,pleasant,NA,NA,NA,NA,NA,right,1249.2999997139,true,NA,NA,NA,NA,NA,NA,NA,NA
GAfb8P1N,3dw3bnf1hkvs8co26ehcm6ry22mv8w,3cfjtt4sxx3l9cxdo4vpi111nsl7i8,GAfb8P1N,2020-0188,2021-10-31,02:27:23,03:39:30,NA,incomplete,false,true,NA,NA,2,9,NA,brown,m_s_103.jpg,NA,NA,NA,NA,NA,unpleasant,pleasant,NA,NA,NA,NA,NA,right,1655.40000009537,true,NA,NA,NA,NA,NA,NA,NA,NA
GAfb8P1N,3dw3bnf1hkvs8co26ehcm6ry22mv8w,3cfjtt4sxx3l9cxdo4vpi111nsl7i8,GAfb8P1N,2020-0188,2021-10-31,02:27:23,03:39:30,NA,incomplete,false,true,NA,NA,2,10,NA,brown,m_l_064.jpg,NA,NA,NA,NA,NA,pleasant,unpleasant,NA,NA,NA,NA,NA,right,2584.59999990463,true,NA,NA,NA,NA,NA,NA,NA,NA
GAfb8P1N,3dw3bnf1hkvs8co26ehcm6ry22mv8w,3cfjtt4sxx3l9cxdo4vpi111nsl7i8,GAfb8P1N,2020-0188,2021-10-31,02:27:23,03:39:30,NA,incomplete,false,true,NA,NA,2,11,NA,brown,n_l_050.jpg,NA,NA,NA,NA,NA,pleasant,unpleasant,NA,NA,NA,NA,NA,left,1319.40000009537,true,NA,NA,NA,NA,NA,NA,NA,NA
GAfb8P1N,3dw3bnf1hkvs8co26ehcm6ry22mv8w,3cfjtt4sxx3l9cxdo4vpi111nsl7i8,GAfb8P1N,2020-0188,2021-10-31,02:27:23,03:39:30,NA,incomplete,false,true,NA,NA,2,12,NA,blue,n_l_073.jpg,NA,NA,NA,NA,NA,pleasant,unpleasant,NA,NA,NA,NA,NA,left,1782.40000009537,true,NA,NA,NA,NA,NA,NA,NA,NA
GAfb8P1N,3dw3bnf1hkvs8co26ehcm6ry22mv8w,3cfjtt4sxx3l9cxdo4vpi111nsl7i8,GAfb8P1N,2020-0188,2021-10-31,02:27:23,03:39:30,NA,incomplete,false,true,NA,NA,2,13,NA,blue,n_s_008.jpg,NA,NA,NA,NA,NA,pleasant,unpleasant,NA,NA,NA,NA,NA,left,1162.2000002861,true,NA,NA,NA,NA,NA,NA,NA,NA
GAfb8P1N,3dw3bnf1hkvs8co26ehcm6ry22mv8w,3cfjtt4sxx3l9cxdo4vpi111nsl7i8,GAfb8P1N,2020-0188,2021-10-31,02:27:23,03:39:30,NA,incomplete,false,true,NA,NA,2,14,NA,blue,n_l_003.jpg,NA,NA,NA,NA,NA,pleasant,unpleasant,NA,NA,NA,NA,NA,left,3087,true,NA,NA,NA,NA,NA,NA,NA,NA
GAfb8P1N,3dw3bnf1hkvs8co26ehcm6ry22mv8w,3cfjtt4sxx3l9cxdo4vpi111nsl7i8,GAfb8P1N,2020-0188,2021-10-31,02:27:23,03:39:30,NA,incomplete,false,true,NA,NA,2,15,NA,blue,n_s_009.jpg,NA,NA,NA,NA,NA,unpleasant,pleasant,NA,NA,NA,NA,NA,left,1416.5,true,NA,NA,NA,NA,NA,NA,NA,NA
GAfb8P1N,3dw3bnf1hkvs8co26ehcm6ry22mv8w,3cfjtt4sxx3l9cxdo4vpi111nsl7i8,GAfb8P1N,2020-0188,2021-10-31,02:27:23,03:39:30,NA,incomplete,false,true,NA,NA,2,16,NA,blue,n_l_054.jpg,NA,NA,NA,NA,NA,unpleasant,pleasant,NA,NA,NA,NA,NA,right,1227.7000002861,true,NA,NA,NA,NA,NA,NA,NA,NA
GAfb8P1N,3dw3bnf1hkvs8co26ehcm6ry22mv8w,3cfjtt4sxx3l9cxdo4vpi111nsl7i8,GAfb8P1N,2020-0188,2021-10-31,02:27:23,03:39:30,NA,incomplete,false,true,NA,NA,2,17,NA,blue,m_s_079.jpg,NA,NA,NA,NA,NA,pleasant,unpleasant,NA,NA,NA,NA,NA,left,1296.5,true,NA,NA,NA,NA,NA,NA,NA,NA
GAfb8P1N,3dw3bnf1hkvs8co26ehcm6ry22mv8w,3cfjtt4sxx3l9cxdo4vpi111nsl7i8,GAfb8P1N,2020-0188,2021-10-31,02:27:23,03:39:30,NA,incomplete,false,true,NA,NA,2,18,NA,purple,m_l_102.jpg,NA,NA,NA,NA,NA,unpleasant,pleasant,NA,NA,NA,NA,NA,right,1390.40000009537,true,NA,NA,NA,NA,NA,NA,NA,NA
GAfb8P1N,3dw3bnf1hkvs8co26ehcm6ry22mv8w,3cfjtt4sxx3l9cxdo4vpi111nsl7i8,GAfb8P1N,2020-0188,2021-10-31,02:27:23,03:39:30,NA,incomplete,false,true,NA,NA,2,19,NA,purple,n_l_029.jpg,NA,NA,NA,NA,NA,pleasant,unpleasant,NA,NA,NA,NA,NA,left,1170.40000009537,true,NA,NA,NA,NA,NA,NA,NA,NA
GAfb8P1N,3dw3bnf1hkvs8co26ehcm6ry22mv8w,3cfjtt4sxx3l9cxdo4vpi111nsl7i8,GAfb8P1N,2020-0188,2021-10-31,02:27:23,03:39:30,NA,incomplete,false,true,NA,NA,2,20,NA,purple,n_l_069.jpg,NA,NA,NA,NA,NA,unpleasant,pleasant,NA,NA,NA,NA,NA,right,1149.5,true,NA,NA,NA,NA,NA,NA,NA,NA
GAfb8P1N,3dw3bnf1hkvs8co26ehcm6ry22mv8w,3cfjtt4sxx3l9cxdo4vpi111nsl7i8,GAfb8P1N,2020-0188,2021-10-31,02:27:23,03:39:30,NA,incomplete,false,true,NA,NA,2,21,NA,purple,m_s_083.jpg,NA,NA,NA,NA,NA,unpleasant,pleasant,NA,NA,NA,NA,NA,right,1846.80000019073,true,NA,NA,NA,NA,NA,NA,NA,NA
GAfb8P1N,3dw3bnf1hkvs8co26ehcm6ry22mv8w,3cfjtt4sxx3l9cxdo4vpi111nsl7i8,GAfb8P1N,2020-0188,2021-10-31,02:27:23,03:39:30,NA,incomplete,false,true,NA,NA,2,22,NA,purple,n_s_014.jpg,NA,NA,NA,NA,NA,unpleasant,pleasant,NA,NA,NA,NA,NA,right,1670.90000009537,true,NA,NA,NA,NA,NA,NA,NA,NA
GAfb8P1N,3dw3bnf1hkvs8co26ehcm6ry22mv8w,3cfjtt4sxx3l9cxdo4vpi111nsl7i8,GAfb8P1N,2020-0188,2021-10-31,02:27:23,03:39:30,NA,incomplete,false,true,NA,NA,2,23,NA,purple,m_l_052.jpg,NA,NA,NA,NA,NA,pleasant,unpleasant,NA,NA,NA,NA,NA,left,2243,true,NA,NA,NA,NA,NA,NA,NA,NA
GAfb8P1N,3dw3bnf1hkvs8co26ehcm6ry22mv8w,3cfjtt4sxx3l9cxdo4vpi111nsl7i8,GAfb8P1N,2020-0188,2021-10-31,02:27:23,03:39:30,NA,incomplete,false,true,NA,NA,2,24,NA,orange,m_l_026.jpg,NA,NA,NA,NA,NA,unpleasant,pleasant,NA,NA,NA,NA,NA,right,1577.59999990463,true,NA,NA,NA,NA,NA,NA,NA,NA
GAfb8P1N,3dw3bnf1hkvs8co26ehcm6ry22mv8w,3cfjtt4sxx3l9cxdo4vpi111nsl7i8,GAfb8P1N,2020-0188,2021-10-31,02:27:23,03:39:30,NA,incomplete,false,true,NA,NA,2,25,NA,orange,m_l_076.jpg,NA,NA,NA,NA,NA,unpleasant,pleasant,NA,NA,NA,NA,NA,right,1895.7999997139,true,NA,NA,NA,NA,NA,NA,NA,NA
GAfb8P1N,3dw3bnf1hkvs8co26ehcm6ry22mv8w,3cfjtt4sxx3l9cxdo4vpi111nsl7i8,GAfb8P1N,2020-0188,2021-10-31,02:27:23,03:39:30,NA,incomplete,false,true,NA,NA,2,26,NA,orange,m_l_071.jpg,NA,NA,NA,NA,NA,pleasant,unpleasant,NA,NA,NA,NA,NA,left,2433.7999997139,true,NA,NA,NA,NA,NA,NA,NA,NA
GAfb8P1N,3dw3bnf1hkvs8co26ehcm6ry22mv8w,3cfjtt4sxx3l9cxdo4vpi111nsl7i8,GAfb8P1N,2020-0188,2021-10-31,02:27:23,03:39:30,NA,incomplete,false,true,NA,NA,2,27,NA,orange,n_l_115.jpg,NA,NA,NA,NA,NA,unpleasant,pleasant,NA,NA,NA,NA,NA,right,3345.19999980927,true,NA,NA,NA,NA,NA,NA,NA,NA
GAfb8P1N,3dw3bnf1hkvs8co26ehcm6ry22mv8w,3cfjtt4sxx3l9cxdo4vpi111nsl7i8,GAfb8P1N,2020-0188,2021-10-31,02:27:23,03:39:30,NA,incomplete,false,true,NA,NA,2,28,NA,orange,m_s_024.jpg,NA,NA,NA,NA,NA,unpleasant,pleasant,NA,NA,NA,NA,NA,right,2438.59999990463,true,NA,NA,NA,NA,NA,NA,NA,NA
GAfb8P1N,3dw3bnf1hkvs8co26ehcm6ry22mv8w,3cfjtt4sxx3l9cxdo4vpi111nsl7i8,GAfb8P1N,2020-0188,2021-10-31,02:27:23,03:39:30,NA,incomplete,false,true,NA,NA,2,29,NA,orange,m_l_097.jpg,NA,NA,NA,NA,NA,unpleasant,pleasant,NA,NA,NA,NA,NA,right,1569,true,NA,NA,NA,NA,NA,NA,NA,NA
GAfb8P1N,3dw3bnf1hkvs8co26ehcm6ry22mv8w,3cfjtt4sxx3l9cxdo4vpi111nsl7i8,GAfb8P1N,2020-0188,2021-10-31,02:27:23,03:39:30,NA,incomplete,false,true,NA,NA,2,30,NA,gray,n_l_096.jpg,NA,NA,NA,NA,NA,unpleasant,pleasant,NA,NA,NA,NA,NA,right,1757.90000009537,true,NA,NA,NA,NA,NA,NA,NA,NA
GAfb8P1N,3dw3bnf1hkvs8co26ehcm6ry22mv8w,3cfjtt4sxx3l9cxdo4vpi111nsl7i8,GAfb8P1N,2020-0188,2021-10-31,02:27:23,03:39:30,NA,incomplete,false,true,NA,NA,2,31,NA,gray,n_l_016.jpg,NA,NA,NA,NA,NA,unpleasant,pleasant,NA,NA,NA,NA,NA,right,1503.5,true,NA,NA,NA,NA,NA,NA,NA,NA
GAfb8P1N,3dw3bnf1hkvs8co26ehcm6ry22mv8w,3cfjtt4sxx3l9cxdo4vpi111nsl7i8,GAfb8P1N,2020-0188,2021-10-31,02:27:23,03:39:30,NA,incomplete,false,true,NA,NA,2,32,NA,gray,m_l_057.jpg,NA,NA,NA,NA,NA,pleasant,unpleasant,NA,NA,NA,NA,NA,left,1612.2000002861,true,NA,NA,NA,NA,NA,NA,NA,NA
GAfb8P1N,3dw3bnf1hkvs8co26ehcm6ry22mv8w,3cfjtt4sxx3l9cxdo4vpi111nsl7i8,GAfb8P1N,2020-0188,2021-10-31,02:27:23,03:39:30,NA,incomplete,false,true,NA,NA,2,33,NA,gray,n_l_026.jpg,NA,NA,NA,NA,NA,unpleasant,pleasant,NA,NA,NA,NA,NA,right,2027.2999997139,true,NA,NA,NA,NA,NA,NA,NA,NA
GAfb8P1N,3dw3bnf1hkvs8co26ehcm6ry22mv8w,3cfjtt4sxx3l9cxdo4vpi111nsl7i8,GAfb8P1N,2020-0188,2021-10-31,02:27:23,03:39:30,NA,incomplete,false,true,NA,NA,2,34,NA,gray,m_l_054.jpg,NA,NA,NA,NA,NA,unpleasant,pleasant,NA,NA,NA,NA,NA,right,1193.7999997139,true,NA,NA,NA,NA,NA,NA,NA,NA
GAfb8P1N,3dw3bnf1hkvs8co26ehcm6ry22mv8w,3cfjtt4sxx3l9cxdo4vpi111nsl7i8,GAfb8P1N,2020-0188,2021-10-31,02:27:23,03:39:30,NA,incomplete,false,true,NA,NA,2,35,NA,gray,n_l_092.jpg,NA,NA,NA,NA,NA,pleasant,unpleasant,NA,NA,NA,NA,NA,left,1251.90000009537,true,NA,NA,NA,NA,NA,NA,NA,NA
GAfb8P1N,3dw3bnf1hkvs8co26ehcm6ry22mv8w,3cfjtt4sxx3l9cxdo4vpi111nsl7i8,GAfb8P1N,2020-0188,2021-10-31,02:27:23,03:39:30,NA,incomplete,false,NA,NA,true,2,0,NA,NA,NA,left,m_l_097.jpg,orange,purple,NA,NA,NA,NA,NA,NA,NA,NA,NA,NaN,NA,3989,left,1,NA,NA,NA,NA,NA
GAfb8P1N,3dw3bnf1hkvs8co26ehcm6ry22mv8w,3cfjtt4sxx3l9cxdo4vpi111nsl7i8,GAfb8P1N,2020-0188,2021-10-31,02:27:23,03:39:30,NA,incomplete,false,NA,NA,true,2,1,NA,NA,NA,left,n_l_029.jpg,purple,orange,NA,NA,NA,NA,NA,NA,NA,NA,NA,NaN,NA,2494.8999996185303,right,0,NA,NA,NA,NA,NA
GAfb8P1N,3dw3bnf1hkvs8co26ehcm6ry22mv8w,3cfjtt4sxx3l9cxdo4vpi111nsl7i8,GAfb8P1N,2020-0188,2021-10-31,02:27:23,03:39:30,NA,incomplete,false,NA,NA,true,2,2,NA,NA,NA,left,n_l_042.jpg,red,brown,NA,NA,NA,NA,NA,NA,NA,NA,NA,NaN,NA,1936.7999997138977,left,1,NA,NA,NA,NA,NA
GAfb8P1N,3dw3bnf1hkvs8co26ehcm6ry22mv8w,3cfjtt4sxx3l9cxdo4vpi111nsl7i8,GAfb8P1N,2020-0188,2021-10-31,02:27:23,03:39:30,NA,incomplete,false,NA,NA,true,2,3,NA,NA,NA,right,m_l_071.jpg,purple,orange,NA,NA,NA,NA,NA,NA,NA,NA,NA,NaN,NA,1770.7999997138977,left,0,NA,NA,NA,NA,NA
GAfb8P1N,3dw3bnf1hkvs8co26ehcm6ry22mv8w,3cfjtt4sxx3l9cxdo4vpi111nsl7i8,GAfb8P1N,2020-0188,2021-10-31,02:27:23,03:39:30,NA,incomplete,false,NA,NA,true,2,4,NA,NA,NA,right,n_s_008.jpg,purple,blue,NA,NA,NA,NA,NA,NA,NA,NA,NA,NaN,NA,1770.0999999046326,right,1,NA,NA,NA,NA,NA
GAfb8P1N,3dw3bnf1hkvs8co26ehcm6ry22mv8w,3cfjtt4sxx3l9cxdo4vpi111nsl7i8,GAfb8P1N,2020-0188,2021-10-31,02:27:23,03:39:30,NA,incomplete,false,NA,NA,true,2,5,NA,NA,NA,left,m_s_079.jpg,blue,brown,NA,NA,NA,NA,NA,NA,NA,NA,NA,NaN,NA,2199.7000002861023,left,1,NA,NA,NA,NA,NA
GAfb8P1N,3dw3bnf1hkvs8co26ehcm6ry22mv8w,3cfjtt4sxx3l9cxdo4vpi111nsl7i8,GAfb8P1N,2020-0188,2021-10-31,02:27:23,03:39:30,NA,incomplete,false,NA,NA,true,2,6,NA,NA,NA,left,n_l_050.jpg,brown,red,NA,NA,NA,NA,NA,NA,NA,NA,NA,NaN,NA,1537.2000002861023,left,1,NA,NA,NA,NA,NA
GAfb8P1N,3dw3bnf1hkvs8co26ehcm6ry22mv8w,3cfjtt4sxx3l9cxdo4vpi111nsl7i8,GAfb8P1N,2020-0188,2021-10-31,02:27:23,03:39:30,NA,incomplete,false,NA,NA,true,2,7,NA,NA,NA,left,n_l_016.jpg,gray,orange,NA,NA,NA,NA,NA,NA,NA,NA,NA,NaN,NA,2739,left,1,NA,NA,NA,NA,NA
GAfb8P1N,3dw3bnf1hkvs8co26ehcm6ry22mv8w,3cfjtt4sxx3l9cxdo4vpi111nsl7i8,GAfb8P1N,2020-0188,2021-10-31,02:27:23,03:39:30,NA,incomplete,false,NA,NA,true,2,8,NA,NA,NA,right,n_s_014.jpg,orange,purple,NA,NA,NA,NA,NA,NA,NA,NA,NA,NaN,NA,1516.0999999046326,right,1,NA,NA,NA,NA,NA
GAfb8P1N,3dw3bnf1hkvs8co26ehcm6ry22mv8w,3cfjtt4sxx3l9cxdo4vpi111nsl7i8,GAfb8P1N,2020-0188,2021-10-31,02:27:23,03:39:30,NA,incomplete,false,NA,NA,true,2,9,NA,NA,NA,left,n_l_003.jpg,blue,purple,NA,NA,NA,NA,NA,NA,NA,NA,NA,NaN,NA,1671.2000002861023,left,1,NA,NA,NA,NA,NA
GAfb8P1N,3dw3bnf1hkvs8co26ehcm6ry22mv8w,3cfjtt4sxx3l9cxdo4vpi111nsl7i8,GAfb8P1N,2020-0188,2021-10-31,02:27:23,03:39:30,NA,incomplete,false,NA,NA,true,2,10,NA,NA,NA,left,n_s_074.jpg,red,brown,NA,NA,NA,NA,NA,NA,NA,NA,NA,NaN,NA,1608.5,left,1,NA,NA,NA,NA,NA
GAfb8P1N,3dw3bnf1hkvs8co26ehcm6ry22mv8w,3cfjtt4sxx3l9cxdo4vpi111nsl7i8,GAfb8P1N,2020-0188,2021-10-31,02:27:23,03:39:30,NA,incomplete,false,NA,NA,true,2,11,NA,NA,NA,left,m_l_074.jpg,brown,blue,NA,NA,NA,NA,NA,NA,NA,NA,NA,NaN,NA,1819.1000003814697,left,1,NA,NA,NA,NA,NA
GAfb8P1N,3dw3bnf1hkvs8co26ehcm6ry22mv8w,3cfjtt4sxx3l9cxdo4vpi111nsl7i8,GAfb8P1N,2020-0188,2021-10-31,02:27:23,03:39:30,NA,incomplete,false,NA,NA,true,2,12,NA,NA,NA,left,n_l_092.jpg,gray,orange,NA,NA,NA,NA,NA,NA,NA,NA,NA,NaN,NA,1926.7000002861023,right,0,NA,NA,NA,NA,NA
GAfb8P1N,3dw3bnf1hkvs8co26ehcm6ry22mv8w,3cfjtt4sxx3l9cxdo4vpi111nsl7i8,GAfb8P1N,2020-0188,2021-10-31,02:27:23,03:39:30,NA,incomplete,false,NA,NA,true,2,13,NA,NA,NA,right,n_l_069.jpg,orange,purple,NA,NA,NA,NA,NA,NA,NA,NA,NA,NaN,NA,1922.9000000953674,left,0,NA,NA,NA,NA,NA
GAfb8P1N,3dw3bnf1hkvs8co26ehcm6ry22mv8w,3cfjtt4sxx3l9cxdo4vpi111nsl7i8,GAfb8P1N,2020-0188,2021-10-31,02:27:23,03:39:30,NA,incomplete,false,NA,NA,true,2,14,NA,NA,NA,right,m_l_076.jpg,purple,orange,NA,NA,NA,NA,NA,NA,NA,NA,NA,NaN,NA,2189.199999809265,left,0,NA,NA,NA,NA,NA
GAfb8P1N,3dw3bnf1hkvs8co26ehcm6ry22mv8w,3cfjtt4sxx3l9cxdo4vpi111nsl7i8,GAfb8P1N,2020-0188,2021-10-31,02:27:23,03:39:30,NA,incomplete,false,NA,NA,true,2,15,NA,NA,NA,left,m_l_057.jpg,gray,orange,NA,NA,NA,NA,NA,NA,NA,NA,NA,NaN,NA,2197.5999999046326,left,1,NA,NA,NA,NA,NA
GAfb8P1N,3dw3bnf1hkvs8co26ehcm6ry22mv8w,3cfjtt4sxx3l9cxdo4vpi111nsl7i8,GAfb8P1N,2020-0188,2021-10-31,02:27:23,03:39:30,NA,incomplete,false,NA,NA,true,2,16,NA,NA,NA,left,m_l_064.jpg,brown,blue,NA,NA,NA,NA,NA,NA,NA,NA,NA,NaN,NA,2248.2000002861023,right,0,NA,NA,NA,NA,NA
GAfb8P1N,3dw3bnf1hkvs8co26ehcm6ry22mv8w,3cfjtt4sxx3l9cxdo4vpi111nsl7i8,GAfb8P1N,2020-0188,2021-10-31,02:27:23,03:39:30,NA,incomplete,false,NA,NA,true,2,17,NA,NA,NA,right,m_s_024.jpg,purple,orange,NA,NA,NA,NA,NA,NA,NA,NA,NA,NaN,NA,2050.9000000953674,left,0,NA,NA,NA,NA,NA
GAfb8P1N,3dw3bnf1hkvs8co26ehcm6ry22mv8w,3cfjtt4sxx3l9cxdo4vpi111nsl7i8,GAfb8P1N,2020-0188,2021-10-31,02:27:23,03:39:30,NA,incomplete,false,NA,NA,true,2,18,NA,NA,NA,right,m_l_052.jpg,orange,purple,NA,NA,NA,NA,NA,NA,NA,NA,NA,NaN,NA,1938.7999997138977,right,1,NA,NA,NA,NA,NA
GAfb8P1N,3dw3bnf1hkvs8co26ehcm6ry22mv8w,3cfjtt4sxx3l9cxdo4vpi111nsl7i8,GAfb8P1N,2020-0188,2021-10-31,02:27:23,03:39:30,NA,incomplete,false,NA,NA,true,2,19,NA,NA,NA,left,n_l_040.jpg,red,brown,NA,NA,NA,NA,NA,NA,NA,NA,NA,NaN,NA,1815.6999998092651,right,0,NA,NA,NA,NA,NA
GAfb8P1N,3dw3bnf1hkvs8co26ehcm6ry22mv8w,3cfjtt4sxx3l9cxdo4vpi111nsl7i8,GAfb8P1N,2020-0188,2021-10-31,02:27:23,03:39:30,NA,incomplete,false,NA,NA,true,2,20,NA,NA,NA,right,n_l_054.jpg,brown,blue,NA,NA,NA,NA,NA,NA,NA,NA,NA,NaN,NA,2331.300000190735,left,0,NA,NA,NA,NA,NA
GAfb8P1N,3dw3bnf1hkvs8co26ehcm6ry22mv8w,3cfjtt4sxx3l9cxdo4vpi111nsl7i8,GAfb8P1N,2020-0188,2021-10-31,02:27:23,03:39:30,NA,incomplete,false,NA,NA,true,2,21,NA,NA,NA,right,n_s_093.jpg,blue,brown,NA,NA,NA,NA,NA,NA,NA,NA,NA,NaN,NA,3137.5,right,1,NA,NA,NA,NA,NA
GAfb8P1N,3dw3bnf1hkvs8co26ehcm6ry22mv8w,3cfjtt4sxx3l9cxdo4vpi111nsl7i8,GAfb8P1N,2020-0188,2021-10-31,02:27:23,03:39:30,NA,incomplete,false,NA,true,NA,2,0,NA,NA,NA,right,NA,NA,NA,present,NA,NA,m_l_057.jpg,gray,m_s_024.jpg,orange,between,NA,NaN,NA,NA,NA,NA,left,2861.199999809265,0,0,2577.800000190735
GAfb8P1N,3dw3bnf1hkvs8co26ehcm6ry22mv8w,3cfjtt4sxx3l9cxdo4vpi111nsl7i8,GAfb8P1N,2020-0188,2021-10-31,02:27:23,03:39:30,NA,incomplete,false,NA,true,NA,2,1,NA,NA,NA,left,NA,NA,NA,present,NA,NA,m_l_064.jpg,brown,n_l_003.jpg,blue,between,NA,NaN,NA,NA,NA,NA,left,1984,1,0,1587.5999999046326
GAfb8P1N,3dw3bnf1hkvs8co26ehcm6ry22mv8w,3cfjtt4sxx3l9cxdo4vpi111nsl7i8,GAfb8P1N,2020-0188,2021-10-31,02:27:23,03:39:30,NA,incomplete,false,NA,true,NA,2,2,NA,NA,NA,right,NA,NA,NA,present,NA,NA,n_l_050.jpg,brown,m_l_074.jpg,brown,within,NA,NaN,NA,NA,NA,NA,left,2178.5,0,0,1843.0999999046326
GAfb8P1N,3dw3bnf1hkvs8co26ehcm6ry22mv8w,3cfjtt4sxx3l9cxdo4vpi111nsl7i8,GAfb8P1N,2020-0188,2021-10-31,02:27:23,03:39:30,NA,incomplete,false,NA,true,NA,2,3,NA,NA,NA,right,NA,NA,NA,present,NA,NA,n_s_093.jpg,brown,n_l_040.jpg,red,between,NA,NaN,NA,NA,NA,NA,left,2894.1000003814697,0,0,1972.5
GAfb8P1N,3dw3bnf1hkvs8co26ehcm6ry22mv8w,3cfjtt4sxx3l9cxdo4vpi111nsl7i8,GAfb8P1N,2020-0188,2021-10-31,02:27:23,03:39:30,NA,incomplete,false,NA,true,NA,2,4,NA,NA,NA,right,NA,NA,NA,present,NA,NA,n_l_069.jpg,purple,n_l_054.jpg,blue,between,NA,NaN,NA,NA,NA,NA,left,2111.800000190735,0,0,2229.9000000953674
GAfb8P1N,3dw3bnf1hkvs8co26ehcm6ry22mv8w,3cfjtt4sxx3l9cxdo4vpi111nsl7i8,GAfb8P1N,2020-0188,2021-10-31,02:27:23,03:39:30,NA,incomplete,false,NA,true,NA,2,5,NA,NA,NA,right,NA,NA,NA,present,NA,NA,n_l_092.jpg,gray,n_l_016.jpg,gray,within,NA,NaN,NA,NA,NA,NA,left,2360.300000190735,0,0,2069
GAfb8P1N,3dw3bnf1hkvs8co26ehcm6ry22mv8w,3cfjtt4sxx3l9cxdo4vpi111nsl7i8,GAfb8P1N,2020-0188,2021-10-31,02:27:23,03:39:30,NA,incomplete,false,NA,true,NA,2,6,NA,NA,NA,left,NA,NA,NA,present,NA,NA,n_s_014.jpg,purple,m_l_071.jpg,orange,between,NA,NaN,NA,NA,NA,NA,left,2279.300000190735,1,0,2467.5
GAfb8P1N,3dw3bnf1hkvs8co26ehcm6ry22mv8w,3cfjtt4sxx3l9cxdo4vpi111nsl7i8,GAfb8P1N,2020-0188,2021-10-31,02:27:23,03:39:30,NA,incomplete,false,NA,true,NA,2,7,NA,NA,NA,right,NA,NA,NA,present,NA,NA,m_l_097.jpg,orange,m_l_076.jpg,orange,within,NA,NaN,NA,NA,NA,NA,left,2660.5999999046326,0,0,2189.3999996185303
GAfb8P1N,3dw3bnf1hkvs8co26ehcm6ry22mv8w,3cfjtt4sxx3l9cxdo4vpi111nsl7i8,GAfb8P1N,2020-0188,2021-10-31,02:27:23,03:39:30,NA,incomplete,false,NA,true,NA,2,8,NA,NA,NA,left,NA,NA,NA,present,NA,NA,n_l_029.jpg,purple,m_l_052.jpg,purple,within,NA,NaN,NA,NA,NA,NA,left,2346.5999999046326,1,0,1956
GAfb8P1N,3dw3bnf1hkvs8co26ehcm6ry22mv8w,3cfjtt4sxx3l9cxdo4vpi111nsl7i8,GAfb8P1N,2020-0188,2021-10-31,02:27:23,03:39:30,NA,incomplete,false,NA,true,NA,2,9,NA,NA,NA,left,NA,NA,NA,present,NA,NA,n_s_008.jpg,blue,m_s_079.jpg,blue,within,NA,NaN,NA,NA,NA,NA,left,1739,1,0,1758.4000000953674
GAfb8P1N,3dw3bnf1hkvs8co26ehcm6ry22mv8w,3cfjtt4sxx3l9cxdo4vpi111nsl7i8,GAfb8P1N,2020-0188,2021-10-31,02:27:23,03:39:30,NA,incomplete,false,NA,true,NA,2,10,NA,NA,NA,left,NA,NA,NA,present,NA,NA,n_s_074.jpg,red,n_l_042.jpg,red,within,NA,NaN,NA,NA,NA,NA,left,2228.8999996185303,1,0,2091.4000000953674
GAfb8P1N,3dw3bnf1hkvs8co26ehcm6ry22mv8w,3cfjtt4sxx3l9cxdo4vpi111nsl7i8,GAfb8P1N,2020-0188,2021-10-31,02:27:23,03:39:30,NA,incomplete,false,true,NA,NA,3,0,NA,brown,n_s_022.jpg,NA,NA,NA,NA,NA,pleasant,unpleasant,NA,NA,NA,NA,NA,left,3078.2000002861,true,NA,NA,NA,NA,NA,NA,NA,NA
GAfb8P1N,3dw3bnf1hkvs8co26ehcm6ry22mv8w,3cfjtt4sxx3l9cxdo4vpi111nsl7i8,GAfb8P1N,2020-0188,2021-10-31,02:27:23,03:39:30,NA,incomplete,false,true,NA,NA,3,1,NA,brown,n_s_105.jpg,NA,NA,NA,NA,NA,unpleasant,pleasant,NA,NA,NA,NA,NA,right,1324.40000009537,true,NA,NA,NA,NA,NA,NA,NA,NA
GAfb8P1N,3dw3bnf1hkvs8co26ehcm6ry22mv8w,3cfjtt4sxx3l9cxdo4vpi111nsl7i8,GAfb8P1N,2020-0188,2021-10-31,02:27:23,03:39:30,NA,incomplete,false,true,NA,NA,3,2,NA,brown,n_s_047.jpg,NA,NA,NA,NA,NA,unpleasant,pleasant,NA,NA,NA,NA,NA,right,2852.40000009537,true,NA,NA,NA,NA,NA,NA,NA,NA
GAfb8P1N,3dw3bnf1hkvs8co26ehcm6ry22mv8w,3cfjtt4sxx3l9cxdo4vpi111nsl7i8,GAfb8P1N,2020-0188,2021-10-31,02:27:23,03:39:30,NA,incomplete,false,true,NA,NA,3,3,NA,brown,n_s_017.jpg,NA,NA,NA,NA,NA,pleasant,unpleasant,NA,NA,NA,NA,NA,left,2722.5,true,NA,NA,NA,NA,NA,NA,NA,NA
GAfb8P1N,3dw3bnf1hkvs8co26ehcm6ry22mv8w,3cfjtt4sxx3l9cxdo4vpi111nsl7i8,GAfb8P1N,2020-0188,2021-10-31,02:27:23,03:39:30,NA,incomplete,false,true,NA,NA,3,4,NA,brown,m_l_079.jpg,NA,NA,NA,NA,NA,unpleasant,pleasant,NA,NA,NA,NA,NA,right,2244.7999997139,true,NA,NA,NA,NA,NA,NA,NA,NA
GAfb8P1N,3dw3bnf1hkvs8co26ehcm6ry22mv8w,3cfjtt4sxx3l9cxdo4vpi111nsl7i8,GAfb8P1N,2020-0188,2021-10-31,02:27:23,03:39:30,NA,incomplete,false,true,NA,NA,3,5,NA,brown,n_s_049.jpg,NA,NA,NA,NA,NA,unpleasant,pleasant,NA,NA,NA,NA,NA,right,1409.40000009537,true,NA,NA,NA,NA,NA,NA,NA,NA
GAfb8P1N,3dw3bnf1hkvs8co26ehcm6ry22mv8w,3cfjtt4sxx3l9cxdo4vpi111nsl7i8,GAfb8P1N,2020-0188,2021-10-31,02:27:23,03:39:30,NA,incomplete,false,true,NA,NA,3,6,NA,blue,m_s_104.jpg,NA,NA,NA,NA,NA,pleasant,unpleasant,NA,NA,NA,NA,NA,left,1339.40000009537,true,NA,NA,NA,NA,NA,NA,NA,NA
GAfb8P1N,3dw3bnf1hkvs8co26ehcm6ry22mv8w,3cfjtt4sxx3l9cxdo4vpi111nsl7i8,GAfb8P1N,2020-0188,2021-10-31,02:27:23,03:39:30,NA,incomplete,false,true,NA,NA,3,7,NA,blue,m_s_115.jpg,NA,NA,NA,NA,NA,pleasant,unpleasant,NA,NA,NA,NA,NA,right,1508.80000019073,true,NA,NA,NA,NA,NA,NA,NA,NA
GAfb8P1N,3dw3bnf1hkvs8co26ehcm6ry22mv8w,3cfjtt4sxx3l9cxdo4vpi111nsl7i8,GAfb8P1N,2020-0188,2021-10-31,02:27:23,03:39:30,NA,incomplete,false,true,NA,NA,3,8,NA,blue,m_l_055.jpg,NA,NA,NA,NA,NA,unpleasant,pleasant,NA,NA,NA,NA,NA,left,1747.40000009537,true,NA,NA,NA,NA,NA,NA,NA,NA
GAfb8P1N,3dw3bnf1hkvs8co26ehcm6ry22mv8w,3cfjtt4sxx3l9cxdo4vpi111nsl7i8,GAfb8P1N,2020-0188,2021-10-31,02:27:23,03:39:30,NA,incomplete,false,true,NA,NA,3,9,NA,blue,m_s_108.jpg,NA,NA,NA,NA,NA,pleasant,unpleasant,NA,NA,NA,NA,NA,left,1422.40000009537,true,NA,NA,NA,NA,NA,NA,NA,NA
GAfb8P1N,3dw3bnf1hkvs8co26ehcm6ry22mv8w,3cfjtt4sxx3l9cxdo4vpi111nsl7i8,GAfb8P1N,2020-0188,2021-10-31,02:27:23,03:39:30,NA,incomplete,false,true,NA,NA,3,10,NA,blue,m_s_085.jpg,NA,NA,NA,NA,NA,pleasant,unpleasant,NA,NA,NA,NA,NA,left,2262.59999990463,true,NA,NA,NA,NA,NA,NA,NA,NA
GAfb8P1N,3dw3bnf1hkvs8co26ehcm6ry22mv8w,3cfjtt4sxx3l9cxdo4vpi111nsl7i8,GAfb8P1N,2020-0188,2021-10-31,02:27:23,03:39:30,NA,incomplete,false,true,NA,NA,3,11,NA,blue,m_l_045.jpg,NA,NA,NA,NA,NA,pleasant,unpleasant,NA,NA,NA,NA,NA,left,1329,true,NA,NA,NA,NA,NA,NA,NA,NA
GAfb8P1N,3dw3bnf1hkvs8co26ehcm6ry22mv8w,3cfjtt4sxx3l9cxdo4vpi111nsl7i8,GAfb8P1N,2020-0188,2021-10-31,02:27:23,03:39:30,NA,incomplete,false,true,NA,NA,3,12,NA,green,m_l_050.jpg,NA,NA,NA,NA,NA,unpleasant,pleasant,NA,NA,NA,NA,NA,right,1737.7999997139,true,NA,NA,NA,NA,NA,NA,NA,NA
GAfb8P1N,3dw3bnf1hkvs8co26ehcm6ry22mv8w,3cfjtt4sxx3l9cxdo4vpi111nsl7i8,GAfb8P1N,2020-0188,2021-10-31,02:27:23,03:39:30,NA,incomplete,false,true,NA,NA,3,13,NA,green,n_l_028.jpg,NA,NA,NA,NA,NA,unpleasant,pleasant,NA,NA,NA,NA,NA,right,1547,true,NA,NA,NA,NA,NA,NA,NA,NA
GAfb8P1N,3dw3bnf1hkvs8co26ehcm6ry22mv8w,3cfjtt4sxx3l9cxdo4vpi111nsl7i8,GAfb8P1N,2020-0188,2021-10-31,02:27:23,03:39:30,NA,incomplete,false,true,NA,NA,3,14,NA,green,m_l_099.jpg,NA,NA,NA,NA,NA,pleasant,unpleasant,NA,NA,NA,NA,NA,left,1874.90000009537,true,NA,NA,NA,NA,NA,NA,NA,NA
GAfb8P1N,3dw3bnf1hkvs8co26ehcm6ry22mv8w,3cfjtt4sxx3l9cxdo4vpi111nsl7i8,GAfb8P1N,2020-0188,2021-10-31,02:27:23,03:39:30,NA,incomplete,false,true,NA,NA,3,15,NA,green,n_s_094.jpg,NA,NA,NA,NA,NA,pleasant,unpleasant,NA,NA,NA,NA,NA,left,1737.69999980927,true,NA,NA,NA,NA,NA,NA,NA,NA
GAfb8P1N,3dw3bnf1hkvs8co26ehcm6ry22mv8w,3cfjtt4sxx3l9cxdo4vpi111nsl7i8,GAfb8P1N,2020-0188,2021-10-31,02:27:23,03:39:30,NA,incomplete,false,true,NA,NA,3,16,NA,green,m_l_077.jpg,NA,NA,NA,NA,NA,pleasant,unpleasant,NA,NA,NA,NA,NA,left,1602,true,NA,NA,NA,NA,NA,NA,NA,NA
GAfb8P1N,3dw3bnf1hkvs8co26ehcm6ry22mv8w,3cfjtt4sxx3l9cxdo4vpi111nsl7i8,GAfb8P1N,2020-0188,2021-10-31,02:27:23,03:39:30,NA,incomplete,false,true,NA,NA,3,17,NA,green,m_s_071.jpg,NA,NA,NA,NA,NA,unpleasant,pleasant,NA,NA,NA,NA,NA,left,2938.60000038147,true,NA,NA,NA,NA,NA,NA,NA,NA
GAfb8P1N,3dw3bnf1hkvs8co26ehcm6ry22mv8w,3cfjtt4sxx3l9cxdo4vpi111nsl7i8,GAfb8P1N,2020-0188,2021-10-31,02:27:23,03:39:30,NA,incomplete,false,true,NA,NA,3,18,NA,black,n_s_040.jpg,NA,NA,NA,NA,NA,pleasant,unpleasant,NA,NA,NA,NA,NA,left,2440.80000019073,true,NA,NA,NA,NA,NA,NA,NA,NA
GAfb8P1N,3dw3bnf1hkvs8co26ehcm6ry22mv8w,3cfjtt4sxx3l9cxdo4vpi111nsl7i8,GAfb8P1N,2020-0188,2021-10-31,02:27:23,03:39:30,NA,incomplete,false,true,NA,NA,3,19,NA,black,m_s_096.jpg,NA,NA,NA,NA,NA,unpleasant,pleasant,NA,NA,NA,NA,NA,right,1485.69999980927,true,NA,NA,NA,NA,NA,NA,NA,NA
GAfb8P1N,3dw3bnf1hkvs8co26ehcm6ry22mv8w,3cfjtt4sxx3l9cxdo4vpi111nsl7i8,GAfb8P1N,2020-0188,2021-10-31,02:27:23,03:39:30,NA,incomplete,false,true,NA,NA,3,20,NA,black,m_s_026.jpg,NA,NA,NA,NA,NA,unpleasant,pleasant,NA,NA,NA,NA,NA,right,1482.2999997139,true,NA,NA,NA,NA,NA,NA,NA,NA
GAfb8P1N,3dw3bnf1hkvs8co26ehcm6ry22mv8w,3cfjtt4sxx3l9cxdo4vpi111nsl7i8,GAfb8P1N,2020-0188,2021-10-31,02:27:23,03:39:30,NA,incomplete,false,true,NA,NA,3,21,NA,black,m_s_033.jpg,NA,NA,NA,NA,NA,pleasant,unpleasant,NA,NA,NA,NA,NA,none,0,false,NA,NA,NA,NA,NA,NA,NA,NA
GAfb8P1N,3dw3bnf1hkvs8co26ehcm6ry22mv8w,3cfjtt4sxx3l9cxdo4vpi111nsl7i8,GAfb8P1N,2020-0188,2021-10-31,02:27:23,03:39:30,NA,incomplete,false,true,NA,NA,3,22,NA,black,n_l_102.jpg,NA,NA,NA,NA,NA,pleasant,unpleasant,NA,NA,NA,NA,NA,left,1689.30000019073,true,NA,NA,NA,NA,NA,NA,NA,NA
GAfb8P1N,3dw3bnf1hkvs8co26ehcm6ry22mv8w,3cfjtt4sxx3l9cxdo4vpi111nsl7i8,GAfb8P1N,2020-0188,2021-10-31,02:27:23,03:39:30,NA,incomplete,false,true,NA,NA,3,23,NA,black,m_l_085.jpg,NA,NA,NA,NA,NA,unpleasant,pleasant,NA,NA,NA,NA,NA,right,1810.59999990463,true,NA,NA,NA,NA,NA,NA,NA,NA
GAfb8P1N,3dw3bnf1hkvs8co26ehcm6ry22mv8w,3cfjtt4sxx3l9cxdo4vpi111nsl7i8,GAfb8P1N,2020-0188,2021-10-31,02:27:23,03:39:30,NA,incomplete,false,true,NA,NA,3,24,NA,red,n_s_011.jpg,NA,NA,NA,NA,NA,pleasant,unpleasant,NA,NA,NA,NA,NA,left,1438.10000038147,true,NA,NA,NA,NA,NA,NA,NA,NA
GAfb8P1N,3dw3bnf1hkvs8co26ehcm6ry22mv8w,3cfjtt4sxx3l9cxdo4vpi111nsl7i8,GAfb8P1N,2020-0188,2021-10-31,02:27:23,03:39:30,NA,incomplete,false,true,NA,NA,3,25,NA,red,n_s_061.jpg,NA,NA,NA,NA,NA,unpleasant,pleasant,NA,NA,NA,NA,NA,right,1550.59999990463,true,NA,NA,NA,NA,NA,NA,NA,NA
GAfb8P1N,3dw3bnf1hkvs8co26ehcm6ry22mv8w,3cfjtt4sxx3l9cxdo4vpi111nsl7i8,GAfb8P1N,2020-0188,2021-10-31,02:27:23,03:39:30,NA,incomplete,false,true,NA,NA,3,26,NA,red,n_l_065.jpg,NA,NA,NA,NA,NA,unpleasant,pleasant,NA,NA,NA,NA,NA,left,1238.09999990463,true,NA,NA,NA,NA,NA,NA,NA,NA
GAfb8P1N,3dw3bnf1hkvs8co26ehcm6ry22mv8w,3cfjtt4sxx3l9cxdo4vpi111nsl7i8,GAfb8P1N,2020-0188,2021-10-31,02:27:23,03:39:30,NA,incomplete,false,true,NA,NA,3,27,NA,red,n_s_095.jpg,NA,NA,NA,NA,NA,unpleasant,pleasant,NA,NA,NA,NA,NA,right,1508,true,NA,NA,NA,NA,NA,NA,NA,NA
GAfb8P1N,3dw3bnf1hkvs8co26ehcm6ry22mv8w,3cfjtt4sxx3l9cxdo4vpi111nsl7i8,GAfb8P1N,2020-0188,2021-10-31,02:27:23,03:39:30,NA,incomplete,false,true,NA,NA,3,28,NA,red,m_s_113.jpg,NA,NA,NA,NA,NA,pleasant,unpleasant,NA,NA,NA,NA,NA,left,1396.40000009537,true,NA,NA,NA,NA,NA,NA,NA,NA
GAfb8P1N,3dw3bnf1hkvs8co26ehcm6ry22mv8w,3cfjtt4sxx3l9cxdo4vpi111nsl7i8,GAfb8P1N,2020-0188,2021-10-31,02:27:23,03:39:30,NA,incomplete,false,true,NA,NA,3,29,NA,red,n_l_031.jpg,NA,NA,NA,NA,NA,pleasant,unpleasant,NA,NA,NA,NA,NA,left,1172.90000009537,true,NA,NA,NA,NA,NA,NA,NA,NA
GAfb8P1N,3dw3bnf1hkvs8co26ehcm6ry22mv8w,3cfjtt4sxx3l9cxdo4vpi111nsl7i8,GAfb8P1N,2020-0188,2021-10-31,02:27:23,03:39:30,NA,incomplete,false,true,NA,NA,3,30,NA,yellow,m_s_031.jpg,NA,NA,NA,NA,NA,unpleasant,pleasant,NA,NA,NA,NA,NA,right,1342.90000009537,true,NA,NA,NA,NA,NA,NA,NA,NA
GAfb8P1N,3dw3bnf1hkvs8co26ehcm6ry22mv8w,3cfjtt4sxx3l9cxdo4vpi111nsl7i8,GAfb8P1N,2020-0188,2021-10-31,02:27:23,03:39:30,NA,incomplete,false,true,NA,NA,3,31,NA,yellow,n_l_023.jpg,NA,NA,NA,NA,NA,pleasant,unpleasant,NA,NA,NA,NA,NA,left,1980.19999980927,true,NA,NA,NA,NA,NA,NA,NA,NA
GAfb8P1N,3dw3bnf1hkvs8co26ehcm6ry22mv8w,3cfjtt4sxx3l9cxdo4vpi111nsl7i8,GAfb8P1N,2020-0188,2021-10-31,02:27:23,03:39:30,NA,incomplete,false,true,NA,NA,3,32,NA,yellow,m_s_004.jpg,NA,NA,NA,NA,NA,unpleasant,pleasant,NA,NA,NA,NA,NA,right,1084.09999990463,true,NA,NA,NA,NA,NA,NA,NA,NA
GAfb8P1N,3dw3bnf1hkvs8co26ehcm6ry22mv8w,3cfjtt4sxx3l9cxdo4vpi111nsl7i8,GAfb8P1N,2020-0188,2021-10-31,02:27:23,03:39:30,NA,incomplete,false,true,NA,NA,3,33,NA,yellow,m_l_041.jpg,NA,NA,NA,NA,NA,unpleasant,pleasant,NA,NA,NA,NA,NA,right,1760.5,true,NA,NA,NA,NA,NA,NA,NA,NA
GAfb8P1N,3dw3bnf1hkvs8co26ehcm6ry22mv8w,3cfjtt4sxx3l9cxdo4vpi111nsl7i8,GAfb8P1N,2020-0188,2021-10-31,02:27:23,03:39:30,NA,incomplete,false,true,NA,NA,3,34,NA,yellow,n_l_048.jpg,NA,NA,NA,NA,NA,unpleasant,pleasant,NA,NA,NA,NA,NA,right,1869.40000009537,true,NA,NA,NA,NA,NA,NA,NA,NA
GAfb8P1N,3dw3bnf1hkvs8co26ehcm6ry22mv8w,3cfjtt4sxx3l9cxdo4vpi111nsl7i8,GAfb8P1N,2020-0188,2021-10-31,02:27:23,03:39:30,NA,incomplete,false,true,NA,NA,3,35,NA,yellow,n_s_007.jpg,NA,NA,NA,NA,NA,unpleasant,pleasant,NA,NA,NA,NA,NA,right,1102.90000009537,true,NA,NA,NA,NA,NA,NA,NA,NA
GAfb8P1N,3dw3bnf1hkvs8co26ehcm6ry22mv8w,3cfjtt4sxx3l9cxdo4vpi111nsl7i8,GAfb8P1N,2020-0188,2021-10-31,02:27:23,03:39:30,NA,incomplete,false,NA,NA,true,3,0,NA,NA,NA,right,m_s_113.jpg,yellow,red,NA,NA,NA,NA,NA,NA,NA,NA,NA,NaN,NA,4782.099999904633,right,1,NA,NA,NA,NA,NA
GAfb8P1N,3dw3bnf1hkvs8co26ehcm6ry22mv8w,3cfjtt4sxx3l9cxdo4vpi111nsl7i8,GAfb8P1N,2020-0188,2021-10-31,02:27:23,03:39:30,NA,incomplete,false,NA,NA,true,3,1,NA,NA,NA,right,m_l_079.jpg,blue,brown,NA,NA,NA,NA,NA,NA,NA,NA,NA,NaN,NA,2018.6999998092651,left,0,NA,NA,NA,NA,NA
GAfb8P1N,3dw3bnf1hkvs8co26ehcm6ry22mv8w,3cfjtt4sxx3l9cxdo4vpi111nsl7i8,GAfb8P1N,2020-0188,2021-10-31,02:27:23,03:39:30,NA,incomplete,false,NA,NA,true,3,2,NA,NA,NA,left,m_s_096.jpg,black,green,NA,NA,NA,NA,NA,NA,NA,NA,NA,NaN,NA,2226.699999809265,right,0,NA,NA,NA,NA,NA
GAfb8P1N,3dw3bnf1hkvs8co26ehcm6ry22mv8w,3cfjtt4sxx3l9cxdo4vpi111nsl7i8,GAfb8P1N,2020-0188,2021-10-31,02:27:23,03:39:30,NA,incomplete,false,NA,NA,true,3,3,NA,NA,NA,left,m_s_004.jpg,yellow,red,NA,NA,NA,NA,NA,NA,NA,NA,NA,NaN,NA,2245.0999999046326,right,0,NA,NA,NA,NA,NA
GAfb8P1N,3dw3bnf1hkvs8co26ehcm6ry22mv8w,3cfjtt4sxx3l9cxdo4vpi111nsl7i8,GAfb8P1N,2020-0188,2021-10-31,02:27:23,03:39:30,NA,incomplete,false,NA,NA,true,3,4,NA,NA,NA,right,m_s_085.jpg,green,blue,NA,NA,NA,NA,NA,NA,NA,NA,NA,NaN,NA,3089.4000000953674,right,1,NA,NA,NA,NA,NA
GAfb8P1N,3dw3bnf1hkvs8co26ehcm6ry22mv8w,3cfjtt4sxx3l9cxdo4vpi111nsl7i8,GAfb8P1N,2020-0188,2021-10-31,02:27:23,03:39:30,NA,incomplete,false,NA,NA,true,3,5,NA,NA,NA,left,m_l_077.jpg,green,blue,NA,NA,NA,NA,NA,NA,NA,NA,NA,NaN,NA,2008.9000000953674,left,1,NA,NA,NA,NA,NA
GAfb8P1N,3dw3bnf1hkvs8co26ehcm6ry22mv8w,3cfjtt4sxx3l9cxdo4vpi111nsl7i8,GAfb8P1N,2020-0188,2021-10-31,02:27:23,03:39:30,NA,incomplete,false,NA,NA,true,3,6,NA,NA,NA,right,n_l_102.jpg,green,black,NA,NA,NA,NA,NA,NA,NA,NA,NA,NaN,NA,3304.0999999046326,right,1,NA,NA,NA,NA,NA
GAfb8P1N,3dw3bnf1hkvs8co26ehcm6ry22mv8w,3cfjtt4sxx3l9cxdo4vpi111nsl7i8,GAfb8P1N,2020-0188,2021-10-31,02:27:23,03:39:30,NA,incomplete,false,NA,NA,true,3,7,NA,NA,NA,right,n_s_061.jpg,black,red,NA,NA,NA,NA,NA,NA,NA,NA,NA,NaN,NA,2134.3999996185303,right,1,NA,NA,NA,NA,NA
GAfb8P1N,3dw3bnf1hkvs8co26ehcm6ry22mv8w,3cfjtt4sxx3l9cxdo4vpi111nsl7i8,GAfb8P1N,2020-0188,2021-10-31,02:27:23,03:39:30,NA,incomplete,false,NA,NA,true,3,8,NA,NA,NA,left,m_l_055.jpg,blue,brown,NA,NA,NA,NA,NA,NA,NA,NA,NA,NaN,NA,2298.5,left,1,NA,NA,NA,NA,NA
GAfb8P1N,3dw3bnf1hkvs8co26ehcm6ry22mv8w,3cfjtt4sxx3l9cxdo4vpi111nsl7i8,GAfb8P1N,2020-0188,2021-10-31,02:27:23,03:39:30,NA,incomplete,false,NA,NA,true,3,9,NA,NA,NA,right,m_s_071.jpg,black,green,NA,NA,NA,NA,NA,NA,NA,NA,NA,NaN,NA,2278.9000000953674,right,1,NA,NA,NA,NA,NA
GAfb8P1N,3dw3bnf1hkvs8co26ehcm6ry22mv8w,3cfjtt4sxx3l9cxdo4vpi111nsl7i8,GAfb8P1N,2020-0188,2021-10-31,02:27:23,03:39:30,NA,incomplete,false,NA,NA,true,3,10,NA,NA,NA,right,n_l_023.jpg,red,yellow,NA,NA,NA,NA,NA,NA,NA,NA,NA,NaN,NA,2375.8999996185303,left,0,NA,NA,NA,NA,NA
GAfb8P1N,3dw3bnf1hkvs8co26ehcm6ry22mv8w,3cfjtt4sxx3l9cxdo4vpi111nsl7i8,GAfb8P1N,2020-0188,2021-10-31,02:27:23,03:39:30,NA,incomplete,false,NA,NA,true,3,11,NA,NA,NA,left,n_s_049.jpg,brown,blue,NA,NA,NA,NA,NA,NA,NA,NA,NA,NaN,NA,3278.3999996185303,right,0,NA,NA,NA,NA,NA
GAfb8P1N,3dw3bnf1hkvs8co26ehcm6ry22mv8w,3cfjtt4sxx3l9cxdo4vpi111nsl7i8,GAfb8P1N,2020-0188,2021-10-31,02:27:23,03:39:30,NA,incomplete,false,NA,NA,true,3,12,NA,NA,NA,left,n_l_028.jpg,green,blue,NA,NA,NA,NA,NA,NA,NA,NA,NA,NaN,NA,1957.3000001907349,left,1,NA,NA,NA,NA,NA
GAfb8P1N,3dw3bnf1hkvs8co26ehcm6ry22mv8w,3cfjtt4sxx3l9cxdo4vpi111nsl7i8,GAfb8P1N,2020-0188,2021-10-31,02:27:23,03:39:30,NA,incomplete,false,NA,NA,true,3,13,NA,NA,NA,right,n_l_031.jpg,yellow,red,NA,NA,NA,NA,NA,NA,NA,NA,NA,NaN,NA,2176,right,1,NA,NA,NA,NA,NA
GAfb8P1N,3dw3bnf1hkvs8co26ehcm6ry22mv8w,3cfjtt4sxx3l9cxdo4vpi111nsl7i8,GAfb8P1N,2020-0188,2021-10-31,02:27:23,03:39:30,NA,incomplete,false,NA,NA,true,3,14,NA,NA,NA,left,m_l_085.jpg,black,red,NA,NA,NA,NA,NA,NA,NA,NA,NA,NaN,NA,2249.9000000953674,right,0,NA,NA,NA,NA,NA
GAfb8P1N,3dw3bnf1hkvs8co26ehcm6ry22mv8w,3cfjtt4sxx3l9cxdo4vpi111nsl7i8,GAfb8P1N,2020-0188,2021-10-31,02:27:23,03:39:30,NA,incomplete,false,NA,NA,true,3,15,NA,NA,NA,left,m_l_099.jpg,green,black,NA,NA,NA,NA,NA,NA,NA,NA,NA,NaN,NA,2232.800000190735,left,1,NA,NA,NA,NA,NA
GAfb8P1N,3dw3bnf1hkvs8co26ehcm6ry22mv8w,3cfjtt4sxx3l9cxdo4vpi111nsl7i8,GAfb8P1N,2020-0188,2021-10-31,02:27:23,03:39:30,NA,incomplete,false,NA,NA,true,3,16,NA,NA,NA,right,n_s_105.jpg,blue,brown,NA,NA,NA,NA,NA,NA,NA,NA,NA,NaN,NA,2319.4000000953674,right,1,NA,NA,NA,NA,NA
GAfb8P1N,3dw3bnf1hkvs8co26ehcm6ry22mv8w,3cfjtt4sxx3l9cxdo4vpi111nsl7i8,GAfb8P1N,2020-0188,2021-10-31,02:27:23,03:39:30,NA,incomplete,false,NA,NA,true,3,17,NA,NA,NA,left,n_l_065.jpg,red,yellow,NA,NA,NA,NA,NA,NA,NA,NA,NA,NaN,NA,1938.6999998092651,left,1,NA,NA,NA,NA,NA
GAfb8P1N,3dw3bnf1hkvs8co26ehcm6ry22mv8w,3cfjtt4sxx3l9cxdo4vpi111nsl7i8,GAfb8P1N,2020-0188,2021-10-31,02:27:23,03:39:30,NA,incomplete,false,NA,NA,true,3,18,NA,NA,NA,right,n_s_007.jpg,red,yellow,NA,NA,NA,NA,NA,NA,NA,NA,NA,NaN,NA,2780.9000000953674,right,1,NA,NA,NA,NA,NA
GAfb8P1N,3dw3bnf1hkvs8co26ehcm6ry22mv8w,3cfjtt4sxx3l9cxdo4vpi111nsl7i8,GAfb8P1N,2020-0188,2021-10-31,02:27:23,03:39:30,NA,incomplete,false,NA,NA,true,3,19,NA,NA,NA,left,m_s_026.jpg,black,green,NA,NA,NA,NA,NA,NA,NA,NA,NA,NaN,NA,2578.5,right,0,NA,NA,NA,NA,NA
GAfb8P1N,3dw3bnf1hkvs8co26ehcm6ry22mv8w,3cfjtt4sxx3l9cxdo4vpi111nsl7i8,GAfb8P1N,2020-0188,2021-10-31,02:27:23,03:39:30,NA,incomplete,false,NA,NA,true,3,20,NA,NA,NA,left,m_l_045.jpg,blue,green,NA,NA,NA,NA,NA,NA,NA,NA,NA,NaN,NA,2279.300000190735,left,1,NA,NA,NA,NA,NA
GAfb8P1N,3dw3bnf1hkvs8co26ehcm6ry22mv8w,3cfjtt4sxx3l9cxdo4vpi111nsl7i8,GAfb8P1N,2020-0188,2021-10-31,02:27:23,03:39:30,NA,incomplete,false,NA,NA,true,3,21,NA,NA,NA,left,m_s_115.jpg,blue,green,NA,NA,NA,NA,NA,NA,NA,NA,NA,NaN,NA,2599.4000000953674,right,0,NA,NA,NA,NA,NA
GAfb8P1N,3dw3bnf1hkvs8co26ehcm6ry22mv8w,3cfjtt4sxx3l9cxdo4vpi111nsl7i8,GAfb8P1N,2020-0188,2021-10-31,02:27:23,03:39:30,NA,incomplete,false,NA,true,NA,3,0,NA,NA,NA,left,NA,NA,NA,present,NA,NA,n_s_105.jpg,brown,n_s_049.jpg,brown,within,NA,NaN,NA,NA,NA,NA,left,3183.199999809265,1,0,2760.0999999046326
GAfb8P1N,3dw3bnf1hkvs8co26ehcm6ry22mv8w,3cfjtt4sxx3l9cxdo4vpi111nsl7i8,GAfb8P1N,2020-0188,2021-10-31,02:27:23,03:39:30,NA,incomplete,false,NA,true,NA,3,1,NA,NA,NA,right,NA,NA,NA,present,NA,NA,m_l_099.jpg,green,m_s_085.jpg,blue,between,NA,NaN,NA,NA,NA,NA,left,2921,0,0,3037
GAfb8P1N,3dw3bnf1hkvs8co26ehcm6ry22mv8w,3cfjtt4sxx3l9cxdo4vpi111nsl7i8,GAfb8P1N,2020-0188,2021-10-31,02:27:23,03:39:30,NA,incomplete,false,NA,true,NA,3,2,NA,NA,NA,left,NA,NA,NA,present,NA,NA,m_s_096.jpg,black,m_l_085.jpg,black,within,NA,NaN,NA,NA,NA,NA,left,2055.800000190735,1,0,1442.9000000953674
GAfb8P1N,3dw3bnf1hkvs8co26ehcm6ry22mv8w,3cfjtt4sxx3l9cxdo4vpi111nsl7i8,GAfb8P1N,2020-0188,2021-10-31,02:27:23,03:39:30,NA,incomplete,false,NA,true,NA,3,3,NA,NA,NA,left,NA,NA,NA,present,NA,NA,n_l_023.jpg,yellow,n_s_007.jpg,yellow,within,NA,NaN,NA,NA,NA,NA,left,1397.2000002861023,1,0,1869.0999999046326
GAfb8P1N,3dw3bnf1hkvs8co26ehcm6ry22mv8w,3cfjtt4sxx3l9cxdo4vpi111nsl7i8,GAfb8P1N,2020-0188,2021-10-31,02:27:23,03:39:30,NA,incomplete,false,NA,true,NA,3,4,NA,NA,NA,right,NA,NA,NA,present,NA,NA,m_s_004.jpg,yellow,m_s_113.jpg,red,between,NA,NaN,NA,NA,NA,NA,right,3008.4000000953674,1,0,1631.5
GAfb8P1N,3dw3bnf1hkvs8co26ehcm6ry22mv8w,3cfjtt4sxx3l9cxdo4vpi111nsl7i8,GAfb8P1N,2020-0188,2021-10-31,02:27:23,03:39:30,NA,incomplete,false,NA,true,NA,3,5,NA,NA,NA,left,NA,NA,NA,present,NA,NA,n_l_028.jpg,green,m_s_071.jpg,green,within,NA,NaN,NA,NA,NA,NA,left,1744,1,0,1247.8000001907349
GAfb8P1N,3dw3bnf1hkvs8co26ehcm6ry22mv8w,3cfjtt4sxx3l9cxdo4vpi111nsl7i8,GAfb8P1N,2020-0188,2021-10-31,02:27:23,03:39:30,NA,incomplete,false,NA,true,NA,3,6,NA,NA,NA,right,NA,NA,NA,present,NA,NA,n_l_065.jpg,red,n_l_102.jpg,black,between,NA,NaN,NA,NA,NA,NA,left,2044.7000002861023,0,0,1244.8999996185303
GAfb8P1N,3dw3bnf1hkvs8co26ehcm6ry22mv8w,3cfjtt4sxx3l9cxdo4vpi111nsl7i8,GAfb8P1N,2020-0188,2021-10-31,02:27:23,03:39:30,NA,incomplete,false,NA,true,NA,3,7,NA,NA,NA,left,NA,NA,NA,present,NA,NA,m_l_079.jpg,brown,m_l_055.jpg,blue,between,NA,NaN,NA,NA,NA,NA,left,1703.4000000953674,1,0,1736.5
GAfb8P1N,3dw3bnf1hkvs8co26ehcm6ry22mv8w,3cfjtt4sxx3l9cxdo4vpi111nsl7i8,GAfb8P1N,2020-0188,2021-10-31,02:27:23,03:39:30,NA,incomplete,false,NA,true,NA,3,8,NA,NA,NA,left,NA,NA,NA,present,NA,NA,n_s_061.jpg,red,n_l_031.jpg,red,within,NA,NaN,NA,NA,NA,NA,left,2115.9000000953674,1,0,4595.39999961853
GAfb8P1N,3dw3bnf1hkvs8co26ehcm6ry22mv8w,3cfjtt4sxx3l9cxdo4vpi111nsl7i8,GAfb8P1N,2020-0188,2021-10-31,02:27:23,03:39:30,NA,incomplete,false,NA,true,NA,3,9,NA,NA,NA,right,NA,NA,NA,present,NA,NA,m_l_045.jpg,blue,m_s_115.jpg,blue,within,NA,NaN,NA,NA,NA,NA,left,1918.5,0,0,1438.7000002861023
GAfb8P1N,3dw3bnf1hkvs8co26ehcm6ry22mv8w,3cfjtt4sxx3l9cxdo4vpi111nsl7i8,GAfb8P1N,2020-0188,2021-10-31,02:27:23,03:39:30,NA,incomplete,false,NA,true,NA,3,10,NA,NA,NA,right,NA,NA,NA,present,NA,NA,m_s_026.jpg,black,m_l_077.jpg,green,between,NA,NaN,NA,NA,NA,NA,right,2187.7999997138977,1,0,2172.0999999046326
GAfb8P1N,3dw3bnf1hkvs8co26ehcm6ry22mv8w,3cfjtt4sxx3l9cxdo4vpi111nsl7i8,GAfb8P1N,2020-0188,2021-10-31,02:27:23,03:39:30,NA,incomplete,false,true,NA,NA,4,0,NA,green,n_l_110.jpg,NA,NA,NA,NA,NA,unpleasant,pleasant,NA,NA,NA,NA,NA,right,2606.09999990463,true,NA,NA,NA,NA,NA,NA,NA,NA
GAfb8P1N,3dw3bnf1hkvs8co26ehcm6ry22mv8w,3cfjtt4sxx3l9cxdo4vpi111nsl7i8,GAfb8P1N,2020-0188,2021-10-31,02:27:23,03:39:30,NA,incomplete,false,true,NA,NA,4,1,NA,green,n_s_053.jpg,NA,NA,NA,NA,NA,unpleasant,pleasant,NA,NA,NA,NA,NA,left,1742.40000009537,true,NA,NA,NA,NA,NA,NA,NA,NA
GAfb8P1N,3dw3bnf1hkvs8co26ehcm6ry22mv8w,3cfjtt4sxx3l9cxdo4vpi111nsl7i8,GAfb8P1N,2020-0188,2021-10-31,02:27:23,03:39:30,NA,incomplete,false,true,NA,NA,4,2,NA,green,n_s_038.jpg,NA,NA,NA,NA,NA,unpleasant,pleasant,NA,NA,NA,NA,NA,right,1490.59999990463,true,NA,NA,NA,NA,NA,NA,NA,NA
GAfb8P1N,3dw3bnf1hkvs8co26ehcm6ry22mv8w,3cfjtt4sxx3l9cxdo4vpi111nsl7i8,GAfb8P1N,2020-0188,2021-10-31,02:27:23,03:39:30,NA,incomplete,false,true,NA,NA,4,3,NA,green,m_s_036.jpg,NA,NA,NA,NA,NA,unpleasant,pleasant,NA,NA,NA,NA,NA,right,946.900000095367,true,NA,NA,NA,NA,NA,NA,NA,NA
GAfb8P1N,3dw3bnf1hkvs8co26ehcm6ry22mv8w,3cfjtt4sxx3l9cxdo4vpi111nsl7i8,GAfb8P1N,2020-0188,2021-10-31,02:27:23,03:39:30,NA,incomplete,false,true,NA,NA,4,4,NA,green,n_s_003.jpg,NA,NA,NA,NA,NA,pleasant,unpleasant,NA,NA,NA,NA,NA,right,1674.80000019073,true,NA,NA,NA,NA,NA,NA,NA,NA
GAfb8P1N,3dw3bnf1hkvs8co26ehcm6ry22mv8w,3cfjtt4sxx3l9cxdo4vpi111nsl7i8,GAfb8P1N,2020-0188,2021-10-31,02:27:23,03:39:30,NA,incomplete,false,true,NA,NA,4,5,NA,green,m_l_091.jpg,NA,NA,NA,NA,NA,pleasant,unpleasant,NA,NA,NA,NA,NA,right,2335.60000038147,true,NA,NA,NA,NA,NA,NA,NA,NA
GAfb8P1N,3dw3bnf1hkvs8co26ehcm6ry22mv8w,3cfjtt4sxx3l9cxdo4vpi111nsl7i8,GAfb8P1N,2020-0188,2021-10-31,02:27:23,03:39:30,NA,incomplete,false,true,NA,NA,4,6,NA,white,m_l_017.jpg,NA,NA,NA,NA,NA,pleasant,unpleasant,NA,NA,NA,NA,NA,left,1354.5,true,NA,NA,NA,NA,NA,NA,NA,NA
GAfb8P1N,3dw3bnf1hkvs8co26ehcm6ry22mv8w,3cfjtt4sxx3l9cxdo4vpi111nsl7i8,GAfb8P1N,2020-0188,2021-10-31,02:27:23,03:39:30,NA,incomplete,false,true,NA,NA,4,7,NA,white,m_l_010.jpg,NA,NA,NA,NA,NA,pleasant,unpleasant,NA,NA,NA,NA,NA,left,3151.2999997139,true,NA,NA,NA,NA,NA,NA,NA,NA
GAfb8P1N,3dw3bnf1hkvs8co26ehcm6ry22mv8w,3cfjtt4sxx3l9cxdo4vpi111nsl7i8,GAfb8P1N,2020-0188,2021-10-31,02:27:23,03:39:30,NA,incomplete,false,true,NA,NA,4,8,NA,white,n_s_026.jpg,NA,NA,NA,NA,NA,pleasant,unpleasant,NA,NA,NA,NA,NA,left,2408,true,NA,NA,NA,NA,NA,NA,NA,NA
GAfb8P1N,3dw3bnf1hkvs8co26ehcm6ry22mv8w,3cfjtt4sxx3l9cxdo4vpi111nsl7i8,GAfb8P1N,2020-0188,2021-10-31,02:27:23,03:39:30,NA,incomplete,false,true,NA,NA,4,9,NA,white,m_s_090.jpg,NA,NA,NA,NA,NA,pleasant,unpleasant,NA,NA,NA,NA,NA,none,0,false,NA,NA,NA,NA,NA,NA,NA,NA
GAfb8P1N,3dw3bnf1hkvs8co26ehcm6ry22mv8w,3cfjtt4sxx3l9cxdo4vpi111nsl7i8,GAfb8P1N,2020-0188,2021-10-31,02:27:23,03:39:30,NA,incomplete,false,true,NA,NA,4,10,NA,white,n_s_097.jpg,NA,NA,NA,NA,NA,unpleasant,pleasant,NA,NA,NA,NA,NA,right,2736.60000038147,true,NA,NA,NA,NA,NA,NA,NA,NA
GAfb8P1N,3dw3bnf1hkvs8co26ehcm6ry22mv8w,3cfjtt4sxx3l9cxdo4vpi111nsl7i8,GAfb8P1N,2020-0188,2021-10-31,02:27:23,03:39:30,NA,incomplete,false,true,NA,NA,4,11,NA,white,m_l_109.jpg,NA,NA,NA,NA,NA,pleasant,unpleasant,NA,NA,NA,NA,NA,left,2714,true,NA,NA,NA,NA,NA,NA,NA,NA
GAfb8P1N,3dw3bnf1hkvs8co26ehcm6ry22mv8w,3cfjtt4sxx3l9cxdo4vpi111nsl7i8,GAfb8P1N,2020-0188,2021-10-31,02:27:23,03:39:30,NA,incomplete,false,true,NA,NA,4,12,NA,gray,m_s_010.jpg,NA,NA,NA,NA,NA,pleasant,unpleasant,NA,NA,NA,NA,NA,left,3069.89999961853,true,NA,NA,NA,NA,NA,NA,NA,NA
GAfb8P1N,3dw3bnf1hkvs8co26ehcm6ry22mv8w,3cfjtt4sxx3l9cxdo4vpi111nsl7i8,GAfb8P1N,2020-0188,2021-10-31,02:27:23,03:39:30,NA,incomplete,false,true,NA,NA,4,13,NA,gray,m_l_051.jpg,NA,NA,NA,NA,NA,unpleasant,pleasant,NA,NA,NA,NA,NA,right,2257.90000009537,true,NA,NA,NA,NA,NA,NA,NA,NA
GAfb8P1N,3dw3bnf1hkvs8co26ehcm6ry22mv8w,3cfjtt4sxx3l9cxdo4vpi111nsl7i8,GAfb8P1N,2020-0188,2021-10-31,02:27:23,03:39:30,NA,incomplete,false,true,NA,NA,4,14,NA,gray,n_l_011.jpg,NA,NA,NA,NA,NA,pleasant,unpleasant,NA,NA,NA,NA,NA,left,1641.59999990463,true,NA,NA,NA,NA,NA,NA,NA,NA
GAfb8P1N,3dw3bnf1hkvs8co26ehcm6ry22mv8w,3cfjtt4sxx3l9cxdo4vpi111nsl7i8,GAfb8P1N,2020-0188,2021-10-31,02:27:23,03:39:30,NA,incomplete,false,true,NA,NA,4,15,NA,gray,m_s_067.jpg,NA,NA,NA,NA,NA,unpleasant,pleasant,NA,NA,NA,NA,NA,right,1528.7999997139,true,NA,NA,NA,NA,NA,NA,NA,NA
GAfb8P1N,3dw3bnf1hkvs8co26ehcm6ry22mv8w,3cfjtt4sxx3l9cxdo4vpi111nsl7i8,GAfb8P1N,2020-0188,2021-10-31,02:27:23,03:39:30,NA,incomplete,false,true,NA,NA,4,16,NA,gray,n_s_109.jpg,NA,NA,NA,NA,NA,unpleasant,pleasant,NA,NA,NA,NA,NA,right,1389.40000009537,true,NA,NA,NA,NA,NA,NA,NA,NA
GAfb8P1N,3dw3bnf1hkvs8co26ehcm6ry22mv8w,3cfjtt4sxx3l9cxdo4vpi111nsl7i8,GAfb8P1N,2020-0188,2021-10-31,02:27:23,03:39:30,NA,incomplete,false,true,NA,NA,4,17,NA,gray,n_l_093.jpg,NA,NA,NA,NA,NA,unpleasant,pleasant,NA,NA,NA,NA,NA,right,1257.59999990463,true,NA,NA,NA,NA,NA,NA,NA,NA
GAfb8P1N,3dw3bnf1hkvs8co26ehcm6ry22mv8w,3cfjtt4sxx3l9cxdo4vpi111nsl7i8,GAfb8P1N,2020-0188,2021-10-31,02:27:23,03:39:30,NA,incomplete,false,true,NA,NA,4,18,NA,black,m_s_054.jpg,NA,NA,NA,NA,NA,pleasant,unpleasant,NA,NA,NA,NA,NA,left,1368.69999980927,true,NA,NA,NA,NA,NA,NA,NA,NA
GAfb8P1N,3dw3bnf1hkvs8co26ehcm6ry22mv8w,3cfjtt4sxx3l9cxdo4vpi111nsl7i8,GAfb8P1N,2020-0188,2021-10-31,02:27:23,03:39:30,NA,incomplete,false,true,NA,NA,4,19,NA,black,n_s_067.jpg,NA,NA,NA,NA,NA,unpleasant,pleasant,NA,NA,NA,NA,NA,right,1237.7000002861,true,NA,NA,NA,NA,NA,NA,NA,NA
GAfb8P1N,3dw3bnf1hkvs8co26ehcm6ry22mv8w,3cfjtt4sxx3l9cxdo4vpi111nsl7i8,GAfb8P1N,2020-0188,2021-10-31,02:27:23,03:39:30,NA,incomplete,false,true,NA,NA,4,20,NA,black,n_s_015.jpg,NA,NA,NA,NA,NA,unpleasant,pleasant,NA,NA,NA,NA,NA,right,1120.90000009537,true,NA,NA,NA,NA,NA,NA,NA,NA
GAfb8P1N,3dw3bnf1hkvs8co26ehcm6ry22mv8w,3cfjtt4sxx3l9cxdo4vpi111nsl7i8,GAfb8P1N,2020-0188,2021-10-31,02:27:23,03:39:30,NA,incomplete,false,true,NA,NA,4,21,NA,black,m_s_047.jpg,NA,NA,NA,NA,NA,unpleasant,pleasant,NA,NA,NA,NA,NA,right,1313.60000038147,true,NA,NA,NA,NA,NA,NA,NA,NA
GAfb8P1N,3dw3bnf1hkvs8co26ehcm6ry22mv8w,3cfjtt4sxx3l9cxdo4vpi111nsl7i8,GAfb8P1N,2020-0188,2021-10-31,02:27:23,03:39:30,NA,incomplete,false,true,NA,NA,4,22,NA,black,m_l_033.jpg,NA,NA,NA,NA,NA,pleasant,unpleasant,NA,NA,NA,NA,NA,left,1131.89999961853,true,NA,NA,NA,NA,NA,NA,NA,NA
GAfb8P1N,3dw3bnf1hkvs8co26ehcm6ry22mv8w,3cfjtt4sxx3l9cxdo4vpi111nsl7i8,GAfb8P1N,2020-0188,2021-10-31,02:27:23,03:39:30,NA,incomplete,false,true,NA,NA,4,23,NA,black,n_l_017.jpg,NA,NA,NA,NA,NA,unpleasant,pleasant,NA,NA,NA,NA,NA,right,1097.69999980927,true,NA,NA,NA,NA,NA,NA,NA,NA
GAfb8P1N,3dw3bnf1hkvs8co26ehcm6ry22mv8w,3cfjtt4sxx3l9cxdo4vpi111nsl7i8,GAfb8P1N,2020-0188,2021-10-31,02:27:23,03:39:30,NA,incomplete,false,true,NA,NA,4,24,NA,red,m_l_114.jpg,NA,NA,NA,NA,NA,unpleasant,pleasant,NA,NA,NA,NA,NA,right,1645.59999990463,true,NA,NA,NA,NA,NA,NA,NA,NA
GAfb8P1N,3dw3bnf1hkvs8co26ehcm6ry22mv8w,3cfjtt4sxx3l9cxdo4vpi111nsl7i8,GAfb8P1N,2020-0188,2021-10-31,02:27:23,03:39:30,NA,incomplete,false,true,NA,NA,4,25,NA,red,m_l_008.jpg,NA,NA,NA,NA,NA,pleasant,unpleasant,NA,NA,NA,NA,NA,right,1545.30000019073,true,NA,NA,NA,NA,NA,NA,NA,NA
GAfb8P1N,3dw3bnf1hkvs8co26ehcm6ry22mv8w,3cfjtt4sxx3l9cxdo4vpi111nsl7i8,GAfb8P1N,2020-0188,2021-10-31,02:27:23,03:39:30,NA,incomplete,false,true,NA,NA,4,26,NA,red,n_s_101.jpg,NA,NA,NA,NA,NA,pleasant,unpleasant,NA,NA,NA,NA,NA,left,1249.2000002861,true,NA,NA,NA,NA,NA,NA,NA,NA
GAfb8P1N,3dw3bnf1hkvs8co26ehcm6ry22mv8w,3cfjtt4sxx3l9cxdo4vpi111nsl7i8,GAfb8P1N,2020-0188,2021-10-31,02:27:23,03:39:30,NA,incomplete,false,true,NA,NA,4,27,NA,red,n_l_089.jpg,NA,NA,NA,NA,NA,pleasant,unpleasant,NA,NA,NA,NA,NA,left,1317.30000019073,true,NA,NA,NA,NA,NA,NA,NA,NA
GAfb8P1N,3dw3bnf1hkvs8co26ehcm6ry22mv8w,3cfjtt4sxx3l9cxdo4vpi111nsl7i8,GAfb8P1N,2020-0188,2021-10-31,02:27:23,03:39:30,NA,incomplete,false,true,NA,NA,4,28,NA,red,n_s_027.jpg,NA,NA,NA,NA,NA,unpleasant,pleasant,NA,NA,NA,NA,NA,right,1661.2000002861,true,NA,NA,NA,NA,NA,NA,NA,NA
GAfb8P1N,3dw3bnf1hkvs8co26ehcm6ry22mv8w,3cfjtt4sxx3l9cxdo4vpi111nsl7i8,GAfb8P1N,2020-0188,2021-10-31,02:27:23,03:39:30,NA,incomplete,false,true,NA,NA,4,29,NA,red,n_l_074.jpg,NA,NA,NA,NA,NA,pleasant,unpleasant,NA,NA,NA,NA,NA,left,1408.7000002861,true,NA,NA,NA,NA,NA,NA,NA,NA
GAfb8P1N,3dw3bnf1hkvs8co26ehcm6ry22mv8w,3cfjtt4sxx3l9cxdo4vpi111nsl7i8,GAfb8P1N,2020-0188,2021-10-31,02:27:23,03:39:30,NA,incomplete,false,true,NA,NA,4,30,NA,yellow,m_s_021.jpg,NA,NA,NA,NA,NA,pleasant,unpleasant,NA,NA,NA,NA,NA,left,2206.5,true,NA,NA,NA,NA,NA,NA,NA,NA
GAfb8P1N,3dw3bnf1hkvs8co26ehcm6ry22mv8w,3cfjtt4sxx3l9cxdo4vpi111nsl7i8,GAfb8P1N,2020-0188,2021-10-31,02:27:23,03:39:30,NA,incomplete,false,true,NA,NA,4,31,NA,yellow,n_l_081.jpg,NA,NA,NA,NA,NA,pleasant,unpleasant,NA,NA,NA,NA,NA,left,1773.59999990463,true,NA,NA,NA,NA,NA,NA,NA,NA
GAfb8P1N,3dw3bnf1hkvs8co26ehcm6ry22mv8w,3cfjtt4sxx3l9cxdo4vpi111nsl7i8,GAfb8P1N,2020-0188,2021-10-31,02:27:23,03:39:30,NA,incomplete,false,true,NA,NA,4,32,NA,yellow,m_l_065.jpg,NA,NA,NA,NA,NA,unpleasant,pleasant,NA,NA,NA,NA,NA,right,1285.19999980927,true,NA,NA,NA,NA,NA,NA,NA,NA
GAfb8P1N,3dw3bnf1hkvs8co26ehcm6ry22mv8w,3cfjtt4sxx3l9cxdo4vpi111nsl7i8,GAfb8P1N,2020-0188,2021-10-31,02:27:23,03:39:30,NA,incomplete,false,true,NA,NA,4,33,NA,yellow,m_s_112.jpg,NA,NA,NA,NA,NA,unpleasant,pleasant,NA,NA,NA,NA,NA,right,1076.90000009537,true,NA,NA,NA,NA,NA,NA,NA,NA
GAfb8P1N,3dw3bnf1hkvs8co26ehcm6ry22mv8w,3cfjtt4sxx3l9cxdo4vpi111nsl7i8,GAfb8P1N,2020-0188,2021-10-31,02:27:23,03:39:30,NA,incomplete,false,true,NA,NA,4,34,NA,yellow,n_l_015.jpg,NA,NA,NA,NA,NA,unpleasant,pleasant,NA,NA,NA,NA,NA,right,2923.09999990463,true,NA,NA,NA,NA,NA,NA,NA,NA
GAfb8P1N,3dw3bnf1hkvs8co26ehcm6ry22mv8w,3cfjtt4sxx3l9cxdo4vpi111nsl7i8,GAfb8P1N,2020-0188,2021-10-31,02:27:23,03:39:30,NA,incomplete,false,true,NA,NA,4,35,NA,yellow,m_s_093.jpg,NA,NA,NA,NA,NA,pleasant,unpleasant,NA,NA,NA,NA,NA,right,1643.80000019073,true,NA,NA,NA,NA,NA,NA,NA,NA
GAfb8P1N,3dw3bnf1hkvs8co26ehcm6ry22mv8w,3cfjtt4sxx3l9cxdo4vpi111nsl7i8,GAfb8P1N,2020-0188,2021-10-31,02:27:23,03:39:30,NA,incomplete,false,NA,NA,true,4,0,NA,NA,NA,right,n_l_011.jpg,black,gray,NA,NA,NA,NA,NA,NA,NA,NA,NA,NaN,NA,3743.5999999046326,right,1,NA,NA,NA,NA,NA
GAfb8P1N,3dw3bnf1hkvs8co26ehcm6ry22mv8w,3cfjtt4sxx3l9cxdo4vpi111nsl7i8,GAfb8P1N,2020-0188,2021-10-31,02:27:23,03:39:30,NA,incomplete,false,NA,NA,true,4,1,NA,NA,NA,left,n_s_101.jpg,red,yellow,NA,NA,NA,NA,NA,NA,NA,NA,NA,NaN,NA,2809.3999996185303,left,1,NA,NA,NA,NA,NA
GAfb8P1N,3dw3bnf1hkvs8co26ehcm6ry22mv8w,3cfjtt4sxx3l9cxdo4vpi111nsl7i8,GAfb8P1N,2020-0188,2021-10-31,02:27:23,03:39:30,NA,incomplete,false,NA,NA,true,4,2,NA,NA,NA,left,n_l_081.jpg,yellow,red,NA,NA,NA,NA,NA,NA,NA,NA,NA,NaN,NA,2086,right,0,NA,NA,NA,NA,NA
GAfb8P1N,3dw3bnf1hkvs8co26ehcm6ry22mv8w,3cfjtt4sxx3l9cxdo4vpi111nsl7i8,GAfb8P1N,2020-0188,2021-10-31,02:27:23,03:39:30,NA,incomplete,false,NA,NA,true,4,3,NA,NA,NA,right,n_s_015.jpg,red,black,NA,NA,NA,NA,NA,NA,NA,NA,NA,NaN,NA,3843.9000000953674,left,0,NA,NA,NA,NA,NA
GAfb8P1N,3dw3bnf1hkvs8co26ehcm6ry22mv8w,3cfjtt4sxx3l9cxdo4vpi111nsl7i8,GAfb8P1N,2020-0188,2021-10-31,02:27:23,03:39:30,NA,incomplete,false,NA,NA,true,4,4,NA,NA,NA,left,m_l_033.jpg,black,gray,NA,NA,NA,NA,NA,NA,NA,NA,NA,NaN,NA,3520,right,0,NA,NA,NA,NA,NA
GAfb8P1N,3dw3bnf1hkvs8co26ehcm6ry22mv8w,3cfjtt4sxx3l9cxdo4vpi111nsl7i8,GAfb8P1N,2020-0188,2021-10-31,02:27:23,03:39:30,NA,incomplete,false,NA,NA,true,4,5,NA,NA,NA,right,m_l_010.jpg,green,white,NA,NA,NA,NA,NA,NA,NA,NA,NA,NaN,NA,2789.7999997138977,right,1,NA,NA,NA,NA,NA
GAfb8P1N,3dw3bnf1hkvs8co26ehcm6ry22mv8w,3cfjtt4sxx3l9cxdo4vpi111nsl7i8,GAfb8P1N,2020-0188,2021-10-31,02:27:23,03:39:30,NA,incomplete,false,NA,NA,true,4,6,NA,NA,NA,right,n_s_109.jpg,black,gray,NA,NA,NA,NA,NA,NA,NA,NA,NA,NaN,NA,2554.300000190735,left,0,NA,NA,NA,NA,NA
GAfb8P1N,3dw3bnf1hkvs8co26ehcm6ry22mv8w,3cfjtt4sxx3l9cxdo4vpi111nsl7i8,GAfb8P1N,2020-0188,2021-10-31,02:27:23,03:39:30,NA,incomplete,false,NA,NA,true,4,7,NA,NA,NA,left,n_s_027.jpg,red,black,NA,NA,NA,NA,NA,NA,NA,NA,NA,NaN,NA,4462.599999904633,left,1,NA,NA,NA,NA,NA
GAfb8P1N,3dw3bnf1hkvs8co26ehcm6ry22mv8w,3cfjtt4sxx3l9cxdo4vpi111nsl7i8,GAfb8P1N,2020-0188,2021-10-31,02:27:23,03:39:30,NA,incomplete,false,NA,NA,true,4,8,NA,NA,NA,left,n_s_097.jpg,white,gray,NA,NA,NA,NA,NA,NA,NA,NA,NA,NaN,NA,1938.5999999046326,left,1,NA,NA,NA,NA,NA
GAfb8P1N,3dw3bnf1hkvs8co26ehcm6ry22mv8w,3cfjtt4sxx3l9cxdo4vpi111nsl7i8,GAfb8P1N,2020-0188,2021-10-31,02:27:23,03:39:30,NA,incomplete,false,NA,NA,true,4,9,NA,NA,NA,left,n_s_053.jpg,green,white,NA,NA,NA,NA,NA,NA,NA,NA,NA,NaN,NA,3018.800000190735,left,1,NA,NA,NA,NA,NA
GAfb8P1N,3dw3bnf1hkvs8co26ehcm6ry22mv8w,3cfjtt4sxx3l9cxdo4vpi111nsl7i8,GAfb8P1N,2020-0188,2021-10-31,02:27:23,03:39:30,NA,incomplete,false,NA,NA,true,4,10,NA,NA,NA,right,n_l_093.jpg,white,gray,NA,NA,NA,NA,NA,NA,NA,NA,NA,NaN,NA,2690.5,right,1,NA,NA,NA,NA,NA
GAfb8P1N,3dw3bnf1hkvs8co26ehcm6ry22mv8w,3cfjtt4sxx3l9cxdo4vpi111nsl7i8,GAfb8P1N,2020-0188,2021-10-31,02:27:23,03:39:30,NA,incomplete,false,NA,NA,true,4,11,NA,NA,NA,right,n_s_026.jpg,gray,white,NA,NA,NA,NA,NA,NA,NA,NA,NA,NaN,NA,2127.4000000953674,left,0,NA,NA,NA,NA,NA
GAfb8P1N,3dw3bnf1hkvs8co26ehcm6ry22mv8w,3cfjtt4sxx3l9cxdo4vpi111nsl7i8,GAfb8P1N,2020-0188,2021-10-31,02:27:23,03:39:30,NA,incomplete,false,NA,NA,true,4,12,NA,NA,NA,left,m_l_008.jpg,red,yellow,NA,NA,NA,NA,NA,NA,NA,NA,NA,NaN,NA,3617.199999809265,left,1,NA,NA,NA,NA,NA
GAfb8P1N,3dw3bnf1hkvs8co26ehcm6ry22mv8w,3cfjtt4sxx3l9cxdo4vpi111nsl7i8,GAfb8P1N,2020-0188,2021-10-31,02:27:23,03:39:30,NA,incomplete,false,NA,NA,true,4,13,NA,NA,NA,left,m_l_051.jpg,gray,black,NA,NA,NA,NA,NA,NA,NA,NA,NA,NaN,NA,4047.9000000953674,left,1,NA,NA,NA,NA,NA
GAfb8P1N,3dw3bnf1hkvs8co26ehcm6ry22mv8w,3cfjtt4sxx3l9cxdo4vpi111nsl7i8,GAfb8P1N,2020-0188,2021-10-31,02:27:23,03:39:30,NA,incomplete,false,NA,NA,true,4,14,NA,NA,NA,right,n_s_067.jpg,red,black,NA,NA,NA,NA,NA,NA,NA,NA,NA,NaN,NA,2307.5,right,1,NA,NA,NA,NA,NA
GAfb8P1N,3dw3bnf1hkvs8co26ehcm6ry22mv8w,3cfjtt4sxx3l9cxdo4vpi111nsl7i8,GAfb8P1N,2020-0188,2021-10-31,02:27:23,03:39:30,NA,incomplete,false,NA,NA,true,4,15,NA,NA,NA,left,n_l_017.jpg,black,gray,NA,NA,NA,NA,NA,NA,NA,NA,NA,NaN,NA,2797.3999996185303,right,0,NA,NA,NA,NA,NA
GAfb8P1N,3dw3bnf1hkvs8co26ehcm6ry22mv8w,3cfjtt4sxx3l9cxdo4vpi111nsl7i8,GAfb8P1N,2020-0188,2021-10-31,02:27:23,03:39:30,NA,incomplete,false,NA,NA,true,4,16,NA,NA,NA,right,m_l_091.jpg,white,green,NA,NA,NA,NA,NA,NA,NA,NA,NA,NaN,NA,3133.300000190735,right,1,NA,NA,NA,NA,NA
GAfb8P1N,3dw3bnf1hkvs8co26ehcm6ry22mv8w,3cfjtt4sxx3l9cxdo4vpi111nsl7i8,GAfb8P1N,2020-0188,2021-10-31,02:27:23,03:39:30,NA,incomplete,false,NA,NA,true,4,17,NA,NA,NA,right,m_l_109.jpg,gray,white,NA,NA,NA,NA,NA,NA,NA,NA,NA,NaN,NA,3070.4000000953674,right,1,NA,NA,NA,NA,NA
GAfb8P1N,3dw3bnf1hkvs8co26ehcm6ry22mv8w,3cfjtt4sxx3l9cxdo4vpi111nsl7i8,GAfb8P1N,2020-0188,2021-10-31,02:27:23,03:39:30,NA,incomplete,false,NA,NA,true,4,18,NA,NA,NA,right,n_s_003.jpg,white,green,NA,NA,NA,NA,NA,NA,NA,NA,NA,NaN,NA,3358.5,right,1,NA,NA,NA,NA,NA
GAfb8P1N,3dw3bnf1hkvs8co26ehcm6ry22mv8w,3cfjtt4sxx3l9cxdo4vpi111nsl7i8,GAfb8P1N,2020-0188,2021-10-31,02:27:23,03:39:30,NA,incomplete,false,NA,NA,true,4,19,NA,NA,NA,right,m_l_065.jpg,red,yellow,NA,NA,NA,NA,NA,NA,NA,NA,NA,NaN,NA,3088.9000000953674,left,0,NA,NA,NA,NA,NA
GAfb8P1N,3dw3bnf1hkvs8co26ehcm6ry22mv8w,3cfjtt4sxx3l9cxdo4vpi111nsl7i8,GAfb8P1N,2020-0188,2021-10-31,02:27:23,03:39:30,NA,incomplete,false,NA,NA,true,4,20,NA,NA,NA,right,m_s_093.jpg,red,yellow,NA,NA,NA,NA,NA,NA,NA,NA,NA,NaN,NA,9346.299999713898,right,1,NA,NA,NA,NA,NA
GAfb8P1N,3dw3bnf1hkvs8co26ehcm6ry22mv8w,3cfjtt4sxx3l9cxdo4vpi111nsl7i8,GAfb8P1N,2020-0188,2021-10-31,02:27:23,03:39:30,NA,incomplete,false,NA,NA,true,4,21,NA,NA,NA,left,n_l_074.jpg,red,black,NA,NA,NA,NA,NA,NA,NA,NA,NA,NaN,NA,2017.1999998092651,left,1,NA,NA,NA,NA,NA
GAfb8P1N,3dw3bnf1hkvs8co26ehcm6ry22mv8w,3cfjtt4sxx3l9cxdo4vpi111nsl7i8,GAfb8P1N,2020-0188,2021-10-31,02:27:23,03:39:30,NA,incomplete,false,NA,true,NA,4,0,NA,NA,NA,right,NA,NA,NA,present,NA,NA,n_s_101.jpg,red,m_l_033.jpg,black,between,NA,NaN,NA,NA,NA,NA,left,2455.800000190735,0,0,2336.699999809265
GAfb8P1N,3dw3bnf1hkvs8co26ehcm6ry22mv8w,3cfjtt4sxx3l9cxdo4vpi111nsl7i8,GAfb8P1N,2020-0188,2021-10-31,02:27:23,03:39:30,NA,incomplete,false,NA,true,NA,4,1,NA,NA,NA,right,NA,NA,NA,present,NA,NA,m_l_065.jpg,yellow,n_s_027.jpg,red,between,NA,NaN,NA,NA,NA,NA,left,2586.199999809265,0,0,1788.9000000953674
GAfb8P1N,3dw3bnf1hkvs8co26ehcm6ry22mv8w,3cfjtt4sxx3l9cxdo4vpi111nsl7i8,GAfb8P1N,2020-0188,2021-10-31,02:27:23,03:39:30,NA,incomplete,false,NA,true,NA,4,2,NA,NA,NA,left,NA,NA,NA,present,NA,NA,n_s_097.jpg,white,n_l_011.jpg,gray,between,NA,NaN,NA,NA,NA,NA,left,3089.300000190735,1,0,1948.2999997138977
GAfb8P1N,3dw3bnf1hkvs8co26ehcm6ry22mv8w,3cfjtt4sxx3l9cxdo4vpi111nsl7i8,GAfb8P1N,2020-0188,2021-10-31,02:27:23,03:39:30,NA,incomplete,false,NA,true,NA,4,3,NA,NA,NA,left,NA,NA,NA,present,NA,NA,n_s_003.jpg,green,n_s_026.jpg,white,between,NA,NaN,NA,NA,NA,NA,left,2348.4000000953674,1,0,1732.2000002861023
GAfb8P1N,3dw3bnf1hkvs8co26ehcm6ry22mv8w,3cfjtt4sxx3l9cxdo4vpi111nsl7i8,GAfb8P1N,2020-0188,2021-10-31,02:27:23,03:39:30,NA,incomplete,false,NA,true,NA,4,4,NA,NA,NA,left,NA,NA,NA,present,NA,NA,m_l_051.jpg,gray,n_l_093.jpg,gray,within,NA,NaN,NA,NA,NA,NA,left,2827.800000190735,1,0,2013.5
GAfb8P1N,3dw3bnf1hkvs8co26ehcm6ry22mv8w,3cfjtt4sxx3l9cxdo4vpi111nsl7i8,GAfb8P1N,2020-0188,2021-10-31,02:27:23,03:39:30,NA,incomplete,false,NA,true,NA,4,5,NA,NA,NA,left,NA,NA,NA,present,NA,NA,n_s_053.jpg,green,m_l_091.jpg,green,within,NA,NaN,NA,NA,NA,NA,right,3078.4000000953674,0,0,2208.2999997138977
GAfb8P1N,3dw3bnf1hkvs8co26ehcm6ry22mv8w,3cfjtt4sxx3l9cxdo4vpi111nsl7i8,GAfb8P1N,2020-0188,2021-10-31,02:27:23,03:39:30,NA,incomplete,false,NA,true,NA,4,6,NA,NA,NA,left,NA,NA,NA,present,NA,NA,m_l_010.jpg,white,m_l_109.jpg,white,within,NA,NaN,NA,NA,NA,NA,left,2370.300000190735,1,0,1669.1999998092651
GAfb8P1N,3dw3bnf1hkvs8co26ehcm6ry22mv8w,3cfjtt4sxx3l9cxdo4vpi111nsl7i8,GAfb8P1N,2020-0188,2021-10-31,02:27:23,03:39:30,NA,incomplete,false,NA,true,NA,4,7,NA,NA,NA,left,NA,NA,NA,present,NA,NA,n_l_081.jpg,yellow,m_s_093.jpg,yellow,within,NA,NaN,NA,NA,NA,NA,right,3738.5999999046326,0,0,1993.6999998092651
GAfb8P1N,3dw3bnf1hkvs8co26ehcm6ry22mv8w,3cfjtt4sxx3l9cxdo4vpi111nsl7i8,GAfb8P1N,2020-0188,2021-10-31,02:27:23,03:39:30,NA,incomplete,false,NA,true,NA,4,8,NA,NA,NA,left,NA,NA,NA,present,NA,NA,n_s_067.jpg,black,n_l_017.jpg,black,within,NA,NaN,NA,NA,NA,NA,left,2078.5,1,0,1799.0999999046326
GAfb8P1N,3dw3bnf1hkvs8co26ehcm6ry22mv8w,3cfjtt4sxx3l9cxdo4vpi111nsl7i8,GAfb8P1N,2020-0188,2021-10-31,02:27:23,03:39:30,NA,incomplete,false,NA,true,NA,4,9,NA,NA,NA,right,NA,NA,NA,present,NA,NA,n_l_074.jpg,red,m_l_008.jpg,red,within,NA,NaN,NA,NA,NA,NA,right,4538,1,0,2029.5
GAfb8P1N,3dw3bnf1hkvs8co26ehcm6ry22mv8w,3cfjtt4sxx3l9cxdo4vpi111nsl7i8,GAfb8P1N,2020-0188,2021-10-31,02:27:23,03:39:30,NA,incomplete,false,NA,true,NA,4,10,NA,NA,NA,right,NA,NA,NA,present,NA,NA,n_s_015.jpg,black,n_s_109.jpg,gray,between,NA,NaN,NA,NA,NA,NA,left,2358.4000000953674,0,0,1858
GAfb8P1N,3dw3bnf1hkvs8co26ehcm6ry22mv8w,3cfjtt4sxx3l9cxdo4vpi111nsl7i8,GAfb8P1N,2020-0188,2021-10-31,02:27:23,03:39:30,NA,incomplete,false,true,NA,NA,5,0,NA,yellow,n_l_088.jpg,NA,NA,NA,NA,NA,pleasant,unpleasant,NA,NA,NA,NA,NA,left,3103.19999980927,true,NA,NA,NA,NA,NA,NA,NA,NA
GAfb8P1N,3dw3bnf1hkvs8co26ehcm6ry22mv8w,3cfjtt4sxx3l9cxdo4vpi111nsl7i8,GAfb8P1N,2020-0188,2021-10-31,02:27:23,03:39:30,NA,incomplete,false,true,NA,NA,5,1,NA,yellow,m_s_011.jpg,NA,NA,NA,NA,NA,unpleasant,pleasant,NA,NA,NA,NA,NA,none,0,false,NA,NA,NA,NA,NA,NA,NA,NA
GAfb8P1N,3dw3bnf1hkvs8co26ehcm6ry22mv8w,3cfjtt4sxx3l9cxdo4vpi111nsl7i8,GAfb8P1N,2020-0188,2021-10-31,02:27:23,03:39:30,NA,incomplete,false,true,NA,NA,5,2,NA,yellow,n_s_070.jpg,NA,NA,NA,NA,NA,pleasant,unpleasant,NA,NA,NA,NA,NA,left,2060.60000038147,true,NA,NA,NA,NA,NA,NA,NA,NA
GAfb8P1N,3dw3bnf1hkvs8co26ehcm6ry22mv8w,3cfjtt4sxx3l9cxdo4vpi111nsl7i8,GAfb8P1N,2020-0188,2021-10-31,02:27:23,03:39:30,NA,incomplete,false,true,NA,NA,5,3,NA,yellow,n_s_046.jpg,NA,NA,NA,NA,NA,pleasant,unpleasant,NA,NA,NA,NA,NA,left,1310.80000019073,true,NA,NA,NA,NA,NA,NA,NA,NA
GAfb8P1N,3dw3bnf1hkvs8co26ehcm6ry22mv8w,3cfjtt4sxx3l9cxdo4vpi111nsl7i8,GAfb8P1N,2020-0188,2021-10-31,02:27:23,03:39:30,NA,incomplete,false,true,NA,NA,5,4,NA,yellow,n_l_047.jpg,NA,NA,NA,NA,NA,pleasant,unpleasant,NA,NA,NA,NA,NA,left,1586.69999980927,true,NA,NA,NA,NA,NA,NA,NA,NA
GAfb8P1N,3dw3bnf1hkvs8co26ehcm6ry22mv8w,3cfjtt4sxx3l9cxdo4vpi111nsl7i8,GAfb8P1N,2020-0188,2021-10-31,02:27:23,03:39:30,NA,incomplete,false,true,NA,NA,5,5,NA,yellow,m_s_015.jpg,NA,NA,NA,NA,NA,pleasant,unpleasant,NA,NA,NA,NA,NA,left,1284.5,true,NA,NA,NA,NA,NA,NA,NA,NA
GAfb8P1N,3dw3bnf1hkvs8co26ehcm6ry22mv8w,3cfjtt4sxx3l9cxdo4vpi111nsl7i8,GAfb8P1N,2020-0188,2021-10-31,02:27:23,03:39:30,NA,incomplete,false,true,NA,NA,5,6,NA,gray,n_l_064.jpg,NA,NA,NA,NA,NA,unpleasant,pleasant,NA,NA,NA,NA,NA,right,2092.2999997139,true,NA,NA,NA,NA,NA,NA,NA,NA
GAfb8P1N,3dw3bnf1hkvs8co26ehcm6ry22mv8w,3cfjtt4sxx3l9cxdo4vpi111nsl7i8,GAfb8P1N,2020-0188,2021-10-31,02:27:23,03:39:30,NA,incomplete,false,true,NA,NA,5,7,NA,gray,n_s_021.jpg,NA,NA,NA,NA,NA,unpleasant,pleasant,NA,NA,NA,NA,NA,none,0,false,NA,NA,NA,NA,NA,NA,NA,NA
GAfb8P1N,3dw3bnf1hkvs8co26ehcm6ry22mv8w,3cfjtt4sxx3l9cxdo4vpi111nsl7i8,GAfb8P1N,2020-0188,2021-10-31,02:27:23,03:39:30,NA,incomplete,false,true,NA,NA,5,8,NA,gray,n_s_111.jpg,NA,NA,NA,NA,NA,pleasant,unpleasant,NA,NA,NA,NA,NA,left,1460.59999990463,true,NA,NA,NA,NA,NA,NA,NA,NA
GAfb8P1N,3dw3bnf1hkvs8co26ehcm6ry22mv8w,3cfjtt4sxx3l9cxdo4vpi111nsl7i8,GAfb8P1N,2020-0188,2021-10-31,02:27:23,03:39:30,NA,incomplete,false,true,NA,NA,5,9,NA,gray,n_l_075.jpg,NA,NA,NA,NA,NA,unpleasant,pleasant,NA,NA,NA,NA,NA,right,1936.90000009537,true,NA,NA,NA,NA,NA,NA,NA,NA
GAfb8P1N,3dw3bnf1hkvs8co26ehcm6ry22mv8w,3cfjtt4sxx3l9cxdo4vpi111nsl7i8,GAfb8P1N,2020-0188,2021-10-31,02:27:23,03:39:30,NA,incomplete,false,true,NA,NA,5,10,NA,gray,n_l_037.jpg,NA,NA,NA,NA,NA,pleasant,unpleasant,NA,NA,NA,NA,NA,left,1425.40000009537,true,NA,NA,NA,NA,NA,NA,NA,NA
GAfb8P1N,3dw3bnf1hkvs8co26ehcm6ry22mv8w,3cfjtt4sxx3l9cxdo4vpi111nsl7i8,GAfb8P1N,2020-0188,2021-10-31,02:27:23,03:39:30,NA,incomplete,false,true,NA,NA,5,11,NA,gray,n_l_082.jpg,NA,NA,NA,NA,NA,unpleasant,pleasant,NA,NA,NA,NA,NA,right,1551,true,NA,NA,NA,NA,NA,NA,NA,NA
GAfb8P1N,3dw3bnf1hkvs8co26ehcm6ry22mv8w,3cfjtt4sxx3l9cxdo4vpi111nsl7i8,GAfb8P1N,2020-0188,2021-10-31,02:27:23,03:39:30,NA,incomplete,false,true,NA,NA,5,12,NA,black,m_l_094.jpg,NA,NA,NA,NA,NA,pleasant,unpleasant,NA,NA,NA,NA,NA,left,1095.7999997139,true,NA,NA,NA,NA,NA,NA,NA,NA
GAfb8P1N,3dw3bnf1hkvs8co26ehcm6ry22mv8w,3cfjtt4sxx3l9cxdo4vpi111nsl7i8,GAfb8P1N,2020-0188,2021-10-31,02:27:23,03:39:30,NA,incomplete,false,true,NA,NA,5,13,NA,black,m_l_073.jpg,NA,NA,NA,NA,NA,pleasant,unpleasant,NA,NA,NA,NA,NA,left,1157.09999990463,true,NA,NA,NA,NA,NA,NA,NA,NA
GAfb8P1N,3dw3bnf1hkvs8co26ehcm6ry22mv8w,3cfjtt4sxx3l9cxdo4vpi111nsl7i8,GAfb8P1N,2020-0188,2021-10-31,02:27:23,03:39:30,NA,incomplete,false,true,NA,NA,5,14,NA,black,m_l_093.jpg,NA,NA,NA,NA,NA,pleasant,unpleasant,NA,NA,NA,NA,NA,left,1210.69999980927,true,NA,NA,NA,NA,NA,NA,NA,NA
GAfb8P1N,3dw3bnf1hkvs8co26ehcm6ry22mv8w,3cfjtt4sxx3l9cxdo4vpi111nsl7i8,GAfb8P1N,2020-0188,2021-10-31,02:27:23,03:39:30,NA,incomplete,false,true,NA,NA,5,15,NA,black,m_s_013.jpg,NA,NA,NA,NA,NA,pleasant,unpleasant,NA,NA,NA,NA,NA,left,1442.5,true,NA,NA,NA,NA,NA,NA,NA,NA
GAfb8P1N,3dw3bnf1hkvs8co26ehcm6ry22mv8w,3cfjtt4sxx3l9cxdo4vpi111nsl7i8,GAfb8P1N,2020-0188,2021-10-31,02:27:23,03:39:30,NA,incomplete,false,true,NA,NA,5,16,NA,black,n_s_058.jpg,NA,NA,NA,NA,NA,pleasant,unpleasant,NA,NA,NA,NA,NA,left,1529.5,true,NA,NA,NA,NA,NA,NA,NA,NA
