workerId,hitId,assignmentId,subject,studyid,exp_date,exp_start,exp_end,time_start,time_end,practice,encoding,memory,association,block,trial,event_order,event,stim,answer,object,left_context,right_context,context_type,label_left,label_right,left_image,left_event,right_image,right_event,condition,response,response_time,response_acc,association_response_time,association_response,association_acc,order_response,order_response_time,order_acc,distance_response,distance_response_time
qbIkSq7n,3bakuke4akpi45n0y93n6zfn3q3r1f,3dbqwde4yaby09ulxrtkppjmimt5ni,qbIkSq7n,2020-0188,2021-10-31,07:49:08,09:47:23,NA,incomplete,true,true,NA,NA,0,0,NA,blue,m_s_114.jpg,NA,NA,NA,NA,NA,pleasant,unpleasant,NA,NA,NA,NA,NA,none,0,false,NA,NA,NA,NA,NA,NA,NA,NA
qbIkSq7n,3bakuke4akpi45n0y93n6zfn3q3r1f,3dbqwde4yaby09ulxrtkppjmimt5ni,qbIkSq7n,2020-0188,2021-10-31,07:49:08,09:47:23,NA,incomplete,true,true,NA,NA,0,1,NA,blue,n_l_060.jpg,NA,NA,NA,NA,NA,unpleasant,pleasant,NA,NA,NA,NA,NA,none,0,false,NA,NA,NA,NA,NA,NA,NA,NA
qbIkSq7n,3bakuke4akpi45n0y93n6zfn3q3r1f,3dbqwde4yaby09ulxrtkppjmimt5ni,qbIkSq7n,2020-0188,2021-10-31,07:49:08,09:47:23,NA,incomplete,true,true,NA,NA,0,2,NA,blue,m_s_041.jpg,NA,NA,NA,NA,NA,pleasant,unpleasant,NA,NA,NA,NA,NA,left,2608.19999998808,true,NA,NA,NA,NA,NA,NA,NA,NA
qbIkSq7n,3bakuke4akpi45n0y93n6zfn3q3r1f,3dbqwde4yaby09ulxrtkppjmimt5ni,qbIkSq7n,2020-0188,2021-10-31,07:49:08,09:47:23,NA,incomplete,true,true,NA,NA,0,3,NA,blue,n_l_072.jpg,NA,NA,NA,NA,NA,pleasant,unpleasant,NA,NA,NA,NA,NA,left,1449.09999996424,true,NA,NA,NA,NA,NA,NA,NA,NA
qbIkSq7n,3bakuke4akpi45n0y93n6zfn3q3r1f,3dbqwde4yaby09ulxrtkppjmimt5ni,qbIkSq7n,2020-0188,2021-10-31,07:49:08,09:47:23,NA,incomplete,true,true,NA,NA,0,4,NA,blue,n_s_039.jpg,NA,NA,NA,NA,NA,pleasant,unpleasant,NA,NA,NA,NA,NA,left,1854.09999996424,true,NA,NA,NA,NA,NA,NA,NA,NA
qbIkSq7n,3bakuke4akpi45n0y93n6zfn3q3r1f,3dbqwde4yaby09ulxrtkppjmimt5ni,qbIkSq7n,2020-0188,2021-10-31,07:49:08,09:47:23,NA,incomplete,true,true,NA,NA,0,5,NA,blue,m_s_014.jpg,NA,NA,NA,NA,NA,unpleasant,pleasant,NA,NA,NA,NA,NA,right,1526,true,NA,NA,NA,NA,NA,NA,NA,NA
qbIkSq7n,3bakuke4akpi45n0y93n6zfn3q3r1f,3dbqwde4yaby09ulxrtkppjmimt5ni,qbIkSq7n,2020-0188,2021-10-31,07:49:08,09:47:23,NA,incomplete,true,true,NA,NA,0,6,NA,white,n_l_089.jpg,NA,NA,NA,NA,NA,unpleasant,pleasant,NA,NA,NA,NA,NA,left,1606.60000002384,true,NA,NA,NA,NA,NA,NA,NA,NA
qbIkSq7n,3bakuke4akpi45n0y93n6zfn3q3r1f,3dbqwde4yaby09ulxrtkppjmimt5ni,qbIkSq7n,2020-0188,2021-10-31,07:49:08,09:47:23,NA,incomplete,true,true,NA,NA,0,7,NA,white,n_s_089.jpg,NA,NA,NA,NA,NA,pleasant,unpleasant,NA,NA,NA,NA,NA,left,1350,true,NA,NA,NA,NA,NA,NA,NA,NA
qbIkSq7n,3bakuke4akpi45n0y93n6zfn3q3r1f,3dbqwde4yaby09ulxrtkppjmimt5ni,qbIkSq7n,2020-0188,2021-10-31,07:49:08,09:47:23,NA,incomplete,true,true,NA,NA,0,8,NA,white,n_s_090.jpg,NA,NA,NA,NA,NA,unpleasant,pleasant,NA,NA,NA,NA,NA,left,1412.69999998808,true,NA,NA,NA,NA,NA,NA,NA,NA
qbIkSq7n,3bakuke4akpi45n0y93n6zfn3q3r1f,3dbqwde4yaby09ulxrtkppjmimt5ni,qbIkSq7n,2020-0188,2021-10-31,07:49:08,09:47:23,NA,incomplete,true,true,NA,NA,0,9,NA,white,m_l_062.jpg,NA,NA,NA,NA,NA,pleasant,unpleasant,NA,NA,NA,NA,NA,left,1163.5,true,NA,NA,NA,NA,NA,NA,NA,NA
qbIkSq7n,3bakuke4akpi45n0y93n6zfn3q3r1f,3dbqwde4yaby09ulxrtkppjmimt5ni,qbIkSq7n,2020-0188,2021-10-31,07:49:08,09:47:23,NA,incomplete,true,true,NA,NA,0,10,NA,white,m_l_038.jpg,NA,NA,NA,NA,NA,unpleasant,pleasant,NA,NA,NA,NA,NA,right,1121.59999996424,true,NA,NA,NA,NA,NA,NA,NA,NA
qbIkSq7n,3bakuke4akpi45n0y93n6zfn3q3r1f,3dbqwde4yaby09ulxrtkppjmimt5ni,qbIkSq7n,2020-0188,2021-10-31,07:49:08,09:47:23,NA,incomplete,true,true,NA,NA,0,11,NA,white,n_l_016.jpg,NA,NA,NA,NA,NA,pleasant,unpleasant,NA,NA,NA,NA,NA,right,1116.19999998808,true,NA,NA,NA,NA,NA,NA,NA,NA
qbIkSq7n,3bakuke4akpi45n0y93n6zfn3q3r1f,3dbqwde4yaby09ulxrtkppjmimt5ni,qbIkSq7n,2020-0188,2021-10-31,07:49:08,09:47:23,NA,incomplete,true,true,NA,NA,0,12,NA,green,m_l_004.jpg,NA,NA,NA,NA,NA,unpleasant,pleasant,NA,NA,NA,NA,NA,right,1408.90000003576,true,NA,NA,NA,NA,NA,NA,NA,NA
qbIkSq7n,3bakuke4akpi45n0y93n6zfn3q3r1f,3dbqwde4yaby09ulxrtkppjmimt5ni,qbIkSq7n,2020-0188,2021-10-31,07:49:08,09:47:23,NA,incomplete,true,true,NA,NA,0,13,NA,green,n_l_063.jpg,NA,NA,NA,NA,NA,pleasant,unpleasant,NA,NA,NA,NA,NA,right,1204.20000004768,true,NA,NA,NA,NA,NA,NA,NA,NA
qbIkSq7n,3bakuke4akpi45n0y93n6zfn3q3r1f,3dbqwde4yaby09ulxrtkppjmimt5ni,qbIkSq7n,2020-0188,2021-10-31,07:49:08,09:47:23,NA,incomplete,true,true,NA,NA,0,14,NA,green,m_l_002.jpg,NA,NA,NA,NA,NA,unpleasant,pleasant,NA,NA,NA,NA,NA,left,1158.30000001192,true,NA,NA,NA,NA,NA,NA,NA,NA
qbIkSq7n,3bakuke4akpi45n0y93n6zfn3q3r1f,3dbqwde4yaby09ulxrtkppjmimt5ni,qbIkSq7n,2020-0188,2021-10-31,07:49:08,09:47:23,NA,incomplete,true,true,NA,NA,0,15,NA,green,m_s_084.jpg,NA,NA,NA,NA,NA,pleasant,unpleasant,NA,NA,NA,NA,NA,left,1286.80000001192,true,NA,NA,NA,NA,NA,NA,NA,NA
qbIkSq7n,3bakuke4akpi45n0y93n6zfn3q3r1f,3dbqwde4yaby09ulxrtkppjmimt5ni,qbIkSq7n,2020-0188,2021-10-31,07:49:08,09:47:23,NA,incomplete,true,true,NA,NA,0,16,NA,green,n_l_103.jpg,NA,NA,NA,NA,NA,pleasant,unpleasant,NA,NA,NA,NA,NA,none,0,false,NA,NA,NA,NA,NA,NA,NA,NA
qbIkSq7n,3bakuke4akpi45n0y93n6zfn3q3r1f,3dbqwde4yaby09ulxrtkppjmimt5ni,qbIkSq7n,2020-0188,2021-10-31,07:49:08,09:47:23,NA,incomplete,true,true,NA,NA,0,17,NA,green,n_s_047.jpg,NA,NA,NA,NA,NA,unpleasant,pleasant,NA,NA,NA,NA,NA,left,1283,true,NA,NA,NA,NA,NA,NA,NA,NA
qbIkSq7n,3bakuke4akpi45n0y93n6zfn3q3r1f,3dbqwde4yaby09ulxrtkppjmimt5ni,qbIkSq7n,2020-0188,2021-10-31,07:49:08,09:47:23,NA,incomplete,true,true,NA,NA,0,18,NA,purple,m_l_010.jpg,NA,NA,NA,NA,NA,unpleasant,pleasant,NA,NA,NA,NA,NA,left,1330,true,NA,NA,NA,NA,NA,NA,NA,NA
qbIkSq7n,3bakuke4akpi45n0y93n6zfn3q3r1f,3dbqwde4yaby09ulxrtkppjmimt5ni,qbIkSq7n,2020-0188,2021-10-31,07:49:08,09:47:23,NA,incomplete,true,true,NA,NA,0,19,NA,purple,m_s_110.jpg,NA,NA,NA,NA,NA,unpleasant,pleasant,NA,NA,NA,NA,NA,left,2435,true,NA,NA,NA,NA,NA,NA,NA,NA
qbIkSq7n,3bakuke4akpi45n0y93n6zfn3q3r1f,3dbqwde4yaby09ulxrtkppjmimt5ni,qbIkSq7n,2020-0188,2021-10-31,07:49:08,09:47:23,NA,incomplete,true,true,NA,NA,0,20,NA,purple,m_l_078.jpg,NA,NA,NA,NA,NA,unpleasant,pleasant,NA,NA,NA,NA,NA,left,2107.29999995232,true,NA,NA,NA,NA,NA,NA,NA,NA
qbIkSq7n,3bakuke4akpi45n0y93n6zfn3q3r1f,3dbqwde4yaby09ulxrtkppjmimt5ni,qbIkSq7n,2020-0188,2021-10-31,07:49:08,09:47:23,NA,incomplete,true,true,NA,NA,0,21,NA,purple,m_l_041.jpg,NA,NA,NA,NA,NA,unpleasant,pleasant,NA,NA,NA,NA,NA,left,1478,true,NA,NA,NA,NA,NA,NA,NA,NA
qbIkSq7n,3bakuke4akpi45n0y93n6zfn3q3r1f,3dbqwde4yaby09ulxrtkppjmimt5ni,qbIkSq7n,2020-0188,2021-10-31,07:49:08,09:47:23,NA,incomplete,true,true,NA,NA,0,22,NA,purple,m_s_039.jpg,NA,NA,NA,NA,NA,unpleasant,pleasant,NA,NA,NA,NA,NA,left,1484.39999997616,true,NA,NA,NA,NA,NA,NA,NA,NA
qbIkSq7n,3bakuke4akpi45n0y93n6zfn3q3r1f,3dbqwde4yaby09ulxrtkppjmimt5ni,qbIkSq7n,2020-0188,2021-10-31,07:49:08,09:47:23,NA,incomplete,true,true,NA,NA,0,23,NA,purple,m_l_053.jpg,NA,NA,NA,NA,NA,pleasant,unpleasant,NA,NA,NA,NA,NA,left,1024.69999998808,true,NA,NA,NA,NA,NA,NA,NA,NA
qbIkSq7n,3bakuke4akpi45n0y93n6zfn3q3r1f,3dbqwde4yaby09ulxrtkppjmimt5ni,qbIkSq7n,2020-0188,2021-10-31,07:49:08,09:47:23,NA,incomplete,true,true,NA,NA,0,24,NA,yellow,n_s_082.jpg,NA,NA,NA,NA,NA,pleasant,unpleasant,NA,NA,NA,NA,NA,left,1032.59999996424,true,NA,NA,NA,NA,NA,NA,NA,NA
qbIkSq7n,3bakuke4akpi45n0y93n6zfn3q3r1f,3dbqwde4yaby09ulxrtkppjmimt5ni,qbIkSq7n,2020-0188,2021-10-31,07:49:08,09:47:23,NA,incomplete,true,true,NA,NA,0,25,NA,yellow,n_l_007.jpg,NA,NA,NA,NA,NA,pleasant,unpleasant,NA,NA,NA,NA,NA,none,0,false,NA,NA,NA,NA,NA,NA,NA,NA
qbIkSq7n,3bakuke4akpi45n0y93n6zfn3q3r1f,3dbqwde4yaby09ulxrtkppjmimt5ni,qbIkSq7n,2020-0188,2021-10-31,07:49:08,09:47:23,NA,incomplete,true,true,NA,NA,0,26,NA,yellow,n_s_052.jpg,NA,NA,NA,NA,NA,pleasant,unpleasant,NA,NA,NA,NA,NA,left,1685.19999998808,true,NA,NA,NA,NA,NA,NA,NA,NA
qbIkSq7n,3bakuke4akpi45n0y93n6zfn3q3r1f,3dbqwde4yaby09ulxrtkppjmimt5ni,qbIkSq7n,2020-0188,2021-10-31,07:49:08,09:47:23,NA,incomplete,true,true,NA,NA,0,27,NA,yellow,n_s_048.jpg,NA,NA,NA,NA,NA,unpleasant,pleasant,NA,NA,NA,NA,NA,right,1298.60000002384,true,NA,NA,NA,NA,NA,NA,NA,NA
qbIkSq7n,3bakuke4akpi45n0y93n6zfn3q3r1f,3dbqwde4yaby09ulxrtkppjmimt5ni,qbIkSq7n,2020-0188,2021-10-31,07:49:08,09:47:23,NA,incomplete,true,true,NA,NA,0,28,NA,yellow,n_l_031.jpg,NA,NA,NA,NA,NA,pleasant,unpleasant,NA,NA,NA,NA,NA,none,0,false,NA,NA,NA,NA,NA,NA,NA,NA
qbIkSq7n,3bakuke4akpi45n0y93n6zfn3q3r1f,3dbqwde4yaby09ulxrtkppjmimt5ni,qbIkSq7n,2020-0188,2021-10-31,07:49:08,09:47:23,NA,incomplete,true,true,NA,NA,0,29,NA,yellow,m_s_113.jpg,NA,NA,NA,NA,NA,unpleasant,pleasant,NA,NA,NA,NA,NA,right,1873.60000002384,true,NA,NA,NA,NA,NA,NA,NA,NA
qbIkSq7n,3bakuke4akpi45n0y93n6zfn3q3r1f,3dbqwde4yaby09ulxrtkppjmimt5ni,qbIkSq7n,2020-0188,2021-10-31,07:49:08,09:47:23,NA,incomplete,true,true,NA,NA,0,30,NA,brown,n_l_042.jpg,NA,NA,NA,NA,NA,pleasant,unpleasant,NA,NA,NA,NA,NA,right,2300.89999997616,true,NA,NA,NA,NA,NA,NA,NA,NA
qbIkSq7n,3bakuke4akpi45n0y93n6zfn3q3r1f,3dbqwde4yaby09ulxrtkppjmimt5ni,qbIkSq7n,2020-0188,2021-10-31,07:49:08,09:47:23,NA,incomplete,true,true,NA,NA,0,31,NA,brown,n_s_066.jpg,NA,NA,NA,NA,NA,unpleasant,pleasant,NA,NA,NA,NA,NA,left,1571.39999997616,true,NA,NA,NA,NA,NA,NA,NA,NA
qbIkSq7n,3bakuke4akpi45n0y93n6zfn3q3r1f,3dbqwde4yaby09ulxrtkppjmimt5ni,qbIkSq7n,2020-0188,2021-10-31,07:49:08,09:47:23,NA,incomplete,true,true,NA,NA,0,32,NA,brown,n_l_058.jpg,NA,NA,NA,NA,NA,unpleasant,pleasant,NA,NA,NA,NA,NA,right,1106.90000003576,true,NA,NA,NA,NA,NA,NA,NA,NA
qbIkSq7n,3bakuke4akpi45n0y93n6zfn3q3r1f,3dbqwde4yaby09ulxrtkppjmimt5ni,qbIkSq7n,2020-0188,2021-10-31,07:49:08,09:47:23,NA,incomplete,true,true,NA,NA,0,33,NA,brown,n_l_075.jpg,NA,NA,NA,NA,NA,pleasant,unpleasant,NA,NA,NA,NA,NA,right,1095.29999995232,true,NA,NA,NA,NA,NA,NA,NA,NA
qbIkSq7n,3bakuke4akpi45n0y93n6zfn3q3r1f,3dbqwde4yaby09ulxrtkppjmimt5ni,qbIkSq7n,2020-0188,2021-10-31,07:49:08,09:47:23,NA,incomplete,true,true,NA,NA,0,34,NA,brown,n_l_109.jpg,NA,NA,NA,NA,NA,pleasant,unpleasant,NA,NA,NA,NA,NA,right,1168.10000002384,true,NA,NA,NA,NA,NA,NA,NA,NA
qbIkSq7n,3bakuke4akpi45n0y93n6zfn3q3r1f,3dbqwde4yaby09ulxrtkppjmimt5ni,qbIkSq7n,2020-0188,2021-10-31,07:49:08,09:47:23,NA,incomplete,true,true,NA,NA,0,35,NA,brown,n_s_030.jpg,NA,NA,NA,NA,NA,pleasant,unpleasant,NA,NA,NA,NA,NA,right,913.300000011921,true,NA,NA,NA,NA,NA,NA,NA,NA
qbIkSq7n,3bakuke4akpi45n0y93n6zfn3q3r1f,3dbqwde4yaby09ulxrtkppjmimt5ni,qbIkSq7n,2020-0188,2021-10-31,07:49:08,09:47:23,NA,incomplete,true,NA,NA,true,0,0,NA,NA,NA,right,n_l_016.jpg,green,white,NA,NA,NA,NA,NA,NA,NA,NA,NA,NaN,NA,5736.600000023842,right,1,NA,NA,NA,NA,NA
qbIkSq7n,3bakuke4akpi45n0y93n6zfn3q3r1f,3dbqwde4yaby09ulxrtkppjmimt5ni,qbIkSq7n,2020-0188,2021-10-31,07:49:08,09:47:23,NA,incomplete,true,NA,NA,true,0,1,NA,NA,NA,left,n_s_030.jpg,brown,yellow,NA,NA,NA,NA,NA,NA,NA,NA,NA,NaN,NA,4088.699999988079,left,1,NA,NA,NA,NA,NA
qbIkSq7n,3bakuke4akpi45n0y93n6zfn3q3r1f,3dbqwde4yaby09ulxrtkppjmimt5ni,qbIkSq7n,2020-0188,2021-10-31,07:49:08,09:47:23,NA,incomplete,true,NA,NA,true,0,2,NA,NA,NA,left,m_s_039.jpg,purple,yellow,NA,NA,NA,NA,NA,NA,NA,NA,NA,NaN,NA,2791.600000023842,right,0,NA,NA,NA,NA,NA
qbIkSq7n,3bakuke4akpi45n0y93n6zfn3q3r1f,3dbqwde4yaby09ulxrtkppjmimt5ni,qbIkSq7n,2020-0188,2021-10-31,07:49:08,09:47:23,NA,incomplete,true,NA,NA,true,0,3,NA,NA,NA,left,n_s_052.jpg,yellow,brown,NA,NA,NA,NA,NA,NA,NA,NA,NA,NaN,NA,3113.400000035763,right,0,NA,NA,NA,NA,NA
qbIkSq7n,3bakuke4akpi45n0y93n6zfn3q3r1f,3dbqwde4yaby09ulxrtkppjmimt5ni,qbIkSq7n,2020-0188,2021-10-31,07:49:08,09:47:23,NA,incomplete,true,NA,NA,true,0,4,NA,NA,NA,right,m_l_078.jpg,green,purple,NA,NA,NA,NA,NA,NA,NA,NA,NA,NaN,NA,4195,left,0,NA,NA,NA,NA,NA
qbIkSq7n,3bakuke4akpi45n0y93n6zfn3q3r1f,3dbqwde4yaby09ulxrtkppjmimt5ni,qbIkSq7n,2020-0188,2021-10-31,07:49:08,09:47:23,NA,incomplete,true,NA,NA,true,0,5,NA,NA,NA,right,m_s_113.jpg,purple,yellow,NA,NA,NA,NA,NA,NA,NA,NA,NA,NaN,NA,2617.399999976158,right,1,NA,NA,NA,NA,NA
qbIkSq7n,3bakuke4akpi45n0y93n6zfn3q3r1f,3dbqwde4yaby09ulxrtkppjmimt5ni,qbIkSq7n,2020-0188,2021-10-31,07:49:08,09:47:23,NA,incomplete,true,NA,NA,true,0,6,NA,NA,NA,right,n_l_060.jpg,white,blue,NA,NA,NA,NA,NA,NA,NA,NA,NA,NaN,NA,5217.800000011921,left,0,NA,NA,NA,NA,NA
qbIkSq7n,3bakuke4akpi45n0y93n6zfn3q3r1f,3dbqwde4yaby09ulxrtkppjmimt5ni,qbIkSq7n,2020-0188,2021-10-31,07:49:08,09:47:23,NA,incomplete,true,NA,NA,true,0,7,NA,NA,NA,left,n_s_047.jpg,green,purple,NA,NA,NA,NA,NA,NA,NA,NA,NA,NaN,NA,3743,right,0,NA,NA,NA,NA,NA
qbIkSq7n,3bakuke4akpi45n0y93n6zfn3q3r1f,3dbqwde4yaby09ulxrtkppjmimt5ni,qbIkSq7n,2020-0188,2021-10-31,07:49:08,09:47:23,NA,incomplete,true,NA,NA,true,0,8,NA,NA,NA,right,m_l_002.jpg,white,green,NA,NA,NA,NA,NA,NA,NA,NA,NA,NaN,NA,9297,right,1,NA,NA,NA,NA,NA
qbIkSq7n,3bakuke4akpi45n0y93n6zfn3q3r1f,3dbqwde4yaby09ulxrtkppjmimt5ni,qbIkSq7n,2020-0188,2021-10-31,07:49:08,09:47:23,NA,incomplete,true,NA,NA,true,0,9,NA,NA,NA,right,n_l_058.jpg,yellow,brown,NA,NA,NA,NA,NA,NA,NA,NA,NA,NaN,NA,2815.699999988079,right,1,NA,NA,NA,NA,NA
qbIkSq7n,3bakuke4akpi45n0y93n6zfn3q3r1f,3dbqwde4yaby09ulxrtkppjmimt5ni,qbIkSq7n,2020-0188,2021-10-31,07:49:08,09:47:23,NA,incomplete,true,NA,NA,true,0,10,NA,NA,NA,left,m_l_038.jpg,white,green,NA,NA,NA,NA,NA,NA,NA,NA,NA,NaN,NA,2435.800000011921,left,1,NA,NA,NA,NA,NA
qbIkSq7n,3bakuke4akpi45n0y93n6zfn3q3r1f,3dbqwde4yaby09ulxrtkppjmimt5ni,qbIkSq7n,2020-0188,2021-10-31,07:49:08,09:47:23,NA,incomplete,true,NA,NA,true,0,11,NA,NA,NA,left,m_s_014.jpg,blue,white,NA,NA,NA,NA,NA,NA,NA,NA,NA,NaN,NA,3371,left,1,NA,NA,NA,NA,NA
qbIkSq7n,3bakuke4akpi45n0y93n6zfn3q3r1f,3dbqwde4yaby09ulxrtkppjmimt5ni,qbIkSq7n,2020-0188,2021-10-31,07:49:08,09:47:23,NA,incomplete,true,NA,NA,true,0,12,NA,NA,NA,right,m_l_053.jpg,green,purple,NA,NA,NA,NA,NA,NA,NA,NA,NA,NaN,NA,2414.7000000476837,right,1,NA,NA,NA,NA,NA
qbIkSq7n,3bakuke4akpi45n0y93n6zfn3q3r1f,3dbqwde4yaby09ulxrtkppjmimt5ni,qbIkSq7n,2020-0188,2021-10-31,07:49:08,09:47:23,NA,incomplete,true,NA,NA,true,0,13,NA,NA,NA,left,n_l_031.jpg,yellow,brown,NA,NA,NA,NA,NA,NA,NA,NA,NA,NaN,NA,2315.599999964237,right,0,NA,NA,NA,NA,NA
qbIkSq7n,3bakuke4akpi45n0y93n6zfn3q3r1f,3dbqwde4yaby09ulxrtkppjmimt5ni,qbIkSq7n,2020-0188,2021-10-31,07:49:08,09:47:23,NA,incomplete,true,NA,NA,true,0,14,NA,NA,NA,right,n_s_089.jpg,blue,white,NA,NA,NA,NA,NA,NA,NA,NA,NA,NaN,NA,2180.199999988079,right,1,NA,NA,NA,NA,NA
qbIkSq7n,3bakuke4akpi45n0y93n6zfn3q3r1f,3dbqwde4yaby09ulxrtkppjmimt5ni,qbIkSq7n,2020-0188,2021-10-31,07:49:08,09:47:23,NA,incomplete,true,NA,NA,true,0,15,NA,NA,NA,right,n_s_066.jpg,yellow,brown,NA,NA,NA,NA,NA,NA,NA,NA,NA,NaN,NA,2065.199999988079,right,1,NA,NA,NA,NA,NA
qbIkSq7n,3bakuke4akpi45n0y93n6zfn3q3r1f,3dbqwde4yaby09ulxrtkppjmimt5ni,qbIkSq7n,2020-0188,2021-10-31,07:49:08,09:47:23,NA,incomplete,true,NA,NA,true,0,16,NA,NA,NA,left,m_s_110.jpg,purple,yellow,NA,NA,NA,NA,NA,NA,NA,NA,NA,NaN,NA,4269.400000035763,left,1,NA,NA,NA,NA,NA
qbIkSq7n,3bakuke4akpi45n0y93n6zfn3q3r1f,3dbqwde4yaby09ulxrtkppjmimt5ni,qbIkSq7n,2020-0188,2021-10-31,07:49:08,09:47:23,NA,incomplete,true,NA,NA,true,0,17,NA,NA,NA,left,n_s_090.jpg,white,blue,NA,NA,NA,NA,NA,NA,NA,NA,NA,NaN,NA,1365.6000000238419,right,0,NA,NA,NA,NA,NA
qbIkSq7n,3bakuke4akpi45n0y93n6zfn3q3r1f,3dbqwde4yaby09ulxrtkppjmimt5ni,qbIkSq7n,2020-0188,2021-10-31,07:49:08,09:47:23,NA,incomplete,true,NA,NA,true,0,18,NA,NA,NA,left,n_l_063.jpg,green,white,NA,NA,NA,NA,NA,NA,NA,NA,NA,NaN,NA,1981.5999999642372,right,0,NA,NA,NA,NA,NA
qbIkSq7n,3bakuke4akpi45n0y93n6zfn3q3r1f,3dbqwde4yaby09ulxrtkppjmimt5ni,qbIkSq7n,2020-0188,2021-10-31,07:49:08,09:47:23,NA,incomplete,true,NA,NA,true,0,19,NA,NA,NA,right,n_l_007.jpg,purple,yellow,NA,NA,NA,NA,NA,NA,NA,NA,NA,NaN,NA,2049.199999988079,right,1,NA,NA,NA,NA,NA
qbIkSq7n,3bakuke4akpi45n0y93n6zfn3q3r1f,3dbqwde4yaby09ulxrtkppjmimt5ni,qbIkSq7n,2020-0188,2021-10-31,07:49:08,09:47:23,NA,incomplete,true,NA,NA,true,0,20,NA,NA,NA,right,n_l_103.jpg,purple,green,NA,NA,NA,NA,NA,NA,NA,NA,NA,NaN,NA,2134.599999964237,left,0,NA,NA,NA,NA,NA
qbIkSq7n,3bakuke4akpi45n0y93n6zfn3q3r1f,3dbqwde4yaby09ulxrtkppjmimt5ni,qbIkSq7n,2020-0188,2021-10-31,07:49:08,09:47:23,NA,incomplete,true,NA,NA,true,0,21,NA,NA,NA,right,n_s_039.jpg,white,blue,NA,NA,NA,NA,NA,NA,NA,NA,NA,NaN,NA,2680.5,right,1,NA,NA,NA,NA,NA
qbIkSq7n,3bakuke4akpi45n0y93n6zfn3q3r1f,3dbqwde4yaby09ulxrtkppjmimt5ni,qbIkSq7n,2020-0188,2021-10-31,07:49:08,09:47:23,NA,incomplete,true,NA,true,NA,0,0,NA,NA,NA,right,NA,NA,NA,absent,NA,NA,n_s_090.jpg,white,n_s_039.jpg,blue,between,NA,NaN,NA,NA,NA,NA,right,4904.300000011921,1,1,6230.899999976158
qbIkSq7n,3bakuke4akpi45n0y93n6zfn3q3r1f,3dbqwde4yaby09ulxrtkppjmimt5ni,qbIkSq7n,2020-0188,2021-10-31,07:49:08,09:47:23,NA,incomplete,true,NA,true,NA,0,1,NA,NA,NA,left,NA,NA,NA,absent,NA,NA,n_l_031.jpg,yellow,n_l_058.jpg,brown,between,NA,NaN,NA,NA,NA,NA,left,4079.199999988079,1,1,4481.700000047684
qbIkSq7n,3bakuke4akpi45n0y93n6zfn3q3r1f,3dbqwde4yaby09ulxrtkppjmimt5ni,qbIkSq7n,2020-0188,2021-10-31,07:49:08,09:47:23,NA,incomplete,true,NA,true,NA,0,2,NA,NA,NA,right,NA,NA,NA,absent,NA,NA,m_l_053.jpg,purple,m_s_110.jpg,purple,within,NA,NaN,NA,NA,NA,NA,left,5065.699999988079,0,2,4781.100000023842
qbIkSq7n,3bakuke4akpi45n0y93n6zfn3q3r1f,3dbqwde4yaby09ulxrtkppjmimt5ni,qbIkSq7n,2020-0188,2021-10-31,07:49:08,09:47:23,NA,incomplete,true,NA,true,NA,0,3,NA,NA,NA,right,NA,NA,NA,absent,NA,NA,n_s_047.jpg,green,n_l_063.jpg,green,within,NA,NaN,NA,NA,NA,NA,left,4513.399999976158,0,2,5829.899999976158
qbIkSq7n,3bakuke4akpi45n0y93n6zfn3q3r1f,3dbqwde4yaby09ulxrtkppjmimt5ni,qbIkSq7n,2020-0188,2021-10-31,07:49:08,09:47:23,NA,incomplete,true,NA,true,NA,0,4,NA,NA,NA,left,NA,NA,NA,absent,NA,NA,n_s_066.jpg,brown,n_s_030.jpg,brown,within,NA,NaN,NA,NA,NA,NA,left,8146.600000023842,1,2,2914.900000035763
qbIkSq7n,3bakuke4akpi45n0y93n6zfn3q3r1f,3dbqwde4yaby09ulxrtkppjmimt5ni,qbIkSq7n,2020-0188,2021-10-31,07:49:08,09:47:23,NA,incomplete,true,NA,true,NA,0,5,NA,NA,NA,right,NA,NA,NA,absent,NA,NA,m_l_078.jpg,purple,n_l_103.jpg,green,between,NA,NaN,NA,NA,NA,NA,right,6596.800000011921,1,1,2699.5
qbIkSq7n,3bakuke4akpi45n0y93n6zfn3q3r1f,3dbqwde4yaby09ulxrtkppjmimt5ni,qbIkSq7n,2020-0188,2021-10-31,07:49:08,09:47:23,NA,incomplete,true,NA,true,NA,0,6,NA,NA,NA,right,NA,NA,NA,absent,NA,NA,m_l_002.jpg,green,m_l_038.jpg,white,between,NA,NaN,NA,NA,NA,NA,right,5292.599999964237,1,1,3015.100000023842
qbIkSq7n,3bakuke4akpi45n0y93n6zfn3q3r1f,3dbqwde4yaby09ulxrtkppjmimt5ni,qbIkSq7n,2020-0188,2021-10-31,07:49:08,09:47:23,NA,incomplete,true,NA,true,NA,0,7,NA,NA,NA,right,NA,NA,NA,absent,NA,NA,n_s_052.jpg,yellow,m_s_039.jpg,purple,between,NA,NaN,NA,NA,NA,NA,right,3950.5,1,2,1666.1000000238419
qbIkSq7n,3bakuke4akpi45n0y93n6zfn3q3r1f,3dbqwde4yaby09ulxrtkppjmimt5ni,qbIkSq7n,2020-0188,2021-10-31,07:49:08,09:47:23,NA,incomplete,true,NA,true,NA,0,8,NA,NA,NA,right,NA,NA,NA,absent,NA,NA,m_s_014.jpg,blue,n_l_060.jpg,blue,within,NA,NaN,NA,NA,NA,NA,right,3930.600000023842,1,3,1782.6000000238419
qbIkSq7n,3bakuke4akpi45n0y93n6zfn3q3r1f,3dbqwde4yaby09ulxrtkppjmimt5ni,qbIkSq7n,2020-0188,2021-10-31,07:49:08,09:47:23,NA,incomplete,true,NA,true,NA,0,9,NA,NA,NA,right,NA,NA,NA,absent,NA,NA,m_s_113.jpg,yellow,n_l_007.jpg,yellow,within,NA,NaN,NA,NA,NA,NA,right,4795,1,1,1821.300000011921
qbIkSq7n,3bakuke4akpi45n0y93n6zfn3q3r1f,3dbqwde4yaby09ulxrtkppjmimt5ni,qbIkSq7n,2020-0188,2021-10-31,07:49:08,09:47:23,NA,incomplete,true,NA,true,NA,0,10,NA,NA,NA,right,NA,NA,NA,absent,NA,NA,n_l_016.jpg,white,n_s_089.jpg,white,within,NA,NaN,NA,NA,NA,NA,right,4165.199999988079,1,1,2080.5
qbIkSq7n,3bakuke4akpi45n0y93n6zfn3q3r1f,3dbqwde4yaby09ulxrtkppjmimt5ni,qbIkSq7n,2020-0188,2021-10-31,07:49:08,09:47:23,NA,incomplete,false,true,NA,NA,1,0,NA,black,m_l_009.jpg,NA,NA,NA,NA,NA,pleasant,unpleasant,NA,NA,NA,NA,NA,none,0,false,NA,NA,NA,NA,NA,NA,NA,NA
qbIkSq7n,3bakuke4akpi45n0y93n6zfn3q3r1f,3dbqwde4yaby09ulxrtkppjmimt5ni,qbIkSq7n,2020-0188,2021-10-31,07:49:08,09:47:23,NA,incomplete,false,true,NA,NA,1,1,NA,black,n_s_017.jpg,NA,NA,NA,NA,NA,pleasant,unpleasant,NA,NA,NA,NA,NA,right,2220.29999995232,true,NA,NA,NA,NA,NA,NA,NA,NA
qbIkSq7n,3bakuke4akpi45n0y93n6zfn3q3r1f,3dbqwde4yaby09ulxrtkppjmimt5ni,qbIkSq7n,2020-0188,2021-10-31,07:49:08,09:47:23,NA,incomplete,false,true,NA,NA,1,2,NA,black,m_s_108.jpg,NA,NA,NA,NA,NA,unpleasant,pleasant,NA,NA,NA,NA,NA,none,0,false,NA,NA,NA,NA,NA,NA,NA,NA
qbIkSq7n,3bakuke4akpi45n0y93n6zfn3q3r1f,3dbqwde4yaby09ulxrtkppjmimt5ni,qbIkSq7n,2020-0188,2021-10-31,07:49:08,09:47:23,NA,incomplete,false,true,NA,NA,1,3,NA,black,m_l_043.jpg,NA,NA,NA,NA,NA,pleasant,unpleasant,NA,NA,NA,NA,NA,right,3029.89999997616,true,NA,NA,NA,NA,NA,NA,NA,NA
qbIkSq7n,3bakuke4akpi45n0y93n6zfn3q3r1f,3dbqwde4yaby09ulxrtkppjmimt5ni,qbIkSq7n,2020-0188,2021-10-31,07:49:08,09:47:23,NA,incomplete,false,true,NA,NA,1,4,NA,black,m_s_015.jpg,NA,NA,NA,NA,NA,pleasant,unpleasant,NA,NA,NA,NA,NA,left,2584.30000001192,true,NA,NA,NA,NA,NA,NA,NA,NA
qbIkSq7n,3bakuke4akpi45n0y93n6zfn3q3r1f,3dbqwde4yaby09ulxrtkppjmimt5ni,qbIkSq7n,2020-0188,2021-10-31,07:49:08,09:47:23,NA,incomplete,false,true,NA,NA,1,5,NA,black,n_s_065.jpg,NA,NA,NA,NA,NA,pleasant,unpleasant,NA,NA,NA,NA,NA,left,2127,true,NA,NA,NA,NA,NA,NA,NA,NA
qbIkSq7n,3bakuke4akpi45n0y93n6zfn3q3r1f,3dbqwde4yaby09ulxrtkppjmimt5ni,qbIkSq7n,2020-0188,2021-10-31,07:49:08,09:47:23,NA,incomplete,false,true,NA,NA,1,6,NA,purple,n_s_084.jpg,NA,NA,NA,NA,NA,pleasant,unpleasant,NA,NA,NA,NA,NA,left,3010.19999998808,true,NA,NA,NA,NA,NA,NA,NA,NA
qbIkSq7n,3bakuke4akpi45n0y93n6zfn3q3r1f,3dbqwde4yaby09ulxrtkppjmimt5ni,qbIkSq7n,2020-0188,2021-10-31,07:49:08,09:47:23,NA,incomplete,false,true,NA,NA,1,7,NA,purple,n_l_083.jpg,NA,NA,NA,NA,NA,unpleasant,pleasant,NA,NA,NA,NA,NA,right,2993,true,NA,NA,NA,NA,NA,NA,NA,NA
qbIkSq7n,3bakuke4akpi45n0y93n6zfn3q3r1f,3dbqwde4yaby09ulxrtkppjmimt5ni,qbIkSq7n,2020-0188,2021-10-31,07:49:08,09:47:23,NA,incomplete,false,true,NA,NA,1,8,NA,purple,m_l_114.jpg,NA,NA,NA,NA,NA,pleasant,unpleasant,NA,NA,NA,NA,NA,left,3026.39999997616,true,NA,NA,NA,NA,NA,NA,NA,NA
qbIkSq7n,3bakuke4akpi45n0y93n6zfn3q3r1f,3dbqwde4yaby09ulxrtkppjmimt5ni,qbIkSq7n,2020-0188,2021-10-31,07:49:08,09:47:23,NA,incomplete,false,true,NA,NA,1,9,NA,purple,n_l_029.jpg,NA,NA,NA,NA,NA,unpleasant,pleasant,NA,NA,NA,NA,NA,right,2640.80000001192,true,NA,NA,NA,NA,NA,NA,NA,NA
qbIkSq7n,3bakuke4akpi45n0y93n6zfn3q3r1f,3dbqwde4yaby09ulxrtkppjmimt5ni,qbIkSq7n,2020-0188,2021-10-31,07:49:08,09:47:23,NA,incomplete,false,true,NA,NA,1,10,NA,purple,m_s_010.jpg,NA,NA,NA,NA,NA,pleasant,unpleasant,NA,NA,NA,NA,NA,left,2987.30000001192,true,NA,NA,NA,NA,NA,NA,NA,NA
qbIkSq7n,3bakuke4akpi45n0y93n6zfn3q3r1f,3dbqwde4yaby09ulxrtkppjmimt5ni,qbIkSq7n,2020-0188,2021-10-31,07:49:08,09:47:23,NA,incomplete,false,true,NA,NA,1,11,NA,purple,n_l_077.jpg,NA,NA,NA,NA,NA,unpleasant,pleasant,NA,NA,NA,NA,NA,right,3147.89999997616,true,NA,NA,NA,NA,NA,NA,NA,NA
qbIkSq7n,3bakuke4akpi45n0y93n6zfn3q3r1f,3dbqwde4yaby09ulxrtkppjmimt5ni,qbIkSq7n,2020-0188,2021-10-31,07:49:08,09:47:23,NA,incomplete,false,true,NA,NA,1,12,NA,white,n_l_051.jpg,NA,NA,NA,NA,NA,unpleasant,pleasant,NA,NA,NA,NA,NA,right,2284,true,NA,NA,NA,NA,NA,NA,NA,NA
qbIkSq7n,3bakuke4akpi45n0y93n6zfn3q3r1f,3dbqwde4yaby09ulxrtkppjmimt5ni,qbIkSq7n,2020-0188,2021-10-31,07:49:08,09:47:23,NA,incomplete,false,true,NA,NA,1,13,NA,white,n_s_077.jpg,NA,NA,NA,NA,NA,pleasant,unpleasant,NA,NA,NA,NA,NA,left,2760.69999998808,true,NA,NA,NA,NA,NA,NA,NA,NA
qbIkSq7n,3bakuke4akpi45n0y93n6zfn3q3r1f,3dbqwde4yaby09ulxrtkppjmimt5ni,qbIkSq7n,2020-0188,2021-10-31,07:49:08,09:47:23,NA,incomplete,false,true,NA,NA,1,14,NA,white,n_s_098.jpg,NA,NA,NA,NA,NA,pleasant,unpleasant,NA,NA,NA,NA,NA,right,2498.60000002384,true,NA,NA,NA,NA,NA,NA,NA,NA
qbIkSq7n,3bakuke4akpi45n0y93n6zfn3q3r1f,3dbqwde4yaby09ulxrtkppjmimt5ni,qbIkSq7n,2020-0188,2021-10-31,07:49:08,09:47:23,NA,incomplete,false,true,NA,NA,1,15,NA,white,m_s_083.jpg,NA,NA,NA,NA,NA,unpleasant,pleasant,NA,NA,NA,NA,NA,right,3122.30000001192,true,NA,NA,NA,NA,NA,NA,NA,NA
qbIkSq7n,3bakuke4akpi45n0y93n6zfn3q3r1f,3dbqwde4yaby09ulxrtkppjmimt5ni,qbIkSq7n,2020-0188,2021-10-31,07:49:08,09:47:23,NA,incomplete,false,true,NA,NA,1,16,NA,white,n_s_004.jpg,NA,NA,NA,NA,NA,unpleasant,pleasant,NA,NA,NA,NA,NA,left,2491.69999998808,true,NA,NA,NA,NA,NA,NA,NA,NA
qbIkSq7n,3bakuke4akpi45n0y93n6zfn3q3r1f,3dbqwde4yaby09ulxrtkppjmimt5ni,qbIkSq7n,2020-0188,2021-10-31,07:49:08,09:47:23,NA,incomplete,false,true,NA,NA,1,17,NA,white,m_s_028.jpg,NA,NA,NA,NA,NA,pleasant,unpleasant,NA,NA,NA,NA,NA,right,3334.89999997616,true,NA,NA,NA,NA,NA,NA,NA,NA
qbIkSq7n,3bakuke4akpi45n0y93n6zfn3q3r1f,3dbqwde4yaby09ulxrtkppjmimt5ni,qbIkSq7n,2020-0188,2021-10-31,07:49:08,09:47:23,NA,incomplete,false,true,NA,NA,1,18,NA,yellow,m_s_096.jpg,NA,NA,NA,NA,NA,pleasant,unpleasant,NA,NA,NA,NA,NA,left,2578.90000003576,true,NA,NA,NA,NA,NA,NA,NA,NA
qbIkSq7n,3bakuke4akpi45n0y93n6zfn3q3r1f,3dbqwde4yaby09ulxrtkppjmimt5ni,qbIkSq7n,2020-0188,2021-10-31,07:49:08,09:47:23,NA,incomplete,false,true,NA,NA,1,19,NA,yellow,n_l_108.jpg,NA,NA,NA,NA,NA,pleasant,unpleasant,NA,NA,NA,NA,NA,none,0,false,NA,NA,NA,NA,NA,NA,NA,NA
qbIkSq7n,3bakuke4akpi45n0y93n6zfn3q3r1f,3dbqwde4yaby09ulxrtkppjmimt5ni,qbIkSq7n,2020-0188,2021-10-31,07:49:08,09:47:23,NA,incomplete,false,true,NA,NA,1,20,NA,yellow,n_s_068.jpg,NA,NA,NA,NA,NA,unpleasant,pleasant,NA,NA,NA,NA,NA,right,2158,true,NA,NA,NA,NA,NA,NA,NA,NA
qbIkSq7n,3bakuke4akpi45n0y93n6zfn3q3r1f,3dbqwde4yaby09ulxrtkppjmimt5ni,qbIkSq7n,2020-0188,2021-10-31,07:49:08,09:47:23,NA,incomplete,false,true,NA,NA,1,21,NA,yellow,m_l_047.jpg,NA,NA,NA,NA,NA,pleasant,unpleasant,NA,NA,NA,NA,NA,right,1817.79999995232,true,NA,NA,NA,NA,NA,NA,NA,NA
qbIkSq7n,3bakuke4akpi45n0y93n6zfn3q3r1f,3dbqwde4yaby09ulxrtkppjmimt5ni,qbIkSq7n,2020-0188,2021-10-31,07:49:08,09:47:23,NA,incomplete,false,true,NA,NA,1,22,NA,yellow,n_s_088.jpg,NA,NA,NA,NA,NA,unpleasant,pleasant,NA,NA,NA,NA,NA,left,1703.40000003576,true,NA,NA,NA,NA,NA,NA,NA,NA
qbIkSq7n,3bakuke4akpi45n0y93n6zfn3q3r1f,3dbqwde4yaby09ulxrtkppjmimt5ni,qbIkSq7n,2020-0188,2021-10-31,07:49:08,09:47:23,NA,incomplete,false,true,NA,NA,1,23,NA,yellow,n_l_102.jpg,NA,NA,NA,NA,NA,unpleasant,pleasant,NA,NA,NA,NA,NA,right,2021.10000002384,true,NA,NA,NA,NA,NA,NA,NA,NA
qbIkSq7n,3bakuke4akpi45n0y93n6zfn3q3r1f,3dbqwde4yaby09ulxrtkppjmimt5ni,qbIkSq7n,2020-0188,2021-10-31,07:49:08,09:47:23,NA,incomplete,false,true,NA,NA,1,24,NA,orange,m_l_026.jpg,NA,NA,NA,NA,NA,unpleasant,pleasant,NA,NA,NA,NA,NA,right,1567.80000001192,true,NA,NA,NA,NA,NA,NA,NA,NA
qbIkSq7n,3bakuke4akpi45n0y93n6zfn3q3r1f,3dbqwde4yaby09ulxrtkppjmimt5ni,qbIkSq7n,2020-0188,2021-10-31,07:49:08,09:47:23,NA,incomplete,false,true,NA,NA,1,25,NA,orange,m_l_067.jpg,NA,NA,NA,NA,NA,pleasant,unpleasant,NA,NA,NA,NA,NA,left,2873.19999998808,true,NA,NA,NA,NA,NA,NA,NA,NA
qbIkSq7n,3bakuke4akpi45n0y93n6zfn3q3r1f,3dbqwde4yaby09ulxrtkppjmimt5ni,qbIkSq7n,2020-0188,2021-10-31,07:49:08,09:47:23,NA,incomplete,false,true,NA,NA,1,26,NA,orange,m_s_085.jpg,NA,NA,NA,NA,NA,unpleasant,pleasant,NA,NA,NA,NA,NA,left,2315.80000001192,true,NA,NA,NA,NA,NA,NA,NA,NA
qbIkSq7n,3bakuke4akpi45n0y93n6zfn3q3r1f,3dbqwde4yaby09ulxrtkppjmimt5ni,qbIkSq7n,2020-0188,2021-10-31,07:49:08,09:47:23,NA,incomplete,false,true,NA,NA,1,27,NA,orange,n_l_105.jpg,NA,NA,NA,NA,NA,pleasant,unpleasant,NA,NA,NA,NA,NA,left,2129.59999996424,true,NA,NA,NA,NA,NA,NA,NA,NA
qbIkSq7n,3bakuke4akpi45n0y93n6zfn3q3r1f,3dbqwde4yaby09ulxrtkppjmimt5ni,qbIkSq7n,2020-0188,2021-10-31,07:49:08,09:47:23,NA,incomplete,false,true,NA,NA,1,28,NA,orange,m_s_016.jpg,NA,NA,NA,NA,NA,unpleasant,pleasant,NA,NA,NA,NA,NA,right,2394.59999996424,true,NA,NA,NA,NA,NA,NA,NA,NA
qbIkSq7n,3bakuke4akpi45n0y93n6zfn3q3r1f,3dbqwde4yaby09ulxrtkppjmimt5ni,qbIkSq7n,2020-0188,2021-10-31,07:49:08,09:47:23,NA,incomplete,false,true,NA,NA,1,29,NA,orange,n_l_096.jpg,NA,NA,NA,NA,NA,pleasant,unpleasant,NA,NA,NA,NA,NA,left,1973.20000004768,true,NA,NA,NA,NA,NA,NA,NA,NA
qbIkSq7n,3bakuke4akpi45n0y93n6zfn3q3r1f,3dbqwde4yaby09ulxrtkppjmimt5ni,qbIkSq7n,2020-0188,2021-10-31,07:49:08,09:47:23,NA,incomplete,false,true,NA,NA,1,30,NA,gray,n_l_080.jpg,NA,NA,NA,NA,NA,pleasant,unpleasant,NA,NA,NA,NA,NA,left,2129.89999997616,true,NA,NA,NA,NA,NA,NA,NA,NA
qbIkSq7n,3bakuke4akpi45n0y93n6zfn3q3r1f,3dbqwde4yaby09ulxrtkppjmimt5ni,qbIkSq7n,2020-0188,2021-10-31,07:49:08,09:47:23,NA,incomplete,false,true,NA,NA,1,31,NA,gray,m_s_071.jpg,NA,NA,NA,NA,NA,pleasant,unpleasant,NA,NA,NA,NA,NA,left,2927.89999997616,true,NA,NA,NA,NA,NA,NA,NA,NA
qbIkSq7n,3bakuke4akpi45n0y93n6zfn3q3r1f,3dbqwde4yaby09ulxrtkppjmimt5ni,qbIkSq7n,2020-0188,2021-10-31,07:49:08,09:47:23,NA,incomplete,false,true,NA,NA,1,32,NA,gray,n_l_055.jpg,NA,NA,NA,NA,NA,pleasant,unpleasant,NA,NA,NA,NA,NA,left,2660.60000002384,true,NA,NA,NA,NA,NA,NA,NA,NA
qbIkSq7n,3bakuke4akpi45n0y93n6zfn3q3r1f,3dbqwde4yaby09ulxrtkppjmimt5ni,qbIkSq7n,2020-0188,2021-10-31,07:49:08,09:47:23,NA,incomplete,false,true,NA,NA,1,33,NA,gray,n_s_016.jpg,NA,NA,NA,NA,NA,unpleasant,pleasant,NA,NA,NA,NA,NA,none,0,false,NA,NA,NA,NA,NA,NA,NA,NA
qbIkSq7n,3bakuke4akpi45n0y93n6zfn3q3r1f,3dbqwde4yaby09ulxrtkppjmimt5ni,qbIkSq7n,2020-0188,2021-10-31,07:49:08,09:47:23,NA,incomplete,false,true,NA,NA,1,34,NA,gray,m_s_042.jpg,NA,NA,NA,NA,NA,pleasant,unpleasant,NA,NA,NA,NA,NA,left,2181.5,true,NA,NA,NA,NA,NA,NA,NA,NA
qbIkSq7n,3bakuke4akpi45n0y93n6zfn3q3r1f,3dbqwde4yaby09ulxrtkppjmimt5ni,qbIkSq7n,2020-0188,2021-10-31,07:49:08,09:47:23,NA,incomplete,false,true,NA,NA,1,35,NA,gray,n_l_059.jpg,NA,NA,NA,NA,NA,unpleasant,pleasant,NA,NA,NA,NA,NA,right,3479.80000001192,true,NA,NA,NA,NA,NA,NA,NA,NA
qbIkSq7n,3bakuke4akpi45n0y93n6zfn3q3r1f,3dbqwde4yaby09ulxrtkppjmimt5ni,qbIkSq7n,2020-0188,2021-10-31,07:49:08,09:47:23,NA,incomplete,false,NA,NA,true,1,0,NA,NA,NA,right,m_s_010.jpg,white,purple,NA,NA,NA,NA,NA,NA,NA,NA,NA,NaN,NA,2424.800000011921,left,0,NA,NA,NA,NA,NA
qbIkSq7n,3bakuke4akpi45n0y93n6zfn3q3r1f,3dbqwde4yaby09ulxrtkppjmimt5ni,qbIkSq7n,2020-0188,2021-10-31,07:49:08,09:47:23,NA,incomplete,false,NA,NA,true,1,1,NA,NA,NA,left,n_s_098.jpg,white,purple,NA,NA,NA,NA,NA,NA,NA,NA,NA,NaN,NA,4430.5,left,1,NA,NA,NA,NA,NA
qbIkSq7n,3bakuke4akpi45n0y93n6zfn3q3r1f,3dbqwde4yaby09ulxrtkppjmimt5ni,qbIkSq7n,2020-0188,2021-10-31,07:49:08,09:47:23,NA,incomplete,false,NA,NA,true,1,2,NA,NA,NA,left,m_s_015.jpg,black,purple,NA,NA,NA,NA,NA,NA,NA,NA,NA,NaN,NA,6267.399999976158,left,1,NA,NA,NA,NA,NA
qbIkSq7n,3bakuke4akpi45n0y93n6zfn3q3r1f,3dbqwde4yaby09ulxrtkppjmimt5ni,qbIkSq7n,2020-0188,2021-10-31,07:49:08,09:47:23,NA,incomplete,false,NA,NA,true,1,3,NA,NA,NA,right,m_l_067.jpg,gray,orange,NA,NA,NA,NA,NA,NA,NA,NA,NA,NaN,NA,2433.599999964237,left,0,NA,NA,NA,NA,NA
qbIkSq7n,3bakuke4akpi45n0y93n6zfn3q3r1f,3dbqwde4yaby09ulxrtkppjmimt5ni,qbIkSq7n,2020-0188,2021-10-31,07:49:08,09:47:23,NA,incomplete,false,NA,NA,true,1,4,NA,NA,NA,left,n_l_108.jpg,yellow,orange,NA,NA,NA,NA,NA,NA,NA,NA,NA,NaN,NA,4994.5,right,0,NA,NA,NA,NA,NA
qbIkSq7n,3bakuke4akpi45n0y93n6zfn3q3r1f,3dbqwde4yaby09ulxrtkppjmimt5ni,qbIkSq7n,2020-0188,2021-10-31,07:49:08,09:47:23,NA,incomplete,false,NA,NA,true,1,5,NA,NA,NA,left,n_s_065.jpg,black,purple,NA,NA,NA,NA,NA,NA,NA,NA,NA,NaN,NA,2793.099999964237,left,1,NA,NA,NA,NA,NA
qbIkSq7n,3bakuke4akpi45n0y93n6zfn3q3r1f,3dbqwde4yaby09ulxrtkppjmimt5ni,qbIkSq7n,2020-0188,2021-10-31,07:49:08,09:47:23,NA,incomplete,false,NA,NA,true,1,6,NA,NA,NA,right,m_l_114.jpg,black,purple,NA,NA,NA,NA,NA,NA,NA,NA,NA,NaN,NA,2697.5,left,0,NA,NA,NA,NA,NA
qbIkSq7n,3bakuke4akpi45n0y93n6zfn3q3r1f,3dbqwde4yaby09ulxrtkppjmimt5ni,qbIkSq7n,2020-0188,2021-10-31,07:49:08,09:47:23,NA,incomplete,false,NA,NA,true,1,7,NA,NA,NA,left,m_s_085.jpg,orange,yellow,NA,NA,NA,NA,NA,NA,NA,NA,NA,NaN,NA,2914.699999988079,left,1,NA,NA,NA,NA,NA
qbIkSq7n,3bakuke4akpi45n0y93n6zfn3q3r1f,3dbqwde4yaby09ulxrtkppjmimt5ni,qbIkSq7n,2020-0188,2021-10-31,07:49:08,09:47:23,NA,incomplete,false,NA,NA,true,1,8,NA,NA,NA,left,n_s_068.jpg,yellow,white,NA,NA,NA,NA,NA,NA,NA,NA,NA,NaN,NA,1951.5,right,0,NA,NA,NA,NA,NA
qbIkSq7n,3bakuke4akpi45n0y93n6zfn3q3r1f,3dbqwde4yaby09ulxrtkppjmimt5ni,qbIkSq7n,2020-0188,2021-10-31,07:49:08,09:47:23,NA,incomplete,false,NA,NA,true,1,9,NA,NA,NA,right,n_l_102.jpg,white,yellow,NA,NA,NA,NA,NA,NA,NA,NA,NA,NaN,NA,2295.600000023842,left,0,NA,NA,NA,NA,NA
qbIkSq7n,3bakuke4akpi45n0y93n6zfn3q3r1f,3dbqwde4yaby09ulxrtkppjmimt5ni,qbIkSq7n,2020-0188,2021-10-31,07:49:08,09:47:23,NA,incomplete,false,NA,NA,true,1,10,NA,NA,NA,right,n_l_077.jpg,black,purple,NA,NA,NA,NA,NA,NA,NA,NA,NA,NaN,NA,2229.599999964237,left,0,NA,NA,NA,NA,NA
qbIkSq7n,3bakuke4akpi45n0y93n6zfn3q3r1f,3dbqwde4yaby09ulxrtkppjmimt5ni,qbIkSq7n,2020-0188,2021-10-31,07:49:08,09:47:23,NA,incomplete,false,NA,NA,true,1,11,NA,NA,NA,left,n_s_004.jpg,white,purple,NA,NA,NA,NA,NA,NA,NA,NA,NA,NaN,NA,2167.5,left,1,NA,NA,NA,NA,NA
qbIkSq7n,3bakuke4akpi45n0y93n6zfn3q3r1f,3dbqwde4yaby09ulxrtkppjmimt5ni,qbIkSq7n,2020-0188,2021-10-31,07:49:08,09:47:23,NA,incomplete,false,NA,NA,true,1,12,NA,NA,NA,right,n_s_077.jpg,purple,white,NA,NA,NA,NA,NA,NA,NA,NA,NA,NaN,NA,2046,right,1,NA,NA,NA,NA,NA
qbIkSq7n,3bakuke4akpi45n0y93n6zfn3q3r1f,3dbqwde4yaby09ulxrtkppjmimt5ni,qbIkSq7n,2020-0188,2021-10-31,07:49:08,09:47:23,NA,incomplete,false,NA,NA,true,1,13,NA,NA,NA,left,m_s_071.jpg,gray,orange,NA,NA,NA,NA,NA,NA,NA,NA,NA,NaN,NA,2302.699999988079,left,1,NA,NA,NA,NA,NA
qbIkSq7n,3bakuke4akpi45n0y93n6zfn3q3r1f,3dbqwde4yaby09ulxrtkppjmimt5ni,qbIkSq7n,2020-0188,2021-10-31,07:49:08,09:47:23,NA,incomplete,false,NA,NA,true,1,14,NA,NA,NA,right,n_l_059.jpg,orange,gray,NA,NA,NA,NA,NA,NA,NA,NA,NA,NaN,NA,1796.6000000238419,right,1,NA,NA,NA,NA,NA
qbIkSq7n,3bakuke4akpi45n0y93n6zfn3q3r1f,3dbqwde4yaby09ulxrtkppjmimt5ni,qbIkSq7n,2020-0188,2021-10-31,07:49:08,09:47:23,NA,incomplete,false,NA,NA,true,1,15,NA,NA,NA,left,n_l_096.jpg,orange,gray,NA,NA,NA,NA,NA,NA,NA,NA,NA,NaN,NA,1765,right,0,NA,NA,NA,NA,NA
qbIkSq7n,3bakuke4akpi45n0y93n6zfn3q3r1f,3dbqwde4yaby09ulxrtkppjmimt5ni,qbIkSq7n,2020-0188,2021-10-31,07:49:08,09:47:23,NA,incomplete,false,NA,NA,true,1,16,NA,NA,NA,right,n_l_055.jpg,orange,gray,NA,NA,NA,NA,NA,NA,NA,NA,NA,NaN,NA,2038.199999988079,right,1,NA,NA,NA,NA,NA
qbIkSq7n,3bakuke4akpi45n0y93n6zfn3q3r1f,3dbqwde4yaby09ulxrtkppjmimt5ni,qbIkSq7n,2020-0188,2021-10-31,07:49:08,09:47:23,NA,incomplete,false,NA,NA,true,1,17,NA,NA,NA,left,n_s_017.jpg,black,purple,NA,NA,NA,NA,NA,NA,NA,NA,NA,NaN,NA,2314.400000035763,left,1,NA,NA,NA,NA,NA
qbIkSq7n,3bakuke4akpi45n0y93n6zfn3q3r1f,3dbqwde4yaby09ulxrtkppjmimt5ni,qbIkSq7n,2020-0188,2021-10-31,07:49:08,09:47:23,NA,incomplete,false,NA,NA,true,1,18,NA,NA,NA,right,n_l_083.jpg,black,purple,NA,NA,NA,NA,NA,NA,NA,NA,NA,NaN,NA,2512.599999964237,left,0,NA,NA,NA,NA,NA
qbIkSq7n,3bakuke4akpi45n0y93n6zfn3q3r1f,3dbqwde4yaby09ulxrtkppjmimt5ni,qbIkSq7n,2020-0188,2021-10-31,07:49:08,09:47:23,NA,incomplete,false,NA,NA,true,1,19,NA,NA,NA,right,m_s_028.jpg,yellow,white,NA,NA,NA,NA,NA,NA,NA,NA,NA,NaN,NA,2048.600000023842,right,1,NA,NA,NA,NA,NA
qbIkSq7n,3bakuke4akpi45n0y93n6zfn3q3r1f,3dbqwde4yaby09ulxrtkppjmimt5ni,qbIkSq7n,2020-0188,2021-10-31,07:49:08,09:47:23,NA,incomplete,false,NA,NA,true,1,20,NA,NA,NA,left,m_s_016.jpg,orange,gray,NA,NA,NA,NA,NA,NA,NA,NA,NA,NaN,NA,1880.9000000357628,right,0,NA,NA,NA,NA,NA
qbIkSq7n,3bakuke4akpi45n0y93n6zfn3q3r1f,3dbqwde4yaby09ulxrtkppjmimt5ni,qbIkSq7n,2020-0188,2021-10-31,07:49:08,09:47:23,NA,incomplete,false,NA,NA,true,1,21,NA,NA,NA,left,n_s_088.jpg,yellow,orange,NA,NA,NA,NA,NA,NA,NA,NA,NA,NaN,NA,8781.699999988079,left,1,NA,NA,NA,NA,NA
qbIkSq7n,3bakuke4akpi45n0y93n6zfn3q3r1f,3dbqwde4yaby09ulxrtkppjmimt5ni,qbIkSq7n,2020-0188,2021-10-31,07:49:08,09:47:23,NA,incomplete,false,NA,true,NA,1,0,NA,NA,NA,right,NA,NA,NA,absent,NA,NA,m_s_085.jpg,orange,n_s_088.jpg,yellow,between,NA,NaN,NA,NA,NA,NA,right,5777.399999976158,1,1,8796.100000023842
qbIkSq7n,3bakuke4akpi45n0y93n6zfn3q3r1f,3dbqwde4yaby09ulxrtkppjmimt5ni,qbIkSq7n,2020-0188,2021-10-31,07:49:08,09:47:23,NA,incomplete,false,NA,true,NA,1,1,NA,NA,NA,left,NA,NA,NA,absent,NA,NA,n_l_108.jpg,yellow,n_l_102.jpg,yellow,within,NA,NaN,NA,NA,NA,NA,left,12606.900000035763,1,3,1698.8999999761581
qbIkSq7n,3bakuke4akpi45n0y93n6zfn3q3r1f,3dbqwde4yaby09ulxrtkppjmimt5ni,qbIkSq7n,2020-0188,2021-10-31,07:49:08,09:47:23,NA,incomplete,false,NA,true,NA,1,2,NA,NA,NA,left,NA,NA,NA,absent,NA,NA,n_l_083.jpg,purple,n_l_077.jpg,purple,within,NA,NaN,NA,NA,NA,NA,right,16095.600000023842,0,2,2549.300000011921
qbIkSq7n,3bakuke4akpi45n0y93n6zfn3q3r1f,3dbqwde4yaby09ulxrtkppjmimt5ni,qbIkSq7n,2020-0188,2021-10-31,07:49:08,09:47:23,NA,incomplete,false,NA,true,NA,1,3,NA,NA,NA,left,NA,NA,NA,absent,NA,NA,n_s_004.jpg,white,n_s_068.jpg,yellow,between,NA,NaN,NA,NA,NA,NA,right,10428.300000011921,0,1,3864.899999976158
qbIkSq7n,3bakuke4akpi45n0y93n6zfn3q3r1f,3dbqwde4yaby09ulxrtkppjmimt5ni,qbIkSq7n,2020-0188,2021-10-31,07:49:08,09:47:23,NA,incomplete,false,NA,true,NA,1,4,NA,NA,NA,right,NA,NA,NA,absent,NA,NA,n_s_098.jpg,white,m_s_010.jpg,purple,between,NA,NaN,NA,NA,NA,NA,right,16661.100000023842,1,2,7178.900000035763
qbIkSq7n,3bakuke4akpi45n0y93n6zfn3q3r1f,3dbqwde4yaby09ulxrtkppjmimt5ni,qbIkSq7n,2020-0188,2021-10-31,07:49:08,09:47:23,NA,incomplete,false,NA,true,NA,1,5,NA,NA,NA,right,NA,NA,NA,absent,NA,NA,n_l_059.jpg,gray,m_s_071.jpg,gray,within,NA,NaN,NA,NA,NA,NA,right,9091.800000011921,1,1,1667.699999988079
qbIkSq7n,3bakuke4akpi45n0y93n6zfn3q3r1f,3dbqwde4yaby09ulxrtkppjmimt5ni,qbIkSq7n,2020-0188,2021-10-31,07:49:08,09:47:23,NA,incomplete,false,NA,true,NA,1,6,NA,NA,NA,left,NA,NA,NA,absent,NA,NA,m_s_015.jpg,black,m_l_114.jpg,purple,between,NA,NaN,NA,NA,NA,NA,right,14066.599999964237,0,2,1865.6000000238419
qbIkSq7n,3bakuke4akpi45n0y93n6zfn3q3r1f,3dbqwde4yaby09ulxrtkppjmimt5ni,qbIkSq7n,2020-0188,2021-10-31,07:49:08,09:47:23,NA,incomplete,false,NA,true,NA,1,7,NA,NA,NA,right,NA,NA,NA,absent,NA,NA,n_l_055.jpg,gray,m_s_016.jpg,orange,between,NA,NaN,NA,NA,NA,NA,right,18161.099999964237,1,1,2428.899999976158
qbIkSq7n,3bakuke4akpi45n0y93n6zfn3q3r1f,3dbqwde4yaby09ulxrtkppjmimt5ni,qbIkSq7n,2020-0188,2021-10-31,07:49:08,09:47:23,NA,incomplete,false,NA,true,NA,1,8,NA,NA,NA,left,NA,NA,NA,absent,NA,NA,n_s_017.jpg,black,n_s_065.jpg,black,within,NA,NaN,NA,NA,NA,NA,left,9477.100000023842,1,1,1715.6000000238419
qbIkSq7n,3bakuke4akpi45n0y93n6zfn3q3r1f,3dbqwde4yaby09ulxrtkppjmimt5ni,qbIkSq7n,2020-0188,2021-10-31,07:49:08,09:47:23,NA,incomplete,false,NA,true,NA,1,9,NA,NA,NA,left,NA,NA,NA,absent,NA,NA,n_s_077.jpg,white,m_s_028.jpg,white,within,NA,NaN,NA,NA,NA,NA,left,6096.100000023842,1,2,1832.8999999761581
qbIkSq7n,3bakuke4akpi45n0y93n6zfn3q3r1f,3dbqwde4yaby09ulxrtkppjmimt5ni,qbIkSq7n,2020-0188,2021-10-31,07:49:08,09:47:23,NA,incomplete,false,NA,true,NA,1,10,NA,NA,NA,right,NA,NA,NA,absent,NA,NA,n_l_096.jpg,orange,m_l_067.jpg,orange,within,NA,NaN,NA,NA,NA,NA,left,11110.699999988079,0,1,2178.300000011921
qbIkSq7n,3bakuke4akpi45n0y93n6zfn3q3r1f,3dbqwde4yaby09ulxrtkppjmimt5ni,qbIkSq7n,2020-0188,2021-10-31,07:49:08,09:47:23,NA,incomplete,false,true,NA,NA,2,0,NA,yellow,n_s_022.jpg,NA,NA,NA,NA,NA,pleasant,unpleasant,NA,NA,NA,NA,NA,left,2936.59999996424,true,NA,NA,NA,NA,NA,NA,NA,NA
qbIkSq7n,3bakuke4akpi45n0y93n6zfn3q3r1f,3dbqwde4yaby09ulxrtkppjmimt5ni,qbIkSq7n,2020-0188,2021-10-31,07:49:08,09:47:23,NA,incomplete,false,true,NA,NA,2,1,NA,yellow,m_l_040.jpg,NA,NA,NA,NA,NA,unpleasant,pleasant,NA,NA,NA,NA,NA,right,2425.80000001192,true,NA,NA,NA,NA,NA,NA,NA,NA
qbIkSq7n,3bakuke4akpi45n0y93n6zfn3q3r1f,3dbqwde4yaby09ulxrtkppjmimt5ni,qbIkSq7n,2020-0188,2021-10-31,07:49:08,09:47:23,NA,incomplete,false,true,NA,NA,2,2,NA,yellow,m_s_045.jpg,NA,NA,NA,NA,NA,pleasant,unpleasant,NA,NA,NA,NA,NA,left,2524.89999997616,true,NA,NA,NA,NA,NA,NA,NA,NA
qbIkSq7n,3bakuke4akpi45n0y93n6zfn3q3r1f,3dbqwde4yaby09ulxrtkppjmimt5ni,qbIkSq7n,2020-0188,2021-10-31,07:49:08,09:47:23,NA,incomplete,false,true,NA,NA,2,3,NA,yellow,m_s_106.jpg,NA,NA,NA,NA,NA,pleasant,unpleasant,NA,NA,NA,NA,NA,left,1898.40000003576,true,NA,NA,NA,NA,NA,NA,NA,NA
qbIkSq7n,3bakuke4akpi45n0y93n6zfn3q3r1f,3dbqwde4yaby09ulxrtkppjmimt5ni,qbIkSq7n,2020-0188,2021-10-31,07:49:08,09:47:23,NA,incomplete,false,true,NA,NA,2,4,NA,yellow,m_l_020.jpg,NA,NA,NA,NA,NA,unpleasant,pleasant,NA,NA,NA,NA,NA,right,1319,true,NA,NA,NA,NA,NA,NA,NA,NA
qbIkSq7n,3bakuke4akpi45n0y93n6zfn3q3r1f,3dbqwde4yaby09ulxrtkppjmimt5ni,qbIkSq7n,2020-0188,2021-10-31,07:49:08,09:47:23,NA,incomplete,false,true,NA,NA,2,5,NA,yellow,m_s_002.jpg,NA,NA,NA,NA,NA,pleasant,unpleasant,NA,NA,NA,NA,NA,left,1328.20000004768,true,NA,NA,NA,NA,NA,NA,NA,NA
qbIkSq7n,3bakuke4akpi45n0y93n6zfn3q3r1f,3dbqwde4yaby09ulxrtkppjmimt5ni,qbIkSq7n,2020-0188,2021-10-31,07:49:08,09:47:23,NA,incomplete,false,true,NA,NA,2,6,NA,blue,n_l_112.jpg,NA,NA,NA,NA,NA,pleasant,unpleasant,NA,NA,NA,NA,NA,right,880.5,true,NA,NA,NA,NA,NA,NA,NA,NA
qbIkSq7n,3bakuke4akpi45n0y93n6zfn3q3r1f,3dbqwde4yaby09ulxrtkppjmimt5ni,qbIkSq7n,2020-0188,2021-10-31,07:49:08,09:47:23,NA,incomplete,false,true,NA,NA,2,7,NA,blue,m_s_067.jpg,NA,NA,NA,NA,NA,unpleasant,pleasant,NA,NA,NA,NA,NA,right,1674.20000004768,true,NA,NA,NA,NA,NA,NA,NA,NA
qbIkSq7n,3bakuke4akpi45n0y93n6zfn3q3r1f,3dbqwde4yaby09ulxrtkppjmimt5ni,qbIkSq7n,2020-0188,2021-10-31,07:49:08,09:47:23,NA,incomplete,false,true,NA,NA,2,8,NA,blue,m_l_110.jpg,NA,NA,NA,NA,NA,unpleasant,pleasant,NA,NA,NA,NA,NA,right,1550.80000001192,true,NA,NA,NA,NA,NA,NA,NA,NA
qbIkSq7n,3bakuke4akpi45n0y93n6zfn3q3r1f,3dbqwde4yaby09ulxrtkppjmimt5ni,qbIkSq7n,2020-0188,2021-10-31,07:49:08,09:47:23,NA,incomplete,false,true,NA,NA,2,9,NA,blue,n_l_071.jpg,NA,NA,NA,NA,NA,unpleasant,pleasant,NA,NA,NA,NA,NA,right,1199.5,true,NA,NA,NA,NA,NA,NA,NA,NA
qbIkSq7n,3bakuke4akpi45n0y93n6zfn3q3r1f,3dbqwde4yaby09ulxrtkppjmimt5ni,qbIkSq7n,2020-0188,2021-10-31,07:49:08,09:47:23,NA,incomplete,false,true,NA,NA,2,10,NA,blue,n_s_019.jpg,NA,NA,NA,NA,NA,pleasant,unpleasant,NA,NA,NA,NA,NA,left,1604.59999996424,true,NA,NA,NA,NA,NA,NA,NA,NA
qbIkSq7n,3bakuke4akpi45n0y93n6zfn3q3r1f,3dbqwde4yaby09ulxrtkppjmimt5ni,qbIkSq7n,2020-0188,2021-10-31,07:49:08,09:47:23,NA,incomplete,false,true,NA,NA,2,11,NA,blue,n_s_027.jpg,NA,NA,NA,NA,NA,pleasant,unpleasant,NA,NA,NA,NA,NA,right,1604.19999998808,true,NA,NA,NA,NA,NA,NA,NA,NA
qbIkSq7n,3bakuke4akpi45n0y93n6zfn3q3r1f,3dbqwde4yaby09ulxrtkppjmimt5ni,qbIkSq7n,2020-0188,2021-10-31,07:49:08,09:47:23,NA,incomplete,false,true,NA,NA,2,12,NA,orange,m_s_088.jpg,NA,NA,NA,NA,NA,pleasant,unpleasant,NA,NA,NA,NA,NA,right,999,true,NA,NA,NA,NA,NA,NA,NA,NA
qbIkSq7n,3bakuke4akpi45n0y93n6zfn3q3r1f,3dbqwde4yaby09ulxrtkppjmimt5ni,qbIkSq7n,2020-0188,2021-10-31,07:49:08,09:47:23,NA,incomplete,false,true,NA,NA,2,13,NA,orange,m_s_013.jpg,NA,NA,NA,NA,NA,unpleasant,pleasant,NA,NA,NA,NA,NA,right,1701.09999996424,true,NA,NA,NA,NA,NA,NA,NA,NA
qbIkSq7n,3bakuke4akpi45n0y93n6zfn3q3r1f,3dbqwde4yaby09ulxrtkppjmimt5ni,qbIkSq7n,2020-0188,2021-10-31,07:49:08,09:47:23,NA,incomplete,false,true,NA,NA,2,14,NA,orange,m_l_033.jpg,NA,NA,NA,NA,NA,unpleasant,pleasant,NA,NA,NA,NA,NA,right,1383.30000001192,true,NA,NA,NA,NA,NA,NA,NA,NA
qbIkSq7n,3bakuke4akpi45n0y93n6zfn3q3r1f,3dbqwde4yaby09ulxrtkppjmimt5ni,qbIkSq7n,2020-0188,2021-10-31,07:49:08,09:47:23,NA,incomplete,false,true,NA,NA,2,15,NA,orange,n_s_107.jpg,NA,NA,NA,NA,NA,pleasant,unpleasant,NA,NA,NA,NA,NA,left,2168.30000001192,true,NA,NA,NA,NA,NA,NA,NA,NA
qbIkSq7n,3bakuke4akpi45n0y93n6zfn3q3r1f,3dbqwde4yaby09ulxrtkppjmimt5ni,qbIkSq7n,2020-0188,2021-10-31,07:49:08,09:47:23,NA,incomplete,false,true,NA,NA,2,16,NA,orange,m_s_030.jpg,NA,NA,NA,NA,NA,pleasant,unpleasant,NA,NA,NA,NA,NA,left,1856.29999995232,true,NA,NA,NA,NA,NA,NA,NA,NA
qbIkSq7n,3bakuke4akpi45n0y93n6zfn3q3r1f,3dbqwde4yaby09ulxrtkppjmimt5ni,qbIkSq7n,2020-0188,2021-10-31,07:49:08,09:47:23,NA,incomplete,false,true,NA,NA,2,17,NA,orange,n_s_111.jpg,NA,NA,NA,NA,NA,pleasant,unpleasant,NA,NA,NA,NA,NA,left,1693.5,true,NA,NA,NA,NA,NA,NA,NA,NA
qbIkSq7n,3bakuke4akpi45n0y93n6zfn3q3r1f,3dbqwde4yaby09ulxrtkppjmimt5ni,qbIkSq7n,2020-0188,2021-10-31,07:49:08,09:47:23,NA,incomplete,false,true,NA,NA,2,18,NA,purple,n_l_012.jpg,NA,NA,NA,NA,NA,pleasant,unpleasant,NA,NA,NA,NA,NA,left,1600,true,NA,NA,NA,NA,NA,NA,NA,NA
qbIkSq7n,3bakuke4akpi45n0y93n6zfn3q3r1f,3dbqwde4yaby09ulxrtkppjmimt5ni,qbIkSq7n,2020-0188,2021-10-31,07:49:08,09:47:23,NA,incomplete,false,true,NA,NA,2,19,NA,purple,m_l_003.jpg,NA,NA,NA,NA,NA,unpleasant,pleasant,NA,NA,NA,NA,NA,right,1663.60000002384,true,NA,NA,NA,NA,NA,NA,NA,NA
qbIkSq7n,3bakuke4akpi45n0y93n6zfn3q3r1f,3dbqwde4yaby09ulxrtkppjmimt5ni,qbIkSq7n,2020-0188,2021-10-31,07:49:08,09:47:23,NA,incomplete,false,true,NA,NA,2,20,NA,purple,n_s_009.jpg,NA,NA,NA,NA,NA,pleasant,unpleasant,NA,NA,NA,NA,NA,left,1630.90000003576,true,NA,NA,NA,NA,NA,NA,NA,NA
qbIkSq7n,3bakuke4akpi45n0y93n6zfn3q3r1f,3dbqwde4yaby09ulxrtkppjmimt5ni,qbIkSq7n,2020-0188,2021-10-31,07:49:08,09:47:23,NA,incomplete,false,true,NA,NA,2,21,NA,purple,m_s_035.jpg,NA,NA,NA,NA,NA,pleasant,unpleasant,NA,NA,NA,NA,NA,left,1286.60000002384,true,NA,NA,NA,NA,NA,NA,NA,NA
qbIkSq7n,3bakuke4akpi45n0y93n6zfn3q3r1f,3dbqwde4yaby09ulxrtkppjmimt5ni,qbIkSq7n,2020-0188,2021-10-31,07:49:08,09:47:23,NA,incomplete,false,true,NA,NA,2,22,NA,purple,m_l_059.jpg,NA,NA,NA,NA,NA,pleasant,unpleasant,NA,NA,NA,NA,NA,right,2018.39999997616,true,NA,NA,NA,NA,NA,NA,NA,NA
qbIkSq7n,3bakuke4akpi45n0y93n6zfn3q3r1f,3dbqwde4yaby09ulxrtkppjmimt5ni,qbIkSq7n,2020-0188,2021-10-31,07:49:08,09:47:23,NA,incomplete,false,true,NA,NA,2,23,NA,purple,m_l_074.jpg,NA,NA,NA,NA,NA,pleasant,unpleasant,NA,NA,NA,NA,NA,left,2084.69999998808,true,NA,NA,NA,NA,NA,NA,NA,NA
qbIkSq7n,3bakuke4akpi45n0y93n6zfn3q3r1f,3dbqwde4yaby09ulxrtkppjmimt5ni,qbIkSq7n,2020-0188,2021-10-31,07:49:08,09:47:23,NA,incomplete,false,true,NA,NA,2,24,NA,red,m_l_099.jpg,NA,NA,NA,NA,NA,pleasant,unpleasant,NA,NA,NA,NA,NA,left,1813.69999998808,true,NA,NA,NA,NA,NA,NA,NA,NA
qbIkSq7n,3bakuke4akpi45n0y93n6zfn3q3r1f,3dbqwde4yaby09ulxrtkppjmimt5ni,qbIkSq7n,2020-0188,2021-10-31,07:49:08,09:47:23,NA,incomplete,false,true,NA,NA,2,25,NA,red,n_l_107.jpg,NA,NA,NA,NA,NA,pleasant,unpleasant,NA,NA,NA,NA,NA,right,1965.89999997616,true,NA,NA,NA,NA,NA,NA,NA,NA
qbIkSq7n,3bakuke4akpi45n0y93n6zfn3q3r1f,3dbqwde4yaby09ulxrtkppjmimt5ni,qbIkSq7n,2020-0188,2021-10-31,07:49:08,09:47:23,NA,incomplete,false,true,NA,NA,2,26,NA,red,m_s_054.jpg,NA,NA,NA,NA,NA,pleasant,unpleasant,NA,NA,NA,NA,NA,right,1630.80000001192,true,NA,NA,NA,NA,NA,NA,NA,NA
qbIkSq7n,3bakuke4akpi45n0y93n6zfn3q3r1f,3dbqwde4yaby09ulxrtkppjmimt5ni,qbIkSq7n,2020-0188,2021-10-31,07:49:08,09:47:23,NA,incomplete,false,true,NA,NA,2,27,NA,red,m_l_049.jpg,NA,NA,NA,NA,NA,unpleasant,pleasant,NA,NA,NA,NA,NA,left,2056.60000002384,true,NA,NA,NA,NA,NA,NA,NA,NA
qbIkSq7n,3bakuke4akpi45n0y93n6zfn3q3r1f,3dbqwde4yaby09ulxrtkppjmimt5ni,qbIkSq7n,2020-0188,2021-10-31,07:49:08,09:47:23,NA,incomplete,false,true,NA,NA,2,28,NA,red,n_l_002.jpg,NA,NA,NA,NA,NA,pleasant,unpleasant,NA,NA,NA,NA,NA,left,1575.80000001192,true,NA,NA,NA,NA,NA,NA,NA,NA
qbIkSq7n,3bakuke4akpi45n0y93n6zfn3q3r1f,3dbqwde4yaby09ulxrtkppjmimt5ni,qbIkSq7n,2020-0188,2021-10-31,07:49:08,09:47:23,NA,incomplete,false,true,NA,NA,2,29,NA,red,m_l_093.jpg,NA,NA,NA,NA,NA,unpleasant,pleasant,NA,NA,NA,NA,NA,right,1899,true,NA,NA,NA,NA,NA,NA,NA,NA
qbIkSq7n,3bakuke4akpi45n0y93n6zfn3q3r1f,3dbqwde4yaby09ulxrtkppjmimt5ni,qbIkSq7n,2020-0188,2021-10-31,07:49:08,09:47:23,NA,incomplete,false,true,NA,NA,2,30,NA,gray,n_l_001.jpg,NA,NA,NA,NA,NA,unpleasant,pleasant,NA,NA,NA,NA,NA,right,1777.69999998808,true,NA,NA,NA,NA,NA,NA,NA,NA
qbIkSq7n,3bakuke4akpi45n0y93n6zfn3q3r1f,3dbqwde4yaby09ulxrtkppjmimt5ni,qbIkSq7n,2020-0188,2021-10-31,07:49:08,09:47:23,NA,incomplete,false,true,NA,NA,2,31,NA,gray,m_l_056.jpg,NA,NA,NA,NA,NA,pleasant,unpleasant,NA,NA,NA,NA,NA,left,1587.79999995232,true,NA,NA,NA,NA,NA,NA,NA,NA
qbIkSq7n,3bakuke4akpi45n0y93n6zfn3q3r1f,3dbqwde4yaby09ulxrtkppjmimt5ni,qbIkSq7n,2020-0188,2021-10-31,07:49:08,09:47:23,NA,incomplete,false,true,NA,NA,2,32,NA,gray,n_s_094.jpg,NA,NA,NA,NA,NA,pleasant,unpleasant,NA,NA,NA,NA,NA,right,2365.39999997616,true,NA,NA,NA,NA,NA,NA,NA,NA
qbIkSq7n,3bakuke4akpi45n0y93n6zfn3q3r1f,3dbqwde4yaby09ulxrtkppjmimt5ni,qbIkSq7n,2020-0188,2021-10-31,07:49:08,09:47:23,NA,incomplete,false,true,NA,NA,2,33,NA,gray,m_s_078.jpg,NA,NA,NA,NA,NA,pleasant,unpleasant,NA,NA,NA,NA,NA,left,1255.69999998808,true,NA,NA,NA,NA,NA,NA,NA,NA
qbIkSq7n,3bakuke4akpi45n0y93n6zfn3q3r1f,3dbqwde4yaby09ulxrtkppjmimt5ni,qbIkSq7n,2020-0188,2021-10-31,07:49:08,09:47:23,NA,incomplete,false,true,NA,NA,2,34,NA,gray,n_l_013.jpg,NA,NA,NA,NA,NA,unpleasant,pleasant,NA,NA,NA,NA,NA,right,1828.60000002384,true,NA,NA,NA,NA,NA,NA,NA,NA
qbIkSq7n,3bakuke4akpi45n0y93n6zfn3q3r1f,3dbqwde4yaby09ulxrtkppjmimt5ni,qbIkSq7n,2020-0188,2021-10-31,07:49:08,09:47:23,NA,incomplete,false,true,NA,NA,2,35,NA,gray,n_s_108.jpg,NA,NA,NA,NA,NA,pleasant,unpleasant,NA,NA,NA,NA,NA,left,2311.60000002384,true,NA,NA,NA,NA,NA,NA,NA,NA
qbIkSq7n,3bakuke4akpi45n0y93n6zfn3q3r1f,3dbqwde4yaby09ulxrtkppjmimt5ni,qbIkSq7n,2020-0188,2021-10-31,07:49:08,09:47:23,NA,incomplete,false,NA,NA,true,2,0,NA,NA,NA,left,m_l_020.jpg,yellow,blue,NA,NA,NA,NA,NA,NA,NA,NA,NA,NaN,NA,3068.399999976158,right,0,NA,NA,NA,NA,NA
qbIkSq7n,3bakuke4akpi45n0y93n6zfn3q3r1f,3dbqwde4yaby09ulxrtkppjmimt5ni,qbIkSq7n,2020-0188,2021-10-31,07:49:08,09:47:23,NA,incomplete,false,NA,NA,true,2,1,NA,NA,NA,right,m_s_067.jpg,yellow,blue,NA,NA,NA,NA,NA,NA,NA,NA,NA,NaN,NA,2513.399999976158,right,1,NA,NA,NA,NA,NA
qbIkSq7n,3bakuke4akpi45n0y93n6zfn3q3r1f,3dbqwde4yaby09ulxrtkppjmimt5ni,qbIkSq7n,2020-0188,2021-10-31,07:49:08,09:47:23,NA,incomplete,false,NA,NA,true,2,2,NA,NA,NA,right,n_s_027.jpg,yellow,blue,NA,NA,NA,NA,NA,NA,NA,NA,NA,NaN,NA,2731.600000023842,left,0,NA,NA,NA,NA,NA
qbIkSq7n,3bakuke4akpi45n0y93n6zfn3q3r1f,3dbqwde4yaby09ulxrtkppjmimt5ni,qbIkSq7n,2020-0188,2021-10-31,07:49:08,09:47:23,NA,incomplete,false,NA,NA,true,2,3,NA,NA,NA,right,n_s_111.jpg,blue,orange,NA,NA,NA,NA,NA,NA,NA,NA,NA,NaN,NA,3518,right,1,NA,NA,NA,NA,NA
qbIkSq7n,3bakuke4akpi45n0y93n6zfn3q3r1f,3dbqwde4yaby09ulxrtkppjmimt5ni,qbIkSq7n,2020-0188,2021-10-31,07:49:08,09:47:23,NA,incomplete,false,NA,NA,true,2,4,NA,NA,NA,left,m_s_030.jpg,orange,blue,NA,NA,NA,NA,NA,NA,NA,NA,NA,NaN,NA,2463.800000011921,right,0,NA,NA,NA,NA,NA
qbIkSq7n,3bakuke4akpi45n0y93n6zfn3q3r1f,3dbqwde4yaby09ulxrtkppjmimt5ni,qbIkSq7n,2020-0188,2021-10-31,07:49:08,09:47:23,NA,incomplete,false,NA,NA,true,2,5,NA,NA,NA,right,m_s_013.jpg,purple,orange,NA,NA,NA,NA,NA,NA,NA,NA,NA,NaN,NA,2480.100000023842,left,0,NA,NA,NA,NA,NA
qbIkSq7n,3bakuke4akpi45n0y93n6zfn3q3r1f,3dbqwde4yaby09ulxrtkppjmimt5ni,qbIkSq7n,2020-0188,2021-10-31,07:49:08,09:47:23,NA,incomplete,false,NA,NA,true,2,6,NA,NA,NA,left,n_l_002.jpg,red,gray,NA,NA,NA,NA,NA,NA,NA,NA,NA,NaN,NA,3386,left,1,NA,NA,NA,NA,NA
qbIkSq7n,3bakuke4akpi45n0y93n6zfn3q3r1f,3dbqwde4yaby09ulxrtkppjmimt5ni,qbIkSq7n,2020-0188,2021-10-31,07:49:08,09:47:23,NA,incomplete,false,NA,NA,true,2,7,NA,NA,NA,left,m_l_033.jpg,orange,blue,NA,NA,NA,NA,NA,NA,NA,NA,NA,NaN,NA,4096.599999964237,left,1,NA,NA,NA,NA,NA
qbIkSq7n,3bakuke4akpi45n0y93n6zfn3q3r1f,3dbqwde4yaby09ulxrtkppjmimt5ni,qbIkSq7n,2020-0188,2021-10-31,07:49:08,09:47:23,NA,incomplete,false,NA,NA,true,2,8,NA,NA,NA,right,m_l_093.jpg,gray,red,NA,NA,NA,NA,NA,NA,NA,NA,NA,NaN,NA,2835.099999964237,left,0,NA,NA,NA,NA,NA
qbIkSq7n,3bakuke4akpi45n0y93n6zfn3q3r1f,3dbqwde4yaby09ulxrtkppjmimt5ni,qbIkSq7n,2020-0188,2021-10-31,07:49:08,09:47:23,NA,incomplete,false,NA,NA,true,2,9,NA,NA,NA,right,n_s_108.jpg,red,gray,NA,NA,NA,NA,NA,NA,NA,NA,NA,NaN,NA,5215.900000035763,right,1,NA,NA,NA,NA,NA
qbIkSq7n,3bakuke4akpi45n0y93n6zfn3q3r1f,3dbqwde4yaby09ulxrtkppjmimt5ni,qbIkSq7n,2020-0188,2021-10-31,07:49:08,09:47:23,NA,incomplete,false,NA,NA,true,2,10,NA,NA,NA,left,n_s_094.jpg,gray,red,NA,NA,NA,NA,NA,NA,NA,NA,NA,NaN,NA,4899.699999988079,left,1,NA,NA,NA,NA,NA
qbIkSq7n,3bakuke4akpi45n0y93n6zfn3q3r1f,3dbqwde4yaby09ulxrtkppjmimt5ni,qbIkSq7n,2020-0188,2021-10-31,07:49:08,09:47:23,NA,incomplete,false,NA,NA,true,2,11,NA,NA,NA,left,m_l_074.jpg,purple,red,NA,NA,NA,NA,NA,NA,NA,NA,NA,NaN,NA,2230.899999976158,right,0,NA,NA,NA,NA,NA
qbIkSq7n,3bakuke4akpi45n0y93n6zfn3q3r1f,3dbqwde4yaby09ulxrtkppjmimt5ni,qbIkSq7n,2020-0188,2021-10-31,07:49:08,09:47:23,NA,incomplete,false,NA,NA,true,2,12,NA,NA,NA,left,m_l_110.jpg,blue,yellow,NA,NA,NA,NA,NA,NA,NA,NA,NA,NaN,NA,3233.100000023842,left,1,NA,NA,NA,NA,NA
qbIkSq7n,3bakuke4akpi45n0y93n6zfn3q3r1f,3dbqwde4yaby09ulxrtkppjmimt5ni,qbIkSq7n,2020-0188,2021-10-31,07:49:08,09:47:23,NA,incomplete,false,NA,NA,true,2,13,NA,NA,NA,left,m_s_002.jpg,yellow,blue,NA,NA,NA,NA,NA,NA,NA,NA,NA,NaN,NA,2947.800000011921,left,1,NA,NA,NA,NA,NA
qbIkSq7n,3bakuke4akpi45n0y93n6zfn3q3r1f,3dbqwde4yaby09ulxrtkppjmimt5ni,qbIkSq7n,2020-0188,2021-10-31,07:49:08,09:47:23,NA,incomplete,false,NA,NA,true,2,14,NA,NA,NA,left,m_l_056.jpg,gray,red,NA,NA,NA,NA,NA,NA,NA,NA,NA,NaN,NA,1868.8999999761581,right,0,NA,NA,NA,NA,NA
qbIkSq7n,3bakuke4akpi45n0y93n6zfn3q3r1f,3dbqwde4yaby09ulxrtkppjmimt5ni,qbIkSq7n,2020-0188,2021-10-31,07:49:08,09:47:23,NA,incomplete,false,NA,NA,true,2,15,NA,NA,NA,left,m_l_059.jpg,purple,orange,NA,NA,NA,NA,NA,NA,NA,NA,NA,NaN,NA,3160.7000000476837,left,1,NA,NA,NA,NA,NA
qbIkSq7n,3bakuke4akpi45n0y93n6zfn3q3r1f,3dbqwde4yaby09ulxrtkppjmimt5ni,qbIkSq7n,2020-0188,2021-10-31,07:49:08,09:47:23,NA,incomplete,false,NA,NA,true,2,16,NA,NA,NA,left,m_s_054.jpg,red,gray,NA,NA,NA,NA,NA,NA,NA,NA,NA,NaN,NA,2165.800000011921,right,0,NA,NA,NA,NA,NA
qbIkSq7n,3bakuke4akpi45n0y93n6zfn3q3r1f,3dbqwde4yaby09ulxrtkppjmimt5ni,qbIkSq7n,2020-0188,2021-10-31,07:49:08,09:47:23,NA,incomplete,false,NA,NA,true,2,17,NA,NA,NA,right,n_s_019.jpg,yellow,blue,NA,NA,NA,NA,NA,NA,NA,NA,NA,NaN,NA,3913,left,0,NA,NA,NA,NA,NA
qbIkSq7n,3bakuke4akpi45n0y93n6zfn3q3r1f,3dbqwde4yaby09ulxrtkppjmimt5ni,qbIkSq7n,2020-0188,2021-10-31,07:49:08,09:47:23,NA,incomplete,false,NA,NA,true,2,18,NA,NA,NA,left,m_l_003.jpg,purple,red,NA,NA,NA,NA,NA,NA,NA,NA,NA,NaN,NA,4015.599999964237,left,1,NA,NA,NA,NA,NA
qbIkSq7n,3bakuke4akpi45n0y93n6zfn3q3r1f,3dbqwde4yaby09ulxrtkppjmimt5ni,qbIkSq7n,2020-0188,2021-10-31,07:49:08,09:47:23,NA,incomplete,false,NA,NA,true,2,19,NA,NA,NA,left,n_l_107.jpg,red,gray,NA,NA,NA,NA,NA,NA,NA,NA,NA,NaN,NA,4504.300000011921,right,0,NA,NA,NA,NA,NA
qbIkSq7n,3bakuke4akpi45n0y93n6zfn3q3r1f,3dbqwde4yaby09ulxrtkppjmimt5ni,qbIkSq7n,2020-0188,2021-10-31,07:49:08,09:47:23,NA,incomplete,false,NA,NA,true,2,20,NA,NA,NA,left,n_s_009.jpg,purple,orange,NA,NA,NA,NA,NA,NA,NA,NA,NA,NaN,NA,5645.699999988079,right,0,NA,NA,NA,NA,NA
qbIkSq7n,3bakuke4akpi45n0y93n6zfn3q3r1f,3dbqwde4yaby09ulxrtkppjmimt5ni,qbIkSq7n,2020-0188,2021-10-31,07:49:08,09:47:23,NA,incomplete,false,NA,NA,true,2,21,NA,NA,NA,right,m_l_040.jpg,blue,yellow,NA,NA,NA,NA,NA,NA,NA,NA,NA,NaN,NA,2145.699999988079,right,1,NA,NA,NA,NA,NA
qbIkSq7n,3bakuke4akpi45n0y93n6zfn3q3r1f,3dbqwde4yaby09ulxrtkppjmimt5ni,qbIkSq7n,2020-0188,2021-10-31,07:49:08,09:47:23,NA,incomplete,false,NA,true,NA,2,0,NA,NA,NA,right,NA,NA,NA,absent,NA,NA,n_s_094.jpg,gray,n_l_002.jpg,red,between,NA,NaN,NA,NA,NA,NA,left,5178.5,0,1,1612.8999999761581
qbIkSq7n,3bakuke4akpi45n0y93n6zfn3q3r1f,3dbqwde4yaby09ulxrtkppjmimt5ni,qbIkSq7n,2020-0188,2021-10-31,07:49:08,09:47:23,NA,incomplete,false,NA,true,NA,2,1,NA,NA,NA,left,NA,NA,NA,absent,NA,NA,m_l_059.jpg,purple,m_s_054.jpg,red,between,NA,NaN,NA,NA,NA,NA,left,4931.800000011921,1,1,2663.899999976158
qbIkSq7n,3bakuke4akpi45n0y93n6zfn3q3r1f,3dbqwde4yaby09ulxrtkppjmimt5ni,qbIkSq7n,2020-0188,2021-10-31,07:49:08,09:47:23,NA,incomplete,false,NA,true,NA,2,2,NA,NA,NA,right,NA,NA,NA,absent,NA,NA,m_s_002.jpg,yellow,m_l_040.jpg,yellow,within,NA,NaN,NA,NA,NA,NA,left,6160.599999964237,0,2,1831.9000000357628
qbIkSq7n,3bakuke4akpi45n0y93n6zfn3q3r1f,3dbqwde4yaby09ulxrtkppjmimt5ni,qbIkSq7n,2020-0188,2021-10-31,07:49:08,09:47:23,NA,incomplete,false,NA,true,NA,2,3,NA,NA,NA,left,NA,NA,NA,absent,NA,NA,m_s_067.jpg,blue,n_s_027.jpg,blue,within,NA,NaN,NA,NA,NA,NA,right,6885.900000035763,0,2,2714.599999964237
qbIkSq7n,3bakuke4akpi45n0y93n6zfn3q3r1f,3dbqwde4yaby09ulxrtkppjmimt5ni,qbIkSq7n,2020-0188,2021-10-31,07:49:08,09:47:23,NA,incomplete,false,NA,true,NA,2,4,NA,NA,NA,right,NA,NA,NA,absent,NA,NA,m_l_093.jpg,red,n_l_107.jpg,red,within,NA,NaN,NA,NA,NA,NA,left,5010,0,1,1247.5
qbIkSq7n,3bakuke4akpi45n0y93n6zfn3q3r1f,3dbqwde4yaby09ulxrtkppjmimt5ni,qbIkSq7n,2020-0188,2021-10-31,07:49:08,09:47:23,NA,incomplete,false,NA,true,NA,2,5,NA,NA,NA,left,NA,NA,NA,absent,NA,NA,n_s_019.jpg,blue,m_l_033.jpg,orange,between,NA,NaN,NA,NA,NA,NA,left,12245.400000035763,1,1,1626.6000000238419
qbIkSq7n,3bakuke4akpi45n0y93n6zfn3q3r1f,3dbqwde4yaby09ulxrtkppjmimt5ni,qbIkSq7n,2020-0188,2021-10-31,07:49:08,09:47:23,NA,incomplete,false,NA,true,NA,2,6,NA,NA,NA,left,NA,NA,NA,absent,NA,NA,m_l_020.jpg,yellow,m_l_110.jpg,blue,between,NA,NaN,NA,NA,NA,NA,left,5414.199999988079,1,1,1485.199999988079
qbIkSq7n,3bakuke4akpi45n0y93n6zfn3q3r1f,3dbqwde4yaby09ulxrtkppjmimt5ni,qbIkSq7n,2020-0188,2021-10-31,07:49:08,09:47:23,NA,incomplete,false,NA,true,NA,2,7,NA,NA,NA,left,NA,NA,NA,absent,NA,NA,m_l_003.jpg,purple,m_l_074.jpg,purple,within,NA,NaN,NA,NA,NA,NA,left,4116.699999988079,1,1,2046.9000000357628
qbIkSq7n,3bakuke4akpi45n0y93n6zfn3q3r1f,3dbqwde4yaby09ulxrtkppjmimt5ni,qbIkSq7n,2020-0188,2021-10-31,07:49:08,09:47:23,NA,incomplete,false,NA,true,NA,2,8,NA,NA,NA,right,NA,NA,NA,absent,NA,NA,n_s_108.jpg,gray,m_l_056.jpg,gray,within,NA,NaN,NA,NA,NA,NA,right,3165,1,1,1881.5
qbIkSq7n,3bakuke4akpi45n0y93n6zfn3q3r1f,3dbqwde4yaby09ulxrtkppjmimt5ni,qbIkSq7n,2020-0188,2021-10-31,07:49:08,09:47:23,NA,incomplete,false,NA,true,NA,2,9,NA,NA,NA,right,NA,NA,NA,absent,NA,NA,n_s_111.jpg,orange,m_s_013.jpg,orange,within,NA,NaN,NA,NA,NA,NA,right,2964.399999976158,1,1,2149.300000011921
qbIkSq7n,3bakuke4akpi45n0y93n6zfn3q3r1f,3dbqwde4yaby09ulxrtkppjmimt5ni,qbIkSq7n,2020-0188,2021-10-31,07:49:08,09:47:23,NA,incomplete,false,NA,true,NA,2,10,NA,NA,NA,right,NA,NA,NA,absent,NA,NA,n_s_009.jpg,purple,m_s_030.jpg,orange,between,NA,NaN,NA,NA,NA,NA,right,8874,1,2,1963.9000000357628
qbIkSq7n,3bakuke4akpi45n0y93n6zfn3q3r1f,3dbqwde4yaby09ulxrtkppjmimt5ni,qbIkSq7n,2020-0188,2021-10-31,07:49:08,09:47:23,NA,incomplete,false,true,NA,NA,3,0,NA,yellow,n_s_074.jpg,NA,NA,NA,NA,NA,pleasant,unpleasant,NA,NA,NA,NA,NA,none,0,false,NA,NA,NA,NA,NA,NA,NA,NA
qbIkSq7n,3bakuke4akpi45n0y93n6zfn3q3r1f,3dbqwde4yaby09ulxrtkppjmimt5ni,qbIkSq7n,2020-0188,2021-10-31,07:49:08,09:47:23,NA,incomplete,false,true,NA,NA,3,1,NA,yellow,n_l_113.jpg,NA,NA,NA,NA,NA,unpleasant,pleasant,NA,NA,NA,NA,NA,none,0,false,NA,NA,NA,NA,NA,NA,NA,NA
qbIkSq7n,3bakuke4akpi45n0y93n6zfn3q3r1f,3dbqwde4yaby09ulxrtkppjmimt5ni,qbIkSq7n,2020-0188,2021-10-31,07:49:08,09:47:23,NA,incomplete,false,true,NA,NA,3,2,NA,yellow,n_l_043.jpg,NA,NA,NA,NA,NA,pleasant,unpleasant,NA,NA,NA,NA,NA,left,2904.60000002384,true,NA,NA,NA,NA,NA,NA,NA,NA
qbIkSq7n,3bakuke4akpi45n0y93n6zfn3q3r1f,3dbqwde4yaby09ulxrtkppjmimt5ni,qbIkSq7n,2020-0188,2021-10-31,07:49:08,09:47:23,NA,incomplete,false,true,NA,NA,3,3,NA,yellow,n_l_099.jpg,NA,NA,NA,NA,NA,unpleasant,pleasant,NA,NA,NA,NA,NA,left,2808.29999995232,true,NA,NA,NA,NA,NA,NA,NA,NA
qbIkSq7n,3bakuke4akpi45n0y93n6zfn3q3r1f,3dbqwde4yaby09ulxrtkppjmimt5ni,qbIkSq7n,2020-0188,2021-10-31,07:49:08,09:47:23,NA,incomplete,false,true,NA,NA,3,4,NA,yellow,m_l_051.jpg,NA,NA,NA,NA,NA,unpleasant,pleasant,NA,NA,NA,NA,NA,right,2207.80000001192,true,NA,NA,NA,NA,NA,NA,NA,NA
qbIkSq7n,3bakuke4akpi45n0y93n6zfn3q3r1f,3dbqwde4yaby09ulxrtkppjmimt5ni,qbIkSq7n,2020-0188,2021-10-31,07:49:08,09:47:23,NA,incomplete,false,true,NA,NA,3,5,NA,yellow,n_s_059.jpg,NA,NA,NA,NA,NA,unpleasant,pleasant,NA,NA,NA,NA,NA,right,2647.69999998808,true,NA,NA,NA,NA,NA,NA,NA,NA
qbIkSq7n,3bakuke4akpi45n0y93n6zfn3q3r1f,3dbqwde4yaby09ulxrtkppjmimt5ni,qbIkSq7n,2020-0188,2021-10-31,07:49:08,09:47:23,NA,incomplete,false,true,NA,NA,3,6,NA,purple,n_l_084.jpg,NA,NA,NA,NA,NA,pleasant,unpleasant,NA,NA,NA,NA,NA,none,0,false,NA,NA,NA,NA,NA,NA,NA,NA
qbIkSq7n,3bakuke4akpi45n0y93n6zfn3q3r1f,3dbqwde4yaby09ulxrtkppjmimt5ni,qbIkSq7n,2020-0188,2021-10-31,07:49:08,09:47:23,NA,incomplete,false,true,NA,NA,3,7,NA,purple,m_s_007.jpg,NA,NA,NA,NA,NA,unpleasant,pleasant,NA,NA,NA,NA,NA,right,2046.10000002384,true,NA,NA,NA,NA,NA,NA,NA,NA
qbIkSq7n,3bakuke4akpi45n0y93n6zfn3q3r1f,3dbqwde4yaby09ulxrtkppjmimt5ni,qbIkSq7n,2020-0188,2021-10-31,07:49:08,09:47:23,NA,incomplete,false,true,NA,NA,3,8,NA,purple,n_s_035.jpg,NA,NA,NA,NA,NA,unpleasant,pleasant,NA,NA,NA,NA,NA,right,2357.10000002384,true,NA,NA,NA,NA,NA,NA,NA,NA
qbIkSq7n,3bakuke4akpi45n0y93n6zfn3q3r1f,3dbqwde4yaby09ulxrtkppjmimt5ni,qbIkSq7n,2020-0188,2021-10-31,07:49:08,09:47:23,NA,incomplete,false,true,NA,NA,3,9,NA,purple,m_l_088.jpg,NA,NA,NA,NA,NA,pleasant,unpleasant,NA,NA,NA,NA,NA,left,2708.80000001192,true,NA,NA,NA,NA,NA,NA,NA,NA
qbIkSq7n,3bakuke4akpi45n0y93n6zfn3q3r1f,3dbqwde4yaby09ulxrtkppjmimt5ni,qbIkSq7n,2020-0188,2021-10-31,07:49:08,09:47:23,NA,incomplete,false,true,NA,NA,3,10,NA,purple,m_l_100.jpg,NA,NA,NA,NA,NA,unpleasant,pleasant,NA,NA,NA,NA,NA,right,1882.90000003576,true,NA,NA,NA,NA,NA,NA,NA,NA
qbIkSq7n,3bakuke4akpi45n0y93n6zfn3q3r1f,3dbqwde4yaby09ulxrtkppjmimt5ni,qbIkSq7n,2020-0188,2021-10-31,07:49:08,09:47:23,NA,incomplete,false,true,NA,NA,3,11,NA,purple,m_l_112.jpg,NA,NA,NA,NA,NA,unpleasant,pleasant,NA,NA,NA,NA,NA,right,1363.5,true,NA,NA,NA,NA,NA,NA,NA,NA
qbIkSq7n,3bakuke4akpi45n0y93n6zfn3q3r1f,3dbqwde4yaby09ulxrtkppjmimt5ni,qbIkSq7n,2020-0188,2021-10-31,07:49:08,09:47:23,NA,incomplete,false,true,NA,NA,3,12,NA,red,n_l_049.jpg,NA,NA,NA,NA,NA,pleasant,unpleasant,NA,NA,NA,NA,NA,left,1956.69999998808,true,NA,NA,NA,NA,NA,NA,NA,NA
qbIkSq7n,3bakuke4akpi45n0y93n6zfn3q3r1f,3dbqwde4yaby09ulxrtkppjmimt5ni,qbIkSq7n,2020-0188,2021-10-31,07:49:08,09:47:23,NA,incomplete,false,true,NA,NA,3,13,NA,red,m_l_113.jpg,NA,NA,NA,NA,NA,pleasant,unpleasant,NA,NA,NA,NA,NA,left,2080.80000001192,true,NA,NA,NA,NA,NA,NA,NA,NA
qbIkSq7n,3bakuke4akpi45n0y93n6zfn3q3r1f,3dbqwde4yaby09ulxrtkppjmimt5ni,qbIkSq7n,2020-0188,2021-10-31,07:49:08,09:47:23,NA,incomplete,false,true,NA,NA,3,14,NA,red,n_l_028.jpg,NA,NA,NA,NA,NA,unpleasant,pleasant,NA,NA,NA,NA,NA,left,121.5,true,NA,NA,NA,NA,NA,NA,NA,NA
qbIkSq7n,3bakuke4akpi45n0y93n6zfn3q3r1f,3dbqwde4yaby09ulxrtkppjmimt5ni,qbIkSq7n,2020-0188,2021-10-31,07:49:08,09:47:23,NA,incomplete,false,true,NA,NA,3,15,NA,red,m_l_070.jpg,NA,NA,NA,NA,NA,pleasant,unpleasant,NA,NA,NA,NA,NA,left,2355.30000001192,true,NA,NA,NA,NA,NA,NA,NA,NA
qbIkSq7n,3bakuke4akpi45n0y93n6zfn3q3r1f,3dbqwde4yaby09ulxrtkppjmimt5ni,qbIkSq7n,2020-0188,2021-10-31,07:49:08,09:47:23,NA,incomplete,false,true,NA,NA,3,16,NA,red,n_s_086.jpg,NA,NA,NA,NA,NA,pleasant,unpleasant,NA,NA,NA,NA,NA,left,3112.20000004768,true,NA,NA,NA,NA,NA,NA,NA,NA
qbIkSq7n,3bakuke4akpi45n0y93n6zfn3q3r1f,3dbqwde4yaby09ulxrtkppjmimt5ni,qbIkSq7n,2020-0188,2021-10-31,07:49:08,09:47:23,NA,incomplete,false,true,NA,NA,3,17,NA,red,m_s_061.jpg,NA,NA,NA,NA,NA,pleasant,unpleasant,NA,NA,NA,NA,NA,left,1183.30000001192,true,NA,NA,NA,NA,NA,NA,NA,NA
qbIkSq7n,3bakuke4akpi45n0y93n6zfn3q3r1f,3dbqwde4yaby09ulxrtkppjmimt5ni,qbIkSq7n,2020-0188,2021-10-31,07:49:08,09:47:23,NA,incomplete,false,true,NA,NA,3,18,NA,green,m_s_112.jpg,NA,NA,NA,NA,NA,unpleasant,pleasant,NA,NA,NA,NA,NA,right,2343.30000001192,true,NA,NA,NA,NA,NA,NA,NA,NA
qbIkSq7n,3bakuke4akpi45n0y93n6zfn3q3r1f,3dbqwde4yaby09ulxrtkppjmimt5ni,qbIkSq7n,2020-0188,2021-10-31,07:49:08,09:47:23,NA,incomplete,false,true,NA,NA,3,19,NA,green,n_s_045.jpg,NA,NA,NA,NA,NA,pleasant,unpleasant,NA,NA,NA,NA,NA,left,2854.30000001192,true,NA,NA,NA,NA,NA,NA,NA,NA
qbIkSq7n,3bakuke4akpi45n0y93n6zfn3q3r1f,3dbqwde4yaby09ulxrtkppjmimt5ni,qbIkSq7n,2020-0188,2021-10-31,07:49:08,09:47:23,NA,incomplete,false,true,NA,NA,3,20,NA,green,m_s_060.jpg,NA,NA,NA,NA,NA,pleasant,unpleasant,NA,NA,NA,NA,NA,left,2654.30000001192,true,NA,NA,NA,NA,NA,NA,NA,NA
qbIkSq7n,3bakuke4akpi45n0y93n6zfn3q3r1f,3dbqwde4yaby09ulxrtkppjmimt5ni,qbIkSq7n,2020-0188,2021-10-31,07:49:08,09:47:23,NA,incomplete,false,true,NA,NA,3,21,NA,green,m_l_090.jpg,NA,NA,NA,NA,NA,unpleasant,pleasant,NA,NA,NA,NA,NA,right,2539.09999996424,true,NA,NA,NA,NA,NA,NA,NA,NA
qbIkSq7n,3bakuke4akpi45n0y93n6zfn3q3r1f,3dbqwde4yaby09ulxrtkppjmimt5ni,qbIkSq7n,2020-0188,2021-10-31,07:49:08,09:47:23,NA,incomplete,false,true,NA,NA,3,22,NA,green,m_s_037.jpg,NA,NA,NA,NA,NA,pleasant,unpleasant,NA,NA,NA,NA,NA,right,1639.90000003576,true,NA,NA,NA,NA,NA,NA,NA,NA
qbIkSq7n,3bakuke4akpi45n0y93n6zfn3q3r1f,3dbqwde4yaby09ulxrtkppjmimt5ni,qbIkSq7n,2020-0188,2021-10-31,07:49:08,09:47:23,NA,incomplete,false,true,NA,NA,3,23,NA,green,n_s_055.jpg,NA,NA,NA,NA,NA,pleasant,unpleasant,NA,NA,NA,NA,NA,left,3298.09999996424,true,NA,NA,NA,NA,NA,NA,NA,NA
qbIkSq7n,3bakuke4akpi45n0y93n6zfn3q3r1f,3dbqwde4yaby09ulxrtkppjmimt5ni,qbIkSq7n,2020-0188,2021-10-31,07:49:08,09:47:23,NA,incomplete,false,true,NA,NA,3,24,NA,orange,n_l_021.jpg,NA,NA,NA,NA,NA,unpleasant,pleasant,NA,NA,NA,NA,NA,right,1902,true,NA,NA,NA,NA,NA,NA,NA,NA
qbIkSq7n,3bakuke4akpi45n0y93n6zfn3q3r1f,3dbqwde4yaby09ulxrtkppjmimt5ni,qbIkSq7n,2020-0188,2021-10-31,07:49:08,09:47:23,NA,incomplete,false,true,NA,NA,3,25,NA,orange,m_s_051.jpg,NA,NA,NA,NA,NA,pleasant,unpleasant,NA,NA,NA,NA,NA,left,2457.29999995232,true,NA,NA,NA,NA,NA,NA,NA,NA
qbIkSq7n,3bakuke4akpi45n0y93n6zfn3q3r1f,3dbqwde4yaby09ulxrtkppjmimt5ni,qbIkSq7n,2020-0188,2021-10-31,07:49:08,09:47:23,NA,incomplete,false,true,NA,NA,3,26,NA,orange,m_s_003.jpg,NA,NA,NA,NA,NA,unpleasant,pleasant,NA,NA,NA,NA,NA,right,2316.60000002384,true,NA,NA,NA,NA,NA,NA,NA,NA
qbIkSq7n,3bakuke4akpi45n0y93n6zfn3q3r1f,3dbqwde4yaby09ulxrtkppjmimt5ni,qbIkSq7n,2020-0188,2021-10-31,07:49:08,09:47:23,NA,incomplete,false,true,NA,NA,3,27,NA,orange,m_l_079.jpg,NA,NA,NA,NA,NA,pleasant,unpleasant,NA,NA,NA,NA,NA,left,1739.89999997616,true,NA,NA,NA,NA,NA,NA,NA,NA
qbIkSq7n,3bakuke4akpi45n0y93n6zfn3q3r1f,3dbqwde4yaby09ulxrtkppjmimt5ni,qbIkSq7n,2020-0188,2021-10-31,07:49:08,09:47:23,NA,incomplete,false,true,NA,NA,3,28,NA,orange,m_s_048.jpg,NA,NA,NA,NA,NA,pleasant,unpleasant,NA,NA,NA,NA,NA,left,2627.10000002384,true,NA,NA,NA,NA,NA,NA,NA,NA
qbIkSq7n,3bakuke4akpi45n0y93n6zfn3q3r1f,3dbqwde4yaby09ulxrtkppjmimt5ni,qbIkSq7n,2020-0188,2021-10-31,07:49:08,09:47:23,NA,incomplete,false,true,NA,NA,3,29,NA,orange,n_s_099.jpg,NA,NA,NA,NA,NA,pleasant,unpleasant,NA,NA,NA,NA,NA,left,1663.80000001192,true,NA,NA,NA,NA,NA,NA,NA,NA
qbIkSq7n,3bakuke4akpi45n0y93n6zfn3q3r1f,3dbqwde4yaby09ulxrtkppjmimt5ni,qbIkSq7n,2020-0188,2021-10-31,07:49:08,09:47:23,NA,incomplete,false,true,NA,NA,3,30,NA,brown,m_s_027.jpg,NA,NA,NA,NA,NA,pleasant,unpleasant,NA,NA,NA,NA,NA,left,2357.39999997616,true,NA,NA,NA,NA,NA,NA,NA,NA
qbIkSq7n,3bakuke4akpi45n0y93n6zfn3q3r1f,3dbqwde4yaby09ulxrtkppjmimt5ni,qbIkSq7n,2020-0188,2021-10-31,07:49:08,09:47:23,NA,incomplete,false,true,NA,NA,3,31,NA,brown,m_l_030.jpg,NA,NA,NA,NA,NA,unpleasant,pleasant,NA,NA,NA,NA,NA,right,2223.19999998808,true,NA,NA,NA,NA,NA,NA,NA,NA
qbIkSq7n,3bakuke4akpi45n0y93n6zfn3q3r1f,3dbqwde4yaby09ulxrtkppjmimt5ni,qbIkSq7n,2020-0188,2021-10-31,07:49:08,09:47:23,NA,incomplete,false,true,NA,NA,3,32,NA,brown,m_l_105.jpg,NA,NA,NA,NA,NA,pleasant,unpleasant,NA,NA,NA,NA,NA,left,2527.5,true,NA,NA,NA,NA,NA,NA,NA,NA
qbIkSq7n,3bakuke4akpi45n0y93n6zfn3q3r1f,3dbqwde4yaby09ulxrtkppjmimt5ni,qbIkSq7n,2020-0188,2021-10-31,07:49:08,09:47:23,NA,incomplete,false,true,NA,NA,3,33,NA,brown,m_s_095.jpg,NA,NA,NA,NA,NA,unpleasant,pleasant,NA,NA,NA,NA,NA,none,0,false,NA,NA,NA,NA,NA,NA,NA,NA
qbIkSq7n,3bakuke4akpi45n0y93n6zfn3q3r1f,3dbqwde4yaby09ulxrtkppjmimt5ni,qbIkSq7n,2020-0188,2021-10-31,07:49:08,09:47:23,NA,incomplete,false,true,NA,NA,3,34,NA,brown,m_l_101.jpg,NA,NA,NA,NA,NA,pleasant,unpleasant,NA,NA,NA,NA,NA,left,2836.19999998808,true,NA,NA,NA,NA,NA,NA,NA,NA
qbIkSq7n,3bakuke4akpi45n0y93n6zfn3q3r1f,3dbqwde4yaby09ulxrtkppjmimt5ni,qbIkSq7n,2020-0188,2021-10-31,07:49:08,09:47:23,NA,incomplete,false,true,NA,NA,3,35,NA,brown,n_s_113.jpg,NA,NA,NA,NA,NA,pleasant,unpleasant,NA,NA,NA,NA,NA,left,3017.5,true,NA,NA,NA,NA,NA,NA,NA,NA
qbIkSq7n,3bakuke4akpi45n0y93n6zfn3q3r1f,3dbqwde4yaby09ulxrtkppjmimt5ni,qbIkSq7n,2020-0188,2021-10-31,07:49:08,09:47:23,NA,incomplete,false,NA,NA,true,3,0,NA,NA,NA,right,m_s_051.jpg,brown,orange,NA,NA,NA,NA,NA,NA,NA,NA,NA,NaN,NA,5255.100000023842,right,1,NA,NA,NA,NA,NA
qbIkSq7n,3bakuke4akpi45n0y93n6zfn3q3r1f,3dbqwde4yaby09ulxrtkppjmimt5ni,qbIkSq7n,2020-0188,2021-10-31,07:49:08,09:47:23,NA,incomplete,false,NA,NA,true,3,1,NA,NA,NA,right,m_s_007.jpg,red,purple,NA,NA,NA,NA,NA,NA,NA,NA,NA,NaN,NA,4480.199999988079,right,1,NA,NA,NA,NA,NA
qbIkSq7n,3bakuke4akpi45n0y93n6zfn3q3r1f,3dbqwde4yaby09ulxrtkppjmimt5ni,qbIkSq7n,2020-0188,2021-10-31,07:49:08,09:47:23,NA,incomplete,false,NA,NA,true,3,2,NA,NA,NA,left,n_s_035.jpg,purple,yellow,NA,NA,NA,NA,NA,NA,NA,NA,NA,NaN,NA,7773.600000023842,left,1,NA,NA,NA,NA,NA
qbIkSq7n,3bakuke4akpi45n0y93n6zfn3q3r1f,3dbqwde4yaby09ulxrtkppjmimt5ni,qbIkSq7n,2020-0188,2021-10-31,07:49:08,09:47:23,NA,incomplete,false,NA,NA,true,3,3,NA,NA,NA,left,n_l_028.jpg,red,green,NA,NA,NA,NA,NA,NA,NA,NA,NA,NaN,NA,8544.400000035763,left,1,NA,NA,NA,NA,NA
qbIkSq7n,3bakuke4akpi45n0y93n6zfn3q3r1f,3dbqwde4yaby09ulxrtkppjmimt5ni,qbIkSq7n,2020-0188,2021-10-31,07:49:08,09:47:23,NA,incomplete,false,NA,NA,true,3,4,NA,NA,NA,left,m_s_003.jpg,orange,brown,NA,NA,NA,NA,NA,NA,NA,NA,NA,NaN,NA,13495.300000011921,right,0,NA,NA,NA,NA,NA
qbIkSq7n,3bakuke4akpi45n0y93n6zfn3q3r1f,3dbqwde4yaby09ulxrtkppjmimt5ni,qbIkSq7n,2020-0188,2021-10-31,07:49:08,09:47:23,NA,incomplete,false,NA,NA,true,3,5,NA,NA,NA,right,m_l_112.jpg,red,purple,NA,NA,NA,NA,NA,NA,NA,NA,NA,NaN,NA,11113.099999964237,right,1,NA,NA,NA,NA,NA
qbIkSq7n,3bakuke4akpi45n0y93n6zfn3q3r1f,3dbqwde4yaby09ulxrtkppjmimt5ni,qbIkSq7n,2020-0188,2021-10-31,07:49:08,09:47:23,NA,incomplete,false,NA,NA,true,3,6,NA,NA,NA,right,m_l_113.jpg,purple,red,NA,NA,NA,NA,NA,NA,NA,NA,NA,NaN,NA,3115.199999988079,left,0,NA,NA,NA,NA,NA
qbIkSq7n,3bakuke4akpi45n0y93n6zfn3q3r1f,3dbqwde4yaby09ulxrtkppjmimt5ni,qbIkSq7n,2020-0188,2021-10-31,07:49:08,09:47:23,NA,incomplete,false,NA,NA,true,3,7,NA,NA,NA,right,m_l_105.jpg,orange,brown,NA,NA,NA,NA,NA,NA,NA,NA,NA,NaN,NA,5562.800000011921,right,1,NA,NA,NA,NA,NA
qbIkSq7n,3bakuke4akpi45n0y93n6zfn3q3r1f,3dbqwde4yaby09ulxrtkppjmimt5ni,qbIkSq7n,2020-0188,2021-10-31,07:49:08,09:47:23,NA,incomplete,false,NA,NA,true,3,8,NA,NA,NA,right,n_s_045.jpg,orange,green,NA,NA,NA,NA,NA,NA,NA,NA,NA,NaN,NA,4996.699999988079,left,0,NA,NA,NA,NA,NA
qbIkSq7n,3bakuke4akpi45n0y93n6zfn3q3r1f,3dbqwde4yaby09ulxrtkppjmimt5ni,qbIkSq7n,2020-0188,2021-10-31,07:49:08,09:47:23,NA,incomplete,false,NA,NA,true,3,9,NA,NA,NA,right,n_s_099.jpg,green,orange,NA,NA,NA,NA,NA,NA,NA,NA,NA,NaN,NA,4061.600000023842,right,1,NA,NA,NA,NA,NA
qbIkSq7n,3bakuke4akpi45n0y93n6zfn3q3r1f,3dbqwde4yaby09ulxrtkppjmimt5ni,qbIkSq7n,2020-0188,2021-10-31,07:49:08,09:47:23,NA,incomplete,false,NA,NA,true,3,10,NA,NA,NA,right,m_l_100.jpg,red,purple,NA,NA,NA,NA,NA,NA,NA,NA,NA,NaN,NA,6497.600000023842,right,1,NA,NA,NA,NA,NA
qbIkSq7n,3bakuke4akpi45n0y93n6zfn3q3r1f,3dbqwde4yaby09ulxrtkppjmimt5ni,qbIkSq7n,2020-0188,2021-10-31,07:49:08,09:47:23,NA,incomplete,false,NA,NA,true,3,11,NA,NA,NA,right,m_s_048.jpg,brown,orange,NA,NA,NA,NA,NA,NA,NA,NA,NA,NaN,NA,3880.300000011921,right,1,NA,NA,NA,NA,NA
qbIkSq7n,3bakuke4akpi45n0y93n6zfn3q3r1f,3dbqwde4yaby09ulxrtkppjmimt5ni,qbIkSq7n,2020-0188,2021-10-31,07:49:08,09:47:23,NA,incomplete,false,NA,NA,true,3,12,NA,NA,NA,left,m_l_030.jpg,brown,orange,NA,NA,NA,NA,NA,NA,NA,NA,NA,NaN,NA,3313.100000023842,right,0,NA,NA,NA,NA,NA
qbIkSq7n,3bakuke4akpi45n0y93n6zfn3q3r1f,3dbqwde4yaby09ulxrtkppjmimt5ni,qbIkSq7n,2020-0188,2021-10-31,07:49:08,09:47:23,NA,incomplete,false,NA,NA,true,3,13,NA,NA,NA,right,n_s_055.jpg,orange,green,NA,NA,NA,NA,NA,NA,NA,NA,NA,NaN,NA,5595.5,right,1,NA,NA,NA,NA,NA
qbIkSq7n,3bakuke4akpi45n0y93n6zfn3q3r1f,3dbqwde4yaby09ulxrtkppjmimt5ni,qbIkSq7n,2020-0188,2021-10-31,07:49:08,09:47:23,NA,incomplete,false,NA,NA,true,3,14,NA,NA,NA,right,m_s_061.jpg,purple,red,NA,NA,NA,NA,NA,NA,NA,NA,NA,NaN,NA,10311.599999964237,left,0,NA,NA,NA,NA,NA
qbIkSq7n,3bakuke4akpi45n0y93n6zfn3q3r1f,3dbqwde4yaby09ulxrtkppjmimt5ni,qbIkSq7n,2020-0188,2021-10-31,07:49:08,09:47:23,NA,incomplete,false,NA,NA,true,3,15,NA,NA,NA,right,n_s_113.jpg,orange,brown,NA,NA,NA,NA,NA,NA,NA,NA,NA,NaN,NA,7628.699999988079,left,0,NA,NA,NA,NA,NA
qbIkSq7n,3bakuke4akpi45n0y93n6zfn3q3r1f,3dbqwde4yaby09ulxrtkppjmimt5ni,qbIkSq7n,2020-0188,2021-10-31,07:49:08,09:47:23,NA,incomplete,false,NA,NA,true,3,16,NA,NA,NA,right,m_s_060.jpg,orange,green,NA,NA,NA,NA,NA,NA,NA,NA,NA,NaN,NA,5780.099999964237,right,1,NA,NA,NA,NA,NA
qbIkSq7n,3bakuke4akpi45n0y93n6zfn3q3r1f,3dbqwde4yaby09ulxrtkppjmimt5ni,qbIkSq7n,2020-0188,2021-10-31,07:49:08,09:47:23,NA,incomplete,false,NA,NA,true,3,17,NA,NA,NA,right,n_s_086.jpg,green,red,NA,NA,NA,NA,NA,NA,NA,NA,NA,NaN,NA,3931.5,right,1,NA,NA,NA,NA,NA
qbIkSq7n,3bakuke4akpi45n0y93n6zfn3q3r1f,3dbqwde4yaby09ulxrtkppjmimt5ni,qbIkSq7n,2020-0188,2021-10-31,07:49:08,09:47:23,NA,incomplete,false,NA,NA,true,3,18,NA,NA,NA,left,m_l_051.jpg,yellow,purple,NA,NA,NA,NA,NA,NA,NA,NA,NA,NaN,NA,5861.899999976158,right,0,NA,NA,NA,NA,NA
qbIkSq7n,3bakuke4akpi45n0y93n6zfn3q3r1f,3dbqwde4yaby09ulxrtkppjmimt5ni,qbIkSq7n,2020-0188,2021-10-31,07:49:08,09:47:23,NA,incomplete,false,NA,NA,true,3,19,NA,NA,NA,right,m_s_037.jpg,red,green,NA,NA,NA,NA,NA,NA,NA,NA,NA,NaN,NA,4543.800000011921,right,1,NA,NA,NA,NA,NA
qbIkSq7n,3bakuke4akpi45n0y93n6zfn3q3r1f,3dbqwde4yaby09ulxrtkppjmimt5ni,qbIkSq7n,2020-0188,2021-10-31,07:49:08,09:47:23,NA,incomplete,false,NA,NA,true,3,20,NA,NA,NA,left,n_l_113.jpg,yellow,purple,NA,NA,NA,NA,NA,NA,NA,NA,NA,NaN,NA,12896.799999952316,right,0,NA,NA,NA,NA,NA
qbIkSq7n,3bakuke4akpi45n0y93n6zfn3q3r1f,3dbqwde4yaby09ulxrtkppjmimt5ni,qbIkSq7n,2020-0188,2021-10-31,07:49:08,09:47:23,NA,incomplete,false,NA,NA,true,3,21,NA,NA,NA,left,n_s_059.jpg,yellow,purple,NA,NA,NA,NA,NA,NA,NA,NA,NA,NaN,NA,10347.900000035763,right,0,NA,NA,NA,NA,NA
qbIkSq7n,3bakuke4akpi45n0y93n6zfn3q3r1f,3dbqwde4yaby09ulxrtkppjmimt5ni,qbIkSq7n,2020-0188,2021-10-31,07:49:08,09:47:23,NA,incomplete,false,NA,true,NA,3,0,NA,NA,NA,right,NA,NA,NA,absent,NA,NA,n_s_035.jpg,purple,m_l_051.jpg,yellow,between,NA,NaN,NA,NA,NA,NA,left,7254.800000011921,0,2,1896.5999999642372
qbIkSq7n,3bakuke4akpi45n0y93n6zfn3q3r1f,3dbqwde4yaby09ulxrtkppjmimt5ni,qbIkSq7n,2020-0188,2021-10-31,07:49:08,09:47:23,NA,incomplete,false,NA,true,NA,3,1,NA,NA,NA,left,NA,NA,NA,absent,NA,NA,m_l_030.jpg,brown,n_s_113.jpg,brown,within,NA,NaN,NA,NA,NA,NA,left,5347.5,1,3,2032
qbIkSq7n,3bakuke4akpi45n0y93n6zfn3q3r1f,3dbqwde4yaby09ulxrtkppjmimt5ni,qbIkSq7n,2020-0188,2021-10-31,07:49:08,09:47:23,NA,incomplete,false,NA,true,NA,3,2,NA,NA,NA,left,NA,NA,NA,absent,NA,NA,m_l_113.jpg,red,m_s_061.jpg,red,within,NA,NaN,NA,NA,NA,NA,right,24261.600000023842,0,2,1835
qbIkSq7n,3bakuke4akpi45n0y93n6zfn3q3r1f,3dbqwde4yaby09ulxrtkppjmimt5ni,qbIkSq7n,2020-0188,2021-10-31,07:49:08,09:47:23,NA,incomplete,false,NA,true,NA,3,3,NA,NA,NA,right,NA,NA,NA,absent,NA,NA,m_s_003.jpg,orange,m_s_037.jpg,green,between,NA,NaN,NA,NA,NA,NA,right,7396.200000047684,1,2,5625.600000023842
qbIkSq7n,3bakuke4akpi45n0y93n6zfn3q3r1f,3dbqwde4yaby09ulxrtkppjmimt5ni,qbIkSq7n,2020-0188,2021-10-31,07:49:08,09:47:23,NA,incomplete,false,NA,true,NA,3,4,NA,NA,NA,left,NA,NA,NA,absent,NA,NA,m_s_048.jpg,orange,m_l_105.jpg,brown,between,NA,NaN,NA,NA,NA,NA,right,7213,0,1,1762.9000000357628
qbIkSq7n,3bakuke4akpi45n0y93n6zfn3q3r1f,3dbqwde4yaby09ulxrtkppjmimt5ni,qbIkSq7n,2020-0188,2021-10-31,07:49:08,09:47:23,NA,incomplete,false,NA,true,NA,3,5,NA,NA,NA,left,NA,NA,NA,absent,NA,NA,m_s_007.jpg,purple,m_l_112.jpg,purple,within,NA,NaN,NA,NA,NA,NA,left,6735.399999976158,1,2,1998.699999988079
qbIkSq7n,3bakuke4akpi45n0y93n6zfn3q3r1f,3dbqwde4yaby09ulxrtkppjmimt5ni,qbIkSq7n,2020-0188,2021-10-31,07:49:08,09:47:23,NA,incomplete,false,NA,true,NA,3,6,NA,NA,NA,left,NA,NA,NA,absent,NA,NA,n_l_113.jpg,yellow,n_s_059.jpg,yellow,within,NA,NaN,NA,NA,NA,NA,left,10995.300000011921,1,1,1748.8999999761581
qbIkSq7n,3bakuke4akpi45n0y93n6zfn3q3r1f,3dbqwde4yaby09ulxrtkppjmimt5ni,qbIkSq7n,2020-0188,2021-10-31,07:49:08,09:47:23,NA,incomplete,false,NA,true,NA,3,7,NA,NA,NA,left,NA,NA,NA,absent,NA,NA,m_s_051.jpg,orange,n_s_099.jpg,orange,within,NA,NaN,NA,NA,NA,NA,right,28294.900000035763,0,2,1404.1000000238419
qbIkSq7n,3bakuke4akpi45n0y93n6zfn3q3r1f,3dbqwde4yaby09ulxrtkppjmimt5ni,qbIkSq7n,2020-0188,2021-10-31,07:49:08,09:47:23,NA,incomplete,false,NA,true,NA,3,8,NA,NA,NA,right,NA,NA,NA,absent,NA,NA,m_s_060.jpg,green,n_s_086.jpg,red,between,NA,NaN,NA,NA,NA,NA,left,14345.899999976158,0,1,3719.899999976158
qbIkSq7n,3bakuke4akpi45n0y93n6zfn3q3r1f,3dbqwde4yaby09ulxrtkppjmimt5ni,qbIkSq7n,2020-0188,2021-10-31,07:49:08,09:47:23,NA,incomplete,false,NA,true,NA,3,9,NA,NA,NA,left,NA,NA,NA,absent,NA,NA,m_l_100.jpg,purple,n_l_028.jpg,red,between,NA,NaN,NA,NA,NA,NA,left,21777.600000023842,1,1,1833
qbIkSq7n,3bakuke4akpi45n0y93n6zfn3q3r1f,3dbqwde4yaby09ulxrtkppjmimt5ni,qbIkSq7n,2020-0188,2021-10-31,07:49:08,09:47:23,NA,incomplete,false,NA,true,NA,3,10,NA,NA,NA,left,NA,NA,NA,absent,NA,NA,n_s_045.jpg,green,n_s_055.jpg,green,within,NA,NaN,NA,NA,NA,NA,right,14046.5,0,0,4464.800000011921
qbIkSq7n,3bakuke4akpi45n0y93n6zfn3q3r1f,3dbqwde4yaby09ulxrtkppjmimt5ni,qbIkSq7n,2020-0188,2021-10-31,07:49:08,09:47:23,NA,incomplete,false,true,NA,NA,4,0,NA,black,m_s_086.jpg,NA,NA,NA,NA,NA,pleasant,unpleasant,NA,NA,NA,NA,NA,none,0,false,NA,NA,NA,NA,NA,NA,NA,NA
qbIkSq7n,3bakuke4akpi45n0y93n6zfn3q3r1f,3dbqwde4yaby09ulxrtkppjmimt5ni,qbIkSq7n,2020-0188,2021-10-31,07:49:08,09:47:23,NA,incomplete,false,true,NA,NA,4,1,NA,black,m_l_064.jpg,NA,NA,NA,NA,NA,pleasant,unpleasant,NA,NA,NA,NA,NA,none,0,false,NA,NA,NA,NA,NA,NA,NA,NA
qbIkSq7n,3bakuke4akpi45n0y93n6zfn3q3r1f,3dbqwde4yaby09ulxrtkppjmimt5ni,qbIkSq7n,2020-0188,2021-10-31,07:49:08,09:47:23,NA,incomplete,false,true,NA,NA,4,2,NA,black,n_s_116.jpg,NA,NA,NA,NA,NA,unpleasant,pleasant,NA,NA,NA,NA,NA,right,1532.5,true,NA,NA,NA,NA,NA,NA,NA,NA
qbIkSq7n,3bakuke4akpi45n0y93n6zfn3q3r1f,3dbqwde4yaby09ulxrtkppjmimt5ni,qbIkSq7n,2020-0188,2021-10-31,07:49:08,09:47:23,NA,incomplete,false,true,NA,NA,4,3,NA,black,m_l_077.jpg,NA,NA,NA,NA,NA,unpleasant,pleasant,NA,NA,NA,NA,NA,left,2337.89999997616,true,NA,NA,NA,NA,NA,NA,NA,NA
qbIkSq7n,3bakuke4akpi45n0y93n6zfn3q3r1f,3dbqwde4yaby09ulxrtkppjmimt5ni,qbIkSq7n,2020-0188,2021-10-31,07:49:08,09:47:23,NA,incomplete,false,true,NA,NA,4,4,NA,black,m_l_050.jpg,NA,NA,NA,NA,NA,unpleasant,pleasant,NA,NA,NA,NA,NA,right,2670.29999995232,true,NA,NA,NA,NA,NA,NA,NA,NA
qbIkSq7n,3bakuke4akpi45n0y93n6zfn3q3r1f,3dbqwde4yaby09ulxrtkppjmimt5ni,qbIkSq7n,2020-0188,2021-10-31,07:49:08,09:47:23,NA,incomplete,false,true,NA,NA,4,5,NA,black,m_s_093.jpg,NA,NA,NA,NA,NA,pleasant,unpleasant,NA,NA,NA,NA,NA,left,2437.69999998808,true,NA,NA,NA,NA,NA,NA,NA,NA
qbIkSq7n,3bakuke4akpi45n0y93n6zfn3q3r1f,3dbqwde4yaby09ulxrtkppjmimt5ni,qbIkSq7n,2020-0188,2021-10-31,07:49:08,09:47:23,NA,incomplete,false,true,NA,NA,4,6,NA,gray,m_l_057.jpg,NA,NA,NA,NA,NA,pleasant,unpleasant,NA,NA,NA,NA,NA,left,3138.10000002384,true,NA,NA,NA,NA,NA,NA,NA,NA
qbIkSq7n,3bakuke4akpi45n0y93n6zfn3q3r1f,3dbqwde4yaby09ulxrtkppjmimt5ni,qbIkSq7n,2020-0188,2021-10-31,07:49:08,09:47:23,NA,incomplete,false,true,NA,NA,4,7,NA,gray,m_s_099.jpg,NA,NA,NA,NA,NA,pleasant,unpleasant,NA,NA,NA,NA,NA,left,2017.5,true,NA,NA,NA,NA,NA,NA,NA,NA
qbIkSq7n,3bakuke4akpi45n0y93n6zfn3q3r1f,3dbqwde4yaby09ulxrtkppjmimt5ni,qbIkSq7n,2020-0188,2021-10-31,07:49:08,09:47:23,NA,incomplete,false,true,NA,NA,4,8,NA,gray,n_l_065.jpg,NA,NA,NA,NA,NA,unpleasant,pleasant,NA,NA,NA,NA,NA,right,1998.19999998808,true,NA,NA,NA,NA,NA,NA,NA,NA
qbIkSq7n,3bakuke4akpi45n0y93n6zfn3q3r1f,3dbqwde4yaby09ulxrtkppjmimt5ni,qbIkSq7n,2020-0188,2021-10-31,07:49:08,09:47:23,NA,incomplete,false,true,NA,NA,4,9,NA,gray,m_s_024.jpg,NA,NA,NA,NA,NA,unpleasant,pleasant,NA,NA,NA,NA,NA,right,2013.10000002384,true,NA,NA,NA,NA,NA,NA,NA,NA
qbIkSq7n,3bakuke4akpi45n0y93n6zfn3q3r1f,3dbqwde4yaby09ulxrtkppjmimt5ni,qbIkSq7n,2020-0188,2021-10-31,07:49:08,09:47:23,NA,incomplete,false,true,NA,NA,4,10,NA,gray,n_s_076.jpg,NA,NA,NA,NA,NA,unpleasant,pleasant,NA,NA,NA,NA,NA,right,2784.30000001192,true,NA,NA,NA,NA,NA,NA,NA,NA
qbIkSq7n,3bakuke4akpi45n0y93n6zfn3q3r1f,3dbqwde4yaby09ulxrtkppjmimt5ni,qbIkSq7n,2020-0188,2021-10-31,07:49:08,09:47:23,NA,incomplete,false,true,NA,NA,4,11,NA,gray,n_s_085.jpg,NA,NA,NA,NA,NA,pleasant,unpleasant,NA,NA,NA,NA,NA,left,1829,true,NA,NA,NA,NA,NA,NA,NA,NA
qbIkSq7n,3bakuke4akpi45n0y93n6zfn3q3r1f,3dbqwde4yaby09ulxrtkppjmimt5ni,qbIkSq7n,2020-0188,2021-10-31,07:49:08,09:47:23,NA,incomplete,false,true,NA,NA,4,12,NA,yellow,n_s_100.jpg,NA,NA,NA,NA,NA,unpleasant,pleasant,NA,NA,NA,NA,NA,right,3487.69999998808,true,NA,NA,NA,NA,NA,NA,NA,NA
qbIkSq7n,3bakuke4akpi45n0y93n6zfn3q3r1f,3dbqwde4yaby09ulxrtkppjmimt5ni,qbIkSq7n,2020-0188,2021-10-31,07:49:08,09:47:23,NA,incomplete,false,true,NA,NA,4,13,NA,yellow,n_l_024.jpg,NA,NA,NA,NA,NA,pleasant,unpleasant,NA,NA,NA,NA,NA,left,2884.30000001192,true,NA,NA,NA,NA,NA,NA,NA,NA
qbIkSq7n,3bakuke4akpi45n0y93n6zfn3q3r1f,3dbqwde4yaby09ulxrtkppjmimt5ni,qbIkSq7n,2020-0188,2021-10-31,07:49:08,09:47:23,NA,incomplete,false,true,NA,NA,4,14,NA,yellow,m_l_017.jpg,NA,NA,NA,NA,NA,pleasant,unpleasant,NA,NA,NA,NA,NA,right,2353.5,true,NA,NA,NA,NA,NA,NA,NA,NA
qbIkSq7n,3bakuke4akpi45n0y93n6zfn3q3r1f,3dbqwde4yaby09ulxrtkppjmimt5ni,qbIkSq7n,2020-0188,2021-10-31,07:49:08,09:47:23,NA,incomplete,false,true,NA,NA,4,15,NA,yellow,n_s_091.jpg,NA,NA,NA,NA,NA,unpleasant,pleasant,NA,NA,NA,NA,NA,right,2065.10000002384,true,NA,NA,NA,NA,NA,NA,NA,NA
qbIkSq7n,3bakuke4akpi45n0y93n6zfn3q3r1f,3dbqwde4yaby09ulxrtkppjmimt5ni,qbIkSq7n,2020-0188,2021-10-31,07:49:08,09:47:23,NA,incomplete,false,true,NA,NA,4,16,NA,yellow,n_s_018.jpg,NA,NA,NA,NA,NA,unpleasant,pleasant,NA,NA,NA,NA,NA,left,1857.89999997616,true,NA,NA,NA,NA,NA,NA,NA,NA
qbIkSq7n,3bakuke4akpi45n0y93n6zfn3q3r1f,3dbqwde4yaby09ulxrtkppjmimt5ni,qbIkSq7n,2020-0188,2021-10-31,07:49:08,09:47:23,NA,incomplete,false,true,NA,NA,4,17,NA,yellow,n_s_073.jpg,NA,NA,NA,NA,NA,unpleasant,pleasant,NA,NA,NA,NA,NA,none,0,false,NA,NA,NA,NA,NA,NA,NA,NA
qbIkSq7n,3bakuke4akpi45n0y93n6zfn3q3r1f,3dbqwde4yaby09ulxrtkppjmimt5ni,qbIkSq7n,2020-0188,2021-10-31,07:49:08,09:47:23,NA,incomplete,false,true,NA,NA,4,18,NA,white,m_l_060.jpg,NA,NA,NA,NA,NA,unpleasant,pleasant,NA,NA,NA,NA,NA,right,2563.19999998808,true,NA,NA,NA,NA,NA,NA,NA,NA
qbIkSq7n,3bakuke4akpi45n0y93n6zfn3q3r1f,3dbqwde4yaby09ulxrtkppjmimt5ni,qbIkSq7n,2020-0188,2021-10-31,07:49:08,09:47:23,NA,incomplete,false,true,NA,NA,4,19,NA,white,n_l_015.jpg,NA,NA,NA,NA,NA,unpleasant,pleasant,NA,NA,NA,NA,NA,left,2306.39999997616,true,NA,NA,NA,NA,NA,NA,NA,NA
qbIkSq7n,3bakuke4akpi45n0y93n6zfn3q3r1f,3dbqwde4yaby09ulxrtkppjmimt5ni,qbIkSq7n,2020-0188,2021-10-31,07:49:08,09:47:23,NA,incomplete,false,true,NA,NA,4,20,NA,white,n_l_098.jpg,NA,NA,NA,NA,NA,unpleasant,pleasant,NA,NA,NA,NA,NA,right,2196.30000001192,true,NA,NA,NA,NA,NA,NA,NA,NA
qbIkSq7n,3bakuke4akpi45n0y93n6zfn3q3r1f,3dbqwde4yaby09ulxrtkppjmimt5ni,qbIkSq7n,2020-0188,2021-10-31,07:49:08,09:47:23,NA,incomplete,false,true,NA,NA,4,21,NA,white,m_s_034.jpg,NA,NA,NA,NA,NA,pleasant,unpleasant,NA,NA,NA,NA,NA,left,2307.5,true,NA,NA,NA,NA,NA,NA,NA,NA
qbIkSq7n,3bakuke4akpi45n0y93n6zfn3q3r1f,3dbqwde4yaby09ulxrtkppjmimt5ni,qbIkSq7n,2020-0188,2021-10-31,07:49:08,09:47:23,NA,incomplete,false,true,NA,NA,4,22,NA,white,m_l_097.jpg,NA,NA,NA,NA,NA,unpleasant,pleasant,NA,NA,NA,NA,NA,left,3105.70000004768,true,NA,NA,NA,NA,NA,NA,NA,NA
qbIkSq7n,3bakuke4akpi45n0y93n6zfn3q3r1f,3dbqwde4yaby09ulxrtkppjmimt5ni,qbIkSq7n,2020-0188,2021-10-31,07:49:08,09:47:23,NA,incomplete,false,true,NA,NA,4,23,NA,white,m_l_029.jpg,NA,NA,NA,NA,NA,pleasant,unpleasant,NA,NA,NA,NA,NA,left,1788.10000002384,true,NA,NA,NA,NA,NA,NA,NA,NA
qbIkSq7n,3bakuke4akpi45n0y93n6zfn3q3r1f,3dbqwde4yaby09ulxrtkppjmimt5ni,qbIkSq7n,2020-0188,2021-10-31,07:49:08,09:47:23,NA,incomplete,false,true,NA,NA,4,24,NA,green,n_s_049.jpg,NA,NA,NA,NA,NA,unpleasant,pleasant,NA,NA,NA,NA,NA,left,1957.39999997616,true,NA,NA,NA,NA,NA,NA,NA,NA
qbIkSq7n,3bakuke4akpi45n0y93n6zfn3q3r1f,3dbqwde4yaby09ulxrtkppjmimt5ni,qbIkSq7n,2020-0188,2021-10-31,07:49:08,09:47:23,NA,incomplete,false,true,NA,NA,4,25,NA,green,n_s_080.jpg,NA,NA,NA,NA,NA,pleasant,unpleasant,NA,NA,NA,NA,NA,left,2038.19999998808,true,NA,NA,NA,NA,NA,NA,NA,NA
qbIkSq7n,3bakuke4akpi45n0y93n6zfn3q3r1f,3dbqwde4yaby09ulxrtkppjmimt5ni,qbIkSq7n,2020-0188,2021-10-31,07:49:08,09:47:23,NA,incomplete,false,true,NA,NA,4,26,NA,green,m_l_115.jpg,NA,NA,NA,NA,NA,pleasant,unpleasant,NA,NA,NA,NA,NA,left,2630.69999998808,true,NA,NA,NA,NA,NA,NA,NA,NA
qbIkSq7n,3bakuke4akpi45n0y93n6zfn3q3r1f,3dbqwde4yaby09ulxrtkppjmimt5ni,qbIkSq7n,2020-0188,2021-10-31,07:49:08,09:47:23,NA,incomplete,false,true,NA,NA,4,27,NA,green,m_s_008.jpg,NA,NA,NA,NA,NA,pleasant,unpleasant,NA,NA,NA,NA,NA,left,1788.69999998808,true,NA,NA,NA,NA,NA,NA,NA,NA
qbIkSq7n,3bakuke4akpi45n0y93n6zfn3q3r1f,3dbqwde4yaby09ulxrtkppjmimt5ni,qbIkSq7n,2020-0188,2021-10-31,07:49:08,09:47:23,NA,incomplete,false,true,NA,NA,4,28,NA,green,n_s_114.jpg,NA,NA,NA,NA,NA,pleasant,unpleasant,NA,NA,NA,NA,NA,left,2485.69999998808,true,NA,NA,NA,NA,NA,NA,NA,NA
qbIkSq7n,3bakuke4akpi45n0y93n6zfn3q3r1f,3dbqwde4yaby09ulxrtkppjmimt5ni,qbIkSq7n,2020-0188,2021-10-31,07:49:08,09:47:23,NA,incomplete,false,true,NA,NA,4,29,NA,green,m_s_073.jpg,NA,NA,NA,NA,NA,unpleasant,pleasant,NA,NA,NA,NA,NA,right,1886.89999997616,true,NA,NA,NA,NA,NA,NA,NA,NA
qbIkSq7n,3bakuke4akpi45n0y93n6zfn3q3r1f,3dbqwde4yaby09ulxrtkppjmimt5ni,qbIkSq7n,2020-0188,2021-10-31,07:49:08,09:47:23,NA,incomplete,false,true,NA,NA,4,30,NA,purple,n_s_075.jpg,NA,NA,NA,NA,NA,unpleasant,pleasant,NA,NA,NA,NA,NA,none,0,false,NA,NA,NA,NA,NA,NA,NA,NA
qbIkSq7n,3bakuke4akpi45n0y93n6zfn3q3r1f,3dbqwde4yaby09ulxrtkppjmimt5ni,qbIkSq7n,2020-0188,2021-10-31,07:49:08,09:47:23,NA,incomplete,false,true,NA,NA,4,31,NA,purple,m_l_104.jpg,NA,NA,NA,NA,NA,pleasant,unpleasant,NA,NA,NA,NA,NA,left,2337.5,true,NA,NA,NA,NA,NA,NA,NA,NA
qbIkSq7n,3bakuke4akpi45n0y93n6zfn3q3r1f,3dbqwde4yaby09ulxrtkppjmimt5ni,qbIkSq7n,2020-0188,2021-10-31,07:49:08,09:47:23,NA,incomplete,false,true,NA,NA,4,32,NA,purple,m_l_066.jpg,NA,NA,NA,NA,NA,unpleasant,pleasant,NA,NA,NA,NA,NA,left,2971.60000002384,true,NA,NA,NA,NA,NA,NA,NA,NA
qbIkSq7n,3bakuke4akpi45n0y93n6zfn3q3r1f,3dbqwde4yaby09ulxrtkppjmimt5ni,qbIkSq7n,2020-0188,2021-10-31,07:49:08,09:47:23,NA,incomplete,false,true,NA,NA,4,33,NA,purple,n_s_029.jpg,NA,NA,NA,NA,NA,pleasant,unpleasant,NA,NA,NA,NA,NA,left,3181.29999995232,true,NA,NA,NA,NA,NA,NA,NA,NA
qbIkSq7n,3bakuke4akpi45n0y93n6zfn3q3r1f,3dbqwde4yaby09ulxrtkppjmimt5ni,qbIkSq7n,2020-0188,2021-10-31,07:49:08,09:47:23,NA,incomplete,false,true,NA,NA,4,34,NA,purple,n_s_103.jpg,NA,NA,NA,NA,NA,pleasant,unpleasant,NA,NA,NA,NA,NA,left,2617.5,true,NA,NA,NA,NA,NA,NA,NA,NA
qbIkSq7n,3bakuke4akpi45n0y93n6zfn3q3r1f,3dbqwde4yaby09ulxrtkppjmimt5ni,qbIkSq7n,2020-0188,2021-10-31,07:49:08,09:47:23,NA,incomplete,false,true,NA,NA,4,35,NA,purple,m_s_094.jpg,NA,NA,NA,NA,NA,pleasant,unpleasant,NA,NA,NA,NA,NA,left,2441.10000002384,true,NA,NA,NA,NA,NA,NA,NA,NA
qbIkSq7n,3bakuke4akpi45n0y93n6zfn3q3r1f,3dbqwde4yaby09ulxrtkppjmimt5ni,qbIkSq7n,2020-0188,2021-10-31,07:49:08,09:47:23,NA,incomplete,false,NA,NA,true,4,0,NA,NA,NA,left,n_l_024.jpg,yellow,white,NA,NA,NA,NA,NA,NA,NA,NA,NA,NaN,NA,7682.799999952316,left,1,NA,NA,NA,NA,NA
qbIkSq7n,3bakuke4akpi45n0y93n6zfn3q3r1f,3dbqwde4yaby09ulxrtkppjmimt5ni,qbIkSq7n,2020-0188,2021-10-31,07:49:08,09:47:23,NA,incomplete,false,NA,NA,true,4,1,NA,NA,NA,right,n_s_085.jpg,yellow,gray,NA,NA,NA,NA,NA,NA,NA,NA,NA,NaN,NA,6364.800000011921,right,1,NA,NA,NA,NA,NA
qbIkSq7n,3bakuke4akpi45n0y93n6zfn3q3r1f,3dbqwde4yaby09ulxrtkppjmimt5ni,qbIkSq7n,2020-0188,2021-10-31,07:49:08,09:47:23,NA,incomplete,false,NA,NA,true,4,2,NA,NA,NA,right,m_l_097.jpg,yellow,white,NA,NA,NA,NA,NA,NA,NA,NA,NA,NaN,NA,4995.699999988079,right,1,NA,NA,NA,NA,NA
qbIkSq7n,3bakuke4akpi45n0y93n6zfn3q3r1f,3dbqwde4yaby09ulxrtkppjmimt5ni,qbIkSq7n,2020-0188,2021-10-31,07:49:08,09:47:23,NA,incomplete,false,NA,NA,true,4,3,NA,NA,NA,right,m_l_066.jpg,green,purple,NA,NA,NA,NA,NA,NA,NA,NA,NA,NaN,NA,16072,left,0,NA,NA,NA,NA,NA
qbIkSq7n,3bakuke4akpi45n0y93n6zfn3q3r1f,3dbqwde4yaby09ulxrtkppjmimt5ni,qbIkSq7n,2020-0188,2021-10-31,07:49:08,09:47:23,NA,incomplete,false,NA,NA,true,4,4,NA,NA,NA,right,n_l_065.jpg,black,gray,NA,NA,NA,NA,NA,NA,NA,NA,NA,NaN,NA,3682.5,right,1,NA,NA,NA,NA,NA
qbIkSq7n,3bakuke4akpi45n0y93n6zfn3q3r1f,3dbqwde4yaby09ulxrtkppjmimt5ni,qbIkSq7n,2020-0188,2021-10-31,07:49:08,09:47:23,NA,incomplete,false,NA,NA,true,4,5,NA,NA,NA,right,n_l_015.jpg,green,white,NA,NA,NA,NA,NA,NA,NA,NA,NA,NaN,NA,14778.300000011921,right,1,NA,NA,NA,NA,NA
qbIkSq7n,3bakuke4akpi45n0y93n6zfn3q3r1f,3dbqwde4yaby09ulxrtkppjmimt5ni,qbIkSq7n,2020-0188,2021-10-31,07:49:08,09:47:23,NA,incomplete,false,NA,NA,true,4,6,NA,NA,NA,right,n_s_073.jpg,white,yellow,NA,NA,NA,NA,NA,NA,NA,NA,NA,NaN,NA,6213.300000011921,right,1,NA,NA,NA,NA,NA
qbIkSq7n,3bakuke4akpi45n0y93n6zfn3q3r1f,3dbqwde4yaby09ulxrtkppjmimt5ni,qbIkSq7n,2020-0188,2021-10-31,07:49:08,09:47:23,NA,incomplete,false,NA,NA,true,4,7,NA,NA,NA,right,n_s_114.jpg,purple,green,NA,NA,NA,NA,NA,NA,NA,NA,NA,NaN,NA,5547.899999976158,right,1,NA,NA,NA,NA,NA
qbIkSq7n,3bakuke4akpi45n0y93n6zfn3q3r1f,3dbqwde4yaby09ulxrtkppjmimt5ni,qbIkSq7n,2020-0188,2021-10-31,07:49:08,09:47:23,NA,incomplete,false,NA,NA,true,4,8,NA,NA,NA,left,m_s_073.jpg,green,purple,NA,NA,NA,NA,NA,NA,NA,NA,NA,NaN,NA,14379.5,left,1,NA,NA,NA,NA,NA
qbIkSq7n,3bakuke4akpi45n0y93n6zfn3q3r1f,3dbqwde4yaby09ulxrtkppjmimt5ni,qbIkSq7n,2020-0188,2021-10-31,07:49:08,09:47:23,NA,incomplete,false,NA,NA,true,4,9,NA,NA,NA,left,n_s_076.jpg,gray,black,NA,NA,NA,NA,NA,NA,NA,NA,NA,NaN,NA,15143.900000035763,left,1,NA,NA,NA,NA,NA
qbIkSq7n,3bakuke4akpi45n0y93n6zfn3q3r1f,3dbqwde4yaby09ulxrtkppjmimt5ni,qbIkSq7n,2020-0188,2021-10-31,07:49:08,09:47:23,NA,incomplete,false,NA,NA,true,4,10,NA,NA,NA,left,m_s_094.jpg,purple,green,NA,NA,NA,NA,NA,NA,NA,NA,NA,NaN,NA,23110.899999976158,right,0,NA,NA,NA,NA,NA
qbIkSq7n,3bakuke4akpi45n0y93n6zfn3q3r1f,3dbqwde4yaby09ulxrtkppjmimt5ni,qbIkSq7n,2020-0188,2021-10-31,07:49:08,09:47:23,NA,incomplete,false,NA,NA,true,4,11,NA,NA,NA,left,n_s_080.jpg,green,purple,NA,NA,NA,NA,NA,NA,NA,NA,NA,NaN,NA,4530.199999988079,left,1,NA,NA,NA,NA,NA
qbIkSq7n,3bakuke4akpi45n0y93n6zfn3q3r1f,3dbqwde4yaby09ulxrtkppjmimt5ni,qbIkSq7n,2020-0188,2021-10-31,07:49:08,09:47:23,NA,incomplete,false,NA,NA,true,4,12,NA,NA,NA,left,m_l_050.jpg,black,gray,NA,NA,NA,NA,NA,NA,NA,NA,NA,NaN,NA,3348,right,0,NA,NA,NA,NA,NA
qbIkSq7n,3bakuke4akpi45n0y93n6zfn3q3r1f,3dbqwde4yaby09ulxrtkppjmimt5ni,qbIkSq7n,2020-0188,2021-10-31,07:49:08,09:47:23,NA,incomplete,false,NA,NA,true,4,13,NA,NA,NA,left,n_l_098.jpg,white,yellow,NA,NA,NA,NA,NA,NA,NA,NA,NA,NaN,NA,9328.300000011921,right,0,NA,NA,NA,NA,NA
qbIkSq7n,3bakuke4akpi45n0y93n6zfn3q3r1f,3dbqwde4yaby09ulxrtkppjmimt5ni,qbIkSq7n,2020-0188,2021-10-31,07:49:08,09:47:23,NA,incomplete,false,NA,NA,true,4,14,NA,NA,NA,left,m_l_064.jpg,black,gray,NA,NA,NA,NA,NA,NA,NA,NA,NA,NaN,NA,3830.600000023842,right,0,NA,NA,NA,NA,NA
qbIkSq7n,3bakuke4akpi45n0y93n6zfn3q3r1f,3dbqwde4yaby09ulxrtkppjmimt5ni,qbIkSq7n,2020-0188,2021-10-31,07:49:08,09:47:23,NA,incomplete,false,NA,NA,true,4,15,NA,NA,NA,right,m_l_017.jpg,white,yellow,NA,NA,NA,NA,NA,NA,NA,NA,NA,NaN,NA,6799.899999976158,right,1,NA,NA,NA,NA,NA
qbIkSq7n,3bakuke4akpi45n0y93n6zfn3q3r1f,3dbqwde4yaby09ulxrtkppjmimt5ni,qbIkSq7n,2020-0188,2021-10-31,07:49:08,09:47:23,NA,incomplete,false,NA,NA,true,4,16,NA,NA,NA,left,m_l_115.jpg,green,purple,NA,NA,NA,NA,NA,NA,NA,NA,NA,NaN,NA,6580.300000011921,left,1,NA,NA,NA,NA,NA
qbIkSq7n,3bakuke4akpi45n0y93n6zfn3q3r1f,3dbqwde4yaby09ulxrtkppjmimt5ni,qbIkSq7n,2020-0188,2021-10-31,07:49:08,09:47:23,NA,incomplete,false,NA,NA,true,4,17,NA,NA,NA,right,m_l_104.jpg,green,purple,NA,NA,NA,NA,NA,NA,NA,NA,NA,NaN,NA,6781.400000035763,left,0,NA,NA,NA,NA,NA
qbIkSq7n,3bakuke4akpi45n0y93n6zfn3q3r1f,3dbqwde4yaby09ulxrtkppjmimt5ni,qbIkSq7n,2020-0188,2021-10-31,07:49:08,09:47:23,NA,incomplete,false,NA,NA,true,4,18,NA,NA,NA,left,n_s_018.jpg,yellow,white,NA,NA,NA,NA,NA,NA,NA,NA,NA,NaN,NA,4198.5,left,1,NA,NA,NA,NA,NA
qbIkSq7n,3bakuke4akpi45n0y93n6zfn3q3r1f,3dbqwde4yaby09ulxrtkppjmimt5ni,qbIkSq7n,2020-0188,2021-10-31,07:49:08,09:47:23,NA,incomplete,false,NA,NA,true,4,19,NA,NA,NA,right,m_l_029.jpg,green,white,NA,NA,NA,NA,NA,NA,NA,NA,NA,NaN,NA,5197,left,0,NA,NA,NA,NA,NA
qbIkSq7n,3bakuke4akpi45n0y93n6zfn3q3r1f,3dbqwde4yaby09ulxrtkppjmimt5ni,qbIkSq7n,2020-0188,2021-10-31,07:49:08,09:47:23,NA,incomplete,false,NA,NA,true,4,20,NA,NA,NA,right,m_s_099.jpg,yellow,gray,NA,NA,NA,NA,NA,NA,NA,NA,NA,NaN,NA,4279.199999988079,right,1,NA,NA,NA,NA,NA
qbIkSq7n,3bakuke4akpi45n0y93n6zfn3q3r1f,3dbqwde4yaby09ulxrtkppjmimt5ni,qbIkSq7n,2020-0188,2021-10-31,07:49:08,09:47:23,NA,incomplete,false,NA,NA,true,4,21,NA,NA,NA,right,m_s_093.jpg,gray,black,NA,NA,NA,NA,NA,NA,NA,NA,NA,NaN,NA,3750,left,0,NA,NA,NA,NA,NA
qbIkSq7n,3bakuke4akpi45n0y93n6zfn3q3r1f,3dbqwde4yaby09ulxrtkppjmimt5ni,qbIkSq7n,2020-0188,2021-10-31,07:49:08,09:47:23,NA,incomplete,false,NA,true,NA,4,0,NA,NA,NA,left,NA,NA,NA,absent,NA,NA,m_l_064.jpg,black,m_s_093.jpg,black,within,NA,NaN,NA,NA,NA,NA,left,5503.300000011921,1,1,6430.599999964237
qbIkSq7n,3bakuke4akpi45n0y93n6zfn3q3r1f,3dbqwde4yaby09ulxrtkppjmimt5ni,qbIkSq7n,2020-0188,2021-10-31,07:49:08,09:47:23,NA,incomplete,false,NA,true,NA,4,1,NA,NA,NA,right,NA,NA,NA,absent,NA,NA,n_l_098.jpg,white,n_s_018.jpg,yellow,between,NA,NaN,NA,NA,NA,NA,left,19927.400000035763,0,2,1365.300000011921
qbIkSq7n,3bakuke4akpi45n0y93n6zfn3q3r1f,3dbqwde4yaby09ulxrtkppjmimt5ni,qbIkSq7n,2020-0188,2021-10-31,07:49:08,09:47:23,NA,incomplete,false,NA,true,NA,4,2,NA,NA,NA,right,NA,NA,NA,absent,NA,NA,m_s_094.jpg,purple,m_l_104.jpg,purple,within,NA,NaN,NA,NA,NA,NA,left,15062,0,1,3061
qbIkSq7n,3bakuke4akpi45n0y93n6zfn3q3r1f,3dbqwde4yaby09ulxrtkppjmimt5ni,qbIkSq7n,2020-0188,2021-10-31,07:49:08,09:47:23,NA,incomplete,false,NA,true,NA,4,3,NA,NA,NA,left,NA,NA,NA,absent,NA,NA,n_l_024.jpg,yellow,n_s_073.jpg,yellow,within,NA,NaN,NA,NA,NA,NA,left,31713.600000023842,1,1,3515.300000011921
qbIkSq7n,3bakuke4akpi45n0y93n6zfn3q3r1f,3dbqwde4yaby09ulxrtkppjmimt5ni,qbIkSq7n,2020-0188,2021-10-31,07:49:08,09:47:23,NA,incomplete,false,NA,true,NA,4,4,NA,NA,NA,right,NA,NA,NA,absent,NA,NA,n_s_085.jpg,gray,m_s_099.jpg,gray,within,NA,NaN,NA,NA,NA,NA,right,10280.699999988079,1,1,8096.800000011921
qbIkSq7n,3bakuke4akpi45n0y93n6zfn3q3r1f,3dbqwde4yaby09ulxrtkppjmimt5ni,qbIkSq7n,2020-0188,2021-10-31,07:49:08,09:47:23,NA,incomplete,false,NA,true,NA,4,5,NA,NA,NA,left,NA,NA,NA,absent,NA,NA,m_l_050.jpg,black,n_l_065.jpg,gray,between,NA,NaN,NA,NA,NA,NA,left,7181.600000023842,1,1,5113.300000011921
qbIkSq7n,3bakuke4akpi45n0y93n6zfn3q3r1f,3dbqwde4yaby09ulxrtkppjmimt5ni,qbIkSq7n,2020-0188,2021-10-31,07:49:08,09:47:23,NA,incomplete,false,NA,true,NA,4,6,NA,NA,NA,left,NA,NA,NA,absent,NA,NA,n_l_015.jpg,white,m_l_029.jpg,white,within,NA,NaN,NA,NA,NA,NA,left,19194,1,2,5645.599999964237
qbIkSq7n,3bakuke4akpi45n0y93n6zfn3q3r1f,3dbqwde4yaby09ulxrtkppjmimt5ni,qbIkSq7n,2020-0188,2021-10-31,07:49:08,09:47:23,NA,incomplete,false,NA,true,NA,4,7,NA,NA,NA,right,NA,NA,NA,absent,NA,NA,m_s_073.jpg,green,n_s_080.jpg,green,within,NA,NaN,NA,NA,NA,NA,right,8610.800000011921,1,2,6014.099999964237
qbIkSq7n,3bakuke4akpi45n0y93n6zfn3q3r1f,3dbqwde4yaby09ulxrtkppjmimt5ni,qbIkSq7n,2020-0188,2021-10-31,07:49:08,09:47:23,NA,incomplete,false,NA,true,NA,4,8,NA,NA,NA,left,NA,NA,NA,absent,NA,NA,n_s_114.jpg,green,m_l_066.jpg,purple,between,NA,NaN,NA,NA,NA,NA,left,6462.5,1,1,2582.800000011921
qbIkSq7n,3bakuke4akpi45n0y93n6zfn3q3r1f,3dbqwde4yaby09ulxrtkppjmimt5ni,qbIkSq7n,2020-0188,2021-10-31,07:49:08,09:47:23,NA,incomplete,false,NA,true,NA,4,9,NA,NA,NA,left,NA,NA,NA,absent,NA,NA,n_s_076.jpg,gray,m_l_017.jpg,yellow,between,NA,NaN,NA,NA,NA,NA,right,11727.5,0,2,1932.699999988079
qbIkSq7n,3bakuke4akpi45n0y93n6zfn3q3r1f,3dbqwde4yaby09ulxrtkppjmimt5ni,qbIkSq7n,2020-0188,2021-10-31,07:49:08,09:47:23,NA,incomplete,false,NA,true,NA,4,10,NA,NA,NA,left,NA,NA,NA,absent,NA,NA,m_l_097.jpg,white,m_l_115.jpg,green,between,NA,NaN,NA,NA,NA,NA,left,10363.100000023842,1,2,2551.7999999523163
qbIkSq7n,3bakuke4akpi45n0y93n6zfn3q3r1f,3dbqwde4yaby09ulxrtkppjmimt5ni,qbIkSq7n,2020-0188,2021-10-31,07:49:08,09:47:23,NA,incomplete,false,true,NA,NA,5,0,NA,purple,m_l_069.jpg,NA,NA,NA,NA,NA,unpleasant,pleasant,NA,NA,NA,NA,NA,none,0,false,NA,NA,NA,NA,NA,NA,NA,NA
qbIkSq7n,3bakuke4akpi45n0y93n6zfn3q3r1f,3dbqwde4yaby09ulxrtkppjmimt5ni,qbIkSq7n,2020-0188,2021-10-31,07:49:08,09:47:23,NA,incomplete,false,true,NA,NA,5,1,NA,purple,m_s_049.jpg,NA,NA,NA,NA,NA,unpleasant,pleasant,NA,NA,NA,NA,NA,right,2481.09999996424,true,NA,NA,NA,NA,NA,NA,NA,NA
qbIkSq7n,3bakuke4akpi45n0y93n6zfn3q3r1f,3dbqwde4yaby09ulxrtkppjmimt5ni,qbIkSq7n,2020-0188,2021-10-31,07:49:08,09:47:23,NA,incomplete,false,true,NA,NA,5,2,NA,purple,m_l_061.jpg,NA,NA,NA,NA,NA,pleasant,unpleasant,NA,NA,NA,NA,NA,left,2057.5,true,NA,NA,NA,NA,NA,NA,NA,NA
qbIkSq7n,3bakuke4akpi45n0y93n6zfn3q3r1f,3dbqwde4yaby09ulxrtkppjmimt5ni,qbIkSq7n,2020-0188,2021-10-31,07:49:08,09:47:23,NA,incomplete,false,true,NA,NA,5,3,NA,purple,m_s_101.jpg,NA,NA,NA,NA,NA,pleasant,unpleasant,NA,NA,NA,NA,NA,left,3057.70000004768,true,NA,NA,NA,NA,NA,NA,NA,NA
qbIkSq7n,3bakuke4akpi45n0y93n6zfn3q3r1f,3dbqwde4yaby09ulxrtkppjmimt5ni,qbIkSq7n,2020-0188,2021-10-31,07:49:08,09:47:23,NA,incomplete,false,true,NA,NA,5,4,NA,purple,n_s_040.jpg,NA,NA,NA,NA,NA,pleasant,unpleasant,NA,NA,NA,NA,NA,right,2625.89999997616,true,NA,NA,NA,NA,NA,NA,NA,NA
qbIkSq7n,3bakuke4akpi45n0y93n6zfn3q3r1f,3dbqwde4yaby09ulxrtkppjmimt5ni,qbIkSq7n,2020-0188,2021-10-31,07:49:08,09:47:23,NA,incomplete,false,true,NA,NA,5,5,NA,purple,m_l_091.jpg,NA,NA,NA,NA,NA,unpleasant,pleasant,NA,NA,NA,NA,NA,right,3301.40000003576,true,NA,NA,NA,NA,NA,NA,NA,NA
qbIkSq7n,3bakuke4akpi45n0y93n6zfn3q3r1f,3dbqwde4yaby09ulxrtkppjmimt5ni,qbIkSq7n,2020-0188,2021-10-31,07:49:08,09:47:23,NA,incomplete,false,true,NA,NA,5,6,NA,gray,m_l_111.jpg,NA,NA,NA,NA,NA,pleasant,unpleasant,NA,NA,NA,NA,NA,left,1600.59999996424,true,NA,NA,NA,NA,NA,NA,NA,NA
qbIkSq7n,3bakuke4akpi45n0y93n6zfn3q3r1f,3dbqwde4yaby09ulxrtkppjmimt5ni,qbIkSq7n,2020-0188,2021-10-31,07:49:08,09:47:23,NA,incomplete,false,true,NA,NA,5,7,NA,gray,m_l_018.jpg,NA,NA,NA,NA,NA,pleasant,unpleasant,NA,NA,NA,NA,NA,left,1831.90000003576,true,NA,NA,NA,NA,NA,NA,NA,NA
qbIkSq7n,3bakuke4akpi45n0y93n6zfn3q3r1f,3dbqwde4yaby09ulxrtkppjmimt5ni,qbIkSq7n,2020-0188,2021-10-31,07:49:08,09:47:23,NA,incomplete,false,true,NA,NA,5,8,NA,gray,m_l_117.jpg,NA,NA,NA,NA,NA,pleasant,unpleasant,NA,NA,NA,NA,NA,left,2181,true,NA,NA,NA,NA,NA,NA,NA,NA
qbIkSq7n,3bakuke4akpi45n0y93n6zfn3q3r1f,3dbqwde4yaby09ulxrtkppjmimt5ni,qbIkSq7n,2020-0188,2021-10-31,07:49:08,09:47:23,NA,incomplete,false,true,NA,NA,5,9,NA,gray,m_l_107.jpg,NA,NA,NA,NA,NA,pleasant,unpleasant,NA,NA,NA,NA,NA,right,2550.19999998808,true,NA,NA,NA,NA,NA,NA,NA,NA
qbIkSq7n,3bakuke4akpi45n0y93n6zfn3q3r1f,3dbqwde4yaby09ulxrtkppjmimt5ni,qbIkSq7n,2020-0188,2021-10-31,07:49:08,09:47:23,NA,incomplete,false,true,NA,NA,5,10,NA,gray,n_l_018.jpg,NA,NA,NA,NA,NA,unpleasant,pleasant,NA,NA,NA,NA,NA,right,1526.80000001192,true,NA,NA,NA,NA,NA,NA,NA,NA
qbIkSq7n,3bakuke4akpi45n0y93n6zfn3q3r1f,3dbqwde4yaby09ulxrtkppjmimt5ni,qbIkSq7n,2020-0188,2021-10-31,07:49:08,09:47:23,NA,incomplete,false,true,NA,NA,5,11,NA,gray,m_l_075.jpg,NA,NA,NA,NA,NA,pleasant,unpleasant,NA,NA,NA,NA,NA,left,2134,true,NA,NA,NA,NA,NA,NA,NA,NA
qbIkSq7n,3bakuke4akpi45n0y93n6zfn3q3r1f,3dbqwde4yaby09ulxrtkppjmimt5ni,qbIkSq7n,2020-0188,2021-10-31,07:49:08,09:47:23,NA,incomplete,false,true,NA,NA,5,12,NA,white,n_l_081.jpg,NA,NA,NA,NA,NA,pleasant,unpleasant,NA,NA,NA,NA,NA,left,2639.80000001192,true,NA,NA,NA,NA,NA,NA,NA,NA
qbIkSq7n,3bakuke4akpi45n0y93n6zfn3q3r1f,3dbqwde4yaby09ulxrtkppjmimt5ni,qbIkSq7n,2020-0188,2021-10-31,07:49:08,09:47:23,NA,incomplete,false,true,NA,NA,5,13,NA,white,m_s_105.jpg,NA,NA,NA,NA,NA,pleasant,unpleasant,NA,NA,NA,NA,NA,left,1476.59999996424,true,NA,NA,NA,NA,NA,NA,NA,NA
qbIkSq7n,3bakuke4akpi45n0y93n6zfn3q3r1f,3dbqwde4yaby09ulxrtkppjmimt5ni,qbIkSq7n,2020-0188,2021-10-31,07:49:08,09:47:23,NA,incomplete,false,true,NA,NA,5,14,NA,white,n_s_101.jpg,NA,NA,NA,NA,NA,pleasant,unpleasant,NA,NA,NA,NA,NA,none,0,false,NA,NA,NA,NA,NA,NA,NA,NA
qbIkSq7n,3bakuke4akpi45n0y93n6zfn3q3r1f,3dbqwde4yaby09ulxrtkppjmimt5ni,qbIkSq7n,2020-0188,2021-10-31,07:49:08,09:47:23,NA,incomplete,false,true,NA,NA,5,15,NA,white,m_l_068.jpg,NA,NA,NA,NA,NA,unpleasant,pleasant,NA,NA,NA,NA,NA,right,3001,true,NA,NA,NA,NA,NA,NA,NA,NA
qbIkSq7n,3bakuke4akpi45n0y93n6zfn3q3r1f,3dbqwde4yaby09ulxrtkppjmimt5ni,qbIkSq7n,2020-0188,2021-10-31,07:49:08,09:47:23,NA,incomplete,false,true,NA,NA,5,16,NA,white,m_l_092.jpg,NA,NA,NA,NA,NA,unpleasant,pleasant,NA,NA,NA,NA,NA,right,2774.80000001192,true,NA,NA,NA,NA,NA,NA,NA,NA
