workerId,hitId,assignmentId,subject,studyid,exp_date,exp_start,exp_end,time_start,time_end,practice,encoding,memory,association,block,trial,event_order,event,stim,answer,object,left_context,right_context,context_type,label_left,label_right,left_image,left_event,right_image,right_event,condition,response,response_time,response_acc,association_response_time,association_response,association_acc,order_response,order_response_time,order_acc,distance_response,distance_response_time
Ikt4E84y,3bawbgqgzoco8yjjw9p686v3rigv79,3dhe4r9oc0o0rkucs4er1y7dxzc2g0,Ikt4E84y,2020-0188,2021-10-31,02:43:41,04:15:28,NA,incomplete,true,true,NA,NA,0,0,NA,purple,n_s_081.jpg,NA,NA,NA,NA,NA,pleasant,unpleasant,NA,NA,NA,NA,NA,left,2008.20000004768,true,NA,NA,NA,NA,NA,NA,NA,NA
Ikt4E84y,3bawbgqgzoco8yjjw9p686v3rigv79,3dhe4r9oc0o0rkucs4er1y7dxzc2g0,Ikt4E84y,2020-0188,2021-10-31,02:43:41,04:15:28,NA,incomplete,true,true,NA,NA,0,1,NA,purple,m_s_015.jpg,NA,NA,NA,NA,NA,unpleasant,pleasant,NA,NA,NA,NA,NA,left,1255.10000014305,true,NA,NA,NA,NA,NA,NA,NA,NA
Ikt4E84y,3bawbgqgzoco8yjjw9p686v3rigv79,3dhe4r9oc0o0rkucs4er1y7dxzc2g0,Ikt4E84y,2020-0188,2021-10-31,02:43:41,04:15:28,NA,incomplete,true,true,NA,NA,0,2,NA,purple,m_l_018.jpg,NA,NA,NA,NA,NA,pleasant,unpleasant,NA,NA,NA,NA,NA,left,1652.70000004768,true,NA,NA,NA,NA,NA,NA,NA,NA
Ikt4E84y,3bawbgqgzoco8yjjw9p686v3rigv79,3dhe4r9oc0o0rkucs4er1y7dxzc2g0,Ikt4E84y,2020-0188,2021-10-31,02:43:41,04:15:28,NA,incomplete,true,true,NA,NA,0,3,NA,purple,n_l_099.jpg,NA,NA,NA,NA,NA,unpleasant,pleasant,NA,NA,NA,NA,NA,right,1759.39999985695,true,NA,NA,NA,NA,NA,NA,NA,NA
Ikt4E84y,3bawbgqgzoco8yjjw9p686v3rigv79,3dhe4r9oc0o0rkucs4er1y7dxzc2g0,Ikt4E84y,2020-0188,2021-10-31,02:43:41,04:15:28,NA,incomplete,true,true,NA,NA,0,4,NA,purple,m_l_103.jpg,NA,NA,NA,NA,NA,unpleasant,pleasant,NA,NA,NA,NA,NA,right,2090.79999995232,true,NA,NA,NA,NA,NA,NA,NA,NA
Ikt4E84y,3bawbgqgzoco8yjjw9p686v3rigv79,3dhe4r9oc0o0rkucs4er1y7dxzc2g0,Ikt4E84y,2020-0188,2021-10-31,02:43:41,04:15:28,NA,incomplete,true,true,NA,NA,0,5,NA,purple,m_l_043.jpg,NA,NA,NA,NA,NA,pleasant,unpleasant,NA,NA,NA,NA,NA,left,1732.40000009537,true,NA,NA,NA,NA,NA,NA,NA,NA
Ikt4E84y,3bawbgqgzoco8yjjw9p686v3rigv79,3dhe4r9oc0o0rkucs4er1y7dxzc2g0,Ikt4E84y,2020-0188,2021-10-31,02:43:41,04:15:28,NA,incomplete,true,true,NA,NA,0,6,NA,green,m_s_100.jpg,NA,NA,NA,NA,NA,pleasant,unpleasant,NA,NA,NA,NA,NA,left,2542.40000009537,true,NA,NA,NA,NA,NA,NA,NA,NA
Ikt4E84y,3bawbgqgzoco8yjjw9p686v3rigv79,3dhe4r9oc0o0rkucs4er1y7dxzc2g0,Ikt4E84y,2020-0188,2021-10-31,02:43:41,04:15:28,NA,incomplete,true,true,NA,NA,0,7,NA,green,n_s_111.jpg,NA,NA,NA,NA,NA,unpleasant,pleasant,NA,NA,NA,NA,NA,left,2660.70000004768,true,NA,NA,NA,NA,NA,NA,NA,NA
Ikt4E84y,3bawbgqgzoco8yjjw9p686v3rigv79,3dhe4r9oc0o0rkucs4er1y7dxzc2g0,Ikt4E84y,2020-0188,2021-10-31,02:43:41,04:15:28,NA,incomplete,true,true,NA,NA,0,8,NA,green,n_l_114.jpg,NA,NA,NA,NA,NA,unpleasant,pleasant,NA,NA,NA,NA,NA,left,1891.79999995232,true,NA,NA,NA,NA,NA,NA,NA,NA
Ikt4E84y,3bawbgqgzoco8yjjw9p686v3rigv79,3dhe4r9oc0o0rkucs4er1y7dxzc2g0,Ikt4E84y,2020-0188,2021-10-31,02:43:41,04:15:28,NA,incomplete,true,true,NA,NA,0,9,NA,green,n_l_088.jpg,NA,NA,NA,NA,NA,pleasant,unpleasant,NA,NA,NA,NA,NA,left,1943.40000009537,true,NA,NA,NA,NA,NA,NA,NA,NA
Ikt4E84y,3bawbgqgzoco8yjjw9p686v3rigv79,3dhe4r9oc0o0rkucs4er1y7dxzc2g0,Ikt4E84y,2020-0188,2021-10-31,02:43:41,04:15:28,NA,incomplete,true,true,NA,NA,0,10,NA,green,m_s_051.jpg,NA,NA,NA,NA,NA,pleasant,unpleasant,NA,NA,NA,NA,NA,right,1761.90000009537,true,NA,NA,NA,NA,NA,NA,NA,NA
Ikt4E84y,3bawbgqgzoco8yjjw9p686v3rigv79,3dhe4r9oc0o0rkucs4er1y7dxzc2g0,Ikt4E84y,2020-0188,2021-10-31,02:43:41,04:15:28,NA,incomplete,true,true,NA,NA,0,11,NA,green,n_l_023.jpg,NA,NA,NA,NA,NA,unpleasant,pleasant,NA,NA,NA,NA,NA,right,1697.70000004768,true,NA,NA,NA,NA,NA,NA,NA,NA
Ikt4E84y,3bawbgqgzoco8yjjw9p686v3rigv79,3dhe4r9oc0o0rkucs4er1y7dxzc2g0,Ikt4E84y,2020-0188,2021-10-31,02:43:41,04:15:28,NA,incomplete,true,true,NA,NA,0,12,NA,yellow,m_s_013.jpg,NA,NA,NA,NA,NA,unpleasant,pleasant,NA,NA,NA,NA,NA,left,2862.5,true,NA,NA,NA,NA,NA,NA,NA,NA
Ikt4E84y,3bawbgqgzoco8yjjw9p686v3rigv79,3dhe4r9oc0o0rkucs4er1y7dxzc2g0,Ikt4E84y,2020-0188,2021-10-31,02:43:41,04:15:28,NA,incomplete,true,true,NA,NA,0,13,NA,yellow,n_s_029.jpg,NA,NA,NA,NA,NA,pleasant,unpleasant,NA,NA,NA,NA,NA,right,2153.70000004768,true,NA,NA,NA,NA,NA,NA,NA,NA
Ikt4E84y,3bawbgqgzoco8yjjw9p686v3rigv79,3dhe4r9oc0o0rkucs4er1y7dxzc2g0,Ikt4E84y,2020-0188,2021-10-31,02:43:41,04:15:28,NA,incomplete,true,true,NA,NA,0,14,NA,yellow,m_l_114.jpg,NA,NA,NA,NA,NA,pleasant,unpleasant,NA,NA,NA,NA,NA,right,2249,true,NA,NA,NA,NA,NA,NA,NA,NA
Ikt4E84y,3bawbgqgzoco8yjjw9p686v3rigv79,3dhe4r9oc0o0rkucs4er1y7dxzc2g0,Ikt4E84y,2020-0188,2021-10-31,02:43:41,04:15:28,NA,incomplete,true,true,NA,NA,0,15,NA,yellow,m_l_109.jpg,NA,NA,NA,NA,NA,pleasant,unpleasant,NA,NA,NA,NA,NA,right,2018.90000009537,true,NA,NA,NA,NA,NA,NA,NA,NA
Ikt4E84y,3bawbgqgzoco8yjjw9p686v3rigv79,3dhe4r9oc0o0rkucs4er1y7dxzc2g0,Ikt4E84y,2020-0188,2021-10-31,02:43:41,04:15:28,NA,incomplete,true,true,NA,NA,0,16,NA,yellow,m_l_066.jpg,NA,NA,NA,NA,NA,pleasant,unpleasant,NA,NA,NA,NA,NA,left,2551.79999995232,true,NA,NA,NA,NA,NA,NA,NA,NA
Ikt4E84y,3bawbgqgzoco8yjjw9p686v3rigv79,3dhe4r9oc0o0rkucs4er1y7dxzc2g0,Ikt4E84y,2020-0188,2021-10-31,02:43:41,04:15:28,NA,incomplete,true,true,NA,NA,0,17,NA,yellow,m_s_067.jpg,NA,NA,NA,NA,NA,pleasant,unpleasant,NA,NA,NA,NA,NA,right,2713,true,NA,NA,NA,NA,NA,NA,NA,NA
Ikt4E84y,3bawbgqgzoco8yjjw9p686v3rigv79,3dhe4r9oc0o0rkucs4er1y7dxzc2g0,Ikt4E84y,2020-0188,2021-10-31,02:43:41,04:15:28,NA,incomplete,true,true,NA,NA,0,18,NA,red,n_s_045.jpg,NA,NA,NA,NA,NA,pleasant,unpleasant,NA,NA,NA,NA,NA,right,2064.29999995232,true,NA,NA,NA,NA,NA,NA,NA,NA
Ikt4E84y,3bawbgqgzoco8yjjw9p686v3rigv79,3dhe4r9oc0o0rkucs4er1y7dxzc2g0,Ikt4E84y,2020-0188,2021-10-31,02:43:41,04:15:28,NA,incomplete,true,true,NA,NA,0,19,NA,red,m_s_115.jpg,NA,NA,NA,NA,NA,unpleasant,pleasant,NA,NA,NA,NA,NA,left,2322.10000014305,true,NA,NA,NA,NA,NA,NA,NA,NA
Ikt4E84y,3bawbgqgzoco8yjjw9p686v3rigv79,3dhe4r9oc0o0rkucs4er1y7dxzc2g0,Ikt4E84y,2020-0188,2021-10-31,02:43:41,04:15:28,NA,incomplete,true,true,NA,NA,0,20,NA,red,m_s_005.jpg,NA,NA,NA,NA,NA,pleasant,unpleasant,NA,NA,NA,NA,NA,right,1655.5,true,NA,NA,NA,NA,NA,NA,NA,NA
Ikt4E84y,3bawbgqgzoco8yjjw9p686v3rigv79,3dhe4r9oc0o0rkucs4er1y7dxzc2g0,Ikt4E84y,2020-0188,2021-10-31,02:43:41,04:15:28,NA,incomplete,true,true,NA,NA,0,21,NA,red,n_s_043.jpg,NA,NA,NA,NA,NA,pleasant,unpleasant,NA,NA,NA,NA,NA,right,1895.79999995232,true,NA,NA,NA,NA,NA,NA,NA,NA
Ikt4E84y,3bawbgqgzoco8yjjw9p686v3rigv79,3dhe4r9oc0o0rkucs4er1y7dxzc2g0,Ikt4E84y,2020-0188,2021-10-31,02:43:41,04:15:28,NA,incomplete,true,true,NA,NA,0,22,NA,red,m_l_055.jpg,NA,NA,NA,NA,NA,unpleasant,pleasant,NA,NA,NA,NA,NA,right,1464.89999985695,true,NA,NA,NA,NA,NA,NA,NA,NA
Ikt4E84y,3bawbgqgzoco8yjjw9p686v3rigv79,3dhe4r9oc0o0rkucs4er1y7dxzc2g0,Ikt4E84y,2020-0188,2021-10-31,02:43:41,04:15:28,NA,incomplete,true,true,NA,NA,0,23,NA,red,n_s_046.jpg,NA,NA,NA,NA,NA,pleasant,unpleasant,NA,NA,NA,NA,NA,right,1594.5,true,NA,NA,NA,NA,NA,NA,NA,NA
Ikt4E84y,3bawbgqgzoco8yjjw9p686v3rigv79,3dhe4r9oc0o0rkucs4er1y7dxzc2g0,Ikt4E84y,2020-0188,2021-10-31,02:43:41,04:15:28,NA,incomplete,true,true,NA,NA,0,24,NA,black,n_s_061.jpg,NA,NA,NA,NA,NA,pleasant,unpleasant,NA,NA,NA,NA,NA,right,1864.5,true,NA,NA,NA,NA,NA,NA,NA,NA
Ikt4E84y,3bawbgqgzoco8yjjw9p686v3rigv79,3dhe4r9oc0o0rkucs4er1y7dxzc2g0,Ikt4E84y,2020-0188,2021-10-31,02:43:41,04:15:28,NA,incomplete,true,true,NA,NA,0,25,NA,black,m_l_039.jpg,NA,NA,NA,NA,NA,unpleasant,pleasant,NA,NA,NA,NA,NA,left,2283.79999995232,true,NA,NA,NA,NA,NA,NA,NA,NA
Ikt4E84y,3bawbgqgzoco8yjjw9p686v3rigv79,3dhe4r9oc0o0rkucs4er1y7dxzc2g0,Ikt4E84y,2020-0188,2021-10-31,02:43:41,04:15:28,NA,incomplete,true,true,NA,NA,0,26,NA,black,m_l_030.jpg,NA,NA,NA,NA,NA,pleasant,unpleasant,NA,NA,NA,NA,NA,right,1645.19999980927,true,NA,NA,NA,NA,NA,NA,NA,NA
Ikt4E84y,3bawbgqgzoco8yjjw9p686v3rigv79,3dhe4r9oc0o0rkucs4er1y7dxzc2g0,Ikt4E84y,2020-0188,2021-10-31,02:43:41,04:15:28,NA,incomplete,true,true,NA,NA,0,27,NA,black,n_s_011.jpg,NA,NA,NA,NA,NA,unpleasant,pleasant,NA,NA,NA,NA,NA,left,2028.39999985695,true,NA,NA,NA,NA,NA,NA,NA,NA
Ikt4E84y,3bawbgqgzoco8yjjw9p686v3rigv79,3dhe4r9oc0o0rkucs4er1y7dxzc2g0,Ikt4E84y,2020-0188,2021-10-31,02:43:41,04:15:28,NA,incomplete,true,true,NA,NA,0,28,NA,black,m_l_078.jpg,NA,NA,NA,NA,NA,pleasant,unpleasant,NA,NA,NA,NA,NA,right,1726.29999995232,true,NA,NA,NA,NA,NA,NA,NA,NA
Ikt4E84y,3bawbgqgzoco8yjjw9p686v3rigv79,3dhe4r9oc0o0rkucs4er1y7dxzc2g0,Ikt4E84y,2020-0188,2021-10-31,02:43:41,04:15:28,NA,incomplete,true,true,NA,NA,0,29,NA,black,m_s_108.jpg,NA,NA,NA,NA,NA,unpleasant,pleasant,NA,NA,NA,NA,NA,left,1817.10000014305,true,NA,NA,NA,NA,NA,NA,NA,NA
Ikt4E84y,3bawbgqgzoco8yjjw9p686v3rigv79,3dhe4r9oc0o0rkucs4er1y7dxzc2g0,Ikt4E84y,2020-0188,2021-10-31,02:43:41,04:15:28,NA,incomplete,true,true,NA,NA,0,30,NA,white,n_l_051.jpg,NA,NA,NA,NA,NA,unpleasant,pleasant,NA,NA,NA,NA,NA,right,2844.89999985695,true,NA,NA,NA,NA,NA,NA,NA,NA
Ikt4E84y,3bawbgqgzoco8yjjw9p686v3rigv79,3dhe4r9oc0o0rkucs4er1y7dxzc2g0,Ikt4E84y,2020-0188,2021-10-31,02:43:41,04:15:28,NA,incomplete,true,true,NA,NA,0,31,NA,white,n_s_009.jpg,NA,NA,NA,NA,NA,pleasant,unpleasant,NA,NA,NA,NA,NA,left,1771.09999990463,true,NA,NA,NA,NA,NA,NA,NA,NA
Ikt4E84y,3bawbgqgzoco8yjjw9p686v3rigv79,3dhe4r9oc0o0rkucs4er1y7dxzc2g0,Ikt4E84y,2020-0188,2021-10-31,02:43:41,04:15:28,NA,incomplete,true,true,NA,NA,0,32,NA,white,m_s_070.jpg,NA,NA,NA,NA,NA,pleasant,unpleasant,NA,NA,NA,NA,NA,right,1749.29999995232,true,NA,NA,NA,NA,NA,NA,NA,NA
Ikt4E84y,3bawbgqgzoco8yjjw9p686v3rigv79,3dhe4r9oc0o0rkucs4er1y7dxzc2g0,Ikt4E84y,2020-0188,2021-10-31,02:43:41,04:15:28,NA,incomplete,true,true,NA,NA,0,33,NA,white,m_l_113.jpg,NA,NA,NA,NA,NA,unpleasant,pleasant,NA,NA,NA,NA,NA,right,2710.5,true,NA,NA,NA,NA,NA,NA,NA,NA
Ikt4E84y,3bawbgqgzoco8yjjw9p686v3rigv79,3dhe4r9oc0o0rkucs4er1y7dxzc2g0,Ikt4E84y,2020-0188,2021-10-31,02:43:41,04:15:28,NA,incomplete,true,true,NA,NA,0,34,NA,white,n_l_076.jpg,NA,NA,NA,NA,NA,unpleasant,pleasant,NA,NA,NA,NA,NA,left,2006.5,true,NA,NA,NA,NA,NA,NA,NA,NA
Ikt4E84y,3bawbgqgzoco8yjjw9p686v3rigv79,3dhe4r9oc0o0rkucs4er1y7dxzc2g0,Ikt4E84y,2020-0188,2021-10-31,02:43:41,04:15:28,NA,incomplete,true,true,NA,NA,0,35,NA,white,m_l_074.jpg,NA,NA,NA,NA,NA,unpleasant,pleasant,NA,NA,NA,NA,NA,right,2093.5,true,NA,NA,NA,NA,NA,NA,NA,NA
Ikt4E84y,3bawbgqgzoco8yjjw9p686v3rigv79,3dhe4r9oc0o0rkucs4er1y7dxzc2g0,Ikt4E84y,2020-0188,2021-10-31,02:43:41,04:15:28,NA,incomplete,true,NA,NA,true,0,0,NA,NA,NA,left,m_s_070.jpg,white,black,NA,NA,NA,NA,NA,NA,NA,NA,NA,NaN,NA,9794,left,1,NA,NA,NA,NA,NA
Ikt4E84y,3bawbgqgzoco8yjjw9p686v3rigv79,3dhe4r9oc0o0rkucs4er1y7dxzc2g0,Ikt4E84y,2020-0188,2021-10-31,02:43:41,04:15:28,NA,incomplete,true,NA,NA,true,0,1,NA,NA,NA,right,m_l_114.jpg,red,yellow,NA,NA,NA,NA,NA,NA,NA,NA,NA,NaN,NA,5988.400000095367,left,0,NA,NA,NA,NA,NA
Ikt4E84y,3bawbgqgzoco8yjjw9p686v3rigv79,3dhe4r9oc0o0rkucs4er1y7dxzc2g0,Ikt4E84y,2020-0188,2021-10-31,02:43:41,04:15:28,NA,incomplete,true,NA,NA,true,0,2,NA,NA,NA,right,n_l_023.jpg,purple,green,NA,NA,NA,NA,NA,NA,NA,NA,NA,NaN,NA,4462.900000095367,right,1,NA,NA,NA,NA,NA
Ikt4E84y,3bawbgqgzoco8yjjw9p686v3rigv79,3dhe4r9oc0o0rkucs4er1y7dxzc2g0,Ikt4E84y,2020-0188,2021-10-31,02:43:41,04:15:28,NA,incomplete,true,NA,NA,true,0,3,NA,NA,NA,left,m_s_051.jpg,green,yellow,NA,NA,NA,NA,NA,NA,NA,NA,NA,NaN,NA,6470.899999856949,right,0,NA,NA,NA,NA,NA
Ikt4E84y,3bawbgqgzoco8yjjw9p686v3rigv79,3dhe4r9oc0o0rkucs4er1y7dxzc2g0,Ikt4E84y,2020-0188,2021-10-31,02:43:41,04:15:28,NA,incomplete,true,NA,NA,true,0,4,NA,NA,NA,right,m_s_115.jpg,black,red,NA,NA,NA,NA,NA,NA,NA,NA,NA,NaN,NA,5586.599999904633,right,1,NA,NA,NA,NA,NA
Ikt4E84y,3bawbgqgzoco8yjjw9p686v3rigv79,3dhe4r9oc0o0rkucs4er1y7dxzc2g0,Ikt4E84y,2020-0188,2021-10-31,02:43:41,04:15:28,NA,incomplete,true,NA,NA,true,0,5,NA,NA,NA,left,m_l_043.jpg,purple,green,NA,NA,NA,NA,NA,NA,NA,NA,NA,NaN,NA,12661.200000047684,left,1,NA,NA,NA,NA,NA
Ikt4E84y,3bawbgqgzoco8yjjw9p686v3rigv79,3dhe4r9oc0o0rkucs4er1y7dxzc2g0,Ikt4E84y,2020-0188,2021-10-31,02:43:41,04:15:28,NA,incomplete,true,NA,NA,true,0,6,NA,NA,NA,right,m_l_074.jpg,black,white,NA,NA,NA,NA,NA,NA,NA,NA,NA,NaN,NA,3666.5999999046326,right,1,NA,NA,NA,NA,NA
Ikt4E84y,3bawbgqgzoco8yjjw9p686v3rigv79,3dhe4r9oc0o0rkucs4er1y7dxzc2g0,Ikt4E84y,2020-0188,2021-10-31,02:43:41,04:15:28,NA,incomplete,true,NA,NA,true,0,7,NA,NA,NA,right,n_s_111.jpg,purple,green,NA,NA,NA,NA,NA,NA,NA,NA,NA,NaN,NA,3280.5,right,1,NA,NA,NA,NA,NA
Ikt4E84y,3bawbgqgzoco8yjjw9p686v3rigv79,3dhe4r9oc0o0rkucs4er1y7dxzc2g0,Ikt4E84y,2020-0188,2021-10-31,02:43:41,04:15:28,NA,incomplete,true,NA,NA,true,0,8,NA,NA,NA,left,m_l_066.jpg,yellow,red,NA,NA,NA,NA,NA,NA,NA,NA,NA,NaN,NA,9670.100000143051,right,0,NA,NA,NA,NA,NA
Ikt4E84y,3bawbgqgzoco8yjjw9p686v3rigv79,3dhe4r9oc0o0rkucs4er1y7dxzc2g0,Ikt4E84y,2020-0188,2021-10-31,02:43:41,04:15:28,NA,incomplete,true,NA,NA,true,0,9,NA,NA,NA,left,m_l_055.jpg,red,yellow,NA,NA,NA,NA,NA,NA,NA,NA,NA,NaN,NA,12143.200000047684,left,1,NA,NA,NA,NA,NA
Ikt4E84y,3bawbgqgzoco8yjjw9p686v3rigv79,3dhe4r9oc0o0rkucs4er1y7dxzc2g0,Ikt4E84y,2020-0188,2021-10-31,02:43:41,04:15:28,NA,incomplete,true,NA,NA,true,0,10,NA,NA,NA,left,m_s_005.jpg,red,yellow,NA,NA,NA,NA,NA,NA,NA,NA,NA,NaN,NA,3305.5999999046326,right,0,NA,NA,NA,NA,NA
Ikt4E84y,3bawbgqgzoco8yjjw9p686v3rigv79,3dhe4r9oc0o0rkucs4er1y7dxzc2g0,Ikt4E84y,2020-0188,2021-10-31,02:43:41,04:15:28,NA,incomplete,true,NA,NA,true,0,11,NA,NA,NA,right,n_s_046.jpg,black,red,NA,NA,NA,NA,NA,NA,NA,NA,NA,NaN,NA,3059.399999856949,left,0,NA,NA,NA,NA,NA
Ikt4E84y,3bawbgqgzoco8yjjw9p686v3rigv79,3dhe4r9oc0o0rkucs4er1y7dxzc2g0,Ikt4E84y,2020-0188,2021-10-31,02:43:41,04:15:28,NA,incomplete,true,NA,NA,true,0,12,NA,NA,NA,right,n_l_114.jpg,purple,green,NA,NA,NA,NA,NA,NA,NA,NA,NA,NaN,NA,4330.5,right,1,NA,NA,NA,NA,NA
Ikt4E84y,3bawbgqgzoco8yjjw9p686v3rigv79,3dhe4r9oc0o0rkucs4er1y7dxzc2g0,Ikt4E84y,2020-0188,2021-10-31,02:43:41,04:15:28,NA,incomplete,true,NA,NA,true,0,13,NA,NA,NA,left,m_l_039.jpg,black,white,NA,NA,NA,NA,NA,NA,NA,NA,NA,NaN,NA,4934.5,right,0,NA,NA,NA,NA,NA
Ikt4E84y,3bawbgqgzoco8yjjw9p686v3rigv79,3dhe4r9oc0o0rkucs4er1y7dxzc2g0,Ikt4E84y,2020-0188,2021-10-31,02:43:41,04:15:28,NA,incomplete,true,NA,NA,true,0,14,NA,NA,NA,left,m_s_108.jpg,black,red,NA,NA,NA,NA,NA,NA,NA,NA,NA,NaN,NA,3854.899999856949,right,0,NA,NA,NA,NA,NA
Ikt4E84y,3bawbgqgzoco8yjjw9p686v3rigv79,3dhe4r9oc0o0rkucs4er1y7dxzc2g0,Ikt4E84y,2020-0188,2021-10-31,02:43:41,04:15:28,NA,incomplete,true,NA,NA,true,0,15,NA,NA,NA,right,m_l_078.jpg,red,black,NA,NA,NA,NA,NA,NA,NA,NA,NA,NaN,NA,2788.5999999046326,right,1,NA,NA,NA,NA,NA
Ikt4E84y,3bawbgqgzoco8yjjw9p686v3rigv79,3dhe4r9oc0o0rkucs4er1y7dxzc2g0,Ikt4E84y,2020-0188,2021-10-31,02:43:41,04:15:28,NA,incomplete,true,NA,NA,true,0,16,NA,NA,NA,left,m_l_030.jpg,black,white,NA,NA,NA,NA,NA,NA,NA,NA,NA,NaN,NA,5053,left,1,NA,NA,NA,NA,NA
Ikt4E84y,3bawbgqgzoco8yjjw9p686v3rigv79,3dhe4r9oc0o0rkucs4er1y7dxzc2g0,Ikt4E84y,2020-0188,2021-10-31,02:43:41,04:15:28,NA,incomplete,true,NA,NA,true,0,17,NA,NA,NA,right,m_l_103.jpg,green,purple,NA,NA,NA,NA,NA,NA,NA,NA,NA,NaN,NA,2971.199999809265,right,1,NA,NA,NA,NA,NA
Ikt4E84y,3bawbgqgzoco8yjjw9p686v3rigv79,3dhe4r9oc0o0rkucs4er1y7dxzc2g0,Ikt4E84y,2020-0188,2021-10-31,02:43:41,04:15:28,NA,incomplete,true,NA,NA,true,0,18,NA,NA,NA,right,m_s_015.jpg,green,purple,NA,NA,NA,NA,NA,NA,NA,NA,NA,NaN,NA,2916,right,1,NA,NA,NA,NA,NA
Ikt4E84y,3bawbgqgzoco8yjjw9p686v3rigv79,3dhe4r9oc0o0rkucs4er1y7dxzc2g0,Ikt4E84y,2020-0188,2021-10-31,02:43:41,04:15:28,NA,incomplete,true,NA,NA,true,0,19,NA,NA,NA,right,n_s_009.jpg,black,white,NA,NA,NA,NA,NA,NA,NA,NA,NA,NaN,NA,4550,left,0,NA,NA,NA,NA,NA
Ikt4E84y,3bawbgqgzoco8yjjw9p686v3rigv79,3dhe4r9oc0o0rkucs4er1y7dxzc2g0,Ikt4E84y,2020-0188,2021-10-31,02:43:41,04:15:28,NA,incomplete,true,NA,NA,true,0,20,NA,NA,NA,left,n_s_029.jpg,yellow,green,NA,NA,NA,NA,NA,NA,NA,NA,NA,NaN,NA,3832.2000000476837,left,1,NA,NA,NA,NA,NA
Ikt4E84y,3bawbgqgzoco8yjjw9p686v3rigv79,3dhe4r9oc0o0rkucs4er1y7dxzc2g0,Ikt4E84y,2020-0188,2021-10-31,02:43:41,04:15:28,NA,incomplete,true,NA,NA,true,0,21,NA,NA,NA,right,m_s_067.jpg,red,yellow,NA,NA,NA,NA,NA,NA,NA,NA,NA,NaN,NA,4640.400000095367,left,0,NA,NA,NA,NA,NA
Ikt4E84y,3bawbgqgzoco8yjjw9p686v3rigv79,3dhe4r9oc0o0rkucs4er1y7dxzc2g0,Ikt4E84y,2020-0188,2021-10-31,02:43:41,04:15:28,NA,incomplete,true,NA,true,NA,0,0,NA,NA,NA,left,NA,NA,NA,absent,NA,NA,m_l_055.jpg,red,m_l_030.jpg,black,between,NA,NaN,NA,NA,NA,NA,left,10112,1,2,8557.900000095367
Ikt4E84y,3bawbgqgzoco8yjjw9p686v3rigv79,3dhe4r9oc0o0rkucs4er1y7dxzc2g0,Ikt4E84y,2020-0188,2021-10-31,02:43:41,04:15:28,NA,incomplete,true,NA,true,NA,0,1,NA,NA,NA,left,NA,NA,NA,absent,NA,NA,n_s_029.jpg,yellow,m_s_067.jpg,yellow,within,NA,NaN,NA,NA,NA,NA,left,8817.400000095367,1,2,1634.6999998092651
Ikt4E84y,3bawbgqgzoco8yjjw9p686v3rigv79,3dhe4r9oc0o0rkucs4er1y7dxzc2g0,Ikt4E84y,2020-0188,2021-10-31,02:43:41,04:15:28,NA,incomplete,true,NA,true,NA,0,2,NA,NA,NA,right,NA,NA,NA,absent,NA,NA,m_l_114.jpg,yellow,m_s_051.jpg,green,between,NA,NaN,NA,NA,NA,NA,left,10687.299999952316,0,1,1975
Ikt4E84y,3bawbgqgzoco8yjjw9p686v3rigv79,3dhe4r9oc0o0rkucs4er1y7dxzc2g0,Ikt4E84y,2020-0188,2021-10-31,02:43:41,04:15:28,NA,incomplete,true,NA,true,NA,0,3,NA,NA,NA,left,NA,NA,NA,absent,NA,NA,m_l_078.jpg,black,m_s_070.jpg,white,between,NA,NaN,NA,NA,NA,NA,left,3826.7000000476837,1,1,1478.3999998569489
Ikt4E84y,3bawbgqgzoco8yjjw9p686v3rigv79,3dhe4r9oc0o0rkucs4er1y7dxzc2g0,Ikt4E84y,2020-0188,2021-10-31,02:43:41,04:15:28,NA,incomplete,true,NA,true,NA,0,4,NA,NA,NA,right,NA,NA,NA,absent,NA,NA,m_s_108.jpg,black,m_l_039.jpg,black,within,NA,NaN,NA,NA,NA,NA,right,7227.300000190735,1,2,1615.4000000953674
Ikt4E84y,3bawbgqgzoco8yjjw9p686v3rigv79,3dhe4r9oc0o0rkucs4er1y7dxzc2g0,Ikt4E84y,2020-0188,2021-10-31,02:43:41,04:15:28,NA,incomplete,true,NA,true,NA,0,5,NA,NA,NA,left,NA,NA,NA,absent,NA,NA,m_l_066.jpg,yellow,m_s_005.jpg,red,between,NA,NaN,NA,NA,NA,NA,left,4750.199999809265,1,3,1690.2999999523163
Ikt4E84y,3bawbgqgzoco8yjjw9p686v3rigv79,3dhe4r9oc0o0rkucs4er1y7dxzc2g0,Ikt4E84y,2020-0188,2021-10-31,02:43:41,04:15:28,NA,incomplete,true,NA,true,NA,0,6,NA,NA,NA,right,NA,NA,NA,absent,NA,NA,m_l_074.jpg,white,n_s_009.jpg,white,within,NA,NaN,NA,NA,NA,NA,right,6840.600000143051,1,1,1530.6000001430511
Ikt4E84y,3bawbgqgzoco8yjjw9p686v3rigv79,3dhe4r9oc0o0rkucs4er1y7dxzc2g0,Ikt4E84y,2020-0188,2021-10-31,02:43:41,04:15:28,NA,incomplete,true,NA,true,NA,0,7,NA,NA,NA,right,NA,NA,NA,absent,NA,NA,n_l_114.jpg,green,m_l_103.jpg,purple,between,NA,NaN,NA,NA,NA,NA,left,5513.100000143051,0,3,1543.0999999046326
Ikt4E84y,3bawbgqgzoco8yjjw9p686v3rigv79,3dhe4r9oc0o0rkucs4er1y7dxzc2g0,Ikt4E84y,2020-0188,2021-10-31,02:43:41,04:15:28,NA,incomplete,true,NA,true,NA,0,8,NA,NA,NA,right,NA,NA,NA,absent,NA,NA,n_l_023.jpg,green,n_s_111.jpg,green,within,NA,NaN,NA,NA,NA,NA,left,3050.9000000953674,0,3,1898.5999999046326
Ikt4E84y,3bawbgqgzoco8yjjw9p686v3rigv79,3dhe4r9oc0o0rkucs4er1y7dxzc2g0,Ikt4E84y,2020-0188,2021-10-31,02:43:41,04:15:28,NA,incomplete,true,NA,true,NA,0,9,NA,NA,NA,left,NA,NA,NA,absent,NA,NA,m_s_015.jpg,purple,m_l_043.jpg,purple,within,NA,NaN,NA,NA,NA,NA,right,3553.699999809265,0,3,1511.7000000476837
Ikt4E84y,3bawbgqgzoco8yjjw9p686v3rigv79,3dhe4r9oc0o0rkucs4er1y7dxzc2g0,Ikt4E84y,2020-0188,2021-10-31,02:43:41,04:15:28,NA,incomplete,true,NA,true,NA,0,10,NA,NA,NA,left,NA,NA,NA,absent,NA,NA,m_s_115.jpg,red,n_s_046.jpg,red,within,NA,NaN,NA,NA,NA,NA,left,11883.199999809265,1,3,1651.2999999523163
Ikt4E84y,3bawbgqgzoco8yjjw9p686v3rigv79,3dhe4r9oc0o0rkucs4er1y7dxzc2g0,Ikt4E84y,2020-0188,2021-10-31,02:43:41,04:15:28,NA,incomplete,false,true,NA,NA,1,0,NA,red,n_l_108.jpg,NA,NA,NA,NA,NA,pleasant,unpleasant,NA,NA,NA,NA,NA,right,3043,true,NA,NA,NA,NA,NA,NA,NA,NA
Ikt4E84y,3bawbgqgzoco8yjjw9p686v3rigv79,3dhe4r9oc0o0rkucs4er1y7dxzc2g0,Ikt4E84y,2020-0188,2021-10-31,02:43:41,04:15:28,NA,incomplete,false,true,NA,NA,1,1,NA,red,m_l_033.jpg,NA,NA,NA,NA,NA,pleasant,unpleasant,NA,NA,NA,NA,NA,right,2201.10000014305,true,NA,NA,NA,NA,NA,NA,NA,NA
Ikt4E84y,3bawbgqgzoco8yjjw9p686v3rigv79,3dhe4r9oc0o0rkucs4er1y7dxzc2g0,Ikt4E84y,2020-0188,2021-10-31,02:43:41,04:15:28,NA,incomplete,false,true,NA,NA,1,2,NA,red,n_l_083.jpg,NA,NA,NA,NA,NA,pleasant,unpleasant,NA,NA,NA,NA,NA,right,1414.09999990463,true,NA,NA,NA,NA,NA,NA,NA,NA
Ikt4E84y,3bawbgqgzoco8yjjw9p686v3rigv79,3dhe4r9oc0o0rkucs4er1y7dxzc2g0,Ikt4E84y,2020-0188,2021-10-31,02:43:41,04:15:28,NA,incomplete,false,true,NA,NA,1,3,NA,red,n_l_064.jpg,NA,NA,NA,NA,NA,pleasant,unpleasant,NA,NA,NA,NA,NA,right,2337.79999995232,true,NA,NA,NA,NA,NA,NA,NA,NA
Ikt4E84y,3bawbgqgzoco8yjjw9p686v3rigv79,3dhe4r9oc0o0rkucs4er1y7dxzc2g0,Ikt4E84y,2020-0188,2021-10-31,02:43:41,04:15:28,NA,incomplete,false,true,NA,NA,1,4,NA,red,n_s_060.jpg,NA,NA,NA,NA,NA,pleasant,unpleasant,NA,NA,NA,NA,NA,right,1801.70000004768,true,NA,NA,NA,NA,NA,NA,NA,NA
Ikt4E84y,3bawbgqgzoco8yjjw9p686v3rigv79,3dhe4r9oc0o0rkucs4er1y7dxzc2g0,Ikt4E84y,2020-0188,2021-10-31,02:43:41,04:15:28,NA,incomplete,false,true,NA,NA,1,5,NA,red,n_s_028.jpg,NA,NA,NA,NA,NA,unpleasant,pleasant,NA,NA,NA,NA,NA,right,2245.09999990463,true,NA,NA,NA,NA,NA,NA,NA,NA
Ikt4E84y,3bawbgqgzoco8yjjw9p686v3rigv79,3dhe4r9oc0o0rkucs4er1y7dxzc2g0,Ikt4E84y,2020-0188,2021-10-31,02:43:41,04:15:28,NA,incomplete,false,true,NA,NA,1,6,NA,black,m_l_061.jpg,NA,NA,NA,NA,NA,unpleasant,pleasant,NA,NA,NA,NA,NA,left,2605.79999995232,true,NA,NA,NA,NA,NA,NA,NA,NA
Ikt4E84y,3bawbgqgzoco8yjjw9p686v3rigv79,3dhe4r9oc0o0rkucs4er1y7dxzc2g0,Ikt4E84y,2020-0188,2021-10-31,02:43:41,04:15:28,NA,incomplete,false,true,NA,NA,1,7,NA,black,m_l_077.jpg,NA,NA,NA,NA,NA,unpleasant,pleasant,NA,NA,NA,NA,NA,left,2671.29999995232,true,NA,NA,NA,NA,NA,NA,NA,NA
Ikt4E84y,3bawbgqgzoco8yjjw9p686v3rigv79,3dhe4r9oc0o0rkucs4er1y7dxzc2g0,Ikt4E84y,2020-0188,2021-10-31,02:43:41,04:15:28,NA,incomplete,false,true,NA,NA,1,8,NA,black,n_l_059.jpg,NA,NA,NA,NA,NA,pleasant,unpleasant,NA,NA,NA,NA,NA,right,1777.29999995232,true,NA,NA,NA,NA,NA,NA,NA,NA
Ikt4E84y,3bawbgqgzoco8yjjw9p686v3rigv79,3dhe4r9oc0o0rkucs4er1y7dxzc2g0,Ikt4E84y,2020-0188,2021-10-31,02:43:41,04:15:28,NA,incomplete,false,true,NA,NA,1,9,NA,black,m_l_062.jpg,NA,NA,NA,NA,NA,pleasant,unpleasant,NA,NA,NA,NA,NA,right,2301.90000009537,true,NA,NA,NA,NA,NA,NA,NA,NA
Ikt4E84y,3bawbgqgzoco8yjjw9p686v3rigv79,3dhe4r9oc0o0rkucs4er1y7dxzc2g0,Ikt4E84y,2020-0188,2021-10-31,02:43:41,04:15:28,NA,incomplete,false,true,NA,NA,1,10,NA,black,m_s_040.jpg,NA,NA,NA,NA,NA,unpleasant,pleasant,NA,NA,NA,NA,NA,left,2670.40000009537,true,NA,NA,NA,NA,NA,NA,NA,NA
Ikt4E84y,3bawbgqgzoco8yjjw9p686v3rigv79,3dhe4r9oc0o0rkucs4er1y7dxzc2g0,Ikt4E84y,2020-0188,2021-10-31,02:43:41,04:15:28,NA,incomplete,false,true,NA,NA,1,11,NA,black,n_s_059.jpg,NA,NA,NA,NA,NA,pleasant,unpleasant,NA,NA,NA,NA,NA,right,3012,true,NA,NA,NA,NA,NA,NA,NA,NA
Ikt4E84y,3bawbgqgzoco8yjjw9p686v3rigv79,3dhe4r9oc0o0rkucs4er1y7dxzc2g0,Ikt4E84y,2020-0188,2021-10-31,02:43:41,04:15:28,NA,incomplete,false,true,NA,NA,1,12,NA,gray,m_s_045.jpg,NA,NA,NA,NA,NA,unpleasant,pleasant,NA,NA,NA,NA,NA,none,0,false,NA,NA,NA,NA,NA,NA,NA,NA
Ikt4E84y,3bawbgqgzoco8yjjw9p686v3rigv79,3dhe4r9oc0o0rkucs4er1y7dxzc2g0,Ikt4E84y,2020-0188,2021-10-31,02:43:41,04:15:28,NA,incomplete,false,true,NA,NA,1,13,NA,gray,n_s_021.jpg,NA,NA,NA,NA,NA,unpleasant,pleasant,NA,NA,NA,NA,NA,right,2470.10000014305,true,NA,NA,NA,NA,NA,NA,NA,NA
Ikt4E84y,3bawbgqgzoco8yjjw9p686v3rigv79,3dhe4r9oc0o0rkucs4er1y7dxzc2g0,Ikt4E84y,2020-0188,2021-10-31,02:43:41,04:15:28,NA,incomplete,false,true,NA,NA,1,14,NA,gray,m_s_091.jpg,NA,NA,NA,NA,NA,unpleasant,pleasant,NA,NA,NA,NA,NA,right,2487.89999985695,true,NA,NA,NA,NA,NA,NA,NA,NA
Ikt4E84y,3bawbgqgzoco8yjjw9p686v3rigv79,3dhe4r9oc0o0rkucs4er1y7dxzc2g0,Ikt4E84y,2020-0188,2021-10-31,02:43:41,04:15:28,NA,incomplete,false,true,NA,NA,1,15,NA,gray,m_l_060.jpg,NA,NA,NA,NA,NA,unpleasant,pleasant,NA,NA,NA,NA,NA,left,2490.19999980927,true,NA,NA,NA,NA,NA,NA,NA,NA
Ikt4E84y,3bawbgqgzoco8yjjw9p686v3rigv79,3dhe4r9oc0o0rkucs4er1y7dxzc2g0,Ikt4E84y,2020-0188,2021-10-31,02:43:41,04:15:28,NA,incomplete,false,true,NA,NA,1,16,NA,gray,m_s_049.jpg,NA,NA,NA,NA,NA,unpleasant,pleasant,NA,NA,NA,NA,NA,left,2975.70000004768,true,NA,NA,NA,NA,NA,NA,NA,NA
Ikt4E84y,3bawbgqgzoco8yjjw9p686v3rigv79,3dhe4r9oc0o0rkucs4er1y7dxzc2g0,Ikt4E84y,2020-0188,2021-10-31,02:43:41,04:15:28,NA,incomplete,false,true,NA,NA,1,17,NA,gray,n_l_074.jpg,NA,NA,NA,NA,NA,pleasant,unpleasant,NA,NA,NA,NA,NA,right,3123.09999990463,true,NA,NA,NA,NA,NA,NA,NA,NA
Ikt4E84y,3bawbgqgzoco8yjjw9p686v3rigv79,3dhe4r9oc0o0rkucs4er1y7dxzc2g0,Ikt4E84y,2020-0188,2021-10-31,02:43:41,04:15:28,NA,incomplete,false,true,NA,NA,1,18,NA,yellow,n_s_070.jpg,NA,NA,NA,NA,NA,pleasant,unpleasant,NA,NA,NA,NA,NA,left,2987.40000009537,true,NA,NA,NA,NA,NA,NA,NA,NA
Ikt4E84y,3bawbgqgzoco8yjjw9p686v3rigv79,3dhe4r9oc0o0rkucs4er1y7dxzc2g0,Ikt4E84y,2020-0188,2021-10-31,02:43:41,04:15:28,NA,incomplete,false,true,NA,NA,1,19,NA,yellow,n_s_086.jpg,NA,NA,NA,NA,NA,unpleasant,pleasant,NA,NA,NA,NA,NA,right,3439.09999990463,true,NA,NA,NA,NA,NA,NA,NA,NA
Ikt4E84y,3bawbgqgzoco8yjjw9p686v3rigv79,3dhe4r9oc0o0rkucs4er1y7dxzc2g0,Ikt4E84y,2020-0188,2021-10-31,02:43:41,04:15:28,NA,incomplete,false,true,NA,NA,1,20,NA,yellow,n_s_087.jpg,NA,NA,NA,NA,NA,unpleasant,pleasant,NA,NA,NA,NA,NA,left,2323.89999985695,true,NA,NA,NA,NA,NA,NA,NA,NA
Ikt4E84y,3bawbgqgzoco8yjjw9p686v3rigv79,3dhe4r9oc0o0rkucs4er1y7dxzc2g0,Ikt4E84y,2020-0188,2021-10-31,02:43:41,04:15:28,NA,incomplete,false,true,NA,NA,1,21,NA,yellow,n_l_061.jpg,NA,NA,NA,NA,NA,unpleasant,pleasant,NA,NA,NA,NA,NA,right,2401,true,NA,NA,NA,NA,NA,NA,NA,NA
Ikt4E84y,3bawbgqgzoco8yjjw9p686v3rigv79,3dhe4r9oc0o0rkucs4er1y7dxzc2g0,Ikt4E84y,2020-0188,2021-10-31,02:43:41,04:15:28,NA,incomplete,false,true,NA,NA,1,22,NA,yellow,m_l_013.jpg,NA,NA,NA,NA,NA,unpleasant,pleasant,NA,NA,NA,NA,NA,left,2966.5,true,NA,NA,NA,NA,NA,NA,NA,NA
Ikt4E84y,3bawbgqgzoco8yjjw9p686v3rigv79,3dhe4r9oc0o0rkucs4er1y7dxzc2g0,Ikt4E84y,2020-0188,2021-10-31,02:43:41,04:15:28,NA,incomplete,false,true,NA,NA,1,23,NA,yellow,n_s_007.jpg,NA,NA,NA,NA,NA,unpleasant,pleasant,NA,NA,NA,NA,NA,left,2133.20000004768,true,NA,NA,NA,NA,NA,NA,NA,NA
Ikt4E84y,3bawbgqgzoco8yjjw9p686v3rigv79,3dhe4r9oc0o0rkucs4er1y7dxzc2g0,Ikt4E84y,2020-0188,2021-10-31,02:43:41,04:15:28,NA,incomplete,false,true,NA,NA,1,24,NA,green,n_s_054.jpg,NA,NA,NA,NA,NA,pleasant,unpleasant,NA,NA,NA,NA,NA,left,3146.79999995232,true,NA,NA,NA,NA,NA,NA,NA,NA
Ikt4E84y,3bawbgqgzoco8yjjw9p686v3rigv79,3dhe4r9oc0o0rkucs4er1y7dxzc2g0,Ikt4E84y,2020-0188,2021-10-31,02:43:41,04:15:28,NA,incomplete,false,true,NA,NA,1,25,NA,green,m_s_071.jpg,NA,NA,NA,NA,NA,pleasant,unpleasant,NA,NA,NA,NA,NA,right,2686.79999995232,true,NA,NA,NA,NA,NA,NA,NA,NA
Ikt4E84y,3bawbgqgzoco8yjjw9p686v3rigv79,3dhe4r9oc0o0rkucs4er1y7dxzc2g0,Ikt4E84y,2020-0188,2021-10-31,02:43:41,04:15:28,NA,incomplete,false,true,NA,NA,1,26,NA,green,n_s_077.jpg,NA,NA,NA,NA,NA,unpleasant,pleasant,NA,NA,NA,NA,NA,left,3032.89999985695,true,NA,NA,NA,NA,NA,NA,NA,NA
Ikt4E84y,3bawbgqgzoco8yjjw9p686v3rigv79,3dhe4r9oc0o0rkucs4er1y7dxzc2g0,Ikt4E84y,2020-0188,2021-10-31,02:43:41,04:15:28,NA,incomplete,false,true,NA,NA,1,27,NA,green,n_s_103.jpg,NA,NA,NA,NA,NA,pleasant,unpleasant,NA,NA,NA,NA,NA,right,2960.09999990463,true,NA,NA,NA,NA,NA,NA,NA,NA
Ikt4E84y,3bawbgqgzoco8yjjw9p686v3rigv79,3dhe4r9oc0o0rkucs4er1y7dxzc2g0,Ikt4E84y,2020-0188,2021-10-31,02:43:41,04:15:28,NA,incomplete,false,true,NA,NA,1,28,NA,green,n_l_005.jpg,NA,NA,NA,NA,NA,pleasant,unpleasant,NA,NA,NA,NA,NA,right,3227.30000019073,true,NA,NA,NA,NA,NA,NA,NA,NA
Ikt4E84y,3bawbgqgzoco8yjjw9p686v3rigv79,3dhe4r9oc0o0rkucs4er1y7dxzc2g0,Ikt4E84y,2020-0188,2021-10-31,02:43:41,04:15:28,NA,incomplete,false,true,NA,NA,1,29,NA,green,n_s_012.jpg,NA,NA,NA,NA,NA,unpleasant,pleasant,NA,NA,NA,NA,NA,right,2523.40000009537,true,NA,NA,NA,NA,NA,NA,NA,NA
Ikt4E84y,3bawbgqgzoco8yjjw9p686v3rigv79,3dhe4r9oc0o0rkucs4er1y7dxzc2g0,Ikt4E84y,2020-0188,2021-10-31,02:43:41,04:15:28,NA,incomplete,false,true,NA,NA,1,30,NA,brown,m_s_096.jpg,NA,NA,NA,NA,NA,unpleasant,pleasant,NA,NA,NA,NA,NA,left,2998.10000014305,true,NA,NA,NA,NA,NA,NA,NA,NA
Ikt4E84y,3bawbgqgzoco8yjjw9p686v3rigv79,3dhe4r9oc0o0rkucs4er1y7dxzc2g0,Ikt4E84y,2020-0188,2021-10-31,02:43:41,04:15:28,NA,incomplete,false,true,NA,NA,1,31,NA,brown,n_s_026.jpg,NA,NA,NA,NA,NA,pleasant,unpleasant,NA,NA,NA,NA,NA,right,2386.5,true,NA,NA,NA,NA,NA,NA,NA,NA
Ikt4E84y,3bawbgqgzoco8yjjw9p686v3rigv79,3dhe4r9oc0o0rkucs4er1y7dxzc2g0,Ikt4E84y,2020-0188,2021-10-31,02:43:41,04:15:28,NA,incomplete,false,true,NA,NA,1,32,NA,brown,n_l_105.jpg,NA,NA,NA,NA,NA,pleasant,unpleasant,NA,NA,NA,NA,NA,right,2529.09999990463,true,NA,NA,NA,NA,NA,NA,NA,NA
Ikt4E84y,3bawbgqgzoco8yjjw9p686v3rigv79,3dhe4r9oc0o0rkucs4er1y7dxzc2g0,Ikt4E84y,2020-0188,2021-10-31,02:43:41,04:15:28,NA,incomplete,false,true,NA,NA,1,33,NA,brown,m_l_084.jpg,NA,NA,NA,NA,NA,unpleasant,pleasant,NA,NA,NA,NA,NA,left,3039.30000019073,true,NA,NA,NA,NA,NA,NA,NA,NA
Ikt4E84y,3bawbgqgzoco8yjjw9p686v3rigv79,3dhe4r9oc0o0rkucs4er1y7dxzc2g0,Ikt4E84y,2020-0188,2021-10-31,02:43:41,04:15:28,NA,incomplete,false,true,NA,NA,1,34,NA,brown,n_l_017.jpg,NA,NA,NA,NA,NA,unpleasant,pleasant,NA,NA,NA,NA,NA,left,2672.70000004768,true,NA,NA,NA,NA,NA,NA,NA,NA
Ikt4E84y,3bawbgqgzoco8yjjw9p686v3rigv79,3dhe4r9oc0o0rkucs4er1y7dxzc2g0,Ikt4E84y,2020-0188,2021-10-31,02:43:41,04:15:28,NA,incomplete,false,true,NA,NA,1,35,NA,brown,n_l_072.jpg,NA,NA,NA,NA,NA,pleasant,unpleasant,NA,NA,NA,NA,NA,right,2468.79999995232,true,NA,NA,NA,NA,NA,NA,NA,NA
Ikt4E84y,3bawbgqgzoco8yjjw9p686v3rigv79,3dhe4r9oc0o0rkucs4er1y7dxzc2g0,Ikt4E84y,2020-0188,2021-10-31,02:43:41,04:15:28,NA,incomplete,false,NA,NA,true,1,0,NA,NA,NA,left,n_l_005.jpg,green,yellow,NA,NA,NA,NA,NA,NA,NA,NA,NA,NaN,NA,3509.2999999523163,left,1,NA,NA,NA,NA,NA
Ikt4E84y,3bawbgqgzoco8yjjw9p686v3rigv79,3dhe4r9oc0o0rkucs4er1y7dxzc2g0,Ikt4E84y,2020-0188,2021-10-31,02:43:41,04:15:28,NA,incomplete,false,NA,NA,true,1,1,NA,NA,NA,right,n_s_021.jpg,black,gray,NA,NA,NA,NA,NA,NA,NA,NA,NA,NaN,NA,9374.199999809265,left,0,NA,NA,NA,NA,NA
Ikt4E84y,3bawbgqgzoco8yjjw9p686v3rigv79,3dhe4r9oc0o0rkucs4er1y7dxzc2g0,Ikt4E84y,2020-0188,2021-10-31,02:43:41,04:15:28,NA,incomplete,false,NA,NA,true,1,2,NA,NA,NA,left,n_s_059.jpg,black,gray,NA,NA,NA,NA,NA,NA,NA,NA,NA,NaN,NA,17968.60000014305,left,1,NA,NA,NA,NA,NA
Ikt4E84y,3bawbgqgzoco8yjjw9p686v3rigv79,3dhe4r9oc0o0rkucs4er1y7dxzc2g0,Ikt4E84y,2020-0188,2021-10-31,02:43:41,04:15:28,NA,incomplete,false,NA,NA,true,1,3,NA,NA,NA,left,m_s_049.jpg,gray,black,NA,NA,NA,NA,NA,NA,NA,NA,NA,NaN,NA,5549.699999809265,left,1,NA,NA,NA,NA,NA
Ikt4E84y,3bawbgqgzoco8yjjw9p686v3rigv79,3dhe4r9oc0o0rkucs4er1y7dxzc2g0,Ikt4E84y,2020-0188,2021-10-31,02:43:41,04:15:28,NA,incomplete,false,NA,NA,true,1,4,NA,NA,NA,right,n_s_087.jpg,gray,yellow,NA,NA,NA,NA,NA,NA,NA,NA,NA,NaN,NA,11765.700000047684,right,1,NA,NA,NA,NA,NA
Ikt4E84y,3bawbgqgzoco8yjjw9p686v3rigv79,3dhe4r9oc0o0rkucs4er1y7dxzc2g0,Ikt4E84y,2020-0188,2021-10-31,02:43:41,04:15:28,NA,incomplete,false,NA,NA,true,1,5,NA,NA,NA,left,m_l_013.jpg,yellow,gray,NA,NA,NA,NA,NA,NA,NA,NA,NA,NaN,NA,4267.5,right,0,NA,NA,NA,NA,NA
Ikt4E84y,3bawbgqgzoco8yjjw9p686v3rigv79,3dhe4r9oc0o0rkucs4er1y7dxzc2g0,Ikt4E84y,2020-0188,2021-10-31,02:43:41,04:15:28,NA,incomplete,false,NA,NA,true,1,6,NA,NA,NA,right,m_s_040.jpg,red,black,NA,NA,NA,NA,NA,NA,NA,NA,NA,NaN,NA,5289.900000095367,left,0,NA,NA,NA,NA,NA
Ikt4E84y,3bawbgqgzoco8yjjw9p686v3rigv79,3dhe4r9oc0o0rkucs4er1y7dxzc2g0,Ikt4E84y,2020-0188,2021-10-31,02:43:41,04:15:28,NA,incomplete,false,NA,NA,true,1,7,NA,NA,NA,left,m_l_077.jpg,black,gray,NA,NA,NA,NA,NA,NA,NA,NA,NA,NaN,NA,2016.9000000953674,left,1,NA,NA,NA,NA,NA
Ikt4E84y,3bawbgqgzoco8yjjw9p686v3rigv79,3dhe4r9oc0o0rkucs4er1y7dxzc2g0,Ikt4E84y,2020-0188,2021-10-31,02:43:41,04:15:28,NA,incomplete,false,NA,NA,true,1,8,NA,NA,NA,left,n_l_105.jpg,brown,green,NA,NA,NA,NA,NA,NA,NA,NA,NA,NaN,NA,4338,left,1,NA,NA,NA,NA,NA
Ikt4E84y,3bawbgqgzoco8yjjw9p686v3rigv79,3dhe4r9oc0o0rkucs4er1y7dxzc2g0,Ikt4E84y,2020-0188,2021-10-31,02:43:41,04:15:28,NA,incomplete,false,NA,NA,true,1,9,NA,NA,NA,left,n_l_072.jpg,brown,green,NA,NA,NA,NA,NA,NA,NA,NA,NA,NaN,NA,2581.7000000476837,left,1,NA,NA,NA,NA,NA
Ikt4E84y,3bawbgqgzoco8yjjw9p686v3rigv79,3dhe4r9oc0o0rkucs4er1y7dxzc2g0,Ikt4E84y,2020-0188,2021-10-31,02:43:41,04:15:28,NA,incomplete,false,NA,NA,true,1,10,NA,NA,NA,left,n_s_086.jpg,yellow,gray,NA,NA,NA,NA,NA,NA,NA,NA,NA,NaN,NA,12633.300000190735,left,1,NA,NA,NA,NA,NA
Ikt4E84y,3bawbgqgzoco8yjjw9p686v3rigv79,3dhe4r9oc0o0rkucs4er1y7dxzc2g0,Ikt4E84y,2020-0188,2021-10-31,02:43:41,04:15:28,NA,incomplete,false,NA,NA,true,1,11,NA,NA,NA,right,n_s_028.jpg,black,red,NA,NA,NA,NA,NA,NA,NA,NA,NA,NaN,NA,4514.299999952316,left,0,NA,NA,NA,NA,NA
Ikt4E84y,3bawbgqgzoco8yjjw9p686v3rigv79,3dhe4r9oc0o0rkucs4er1y7dxzc2g0,Ikt4E84y,2020-0188,2021-10-31,02:43:41,04:15:28,NA,incomplete,false,NA,NA,true,1,12,NA,NA,NA,right,n_s_060.jpg,black,red,NA,NA,NA,NA,NA,NA,NA,NA,NA,NaN,NA,1974.4000000953674,left,0,NA,NA,NA,NA,NA
Ikt4E84y,3bawbgqgzoco8yjjw9p686v3rigv79,3dhe4r9oc0o0rkucs4er1y7dxzc2g0,Ikt4E84y,2020-0188,2021-10-31,02:43:41,04:15:28,NA,incomplete,false,NA,NA,true,1,13,NA,NA,NA,right,m_l_033.jpg,black,red,NA,NA,NA,NA,NA,NA,NA,NA,NA,NaN,NA,2233.0999999046326,left,0,NA,NA,NA,NA,NA
Ikt4E84y,3bawbgqgzoco8yjjw9p686v3rigv79,3dhe4r9oc0o0rkucs4er1y7dxzc2g0,Ikt4E84y,2020-0188,2021-10-31,02:43:41,04:15:28,NA,incomplete,false,NA,NA,true,1,14,NA,NA,NA,right,n_l_074.jpg,black,gray,NA,NA,NA,NA,NA,NA,NA,NA,NA,NaN,NA,8071.299999952316,left,0,NA,NA,NA,NA,NA
Ikt4E84y,3bawbgqgzoco8yjjw9p686v3rigv79,3dhe4r9oc0o0rkucs4er1y7dxzc2g0,Ikt4E84y,2020-0188,2021-10-31,02:43:41,04:15:28,NA,incomplete,false,NA,NA,true,1,15,NA,NA,NA,right,n_s_007.jpg,gray,yellow,NA,NA,NA,NA,NA,NA,NA,NA,NA,NaN,NA,14093.5,left,0,NA,NA,NA,NA,NA
Ikt4E84y,3bawbgqgzoco8yjjw9p686v3rigv79,3dhe4r9oc0o0rkucs4er1y7dxzc2g0,Ikt4E84y,2020-0188,2021-10-31,02:43:41,04:15:28,NA,incomplete,false,NA,NA,true,1,16,NA,NA,NA,left,m_s_071.jpg,green,brown,NA,NA,NA,NA,NA,NA,NA,NA,NA,NaN,NA,7569.799999952316,right,0,NA,NA,NA,NA,NA
Ikt4E84y,3bawbgqgzoco8yjjw9p686v3rigv79,3dhe4r9oc0o0rkucs4er1y7dxzc2g0,Ikt4E84y,2020-0188,2021-10-31,02:43:41,04:15:28,NA,incomplete,false,NA,NA,true,1,17,NA,NA,NA,right,m_s_091.jpg,black,gray,NA,NA,NA,NA,NA,NA,NA,NA,NA,NaN,NA,3732.2000000476837,left,0,NA,NA,NA,NA,NA
Ikt4E84y,3bawbgqgzoco8yjjw9p686v3rigv79,3dhe4r9oc0o0rkucs4er1y7dxzc2g0,Ikt4E84y,2020-0188,2021-10-31,02:43:41,04:15:28,NA,incomplete,false,NA,NA,true,1,18,NA,NA,NA,right,n_l_059.jpg,gray,black,NA,NA,NA,NA,NA,NA,NA,NA,NA,NaN,NA,5764.299999952316,right,1,NA,NA,NA,NA,NA
Ikt4E84y,3bawbgqgzoco8yjjw9p686v3rigv79,3dhe4r9oc0o0rkucs4er1y7dxzc2g0,Ikt4E84y,2020-0188,2021-10-31,02:43:41,04:15:28,NA,incomplete,false,NA,NA,true,1,19,NA,NA,NA,right,n_s_026.jpg,green,brown,NA,NA,NA,NA,NA,NA,NA,NA,NA,NaN,NA,6394.799999952316,right,1,NA,NA,NA,NA,NA
Ikt4E84y,3bawbgqgzoco8yjjw9p686v3rigv79,3dhe4r9oc0o0rkucs4er1y7dxzc2g0,Ikt4E84y,2020-0188,2021-10-31,02:43:41,04:15:28,NA,incomplete,false,NA,NA,true,1,20,NA,NA,NA,right,n_s_077.jpg,yellow,green,NA,NA,NA,NA,NA,NA,NA,NA,NA,NaN,NA,2779.100000143051,right,1,NA,NA,NA,NA,NA
Ikt4E84y,3bawbgqgzoco8yjjw9p686v3rigv79,3dhe4r9oc0o0rkucs4er1y7dxzc2g0,Ikt4E84y,2020-0188,2021-10-31,02:43:41,04:15:28,NA,incomplete,false,NA,NA,true,1,21,NA,NA,NA,right,n_s_012.jpg,brown,green,NA,NA,NA,NA,NA,NA,NA,NA,NA,NaN,NA,2410.600000143051,right,1,NA,NA,NA,NA,NA
Ikt4E84y,3bawbgqgzoco8yjjw9p686v3rigv79,3dhe4r9oc0o0rkucs4er1y7dxzc2g0,Ikt4E84y,2020-0188,2021-10-31,02:43:41,04:15:28,NA,incomplete,false,NA,true,NA,1,0,NA,NA,NA,left,NA,NA,NA,absent,NA,NA,m_l_013.jpg,yellow,n_s_077.jpg,green,between,NA,NaN,NA,NA,NA,NA,left,9400.900000095367,1,1,3345.800000190735
Ikt4E84y,3bawbgqgzoco8yjjw9p686v3rigv79,3dhe4r9oc0o0rkucs4er1y7dxzc2g0,Ikt4E84y,2020-0188,2021-10-31,02:43:41,04:15:28,NA,incomplete,false,NA,true,NA,1,1,NA,NA,NA,left,NA,NA,NA,absent,NA,NA,m_l_077.jpg,black,n_s_059.jpg,black,within,NA,NaN,NA,NA,NA,NA,left,4106.300000190735,1,1,4508.200000047684
Ikt4E84y,3bawbgqgzoco8yjjw9p686v3rigv79,3dhe4r9oc0o0rkucs4er1y7dxzc2g0,Ikt4E84y,2020-0188,2021-10-31,02:43:41,04:15:28,NA,incomplete,false,NA,true,NA,1,2,NA,NA,NA,left,NA,NA,NA,absent,NA,NA,m_s_049.jpg,gray,n_s_087.jpg,yellow,between,NA,NaN,NA,NA,NA,NA,right,8756.5,0,1,2257
Ikt4E84y,3bawbgqgzoco8yjjw9p686v3rigv79,3dhe4r9oc0o0rkucs4er1y7dxzc2g0,Ikt4E84y,2020-0188,2021-10-31,02:43:41,04:15:28,NA,incomplete,false,NA,true,NA,1,3,NA,NA,NA,left,NA,NA,NA,absent,NA,NA,n_s_026.jpg,brown,n_l_072.jpg,brown,within,NA,NaN,NA,NA,NA,NA,left,4484.900000095367,1,1,3056.600000143051
Ikt4E84y,3bawbgqgzoco8yjjw9p686v3rigv79,3dhe4r9oc0o0rkucs4er1y7dxzc2g0,Ikt4E84y,2020-0188,2021-10-31,02:43:41,04:15:28,NA,incomplete,false,NA,true,NA,1,4,NA,NA,NA,right,NA,NA,NA,absent,NA,NA,n_s_012.jpg,green,m_s_071.jpg,green,within,NA,NaN,NA,NA,NA,NA,right,3464.4000000953674,1,1,2279.5
Ikt4E84y,3bawbgqgzoco8yjjw9p686v3rigv79,3dhe4r9oc0o0rkucs4er1y7dxzc2g0,Ikt4E84y,2020-0188,2021-10-31,02:43:41,04:15:28,NA,incomplete,false,NA,true,NA,1,5,NA,NA,NA,right,NA,NA,NA,absent,NA,NA,m_s_091.jpg,gray,m_s_040.jpg,black,between,NA,NaN,NA,NA,NA,NA,right,5488.5,1,1,1755.4000000953674
Ikt4E84y,3bawbgqgzoco8yjjw9p686v3rigv79,3dhe4r9oc0o0rkucs4er1y7dxzc2g0,Ikt4E84y,2020-0188,2021-10-31,02:43:41,04:15:28,NA,incomplete,false,NA,true,NA,1,6,NA,NA,NA,right,NA,NA,NA,absent,NA,NA,n_s_007.jpg,yellow,n_s_086.jpg,yellow,within,NA,NaN,NA,NA,NA,NA,right,4382.900000095367,1,0,1230
Ikt4E84y,3bawbgqgzoco8yjjw9p686v3rigv79,3dhe4r9oc0o0rkucs4er1y7dxzc2g0,Ikt4E84y,2020-0188,2021-10-31,02:43:41,04:15:28,NA,incomplete,false,NA,true,NA,1,7,NA,NA,NA,right,NA,NA,NA,absent,NA,NA,n_l_074.jpg,gray,n_s_021.jpg,gray,within,NA,NaN,NA,NA,NA,NA,left,3664.699999809265,0,0,1647.9000000953674
Ikt4E84y,3bawbgqgzoco8yjjw9p686v3rigv79,3dhe4r9oc0o0rkucs4er1y7dxzc2g0,Ikt4E84y,2020-0188,2021-10-31,02:43:41,04:15:28,NA,incomplete,false,NA,true,NA,1,8,NA,NA,NA,right,NA,NA,NA,absent,NA,NA,n_s_028.jpg,red,m_l_033.jpg,red,within,NA,NaN,NA,NA,NA,NA,right,4298.900000095367,1,2,1126.4000000953674
Ikt4E84y,3bawbgqgzoco8yjjw9p686v3rigv79,3dhe4r9oc0o0rkucs4er1y7dxzc2g0,Ikt4E84y,2020-0188,2021-10-31,02:43:41,04:15:28,NA,incomplete,false,NA,true,NA,1,9,NA,NA,NA,left,NA,NA,NA,absent,NA,NA,n_l_005.jpg,green,n_l_105.jpg,brown,between,NA,NaN,NA,NA,NA,NA,left,3061.0999999046326,1,0,2035.1999998092651
Ikt4E84y,3bawbgqgzoco8yjjw9p686v3rigv79,3dhe4r9oc0o0rkucs4er1y7dxzc2g0,Ikt4E84y,2020-0188,2021-10-31,02:43:41,04:15:28,NA,incomplete,false,NA,true,NA,1,10,NA,NA,NA,right,NA,NA,NA,absent,NA,NA,n_l_059.jpg,black,n_s_060.jpg,red,between,NA,NaN,NA,NA,NA,NA,left,5453.200000047684,0,0,1284.5
Ikt4E84y,3bawbgqgzoco8yjjw9p686v3rigv79,3dhe4r9oc0o0rkucs4er1y7dxzc2g0,Ikt4E84y,2020-0188,2021-10-31,02:43:41,04:15:28,NA,incomplete,false,true,NA,NA,2,0,NA,orange,n_l_035.jpg,NA,NA,NA,NA,NA,unpleasant,pleasant,NA,NA,NA,NA,NA,none,0,false,NA,NA,NA,NA,NA,NA,NA,NA
Ikt4E84y,3bawbgqgzoco8yjjw9p686v3rigv79,3dhe4r9oc0o0rkucs4er1y7dxzc2g0,Ikt4E84y,2020-0188,2021-10-31,02:43:41,04:15:28,NA,incomplete,false,true,NA,NA,2,1,NA,orange,n_s_003.jpg,NA,NA,NA,NA,NA,unpleasant,pleasant,NA,NA,NA,NA,NA,left,2902.10000014305,true,NA,NA,NA,NA,NA,NA,NA,NA
Ikt4E84y,3bawbgqgzoco8yjjw9p686v3rigv79,3dhe4r9oc0o0rkucs4er1y7dxzc2g0,Ikt4E84y,2020-0188,2021-10-31,02:43:41,04:15:28,NA,incomplete,false,true,NA,NA,2,2,NA,orange,n_s_113.jpg,NA,NA,NA,NA,NA,pleasant,unpleasant,NA,NA,NA,NA,NA,right,2316.5,true,NA,NA,NA,NA,NA,NA,NA,NA
Ikt4E84y,3bawbgqgzoco8yjjw9p686v3rigv79,3dhe4r9oc0o0rkucs4er1y7dxzc2g0,Ikt4E84y,2020-0188,2021-10-31,02:43:41,04:15:28,NA,incomplete,false,true,NA,NA,2,3,NA,orange,n_s_033.jpg,NA,NA,NA,NA,NA,pleasant,unpleasant,NA,NA,NA,NA,NA,right,1907.70000004768,true,NA,NA,NA,NA,NA,NA,NA,NA
Ikt4E84y,3bawbgqgzoco8yjjw9p686v3rigv79,3dhe4r9oc0o0rkucs4er1y7dxzc2g0,Ikt4E84y,2020-0188,2021-10-31,02:43:41,04:15:28,NA,incomplete,false,true,NA,NA,2,4,NA,orange,m_l_101.jpg,NA,NA,NA,NA,NA,unpleasant,pleasant,NA,NA,NA,NA,NA,left,2126.29999995232,true,NA,NA,NA,NA,NA,NA,NA,NA
Ikt4E84y,3bawbgqgzoco8yjjw9p686v3rigv79,3dhe4r9oc0o0rkucs4er1y7dxzc2g0,Ikt4E84y,2020-0188,2021-10-31,02:43:41,04:15:28,NA,incomplete,false,true,NA,NA,2,5,NA,orange,n_l_078.jpg,NA,NA,NA,NA,NA,unpleasant,pleasant,NA,NA,NA,NA,NA,left,2441.5,true,NA,NA,NA,NA,NA,NA,NA,NA
Ikt4E84y,3bawbgqgzoco8yjjw9p686v3rigv79,3dhe4r9oc0o0rkucs4er1y7dxzc2g0,Ikt4E84y,2020-0188,2021-10-31,02:43:41,04:15:28,NA,incomplete,false,true,NA,NA,2,6,NA,white,n_s_106.jpg,NA,NA,NA,NA,NA,pleasant,unpleasant,NA,NA,NA,NA,NA,left,3051.90000009537,true,NA,NA,NA,NA,NA,NA,NA,NA
Ikt4E84y,3bawbgqgzoco8yjjw9p686v3rigv79,3dhe4r9oc0o0rkucs4er1y7dxzc2g0,Ikt4E84y,2020-0188,2021-10-31,02:43:41,04:15:28,NA,incomplete,false,true,NA,NA,2,7,NA,white,n_s_041.jpg,NA,NA,NA,NA,NA,unpleasant,pleasant,NA,NA,NA,NA,NA,right,2347.09999990463,true,NA,NA,NA,NA,NA,NA,NA,NA
Ikt4E84y,3bawbgqgzoco8yjjw9p686v3rigv79,3dhe4r9oc0o0rkucs4er1y7dxzc2g0,Ikt4E84y,2020-0188,2021-10-31,02:43:41,04:15:28,NA,incomplete,false,true,NA,NA,2,8,NA,white,m_s_002.jpg,NA,NA,NA,NA,NA,pleasant,unpleasant,NA,NA,NA,NA,NA,left,2829.5,true,NA,NA,NA,NA,NA,NA,NA,NA
Ikt4E84y,3bawbgqgzoco8yjjw9p686v3rigv79,3dhe4r9oc0o0rkucs4er1y7dxzc2g0,Ikt4E84y,2020-0188,2021-10-31,02:43:41,04:15:28,NA,incomplete,false,true,NA,NA,2,9,NA,white,m_l_083.jpg,NA,NA,NA,NA,NA,pleasant,unpleasant,NA,NA,NA,NA,NA,left,2451.70000004768,true,NA,NA,NA,NA,NA,NA,NA,NA
Ikt4E84y,3bawbgqgzoco8yjjw9p686v3rigv79,3dhe4r9oc0o0rkucs4er1y7dxzc2g0,Ikt4E84y,2020-0188,2021-10-31,02:43:41,04:15:28,NA,incomplete,false,true,NA,NA,2,10,NA,white,m_l_087.jpg,NA,NA,NA,NA,NA,unpleasant,pleasant,NA,NA,NA,NA,NA,right,2341.10000014305,true,NA,NA,NA,NA,NA,NA,NA,NA
Ikt4E84y,3bawbgqgzoco8yjjw9p686v3rigv79,3dhe4r9oc0o0rkucs4er1y7dxzc2g0,Ikt4E84y,2020-0188,2021-10-31,02:43:41,04:15:28,NA,incomplete,false,true,NA,NA,2,11,NA,white,m_l_089.jpg,NA,NA,NA,NA,NA,pleasant,unpleasant,NA,NA,NA,NA,NA,left,2404.20000004768,true,NA,NA,NA,NA,NA,NA,NA,NA
Ikt4E84y,3bawbgqgzoco8yjjw9p686v3rigv79,3dhe4r9oc0o0rkucs4er1y7dxzc2g0,Ikt4E84y,2020-0188,2021-10-31,02:43:41,04:15:28,NA,incomplete,false,true,NA,NA,2,12,NA,blue,m_l_080.jpg,NA,NA,NA,NA,NA,pleasant,unpleasant,NA,NA,NA,NA,NA,right,3241.60000014305,true,NA,NA,NA,NA,NA,NA,NA,NA
Ikt4E84y,3bawbgqgzoco8yjjw9p686v3rigv79,3dhe4r9oc0o0rkucs4er1y7dxzc2g0,Ikt4E84y,2020-0188,2021-10-31,02:43:41,04:15:28,NA,incomplete,false,true,NA,NA,2,13,NA,blue,n_s_090.jpg,NA,NA,NA,NA,NA,unpleasant,pleasant,NA,NA,NA,NA,NA,right,3165,true,NA,NA,NA,NA,NA,NA,NA,NA
Ikt4E84y,3bawbgqgzoco8yjjw9p686v3rigv79,3dhe4r9oc0o0rkucs4er1y7dxzc2g0,Ikt4E84y,2020-0188,2021-10-31,02:43:41,04:15:28,NA,incomplete,false,true,NA,NA,2,14,NA,blue,n_l_084.jpg,NA,NA,NA,NA,NA,unpleasant,pleasant,NA,NA,NA,NA,NA,left,2492.30000019073,true,NA,NA,NA,NA,NA,NA,NA,NA
Ikt4E84y,3bawbgqgzoco8yjjw9p686v3rigv79,3dhe4r9oc0o0rkucs4er1y7dxzc2g0,Ikt4E84y,2020-0188,2021-10-31,02:43:41,04:15:28,NA,incomplete,false,true,NA,NA,2,15,NA,blue,m_s_058.jpg,NA,NA,NA,NA,NA,pleasant,unpleasant,NA,NA,NA,NA,NA,right,2488.29999995232,true,NA,NA,NA,NA,NA,NA,NA,NA
Ikt4E84y,3bawbgqgzoco8yjjw9p686v3rigv79,3dhe4r9oc0o0rkucs4er1y7dxzc2g0,Ikt4E84y,2020-0188,2021-10-31,02:43:41,04:15:28,NA,incomplete,false,true,NA,NA,2,16,NA,blue,n_l_096.jpg,NA,NA,NA,NA,NA,pleasant,unpleasant,NA,NA,NA,NA,NA,right,2845.10000014305,true,NA,NA,NA,NA,NA,NA,NA,NA
Ikt4E84y,3bawbgqgzoco8yjjw9p686v3rigv79,3dhe4r9oc0o0rkucs4er1y7dxzc2g0,Ikt4E84y,2020-0188,2021-10-31,02:43:41,04:15:28,NA,incomplete,false,true,NA,NA,2,17,NA,blue,m_l_041.jpg,NA,NA,NA,NA,NA,pleasant,unpleasant,NA,NA,NA,NA,NA,right,2454.60000014305,true,NA,NA,NA,NA,NA,NA,NA,NA
Ikt4E84y,3bawbgqgzoco8yjjw9p686v3rigv79,3dhe4r9oc0o0rkucs4er1y7dxzc2g0,Ikt4E84y,2020-0188,2021-10-31,02:43:41,04:15:28,NA,incomplete,false,true,NA,NA,2,18,NA,yellow,m_s_095.jpg,NA,NA,NA,NA,NA,pleasant,unpleasant,NA,NA,NA,NA,NA,left,3204,true,NA,NA,NA,NA,NA,NA,NA,NA
Ikt4E84y,3bawbgqgzoco8yjjw9p686v3rigv79,3dhe4r9oc0o0rkucs4er1y7dxzc2g0,Ikt4E84y,2020-0188,2021-10-31,02:43:41,04:15:28,NA,incomplete,false,true,NA,NA,2,19,NA,yellow,m_l_022.jpg,NA,NA,NA,NA,NA,pleasant,unpleasant,NA,NA,NA,NA,NA,right,2087,true,NA,NA,NA,NA,NA,NA,NA,NA
Ikt4E84y,3bawbgqgzoco8yjjw9p686v3rigv79,3dhe4r9oc0o0rkucs4er1y7dxzc2g0,Ikt4E84y,2020-0188,2021-10-31,02:43:41,04:15:28,NA,incomplete,false,true,NA,NA,2,20,NA,yellow,n_l_116.jpg,NA,NA,NA,NA,NA,unpleasant,pleasant,NA,NA,NA,NA,NA,left,2138.30000019073,true,NA,NA,NA,NA,NA,NA,NA,NA
Ikt4E84y,3bawbgqgzoco8yjjw9p686v3rigv79,3dhe4r9oc0o0rkucs4er1y7dxzc2g0,Ikt4E84y,2020-0188,2021-10-31,02:43:41,04:15:28,NA,incomplete,false,true,NA,NA,2,21,NA,yellow,n_l_038.jpg,NA,NA,NA,NA,NA,unpleasant,pleasant,NA,NA,NA,NA,NA,right,2185.40000009537,true,NA,NA,NA,NA,NA,NA,NA,NA
Ikt4E84y,3bawbgqgzoco8yjjw9p686v3rigv79,3dhe4r9oc0o0rkucs4er1y7dxzc2g0,Ikt4E84y,2020-0188,2021-10-31,02:43:41,04:15:28,NA,incomplete,false,true,NA,NA,2,22,NA,yellow,m_l_002.jpg,NA,NA,NA,NA,NA,unpleasant,pleasant,NA,NA,NA,NA,NA,right,2216.20000004768,true,NA,NA,NA,NA,NA,NA,NA,NA
Ikt4E84y,3bawbgqgzoco8yjjw9p686v3rigv79,3dhe4r9oc0o0rkucs4er1y7dxzc2g0,Ikt4E84y,2020-0188,2021-10-31,02:43:41,04:15:28,NA,incomplete,false,true,NA,NA,2,23,NA,yellow,m_l_019.jpg,NA,NA,NA,NA,NA,unpleasant,pleasant,NA,NA,NA,NA,NA,left,2773,true,NA,NA,NA,NA,NA,NA,NA,NA
Ikt4E84y,3bawbgqgzoco8yjjw9p686v3rigv79,3dhe4r9oc0o0rkucs4er1y7dxzc2g0,Ikt4E84y,2020-0188,2021-10-31,02:43:41,04:15:28,NA,incomplete,false,true,NA,NA,2,24,NA,purple,m_l_094.jpg,NA,NA,NA,NA,NA,unpleasant,pleasant,NA,NA,NA,NA,NA,left,3403.09999990463,true,NA,NA,NA,NA,NA,NA,NA,NA
Ikt4E84y,3bawbgqgzoco8yjjw9p686v3rigv79,3dhe4r9oc0o0rkucs4er1y7dxzc2g0,Ikt4E84y,2020-0188,2021-10-31,02:43:41,04:15:28,NA,incomplete,false,true,NA,NA,2,25,NA,purple,m_s_039.jpg,NA,NA,NA,NA,NA,pleasant,unpleasant,NA,NA,NA,NA,NA,left,2884.5,true,NA,NA,NA,NA,NA,NA,NA,NA
Ikt4E84y,3bawbgqgzoco8yjjw9p686v3rigv79,3dhe4r9oc0o0rkucs4er1y7dxzc2g0,Ikt4E84y,2020-0188,2021-10-31,02:43:41,04:15:28,NA,incomplete,false,true,NA,NA,2,26,NA,purple,m_s_092.jpg,NA,NA,NA,NA,NA,unpleasant,pleasant,NA,NA,NA,NA,NA,right,2616.70000004768,true,NA,NA,NA,NA,NA,NA,NA,NA
Ikt4E84y,3bawbgqgzoco8yjjw9p686v3rigv79,3dhe4r9oc0o0rkucs4er1y7dxzc2g0,Ikt4E84y,2020-0188,2021-10-31,02:43:41,04:15:28,NA,incomplete,false,true,NA,NA,2,27,NA,purple,m_s_017.jpg,NA,NA,NA,NA,NA,pleasant,unpleasant,NA,NA,NA,NA,NA,right,2807.29999995232,true,NA,NA,NA,NA,NA,NA,NA,NA
Ikt4E84y,3bawbgqgzoco8yjjw9p686v3rigv79,3dhe4r9oc0o0rkucs4er1y7dxzc2g0,Ikt4E84y,2020-0188,2021-10-31,02:43:41,04:15:28,NA,incomplete,false,true,NA,NA,2,28,NA,purple,n_s_101.jpg,NA,NA,NA,NA,NA,pleasant,unpleasant,NA,NA,NA,NA,NA,right,2866,true,NA,NA,NA,NA,NA,NA,NA,NA
Ikt4E84y,3bawbgqgzoco8yjjw9p686v3rigv79,3dhe4r9oc0o0rkucs4er1y7dxzc2g0,Ikt4E84y,2020-0188,2021-10-31,02:43:41,04:15:28,NA,incomplete,false,true,NA,NA,2,29,NA,purple,n_l_002.jpg,NA,NA,NA,NA,NA,unpleasant,pleasant,NA,NA,NA,NA,NA,right,2426.69999980927,true,NA,NA,NA,NA,NA,NA,NA,NA
Ikt4E84y,3bawbgqgzoco8yjjw9p686v3rigv79,3dhe4r9oc0o0rkucs4er1y7dxzc2g0,Ikt4E84y,2020-0188,2021-10-31,02:43:41,04:15:28,NA,incomplete,false,true,NA,NA,2,30,NA,green,n_l_070.jpg,NA,NA,NA,NA,NA,unpleasant,pleasant,NA,NA,NA,NA,NA,right,2541.09999990463,true,NA,NA,NA,NA,NA,NA,NA,NA
Ikt4E84y,3bawbgqgzoco8yjjw9p686v3rigv79,3dhe4r9oc0o0rkucs4er1y7dxzc2g0,Ikt4E84y,2020-0188,2021-10-31,02:43:41,04:15:28,NA,incomplete,false,true,NA,NA,2,31,NA,green,n_l_092.jpg,NA,NA,NA,NA,NA,pleasant,unpleasant,NA,NA,NA,NA,NA,none,0,false,NA,NA,NA,NA,NA,NA,NA,NA
Ikt4E84y,3bawbgqgzoco8yjjw9p686v3rigv79,3dhe4r9oc0o0rkucs4er1y7dxzc2g0,Ikt4E84y,2020-0188,2021-10-31,02:43:41,04:15:28,NA,incomplete,false,true,NA,NA,2,32,NA,green,m_s_094.jpg,NA,NA,NA,NA,NA,pleasant,unpleasant,NA,NA,NA,NA,NA,right,1883.39999985695,true,NA,NA,NA,NA,NA,NA,NA,NA
Ikt4E84y,3bawbgqgzoco8yjjw9p686v3rigv79,3dhe4r9oc0o0rkucs4er1y7dxzc2g0,Ikt4E84y,2020-0188,2021-10-31,02:43:41,04:15:28,NA,incomplete,false,true,NA,NA,2,33,NA,green,n_s_024.jpg,NA,NA,NA,NA,NA,pleasant,unpleasant,NA,NA,NA,NA,NA,right,2247.20000004768,true,NA,NA,NA,NA,NA,NA,NA,NA
Ikt4E84y,3bawbgqgzoco8yjjw9p686v3rigv79,3dhe4r9oc0o0rkucs4er1y7dxzc2g0,Ikt4E84y,2020-0188,2021-10-31,02:43:41,04:15:28,NA,incomplete,false,true,NA,NA,2,34,NA,green,n_s_112.jpg,NA,NA,NA,NA,NA,pleasant,unpleasant,NA,NA,NA,NA,NA,left,1884.5,true,NA,NA,NA,NA,NA,NA,NA,NA
Ikt4E84y,3bawbgqgzoco8yjjw9p686v3rigv79,3dhe4r9oc0o0rkucs4er1y7dxzc2g0,Ikt4E84y,2020-0188,2021-10-31,02:43:41,04:15:28,NA,incomplete,false,true,NA,NA,2,35,NA,green,m_s_105.jpg,NA,NA,NA,NA,NA,unpleasant,pleasant,NA,NA,NA,NA,NA,right,2691.59999990463,true,NA,NA,NA,NA,NA,NA,NA,NA
Ikt4E84y,3bawbgqgzoco8yjjw9p686v3rigv79,3dhe4r9oc0o0rkucs4er1y7dxzc2g0,Ikt4E84y,2020-0188,2021-10-31,02:43:41,04:15:28,NA,incomplete,false,NA,NA,true,2,0,NA,NA,NA,right,n_l_078.jpg,white,orange,NA,NA,NA,NA,NA,NA,NA,NA,NA,NaN,NA,3843.5,left,0,NA,NA,NA,NA,NA
Ikt4E84y,3bawbgqgzoco8yjjw9p686v3rigv79,3dhe4r9oc0o0rkucs4er1y7dxzc2g0,Ikt4E84y,2020-0188,2021-10-31,02:43:41,04:15:28,NA,incomplete,false,NA,NA,true,2,1,NA,NA,NA,right,m_s_002.jpg,blue,white,NA,NA,NA,NA,NA,NA,NA,NA,NA,NaN,NA,4421.399999856949,left,0,NA,NA,NA,NA,NA
Ikt4E84y,3bawbgqgzoco8yjjw9p686v3rigv79,3dhe4r9oc0o0rkucs4er1y7dxzc2g0,Ikt4E84y,2020-0188,2021-10-31,02:43:41,04:15:28,NA,incomplete,false,NA,NA,true,2,2,NA,NA,NA,left,m_l_022.jpg,yellow,blue,NA,NA,NA,NA,NA,NA,NA,NA,NA,NaN,NA,6325.5,right,0,NA,NA,NA,NA,NA
Ikt4E84y,3bawbgqgzoco8yjjw9p686v3rigv79,3dhe4r9oc0o0rkucs4er1y7dxzc2g0,Ikt4E84y,2020-0188,2021-10-31,02:43:41,04:15:28,NA,incomplete,false,NA,NA,true,2,3,NA,NA,NA,left,n_l_092.jpg,green,purple,NA,NA,NA,NA,NA,NA,NA,NA,NA,NaN,NA,2356.7999999523163,left,1,NA,NA,NA,NA,NA
Ikt4E84y,3bawbgqgzoco8yjjw9p686v3rigv79,3dhe4r9oc0o0rkucs4er1y7dxzc2g0,Ikt4E84y,2020-0188,2021-10-31,02:43:41,04:15:28,NA,incomplete,false,NA,NA,true,2,4,NA,NA,NA,left,m_l_041.jpg,blue,yellow,NA,NA,NA,NA,NA,NA,NA,NA,NA,NaN,NA,7323.299999952316,left,1,NA,NA,NA,NA,NA
Ikt4E84y,3bawbgqgzoco8yjjw9p686v3rigv79,3dhe4r9oc0o0rkucs4er1y7dxzc2g0,Ikt4E84y,2020-0188,2021-10-31,02:43:41,04:15:28,NA,incomplete,false,NA,NA,true,2,5,NA,NA,NA,right,n_s_003.jpg,white,orange,NA,NA,NA,NA,NA,NA,NA,NA,NA,NaN,NA,3261.7000000476837,left,0,NA,NA,NA,NA,NA
Ikt4E84y,3bawbgqgzoco8yjjw9p686v3rigv79,3dhe4r9oc0o0rkucs4er1y7dxzc2g0,Ikt4E84y,2020-0188,2021-10-31,02:43:41,04:15:28,NA,incomplete,false,NA,NA,true,2,6,NA,NA,NA,right,m_s_092.jpg,green,purple,NA,NA,NA,NA,NA,NA,NA,NA,NA,NaN,NA,6876,left,0,NA,NA,NA,NA,NA
Ikt4E84y,3bawbgqgzoco8yjjw9p686v3rigv79,3dhe4r9oc0o0rkucs4er1y7dxzc2g0,Ikt4E84y,2020-0188,2021-10-31,02:43:41,04:15:28,NA,incomplete,false,NA,NA,true,2,7,NA,NA,NA,left,n_s_041.jpg,white,orange,NA,NA,NA,NA,NA,NA,NA,NA,NA,NaN,NA,3623.7000000476837,left,1,NA,NA,NA,NA,NA
Ikt4E84y,3bawbgqgzoco8yjjw9p686v3rigv79,3dhe4r9oc0o0rkucs4er1y7dxzc2g0,Ikt4E84y,2020-0188,2021-10-31,02:43:41,04:15:28,NA,incomplete,false,NA,NA,true,2,8,NA,NA,NA,left,m_l_089.jpg,white,blue,NA,NA,NA,NA,NA,NA,NA,NA,NA,NaN,NA,3030.699999809265,left,1,NA,NA,NA,NA,NA
Ikt4E84y,3bawbgqgzoco8yjjw9p686v3rigv79,3dhe4r9oc0o0rkucs4er1y7dxzc2g0,Ikt4E84y,2020-0188,2021-10-31,02:43:41,04:15:28,NA,incomplete,false,NA,NA,true,2,9,NA,NA,NA,left,m_s_105.jpg,green,purple,NA,NA,NA,NA,NA,NA,NA,NA,NA,NaN,NA,5754.5,right,0,NA,NA,NA,NA,NA
Ikt4E84y,3bawbgqgzoco8yjjw9p686v3rigv79,3dhe4r9oc0o0rkucs4er1y7dxzc2g0,Ikt4E84y,2020-0188,2021-10-31,02:43:41,04:15:28,NA,incomplete,false,NA,NA,true,2,10,NA,NA,NA,left,n_s_101.jpg,purple,yellow,NA,NA,NA,NA,NA,NA,NA,NA,NA,NaN,NA,3542.199999809265,left,1,NA,NA,NA,NA,NA
Ikt4E84y,3bawbgqgzoco8yjjw9p686v3rigv79,3dhe4r9oc0o0rkucs4er1y7dxzc2g0,Ikt4E84y,2020-0188,2021-10-31,02:43:41,04:15:28,NA,incomplete,false,NA,NA,true,2,11,NA,NA,NA,left,m_s_039.jpg,purple,green,NA,NA,NA,NA,NA,NA,NA,NA,NA,NaN,NA,2189.5999999046326,left,1,NA,NA,NA,NA,NA
Ikt4E84y,3bawbgqgzoco8yjjw9p686v3rigv79,3dhe4r9oc0o0rkucs4er1y7dxzc2g0,Ikt4E84y,2020-0188,2021-10-31,02:43:41,04:15:28,NA,incomplete,false,NA,NA,true,2,12,NA,NA,NA,left,m_l_002.jpg,yellow,purple,NA,NA,NA,NA,NA,NA,NA,NA,NA,NaN,NA,2376.5,right,0,NA,NA,NA,NA,NA
Ikt4E84y,3bawbgqgzoco8yjjw9p686v3rigv79,3dhe4r9oc0o0rkucs4er1y7dxzc2g0,Ikt4E84y,2020-0188,2021-10-31,02:43:41,04:15:28,NA,incomplete,false,NA,NA,true,2,13,NA,NA,NA,left,n_l_002.jpg,purple,yellow,NA,NA,NA,NA,NA,NA,NA,NA,NA,NaN,NA,2564.7999999523163,left,1,NA,NA,NA,NA,NA
Ikt4E84y,3bawbgqgzoco8yjjw9p686v3rigv79,3dhe4r9oc0o0rkucs4er1y7dxzc2g0,Ikt4E84y,2020-0188,2021-10-31,02:43:41,04:15:28,NA,incomplete,false,NA,NA,true,2,14,NA,NA,NA,left,n_l_096.jpg,blue,white,NA,NA,NA,NA,NA,NA,NA,NA,NA,NaN,NA,4071.600000143051,left,1,NA,NA,NA,NA,NA
Ikt4E84y,3bawbgqgzoco8yjjw9p686v3rigv79,3dhe4r9oc0o0rkucs4er1y7dxzc2g0,Ikt4E84y,2020-0188,2021-10-31,02:43:41,04:15:28,NA,incomplete,false,NA,NA,true,2,15,NA,NA,NA,left,n_l_084.jpg,blue,white,NA,NA,NA,NA,NA,NA,NA,NA,NA,NaN,NA,2023,left,1,NA,NA,NA,NA,NA
Ikt4E84y,3bawbgqgzoco8yjjw9p686v3rigv79,3dhe4r9oc0o0rkucs4er1y7dxzc2g0,Ikt4E84y,2020-0188,2021-10-31,02:43:41,04:15:28,NA,incomplete,false,NA,NA,true,2,16,NA,NA,NA,left,m_l_101.jpg,orange,white,NA,NA,NA,NA,NA,NA,NA,NA,NA,NaN,NA,2753.5,left,1,NA,NA,NA,NA,NA
Ikt4E84y,3bawbgqgzoco8yjjw9p686v3rigv79,3dhe4r9oc0o0rkucs4er1y7dxzc2g0,Ikt4E84y,2020-0188,2021-10-31,02:43:41,04:15:28,NA,incomplete,false,NA,NA,true,2,17,NA,NA,NA,left,m_l_019.jpg,yellow,blue,NA,NA,NA,NA,NA,NA,NA,NA,NA,NaN,NA,2317.2999999523163,right,0,NA,NA,NA,NA,NA
Ikt4E84y,3bawbgqgzoco8yjjw9p686v3rigv79,3dhe4r9oc0o0rkucs4er1y7dxzc2g0,Ikt4E84y,2020-0188,2021-10-31,02:43:41,04:15:28,NA,incomplete,false,NA,NA,true,2,18,NA,NA,NA,right,n_s_090.jpg,white,blue,NA,NA,NA,NA,NA,NA,NA,NA,NA,NaN,NA,3101.9000000953674,right,1,NA,NA,NA,NA,NA
Ikt4E84y,3bawbgqgzoco8yjjw9p686v3rigv79,3dhe4r9oc0o0rkucs4er1y7dxzc2g0,Ikt4E84y,2020-0188,2021-10-31,02:43:41,04:15:28,NA,incomplete,false,NA,NA,true,2,19,NA,NA,NA,right,m_l_087.jpg,blue,white,NA,NA,NA,NA,NA,NA,NA,NA,NA,NaN,NA,1895.3000001907349,right,1,NA,NA,NA,NA,NA
Ikt4E84y,3bawbgqgzoco8yjjw9p686v3rigv79,3dhe4r9oc0o0rkucs4er1y7dxzc2g0,Ikt4E84y,2020-0188,2021-10-31,02:43:41,04:15:28,NA,incomplete,false,NA,NA,true,2,20,NA,NA,NA,left,m_s_094.jpg,green,purple,NA,NA,NA,NA,NA,NA,NA,NA,NA,NaN,NA,2947.2999999523163,left,1,NA,NA,NA,NA,NA
Ikt4E84y,3bawbgqgzoco8yjjw9p686v3rigv79,3dhe4r9oc0o0rkucs4er1y7dxzc2g0,Ikt4E84y,2020-0188,2021-10-31,02:43:41,04:15:28,NA,incomplete,false,NA,NA,true,2,21,NA,NA,NA,left,n_l_116.jpg,yellow,blue,NA,NA,NA,NA,NA,NA,NA,NA,NA,NaN,NA,6707.599999904633,right,0,NA,NA,NA,NA,NA
Ikt4E84y,3bawbgqgzoco8yjjw9p686v3rigv79,3dhe4r9oc0o0rkucs4er1y7dxzc2g0,Ikt4E84y,2020-0188,2021-10-31,02:43:41,04:15:28,NA,incomplete,false,NA,true,NA,2,0,NA,NA,NA,right,NA,NA,NA,absent,NA,NA,m_l_019.jpg,yellow,m_l_022.jpg,yellow,within,NA,NaN,NA,NA,NA,NA,right,5036.699999809265,1,1,3085.4000000953674
Ikt4E84y,3bawbgqgzoco8yjjw9p686v3rigv79,3dhe4r9oc0o0rkucs4er1y7dxzc2g0,Ikt4E84y,2020-0188,2021-10-31,02:43:41,04:15:28,NA,incomplete,false,NA,true,NA,2,1,NA,NA,NA,right,NA,NA,NA,absent,NA,NA,m_s_094.jpg,green,n_s_101.jpg,purple,between,NA,NaN,NA,NA,NA,NA,right,4591.600000143051,1,2,1305.1000001430511
Ikt4E84y,3bawbgqgzoco8yjjw9p686v3rigv79,3dhe4r9oc0o0rkucs4er1y7dxzc2g0,Ikt4E84y,2020-0188,2021-10-31,02:43:41,04:15:28,NA,incomplete,false,NA,true,NA,2,2,NA,NA,NA,right,NA,NA,NA,absent,NA,NA,n_l_078.jpg,orange,n_s_003.jpg,orange,within,NA,NaN,NA,NA,NA,NA,left,5585.899999856949,0,3,3628.2000000476837
Ikt4E84y,3bawbgqgzoco8yjjw9p686v3rigv79,3dhe4r9oc0o0rkucs4er1y7dxzc2g0,Ikt4E84y,2020-0188,2021-10-31,02:43:41,04:15:28,NA,incomplete,false,NA,true,NA,2,3,NA,NA,NA,right,NA,NA,NA,absent,NA,NA,n_l_002.jpg,purple,m_s_039.jpg,purple,within,NA,NaN,NA,NA,NA,NA,right,3608.5,1,0,3038.7999999523163
Ikt4E84y,3bawbgqgzoco8yjjw9p686v3rigv79,3dhe4r9oc0o0rkucs4er1y7dxzc2g0,Ikt4E84y,2020-0188,2021-10-31,02:43:41,04:15:28,NA,incomplete,false,NA,true,NA,2,4,NA,NA,NA,right,NA,NA,NA,absent,NA,NA,n_l_084.jpg,blue,m_l_087.jpg,white,between,NA,NaN,NA,NA,NA,NA,left,6261.200000047684,0,2,6072.400000095367
Ikt4E84y,3bawbgqgzoco8yjjw9p686v3rigv79,3dhe4r9oc0o0rkucs4er1y7dxzc2g0,Ikt4E84y,2020-0188,2021-10-31,02:43:41,04:15:28,NA,incomplete,false,NA,true,NA,2,5,NA,NA,NA,left,NA,NA,NA,absent,NA,NA,n_s_090.jpg,blue,m_l_041.jpg,blue,within,NA,NaN,NA,NA,NA,NA,left,15563.099999904633,1,2,2414.7000000476837
Ikt4E84y,3bawbgqgzoco8yjjw9p686v3rigv79,3dhe4r9oc0o0rkucs4er1y7dxzc2g0,Ikt4E84y,2020-0188,2021-10-31,02:43:41,04:15:28,NA,incomplete,false,NA,true,NA,2,6,NA,NA,NA,left,NA,NA,NA,absent,NA,NA,m_l_002.jpg,yellow,m_s_092.jpg,purple,between,NA,NaN,NA,NA,NA,NA,left,4850.400000095367,1,3,3543.5999999046326
Ikt4E84y,3bawbgqgzoco8yjjw9p686v3rigv79,3dhe4r9oc0o0rkucs4er1y7dxzc2g0,Ikt4E84y,2020-0188,2021-10-31,02:43:41,04:15:28,NA,incomplete,false,NA,true,NA,2,7,NA,NA,NA,right,NA,NA,NA,absent,NA,NA,n_l_116.jpg,yellow,n_l_096.jpg,blue,between,NA,NaN,NA,NA,NA,NA,right,8408.700000047684,1,0,1876.0999999046326
Ikt4E84y,3bawbgqgzoco8yjjw9p686v3rigv79,3dhe4r9oc0o0rkucs4er1y7dxzc2g0,Ikt4E84y,2020-0188,2021-10-31,02:43:41,04:15:28,NA,incomplete,false,NA,true,NA,2,8,NA,NA,NA,right,NA,NA,NA,absent,NA,NA,m_s_105.jpg,green,n_l_092.jpg,green,within,NA,NaN,NA,NA,NA,NA,left,3770.4000000953674,0,3,1483.0999999046326
Ikt4E84y,3bawbgqgzoco8yjjw9p686v3rigv79,3dhe4r9oc0o0rkucs4er1y7dxzc2g0,Ikt4E84y,2020-0188,2021-10-31,02:43:41,04:15:28,NA,incomplete,false,NA,true,NA,2,9,NA,NA,NA,right,NA,NA,NA,absent,NA,NA,m_l_089.jpg,white,n_s_041.jpg,white,within,NA,NaN,NA,NA,NA,NA,right,2538.600000143051,1,0,2019.5
Ikt4E84y,3bawbgqgzoco8yjjw9p686v3rigv79,3dhe4r9oc0o0rkucs4er1y7dxzc2g0,Ikt4E84y,2020-0188,2021-10-31,02:43:41,04:15:28,NA,incomplete,false,NA,true,NA,2,10,NA,NA,NA,left,NA,NA,NA,absent,NA,NA,m_l_101.jpg,orange,m_s_002.jpg,white,between,NA,NaN,NA,NA,NA,NA,left,2682.9000000953674,1,1,1643.4000000953674
Ikt4E84y,3bawbgqgzoco8yjjw9p686v3rigv79,3dhe4r9oc0o0rkucs4er1y7dxzc2g0,Ikt4E84y,2020-0188,2021-10-31,02:43:41,04:15:28,NA,incomplete,false,true,NA,NA,3,0,NA,orange,n_l_115.jpg,NA,NA,NA,NA,NA,pleasant,unpleasant,NA,NA,NA,NA,NA,right,3164.5,true,NA,NA,NA,NA,NA,NA,NA,NA
Ikt4E84y,3bawbgqgzoco8yjjw9p686v3rigv79,3dhe4r9oc0o0rkucs4er1y7dxzc2g0,Ikt4E84y,2020-0188,2021-10-31,02:43:41,04:15:28,NA,incomplete,false,true,NA,NA,3,1,NA,orange,n_s_092.jpg,NA,NA,NA,NA,NA,unpleasant,pleasant,NA,NA,NA,NA,NA,right,1877.80000019073,true,NA,NA,NA,NA,NA,NA,NA,NA
Ikt4E84y,3bawbgqgzoco8yjjw9p686v3rigv79,3dhe4r9oc0o0rkucs4er1y7dxzc2g0,Ikt4E84y,2020-0188,2021-10-31,02:43:41,04:15:28,NA,incomplete,false,true,NA,NA,3,2,NA,orange,n_l_053.jpg,NA,NA,NA,NA,NA,pleasant,unpleasant,NA,NA,NA,NA,NA,left,1600.5,true,NA,NA,NA,NA,NA,NA,NA,NA
Ikt4E84y,3bawbgqgzoco8yjjw9p686v3rigv79,3dhe4r9oc0o0rkucs4er1y7dxzc2g0,Ikt4E84y,2020-0188,2021-10-31,02:43:41,04:15:28,NA,incomplete,false,true,NA,NA,3,3,NA,orange,m_l_005.jpg,NA,NA,NA,NA,NA,pleasant,unpleasant,NA,NA,NA,NA,NA,right,1607.10000014305,true,NA,NA,NA,NA,NA,NA,NA,NA
Ikt4E84y,3bawbgqgzoco8yjjw9p686v3rigv79,3dhe4r9oc0o0rkucs4er1y7dxzc2g0,Ikt4E84y,2020-0188,2021-10-31,02:43:41,04:15:28,NA,incomplete,false,true,NA,NA,3,4,NA,orange,m_l_021.jpg,NA,NA,NA,NA,NA,pleasant,unpleasant,NA,NA,NA,NA,NA,right,1753.60000014305,true,NA,NA,NA,NA,NA,NA,NA,NA
Ikt4E84y,3bawbgqgzoco8yjjw9p686v3rigv79,3dhe4r9oc0o0rkucs4er1y7dxzc2g0,Ikt4E84y,2020-0188,2021-10-31,02:43:41,04:15:28,NA,incomplete,false,true,NA,NA,3,5,NA,orange,m_s_028.jpg,NA,NA,NA,NA,NA,unpleasant,pleasant,NA,NA,NA,NA,NA,right,1822.79999995232,true,NA,NA,NA,NA,NA,NA,NA,NA
Ikt4E84y,3bawbgqgzoco8yjjw9p686v3rigv79,3dhe4r9oc0o0rkucs4er1y7dxzc2g0,Ikt4E84y,2020-0188,2021-10-31,02:43:41,04:15:28,NA,incomplete,false,true,NA,NA,3,6,NA,brown,n_l_003.jpg,NA,NA,NA,NA,NA,unpleasant,pleasant,NA,NA,NA,NA,NA,right,2009.09999990463,true,NA,NA,NA,NA,NA,NA,NA,NA
Ikt4E84y,3bawbgqgzoco8yjjw9p686v3rigv79,3dhe4r9oc0o0rkucs4er1y7dxzc2g0,Ikt4E84y,2020-0188,2021-10-31,02:43:41,04:15:28,NA,incomplete,false,true,NA,NA,3,7,NA,brown,n_l_048.jpg,NA,NA,NA,NA,NA,unpleasant,pleasant,NA,NA,NA,NA,NA,right,2145.09999990463,true,NA,NA,NA,NA,NA,NA,NA,NA
Ikt4E84y,3bawbgqgzoco8yjjw9p686v3rigv79,3dhe4r9oc0o0rkucs4er1y7dxzc2g0,Ikt4E84y,2020-0188,2021-10-31,02:43:41,04:15:28,NA,incomplete,false,true,NA,NA,3,8,NA,brown,n_s_115.jpg,NA,NA,NA,NA,NA,pleasant,unpleasant,NA,NA,NA,NA,NA,right,1842.5,true,NA,NA,NA,NA,NA,NA,NA,NA
Ikt4E84y,3bawbgqgzoco8yjjw9p686v3rigv79,3dhe4r9oc0o0rkucs4er1y7dxzc2g0,Ikt4E84y,2020-0188,2021-10-31,02:43:41,04:15:28,NA,incomplete,false,true,NA,NA,3,9,NA,brown,m_l_009.jpg,NA,NA,NA,NA,NA,unpleasant,pleasant,NA,NA,NA,NA,NA,left,2413.09999990463,true,NA,NA,NA,NA,NA,NA,NA,NA
Ikt4E84y,3bawbgqgzoco8yjjw9p686v3rigv79,3dhe4r9oc0o0rkucs4er1y7dxzc2g0,Ikt4E84y,2020-0188,2021-10-31,02:43:41,04:15:28,NA,incomplete,false,true,NA,NA,3,10,NA,brown,m_s_026.jpg,NA,NA,NA,NA,NA,pleasant,unpleasant,NA,NA,NA,NA,NA,right,2213.09999990463,true,NA,NA,NA,NA,NA,NA,NA,NA
Ikt4E84y,3bawbgqgzoco8yjjw9p686v3rigv79,3dhe4r9oc0o0rkucs4er1y7dxzc2g0,Ikt4E84y,2020-0188,2021-10-31,02:43:41,04:15:28,NA,incomplete,false,true,NA,NA,3,11,NA,brown,m_l_063.jpg,NA,NA,NA,NA,NA,unpleasant,pleasant,NA,NA,NA,NA,NA,left,1928.40000009537,true,NA,NA,NA,NA,NA,NA,NA,NA
Ikt4E84y,3bawbgqgzoco8yjjw9p686v3rigv79,3dhe4r9oc0o0rkucs4er1y7dxzc2g0,Ikt4E84y,2020-0188,2021-10-31,02:43:41,04:15:28,NA,incomplete,false,true,NA,NA,3,12,NA,yellow,m_l_085.jpg,NA,NA,NA,NA,NA,pleasant,unpleasant,NA,NA,NA,NA,NA,right,2219.20000004768,true,NA,NA,NA,NA,NA,NA,NA,NA
Ikt4E84y,3bawbgqgzoco8yjjw9p686v3rigv79,3dhe4r9oc0o0rkucs4er1y7dxzc2g0,Ikt4E84y,2020-0188,2021-10-31,02:43:41,04:15:28,NA,incomplete,false,true,NA,NA,3,13,NA,yellow,n_s_107.jpg,NA,NA,NA,NA,NA,unpleasant,pleasant,NA,NA,NA,NA,NA,right,3143.90000009537,true,NA,NA,NA,NA,NA,NA,NA,NA
Ikt4E84y,3bawbgqgzoco8yjjw9p686v3rigv79,3dhe4r9oc0o0rkucs4er1y7dxzc2g0,Ikt4E84y,2020-0188,2021-10-31,02:43:41,04:15:28,NA,incomplete,false,true,NA,NA,3,14,NA,yellow,n_s_076.jpg,NA,NA,NA,NA,NA,unpleasant,pleasant,NA,NA,NA,NA,NA,right,3174.5,true,NA,NA,NA,NA,NA,NA,NA,NA
Ikt4E84y,3bawbgqgzoco8yjjw9p686v3rigv79,3dhe4r9oc0o0rkucs4er1y7dxzc2g0,Ikt4E84y,2020-0188,2021-10-31,02:43:41,04:15:28,NA,incomplete,false,true,NA,NA,3,15,NA,yellow,m_s_102.jpg,NA,NA,NA,NA,NA,pleasant,unpleasant,NA,NA,NA,NA,NA,right,3001.89999985695,true,NA,NA,NA,NA,NA,NA,NA,NA
Ikt4E84y,3bawbgqgzoco8yjjw9p686v3rigv79,3dhe4r9oc0o0rkucs4er1y7dxzc2g0,Ikt4E84y,2020-0188,2021-10-31,02:43:41,04:15:28,NA,incomplete,false,true,NA,NA,3,16,NA,yellow,m_l_095.jpg,NA,NA,NA,NA,NA,pleasant,unpleasant,NA,NA,NA,NA,NA,left,2094.20000004768,true,NA,NA,NA,NA,NA,NA,NA,NA
Ikt4E84y,3bawbgqgzoco8yjjw9p686v3rigv79,3dhe4r9oc0o0rkucs4er1y7dxzc2g0,Ikt4E84y,2020-0188,2021-10-31,02:43:41,04:15:28,NA,incomplete,false,true,NA,NA,3,17,NA,yellow,n_s_102.jpg,NA,NA,NA,NA,NA,unpleasant,pleasant,NA,NA,NA,NA,NA,right,1612.5,true,NA,NA,NA,NA,NA,NA,NA,NA
Ikt4E84y,3bawbgqgzoco8yjjw9p686v3rigv79,3dhe4r9oc0o0rkucs4er1y7dxzc2g0,Ikt4E84y,2020-0188,2021-10-31,02:43:41,04:15:28,NA,incomplete,false,true,NA,NA,3,18,NA,black,m_s_066.jpg,NA,NA,NA,NA,NA,unpleasant,pleasant,NA,NA,NA,NA,NA,left,2805.89999985695,true,NA,NA,NA,NA,NA,NA,NA,NA
Ikt4E84y,3bawbgqgzoco8yjjw9p686v3rigv79,3dhe4r9oc0o0rkucs4er1y7dxzc2g0,Ikt4E84y,2020-0188,2021-10-31,02:43:41,04:15:28,NA,incomplete,false,true,NA,NA,3,19,NA,black,n_s_027.jpg,NA,NA,NA,NA,NA,unpleasant,pleasant,NA,NA,NA,NA,NA,left,1786.10000014305,true,NA,NA,NA,NA,NA,NA,NA,NA
Ikt4E84y,3bawbgqgzoco8yjjw9p686v3rigv79,3dhe4r9oc0o0rkucs4er1y7dxzc2g0,Ikt4E84y,2020-0188,2021-10-31,02:43:41,04:15:28,NA,incomplete,false,true,NA,NA,3,20,NA,black,m_l_026.jpg,NA,NA,NA,NA,NA,pleasant,unpleasant,NA,NA,NA,NA,NA,right,1649.70000004768,true,NA,NA,NA,NA,NA,NA,NA,NA
Ikt4E84y,3bawbgqgzoco8yjjw9p686v3rigv79,3dhe4r9oc0o0rkucs4er1y7dxzc2g0,Ikt4E84y,2020-0188,2021-10-31,02:43:41,04:15:28,NA,incomplete,false,true,NA,NA,3,21,NA,black,n_l_011.jpg,NA,NA,NA,NA,NA,unpleasant,pleasant,NA,NA,NA,NA,NA,left,2116.89999985695,true,NA,NA,NA,NA,NA,NA,NA,NA
Ikt4E84y,3bawbgqgzoco8yjjw9p686v3rigv79,3dhe4r9oc0o0rkucs4er1y7dxzc2g0,Ikt4E84y,2020-0188,2021-10-31,02:43:41,04:15:28,NA,incomplete,false,true,NA,NA,3,22,NA,black,m_s_061.jpg,NA,NA,NA,NA,NA,unpleasant,pleasant,NA,NA,NA,NA,NA,left,1565.20000004768,true,NA,NA,NA,NA,NA,NA,NA,NA
Ikt4E84y,3bawbgqgzoco8yjjw9p686v3rigv79,3dhe4r9oc0o0rkucs4er1y7dxzc2g0,Ikt4E84y,2020-0188,2021-10-31,02:43:41,04:15:28,NA,incomplete,false,true,NA,NA,3,23,NA,black,m_l_102.jpg,NA,NA,NA,NA,NA,unpleasant,pleasant,NA,NA,NA,NA,NA,left,2454.40000009537,true,NA,NA,NA,NA,NA,NA,NA,NA
Ikt4E84y,3bawbgqgzoco8yjjw9p686v3rigv79,3dhe4r9oc0o0rkucs4er1y7dxzc2g0,Ikt4E84y,2020-0188,2021-10-31,02:43:41,04:15:28,NA,incomplete,false,true,NA,NA,3,24,NA,gray,m_s_068.jpg,NA,NA,NA,NA,NA,pleasant,unpleasant,NA,NA,NA,NA,NA,right,2484.20000004768,true,NA,NA,NA,NA,NA,NA,NA,NA
Ikt4E84y,3bawbgqgzoco8yjjw9p686v3rigv79,3dhe4r9oc0o0rkucs4er1y7dxzc2g0,Ikt4E84y,2020-0188,2021-10-31,02:43:41,04:15:28,NA,incomplete,false,true,NA,NA,3,25,NA,gray,n_s_096.jpg,NA,NA,NA,NA,NA,pleasant,unpleasant,NA,NA,NA,NA,NA,right,1515.40000009537,true,NA,NA,NA,NA,NA,NA,NA,NA
Ikt4E84y,3bawbgqgzoco8yjjw9p686v3rigv79,3dhe4r9oc0o0rkucs4er1y7dxzc2g0,Ikt4E84y,2020-0188,2021-10-31,02:43:41,04:15:28,NA,incomplete,false,true,NA,NA,3,26,NA,gray,n_s_044.jpg,NA,NA,NA,NA,NA,pleasant,unpleasant,NA,NA,NA,NA,NA,right,1277,true,NA,NA,NA,NA,NA,NA,NA,NA
Ikt4E84y,3bawbgqgzoco8yjjw9p686v3rigv79,3dhe4r9oc0o0rkucs4er1y7dxzc2g0,Ikt4E84y,2020-0188,2021-10-31,02:43:41,04:15:28,NA,incomplete,false,true,NA,NA,3,27,NA,gray,n_l_062.jpg,NA,NA,NA,NA,NA,pleasant,unpleasant,NA,NA,NA,NA,NA,right,1404,true,NA,NA,NA,NA,NA,NA,NA,NA
Ikt4E84y,3bawbgqgzoco8yjjw9p686v3rigv79,3dhe4r9oc0o0rkucs4er1y7dxzc2g0,Ikt4E84y,2020-0188,2021-10-31,02:43:41,04:15:28,NA,incomplete,false,true,NA,NA,3,28,NA,gray,n_l_036.jpg,NA,NA,NA,NA,NA,unpleasant,pleasant,NA,NA,NA,NA,NA,left,2246.90000009537,true,NA,NA,NA,NA,NA,NA,NA,NA
Ikt4E84y,3bawbgqgzoco8yjjw9p686v3rigv79,3dhe4r9oc0o0rkucs4er1y7dxzc2g0,Ikt4E84y,2020-0188,2021-10-31,02:43:41,04:15:28,NA,incomplete,false,true,NA,NA,3,29,NA,gray,n_l_039.jpg,NA,NA,NA,NA,NA,unpleasant,pleasant,NA,NA,NA,NA,NA,left,2987.5,true,NA,NA,NA,NA,NA,NA,NA,NA
Ikt4E84y,3bawbgqgzoco8yjjw9p686v3rigv79,3dhe4r9oc0o0rkucs4er1y7dxzc2g0,Ikt4E84y,2020-0188,2021-10-31,02:43:41,04:15:28,NA,incomplete,false,true,NA,NA,3,30,NA,white,m_l_105.jpg,NA,NA,NA,NA,NA,unpleasant,pleasant,NA,NA,NA,NA,NA,right,2098.90000009537,true,NA,NA,NA,NA,NA,NA,NA,NA
Ikt4E84y,3bawbgqgzoco8yjjw9p686v3rigv79,3dhe4r9oc0o0rkucs4er1y7dxzc2g0,Ikt4E84y,2020-0188,2021-10-31,02:43:41,04:15:28,NA,incomplete,false,true,NA,NA,3,31,NA,white,n_l_071.jpg,NA,NA,NA,NA,NA,pleasant,unpleasant,NA,NA,NA,NA,NA,left,1637.20000004768,true,NA,NA,NA,NA,NA,NA,NA,NA
Ikt4E84y,3bawbgqgzoco8yjjw9p686v3rigv79,3dhe4r9oc0o0rkucs4er1y7dxzc2g0,Ikt4E84y,2020-0188,2021-10-31,02:43:41,04:15:28,NA,incomplete,false,true,NA,NA,3,32,NA,white,m_s_016.jpg,NA,NA,NA,NA,NA,unpleasant,pleasant,NA,NA,NA,NA,NA,right,2608.60000014305,true,NA,NA,NA,NA,NA,NA,NA,NA
Ikt4E84y,3bawbgqgzoco8yjjw9p686v3rigv79,3dhe4r9oc0o0rkucs4er1y7dxzc2g0,Ikt4E84y,2020-0188,2021-10-31,02:43:41,04:15:28,NA,incomplete,false,true,NA,NA,3,33,NA,white,n_l_020.jpg,NA,NA,NA,NA,NA,pleasant,unpleasant,NA,NA,NA,NA,NA,left,2338.20000004768,true,NA,NA,NA,NA,NA,NA,NA,NA
Ikt4E84y,3bawbgqgzoco8yjjw9p686v3rigv79,3dhe4r9oc0o0rkucs4er1y7dxzc2g0,Ikt4E84y,2020-0188,2021-10-31,02:43:41,04:15:28,NA,incomplete,false,true,NA,NA,3,34,NA,white,m_s_064.jpg,NA,NA,NA,NA,NA,pleasant,unpleasant,NA,NA,NA,NA,NA,left,2140.09999990463,true,NA,NA,NA,NA,NA,NA,NA,NA
Ikt4E84y,3bawbgqgzoco8yjjw9p686v3rigv79,3dhe4r9oc0o0rkucs4er1y7dxzc2g0,Ikt4E84y,2020-0188,2021-10-31,02:43:41,04:15:28,NA,incomplete,false,true,NA,NA,3,35,NA,white,m_s_116.jpg,NA,NA,NA,NA,NA,unpleasant,pleasant,NA,NA,NA,NA,NA,left,1458.89999985695,true,NA,NA,NA,NA,NA,NA,NA,NA
Ikt4E84y,3bawbgqgzoco8yjjw9p686v3rigv79,3dhe4r9oc0o0rkucs4er1y7dxzc2g0,Ikt4E84y,2020-0188,2021-10-31,02:43:41,04:15:28,NA,incomplete,false,NA,NA,true,3,0,NA,NA,NA,left,n_s_096.jpg,gray,black,NA,NA,NA,NA,NA,NA,NA,NA,NA,NaN,NA,5619.099999904633,left,1,NA,NA,NA,NA,NA
Ikt4E84y,3bawbgqgzoco8yjjw9p686v3rigv79,3dhe4r9oc0o0rkucs4er1y7dxzc2g0,Ikt4E84y,2020-0188,2021-10-31,02:43:41,04:15:28,NA,incomplete,false,NA,NA,true,3,1,NA,NA,NA,left,n_s_044.jpg,gray,white,NA,NA,NA,NA,NA,NA,NA,NA,NA,NaN,NA,3065.5,right,0,NA,NA,NA,NA,NA
Ikt4E84y,3bawbgqgzoco8yjjw9p686v3rigv79,3dhe4r9oc0o0rkucs4er1y7dxzc2g0,Ikt4E84y,2020-0188,2021-10-31,02:43:41,04:15:28,NA,incomplete,false,NA,NA,true,3,2,NA,NA,NA,right,m_s_116.jpg,gray,white,NA,NA,NA,NA,NA,NA,NA,NA,NA,NaN,NA,3304.0999999046326,left,0,NA,NA,NA,NA,NA
Ikt4E84y,3bawbgqgzoco8yjjw9p686v3rigv79,3dhe4r9oc0o0rkucs4er1y7dxzc2g0,Ikt4E84y,2020-0188,2021-10-31,02:43:41,04:15:28,NA,incomplete,false,NA,NA,true,3,3,NA,NA,NA,right,m_s_026.jpg,orange,brown,NA,NA,NA,NA,NA,NA,NA,NA,NA,NaN,NA,4813,right,1,NA,NA,NA,NA,NA
Ikt4E84y,3bawbgqgzoco8yjjw9p686v3rigv79,3dhe4r9oc0o0rkucs4er1y7dxzc2g0,Ikt4E84y,2020-0188,2021-10-31,02:43:41,04:15:28,NA,incomplete,false,NA,NA,true,3,4,NA,NA,NA,left,m_l_026.jpg,black,yellow,NA,NA,NA,NA,NA,NA,NA,NA,NA,NaN,NA,3018.0999999046326,right,0,NA,NA,NA,NA,NA
Ikt4E84y,3bawbgqgzoco8yjjw9p686v3rigv79,3dhe4r9oc0o0rkucs4er1y7dxzc2g0,Ikt4E84y,2020-0188,2021-10-31,02:43:41,04:15:28,NA,incomplete,false,NA,NA,true,3,5,NA,NA,NA,right,m_s_028.jpg,brown,orange,NA,NA,NA,NA,NA,NA,NA,NA,NA,NaN,NA,3709.2999999523163,right,1,NA,NA,NA,NA,NA
Ikt4E84y,3bawbgqgzoco8yjjw9p686v3rigv79,3dhe4r9oc0o0rkucs4er1y7dxzc2g0,Ikt4E84y,2020-0188,2021-10-31,02:43:41,04:15:28,NA,incomplete,false,NA,NA,true,3,6,NA,NA,NA,right,n_l_071.jpg,gray,white,NA,NA,NA,NA,NA,NA,NA,NA,NA,NaN,NA,1968.4000000953674,right,1,NA,NA,NA,NA,NA
Ikt4E84y,3bawbgqgzoco8yjjw9p686v3rigv79,3dhe4r9oc0o0rkucs4er1y7dxzc2g0,Ikt4E84y,2020-0188,2021-10-31,02:43:41,04:15:28,NA,incomplete,false,NA,NA,true,3,7,NA,NA,NA,right,m_l_102.jpg,gray,black,NA,NA,NA,NA,NA,NA,NA,NA,NA,NaN,NA,4129.5,left,0,NA,NA,NA,NA,NA
Ikt4E84y,3bawbgqgzoco8yjjw9p686v3rigv79,3dhe4r9oc0o0rkucs4er1y7dxzc2g0,Ikt4E84y,2020-0188,2021-10-31,02:43:41,04:15:28,NA,incomplete,false,NA,NA,true,3,8,NA,NA,NA,left,m_s_016.jpg,white,gray,NA,NA,NA,NA,NA,NA,NA,NA,NA,NaN,NA,3297.199999809265,left,1,NA,NA,NA,NA,NA
Ikt4E84y,3bawbgqgzoco8yjjw9p686v3rigv79,3dhe4r9oc0o0rkucs4er1y7dxzc2g0,Ikt4E84y,2020-0188,2021-10-31,02:43:41,04:15:28,NA,incomplete,false,NA,NA,true,3,9,NA,NA,NA,right,m_l_063.jpg,yellow,brown,NA,NA,NA,NA,NA,NA,NA,NA,NA,NaN,NA,2311.5,right,1,NA,NA,NA,NA,NA
Ikt4E84y,3bawbgqgzoco8yjjw9p686v3rigv79,3dhe4r9oc0o0rkucs4er1y7dxzc2g0,Ikt4E84y,2020-0188,2021-10-31,02:43:41,04:15:28,NA,incomplete,false,NA,NA,true,3,10,NA,NA,NA,left,n_s_076.jpg,yellow,brown,NA,NA,NA,NA,NA,NA,NA,NA,NA,NaN,NA,2322.5999999046326,right,0,NA,NA,NA,NA,NA
Ikt4E84y,3bawbgqgzoco8yjjw9p686v3rigv79,3dhe4r9oc0o0rkucs4er1y7dxzc2g0,Ikt4E84y,2020-0188,2021-10-31,02:43:41,04:15:28,NA,incomplete,false,NA,NA,true,3,11,NA,NA,NA,left,n_s_092.jpg,orange,brown,NA,NA,NA,NA,NA,NA,NA,NA,NA,NaN,NA,3281,left,1,NA,NA,NA,NA,NA
Ikt4E84y,3bawbgqgzoco8yjjw9p686v3rigv79,3dhe4r9oc0o0rkucs4er1y7dxzc2g0,Ikt4E84y,2020-0188,2021-10-31,02:43:41,04:15:28,NA,incomplete,false,NA,NA,true,3,12,NA,NA,NA,right,n_l_039.jpg,black,gray,NA,NA,NA,NA,NA,NA,NA,NA,NA,NaN,NA,3808.7000000476837,right,1,NA,NA,NA,NA,NA
Ikt4E84y,3bawbgqgzoco8yjjw9p686v3rigv79,3dhe4r9oc0o0rkucs4er1y7dxzc2g0,Ikt4E84y,2020-0188,2021-10-31,02:43:41,04:15:28,NA,incomplete,false,NA,NA,true,3,13,NA,NA,NA,left,n_s_115.jpg,brown,orange,NA,NA,NA,NA,NA,NA,NA,NA,NA,NaN,NA,5328.099999904633,right,0,NA,NA,NA,NA,NA
Ikt4E84y,3bawbgqgzoco8yjjw9p686v3rigv79,3dhe4r9oc0o0rkucs4er1y7dxzc2g0,Ikt4E84y,2020-0188,2021-10-31,02:43:41,04:15:28,NA,incomplete,false,NA,NA,true,3,14,NA,NA,NA,right,n_s_102.jpg,black,yellow,NA,NA,NA,NA,NA,NA,NA,NA,NA,NaN,NA,5842.799999952316,left,0,NA,NA,NA,NA,NA
Ikt4E84y,3bawbgqgzoco8yjjw9p686v3rigv79,3dhe4r9oc0o0rkucs4er1y7dxzc2g0,Ikt4E84y,2020-0188,2021-10-31,02:43:41,04:15:28,NA,incomplete,false,NA,NA,true,3,15,NA,NA,NA,right,m_l_021.jpg,brown,orange,NA,NA,NA,NA,NA,NA,NA,NA,NA,NaN,NA,4084.5999999046326,left,0,NA,NA,NA,NA,NA
Ikt4E84y,3bawbgqgzoco8yjjw9p686v3rigv79,3dhe4r9oc0o0rkucs4er1y7dxzc2g0,Ikt4E84y,2020-0188,2021-10-31,02:43:41,04:15:28,NA,incomplete,false,NA,NA,true,3,16,NA,NA,NA,right,m_l_095.jpg,brown,yellow,NA,NA,NA,NA,NA,NA,NA,NA,NA,NaN,NA,1788.7000000476837,right,1,NA,NA,NA,NA,NA
Ikt4E84y,3bawbgqgzoco8yjjw9p686v3rigv79,3dhe4r9oc0o0rkucs4er1y7dxzc2g0,Ikt4E84y,2020-0188,2021-10-31,02:43:41,04:15:28,NA,incomplete,false,NA,NA,true,3,17,NA,NA,NA,left,n_s_027.jpg,black,yellow,NA,NA,NA,NA,NA,NA,NA,NA,NA,NaN,NA,2917.0999999046326,left,1,NA,NA,NA,NA,NA
Ikt4E84y,3bawbgqgzoco8yjjw9p686v3rigv79,3dhe4r9oc0o0rkucs4er1y7dxzc2g0,Ikt4E84y,2020-0188,2021-10-31,02:43:41,04:15:28,NA,incomplete,false,NA,NA,true,3,18,NA,NA,NA,left,n_l_036.jpg,gray,black,NA,NA,NA,NA,NA,NA,NA,NA,NA,NaN,NA,2707.7999999523163,right,0,NA,NA,NA,NA,NA
Ikt4E84y,3bawbgqgzoco8yjjw9p686v3rigv79,3dhe4r9oc0o0rkucs4er1y7dxzc2g0,Ikt4E84y,2020-0188,2021-10-31,02:43:41,04:15:28,NA,incomplete,false,NA,NA,true,3,19,NA,NA,NA,left,n_s_107.jpg,yellow,black,NA,NA,NA,NA,NA,NA,NA,NA,NA,NaN,NA,2155.5,left,1,NA,NA,NA,NA,NA
Ikt4E84y,3bawbgqgzoco8yjjw9p686v3rigv79,3dhe4r9oc0o0rkucs4er1y7dxzc2g0,Ikt4E84y,2020-0188,2021-10-31,02:43:41,04:15:28,NA,incomplete,false,NA,NA,true,3,20,NA,NA,NA,left,m_s_061.jpg,black,yellow,NA,NA,NA,NA,NA,NA,NA,NA,NA,NaN,NA,2519.0999999046326,right,0,NA,NA,NA,NA,NA
Ikt4E84y,3bawbgqgzoco8yjjw9p686v3rigv79,3dhe4r9oc0o0rkucs4er1y7dxzc2g0,Ikt4E84y,2020-0188,2021-10-31,02:43:41,04:15:28,NA,incomplete,false,NA,NA,true,3,21,NA,NA,NA,right,n_l_048.jpg,orange,brown,NA,NA,NA,NA,NA,NA,NA,NA,NA,NaN,NA,2791.9000000953674,right,1,NA,NA,NA,NA,NA
Ikt4E84y,3bawbgqgzoco8yjjw9p686v3rigv79,3dhe4r9oc0o0rkucs4er1y7dxzc2g0,Ikt4E84y,2020-0188,2021-10-31,02:43:41,04:15:28,NA,incomplete,false,NA,true,NA,3,0,NA,NA,NA,right,NA,NA,NA,absent,NA,NA,m_s_028.jpg,orange,n_s_092.jpg,orange,within,NA,NaN,NA,NA,NA,NA,left,4122.600000143051,0,3,3447.800000190735
Ikt4E84y,3bawbgqgzoco8yjjw9p686v3rigv79,3dhe4r9oc0o0rkucs4er1y7dxzc2g0,Ikt4E84y,2020-0188,2021-10-31,02:43:41,04:15:28,NA,incomplete,false,NA,true,NA,3,1,NA,NA,NA,left,NA,NA,NA,absent,NA,NA,m_s_026.jpg,brown,n_s_076.jpg,yellow,between,NA,NaN,NA,NA,NA,NA,right,2611,0,2,1486
Ikt4E84y,3bawbgqgzoco8yjjw9p686v3rigv79,3dhe4r9oc0o0rkucs4er1y7dxzc2g0,Ikt4E84y,2020-0188,2021-10-31,02:43:41,04:15:28,NA,incomplete,false,NA,true,NA,3,2,NA,NA,NA,right,NA,NA,NA,absent,NA,NA,m_s_116.jpg,white,n_l_071.jpg,white,within,NA,NaN,NA,NA,NA,NA,right,3293.100000143051,1,2,1801.5999999046326
Ikt4E84y,3bawbgqgzoco8yjjw9p686v3rigv79,3dhe4r9oc0o0rkucs4er1y7dxzc2g0,Ikt4E84y,2020-0188,2021-10-31,02:43:41,04:15:28,NA,incomplete,false,NA,true,NA,3,3,NA,NA,NA,left,NA,NA,NA,absent,NA,NA,n_s_107.jpg,yellow,n_s_102.jpg,yellow,within,NA,NaN,NA,NA,NA,NA,left,4467.200000047684,1,3,2925.5
Ikt4E84y,3bawbgqgzoco8yjjw9p686v3rigv79,3dhe4r9oc0o0rkucs4er1y7dxzc2g0,Ikt4E84y,2020-0188,2021-10-31,02:43:41,04:15:28,NA,incomplete,false,NA,true,NA,3,4,NA,NA,NA,left,NA,NA,NA,absent,NA,NA,n_s_027.jpg,black,m_l_102.jpg,black,within,NA,NaN,NA,NA,NA,NA,left,2814.199999809265,1,2,1745.8000001907349
Ikt4E84y,3bawbgqgzoco8yjjw9p686v3rigv79,3dhe4r9oc0o0rkucs4er1y7dxzc2g0,Ikt4E84y,2020-0188,2021-10-31,02:43:41,04:15:28,NA,incomplete,false,NA,true,NA,3,5,NA,NA,NA,left,NA,NA,NA,absent,NA,NA,m_l_095.jpg,yellow,m_l_026.jpg,black,between,NA,NaN,NA,NA,NA,NA,left,8304.299999952316,1,2,1394.9000000953674
Ikt4E84y,3bawbgqgzoco8yjjw9p686v3rigv79,3dhe4r9oc0o0rkucs4er1y7dxzc2g0,Ikt4E84y,2020-0188,2021-10-31,02:43:41,04:15:28,NA,incomplete,false,NA,true,NA,3,6,NA,NA,NA,left,NA,NA,NA,absent,NA,NA,m_l_021.jpg,orange,n_s_115.jpg,brown,between,NA,NaN,NA,NA,NA,NA,left,7800.800000190735,1,3,3273.2999999523163
Ikt4E84y,3bawbgqgzoco8yjjw9p686v3rigv79,3dhe4r9oc0o0rkucs4er1y7dxzc2g0,Ikt4E84y,2020-0188,2021-10-31,02:43:41,04:15:28,NA,incomplete,false,NA,true,NA,3,7,NA,NA,NA,left,NA,NA,NA,absent,NA,NA,m_s_061.jpg,black,n_s_044.jpg,gray,between,NA,NaN,NA,NA,NA,NA,left,15479.200000047684,1,0,2067.800000190735
Ikt4E84y,3bawbgqgzoco8yjjw9p686v3rigv79,3dhe4r9oc0o0rkucs4er1y7dxzc2g0,Ikt4E84y,2020-0188,2021-10-31,02:43:41,04:15:28,NA,incomplete,false,NA,true,NA,3,8,NA,NA,NA,left,NA,NA,NA,absent,NA,NA,n_l_036.jpg,gray,m_s_016.jpg,white,between,NA,NaN,NA,NA,NA,NA,left,2414.4000000953674,1,3,1888.7999999523163
Ikt4E84y,3bawbgqgzoco8yjjw9p686v3rigv79,3dhe4r9oc0o0rkucs4er1y7dxzc2g0,Ikt4E84y,2020-0188,2021-10-31,02:43:41,04:15:28,NA,incomplete,false,NA,true,NA,3,9,NA,NA,NA,left,NA,NA,NA,absent,NA,NA,n_l_048.jpg,brown,m_l_063.jpg,brown,within,NA,NaN,NA,NA,NA,NA,right,2734.300000190735,0,1,2012.2999999523163
Ikt4E84y,3bawbgqgzoco8yjjw9p686v3rigv79,3dhe4r9oc0o0rkucs4er1y7dxzc2g0,Ikt4E84y,2020-0188,2021-10-31,02:43:41,04:15:28,NA,incomplete,false,NA,true,NA,3,10,NA,NA,NA,left,NA,NA,NA,absent,NA,NA,n_s_096.jpg,gray,n_l_039.jpg,gray,within,NA,NaN,NA,NA,NA,NA,left,3713.9000000953674,1,1,2285.5999999046326
Ikt4E84y,3bawbgqgzoco8yjjw9p686v3rigv79,3dhe4r9oc0o0rkucs4er1y7dxzc2g0,Ikt4E84y,2020-0188,2021-10-31,02:43:41,04:15:28,NA,incomplete,false,true,NA,NA,4,0,NA,purple,m_l_050.jpg,NA,NA,NA,NA,NA,unpleasant,pleasant,NA,NA,NA,NA,NA,none,0,false,NA,NA,NA,NA,NA,NA,NA,NA
Ikt4E84y,3bawbgqgzoco8yjjw9p686v3rigv79,3dhe4r9oc0o0rkucs4er1y7dxzc2g0,Ikt4E84y,2020-0188,2021-10-31,02:43:41,04:15:28,NA,incomplete,false,true,NA,NA,4,1,NA,purple,m_l_017.jpg,NA,NA,NA,NA,NA,pleasant,unpleasant,NA,NA,NA,NA,NA,left,2791.20000004768,true,NA,NA,NA,NA,NA,NA,NA,NA
Ikt4E84y,3bawbgqgzoco8yjjw9p686v3rigv79,3dhe4r9oc0o0rkucs4er1y7dxzc2g0,Ikt4E84y,2020-0188,2021-10-31,02:43:41,04:15:28,NA,incomplete,false,true,NA,NA,4,2,NA,purple,n_l_008.jpg,NA,NA,NA,NA,NA,pleasant,unpleasant,NA,NA,NA,NA,NA,left,3201.59999990463,true,NA,NA,NA,NA,NA,NA,NA,NA
Ikt4E84y,3bawbgqgzoco8yjjw9p686v3rigv79,3dhe4r9oc0o0rkucs4er1y7dxzc2g0,Ikt4E84y,2020-0188,2021-10-31,02:43:41,04:15:28,NA,incomplete,false,true,NA,NA,4,3,NA,purple,n_s_001.jpg,NA,NA,NA,NA,NA,pleasant,unpleasant,NA,NA,NA,NA,NA,left,2682.19999980927,true,NA,NA,NA,NA,NA,NA,NA,NA
Ikt4E84y,3bawbgqgzoco8yjjw9p686v3rigv79,3dhe4r9oc0o0rkucs4er1y7dxzc2g0,Ikt4E84y,2020-0188,2021-10-31,02:43:41,04:15:28,NA,incomplete,false,true,NA,NA,4,4,NA,purple,m_s_057.jpg,NA,NA,NA,NA,NA,unpleasant,pleasant,NA,NA,NA,NA,NA,right,2016.29999995232,true,NA,NA,NA,NA,NA,NA,NA,NA
Ikt4E84y,3bawbgqgzoco8yjjw9p686v3rigv79,3dhe4r9oc0o0rkucs4er1y7dxzc2g0,Ikt4E84y,2020-0188,2021-10-31,02:43:41,04:15:28,NA,incomplete,false,true,NA,NA,4,5,NA,purple,n_l_041.jpg,NA,NA,NA,NA,NA,unpleasant,pleasant,NA,NA,NA,NA,NA,left,2354.60000014305,true,NA,NA,NA,NA,NA,NA,NA,NA
Ikt4E84y,3bawbgqgzoco8yjjw9p686v3rigv79,3dhe4r9oc0o0rkucs4er1y7dxzc2g0,Ikt4E84y,2020-0188,2021-10-31,02:43:41,04:15:28,NA,incomplete,false,true,NA,NA,4,6,NA,green,m_s_107.jpg,NA,NA,NA,NA,NA,pleasant,unpleasant,NA,NA,NA,NA,NA,right,3079.40000009537,true,NA,NA,NA,NA,NA,NA,NA,NA
Ikt4E84y,3bawbgqgzoco8yjjw9p686v3rigv79,3dhe4r9oc0o0rkucs4er1y7dxzc2g0,Ikt4E84y,2020-0188,2021-10-31,02:43:41,04:15:28,NA,incomplete,false,true,NA,NA,4,7,NA,green,m_s_053.jpg,NA,NA,NA,NA,NA,pleasant,unpleasant,NA,NA,NA,NA,NA,left,2717,true,NA,NA,NA,NA,NA,NA,NA,NA
Ikt4E84y,3bawbgqgzoco8yjjw9p686v3rigv79,3dhe4r9oc0o0rkucs4er1y7dxzc2g0,Ikt4E84y,2020-0188,2021-10-31,02:43:41,04:15:28,NA,incomplete,false,true,NA,NA,4,8,NA,green,m_l_100.jpg,NA,NA,NA,NA,NA,unpleasant,pleasant,NA,NA,NA,NA,NA,right,2342.19999980927,true,NA,NA,NA,NA,NA,NA,NA,NA
Ikt4E84y,3bawbgqgzoco8yjjw9p686v3rigv79,3dhe4r9oc0o0rkucs4er1y7dxzc2g0,Ikt4E84y,2020-0188,2021-10-31,02:43:41,04:15:28,NA,incomplete,false,true,NA,NA,4,9,NA,green,m_s_111.jpg,NA,NA,NA,NA,NA,unpleasant,pleasant,NA,NA,NA,NA,NA,right,2346.10000014305,true,NA,NA,NA,NA,NA,NA,NA,NA
Ikt4E84y,3bawbgqgzoco8yjjw9p686v3rigv79,3dhe4r9oc0o0rkucs4er1y7dxzc2g0,Ikt4E84y,2020-0188,2021-10-31,02:43:41,04:15:28,NA,incomplete,false,true,NA,NA,4,10,NA,green,n_l_109.jpg,NA,NA,NA,NA,NA,unpleasant,pleasant,NA,NA,NA,NA,NA,right,2315.09999990463,true,NA,NA,NA,NA,NA,NA,NA,NA
Ikt4E84y,3bawbgqgzoco8yjjw9p686v3rigv79,3dhe4r9oc0o0rkucs4er1y7dxzc2g0,Ikt4E84y,2020-0188,2021-10-31,02:43:41,04:15:28,NA,incomplete,false,true,NA,NA,4,11,NA,green,n_l_022.jpg,NA,NA,NA,NA,NA,unpleasant,pleasant,NA,NA,NA,NA,NA,right,1540.20000004768,true,NA,NA,NA,NA,NA,NA,NA,NA
Ikt4E84y,3bawbgqgzoco8yjjw9p686v3rigv79,3dhe4r9oc0o0rkucs4er1y7dxzc2g0,Ikt4E84y,2020-0188,2021-10-31,02:43:41,04:15:28,NA,incomplete,false,true,NA,NA,4,12,NA,yellow,n_l_032.jpg,NA,NA,NA,NA,NA,pleasant,unpleasant,NA,NA,NA,NA,NA,right,2678.80000019073,true,NA,NA,NA,NA,NA,NA,NA,NA
Ikt4E84y,3bawbgqgzoco8yjjw9p686v3rigv79,3dhe4r9oc0o0rkucs4er1y7dxzc2g0,Ikt4E84y,2020-0188,2021-10-31,02:43:41,04:15:28,NA,incomplete,false,true,NA,NA,4,13,NA,yellow,m_s_027.jpg,NA,NA,NA,NA,NA,pleasant,unpleasant,NA,NA,NA,NA,NA,left,2661.39999985695,true,NA,NA,NA,NA,NA,NA,NA,NA
Ikt4E84y,3bawbgqgzoco8yjjw9p686v3rigv79,3dhe4r9oc0o0rkucs4er1y7dxzc2g0,Ikt4E84y,2020-0188,2021-10-31,02:43:41,04:15:28,NA,incomplete,false,true,NA,NA,4,14,NA,yellow,n_s_025.jpg,NA,NA,NA,NA,NA,pleasant,unpleasant,NA,NA,NA,NA,NA,left,2756.59999990463,true,NA,NA,NA,NA,NA,NA,NA,NA
Ikt4E84y,3bawbgqgzoco8yjjw9p686v3rigv79,3dhe4r9oc0o0rkucs4er1y7dxzc2g0,Ikt4E84y,2020-0188,2021-10-31,02:43:41,04:15:28,NA,incomplete,false,true,NA,NA,4,15,NA,yellow,m_s_062.jpg,NA,NA,NA,NA,NA,unpleasant,pleasant,NA,NA,NA,NA,NA,right,2277,true,NA,NA,NA,NA,NA,NA,NA,NA
Ikt4E84y,3bawbgqgzoco8yjjw9p686v3rigv79,3dhe4r9oc0o0rkucs4er1y7dxzc2g0,Ikt4E84y,2020-0188,2021-10-31,02:43:41,04:15:28,NA,incomplete,false,true,NA,NA,4,16,NA,yellow,n_s_050.jpg,NA,NA,NA,NA,NA,unpleasant,pleasant,NA,NA,NA,NA,NA,right,2502.39999985695,true,NA,NA,NA,NA,NA,NA,NA,NA
Ikt4E84y,3bawbgqgzoco8yjjw9p686v3rigv79,3dhe4r9oc0o0rkucs4er1y7dxzc2g0,Ikt4E84y,2020-0188,2021-10-31,02:43:41,04:15:28,NA,incomplete,false,true,NA,NA,4,17,NA,yellow,n_s_053.jpg,NA,NA,NA,NA,NA,unpleasant,pleasant,NA,NA,NA,NA,NA,right,3076.20000004768,true,NA,NA,NA,NA,NA,NA,NA,NA
Ikt4E84y,3bawbgqgzoco8yjjw9p686v3rigv79,3dhe4r9oc0o0rkucs4er1y7dxzc2g0,Ikt4E84y,2020-0188,2021-10-31,02:43:41,04:15:28,NA,incomplete,false,true,NA,NA,4,18,NA,white,m_l_056.jpg,NA,NA,NA,NA,NA,unpleasant,pleasant,NA,NA,NA,NA,NA,right,3102.70000004768,true,NA,NA,NA,NA,NA,NA,NA,NA
Ikt4E84y,3bawbgqgzoco8yjjw9p686v3rigv79,3dhe4r9oc0o0rkucs4er1y7dxzc2g0,Ikt4E84y,2020-0188,2021-10-31,02:43:41,04:15:28,NA,incomplete,false,true,NA,NA,4,19,NA,white,n_s_038.jpg,NA,NA,NA,NA,NA,pleasant,unpleasant,NA,NA,NA,NA,NA,right,3442.59999990463,true,NA,NA,NA,NA,NA,NA,NA,NA
Ikt4E84y,3bawbgqgzoco8yjjw9p686v3rigv79,3dhe4r9oc0o0rkucs4er1y7dxzc2g0,Ikt4E84y,2020-0188,2021-10-31,02:43:41,04:15:28,NA,incomplete,false,true,NA,NA,4,20,NA,white,m_s_054.jpg,NA,NA,NA,NA,NA,unpleasant,pleasant,NA,NA,NA,NA,NA,right,2388.79999995232,true,NA,NA,NA,NA,NA,NA,NA,NA
Ikt4E84y,3bawbgqgzoco8yjjw9p686v3rigv79,3dhe4r9oc0o0rkucs4er1y7dxzc2g0,Ikt4E84y,2020-0188,2021-10-31,02:43:41,04:15:28,NA,incomplete,false,true,NA,NA,4,21,NA,white,m_l_115.jpg,NA,NA,NA,NA,NA,pleasant,unpleasant,NA,NA,NA,NA,NA,left,2650.20000004768,true,NA,NA,NA,NA,NA,NA,NA,NA
Ikt4E84y,3bawbgqgzoco8yjjw9p686v3rigv79,3dhe4r9oc0o0rkucs4er1y7dxzc2g0,Ikt4E84y,2020-0188,2021-10-31,02:43:41,04:15:28,NA,incomplete,false,true,NA,NA,4,22,NA,white,m_l_112.jpg,NA,NA,NA,NA,NA,pleasant,unpleasant,NA,NA,NA,NA,NA,left,2376.90000009537,true,NA,NA,NA,NA,NA,NA,NA,NA
Ikt4E84y,3bawbgqgzoco8yjjw9p686v3rigv79,3dhe4r9oc0o0rkucs4er1y7dxzc2g0,Ikt4E84y,2020-0188,2021-10-31,02:43:41,04:15:28,NA,incomplete,false,true,NA,NA,4,23,NA,white,m_s_093.jpg,NA,NA,NA,NA,NA,pleasant,unpleasant,NA,NA,NA,NA,NA,left,2292.79999995232,true,NA,NA,NA,NA,NA,NA,NA,NA
Ikt4E84y,3bawbgqgzoco8yjjw9p686v3rigv79,3dhe4r9oc0o0rkucs4er1y7dxzc2g0,Ikt4E84y,2020-0188,2021-10-31,02:43:41,04:15:28,NA,incomplete,false,true,NA,NA,4,24,NA,blue,n_l_069.jpg,NA,NA,NA,NA,NA,unpleasant,pleasant,NA,NA,NA,NA,NA,right,2772.89999985695,true,NA,NA,NA,NA,NA,NA,NA,NA
Ikt4E84y,3bawbgqgzoco8yjjw9p686v3rigv79,3dhe4r9oc0o0rkucs4er1y7dxzc2g0,Ikt4E84y,2020-0188,2021-10-31,02:43:41,04:15:28,NA,incomplete,false,true,NA,NA,4,25,NA,blue,m_s_112.jpg,NA,NA,NA,NA,NA,unpleasant,pleasant,NA,NA,NA,NA,NA,right,2226.79999995232,true,NA,NA,NA,NA,NA,NA,NA,NA
Ikt4E84y,3bawbgqgzoco8yjjw9p686v3rigv79,3dhe4r9oc0o0rkucs4er1y7dxzc2g0,Ikt4E84y,2020-0188,2021-10-31,02:43:41,04:15:28,NA,incomplete,false,true,NA,NA,4,26,NA,blue,m_l_034.jpg,NA,NA,NA,NA,NA,unpleasant,pleasant,NA,NA,NA,NA,NA,right,1982.60000014305,true,NA,NA,NA,NA,NA,NA,NA,NA
Ikt4E84y,3bawbgqgzoco8yjjw9p686v3rigv79,3dhe4r9oc0o0rkucs4er1y7dxzc2g0,Ikt4E84y,2020-0188,2021-10-31,02:43:41,04:15:28,NA,incomplete,false,true,NA,NA,4,27,NA,blue,n_s_051.jpg,NA,NA,NA,NA,NA,pleasant,unpleasant,NA,NA,NA,NA,NA,left,2488.19999980927,true,NA,NA,NA,NA,NA,NA,NA,NA
Ikt4E84y,3bawbgqgzoco8yjjw9p686v3rigv79,3dhe4r9oc0o0rkucs4er1y7dxzc2g0,Ikt4E84y,2020-0188,2021-10-31,02:43:41,04:15:28,NA,incomplete,false,true,NA,NA,4,28,NA,blue,n_s_014.jpg,NA,NA,NA,NA,NA,pleasant,unpleasant,NA,NA,NA,NA,NA,left,2759.40000009537,true,NA,NA,NA,NA,NA,NA,NA,NA
Ikt4E84y,3bawbgqgzoco8yjjw9p686v3rigv79,3dhe4r9oc0o0rkucs4er1y7dxzc2g0,Ikt4E84y,2020-0188,2021-10-31,02:43:41,04:15:28,NA,incomplete,false,true,NA,NA,4,29,NA,blue,n_l_026.jpg,NA,NA,NA,NA,NA,unpleasant,pleasant,NA,NA,NA,NA,NA,right,1863.29999995232,true,NA,NA,NA,NA,NA,NA,NA,NA
Ikt4E84y,3bawbgqgzoco8yjjw9p686v3rigv79,3dhe4r9oc0o0rkucs4er1y7dxzc2g0,Ikt4E84y,2020-0188,2021-10-31,02:43:41,04:15:28,NA,incomplete,false,true,NA,NA,4,30,NA,gray,m_s_036.jpg,NA,NA,NA,NA,NA,pleasant,unpleasant,NA,NA,NA,NA,NA,left,2538.89999985695,true,NA,NA,NA,NA,NA,NA,NA,NA
Ikt4E84y,3bawbgqgzoco8yjjw9p686v3rigv79,3dhe4r9oc0o0rkucs4er1y7dxzc2g0,Ikt4E84y,2020-0188,2021-10-31,02:43:41,04:15:28,NA,incomplete,false,true,NA,NA,4,31,NA,gray,m_s_003.jpg,NA,NA,NA,NA,NA,pleasant,unpleasant,NA,NA,NA,NA,NA,left,1716.29999995232,true,NA,NA,NA,NA,NA,NA,NA,NA
Ikt4E84y,3bawbgqgzoco8yjjw9p686v3rigv79,3dhe4r9oc0o0rkucs4er1y7dxzc2g0,Ikt4E84y,2020-0188,2021-10-31,02:43:41,04:15:28,NA,incomplete,false,true,NA,NA,4,32,NA,gray,n_s_099.jpg,NA,NA,NA,NA,NA,pleasant,unpleasant,NA,NA,NA,NA,NA,left,1403.20000004768,true,NA,NA,NA,NA,NA,NA,NA,NA
Ikt4E84y,3bawbgqgzoco8yjjw9p686v3rigv79,3dhe4r9oc0o0rkucs4er1y7dxzc2g0,Ikt4E84y,2020-0188,2021-10-31,02:43:41,04:15:28,NA,incomplete,false,true,NA,NA,4,33,NA,gray,m_s_077.jpg,NA,NA,NA,NA,NA,pleasant,unpleasant,NA,NA,NA,NA,NA,left,2029.20000004768,true,NA,NA,NA,NA,NA,NA,NA,NA
Ikt4E84y,3bawbgqgzoco8yjjw9p686v3rigv79,3dhe4r9oc0o0rkucs4er1y7dxzc2g0,Ikt4E84y,2020-0188,2021-10-31,02:43:41,04:15:28,NA,incomplete,false,true,NA,NA,4,34,NA,gray,m_l_057.jpg,NA,NA,NA,NA,NA,pleasant,unpleasant,NA,NA,NA,NA,NA,left,3147.20000004768,true,NA,NA,NA,NA,NA,NA,NA,NA
Ikt4E84y,3bawbgqgzoco8yjjw9p686v3rigv79,3dhe4r9oc0o0rkucs4er1y7dxzc2g0,Ikt4E84y,2020-0188,2021-10-31,02:43:41,04:15:28,NA,incomplete,false,true,NA,NA,4,35,NA,gray,m_l_088.jpg,NA,NA,NA,NA,NA,pleasant,unpleasant,NA,NA,NA,NA,NA,left,1906.60000014305,true,NA,NA,NA,NA,NA,NA,NA,NA
Ikt4E84y,3bawbgqgzoco8yjjw9p686v3rigv79,3dhe4r9oc0o0rkucs4er1y7dxzc2g0,Ikt4E84y,2020-0188,2021-10-31,02:43:41,04:15:28,NA,incomplete,false,NA,NA,true,4,0,NA,NA,NA,right,n_s_053.jpg,green,yellow,NA,NA,NA,NA,NA,NA,NA,NA,NA,NaN,NA,6933.200000047684,right,1,NA,NA,NA,NA,NA
Ikt4E84y,3bawbgqgzoco8yjjw9p686v3rigv79,3dhe4r9oc0o0rkucs4er1y7dxzc2g0,Ikt4E84y,2020-0188,2021-10-31,02:43:41,04:15:28,NA,incomplete,false,NA,NA,true,4,1,NA,NA,NA,right,m_l_017.jpg,green,purple,NA,NA,NA,NA,NA,NA,NA,NA,NA,NaN,NA,8018.199999809265,left,0,NA,NA,NA,NA,NA
Ikt4E84y,3bawbgqgzoco8yjjw9p686v3rigv79,3dhe4r9oc0o0rkucs4er1y7dxzc2g0,Ikt4E84y,2020-0188,2021-10-31,02:43:41,04:15:28,NA,incomplete,false,NA,NA,true,4,2,NA,NA,NA,left,m_l_034.jpg,blue,white,NA,NA,NA,NA,NA,NA,NA,NA,NA,NaN,NA,2673.800000190735,right,0,NA,NA,NA,NA,NA
Ikt4E84y,3bawbgqgzoco8yjjw9p686v3rigv79,3dhe4r9oc0o0rkucs4er1y7dxzc2g0,Ikt4E84y,2020-0188,2021-10-31,02:43:41,04:15:28,NA,incomplete,false,NA,NA,true,4,3,NA,NA,NA,left,n_s_014.jpg,blue,gray,NA,NA,NA,NA,NA,NA,NA,NA,NA,NaN,NA,4828.800000190735,right,0,NA,NA,NA,NA,NA
Ikt4E84y,3bawbgqgzoco8yjjw9p686v3rigv79,3dhe4r9oc0o0rkucs4er1y7dxzc2g0,Ikt4E84y,2020-0188,2021-10-31,02:43:41,04:15:28,NA,incomplete,false,NA,NA,true,4,4,NA,NA,NA,right,m_s_054.jpg,yellow,white,NA,NA,NA,NA,NA,NA,NA,NA,NA,NaN,NA,2142.9000000953674,right,1,NA,NA,NA,NA,NA
Ikt4E84y,3bawbgqgzoco8yjjw9p686v3rigv79,3dhe4r9oc0o0rkucs4er1y7dxzc2g0,Ikt4E84y,2020-0188,2021-10-31,02:43:41,04:15:28,NA,incomplete,false,NA,NA,true,4,5,NA,NA,NA,right,m_s_027.jpg,green,yellow,NA,NA,NA,NA,NA,NA,NA,NA,NA,NaN,NA,11055.400000095367,right,1,NA,NA,NA,NA,NA
Ikt4E84y,3bawbgqgzoco8yjjw9p686v3rigv79,3dhe4r9oc0o0rkucs4er1y7dxzc2g0,Ikt4E84y,2020-0188,2021-10-31,02:43:41,04:15:28,NA,incomplete,false,NA,NA,true,4,6,NA,NA,NA,left,n_l_022.jpg,green,purple,NA,NA,NA,NA,NA,NA,NA,NA,NA,NaN,NA,2330.600000143051,left,1,NA,NA,NA,NA,NA
Ikt4E84y,3bawbgqgzoco8yjjw9p686v3rigv79,3dhe4r9oc0o0rkucs4er1y7dxzc2g0,Ikt4E84y,2020-0188,2021-10-31,02:43:41,04:15:28,NA,incomplete,false,NA,NA,true,4,7,NA,NA,NA,right,m_s_057.jpg,green,purple,NA,NA,NA,NA,NA,NA,NA,NA,NA,NaN,NA,7781.099999904633,left,0,NA,NA,NA,NA,NA
Ikt4E84y,3bawbgqgzoco8yjjw9p686v3rigv79,3dhe4r9oc0o0rkucs4er1y7dxzc2g0,Ikt4E84y,2020-0188,2021-10-31,02:43:41,04:15:28,NA,incomplete,false,NA,NA,true,4,8,NA,NA,NA,left,n_s_038.jpg,white,blue,NA,NA,NA,NA,NA,NA,NA,NA,NA,NaN,NA,2207.100000143051,left,1,NA,NA,NA,NA,NA
Ikt4E84y,3bawbgqgzoco8yjjw9p686v3rigv79,3dhe4r9oc0o0rkucs4er1y7dxzc2g0,Ikt4E84y,2020-0188,2021-10-31,02:43:41,04:15:28,NA,incomplete,false,NA,NA,true,4,9,NA,NA,NA,right,m_s_003.jpg,blue,gray,NA,NA,NA,NA,NA,NA,NA,NA,NA,NaN,NA,2822.399999856949,right,1,NA,NA,NA,NA,NA
Ikt4E84y,3bawbgqgzoco8yjjw9p686v3rigv79,3dhe4r9oc0o0rkucs4er1y7dxzc2g0,Ikt4E84y,2020-0188,2021-10-31,02:43:41,04:15:28,NA,incomplete,false,NA,NA,true,4,10,NA,NA,NA,left,n_l_026.jpg,blue,white,NA,NA,NA,NA,NA,NA,NA,NA,NA,NaN,NA,5422.700000047684,left,1,NA,NA,NA,NA,NA
Ikt4E84y,3bawbgqgzoco8yjjw9p686v3rigv79,3dhe4r9oc0o0rkucs4er1y7dxzc2g0,Ikt4E84y,2020-0188,2021-10-31,02:43:41,04:15:28,NA,incomplete,false,NA,NA,true,4,11,NA,NA,NA,right,m_l_100.jpg,yellow,green,NA,NA,NA,NA,NA,NA,NA,NA,NA,NaN,NA,3042.100000143051,right,1,NA,NA,NA,NA,NA
Ikt4E84y,3bawbgqgzoco8yjjw9p686v3rigv79,3dhe4r9oc0o0rkucs4er1y7dxzc2g0,Ikt4E84y,2020-0188,2021-10-31,02:43:41,04:15:28,NA,incomplete,false,NA,NA,true,4,12,NA,NA,NA,right,m_l_088.jpg,blue,gray,NA,NA,NA,NA,NA,NA,NA,NA,NA,NaN,NA,1933,right,1,NA,NA,NA,NA,NA
Ikt4E84y,3bawbgqgzoco8yjjw9p686v3rigv79,3dhe4r9oc0o0rkucs4er1y7dxzc2g0,Ikt4E84y,2020-0188,2021-10-31,02:43:41,04:15:28,NA,incomplete,false,NA,NA,true,4,13,NA,NA,NA,left,n_s_025.jpg,yellow,green,NA,NA,NA,NA,NA,NA,NA,NA,NA,NaN,NA,11582.799999952316,left,1,NA,NA,NA,NA,NA
Ikt4E84y,3bawbgqgzoco8yjjw9p686v3rigv79,3dhe4r9oc0o0rkucs4er1y7dxzc2g0,Ikt4E84y,2020-0188,2021-10-31,02:43:41,04:15:28,NA,incomplete,false,NA,NA,true,4,14,NA,NA,NA,left,n_l_041.jpg,purple,green,NA,NA,NA,NA,NA,NA,NA,NA,NA,NaN,NA,3236.199999809265,left,1,NA,NA,NA,NA,NA
Ikt4E84y,3bawbgqgzoco8yjjw9p686v3rigv79,3dhe4r9oc0o0rkucs4er1y7dxzc2g0,Ikt4E84y,2020-0188,2021-10-31,02:43:41,04:15:28,NA,incomplete,false,NA,NA,true,4,15,NA,NA,NA,left,n_l_109.jpg,green,purple,NA,NA,NA,NA,NA,NA,NA,NA,NA,NaN,NA,2789.5999999046326,right,0,NA,NA,NA,NA,NA
Ikt4E84y,3bawbgqgzoco8yjjw9p686v3rigv79,3dhe4r9oc0o0rkucs4er1y7dxzc2g0,Ikt4E84y,2020-0188,2021-10-31,02:43:41,04:15:28,NA,incomplete,false,NA,NA,true,4,16,NA,NA,NA,right,n_s_050.jpg,green,yellow,NA,NA,NA,NA,NA,NA,NA,NA,NA,NaN,NA,14488.5,right,1,NA,NA,NA,NA,NA
Ikt4E84y,3bawbgqgzoco8yjjw9p686v3rigv79,3dhe4r9oc0o0rkucs4er1y7dxzc2g0,Ikt4E84y,2020-0188,2021-10-31,02:43:41,04:15:28,NA,incomplete,false,NA,NA,true,4,17,NA,NA,NA,right,m_s_112.jpg,white,blue,NA,NA,NA,NA,NA,NA,NA,NA,NA,NaN,NA,3816.9000000953674,left,0,NA,NA,NA,NA,NA
Ikt4E84y,3bawbgqgzoco8yjjw9p686v3rigv79,3dhe4r9oc0o0rkucs4er1y7dxzc2g0,Ikt4E84y,2020-0188,2021-10-31,02:43:41,04:15:28,NA,incomplete,false,NA,NA,true,4,18,NA,NA,NA,right,n_s_099.jpg,blue,gray,NA,NA,NA,NA,NA,NA,NA,NA,NA,NaN,NA,7696.700000047684,right,1,NA,NA,NA,NA,NA
Ikt4E84y,3bawbgqgzoco8yjjw9p686v3rigv79,3dhe4r9oc0o0rkucs4er1y7dxzc2g0,Ikt4E84y,2020-0188,2021-10-31,02:43:41,04:15:28,NA,incomplete,false,NA,NA,true,4,19,NA,NA,NA,left,m_s_093.jpg,white,blue,NA,NA,NA,NA,NA,NA,NA,NA,NA,NaN,NA,2225.5999999046326,left,1,NA,NA,NA,NA,NA
Ikt4E84y,3bawbgqgzoco8yjjw9p686v3rigv79,3dhe4r9oc0o0rkucs4er1y7dxzc2g0,Ikt4E84y,2020-0188,2021-10-31,02:43:41,04:15:28,NA,incomplete,false,NA,NA,true,4,20,NA,NA,NA,right,m_s_053.jpg,yellow,green,NA,NA,NA,NA,NA,NA,NA,NA,NA,NaN,NA,2172.5,right,1,NA,NA,NA,NA,NA
Ikt4E84y,3bawbgqgzoco8yjjw9p686v3rigv79,3dhe4r9oc0o0rkucs4er1y7dxzc2g0,Ikt4E84y,2020-0188,2021-10-31,02:43:41,04:15:28,NA,incomplete,false,NA,NA,true,4,21,NA,NA,NA,right,m_l_112.jpg,blue,white,NA,NA,NA,NA,NA,NA,NA,NA,NA,NaN,NA,1930,right,1,NA,NA,NA,NA,NA
Ikt4E84y,3bawbgqgzoco8yjjw9p686v3rigv79,3dhe4r9oc0o0rkucs4er1y7dxzc2g0,Ikt4E84y,2020-0188,2021-10-31,02:43:41,04:15:28,NA,incomplete,false,NA,true,NA,4,0,NA,NA,NA,left,NA,NA,NA,absent,NA,NA,n_l_109.jpg,green,n_s_025.jpg,yellow,between,NA,NaN,NA,NA,NA,NA,left,4489.400000095367,1,3,1657.9000000953674
Ikt4E84y,3bawbgqgzoco8yjjw9p686v3rigv79,3dhe4r9oc0o0rkucs4er1y7dxzc2g0,Ikt4E84y,2020-0188,2021-10-31,02:43:41,04:15:28,NA,incomplete,false,NA,true,NA,4,1,NA,NA,NA,right,NA,NA,NA,absent,NA,NA,n_l_026.jpg,blue,m_s_112.jpg,blue,within,NA,NaN,NA,NA,NA,NA,left,2502.7999999523163,0,3,1586.2999999523163
Ikt4E84y,3bawbgqgzoco8yjjw9p686v3rigv79,3dhe4r9oc0o0rkucs4er1y7dxzc2g0,Ikt4E84y,2020-0188,2021-10-31,02:43:41,04:15:28,NA,incomplete,false,NA,true,NA,4,2,NA,NA,NA,right,NA,NA,NA,absent,NA,NA,n_l_022.jpg,green,m_s_053.jpg,green,within,NA,NaN,NA,NA,NA,NA,right,3390.7000000476837,1,3,1807.2999999523163
Ikt4E84y,3bawbgqgzoco8yjjw9p686v3rigv79,3dhe4r9oc0o0rkucs4er1y7dxzc2g0,Ikt4E84y,2020-0188,2021-10-31,02:43:41,04:15:28,NA,incomplete,false,NA,true,NA,4,3,NA,NA,NA,left,NA,NA,NA,absent,NA,NA,m_s_003.jpg,gray,m_l_088.jpg,gray,within,NA,NaN,NA,NA,NA,NA,right,5090.5,0,2,2414.5
Ikt4E84y,3bawbgqgzoco8yjjw9p686v3rigv79,3dhe4r9oc0o0rkucs4er1y7dxzc2g0,Ikt4E84y,2020-0188,2021-10-31,02:43:41,04:15:28,NA,incomplete,false,NA,true,NA,4,4,NA,NA,NA,right,NA,NA,NA,absent,NA,NA,m_s_054.jpg,white,n_s_050.jpg,yellow,between,NA,NaN,NA,NA,NA,NA,right,5455.700000047684,1,1,1546.1000001430511
Ikt4E84y,3bawbgqgzoco8yjjw9p686v3rigv79,3dhe4r9oc0o0rkucs4er1y7dxzc2g0,Ikt4E84y,2020-0188,2021-10-31,02:43:41,04:15:28,NA,incomplete,false,NA,true,NA,4,5,NA,NA,NA,left,NA,NA,NA,absent,NA,NA,m_l_112.jpg,white,m_l_034.jpg,blue,between,NA,NaN,NA,NA,NA,NA,right,10843,0,0,1254.0999999046326
Ikt4E84y,3bawbgqgzoco8yjjw9p686v3rigv79,3dhe4r9oc0o0rkucs4er1y7dxzc2g0,Ikt4E84y,2020-0188,2021-10-31,02:43:41,04:15:28,NA,incomplete,false,NA,true,NA,4,6,NA,NA,NA,left,NA,NA,NA,absent,NA,NA,m_s_027.jpg,yellow,n_s_053.jpg,yellow,within,NA,NaN,NA,NA,NA,NA,left,3735.0999999046326,1,1,1599.3999998569489
Ikt4E84y,3bawbgqgzoco8yjjw9p686v3rigv79,3dhe4r9oc0o0rkucs4er1y7dxzc2g0,Ikt4E84y,2020-0188,2021-10-31,02:43:41,04:15:28,NA,incomplete,false,NA,true,NA,4,7,NA,NA,NA,right,NA,NA,NA,absent,NA,NA,n_l_041.jpg,purple,m_l_017.jpg,purple,within,NA,NaN,NA,NA,NA,NA,left,4854.200000047684,0,1,2071.2000000476837
Ikt4E84y,3bawbgqgzoco8yjjw9p686v3rigv79,3dhe4r9oc0o0rkucs4er1y7dxzc2g0,Ikt4E84y,2020-0188,2021-10-31,02:43:41,04:15:28,NA,incomplete,false,NA,true,NA,4,8,NA,NA,NA,left,NA,NA,NA,absent,NA,NA,m_s_057.jpg,purple,m_l_100.jpg,green,between,NA,NaN,NA,NA,NA,NA,right,3263.7000000476837,0,3,1525
Ikt4E84y,3bawbgqgzoco8yjjw9p686v3rigv79,3dhe4r9oc0o0rkucs4er1y7dxzc2g0,Ikt4E84y,2020-0188,2021-10-31,02:43:41,04:15:28,NA,incomplete,false,NA,true,NA,4,9,NA,NA,NA,right,NA,NA,NA,absent,NA,NA,m_s_093.jpg,white,n_s_038.jpg,white,within,NA,NaN,NA,NA,NA,NA,left,6284.399999856949,0,0,1585.5
Ikt4E84y,3bawbgqgzoco8yjjw9p686v3rigv79,3dhe4r9oc0o0rkucs4er1y7dxzc2g0,Ikt4E84y,2020-0188,2021-10-31,02:43:41,04:15:28,NA,incomplete,false,NA,true,NA,4,10,NA,NA,NA,right,NA,NA,NA,absent,NA,NA,n_s_099.jpg,gray,n_s_014.jpg,blue,between,NA,NaN,NA,NA,NA,NA,right,3429.0999999046326,1,3,1374.6000001430511
Ikt4E84y,3bawbgqgzoco8yjjw9p686v3rigv79,3dhe4r9oc0o0rkucs4er1y7dxzc2g0,Ikt4E84y,2020-0188,2021-10-31,02:43:41,04:15:28,NA,incomplete,false,true,NA,NA,5,0,NA,blue,m_l_058.jpg,NA,NA,NA,NA,NA,pleasant,unpleasant,NA,NA,NA,NA,NA,none,0,false,NA,NA,NA,NA,NA,NA,NA,NA
Ikt4E84y,3bawbgqgzoco8yjjw9p686v3rigv79,3dhe4r9oc0o0rkucs4er1y7dxzc2g0,Ikt4E84y,2020-0188,2021-10-31,02:43:41,04:15:28,NA,incomplete,false,true,NA,NA,5,1,NA,blue,n_l_040.jpg,NA,NA,NA,NA,NA,unpleasant,pleasant,NA,NA,NA,NA,NA,right,2892.59999990463,true,NA,NA,NA,NA,NA,NA,NA,NA
Ikt4E84y,3bawbgqgzoco8yjjw9p686v3rigv79,3dhe4r9oc0o0rkucs4er1y7dxzc2g0,Ikt4E84y,2020-0188,2021-10-31,02:43:41,04:15:28,NA,incomplete,false,true,NA,NA,5,2,NA,blue,n_l_056.jpg,NA,NA,NA,NA,NA,unpleasant,pleasant,NA,NA,NA,NA,NA,right,1387,true,NA,NA,NA,NA,NA,NA,NA,NA
Ikt4E84y,3bawbgqgzoco8yjjw9p686v3rigv79,3dhe4r9oc0o0rkucs4er1y7dxzc2g0,Ikt4E84y,2020-0188,2021-10-31,02:43:41,04:15:28,NA,incomplete,false,true,NA,NA,5,3,NA,blue,m_l_047.jpg,NA,NA,NA,NA,NA,unpleasant,pleasant,NA,NA,NA,NA,NA,right,1604.70000004768,true,NA,NA,NA,NA,NA,NA,NA,NA
Ikt4E84y,3bawbgqgzoco8yjjw9p686v3rigv79,3dhe4r9oc0o0rkucs4er1y7dxzc2g0,Ikt4E84y,2020-0188,2021-10-31,02:43:41,04:15:28,NA,incomplete,false,true,NA,NA,5,4,NA,blue,m_s_073.jpg,NA,NA,NA,NA,NA,pleasant,unpleasant,NA,NA,NA,NA,NA,right,2672.40000009537,true,NA,NA,NA,NA,NA,NA,NA,NA
Ikt4E84y,3bawbgqgzoco8yjjw9p686v3rigv79,3dhe4r9oc0o0rkucs4er1y7dxzc2g0,Ikt4E84y,2020-0188,2021-10-31,02:43:41,04:15:28,NA,incomplete,false,true,NA,NA,5,5,NA,blue,n_s_079.jpg,NA,NA,NA,NA,NA,unpleasant,pleasant,NA,NA,NA,NA,NA,right,2570.70000004768,true,NA,NA,NA,NA,NA,NA,NA,NA
Ikt4E84y,3bawbgqgzoco8yjjw9p686v3rigv79,3dhe4r9oc0o0rkucs4er1y7dxzc2g0,Ikt4E84y,2020-0188,2021-10-31,02:43:41,04:15:28,NA,incomplete,false,true,NA,NA,5,6,NA,green,n_l_104.jpg,NA,NA,NA,NA,NA,pleasant,unpleasant,NA,NA,NA,NA,NA,left,2633.29999995232,true,NA,NA,NA,NA,NA,NA,NA,NA
Ikt4E84y,3bawbgqgzoco8yjjw9p686v3rigv79,3dhe4r9oc0o0rkucs4er1y7dxzc2g0,Ikt4E84y,2020-0188,2021-10-31,02:43:41,04:15:28,NA,incomplete,false,true,NA,NA,5,7,NA,green,n_l_111.jpg,NA,NA,NA,NA,NA,unpleasant,pleasant,NA,NA,NA,NA,NA,right,3148.29999995232,true,NA,NA,NA,NA,NA,NA,NA,NA
Ikt4E84y,3bawbgqgzoco8yjjw9p686v3rigv79,3dhe4r9oc0o0rkucs4er1y7dxzc2g0,Ikt4E84y,2020-0188,2021-10-31,02:43:41,04:15:28,NA,incomplete,false,true,NA,NA,5,8,NA,green,n_l_097.jpg,NA,NA,NA,NA,NA,pleasant,unpleasant,NA,NA,NA,NA,NA,left,1794.29999995232,true,NA,NA,NA,NA,NA,NA,NA,NA
Ikt4E84y,3bawbgqgzoco8yjjw9p686v3rigv79,3dhe4r9oc0o0rkucs4er1y7dxzc2g0,Ikt4E84y,2020-0188,2021-10-31,02:43:41,04:15:28,NA,incomplete,false,true,NA,NA,5,9,NA,green,m_l_106.jpg,NA,NA,NA,NA,NA,pleasant,unpleasant,NA,NA,NA,NA,NA,left,2159.5,true,NA,NA,NA,NA,NA,NA,NA,NA
Ikt4E84y,3bawbgqgzoco8yjjw9p686v3rigv79,3dhe4r9oc0o0rkucs4er1y7dxzc2g0,Ikt4E84y,2020-0188,2021-10-31,02:43:41,04:15:28,NA,incomplete,false,true,NA,NA,5,10,NA,green,m_s_042.jpg,NA,NA,NA,NA,NA,pleasant,unpleasant,NA,NA,NA,NA,NA,right,2719.10000014305,true,NA,NA,NA,NA,NA,NA,NA,NA
Ikt4E84y,3bawbgqgzoco8yjjw9p686v3rigv79,3dhe4r9oc0o0rkucs4er1y7dxzc2g0,Ikt4E84y,2020-0188,2021-10-31,02:43:41,04:15:28,NA,incomplete,false,true,NA,NA,5,11,NA,green,m_s_117.jpg,NA,NA,NA,NA,NA,pleasant,unpleasant,NA,NA,NA,NA,NA,left,2991.5,true,NA,NA,NA,NA,NA,NA,NA,NA
Ikt4E84y,3bawbgqgzoco8yjjw9p686v3rigv79,3dhe4r9oc0o0rkucs4er1y7dxzc2g0,Ikt4E84y,2020-0188,2021-10-31,02:43:41,04:15:28,NA,incomplete,false,true,NA,NA,5,12,NA,yellow,m_s_018.jpg,NA,NA,NA,NA,NA,pleasant,unpleasant,NA,NA,NA,NA,NA,left,2519,true,NA,NA,NA,NA,NA,NA,NA,NA
Ikt4E84y,3bawbgqgzoco8yjjw9p686v3rigv79,3dhe4r9oc0o0rkucs4er1y7dxzc2g0,Ikt4E84y,2020-0188,2021-10-31,02:43:41,04:15:28,NA,incomplete,false,true,NA,NA,5,13,NA,yellow,n_s_010.jpg,NA,NA,NA,NA,NA,unpleasant,pleasant,NA,NA,NA,NA,NA,left,2945,true,NA,NA,NA,NA,NA,NA,NA,NA
Ikt4E84y,3bawbgqgzoco8yjjw9p686v3rigv79,3dhe4r9oc0o0rkucs4er1y7dxzc2g0,Ikt4E84y,2020-0188,2021-10-31,02:43:41,04:15:28,NA,incomplete,false,true,NA,NA,5,14,NA,yellow,m_s_048.jpg,NA,NA,NA,NA,NA,pleasant,unpleasant,NA,NA,NA,NA,NA,left,3252.59999990463,true,NA,NA,NA,NA,NA,NA,NA,NA
Ikt4E84y,3bawbgqgzoco8yjjw9p686v3rigv79,3dhe4r9oc0o0rkucs4er1y7dxzc2g0,Ikt4E84y,2020-0188,2021-10-31,02:43:41,04:15:28,NA,incomplete,false,true,NA,NA,5,15,NA,yellow,m_l_107.jpg,NA,NA,NA,NA,NA,unpleasant,pleasant,NA,NA,NA,NA,NA,left,2781,true,NA,NA,NA,NA,NA,NA,NA,NA
Ikt4E84y,3bawbgqgzoco8yjjw9p686v3rigv79,3dhe4r9oc0o0rkucs4er1y7dxzc2g0,Ikt4E84y,2020-0188,2021-10-31,02:43:41,04:15:28,NA,incomplete,false,true,NA,NA,5,16,NA,yellow,n_l_025.jpg,NA,NA,NA,NA,NA,unpleasant,pleasant,NA,NA,NA,NA,NA,right,2730,true,NA,NA,NA,NA,NA,NA,NA,NA
