workerId,hitId,assignmentId,subject,studyid,exp_date,exp_start,exp_end,time_start,time_end,practice,encoding,memory,association,block,trial,event_order,event,stim,answer,object,left_context,right_context,context_type,label_left,label_right,left_image,left_event,right_image,right_event,condition,response,response_time,response_acc,association_response_time,association_response,association_acc,order_response,order_response_time,order_acc,distance_response,distance_response_time
7gN90a1c,3z8ujejod2q8a85trwhk37uqvoc39x,3dqq64tankysgdli97tlje1u2xowpa,7gN90a1c,2020-0188,2021-10-31,02:18:15,03:50:15,NA,incomplete,true,true,NA,NA,0,0,NA,green,m_s_042.jpg,NA,NA,NA,NA,NA,pleasant,unpleasant,NA,NA,NA,NA,NA,right,1565.79999995232,true,NA,NA,NA,NA,NA,NA,NA,NA
7gN90a1c,3z8ujejod2q8a85trwhk37uqvoc39x,3dqq64tankysgdli97tlje1u2xowpa,7gN90a1c,2020-0188,2021-10-31,02:18:15,03:50:15,NA,incomplete,true,true,NA,NA,0,1,NA,green,n_s_072.jpg,NA,NA,NA,NA,NA,pleasant,unpleasant,NA,NA,NA,NA,NA,right,52,true,NA,NA,NA,NA,NA,NA,NA,NA
7gN90a1c,3z8ujejod2q8a85trwhk37uqvoc39x,3dqq64tankysgdli97tlje1u2xowpa,7gN90a1c,2020-0188,2021-10-31,02:18:15,03:50:15,NA,incomplete,true,true,NA,NA,0,2,NA,green,m_s_092.jpg,NA,NA,NA,NA,NA,pleasant,unpleasant,NA,NA,NA,NA,NA,right,1006.40000009537,true,NA,NA,NA,NA,NA,NA,NA,NA
7gN90a1c,3z8ujejod2q8a85trwhk37uqvoc39x,3dqq64tankysgdli97tlje1u2xowpa,7gN90a1c,2020-0188,2021-10-31,02:18:15,03:50:15,NA,incomplete,true,true,NA,NA,0,3,NA,green,n_s_064.jpg,NA,NA,NA,NA,NA,pleasant,unpleasant,NA,NA,NA,NA,NA,right,1087.80000019073,true,NA,NA,NA,NA,NA,NA,NA,NA
7gN90a1c,3z8ujejod2q8a85trwhk37uqvoc39x,3dqq64tankysgdli97tlje1u2xowpa,7gN90a1c,2020-0188,2021-10-31,02:18:15,03:50:15,NA,incomplete,true,true,NA,NA,0,4,NA,green,n_s_071.jpg,NA,NA,NA,NA,NA,unpleasant,pleasant,NA,NA,NA,NA,NA,right,473.900000095367,true,NA,NA,NA,NA,NA,NA,NA,NA
7gN90a1c,3z8ujejod2q8a85trwhk37uqvoc39x,3dqq64tankysgdli97tlje1u2xowpa,7gN90a1c,2020-0188,2021-10-31,02:18:15,03:50:15,NA,incomplete,true,true,NA,NA,0,5,NA,green,n_l_021.jpg,NA,NA,NA,NA,NA,unpleasant,pleasant,NA,NA,NA,NA,NA,right,1195.5,true,NA,NA,NA,NA,NA,NA,NA,NA
7gN90a1c,3z8ujejod2q8a85trwhk37uqvoc39x,3dqq64tankysgdli97tlje1u2xowpa,7gN90a1c,2020-0188,2021-10-31,02:18:15,03:50:15,NA,incomplete,true,true,NA,NA,0,6,NA,white,n_s_042.jpg,NA,NA,NA,NA,NA,unpleasant,pleasant,NA,NA,NA,NA,NA,right,930.200000047684,true,NA,NA,NA,NA,NA,NA,NA,NA
7gN90a1c,3z8ujejod2q8a85trwhk37uqvoc39x,3dqq64tankysgdli97tlje1u2xowpa,7gN90a1c,2020-0188,2021-10-31,02:18:15,03:50:15,NA,incomplete,true,true,NA,NA,0,7,NA,white,n_l_023.jpg,NA,NA,NA,NA,NA,pleasant,unpleasant,NA,NA,NA,NA,NA,right,1342.70000004768,true,NA,NA,NA,NA,NA,NA,NA,NA
7gN90a1c,3z8ujejod2q8a85trwhk37uqvoc39x,3dqq64tankysgdli97tlje1u2xowpa,7gN90a1c,2020-0188,2021-10-31,02:18:15,03:50:15,NA,incomplete,true,true,NA,NA,0,8,NA,white,n_s_063.jpg,NA,NA,NA,NA,NA,unpleasant,pleasant,NA,NA,NA,NA,NA,right,85.2000000476837,true,NA,NA,NA,NA,NA,NA,NA,NA
7gN90a1c,3z8ujejod2q8a85trwhk37uqvoc39x,3dqq64tankysgdli97tlje1u2xowpa,7gN90a1c,2020-0188,2021-10-31,02:18:15,03:50:15,NA,incomplete,true,true,NA,NA,0,9,NA,white,m_l_062.jpg,NA,NA,NA,NA,NA,pleasant,unpleasant,NA,NA,NA,NA,NA,right,936.799999952316,true,NA,NA,NA,NA,NA,NA,NA,NA
7gN90a1c,3z8ujejod2q8a85trwhk37uqvoc39x,3dqq64tankysgdli97tlje1u2xowpa,7gN90a1c,2020-0188,2021-10-31,02:18:15,03:50:15,NA,incomplete,true,true,NA,NA,0,10,NA,white,m_s_106.jpg,NA,NA,NA,NA,NA,unpleasant,pleasant,NA,NA,NA,NA,NA,right,547.200000047684,true,NA,NA,NA,NA,NA,NA,NA,NA
7gN90a1c,3z8ujejod2q8a85trwhk37uqvoc39x,3dqq64tankysgdli97tlje1u2xowpa,7gN90a1c,2020-0188,2021-10-31,02:18:15,03:50:15,NA,incomplete,true,true,NA,NA,0,11,NA,white,m_l_079.jpg,NA,NA,NA,NA,NA,pleasant,unpleasant,NA,NA,NA,NA,NA,none,0,false,NA,NA,NA,NA,NA,NA,NA,NA
7gN90a1c,3z8ujejod2q8a85trwhk37uqvoc39x,3dqq64tankysgdli97tlje1u2xowpa,7gN90a1c,2020-0188,2021-10-31,02:18:15,03:50:15,NA,incomplete,true,true,NA,NA,0,12,NA,purple,m_l_092.jpg,NA,NA,NA,NA,NA,unpleasant,pleasant,NA,NA,NA,NA,NA,none,0,false,NA,NA,NA,NA,NA,NA,NA,NA
7gN90a1c,3z8ujejod2q8a85trwhk37uqvoc39x,3dqq64tankysgdli97tlje1u2xowpa,7gN90a1c,2020-0188,2021-10-31,02:18:15,03:50:15,NA,incomplete,true,true,NA,NA,0,13,NA,purple,m_s_083.jpg,NA,NA,NA,NA,NA,unpleasant,pleasant,NA,NA,NA,NA,NA,none,0,false,NA,NA,NA,NA,NA,NA,NA,NA
7gN90a1c,3z8ujejod2q8a85trwhk37uqvoc39x,3dqq64tankysgdli97tlje1u2xowpa,7gN90a1c,2020-0188,2021-10-31,02:18:15,03:50:15,NA,incomplete,true,true,NA,NA,0,14,NA,purple,n_s_117.jpg,NA,NA,NA,NA,NA,pleasant,unpleasant,NA,NA,NA,NA,NA,none,0,false,NA,NA,NA,NA,NA,NA,NA,NA
7gN90a1c,3z8ujejod2q8a85trwhk37uqvoc39x,3dqq64tankysgdli97tlje1u2xowpa,7gN90a1c,2020-0188,2021-10-31,02:18:15,03:50:15,NA,incomplete,true,true,NA,NA,0,15,NA,purple,m_l_049.jpg,NA,NA,NA,NA,NA,pleasant,unpleasant,NA,NA,NA,NA,NA,right,744.900000095367,true,NA,NA,NA,NA,NA,NA,NA,NA
7gN90a1c,3z8ujejod2q8a85trwhk37uqvoc39x,3dqq64tankysgdli97tlje1u2xowpa,7gN90a1c,2020-0188,2021-10-31,02:18:15,03:50:15,NA,incomplete,true,true,NA,NA,0,16,NA,purple,m_s_035.jpg,NA,NA,NA,NA,NA,pleasant,unpleasant,NA,NA,NA,NA,NA,right,187.700000047684,true,NA,NA,NA,NA,NA,NA,NA,NA
7gN90a1c,3z8ujejod2q8a85trwhk37uqvoc39x,3dqq64tankysgdli97tlje1u2xowpa,7gN90a1c,2020-0188,2021-10-31,02:18:15,03:50:15,NA,incomplete,true,true,NA,NA,0,17,NA,purple,m_l_112.jpg,NA,NA,NA,NA,NA,unpleasant,pleasant,NA,NA,NA,NA,NA,right,72.0999999046326,true,NA,NA,NA,NA,NA,NA,NA,NA
7gN90a1c,3z8ujejod2q8a85trwhk37uqvoc39x,3dqq64tankysgdli97tlje1u2xowpa,7gN90a1c,2020-0188,2021-10-31,02:18:15,03:50:15,NA,incomplete,true,true,NA,NA,0,18,NA,black,m_s_089.jpg,NA,NA,NA,NA,NA,pleasant,unpleasant,NA,NA,NA,NA,NA,right,178.299999952316,true,NA,NA,NA,NA,NA,NA,NA,NA
7gN90a1c,3z8ujejod2q8a85trwhk37uqvoc39x,3dqq64tankysgdli97tlje1u2xowpa,7gN90a1c,2020-0188,2021-10-31,02:18:15,03:50:15,NA,incomplete,true,true,NA,NA,0,19,NA,black,n_s_011.jpg,NA,NA,NA,NA,NA,unpleasant,pleasant,NA,NA,NA,NA,NA,none,0,false,NA,NA,NA,NA,NA,NA,NA,NA
7gN90a1c,3z8ujejod2q8a85trwhk37uqvoc39x,3dqq64tankysgdli97tlje1u2xowpa,7gN90a1c,2020-0188,2021-10-31,02:18:15,03:50:15,NA,incomplete,true,true,NA,NA,0,20,NA,black,m_l_091.jpg,NA,NA,NA,NA,NA,pleasant,unpleasant,NA,NA,NA,NA,NA,none,0,false,NA,NA,NA,NA,NA,NA,NA,NA
7gN90a1c,3z8ujejod2q8a85trwhk37uqvoc39x,3dqq64tankysgdli97tlje1u2xowpa,7gN90a1c,2020-0188,2021-10-31,02:18:15,03:50:15,NA,incomplete,true,true,NA,NA,0,21,NA,black,m_l_034.jpg,NA,NA,NA,NA,NA,unpleasant,pleasant,NA,NA,NA,NA,NA,right,2862.90000009537,true,NA,NA,NA,NA,NA,NA,NA,NA
7gN90a1c,3z8ujejod2q8a85trwhk37uqvoc39x,3dqq64tankysgdli97tlje1u2xowpa,7gN90a1c,2020-0188,2021-10-31,02:18:15,03:50:15,NA,incomplete,true,true,NA,NA,0,22,NA,black,m_l_028.jpg,NA,NA,NA,NA,NA,pleasant,unpleasant,NA,NA,NA,NA,NA,right,58.7999999523163,true,NA,NA,NA,NA,NA,NA,NA,NA
7gN90a1c,3z8ujejod2q8a85trwhk37uqvoc39x,3dqq64tankysgdli97tlje1u2xowpa,7gN90a1c,2020-0188,2021-10-31,02:18:15,03:50:15,NA,incomplete,true,true,NA,NA,0,23,NA,black,m_l_037.jpg,NA,NA,NA,NA,NA,pleasant,unpleasant,NA,NA,NA,NA,NA,right,148.799999952316,true,NA,NA,NA,NA,NA,NA,NA,NA
7gN90a1c,3z8ujejod2q8a85trwhk37uqvoc39x,3dqq64tankysgdli97tlje1u2xowpa,7gN90a1c,2020-0188,2021-10-31,02:18:15,03:50:15,NA,incomplete,true,true,NA,NA,0,24,NA,brown,n_l_109.jpg,NA,NA,NA,NA,NA,pleasant,unpleasant,NA,NA,NA,NA,NA,right,253,true,NA,NA,NA,NA,NA,NA,NA,NA
7gN90a1c,3z8ujejod2q8a85trwhk37uqvoc39x,3dqq64tankysgdli97tlje1u2xowpa,7gN90a1c,2020-0188,2021-10-31,02:18:15,03:50:15,NA,incomplete,true,true,NA,NA,0,25,NA,brown,n_s_058.jpg,NA,NA,NA,NA,NA,pleasant,unpleasant,NA,NA,NA,NA,NA,right,122.600000143051,true,NA,NA,NA,NA,NA,NA,NA,NA
7gN90a1c,3z8ujejod2q8a85trwhk37uqvoc39x,3dqq64tankysgdli97tlje1u2xowpa,7gN90a1c,2020-0188,2021-10-31,02:18:15,03:50:15,NA,incomplete,true,true,NA,NA,0,26,NA,brown,n_s_065.jpg,NA,NA,NA,NA,NA,pleasant,unpleasant,NA,NA,NA,NA,NA,right,142.799999952316,true,NA,NA,NA,NA,NA,NA,NA,NA
7gN90a1c,3z8ujejod2q8a85trwhk37uqvoc39x,3dqq64tankysgdli97tlje1u2xowpa,7gN90a1c,2020-0188,2021-10-31,02:18:15,03:50:15,NA,incomplete,true,true,NA,NA,0,27,NA,brown,m_s_058.jpg,NA,NA,NA,NA,NA,pleasant,unpleasant,NA,NA,NA,NA,NA,right,301,true,NA,NA,NA,NA,NA,NA,NA,NA
7gN90a1c,3z8ujejod2q8a85trwhk37uqvoc39x,3dqq64tankysgdli97tlje1u2xowpa,7gN90a1c,2020-0188,2021-10-31,02:18:15,03:50:15,NA,incomplete,true,true,NA,NA,0,28,NA,brown,n_s_106.jpg,NA,NA,NA,NA,NA,pleasant,unpleasant,NA,NA,NA,NA,NA,right,1144.39999985695,true,NA,NA,NA,NA,NA,NA,NA,NA
7gN90a1c,3z8ujejod2q8a85trwhk37uqvoc39x,3dqq64tankysgdli97tlje1u2xowpa,7gN90a1c,2020-0188,2021-10-31,02:18:15,03:50:15,NA,incomplete,true,true,NA,NA,0,29,NA,brown,m_l_054.jpg,NA,NA,NA,NA,NA,unpleasant,pleasant,NA,NA,NA,NA,NA,right,520.900000095367,true,NA,NA,NA,NA,NA,NA,NA,NA
7gN90a1c,3z8ujejod2q8a85trwhk37uqvoc39x,3dqq64tankysgdli97tlje1u2xowpa,7gN90a1c,2020-0188,2021-10-31,02:18:15,03:50:15,NA,incomplete,true,true,NA,NA,0,30,NA,gray,n_s_078.jpg,NA,NA,NA,NA,NA,pleasant,unpleasant,NA,NA,NA,NA,NA,right,53.1999998092651,true,NA,NA,NA,NA,NA,NA,NA,NA
7gN90a1c,3z8ujejod2q8a85trwhk37uqvoc39x,3dqq64tankysgdli97tlje1u2xowpa,7gN90a1c,2020-0188,2021-10-31,02:18:15,03:50:15,NA,incomplete,true,true,NA,NA,0,31,NA,gray,n_s_044.jpg,NA,NA,NA,NA,NA,pleasant,unpleasant,NA,NA,NA,NA,NA,right,62.7999999523163,true,NA,NA,NA,NA,NA,NA,NA,NA
7gN90a1c,3z8ujejod2q8a85trwhk37uqvoc39x,3dqq64tankysgdli97tlje1u2xowpa,7gN90a1c,2020-0188,2021-10-31,02:18:15,03:50:15,NA,incomplete,true,true,NA,NA,0,32,NA,gray,n_s_066.jpg,NA,NA,NA,NA,NA,unpleasant,pleasant,NA,NA,NA,NA,NA,right,15,true,NA,NA,NA,NA,NA,NA,NA,NA
7gN90a1c,3z8ujejod2q8a85trwhk37uqvoc39x,3dqq64tankysgdli97tlje1u2xowpa,7gN90a1c,2020-0188,2021-10-31,02:18:15,03:50:15,NA,incomplete,true,true,NA,NA,0,33,NA,gray,n_s_019.jpg,NA,NA,NA,NA,NA,pleasant,unpleasant,NA,NA,NA,NA,NA,right,323.299999952316,true,NA,NA,NA,NA,NA,NA,NA,NA
7gN90a1c,3z8ujejod2q8a85trwhk37uqvoc39x,3dqq64tankysgdli97tlje1u2xowpa,7gN90a1c,2020-0188,2021-10-31,02:18:15,03:50:15,NA,incomplete,true,true,NA,NA,0,34,NA,gray,m_l_077.jpg,NA,NA,NA,NA,NA,pleasant,unpleasant,NA,NA,NA,NA,NA,right,606.700000047684,true,NA,NA,NA,NA,NA,NA,NA,NA
7gN90a1c,3z8ujejod2q8a85trwhk37uqvoc39x,3dqq64tankysgdli97tlje1u2xowpa,7gN90a1c,2020-0188,2021-10-31,02:18:15,03:50:15,NA,incomplete,true,true,NA,NA,0,35,NA,gray,m_s_099.jpg,NA,NA,NA,NA,NA,pleasant,unpleasant,NA,NA,NA,NA,NA,right,402,true,NA,NA,NA,NA,NA,NA,NA,NA
7gN90a1c,3z8ujejod2q8a85trwhk37uqvoc39x,3dqq64tankysgdli97tlje1u2xowpa,7gN90a1c,2020-0188,2021-10-31,02:18:15,03:50:15,NA,incomplete,true,NA,NA,true,0,0,NA,NA,NA,right,m_s_035.jpg,white,purple,NA,NA,NA,NA,NA,NA,NA,NA,NA,NaN,NA,4597.799999952316,right,1,NA,NA,NA,NA,NA
7gN90a1c,3z8ujejod2q8a85trwhk37uqvoc39x,3dqq64tankysgdli97tlje1u2xowpa,7gN90a1c,2020-0188,2021-10-31,02:18:15,03:50:15,NA,incomplete,true,NA,NA,true,0,1,NA,NA,NA,left,n_s_066.jpg,gray,brown,NA,NA,NA,NA,NA,NA,NA,NA,NA,NaN,NA,2093.2000000476837,right,0,NA,NA,NA,NA,NA
7gN90a1c,3z8ujejod2q8a85trwhk37uqvoc39x,3dqq64tankysgdli97tlje1u2xowpa,7gN90a1c,2020-0188,2021-10-31,02:18:15,03:50:15,NA,incomplete,true,NA,NA,true,0,2,NA,NA,NA,right,n_s_106.jpg,gray,brown,NA,NA,NA,NA,NA,NA,NA,NA,NA,NaN,NA,3222.899999856949,left,0,NA,NA,NA,NA,NA
7gN90a1c,3z8ujejod2q8a85trwhk37uqvoc39x,3dqq64tankysgdli97tlje1u2xowpa,7gN90a1c,2020-0188,2021-10-31,02:18:15,03:50:15,NA,incomplete,true,NA,NA,true,0,3,NA,NA,NA,left,m_l_054.jpg,brown,black,NA,NA,NA,NA,NA,NA,NA,NA,NA,NaN,NA,1277,left,1,NA,NA,NA,NA,NA
7gN90a1c,3z8ujejod2q8a85trwhk37uqvoc39x,3dqq64tankysgdli97tlje1u2xowpa,7gN90a1c,2020-0188,2021-10-31,02:18:15,03:50:15,NA,incomplete,true,NA,NA,true,0,4,NA,NA,NA,right,n_s_063.jpg,green,white,NA,NA,NA,NA,NA,NA,NA,NA,NA,NaN,NA,1137.6000001430511,right,1,NA,NA,NA,NA,NA
7gN90a1c,3z8ujejod2q8a85trwhk37uqvoc39x,3dqq64tankysgdli97tlje1u2xowpa,7gN90a1c,2020-0188,2021-10-31,02:18:15,03:50:15,NA,incomplete,true,NA,NA,true,0,5,NA,NA,NA,right,m_s_106.jpg,purple,white,NA,NA,NA,NA,NA,NA,NA,NA,NA,NaN,NA,1518.0999999046326,right,1,NA,NA,NA,NA,NA
7gN90a1c,3z8ujejod2q8a85trwhk37uqvoc39x,3dqq64tankysgdli97tlje1u2xowpa,7gN90a1c,2020-0188,2021-10-31,02:18:15,03:50:15,NA,incomplete,true,NA,NA,true,0,6,NA,NA,NA,right,m_l_079.jpg,green,white,NA,NA,NA,NA,NA,NA,NA,NA,NA,NaN,NA,1838.0999999046326,right,1,NA,NA,NA,NA,NA
7gN90a1c,3z8ujejod2q8a85trwhk37uqvoc39x,3dqq64tankysgdli97tlje1u2xowpa,7gN90a1c,2020-0188,2021-10-31,02:18:15,03:50:15,NA,incomplete,true,NA,NA,true,0,7,NA,NA,NA,left,m_l_091.jpg,black,purple,NA,NA,NA,NA,NA,NA,NA,NA,NA,NaN,NA,3547.600000143051,left,1,NA,NA,NA,NA,NA
7gN90a1c,3z8ujejod2q8a85trwhk37uqvoc39x,3dqq64tankysgdli97tlje1u2xowpa,7gN90a1c,2020-0188,2021-10-31,02:18:15,03:50:15,NA,incomplete,true,NA,NA,true,0,8,NA,NA,NA,right,m_l_112.jpg,white,purple,NA,NA,NA,NA,NA,NA,NA,NA,NA,NaN,NA,1078,right,1,NA,NA,NA,NA,NA
7gN90a1c,3z8ujejod2q8a85trwhk37uqvoc39x,3dqq64tankysgdli97tlje1u2xowpa,7gN90a1c,2020-0188,2021-10-31,02:18:15,03:50:15,NA,incomplete,true,NA,NA,true,0,9,NA,NA,NA,right,n_s_065.jpg,gray,brown,NA,NA,NA,NA,NA,NA,NA,NA,NA,NaN,NA,1444,right,1,NA,NA,NA,NA,NA
7gN90a1c,3z8ujejod2q8a85trwhk37uqvoc39x,3dqq64tankysgdli97tlje1u2xowpa,7gN90a1c,2020-0188,2021-10-31,02:18:15,03:50:15,NA,incomplete,true,NA,NA,true,0,10,NA,NA,NA,left,n_s_072.jpg,green,white,NA,NA,NA,NA,NA,NA,NA,NA,NA,NaN,NA,1464,left,1,NA,NA,NA,NA,NA
7gN90a1c,3z8ujejod2q8a85trwhk37uqvoc39x,3dqq64tankysgdli97tlje1u2xowpa,7gN90a1c,2020-0188,2021-10-31,02:18:15,03:50:15,NA,incomplete,true,NA,NA,true,0,11,NA,NA,NA,left,n_s_011.jpg,black,brown,NA,NA,NA,NA,NA,NA,NA,NA,NA,NaN,NA,1654.1000001430511,right,0,NA,NA,NA,NA,NA
7gN90a1c,3z8ujejod2q8a85trwhk37uqvoc39x,3dqq64tankysgdli97tlje1u2xowpa,7gN90a1c,2020-0188,2021-10-31,02:18:15,03:50:15,NA,incomplete,true,NA,NA,true,0,12,NA,NA,NA,left,m_s_099.jpg,gray,brown,NA,NA,NA,NA,NA,NA,NA,NA,NA,NaN,NA,1243.9000000953674,left,1,NA,NA,NA,NA,NA
7gN90a1c,3z8ujejod2q8a85trwhk37uqvoc39x,3dqq64tankysgdli97tlje1u2xowpa,7gN90a1c,2020-0188,2021-10-31,02:18:15,03:50:15,NA,incomplete,true,NA,NA,true,0,13,NA,NA,NA,right,n_s_044.jpg,brown,gray,NA,NA,NA,NA,NA,NA,NA,NA,NA,NaN,NA,1234.1000001430511,right,1,NA,NA,NA,NA,NA
7gN90a1c,3z8ujejod2q8a85trwhk37uqvoc39x,3dqq64tankysgdli97tlje1u2xowpa,7gN90a1c,2020-0188,2021-10-31,02:18:15,03:50:15,NA,incomplete,true,NA,NA,true,0,14,NA,NA,NA,right,n_l_023.jpg,green,white,NA,NA,NA,NA,NA,NA,NA,NA,NA,NaN,NA,1179.2000000476837,left,0,NA,NA,NA,NA,NA
7gN90a1c,3z8ujejod2q8a85trwhk37uqvoc39x,3dqq64tankysgdli97tlje1u2xowpa,7gN90a1c,2020-0188,2021-10-31,02:18:15,03:50:15,NA,incomplete,true,NA,NA,true,0,15,NA,NA,NA,left,n_l_021.jpg,green,white,NA,NA,NA,NA,NA,NA,NA,NA,NA,NaN,NA,2568.9000000953674,left,1,NA,NA,NA,NA,NA
7gN90a1c,3z8ujejod2q8a85trwhk37uqvoc39x,3dqq64tankysgdli97tlje1u2xowpa,7gN90a1c,2020-0188,2021-10-31,02:18:15,03:50:15,NA,incomplete,true,NA,NA,true,0,16,NA,NA,NA,right,m_s_083.jpg,black,purple,NA,NA,NA,NA,NA,NA,NA,NA,NA,NaN,NA,1929.2000000476837,left,0,NA,NA,NA,NA,NA
7gN90a1c,3z8ujejod2q8a85trwhk37uqvoc39x,3dqq64tankysgdli97tlje1u2xowpa,7gN90a1c,2020-0188,2021-10-31,02:18:15,03:50:15,NA,incomplete,true,NA,NA,true,0,17,NA,NA,NA,left,n_s_117.jpg,purple,white,NA,NA,NA,NA,NA,NA,NA,NA,NA,NaN,NA,2108.699999809265,right,0,NA,NA,NA,NA,NA
7gN90a1c,3z8ujejod2q8a85trwhk37uqvoc39x,3dqq64tankysgdli97tlje1u2xowpa,7gN90a1c,2020-0188,2021-10-31,02:18:15,03:50:15,NA,incomplete,true,NA,NA,true,0,18,NA,NA,NA,right,m_l_037.jpg,purple,black,NA,NA,NA,NA,NA,NA,NA,NA,NA,NaN,NA,1449.1000001430511,right,1,NA,NA,NA,NA,NA
7gN90a1c,3z8ujejod2q8a85trwhk37uqvoc39x,3dqq64tankysgdli97tlje1u2xowpa,7gN90a1c,2020-0188,2021-10-31,02:18:15,03:50:15,NA,incomplete,true,NA,NA,true,0,19,NA,NA,NA,left,n_s_071.jpg,green,white,NA,NA,NA,NA,NA,NA,NA,NA,NA,NaN,NA,1498.8999998569489,left,1,NA,NA,NA,NA,NA
7gN90a1c,3z8ujejod2q8a85trwhk37uqvoc39x,3dqq64tankysgdli97tlje1u2xowpa,7gN90a1c,2020-0188,2021-10-31,02:18:15,03:50:15,NA,incomplete,true,NA,NA,true,0,20,NA,NA,NA,right,m_l_028.jpg,brown,black,NA,NA,NA,NA,NA,NA,NA,NA,NA,NaN,NA,2663.899999856949,right,1,NA,NA,NA,NA,NA
7gN90a1c,3z8ujejod2q8a85trwhk37uqvoc39x,3dqq64tankysgdli97tlje1u2xowpa,7gN90a1c,2020-0188,2021-10-31,02:18:15,03:50:15,NA,incomplete,true,NA,NA,true,0,21,NA,NA,NA,right,n_s_058.jpg,black,brown,NA,NA,NA,NA,NA,NA,NA,NA,NA,NaN,NA,1144.0999999046326,right,1,NA,NA,NA,NA,NA
7gN90a1c,3z8ujejod2q8a85trwhk37uqvoc39x,3dqq64tankysgdli97tlje1u2xowpa,7gN90a1c,2020-0188,2021-10-31,02:18:15,03:50:15,NA,incomplete,true,NA,true,NA,0,0,NA,NA,NA,left,NA,NA,NA,present,NA,NA,n_s_072.jpg,green,n_l_021.jpg,green,within,NA,NaN,NA,NA,NA,NA,left,2283.2000000476837,1,0,1887.8999998569489
7gN90a1c,3z8ujejod2q8a85trwhk37uqvoc39x,3dqq64tankysgdli97tlje1u2xowpa,7gN90a1c,2020-0188,2021-10-31,02:18:15,03:50:15,NA,incomplete,true,NA,true,NA,0,1,NA,NA,NA,right,NA,NA,NA,present,NA,NA,m_s_099.jpg,gray,n_s_044.jpg,gray,within,NA,NaN,NA,NA,NA,NA,left,1487.7000000476837,0,0,1262.2000000476837
7gN90a1c,3z8ujejod2q8a85trwhk37uqvoc39x,3dqq64tankysgdli97tlje1u2xowpa,7gN90a1c,2020-0188,2021-10-31,02:18:15,03:50:15,NA,incomplete,true,NA,true,NA,0,2,NA,NA,NA,left,NA,NA,NA,present,NA,NA,m_s_106.jpg,white,n_s_117.jpg,purple,between,NA,NaN,NA,NA,NA,NA,left,1637.8999998569489,1,0,1917.5999999046326
7gN90a1c,3z8ujejod2q8a85trwhk37uqvoc39x,3dqq64tankysgdli97tlje1u2xowpa,7gN90a1c,2020-0188,2021-10-31,02:18:15,03:50:15,NA,incomplete,true,NA,true,NA,0,3,NA,NA,NA,left,NA,NA,NA,present,NA,NA,n_l_023.jpg,white,m_l_079.jpg,white,within,NA,NaN,NA,NA,NA,NA,right,3282.9000000953674,0,1,4087.699999809265
7gN90a1c,3z8ujejod2q8a85trwhk37uqvoc39x,3dqq64tankysgdli97tlje1u2xowpa,7gN90a1c,2020-0188,2021-10-31,02:18:15,03:50:15,NA,incomplete,true,NA,true,NA,0,4,NA,NA,NA,right,NA,NA,NA,present,NA,NA,n_s_063.jpg,white,n_s_071.jpg,green,between,NA,NaN,NA,NA,NA,NA,right,3237.7999999523163,1,1,2038.0999999046326
7gN90a1c,3z8ujejod2q8a85trwhk37uqvoc39x,3dqq64tankysgdli97tlje1u2xowpa,7gN90a1c,2020-0188,2021-10-31,02:18:15,03:50:15,NA,incomplete,true,NA,true,NA,0,5,NA,NA,NA,left,NA,NA,NA,present,NA,NA,m_s_035.jpg,purple,m_l_091.jpg,black,between,NA,NaN,NA,NA,NA,NA,left,1787.7000000476837,1,0,1202.7999999523163
7gN90a1c,3z8ujejod2q8a85trwhk37uqvoc39x,3dqq64tankysgdli97tlje1u2xowpa,7gN90a1c,2020-0188,2021-10-31,02:18:15,03:50:15,NA,incomplete,true,NA,true,NA,0,6,NA,NA,NA,left,NA,NA,NA,present,NA,NA,m_s_083.jpg,purple,m_l_112.jpg,purple,within,NA,NaN,NA,NA,NA,NA,right,2603.100000143051,0,1,2178
7gN90a1c,3z8ujejod2q8a85trwhk37uqvoc39x,3dqq64tankysgdli97tlje1u2xowpa,7gN90a1c,2020-0188,2021-10-31,02:18:15,03:50:15,NA,incomplete,true,NA,true,NA,0,7,NA,NA,NA,right,NA,NA,NA,present,NA,NA,n_s_065.jpg,brown,m_l_028.jpg,black,between,NA,NaN,NA,NA,NA,NA,right,1843,1,1,1202.2000000476837
7gN90a1c,3z8ujejod2q8a85trwhk37uqvoc39x,3dqq64tankysgdli97tlje1u2xowpa,7gN90a1c,2020-0188,2021-10-31,02:18:15,03:50:15,NA,incomplete,true,NA,true,NA,0,8,NA,NA,NA,left,NA,NA,NA,present,NA,NA,n_s_058.jpg,brown,m_l_054.jpg,brown,within,NA,NaN,NA,NA,NA,NA,left,2937.7000000476837,1,1,2032.9000000953674
7gN90a1c,3z8ujejod2q8a85trwhk37uqvoc39x,3dqq64tankysgdli97tlje1u2xowpa,7gN90a1c,2020-0188,2021-10-31,02:18:15,03:50:15,NA,incomplete,true,NA,true,NA,0,9,NA,NA,NA,left,NA,NA,NA,present,NA,NA,n_s_106.jpg,brown,n_s_066.jpg,gray,between,NA,NaN,NA,NA,NA,NA,right,1538.5,0,1,1612.4000000953674
7gN90a1c,3z8ujejod2q8a85trwhk37uqvoc39x,3dqq64tankysgdli97tlje1u2xowpa,7gN90a1c,2020-0188,2021-10-31,02:18:15,03:50:15,NA,incomplete,true,NA,true,NA,0,10,NA,NA,NA,left,NA,NA,NA,present,NA,NA,n_s_011.jpg,black,m_l_037.jpg,black,within,NA,NaN,NA,NA,NA,NA,right,1523,0,0,1718
7gN90a1c,3z8ujejod2q8a85trwhk37uqvoc39x,3dqq64tankysgdli97tlje1u2xowpa,7gN90a1c,2020-0188,2021-10-31,02:18:15,03:50:15,NA,incomplete,false,true,NA,NA,1,0,NA,black,m_l_100.jpg,NA,NA,NA,NA,NA,pleasant,unpleasant,NA,NA,NA,NA,NA,right,1053.70000004768,true,NA,NA,NA,NA,NA,NA,NA,NA
7gN90a1c,3z8ujejod2q8a85trwhk37uqvoc39x,3dqq64tankysgdli97tlje1u2xowpa,7gN90a1c,2020-0188,2021-10-31,02:18:15,03:50:15,NA,incomplete,false,true,NA,NA,1,1,NA,black,n_l_069.jpg,NA,NA,NA,NA,NA,pleasant,unpleasant,NA,NA,NA,NA,NA,none,0,false,NA,NA,NA,NA,NA,NA,NA,NA
7gN90a1c,3z8ujejod2q8a85trwhk37uqvoc39x,3dqq64tankysgdli97tlje1u2xowpa,7gN90a1c,2020-0188,2021-10-31,02:18:15,03:50:15,NA,incomplete,false,true,NA,NA,1,2,NA,black,n_l_068.jpg,NA,NA,NA,NA,NA,unpleasant,pleasant,NA,NA,NA,NA,NA,right,415.700000047684,true,NA,NA,NA,NA,NA,NA,NA,NA
7gN90a1c,3z8ujejod2q8a85trwhk37uqvoc39x,3dqq64tankysgdli97tlje1u2xowpa,7gN90a1c,2020-0188,2021-10-31,02:18:15,03:50:15,NA,incomplete,false,true,NA,NA,1,3,NA,black,m_s_104.jpg,NA,NA,NA,NA,NA,unpleasant,pleasant,NA,NA,NA,NA,NA,none,0,false,NA,NA,NA,NA,NA,NA,NA,NA
7gN90a1c,3z8ujejod2q8a85trwhk37uqvoc39x,3dqq64tankysgdli97tlje1u2xowpa,7gN90a1c,2020-0188,2021-10-31,02:18:15,03:50:15,NA,incomplete,false,true,NA,NA,1,4,NA,black,n_l_092.jpg,NA,NA,NA,NA,NA,unpleasant,pleasant,NA,NA,NA,NA,NA,none,0,false,NA,NA,NA,NA,NA,NA,NA,NA
7gN90a1c,3z8ujejod2q8a85trwhk37uqvoc39x,3dqq64tankysgdli97tlje1u2xowpa,7gN90a1c,2020-0188,2021-10-31,02:18:15,03:50:15,NA,incomplete,false,true,NA,NA,1,5,NA,black,n_l_038.jpg,NA,NA,NA,NA,NA,pleasant,unpleasant,NA,NA,NA,NA,NA,none,0,false,NA,NA,NA,NA,NA,NA,NA,NA
7gN90a1c,3z8ujejod2q8a85trwhk37uqvoc39x,3dqq64tankysgdli97tlje1u2xowpa,7gN90a1c,2020-0188,2021-10-31,02:18:15,03:50:15,NA,incomplete,false,true,NA,NA,1,6,NA,gray,m_l_102.jpg,NA,NA,NA,NA,NA,pleasant,unpleasant,NA,NA,NA,NA,NA,none,0,false,NA,NA,NA,NA,NA,NA,NA,NA
7gN90a1c,3z8ujejod2q8a85trwhk37uqvoc39x,3dqq64tankysgdli97tlje1u2xowpa,7gN90a1c,2020-0188,2021-10-31,02:18:15,03:50:15,NA,incomplete,false,true,NA,NA,1,7,NA,gray,n_s_031.jpg,NA,NA,NA,NA,NA,unpleasant,pleasant,NA,NA,NA,NA,NA,none,0,false,NA,NA,NA,NA,NA,NA,NA,NA
7gN90a1c,3z8ujejod2q8a85trwhk37uqvoc39x,3dqq64tankysgdli97tlje1u2xowpa,7gN90a1c,2020-0188,2021-10-31,02:18:15,03:50:15,NA,incomplete,false,true,NA,NA,1,8,NA,gray,n_l_112.jpg,NA,NA,NA,NA,NA,pleasant,unpleasant,NA,NA,NA,NA,NA,right,2443.79999995232,true,NA,NA,NA,NA,NA,NA,NA,NA
7gN90a1c,3z8ujejod2q8a85trwhk37uqvoc39x,3dqq64tankysgdli97tlje1u2xowpa,7gN90a1c,2020-0188,2021-10-31,02:18:15,03:50:15,NA,incomplete,false,true,NA,NA,1,9,NA,gray,m_s_018.jpg,NA,NA,NA,NA,NA,pleasant,unpleasant,NA,NA,NA,NA,NA,right,1832.19999980927,true,NA,NA,NA,NA,NA,NA,NA,NA
7gN90a1c,3z8ujejod2q8a85trwhk37uqvoc39x,3dqq64tankysgdli97tlje1u2xowpa,7gN90a1c,2020-0188,2021-10-31,02:18:15,03:50:15,NA,incomplete,false,true,NA,NA,1,10,NA,gray,m_l_050.jpg,NA,NA,NA,NA,NA,pleasant,unpleasant,NA,NA,NA,NA,NA,none,0,false,NA,NA,NA,NA,NA,NA,NA,NA
7gN90a1c,3z8ujejod2q8a85trwhk37uqvoc39x,3dqq64tankysgdli97tlje1u2xowpa,7gN90a1c,2020-0188,2021-10-31,02:18:15,03:50:15,NA,incomplete,false,true,NA,NA,1,11,NA,gray,n_s_062.jpg,NA,NA,NA,NA,NA,unpleasant,pleasant,NA,NA,NA,NA,NA,none,0,false,NA,NA,NA,NA,NA,NA,NA,NA
7gN90a1c,3z8ujejod2q8a85trwhk37uqvoc39x,3dqq64tankysgdli97tlje1u2xowpa,7gN90a1c,2020-0188,2021-10-31,02:18:15,03:50:15,NA,incomplete,false,true,NA,NA,1,12,NA,red,m_s_053.jpg,NA,NA,NA,NA,NA,unpleasant,pleasant,NA,NA,NA,NA,NA,none,0,false,NA,NA,NA,NA,NA,NA,NA,NA
7gN90a1c,3z8ujejod2q8a85trwhk37uqvoc39x,3dqq64tankysgdli97tlje1u2xowpa,7gN90a1c,2020-0188,2021-10-31,02:18:15,03:50:15,NA,incomplete,false,true,NA,NA,1,13,NA,red,n_l_058.jpg,NA,NA,NA,NA,NA,pleasant,unpleasant,NA,NA,NA,NA,NA,none,0,false,NA,NA,NA,NA,NA,NA,NA,NA
7gN90a1c,3z8ujejod2q8a85trwhk37uqvoc39x,3dqq64tankysgdli97tlje1u2xowpa,7gN90a1c,2020-0188,2021-10-31,02:18:15,03:50:15,NA,incomplete,false,true,NA,NA,1,14,NA,red,m_s_115.jpg,NA,NA,NA,NA,NA,unpleasant,pleasant,NA,NA,NA,NA,NA,none,0,false,NA,NA,NA,NA,NA,NA,NA,NA
7gN90a1c,3z8ujejod2q8a85trwhk37uqvoc39x,3dqq64tankysgdli97tlje1u2xowpa,7gN90a1c,2020-0188,2021-10-31,02:18:15,03:50:15,NA,incomplete,false,true,NA,NA,1,15,NA,red,n_s_100.jpg,NA,NA,NA,NA,NA,pleasant,unpleasant,NA,NA,NA,NA,NA,none,0,false,NA,NA,NA,NA,NA,NA,NA,NA
7gN90a1c,3z8ujejod2q8a85trwhk37uqvoc39x,3dqq64tankysgdli97tlje1u2xowpa,7gN90a1c,2020-0188,2021-10-31,02:18:15,03:50:15,NA,incomplete,false,true,NA,NA,1,16,NA,red,n_s_010.jpg,NA,NA,NA,NA,NA,unpleasant,pleasant,NA,NA,NA,NA,NA,none,0,false,NA,NA,NA,NA,NA,NA,NA,NA
7gN90a1c,3z8ujejod2q8a85trwhk37uqvoc39x,3dqq64tankysgdli97tlje1u2xowpa,7gN90a1c,2020-0188,2021-10-31,02:18:15,03:50:15,NA,incomplete,false,true,NA,NA,1,17,NA,red,m_l_042.jpg,NA,NA,NA,NA,NA,unpleasant,pleasant,NA,NA,NA,NA,NA,none,0,false,NA,NA,NA,NA,NA,NA,NA,NA
7gN90a1c,3z8ujejod2q8a85trwhk37uqvoc39x,3dqq64tankysgdli97tlje1u2xowpa,7gN90a1c,2020-0188,2021-10-31,02:18:15,03:50:15,NA,incomplete,false,true,NA,NA,1,18,NA,blue,m_l_064.jpg,NA,NA,NA,NA,NA,pleasant,unpleasant,NA,NA,NA,NA,NA,none,0,false,NA,NA,NA,NA,NA,NA,NA,NA
7gN90a1c,3z8ujejod2q8a85trwhk37uqvoc39x,3dqq64tankysgdli97tlje1u2xowpa,7gN90a1c,2020-0188,2021-10-31,02:18:15,03:50:15,NA,incomplete,false,true,NA,NA,1,19,NA,blue,n_s_012.jpg,NA,NA,NA,NA,NA,unpleasant,pleasant,NA,NA,NA,NA,NA,none,0,false,NA,NA,NA,NA,NA,NA,NA,NA
7gN90a1c,3z8ujejod2q8a85trwhk37uqvoc39x,3dqq64tankysgdli97tlje1u2xowpa,7gN90a1c,2020-0188,2021-10-31,02:18:15,03:50:15,NA,incomplete,false,true,NA,NA,1,20,NA,blue,n_l_057.jpg,NA,NA,NA,NA,NA,pleasant,unpleasant,NA,NA,NA,NA,NA,none,0,false,NA,NA,NA,NA,NA,NA,NA,NA
7gN90a1c,3z8ujejod2q8a85trwhk37uqvoc39x,3dqq64tankysgdli97tlje1u2xowpa,7gN90a1c,2020-0188,2021-10-31,02:18:15,03:50:15,NA,incomplete,false,true,NA,NA,1,21,NA,blue,m_l_084.jpg,NA,NA,NA,NA,NA,unpleasant,pleasant,NA,NA,NA,NA,NA,none,0,false,NA,NA,NA,NA,NA,NA,NA,NA
7gN90a1c,3z8ujejod2q8a85trwhk37uqvoc39x,3dqq64tankysgdli97tlje1u2xowpa,7gN90a1c,2020-0188,2021-10-31,02:18:15,03:50:15,NA,incomplete,false,true,NA,NA,1,22,NA,blue,n_l_045.jpg,NA,NA,NA,NA,NA,pleasant,unpleasant,NA,NA,NA,NA,NA,none,0,false,NA,NA,NA,NA,NA,NA,NA,NA
7gN90a1c,3z8ujejod2q8a85trwhk37uqvoc39x,3dqq64tankysgdli97tlje1u2xowpa,7gN90a1c,2020-0188,2021-10-31,02:18:15,03:50:15,NA,incomplete,false,true,NA,NA,1,23,NA,blue,m_s_102.jpg,NA,NA,NA,NA,NA,unpleasant,pleasant,NA,NA,NA,NA,NA,none,0,false,NA,NA,NA,NA,NA,NA,NA,NA
7gN90a1c,3z8ujejod2q8a85trwhk37uqvoc39x,3dqq64tankysgdli97tlje1u2xowpa,7gN90a1c,2020-0188,2021-10-31,02:18:15,03:50:15,NA,incomplete,false,true,NA,NA,1,24,NA,brown,m_s_067.jpg,NA,NA,NA,NA,NA,pleasant,unpleasant,NA,NA,NA,NA,NA,none,0,false,NA,NA,NA,NA,NA,NA,NA,NA
7gN90a1c,3z8ujejod2q8a85trwhk37uqvoc39x,3dqq64tankysgdli97tlje1u2xowpa,7gN90a1c,2020-0188,2021-10-31,02:18:15,03:50:15,NA,incomplete,false,true,NA,NA,1,25,NA,brown,m_l_114.jpg,NA,NA,NA,NA,NA,pleasant,unpleasant,NA,NA,NA,NA,NA,none,0,false,NA,NA,NA,NA,NA,NA,NA,NA
7gN90a1c,3z8ujejod2q8a85trwhk37uqvoc39x,3dqq64tankysgdli97tlje1u2xowpa,7gN90a1c,2020-0188,2021-10-31,02:18:15,03:50:15,NA,incomplete,false,true,NA,NA,1,26,NA,brown,m_l_017.jpg,NA,NA,NA,NA,NA,pleasant,unpleasant,NA,NA,NA,NA,NA,none,0,false,NA,NA,NA,NA,NA,NA,NA,NA
7gN90a1c,3z8ujejod2q8a85trwhk37uqvoc39x,3dqq64tankysgdli97tlje1u2xowpa,7gN90a1c,2020-0188,2021-10-31,02:18:15,03:50:15,NA,incomplete,false,true,NA,NA,1,27,NA,brown,m_l_109.jpg,NA,NA,NA,NA,NA,pleasant,unpleasant,NA,NA,NA,NA,NA,none,0,false,NA,NA,NA,NA,NA,NA,NA,NA
7gN90a1c,3z8ujejod2q8a85trwhk37uqvoc39x,3dqq64tankysgdli97tlje1u2xowpa,7gN90a1c,2020-0188,2021-10-31,02:18:15,03:50:15,NA,incomplete,false,true,NA,NA,1,28,NA,brown,n_l_113.jpg,NA,NA,NA,NA,NA,unpleasant,pleasant,NA,NA,NA,NA,NA,none,0,false,NA,NA,NA,NA,NA,NA,NA,NA
7gN90a1c,3z8ujejod2q8a85trwhk37uqvoc39x,3dqq64tankysgdli97tlje1u2xowpa,7gN90a1c,2020-0188,2021-10-31,02:18:15,03:50:15,NA,incomplete,false,true,NA,NA,1,29,NA,brown,m_l_087.jpg,NA,NA,NA,NA,NA,unpleasant,pleasant,NA,NA,NA,NA,NA,none,0,false,NA,NA,NA,NA,NA,NA,NA,NA
7gN90a1c,3z8ujejod2q8a85trwhk37uqvoc39x,3dqq64tankysgdli97tlje1u2xowpa,7gN90a1c,2020-0188,2021-10-31,02:18:15,03:50:15,NA,incomplete,false,true,NA,NA,1,30,NA,orange,n_l_034.jpg,NA,NA,NA,NA,NA,pleasant,unpleasant,NA,NA,NA,NA,NA,none,0,false,NA,NA,NA,NA,NA,NA,NA,NA
7gN90a1c,3z8ujejod2q8a85trwhk37uqvoc39x,3dqq64tankysgdli97tlje1u2xowpa,7gN90a1c,2020-0188,2021-10-31,02:18:15,03:50:15,NA,incomplete,false,true,NA,NA,1,31,NA,orange,m_l_073.jpg,NA,NA,NA,NA,NA,unpleasant,pleasant,NA,NA,NA,NA,NA,none,0,false,NA,NA,NA,NA,NA,NA,NA,NA
7gN90a1c,3z8ujejod2q8a85trwhk37uqvoc39x,3dqq64tankysgdli97tlje1u2xowpa,7gN90a1c,2020-0188,2021-10-31,02:18:15,03:50:15,NA,incomplete,false,true,NA,NA,1,32,NA,orange,n_l_007.jpg,NA,NA,NA,NA,NA,pleasant,unpleasant,NA,NA,NA,NA,NA,none,0,false,NA,NA,NA,NA,NA,NA,NA,NA
7gN90a1c,3z8ujejod2q8a85trwhk37uqvoc39x,3dqq64tankysgdli97tlje1u2xowpa,7gN90a1c,2020-0188,2021-10-31,02:18:15,03:50:15,NA,incomplete,false,true,NA,NA,1,33,NA,orange,m_s_101.jpg,NA,NA,NA,NA,NA,pleasant,unpleasant,NA,NA,NA,NA,NA,none,0,false,NA,NA,NA,NA,NA,NA,NA,NA
7gN90a1c,3z8ujejod2q8a85trwhk37uqvoc39x,3dqq64tankysgdli97tlje1u2xowpa,7gN90a1c,2020-0188,2021-10-31,02:18:15,03:50:15,NA,incomplete,false,true,NA,NA,1,34,NA,orange,n_l_041.jpg,NA,NA,NA,NA,NA,pleasant,unpleasant,NA,NA,NA,NA,NA,none,0,false,NA,NA,NA,NA,NA,NA,NA,NA
7gN90a1c,3z8ujejod2q8a85trwhk37uqvoc39x,3dqq64tankysgdli97tlje1u2xowpa,7gN90a1c,2020-0188,2021-10-31,02:18:15,03:50:15,NA,incomplete,false,true,NA,NA,1,35,NA,orange,m_s_082.jpg,NA,NA,NA,NA,NA,unpleasant,pleasant,NA,NA,NA,NA,NA,right,225.199999809265,true,NA,NA,NA,NA,NA,NA,NA,NA
7gN90a1c,3z8ujejod2q8a85trwhk37uqvoc39x,3dqq64tankysgdli97tlje1u2xowpa,7gN90a1c,2020-0188,2021-10-31,02:18:15,03:50:15,NA,incomplete,false,NA,NA,true,1,0,NA,NA,NA,left,n_s_031.jpg,gray,black,NA,NA,NA,NA,NA,NA,NA,NA,NA,NaN,NA,6567.400000095367,right,0,NA,NA,NA,NA,NA
7gN90a1c,3z8ujejod2q8a85trwhk37uqvoc39x,3dqq64tankysgdli97tlje1u2xowpa,7gN90a1c,2020-0188,2021-10-31,02:18:15,03:50:15,NA,incomplete,false,NA,NA,true,1,1,NA,NA,NA,left,n_l_113.jpg,brown,orange,NA,NA,NA,NA,NA,NA,NA,NA,NA,NaN,NA,9299,left,1,NA,NA,NA,NA,NA
7gN90a1c,3z8ujejod2q8a85trwhk37uqvoc39x,3dqq64tankysgdli97tlje1u2xowpa,7gN90a1c,2020-0188,2021-10-31,02:18:15,03:50:15,NA,incomplete,false,NA,NA,true,1,2,NA,NA,NA,right,n_s_010.jpg,blue,red,NA,NA,NA,NA,NA,NA,NA,NA,NA,NaN,NA,14178.700000047684,right,1,NA,NA,NA,NA,NA
7gN90a1c,3z8ujejod2q8a85trwhk37uqvoc39x,3dqq64tankysgdli97tlje1u2xowpa,7gN90a1c,2020-0188,2021-10-31,02:18:15,03:50:15,NA,incomplete,false,NA,NA,true,1,3,NA,NA,NA,right,m_l_050.jpg,black,gray,NA,NA,NA,NA,NA,NA,NA,NA,NA,NaN,NA,3238.4000000953674,right,1,NA,NA,NA,NA,NA
7gN90a1c,3z8ujejod2q8a85trwhk37uqvoc39x,3dqq64tankysgdli97tlje1u2xowpa,7gN90a1c,2020-0188,2021-10-31,02:18:15,03:50:15,NA,incomplete,false,NA,NA,true,1,4,NA,NA,NA,left,n_s_062.jpg,gray,black,NA,NA,NA,NA,NA,NA,NA,NA,NA,NaN,NA,3849.4000000953674,left,1,NA,NA,NA,NA,NA
7gN90a1c,3z8ujejod2q8a85trwhk37uqvoc39x,3dqq64tankysgdli97tlje1u2xowpa,7gN90a1c,2020-0188,2021-10-31,02:18:15,03:50:15,NA,incomplete,false,NA,NA,true,1,5,NA,NA,NA,left,n_l_092.jpg,black,gray,NA,NA,NA,NA,NA,NA,NA,NA,NA,NaN,NA,4088.7000000476837,left,1,NA,NA,NA,NA,NA
7gN90a1c,3z8ujejod2q8a85trwhk37uqvoc39x,3dqq64tankysgdli97tlje1u2xowpa,7gN90a1c,2020-0188,2021-10-31,02:18:15,03:50:15,NA,incomplete,false,NA,NA,true,1,6,NA,NA,NA,left,m_l_114.jpg,brown,orange,NA,NA,NA,NA,NA,NA,NA,NA,NA,NaN,NA,5608.900000095367,left,1,NA,NA,NA,NA,NA
7gN90a1c,3z8ujejod2q8a85trwhk37uqvoc39x,3dqq64tankysgdli97tlje1u2xowpa,7gN90a1c,2020-0188,2021-10-31,02:18:15,03:50:15,NA,incomplete,false,NA,NA,true,1,7,NA,NA,NA,right,n_l_045.jpg,brown,blue,NA,NA,NA,NA,NA,NA,NA,NA,NA,NaN,NA,5090.400000095367,right,1,NA,NA,NA,NA,NA
7gN90a1c,3z8ujejod2q8a85trwhk37uqvoc39x,3dqq64tankysgdli97tlje1u2xowpa,7gN90a1c,2020-0188,2021-10-31,02:18:15,03:50:15,NA,incomplete,false,NA,NA,true,1,8,NA,NA,NA,right,n_l_069.jpg,gray,black,NA,NA,NA,NA,NA,NA,NA,NA,NA,NaN,NA,9208.5,right,1,NA,NA,NA,NA,NA
7gN90a1c,3z8ujejod2q8a85trwhk37uqvoc39x,3dqq64tankysgdli97tlje1u2xowpa,7gN90a1c,2020-0188,2021-10-31,02:18:15,03:50:15,NA,incomplete,false,NA,NA,true,1,9,NA,NA,NA,right,n_l_057.jpg,brown,blue,NA,NA,NA,NA,NA,NA,NA,NA,NA,NaN,NA,7803.200000047684,right,1,NA,NA,NA,NA,NA
7gN90a1c,3z8ujejod2q8a85trwhk37uqvoc39x,3dqq64tankysgdli97tlje1u2xowpa,7gN90a1c,2020-0188,2021-10-31,02:18:15,03:50:15,NA,incomplete,false,NA,NA,true,1,10,NA,NA,NA,left,m_s_115.jpg,red,blue,NA,NA,NA,NA,NA,NA,NA,NA,NA,NaN,NA,14138.699999809265,left,1,NA,NA,NA,NA,NA
7gN90a1c,3z8ujejod2q8a85trwhk37uqvoc39x,3dqq64tankysgdli97tlje1u2xowpa,7gN90a1c,2020-0188,2021-10-31,02:18:15,03:50:15,NA,incomplete,false,NA,NA,true,1,11,NA,NA,NA,right,m_l_042.jpg,blue,red,NA,NA,NA,NA,NA,NA,NA,NA,NA,NaN,NA,10538.5,right,1,NA,NA,NA,NA,NA
7gN90a1c,3z8ujejod2q8a85trwhk37uqvoc39x,3dqq64tankysgdli97tlje1u2xowpa,7gN90a1c,2020-0188,2021-10-31,02:18:15,03:50:15,NA,incomplete,false,NA,NA,true,1,12,NA,NA,NA,right,m_s_102.jpg,red,blue,NA,NA,NA,NA,NA,NA,NA,NA,NA,NaN,NA,4389,right,1,NA,NA,NA,NA,NA
7gN90a1c,3z8ujejod2q8a85trwhk37uqvoc39x,3dqq64tankysgdli97tlje1u2xowpa,7gN90a1c,2020-0188,2021-10-31,02:18:15,03:50:15,NA,incomplete,false,NA,NA,true,1,13,NA,NA,NA,left,n_l_038.jpg,black,gray,NA,NA,NA,NA,NA,NA,NA,NA,NA,NaN,NA,4759.099999904633,left,1,NA,NA,NA,NA,NA
7gN90a1c,3z8ujejod2q8a85trwhk37uqvoc39x,3dqq64tankysgdli97tlje1u2xowpa,7gN90a1c,2020-0188,2021-10-31,02:18:15,03:50:15,NA,incomplete,false,NA,NA,true,1,14,NA,NA,NA,left,m_s_082.jpg,orange,brown,NA,NA,NA,NA,NA,NA,NA,NA,NA,NaN,NA,5038.5,left,1,NA,NA,NA,NA,NA
7gN90a1c,3z8ujejod2q8a85trwhk37uqvoc39x,3dqq64tankysgdli97tlje1u2xowpa,7gN90a1c,2020-0188,2021-10-31,02:18:15,03:50:15,NA,incomplete,false,NA,NA,true,1,15,NA,NA,NA,right,m_l_073.jpg,brown,orange,NA,NA,NA,NA,NA,NA,NA,NA,NA,NaN,NA,5278.5,right,1,NA,NA,NA,NA,NA
7gN90a1c,3z8ujejod2q8a85trwhk37uqvoc39x,3dqq64tankysgdli97tlje1u2xowpa,7gN90a1c,2020-0188,2021-10-31,02:18:15,03:50:15,NA,incomplete,false,NA,NA,true,1,16,NA,NA,NA,left,n_l_058.jpg,red,gray,NA,NA,NA,NA,NA,NA,NA,NA,NA,NaN,NA,7598.899999856949,left,1,NA,NA,NA,NA,NA
7gN90a1c,3z8ujejod2q8a85trwhk37uqvoc39x,3dqq64tankysgdli97tlje1u2xowpa,7gN90a1c,2020-0188,2021-10-31,02:18:15,03:50:15,NA,incomplete,false,NA,NA,true,1,17,NA,NA,NA,right,n_l_112.jpg,black,gray,NA,NA,NA,NA,NA,NA,NA,NA,NA,NaN,NA,2888.4000000953674,right,1,NA,NA,NA,NA,NA
7gN90a1c,3z8ujejod2q8a85trwhk37uqvoc39x,3dqq64tankysgdli97tlje1u2xowpa,7gN90a1c,2020-0188,2021-10-31,02:18:15,03:50:15,NA,incomplete,false,NA,NA,true,1,18,NA,NA,NA,right,m_l_087.jpg,blue,brown,NA,NA,NA,NA,NA,NA,NA,NA,NA,NaN,NA,6803.5,right,1,NA,NA,NA,NA,NA
7gN90a1c,3z8ujejod2q8a85trwhk37uqvoc39x,3dqq64tankysgdli97tlje1u2xowpa,7gN90a1c,2020-0188,2021-10-31,02:18:15,03:50:15,NA,incomplete,false,NA,NA,true,1,19,NA,NA,NA,right,m_l_017.jpg,blue,brown,NA,NA,NA,NA,NA,NA,NA,NA,NA,NaN,NA,3128.9000000953674,right,1,NA,NA,NA,NA,NA
7gN90a1c,3z8ujejod2q8a85trwhk37uqvoc39x,3dqq64tankysgdli97tlje1u2xowpa,7gN90a1c,2020-0188,2021-10-31,02:18:15,03:50:15,NA,incomplete,false,NA,NA,true,1,20,NA,NA,NA,left,n_s_012.jpg,blue,red,NA,NA,NA,NA,NA,NA,NA,NA,NA,NaN,NA,5708.700000047684,left,1,NA,NA,NA,NA,NA
7gN90a1c,3z8ujejod2q8a85trwhk37uqvoc39x,3dqq64tankysgdli97tlje1u2xowpa,7gN90a1c,2020-0188,2021-10-31,02:18:15,03:50:15,NA,incomplete,false,NA,NA,true,1,21,NA,NA,NA,left,n_l_007.jpg,orange,brown,NA,NA,NA,NA,NA,NA,NA,NA,NA,NaN,NA,5728.700000047684,left,1,NA,NA,NA,NA,NA
7gN90a1c,3z8ujejod2q8a85trwhk37uqvoc39x,3dqq64tankysgdli97tlje1u2xowpa,7gN90a1c,2020-0188,2021-10-31,02:18:15,03:50:15,NA,incomplete,false,NA,true,NA,1,0,NA,NA,NA,right,NA,NA,NA,present,NA,NA,n_l_007.jpg,orange,n_l_113.jpg,brown,between,NA,NaN,NA,NA,NA,NA,right,6957.100000143051,1,1,2397.5
7gN90a1c,3z8ujejod2q8a85trwhk37uqvoc39x,3dqq64tankysgdli97tlje1u2xowpa,7gN90a1c,2020-0188,2021-10-31,02:18:15,03:50:15,NA,incomplete,false,NA,true,NA,1,1,NA,NA,NA,left,NA,NA,NA,present,NA,NA,n_l_045.jpg,blue,m_l_017.jpg,brown,between,NA,NaN,NA,NA,NA,NA,left,14267.299999952316,1,1,2277.2999999523163
7gN90a1c,3z8ujejod2q8a85trwhk37uqvoc39x,3dqq64tankysgdli97tlje1u2xowpa,7gN90a1c,2020-0188,2021-10-31,02:18:15,03:50:15,NA,incomplete,false,NA,true,NA,1,2,NA,NA,NA,right,NA,NA,NA,present,NA,NA,m_s_082.jpg,orange,m_l_073.jpg,orange,within,NA,NaN,NA,NA,NA,NA,right,14206.600000143051,1,1,2563.7000000476837
7gN90a1c,3z8ujejod2q8a85trwhk37uqvoc39x,3dqq64tankysgdli97tlje1u2xowpa,7gN90a1c,2020-0188,2021-10-31,02:18:15,03:50:15,NA,incomplete,false,NA,true,NA,1,3,NA,NA,NA,left,NA,NA,NA,present,NA,NA,n_l_069.jpg,black,n_l_038.jpg,black,within,NA,NaN,NA,NA,NA,NA,right,4644.200000047684,0,1,9108.700000047684
7gN90a1c,3z8ujejod2q8a85trwhk37uqvoc39x,3dqq64tankysgdli97tlje1u2xowpa,7gN90a1c,2020-0188,2021-10-31,02:18:15,03:50:15,NA,incomplete,false,NA,true,NA,1,4,NA,NA,NA,right,NA,NA,NA,present,NA,NA,m_s_102.jpg,blue,n_s_012.jpg,blue,within,NA,NaN,NA,NA,NA,NA,right,3978.7000000476837,1,1,2098.600000143051
7gN90a1c,3z8ujejod2q8a85trwhk37uqvoc39x,3dqq64tankysgdli97tlje1u2xowpa,7gN90a1c,2020-0188,2021-10-31,02:18:15,03:50:15,NA,incomplete,false,NA,true,NA,1,5,NA,NA,NA,right,NA,NA,NA,present,NA,NA,n_l_057.jpg,blue,n_s_010.jpg,red,between,NA,NaN,NA,NA,NA,NA,right,8958.799999952316,1,1,5319
7gN90a1c,3z8ujejod2q8a85trwhk37uqvoc39x,3dqq64tankysgdli97tlje1u2xowpa,7gN90a1c,2020-0188,2021-10-31,02:18:15,03:50:15,NA,incomplete,false,NA,true,NA,1,6,NA,NA,NA,right,NA,NA,NA,present,NA,NA,n_l_112.jpg,gray,n_l_092.jpg,black,between,NA,NaN,NA,NA,NA,NA,right,4148.400000095367,1,1,2708.5999999046326
7gN90a1c,3z8ujejod2q8a85trwhk37uqvoc39x,3dqq64tankysgdli97tlje1u2xowpa,7gN90a1c,2020-0188,2021-10-31,02:18:15,03:50:15,NA,incomplete,false,NA,true,NA,1,7,NA,NA,NA,right,NA,NA,NA,present,NA,NA,m_s_115.jpg,red,m_l_050.jpg,gray,between,NA,NaN,NA,NA,NA,NA,right,4328.5,1,1,2423.7000000476837
7gN90a1c,3z8ujejod2q8a85trwhk37uqvoc39x,3dqq64tankysgdli97tlje1u2xowpa,7gN90a1c,2020-0188,2021-10-31,02:18:15,03:50:15,NA,incomplete,false,NA,true,NA,1,8,NA,NA,NA,left,NA,NA,NA,present,NA,NA,n_l_058.jpg,red,m_l_042.jpg,red,within,NA,NaN,NA,NA,NA,NA,left,17118.39999985695,1,1,7379.200000047684
7gN90a1c,3z8ujejod2q8a85trwhk37uqvoc39x,3dqq64tankysgdli97tlje1u2xowpa,7gN90a1c,2020-0188,2021-10-31,02:18:15,03:50:15,NA,incomplete,false,NA,true,NA,1,9,NA,NA,NA,right,NA,NA,NA,present,NA,NA,n_s_062.jpg,gray,n_s_031.jpg,gray,within,NA,NaN,NA,NA,NA,NA,right,11978.5,1,1,2683.7999999523163
7gN90a1c,3z8ujejod2q8a85trwhk37uqvoc39x,3dqq64tankysgdli97tlje1u2xowpa,7gN90a1c,2020-0188,2021-10-31,02:18:15,03:50:15,NA,incomplete,false,NA,true,NA,1,10,NA,NA,NA,left,NA,NA,NA,present,NA,NA,m_l_114.jpg,brown,m_l_087.jpg,brown,within,NA,NaN,NA,NA,NA,NA,right,6979,0,1,3368.9000000953674
7gN90a1c,3z8ujejod2q8a85trwhk37uqvoc39x,3dqq64tankysgdli97tlje1u2xowpa,7gN90a1c,2020-0188,2021-10-31,02:18:15,03:50:15,NA,incomplete,false,true,NA,NA,2,0,NA,gray,n_l_037.jpg,NA,NA,NA,NA,NA,pleasant,unpleasant,NA,NA,NA,NA,NA,right,1687.5,true,NA,NA,NA,NA,NA,NA,NA,NA
7gN90a1c,3z8ujejod2q8a85trwhk37uqvoc39x,3dqq64tankysgdli97tlje1u2xowpa,7gN90a1c,2020-0188,2021-10-31,02:18:15,03:50:15,NA,incomplete,false,true,NA,NA,2,1,NA,gray,m_s_030.jpg,NA,NA,NA,NA,NA,unpleasant,pleasant,NA,NA,NA,NA,NA,right,4.60000014305115,true,NA,NA,NA,NA,NA,NA,NA,NA
7gN90a1c,3z8ujejod2q8a85trwhk37uqvoc39x,3dqq64tankysgdli97tlje1u2xowpa,7gN90a1c,2020-0188,2021-10-31,02:18:15,03:50:15,NA,incomplete,false,true,NA,NA,2,2,NA,gray,n_l_003.jpg,NA,NA,NA,NA,NA,pleasant,unpleasant,NA,NA,NA,NA,NA,none,0,false,NA,NA,NA,NA,NA,NA,NA,NA
7gN90a1c,3z8ujejod2q8a85trwhk37uqvoc39x,3dqq64tankysgdli97tlje1u2xowpa,7gN90a1c,2020-0188,2021-10-31,02:18:15,03:50:15,NA,incomplete,false,true,NA,NA,2,3,NA,gray,n_s_085.jpg,NA,NA,NA,NA,NA,pleasant,unpleasant,NA,NA,NA,NA,NA,none,0,false,NA,NA,NA,NA,NA,NA,NA,NA
7gN90a1c,3z8ujejod2q8a85trwhk37uqvoc39x,3dqq64tankysgdli97tlje1u2xowpa,7gN90a1c,2020-0188,2021-10-31,02:18:15,03:50:15,NA,incomplete,false,true,NA,NA,2,4,NA,gray,n_l_046.jpg,NA,NA,NA,NA,NA,unpleasant,pleasant,NA,NA,NA,NA,NA,none,0,false,NA,NA,NA,NA,NA,NA,NA,NA
7gN90a1c,3z8ujejod2q8a85trwhk37uqvoc39x,3dqq64tankysgdli97tlje1u2xowpa,7gN90a1c,2020-0188,2021-10-31,02:18:15,03:50:15,NA,incomplete,false,true,NA,NA,2,5,NA,gray,n_s_008.jpg,NA,NA,NA,NA,NA,pleasant,unpleasant,NA,NA,NA,NA,NA,none,0,false,NA,NA,NA,NA,NA,NA,NA,NA
7gN90a1c,3z8ujejod2q8a85trwhk37uqvoc39x,3dqq64tankysgdli97tlje1u2xowpa,7gN90a1c,2020-0188,2021-10-31,02:18:15,03:50:15,NA,incomplete,false,true,NA,NA,2,6,NA,yellow,m_l_039.jpg,NA,NA,NA,NA,NA,pleasant,unpleasant,NA,NA,NA,NA,NA,none,0,false,NA,NA,NA,NA,NA,NA,NA,NA
7gN90a1c,3z8ujejod2q8a85trwhk37uqvoc39x,3dqq64tankysgdli97tlje1u2xowpa,7gN90a1c,2020-0188,2021-10-31,02:18:15,03:50:15,NA,incomplete,false,true,NA,NA,2,7,NA,yellow,m_l_051.jpg,NA,NA,NA,NA,NA,pleasant,unpleasant,NA,NA,NA,NA,NA,none,0,false,NA,NA,NA,NA,NA,NA,NA,NA
7gN90a1c,3z8ujejod2q8a85trwhk37uqvoc39x,3dqq64tankysgdli97tlje1u2xowpa,7gN90a1c,2020-0188,2021-10-31,02:18:15,03:50:15,NA,incomplete,false,true,NA,NA,2,8,NA,yellow,n_s_049.jpg,NA,NA,NA,NA,NA,unpleasant,pleasant,NA,NA,NA,NA,NA,none,0,false,NA,NA,NA,NA,NA,NA,NA,NA
7gN90a1c,3z8ujejod2q8a85trwhk37uqvoc39x,3dqq64tankysgdli97tlje1u2xowpa,7gN90a1c,2020-0188,2021-10-31,02:18:15,03:50:15,NA,incomplete,false,true,NA,NA,2,9,NA,yellow,m_s_040.jpg,NA,NA,NA,NA,NA,pleasant,unpleasant,NA,NA,NA,NA,NA,none,0,false,NA,NA,NA,NA,NA,NA,NA,NA
7gN90a1c,3z8ujejod2q8a85trwhk37uqvoc39x,3dqq64tankysgdli97tlje1u2xowpa,7gN90a1c,2020-0188,2021-10-31,02:18:15,03:50:15,NA,incomplete,false,true,NA,NA,2,10,NA,yellow,n_s_004.jpg,NA,NA,NA,NA,NA,unpleasant,pleasant,NA,NA,NA,NA,NA,none,0,false,NA,NA,NA,NA,NA,NA,NA,NA
7gN90a1c,3z8ujejod2q8a85trwhk37uqvoc39x,3dqq64tankysgdli97tlje1u2xowpa,7gN90a1c,2020-0188,2021-10-31,02:18:15,03:50:15,NA,incomplete,false,true,NA,NA,2,11,NA,yellow,m_l_113.jpg,NA,NA,NA,NA,NA,unpleasant,pleasant,NA,NA,NA,NA,NA,none,0,false,NA,NA,NA,NA,NA,NA,NA,NA
7gN90a1c,3z8ujejod2q8a85trwhk37uqvoc39x,3dqq64tankysgdli97tlje1u2xowpa,7gN90a1c,2020-0188,2021-10-31,02:18:15,03:50:15,NA,incomplete,false,true,NA,NA,2,12,NA,black,m_s_046.jpg,NA,NA,NA,NA,NA,unpleasant,pleasant,NA,NA,NA,NA,NA,none,0,false,NA,NA,NA,NA,NA,NA,NA,NA
7gN90a1c,3z8ujejod2q8a85trwhk37uqvoc39x,3dqq64tankysgdli97tlje1u2xowpa,7gN90a1c,2020-0188,2021-10-31,02:18:15,03:50:15,NA,incomplete,false,true,NA,NA,2,13,NA,black,m_l_069.jpg,NA,NA,NA,NA,NA,pleasant,unpleasant,NA,NA,NA,NA,NA,none,0,false,NA,NA,NA,NA,NA,NA,NA,NA
7gN90a1c,3z8ujejod2q8a85trwhk37uqvoc39x,3dqq64tankysgdli97tlje1u2xowpa,7gN90a1c,2020-0188,2021-10-31,02:18:15,03:50:15,NA,incomplete,false,true,NA,NA,2,14,NA,black,n_l_012.jpg,NA,NA,NA,NA,NA,unpleasant,pleasant,NA,NA,NA,NA,NA,none,0,false,NA,NA,NA,NA,NA,NA,NA,NA
7gN90a1c,3z8ujejod2q8a85trwhk37uqvoc39x,3dqq64tankysgdli97tlje1u2xowpa,7gN90a1c,2020-0188,2021-10-31,02:18:15,03:50:15,NA,incomplete,false,true,NA,NA,2,15,NA,black,m_s_091.jpg,NA,NA,NA,NA,NA,unpleasant,pleasant,NA,NA,NA,NA,NA,none,0,false,NA,NA,NA,NA,NA,NA,NA,NA
7gN90a1c,3z8ujejod2q8a85trwhk37uqvoc39x,3dqq64tankysgdli97tlje1u2xowpa,7gN90a1c,2020-0188,2021-10-31,02:18:15,03:50:15,NA,incomplete,false,true,NA,NA,2,16,NA,black,m_l_055.jpg,NA,NA,NA,NA,NA,unpleasant,pleasant,NA,NA,NA,NA,NA,none,0,false,NA,NA,NA,NA,NA,NA,NA,NA
7gN90a1c,3z8ujejod2q8a85trwhk37uqvoc39x,3dqq64tankysgdli97tlje1u2xowpa,7gN90a1c,2020-0188,2021-10-31,02:18:15,03:50:15,NA,incomplete,false,true,NA,NA,2,17,NA,black,m_s_103.jpg,NA,NA,NA,NA,NA,pleasant,unpleasant,NA,NA,NA,NA,NA,none,0,false,NA,NA,NA,NA,NA,NA,NA,NA
7gN90a1c,3z8ujejod2q8a85trwhk37uqvoc39x,3dqq64tankysgdli97tlje1u2xowpa,7gN90a1c,2020-0188,2021-10-31,02:18:15,03:50:15,NA,incomplete,false,true,NA,NA,2,18,NA,brown,n_l_010.jpg,NA,NA,NA,NA,NA,unpleasant,pleasant,NA,NA,NA,NA,NA,none,0,false,NA,NA,NA,NA,NA,NA,NA,NA
7gN90a1c,3z8ujejod2q8a85trwhk37uqvoc39x,3dqq64tankysgdli97tlje1u2xowpa,7gN90a1c,2020-0188,2021-10-31,02:18:15,03:50:15,NA,incomplete,false,true,NA,NA,2,19,NA,brown,n_l_084.jpg,NA,NA,NA,NA,NA,pleasant,unpleasant,NA,NA,NA,NA,NA,none,0,false,NA,NA,NA,NA,NA,NA,NA,NA
7gN90a1c,3z8ujejod2q8a85trwhk37uqvoc39x,3dqq64tankysgdli97tlje1u2xowpa,7gN90a1c,2020-0188,2021-10-31,02:18:15,03:50:15,NA,incomplete,false,true,NA,NA,2,20,NA,brown,n_s_061.jpg,NA,NA,NA,NA,NA,pleasant,unpleasant,NA,NA,NA,NA,NA,none,0,false,NA,NA,NA,NA,NA,NA,NA,NA
7gN90a1c,3z8ujejod2q8a85trwhk37uqvoc39x,3dqq64tankysgdli97tlje1u2xowpa,7gN90a1c,2020-0188,2021-10-31,02:18:15,03:50:15,NA,incomplete,false,true,NA,NA,2,21,NA,brown,m_s_066.jpg,NA,NA,NA,NA,NA,pleasant,unpleasant,NA,NA,NA,NA,NA,none,0,false,NA,NA,NA,NA,NA,NA,NA,NA
7gN90a1c,3z8ujejod2q8a85trwhk37uqvoc39x,3dqq64tankysgdli97tlje1u2xowpa,7gN90a1c,2020-0188,2021-10-31,02:18:15,03:50:15,NA,incomplete,false,true,NA,NA,2,22,NA,brown,m_l_011.jpg,NA,NA,NA,NA,NA,unpleasant,pleasant,NA,NA,NA,NA,NA,none,0,false,NA,NA,NA,NA,NA,NA,NA,NA
7gN90a1c,3z8ujejod2q8a85trwhk37uqvoc39x,3dqq64tankysgdli97tlje1u2xowpa,7gN90a1c,2020-0188,2021-10-31,02:18:15,03:50:15,NA,incomplete,false,true,NA,NA,2,23,NA,brown,n_s_041.jpg,NA,NA,NA,NA,NA,pleasant,unpleasant,NA,NA,NA,NA,NA,none,0,false,NA,NA,NA,NA,NA,NA,NA,NA
7gN90a1c,3z8ujejod2q8a85trwhk37uqvoc39x,3dqq64tankysgdli97tlje1u2xowpa,7gN90a1c,2020-0188,2021-10-31,02:18:15,03:50:15,NA,incomplete,false,true,NA,NA,2,24,NA,blue,n_l_070.jpg,NA,NA,NA,NA,NA,unpleasant,pleasant,NA,NA,NA,NA,NA,none,0,false,NA,NA,NA,NA,NA,NA,NA,NA
7gN90a1c,3z8ujejod2q8a85trwhk37uqvoc39x,3dqq64tankysgdli97tlje1u2xowpa,7gN90a1c,2020-0188,2021-10-31,02:18:15,03:50:15,NA,incomplete,false,true,NA,NA,2,25,NA,blue,n_s_034.jpg,NA,NA,NA,NA,NA,pleasant,unpleasant,NA,NA,NA,NA,NA,none,0,false,NA,NA,NA,NA,NA,NA,NA,NA
7gN90a1c,3z8ujejod2q8a85trwhk37uqvoc39x,3dqq64tankysgdli97tlje1u2xowpa,7gN90a1c,2020-0188,2021-10-31,02:18:15,03:50:15,NA,incomplete,false,true,NA,NA,2,26,NA,blue,m_s_093.jpg,NA,NA,NA,NA,NA,pleasant,unpleasant,NA,NA,NA,NA,NA,none,0,false,NA,NA,NA,NA,NA,NA,NA,NA
7gN90a1c,3z8ujejod2q8a85trwhk37uqvoc39x,3dqq64tankysgdli97tlje1u2xowpa,7gN90a1c,2020-0188,2021-10-31,02:18:15,03:50:15,NA,incomplete,false,true,NA,NA,2,27,NA,blue,m_s_088.jpg,NA,NA,NA,NA,NA,unpleasant,pleasant,NA,NA,NA,NA,NA,none,0,false,NA,NA,NA,NA,NA,NA,NA,NA
7gN90a1c,3z8ujejod2q8a85trwhk37uqvoc39x,3dqq64tankysgdli97tlje1u2xowpa,7gN90a1c,2020-0188,2021-10-31,02:18:15,03:50:15,NA,incomplete,false,true,NA,NA,2,28,NA,blue,n_l_020.jpg,NA,NA,NA,NA,NA,pleasant,unpleasant,NA,NA,NA,NA,NA,none,0,false,NA,NA,NA,NA,NA,NA,NA,NA
7gN90a1c,3z8ujejod2q8a85trwhk37uqvoc39x,3dqq64tankysgdli97tlje1u2xowpa,7gN90a1c,2020-0188,2021-10-31,02:18:15,03:50:15,NA,incomplete,false,true,NA,NA,2,29,NA,blue,n_l_060.jpg,NA,NA,NA,NA,NA,unpleasant,pleasant,NA,NA,NA,NA,NA,none,0,false,NA,NA,NA,NA,NA,NA,NA,NA
7gN90a1c,3z8ujejod2q8a85trwhk37uqvoc39x,3dqq64tankysgdli97tlje1u2xowpa,7gN90a1c,2020-0188,2021-10-31,02:18:15,03:50:15,NA,incomplete,false,true,NA,NA,2,30,NA,green,n_s_051.jpg,NA,NA,NA,NA,NA,pleasant,unpleasant,NA,NA,NA,NA,NA,none,0,false,NA,NA,NA,NA,NA,NA,NA,NA
7gN90a1c,3z8ujejod2q8a85trwhk37uqvoc39x,3dqq64tankysgdli97tlje1u2xowpa,7gN90a1c,2020-0188,2021-10-31,02:18:15,03:50:15,NA,incomplete,false,true,NA,NA,2,31,NA,green,m_s_096.jpg,NA,NA,NA,NA,NA,pleasant,unpleasant,NA,NA,NA,NA,NA,none,0,false,NA,NA,NA,NA,NA,NA,NA,NA
7gN90a1c,3z8ujejod2q8a85trwhk37uqvoc39x,3dqq64tankysgdli97tlje1u2xowpa,7gN90a1c,2020-0188,2021-10-31,02:18:15,03:50:15,NA,incomplete,false,true,NA,NA,2,32,NA,green,m_l_106.jpg,NA,NA,NA,NA,NA,unpleasant,pleasant,NA,NA,NA,NA,NA,none,0,false,NA,NA,NA,NA,NA,NA,NA,NA
7gN90a1c,3z8ujejod2q8a85trwhk37uqvoc39x,3dqq64tankysgdli97tlje1u2xowpa,7gN90a1c,2020-0188,2021-10-31,02:18:15,03:50:15,NA,incomplete,false,true,NA,NA,2,33,NA,green,m_l_036.jpg,NA,NA,NA,NA,NA,pleasant,unpleasant,NA,NA,NA,NA,NA,none,0,false,NA,NA,NA,NA,NA,NA,NA,NA
7gN90a1c,3z8ujejod2q8a85trwhk37uqvoc39x,3dqq64tankysgdli97tlje1u2xowpa,7gN90a1c,2020-0188,2021-10-31,02:18:15,03:50:15,NA,incomplete,false,true,NA,NA,2,34,NA,green,m_s_090.jpg,NA,NA,NA,NA,NA,unpleasant,pleasant,NA,NA,NA,NA,NA,none,0,false,NA,NA,NA,NA,NA,NA,NA,NA
7gN90a1c,3z8ujejod2q8a85trwhk37uqvoc39x,3dqq64tankysgdli97tlje1u2xowpa,7gN90a1c,2020-0188,2021-10-31,02:18:15,03:50:15,NA,incomplete,false,true,NA,NA,2,35,NA,green,m_l_080.jpg,NA,NA,NA,NA,NA,pleasant,unpleasant,NA,NA,NA,NA,NA,none,0,false,NA,NA,NA,NA,NA,NA,NA,NA
7gN90a1c,3z8ujejod2q8a85trwhk37uqvoc39x,3dqq64tankysgdli97tlje1u2xowpa,7gN90a1c,2020-0188,2021-10-31,02:18:15,03:50:15,NA,incomplete,false,NA,NA,true,2,0,NA,NA,NA,right,m_l_055.jpg,brown,black,NA,NA,NA,NA,NA,NA,NA,NA,NA,NaN,NA,20148.39999985695,left,0,NA,NA,NA,NA,NA
7gN90a1c,3z8ujejod2q8a85trwhk37uqvoc39x,3dqq64tankysgdli97tlje1u2xowpa,7gN90a1c,2020-0188,2021-10-31,02:18:15,03:50:15,NA,incomplete,false,NA,NA,true,2,1,NA,NA,NA,left,m_s_096.jpg,green,blue,NA,NA,NA,NA,NA,NA,NA,NA,NA,NaN,NA,5758.5,left,1,NA,NA,NA,NA,NA
7gN90a1c,3z8ujejod2q8a85trwhk37uqvoc39x,3dqq64tankysgdli97tlje1u2xowpa,7gN90a1c,2020-0188,2021-10-31,02:18:15,03:50:15,NA,incomplete,false,NA,NA,true,2,2,NA,NA,NA,right,n_s_061.jpg,black,brown,NA,NA,NA,NA,NA,NA,NA,NA,NA,NaN,NA,3244.300000190735,right,1,NA,NA,NA,NA,NA
7gN90a1c,3z8ujejod2q8a85trwhk37uqvoc39x,3dqq64tankysgdli97tlje1u2xowpa,7gN90a1c,2020-0188,2021-10-31,02:18:15,03:50:15,NA,incomplete,false,NA,NA,true,2,3,NA,NA,NA,right,n_s_049.jpg,black,yellow,NA,NA,NA,NA,NA,NA,NA,NA,NA,NaN,NA,12723.799999952316,right,1,NA,NA,NA,NA,NA
7gN90a1c,3z8ujejod2q8a85trwhk37uqvoc39x,3dqq64tankysgdli97tlje1u2xowpa,7gN90a1c,2020-0188,2021-10-31,02:18:15,03:50:15,NA,incomplete,false,NA,NA,true,2,4,NA,NA,NA,right,n_s_004.jpg,gray,yellow,NA,NA,NA,NA,NA,NA,NA,NA,NA,NaN,NA,8423.799999952316,left,0,NA,NA,NA,NA,NA
7gN90a1c,3z8ujejod2q8a85trwhk37uqvoc39x,3dqq64tankysgdli97tlje1u2xowpa,7gN90a1c,2020-0188,2021-10-31,02:18:15,03:50:15,NA,incomplete,false,NA,NA,true,2,5,NA,NA,NA,left,n_l_060.jpg,blue,brown,NA,NA,NA,NA,NA,NA,NA,NA,NA,NaN,NA,3808.2000000476837,left,1,NA,NA,NA,NA,NA
7gN90a1c,3z8ujejod2q8a85trwhk37uqvoc39x,3dqq64tankysgdli97tlje1u2xowpa,7gN90a1c,2020-0188,2021-10-31,02:18:15,03:50:15,NA,incomplete,false,NA,NA,true,2,6,NA,NA,NA,right,m_l_051.jpg,black,yellow,NA,NA,NA,NA,NA,NA,NA,NA,NA,NaN,NA,6538.700000047684,right,1,NA,NA,NA,NA,NA
7gN90a1c,3z8ujejod2q8a85trwhk37uqvoc39x,3dqq64tankysgdli97tlje1u2xowpa,7gN90a1c,2020-0188,2021-10-31,02:18:15,03:50:15,NA,incomplete,false,NA,NA,true,2,7,NA,NA,NA,right,m_l_069.jpg,brown,black,NA,NA,NA,NA,NA,NA,NA,NA,NA,NaN,NA,4849.200000047684,right,1,NA,NA,NA,NA,NA
7gN90a1c,3z8ujejod2q8a85trwhk37uqvoc39x,3dqq64tankysgdli97tlje1u2xowpa,7gN90a1c,2020-0188,2021-10-31,02:18:15,03:50:15,NA,incomplete,false,NA,NA,true,2,8,NA,NA,NA,right,m_l_106.jpg,blue,green,NA,NA,NA,NA,NA,NA,NA,NA,NA,NaN,NA,3483.899999856949,right,1,NA,NA,NA,NA,NA
7gN90a1c,3z8ujejod2q8a85trwhk37uqvoc39x,3dqq64tankysgdli97tlje1u2xowpa,7gN90a1c,2020-0188,2021-10-31,02:18:15,03:50:15,NA,incomplete,false,NA,NA,true,2,9,NA,NA,NA,left,n_l_046.jpg,gray,yellow,NA,NA,NA,NA,NA,NA,NA,NA,NA,NaN,NA,1723,left,1,NA,NA,NA,NA,NA
7gN90a1c,3z8ujejod2q8a85trwhk37uqvoc39x,3dqq64tankysgdli97tlje1u2xowpa,7gN90a1c,2020-0188,2021-10-31,02:18:15,03:50:15,NA,incomplete,false,NA,NA,true,2,10,NA,NA,NA,left,m_l_113.jpg,yellow,gray,NA,NA,NA,NA,NA,NA,NA,NA,NA,NaN,NA,6693.700000047684,left,1,NA,NA,NA,NA,NA
7gN90a1c,3z8ujejod2q8a85trwhk37uqvoc39x,3dqq64tankysgdli97tlje1u2xowpa,7gN90a1c,2020-0188,2021-10-31,02:18:15,03:50:15,NA,incomplete,false,NA,NA,true,2,11,NA,NA,NA,left,n_l_020.jpg,blue,green,NA,NA,NA,NA,NA,NA,NA,NA,NA,NaN,NA,5548.800000190735,right,0,NA,NA,NA,NA,NA
7gN90a1c,3z8ujejod2q8a85trwhk37uqvoc39x,3dqq64tankysgdli97tlje1u2xowpa,7gN90a1c,2020-0188,2021-10-31,02:18:15,03:50:15,NA,incomplete,false,NA,NA,true,2,12,NA,NA,NA,left,m_l_011.jpg,brown,black,NA,NA,NA,NA,NA,NA,NA,NA,NA,NaN,NA,2799.2000000476837,left,1,NA,NA,NA,NA,NA
7gN90a1c,3z8ujejod2q8a85trwhk37uqvoc39x,3dqq64tankysgdli97tlje1u2xowpa,7gN90a1c,2020-0188,2021-10-31,02:18:15,03:50:15,NA,incomplete,false,NA,NA,true,2,13,NA,NA,NA,left,n_l_084.jpg,brown,blue,NA,NA,NA,NA,NA,NA,NA,NA,NA,NaN,NA,3089.2000000476837,right,0,NA,NA,NA,NA,NA
7gN90a1c,3z8ujejod2q8a85trwhk37uqvoc39x,3dqq64tankysgdli97tlje1u2xowpa,7gN90a1c,2020-0188,2021-10-31,02:18:15,03:50:15,NA,incomplete,false,NA,NA,true,2,14,NA,NA,NA,right,n_s_041.jpg,blue,brown,NA,NA,NA,NA,NA,NA,NA,NA,NA,NaN,NA,1444.1000001430511,right,1,NA,NA,NA,NA,NA
7gN90a1c,3z8ujejod2q8a85trwhk37uqvoc39x,3dqq64tankysgdli97tlje1u2xowpa,7gN90a1c,2020-0188,2021-10-31,02:18:15,03:50:15,NA,incomplete,false,NA,NA,true,2,15,NA,NA,NA,left,n_l_012.jpg,black,yellow,NA,NA,NA,NA,NA,NA,NA,NA,NA,NaN,NA,978.7000000476837,left,1,NA,NA,NA,NA,NA
7gN90a1c,3z8ujejod2q8a85trwhk37uqvoc39x,3dqq64tankysgdli97tlje1u2xowpa,7gN90a1c,2020-0188,2021-10-31,02:18:15,03:50:15,NA,incomplete,false,NA,NA,true,2,16,NA,NA,NA,right,m_s_030.jpg,yellow,gray,NA,NA,NA,NA,NA,NA,NA,NA,NA,NaN,NA,929.2000000476837,right,1,NA,NA,NA,NA,NA
7gN90a1c,3z8ujejod2q8a85trwhk37uqvoc39x,3dqq64tankysgdli97tlje1u2xowpa,7gN90a1c,2020-0188,2021-10-31,02:18:15,03:50:15,NA,incomplete,false,NA,NA,true,2,17,NA,NA,NA,left,m_s_093.jpg,blue,brown,NA,NA,NA,NA,NA,NA,NA,NA,NA,NaN,NA,1159.0999999046326,left,1,NA,NA,NA,NA,NA
7gN90a1c,3z8ujejod2q8a85trwhk37uqvoc39x,3dqq64tankysgdli97tlje1u2xowpa,7gN90a1c,2020-0188,2021-10-31,02:18:15,03:50:15,NA,incomplete,false,NA,NA,true,2,18,NA,NA,NA,right,m_l_080.jpg,blue,green,NA,NA,NA,NA,NA,NA,NA,NA,NA,NaN,NA,1203.6000001430511,right,1,NA,NA,NA,NA,NA
7gN90a1c,3z8ujejod2q8a85trwhk37uqvoc39x,3dqq64tankysgdli97tlje1u2xowpa,7gN90a1c,2020-0188,2021-10-31,02:18:15,03:50:15,NA,incomplete,false,NA,NA,true,2,19,NA,NA,NA,left,m_s_103.jpg,black,yellow,NA,NA,NA,NA,NA,NA,NA,NA,NA,NaN,NA,944.2999999523163,left,1,NA,NA,NA,NA,NA
7gN90a1c,3z8ujejod2q8a85trwhk37uqvoc39x,3dqq64tankysgdli97tlje1u2xowpa,7gN90a1c,2020-0188,2021-10-31,02:18:15,03:50:15,NA,incomplete,false,NA,NA,true,2,20,NA,NA,NA,left,n_s_008.jpg,gray,yellow,NA,NA,NA,NA,NA,NA,NA,NA,NA,NaN,NA,923.8999998569489,right,0,NA,NA,NA,NA,NA
7gN90a1c,3z8ujejod2q8a85trwhk37uqvoc39x,3dqq64tankysgdli97tlje1u2xowpa,7gN90a1c,2020-0188,2021-10-31,02:18:15,03:50:15,NA,incomplete,false,NA,NA,true,2,21,NA,NA,NA,left,n_s_034.jpg,blue,green,NA,NA,NA,NA,NA,NA,NA,NA,NA,NaN,NA,3643.5999999046326,right,0,NA,NA,NA,NA,NA
7gN90a1c,3z8ujejod2q8a85trwhk37uqvoc39x,3dqq64tankysgdli97tlje1u2xowpa,7gN90a1c,2020-0188,2021-10-31,02:18:15,03:50:15,NA,incomplete,false,NA,true,NA,2,0,NA,NA,NA,left,NA,NA,NA,present,NA,NA,m_l_055.jpg,black,n_s_061.jpg,brown,between,NA,NaN,NA,NA,NA,NA,left,10547,1,1,1912.8000001907349
7gN90a1c,3z8ujejod2q8a85trwhk37uqvoc39x,3dqq64tankysgdli97tlje1u2xowpa,7gN90a1c,2020-0188,2021-10-31,02:18:15,03:50:15,NA,incomplete,false,NA,true,NA,2,1,NA,NA,NA,left,NA,NA,NA,present,NA,NA,m_l_069.jpg,black,m_s_103.jpg,black,within,NA,NaN,NA,NA,NA,NA,left,11696.799999952316,1,0,1582.2000000476837
7gN90a1c,3z8ujejod2q8a85trwhk37uqvoc39x,3dqq64tankysgdli97tlje1u2xowpa,7gN90a1c,2020-0188,2021-10-31,02:18:15,03:50:15,NA,incomplete,false,NA,true,NA,2,2,NA,NA,NA,right,NA,NA,NA,present,NA,NA,n_s_041.jpg,brown,n_l_084.jpg,brown,within,NA,NaN,NA,NA,NA,NA,right,18722,1,0,1982.6999998092651
7gN90a1c,3z8ujejod2q8a85trwhk37uqvoc39x,3dqq64tankysgdli97tlje1u2xowpa,7gN90a1c,2020-0188,2021-10-31,02:18:15,03:50:15,NA,incomplete,false,NA,true,NA,2,3,NA,NA,NA,right,NA,NA,NA,present,NA,NA,n_l_060.jpg,blue,n_s_034.jpg,blue,within,NA,NaN,NA,NA,NA,NA,right,9172.400000095367,1,1,2432.0999999046326
7gN90a1c,3z8ujejod2q8a85trwhk37uqvoc39x,3dqq64tankysgdli97tlje1u2xowpa,7gN90a1c,2020-0188,2021-10-31,02:18:15,03:50:15,NA,incomplete,false,NA,true,NA,2,4,NA,NA,NA,right,NA,NA,NA,present,NA,NA,m_l_080.jpg,green,m_s_096.jpg,green,within,NA,NaN,NA,NA,NA,NA,right,18957,1,1,1957.3999998569489
7gN90a1c,3z8ujejod2q8a85trwhk37uqvoc39x,3dqq64tankysgdli97tlje1u2xowpa,7gN90a1c,2020-0188,2021-10-31,02:18:15,03:50:15,NA,incomplete,false,NA,true,NA,2,5,NA,NA,NA,right,NA,NA,NA,present,NA,NA,m_s_093.jpg,blue,m_l_011.jpg,brown,between,NA,NaN,NA,NA,NA,NA,left,6037.599999904633,0,1,2172.4000000953674
7gN90a1c,3z8ujejod2q8a85trwhk37uqvoc39x,3dqq64tankysgdli97tlje1u2xowpa,7gN90a1c,2020-0188,2021-10-31,02:18:15,03:50:15,NA,incomplete,false,NA,true,NA,2,6,NA,NA,NA,right,NA,NA,NA,present,NA,NA,n_s_008.jpg,gray,m_s_030.jpg,gray,within,NA,NaN,NA,NA,NA,NA,right,9422.200000047684,1,0,2037.4000000953674
7gN90a1c,3z8ujejod2q8a85trwhk37uqvoc39x,3dqq64tankysgdli97tlje1u2xowpa,7gN90a1c,2020-0188,2021-10-31,02:18:15,03:50:15,NA,incomplete,false,NA,true,NA,2,7,NA,NA,NA,left,NA,NA,NA,present,NA,NA,n_s_004.jpg,yellow,n_l_012.jpg,black,between,NA,NaN,NA,NA,NA,NA,right,5477.299999952316,0,1,1907.2000000476837
7gN90a1c,3z8ujejod2q8a85trwhk37uqvoc39x,3dqq64tankysgdli97tlje1u2xowpa,7gN90a1c,2020-0188,2021-10-31,02:18:15,03:50:15,NA,incomplete,false,NA,true,NA,2,8,NA,NA,NA,left,NA,NA,NA,present,NA,NA,n_l_020.jpg,blue,m_l_106.jpg,green,between,NA,NaN,NA,NA,NA,NA,left,9432.300000190735,1,1,2037.2000000476837
7gN90a1c,3z8ujejod2q8a85trwhk37uqvoc39x,3dqq64tankysgdli97tlje1u2xowpa,7gN90a1c,2020-0188,2021-10-31,02:18:15,03:50:15,NA,incomplete,false,NA,true,NA,2,9,NA,NA,NA,left,NA,NA,NA,present,NA,NA,n_l_046.jpg,gray,n_s_049.jpg,yellow,between,NA,NaN,NA,NA,NA,NA,left,5652.199999809265,1,0,1462.4000000953674
7gN90a1c,3z8ujejod2q8a85trwhk37uqvoc39x,3dqq64tankysgdli97tlje1u2xowpa,7gN90a1c,2020-0188,2021-10-31,02:18:15,03:50:15,NA,incomplete,false,NA,true,NA,2,10,NA,NA,NA,right,NA,NA,NA,present,NA,NA,m_l_113.jpg,yellow,m_l_051.jpg,yellow,within,NA,NaN,NA,NA,NA,NA,right,3702.2000000476837,1,1,13058.299999952316
7gN90a1c,3z8ujejod2q8a85trwhk37uqvoc39x,3dqq64tankysgdli97tlje1u2xowpa,7gN90a1c,2020-0188,2021-10-31,02:18:15,03:50:15,NA,incomplete,false,true,NA,NA,3,0,NA,black,m_l_105.jpg,NA,NA,NA,NA,NA,unpleasant,pleasant,NA,NA,NA,NA,NA,right,901.400000095367,true,NA,NA,NA,NA,NA,NA,NA,NA
7gN90a1c,3z8ujejod2q8a85trwhk37uqvoc39x,3dqq64tankysgdli97tlje1u2xowpa,7gN90a1c,2020-0188,2021-10-31,02:18:15,03:50:15,NA,incomplete,false,true,NA,NA,3,1,NA,black,n_l_067.jpg,NA,NA,NA,NA,NA,pleasant,unpleasant,NA,NA,NA,NA,NA,right,250,true,NA,NA,NA,NA,NA,NA,NA,NA
7gN90a1c,3z8ujejod2q8a85trwhk37uqvoc39x,3dqq64tankysgdli97tlje1u2xowpa,7gN90a1c,2020-0188,2021-10-31,02:18:15,03:50:15,NA,incomplete,false,true,NA,NA,3,2,NA,black,n_s_067.jpg,NA,NA,NA,NA,NA,pleasant,unpleasant,NA,NA,NA,NA,NA,right,475.299999952316,true,NA,NA,NA,NA,NA,NA,NA,NA
7gN90a1c,3z8ujejod2q8a85trwhk37uqvoc39x,3dqq64tankysgdli97tlje1u2xowpa,7gN90a1c,2020-0188,2021-10-31,02:18:15,03:50:15,NA,incomplete,false,true,NA,NA,3,3,NA,black,n_l_111.jpg,NA,NA,NA,NA,NA,pleasant,unpleasant,NA,NA,NA,NA,NA,right,118.799999952316,true,NA,NA,NA,NA,NA,NA,NA,NA
7gN90a1c,3z8ujejod2q8a85trwhk37uqvoc39x,3dqq64tankysgdli97tlje1u2xowpa,7gN90a1c,2020-0188,2021-10-31,02:18:15,03:50:15,NA,incomplete,false,true,NA,NA,3,4,NA,black,n_s_014.jpg,NA,NA,NA,NA,NA,unpleasant,pleasant,NA,NA,NA,NA,NA,right,160.400000095367,true,NA,NA,NA,NA,NA,NA,NA,NA
7gN90a1c,3z8ujejod2q8a85trwhk37uqvoc39x,3dqq64tankysgdli97tlje1u2xowpa,7gN90a1c,2020-0188,2021-10-31,02:18:15,03:50:15,NA,incomplete,false,true,NA,NA,3,5,NA,black,n_l_019.jpg,NA,NA,NA,NA,NA,pleasant,unpleasant,NA,NA,NA,NA,NA,right,60.5,true,NA,NA,NA,NA,NA,NA,NA,NA
7gN90a1c,3z8ujejod2q8a85trwhk37uqvoc39x,3dqq64tankysgdli97tlje1u2xowpa,7gN90a1c,2020-0188,2021-10-31,02:18:15,03:50:15,NA,incomplete,false,true,NA,NA,3,6,NA,gray,m_s_012.jpg,NA,NA,NA,NA,NA,pleasant,unpleasant,NA,NA,NA,NA,NA,right,112.900000095367,true,NA,NA,NA,NA,NA,NA,NA,NA
7gN90a1c,3z8ujejod2q8a85trwhk37uqvoc39x,3dqq64tankysgdli97tlje1u2xowpa,7gN90a1c,2020-0188,2021-10-31,02:18:15,03:50:15,NA,incomplete,false,true,NA,NA,3,7,NA,gray,m_l_075.jpg,NA,NA,NA,NA,NA,unpleasant,pleasant,NA,NA,NA,NA,NA,right,32.5,true,NA,NA,NA,NA,NA,NA,NA,NA
7gN90a1c,3z8ujejod2q8a85trwhk37uqvoc39x,3dqq64tankysgdli97tlje1u2xowpa,7gN90a1c,2020-0188,2021-10-31,02:18:15,03:50:15,NA,incomplete,false,true,NA,NA,3,8,NA,gray,m_l_001.jpg,NA,NA,NA,NA,NA,pleasant,unpleasant,NA,NA,NA,NA,NA,right,170.700000047684,true,NA,NA,NA,NA,NA,NA,NA,NA
7gN90a1c,3z8ujejod2q8a85trwhk37uqvoc39x,3dqq64tankysgdli97tlje1u2xowpa,7gN90a1c,2020-0188,2021-10-31,02:18:15,03:50:15,NA,incomplete,false,true,NA,NA,3,9,NA,gray,m_l_023.jpg,NA,NA,NA,NA,NA,pleasant,unpleasant,NA,NA,NA,NA,NA,right,316.5,true,NA,NA,NA,NA,NA,NA,NA,NA
7gN90a1c,3z8ujejod2q8a85trwhk37uqvoc39x,3dqq64tankysgdli97tlje1u2xowpa,7gN90a1c,2020-0188,2021-10-31,02:18:15,03:50:15,NA,incomplete,false,true,NA,NA,3,10,NA,gray,n_s_028.jpg,NA,NA,NA,NA,NA,pleasant,unpleasant,NA,NA,NA,NA,NA,right,116.199999809265,true,NA,NA,NA,NA,NA,NA,NA,NA
7gN90a1c,3z8ujejod2q8a85trwhk37uqvoc39x,3dqq64tankysgdli97tlje1u2xowpa,7gN90a1c,2020-0188,2021-10-31,02:18:15,03:50:15,NA,incomplete,false,true,NA,NA,3,11,NA,gray,m_s_060.jpg,NA,NA,NA,NA,NA,unpleasant,pleasant,NA,NA,NA,NA,NA,right,43.8999998569489,true,NA,NA,NA,NA,NA,NA,NA,NA
7gN90a1c,3z8ujejod2q8a85trwhk37uqvoc39x,3dqq64tankysgdli97tlje1u2xowpa,7gN90a1c,2020-0188,2021-10-31,02:18:15,03:50:15,NA,incomplete,false,true,NA,NA,3,12,NA,orange,m_l_035.jpg,NA,NA,NA,NA,NA,pleasant,unpleasant,NA,NA,NA,NA,NA,right,75.0999999046326,true,NA,NA,NA,NA,NA,NA,NA,NA
7gN90a1c,3z8ujejod2q8a85trwhk37uqvoc39x,3dqq64tankysgdli97tlje1u2xowpa,7gN90a1c,2020-0188,2021-10-31,02:18:15,03:50:15,NA,incomplete,false,true,NA,NA,3,13,NA,orange,n_l_050.jpg,NA,NA,NA,NA,NA,pleasant,unpleasant,NA,NA,NA,NA,NA,right,371.300000190735,true,NA,NA,NA,NA,NA,NA,NA,NA
7gN90a1c,3z8ujejod2q8a85trwhk37uqvoc39x,3dqq64tankysgdli97tlje1u2xowpa,7gN90a1c,2020-0188,2021-10-31,02:18:15,03:50:15,NA,incomplete,false,true,NA,NA,3,14,NA,orange,m_s_100.jpg,NA,NA,NA,NA,NA,unpleasant,pleasant,NA,NA,NA,NA,NA,right,181.700000047684,true,NA,NA,NA,NA,NA,NA,NA,NA
7gN90a1c,3z8ujejod2q8a85trwhk37uqvoc39x,3dqq64tankysgdli97tlje1u2xowpa,7gN90a1c,2020-0188,2021-10-31,02:18:15,03:50:15,NA,incomplete,false,true,NA,NA,3,15,NA,orange,n_s_006.jpg,NA,NA,NA,NA,NA,pleasant,unpleasant,NA,NA,NA,NA,NA,right,65.2000000476837,true,NA,NA,NA,NA,NA,NA,NA,NA
7gN90a1c,3z8ujejod2q8a85trwhk37uqvoc39x,3dqq64tankysgdli97tlje1u2xowpa,7gN90a1c,2020-0188,2021-10-31,02:18:15,03:50:15,NA,incomplete,false,true,NA,NA,3,16,NA,orange,m_s_075.jpg,NA,NA,NA,NA,NA,pleasant,unpleasant,NA,NA,NA,NA,NA,right,174.600000143051,true,NA,NA,NA,NA,NA,NA,NA,NA
7gN90a1c,3z8ujejod2q8a85trwhk37uqvoc39x,3dqq64tankysgdli97tlje1u2xowpa,7gN90a1c,2020-0188,2021-10-31,02:18:15,03:50:15,NA,incomplete,false,true,NA,NA,3,17,NA,orange,n_s_075.jpg,NA,NA,NA,NA,NA,unpleasant,pleasant,NA,NA,NA,NA,NA,right,223.700000047684,true,NA,NA,NA,NA,NA,NA,NA,NA
7gN90a1c,3z8ujejod2q8a85trwhk37uqvoc39x,3dqq64tankysgdli97tlje1u2xowpa,7gN90a1c,2020-0188,2021-10-31,02:18:15,03:50:15,NA,incomplete,false,true,NA,NA,3,18,NA,white,n_s_083.jpg,NA,NA,NA,NA,NA,unpleasant,pleasant,NA,NA,NA,NA,NA,right,195.200000047684,true,NA,NA,NA,NA,NA,NA,NA,NA
7gN90a1c,3z8ujejod2q8a85trwhk37uqvoc39x,3dqq64tankysgdli97tlje1u2xowpa,7gN90a1c,2020-0188,2021-10-31,02:18:15,03:50:15,NA,incomplete,false,true,NA,NA,3,19,NA,white,m_l_098.jpg,NA,NA,NA,NA,NA,pleasant,unpleasant,NA,NA,NA,NA,NA,right,258.5,true,NA,NA,NA,NA,NA,NA,NA,NA
7gN90a1c,3z8ujejod2q8a85trwhk37uqvoc39x,3dqq64tankysgdli97tlje1u2xowpa,7gN90a1c,2020-0188,2021-10-31,02:18:15,03:50:15,NA,incomplete,false,true,NA,NA,3,20,NA,white,m_l_041.jpg,NA,NA,NA,NA,NA,unpleasant,pleasant,NA,NA,NA,NA,NA,right,119.099999904633,true,NA,NA,NA,NA,NA,NA,NA,NA
7gN90a1c,3z8ujejod2q8a85trwhk37uqvoc39x,3dqq64tankysgdli97tlje1u2xowpa,7gN90a1c,2020-0188,2021-10-31,02:18:15,03:50:15,NA,incomplete,false,true,NA,NA,3,21,NA,white,m_s_029.jpg,NA,NA,NA,NA,NA,unpleasant,pleasant,NA,NA,NA,NA,NA,right,289.400000095367,true,NA,NA,NA,NA,NA,NA,NA,NA
7gN90a1c,3z8ujejod2q8a85trwhk37uqvoc39x,3dqq64tankysgdli97tlje1u2xowpa,7gN90a1c,2020-0188,2021-10-31,02:18:15,03:50:15,NA,incomplete,false,true,NA,NA,3,22,NA,white,n_l_048.jpg,NA,NA,NA,NA,NA,unpleasant,pleasant,NA,NA,NA,NA,NA,none,0,false,NA,NA,NA,NA,NA,NA,NA,NA
7gN90a1c,3z8ujejod2q8a85trwhk37uqvoc39x,3dqq64tankysgdli97tlje1u2xowpa,7gN90a1c,2020-0188,2021-10-31,02:18:15,03:50:15,NA,incomplete,false,true,NA,NA,3,23,NA,white,n_l_040.jpg,NA,NA,NA,NA,NA,pleasant,unpleasant,NA,NA,NA,NA,NA,none,0,false,NA,NA,NA,NA,NA,NA,NA,NA
7gN90a1c,3z8ujejod2q8a85trwhk37uqvoc39x,3dqq64tankysgdli97tlje1u2xowpa,7gN90a1c,2020-0188,2021-10-31,02:18:15,03:50:15,NA,incomplete,false,true,NA,NA,3,24,NA,green,n_l_043.jpg,NA,NA,NA,NA,NA,unpleasant,pleasant,NA,NA,NA,NA,NA,none,0,false,NA,NA,NA,NA,NA,NA,NA,NA
7gN90a1c,3z8ujejod2q8a85trwhk37uqvoc39x,3dqq64tankysgdli97tlje1u2xowpa,7gN90a1c,2020-0188,2021-10-31,02:18:15,03:50:15,NA,incomplete,false,true,NA,NA,3,25,NA,green,n_l_099.jpg,NA,NA,NA,NA,NA,pleasant,unpleasant,NA,NA,NA,NA,NA,none,0,false,NA,NA,NA,NA,NA,NA,NA,NA
7gN90a1c,3z8ujejod2q8a85trwhk37uqvoc39x,3dqq64tankysgdli97tlje1u2xowpa,7gN90a1c,2020-0188,2021-10-31,02:18:15,03:50:15,NA,incomplete,false,true,NA,NA,3,26,NA,green,n_l_107.jpg,NA,NA,NA,NA,NA,unpleasant,pleasant,NA,NA,NA,NA,NA,none,0,false,NA,NA,NA,NA,NA,NA,NA,NA
7gN90a1c,3z8ujejod2q8a85trwhk37uqvoc39x,3dqq64tankysgdli97tlje1u2xowpa,7gN90a1c,2020-0188,2021-10-31,02:18:15,03:50:15,NA,incomplete,false,true,NA,NA,3,27,NA,green,m_s_112.jpg,NA,NA,NA,NA,NA,unpleasant,pleasant,NA,NA,NA,NA,NA,none,0,false,NA,NA,NA,NA,NA,NA,NA,NA
7gN90a1c,3z8ujejod2q8a85trwhk37uqvoc39x,3dqq64tankysgdli97tlje1u2xowpa,7gN90a1c,2020-0188,2021-10-31,02:18:15,03:50:15,NA,incomplete,false,true,NA,NA,3,28,NA,green,n_l_035.jpg,NA,NA,NA,NA,NA,pleasant,unpleasant,NA,NA,NA,NA,NA,none,0,false,NA,NA,NA,NA,NA,NA,NA,NA
7gN90a1c,3z8ujejod2q8a85trwhk37uqvoc39x,3dqq64tankysgdli97tlje1u2xowpa,7gN90a1c,2020-0188,2021-10-31,02:18:15,03:50:15,NA,incomplete,false,true,NA,NA,3,29,NA,green,m_l_108.jpg,NA,NA,NA,NA,NA,unpleasant,pleasant,NA,NA,NA,NA,NA,none,0,false,NA,NA,NA,NA,NA,NA,NA,NA
7gN90a1c,3z8ujejod2q8a85trwhk37uqvoc39x,3dqq64tankysgdli97tlje1u2xowpa,7gN90a1c,2020-0188,2021-10-31,02:18:15,03:50:15,NA,incomplete,false,true,NA,NA,3,30,NA,blue,n_s_030.jpg,NA,NA,NA,NA,NA,pleasant,unpleasant,NA,NA,NA,NA,NA,none,0,false,NA,NA,NA,NA,NA,NA,NA,NA
7gN90a1c,3z8ujejod2q8a85trwhk37uqvoc39x,3dqq64tankysgdli97tlje1u2xowpa,7gN90a1c,2020-0188,2021-10-31,02:18:15,03:50:15,NA,incomplete,false,true,NA,NA,3,31,NA,blue,n_l_076.jpg,NA,NA,NA,NA,NA,pleasant,unpleasant,NA,NA,NA,NA,NA,none,0,false,NA,NA,NA,NA,NA,NA,NA,NA
7gN90a1c,3z8ujejod2q8a85trwhk37uqvoc39x,3dqq64tankysgdli97tlje1u2xowpa,7gN90a1c,2020-0188,2021-10-31,02:18:15,03:50:15,NA,incomplete,false,true,NA,NA,3,32,NA,blue,n_s_056.jpg,NA,NA,NA,NA,NA,pleasant,unpleasant,NA,NA,NA,NA,NA,none,0,false,NA,NA,NA,NA,NA,NA,NA,NA
7gN90a1c,3z8ujejod2q8a85trwhk37uqvoc39x,3dqq64tankysgdli97tlje1u2xowpa,7gN90a1c,2020-0188,2021-10-31,02:18:15,03:50:15,NA,incomplete,false,true,NA,NA,3,33,NA,blue,m_s_070.jpg,NA,NA,NA,NA,NA,unpleasant,pleasant,NA,NA,NA,NA,NA,none,0,false,NA,NA,NA,NA,NA,NA,NA,NA
7gN90a1c,3z8ujejod2q8a85trwhk37uqvoc39x,3dqq64tankysgdli97tlje1u2xowpa,7gN90a1c,2020-0188,2021-10-31,02:18:15,03:50:15,NA,incomplete,false,true,NA,NA,3,34,NA,blue,n_l_102.jpg,NA,NA,NA,NA,NA,unpleasant,pleasant,NA,NA,NA,NA,NA,none,0,false,NA,NA,NA,NA,NA,NA,NA,NA
7gN90a1c,3z8ujejod2q8a85trwhk37uqvoc39x,3dqq64tankysgdli97tlje1u2xowpa,7gN90a1c,2020-0188,2021-10-31,02:18:15,03:50:15,NA,incomplete,false,true,NA,NA,3,35,NA,blue,n_s_097.jpg,NA,NA,NA,NA,NA,pleasant,unpleasant,NA,NA,NA,NA,NA,none,0,false,NA,NA,NA,NA,NA,NA,NA,NA
7gN90a1c,3z8ujejod2q8a85trwhk37uqvoc39x,3dqq64tankysgdli97tlje1u2xowpa,7gN90a1c,2020-0188,2021-10-31,02:18:15,03:50:15,NA,incomplete,false,NA,NA,true,3,0,NA,NA,NA,left,n_l_048.jpg,white,orange,NA,NA,NA,NA,NA,NA,NA,NA,NA,NaN,NA,2658.2000000476837,right,0,NA,NA,NA,NA,NA
7gN90a1c,3z8ujejod2q8a85trwhk37uqvoc39x,3dqq64tankysgdli97tlje1u2xowpa,7gN90a1c,2020-0188,2021-10-31,02:18:15,03:50:15,NA,incomplete,false,NA,NA,true,3,1,NA,NA,NA,right,n_s_075.jpg,gray,orange,NA,NA,NA,NA,NA,NA,NA,NA,NA,NaN,NA,1447.3999998569489,left,0,NA,NA,NA,NA,NA
7gN90a1c,3z8ujejod2q8a85trwhk37uqvoc39x,3dqq64tankysgdli97tlje1u2xowpa,7gN90a1c,2020-0188,2021-10-31,02:18:15,03:50:15,NA,incomplete,false,NA,NA,true,3,2,NA,NA,NA,right,n_s_097.jpg,green,blue,NA,NA,NA,NA,NA,NA,NA,NA,NA,NaN,NA,868,right,1,NA,NA,NA,NA,NA
7gN90a1c,3z8ujejod2q8a85trwhk37uqvoc39x,3dqq64tankysgdli97tlje1u2xowpa,7gN90a1c,2020-0188,2021-10-31,02:18:15,03:50:15,NA,incomplete,false,NA,NA,true,3,3,NA,NA,NA,right,n_s_056.jpg,green,blue,NA,NA,NA,NA,NA,NA,NA,NA,NA,NaN,NA,3008.2999999523163,left,0,NA,NA,NA,NA,NA
7gN90a1c,3z8ujejod2q8a85trwhk37uqvoc39x,3dqq64tankysgdli97tlje1u2xowpa,7gN90a1c,2020-0188,2021-10-31,02:18:15,03:50:15,NA,incomplete,false,NA,NA,true,3,4,NA,NA,NA,left,n_l_019.jpg,black,gray,NA,NA,NA,NA,NA,NA,NA,NA,NA,NaN,NA,2588,left,1,NA,NA,NA,NA,NA
7gN90a1c,3z8ujejod2q8a85trwhk37uqvoc39x,3dqq64tankysgdli97tlje1u2xowpa,7gN90a1c,2020-0188,2021-10-31,02:18:15,03:50:15,NA,incomplete,false,NA,NA,true,3,5,NA,NA,NA,right,n_l_076.jpg,green,blue,NA,NA,NA,NA,NA,NA,NA,NA,NA,NaN,NA,898.0999999046326,right,1,NA,NA,NA,NA,NA
7gN90a1c,3z8ujejod2q8a85trwhk37uqvoc39x,3dqq64tankysgdli97tlje1u2xowpa,7gN90a1c,2020-0188,2021-10-31,02:18:15,03:50:15,NA,incomplete,false,NA,NA,true,3,6,NA,NA,NA,right,m_l_075.jpg,black,gray,NA,NA,NA,NA,NA,NA,NA,NA,NA,NaN,NA,3287.9000000953674,left,0,NA,NA,NA,NA,NA
7gN90a1c,3z8ujejod2q8a85trwhk37uqvoc39x,3dqq64tankysgdli97tlje1u2xowpa,7gN90a1c,2020-0188,2021-10-31,02:18:15,03:50:15,NA,incomplete,false,NA,NA,true,3,7,NA,NA,NA,right,m_l_098.jpg,orange,white,NA,NA,NA,NA,NA,NA,NA,NA,NA,NaN,NA,1058.3999998569489,right,1,NA,NA,NA,NA,NA
7gN90a1c,3z8ujejod2q8a85trwhk37uqvoc39x,3dqq64tankysgdli97tlje1u2xowpa,7gN90a1c,2020-0188,2021-10-31,02:18:15,03:50:15,NA,incomplete,false,NA,NA,true,3,8,NA,NA,NA,right,n_s_014.jpg,gray,black,NA,NA,NA,NA,NA,NA,NA,NA,NA,NaN,NA,984.2000000476837,left,0,NA,NA,NA,NA,NA
7gN90a1c,3z8ujejod2q8a85trwhk37uqvoc39x,3dqq64tankysgdli97tlje1u2xowpa,7gN90a1c,2020-0188,2021-10-31,02:18:15,03:50:15,NA,incomplete,false,NA,NA,true,3,9,NA,NA,NA,right,n_l_050.jpg,gray,orange,NA,NA,NA,NA,NA,NA,NA,NA,NA,NaN,NA,2778.300000190735,right,1,NA,NA,NA,NA,NA
7gN90a1c,3z8ujejod2q8a85trwhk37uqvoc39x,3dqq64tankysgdli97tlje1u2xowpa,7gN90a1c,2020-0188,2021-10-31,02:18:15,03:50:15,NA,incomplete,false,NA,NA,true,3,10,NA,NA,NA,left,n_s_028.jpg,gray,black,NA,NA,NA,NA,NA,NA,NA,NA,NA,NaN,NA,938.2000000476837,right,0,NA,NA,NA,NA,NA
7gN90a1c,3z8ujejod2q8a85trwhk37uqvoc39x,3dqq64tankysgdli97tlje1u2xowpa,7gN90a1c,2020-0188,2021-10-31,02:18:15,03:50:15,NA,incomplete,false,NA,NA,true,3,11,NA,NA,NA,right,m_s_060.jpg,black,gray,NA,NA,NA,NA,NA,NA,NA,NA,NA,NaN,NA,1068.2000000476837,left,0,NA,NA,NA,NA,NA
7gN90a1c,3z8ujejod2q8a85trwhk37uqvoc39x,3dqq64tankysgdli97tlje1u2xowpa,7gN90a1c,2020-0188,2021-10-31,02:18:15,03:50:15,NA,incomplete,false,NA,NA,true,3,12,NA,NA,NA,left,m_l_041.jpg,white,orange,NA,NA,NA,NA,NA,NA,NA,NA,NA,NaN,NA,1167.7000000476837,right,0,NA,NA,NA,NA,NA
7gN90a1c,3z8ujejod2q8a85trwhk37uqvoc39x,3dqq64tankysgdli97tlje1u2xowpa,7gN90a1c,2020-0188,2021-10-31,02:18:15,03:50:15,NA,incomplete,false,NA,NA,true,3,13,NA,NA,NA,right,m_l_108.jpg,white,green,NA,NA,NA,NA,NA,NA,NA,NA,NA,NaN,NA,978.2999999523163,right,1,NA,NA,NA,NA,NA
7gN90a1c,3z8ujejod2q8a85trwhk37uqvoc39x,3dqq64tankysgdli97tlje1u2xowpa,7gN90a1c,2020-0188,2021-10-31,02:18:15,03:50:15,NA,incomplete,false,NA,NA,true,3,14,NA,NA,NA,right,n_l_107.jpg,blue,green,NA,NA,NA,NA,NA,NA,NA,NA,NA,NaN,NA,878.4000000953674,left,0,NA,NA,NA,NA,NA
7gN90a1c,3z8ujejod2q8a85trwhk37uqvoc39x,3dqq64tankysgdli97tlje1u2xowpa,7gN90a1c,2020-0188,2021-10-31,02:18:15,03:50:15,NA,incomplete,false,NA,NA,true,3,15,NA,NA,NA,right,n_l_035.jpg,white,green,NA,NA,NA,NA,NA,NA,NA,NA,NA,NaN,NA,2452.9000000953674,right,1,NA,NA,NA,NA,NA
7gN90a1c,3z8ujejod2q8a85trwhk37uqvoc39x,3dqq64tankysgdli97tlje1u2xowpa,7gN90a1c,2020-0188,2021-10-31,02:18:15,03:50:15,NA,incomplete,false,NA,NA,true,3,16,NA,NA,NA,left,m_s_100.jpg,orange,white,NA,NA,NA,NA,NA,NA,NA,NA,NA,NaN,NA,968.6999998092651,right,0,NA,NA,NA,NA,NA
7gN90a1c,3z8ujejod2q8a85trwhk37uqvoc39x,3dqq64tankysgdli97tlje1u2xowpa,7gN90a1c,2020-0188,2021-10-31,02:18:15,03:50:15,NA,incomplete,false,NA,NA,true,3,17,NA,NA,NA,right,n_l_067.jpg,gray,black,NA,NA,NA,NA,NA,NA,NA,NA,NA,NaN,NA,888.8000001907349,right,1,NA,NA,NA,NA,NA
7gN90a1c,3z8ujejod2q8a85trwhk37uqvoc39x,3dqq64tankysgdli97tlje1u2xowpa,7gN90a1c,2020-0188,2021-10-31,02:18:15,03:50:15,NA,incomplete,false,NA,NA,true,3,18,NA,NA,NA,left,n_l_040.jpg,white,green,NA,NA,NA,NA,NA,NA,NA,NA,NA,NaN,NA,849.1000001430511,right,0,NA,NA,NA,NA,NA
7gN90a1c,3z8ujejod2q8a85trwhk37uqvoc39x,3dqq64tankysgdli97tlje1u2xowpa,7gN90a1c,2020-0188,2021-10-31,02:18:15,03:50:15,NA,incomplete,false,NA,NA,true,3,19,NA,NA,NA,left,m_l_001.jpg,gray,orange,NA,NA,NA,NA,NA,NA,NA,NA,NA,NaN,NA,1079,right,0,NA,NA,NA,NA,NA
7gN90a1c,3z8ujejod2q8a85trwhk37uqvoc39x,3dqq64tankysgdli97tlje1u2xowpa,7gN90a1c,2020-0188,2021-10-31,02:18:15,03:50:15,NA,incomplete,false,NA,NA,true,3,20,NA,NA,NA,right,m_s_075.jpg,white,orange,NA,NA,NA,NA,NA,NA,NA,NA,NA,NaN,NA,5039.599999904633,left,0,NA,NA,NA,NA,NA
7gN90a1c,3z8ujejod2q8a85trwhk37uqvoc39x,3dqq64tankysgdli97tlje1u2xowpa,7gN90a1c,2020-0188,2021-10-31,02:18:15,03:50:15,NA,incomplete,false,NA,NA,true,3,21,NA,NA,NA,right,n_l_099.jpg,blue,green,NA,NA,NA,NA,NA,NA,NA,NA,NA,NaN,NA,998.7000000476837,right,1,NA,NA,NA,NA,NA
7gN90a1c,3z8ujejod2q8a85trwhk37uqvoc39x,3dqq64tankysgdli97tlje1u2xowpa,7gN90a1c,2020-0188,2021-10-31,02:18:15,03:50:15,NA,incomplete,false,NA,true,NA,3,0,NA,NA,NA,right,NA,NA,NA,present,NA,NA,m_l_001.jpg,gray,n_s_014.jpg,black,between,NA,NaN,NA,NA,NA,NA,right,2278.2000000476837,1,1,1918.5
7gN90a1c,3z8ujejod2q8a85trwhk37uqvoc39x,3dqq64tankysgdli97tlje1u2xowpa,7gN90a1c,2020-0188,2021-10-31,02:18:15,03:50:15,NA,incomplete,false,NA,true,NA,3,1,NA,NA,NA,left,NA,NA,NA,present,NA,NA,n_s_028.jpg,gray,m_s_100.jpg,orange,between,NA,NaN,NA,NA,NA,NA,left,1668.3999998569489,1,1,1678.2000000476837
7gN90a1c,3z8ujejod2q8a85trwhk37uqvoc39x,3dqq64tankysgdli97tlje1u2xowpa,7gN90a1c,2020-0188,2021-10-31,02:18:15,03:50:15,NA,incomplete,false,NA,true,NA,3,2,NA,NA,NA,left,NA,NA,NA,present,NA,NA,n_l_076.jpg,blue,n_s_097.jpg,blue,within,NA,NaN,NA,NA,NA,NA,right,1728.2999999523163,0,0,1248.5999999046326
7gN90a1c,3z8ujejod2q8a85trwhk37uqvoc39x,3dqq64tankysgdli97tlje1u2xowpa,7gN90a1c,2020-0188,2021-10-31,02:18:15,03:50:15,NA,incomplete,false,NA,true,NA,3,3,NA,NA,NA,right,NA,NA,NA,present,NA,NA,n_s_056.jpg,blue,n_l_035.jpg,green,between,NA,NaN,NA,NA,NA,NA,right,1668.2999999523163,1,1,1568.2999999523163
7gN90a1c,3z8ujejod2q8a85trwhk37uqvoc39x,3dqq64tankysgdli97tlje1u2xowpa,7gN90a1c,2020-0188,2021-10-31,02:18:15,03:50:15,NA,incomplete,false,NA,true,NA,3,4,NA,NA,NA,right,NA,NA,NA,present,NA,NA,n_s_075.jpg,orange,n_l_050.jpg,orange,within,NA,NaN,NA,NA,NA,NA,left,6117.400000095367,0,0,5277.799999952316
7gN90a1c,3z8ujejod2q8a85trwhk37uqvoc39x,3dqq64tankysgdli97tlje1u2xowpa,7gN90a1c,2020-0188,2021-10-31,02:18:15,03:50:15,NA,incomplete,false,NA,true,NA,3,5,NA,NA,NA,right,NA,NA,NA,present,NA,NA,n_l_040.jpg,white,m_l_098.jpg,white,within,NA,NaN,NA,NA,NA,NA,right,1698.7999999523163,1,1,1488.2000000476837
7gN90a1c,3z8ujejod2q8a85trwhk37uqvoc39x,3dqq64tankysgdli97tlje1u2xowpa,7gN90a1c,2020-0188,2021-10-31,02:18:15,03:50:15,NA,incomplete,false,NA,true,NA,3,6,NA,NA,NA,right,NA,NA,NA,present,NA,NA,n_l_107.jpg,green,n_l_048.jpg,white,between,NA,NaN,NA,NA,NA,NA,left,1678.2000000476837,0,3,1717.9000000953674
7gN90a1c,3z8ujejod2q8a85trwhk37uqvoc39x,3dqq64tankysgdli97tlje1u2xowpa,7gN90a1c,2020-0188,2021-10-31,02:18:15,03:50:15,NA,incomplete,false,NA,true,NA,3,7,NA,NA,NA,left,NA,NA,NA,present,NA,NA,m_s_075.jpg,orange,m_l_041.jpg,white,between,NA,NaN,NA,NA,NA,NA,right,1678.5,0,1,1548.3999998569489
7gN90a1c,3z8ujejod2q8a85trwhk37uqvoc39x,3dqq64tankysgdli97tlje1u2xowpa,7gN90a1c,2020-0188,2021-10-31,02:18:15,03:50:15,NA,incomplete,false,NA,true,NA,3,8,NA,NA,NA,right,NA,NA,NA,present,NA,NA,m_l_108.jpg,green,n_l_099.jpg,green,within,NA,NaN,NA,NA,NA,NA,right,1538.3000001907349,1,0,1388.6999998092651
7gN90a1c,3z8ujejod2q8a85trwhk37uqvoc39x,3dqq64tankysgdli97tlje1u2xowpa,7gN90a1c,2020-0188,2021-10-31,02:18:15,03:50:15,NA,incomplete,false,NA,true,NA,3,9,NA,NA,NA,left,NA,NA,NA,present,NA,NA,m_l_075.jpg,gray,m_s_060.jpg,gray,within,NA,NaN,NA,NA,NA,NA,right,1597.9000000953674,0,2,4158.200000047684
7gN90a1c,3z8ujejod2q8a85trwhk37uqvoc39x,3dqq64tankysgdli97tlje1u2xowpa,7gN90a1c,2020-0188,2021-10-31,02:18:15,03:50:15,NA,incomplete,false,NA,true,NA,3,10,NA,NA,NA,right,NA,NA,NA,present,NA,NA,n_l_019.jpg,black,n_l_067.jpg,black,within,NA,NaN,NA,NA,NA,NA,left,1208.2999999523163,0,0,1388
7gN90a1c,3z8ujejod2q8a85trwhk37uqvoc39x,3dqq64tankysgdli97tlje1u2xowpa,7gN90a1c,2020-0188,2021-10-31,02:18:15,03:50:15,NA,incomplete,false,true,NA,NA,4,0,NA,red,n_l_096.jpg,NA,NA,NA,NA,NA,unpleasant,pleasant,NA,NA,NA,NA,NA,right,1142.89999985695,true,NA,NA,NA,NA,NA,NA,NA,NA
7gN90a1c,3z8ujejod2q8a85trwhk37uqvoc39x,3dqq64tankysgdli97tlje1u2xowpa,7gN90a1c,2020-0188,2021-10-31,02:18:15,03:50:15,NA,incomplete,false,true,NA,NA,4,1,NA,red,n_l_005.jpg,NA,NA,NA,NA,NA,unpleasant,pleasant,NA,NA,NA,NA,NA,none,0,false,NA,NA,NA,NA,NA,NA,NA,NA
7gN90a1c,3z8ujejod2q8a85trwhk37uqvoc39x,3dqq64tankysgdli97tlje1u2xowpa,7gN90a1c,2020-0188,2021-10-31,02:18:15,03:50:15,NA,incomplete,false,true,NA,NA,4,2,NA,red,n_s_033.jpg,NA,NA,NA,NA,NA,pleasant,unpleasant,NA,NA,NA,NA,NA,none,0,false,NA,NA,NA,NA,NA,NA,NA,NA
7gN90a1c,3z8ujejod2q8a85trwhk37uqvoc39x,3dqq64tankysgdli97tlje1u2xowpa,7gN90a1c,2020-0188,2021-10-31,02:18:15,03:50:15,NA,incomplete,false,true,NA,NA,4,3,NA,red,m_l_019.jpg,NA,NA,NA,NA,NA,pleasant,unpleasant,NA,NA,NA,NA,NA,none,0,false,NA,NA,NA,NA,NA,NA,NA,NA
7gN90a1c,3z8ujejod2q8a85trwhk37uqvoc39x,3dqq64tankysgdli97tlje1u2xowpa,7gN90a1c,2020-0188,2021-10-31,02:18:15,03:50:15,NA,incomplete,false,true,NA,NA,4,4,NA,red,m_s_022.jpg,NA,NA,NA,NA,NA,pleasant,unpleasant,NA,NA,NA,NA,NA,none,0,false,NA,NA,NA,NA,NA,NA,NA,NA
7gN90a1c,3z8ujejod2q8a85trwhk37uqvoc39x,3dqq64tankysgdli97tlje1u2xowpa,7gN90a1c,2020-0188,2021-10-31,02:18:15,03:50:15,NA,incomplete,false,true,NA,NA,4,5,NA,red,n_s_096.jpg,NA,NA,NA,NA,NA,unpleasant,pleasant,NA,NA,NA,NA,NA,none,0,false,NA,NA,NA,NA,NA,NA,NA,NA
7gN90a1c,3z8ujejod2q8a85trwhk37uqvoc39x,3dqq64tankysgdli97tlje1u2xowpa,7gN90a1c,2020-0188,2021-10-31,02:18:15,03:50:15,NA,incomplete,false,true,NA,NA,4,6,NA,green,n_l_116.jpg,NA,NA,NA,NA,NA,pleasant,unpleasant,NA,NA,NA,NA,NA,none,0,false,NA,NA,NA,NA,NA,NA,NA,NA
7gN90a1c,3z8ujejod2q8a85trwhk37uqvoc39x,3dqq64tankysgdli97tlje1u2xowpa,7gN90a1c,2020-0188,2021-10-31,02:18:15,03:50:15,NA,incomplete,false,true,NA,NA,4,7,NA,green,n_s_105.jpg,NA,NA,NA,NA,NA,pleasant,unpleasant,NA,NA,NA,NA,NA,none,0,false,NA,NA,NA,NA,NA,NA,NA,NA
7gN90a1c,3z8ujejod2q8a85trwhk37uqvoc39x,3dqq64tankysgdli97tlje1u2xowpa,7gN90a1c,2020-0188,2021-10-31,02:18:15,03:50:15,NA,incomplete,false,true,NA,NA,4,8,NA,green,m_s_014.jpg,NA,NA,NA,NA,NA,pleasant,unpleasant,NA,NA,NA,NA,NA,none,0,false,NA,NA,NA,NA,NA,NA,NA,NA
7gN90a1c,3z8ujejod2q8a85trwhk37uqvoc39x,3dqq64tankysgdli97tlje1u2xowpa,7gN90a1c,2020-0188,2021-10-31,02:18:15,03:50:15,NA,incomplete,false,true,NA,NA,4,9,NA,green,n_l_097.jpg,NA,NA,NA,NA,NA,pleasant,unpleasant,NA,NA,NA,NA,NA,none,0,false,NA,NA,NA,NA,NA,NA,NA,NA
7gN90a1c,3z8ujejod2q8a85trwhk37uqvoc39x,3dqq64tankysgdli97tlje1u2xowpa,7gN90a1c,2020-0188,2021-10-31,02:18:15,03:50:15,NA,incomplete,false,true,NA,NA,4,10,NA,green,n_l_008.jpg,NA,NA,NA,NA,NA,unpleasant,pleasant,NA,NA,NA,NA,NA,none,0,false,NA,NA,NA,NA,NA,NA,NA,NA
7gN90a1c,3z8ujejod2q8a85trwhk37uqvoc39x,3dqq64tankysgdli97tlje1u2xowpa,7gN90a1c,2020-0188,2021-10-31,02:18:15,03:50:15,NA,incomplete,false,true,NA,NA,4,11,NA,green,n_l_047.jpg,NA,NA,NA,NA,NA,unpleasant,pleasant,NA,NA,NA,NA,NA,none,0,false,NA,NA,NA,NA,NA,NA,NA,NA
7gN90a1c,3z8ujejod2q8a85trwhk37uqvoc39x,3dqq64tankysgdli97tlje1u2xowpa,7gN90a1c,2020-0188,2021-10-31,02:18:15,03:50:15,NA,incomplete,false,true,NA,NA,4,12,NA,purple,n_s_113.jpg,NA,NA,NA,NA,NA,pleasant,unpleasant,NA,NA,NA,NA,NA,none,0,false,NA,NA,NA,NA,NA,NA,NA,NA
7gN90a1c,3z8ujejod2q8a85trwhk37uqvoc39x,3dqq64tankysgdli97tlje1u2xowpa,7gN90a1c,2020-0188,2021-10-31,02:18:15,03:50:15,NA,incomplete,false,true,NA,NA,4,13,NA,purple,m_l_070.jpg,NA,NA,NA,NA,NA,pleasant,unpleasant,NA,NA,NA,NA,NA,none,0,false,NA,NA,NA,NA,NA,NA,NA,NA
7gN90a1c,3z8ujejod2q8a85trwhk37uqvoc39x,3dqq64tankysgdli97tlje1u2xowpa,7gN90a1c,2020-0188,2021-10-31,02:18:15,03:50:15,NA,incomplete,false,true,NA,NA,4,14,NA,purple,n_s_023.jpg,NA,NA,NA,NA,NA,unpleasant,pleasant,NA,NA,NA,NA,NA,none,0,false,NA,NA,NA,NA,NA,NA,NA,NA
7gN90a1c,3z8ujejod2q8a85trwhk37uqvoc39x,3dqq64tankysgdli97tlje1u2xowpa,7gN90a1c,2020-0188,2021-10-31,02:18:15,03:50:15,NA,incomplete,false,true,NA,NA,4,15,NA,purple,n_l_028.jpg,NA,NA,NA,NA,NA,pleasant,unpleasant,NA,NA,NA,NA,NA,none,0,false,NA,NA,NA,NA,NA,NA,NA,NA
7gN90a1c,3z8ujejod2q8a85trwhk37uqvoc39x,3dqq64tankysgdli97tlje1u2xowpa,7gN90a1c,2020-0188,2021-10-31,02:18:15,03:50:15,NA,incomplete,false,true,NA,NA,4,16,NA,purple,n_l_063.jpg,NA,NA,NA,NA,NA,pleasant,unpleasant,NA,NA,NA,NA,NA,none,0,false,NA,NA,NA,NA,NA,NA,NA,NA
7gN90a1c,3z8ujejod2q8a85trwhk37uqvoc39x,3dqq64tankysgdli97tlje1u2xowpa,7gN90a1c,2020-0188,2021-10-31,02:18:15,03:50:15,NA,incomplete,false,true,NA,NA,4,17,NA,purple,m_l_065.jpg,NA,NA,NA,NA,NA,pleasant,unpleasant,NA,NA,NA,NA,NA,none,0,false,NA,NA,NA,NA,NA,NA,NA,NA
7gN90a1c,3z8ujejod2q8a85trwhk37uqvoc39x,3dqq64tankysgdli97tlje1u2xowpa,7gN90a1c,2020-0188,2021-10-31,02:18:15,03:50:15,NA,incomplete,false,true,NA,NA,4,18,NA,white,m_s_008.jpg,NA,NA,NA,NA,NA,pleasant,unpleasant,NA,NA,NA,NA,NA,none,0,false,NA,NA,NA,NA,NA,NA,NA,NA
7gN90a1c,3z8ujejod2q8a85trwhk37uqvoc39x,3dqq64tankysgdli97tlje1u2xowpa,7gN90a1c,2020-0188,2021-10-31,02:18:15,03:50:15,NA,incomplete,false,true,NA,NA,4,19,NA,white,n_l_106.jpg,NA,NA,NA,NA,NA,pleasant,unpleasant,NA,NA,NA,NA,NA,none,0,false,NA,NA,NA,NA,NA,NA,NA,NA
7gN90a1c,3z8ujejod2q8a85trwhk37uqvoc39x,3dqq64tankysgdli97tlje1u2xowpa,7gN90a1c,2020-0188,2021-10-31,02:18:15,03:50:15,NA,incomplete,false,true,NA,NA,4,20,NA,white,n_s_048.jpg,NA,NA,NA,NA,NA,unpleasant,pleasant,NA,NA,NA,NA,NA,none,0,false,NA,NA,NA,NA,NA,NA,NA,NA
7gN90a1c,3z8ujejod2q8a85trwhk37uqvoc39x,3dqq64tankysgdli97tlje1u2xowpa,7gN90a1c,2020-0188,2021-10-31,02:18:15,03:50:15,NA,incomplete,false,true,NA,NA,4,21,NA,white,n_l_051.jpg,NA,NA,NA,NA,NA,unpleasant,pleasant,NA,NA,NA,NA,NA,none,0,false,NA,NA,NA,NA,NA,NA,NA,NA
7gN90a1c,3z8ujejod2q8a85trwhk37uqvoc39x,3dqq64tankysgdli97tlje1u2xowpa,7gN90a1c,2020-0188,2021-10-31,02:18:15,03:50:15,NA,incomplete,false,true,NA,NA,4,22,NA,white,m_s_011.jpg,NA,NA,NA,NA,NA,pleasant,unpleasant,NA,NA,NA,NA,NA,none,0,false,NA,NA,NA,NA,NA,NA,NA,NA
7gN90a1c,3z8ujejod2q8a85trwhk37uqvoc39x,3dqq64tankysgdli97tlje1u2xowpa,7gN90a1c,2020-0188,2021-10-31,02:18:15,03:50:15,NA,incomplete,false,true,NA,NA,4,23,NA,white,m_s_111.jpg,NA,NA,NA,NA,NA,unpleasant,pleasant,NA,NA,NA,NA,NA,none,0,false,NA,NA,NA,NA,NA,NA,NA,NA
7gN90a1c,3z8ujejod2q8a85trwhk37uqvoc39x,3dqq64tankysgdli97tlje1u2xowpa,7gN90a1c,2020-0188,2021-10-31,02:18:15,03:50:15,NA,incomplete,false,true,NA,NA,4,24,NA,black,n_s_069.jpg,NA,NA,NA,NA,NA,unpleasant,pleasant,NA,NA,NA,NA,NA,none,0,false,NA,NA,NA,NA,NA,NA,NA,NA
7gN90a1c,3z8ujejod2q8a85trwhk37uqvoc39x,3dqq64tankysgdli97tlje1u2xowpa,7gN90a1c,2020-0188,2021-10-31,02:18:15,03:50:15,NA,incomplete,false,true,NA,NA,4,25,NA,black,m_l_008.jpg,NA,NA,NA,NA,NA,unpleasant,pleasant,NA,NA,NA,NA,NA,none,0,false,NA,NA,NA,NA,NA,NA,NA,NA
7gN90a1c,3z8ujejod2q8a85trwhk37uqvoc39x,3dqq64tankysgdli97tlje1u2xowpa,7gN90a1c,2020-0188,2021-10-31,02:18:15,03:50:15,NA,incomplete,false,true,NA,NA,4,26,NA,black,n_s_104.jpg,NA,NA,NA,NA,NA,pleasant,unpleasant,NA,NA,NA,NA,NA,none,0,false,NA,NA,NA,NA,NA,NA,NA,NA
7gN90a1c,3z8ujejod2q8a85trwhk37uqvoc39x,3dqq64tankysgdli97tlje1u2xowpa,7gN90a1c,2020-0188,2021-10-31,02:18:15,03:50:15,NA,incomplete,false,true,NA,NA,4,27,NA,black,n_s_022.jpg,NA,NA,NA,NA,NA,unpleasant,pleasant,NA,NA,NA,NA,NA,none,0,false,NA,NA,NA,NA,NA,NA,NA,NA
7gN90a1c,3z8ujejod2q8a85trwhk37uqvoc39x,3dqq64tankysgdli97tlje1u2xowpa,7gN90a1c,2020-0188,2021-10-31,02:18:15,03:50:15,NA,incomplete,false,true,NA,NA,4,28,NA,black,n_l_052.jpg,NA,NA,NA,NA,NA,pleasant,unpleasant,NA,NA,NA,NA,NA,none,0,false,NA,NA,NA,NA,NA,NA,NA,NA
7gN90a1c,3z8ujejod2q8a85trwhk37uqvoc39x,3dqq64tankysgdli97tlje1u2xowpa,7gN90a1c,2020-0188,2021-10-31,02:18:15,03:50:15,NA,incomplete,false,true,NA,NA,4,29,NA,black,m_l_078.jpg,NA,NA,NA,NA,NA,pleasant,unpleasant,NA,NA,NA,NA,NA,none,0,false,NA,NA,NA,NA,NA,NA,NA,NA
7gN90a1c,3z8ujejod2q8a85trwhk37uqvoc39x,3dqq64tankysgdli97tlje1u2xowpa,7gN90a1c,2020-0188,2021-10-31,02:18:15,03:50:15,NA,incomplete,false,true,NA,NA,4,30,NA,yellow,n_s_055.jpg,NA,NA,NA,NA,NA,pleasant,unpleasant,NA,NA,NA,NA,NA,none,0,false,NA,NA,NA,NA,NA,NA,NA,NA
7gN90a1c,3z8ujejod2q8a85trwhk37uqvoc39x,3dqq64tankysgdli97tlje1u2xowpa,7gN90a1c,2020-0188,2021-10-31,02:18:15,03:50:15,NA,incomplete,false,true,NA,NA,4,31,NA,yellow,m_l_067.jpg,NA,NA,NA,NA,NA,unpleasant,pleasant,NA,NA,NA,NA,NA,none,0,false,NA,NA,NA,NA,NA,NA,NA,NA
7gN90a1c,3z8ujejod2q8a85trwhk37uqvoc39x,3dqq64tankysgdli97tlje1u2xowpa,7gN90a1c,2020-0188,2021-10-31,02:18:15,03:50:15,NA,incomplete,false,true,NA,NA,4,32,NA,yellow,n_l_101.jpg,NA,NA,NA,NA,NA,unpleasant,pleasant,NA,NA,NA,NA,NA,none,0,false,NA,NA,NA,NA,NA,NA,NA,NA
7gN90a1c,3z8ujejod2q8a85trwhk37uqvoc39x,3dqq64tankysgdli97tlje1u2xowpa,7gN90a1c,2020-0188,2021-10-31,02:18:15,03:50:15,NA,incomplete,false,true,NA,NA,4,33,NA,yellow,n_s_089.jpg,NA,NA,NA,NA,NA,unpleasant,pleasant,NA,NA,NA,NA,NA,none,0,false,NA,NA,NA,NA,NA,NA,NA,NA
7gN90a1c,3z8ujejod2q8a85trwhk37uqvoc39x,3dqq64tankysgdli97tlje1u2xowpa,7gN90a1c,2020-0188,2021-10-31,02:18:15,03:50:15,NA,incomplete,false,true,NA,NA,4,34,NA,yellow,m_l_107.jpg,NA,NA,NA,NA,NA,pleasant,unpleasant,NA,NA,NA,NA,NA,none,0,false,NA,NA,NA,NA,NA,NA,NA,NA
7gN90a1c,3z8ujejod2q8a85trwhk37uqvoc39x,3dqq64tankysgdli97tlje1u2xowpa,7gN90a1c,2020-0188,2021-10-31,02:18:15,03:50:15,NA,incomplete,false,true,NA,NA,4,35,NA,yellow,m_l_045.jpg,NA,NA,NA,NA,NA,pleasant,unpleasant,NA,NA,NA,NA,NA,none,0,false,NA,NA,NA,NA,NA,NA,NA,NA
7gN90a1c,3z8ujejod2q8a85trwhk37uqvoc39x,3dqq64tankysgdli97tlje1u2xowpa,7gN90a1c,2020-0188,2021-10-31,02:18:15,03:50:15,NA,incomplete,false,NA,NA,true,4,0,NA,NA,NA,left,n_s_104.jpg,black,white,NA,NA,NA,NA,NA,NA,NA,NA,NA,NaN,NA,2478.7999999523163,right,0,NA,NA,NA,NA,NA
7gN90a1c,3z8ujejod2q8a85trwhk37uqvoc39x,3dqq64tankysgdli97tlje1u2xowpa,7gN90a1c,2020-0188,2021-10-31,02:18:15,03:50:15,NA,incomplete,false,NA,NA,true,4,1,NA,NA,NA,left,m_l_070.jpg,purple,green,NA,NA,NA,NA,NA,NA,NA,NA,NA,NaN,NA,1068.8999998569489,right,0,NA,NA,NA,NA,NA
7gN90a1c,3z8ujejod2q8a85trwhk37uqvoc39x,3dqq64tankysgdli97tlje1u2xowpa,7gN90a1c,2020-0188,2021-10-31,02:18:15,03:50:15,NA,incomplete,false,NA,NA,true,4,2,NA,NA,NA,left,n_l_005.jpg,red,green,NA,NA,NA,NA,NA,NA,NA,NA,NA,NaN,NA,999.0999999046326,left,1,NA,NA,NA,NA,NA
7gN90a1c,3z8ujejod2q8a85trwhk37uqvoc39x,3dqq64tankysgdli97tlje1u2xowpa,7gN90a1c,2020-0188,2021-10-31,02:18:15,03:50:15,NA,incomplete,false,NA,NA,true,4,3,NA,NA,NA,right,m_l_065.jpg,green,purple,NA,NA,NA,NA,NA,NA,NA,NA,NA,NaN,NA,929.2999999523163,right,1,NA,NA,NA,NA,NA
7gN90a1c,3z8ujejod2q8a85trwhk37uqvoc39x,3dqq64tankysgdli97tlje1u2xowpa,7gN90a1c,2020-0188,2021-10-31,02:18:15,03:50:15,NA,incomplete,false,NA,NA,true,4,4,NA,NA,NA,left,n_s_096.jpg,red,green,NA,NA,NA,NA,NA,NA,NA,NA,NA,NaN,NA,928.8999998569489,left,1,NA,NA,NA,NA,NA
7gN90a1c,3z8ujejod2q8a85trwhk37uqvoc39x,3dqq64tankysgdli97tlje1u2xowpa,7gN90a1c,2020-0188,2021-10-31,02:18:15,03:50:15,NA,incomplete,false,NA,NA,true,4,5,NA,NA,NA,right,m_l_067.jpg,black,yellow,NA,NA,NA,NA,NA,NA,NA,NA,NA,NaN,NA,919.1000001430511,right,1,NA,NA,NA,NA,NA
7gN90a1c,3z8ujejod2q8a85trwhk37uqvoc39x,3dqq64tankysgdli97tlje1u2xowpa,7gN90a1c,2020-0188,2021-10-31,02:18:15,03:50:15,NA,incomplete,false,NA,NA,true,4,6,NA,NA,NA,right,n_l_106.jpg,purple,white,NA,NA,NA,NA,NA,NA,NA,NA,NA,NaN,NA,2638.899999856949,right,1,NA,NA,NA,NA,NA
7gN90a1c,3z8ujejod2q8a85trwhk37uqvoc39x,3dqq64tankysgdli97tlje1u2xowpa,7gN90a1c,2020-0188,2021-10-31,02:18:15,03:50:15,NA,incomplete,false,NA,NA,true,4,7,NA,NA,NA,left,m_l_008.jpg,black,yellow,NA,NA,NA,NA,NA,NA,NA,NA,NA,NaN,NA,938.7999999523163,left,1,NA,NA,NA,NA,NA
7gN90a1c,3z8ujejod2q8a85trwhk37uqvoc39x,3dqq64tankysgdli97tlje1u2xowpa,7gN90a1c,2020-0188,2021-10-31,02:18:15,03:50:15,NA,incomplete,false,NA,NA,true,4,8,NA,NA,NA,right,n_s_048.jpg,purple,white,NA,NA,NA,NA,NA,NA,NA,NA,NA,NaN,NA,1009.2000000476837,right,1,NA,NA,NA,NA,NA
7gN90a1c,3z8ujejod2q8a85trwhk37uqvoc39x,3dqq64tankysgdli97tlje1u2xowpa,7gN90a1c,2020-0188,2021-10-31,02:18:15,03:50:15,NA,incomplete,false,NA,NA,true,4,9,NA,NA,NA,left,m_s_111.jpg,white,purple,NA,NA,NA,NA,NA,NA,NA,NA,NA,NaN,NA,2678.7999999523163,right,0,NA,NA,NA,NA,NA
7gN90a1c,3z8ujejod2q8a85trwhk37uqvoc39x,3dqq64tankysgdli97tlje1u2xowpa,7gN90a1c,2020-0188,2021-10-31,02:18:15,03:50:15,NA,incomplete,false,NA,NA,true,4,10,NA,NA,NA,left,n_l_063.jpg,purple,white,NA,NA,NA,NA,NA,NA,NA,NA,NA,NaN,NA,1039.2999999523163,left,1,NA,NA,NA,NA,NA
7gN90a1c,3z8ujejod2q8a85trwhk37uqvoc39x,3dqq64tankysgdli97tlje1u2xowpa,7gN90a1c,2020-0188,2021-10-31,02:18:15,03:50:15,NA,incomplete,false,NA,NA,true,4,11,NA,NA,NA,left,n_l_008.jpg,green,purple,NA,NA,NA,NA,NA,NA,NA,NA,NA,NaN,NA,1048.9000000953674,right,0,NA,NA,NA,NA,NA
7gN90a1c,3z8ujejod2q8a85trwhk37uqvoc39x,3dqq64tankysgdli97tlje1u2xowpa,7gN90a1c,2020-0188,2021-10-31,02:18:15,03:50:15,NA,incomplete,false,NA,NA,true,4,12,NA,NA,NA,right,n_s_105.jpg,red,green,NA,NA,NA,NA,NA,NA,NA,NA,NA,NaN,NA,4668.900000095367,left,0,NA,NA,NA,NA,NA
7gN90a1c,3z8ujejod2q8a85trwhk37uqvoc39x,3dqq64tankysgdli97tlje1u2xowpa,7gN90a1c,2020-0188,2021-10-31,02:18:15,03:50:15,NA,incomplete,false,NA,NA,true,4,13,NA,NA,NA,left,n_s_023.jpg,purple,white,NA,NA,NA,NA,NA,NA,NA,NA,NA,NaN,NA,4268.400000095367,right,0,NA,NA,NA,NA,NA
7gN90a1c,3z8ujejod2q8a85trwhk37uqvoc39x,3dqq64tankysgdli97tlje1u2xowpa,7gN90a1c,2020-0188,2021-10-31,02:18:15,03:50:15,NA,incomplete,false,NA,NA,true,4,14,NA,NA,NA,left,m_s_014.jpg,green,red,NA,NA,NA,NA,NA,NA,NA,NA,NA,NaN,NA,4149,left,1,NA,NA,NA,NA,NA
7gN90a1c,3z8ujejod2q8a85trwhk37uqvoc39x,3dqq64tankysgdli97tlje1u2xowpa,7gN90a1c,2020-0188,2021-10-31,02:18:15,03:50:15,NA,incomplete,false,NA,NA,true,4,15,NA,NA,NA,right,m_l_045.jpg,black,yellow,NA,NA,NA,NA,NA,NA,NA,NA,NA,NaN,NA,1138.8000001907349,right,1,NA,NA,NA,NA,NA
7gN90a1c,3z8ujejod2q8a85trwhk37uqvoc39x,3dqq64tankysgdli97tlje1u2xowpa,7gN90a1c,2020-0188,2021-10-31,02:18:15,03:50:15,NA,incomplete,false,NA,NA,true,4,16,NA,NA,NA,left,m_s_022.jpg,red,green,NA,NA,NA,NA,NA,NA,NA,NA,NA,NaN,NA,1209,left,1,NA,NA,NA,NA,NA
7gN90a1c,3z8ujejod2q8a85trwhk37uqvoc39x,3dqq64tankysgdli97tlje1u2xowpa,7gN90a1c,2020-0188,2021-10-31,02:18:15,03:50:15,NA,incomplete,false,NA,NA,true,4,17,NA,NA,NA,right,n_l_101.jpg,black,yellow,NA,NA,NA,NA,NA,NA,NA,NA,NA,NaN,NA,998.8999998569489,right,1,NA,NA,NA,NA,NA
7gN90a1c,3z8ujejod2q8a85trwhk37uqvoc39x,3dqq64tankysgdli97tlje1u2xowpa,7gN90a1c,2020-0188,2021-10-31,02:18:15,03:50:15,NA,incomplete,false,NA,NA,true,4,18,NA,NA,NA,left,m_l_078.jpg,black,white,NA,NA,NA,NA,NA,NA,NA,NA,NA,NaN,NA,1418.8999998569489,left,1,NA,NA,NA,NA,NA
7gN90a1c,3z8ujejod2q8a85trwhk37uqvoc39x,3dqq64tankysgdli97tlje1u2xowpa,7gN90a1c,2020-0188,2021-10-31,02:18:15,03:50:15,NA,incomplete,false,NA,NA,true,4,19,NA,NA,NA,right,n_l_047.jpg,red,green,NA,NA,NA,NA,NA,NA,NA,NA,NA,NaN,NA,878.7999999523163,right,1,NA,NA,NA,NA,NA
7gN90a1c,3z8ujejod2q8a85trwhk37uqvoc39x,3dqq64tankysgdli97tlje1u2xowpa,7gN90a1c,2020-0188,2021-10-31,02:18:15,03:50:15,NA,incomplete,false,NA,NA,true,4,20,NA,NA,NA,left,n_l_052.jpg,black,white,NA,NA,NA,NA,NA,NA,NA,NA,NA,NaN,NA,1248.7000000476837,left,1,NA,NA,NA,NA,NA
7gN90a1c,3z8ujejod2q8a85trwhk37uqvoc39x,3dqq64tankysgdli97tlje1u2xowpa,7gN90a1c,2020-0188,2021-10-31,02:18:15,03:50:15,NA,incomplete,false,NA,NA,true,4,21,NA,NA,NA,right,m_s_011.jpg,purple,white,NA,NA,NA,NA,NA,NA,NA,NA,NA,NaN,NA,959.4000000953674,right,1,NA,NA,NA,NA,NA
7gN90a1c,3z8ujejod2q8a85trwhk37uqvoc39x,3dqq64tankysgdli97tlje1u2xowpa,7gN90a1c,2020-0188,2021-10-31,02:18:15,03:50:15,NA,incomplete,false,NA,true,NA,4,0,NA,NA,NA,left,NA,NA,NA,present,NA,NA,m_s_011.jpg,white,n_s_104.jpg,black,between,NA,NaN,NA,NA,NA,NA,right,1677.0999999046326,0,0,3707.2999999523163
7gN90a1c,3z8ujejod2q8a85trwhk37uqvoc39x,3dqq64tankysgdli97tlje1u2xowpa,7gN90a1c,2020-0188,2021-10-31,02:18:15,03:50:15,NA,incomplete,false,NA,true,NA,4,1,NA,NA,NA,right,NA,NA,NA,present,NA,NA,n_s_096.jpg,red,n_l_005.jpg,red,within,NA,NaN,NA,NA,NA,NA,right,1584.0999999046326,1,1,1597.5
7gN90a1c,3z8ujejod2q8a85trwhk37uqvoc39x,3dqq64tankysgdli97tlje1u2xowpa,7gN90a1c,2020-0188,2021-10-31,02:18:15,03:50:15,NA,incomplete,false,NA,true,NA,4,2,NA,NA,NA,right,NA,NA,NA,present,NA,NA,n_s_048.jpg,white,n_l_063.jpg,purple,between,NA,NaN,NA,NA,NA,NA,right,1527.2999999523163,1,1,1627.0999999046326
7gN90a1c,3z8ujejod2q8a85trwhk37uqvoc39x,3dqq64tankysgdli97tlje1u2xowpa,7gN90a1c,2020-0188,2021-10-31,02:18:15,03:50:15,NA,incomplete,false,NA,true,NA,4,3,NA,NA,NA,left,NA,NA,NA,present,NA,NA,m_l_008.jpg,black,m_l_078.jpg,black,within,NA,NaN,NA,NA,NA,NA,right,1517.2999999523163,0,1,1517.3999998569489
7gN90a1c,3z8ujejod2q8a85trwhk37uqvoc39x,3dqq64tankysgdli97tlje1u2xowpa,7gN90a1c,2020-0188,2021-10-31,02:18:15,03:50:15,NA,incomplete,false,NA,true,NA,4,4,NA,NA,NA,right,NA,NA,NA,present,NA,NA,n_l_047.jpg,green,n_s_105.jpg,green,within,NA,NaN,NA,NA,NA,NA,right,1447.5,1,0,1317.1999998092651
7gN90a1c,3z8ujejod2q8a85trwhk37uqvoc39x,3dqq64tankysgdli97tlje1u2xowpa,7gN90a1c,2020-0188,2021-10-31,02:18:15,03:50:15,NA,incomplete,false,NA,true,NA,4,5,NA,NA,NA,left,NA,NA,NA,present,NA,NA,n_l_106.jpg,white,m_s_111.jpg,white,within,NA,NaN,NA,NA,NA,NA,right,1587.5999999046326,0,0,1177.2999999523163
7gN90a1c,3z8ujejod2q8a85trwhk37uqvoc39x,3dqq64tankysgdli97tlje1u2xowpa,7gN90a1c,2020-0188,2021-10-31,02:18:15,03:50:15,NA,incomplete,false,NA,true,NA,4,6,NA,NA,NA,right,NA,NA,NA,present,NA,NA,n_s_023.jpg,purple,n_l_008.jpg,green,between,NA,NaN,NA,NA,NA,NA,right,1657.4000000953674,1,0,1228.8000001907349
7gN90a1c,3z8ujejod2q8a85trwhk37uqvoc39x,3dqq64tankysgdli97tlje1u2xowpa,7gN90a1c,2020-0188,2021-10-31,02:18:15,03:50:15,NA,incomplete,false,NA,true,NA,4,7,NA,NA,NA,right,NA,NA,NA,present,NA,NA,m_l_045.jpg,yellow,m_l_067.jpg,yellow,within,NA,NaN,NA,NA,NA,NA,right,1788.4000000953674,1,0,1649.2000000476837
7gN90a1c,3z8ujejod2q8a85trwhk37uqvoc39x,3dqq64tankysgdli97tlje1u2xowpa,7gN90a1c,2020-0188,2021-10-31,02:18:15,03:50:15,NA,incomplete,false,NA,true,NA,4,8,NA,NA,NA,left,NA,NA,NA,present,NA,NA,m_l_070.jpg,purple,m_l_065.jpg,purple,within,NA,NaN,NA,NA,NA,NA,right,1528.8999998569489,0,0,2679.100000143051
7gN90a1c,3z8ujejod2q8a85trwhk37uqvoc39x,3dqq64tankysgdli97tlje1u2xowpa,7gN90a1c,2020-0188,2021-10-31,02:18:15,03:50:15,NA,incomplete,false,NA,true,NA,4,9,NA,NA,NA,left,NA,NA,NA,present,NA,NA,m_s_022.jpg,red,m_s_014.jpg,green,between,NA,NaN,NA,NA,NA,NA,right,1638.7999999523163,0,0,1298.9000000953674
7gN90a1c,3z8ujejod2q8a85trwhk37uqvoc39x,3dqq64tankysgdli97tlje1u2xowpa,7gN90a1c,2020-0188,2021-10-31,02:18:15,03:50:15,NA,incomplete,false,NA,true,NA,4,10,NA,NA,NA,right,NA,NA,NA,present,NA,NA,n_l_101.jpg,yellow,n_l_052.jpg,black,between,NA,NaN,NA,NA,NA,NA,right,1599.1000001430511,1,0,1289.7000000476837
7gN90a1c,3z8ujejod2q8a85trwhk37uqvoc39x,3dqq64tankysgdli97tlje1u2xowpa,7gN90a1c,2020-0188,2021-10-31,02:18:15,03:50:15,NA,incomplete,false,true,NA,NA,5,0,NA,brown,n_s_038.jpg,NA,NA,NA,NA,NA,unpleasant,pleasant,NA,NA,NA,NA,NA,none,0,false,NA,NA,NA,NA,NA,NA,NA,NA
7gN90a1c,3z8ujejod2q8a85trwhk37uqvoc39x,3dqq64tankysgdli97tlje1u2xowpa,7gN90a1c,2020-0188,2021-10-31,02:18:15,03:50:15,NA,incomplete,false,true,NA,NA,5,1,NA,brown,m_l_116.jpg,NA,NA,NA,NA,NA,unpleasant,pleasant,NA,NA,NA,NA,NA,none,0,false,NA,NA,NA,NA,NA,NA,NA,NA
7gN90a1c,3z8ujejod2q8a85trwhk37uqvoc39x,3dqq64tankysgdli97tlje1u2xowpa,7gN90a1c,2020-0188,2021-10-31,02:18:15,03:50:15,NA,incomplete,false,true,NA,NA,5,2,NA,brown,m_l_018.jpg,NA,NA,NA,NA,NA,unpleasant,pleasant,NA,NA,NA,NA,NA,none,0,false,NA,NA,NA,NA,NA,NA,NA,NA
7gN90a1c,3z8ujejod2q8a85trwhk37uqvoc39x,3dqq64tankysgdli97tlje1u2xowpa,7gN90a1c,2020-0188,2021-10-31,02:18:15,03:50:15,NA,incomplete,false,true,NA,NA,5,3,NA,brown,m_s_061.jpg,NA,NA,NA,NA,NA,unpleasant,pleasant,NA,NA,NA,NA,NA,none,0,false,NA,NA,NA,NA,NA,NA,NA,NA
7gN90a1c,3z8ujejod2q8a85trwhk37uqvoc39x,3dqq64tankysgdli97tlje1u2xowpa,7gN90a1c,2020-0188,2021-10-31,02:18:15,03:50:15,NA,incomplete,false,true,NA,NA,5,4,NA,brown,m_l_063.jpg,NA,NA,NA,NA,NA,unpleasant,pleasant,NA,NA,NA,NA,NA,none,0,false,NA,NA,NA,NA,NA,NA,NA,NA
7gN90a1c,3z8ujejod2q8a85trwhk37uqvoc39x,3dqq64tankysgdli97tlje1u2xowpa,7gN90a1c,2020-0188,2021-10-31,02:18:15,03:50:15,NA,incomplete,false,true,NA,NA,5,5,NA,brown,n_l_056.jpg,NA,NA,NA,NA,NA,pleasant,unpleasant,NA,NA,NA,NA,NA,none,0,false,NA,NA,NA,NA,NA,NA,NA,NA
7gN90a1c,3z8ujejod2q8a85trwhk37uqvoc39x,3dqq64tankysgdli97tlje1u2xowpa,7gN90a1c,2020-0188,2021-10-31,02:18:15,03:50:15,NA,incomplete,false,true,NA,NA,5,6,NA,green,n_l_074.jpg,NA,NA,NA,NA,NA,pleasant,unpleasant,NA,NA,NA,NA,NA,none,0,false,NA,NA,NA,NA,NA,NA,NA,NA
7gN90a1c,3z8ujejod2q8a85trwhk37uqvoc39x,3dqq64tankysgdli97tlje1u2xowpa,7gN90a1c,2020-0188,2021-10-31,02:18:15,03:50:15,NA,incomplete,false,true,NA,NA,5,7,NA,green,n_l_016.jpg,NA,NA,NA,NA,NA,pleasant,unpleasant,NA,NA,NA,NA,NA,none,0,false,NA,NA,NA,NA,NA,NA,NA,NA
7gN90a1c,3z8ujejod2q8a85trwhk37uqvoc39x,3dqq64tankysgdli97tlje1u2xowpa,7gN90a1c,2020-0188,2021-10-31,02:18:15,03:50:15,NA,incomplete,false,true,NA,NA,5,8,NA,green,n_l_015.jpg,NA,NA,NA,NA,NA,pleasant,unpleasant,NA,NA,NA,NA,NA,none,0,false,NA,NA,NA,NA,NA,NA,NA,NA
7gN90a1c,3z8ujejod2q8a85trwhk37uqvoc39x,3dqq64tankysgdli97tlje1u2xowpa,7gN90a1c,2020-0188,2021-10-31,02:18:15,03:50:15,NA,incomplete,false,true,NA,NA,5,9,NA,green,m_l_072.jpg,NA,NA,NA,NA,NA,pleasant,unpleasant,NA,NA,NA,NA,NA,none,0,false,NA,NA,NA,NA,NA,NA,NA,NA
7gN90a1c,3z8ujejod2q8a85trwhk37uqvoc39x,3dqq64tankysgdli97tlje1u2xowpa,7gN90a1c,2020-0188,2021-10-31,02:18:15,03:50:15,NA,incomplete,false,true,NA,NA,5,10,NA,green,n_l_049.jpg,NA,NA,NA,NA,NA,unpleasant,pleasant,NA,NA,NA,NA,NA,none,0,false,NA,NA,NA,NA,NA,NA,NA,NA
7gN90a1c,3z8ujejod2q8a85trwhk37uqvoc39x,3dqq64tankysgdli97tlje1u2xowpa,7gN90a1c,2020-0188,2021-10-31,02:18:15,03:50:15,NA,incomplete,false,true,NA,NA,5,11,NA,green,n_s_109.jpg,NA,NA,NA,NA,NA,unpleasant,pleasant,NA,NA,NA,NA,NA,none,0,false,NA,NA,NA,NA,NA,NA,NA,NA
7gN90a1c,3z8ujejod2q8a85trwhk37uqvoc39x,3dqq64tankysgdli97tlje1u2xowpa,7gN90a1c,2020-0188,2021-10-31,02:18:15,03:50:15,NA,incomplete,false,true,NA,NA,5,12,NA,yellow,n_s_115.jpg,NA,NA,NA,NA,NA,unpleasant,pleasant,NA,NA,NA,NA,NA,none,0,false,NA,NA,NA,NA,NA,NA,NA,NA
7gN90a1c,3z8ujejod2q8a85trwhk37uqvoc39x,3dqq64tankysgdli97tlje1u2xowpa,7gN90a1c,2020-0188,2021-10-31,02:18:15,03:50:15,NA,incomplete,false,true,NA,NA,5,13,NA,yellow,m_l_059.jpg,NA,NA,NA,NA,NA,pleasant,unpleasant,NA,NA,NA,NA,NA,none,0,false,NA,NA,NA,NA,NA,NA,NA,NA
7gN90a1c,3z8ujejod2q8a85trwhk37uqvoc39x,3dqq64tankysgdli97tlje1u2xowpa,7gN90a1c,2020-0188,2021-10-31,02:18:15,03:50:15,NA,incomplete,false,true,NA,NA,5,14,NA,yellow,m_s_105.jpg,NA,NA,NA,NA,NA,unpleasant,pleasant,NA,NA,NA,NA,NA,none,0,false,NA,NA,NA,NA,NA,NA,NA,NA
7gN90a1c,3z8ujejod2q8a85trwhk37uqvoc39x,3dqq64tankysgdli97tlje1u2xowpa,7gN90a1c,2020-0188,2021-10-31,02:18:15,03:50:15,NA,incomplete,false,true,NA,NA,5,15,NA,yellow,m_s_006.jpg,NA,NA,NA,NA,NA,pleasant,unpleasant,NA,NA,NA,NA,NA,none,0,false,NA,NA,NA,NA,NA,NA,NA,NA
7gN90a1c,3z8ujejod2q8a85trwhk37uqvoc39x,3dqq64tankysgdli97tlje1u2xowpa,7gN90a1c,2020-0188,2021-10-31,02:18:15,03:50:15,NA,incomplete,false,true,NA,NA,5,16,NA,yellow,n_l_030.jpg,NA,NA,NA,NA,NA,unpleasant,pleasant,NA,NA,NA,NA,NA,none,0,false,NA,NA,NA,NA,NA,NA,NA,NA
7gN90a1c,3z8ujejod2q8a85trwhk37uqvoc39x,3dqq64tankysgdli97tlje1u2xowpa,7gN90a1c,2020-0188,2021-10-31,02:18:15,03:50:15,NA,incomplete,false,true,NA,NA,5,17,NA,yellow,m_l_020.jpg,NA,NA,NA,NA,NA,pleasant,unpleasant,NA,NA,NA,NA,NA,none,0,false,NA,NA,NA,NA,NA,NA,NA,NA
7gN90a1c,3z8ujejod2q8a85trwhk37uqvoc39x,3dqq64tankysgdli97tlje1u2xowpa,7gN90a1c,2020-0188,2021-10-31,02:18:15,03:50:15,NA,incomplete,false,true,NA,NA,5,18,NA,orange,m_l_012.jpg,NA,NA,NA,NA,NA,pleasant,unpleasant,NA,NA,NA,NA,NA,none,0,false,NA,NA,NA,NA,NA,NA,NA,NA
7gN90a1c,3z8ujejod2q8a85trwhk37uqvoc39x,3dqq64tankysgdli97tlje1u2xowpa,7gN90a1c,2020-0188,2021-10-31,02:18:15,03:50:15,NA,incomplete,false,true,NA,NA,5,19,NA,orange,m_s_039.jpg,NA,NA,NA,NA,NA,pleasant,unpleasant,NA,NA,NA,NA,NA,none,0,false,NA,NA,NA,NA,NA,NA,NA,NA
7gN90a1c,3z8ujejod2q8a85trwhk37uqvoc39x,3dqq64tankysgdli97tlje1u2xowpa,7gN90a1c,2020-0188,2021-10-31,02:18:15,03:50:15,NA,incomplete,false,true,NA,NA,5,20,NA,orange,n_s_076.jpg,NA,NA,NA,NA,NA,unpleasant,pleasant,NA,NA,NA,NA,NA,none,0,false,NA,NA,NA,NA,NA,NA,NA,NA
7gN90a1c,3z8ujejod2q8a85trwhk37uqvoc39x,3dqq64tankysgdli97tlje1u2xowpa,7gN90a1c,2020-0188,2021-10-31,02:18:15,03:50:15,NA,incomplete,false,true,NA,NA,5,21,NA,orange,m_s_049.jpg,NA,NA,NA,NA,NA,pleasant,unpleasant,NA,NA,NA,NA,NA,none,0,false,NA,NA,NA,NA,NA,NA,NA,NA
