workerId,hitId,assignmentId,subject,studyid,exp_date,exp_start,exp_end,time_start,time_end,practice,encoding,memory,association,block,trial,event_order,event,stim,answer,object,left_context,right_context,context_type,label_left,label_right,left_image,left_event,right_image,right_event,condition,response,response_time,response_acc,association_response_time,association_response,association_acc,order_response,order_response_time,order_acc,distance_response,distance_response_time
9fF3vH6P,3bakuke4akpi45n0y93n6zfn3q3r1f,3ffj6vril517r1xt35ag3mrefel0i7,9fF3vH6P,2020-0188,2021-10-31,06:38:15,08:10:43,NA,incomplete,true,true,NA,NA,0,0,NA,red,m_s_070.jpg,NA,NA,NA,NA,NA,pleasant,unpleasant,NA,NA,NA,NA,NA,none,0,false,NA,NA,NA,NA,NA,NA,NA,NA
9fF3vH6P,3bakuke4akpi45n0y93n6zfn3q3r1f,3ffj6vril517r1xt35ag3mrefel0i7,9fF3vH6P,2020-0188,2021-10-31,06:38:15,08:10:43,NA,incomplete,true,true,NA,NA,0,1,NA,red,m_s_041.jpg,NA,NA,NA,NA,NA,unpleasant,pleasant,NA,NA,NA,NA,NA,right,2089.80000001192,true,NA,NA,NA,NA,NA,NA,NA,NA
9fF3vH6P,3bakuke4akpi45n0y93n6zfn3q3r1f,3ffj6vril517r1xt35ag3mrefel0i7,9fF3vH6P,2020-0188,2021-10-31,06:38:15,08:10:43,NA,incomplete,true,true,NA,NA,0,2,NA,red,m_l_111.jpg,NA,NA,NA,NA,NA,pleasant,unpleasant,NA,NA,NA,NA,NA,right,1446,true,NA,NA,NA,NA,NA,NA,NA,NA
9fF3vH6P,3bakuke4akpi45n0y93n6zfn3q3r1f,3ffj6vril517r1xt35ag3mrefel0i7,9fF3vH6P,2020-0188,2021-10-31,06:38:15,08:10:43,NA,incomplete,true,true,NA,NA,0,3,NA,red,m_l_094.jpg,NA,NA,NA,NA,NA,pleasant,unpleasant,NA,NA,NA,NA,NA,right,2166.90000003576,true,NA,NA,NA,NA,NA,NA,NA,NA
9fF3vH6P,3bakuke4akpi45n0y93n6zfn3q3r1f,3ffj6vril517r1xt35ag3mrefel0i7,9fF3vH6P,2020-0188,2021-10-31,06:38:15,08:10:43,NA,incomplete,true,true,NA,NA,0,4,NA,red,n_s_100.jpg,NA,NA,NA,NA,NA,unpleasant,pleasant,NA,NA,NA,NA,NA,right,1761.89999997616,true,NA,NA,NA,NA,NA,NA,NA,NA
9fF3vH6P,3bakuke4akpi45n0y93n6zfn3q3r1f,3ffj6vril517r1xt35ag3mrefel0i7,9fF3vH6P,2020-0188,2021-10-31,06:38:15,08:10:43,NA,incomplete,true,true,NA,NA,0,5,NA,red,m_s_064.jpg,NA,NA,NA,NA,NA,unpleasant,pleasant,NA,NA,NA,NA,NA,left,2266.60000002384,true,NA,NA,NA,NA,NA,NA,NA,NA
9fF3vH6P,3bakuke4akpi45n0y93n6zfn3q3r1f,3ffj6vril517r1xt35ag3mrefel0i7,9fF3vH6P,2020-0188,2021-10-31,06:38:15,08:10:43,NA,incomplete,true,true,NA,NA,0,6,NA,brown,n_s_104.jpg,NA,NA,NA,NA,NA,pleasant,unpleasant,NA,NA,NA,NA,NA,left,1223.59999996424,true,NA,NA,NA,NA,NA,NA,NA,NA
9fF3vH6P,3bakuke4akpi45n0y93n6zfn3q3r1f,3ffj6vril517r1xt35ag3mrefel0i7,9fF3vH6P,2020-0188,2021-10-31,06:38:15,08:10:43,NA,incomplete,true,true,NA,NA,0,7,NA,brown,m_l_070.jpg,NA,NA,NA,NA,NA,unpleasant,pleasant,NA,NA,NA,NA,NA,right,997.700000047684,true,NA,NA,NA,NA,NA,NA,NA,NA
9fF3vH6P,3bakuke4akpi45n0y93n6zfn3q3r1f,3ffj6vril517r1xt35ag3mrefel0i7,9fF3vH6P,2020-0188,2021-10-31,06:38:15,08:10:43,NA,incomplete,true,true,NA,NA,0,8,NA,brown,n_l_029.jpg,NA,NA,NA,NA,NA,pleasant,unpleasant,NA,NA,NA,NA,NA,right,727.699999988079,true,NA,NA,NA,NA,NA,NA,NA,NA
9fF3vH6P,3bakuke4akpi45n0y93n6zfn3q3r1f,3ffj6vril517r1xt35ag3mrefel0i7,9fF3vH6P,2020-0188,2021-10-31,06:38:15,08:10:43,NA,incomplete,true,true,NA,NA,0,9,NA,brown,n_s_019.jpg,NA,NA,NA,NA,NA,unpleasant,pleasant,NA,NA,NA,NA,NA,left,1643.5,true,NA,NA,NA,NA,NA,NA,NA,NA
9fF3vH6P,3bakuke4akpi45n0y93n6zfn3q3r1f,3ffj6vril517r1xt35ag3mrefel0i7,9fF3vH6P,2020-0188,2021-10-31,06:38:15,08:10:43,NA,incomplete,true,true,NA,NA,0,10,NA,brown,n_l_026.jpg,NA,NA,NA,NA,NA,unpleasant,pleasant,NA,NA,NA,NA,NA,right,884,true,NA,NA,NA,NA,NA,NA,NA,NA
9fF3vH6P,3bakuke4akpi45n0y93n6zfn3q3r1f,3ffj6vril517r1xt35ag3mrefel0i7,9fF3vH6P,2020-0188,2021-10-31,06:38:15,08:10:43,NA,incomplete,true,true,NA,NA,0,11,NA,brown,m_s_062.jpg,NA,NA,NA,NA,NA,unpleasant,pleasant,NA,NA,NA,NA,NA,left,936.600000023842,true,NA,NA,NA,NA,NA,NA,NA,NA
9fF3vH6P,3bakuke4akpi45n0y93n6zfn3q3r1f,3ffj6vril517r1xt35ag3mrefel0i7,9fF3vH6P,2020-0188,2021-10-31,06:38:15,08:10:43,NA,incomplete,true,true,NA,NA,0,12,NA,yellow,n_s_031.jpg,NA,NA,NA,NA,NA,pleasant,unpleasant,NA,NA,NA,NA,NA,left,1534.19999998808,true,NA,NA,NA,NA,NA,NA,NA,NA
9fF3vH6P,3bakuke4akpi45n0y93n6zfn3q3r1f,3ffj6vril517r1xt35ag3mrefel0i7,9fF3vH6P,2020-0188,2021-10-31,06:38:15,08:10:43,NA,incomplete,true,true,NA,NA,0,13,NA,yellow,n_s_055.jpg,NA,NA,NA,NA,NA,pleasant,unpleasant,NA,NA,NA,NA,NA,right,1203.30000001192,true,NA,NA,NA,NA,NA,NA,NA,NA
9fF3vH6P,3bakuke4akpi45n0y93n6zfn3q3r1f,3ffj6vril517r1xt35ag3mrefel0i7,9fF3vH6P,2020-0188,2021-10-31,06:38:15,08:10:43,NA,incomplete,true,true,NA,NA,0,14,NA,yellow,n_l_044.jpg,NA,NA,NA,NA,NA,unpleasant,pleasant,NA,NA,NA,NA,NA,right,1220.10000002384,true,NA,NA,NA,NA,NA,NA,NA,NA
9fF3vH6P,3bakuke4akpi45n0y93n6zfn3q3r1f,3ffj6vril517r1xt35ag3mrefel0i7,9fF3vH6P,2020-0188,2021-10-31,06:38:15,08:10:43,NA,incomplete,true,true,NA,NA,0,15,NA,yellow,n_s_046.jpg,NA,NA,NA,NA,NA,pleasant,unpleasant,NA,NA,NA,NA,NA,right,1126.20000004768,true,NA,NA,NA,NA,NA,NA,NA,NA
9fF3vH6P,3bakuke4akpi45n0y93n6zfn3q3r1f,3ffj6vril517r1xt35ag3mrefel0i7,9fF3vH6P,2020-0188,2021-10-31,06:38:15,08:10:43,NA,incomplete,true,true,NA,NA,0,16,NA,yellow,n_s_018.jpg,NA,NA,NA,NA,NA,pleasant,unpleasant,NA,NA,NA,NA,NA,right,719.600000023842,true,NA,NA,NA,NA,NA,NA,NA,NA
9fF3vH6P,3bakuke4akpi45n0y93n6zfn3q3r1f,3ffj6vril517r1xt35ag3mrefel0i7,9fF3vH6P,2020-0188,2021-10-31,06:38:15,08:10:43,NA,incomplete,true,true,NA,NA,0,17,NA,yellow,m_s_024.jpg,NA,NA,NA,NA,NA,pleasant,unpleasant,NA,NA,NA,NA,NA,left,1583.90000003576,true,NA,NA,NA,NA,NA,NA,NA,NA
9fF3vH6P,3bakuke4akpi45n0y93n6zfn3q3r1f,3ffj6vril517r1xt35ag3mrefel0i7,9fF3vH6P,2020-0188,2021-10-31,06:38:15,08:10:43,NA,incomplete,true,true,NA,NA,0,18,NA,gray,n_s_106.jpg,NA,NA,NA,NA,NA,unpleasant,pleasant,NA,NA,NA,NA,NA,right,1352.5,true,NA,NA,NA,NA,NA,NA,NA,NA
9fF3vH6P,3bakuke4akpi45n0y93n6zfn3q3r1f,3ffj6vril517r1xt35ag3mrefel0i7,9fF3vH6P,2020-0188,2021-10-31,06:38:15,08:10:43,NA,incomplete,true,true,NA,NA,0,19,NA,gray,m_s_033.jpg,NA,NA,NA,NA,NA,unpleasant,pleasant,NA,NA,NA,NA,NA,right,1116.89999997616,true,NA,NA,NA,NA,NA,NA,NA,NA
9fF3vH6P,3bakuke4akpi45n0y93n6zfn3q3r1f,3ffj6vril517r1xt35ag3mrefel0i7,9fF3vH6P,2020-0188,2021-10-31,06:38:15,08:10:43,NA,incomplete,true,true,NA,NA,0,20,NA,gray,m_s_074.jpg,NA,NA,NA,NA,NA,pleasant,unpleasant,NA,NA,NA,NA,NA,left,1445.80000001192,true,NA,NA,NA,NA,NA,NA,NA,NA
9fF3vH6P,3bakuke4akpi45n0y93n6zfn3q3r1f,3ffj6vril517r1xt35ag3mrefel0i7,9fF3vH6P,2020-0188,2021-10-31,06:38:15,08:10:43,NA,incomplete,true,true,NA,NA,0,21,NA,gray,m_s_104.jpg,NA,NA,NA,NA,NA,pleasant,unpleasant,NA,NA,NA,NA,NA,left,911.300000011921,true,NA,NA,NA,NA,NA,NA,NA,NA
9fF3vH6P,3bakuke4akpi45n0y93n6zfn3q3r1f,3ffj6vril517r1xt35ag3mrefel0i7,9fF3vH6P,2020-0188,2021-10-31,06:38:15,08:10:43,NA,incomplete,true,true,NA,NA,0,22,NA,gray,m_l_036.jpg,NA,NA,NA,NA,NA,pleasant,unpleasant,NA,NA,NA,NA,NA,right,1424.80000001192,true,NA,NA,NA,NA,NA,NA,NA,NA
9fF3vH6P,3bakuke4akpi45n0y93n6zfn3q3r1f,3ffj6vril517r1xt35ag3mrefel0i7,9fF3vH6P,2020-0188,2021-10-31,06:38:15,08:10:43,NA,incomplete,true,true,NA,NA,0,23,NA,gray,n_l_115.jpg,NA,NA,NA,NA,NA,unpleasant,pleasant,NA,NA,NA,NA,NA,right,1810.89999997616,true,NA,NA,NA,NA,NA,NA,NA,NA
9fF3vH6P,3bakuke4akpi45n0y93n6zfn3q3r1f,3ffj6vril517r1xt35ag3mrefel0i7,9fF3vH6P,2020-0188,2021-10-31,06:38:15,08:10:43,NA,incomplete,true,true,NA,NA,0,24,NA,green,n_s_059.jpg,NA,NA,NA,NA,NA,pleasant,unpleasant,NA,NA,NA,NA,NA,right,1412.19999998808,true,NA,NA,NA,NA,NA,NA,NA,NA
9fF3vH6P,3bakuke4akpi45n0y93n6zfn3q3r1f,3ffj6vril517r1xt35ag3mrefel0i7,9fF3vH6P,2020-0188,2021-10-31,06:38:15,08:10:43,NA,incomplete,true,true,NA,NA,0,25,NA,green,m_s_022.jpg,NA,NA,NA,NA,NA,pleasant,unpleasant,NA,NA,NA,NA,NA,left,2196.69999998808,true,NA,NA,NA,NA,NA,NA,NA,NA
9fF3vH6P,3bakuke4akpi45n0y93n6zfn3q3r1f,3ffj6vril517r1xt35ag3mrefel0i7,9fF3vH6P,2020-0188,2021-10-31,06:38:15,08:10:43,NA,incomplete,true,true,NA,NA,0,26,NA,green,m_s_004.jpg,NA,NA,NA,NA,NA,pleasant,unpleasant,NA,NA,NA,NA,NA,left,1191.80000001192,true,NA,NA,NA,NA,NA,NA,NA,NA
9fF3vH6P,3bakuke4akpi45n0y93n6zfn3q3r1f,3ffj6vril517r1xt35ag3mrefel0i7,9fF3vH6P,2020-0188,2021-10-31,06:38:15,08:10:43,NA,incomplete,true,true,NA,NA,0,27,NA,green,n_s_093.jpg,NA,NA,NA,NA,NA,pleasant,unpleasant,NA,NA,NA,NA,NA,right,1332.5,true,NA,NA,NA,NA,NA,NA,NA,NA
9fF3vH6P,3bakuke4akpi45n0y93n6zfn3q3r1f,3ffj6vril517r1xt35ag3mrefel0i7,9fF3vH6P,2020-0188,2021-10-31,06:38:15,08:10:43,NA,incomplete,true,true,NA,NA,0,28,NA,green,m_s_101.jpg,NA,NA,NA,NA,NA,pleasant,unpleasant,NA,NA,NA,NA,NA,left,1275.5,true,NA,NA,NA,NA,NA,NA,NA,NA
9fF3vH6P,3bakuke4akpi45n0y93n6zfn3q3r1f,3ffj6vril517r1xt35ag3mrefel0i7,9fF3vH6P,2020-0188,2021-10-31,06:38:15,08:10:43,NA,incomplete,true,true,NA,NA,0,29,NA,green,m_s_098.jpg,NA,NA,NA,NA,NA,unpleasant,pleasant,NA,NA,NA,NA,NA,left,1064.30000001192,true,NA,NA,NA,NA,NA,NA,NA,NA
9fF3vH6P,3bakuke4akpi45n0y93n6zfn3q3r1f,3ffj6vril517r1xt35ag3mrefel0i7,9fF3vH6P,2020-0188,2021-10-31,06:38:15,08:10:43,NA,incomplete,true,true,NA,NA,0,30,NA,purple,m_l_057.jpg,NA,NA,NA,NA,NA,pleasant,unpleasant,NA,NA,NA,NA,NA,right,1604.10000002384,true,NA,NA,NA,NA,NA,NA,NA,NA
9fF3vH6P,3bakuke4akpi45n0y93n6zfn3q3r1f,3ffj6vril517r1xt35ag3mrefel0i7,9fF3vH6P,2020-0188,2021-10-31,06:38:15,08:10:43,NA,incomplete,true,true,NA,NA,0,31,NA,purple,m_l_048.jpg,NA,NA,NA,NA,NA,unpleasant,pleasant,NA,NA,NA,NA,NA,right,1206.30000001192,true,NA,NA,NA,NA,NA,NA,NA,NA
9fF3vH6P,3bakuke4akpi45n0y93n6zfn3q3r1f,3ffj6vril517r1xt35ag3mrefel0i7,9fF3vH6P,2020-0188,2021-10-31,06:38:15,08:10:43,NA,incomplete,true,true,NA,NA,0,32,NA,purple,m_l_109.jpg,NA,NA,NA,NA,NA,pleasant,unpleasant,NA,NA,NA,NA,NA,right,685.899999976158,true,NA,NA,NA,NA,NA,NA,NA,NA
9fF3vH6P,3bakuke4akpi45n0y93n6zfn3q3r1f,3ffj6vril517r1xt35ag3mrefel0i7,9fF3vH6P,2020-0188,2021-10-31,06:38:15,08:10:43,NA,incomplete,true,true,NA,NA,0,33,NA,purple,m_l_101.jpg,NA,NA,NA,NA,NA,unpleasant,pleasant,NA,NA,NA,NA,NA,right,1914.69999998808,true,NA,NA,NA,NA,NA,NA,NA,NA
9fF3vH6P,3bakuke4akpi45n0y93n6zfn3q3r1f,3ffj6vril517r1xt35ag3mrefel0i7,9fF3vH6P,2020-0188,2021-10-31,06:38:15,08:10:43,NA,incomplete,true,true,NA,NA,0,34,NA,purple,m_s_007.jpg,NA,NA,NA,NA,NA,pleasant,unpleasant,NA,NA,NA,NA,NA,left,1437.69999998808,true,NA,NA,NA,NA,NA,NA,NA,NA
9fF3vH6P,3bakuke4akpi45n0y93n6zfn3q3r1f,3ffj6vril517r1xt35ag3mrefel0i7,9fF3vH6P,2020-0188,2021-10-31,06:38:15,08:10:43,NA,incomplete,true,true,NA,NA,0,35,NA,purple,m_s_043.jpg,NA,NA,NA,NA,NA,pleasant,unpleasant,NA,NA,NA,NA,NA,right,1297.59999996424,true,NA,NA,NA,NA,NA,NA,NA,NA
9fF3vH6P,3bakuke4akpi45n0y93n6zfn3q3r1f,3ffj6vril517r1xt35ag3mrefel0i7,9fF3vH6P,2020-0188,2021-10-31,06:38:15,08:10:43,NA,incomplete,true,NA,NA,true,0,0,NA,NA,NA,right,n_s_100.jpg,brown,red,NA,NA,NA,NA,NA,NA,NA,NA,NA,NaN,NA,5242.399999976158,right,1,NA,NA,NA,NA,NA
9fF3vH6P,3bakuke4akpi45n0y93n6zfn3q3r1f,3ffj6vril517r1xt35ag3mrefel0i7,9fF3vH6P,2020-0188,2021-10-31,06:38:15,08:10:43,NA,incomplete,true,NA,NA,true,0,1,NA,NA,NA,right,m_s_098.jpg,gray,green,NA,NA,NA,NA,NA,NA,NA,NA,NA,NaN,NA,2614,right,1,NA,NA,NA,NA,NA
9fF3vH6P,3bakuke4akpi45n0y93n6zfn3q3r1f,3ffj6vril517r1xt35ag3mrefel0i7,9fF3vH6P,2020-0188,2021-10-31,06:38:15,08:10:43,NA,incomplete,true,NA,NA,true,0,2,NA,NA,NA,right,m_s_033.jpg,green,gray,NA,NA,NA,NA,NA,NA,NA,NA,NA,NaN,NA,2322.800000011921,left,0,NA,NA,NA,NA,NA
9fF3vH6P,3bakuke4akpi45n0y93n6zfn3q3r1f,3ffj6vril517r1xt35ag3mrefel0i7,9fF3vH6P,2020-0188,2021-10-31,06:38:15,08:10:43,NA,incomplete,true,NA,NA,true,0,3,NA,NA,NA,right,m_s_074.jpg,yellow,gray,NA,NA,NA,NA,NA,NA,NA,NA,NA,NaN,NA,2591.699999988079,right,1,NA,NA,NA,NA,NA
9fF3vH6P,3bakuke4akpi45n0y93n6zfn3q3r1f,3ffj6vril517r1xt35ag3mrefel0i7,9fF3vH6P,2020-0188,2021-10-31,06:38:15,08:10:43,NA,incomplete,true,NA,NA,true,0,4,NA,NA,NA,right,n_l_026.jpg,yellow,brown,NA,NA,NA,NA,NA,NA,NA,NA,NA,NaN,NA,1252.4000000357628,right,1,NA,NA,NA,NA,NA
9fF3vH6P,3bakuke4akpi45n0y93n6zfn3q3r1f,3ffj6vril517r1xt35ag3mrefel0i7,9fF3vH6P,2020-0188,2021-10-31,06:38:15,08:10:43,NA,incomplete,true,NA,NA,true,0,5,NA,NA,NA,right,m_l_036.jpg,green,gray,NA,NA,NA,NA,NA,NA,NA,NA,NA,NaN,NA,3915.699999988079,left,0,NA,NA,NA,NA,NA
9fF3vH6P,3bakuke4akpi45n0y93n6zfn3q3r1f,3ffj6vril517r1xt35ag3mrefel0i7,9fF3vH6P,2020-0188,2021-10-31,06:38:15,08:10:43,NA,incomplete,true,NA,NA,true,0,6,NA,NA,NA,right,m_l_109.jpg,green,purple,NA,NA,NA,NA,NA,NA,NA,NA,NA,NaN,NA,2336.899999976158,right,1,NA,NA,NA,NA,NA
9fF3vH6P,3bakuke4akpi45n0y93n6zfn3q3r1f,3ffj6vril517r1xt35ag3mrefel0i7,9fF3vH6P,2020-0188,2021-10-31,06:38:15,08:10:43,NA,incomplete,true,NA,NA,true,0,7,NA,NA,NA,left,m_l_070.jpg,brown,yellow,NA,NA,NA,NA,NA,NA,NA,NA,NA,NaN,NA,3288.099999964237,left,1,NA,NA,NA,NA,NA
9fF3vH6P,3bakuke4akpi45n0y93n6zfn3q3r1f,3ffj6vril517r1xt35ag3mrefel0i7,9fF3vH6P,2020-0188,2021-10-31,06:38:15,08:10:43,NA,incomplete,true,NA,NA,true,0,8,NA,NA,NA,right,n_l_029.jpg,red,brown,NA,NA,NA,NA,NA,NA,NA,NA,NA,NaN,NA,1683,right,1,NA,NA,NA,NA,NA
9fF3vH6P,3bakuke4akpi45n0y93n6zfn3q3r1f,3ffj6vril517r1xt35ag3mrefel0i7,9fF3vH6P,2020-0188,2021-10-31,06:38:15,08:10:43,NA,incomplete,true,NA,NA,true,0,9,NA,NA,NA,left,m_s_022.jpg,green,gray,NA,NA,NA,NA,NA,NA,NA,NA,NA,NaN,NA,2274.600000023842,left,1,NA,NA,NA,NA,NA
9fF3vH6P,3bakuke4akpi45n0y93n6zfn3q3r1f,3ffj6vril517r1xt35ag3mrefel0i7,9fF3vH6P,2020-0188,2021-10-31,06:38:15,08:10:43,NA,incomplete,true,NA,NA,true,0,10,NA,NA,NA,left,m_s_101.jpg,green,purple,NA,NA,NA,NA,NA,NA,NA,NA,NA,NaN,NA,1640.4000000357628,right,0,NA,NA,NA,NA,NA
9fF3vH6P,3bakuke4akpi45n0y93n6zfn3q3r1f,3ffj6vril517r1xt35ag3mrefel0i7,9fF3vH6P,2020-0188,2021-10-31,06:38:15,08:10:43,NA,incomplete,true,NA,NA,true,0,11,NA,NA,NA,right,m_l_048.jpg,green,purple,NA,NA,NA,NA,NA,NA,NA,NA,NA,NaN,NA,1794.1000000238419,right,1,NA,NA,NA,NA,NA
9fF3vH6P,3bakuke4akpi45n0y93n6zfn3q3r1f,3ffj6vril517r1xt35ag3mrefel0i7,9fF3vH6P,2020-0188,2021-10-31,06:38:15,08:10:43,NA,incomplete,true,NA,NA,true,0,12,NA,NA,NA,left,m_s_041.jpg,red,brown,NA,NA,NA,NA,NA,NA,NA,NA,NA,NaN,NA,2227.199999988079,right,0,NA,NA,NA,NA,NA
9fF3vH6P,3bakuke4akpi45n0y93n6zfn3q3r1f,3ffj6vril517r1xt35ag3mrefel0i7,9fF3vH6P,2020-0188,2021-10-31,06:38:15,08:10:43,NA,incomplete,true,NA,NA,true,0,13,NA,NA,NA,left,n_s_018.jpg,yellow,brown,NA,NA,NA,NA,NA,NA,NA,NA,NA,NaN,NA,3846.199999988079,left,1,NA,NA,NA,NA,NA
9fF3vH6P,3bakuke4akpi45n0y93n6zfn3q3r1f,3ffj6vril517r1xt35ag3mrefel0i7,9fF3vH6P,2020-0188,2021-10-31,06:38:15,08:10:43,NA,incomplete,true,NA,NA,true,0,14,NA,NA,NA,left,n_s_055.jpg,yellow,brown,NA,NA,NA,NA,NA,NA,NA,NA,NA,NaN,NA,2326.800000011921,left,1,NA,NA,NA,NA,NA
9fF3vH6P,3bakuke4akpi45n0y93n6zfn3q3r1f,3ffj6vril517r1xt35ag3mrefel0i7,9fF3vH6P,2020-0188,2021-10-31,06:38:15,08:10:43,NA,incomplete,true,NA,NA,true,0,15,NA,NA,NA,left,n_l_115.jpg,gray,green,NA,NA,NA,NA,NA,NA,NA,NA,NA,NaN,NA,2830.5,left,1,NA,NA,NA,NA,NA
9fF3vH6P,3bakuke4akpi45n0y93n6zfn3q3r1f,3ffj6vril517r1xt35ag3mrefel0i7,9fF3vH6P,2020-0188,2021-10-31,06:38:15,08:10:43,NA,incomplete,true,NA,NA,true,0,16,NA,NA,NA,left,m_s_064.jpg,red,brown,NA,NA,NA,NA,NA,NA,NA,NA,NA,NaN,NA,2608.300000011921,right,0,NA,NA,NA,NA,NA
9fF3vH6P,3bakuke4akpi45n0y93n6zfn3q3r1f,3ffj6vril517r1xt35ag3mrefel0i7,9fF3vH6P,2020-0188,2021-10-31,06:38:15,08:10:43,NA,incomplete,true,NA,NA,true,0,17,NA,NA,NA,left,m_s_062.jpg,brown,yellow,NA,NA,NA,NA,NA,NA,NA,NA,NA,NaN,NA,4053.199999988079,left,1,NA,NA,NA,NA,NA
9fF3vH6P,3bakuke4akpi45n0y93n6zfn3q3r1f,3ffj6vril517r1xt35ag3mrefel0i7,9fF3vH6P,2020-0188,2021-10-31,06:38:15,08:10:43,NA,incomplete,true,NA,NA,true,0,18,NA,NA,NA,right,m_s_024.jpg,brown,yellow,NA,NA,NA,NA,NA,NA,NA,NA,NA,NaN,NA,1641.9000000357628,right,1,NA,NA,NA,NA,NA
9fF3vH6P,3bakuke4akpi45n0y93n6zfn3q3r1f,3ffj6vril517r1xt35ag3mrefel0i7,9fF3vH6P,2020-0188,2021-10-31,06:38:15,08:10:43,NA,incomplete,true,NA,NA,true,0,19,NA,NA,NA,left,n_l_044.jpg,yellow,gray,NA,NA,NA,NA,NA,NA,NA,NA,NA,NaN,NA,1541.800000011921,right,0,NA,NA,NA,NA,NA
9fF3vH6P,3bakuke4akpi45n0y93n6zfn3q3r1f,3ffj6vril517r1xt35ag3mrefel0i7,9fF3vH6P,2020-0188,2021-10-31,06:38:15,08:10:43,NA,incomplete,true,NA,NA,true,0,20,NA,NA,NA,right,m_s_043.jpg,green,purple,NA,NA,NA,NA,NA,NA,NA,NA,NA,NaN,NA,2097.7000000476837,right,1,NA,NA,NA,NA,NA
9fF3vH6P,3bakuke4akpi45n0y93n6zfn3q3r1f,3ffj6vril517r1xt35ag3mrefel0i7,9fF3vH6P,2020-0188,2021-10-31,06:38:15,08:10:43,NA,incomplete,true,NA,NA,true,0,21,NA,NA,NA,left,m_s_004.jpg,green,gray,NA,NA,NA,NA,NA,NA,NA,NA,NA,NaN,NA,2160,left,1,NA,NA,NA,NA,NA
9fF3vH6P,3bakuke4akpi45n0y93n6zfn3q3r1f,3ffj6vril517r1xt35ag3mrefel0i7,9fF3vH6P,2020-0188,2021-10-31,06:38:15,08:10:43,NA,incomplete,true,NA,true,NA,0,0,NA,NA,NA,left,NA,NA,NA,present,NA,NA,n_s_055.jpg,yellow,m_s_024.jpg,yellow,within,NA,NaN,NA,NA,NA,NA,right,3685,0,1,4457.300000011921
9fF3vH6P,3bakuke4akpi45n0y93n6zfn3q3r1f,3ffj6vril517r1xt35ag3mrefel0i7,9fF3vH6P,2020-0188,2021-10-31,06:38:15,08:10:43,NA,incomplete,true,NA,true,NA,0,1,NA,NA,NA,right,NA,NA,NA,present,NA,NA,n_l_044.jpg,yellow,n_l_026.jpg,brown,between,NA,NaN,NA,NA,NA,NA,right,3244.800000011921,1,1,1992.699999988079
9fF3vH6P,3bakuke4akpi45n0y93n6zfn3q3r1f,3ffj6vril517r1xt35ag3mrefel0i7,9fF3vH6P,2020-0188,2021-10-31,06:38:15,08:10:43,NA,incomplete,true,NA,true,NA,0,2,NA,NA,NA,left,NA,NA,NA,present,NA,NA,m_s_033.jpg,gray,n_l_115.jpg,gray,within,NA,NaN,NA,NA,NA,NA,right,4805.400000035763,0,1,2429.699999988079
9fF3vH6P,3bakuke4akpi45n0y93n6zfn3q3r1f,3ffj6vril517r1xt35ag3mrefel0i7,9fF3vH6P,2020-0188,2021-10-31,06:38:15,08:10:43,NA,incomplete,true,NA,true,NA,0,3,NA,NA,NA,left,NA,NA,NA,present,NA,NA,m_s_022.jpg,green,m_s_098.jpg,green,within,NA,NaN,NA,NA,NA,NA,left,4574.100000023842,1,0,3123.5
9fF3vH6P,3bakuke4akpi45n0y93n6zfn3q3r1f,3ffj6vril517r1xt35ag3mrefel0i7,9fF3vH6P,2020-0188,2021-10-31,06:38:15,08:10:43,NA,incomplete,true,NA,true,NA,0,4,NA,NA,NA,left,NA,NA,NA,present,NA,NA,m_s_101.jpg,green,m_l_109.jpg,purple,between,NA,NaN,NA,NA,NA,NA,left,3370.599999964237,1,1,2375.7000000476837
9fF3vH6P,3bakuke4akpi45n0y93n6zfn3q3r1f,3ffj6vril517r1xt35ag3mrefel0i7,9fF3vH6P,2020-0188,2021-10-31,06:38:15,08:10:43,NA,incomplete,true,NA,true,NA,0,5,NA,NA,NA,right,NA,NA,NA,present,NA,NA,m_s_074.jpg,gray,n_s_018.jpg,yellow,between,NA,NaN,NA,NA,NA,NA,right,2322,1,1,3278.800000011921
9fF3vH6P,3bakuke4akpi45n0y93n6zfn3q3r1f,3ffj6vril517r1xt35ag3mrefel0i7,9fF3vH6P,2020-0188,2021-10-31,06:38:15,08:10:43,NA,incomplete,true,NA,true,NA,0,6,NA,NA,NA,left,NA,NA,NA,present,NA,NA,m_s_041.jpg,red,m_s_064.jpg,red,within,NA,NaN,NA,NA,NA,NA,left,5474.399999976158,1,2,1876.199999988079
9fF3vH6P,3bakuke4akpi45n0y93n6zfn3q3r1f,3ffj6vril517r1xt35ag3mrefel0i7,9fF3vH6P,2020-0188,2021-10-31,06:38:15,08:10:43,NA,incomplete,true,NA,true,NA,0,7,NA,NA,NA,right,NA,NA,NA,present,NA,NA,m_s_062.jpg,brown,m_l_070.jpg,brown,within,NA,NaN,NA,NA,NA,NA,right,3042.699999988079,1,1,2547.400000035763
9fF3vH6P,3bakuke4akpi45n0y93n6zfn3q3r1f,3ffj6vril517r1xt35ag3mrefel0i7,9fF3vH6P,2020-0188,2021-10-31,06:38:15,08:10:43,NA,incomplete,true,NA,true,NA,0,8,NA,NA,NA,right,NA,NA,NA,present,NA,NA,n_l_029.jpg,brown,n_s_100.jpg,red,between,NA,NaN,NA,NA,NA,NA,right,2269.399999976158,1,2,5491.600000023842
9fF3vH6P,3bakuke4akpi45n0y93n6zfn3q3r1f,3ffj6vril517r1xt35ag3mrefel0i7,9fF3vH6P,2020-0188,2021-10-31,06:38:15,08:10:43,NA,incomplete,true,NA,true,NA,0,9,NA,NA,NA,left,NA,NA,NA,present,NA,NA,m_l_048.jpg,purple,m_s_043.jpg,purple,within,NA,NaN,NA,NA,NA,NA,left,5564.599999964237,1,1,2014.2999999523163
9fF3vH6P,3bakuke4akpi45n0y93n6zfn3q3r1f,3ffj6vril517r1xt35ag3mrefel0i7,9fF3vH6P,2020-0188,2021-10-31,06:38:15,08:10:43,NA,incomplete,true,NA,true,NA,0,10,NA,NA,NA,right,NA,NA,NA,present,NA,NA,m_s_004.jpg,green,m_l_036.jpg,gray,between,NA,NaN,NA,NA,NA,NA,right,2199.800000011921,1,1,1677.4000000357628
9fF3vH6P,3bakuke4akpi45n0y93n6zfn3q3r1f,3ffj6vril517r1xt35ag3mrefel0i7,9fF3vH6P,2020-0188,2021-10-31,06:38:15,08:10:43,NA,incomplete,false,true,NA,NA,1,0,NA,purple,m_s_068.jpg,NA,NA,NA,NA,NA,unpleasant,pleasant,NA,NA,NA,NA,NA,right,2113.80000001192,true,NA,NA,NA,NA,NA,NA,NA,NA
9fF3vH6P,3bakuke4akpi45n0y93n6zfn3q3r1f,3ffj6vril517r1xt35ag3mrefel0i7,9fF3vH6P,2020-0188,2021-10-31,06:38:15,08:10:43,NA,incomplete,false,true,NA,NA,1,1,NA,purple,n_l_109.jpg,NA,NA,NA,NA,NA,pleasant,unpleasant,NA,NA,NA,NA,NA,left,2341.09999996424,true,NA,NA,NA,NA,NA,NA,NA,NA
9fF3vH6P,3bakuke4akpi45n0y93n6zfn3q3r1f,3ffj6vril517r1xt35ag3mrefel0i7,9fF3vH6P,2020-0188,2021-10-31,06:38:15,08:10:43,NA,incomplete,false,true,NA,NA,1,2,NA,purple,n_l_083.jpg,NA,NA,NA,NA,NA,unpleasant,pleasant,NA,NA,NA,NA,NA,left,1868.10000002384,true,NA,NA,NA,NA,NA,NA,NA,NA
9fF3vH6P,3bakuke4akpi45n0y93n6zfn3q3r1f,3ffj6vril517r1xt35ag3mrefel0i7,9fF3vH6P,2020-0188,2021-10-31,06:38:15,08:10:43,NA,incomplete,false,true,NA,NA,1,3,NA,purple,m_l_099.jpg,NA,NA,NA,NA,NA,unpleasant,pleasant,NA,NA,NA,NA,NA,right,1364.30000001192,true,NA,NA,NA,NA,NA,NA,NA,NA
9fF3vH6P,3bakuke4akpi45n0y93n6zfn3q3r1f,3ffj6vril517r1xt35ag3mrefel0i7,9fF3vH6P,2020-0188,2021-10-31,06:38:15,08:10:43,NA,incomplete,false,true,NA,NA,1,4,NA,purple,m_l_117.jpg,NA,NA,NA,NA,NA,unpleasant,pleasant,NA,NA,NA,NA,NA,right,1210,true,NA,NA,NA,NA,NA,NA,NA,NA
9fF3vH6P,3bakuke4akpi45n0y93n6zfn3q3r1f,3ffj6vril517r1xt35ag3mrefel0i7,9fF3vH6P,2020-0188,2021-10-31,06:38:15,08:10:43,NA,incomplete,false,true,NA,NA,1,5,NA,purple,n_s_085.jpg,NA,NA,NA,NA,NA,unpleasant,pleasant,NA,NA,NA,NA,NA,right,1772.30000001192,true,NA,NA,NA,NA,NA,NA,NA,NA
9fF3vH6P,3bakuke4akpi45n0y93n6zfn3q3r1f,3ffj6vril517r1xt35ag3mrefel0i7,9fF3vH6P,2020-0188,2021-10-31,06:38:15,08:10:43,NA,incomplete,false,true,NA,NA,1,6,NA,yellow,n_s_113.jpg,NA,NA,NA,NA,NA,pleasant,unpleasant,NA,NA,NA,NA,NA,left,1405.89999997616,true,NA,NA,NA,NA,NA,NA,NA,NA
9fF3vH6P,3bakuke4akpi45n0y93n6zfn3q3r1f,3ffj6vril517r1xt35ag3mrefel0i7,9fF3vH6P,2020-0188,2021-10-31,06:38:15,08:10:43,NA,incomplete,false,true,NA,NA,1,7,NA,yellow,n_s_094.jpg,NA,NA,NA,NA,NA,pleasant,unpleasant,NA,NA,NA,NA,NA,left,1141.19999998808,true,NA,NA,NA,NA,NA,NA,NA,NA
9fF3vH6P,3bakuke4akpi45n0y93n6zfn3q3r1f,3ffj6vril517r1xt35ag3mrefel0i7,9fF3vH6P,2020-0188,2021-10-31,06:38:15,08:10:43,NA,incomplete,false,true,NA,NA,1,8,NA,yellow,n_s_017.jpg,NA,NA,NA,NA,NA,unpleasant,pleasant,NA,NA,NA,NA,NA,right,1151.40000003576,true,NA,NA,NA,NA,NA,NA,NA,NA
9fF3vH6P,3bakuke4akpi45n0y93n6zfn3q3r1f,3ffj6vril517r1xt35ag3mrefel0i7,9fF3vH6P,2020-0188,2021-10-31,06:38:15,08:10:43,NA,incomplete,false,true,NA,NA,1,9,NA,yellow,n_s_063.jpg,NA,NA,NA,NA,NA,pleasant,unpleasant,NA,NA,NA,NA,NA,left,1587.80000001192,true,NA,NA,NA,NA,NA,NA,NA,NA
9fF3vH6P,3bakuke4akpi45n0y93n6zfn3q3r1f,3ffj6vril517r1xt35ag3mrefel0i7,9fF3vH6P,2020-0188,2021-10-31,06:38:15,08:10:43,NA,incomplete,false,true,NA,NA,1,10,NA,yellow,m_s_067.jpg,NA,NA,NA,NA,NA,unpleasant,pleasant,NA,NA,NA,NA,NA,right,1413,true,NA,NA,NA,NA,NA,NA,NA,NA
9fF3vH6P,3bakuke4akpi45n0y93n6zfn3q3r1f,3ffj6vril517r1xt35ag3mrefel0i7,9fF3vH6P,2020-0188,2021-10-31,06:38:15,08:10:43,NA,incomplete,false,true,NA,NA,1,11,NA,yellow,n_l_078.jpg,NA,NA,NA,NA,NA,pleasant,unpleasant,NA,NA,NA,NA,NA,left,1176.5,true,NA,NA,NA,NA,NA,NA,NA,NA
9fF3vH6P,3bakuke4akpi45n0y93n6zfn3q3r1f,3ffj6vril517r1xt35ag3mrefel0i7,9fF3vH6P,2020-0188,2021-10-31,06:38:15,08:10:43,NA,incomplete,false,true,NA,NA,1,12,NA,blue,n_l_020.jpg,NA,NA,NA,NA,NA,unpleasant,pleasant,NA,NA,NA,NA,NA,right,1049.5,true,NA,NA,NA,NA,NA,NA,NA,NA
9fF3vH6P,3bakuke4akpi45n0y93n6zfn3q3r1f,3ffj6vril517r1xt35ag3mrefel0i7,9fF3vH6P,2020-0188,2021-10-31,06:38:15,08:10:43,NA,incomplete,false,true,NA,NA,1,13,NA,blue,m_s_032.jpg,NA,NA,NA,NA,NA,unpleasant,pleasant,NA,NA,NA,NA,NA,left,1096.59999996424,true,NA,NA,NA,NA,NA,NA,NA,NA
9fF3vH6P,3bakuke4akpi45n0y93n6zfn3q3r1f,3ffj6vril517r1xt35ag3mrefel0i7,9fF3vH6P,2020-0188,2021-10-31,06:38:15,08:10:43,NA,incomplete,false,true,NA,NA,1,14,NA,blue,n_s_036.jpg,NA,NA,NA,NA,NA,unpleasant,pleasant,NA,NA,NA,NA,NA,right,1149.5,true,NA,NA,NA,NA,NA,NA,NA,NA
9fF3vH6P,3bakuke4akpi45n0y93n6zfn3q3r1f,3ffj6vril517r1xt35ag3mrefel0i7,9fF3vH6P,2020-0188,2021-10-31,06:38:15,08:10:43,NA,incomplete,false,true,NA,NA,1,15,NA,blue,n_l_049.jpg,NA,NA,NA,NA,NA,unpleasant,pleasant,NA,NA,NA,NA,NA,right,965.099999964237,true,NA,NA,NA,NA,NA,NA,NA,NA
9fF3vH6P,3bakuke4akpi45n0y93n6zfn3q3r1f,3ffj6vril517r1xt35ag3mrefel0i7,9fF3vH6P,2020-0188,2021-10-31,06:38:15,08:10:43,NA,incomplete,false,true,NA,NA,1,16,NA,blue,m_l_084.jpg,NA,NA,NA,NA,NA,pleasant,unpleasant,NA,NA,NA,NA,NA,left,1702.69999998808,true,NA,NA,NA,NA,NA,NA,NA,NA
9fF3vH6P,3bakuke4akpi45n0y93n6zfn3q3r1f,3ffj6vril517r1xt35ag3mrefel0i7,9fF3vH6P,2020-0188,2021-10-31,06:38:15,08:10:43,NA,incomplete,false,true,NA,NA,1,17,NA,blue,m_l_027.jpg,NA,NA,NA,NA,NA,unpleasant,pleasant,NA,NA,NA,NA,NA,right,1398.10000002384,true,NA,NA,NA,NA,NA,NA,NA,NA
9fF3vH6P,3bakuke4akpi45n0y93n6zfn3q3r1f,3ffj6vril517r1xt35ag3mrefel0i7,9fF3vH6P,2020-0188,2021-10-31,06:38:15,08:10:43,NA,incomplete,false,true,NA,NA,1,18,NA,black,m_l_020.jpg,NA,NA,NA,NA,NA,pleasant,unpleasant,NA,NA,NA,NA,NA,right,1611.19999998808,true,NA,NA,NA,NA,NA,NA,NA,NA
9fF3vH6P,3bakuke4akpi45n0y93n6zfn3q3r1f,3ffj6vril517r1xt35ag3mrefel0i7,9fF3vH6P,2020-0188,2021-10-31,06:38:15,08:10:43,NA,incomplete,false,true,NA,NA,1,19,NA,black,m_l_091.jpg,NA,NA,NA,NA,NA,pleasant,unpleasant,NA,NA,NA,NA,NA,left,971.299999952316,true,NA,NA,NA,NA,NA,NA,NA,NA
9fF3vH6P,3bakuke4akpi45n0y93n6zfn3q3r1f,3ffj6vril517r1xt35ag3mrefel0i7,9fF3vH6P,2020-0188,2021-10-31,06:38:15,08:10:43,NA,incomplete,false,true,NA,NA,1,20,NA,black,n_l_032.jpg,NA,NA,NA,NA,NA,pleasant,unpleasant,NA,NA,NA,NA,NA,right,1502,true,NA,NA,NA,NA,NA,NA,NA,NA
9fF3vH6P,3bakuke4akpi45n0y93n6zfn3q3r1f,3ffj6vril517r1xt35ag3mrefel0i7,9fF3vH6P,2020-0188,2021-10-31,06:38:15,08:10:43,NA,incomplete,false,true,NA,NA,1,21,NA,black,m_l_114.jpg,NA,NA,NA,NA,NA,unpleasant,pleasant,NA,NA,NA,NA,NA,right,1686.90000003576,true,NA,NA,NA,NA,NA,NA,NA,NA
9fF3vH6P,3bakuke4akpi45n0y93n6zfn3q3r1f,3ffj6vril517r1xt35ag3mrefel0i7,9fF3vH6P,2020-0188,2021-10-31,06:38:15,08:10:43,NA,incomplete,false,true,NA,NA,1,22,NA,black,m_s_055.jpg,NA,NA,NA,NA,NA,unpleasant,pleasant,NA,NA,NA,NA,NA,right,1218.70000004768,true,NA,NA,NA,NA,NA,NA,NA,NA
9fF3vH6P,3bakuke4akpi45n0y93n6zfn3q3r1f,3ffj6vril517r1xt35ag3mrefel0i7,9fF3vH6P,2020-0188,2021-10-31,06:38:15,08:10:43,NA,incomplete,false,true,NA,NA,1,23,NA,black,m_l_031.jpg,NA,NA,NA,NA,NA,pleasant,unpleasant,NA,NA,NA,NA,NA,left,1550,true,NA,NA,NA,NA,NA,NA,NA,NA
9fF3vH6P,3bakuke4akpi45n0y93n6zfn3q3r1f,3ffj6vril517r1xt35ag3mrefel0i7,9fF3vH6P,2020-0188,2021-10-31,06:38:15,08:10:43,NA,incomplete,false,true,NA,NA,1,24,NA,gray,n_l_101.jpg,NA,NA,NA,NA,NA,pleasant,unpleasant,NA,NA,NA,NA,NA,right,1305.10000002384,true,NA,NA,NA,NA,NA,NA,NA,NA
9fF3vH6P,3bakuke4akpi45n0y93n6zfn3q3r1f,3ffj6vril517r1xt35ag3mrefel0i7,9fF3vH6P,2020-0188,2021-10-31,06:38:15,08:10:43,NA,incomplete,false,true,NA,NA,1,25,NA,gray,n_l_072.jpg,NA,NA,NA,NA,NA,pleasant,unpleasant,NA,NA,NA,NA,NA,right,1412.80000001192,true,NA,NA,NA,NA,NA,NA,NA,NA
9fF3vH6P,3bakuke4akpi45n0y93n6zfn3q3r1f,3ffj6vril517r1xt35ag3mrefel0i7,9fF3vH6P,2020-0188,2021-10-31,06:38:15,08:10:43,NA,incomplete,false,true,NA,NA,1,26,NA,gray,n_s_090.jpg,NA,NA,NA,NA,NA,pleasant,unpleasant,NA,NA,NA,NA,NA,left,1108.39999997616,true,NA,NA,NA,NA,NA,NA,NA,NA
9fF3vH6P,3bakuke4akpi45n0y93n6zfn3q3r1f,3ffj6vril517r1xt35ag3mrefel0i7,9fF3vH6P,2020-0188,2021-10-31,06:38:15,08:10:43,NA,incomplete,false,true,NA,NA,1,27,NA,gray,m_s_021.jpg,NA,NA,NA,NA,NA,pleasant,unpleasant,NA,NA,NA,NA,NA,left,2486.09999996424,true,NA,NA,NA,NA,NA,NA,NA,NA
9fF3vH6P,3bakuke4akpi45n0y93n6zfn3q3r1f,3ffj6vril517r1xt35ag3mrefel0i7,9fF3vH6P,2020-0188,2021-10-31,06:38:15,08:10:43,NA,incomplete,false,true,NA,NA,1,28,NA,gray,n_s_088.jpg,NA,NA,NA,NA,NA,unpleasant,pleasant,NA,NA,NA,NA,NA,left,1986.29999995232,true,NA,NA,NA,NA,NA,NA,NA,NA
9fF3vH6P,3bakuke4akpi45n0y93n6zfn3q3r1f,3ffj6vril517r1xt35ag3mrefel0i7,9fF3vH6P,2020-0188,2021-10-31,06:38:15,08:10:43,NA,incomplete,false,true,NA,NA,1,29,NA,gray,n_s_065.jpg,NA,NA,NA,NA,NA,unpleasant,pleasant,NA,NA,NA,NA,NA,left,1471.69999998808,true,NA,NA,NA,NA,NA,NA,NA,NA
9fF3vH6P,3bakuke4akpi45n0y93n6zfn3q3r1f,3ffj6vril517r1xt35ag3mrefel0i7,9fF3vH6P,2020-0188,2021-10-31,06:38:15,08:10:43,NA,incomplete,false,true,NA,NA,1,30,NA,brown,m_l_011.jpg,NA,NA,NA,NA,NA,pleasant,unpleasant,NA,NA,NA,NA,NA,right,1378.40000003576,true,NA,NA,NA,NA,NA,NA,NA,NA
9fF3vH6P,3bakuke4akpi45n0y93n6zfn3q3r1f,3ffj6vril517r1xt35ag3mrefel0i7,9fF3vH6P,2020-0188,2021-10-31,06:38:15,08:10:43,NA,incomplete,false,true,NA,NA,1,31,NA,brown,n_s_037.jpg,NA,NA,NA,NA,NA,pleasant,unpleasant,NA,NA,NA,NA,NA,left,1553.30000001192,true,NA,NA,NA,NA,NA,NA,NA,NA
9fF3vH6P,3bakuke4akpi45n0y93n6zfn3q3r1f,3ffj6vril517r1xt35ag3mrefel0i7,9fF3vH6P,2020-0188,2021-10-31,06:38:15,08:10:43,NA,incomplete,false,true,NA,NA,1,32,NA,brown,m_s_052.jpg,NA,NA,NA,NA,NA,unpleasant,pleasant,NA,NA,NA,NA,NA,right,1895.70000004768,true,NA,NA,NA,NA,NA,NA,NA,NA
9fF3vH6P,3bakuke4akpi45n0y93n6zfn3q3r1f,3ffj6vril517r1xt35ag3mrefel0i7,9fF3vH6P,2020-0188,2021-10-31,06:38:15,08:10:43,NA,incomplete,false,true,NA,NA,1,33,NA,brown,n_s_062.jpg,NA,NA,NA,NA,NA,pleasant,unpleasant,NA,NA,NA,NA,NA,right,1143.70000004768,true,NA,NA,NA,NA,NA,NA,NA,NA
9fF3vH6P,3bakuke4akpi45n0y93n6zfn3q3r1f,3ffj6vril517r1xt35ag3mrefel0i7,9fF3vH6P,2020-0188,2021-10-31,06:38:15,08:10:43,NA,incomplete,false,true,NA,NA,1,34,NA,brown,n_s_117.jpg,NA,NA,NA,NA,NA,unpleasant,pleasant,NA,NA,NA,NA,NA,left,1325.10000002384,true,NA,NA,NA,NA,NA,NA,NA,NA
9fF3vH6P,3bakuke4akpi45n0y93n6zfn3q3r1f,3ffj6vril517r1xt35ag3mrefel0i7,9fF3vH6P,2020-0188,2021-10-31,06:38:15,08:10:43,NA,incomplete,false,true,NA,NA,1,35,NA,brown,m_l_100.jpg,NA,NA,NA,NA,NA,unpleasant,pleasant,NA,NA,NA,NA,NA,left,2101.20000004768,true,NA,NA,NA,NA,NA,NA,NA,NA
9fF3vH6P,3bakuke4akpi45n0y93n6zfn3q3r1f,3ffj6vril517r1xt35ag3mrefel0i7,9fF3vH6P,2020-0188,2021-10-31,06:38:15,08:10:43,NA,incomplete,false,NA,NA,true,1,0,NA,NA,NA,right,n_s_065.jpg,black,gray,NA,NA,NA,NA,NA,NA,NA,NA,NA,NaN,NA,2752.199999988079,right,1,NA,NA,NA,NA,NA
9fF3vH6P,3bakuke4akpi45n0y93n6zfn3q3r1f,3ffj6vril517r1xt35ag3mrefel0i7,9fF3vH6P,2020-0188,2021-10-31,06:38:15,08:10:43,NA,incomplete,false,NA,NA,true,1,1,NA,NA,NA,left,m_l_091.jpg,black,blue,NA,NA,NA,NA,NA,NA,NA,NA,NA,NaN,NA,2531.7000000476837,right,0,NA,NA,NA,NA,NA
9fF3vH6P,3bakuke4akpi45n0y93n6zfn3q3r1f,3ffj6vril517r1xt35ag3mrefel0i7,9fF3vH6P,2020-0188,2021-10-31,06:38:15,08:10:43,NA,incomplete,false,NA,NA,true,1,2,NA,NA,NA,left,m_s_052.jpg,brown,gray,NA,NA,NA,NA,NA,NA,NA,NA,NA,NaN,NA,2184.199999988079,left,1,NA,NA,NA,NA,NA
9fF3vH6P,3bakuke4akpi45n0y93n6zfn3q3r1f,3ffj6vril517r1xt35ag3mrefel0i7,9fF3vH6P,2020-0188,2021-10-31,06:38:15,08:10:43,NA,incomplete,false,NA,NA,true,1,3,NA,NA,NA,left,n_s_085.jpg,purple,yellow,NA,NA,NA,NA,NA,NA,NA,NA,NA,NaN,NA,6741.800000011921,left,1,NA,NA,NA,NA,NA
9fF3vH6P,3bakuke4akpi45n0y93n6zfn3q3r1f,3ffj6vril517r1xt35ag3mrefel0i7,9fF3vH6P,2020-0188,2021-10-31,06:38:15,08:10:43,NA,incomplete,false,NA,NA,true,1,4,NA,NA,NA,right,n_l_109.jpg,yellow,purple,NA,NA,NA,NA,NA,NA,NA,NA,NA,NaN,NA,2958.2999999523163,left,0,NA,NA,NA,NA,NA
9fF3vH6P,3bakuke4akpi45n0y93n6zfn3q3r1f,3ffj6vril517r1xt35ag3mrefel0i7,9fF3vH6P,2020-0188,2021-10-31,06:38:15,08:10:43,NA,incomplete,false,NA,NA,true,1,5,NA,NA,NA,right,n_l_072.jpg,brown,gray,NA,NA,NA,NA,NA,NA,NA,NA,NA,NaN,NA,2531.199999988079,left,0,NA,NA,NA,NA,NA
9fF3vH6P,3bakuke4akpi45n0y93n6zfn3q3r1f,3ffj6vril517r1xt35ag3mrefel0i7,9fF3vH6P,2020-0188,2021-10-31,06:38:15,08:10:43,NA,incomplete,false,NA,NA,true,1,6,NA,NA,NA,right,n_l_032.jpg,blue,black,NA,NA,NA,NA,NA,NA,NA,NA,NA,NaN,NA,4054.2000000476837,right,1,NA,NA,NA,NA,NA
9fF3vH6P,3bakuke4akpi45n0y93n6zfn3q3r1f,3ffj6vril517r1xt35ag3mrefel0i7,9fF3vH6P,2020-0188,2021-10-31,06:38:15,08:10:43,NA,incomplete,false,NA,NA,true,1,7,NA,NA,NA,left,n_l_078.jpg,yellow,purple,NA,NA,NA,NA,NA,NA,NA,NA,NA,NaN,NA,6847.799999952316,left,1,NA,NA,NA,NA,NA
9fF3vH6P,3bakuke4akpi45n0y93n6zfn3q3r1f,3ffj6vril517r1xt35ag3mrefel0i7,9fF3vH6P,2020-0188,2021-10-31,06:38:15,08:10:43,NA,incomplete,false,NA,NA,true,1,8,NA,NA,NA,right,m_l_117.jpg,yellow,purple,NA,NA,NA,NA,NA,NA,NA,NA,NA,NaN,NA,1647.300000011921,right,1,NA,NA,NA,NA,NA
9fF3vH6P,3bakuke4akpi45n0y93n6zfn3q3r1f,3ffj6vril517r1xt35ag3mrefel0i7,9fF3vH6P,2020-0188,2021-10-31,06:38:15,08:10:43,NA,incomplete,false,NA,NA,true,1,9,NA,NA,NA,left,m_s_055.jpg,black,blue,NA,NA,NA,NA,NA,NA,NA,NA,NA,NaN,NA,3710.199999988079,left,1,NA,NA,NA,NA,NA
9fF3vH6P,3bakuke4akpi45n0y93n6zfn3q3r1f,3ffj6vril517r1xt35ag3mrefel0i7,9fF3vH6P,2020-0188,2021-10-31,06:38:15,08:10:43,NA,incomplete,false,NA,NA,true,1,10,NA,NA,NA,right,m_s_032.jpg,yellow,blue,NA,NA,NA,NA,NA,NA,NA,NA,NA,NaN,NA,2751.5,left,0,NA,NA,NA,NA,NA
9fF3vH6P,3bakuke4akpi45n0y93n6zfn3q3r1f,3ffj6vril517r1xt35ag3mrefel0i7,9fF3vH6P,2020-0188,2021-10-31,06:38:15,08:10:43,NA,incomplete,false,NA,NA,true,1,11,NA,NA,NA,left,n_s_037.jpg,brown,gray,NA,NA,NA,NA,NA,NA,NA,NA,NA,NaN,NA,1924.199999988079,left,1,NA,NA,NA,NA,NA
9fF3vH6P,3bakuke4akpi45n0y93n6zfn3q3r1f,3ffj6vril517r1xt35ag3mrefel0i7,9fF3vH6P,2020-0188,2021-10-31,06:38:15,08:10:43,NA,incomplete,false,NA,NA,true,1,12,NA,NA,NA,left,n_s_088.jpg,gray,brown,NA,NA,NA,NA,NA,NA,NA,NA,NA,NaN,NA,2525.300000011921,left,1,NA,NA,NA,NA,NA
9fF3vH6P,3bakuke4akpi45n0y93n6zfn3q3r1f,3ffj6vril517r1xt35ag3mrefel0i7,9fF3vH6P,2020-0188,2021-10-31,06:38:15,08:10:43,NA,incomplete,false,NA,NA,true,1,13,NA,NA,NA,left,n_s_017.jpg,yellow,blue,NA,NA,NA,NA,NA,NA,NA,NA,NA,NaN,NA,1930,right,0,NA,NA,NA,NA,NA
9fF3vH6P,3bakuke4akpi45n0y93n6zfn3q3r1f,3ffj6vril517r1xt35ag3mrefel0i7,9fF3vH6P,2020-0188,2021-10-31,06:38:15,08:10:43,NA,incomplete,false,NA,NA,true,1,14,NA,NA,NA,left,n_s_094.jpg,yellow,blue,NA,NA,NA,NA,NA,NA,NA,NA,NA,NaN,NA,3917.899999976158,left,1,NA,NA,NA,NA,NA
9fF3vH6P,3bakuke4akpi45n0y93n6zfn3q3r1f,3ffj6vril517r1xt35ag3mrefel0i7,9fF3vH6P,2020-0188,2021-10-31,06:38:15,08:10:43,NA,incomplete,false,NA,NA,true,1,15,NA,NA,NA,right,m_l_027.jpg,black,blue,NA,NA,NA,NA,NA,NA,NA,NA,NA,NaN,NA,3855.5,right,1,NA,NA,NA,NA,NA
9fF3vH6P,3bakuke4akpi45n0y93n6zfn3q3r1f,3ffj6vril517r1xt35ag3mrefel0i7,9fF3vH6P,2020-0188,2021-10-31,06:38:15,08:10:43,NA,incomplete,false,NA,NA,true,1,16,NA,NA,NA,right,m_s_067.jpg,purple,yellow,NA,NA,NA,NA,NA,NA,NA,NA,NA,NaN,NA,5258.300000011921,left,0,NA,NA,NA,NA,NA
9fF3vH6P,3bakuke4akpi45n0y93n6zfn3q3r1f,3ffj6vril517r1xt35ag3mrefel0i7,9fF3vH6P,2020-0188,2021-10-31,06:38:15,08:10:43,NA,incomplete,false,NA,NA,true,1,17,NA,NA,NA,right,n_s_036.jpg,black,blue,NA,NA,NA,NA,NA,NA,NA,NA,NA,NaN,NA,6198.300000011921,left,0,NA,NA,NA,NA,NA
9fF3vH6P,3bakuke4akpi45n0y93n6zfn3q3r1f,3ffj6vril517r1xt35ag3mrefel0i7,9fF3vH6P,2020-0188,2021-10-31,06:38:15,08:10:43,NA,incomplete,false,NA,NA,true,1,18,NA,NA,NA,left,m_l_031.jpg,black,blue,NA,NA,NA,NA,NA,NA,NA,NA,NA,NaN,NA,3037.099999964237,left,1,NA,NA,NA,NA,NA
9fF3vH6P,3bakuke4akpi45n0y93n6zfn3q3r1f,3ffj6vril517r1xt35ag3mrefel0i7,9fF3vH6P,2020-0188,2021-10-31,06:38:15,08:10:43,NA,incomplete,false,NA,NA,true,1,19,NA,NA,NA,left,n_s_090.jpg,gray,black,NA,NA,NA,NA,NA,NA,NA,NA,NA,NaN,NA,6186,left,1,NA,NA,NA,NA,NA
9fF3vH6P,3bakuke4akpi45n0y93n6zfn3q3r1f,3ffj6vril517r1xt35ag3mrefel0i7,9fF3vH6P,2020-0188,2021-10-31,06:38:15,08:10:43,NA,incomplete,false,NA,NA,true,1,20,NA,NA,NA,right,m_l_084.jpg,yellow,blue,NA,NA,NA,NA,NA,NA,NA,NA,NA,NaN,NA,1772.8999999761581,right,1,NA,NA,NA,NA,NA
9fF3vH6P,3bakuke4akpi45n0y93n6zfn3q3r1f,3ffj6vril517r1xt35ag3mrefel0i7,9fF3vH6P,2020-0188,2021-10-31,06:38:15,08:10:43,NA,incomplete,false,NA,NA,true,1,21,NA,NA,NA,left,m_l_100.jpg,brown,gray,NA,NA,NA,NA,NA,NA,NA,NA,NA,NaN,NA,2370.199999988079,left,1,NA,NA,NA,NA,NA
9fF3vH6P,3bakuke4akpi45n0y93n6zfn3q3r1f,3ffj6vril517r1xt35ag3mrefel0i7,9fF3vH6P,2020-0188,2021-10-31,06:38:15,08:10:43,NA,incomplete,false,NA,true,NA,1,0,NA,NA,NA,right,NA,NA,NA,present,NA,NA,n_l_078.jpg,yellow,n_s_094.jpg,yellow,within,NA,NaN,NA,NA,NA,NA,left,2967.699999988079,0,1,6062.599999964237
9fF3vH6P,3bakuke4akpi45n0y93n6zfn3q3r1f,3ffj6vril517r1xt35ag3mrefel0i7,9fF3vH6P,2020-0188,2021-10-31,06:38:15,08:10:43,NA,incomplete,false,NA,true,NA,1,1,NA,NA,NA,right,NA,NA,NA,present,NA,NA,n_s_036.jpg,blue,m_s_067.jpg,yellow,between,NA,NaN,NA,NA,NA,NA,right,2587.599999964237,1,2,2142
9fF3vH6P,3bakuke4akpi45n0y93n6zfn3q3r1f,3ffj6vril517r1xt35ag3mrefel0i7,9fF3vH6P,2020-0188,2021-10-31,06:38:15,08:10:43,NA,incomplete,false,NA,true,NA,1,2,NA,NA,NA,left,NA,NA,NA,present,NA,NA,n_s_037.jpg,brown,m_l_100.jpg,brown,within,NA,NaN,NA,NA,NA,NA,left,3248.7000000476837,1,2,1792.4000000357628
9fF3vH6P,3bakuke4akpi45n0y93n6zfn3q3r1f,3ffj6vril517r1xt35ag3mrefel0i7,9fF3vH6P,2020-0188,2021-10-31,06:38:15,08:10:43,NA,incomplete,false,NA,true,NA,1,3,NA,NA,NA,left,NA,NA,NA,present,NA,NA,n_l_109.jpg,purple,n_s_085.jpg,purple,within,NA,NaN,NA,NA,NA,NA,right,2947.100000023842,0,1,2362.399999976158
9fF3vH6P,3bakuke4akpi45n0y93n6zfn3q3r1f,3ffj6vril517r1xt35ag3mrefel0i7,9fF3vH6P,2020-0188,2021-10-31,06:38:15,08:10:43,NA,incomplete,false,NA,true,NA,1,4,NA,NA,NA,left,NA,NA,NA,present,NA,NA,n_l_072.jpg,gray,n_s_065.jpg,gray,within,NA,NaN,NA,NA,NA,NA,left,3929.100000023842,1,1,2315.800000011921
9fF3vH6P,3bakuke4akpi45n0y93n6zfn3q3r1f,3ffj6vril517r1xt35ag3mrefel0i7,9fF3vH6P,2020-0188,2021-10-31,06:38:15,08:10:43,NA,incomplete,false,NA,true,NA,1,5,NA,NA,NA,left,NA,NA,NA,present,NA,NA,m_l_091.jpg,black,m_l_031.jpg,black,within,NA,NaN,NA,NA,NA,NA,left,4932.800000011921,1,1,2759.699999988079
9fF3vH6P,3bakuke4akpi45n0y93n6zfn3q3r1f,3ffj6vril517r1xt35ag3mrefel0i7,9fF3vH6P,2020-0188,2021-10-31,06:38:15,08:10:43,NA,incomplete,false,NA,true,NA,1,6,NA,NA,NA,left,NA,NA,NA,present,NA,NA,m_l_117.jpg,purple,n_s_017.jpg,yellow,between,NA,NaN,NA,NA,NA,NA,left,11183.300000011921,1,2,2225.399999976158
9fF3vH6P,3bakuke4akpi45n0y93n6zfn3q3r1f,3ffj6vril517r1xt35ag3mrefel0i7,9fF3vH6P,2020-0188,2021-10-31,06:38:15,08:10:43,NA,incomplete,false,NA,true,NA,1,7,NA,NA,NA,left,NA,NA,NA,present,NA,NA,m_s_055.jpg,black,n_s_090.jpg,gray,between,NA,NaN,NA,NA,NA,NA,left,4614.5,1,1,3081.900000035763
9fF3vH6P,3bakuke4akpi45n0y93n6zfn3q3r1f,3ffj6vril517r1xt35ag3mrefel0i7,9fF3vH6P,2020-0188,2021-10-31,06:38:15,08:10:43,NA,incomplete,false,NA,true,NA,1,8,NA,NA,NA,left,NA,NA,NA,present,NA,NA,m_l_084.jpg,blue,n_l_032.jpg,black,between,NA,NaN,NA,NA,NA,NA,left,3129.399999976158,1,2,2318.100000023842
9fF3vH6P,3bakuke4akpi45n0y93n6zfn3q3r1f,3ffj6vril517r1xt35ag3mrefel0i7,9fF3vH6P,2020-0188,2021-10-31,06:38:15,08:10:43,NA,incomplete,false,NA,true,NA,1,9,NA,NA,NA,left,NA,NA,NA,present,NA,NA,n_s_088.jpg,gray,m_s_052.jpg,brown,between,NA,NaN,NA,NA,NA,NA,left,5332.800000011921,1,2,2026.699999988079
9fF3vH6P,3bakuke4akpi45n0y93n6zfn3q3r1f,3ffj6vril517r1xt35ag3mrefel0i7,9fF3vH6P,2020-0188,2021-10-31,06:38:15,08:10:43,NA,incomplete,false,NA,true,NA,1,10,NA,NA,NA,right,NA,NA,NA,present,NA,NA,m_l_027.jpg,blue,m_s_032.jpg,blue,within,NA,NaN,NA,NA,NA,NA,left,3029.300000011921,0,0,2860.699999988079
9fF3vH6P,3bakuke4akpi45n0y93n6zfn3q3r1f,3ffj6vril517r1xt35ag3mrefel0i7,9fF3vH6P,2020-0188,2021-10-31,06:38:15,08:10:43,NA,incomplete,false,true,NA,NA,2,0,NA,white,m_l_023.jpg,NA,NA,NA,NA,NA,unpleasant,pleasant,NA,NA,NA,NA,NA,right,1839.19999998808,true,NA,NA,NA,NA,NA,NA,NA,NA
9fF3vH6P,3bakuke4akpi45n0y93n6zfn3q3r1f,3ffj6vril517r1xt35ag3mrefel0i7,9fF3vH6P,2020-0188,2021-10-31,06:38:15,08:10:43,NA,incomplete,false,true,NA,NA,2,1,NA,white,n_l_105.jpg,NA,NA,NA,NA,NA,unpleasant,pleasant,NA,NA,NA,NA,NA,left,1388.79999995232,true,NA,NA,NA,NA,NA,NA,NA,NA
9fF3vH6P,3bakuke4akpi45n0y93n6zfn3q3r1f,3ffj6vril517r1xt35ag3mrefel0i7,9fF3vH6P,2020-0188,2021-10-31,06:38:15,08:10:43,NA,incomplete,false,true,NA,NA,2,2,NA,white,n_s_025.jpg,NA,NA,NA,NA,NA,pleasant,unpleasant,NA,NA,NA,NA,NA,left,1257.5,true,NA,NA,NA,NA,NA,NA,NA,NA
9fF3vH6P,3bakuke4akpi45n0y93n6zfn3q3r1f,3ffj6vril517r1xt35ag3mrefel0i7,9fF3vH6P,2020-0188,2021-10-31,06:38:15,08:10:43,NA,incomplete,false,true,NA,NA,2,3,NA,white,n_s_021.jpg,NA,NA,NA,NA,NA,unpleasant,pleasant,NA,NA,NA,NA,NA,right,1177.59999996424,true,NA,NA,NA,NA,NA,NA,NA,NA
9fF3vH6P,3bakuke4akpi45n0y93n6zfn3q3r1f,3ffj6vril517r1xt35ag3mrefel0i7,9fF3vH6P,2020-0188,2021-10-31,06:38:15,08:10:43,NA,incomplete,false,true,NA,NA,2,4,NA,white,n_l_082.jpg,NA,NA,NA,NA,NA,unpleasant,pleasant,NA,NA,NA,NA,NA,left,857.5,true,NA,NA,NA,NA,NA,NA,NA,NA
9fF3vH6P,3bakuke4akpi45n0y93n6zfn3q3r1f,3ffj6vril517r1xt35ag3mrefel0i7,9fF3vH6P,2020-0188,2021-10-31,06:38:15,08:10:43,NA,incomplete,false,true,NA,NA,2,5,NA,white,n_l_114.jpg,NA,NA,NA,NA,NA,pleasant,unpleasant,NA,NA,NA,NA,NA,right,2209.10000002384,true,NA,NA,NA,NA,NA,NA,NA,NA
9fF3vH6P,3bakuke4akpi45n0y93n6zfn3q3r1f,3ffj6vril517r1xt35ag3mrefel0i7,9fF3vH6P,2020-0188,2021-10-31,06:38:15,08:10:43,NA,incomplete,false,true,NA,NA,2,6,NA,blue,m_s_037.jpg,NA,NA,NA,NA,NA,unpleasant,pleasant,NA,NA,NA,NA,NA,right,1474.30000001192,true,NA,NA,NA,NA,NA,NA,NA,NA
9fF3vH6P,3bakuke4akpi45n0y93n6zfn3q3r1f,3ffj6vril517r1xt35ag3mrefel0i7,9fF3vH6P,2020-0188,2021-10-31,06:38:15,08:10:43,NA,incomplete,false,true,NA,NA,2,7,NA,blue,n_s_054.jpg,NA,NA,NA,NA,NA,pleasant,unpleasant,NA,NA,NA,NA,NA,left,2226.90000003576,true,NA,NA,NA,NA,NA,NA,NA,NA
9fF3vH6P,3bakuke4akpi45n0y93n6zfn3q3r1f,3ffj6vril517r1xt35ag3mrefel0i7,9fF3vH6P,2020-0188,2021-10-31,06:38:15,08:10:43,NA,incomplete,false,true,NA,NA,2,8,NA,blue,m_s_059.jpg,NA,NA,NA,NA,NA,pleasant,unpleasant,NA,NA,NA,NA,NA,left,1317.19999998808,true,NA,NA,NA,NA,NA,NA,NA,NA
9fF3vH6P,3bakuke4akpi45n0y93n6zfn3q3r1f,3ffj6vril517r1xt35ag3mrefel0i7,9fF3vH6P,2020-0188,2021-10-31,06:38:15,08:10:43,NA,incomplete,false,true,NA,NA,2,9,NA,blue,m_l_054.jpg,NA,NA,NA,NA,NA,pleasant,unpleasant,NA,NA,NA,NA,NA,left,941.5,true,NA,NA,NA,NA,NA,NA,NA,NA
9fF3vH6P,3bakuke4akpi45n0y93n6zfn3q3r1f,3ffj6vril517r1xt35ag3mrefel0i7,9fF3vH6P,2020-0188,2021-10-31,06:38:15,08:10:43,NA,incomplete,false,true,NA,NA,2,10,NA,blue,n_s_023.jpg,NA,NA,NA,NA,NA,pleasant,unpleasant,NA,NA,NA,NA,NA,left,839.699999988079,true,NA,NA,NA,NA,NA,NA,NA,NA
9fF3vH6P,3bakuke4akpi45n0y93n6zfn3q3r1f,3ffj6vril517r1xt35ag3mrefel0i7,9fF3vH6P,2020-0188,2021-10-31,06:38:15,08:10:43,NA,incomplete,false,true,NA,NA,2,11,NA,blue,n_l_073.jpg,NA,NA,NA,NA,NA,unpleasant,pleasant,NA,NA,NA,NA,NA,right,1464.19999998808,true,NA,NA,NA,NA,NA,NA,NA,NA
9fF3vH6P,3bakuke4akpi45n0y93n6zfn3q3r1f,3ffj6vril517r1xt35ag3mrefel0i7,9fF3vH6P,2020-0188,2021-10-31,06:38:15,08:10:43,NA,incomplete,false,true,NA,NA,2,12,NA,brown,m_l_064.jpg,NA,NA,NA,NA,NA,unpleasant,pleasant,NA,NA,NA,NA,NA,right,980.199999988079,true,NA,NA,NA,NA,NA,NA,NA,NA
9fF3vH6P,3bakuke4akpi45n0y93n6zfn3q3r1f,3ffj6vril517r1xt35ag3mrefel0i7,9fF3vH6P,2020-0188,2021-10-31,06:38:15,08:10:43,NA,incomplete,false,true,NA,NA,2,13,NA,brown,n_s_111.jpg,NA,NA,NA,NA,NA,pleasant,unpleasant,NA,NA,NA,NA,NA,right,1699.60000002384,true,NA,NA,NA,NA,NA,NA,NA,NA
9fF3vH6P,3bakuke4akpi45n0y93n6zfn3q3r1f,3ffj6vril517r1xt35ag3mrefel0i7,9fF3vH6P,2020-0188,2021-10-31,06:38:15,08:10:43,NA,incomplete,false,true,NA,NA,2,14,NA,brown,m_l_104.jpg,NA,NA,NA,NA,NA,pleasant,unpleasant,NA,NA,NA,NA,NA,left,1468.5,true,NA,NA,NA,NA,NA,NA,NA,NA
9fF3vH6P,3bakuke4akpi45n0y93n6zfn3q3r1f,3ffj6vril517r1xt35ag3mrefel0i7,9fF3vH6P,2020-0188,2021-10-31,06:38:15,08:10:43,NA,incomplete,false,true,NA,NA,2,15,NA,brown,n_s_108.jpg,NA,NA,NA,NA,NA,unpleasant,pleasant,NA,NA,NA,NA,NA,left,1549.69999998808,true,NA,NA,NA,NA,NA,NA,NA,NA
9fF3vH6P,3bakuke4akpi45n0y93n6zfn3q3r1f,3ffj6vril517r1xt35ag3mrefel0i7,9fF3vH6P,2020-0188,2021-10-31,06:38:15,08:10:43,NA,incomplete,false,true,NA,NA,2,16,NA,brown,m_l_079.jpg,NA,NA,NA,NA,NA,pleasant,unpleasant,NA,NA,NA,NA,NA,right,974.099999964237,true,NA,NA,NA,NA,NA,NA,NA,NA
9fF3vH6P,3bakuke4akpi45n0y93n6zfn3q3r1f,3ffj6vril517r1xt35ag3mrefel0i7,9fF3vH6P,2020-0188,2021-10-31,06:38:15,08:10:43,NA,incomplete,false,true,NA,NA,2,17,NA,brown,m_l_035.jpg,NA,NA,NA,NA,NA,unpleasant,pleasant,NA,NA,NA,NA,NA,left,1874.69999998808,true,NA,NA,NA,NA,NA,NA,NA,NA
9fF3vH6P,3bakuke4akpi45n0y93n6zfn3q3r1f,3ffj6vril517r1xt35ag3mrefel0i7,9fF3vH6P,2020-0188,2021-10-31,06:38:15,08:10:43,NA,incomplete,false,true,NA,NA,2,18,NA,green,n_s_086.jpg,NA,NA,NA,NA,NA,pleasant,unpleasant,NA,NA,NA,NA,NA,right,1313.19999998808,true,NA,NA,NA,NA,NA,NA,NA,NA
9fF3vH6P,3bakuke4akpi45n0y93n6zfn3q3r1f,3ffj6vril517r1xt35ag3mrefel0i7,9fF3vH6P,2020-0188,2021-10-31,06:38:15,08:10:43,NA,incomplete,false,true,NA,NA,2,19,NA,green,m_s_088.jpg,NA,NA,NA,NA,NA,unpleasant,pleasant,NA,NA,NA,NA,NA,left,1788.19999998808,true,NA,NA,NA,NA,NA,NA,NA,NA
9fF3vH6P,3bakuke4akpi45n0y93n6zfn3q3r1f,3ffj6vril517r1xt35ag3mrefel0i7,9fF3vH6P,2020-0188,2021-10-31,06:38:15,08:10:43,NA,incomplete,false,true,NA,NA,2,20,NA,green,n_l_009.jpg,NA,NA,NA,NA,NA,unpleasant,pleasant,NA,NA,NA,NA,NA,right,867.099999964237,true,NA,NA,NA,NA,NA,NA,NA,NA
9fF3vH6P,3bakuke4akpi45n0y93n6zfn3q3r1f,3ffj6vril517r1xt35ag3mrefel0i7,9fF3vH6P,2020-0188,2021-10-31,06:38:15,08:10:43,NA,incomplete,false,true,NA,NA,2,21,NA,green,m_s_063.jpg,NA,NA,NA,NA,NA,unpleasant,pleasant,NA,NA,NA,NA,NA,left,1240.30000001192,true,NA,NA,NA,NA,NA,NA,NA,NA
9fF3vH6P,3bakuke4akpi45n0y93n6zfn3q3r1f,3ffj6vril517r1xt35ag3mrefel0i7,9fF3vH6P,2020-0188,2021-10-31,06:38:15,08:10:43,NA,incomplete,false,true,NA,NA,2,22,NA,green,n_s_010.jpg,NA,NA,NA,NA,NA,unpleasant,pleasant,NA,NA,NA,NA,NA,left,1870,true,NA,NA,NA,NA,NA,NA,NA,NA
9fF3vH6P,3bakuke4akpi45n0y93n6zfn3q3r1f,3ffj6vril517r1xt35ag3mrefel0i7,9fF3vH6P,2020-0188,2021-10-31,06:38:15,08:10:43,NA,incomplete,false,true,NA,NA,2,23,NA,green,m_l_077.jpg,NA,NA,NA,NA,NA,pleasant,unpleasant,NA,NA,NA,NA,NA,right,1647.40000003576,true,NA,NA,NA,NA,NA,NA,NA,NA
9fF3vH6P,3bakuke4akpi45n0y93n6zfn3q3r1f,3ffj6vril517r1xt35ag3mrefel0i7,9fF3vH6P,2020-0188,2021-10-31,06:38:15,08:10:43,NA,incomplete,false,true,NA,NA,2,24,NA,red,n_s_116.jpg,NA,NA,NA,NA,NA,pleasant,unpleasant,NA,NA,NA,NA,NA,right,2063.30000001192,true,NA,NA,NA,NA,NA,NA,NA,NA
9fF3vH6P,3bakuke4akpi45n0y93n6zfn3q3r1f,3ffj6vril517r1xt35ag3mrefel0i7,9fF3vH6P,2020-0188,2021-10-31,06:38:15,08:10:43,NA,incomplete,false,true,NA,NA,2,25,NA,red,n_s_076.jpg,NA,NA,NA,NA,NA,pleasant,unpleasant,NA,NA,NA,NA,NA,right,750.900000035763,true,NA,NA,NA,NA,NA,NA,NA,NA
9fF3vH6P,3bakuke4akpi45n0y93n6zfn3q3r1f,3ffj6vril517r1xt35ag3mrefel0i7,9fF3vH6P,2020-0188,2021-10-31,06:38:15,08:10:43,NA,incomplete,false,true,NA,NA,2,26,NA,red,m_l_003.jpg,NA,NA,NA,NA,NA,unpleasant,pleasant,NA,NA,NA,NA,NA,right,1418.59999996424,true,NA,NA,NA,NA,NA,NA,NA,NA
9fF3vH6P,3bakuke4akpi45n0y93n6zfn3q3r1f,3ffj6vril517r1xt35ag3mrefel0i7,9fF3vH6P,2020-0188,2021-10-31,06:38:15,08:10:43,NA,incomplete,false,true,NA,NA,2,27,NA,red,n_s_043.jpg,NA,NA,NA,NA,NA,unpleasant,pleasant,NA,NA,NA,NA,NA,right,1285.60000002384,true,NA,NA,NA,NA,NA,NA,NA,NA
9fF3vH6P,3bakuke4akpi45n0y93n6zfn3q3r1f,3ffj6vril517r1xt35ag3mrefel0i7,9fF3vH6P,2020-0188,2021-10-31,06:38:15,08:10:43,NA,incomplete,false,true,NA,NA,2,28,NA,red,m_s_050.jpg,NA,NA,NA,NA,NA,unpleasant,pleasant,NA,NA,NA,NA,NA,left,1949.69999998808,true,NA,NA,NA,NA,NA,NA,NA,NA
9fF3vH6P,3bakuke4akpi45n0y93n6zfn3q3r1f,3ffj6vril517r1xt35ag3mrefel0i7,9fF3vH6P,2020-0188,2021-10-31,06:38:15,08:10:43,NA,incomplete,false,true,NA,NA,2,29,NA,red,m_l_108.jpg,NA,NA,NA,NA,NA,unpleasant,pleasant,NA,NA,NA,NA,NA,right,1026.60000002384,true,NA,NA,NA,NA,NA,NA,NA,NA
9fF3vH6P,3bakuke4akpi45n0y93n6zfn3q3r1f,3ffj6vril517r1xt35ag3mrefel0i7,9fF3vH6P,2020-0188,2021-10-31,06:38:15,08:10:43,NA,incomplete,false,true,NA,NA,2,30,NA,yellow,m_l_112.jpg,NA,NA,NA,NA,NA,unpleasant,pleasant,NA,NA,NA,NA,NA,left,2594.10000002384,true,NA,NA,NA,NA,NA,NA,NA,NA
9fF3vH6P,3bakuke4akpi45n0y93n6zfn3q3r1f,3ffj6vril517r1xt35ag3mrefel0i7,9fF3vH6P,2020-0188,2021-10-31,06:38:15,08:10:43,NA,incomplete,false,true,NA,NA,2,31,NA,yellow,n_s_008.jpg,NA,NA,NA,NA,NA,unpleasant,pleasant,NA,NA,NA,NA,NA,left,1214,true,NA,NA,NA,NA,NA,NA,NA,NA
9fF3vH6P,3bakuke4akpi45n0y93n6zfn3q3r1f,3ffj6vril517r1xt35ag3mrefel0i7,9fF3vH6P,2020-0188,2021-10-31,06:38:15,08:10:43,NA,incomplete,false,true,NA,NA,2,32,NA,yellow,n_l_058.jpg,NA,NA,NA,NA,NA,unpleasant,pleasant,NA,NA,NA,NA,NA,left,1762.10000002384,true,NA,NA,NA,NA,NA,NA,NA,NA
9fF3vH6P,3bakuke4akpi45n0y93n6zfn3q3r1f,3ffj6vril517r1xt35ag3mrefel0i7,9fF3vH6P,2020-0188,2021-10-31,06:38:15,08:10:43,NA,incomplete,false,true,NA,NA,2,33,NA,yellow,m_s_008.jpg,NA,NA,NA,NA,NA,pleasant,unpleasant,NA,NA,NA,NA,NA,left,1389.19999998808,true,NA,NA,NA,NA,NA,NA,NA,NA
9fF3vH6P,3bakuke4akpi45n0y93n6zfn3q3r1f,3ffj6vril517r1xt35ag3mrefel0i7,9fF3vH6P,2020-0188,2021-10-31,06:38:15,08:10:43,NA,incomplete,false,true,NA,NA,2,34,NA,yellow,m_s_084.jpg,NA,NA,NA,NA,NA,pleasant,unpleasant,NA,NA,NA,NA,NA,left,1152.10000002384,true,NA,NA,NA,NA,NA,NA,NA,NA
9fF3vH6P,3bakuke4akpi45n0y93n6zfn3q3r1f,3ffj6vril517r1xt35ag3mrefel0i7,9fF3vH6P,2020-0188,2021-10-31,06:38:15,08:10:43,NA,incomplete,false,true,NA,NA,2,35,NA,yellow,n_l_012.jpg,NA,NA,NA,NA,NA,unpleasant,pleasant,NA,NA,NA,NA,NA,right,935.600000023842,true,NA,NA,NA,NA,NA,NA,NA,NA
9fF3vH6P,3bakuke4akpi45n0y93n6zfn3q3r1f,3ffj6vril517r1xt35ag3mrefel0i7,9fF3vH6P,2020-0188,2021-10-31,06:38:15,08:10:43,NA,incomplete,false,NA,NA,true,2,0,NA,NA,NA,right,m_l_003.jpg,yellow,red,NA,NA,NA,NA,NA,NA,NA,NA,NA,NaN,NA,2256.699999988079,right,1,NA,NA,NA,NA,NA
9fF3vH6P,3bakuke4akpi45n0y93n6zfn3q3r1f,3ffj6vril517r1xt35ag3mrefel0i7,9fF3vH6P,2020-0188,2021-10-31,06:38:15,08:10:43,NA,incomplete,false,NA,NA,true,2,1,NA,NA,NA,left,n_l_073.jpg,blue,brown,NA,NA,NA,NA,NA,NA,NA,NA,NA,NaN,NA,2478.099999964237,right,0,NA,NA,NA,NA,NA
9fF3vH6P,3bakuke4akpi45n0y93n6zfn3q3r1f,3ffj6vril517r1xt35ag3mrefel0i7,9fF3vH6P,2020-0188,2021-10-31,06:38:15,08:10:43,NA,incomplete,false,NA,NA,true,2,2,NA,NA,NA,left,n_l_114.jpg,white,blue,NA,NA,NA,NA,NA,NA,NA,NA,NA,NaN,NA,3277.900000035763,left,1,NA,NA,NA,NA,NA
9fF3vH6P,3bakuke4akpi45n0y93n6zfn3q3r1f,3ffj6vril517r1xt35ag3mrefel0i7,9fF3vH6P,2020-0188,2021-10-31,06:38:15,08:10:43,NA,incomplete,false,NA,NA,true,2,3,NA,NA,NA,right,m_l_108.jpg,yellow,red,NA,NA,NA,NA,NA,NA,NA,NA,NA,NaN,NA,3881.900000035763,right,1,NA,NA,NA,NA,NA
9fF3vH6P,3bakuke4akpi45n0y93n6zfn3q3r1f,3ffj6vril517r1xt35ag3mrefel0i7,9fF3vH6P,2020-0188,2021-10-31,06:38:15,08:10:43,NA,incomplete,false,NA,NA,true,2,4,NA,NA,NA,left,n_l_082.jpg,white,blue,NA,NA,NA,NA,NA,NA,NA,NA,NA,NaN,NA,2285.5,right,0,NA,NA,NA,NA,NA
9fF3vH6P,3bakuke4akpi45n0y93n6zfn3q3r1f,3ffj6vril517r1xt35ag3mrefel0i7,9fF3vH6P,2020-0188,2021-10-31,06:38:15,08:10:43,NA,incomplete,false,NA,NA,true,2,5,NA,NA,NA,left,n_s_023.jpg,blue,white,NA,NA,NA,NA,NA,NA,NA,NA,NA,NaN,NA,1720,right,0,NA,NA,NA,NA,NA
9fF3vH6P,3bakuke4akpi45n0y93n6zfn3q3r1f,3ffj6vril517r1xt35ag3mrefel0i7,9fF3vH6P,2020-0188,2021-10-31,06:38:15,08:10:43,NA,incomplete,false,NA,NA,true,2,6,NA,NA,NA,left,n_s_008.jpg,yellow,red,NA,NA,NA,NA,NA,NA,NA,NA,NA,NaN,NA,3911.800000011921,left,1,NA,NA,NA,NA,NA
9fF3vH6P,3bakuke4akpi45n0y93n6zfn3q3r1f,3ffj6vril517r1xt35ag3mrefel0i7,9fF3vH6P,2020-0188,2021-10-31,06:38:15,08:10:43,NA,incomplete,false,NA,NA,true,2,7,NA,NA,NA,left,n_l_009.jpg,green,brown,NA,NA,NA,NA,NA,NA,NA,NA,NA,NaN,NA,3424.599999964237,right,0,NA,NA,NA,NA,NA
9fF3vH6P,3bakuke4akpi45n0y93n6zfn3q3r1f,3ffj6vril517r1xt35ag3mrefel0i7,9fF3vH6P,2020-0188,2021-10-31,06:38:15,08:10:43,NA,incomplete,false,NA,NA,true,2,8,NA,NA,NA,right,n_l_105.jpg,blue,white,NA,NA,NA,NA,NA,NA,NA,NA,NA,NaN,NA,2100,left,0,NA,NA,NA,NA,NA
9fF3vH6P,3bakuke4akpi45n0y93n6zfn3q3r1f,3ffj6vril517r1xt35ag3mrefel0i7,9fF3vH6P,2020-0188,2021-10-31,06:38:15,08:10:43,NA,incomplete,false,NA,NA,true,2,9,NA,NA,NA,left,m_s_059.jpg,blue,white,NA,NA,NA,NA,NA,NA,NA,NA,NA,NaN,NA,1886.300000011921,right,0,NA,NA,NA,NA,NA
9fF3vH6P,3bakuke4akpi45n0y93n6zfn3q3r1f,3ffj6vril517r1xt35ag3mrefel0i7,9fF3vH6P,2020-0188,2021-10-31,06:38:15,08:10:43,NA,incomplete,false,NA,NA,true,2,10,NA,NA,NA,left,n_l_058.jpg,yellow,red,NA,NA,NA,NA,NA,NA,NA,NA,NA,NaN,NA,3945.900000035763,left,1,NA,NA,NA,NA,NA
9fF3vH6P,3bakuke4akpi45n0y93n6zfn3q3r1f,3ffj6vril517r1xt35ag3mrefel0i7,9fF3vH6P,2020-0188,2021-10-31,06:38:15,08:10:43,NA,incomplete,false,NA,NA,true,2,11,NA,NA,NA,left,m_s_088.jpg,green,red,NA,NA,NA,NA,NA,NA,NA,NA,NA,NaN,NA,2022.800000011921,left,1,NA,NA,NA,NA,NA
9fF3vH6P,3bakuke4akpi45n0y93n6zfn3q3r1f,3ffj6vril517r1xt35ag3mrefel0i7,9fF3vH6P,2020-0188,2021-10-31,06:38:15,08:10:43,NA,incomplete,false,NA,NA,true,2,12,NA,NA,NA,left,m_s_050.jpg,red,green,NA,NA,NA,NA,NA,NA,NA,NA,NA,NaN,NA,3231.199999988079,left,1,NA,NA,NA,NA,NA
9fF3vH6P,3bakuke4akpi45n0y93n6zfn3q3r1f,3ffj6vril517r1xt35ag3mrefel0i7,9fF3vH6P,2020-0188,2021-10-31,06:38:15,08:10:43,NA,incomplete,false,NA,NA,true,2,13,NA,NA,NA,right,n_s_111.jpg,green,brown,NA,NA,NA,NA,NA,NA,NA,NA,NA,NaN,NA,2388.699999988079,left,0,NA,NA,NA,NA,NA
9fF3vH6P,3bakuke4akpi45n0y93n6zfn3q3r1f,3ffj6vril517r1xt35ag3mrefel0i7,9fF3vH6P,2020-0188,2021-10-31,06:38:15,08:10:43,NA,incomplete,false,NA,NA,true,2,14,NA,NA,NA,left,m_l_104.jpg,brown,green,NA,NA,NA,NA,NA,NA,NA,NA,NA,NaN,NA,9277.300000011921,left,1,NA,NA,NA,NA,NA
9fF3vH6P,3bakuke4akpi45n0y93n6zfn3q3r1f,3ffj6vril517r1xt35ag3mrefel0i7,9fF3vH6P,2020-0188,2021-10-31,06:38:15,08:10:43,NA,incomplete,false,NA,NA,true,2,15,NA,NA,NA,right,n_s_054.jpg,white,blue,NA,NA,NA,NA,NA,NA,NA,NA,NA,NaN,NA,2360.600000023842,right,1,NA,NA,NA,NA,NA
9fF3vH6P,3bakuke4akpi45n0y93n6zfn3q3r1f,3ffj6vril517r1xt35ag3mrefel0i7,9fF3vH6P,2020-0188,2021-10-31,06:38:15,08:10:43,NA,incomplete,false,NA,NA,true,2,16,NA,NA,NA,right,n_s_076.jpg,yellow,red,NA,NA,NA,NA,NA,NA,NA,NA,NA,NaN,NA,2417,right,1,NA,NA,NA,NA,NA
9fF3vH6P,3bakuke4akpi45n0y93n6zfn3q3r1f,3ffj6vril517r1xt35ag3mrefel0i7,9fF3vH6P,2020-0188,2021-10-31,06:38:15,08:10:43,NA,incomplete,false,NA,NA,true,2,17,NA,NA,NA,right,n_s_010.jpg,red,green,NA,NA,NA,NA,NA,NA,NA,NA,NA,NaN,NA,1788.1000000238419,right,1,NA,NA,NA,NA,NA
9fF3vH6P,3bakuke4akpi45n0y93n6zfn3q3r1f,3ffj6vril517r1xt35ag3mrefel0i7,9fF3vH6P,2020-0188,2021-10-31,06:38:15,08:10:43,NA,incomplete,false,NA,NA,true,2,18,NA,NA,NA,left,m_l_077.jpg,green,red,NA,NA,NA,NA,NA,NA,NA,NA,NA,NaN,NA,2289.900000035763,left,1,NA,NA,NA,NA,NA
9fF3vH6P,3bakuke4akpi45n0y93n6zfn3q3r1f,3ffj6vril517r1xt35ag3mrefel0i7,9fF3vH6P,2020-0188,2021-10-31,06:38:15,08:10:43,NA,incomplete,false,NA,NA,true,2,19,NA,NA,NA,right,n_l_012.jpg,red,yellow,NA,NA,NA,NA,NA,NA,NA,NA,NA,NaN,NA,2892.800000011921,right,1,NA,NA,NA,NA,NA
9fF3vH6P,3bakuke4akpi45n0y93n6zfn3q3r1f,3ffj6vril517r1xt35ag3mrefel0i7,9fF3vH6P,2020-0188,2021-10-31,06:38:15,08:10:43,NA,incomplete,false,NA,NA,true,2,20,NA,NA,NA,left,m_l_035.jpg,brown,green,NA,NA,NA,NA,NA,NA,NA,NA,NA,NaN,NA,2194.199999988079,left,1,NA,NA,NA,NA,NA
9fF3vH6P,3bakuke4akpi45n0y93n6zfn3q3r1f,3ffj6vril517r1xt35ag3mrefel0i7,9fF3vH6P,2020-0188,2021-10-31,06:38:15,08:10:43,NA,incomplete,false,NA,NA,true,2,21,NA,NA,NA,right,m_l_079.jpg,blue,brown,NA,NA,NA,NA,NA,NA,NA,NA,NA,NaN,NA,2223.899999976158,right,1,NA,NA,NA,NA,NA
9fF3vH6P,3bakuke4akpi45n0y93n6zfn3q3r1f,3ffj6vril517r1xt35ag3mrefel0i7,9fF3vH6P,2020-0188,2021-10-31,06:38:15,08:10:43,NA,incomplete,false,NA,true,NA,2,0,NA,NA,NA,left,NA,NA,NA,present,NA,NA,n_s_010.jpg,green,m_l_003.jpg,red,between,NA,NaN,NA,NA,NA,NA,left,3959.600000023842,1,2,6286.399999976158
9fF3vH6P,3bakuke4akpi45n0y93n6zfn3q3r1f,3ffj6vril517r1xt35ag3mrefel0i7,9fF3vH6P,2020-0188,2021-10-31,06:38:15,08:10:43,NA,incomplete,false,NA,true,NA,2,1,NA,NA,NA,right,NA,NA,NA,present,NA,NA,n_l_009.jpg,green,m_l_079.jpg,brown,between,NA,NaN,NA,NA,NA,NA,right,3309.7999999523163,1,2,53083
9fF3vH6P,3bakuke4akpi45n0y93n6zfn3q3r1f,3ffj6vril517r1xt35ag3mrefel0i7,9fF3vH6P,2020-0188,2021-10-31,06:38:15,08:10:43,NA,incomplete,false,NA,true,NA,2,2,NA,NA,NA,left,NA,NA,NA,present,NA,NA,m_s_050.jpg,red,n_l_058.jpg,yellow,between,NA,NaN,NA,NA,NA,NA,left,6591.399999976158,1,3,5310.399999976158
9fF3vH6P,3bakuke4akpi45n0y93n6zfn3q3r1f,3ffj6vril517r1xt35ag3mrefel0i7,9fF3vH6P,2020-0188,2021-10-31,06:38:15,08:10:43,NA,incomplete,false,NA,true,NA,2,3,NA,NA,NA,right,NA,NA,NA,present,NA,NA,n_l_012.jpg,yellow,n_s_008.jpg,yellow,within,NA,NaN,NA,NA,NA,NA,left,10292.5,0,0,3480.5
9fF3vH6P,3bakuke4akpi45n0y93n6zfn3q3r1f,3ffj6vril517r1xt35ag3mrefel0i7,9fF3vH6P,2020-0188,2021-10-31,06:38:15,08:10:43,NA,incomplete,false,NA,true,NA,2,4,NA,NA,NA,left,NA,NA,NA,present,NA,NA,n_s_023.jpg,blue,m_l_104.jpg,brown,between,NA,NaN,NA,NA,NA,NA,right,5531.5,0,2,7772.400000035763
9fF3vH6P,3bakuke4akpi45n0y93n6zfn3q3r1f,3ffj6vril517r1xt35ag3mrefel0i7,9fF3vH6P,2020-0188,2021-10-31,06:38:15,08:10:43,NA,incomplete,false,NA,true,NA,2,5,NA,NA,NA,right,NA,NA,NA,present,NA,NA,m_l_077.jpg,green,m_s_088.jpg,green,within,NA,NaN,NA,NA,NA,NA,right,6854.300000011921,1,0,2504.600000023842
9fF3vH6P,3bakuke4akpi45n0y93n6zfn3q3r1f,3ffj6vril517r1xt35ag3mrefel0i7,9fF3vH6P,2020-0188,2021-10-31,06:38:15,08:10:43,NA,incomplete,false,NA,true,NA,2,6,NA,NA,NA,right,NA,NA,NA,present,NA,NA,m_l_108.jpg,red,n_s_076.jpg,red,within,NA,NaN,NA,NA,NA,NA,left,11014.300000011921,0,0,2644.899999976158
9fF3vH6P,3bakuke4akpi45n0y93n6zfn3q3r1f,3ffj6vril517r1xt35ag3mrefel0i7,9fF3vH6P,2020-0188,2021-10-31,06:38:15,08:10:43,NA,incomplete,false,NA,true,NA,2,7,NA,NA,NA,left,NA,NA,NA,present,NA,NA,n_l_105.jpg,white,n_l_114.jpg,white,within,NA,NaN,NA,NA,NA,NA,left,7264.900000035763,1,0,2206.399999976158
9fF3vH6P,3bakuke4akpi45n0y93n6zfn3q3r1f,3ffj6vril517r1xt35ag3mrefel0i7,9fF3vH6P,2020-0188,2021-10-31,06:38:15,08:10:43,NA,incomplete,false,NA,true,NA,2,8,NA,NA,NA,right,NA,NA,NA,present,NA,NA,n_l_073.jpg,blue,n_s_054.jpg,blue,within,NA,NaN,NA,NA,NA,NA,right,2824.400000035763,1,0,2515
9fF3vH6P,3bakuke4akpi45n0y93n6zfn3q3r1f,3ffj6vril517r1xt35ag3mrefel0i7,9fF3vH6P,2020-0188,2021-10-31,06:38:15,08:10:43,NA,incomplete,false,NA,true,NA,2,9,NA,NA,NA,left,NA,NA,NA,present,NA,NA,n_l_082.jpg,white,m_s_059.jpg,blue,between,NA,NaN,NA,NA,NA,NA,right,1796.699999988079,0,2,2165.399999976158
9fF3vH6P,3bakuke4akpi45n0y93n6zfn3q3r1f,3ffj6vril517r1xt35ag3mrefel0i7,9fF3vH6P,2020-0188,2021-10-31,06:38:15,08:10:43,NA,incomplete,false,NA,true,NA,2,10,NA,NA,NA,left,NA,NA,NA,present,NA,NA,n_s_111.jpg,brown,m_l_035.jpg,brown,within,NA,NaN,NA,NA,NA,NA,left,10007.300000011921,1,0,2320.2000000476837
9fF3vH6P,3bakuke4akpi45n0y93n6zfn3q3r1f,3ffj6vril517r1xt35ag3mrefel0i7,9fF3vH6P,2020-0188,2021-10-31,06:38:15,08:10:43,NA,incomplete,false,true,NA,NA,3,0,NA,gray,m_l_096.jpg,NA,NA,NA,NA,NA,pleasant,unpleasant,NA,NA,NA,NA,NA,right,2164.19999998808,true,NA,NA,NA,NA,NA,NA,NA,NA
9fF3vH6P,3bakuke4akpi45n0y93n6zfn3q3r1f,3ffj6vril517r1xt35ag3mrefel0i7,9fF3vH6P,2020-0188,2021-10-31,06:38:15,08:10:43,NA,incomplete,false,true,NA,NA,3,1,NA,gray,n_s_003.jpg,NA,NA,NA,NA,NA,pleasant,unpleasant,NA,NA,NA,NA,NA,right,2144.30000001192,true,NA,NA,NA,NA,NA,NA,NA,NA
9fF3vH6P,3bakuke4akpi45n0y93n6zfn3q3r1f,3ffj6vril517r1xt35ag3mrefel0i7,9fF3vH6P,2020-0188,2021-10-31,06:38:15,08:10:43,NA,incomplete,false,true,NA,NA,3,2,NA,gray,m_s_089.jpg,NA,NA,NA,NA,NA,pleasant,unpleasant,NA,NA,NA,NA,NA,left,1452,true,NA,NA,NA,NA,NA,NA,NA,NA
9fF3vH6P,3bakuke4akpi45n0y93n6zfn3q3r1f,3ffj6vril517r1xt35ag3mrefel0i7,9fF3vH6P,2020-0188,2021-10-31,06:38:15,08:10:43,NA,incomplete,false,true,NA,NA,3,3,NA,gray,n_s_081.jpg,NA,NA,NA,NA,NA,unpleasant,pleasant,NA,NA,NA,NA,NA,left,2021.80000001192,true,NA,NA,NA,NA,NA,NA,NA,NA
9fF3vH6P,3bakuke4akpi45n0y93n6zfn3q3r1f,3ffj6vril517r1xt35ag3mrefel0i7,9fF3vH6P,2020-0188,2021-10-31,06:38:15,08:10:43,NA,incomplete,false,true,NA,NA,3,4,NA,gray,m_s_083.jpg,NA,NA,NA,NA,NA,pleasant,unpleasant,NA,NA,NA,NA,NA,left,1463.59999996424,true,NA,NA,NA,NA,NA,NA,NA,NA
9fF3vH6P,3bakuke4akpi45n0y93n6zfn3q3r1f,3ffj6vril517r1xt35ag3mrefel0i7,9fF3vH6P,2020-0188,2021-10-31,06:38:15,08:10:43,NA,incomplete,false,true,NA,NA,3,5,NA,gray,n_s_032.jpg,NA,NA,NA,NA,NA,unpleasant,pleasant,NA,NA,NA,NA,NA,right,1484.69999998808,true,NA,NA,NA,NA,NA,NA,NA,NA
9fF3vH6P,3bakuke4akpi45n0y93n6zfn3q3r1f,3ffj6vril517r1xt35ag3mrefel0i7,9fF3vH6P,2020-0188,2021-10-31,06:38:15,08:10:43,NA,incomplete,false,true,NA,NA,3,6,NA,blue,n_s_009.jpg,NA,NA,NA,NA,NA,unpleasant,pleasant,NA,NA,NA,NA,NA,right,846.100000023842,true,NA,NA,NA,NA,NA,NA,NA,NA
9fF3vH6P,3bakuke4akpi45n0y93n6zfn3q3r1f,3ffj6vril517r1xt35ag3mrefel0i7,9fF3vH6P,2020-0188,2021-10-31,06:38:15,08:10:43,NA,incomplete,false,true,NA,NA,3,7,NA,blue,n_l_065.jpg,NA,NA,NA,NA,NA,pleasant,unpleasant,NA,NA,NA,NA,NA,left,1625.5,true,NA,NA,NA,NA,NA,NA,NA,NA
9fF3vH6P,3bakuke4akpi45n0y93n6zfn3q3r1f,3ffj6vril517r1xt35ag3mrefel0i7,9fF3vH6P,2020-0188,2021-10-31,06:38:15,08:10:43,NA,incomplete,false,true,NA,NA,3,8,NA,blue,m_l_060.jpg,NA,NA,NA,NA,NA,unpleasant,pleasant,NA,NA,NA,NA,NA,right,972.800000011921,true,NA,NA,NA,NA,NA,NA,NA,NA
9fF3vH6P,3bakuke4akpi45n0y93n6zfn3q3r1f,3ffj6vril517r1xt35ag3mrefel0i7,9fF3vH6P,2020-0188,2021-10-31,06:38:15,08:10:43,NA,incomplete,false,true,NA,NA,3,9,NA,blue,n_s_101.jpg,NA,NA,NA,NA,NA,unpleasant,pleasant,NA,NA,NA,NA,NA,left,1127.5,true,NA,NA,NA,NA,NA,NA,NA,NA
9fF3vH6P,3bakuke4akpi45n0y93n6zfn3q3r1f,3ffj6vril517r1xt35ag3mrefel0i7,9fF3vH6P,2020-0188,2021-10-31,06:38:15,08:10:43,NA,incomplete,false,true,NA,NA,3,10,NA,blue,n_l_106.jpg,NA,NA,NA,NA,NA,unpleasant,pleasant,NA,NA,NA,NA,NA,right,1361.29999995232,true,NA,NA,NA,NA,NA,NA,NA,NA
9fF3vH6P,3bakuke4akpi45n0y93n6zfn3q3r1f,3ffj6vril517r1xt35ag3mrefel0i7,9fF3vH6P,2020-0188,2021-10-31,06:38:15,08:10:43,NA,incomplete,false,true,NA,NA,3,11,NA,blue,n_l_039.jpg,NA,NA,NA,NA,NA,pleasant,unpleasant,NA,NA,NA,NA,NA,left,988.300000011921,true,NA,NA,NA,NA,NA,NA,NA,NA
9fF3vH6P,3bakuke4akpi45n0y93n6zfn3q3r1f,3ffj6vril517r1xt35ag3mrefel0i7,9fF3vH6P,2020-0188,2021-10-31,06:38:15,08:10:43,NA,incomplete,false,true,NA,NA,3,12,NA,white,m_l_024.jpg,NA,NA,NA,NA,NA,unpleasant,pleasant,NA,NA,NA,NA,NA,right,1394.19999998808,true,NA,NA,NA,NA,NA,NA,NA,NA
9fF3vH6P,3bakuke4akpi45n0y93n6zfn3q3r1f,3ffj6vril517r1xt35ag3mrefel0i7,9fF3vH6P,2020-0188,2021-10-31,06:38:15,08:10:43,NA,incomplete,false,true,NA,NA,3,13,NA,white,n_l_047.jpg,NA,NA,NA,NA,NA,pleasant,unpleasant,NA,NA,NA,NA,NA,right,1715.80000001192,true,NA,NA,NA,NA,NA,NA,NA,NA
9fF3vH6P,3bakuke4akpi45n0y93n6zfn3q3r1f,3ffj6vril517r1xt35ag3mrefel0i7,9fF3vH6P,2020-0188,2021-10-31,06:38:15,08:10:43,NA,incomplete,false,true,NA,NA,3,14,NA,white,m_s_038.jpg,NA,NA,NA,NA,NA,pleasant,unpleasant,NA,NA,NA,NA,NA,left,1457.09999996424,true,NA,NA,NA,NA,NA,NA,NA,NA
9fF3vH6P,3bakuke4akpi45n0y93n6zfn3q3r1f,3ffj6vril517r1xt35ag3mrefel0i7,9fF3vH6P,2020-0188,2021-10-31,06:38:15,08:10:43,NA,incomplete,false,true,NA,NA,3,15,NA,white,n_l_079.jpg,NA,NA,NA,NA,NA,pleasant,unpleasant,NA,NA,NA,NA,NA,right,1293.69999998808,true,NA,NA,NA,NA,NA,NA,NA,NA
9fF3vH6P,3bakuke4akpi45n0y93n6zfn3q3r1f,3ffj6vril517r1xt35ag3mrefel0i7,9fF3vH6P,2020-0188,2021-10-31,06:38:15,08:10:43,NA,incomplete,false,true,NA,NA,3,16,NA,white,n_s_074.jpg,NA,NA,NA,NA,NA,pleasant,unpleasant,NA,NA,NA,NA,NA,right,767,true,NA,NA,NA,NA,NA,NA,NA,NA
9fF3vH6P,3bakuke4akpi45n0y93n6zfn3q3r1f,3ffj6vril517r1xt35ag3mrefel0i7,9fF3vH6P,2020-0188,2021-10-31,06:38:15,08:10:43,NA,incomplete,false,true,NA,NA,3,17,NA,white,n_l_061.jpg,NA,NA,NA,NA,NA,unpleasant,pleasant,NA,NA,NA,NA,NA,right,1218.30000001192,true,NA,NA,NA,NA,NA,NA,NA,NA
9fF3vH6P,3bakuke4akpi45n0y93n6zfn3q3r1f,3ffj6vril517r1xt35ag3mrefel0i7,9fF3vH6P,2020-0188,2021-10-31,06:38:15,08:10:43,NA,incomplete,false,true,NA,NA,3,18,NA,orange,m_l_051.jpg,NA,NA,NA,NA,NA,pleasant,unpleasant,NA,NA,NA,NA,NA,right,1042.19999998808,true,NA,NA,NA,NA,NA,NA,NA,NA
9fF3vH6P,3bakuke4akpi45n0y93n6zfn3q3r1f,3ffj6vril517r1xt35ag3mrefel0i7,9fF3vH6P,2020-0188,2021-10-31,06:38:15,08:10:43,NA,incomplete,false,true,NA,NA,3,19,NA,orange,m_s_095.jpg,NA,NA,NA,NA,NA,unpleasant,pleasant,NA,NA,NA,NA,NA,right,1058.79999995232,true,NA,NA,NA,NA,NA,NA,NA,NA
9fF3vH6P,3bakuke4akpi45n0y93n6zfn3q3r1f,3ffj6vril517r1xt35ag3mrefel0i7,9fF3vH6P,2020-0188,2021-10-31,06:38:15,08:10:43,NA,incomplete,false,true,NA,NA,3,20,NA,orange,n_s_034.jpg,NA,NA,NA,NA,NA,unpleasant,pleasant,NA,NA,NA,NA,NA,left,1914.69999998808,true,NA,NA,NA,NA,NA,NA,NA,NA
9fF3vH6P,3bakuke4akpi45n0y93n6zfn3q3r1f,3ffj6vril517r1xt35ag3mrefel0i7,9fF3vH6P,2020-0188,2021-10-31,06:38:15,08:10:43,NA,incomplete,false,true,NA,NA,3,21,NA,orange,n_l_033.jpg,NA,NA,NA,NA,NA,unpleasant,pleasant,NA,NA,NA,NA,NA,left,1878.30000001192,true,NA,NA,NA,NA,NA,NA,NA,NA
9fF3vH6P,3bakuke4akpi45n0y93n6zfn3q3r1f,3ffj6vril517r1xt35ag3mrefel0i7,9fF3vH6P,2020-0188,2021-10-31,06:38:15,08:10:43,NA,incomplete,false,true,NA,NA,3,22,NA,orange,m_l_066.jpg,NA,NA,NA,NA,NA,unpleasant,pleasant,NA,NA,NA,NA,NA,right,1520.19999998808,true,NA,NA,NA,NA,NA,NA,NA,NA
9fF3vH6P,3bakuke4akpi45n0y93n6zfn3q3r1f,3ffj6vril517r1xt35ag3mrefel0i7,9fF3vH6P,2020-0188,2021-10-31,06:38:15,08:10:43,NA,incomplete,false,true,NA,NA,3,23,NA,orange,m_s_094.jpg,NA,NA,NA,NA,NA,pleasant,unpleasant,NA,NA,NA,NA,NA,left,2267.30000001192,true,NA,NA,NA,NA,NA,NA,NA,NA
9fF3vH6P,3bakuke4akpi45n0y93n6zfn3q3r1f,3ffj6vril517r1xt35ag3mrefel0i7,9fF3vH6P,2020-0188,2021-10-31,06:38:15,08:10:43,NA,incomplete,false,true,NA,NA,3,24,NA,green,n_l_053.jpg,NA,NA,NA,NA,NA,pleasant,unpleasant,NA,NA,NA,NA,NA,left,1036.40000003576,true,NA,NA,NA,NA,NA,NA,NA,NA
9fF3vH6P,3bakuke4akpi45n0y93n6zfn3q3r1f,3ffj6vril517r1xt35ag3mrefel0i7,9fF3vH6P,2020-0188,2021-10-31,06:38:15,08:10:43,NA,incomplete,false,true,NA,NA,3,25,NA,green,n_s_115.jpg,NA,NA,NA,NA,NA,pleasant,unpleasant,NA,NA,NA,NA,NA,left,1351.10000002384,true,NA,NA,NA,NA,NA,NA,NA,NA
9fF3vH6P,3bakuke4akpi45n0y93n6zfn3q3r1f,3ffj6vril517r1xt35ag3mrefel0i7,9fF3vH6P,2020-0188,2021-10-31,06:38:15,08:10:43,NA,incomplete,false,true,NA,NA,3,26,NA,green,n_s_001.jpg,NA,NA,NA,NA,NA,unpleasant,pleasant,NA,NA,NA,NA,NA,left,1422.39999997616,true,NA,NA,NA,NA,NA,NA,NA,NA
9fF3vH6P,3bakuke4akpi45n0y93n6zfn3q3r1f,3ffj6vril517r1xt35ag3mrefel0i7,9fF3vH6P,2020-0188,2021-10-31,06:38:15,08:10:43,NA,incomplete,false,true,NA,NA,3,27,NA,green,n_s_089.jpg,NA,NA,NA,NA,NA,pleasant,unpleasant,NA,NA,NA,NA,NA,left,2283.89999997616,true,NA,NA,NA,NA,NA,NA,NA,NA
9fF3vH6P,3bakuke4akpi45n0y93n6zfn3q3r1f,3ffj6vril517r1xt35ag3mrefel0i7,9fF3vH6P,2020-0188,2021-10-31,06:38:15,08:10:43,NA,incomplete,false,true,NA,NA,3,28,NA,green,m_s_028.jpg,NA,NA,NA,NA,NA,pleasant,unpleasant,NA,NA,NA,NA,NA,left,1021.39999997616,true,NA,NA,NA,NA,NA,NA,NA,NA
9fF3vH6P,3bakuke4akpi45n0y93n6zfn3q3r1f,3ffj6vril517r1xt35ag3mrefel0i7,9fF3vH6P,2020-0188,2021-10-31,06:38:15,08:10:43,NA,incomplete,false,true,NA,NA,3,29,NA,green,n_l_027.jpg,NA,NA,NA,NA,NA,pleasant,unpleasant,NA,NA,NA,NA,NA,right,556.400000035763,true,NA,NA,NA,NA,NA,NA,NA,NA
9fF3vH6P,3bakuke4akpi45n0y93n6zfn3q3r1f,3ffj6vril517r1xt35ag3mrefel0i7,9fF3vH6P,2020-0188,2021-10-31,06:38:15,08:10:43,NA,incomplete,false,true,NA,NA,3,30,NA,black,m_l_040.jpg,NA,NA,NA,NA,NA,pleasant,unpleasant,NA,NA,NA,NA,NA,right,1003.79999995232,true,NA,NA,NA,NA,NA,NA,NA,NA
9fF3vH6P,3bakuke4akpi45n0y93n6zfn3q3r1f,3ffj6vril517r1xt35ag3mrefel0i7,9fF3vH6P,2020-0188,2021-10-31,06:38:15,08:10:43,NA,incomplete,false,true,NA,NA,3,31,NA,black,m_l_083.jpg,NA,NA,NA,NA,NA,pleasant,unpleasant,NA,NA,NA,NA,NA,left,1204.39999997616,true,NA,NA,NA,NA,NA,NA,NA,NA
9fF3vH6P,3bakuke4akpi45n0y93n6zfn3q3r1f,3ffj6vril517r1xt35ag3mrefel0i7,9fF3vH6P,2020-0188,2021-10-31,06:38:15,08:10:43,NA,incomplete,false,true,NA,NA,3,32,NA,black,m_l_026.jpg,NA,NA,NA,NA,NA,pleasant,unpleasant,NA,NA,NA,NA,NA,left,1074.59999996424,true,NA,NA,NA,NA,NA,NA,NA,NA
9fF3vH6P,3bakuke4akpi45n0y93n6zfn3q3r1f,3ffj6vril517r1xt35ag3mrefel0i7,9fF3vH6P,2020-0188,2021-10-31,06:38:15,08:10:43,NA,incomplete,false,true,NA,NA,3,33,NA,black,n_s_026.jpg,NA,NA,NA,NA,NA,unpleasant,pleasant,NA,NA,NA,NA,NA,right,620.100000023842,true,NA,NA,NA,NA,NA,NA,NA,NA
9fF3vH6P,3bakuke4akpi45n0y93n6zfn3q3r1f,3ffj6vril517r1xt35ag3mrefel0i7,9fF3vH6P,2020-0188,2021-10-31,06:38:15,08:10:43,NA,incomplete,false,true,NA,NA,3,34,NA,black,n_s_051.jpg,NA,NA,NA,NA,NA,unpleasant,pleasant,NA,NA,NA,NA,NA,right,1347.10000002384,true,NA,NA,NA,NA,NA,NA,NA,NA
9fF3vH6P,3bakuke4akpi45n0y93n6zfn3q3r1f,3ffj6vril517r1xt35ag3mrefel0i7,9fF3vH6P,2020-0188,2021-10-31,06:38:15,08:10:43,NA,incomplete,false,true,NA,NA,3,35,NA,black,m_l_005.jpg,NA,NA,NA,NA,NA,pleasant,unpleasant,NA,NA,NA,NA,NA,left,1275.89999997616,true,NA,NA,NA,NA,NA,NA,NA,NA
9fF3vH6P,3bakuke4akpi45n0y93n6zfn3q3r1f,3ffj6vril517r1xt35ag3mrefel0i7,9fF3vH6P,2020-0188,2021-10-31,06:38:15,08:10:43,NA,incomplete,false,NA,NA,true,3,0,NA,NA,NA,right,n_s_003.jpg,blue,gray,NA,NA,NA,NA,NA,NA,NA,NA,NA,NaN,NA,3545.900000035763,right,1,NA,NA,NA,NA,NA
9fF3vH6P,3bakuke4akpi45n0y93n6zfn3q3r1f,3ffj6vril517r1xt35ag3mrefel0i7,9fF3vH6P,2020-0188,2021-10-31,06:38:15,08:10:43,NA,incomplete,false,NA,NA,true,3,1,NA,NA,NA,right,n_l_106.jpg,gray,blue,NA,NA,NA,NA,NA,NA,NA,NA,NA,NaN,NA,2184.300000011921,left,0,NA,NA,NA,NA,NA
9fF3vH6P,3bakuke4akpi45n0y93n6zfn3q3r1f,3ffj6vril517r1xt35ag3mrefel0i7,9fF3vH6P,2020-0188,2021-10-31,06:38:15,08:10:43,NA,incomplete,false,NA,NA,true,3,2,NA,NA,NA,left,m_s_038.jpg,white,blue,NA,NA,NA,NA,NA,NA,NA,NA,NA,NaN,NA,2198.800000011921,left,1,NA,NA,NA,NA,NA
9fF3vH6P,3bakuke4akpi45n0y93n6zfn3q3r1f,3ffj6vril517r1xt35ag3mrefel0i7,9fF3vH6P,2020-0188,2021-10-31,06:38:15,08:10:43,NA,incomplete,false,NA,NA,true,3,3,NA,NA,NA,left,n_s_001.jpg,green,black,NA,NA,NA,NA,NA,NA,NA,NA,NA,NaN,NA,2182.900000035763,left,1,NA,NA,NA,NA,NA
9fF3vH6P,3bakuke4akpi45n0y93n6zfn3q3r1f,3ffj6vril517r1xt35ag3mrefel0i7,9fF3vH6P,2020-0188,2021-10-31,06:38:15,08:10:43,NA,incomplete,false,NA,NA,true,3,4,NA,NA,NA,left,n_l_027.jpg,green,orange,NA,NA,NA,NA,NA,NA,NA,NA,NA,NaN,NA,1777.5,right,0,NA,NA,NA,NA,NA
9fF3vH6P,3bakuke4akpi45n0y93n6zfn3q3r1f,3ffj6vril517r1xt35ag3mrefel0i7,9fF3vH6P,2020-0188,2021-10-31,06:38:15,08:10:43,NA,incomplete,false,NA,NA,true,3,5,NA,NA,NA,right,m_l_060.jpg,gray,blue,NA,NA,NA,NA,NA,NA,NA,NA,NA,NaN,NA,1818.1000000238419,right,1,NA,NA,NA,NA,NA
9fF3vH6P,3bakuke4akpi45n0y93n6zfn3q3r1f,3ffj6vril517r1xt35ag3mrefel0i7,9fF3vH6P,2020-0188,2021-10-31,06:38:15,08:10:43,NA,incomplete,false,NA,NA,true,3,6,NA,NA,NA,right,n_l_047.jpg,orange,white,NA,NA,NA,NA,NA,NA,NA,NA,NA,NaN,NA,5400.199999988079,right,1,NA,NA,NA,NA,NA
9fF3vH6P,3bakuke4akpi45n0y93n6zfn3q3r1f,3ffj6vril517r1xt35ag3mrefel0i7,9fF3vH6P,2020-0188,2021-10-31,06:38:15,08:10:43,NA,incomplete,false,NA,NA,true,3,7,NA,NA,NA,right,n_s_074.jpg,orange,white,NA,NA,NA,NA,NA,NA,NA,NA,NA,NaN,NA,1352.699999988079,right,1,NA,NA,NA,NA,NA
9fF3vH6P,3bakuke4akpi45n0y93n6zfn3q3r1f,3ffj6vril517r1xt35ag3mrefel0i7,9fF3vH6P,2020-0188,2021-10-31,06:38:15,08:10:43,NA,incomplete,false,NA,NA,true,3,8,NA,NA,NA,left,m_l_026.jpg,black,green,NA,NA,NA,NA,NA,NA,NA,NA,NA,NaN,NA,5165.400000035763,left,1,NA,NA,NA,NA,NA
9fF3vH6P,3bakuke4akpi45n0y93n6zfn3q3r1f,3ffj6vril517r1xt35ag3mrefel0i7,9fF3vH6P,2020-0188,2021-10-31,06:38:15,08:10:43,NA,incomplete,false,NA,NA,true,3,9,NA,NA,NA,right,m_s_095.jpg,green,orange,NA,NA,NA,NA,NA,NA,NA,NA,NA,NaN,NA,2674,left,0,NA,NA,NA,NA,NA
9fF3vH6P,3bakuke4akpi45n0y93n6zfn3q3r1f,3ffj6vril517r1xt35ag3mrefel0i7,9fF3vH6P,2020-0188,2021-10-31,06:38:15,08:10:43,NA,incomplete,false,NA,NA,true,3,10,NA,NA,NA,left,n_l_061.jpg,white,orange,NA,NA,NA,NA,NA,NA,NA,NA,NA,NaN,NA,2240,left,1,NA,NA,NA,NA,NA
9fF3vH6P,3bakuke4akpi45n0y93n6zfn3q3r1f,3ffj6vril517r1xt35ag3mrefel0i7,9fF3vH6P,2020-0188,2021-10-31,06:38:15,08:10:43,NA,incomplete,false,NA,NA,true,3,11,NA,NA,NA,left,m_s_028.jpg,green,black,NA,NA,NA,NA,NA,NA,NA,NA,NA,NaN,NA,1849.5,left,1,NA,NA,NA,NA,NA
9fF3vH6P,3bakuke4akpi45n0y93n6zfn3q3r1f,3ffj6vril517r1xt35ag3mrefel0i7,9fF3vH6P,2020-0188,2021-10-31,06:38:15,08:10:43,NA,incomplete,false,NA,NA,true,3,12,NA,NA,NA,right,m_l_005.jpg,green,black,NA,NA,NA,NA,NA,NA,NA,NA,NA,NaN,NA,2579.399999976158,right,1,NA,NA,NA,NA,NA
9fF3vH6P,3bakuke4akpi45n0y93n6zfn3q3r1f,3ffj6vril517r1xt35ag3mrefel0i7,9fF3vH6P,2020-0188,2021-10-31,06:38:15,08:10:43,NA,incomplete,false,NA,NA,true,3,13,NA,NA,NA,left,m_l_083.jpg,black,green,NA,NA,NA,NA,NA,NA,NA,NA,NA,NaN,NA,2290.600000023842,left,1,NA,NA,NA,NA,NA
9fF3vH6P,3bakuke4akpi45n0y93n6zfn3q3r1f,3ffj6vril517r1xt35ag3mrefel0i7,9fF3vH6P,2020-0188,2021-10-31,06:38:15,08:10:43,NA,incomplete,false,NA,NA,true,3,14,NA,NA,NA,right,n_s_115.jpg,orange,green,NA,NA,NA,NA,NA,NA,NA,NA,NA,NaN,NA,3908.600000023842,right,1,NA,NA,NA,NA,NA
9fF3vH6P,3bakuke4akpi45n0y93n6zfn3q3r1f,3ffj6vril517r1xt35ag3mrefel0i7,9fF3vH6P,2020-0188,2021-10-31,06:38:15,08:10:43,NA,incomplete,false,NA,NA,true,3,15,NA,NA,NA,left,n_s_032.jpg,gray,blue,NA,NA,NA,NA,NA,NA,NA,NA,NA,NaN,NA,1701,right,0,NA,NA,NA,NA,NA
9fF3vH6P,3bakuke4akpi45n0y93n6zfn3q3r1f,3ffj6vril517r1xt35ag3mrefel0i7,9fF3vH6P,2020-0188,2021-10-31,06:38:15,08:10:43,NA,incomplete,false,NA,NA,true,3,16,NA,NA,NA,left,n_l_039.jpg,blue,white,NA,NA,NA,NA,NA,NA,NA,NA,NA,NaN,NA,2597.7000000476837,left,1,NA,NA,NA,NA,NA
9fF3vH6P,3bakuke4akpi45n0y93n6zfn3q3r1f,3ffj6vril517r1xt35ag3mrefel0i7,9fF3vH6P,2020-0188,2021-10-31,06:38:15,08:10:43,NA,incomplete,false,NA,NA,true,3,17,NA,NA,NA,right,m_s_083.jpg,blue,gray,NA,NA,NA,NA,NA,NA,NA,NA,NA,NaN,NA,1839.6000000238419,right,1,NA,NA,NA,NA,NA
9fF3vH6P,3bakuke4akpi45n0y93n6zfn3q3r1f,3ffj6vril517r1xt35ag3mrefel0i7,9fF3vH6P,2020-0188,2021-10-31,06:38:15,08:10:43,NA,incomplete,false,NA,NA,true,3,18,NA,NA,NA,right,m_l_066.jpg,green,orange,NA,NA,NA,NA,NA,NA,NA,NA,NA,NaN,NA,3531.100000023842,right,1,NA,NA,NA,NA,NA
9fF3vH6P,3bakuke4akpi45n0y93n6zfn3q3r1f,3ffj6vril517r1xt35ag3mrefel0i7,9fF3vH6P,2020-0188,2021-10-31,06:38:15,08:10:43,NA,incomplete,false,NA,NA,true,3,19,NA,NA,NA,left,n_l_065.jpg,blue,gray,NA,NA,NA,NA,NA,NA,NA,NA,NA,NaN,NA,3678.600000023842,left,1,NA,NA,NA,NA,NA
9fF3vH6P,3bakuke4akpi45n0y93n6zfn3q3r1f,3ffj6vril517r1xt35ag3mrefel0i7,9fF3vH6P,2020-0188,2021-10-31,06:38:15,08:10:43,NA,incomplete,false,NA,NA,true,3,20,NA,NA,NA,right,m_s_094.jpg,white,orange,NA,NA,NA,NA,NA,NA,NA,NA,NA,NaN,NA,2616.300000011921,left,0,NA,NA,NA,NA,NA
9fF3vH6P,3bakuke4akpi45n0y93n6zfn3q3r1f,3ffj6vril517r1xt35ag3mrefel0i7,9fF3vH6P,2020-0188,2021-10-31,06:38:15,08:10:43,NA,incomplete,false,NA,NA,true,3,21,NA,NA,NA,left,n_s_034.jpg,orange,green,NA,NA,NA,NA,NA,NA,NA,NA,NA,NaN,NA,3058.7000000476837,right,0,NA,NA,NA,NA,NA
9fF3vH6P,3bakuke4akpi45n0y93n6zfn3q3r1f,3ffj6vril517r1xt35ag3mrefel0i7,9fF3vH6P,2020-0188,2021-10-31,06:38:15,08:10:43,NA,incomplete,false,NA,true,NA,3,0,NA,NA,NA,right,NA,NA,NA,present,NA,NA,n_l_027.jpg,green,n_s_115.jpg,green,within,NA,NaN,NA,NA,NA,NA,right,6592,1,0,3958.699999988079
9fF3vH6P,3bakuke4akpi45n0y93n6zfn3q3r1f,3ffj6vril517r1xt35ag3mrefel0i7,9fF3vH6P,2020-0188,2021-10-31,06:38:15,08:10:43,NA,incomplete,false,NA,true,NA,3,1,NA,NA,NA,right,NA,NA,NA,present,NA,NA,n_s_034.jpg,orange,n_s_074.jpg,white,between,NA,NaN,NA,NA,NA,NA,right,1806.5,1,3,2049.600000023842
9fF3vH6P,3bakuke4akpi45n0y93n6zfn3q3r1f,3ffj6vril517r1xt35ag3mrefel0i7,9fF3vH6P,2020-0188,2021-10-31,06:38:15,08:10:43,NA,incomplete,false,NA,true,NA,3,2,NA,NA,NA,right,NA,NA,NA,present,NA,NA,m_l_026.jpg,black,m_s_028.jpg,green,between,NA,NaN,NA,NA,NA,NA,right,4463.5,1,2,5318.5
9fF3vH6P,3bakuke4akpi45n0y93n6zfn3q3r1f,3ffj6vril517r1xt35ag3mrefel0i7,9fF3vH6P,2020-0188,2021-10-31,06:38:15,08:10:43,NA,incomplete,false,NA,true,NA,3,3,NA,NA,NA,right,NA,NA,NA,present,NA,NA,n_s_032.jpg,gray,n_s_003.jpg,gray,within,NA,NaN,NA,NA,NA,NA,right,2609.099999964237,1,0,2473.599999964237
9fF3vH6P,3bakuke4akpi45n0y93n6zfn3q3r1f,3ffj6vril517r1xt35ag3mrefel0i7,9fF3vH6P,2020-0188,2021-10-31,06:38:15,08:10:43,NA,incomplete,false,NA,true,NA,3,4,NA,NA,NA,right,NA,NA,NA,present,NA,NA,m_l_060.jpg,blue,m_s_083.jpg,gray,between,NA,NaN,NA,NA,NA,NA,right,1857.1000000238419,1,3,2310.699999988079
9fF3vH6P,3bakuke4akpi45n0y93n6zfn3q3r1f,3ffj6vril517r1xt35ag3mrefel0i7,9fF3vH6P,2020-0188,2021-10-31,06:38:15,08:10:43,NA,incomplete,false,NA,true,NA,3,5,NA,NA,NA,left,NA,NA,NA,present,NA,NA,n_l_106.jpg,blue,m_s_038.jpg,white,between,NA,NaN,NA,NA,NA,NA,right,4835.100000023842,0,2,3426.800000011921
9fF3vH6P,3bakuke4akpi45n0y93n6zfn3q3r1f,3ffj6vril517r1xt35ag3mrefel0i7,9fF3vH6P,2020-0188,2021-10-31,06:38:15,08:10:43,NA,incomplete,false,NA,true,NA,3,6,NA,NA,NA,left,NA,NA,NA,present,NA,NA,m_l_083.jpg,black,m_l_005.jpg,black,within,NA,NaN,NA,NA,NA,NA,right,2493.199999988079,0,0,5661
9fF3vH6P,3bakuke4akpi45n0y93n6zfn3q3r1f,3ffj6vril517r1xt35ag3mrefel0i7,9fF3vH6P,2020-0188,2021-10-31,06:38:15,08:10:43,NA,incomplete,false,NA,true,NA,3,7,NA,NA,NA,right,NA,NA,NA,present,NA,NA,n_s_001.jpg,green,m_l_066.jpg,orange,between,NA,NaN,NA,NA,NA,NA,left,3747.300000011921,0,2,2545.800000011921
9fF3vH6P,3bakuke4akpi45n0y93n6zfn3q3r1f,3ffj6vril517r1xt35ag3mrefel0i7,9fF3vH6P,2020-0188,2021-10-31,06:38:15,08:10:43,NA,incomplete,false,NA,true,NA,3,8,NA,NA,NA,right,NA,NA,NA,present,NA,NA,n_l_039.jpg,blue,n_l_065.jpg,blue,within,NA,NaN,NA,NA,NA,NA,left,4477,0,0,2157.399999976158
9fF3vH6P,3bakuke4akpi45n0y93n6zfn3q3r1f,3ffj6vril517r1xt35ag3mrefel0i7,9fF3vH6P,2020-0188,2021-10-31,06:38:15,08:10:43,NA,incomplete,false,NA,true,NA,3,9,NA,NA,NA,left,NA,NA,NA,present,NA,NA,m_s_095.jpg,orange,m_s_094.jpg,orange,within,NA,NaN,NA,NA,NA,NA,left,3212.100000023842,1,0,1801.0999999642372
9fF3vH6P,3bakuke4akpi45n0y93n6zfn3q3r1f,3ffj6vril517r1xt35ag3mrefel0i7,9fF3vH6P,2020-0188,2021-10-31,06:38:15,08:10:43,NA,incomplete,false,NA,true,NA,3,10,NA,NA,NA,right,NA,NA,NA,present,NA,NA,n_l_061.jpg,white,n_l_047.jpg,white,within,NA,NaN,NA,NA,NA,NA,right,2544.899999976158,1,0,2080.100000023842
9fF3vH6P,3bakuke4akpi45n0y93n6zfn3q3r1f,3ffj6vril517r1xt35ag3mrefel0i7,9fF3vH6P,2020-0188,2021-10-31,06:38:15,08:10:43,NA,incomplete,false,true,NA,NA,4,0,NA,blue,m_s_029.jpg,NA,NA,NA,NA,NA,pleasant,unpleasant,NA,NA,NA,NA,NA,right,2802.19999998808,true,NA,NA,NA,NA,NA,NA,NA,NA
9fF3vH6P,3bakuke4akpi45n0y93n6zfn3q3r1f,3ffj6vril517r1xt35ag3mrefel0i7,9fF3vH6P,2020-0188,2021-10-31,06:38:15,08:10:43,NA,incomplete,false,true,NA,NA,4,1,NA,blue,m_s_087.jpg,NA,NA,NA,NA,NA,pleasant,unpleasant,NA,NA,NA,NA,NA,left,2440.69999998808,true,NA,NA,NA,NA,NA,NA,NA,NA
9fF3vH6P,3bakuke4akpi45n0y93n6zfn3q3r1f,3ffj6vril517r1xt35ag3mrefel0i7,9fF3vH6P,2020-0188,2021-10-31,06:38:15,08:10:43,NA,incomplete,false,true,NA,NA,4,2,NA,blue,n_l_075.jpg,NA,NA,NA,NA,NA,pleasant,unpleasant,NA,NA,NA,NA,NA,right,1995.30000001192,true,NA,NA,NA,NA,NA,NA,NA,NA
9fF3vH6P,3bakuke4akpi45n0y93n6zfn3q3r1f,3ffj6vril517r1xt35ag3mrefel0i7,9fF3vH6P,2020-0188,2021-10-31,06:38:15,08:10:43,NA,incomplete,false,true,NA,NA,4,3,NA,blue,n_l_010.jpg,NA,NA,NA,NA,NA,unpleasant,pleasant,NA,NA,NA,NA,NA,right,1468.79999995232,true,NA,NA,NA,NA,NA,NA,NA,NA
9fF3vH6P,3bakuke4akpi45n0y93n6zfn3q3r1f,3ffj6vril517r1xt35ag3mrefel0i7,9fF3vH6P,2020-0188,2021-10-31,06:38:15,08:10:43,NA,incomplete,false,true,NA,NA,4,4,NA,blue,n_l_098.jpg,NA,NA,NA,NA,NA,pleasant,unpleasant,NA,NA,NA,NA,NA,left,1347.70000004768,true,NA,NA,NA,NA,NA,NA,NA,NA
9fF3vH6P,3bakuke4akpi45n0y93n6zfn3q3r1f,3ffj6vril517r1xt35ag3mrefel0i7,9fF3vH6P,2020-0188,2021-10-31,06:38:15,08:10:43,NA,incomplete,false,true,NA,NA,4,5,NA,blue,m_s_106.jpg,NA,NA,NA,NA,NA,pleasant,unpleasant,NA,NA,NA,NA,NA,left,1959.39999997616,true,NA,NA,NA,NA,NA,NA,NA,NA
9fF3vH6P,3bakuke4akpi45n0y93n6zfn3q3r1f,3ffj6vril517r1xt35ag3mrefel0i7,9fF3vH6P,2020-0188,2021-10-31,06:38:15,08:10:43,NA,incomplete,false,true,NA,NA,4,6,NA,brown,m_l_042.jpg,NA,NA,NA,NA,NA,pleasant,unpleasant,NA,NA,NA,NA,NA,left,2302.19999998808,true,NA,NA,NA,NA,NA,NA,NA,NA
9fF3vH6P,3bakuke4akpi45n0y93n6zfn3q3r1f,3ffj6vril517r1xt35ag3mrefel0i7,9fF3vH6P,2020-0188,2021-10-31,06:38:15,08:10:43,NA,incomplete,false,true,NA,NA,4,7,NA,brown,n_s_079.jpg,NA,NA,NA,NA,NA,pleasant,unpleasant,NA,NA,NA,NA,NA,right,1001.79999995232,true,NA,NA,NA,NA,NA,NA,NA,NA
9fF3vH6P,3bakuke4akpi45n0y93n6zfn3q3r1f,3ffj6vril517r1xt35ag3mrefel0i7,9fF3vH6P,2020-0188,2021-10-31,06:38:15,08:10:43,NA,incomplete,false,true,NA,NA,4,8,NA,brown,m_s_053.jpg,NA,NA,NA,NA,NA,unpleasant,pleasant,NA,NA,NA,NA,NA,left,2056.29999995232,true,NA,NA,NA,NA,NA,NA,NA,NA
9fF3vH6P,3bakuke4akpi45n0y93n6zfn3q3r1f,3ffj6vril517r1xt35ag3mrefel0i7,9fF3vH6P,2020-0188,2021-10-31,06:38:15,08:10:43,NA,incomplete,false,true,NA,NA,4,9,NA,brown,n_s_038.jpg,NA,NA,NA,NA,NA,pleasant,unpleasant,NA,NA,NA,NA,NA,right,1075.80000001192,true,NA,NA,NA,NA,NA,NA,NA,NA
9fF3vH6P,3bakuke4akpi45n0y93n6zfn3q3r1f,3ffj6vril517r1xt35ag3mrefel0i7,9fF3vH6P,2020-0188,2021-10-31,06:38:15,08:10:43,NA,incomplete,false,true,NA,NA,4,10,NA,brown,m_l_053.jpg,NA,NA,NA,NA,NA,pleasant,unpleasant,NA,NA,NA,NA,NA,left,757.5,true,NA,NA,NA,NA,NA,NA,NA,NA
9fF3vH6P,3bakuke4akpi45n0y93n6zfn3q3r1f,3ffj6vril517r1xt35ag3mrefel0i7,9fF3vH6P,2020-0188,2021-10-31,06:38:15,08:10:43,NA,incomplete,false,true,NA,NA,4,11,NA,brown,m_s_014.jpg,NA,NA,NA,NA,NA,unpleasant,pleasant,NA,NA,NA,NA,NA,left,1815.69999998808,true,NA,NA,NA,NA,NA,NA,NA,NA
9fF3vH6P,3bakuke4akpi45n0y93n6zfn3q3r1f,3ffj6vril517r1xt35ag3mrefel0i7,9fF3vH6P,2020-0188,2021-10-31,06:38:15,08:10:43,NA,incomplete,false,true,NA,NA,4,12,NA,gray,n_s_096.jpg,NA,NA,NA,NA,NA,unpleasant,pleasant,NA,NA,NA,NA,NA,right,1245,true,NA,NA,NA,NA,NA,NA,NA,NA
9fF3vH6P,3bakuke4akpi45n0y93n6zfn3q3r1f,3ffj6vril517r1xt35ag3mrefel0i7,9fF3vH6P,2020-0188,2021-10-31,06:38:15,08:10:43,NA,incomplete,false,true,NA,NA,4,13,NA,gray,n_l_060.jpg,NA,NA,NA,NA,NA,pleasant,unpleasant,NA,NA,NA,NA,NA,right,1441.60000002384,true,NA,NA,NA,NA,NA,NA,NA,NA
9fF3vH6P,3bakuke4akpi45n0y93n6zfn3q3r1f,3ffj6vril517r1xt35ag3mrefel0i7,9fF3vH6P,2020-0188,2021-10-31,06:38:15,08:10:43,NA,incomplete,false,true,NA,NA,4,14,NA,gray,n_s_092.jpg,NA,NA,NA,NA,NA,pleasant,unpleasant,NA,NA,NA,NA,NA,left,1579.09999996424,true,NA,NA,NA,NA,NA,NA,NA,NA
9fF3vH6P,3bakuke4akpi45n0y93n6zfn3q3r1f,3ffj6vril517r1xt35ag3mrefel0i7,9fF3vH6P,2020-0188,2021-10-31,06:38:15,08:10:43,NA,incomplete,false,true,NA,NA,4,15,NA,gray,n_l_095.jpg,NA,NA,NA,NA,NA,unpleasant,pleasant,NA,NA,NA,NA,NA,right,1063.40000003576,true,NA,NA,NA,NA,NA,NA,NA,NA
9fF3vH6P,3bakuke4akpi45n0y93n6zfn3q3r1f,3ffj6vril517r1xt35ag3mrefel0i7,9fF3vH6P,2020-0188,2021-10-31,06:38:15,08:10:43,NA,incomplete,false,true,NA,NA,4,16,NA,gray,m_l_098.jpg,NA,NA,NA,NA,NA,unpleasant,pleasant,NA,NA,NA,NA,NA,left,1280.59999996424,true,NA,NA,NA,NA,NA,NA,NA,NA
9fF3vH6P,3bakuke4akpi45n0y93n6zfn3q3r1f,3ffj6vril517r1xt35ag3mrefel0i7,9fF3vH6P,2020-0188,2021-10-31,06:38:15,08:10:43,NA,incomplete,false,true,NA,NA,4,17,NA,gray,n_l_040.jpg,NA,NA,NA,NA,NA,pleasant,unpleasant,NA,NA,NA,NA,NA,left,1620.90000003576,true,NA,NA,NA,NA,NA,NA,NA,NA
9fF3vH6P,3bakuke4akpi45n0y93n6zfn3q3r1f,3ffj6vril517r1xt35ag3mrefel0i7,9fF3vH6P,2020-0188,2021-10-31,06:38:15,08:10:43,NA,incomplete,false,true,NA,NA,4,18,NA,purple,m_l_056.jpg,NA,NA,NA,NA,NA,pleasant,unpleasant,NA,NA,NA,NA,NA,left,976,true,NA,NA,NA,NA,NA,NA,NA,NA
9fF3vH6P,3bakuke4akpi45n0y93n6zfn3q3r1f,3ffj6vril517r1xt35ag3mrefel0i7,9fF3vH6P,2020-0188,2021-10-31,06:38:15,08:10:43,NA,incomplete,false,true,NA,NA,4,19,NA,purple,n_l_104.jpg,NA,NA,NA,NA,NA,unpleasant,pleasant,NA,NA,NA,NA,NA,left,1526.80000001192,true,NA,NA,NA,NA,NA,NA,NA,NA
9fF3vH6P,3bakuke4akpi45n0y93n6zfn3q3r1f,3ffj6vril517r1xt35ag3mrefel0i7,9fF3vH6P,2020-0188,2021-10-31,06:38:15,08:10:43,NA,incomplete,false,true,NA,NA,4,20,NA,purple,n_s_057.jpg,NA,NA,NA,NA,NA,pleasant,unpleasant,NA,NA,NA,NA,NA,left,1062.59999996424,true,NA,NA,NA,NA,NA,NA,NA,NA
9fF3vH6P,3bakuke4akpi45n0y93n6zfn3q3r1f,3ffj6vril517r1xt35ag3mrefel0i7,9fF3vH6P,2020-0188,2021-10-31,06:38:15,08:10:43,NA,incomplete,false,true,NA,NA,4,21,NA,purple,m_l_025.jpg,NA,NA,NA,NA,NA,pleasant,unpleasant,NA,NA,NA,NA,NA,left,1414.09999996424,true,NA,NA,NA,NA,NA,NA,NA,NA
9fF3vH6P,3bakuke4akpi45n0y93n6zfn3q3r1f,3ffj6vril517r1xt35ag3mrefel0i7,9fF3vH6P,2020-0188,2021-10-31,06:38:15,08:10:43,NA,incomplete,false,true,NA,NA,4,22,NA,purple,m_s_018.jpg,NA,NA,NA,NA,NA,unpleasant,pleasant,NA,NA,NA,NA,NA,right,1195.5,true,NA,NA,NA,NA,NA,NA,NA,NA
9fF3vH6P,3bakuke4akpi45n0y93n6zfn3q3r1f,3ffj6vril517r1xt35ag3mrefel0i7,9fF3vH6P,2020-0188,2021-10-31,06:38:15,08:10:43,NA,incomplete,false,true,NA,NA,4,23,NA,purple,m_s_044.jpg,NA,NA,NA,NA,NA,unpleasant,pleasant,NA,NA,NA,NA,NA,left,1381.69999998808,true,NA,NA,NA,NA,NA,NA,NA,NA
9fF3vH6P,3bakuke4akpi45n0y93n6zfn3q3r1f,3ffj6vril517r1xt35ag3mrefel0i7,9fF3vH6P,2020-0188,2021-10-31,06:38:15,08:10:43,NA,incomplete,false,true,NA,NA,4,24,NA,yellow,n_s_114.jpg,NA,NA,NA,NA,NA,pleasant,unpleasant,NA,NA,NA,NA,NA,right,1790.19999998808,true,NA,NA,NA,NA,NA,NA,NA,NA
9fF3vH6P,3bakuke4akpi45n0y93n6zfn3q3r1f,3ffj6vril517r1xt35ag3mrefel0i7,9fF3vH6P,2020-0188,2021-10-31,06:38:15,08:10:43,NA,incomplete,false,true,NA,NA,4,25,NA,yellow,m_s_076.jpg,NA,NA,NA,NA,NA,unpleasant,pleasant,NA,NA,NA,NA,NA,left,1389.30000001192,true,NA,NA,NA,NA,NA,NA,NA,NA
9fF3vH6P,3bakuke4akpi45n0y93n6zfn3q3r1f,3ffj6vril517r1xt35ag3mrefel0i7,9fF3vH6P,2020-0188,2021-10-31,06:38:15,08:10:43,NA,incomplete,false,true,NA,NA,4,26,NA,yellow,m_s_016.jpg,NA,NA,NA,NA,NA,unpleasant,pleasant,NA,NA,NA,NA,NA,right,954.5,true,NA,NA,NA,NA,NA,NA,NA,NA
9fF3vH6P,3bakuke4akpi45n0y93n6zfn3q3r1f,3ffj6vril517r1xt35ag3mrefel0i7,9fF3vH6P,2020-0188,2021-10-31,06:38:15,08:10:43,NA,incomplete,false,true,NA,NA,4,27,NA,yellow,n_s_061.jpg,NA,NA,NA,NA,NA,unpleasant,pleasant,NA,NA,NA,NA,NA,right,968.099999964237,true,NA,NA,NA,NA,NA,NA,NA,NA
9fF3vH6P,3bakuke4akpi45n0y93n6zfn3q3r1f,3ffj6vril517r1xt35ag3mrefel0i7,9fF3vH6P,2020-0188,2021-10-31,06:38:15,08:10:43,NA,incomplete,false,true,NA,NA,4,28,NA,yellow,m_l_047.jpg,NA,NA,NA,NA,NA,unpleasant,pleasant,NA,NA,NA,NA,NA,right,1135.89999997616,true,NA,NA,NA,NA,NA,NA,NA,NA
9fF3vH6P,3bakuke4akpi45n0y93n6zfn3q3r1f,3ffj6vril517r1xt35ag3mrefel0i7,9fF3vH6P,2020-0188,2021-10-31,06:38:15,08:10:43,NA,incomplete,false,true,NA,NA,4,29,NA,yellow,n_s_087.jpg,NA,NA,NA,NA,NA,pleasant,unpleasant,NA,NA,NA,NA,NA,right,1788.69999998808,true,NA,NA,NA,NA,NA,NA,NA,NA
9fF3vH6P,3bakuke4akpi45n0y93n6zfn3q3r1f,3ffj6vril517r1xt35ag3mrefel0i7,9fF3vH6P,2020-0188,2021-10-31,06:38:15,08:10:43,NA,incomplete,false,true,NA,NA,4,30,NA,orange,m_l_085.jpg,NA,NA,NA,NA,NA,pleasant,unpleasant,NA,NA,NA,NA,NA,left,2213,true,NA,NA,NA,NA,NA,NA,NA,NA
9fF3vH6P,3bakuke4akpi45n0y93n6zfn3q3r1f,3ffj6vril517r1xt35ag3mrefel0i7,9fF3vH6P,2020-0188,2021-10-31,06:38:15,08:10:43,NA,incomplete,false,true,NA,NA,4,31,NA,orange,m_s_075.jpg,NA,NA,NA,NA,NA,pleasant,unpleasant,NA,NA,NA,NA,NA,left,1256.19999998808,true,NA,NA,NA,NA,NA,NA,NA,NA
9fF3vH6P,3bakuke4akpi45n0y93n6zfn3q3r1f,3ffj6vril517r1xt35ag3mrefel0i7,9fF3vH6P,2020-0188,2021-10-31,06:38:15,08:10:43,NA,incomplete,false,true,NA,NA,4,32,NA,orange,n_s_012.jpg,NA,NA,NA,NA,NA,unpleasant,pleasant,NA,NA,NA,NA,NA,right,1787.5,true,NA,NA,NA,NA,NA,NA,NA,NA
9fF3vH6P,3bakuke4akpi45n0y93n6zfn3q3r1f,3ffj6vril517r1xt35ag3mrefel0i7,9fF3vH6P,2020-0188,2021-10-31,06:38:15,08:10:43,NA,incomplete,false,true,NA,NA,4,33,NA,orange,n_l_001.jpg,NA,NA,NA,NA,NA,unpleasant,pleasant,NA,NA,NA,NA,NA,left,1122.69999998808,true,NA,NA,NA,NA,NA,NA,NA,NA
9fF3vH6P,3bakuke4akpi45n0y93n6zfn3q3r1f,3ffj6vril517r1xt35ag3mrefel0i7,9fF3vH6P,2020-0188,2021-10-31,06:38:15,08:10:43,NA,incomplete,false,true,NA,NA,4,34,NA,orange,n_s_097.jpg,NA,NA,NA,NA,NA,pleasant,unpleasant,NA,NA,NA,NA,NA,left,1534.89999997616,true,NA,NA,NA,NA,NA,NA,NA,NA
9fF3vH6P,3bakuke4akpi45n0y93n6zfn3q3r1f,3ffj6vril517r1xt35ag3mrefel0i7,9fF3vH6P,2020-0188,2021-10-31,06:38:15,08:10:43,NA,incomplete,false,true,NA,NA,4,35,NA,orange,m_s_001.jpg,NA,NA,NA,NA,NA,unpleasant,pleasant,NA,NA,NA,NA,NA,left,1758.60000002384,true,NA,NA,NA,NA,NA,NA,NA,NA
9fF3vH6P,3bakuke4akpi45n0y93n6zfn3q3r1f,3ffj6vril517r1xt35ag3mrefel0i7,9fF3vH6P,2020-0188,2021-10-31,06:38:15,08:10:43,NA,incomplete,false,NA,NA,true,4,0,NA,NA,NA,right,n_s_057.jpg,yellow,purple,NA,NA,NA,NA,NA,NA,NA,NA,NA,NaN,NA,4525.900000035763,right,1,NA,NA,NA,NA,NA
9fF3vH6P,3bakuke4akpi45n0y93n6zfn3q3r1f,3ffj6vril517r1xt35ag3mrefel0i7,9fF3vH6P,2020-0188,2021-10-31,06:38:15,08:10:43,NA,incomplete,false,NA,NA,true,4,1,NA,NA,NA,right,m_s_106.jpg,brown,blue,NA,NA,NA,NA,NA,NA,NA,NA,NA,NaN,NA,3241.099999964237,right,1,NA,NA,NA,NA,NA
9fF3vH6P,3bakuke4akpi45n0y93n6zfn3q3r1f,3ffj6vril517r1xt35ag3mrefel0i7,9fF3vH6P,2020-0188,2021-10-31,06:38:15,08:10:43,NA,incomplete,false,NA,NA,true,4,2,NA,NA,NA,right,m_s_087.jpg,brown,blue,NA,NA,NA,NA,NA,NA,NA,NA,NA,NaN,NA,2348.300000011921,left,0,NA,NA,NA,NA,NA
9fF3vH6P,3bakuke4akpi45n0y93n6zfn3q3r1f,3ffj6vril517r1xt35ag3mrefel0i7,9fF3vH6P,2020-0188,2021-10-31,06:38:15,08:10:43,NA,incomplete,false,NA,NA,true,4,3,NA,NA,NA,left,m_s_076.jpg,yellow,orange,NA,NA,NA,NA,NA,NA,NA,NA,NA,NaN,NA,2196.300000011921,left,1,NA,NA,NA,NA,NA
9fF3vH6P,3bakuke4akpi45n0y93n6zfn3q3r1f,3ffj6vril517r1xt35ag3mrefel0i7,9fF3vH6P,2020-0188,2021-10-31,06:38:15,08:10:43,NA,incomplete,false,NA,NA,true,4,4,NA,NA,NA,right,n_l_060.jpg,brown,gray,NA,NA,NA,NA,NA,NA,NA,NA,NA,NaN,NA,2013.300000011921,right,1,NA,NA,NA,NA,NA
9fF3vH6P,3bakuke4akpi45n0y93n6zfn3q3r1f,3ffj6vril517r1xt35ag3mrefel0i7,9fF3vH6P,2020-0188,2021-10-31,06:38:15,08:10:43,NA,incomplete,false,NA,NA,true,4,5,NA,NA,NA,right,m_s_014.jpg,gray,brown,NA,NA,NA,NA,NA,NA,NA,NA,NA,NaN,NA,3732.599999964237,left,0,NA,NA,NA,NA,NA
9fF3vH6P,3bakuke4akpi45n0y93n6zfn3q3r1f,3ffj6vril517r1xt35ag3mrefel0i7,9fF3vH6P,2020-0188,2021-10-31,06:38:15,08:10:43,NA,incomplete,false,NA,NA,true,4,6,NA,NA,NA,right,n_l_040.jpg,brown,gray,NA,NA,NA,NA,NA,NA,NA,NA,NA,NaN,NA,1627.1000000238419,right,1,NA,NA,NA,NA,NA
9fF3vH6P,3bakuke4akpi45n0y93n6zfn3q3r1f,3ffj6vril517r1xt35ag3mrefel0i7,9fF3vH6P,2020-0188,2021-10-31,06:38:15,08:10:43,NA,incomplete,false,NA,NA,true,4,7,NA,NA,NA,right,m_s_053.jpg,gray,brown,NA,NA,NA,NA,NA,NA,NA,NA,NA,NaN,NA,3078.100000023842,left,0,NA,NA,NA,NA,NA
9fF3vH6P,3bakuke4akpi45n0y93n6zfn3q3r1f,3ffj6vril517r1xt35ag3mrefel0i7,9fF3vH6P,2020-0188,2021-10-31,06:38:15,08:10:43,NA,incomplete,false,NA,NA,true,4,8,NA,NA,NA,left,m_l_047.jpg,yellow,orange,NA,NA,NA,NA,NA,NA,NA,NA,NA,NaN,NA,2299,left,1,NA,NA,NA,NA,NA
9fF3vH6P,3bakuke4akpi45n0y93n6zfn3q3r1f,3ffj6vril517r1xt35ag3mrefel0i7,9fF3vH6P,2020-0188,2021-10-31,06:38:15,08:10:43,NA,incomplete,false,NA,NA,true,4,9,NA,NA,NA,left,m_s_001.jpg,orange,yellow,NA,NA,NA,NA,NA,NA,NA,NA,NA,NaN,NA,2210.399999976158,right,0,NA,NA,NA,NA,NA
9fF3vH6P,3bakuke4akpi45n0y93n6zfn3q3r1f,3ffj6vril517r1xt35ag3mrefel0i7,9fF3vH6P,2020-0188,2021-10-31,06:38:15,08:10:43,NA,incomplete,false,NA,NA,true,4,10,NA,NA,NA,left,n_l_104.jpg,purple,gray,NA,NA,NA,NA,NA,NA,NA,NA,NA,NaN,NA,3153.300000011921,left,1,NA,NA,NA,NA,NA
9fF3vH6P,3bakuke4akpi45n0y93n6zfn3q3r1f,3ffj6vril517r1xt35ag3mrefel0i7,9fF3vH6P,2020-0188,2021-10-31,06:38:15,08:10:43,NA,incomplete,false,NA,NA,true,4,11,NA,NA,NA,right,m_s_044.jpg,yellow,purple,NA,NA,NA,NA,NA,NA,NA,NA,NA,NaN,NA,3734.600000023842,left,0,NA,NA,NA,NA,NA
9fF3vH6P,3bakuke4akpi45n0y93n6zfn3q3r1f,3ffj6vril517r1xt35ag3mrefel0i7,9fF3vH6P,2020-0188,2021-10-31,06:38:15,08:10:43,NA,incomplete,false,NA,NA,true,4,12,NA,NA,NA,left,n_s_092.jpg,gray,purple,NA,NA,NA,NA,NA,NA,NA,NA,NA,NaN,NA,2360.600000023842,left,1,NA,NA,NA,NA,NA
9fF3vH6P,3bakuke4akpi45n0y93n6zfn3q3r1f,3ffj6vril517r1xt35ag3mrefel0i7,9fF3vH6P,2020-0188,2021-10-31,06:38:15,08:10:43,NA,incomplete,false,NA,NA,true,4,13,NA,NA,NA,right,n_s_012.jpg,yellow,orange,NA,NA,NA,NA,NA,NA,NA,NA,NA,NaN,NA,1685.7999999523163,right,1,NA,NA,NA,NA,NA
9fF3vH6P,3bakuke4akpi45n0y93n6zfn3q3r1f,3ffj6vril517r1xt35ag3mrefel0i7,9fF3vH6P,2020-0188,2021-10-31,06:38:15,08:10:43,NA,incomplete,false,NA,NA,true,4,14,NA,NA,NA,left,n_s_079.jpg,brown,blue,NA,NA,NA,NA,NA,NA,NA,NA,NA,NaN,NA,1816.699999988079,right,0,NA,NA,NA,NA,NA
9fF3vH6P,3bakuke4akpi45n0y93n6zfn3q3r1f,3ffj6vril517r1xt35ag3mrefel0i7,9fF3vH6P,2020-0188,2021-10-31,06:38:15,08:10:43,NA,incomplete,false,NA,NA,true,4,15,NA,NA,NA,right,n_s_087.jpg,purple,yellow,NA,NA,NA,NA,NA,NA,NA,NA,NA,NaN,NA,3528.300000011921,left,0,NA,NA,NA,NA,NA
9fF3vH6P,3bakuke4akpi45n0y93n6zfn3q3r1f,3ffj6vril517r1xt35ag3mrefel0i7,9fF3vH6P,2020-0188,2021-10-31,06:38:15,08:10:43,NA,incomplete,false,NA,NA,true,4,16,NA,NA,NA,right,m_l_053.jpg,gray,brown,NA,NA,NA,NA,NA,NA,NA,NA,NA,NaN,NA,5197.699999988079,left,0,NA,NA,NA,NA,NA
9fF3vH6P,3bakuke4akpi45n0y93n6zfn3q3r1f,3ffj6vril517r1xt35ag3mrefel0i7,9fF3vH6P,2020-0188,2021-10-31,06:38:15,08:10:43,NA,incomplete,false,NA,NA,true,4,17,NA,NA,NA,right,n_l_098.jpg,brown,blue,NA,NA,NA,NA,NA,NA,NA,NA,NA,NaN,NA,1701.199999988079,right,1,NA,NA,NA,NA,NA
9fF3vH6P,3bakuke4akpi45n0y93n6zfn3q3r1f,3ffj6vril517r1xt35ag3mrefel0i7,9fF3vH6P,2020-0188,2021-10-31,06:38:15,08:10:43,NA,incomplete,false,NA,NA,true,4,18,NA,NA,NA,left,m_s_016.jpg,yellow,orange,NA,NA,NA,NA,NA,NA,NA,NA,NA,NaN,NA,1850.4000000357628,right,0,NA,NA,NA,NA,NA
9fF3vH6P,3bakuke4akpi45n0y93n6zfn3q3r1f,3ffj6vril517r1xt35ag3mrefel0i7,9fF3vH6P,2020-0188,2021-10-31,06:38:15,08:10:43,NA,incomplete,false,NA,NA,true,4,19,NA,NA,NA,right,m_s_018.jpg,gray,purple,NA,NA,NA,NA,NA,NA,NA,NA,NA,NaN,NA,1759.8999999761581,right,1,NA,NA,NA,NA,NA
9fF3vH6P,3bakuke4akpi45n0y93n6zfn3q3r1f,3ffj6vril517r1xt35ag3mrefel0i7,9fF3vH6P,2020-0188,2021-10-31,06:38:15,08:10:43,NA,incomplete,false,NA,NA,true,4,20,NA,NA,NA,left,m_s_075.jpg,orange,yellow,NA,NA,NA,NA,NA,NA,NA,NA,NA,NaN,NA,2228.800000011921,left,1,NA,NA,NA,NA,NA
9fF3vH6P,3bakuke4akpi45n0y93n6zfn3q3r1f,3ffj6vril517r1xt35ag3mrefel0i7,9fF3vH6P,2020-0188,2021-10-31,06:38:15,08:10:43,NA,incomplete,false,NA,NA,true,4,21,NA,NA,NA,left,m_l_098.jpg,gray,brown,NA,NA,NA,NA,NA,NA,NA,NA,NA,NaN,NA,2403.600000023842,left,1,NA,NA,NA,NA,NA
9fF3vH6P,3bakuke4akpi45n0y93n6zfn3q3r1f,3ffj6vril517r1xt35ag3mrefel0i7,9fF3vH6P,2020-0188,2021-10-31,06:38:15,08:10:43,NA,incomplete,false,NA,true,NA,4,0,NA,NA,NA,left,NA,NA,NA,present,NA,NA,m_l_053.jpg,brown,n_s_092.jpg,gray,between,NA,NaN,NA,NA,NA,NA,right,2154.7999999523163,0,2,3476.800000011921
9fF3vH6P,3bakuke4akpi45n0y93n6zfn3q3r1f,3ffj6vril517r1xt35ag3mrefel0i7,9fF3vH6P,2020-0188,2021-10-31,06:38:15,08:10:43,NA,incomplete,false,NA,true,NA,4,1,NA,NA,NA,right,NA,NA,NA,present,NA,NA,n_l_040.jpg,gray,n_l_060.jpg,gray,within,NA,NaN,NA,NA,NA,NA,left,4261.699999988079,0,0,2374.899999976158
9fF3vH6P,3bakuke4akpi45n0y93n6zfn3q3r1f,3ffj6vril517r1xt35ag3mrefel0i7,9fF3vH6P,2020-0188,2021-10-31,06:38:15,08:10:43,NA,incomplete,false,NA,true,NA,4,2,NA,NA,NA,right,NA,NA,NA,present,NA,NA,n_s_057.jpg,purple,m_l_098.jpg,gray,between,NA,NaN,NA,NA,NA,NA,left,4149.600000023842,0,2,3111
9fF3vH6P,3bakuke4akpi45n0y93n6zfn3q3r1f,3ffj6vril517r1xt35ag3mrefel0i7,9fF3vH6P,2020-0188,2021-10-31,06:38:15,08:10:43,NA,incomplete,false,NA,true,NA,4,3,NA,NA,NA,left,NA,NA,NA,present,NA,NA,n_s_079.jpg,brown,m_s_014.jpg,brown,within,NA,NaN,NA,NA,NA,NA,right,3011.5,0,0,2025
9fF3vH6P,3bakuke4akpi45n0y93n6zfn3q3r1f,3ffj6vril517r1xt35ag3mrefel0i7,9fF3vH6P,2020-0188,2021-10-31,06:38:15,08:10:43,NA,incomplete,false,NA,true,NA,4,4,NA,NA,NA,right,NA,NA,NA,present,NA,NA,m_s_053.jpg,brown,n_l_098.jpg,blue,between,NA,NaN,NA,NA,NA,NA,right,3309.699999988079,1,2,3936.099999964237
9fF3vH6P,3bakuke4akpi45n0y93n6zfn3q3r1f,3ffj6vril517r1xt35ag3mrefel0i7,9fF3vH6P,2020-0188,2021-10-31,06:38:15,08:10:43,NA,incomplete,false,NA,true,NA,4,5,NA,NA,NA,right,NA,NA,NA,present,NA,NA,n_s_012.jpg,orange,m_l_047.jpg,yellow,between,NA,NaN,NA,NA,NA,NA,right,6598.199999988079,1,2,2219
9fF3vH6P,3bakuke4akpi45n0y93n6zfn3q3r1f,3ffj6vril517r1xt35ag3mrefel0i7,9fF3vH6P,2020-0188,2021-10-31,06:38:15,08:10:43,NA,incomplete,false,NA,true,NA,4,6,NA,NA,NA,right,NA,NA,NA,present,NA,NA,n_s_087.jpg,yellow,m_s_076.jpg,yellow,within,NA,NaN,NA,NA,NA,NA,right,2028,1,0,2126.199999988079
9fF3vH6P,3bakuke4akpi45n0y93n6zfn3q3r1f,3ffj6vril517r1xt35ag3mrefel0i7,9fF3vH6P,2020-0188,2021-10-31,06:38:15,08:10:43,NA,incomplete,false,NA,true,NA,4,7,NA,NA,NA,left,NA,NA,NA,present,NA,NA,m_s_087.jpg,blue,m_s_106.jpg,blue,within,NA,NaN,NA,NA,NA,NA,right,2010.1000000238419,0,0,2137
9fF3vH6P,3bakuke4akpi45n0y93n6zfn3q3r1f,3ffj6vril517r1xt35ag3mrefel0i7,9fF3vH6P,2020-0188,2021-10-31,06:38:15,08:10:43,NA,incomplete,false,NA,true,NA,4,8,NA,NA,NA,left,NA,NA,NA,present,NA,NA,m_s_018.jpg,purple,m_s_016.jpg,yellow,between,NA,NaN,NA,NA,NA,NA,left,3115.5,1,3,1345
9fF3vH6P,3bakuke4akpi45n0y93n6zfn3q3r1f,3ffj6vril517r1xt35ag3mrefel0i7,9fF3vH6P,2020-0188,2021-10-31,06:38:15,08:10:43,NA,incomplete,false,NA,true,NA,4,9,NA,NA,NA,right,NA,NA,NA,present,NA,NA,m_s_001.jpg,orange,m_s_075.jpg,orange,within,NA,NaN,NA,NA,NA,NA,right,1986.0999999642372,1,0,2065.900000035763
9fF3vH6P,3bakuke4akpi45n0y93n6zfn3q3r1f,3ffj6vril517r1xt35ag3mrefel0i7,9fF3vH6P,2020-0188,2021-10-31,06:38:15,08:10:43,NA,incomplete,false,NA,true,NA,4,10,NA,NA,NA,right,NA,NA,NA,present,NA,NA,m_s_044.jpg,purple,n_l_104.jpg,purple,within,NA,NaN,NA,NA,NA,NA,left,2704.099999964237,0,0,2115.699999988079
9fF3vH6P,3bakuke4akpi45n0y93n6zfn3q3r1f,3ffj6vril517r1xt35ag3mrefel0i7,9fF3vH6P,2020-0188,2021-10-31,06:38:15,08:10:43,NA,incomplete,false,true,NA,NA,5,0,NA,green,m_l_052.jpg,NA,NA,NA,NA,NA,unpleasant,pleasant,NA,NA,NA,NA,NA,right,1957.30000001192,true,NA,NA,NA,NA,NA,NA,NA,NA
9fF3vH6P,3bakuke4akpi45n0y93n6zfn3q3r1f,3ffj6vril517r1xt35ag3mrefel0i7,9fF3vH6P,2020-0188,2021-10-31,06:38:15,08:10:43,NA,incomplete,false,true,NA,NA,5,1,NA,green,n_l_081.jpg,NA,NA,NA,NA,NA,pleasant,unpleasant,NA,NA,NA,NA,NA,right,2673.80000001192,true,NA,NA,NA,NA,NA,NA,NA,NA
9fF3vH6P,3bakuke4akpi45n0y93n6zfn3q3r1f,3ffj6vril517r1xt35ag3mrefel0i7,9fF3vH6P,2020-0188,2021-10-31,06:38:15,08:10:43,NA,incomplete,false,true,NA,NA,5,2,NA,green,n_l_076.jpg,NA,NA,NA,NA,NA,pleasant,unpleasant,NA,NA,NA,NA,NA,right,1221.19999998808,true,NA,NA,NA,NA,NA,NA,NA,NA
9fF3vH6P,3bakuke4akpi45n0y93n6zfn3q3r1f,3ffj6vril517r1xt35ag3mrefel0i7,9fF3vH6P,2020-0188,2021-10-31,06:38:15,08:10:43,NA,incomplete,false,true,NA,NA,5,3,NA,green,m_s_015.jpg,NA,NA,NA,NA,NA,pleasant,unpleasant,NA,NA,NA,NA,NA,left,1400.79999995232,true,NA,NA,NA,NA,NA,NA,NA,NA
9fF3vH6P,3bakuke4akpi45n0y93n6zfn3q3r1f,3ffj6vril517r1xt35ag3mrefel0i7,9fF3vH6P,2020-0188,2021-10-31,06:38:15,08:10:43,NA,incomplete,false,true,NA,NA,5,4,NA,green,n_l_006.jpg,NA,NA,NA,NA,NA,pleasant,unpleasant,NA,NA,NA,NA,NA,left,768.900000035763,true,NA,NA,NA,NA,NA,NA,NA,NA
9fF3vH6P,3bakuke4akpi45n0y93n6zfn3q3r1f,3ffj6vril517r1xt35ag3mrefel0i7,9fF3vH6P,2020-0188,2021-10-31,06:38:15,08:10:43,NA,incomplete,false,true,NA,NA,5,5,NA,green,n_l_045.jpg,NA,NA,NA,NA,NA,unpleasant,pleasant,NA,NA,NA,NA,NA,left,1202.19999998808,true,NA,NA,NA,NA,NA,NA,NA,NA
9fF3vH6P,3bakuke4akpi45n0y93n6zfn3q3r1f,3ffj6vril517r1xt35ag3mrefel0i7,9fF3vH6P,2020-0188,2021-10-31,06:38:15,08:10:43,NA,incomplete,false,true,NA,NA,5,6,NA,white,m_l_001.jpg,NA,NA,NA,NA,NA,unpleasant,pleasant,NA,NA,NA,NA,NA,right,3317.5,true,NA,NA,NA,NA,NA,NA,NA,NA
9fF3vH6P,3bakuke4akpi45n0y93n6zfn3q3r1f,3ffj6vril517r1xt35ag3mrefel0i7,9fF3vH6P,2020-0188,2021-10-31,06:38:15,08:10:43,NA,incomplete,false,true,NA,NA,5,7,NA,white,n_s_068.jpg,NA,NA,NA,NA,NA,unpleasant,pleasant,NA,NA,NA,NA,NA,right,1584.39999997616,true,NA,NA,NA,NA,NA,NA,NA,NA
9fF3vH6P,3bakuke4akpi45n0y93n6zfn3q3r1f,3ffj6vril517r1xt35ag3mrefel0i7,9fF3vH6P,2020-0188,2021-10-31,06:38:15,08:10:43,NA,incomplete,false,true,NA,NA,5,8,NA,white,n_s_016.jpg,NA,NA,NA,NA,NA,pleasant,unpleasant,NA,NA,NA,NA,NA,left,2043.80000001192,true,NA,NA,NA,NA,NA,NA,NA,NA
9fF3vH6P,3bakuke4akpi45n0y93n6zfn3q3r1f,3ffj6vril517r1xt35ag3mrefel0i7,9fF3vH6P,2020-0188,2021-10-31,06:38:15,08:10:43,NA,incomplete,false,true,NA,NA,5,9,NA,white,n_s_107.jpg,NA,NA,NA,NA,NA,unpleasant,pleasant,NA,NA,NA,NA,NA,right,1539.80000001192,true,NA,NA,NA,NA,NA,NA,NA,NA
9fF3vH6P,3bakuke4akpi45n0y93n6zfn3q3r1f,3ffj6vril517r1xt35ag3mrefel0i7,9fF3vH6P,2020-0188,2021-10-31,06:38:15,08:10:43,NA,incomplete,false,true,NA,NA,5,10,NA,white,n_s_015.jpg,NA,NA,NA,NA,NA,pleasant,unpleasant,NA,NA,NA,NA,NA,left,2576.19999998808,true,NA,NA,NA,NA,NA,NA,NA,NA
9fF3vH6P,3bakuke4akpi45n0y93n6zfn3q3r1f,3ffj6vril517r1xt35ag3mrefel0i7,9fF3vH6P,2020-0188,2021-10-31,06:38:15,08:10:43,NA,incomplete,false,true,NA,NA,5,11,NA,white,m_s_002.jpg,NA,NA,NA,NA,NA,pleasant,unpleasant,NA,NA,NA,NA,NA,left,3373.5,true,NA,NA,NA,NA,NA,NA,NA,NA
9fF3vH6P,3bakuke4akpi45n0y93n6zfn3q3r1f,3ffj6vril517r1xt35ag3mrefel0i7,9fF3vH6P,2020-0188,2021-10-31,06:38:15,08:10:43,NA,incomplete,false,true,NA,NA,5,12,NA,brown,m_l_002.jpg,NA,NA,NA,NA,NA,pleasant,unpleasant,NA,NA,NA,NA,NA,left,918.5,true,NA,NA,NA,NA,NA,NA,NA,NA
9fF3vH6P,3bakuke4akpi45n0y93n6zfn3q3r1f,3ffj6vril517r1xt35ag3mrefel0i7,9fF3vH6P,2020-0188,2021-10-31,06:38:15,08:10:43,NA,incomplete,false,true,NA,NA,5,13,NA,brown,n_l_046.jpg,NA,NA,NA,NA,NA,pleasant,unpleasant,NA,NA,NA,NA,NA,left,1042.09999996424,true,NA,NA,NA,NA,NA,NA,NA,NA
9fF3vH6P,3bakuke4akpi45n0y93n6zfn3q3r1f,3ffj6vril517r1xt35ag3mrefel0i7,9fF3vH6P,2020-0188,2021-10-31,06:38:15,08:10:43,NA,incomplete,false,true,NA,NA,5,14,NA,brown,n_l_004.jpg,NA,NA,NA,NA,NA,unpleasant,pleasant,NA,NA,NA,NA,NA,left,668.399999976158,true,NA,NA,NA,NA,NA,NA,NA,NA
9fF3vH6P,3bakuke4akpi45n0y93n6zfn3q3r1f,3ffj6vril517r1xt35ag3mrefel0i7,9fF3vH6P,2020-0188,2021-10-31,06:38:15,08:10:43,NA,incomplete,false,true,NA,NA,5,15,NA,brown,n_s_039.jpg,NA,NA,NA,NA,NA,unpleasant,pleasant,NA,NA,NA,NA,NA,right,1173.30000001192,true,NA,NA,NA,NA,NA,NA,NA,NA
