workerId,hitId,assignmentId,subject,studyid,exp_date,exp_start,exp_end,time_start,time_end,practice,encoding,memory,association,block,trial,event_order,event,stim,answer,object,left_context,right_context,context_type,label_left,label_right,left_image,left_event,right_image,right_event,condition,response,response_time,response_acc,association_response_time,association_response,association_acc,order_response,order_response_time,order_acc,distance_response,distance_response_time
qJHjdvl9,3fk4g712o0duz4m7qhicsa7sfszsso,3i0btbyza1yth1cy7nwjpal26070y8,qJHjdvl9,2020-0188,2021-10-31,19:09:16,20:15:23,NA,incomplete,true,true,NA,NA,0,0,NA,black,m_l_008.jpg,NA,NA,NA,NA,NA,pleasant,unpleasant,NA,NA,NA,NA,NA,left,1470.10000014305,true,NA,NA,NA,NA,NA,NA,NA,NA
qJHjdvl9,3fk4g712o0duz4m7qhicsa7sfszsso,3i0btbyza1yth1cy7nwjpal26070y8,qJHjdvl9,2020-0188,2021-10-31,19:09:16,20:15:23,NA,incomplete,true,true,NA,NA,0,1,NA,black,n_l_066.jpg,NA,NA,NA,NA,NA,unpleasant,pleasant,NA,NA,NA,NA,NA,right,1006.20000004768,true,NA,NA,NA,NA,NA,NA,NA,NA
qJHjdvl9,3fk4g712o0duz4m7qhicsa7sfszsso,3i0btbyza1yth1cy7nwjpal26070y8,qJHjdvl9,2020-0188,2021-10-31,19:09:16,20:15:23,NA,incomplete,true,true,NA,NA,0,2,NA,black,n_s_019.jpg,NA,NA,NA,NA,NA,pleasant,unpleasant,NA,NA,NA,NA,NA,left,1772.5,true,NA,NA,NA,NA,NA,NA,NA,NA
qJHjdvl9,3fk4g712o0duz4m7qhicsa7sfszsso,3i0btbyza1yth1cy7nwjpal26070y8,qJHjdvl9,2020-0188,2021-10-31,19:09:16,20:15:23,NA,incomplete,true,true,NA,NA,0,3,NA,black,m_s_102.jpg,NA,NA,NA,NA,NA,pleasant,unpleasant,NA,NA,NA,NA,NA,right,1135.20000004768,true,NA,NA,NA,NA,NA,NA,NA,NA
qJHjdvl9,3fk4g712o0duz4m7qhicsa7sfszsso,3i0btbyza1yth1cy7nwjpal26070y8,qJHjdvl9,2020-0188,2021-10-31,19:09:16,20:15:23,NA,incomplete,true,true,NA,NA,0,4,NA,black,m_l_049.jpg,NA,NA,NA,NA,NA,pleasant,unpleasant,NA,NA,NA,NA,NA,right,1307.39999985695,true,NA,NA,NA,NA,NA,NA,NA,NA
qJHjdvl9,3fk4g712o0duz4m7qhicsa7sfszsso,3i0btbyza1yth1cy7nwjpal26070y8,qJHjdvl9,2020-0188,2021-10-31,19:09:16,20:15:23,NA,incomplete,true,true,NA,NA,0,5,NA,black,m_l_041.jpg,NA,NA,NA,NA,NA,unpleasant,pleasant,NA,NA,NA,NA,NA,right,1016.40000009537,true,NA,NA,NA,NA,NA,NA,NA,NA
qJHjdvl9,3fk4g712o0duz4m7qhicsa7sfszsso,3i0btbyza1yth1cy7nwjpal26070y8,qJHjdvl9,2020-0188,2021-10-31,19:09:16,20:15:23,NA,incomplete,true,true,NA,NA,0,6,NA,brown,m_l_054.jpg,NA,NA,NA,NA,NA,unpleasant,pleasant,NA,NA,NA,NA,NA,left,1596.79999995232,true,NA,NA,NA,NA,NA,NA,NA,NA
qJHjdvl9,3fk4g712o0duz4m7qhicsa7sfszsso,3i0btbyza1yth1cy7nwjpal26070y8,qJHjdvl9,2020-0188,2021-10-31,19:09:16,20:15:23,NA,incomplete,true,true,NA,NA,0,7,NA,brown,m_s_022.jpg,NA,NA,NA,NA,NA,pleasant,unpleasant,NA,NA,NA,NA,NA,right,1145.09999990463,true,NA,NA,NA,NA,NA,NA,NA,NA
qJHjdvl9,3fk4g712o0duz4m7qhicsa7sfszsso,3i0btbyza1yth1cy7nwjpal26070y8,qJHjdvl9,2020-0188,2021-10-31,19:09:16,20:15:23,NA,incomplete,true,true,NA,NA,0,8,NA,brown,m_s_092.jpg,NA,NA,NA,NA,NA,pleasant,unpleasant,NA,NA,NA,NA,NA,left,1375.29999995232,true,NA,NA,NA,NA,NA,NA,NA,NA
qJHjdvl9,3fk4g712o0duz4m7qhicsa7sfszsso,3i0btbyza1yth1cy7nwjpal26070y8,qJHjdvl9,2020-0188,2021-10-31,19:09:16,20:15:23,NA,incomplete,true,true,NA,NA,0,9,NA,brown,m_l_014.jpg,NA,NA,NA,NA,NA,pleasant,unpleasant,NA,NA,NA,NA,NA,right,1151.59999990463,true,NA,NA,NA,NA,NA,NA,NA,NA
qJHjdvl9,3fk4g712o0duz4m7qhicsa7sfszsso,3i0btbyza1yth1cy7nwjpal26070y8,qJHjdvl9,2020-0188,2021-10-31,19:09:16,20:15:23,NA,incomplete,true,true,NA,NA,0,10,NA,brown,m_l_108.jpg,NA,NA,NA,NA,NA,pleasant,unpleasant,NA,NA,NA,NA,NA,right,1019.20000004768,true,NA,NA,NA,NA,NA,NA,NA,NA
qJHjdvl9,3fk4g712o0duz4m7qhicsa7sfszsso,3i0btbyza1yth1cy7nwjpal26070y8,qJHjdvl9,2020-0188,2021-10-31,19:09:16,20:15:23,NA,incomplete,true,true,NA,NA,0,11,NA,brown,m_l_074.jpg,NA,NA,NA,NA,NA,unpleasant,pleasant,NA,NA,NA,NA,NA,right,1568.90000009537,true,NA,NA,NA,NA,NA,NA,NA,NA
qJHjdvl9,3fk4g712o0duz4m7qhicsa7sfszsso,3i0btbyza1yth1cy7nwjpal26070y8,qJHjdvl9,2020-0188,2021-10-31,19:09:16,20:15:23,NA,incomplete,true,true,NA,NA,0,12,NA,blue,n_s_102.jpg,NA,NA,NA,NA,NA,pleasant,unpleasant,NA,NA,NA,NA,NA,left,1131.40000009537,true,NA,NA,NA,NA,NA,NA,NA,NA
qJHjdvl9,3fk4g712o0duz4m7qhicsa7sfszsso,3i0btbyza1yth1cy7nwjpal26070y8,qJHjdvl9,2020-0188,2021-10-31,19:09:16,20:15:23,NA,incomplete,true,true,NA,NA,0,13,NA,blue,n_s_034.jpg,NA,NA,NA,NA,NA,pleasant,unpleasant,NA,NA,NA,NA,NA,left,1048.09999990463,true,NA,NA,NA,NA,NA,NA,NA,NA
qJHjdvl9,3fk4g712o0duz4m7qhicsa7sfszsso,3i0btbyza1yth1cy7nwjpal26070y8,qJHjdvl9,2020-0188,2021-10-31,19:09:16,20:15:23,NA,incomplete,true,true,NA,NA,0,14,NA,blue,m_l_064.jpg,NA,NA,NA,NA,NA,pleasant,unpleasant,NA,NA,NA,NA,NA,left,901.799999952316,true,NA,NA,NA,NA,NA,NA,NA,NA
qJHjdvl9,3fk4g712o0duz4m7qhicsa7sfszsso,3i0btbyza1yth1cy7nwjpal26070y8,qJHjdvl9,2020-0188,2021-10-31,19:09:16,20:15:23,NA,incomplete,true,true,NA,NA,0,15,NA,blue,m_s_078.jpg,NA,NA,NA,NA,NA,pleasant,unpleasant,NA,NA,NA,NA,NA,right,1840.59999990463,true,NA,NA,NA,NA,NA,NA,NA,NA
qJHjdvl9,3fk4g712o0duz4m7qhicsa7sfszsso,3i0btbyza1yth1cy7nwjpal26070y8,qJHjdvl9,2020-0188,2021-10-31,19:09:16,20:15:23,NA,incomplete,true,true,NA,NA,0,16,NA,blue,n_s_101.jpg,NA,NA,NA,NA,NA,pleasant,unpleasant,NA,NA,NA,NA,NA,right,756,true,NA,NA,NA,NA,NA,NA,NA,NA
qJHjdvl9,3fk4g712o0duz4m7qhicsa7sfszsso,3i0btbyza1yth1cy7nwjpal26070y8,qJHjdvl9,2020-0188,2021-10-31,19:09:16,20:15:23,NA,incomplete,true,true,NA,NA,0,17,NA,blue,m_l_058.jpg,NA,NA,NA,NA,NA,pleasant,unpleasant,NA,NA,NA,NA,NA,right,1097.5,true,NA,NA,NA,NA,NA,NA,NA,NA
qJHjdvl9,3fk4g712o0duz4m7qhicsa7sfszsso,3i0btbyza1yth1cy7nwjpal26070y8,qJHjdvl9,2020-0188,2021-10-31,19:09:16,20:15:23,NA,incomplete,true,true,NA,NA,0,18,NA,red,n_l_071.jpg,NA,NA,NA,NA,NA,unpleasant,pleasant,NA,NA,NA,NA,NA,right,1388.20000004768,true,NA,NA,NA,NA,NA,NA,NA,NA
qJHjdvl9,3fk4g712o0duz4m7qhicsa7sfszsso,3i0btbyza1yth1cy7nwjpal26070y8,qJHjdvl9,2020-0188,2021-10-31,19:09:16,20:15:23,NA,incomplete,true,true,NA,NA,0,19,NA,red,n_l_050.jpg,NA,NA,NA,NA,NA,unpleasant,pleasant,NA,NA,NA,NA,NA,right,1016,true,NA,NA,NA,NA,NA,NA,NA,NA
qJHjdvl9,3fk4g712o0duz4m7qhicsa7sfszsso,3i0btbyza1yth1cy7nwjpal26070y8,qJHjdvl9,2020-0188,2021-10-31,19:09:16,20:15:23,NA,incomplete,true,true,NA,NA,0,20,NA,red,n_l_025.jpg,NA,NA,NA,NA,NA,pleasant,unpleasant,NA,NA,NA,NA,NA,left,1573.40000009537,true,NA,NA,NA,NA,NA,NA,NA,NA
qJHjdvl9,3fk4g712o0duz4m7qhicsa7sfszsso,3i0btbyza1yth1cy7nwjpal26070y8,qJHjdvl9,2020-0188,2021-10-31,19:09:16,20:15:23,NA,incomplete,true,true,NA,NA,0,21,NA,red,n_s_108.jpg,NA,NA,NA,NA,NA,unpleasant,pleasant,NA,NA,NA,NA,NA,left,1176.20000004768,true,NA,NA,NA,NA,NA,NA,NA,NA
qJHjdvl9,3fk4g712o0duz4m7qhicsa7sfszsso,3i0btbyza1yth1cy7nwjpal26070y8,qJHjdvl9,2020-0188,2021-10-31,19:09:16,20:15:23,NA,incomplete,true,true,NA,NA,0,22,NA,red,m_l_096.jpg,NA,NA,NA,NA,NA,unpleasant,pleasant,NA,NA,NA,NA,NA,left,1333.09999990463,true,NA,NA,NA,NA,NA,NA,NA,NA
qJHjdvl9,3fk4g712o0duz4m7qhicsa7sfszsso,3i0btbyza1yth1cy7nwjpal26070y8,qJHjdvl9,2020-0188,2021-10-31,19:09:16,20:15:23,NA,incomplete,true,true,NA,NA,0,23,NA,red,m_s_081.jpg,NA,NA,NA,NA,NA,unpleasant,pleasant,NA,NA,NA,NA,NA,left,994.5,true,NA,NA,NA,NA,NA,NA,NA,NA
qJHjdvl9,3fk4g712o0duz4m7qhicsa7sfszsso,3i0btbyza1yth1cy7nwjpal26070y8,qJHjdvl9,2020-0188,2021-10-31,19:09:16,20:15:23,NA,incomplete,true,true,NA,NA,0,24,NA,green,n_l_083.jpg,NA,NA,NA,NA,NA,pleasant,unpleasant,NA,NA,NA,NA,NA,left,1237.60000014305,true,NA,NA,NA,NA,NA,NA,NA,NA
qJHjdvl9,3fk4g712o0duz4m7qhicsa7sfszsso,3i0btbyza1yth1cy7nwjpal26070y8,qJHjdvl9,2020-0188,2021-10-31,19:09:16,20:15:23,NA,incomplete,true,true,NA,NA,0,25,NA,green,n_l_001.jpg,NA,NA,NA,NA,NA,pleasant,unpleasant,NA,NA,NA,NA,NA,right,1249.79999995232,true,NA,NA,NA,NA,NA,NA,NA,NA
qJHjdvl9,3fk4g712o0duz4m7qhicsa7sfszsso,3i0btbyza1yth1cy7nwjpal26070y8,qJHjdvl9,2020-0188,2021-10-31,19:09:16,20:15:23,NA,incomplete,true,true,NA,NA,0,26,NA,green,m_s_074.jpg,NA,NA,NA,NA,NA,unpleasant,pleasant,NA,NA,NA,NA,NA,right,1503.09999990463,true,NA,NA,NA,NA,NA,NA,NA,NA
qJHjdvl9,3fk4g712o0duz4m7qhicsa7sfszsso,3i0btbyza1yth1cy7nwjpal26070y8,qJHjdvl9,2020-0188,2021-10-31,19:09:16,20:15:23,NA,incomplete,true,true,NA,NA,0,27,NA,green,m_s_087.jpg,NA,NA,NA,NA,NA,pleasant,unpleasant,NA,NA,NA,NA,NA,right,1298,true,NA,NA,NA,NA,NA,NA,NA,NA
qJHjdvl9,3fk4g712o0duz4m7qhicsa7sfszsso,3i0btbyza1yth1cy7nwjpal26070y8,qJHjdvl9,2020-0188,2021-10-31,19:09:16,20:15:23,NA,incomplete,true,true,NA,NA,0,28,NA,green,n_l_078.jpg,NA,NA,NA,NA,NA,unpleasant,pleasant,NA,NA,NA,NA,NA,right,1006.29999995232,true,NA,NA,NA,NA,NA,NA,NA,NA
qJHjdvl9,3fk4g712o0duz4m7qhicsa7sfszsso,3i0btbyza1yth1cy7nwjpal26070y8,qJHjdvl9,2020-0188,2021-10-31,19:09:16,20:15:23,NA,incomplete,true,true,NA,NA,0,29,NA,green,m_s_070.jpg,NA,NA,NA,NA,NA,pleasant,unpleasant,NA,NA,NA,NA,NA,right,1242,true,NA,NA,NA,NA,NA,NA,NA,NA
qJHjdvl9,3fk4g712o0duz4m7qhicsa7sfszsso,3i0btbyza1yth1cy7nwjpal26070y8,qJHjdvl9,2020-0188,2021-10-31,19:09:16,20:15:23,NA,incomplete,true,true,NA,NA,0,30,NA,yellow,n_s_031.jpg,NA,NA,NA,NA,NA,pleasant,unpleasant,NA,NA,NA,NA,NA,left,1182.5,true,NA,NA,NA,NA,NA,NA,NA,NA
qJHjdvl9,3fk4g712o0duz4m7qhicsa7sfszsso,3i0btbyza1yth1cy7nwjpal26070y8,qJHjdvl9,2020-0188,2021-10-31,19:09:16,20:15:23,NA,incomplete,true,true,NA,NA,0,31,NA,yellow,n_l_096.jpg,NA,NA,NA,NA,NA,pleasant,unpleasant,NA,NA,NA,NA,NA,left,923,true,NA,NA,NA,NA,NA,NA,NA,NA
qJHjdvl9,3fk4g712o0duz4m7qhicsa7sfszsso,3i0btbyza1yth1cy7nwjpal26070y8,qJHjdvl9,2020-0188,2021-10-31,19:09:16,20:15:23,NA,incomplete,true,true,NA,NA,0,32,NA,yellow,n_l_075.jpg,NA,NA,NA,NA,NA,pleasant,unpleasant,NA,NA,NA,NA,NA,left,1480.10000014305,true,NA,NA,NA,NA,NA,NA,NA,NA
qJHjdvl9,3fk4g712o0duz4m7qhicsa7sfszsso,3i0btbyza1yth1cy7nwjpal26070y8,qJHjdvl9,2020-0188,2021-10-31,19:09:16,20:15:23,NA,incomplete,true,true,NA,NA,0,33,NA,yellow,m_s_114.jpg,NA,NA,NA,NA,NA,pleasant,unpleasant,NA,NA,NA,NA,NA,left,1276,true,NA,NA,NA,NA,NA,NA,NA,NA
qJHjdvl9,3fk4g712o0duz4m7qhicsa7sfszsso,3i0btbyza1yth1cy7nwjpal26070y8,qJHjdvl9,2020-0188,2021-10-31,19:09:16,20:15:23,NA,incomplete,true,true,NA,NA,0,34,NA,yellow,n_l_052.jpg,NA,NA,NA,NA,NA,unpleasant,pleasant,NA,NA,NA,NA,NA,right,1457.59999990463,true,NA,NA,NA,NA,NA,NA,NA,NA
qJHjdvl9,3fk4g712o0duz4m7qhicsa7sfszsso,3i0btbyza1yth1cy7nwjpal26070y8,qJHjdvl9,2020-0188,2021-10-31,19:09:16,20:15:23,NA,incomplete,true,true,NA,NA,0,35,NA,yellow,m_l_082.jpg,NA,NA,NA,NA,NA,pleasant,unpleasant,NA,NA,NA,NA,NA,right,1005.79999995232,true,NA,NA,NA,NA,NA,NA,NA,NA
qJHjdvl9,3fk4g712o0duz4m7qhicsa7sfszsso,3i0btbyza1yth1cy7nwjpal26070y8,qJHjdvl9,2020-0188,2021-10-31,19:09:16,20:15:23,NA,incomplete,true,NA,NA,true,0,0,NA,NA,NA,left,n_l_096.jpg,yellow,green,NA,NA,NA,NA,NA,NA,NA,NA,NA,NaN,NA,2038.7999999523163,right,0,NA,NA,NA,NA,NA
qJHjdvl9,3fk4g712o0duz4m7qhicsa7sfszsso,3i0btbyza1yth1cy7nwjpal26070y8,qJHjdvl9,2020-0188,2021-10-31,19:09:16,20:15:23,NA,incomplete,true,NA,NA,true,0,1,NA,NA,NA,left,m_l_082.jpg,yellow,green,NA,NA,NA,NA,NA,NA,NA,NA,NA,NaN,NA,1687.5,left,1,NA,NA,NA,NA,NA
qJHjdvl9,3fk4g712o0duz4m7qhicsa7sfszsso,3i0btbyza1yth1cy7nwjpal26070y8,qJHjdvl9,2020-0188,2021-10-31,19:09:16,20:15:23,NA,incomplete,true,NA,NA,true,0,2,NA,NA,NA,right,m_l_108.jpg,black,brown,NA,NA,NA,NA,NA,NA,NA,NA,NA,NaN,NA,3135.0999999046326,left,0,NA,NA,NA,NA,NA
qJHjdvl9,3fk4g712o0duz4m7qhicsa7sfszsso,3i0btbyza1yth1cy7nwjpal26070y8,qJHjdvl9,2020-0188,2021-10-31,19:09:16,20:15:23,NA,incomplete,true,NA,NA,true,0,3,NA,NA,NA,right,m_l_096.jpg,blue,red,NA,NA,NA,NA,NA,NA,NA,NA,NA,NaN,NA,1774.7999999523163,left,0,NA,NA,NA,NA,NA
qJHjdvl9,3fk4g712o0duz4m7qhicsa7sfszsso,3i0btbyza1yth1cy7nwjpal26070y8,qJHjdvl9,2020-0188,2021-10-31,19:09:16,20:15:23,NA,incomplete,true,NA,NA,true,0,4,NA,NA,NA,right,m_l_058.jpg,brown,blue,NA,NA,NA,NA,NA,NA,NA,NA,NA,NaN,NA,1919.1000001430511,left,0,NA,NA,NA,NA,NA
qJHjdvl9,3fk4g712o0duz4m7qhicsa7sfszsso,3i0btbyza1yth1cy7nwjpal26070y8,qJHjdvl9,2020-0188,2021-10-31,19:09:16,20:15:23,NA,incomplete,true,NA,NA,true,0,5,NA,NA,NA,right,m_l_064.jpg,red,blue,NA,NA,NA,NA,NA,NA,NA,NA,NA,NaN,NA,1502.7000000476837,right,1,NA,NA,NA,NA,NA
qJHjdvl9,3fk4g712o0duz4m7qhicsa7sfszsso,3i0btbyza1yth1cy7nwjpal26070y8,qJHjdvl9,2020-0188,2021-10-31,19:09:16,20:15:23,NA,incomplete,true,NA,NA,true,0,6,NA,NA,NA,right,m_s_070.jpg,red,green,NA,NA,NA,NA,NA,NA,NA,NA,NA,NaN,NA,1287.4000000953674,right,1,NA,NA,NA,NA,NA
qJHjdvl9,3fk4g712o0duz4m7qhicsa7sfszsso,3i0btbyza1yth1cy7nwjpal26070y8,qJHjdvl9,2020-0188,2021-10-31,19:09:16,20:15:23,NA,incomplete,true,NA,NA,true,0,7,NA,NA,NA,right,n_l_001.jpg,red,green,NA,NA,NA,NA,NA,NA,NA,NA,NA,NaN,NA,1182.6000001430511,right,1,NA,NA,NA,NA,NA
qJHjdvl9,3fk4g712o0duz4m7qhicsa7sfszsso,3i0btbyza1yth1cy7nwjpal26070y8,qJHjdvl9,2020-0188,2021-10-31,19:09:16,20:15:23,NA,incomplete,true,NA,NA,true,0,8,NA,NA,NA,right,n_l_078.jpg,yellow,green,NA,NA,NA,NA,NA,NA,NA,NA,NA,NaN,NA,1630.2999999523163,left,0,NA,NA,NA,NA,NA
qJHjdvl9,3fk4g712o0duz4m7qhicsa7sfszsso,3i0btbyza1yth1cy7nwjpal26070y8,qJHjdvl9,2020-0188,2021-10-31,19:09:16,20:15:23,NA,incomplete,true,NA,NA,true,0,9,NA,NA,NA,left,n_l_066.jpg,black,brown,NA,NA,NA,NA,NA,NA,NA,NA,NA,NaN,NA,1615.5999999046326,left,1,NA,NA,NA,NA,NA
qJHjdvl9,3fk4g712o0duz4m7qhicsa7sfszsso,3i0btbyza1yth1cy7nwjpal26070y8,qJHjdvl9,2020-0188,2021-10-31,19:09:16,20:15:23,NA,incomplete,true,NA,NA,true,0,10,NA,NA,NA,right,n_l_075.jpg,green,yellow,NA,NA,NA,NA,NA,NA,NA,NA,NA,NaN,NA,2639.800000190735,right,1,NA,NA,NA,NA,NA
qJHjdvl9,3fk4g712o0duz4m7qhicsa7sfszsso,3i0btbyza1yth1cy7nwjpal26070y8,qJHjdvl9,2020-0188,2021-10-31,19:09:16,20:15:23,NA,incomplete,true,NA,NA,true,0,11,NA,NA,NA,right,m_l_049.jpg,brown,black,NA,NA,NA,NA,NA,NA,NA,NA,NA,NaN,NA,2255.899999856949,right,1,NA,NA,NA,NA,NA
qJHjdvl9,3fk4g712o0duz4m7qhicsa7sfszsso,3i0btbyza1yth1cy7nwjpal26070y8,qJHjdvl9,2020-0188,2021-10-31,19:09:16,20:15:23,NA,incomplete,true,NA,NA,true,0,12,NA,NA,NA,left,n_l_025.jpg,red,green,NA,NA,NA,NA,NA,NA,NA,NA,NA,NaN,NA,2070.5999999046326,left,1,NA,NA,NA,NA,NA
qJHjdvl9,3fk4g712o0duz4m7qhicsa7sfszsso,3i0btbyza1yth1cy7nwjpal26070y8,qJHjdvl9,2020-0188,2021-10-31,19:09:16,20:15:23,NA,incomplete,true,NA,NA,true,0,13,NA,NA,NA,right,n_l_050.jpg,green,red,NA,NA,NA,NA,NA,NA,NA,NA,NA,NaN,NA,2119.7999999523163,right,1,NA,NA,NA,NA,NA
qJHjdvl9,3fk4g712o0duz4m7qhicsa7sfszsso,3i0btbyza1yth1cy7nwjpal26070y8,qJHjdvl9,2020-0188,2021-10-31,19:09:16,20:15:23,NA,incomplete,true,NA,NA,true,0,14,NA,NA,NA,left,m_l_041.jpg,black,brown,NA,NA,NA,NA,NA,NA,NA,NA,NA,NaN,NA,1687.5,left,1,NA,NA,NA,NA,NA
qJHjdvl9,3fk4g712o0duz4m7qhicsa7sfszsso,3i0btbyza1yth1cy7nwjpal26070y8,qJHjdvl9,2020-0188,2021-10-31,19:09:16,20:15:23,NA,incomplete,true,NA,NA,true,0,15,NA,NA,NA,right,n_s_101.jpg,brown,blue,NA,NA,NA,NA,NA,NA,NA,NA,NA,NaN,NA,1494.7999999523163,left,0,NA,NA,NA,NA,NA
qJHjdvl9,3fk4g712o0duz4m7qhicsa7sfszsso,3i0btbyza1yth1cy7nwjpal26070y8,qJHjdvl9,2020-0188,2021-10-31,19:09:16,20:15:23,NA,incomplete,true,NA,NA,true,0,16,NA,NA,NA,left,m_s_092.jpg,brown,blue,NA,NA,NA,NA,NA,NA,NA,NA,NA,NaN,NA,1718.5999999046326,left,1,NA,NA,NA,NA,NA
qJHjdvl9,3fk4g712o0duz4m7qhicsa7sfszsso,3i0btbyza1yth1cy7nwjpal26070y8,qJHjdvl9,2020-0188,2021-10-31,19:09:16,20:15:23,NA,incomplete,true,NA,NA,true,0,17,NA,NA,NA,left,m_s_074.jpg,green,yellow,NA,NA,NA,NA,NA,NA,NA,NA,NA,NaN,NA,3087.2999999523163,left,1,NA,NA,NA,NA,NA
qJHjdvl9,3fk4g712o0duz4m7qhicsa7sfszsso,3i0btbyza1yth1cy7nwjpal26070y8,qJHjdvl9,2020-0188,2021-10-31,19:09:16,20:15:23,NA,incomplete,true,NA,NA,true,0,18,NA,NA,NA,right,m_s_022.jpg,blue,brown,NA,NA,NA,NA,NA,NA,NA,NA,NA,NaN,NA,1871.7999999523163,right,1,NA,NA,NA,NA,NA
qJHjdvl9,3fk4g712o0duz4m7qhicsa7sfszsso,3i0btbyza1yth1cy7nwjpal26070y8,qJHjdvl9,2020-0188,2021-10-31,19:09:16,20:15:23,NA,incomplete,true,NA,NA,true,0,19,NA,NA,NA,right,n_s_034.jpg,brown,blue,NA,NA,NA,NA,NA,NA,NA,NA,NA,NaN,NA,2495.5,left,0,NA,NA,NA,NA,NA
qJHjdvl9,3fk4g712o0duz4m7qhicsa7sfszsso,3i0btbyza1yth1cy7nwjpal26070y8,qJHjdvl9,2020-0188,2021-10-31,19:09:16,20:15:23,NA,incomplete,true,NA,NA,true,0,20,NA,NA,NA,left,m_l_074.jpg,brown,blue,NA,NA,NA,NA,NA,NA,NA,NA,NA,NaN,NA,1239.6999998092651,left,1,NA,NA,NA,NA,NA
qJHjdvl9,3fk4g712o0duz4m7qhicsa7sfszsso,3i0btbyza1yth1cy7nwjpal26070y8,qJHjdvl9,2020-0188,2021-10-31,19:09:16,20:15:23,NA,incomplete,true,NA,NA,true,0,21,NA,NA,NA,left,m_s_081.jpg,red,blue,NA,NA,NA,NA,NA,NA,NA,NA,NA,NaN,NA,1974.7999999523163,left,1,NA,NA,NA,NA,NA
qJHjdvl9,3fk4g712o0duz4m7qhicsa7sfszsso,3i0btbyza1yth1cy7nwjpal26070y8,qJHjdvl9,2020-0188,2021-10-31,19:09:16,20:15:23,NA,incomplete,true,NA,true,NA,0,0,NA,NA,NA,left,NA,NA,NA,absent,NA,NA,n_l_001.jpg,green,m_s_070.jpg,green,within,NA,NaN,NA,NA,NA,NA,left,3263.5,1,1,2654.699999809265
qJHjdvl9,3fk4g712o0duz4m7qhicsa7sfszsso,3i0btbyza1yth1cy7nwjpal26070y8,qJHjdvl9,2020-0188,2021-10-31,19:09:16,20:15:23,NA,incomplete,true,NA,true,NA,0,1,NA,NA,NA,left,NA,NA,NA,absent,NA,NA,n_s_101.jpg,blue,n_l_025.jpg,red,between,NA,NaN,NA,NA,NA,NA,left,2703,1,1,1375.2999999523163
qJHjdvl9,3fk4g712o0duz4m7qhicsa7sfszsso,3i0btbyza1yth1cy7nwjpal26070y8,qJHjdvl9,2020-0188,2021-10-31,19:09:16,20:15:23,NA,incomplete,true,NA,true,NA,0,2,NA,NA,NA,right,NA,NA,NA,absent,NA,NA,m_l_082.jpg,yellow,n_l_096.jpg,yellow,within,NA,NaN,NA,NA,NA,NA,right,5774.700000047684,1,2,1342.8999998569489
qJHjdvl9,3fk4g712o0duz4m7qhicsa7sfszsso,3i0btbyza1yth1cy7nwjpal26070y8,qJHjdvl9,2020-0188,2021-10-31,19:09:16,20:15:23,NA,incomplete,true,NA,true,NA,0,3,NA,NA,NA,right,NA,NA,NA,absent,NA,NA,m_s_074.jpg,green,m_l_096.jpg,red,between,NA,NaN,NA,NA,NA,NA,left,1983.7000000476837,0,1,1487.1999998092651
qJHjdvl9,3fk4g712o0duz4m7qhicsa7sfszsso,3i0btbyza1yth1cy7nwjpal26070y8,qJHjdvl9,2020-0188,2021-10-31,19:09:16,20:15:23,NA,incomplete,true,NA,true,NA,0,4,NA,NA,NA,right,NA,NA,NA,absent,NA,NA,n_l_075.jpg,yellow,n_l_078.jpg,green,between,NA,NaN,NA,NA,NA,NA,left,1911.3999998569489,0,1,1279.4000000953674
qJHjdvl9,3fk4g712o0duz4m7qhicsa7sfszsso,3i0btbyza1yth1cy7nwjpal26070y8,qJHjdvl9,2020-0188,2021-10-31,19:09:16,20:15:23,NA,incomplete,true,NA,true,NA,0,5,NA,NA,NA,left,NA,NA,NA,absent,NA,NA,n_s_034.jpg,blue,m_l_058.jpg,blue,within,NA,NaN,NA,NA,NA,NA,right,2014.3999998569489,0,2,1071.4000000953674
qJHjdvl9,3fk4g712o0duz4m7qhicsa7sfszsso,3i0btbyza1yth1cy7nwjpal26070y8,qJHjdvl9,2020-0188,2021-10-31,19:09:16,20:15:23,NA,incomplete,true,NA,true,NA,0,6,NA,NA,NA,right,NA,NA,NA,absent,NA,NA,m_l_064.jpg,blue,m_l_108.jpg,brown,between,NA,NaN,NA,NA,NA,NA,right,1902.7999999523163,1,2,1119.2999999523163
qJHjdvl9,3fk4g712o0duz4m7qhicsa7sfszsso,3i0btbyza1yth1cy7nwjpal26070y8,qJHjdvl9,2020-0188,2021-10-31,19:09:16,20:15:23,NA,incomplete,true,NA,true,NA,0,7,NA,NA,NA,right,NA,NA,NA,absent,NA,NA,m_s_081.jpg,red,n_l_050.jpg,red,within,NA,NaN,NA,NA,NA,NA,right,1919.6000001430511,1,2,774.5999999046326
qJHjdvl9,3fk4g712o0duz4m7qhicsa7sfszsso,3i0btbyza1yth1cy7nwjpal26070y8,qJHjdvl9,2020-0188,2021-10-31,19:09:16,20:15:23,NA,incomplete,true,NA,true,NA,0,8,NA,NA,NA,left,NA,NA,NA,absent,NA,NA,m_l_049.jpg,black,m_s_092.jpg,brown,between,NA,NaN,NA,NA,NA,NA,left,3167.5,1,1,942.7999999523163
qJHjdvl9,3fk4g712o0duz4m7qhicsa7sfszsso,3i0btbyza1yth1cy7nwjpal26070y8,qJHjdvl9,2020-0188,2021-10-31,19:09:16,20:15:23,NA,incomplete,true,NA,true,NA,0,9,NA,NA,NA,left,NA,NA,NA,absent,NA,NA,m_s_022.jpg,brown,m_l_074.jpg,brown,within,NA,NaN,NA,NA,NA,NA,left,1703.5999999046326,1,1,1143.7000000476837
qJHjdvl9,3fk4g712o0duz4m7qhicsa7sfszsso,3i0btbyza1yth1cy7nwjpal26070y8,qJHjdvl9,2020-0188,2021-10-31,19:09:16,20:15:23,NA,incomplete,true,NA,true,NA,0,10,NA,NA,NA,right,NA,NA,NA,absent,NA,NA,m_l_041.jpg,black,n_l_066.jpg,black,within,NA,NaN,NA,NA,NA,NA,right,1735.2999999523163,1,2,775.5
qJHjdvl9,3fk4g712o0duz4m7qhicsa7sfszsso,3i0btbyza1yth1cy7nwjpal26070y8,qJHjdvl9,2020-0188,2021-10-31,19:09:16,20:15:23,NA,incomplete,false,true,NA,NA,1,0,NA,green,n_l_043.jpg,NA,NA,NA,NA,NA,pleasant,unpleasant,NA,NA,NA,NA,NA,left,1432.70000004768,true,NA,NA,NA,NA,NA,NA,NA,NA
qJHjdvl9,3fk4g712o0duz4m7qhicsa7sfszsso,3i0btbyza1yth1cy7nwjpal26070y8,qJHjdvl9,2020-0188,2021-10-31,19:09:16,20:15:23,NA,incomplete,false,true,NA,NA,1,1,NA,green,n_s_055.jpg,NA,NA,NA,NA,NA,pleasant,unpleasant,NA,NA,NA,NA,NA,right,1717,true,NA,NA,NA,NA,NA,NA,NA,NA
qJHjdvl9,3fk4g712o0duz4m7qhicsa7sfszsso,3i0btbyza1yth1cy7nwjpal26070y8,qJHjdvl9,2020-0188,2021-10-31,19:09:16,20:15:23,NA,incomplete,false,true,NA,NA,1,2,NA,green,n_l_058.jpg,NA,NA,NA,NA,NA,unpleasant,pleasant,NA,NA,NA,NA,NA,right,1020.29999995232,true,NA,NA,NA,NA,NA,NA,NA,NA
qJHjdvl9,3fk4g712o0duz4m7qhicsa7sfszsso,3i0btbyza1yth1cy7nwjpal26070y8,qJHjdvl9,2020-0188,2021-10-31,19:09:16,20:15:23,NA,incomplete,false,true,NA,NA,1,3,NA,green,n_l_014.jpg,NA,NA,NA,NA,NA,unpleasant,pleasant,NA,NA,NA,NA,NA,right,1365.70000004768,true,NA,NA,NA,NA,NA,NA,NA,NA
qJHjdvl9,3fk4g712o0duz4m7qhicsa7sfszsso,3i0btbyza1yth1cy7nwjpal26070y8,qJHjdvl9,2020-0188,2021-10-31,19:09:16,20:15:23,NA,incomplete,false,true,NA,NA,1,4,NA,green,n_l_106.jpg,NA,NA,NA,NA,NA,pleasant,unpleasant,NA,NA,NA,NA,NA,left,1081.90000009537,true,NA,NA,NA,NA,NA,NA,NA,NA
qJHjdvl9,3fk4g712o0duz4m7qhicsa7sfszsso,3i0btbyza1yth1cy7nwjpal26070y8,qJHjdvl9,2020-0188,2021-10-31,19:09:16,20:15:23,NA,incomplete,false,true,NA,NA,1,5,NA,green,m_l_110.jpg,NA,NA,NA,NA,NA,pleasant,unpleasant,NA,NA,NA,NA,NA,right,1132.59999990463,true,NA,NA,NA,NA,NA,NA,NA,NA
qJHjdvl9,3fk4g712o0duz4m7qhicsa7sfszsso,3i0btbyza1yth1cy7nwjpal26070y8,qJHjdvl9,2020-0188,2021-10-31,19:09:16,20:15:23,NA,incomplete,false,true,NA,NA,1,6,NA,orange,m_s_051.jpg,NA,NA,NA,NA,NA,unpleasant,pleasant,NA,NA,NA,NA,NA,left,2442.29999995232,true,NA,NA,NA,NA,NA,NA,NA,NA
qJHjdvl9,3fk4g712o0duz4m7qhicsa7sfszsso,3i0btbyza1yth1cy7nwjpal26070y8,qJHjdvl9,2020-0188,2021-10-31,19:09:16,20:15:23,NA,incomplete,false,true,NA,NA,1,7,NA,orange,n_l_008.jpg,NA,NA,NA,NA,NA,pleasant,unpleasant,NA,NA,NA,NA,NA,left,1582.09999990463,true,NA,NA,NA,NA,NA,NA,NA,NA
qJHjdvl9,3fk4g712o0duz4m7qhicsa7sfszsso,3i0btbyza1yth1cy7nwjpal26070y8,qJHjdvl9,2020-0188,2021-10-31,19:09:16,20:15:23,NA,incomplete,false,true,NA,NA,1,8,NA,orange,n_s_006.jpg,NA,NA,NA,NA,NA,unpleasant,pleasant,NA,NA,NA,NA,NA,right,1188.09999990463,true,NA,NA,NA,NA,NA,NA,NA,NA
qJHjdvl9,3fk4g712o0duz4m7qhicsa7sfszsso,3i0btbyza1yth1cy7nwjpal26070y8,qJHjdvl9,2020-0188,2021-10-31,19:09:16,20:15:23,NA,incomplete,false,true,NA,NA,1,9,NA,orange,m_s_054.jpg,NA,NA,NA,NA,NA,pleasant,unpleasant,NA,NA,NA,NA,NA,right,2270.60000014305,true,NA,NA,NA,NA,NA,NA,NA,NA
qJHjdvl9,3fk4g712o0duz4m7qhicsa7sfszsso,3i0btbyza1yth1cy7nwjpal26070y8,qJHjdvl9,2020-0188,2021-10-31,19:09:16,20:15:23,NA,incomplete,false,true,NA,NA,1,10,NA,orange,m_l_047.jpg,NA,NA,NA,NA,NA,pleasant,unpleasant,NA,NA,NA,NA,NA,right,1801.89999985695,true,NA,NA,NA,NA,NA,NA,NA,NA
qJHjdvl9,3fk4g712o0duz4m7qhicsa7sfszsso,3i0btbyza1yth1cy7nwjpal26070y8,qJHjdvl9,2020-0188,2021-10-31,19:09:16,20:15:23,NA,incomplete,false,true,NA,NA,1,11,NA,orange,n_l_076.jpg,NA,NA,NA,NA,NA,pleasant,unpleasant,NA,NA,NA,NA,NA,right,1103.10000014305,true,NA,NA,NA,NA,NA,NA,NA,NA
qJHjdvl9,3fk4g712o0duz4m7qhicsa7sfszsso,3i0btbyza1yth1cy7nwjpal26070y8,qJHjdvl9,2020-0188,2021-10-31,19:09:16,20:15:23,NA,incomplete,false,true,NA,NA,1,12,NA,gray,n_l_055.jpg,NA,NA,NA,NA,NA,pleasant,unpleasant,NA,NA,NA,NA,NA,right,1138.59999990463,true,NA,NA,NA,NA,NA,NA,NA,NA
qJHjdvl9,3fk4g712o0duz4m7qhicsa7sfszsso,3i0btbyza1yth1cy7nwjpal26070y8,qJHjdvl9,2020-0188,2021-10-31,19:09:16,20:15:23,NA,incomplete,false,true,NA,NA,1,13,NA,gray,m_l_050.jpg,NA,NA,NA,NA,NA,unpleasant,pleasant,NA,NA,NA,NA,NA,right,1390,true,NA,NA,NA,NA,NA,NA,NA,NA
qJHjdvl9,3fk4g712o0duz4m7qhicsa7sfszsso,3i0btbyza1yth1cy7nwjpal26070y8,qJHjdvl9,2020-0188,2021-10-31,19:09:16,20:15:23,NA,incomplete,false,true,NA,NA,1,14,NA,gray,m_l_094.jpg,NA,NA,NA,NA,NA,unpleasant,pleasant,NA,NA,NA,NA,NA,left,1203.39999985695,true,NA,NA,NA,NA,NA,NA,NA,NA
qJHjdvl9,3fk4g712o0duz4m7qhicsa7sfszsso,3i0btbyza1yth1cy7nwjpal26070y8,qJHjdvl9,2020-0188,2021-10-31,19:09:16,20:15:23,NA,incomplete,false,true,NA,NA,1,15,NA,gray,m_s_052.jpg,NA,NA,NA,NA,NA,pleasant,unpleasant,NA,NA,NA,NA,NA,left,1141.5,true,NA,NA,NA,NA,NA,NA,NA,NA
qJHjdvl9,3fk4g712o0duz4m7qhicsa7sfszsso,3i0btbyza1yth1cy7nwjpal26070y8,qJHjdvl9,2020-0188,2021-10-31,19:09:16,20:15:23,NA,incomplete,false,true,NA,NA,1,16,NA,gray,m_s_073.jpg,NA,NA,NA,NA,NA,unpleasant,pleasant,NA,NA,NA,NA,NA,right,953.699999809265,true,NA,NA,NA,NA,NA,NA,NA,NA
qJHjdvl9,3fk4g712o0duz4m7qhicsa7sfszsso,3i0btbyza1yth1cy7nwjpal26070y8,qJHjdvl9,2020-0188,2021-10-31,19:09:16,20:15:23,NA,incomplete,false,true,NA,NA,1,17,NA,gray,m_s_080.jpg,NA,NA,NA,NA,NA,unpleasant,pleasant,NA,NA,NA,NA,NA,right,1191,true,NA,NA,NA,NA,NA,NA,NA,NA
qJHjdvl9,3fk4g712o0duz4m7qhicsa7sfszsso,3i0btbyza1yth1cy7nwjpal26070y8,qJHjdvl9,2020-0188,2021-10-31,19:09:16,20:15:23,NA,incomplete,false,true,NA,NA,1,18,NA,blue,n_s_020.jpg,NA,NA,NA,NA,NA,pleasant,unpleasant,NA,NA,NA,NA,NA,left,1122.39999985695,true,NA,NA,NA,NA,NA,NA,NA,NA
qJHjdvl9,3fk4g712o0duz4m7qhicsa7sfszsso,3i0btbyza1yth1cy7nwjpal26070y8,qJHjdvl9,2020-0188,2021-10-31,19:09:16,20:15:23,NA,incomplete,false,true,NA,NA,1,19,NA,blue,n_s_094.jpg,NA,NA,NA,NA,NA,unpleasant,pleasant,NA,NA,NA,NA,NA,right,1157.59999990463,true,NA,NA,NA,NA,NA,NA,NA,NA
qJHjdvl9,3fk4g712o0duz4m7qhicsa7sfszsso,3i0btbyza1yth1cy7nwjpal26070y8,qJHjdvl9,2020-0188,2021-10-31,19:09:16,20:15:23,NA,incomplete,false,true,NA,NA,1,20,NA,blue,m_s_018.jpg,NA,NA,NA,NA,NA,unpleasant,pleasant,NA,NA,NA,NA,NA,left,1370.59999990463,true,NA,NA,NA,NA,NA,NA,NA,NA
qJHjdvl9,3fk4g712o0duz4m7qhicsa7sfszsso,3i0btbyza1yth1cy7nwjpal26070y8,qJHjdvl9,2020-0188,2021-10-31,19:09:16,20:15:23,NA,incomplete,false,true,NA,NA,1,21,NA,blue,m_l_116.jpg,NA,NA,NA,NA,NA,unpleasant,pleasant,NA,NA,NA,NA,NA,right,1829.79999995232,true,NA,NA,NA,NA,NA,NA,NA,NA
qJHjdvl9,3fk4g712o0duz4m7qhicsa7sfszsso,3i0btbyza1yth1cy7nwjpal26070y8,qJHjdvl9,2020-0188,2021-10-31,19:09:16,20:15:23,NA,incomplete,false,true,NA,NA,1,22,NA,blue,n_s_107.jpg,NA,NA,NA,NA,NA,pleasant,unpleasant,NA,NA,NA,NA,NA,left,2708.10000014305,true,NA,NA,NA,NA,NA,NA,NA,NA
qJHjdvl9,3fk4g712o0duz4m7qhicsa7sfszsso,3i0btbyza1yth1cy7nwjpal26070y8,qJHjdvl9,2020-0188,2021-10-31,19:09:16,20:15:23,NA,incomplete,false,true,NA,NA,1,23,NA,blue,m_l_089.jpg,NA,NA,NA,NA,NA,unpleasant,pleasant,NA,NA,NA,NA,NA,right,1277.59999990463,true,NA,NA,NA,NA,NA,NA,NA,NA
qJHjdvl9,3fk4g712o0duz4m7qhicsa7sfszsso,3i0btbyza1yth1cy7nwjpal26070y8,qJHjdvl9,2020-0188,2021-10-31,19:09:16,20:15:23,NA,incomplete,false,true,NA,NA,1,24,NA,white,m_l_027.jpg,NA,NA,NA,NA,NA,unpleasant,pleasant,NA,NA,NA,NA,NA,left,937.399999856949,true,NA,NA,NA,NA,NA,NA,NA,NA
qJHjdvl9,3fk4g712o0duz4m7qhicsa7sfszsso,3i0btbyza1yth1cy7nwjpal26070y8,qJHjdvl9,2020-0188,2021-10-31,19:09:16,20:15:23,NA,incomplete,false,true,NA,NA,1,25,NA,white,m_s_085.jpg,NA,NA,NA,NA,NA,pleasant,unpleasant,NA,NA,NA,NA,NA,left,1470.09999990463,true,NA,NA,NA,NA,NA,NA,NA,NA
qJHjdvl9,3fk4g712o0duz4m7qhicsa7sfszsso,3i0btbyza1yth1cy7nwjpal26070y8,qJHjdvl9,2020-0188,2021-10-31,19:09:16,20:15:23,NA,incomplete,false,true,NA,NA,1,26,NA,white,n_l_091.jpg,NA,NA,NA,NA,NA,unpleasant,pleasant,NA,NA,NA,NA,NA,right,1137.10000014305,true,NA,NA,NA,NA,NA,NA,NA,NA
qJHjdvl9,3fk4g712o0duz4m7qhicsa7sfszsso,3i0btbyza1yth1cy7nwjpal26070y8,qJHjdvl9,2020-0188,2021-10-31,19:09:16,20:15:23,NA,incomplete,false,true,NA,NA,1,27,NA,white,n_l_108.jpg,NA,NA,NA,NA,NA,unpleasant,pleasant,NA,NA,NA,NA,NA,right,901.099999904633,true,NA,NA,NA,NA,NA,NA,NA,NA
qJHjdvl9,3fk4g712o0duz4m7qhicsa7sfszsso,3i0btbyza1yth1cy7nwjpal26070y8,qJHjdvl9,2020-0188,2021-10-31,19:09:16,20:15:23,NA,incomplete,false,true,NA,NA,1,28,NA,white,n_s_084.jpg,NA,NA,NA,NA,NA,unpleasant,pleasant,NA,NA,NA,NA,NA,right,1818.79999995232,true,NA,NA,NA,NA,NA,NA,NA,NA
qJHjdvl9,3fk4g712o0duz4m7qhicsa7sfszsso,3i0btbyza1yth1cy7nwjpal26070y8,qJHjdvl9,2020-0188,2021-10-31,19:09:16,20:15:23,NA,incomplete,false,true,NA,NA,1,29,NA,white,m_l_117.jpg,NA,NA,NA,NA,NA,pleasant,unpleasant,NA,NA,NA,NA,NA,right,1821,true,NA,NA,NA,NA,NA,NA,NA,NA
qJHjdvl9,3fk4g712o0duz4m7qhicsa7sfszsso,3i0btbyza1yth1cy7nwjpal26070y8,qJHjdvl9,2020-0188,2021-10-31,19:09:16,20:15:23,NA,incomplete,false,true,NA,NA,1,30,NA,brown,m_l_100.jpg,NA,NA,NA,NA,NA,pleasant,unpleasant,NA,NA,NA,NA,NA,left,1745.40000009537,true,NA,NA,NA,NA,NA,NA,NA,NA
qJHjdvl9,3fk4g712o0duz4m7qhicsa7sfszsso,3i0btbyza1yth1cy7nwjpal26070y8,qJHjdvl9,2020-0188,2021-10-31,19:09:16,20:15:23,NA,incomplete,false,true,NA,NA,1,31,NA,brown,m_l_078.jpg,NA,NA,NA,NA,NA,unpleasant,pleasant,NA,NA,NA,NA,NA,left,1816.79999995232,true,NA,NA,NA,NA,NA,NA,NA,NA
qJHjdvl9,3fk4g712o0duz4m7qhicsa7sfszsso,3i0btbyza1yth1cy7nwjpal26070y8,qJHjdvl9,2020-0188,2021-10-31,19:09:16,20:15:23,NA,incomplete,false,true,NA,NA,1,32,NA,brown,m_s_016.jpg,NA,NA,NA,NA,NA,pleasant,unpleasant,NA,NA,NA,NA,NA,left,1153.59999990463,true,NA,NA,NA,NA,NA,NA,NA,NA
qJHjdvl9,3fk4g712o0duz4m7qhicsa7sfszsso,3i0btbyza1yth1cy7nwjpal26070y8,qJHjdvl9,2020-0188,2021-10-31,19:09:16,20:15:23,NA,incomplete,false,true,NA,NA,1,33,NA,brown,n_l_038.jpg,NA,NA,NA,NA,NA,pleasant,unpleasant,NA,NA,NA,NA,NA,left,917.200000047684,true,NA,NA,NA,NA,NA,NA,NA,NA
qJHjdvl9,3fk4g712o0duz4m7qhicsa7sfszsso,3i0btbyza1yth1cy7nwjpal26070y8,qJHjdvl9,2020-0188,2021-10-31,19:09:16,20:15:23,NA,incomplete,false,true,NA,NA,1,34,NA,brown,m_l_075.jpg,NA,NA,NA,NA,NA,unpleasant,pleasant,NA,NA,NA,NA,NA,right,1147.79999995232,true,NA,NA,NA,NA,NA,NA,NA,NA
qJHjdvl9,3fk4g712o0duz4m7qhicsa7sfszsso,3i0btbyza1yth1cy7nwjpal26070y8,qJHjdvl9,2020-0188,2021-10-31,19:09:16,20:15:23,NA,incomplete,false,true,NA,NA,1,35,NA,brown,m_l_030.jpg,NA,NA,NA,NA,NA,pleasant,unpleasant,NA,NA,NA,NA,NA,right,1479.59999990463,true,NA,NA,NA,NA,NA,NA,NA,NA
qJHjdvl9,3fk4g712o0duz4m7qhicsa7sfszsso,3i0btbyza1yth1cy7nwjpal26070y8,qJHjdvl9,2020-0188,2021-10-31,19:09:16,20:15:23,NA,incomplete,false,NA,NA,true,1,0,NA,NA,NA,left,n_s_107.jpg,blue,gray,NA,NA,NA,NA,NA,NA,NA,NA,NA,NaN,NA,1526,right,0,NA,NA,NA,NA,NA
qJHjdvl9,3fk4g712o0duz4m7qhicsa7sfszsso,3i0btbyza1yth1cy7nwjpal26070y8,qJHjdvl9,2020-0188,2021-10-31,19:09:16,20:15:23,NA,incomplete,false,NA,NA,true,1,1,NA,NA,NA,right,n_l_076.jpg,green,orange,NA,NA,NA,NA,NA,NA,NA,NA,NA,NaN,NA,1839,left,0,NA,NA,NA,NA,NA
qJHjdvl9,3fk4g712o0duz4m7qhicsa7sfszsso,3i0btbyza1yth1cy7nwjpal26070y8,qJHjdvl9,2020-0188,2021-10-31,19:09:16,20:15:23,NA,incomplete,false,NA,NA,true,1,2,NA,NA,NA,left,m_s_073.jpg,gray,orange,NA,NA,NA,NA,NA,NA,NA,NA,NA,NaN,NA,1527,left,1,NA,NA,NA,NA,NA
qJHjdvl9,3fk4g712o0duz4m7qhicsa7sfszsso,3i0btbyza1yth1cy7nwjpal26070y8,qJHjdvl9,2020-0188,2021-10-31,19:09:16,20:15:23,NA,incomplete,false,NA,NA,true,1,3,NA,NA,NA,left,m_l_089.jpg,blue,gray,NA,NA,NA,NA,NA,NA,NA,NA,NA,NaN,NA,1471.2000000476837,left,1,NA,NA,NA,NA,NA
qJHjdvl9,3fk4g712o0duz4m7qhicsa7sfszsso,3i0btbyza1yth1cy7nwjpal26070y8,qJHjdvl9,2020-0188,2021-10-31,19:09:16,20:15:23,NA,incomplete,false,NA,NA,true,1,4,NA,NA,NA,right,n_s_084.jpg,blue,white,NA,NA,NA,NA,NA,NA,NA,NA,NA,NaN,NA,1422.7999999523163,right,1,NA,NA,NA,NA,NA
qJHjdvl9,3fk4g712o0duz4m7qhicsa7sfszsso,3i0btbyza1yth1cy7nwjpal26070y8,qJHjdvl9,2020-0188,2021-10-31,19:09:16,20:15:23,NA,incomplete,false,NA,NA,true,1,5,NA,NA,NA,left,m_l_047.jpg,orange,green,NA,NA,NA,NA,NA,NA,NA,NA,NA,NaN,NA,2736.5,left,1,NA,NA,NA,NA,NA
qJHjdvl9,3fk4g712o0duz4m7qhicsa7sfszsso,3i0btbyza1yth1cy7nwjpal26070y8,qJHjdvl9,2020-0188,2021-10-31,19:09:16,20:15:23,NA,incomplete,false,NA,NA,true,1,6,NA,NA,NA,right,n_s_094.jpg,gray,blue,NA,NA,NA,NA,NA,NA,NA,NA,NA,NaN,NA,1774.9000000953674,right,1,NA,NA,NA,NA,NA
qJHjdvl9,3fk4g712o0duz4m7qhicsa7sfszsso,3i0btbyza1yth1cy7nwjpal26070y8,qJHjdvl9,2020-0188,2021-10-31,19:09:16,20:15:23,NA,incomplete,false,NA,NA,true,1,7,NA,NA,NA,left,n_s_006.jpg,orange,green,NA,NA,NA,NA,NA,NA,NA,NA,NA,NaN,NA,1927.2999999523163,right,0,NA,NA,NA,NA,NA
qJHjdvl9,3fk4g712o0duz4m7qhicsa7sfszsso,3i0btbyza1yth1cy7nwjpal26070y8,qJHjdvl9,2020-0188,2021-10-31,19:09:16,20:15:23,NA,incomplete,false,NA,NA,true,1,8,NA,NA,NA,right,n_l_091.jpg,blue,white,NA,NA,NA,NA,NA,NA,NA,NA,NA,NaN,NA,1816.0999999046326,right,1,NA,NA,NA,NA,NA
qJHjdvl9,3fk4g712o0duz4m7qhicsa7sfszsso,3i0btbyza1yth1cy7nwjpal26070y8,qJHjdvl9,2020-0188,2021-10-31,19:09:16,20:15:23,NA,incomplete,false,NA,NA,true,1,9,NA,NA,NA,right,m_l_110.jpg,orange,green,NA,NA,NA,NA,NA,NA,NA,NA,NA,NaN,NA,3239.899999856949,right,1,NA,NA,NA,NA,NA
qJHjdvl9,3fk4g712o0duz4m7qhicsa7sfszsso,3i0btbyza1yth1cy7nwjpal26070y8,qJHjdvl9,2020-0188,2021-10-31,19:09:16,20:15:23,NA,incomplete,false,NA,NA,true,1,10,NA,NA,NA,right,m_s_016.jpg,white,brown,NA,NA,NA,NA,NA,NA,NA,NA,NA,NaN,NA,2447.2999999523163,left,0,NA,NA,NA,NA,NA
qJHjdvl9,3fk4g712o0duz4m7qhicsa7sfszsso,3i0btbyza1yth1cy7nwjpal26070y8,qJHjdvl9,2020-0188,2021-10-31,19:09:16,20:15:23,NA,incomplete,false,NA,NA,true,1,11,NA,NA,NA,left,n_l_008.jpg,orange,gray,NA,NA,NA,NA,NA,NA,NA,NA,NA,NaN,NA,1502.6999998092651,left,1,NA,NA,NA,NA,NA
qJHjdvl9,3fk4g712o0duz4m7qhicsa7sfszsso,3i0btbyza1yth1cy7nwjpal26070y8,qJHjdvl9,2020-0188,2021-10-31,19:09:16,20:15:23,NA,incomplete,false,NA,NA,true,1,12,NA,NA,NA,right,n_s_055.jpg,orange,green,NA,NA,NA,NA,NA,NA,NA,NA,NA,NaN,NA,1247,right,1,NA,NA,NA,NA,NA
qJHjdvl9,3fk4g712o0duz4m7qhicsa7sfszsso,3i0btbyza1yth1cy7nwjpal26070y8,qJHjdvl9,2020-0188,2021-10-31,19:09:16,20:15:23,NA,incomplete,false,NA,NA,true,1,13,NA,NA,NA,left,m_l_030.jpg,brown,white,NA,NA,NA,NA,NA,NA,NA,NA,NA,NaN,NA,1375.1999998092651,left,1,NA,NA,NA,NA,NA
qJHjdvl9,3fk4g712o0duz4m7qhicsa7sfszsso,3i0btbyza1yth1cy7nwjpal26070y8,qJHjdvl9,2020-0188,2021-10-31,19:09:16,20:15:23,NA,incomplete,false,NA,NA,true,1,14,NA,NA,NA,left,m_l_117.jpg,white,brown,NA,NA,NA,NA,NA,NA,NA,NA,NA,NaN,NA,2854.600000143051,left,1,NA,NA,NA,NA,NA
qJHjdvl9,3fk4g712o0duz4m7qhicsa7sfszsso,3i0btbyza1yth1cy7nwjpal26070y8,qJHjdvl9,2020-0188,2021-10-31,19:09:16,20:15:23,NA,incomplete,false,NA,NA,true,1,15,NA,NA,NA,left,m_s_080.jpg,gray,blue,NA,NA,NA,NA,NA,NA,NA,NA,NA,NaN,NA,1702.2999999523163,left,1,NA,NA,NA,NA,NA
qJHjdvl9,3fk4g712o0duz4m7qhicsa7sfszsso,3i0btbyza1yth1cy7nwjpal26070y8,qJHjdvl9,2020-0188,2021-10-31,19:09:16,20:15:23,NA,incomplete,false,NA,NA,true,1,16,NA,NA,NA,left,m_s_018.jpg,blue,white,NA,NA,NA,NA,NA,NA,NA,NA,NA,NaN,NA,1479.3999998569489,right,0,NA,NA,NA,NA,NA
qJHjdvl9,3fk4g712o0duz4m7qhicsa7sfszsso,3i0btbyza1yth1cy7nwjpal26070y8,qJHjdvl9,2020-0188,2021-10-31,19:09:16,20:15:23,NA,incomplete,false,NA,NA,true,1,17,NA,NA,NA,right,n_l_106.jpg,orange,green,NA,NA,NA,NA,NA,NA,NA,NA,NA,NaN,NA,1063.5999999046326,right,1,NA,NA,NA,NA,NA
qJHjdvl9,3fk4g712o0duz4m7qhicsa7sfszsso,3i0btbyza1yth1cy7nwjpal26070y8,qJHjdvl9,2020-0188,2021-10-31,19:09:16,20:15:23,NA,incomplete,false,NA,NA,true,1,18,NA,NA,NA,right,m_l_078.jpg,white,brown,NA,NA,NA,NA,NA,NA,NA,NA,NA,NaN,NA,1255.2000000476837,right,1,NA,NA,NA,NA,NA
qJHjdvl9,3fk4g712o0duz4m7qhicsa7sfszsso,3i0btbyza1yth1cy7nwjpal26070y8,qJHjdvl9,2020-0188,2021-10-31,19:09:16,20:15:23,NA,incomplete,false,NA,NA,true,1,19,NA,NA,NA,right,m_l_050.jpg,orange,gray,NA,NA,NA,NA,NA,NA,NA,NA,NA,NaN,NA,1943.6000001430511,right,1,NA,NA,NA,NA,NA
qJHjdvl9,3fk4g712o0duz4m7qhicsa7sfszsso,3i0btbyza1yth1cy7nwjpal26070y8,qJHjdvl9,2020-0188,2021-10-31,19:09:16,20:15:23,NA,incomplete,false,NA,NA,true,1,20,NA,NA,NA,right,m_l_094.jpg,orange,gray,NA,NA,NA,NA,NA,NA,NA,NA,NA,NaN,NA,1335.2999999523163,left,0,NA,NA,NA,NA,NA
qJHjdvl9,3fk4g712o0duz4m7qhicsa7sfszsso,3i0btbyza1yth1cy7nwjpal26070y8,qJHjdvl9,2020-0188,2021-10-31,19:09:16,20:15:23,NA,incomplete,false,NA,NA,true,1,21,NA,NA,NA,left,m_s_085.jpg,white,brown,NA,NA,NA,NA,NA,NA,NA,NA,NA,NaN,NA,1287.0999999046326,right,0,NA,NA,NA,NA,NA
qJHjdvl9,3fk4g712o0duz4m7qhicsa7sfszsso,3i0btbyza1yth1cy7nwjpal26070y8,qJHjdvl9,2020-0188,2021-10-31,19:09:16,20:15:23,NA,incomplete,false,NA,true,NA,1,0,NA,NA,NA,left,NA,NA,NA,absent,NA,NA,n_s_055.jpg,green,m_l_110.jpg,green,within,NA,NaN,NA,NA,NA,NA,left,2022.5,1,1,1838.9000000953674
qJHjdvl9,3fk4g712o0duz4m7qhicsa7sfszsso,3i0btbyza1yth1cy7nwjpal26070y8,qJHjdvl9,2020-0188,2021-10-31,19:09:16,20:15:23,NA,incomplete,false,NA,true,NA,1,1,NA,NA,NA,right,NA,NA,NA,absent,NA,NA,m_l_094.jpg,gray,m_l_047.jpg,orange,between,NA,NaN,NA,NA,NA,NA,right,2783.800000190735,1,1,1895.2000000476837
qJHjdvl9,3fk4g712o0duz4m7qhicsa7sfszsso,3i0btbyza1yth1cy7nwjpal26070y8,qJHjdvl9,2020-0188,2021-10-31,19:09:16,20:15:23,NA,incomplete,false,NA,true,NA,1,2,NA,NA,NA,left,NA,NA,NA,absent,NA,NA,n_s_084.jpg,white,m_s_016.jpg,brown,between,NA,NaN,NA,NA,NA,NA,right,5175.700000047684,0,1,1311.2999999523163
qJHjdvl9,3fk4g712o0duz4m7qhicsa7sfszsso,3i0btbyza1yth1cy7nwjpal26070y8,qJHjdvl9,2020-0188,2021-10-31,19:09:16,20:15:23,NA,incomplete,false,NA,true,NA,1,3,NA,NA,NA,left,NA,NA,NA,absent,NA,NA,n_l_008.jpg,orange,n_l_076.jpg,orange,within,NA,NaN,NA,NA,NA,NA,left,1455.9000000953674,1,1,1214.3000001907349
qJHjdvl9,3fk4g712o0duz4m7qhicsa7sfszsso,3i0btbyza1yth1cy7nwjpal26070y8,qJHjdvl9,2020-0188,2021-10-31,19:09:16,20:15:23,NA,incomplete,false,NA,true,NA,1,4,NA,NA,NA,right,NA,NA,NA,absent,NA,NA,m_l_117.jpg,white,m_s_085.jpg,white,within,NA,NaN,NA,NA,NA,NA,right,3631.100000143051,1,1,1351.0999999046326
qJHjdvl9,3fk4g712o0duz4m7qhicsa7sfszsso,3i0btbyza1yth1cy7nwjpal26070y8,qJHjdvl9,2020-0188,2021-10-31,19:09:16,20:15:23,NA,incomplete,false,NA,true,NA,1,5,NA,NA,NA,left,NA,NA,NA,absent,NA,NA,n_l_106.jpg,green,n_s_006.jpg,orange,between,NA,NaN,NA,NA,NA,NA,left,1550.7999999523163,1,1,959.4000000953674
qJHjdvl9,3fk4g712o0duz4m7qhicsa7sfszsso,3i0btbyza1yth1cy7nwjpal26070y8,qJHjdvl9,2020-0188,2021-10-31,19:09:16,20:15:23,NA,incomplete,false,NA,true,NA,1,6,NA,NA,NA,left,NA,NA,NA,absent,NA,NA,n_s_107.jpg,blue,n_l_091.jpg,white,between,NA,NaN,NA,NA,NA,NA,left,2398.2000000476837,1,2,1151.7999999523163
qJHjdvl9,3fk4g712o0duz4m7qhicsa7sfszsso,3i0btbyza1yth1cy7nwjpal26070y8,qJHjdvl9,2020-0188,2021-10-31,19:09:16,20:15:23,NA,incomplete,false,NA,true,NA,1,7,NA,NA,NA,right,NA,NA,NA,absent,NA,NA,m_l_089.jpg,blue,n_s_094.jpg,blue,within,NA,NaN,NA,NA,NA,NA,right,1926.5,1,1,1007.5999999046326
qJHjdvl9,3fk4g712o0duz4m7qhicsa7sfszsso,3i0btbyza1yth1cy7nwjpal26070y8,qJHjdvl9,2020-0188,2021-10-31,19:09:16,20:15:23,NA,incomplete,false,NA,true,NA,1,8,NA,NA,NA,right,NA,NA,NA,absent,NA,NA,m_l_030.jpg,brown,m_l_078.jpg,brown,within,NA,NaN,NA,NA,NA,NA,right,2824.4000000953674,1,1,1392.7000000476837
qJHjdvl9,3fk4g712o0duz4m7qhicsa7sfszsso,3i0btbyza1yth1cy7nwjpal26070y8,qJHjdvl9,2020-0188,2021-10-31,19:09:16,20:15:23,NA,incomplete,false,NA,true,NA,1,9,NA,NA,NA,right,NA,NA,NA,absent,NA,NA,m_s_080.jpg,gray,m_l_050.jpg,gray,within,NA,NaN,NA,NA,NA,NA,right,2447.2999999523163,1,2,823.2999999523163
qJHjdvl9,3fk4g712o0duz4m7qhicsa7sfszsso,3i0btbyza1yth1cy7nwjpal26070y8,qJHjdvl9,2020-0188,2021-10-31,19:09:16,20:15:23,NA,incomplete,false,NA,true,NA,1,10,NA,NA,NA,left,NA,NA,NA,absent,NA,NA,m_s_073.jpg,gray,m_s_018.jpg,blue,between,NA,NaN,NA,NA,NA,NA,left,1367.7999999523163,1,2,3079.2999999523163
qJHjdvl9,3fk4g712o0duz4m7qhicsa7sfszsso,3i0btbyza1yth1cy7nwjpal26070y8,qJHjdvl9,2020-0188,2021-10-31,19:09:16,20:15:23,NA,incomplete,false,true,NA,NA,2,0,NA,orange,m_s_049.jpg,NA,NA,NA,NA,NA,pleasant,unpleasant,NA,NA,NA,NA,NA,left,2003.90000009537,true,NA,NA,NA,NA,NA,NA,NA,NA
qJHjdvl9,3fk4g712o0duz4m7qhicsa7sfszsso,3i0btbyza1yth1cy7nwjpal26070y8,qJHjdvl9,2020-0188,2021-10-31,19:09:16,20:15:23,NA,incomplete,false,true,NA,NA,2,1,NA,orange,n_s_117.jpg,NA,NA,NA,NA,NA,unpleasant,pleasant,NA,NA,NA,NA,NA,right,767.699999809265,true,NA,NA,NA,NA,NA,NA,NA,NA
qJHjdvl9,3fk4g712o0duz4m7qhicsa7sfszsso,3i0btbyza1yth1cy7nwjpal26070y8,qJHjdvl9,2020-0188,2021-10-31,19:09:16,20:15:23,NA,incomplete,false,true,NA,NA,2,2,NA,orange,m_s_075.jpg,NA,NA,NA,NA,NA,pleasant,unpleasant,NA,NA,NA,NA,NA,right,1280.59999990463,true,NA,NA,NA,NA,NA,NA,NA,NA
qJHjdvl9,3fk4g712o0duz4m7qhicsa7sfszsso,3i0btbyza1yth1cy7nwjpal26070y8,qJHjdvl9,2020-0188,2021-10-31,19:09:16,20:15:23,NA,incomplete,false,true,NA,NA,2,3,NA,orange,m_l_098.jpg,NA,NA,NA,NA,NA,unpleasant,pleasant,NA,NA,NA,NA,NA,right,1201.59999990463,true,NA,NA,NA,NA,NA,NA,NA,NA
qJHjdvl9,3fk4g712o0duz4m7qhicsa7sfszsso,3i0btbyza1yth1cy7nwjpal26070y8,qJHjdvl9,2020-0188,2021-10-31,19:09:16,20:15:23,NA,incomplete,false,true,NA,NA,2,4,NA,orange,n_l_031.jpg,NA,NA,NA,NA,NA,unpleasant,pleasant,NA,NA,NA,NA,NA,right,988.900000095367,true,NA,NA,NA,NA,NA,NA,NA,NA
qJHjdvl9,3fk4g712o0duz4m7qhicsa7sfszsso,3i0btbyza1yth1cy7nwjpal26070y8,qJHjdvl9,2020-0188,2021-10-31,19:09:16,20:15:23,NA,incomplete,false,true,NA,NA,2,5,NA,orange,n_l_103.jpg,NA,NA,NA,NA,NA,unpleasant,pleasant,NA,NA,NA,NA,NA,left,1057.70000004768,true,NA,NA,NA,NA,NA,NA,NA,NA
qJHjdvl9,3fk4g712o0duz4m7qhicsa7sfszsso,3i0btbyza1yth1cy7nwjpal26070y8,qJHjdvl9,2020-0188,2021-10-31,19:09:16,20:15:23,NA,incomplete,false,true,NA,NA,2,6,NA,purple,m_s_038.jpg,NA,NA,NA,NA,NA,unpleasant,pleasant,NA,NA,NA,NA,NA,right,1412.29999995232,true,NA,NA,NA,NA,NA,NA,NA,NA
qJHjdvl9,3fk4g712o0duz4m7qhicsa7sfszsso,3i0btbyza1yth1cy7nwjpal26070y8,qJHjdvl9,2020-0188,2021-10-31,19:09:16,20:15:23,NA,incomplete,false,true,NA,NA,2,7,NA,purple,m_s_115.jpg,NA,NA,NA,NA,NA,pleasant,unpleasant,NA,NA,NA,NA,NA,left,1088.70000004768,true,NA,NA,NA,NA,NA,NA,NA,NA
qJHjdvl9,3fk4g712o0duz4m7qhicsa7sfszsso,3i0btbyza1yth1cy7nwjpal26070y8,qJHjdvl9,2020-0188,2021-10-31,19:09:16,20:15:23,NA,incomplete,false,true,NA,NA,2,8,NA,purple,n_l_022.jpg,NA,NA,NA,NA,NA,pleasant,unpleasant,NA,NA,NA,NA,NA,left,902.600000143051,true,NA,NA,NA,NA,NA,NA,NA,NA
qJHjdvl9,3fk4g712o0duz4m7qhicsa7sfszsso,3i0btbyza1yth1cy7nwjpal26070y8,qJHjdvl9,2020-0188,2021-10-31,19:09:16,20:15:23,NA,incomplete,false,true,NA,NA,2,9,NA,purple,n_l_064.jpg,NA,NA,NA,NA,NA,unpleasant,pleasant,NA,NA,NA,NA,NA,right,1016.90000009537,true,NA,NA,NA,NA,NA,NA,NA,NA
qJHjdvl9,3fk4g712o0duz4m7qhicsa7sfszsso,3i0btbyza1yth1cy7nwjpal26070y8,qJHjdvl9,2020-0188,2021-10-31,19:09:16,20:15:23,NA,incomplete,false,true,NA,NA,2,10,NA,purple,n_s_011.jpg,NA,NA,NA,NA,NA,unpleasant,pleasant,NA,NA,NA,NA,NA,right,1164.60000014305,true,NA,NA,NA,NA,NA,NA,NA,NA
qJHjdvl9,3fk4g712o0duz4m7qhicsa7sfszsso,3i0btbyza1yth1cy7nwjpal26070y8,qJHjdvl9,2020-0188,2021-10-31,19:09:16,20:15:23,NA,incomplete,false,true,NA,NA,2,11,NA,purple,m_s_048.jpg,NA,NA,NA,NA,NA,unpleasant,pleasant,NA,NA,NA,NA,NA,right,1298.70000004768,true,NA,NA,NA,NA,NA,NA,NA,NA
qJHjdvl9,3fk4g712o0duz4m7qhicsa7sfszsso,3i0btbyza1yth1cy7nwjpal26070y8,qJHjdvl9,2020-0188,2021-10-31,19:09:16,20:15:23,NA,incomplete,false,true,NA,NA,2,12,NA,gray,n_s_018.jpg,NA,NA,NA,NA,NA,unpleasant,pleasant,NA,NA,NA,NA,NA,left,1141.70000004768,true,NA,NA,NA,NA,NA,NA,NA,NA
qJHjdvl9,3fk4g712o0duz4m7qhicsa7sfszsso,3i0btbyza1yth1cy7nwjpal26070y8,qJHjdvl9,2020-0188,2021-10-31,19:09:16,20:15:23,NA,incomplete,false,true,NA,NA,2,13,NA,gray,n_s_059.jpg,NA,NA,NA,NA,NA,unpleasant,pleasant,NA,NA,NA,NA,NA,left,1409.90000009537,true,NA,NA,NA,NA,NA,NA,NA,NA
qJHjdvl9,3fk4g712o0duz4m7qhicsa7sfszsso,3i0btbyza1yth1cy7nwjpal26070y8,qJHjdvl9,2020-0188,2021-10-31,19:09:16,20:15:23,NA,incomplete,false,true,NA,NA,2,14,NA,gray,m_s_077.jpg,NA,NA,NA,NA,NA,pleasant,unpleasant,NA,NA,NA,NA,NA,right,1591.59999990463,true,NA,NA,NA,NA,NA,NA,NA,NA
qJHjdvl9,3fk4g712o0duz4m7qhicsa7sfszsso,3i0btbyza1yth1cy7nwjpal26070y8,qJHjdvl9,2020-0188,2021-10-31,19:09:16,20:15:23,NA,incomplete,false,true,NA,NA,2,15,NA,gray,m_s_053.jpg,NA,NA,NA,NA,NA,unpleasant,pleasant,NA,NA,NA,NA,NA,left,1530.60000014305,true,NA,NA,NA,NA,NA,NA,NA,NA
qJHjdvl9,3fk4g712o0duz4m7qhicsa7sfszsso,3i0btbyza1yth1cy7nwjpal26070y8,qJHjdvl9,2020-0188,2021-10-31,19:09:16,20:15:23,NA,incomplete,false,true,NA,NA,2,16,NA,gray,m_l_081.jpg,NA,NA,NA,NA,NA,pleasant,unpleasant,NA,NA,NA,NA,NA,left,1079,true,NA,NA,NA,NA,NA,NA,NA,NA
qJHjdvl9,3fk4g712o0duz4m7qhicsa7sfszsso,3i0btbyza1yth1cy7nwjpal26070y8,qJHjdvl9,2020-0188,2021-10-31,19:09:16,20:15:23,NA,incomplete,false,true,NA,NA,2,17,NA,gray,n_s_116.jpg,NA,NA,NA,NA,NA,pleasant,unpleasant,NA,NA,NA,NA,NA,right,1060.30000019073,true,NA,NA,NA,NA,NA,NA,NA,NA
qJHjdvl9,3fk4g712o0duz4m7qhicsa7sfszsso,3i0btbyza1yth1cy7nwjpal26070y8,qJHjdvl9,2020-0188,2021-10-31,19:09:16,20:15:23,NA,incomplete,false,true,NA,NA,2,18,NA,blue,n_s_057.jpg,NA,NA,NA,NA,NA,pleasant,unpleasant,NA,NA,NA,NA,NA,right,1239.59999990463,true,NA,NA,NA,NA,NA,NA,NA,NA
qJHjdvl9,3fk4g712o0duz4m7qhicsa7sfszsso,3i0btbyza1yth1cy7nwjpal26070y8,qJHjdvl9,2020-0188,2021-10-31,19:09:16,20:15:23,NA,incomplete,false,true,NA,NA,2,19,NA,blue,m_l_066.jpg,NA,NA,NA,NA,NA,pleasant,unpleasant,NA,NA,NA,NA,NA,left,1251.39999985695,true,NA,NA,NA,NA,NA,NA,NA,NA
qJHjdvl9,3fk4g712o0duz4m7qhicsa7sfszsso,3i0btbyza1yth1cy7nwjpal26070y8,qJHjdvl9,2020-0188,2021-10-31,19:09:16,20:15:23,NA,incomplete,false,true,NA,NA,2,20,NA,blue,m_s_069.jpg,NA,NA,NA,NA,NA,unpleasant,pleasant,NA,NA,NA,NA,NA,right,1136.79999995232,true,NA,NA,NA,NA,NA,NA,NA,NA
qJHjdvl9,3fk4g712o0duz4m7qhicsa7sfszsso,3i0btbyza1yth1cy7nwjpal26070y8,qJHjdvl9,2020-0188,2021-10-31,19:09:16,20:15:23,NA,incomplete,false,true,NA,NA,2,21,NA,blue,m_l_114.jpg,NA,NA,NA,NA,NA,pleasant,unpleasant,NA,NA,NA,NA,NA,right,1315,true,NA,NA,NA,NA,NA,NA,NA,NA
qJHjdvl9,3fk4g712o0duz4m7qhicsa7sfszsso,3i0btbyza1yth1cy7nwjpal26070y8,qJHjdvl9,2020-0188,2021-10-31,19:09:16,20:15:23,NA,incomplete,false,true,NA,NA,2,22,NA,blue,m_s_109.jpg,NA,NA,NA,NA,NA,pleasant,unpleasant,NA,NA,NA,NA,NA,left,967.799999952316,true,NA,NA,NA,NA,NA,NA,NA,NA
qJHjdvl9,3fk4g712o0duz4m7qhicsa7sfszsso,3i0btbyza1yth1cy7nwjpal26070y8,qJHjdvl9,2020-0188,2021-10-31,19:09:16,20:15:23,NA,incomplete,false,true,NA,NA,2,23,NA,blue,n_s_080.jpg,NA,NA,NA,NA,NA,unpleasant,pleasant,NA,NA,NA,NA,NA,left,1061.79999995232,true,NA,NA,NA,NA,NA,NA,NA,NA
qJHjdvl9,3fk4g712o0duz4m7qhicsa7sfszsso,3i0btbyza1yth1cy7nwjpal26070y8,qJHjdvl9,2020-0188,2021-10-31,19:09:16,20:15:23,NA,incomplete,false,true,NA,NA,2,24,NA,yellow,n_l_057.jpg,NA,NA,NA,NA,NA,unpleasant,pleasant,NA,NA,NA,NA,NA,left,1384.89999985695,true,NA,NA,NA,NA,NA,NA,NA,NA
qJHjdvl9,3fk4g712o0duz4m7qhicsa7sfszsso,3i0btbyza1yth1cy7nwjpal26070y8,qJHjdvl9,2020-0188,2021-10-31,19:09:16,20:15:23,NA,incomplete,false,true,NA,NA,2,25,NA,yellow,n_l_018.jpg,NA,NA,NA,NA,NA,pleasant,unpleasant,NA,NA,NA,NA,NA,right,1395.89999985695,true,NA,NA,NA,NA,NA,NA,NA,NA
qJHjdvl9,3fk4g712o0duz4m7qhicsa7sfszsso,3i0btbyza1yth1cy7nwjpal26070y8,qJHjdvl9,2020-0188,2021-10-31,19:09:16,20:15:23,NA,incomplete,false,true,NA,NA,2,26,NA,yellow,m_s_105.jpg,NA,NA,NA,NA,NA,unpleasant,pleasant,NA,NA,NA,NA,NA,right,1137.59999990463,true,NA,NA,NA,NA,NA,NA,NA,NA
qJHjdvl9,3fk4g712o0duz4m7qhicsa7sfszsso,3i0btbyza1yth1cy7nwjpal26070y8,qJHjdvl9,2020-0188,2021-10-31,19:09:16,20:15:23,NA,incomplete,false,true,NA,NA,2,27,NA,yellow,m_s_088.jpg,NA,NA,NA,NA,NA,unpleasant,pleasant,NA,NA,NA,NA,NA,left,1197.70000004768,true,NA,NA,NA,NA,NA,NA,NA,NA
qJHjdvl9,3fk4g712o0duz4m7qhicsa7sfszsso,3i0btbyza1yth1cy7nwjpal26070y8,qJHjdvl9,2020-0188,2021-10-31,19:09:16,20:15:23,NA,incomplete,false,true,NA,NA,2,28,NA,yellow,n_l_035.jpg,NA,NA,NA,NA,NA,pleasant,unpleasant,NA,NA,NA,NA,NA,left,1762.29999995232,true,NA,NA,NA,NA,NA,NA,NA,NA
qJHjdvl9,3fk4g712o0duz4m7qhicsa7sfszsso,3i0btbyza1yth1cy7nwjpal26070y8,qJHjdvl9,2020-0188,2021-10-31,19:09:16,20:15:23,NA,incomplete,false,true,NA,NA,2,29,NA,yellow,m_s_028.jpg,NA,NA,NA,NA,NA,unpleasant,pleasant,NA,NA,NA,NA,NA,left,1207.90000009537,true,NA,NA,NA,NA,NA,NA,NA,NA
qJHjdvl9,3fk4g712o0duz4m7qhicsa7sfszsso,3i0btbyza1yth1cy7nwjpal26070y8,qJHjdvl9,2020-0188,2021-10-31,19:09:16,20:15:23,NA,incomplete,false,true,NA,NA,2,30,NA,green,m_l_011.jpg,NA,NA,NA,NA,NA,unpleasant,pleasant,NA,NA,NA,NA,NA,left,1089.79999995232,true,NA,NA,NA,NA,NA,NA,NA,NA
qJHjdvl9,3fk4g712o0duz4m7qhicsa7sfszsso,3i0btbyza1yth1cy7nwjpal26070y8,qJHjdvl9,2020-0188,2021-10-31,19:09:16,20:15:23,NA,incomplete,false,true,NA,NA,2,31,NA,green,m_l_107.jpg,NA,NA,NA,NA,NA,pleasant,unpleasant,NA,NA,NA,NA,NA,right,1124.89999985695,true,NA,NA,NA,NA,NA,NA,NA,NA
qJHjdvl9,3fk4g712o0duz4m7qhicsa7sfszsso,3i0btbyza1yth1cy7nwjpal26070y8,qJHjdvl9,2020-0188,2021-10-31,19:09:16,20:15:23,NA,incomplete,false,true,NA,NA,2,32,NA,green,n_l_005.jpg,NA,NA,NA,NA,NA,unpleasant,pleasant,NA,NA,NA,NA,NA,right,1122.20000004768,true,NA,NA,NA,NA,NA,NA,NA,NA
qJHjdvl9,3fk4g712o0duz4m7qhicsa7sfszsso,3i0btbyza1yth1cy7nwjpal26070y8,qJHjdvl9,2020-0188,2021-10-31,19:09:16,20:15:23,NA,incomplete,false,true,NA,NA,2,33,NA,green,n_l_068.jpg,NA,NA,NA,NA,NA,unpleasant,pleasant,NA,NA,NA,NA,NA,right,1093.89999985695,true,NA,NA,NA,NA,NA,NA,NA,NA
qJHjdvl9,3fk4g712o0duz4m7qhicsa7sfszsso,3i0btbyza1yth1cy7nwjpal26070y8,qJHjdvl9,2020-0188,2021-10-31,19:09:16,20:15:23,NA,incomplete,false,true,NA,NA,2,34,NA,green,n_l_045.jpg,NA,NA,NA,NA,NA,unpleasant,pleasant,NA,NA,NA,NA,NA,left,946.399999856949,true,NA,NA,NA,NA,NA,NA,NA,NA
qJHjdvl9,3fk4g712o0duz4m7qhicsa7sfszsso,3i0btbyza1yth1cy7nwjpal26070y8,qJHjdvl9,2020-0188,2021-10-31,19:09:16,20:15:23,NA,incomplete,false,true,NA,NA,2,35,NA,green,n_l_027.jpg,NA,NA,NA,NA,NA,unpleasant,pleasant,NA,NA,NA,NA,NA,right,897.099999904633,true,NA,NA,NA,NA,NA,NA,NA,NA
qJHjdvl9,3fk4g712o0duz4m7qhicsa7sfszsso,3i0btbyza1yth1cy7nwjpal26070y8,qJHjdvl9,2020-0188,2021-10-31,19:09:16,20:15:23,NA,incomplete,false,NA,NA,true,2,0,NA,NA,NA,right,m_s_115.jpg,gray,purple,NA,NA,NA,NA,NA,NA,NA,NA,NA,NaN,NA,1565.6000001430511,right,1,NA,NA,NA,NA,NA
qJHjdvl9,3fk4g712o0duz4m7qhicsa7sfszsso,3i0btbyza1yth1cy7nwjpal26070y8,qJHjdvl9,2020-0188,2021-10-31,19:09:16,20:15:23,NA,incomplete,false,NA,NA,true,2,1,NA,NA,NA,right,n_s_080.jpg,gray,blue,NA,NA,NA,NA,NA,NA,NA,NA,NA,NaN,NA,2463.100000143051,left,0,NA,NA,NA,NA,NA
qJHjdvl9,3fk4g712o0duz4m7qhicsa7sfszsso,3i0btbyza1yth1cy7nwjpal26070y8,qJHjdvl9,2020-0188,2021-10-31,19:09:16,20:15:23,NA,incomplete,false,NA,NA,true,2,2,NA,NA,NA,left,n_l_018.jpg,yellow,blue,NA,NA,NA,NA,NA,NA,NA,NA,NA,NaN,NA,1703.2000000476837,left,1,NA,NA,NA,NA,NA
qJHjdvl9,3fk4g712o0duz4m7qhicsa7sfszsso,3i0btbyza1yth1cy7nwjpal26070y8,qJHjdvl9,2020-0188,2021-10-31,19:09:16,20:15:23,NA,incomplete,false,NA,NA,true,2,3,NA,NA,NA,left,n_l_035.jpg,yellow,green,NA,NA,NA,NA,NA,NA,NA,NA,NA,NaN,NA,1519.3999998569489,right,0,NA,NA,NA,NA,NA
qJHjdvl9,3fk4g712o0duz4m7qhicsa7sfszsso,3i0btbyza1yth1cy7nwjpal26070y8,qJHjdvl9,2020-0188,2021-10-31,19:09:16,20:15:23,NA,incomplete,false,NA,NA,true,2,4,NA,NA,NA,right,n_s_059.jpg,blue,gray,NA,NA,NA,NA,NA,NA,NA,NA,NA,NaN,NA,1647.3000001907349,left,0,NA,NA,NA,NA,NA
qJHjdvl9,3fk4g712o0duz4m7qhicsa7sfszsso,3i0btbyza1yth1cy7nwjpal26070y8,qJHjdvl9,2020-0188,2021-10-31,19:09:16,20:15:23,NA,incomplete,false,NA,NA,true,2,5,NA,NA,NA,right,n_l_022.jpg,gray,purple,NA,NA,NA,NA,NA,NA,NA,NA,NA,NaN,NA,2054.800000190735,left,0,NA,NA,NA,NA,NA
qJHjdvl9,3fk4g712o0duz4m7qhicsa7sfszsso,3i0btbyza1yth1cy7nwjpal26070y8,qJHjdvl9,2020-0188,2021-10-31,19:09:16,20:15:23,NA,incomplete,false,NA,NA,true,2,6,NA,NA,NA,left,m_s_109.jpg,blue,gray,NA,NA,NA,NA,NA,NA,NA,NA,NA,NaN,NA,1335.5999999046326,left,1,NA,NA,NA,NA,NA
qJHjdvl9,3fk4g712o0duz4m7qhicsa7sfszsso,3i0btbyza1yth1cy7nwjpal26070y8,qJHjdvl9,2020-0188,2021-10-31,19:09:16,20:15:23,NA,incomplete,false,NA,NA,true,2,7,NA,NA,NA,left,n_s_116.jpg,gray,blue,NA,NA,NA,NA,NA,NA,NA,NA,NA,NaN,NA,1399.2000000476837,left,1,NA,NA,NA,NA,NA
qJHjdvl9,3fk4g712o0duz4m7qhicsa7sfszsso,3i0btbyza1yth1cy7nwjpal26070y8,qJHjdvl9,2020-0188,2021-10-31,19:09:16,20:15:23,NA,incomplete,false,NA,NA,true,2,8,NA,NA,NA,left,m_l_066.jpg,blue,gray,NA,NA,NA,NA,NA,NA,NA,NA,NA,NaN,NA,2655.399999856949,right,0,NA,NA,NA,NA,NA
qJHjdvl9,3fk4g712o0duz4m7qhicsa7sfszsso,3i0btbyza1yth1cy7nwjpal26070y8,qJHjdvl9,2020-0188,2021-10-31,19:09:16,20:15:23,NA,incomplete,false,NA,NA,true,2,9,NA,NA,NA,left,n_l_027.jpg,green,yellow,NA,NA,NA,NA,NA,NA,NA,NA,NA,NaN,NA,1423.3000001907349,left,1,NA,NA,NA,NA,NA
qJHjdvl9,3fk4g712o0duz4m7qhicsa7sfszsso,3i0btbyza1yth1cy7nwjpal26070y8,qJHjdvl9,2020-0188,2021-10-31,19:09:16,20:15:23,NA,incomplete,false,NA,NA,true,2,10,NA,NA,NA,right,n_l_103.jpg,purple,orange,NA,NA,NA,NA,NA,NA,NA,NA,NA,NaN,NA,1296,left,0,NA,NA,NA,NA,NA
qJHjdvl9,3fk4g712o0duz4m7qhicsa7sfszsso,3i0btbyza1yth1cy7nwjpal26070y8,qJHjdvl9,2020-0188,2021-10-31,19:09:16,20:15:23,NA,incomplete,false,NA,NA,true,2,11,NA,NA,NA,left,n_s_117.jpg,orange,purple,NA,NA,NA,NA,NA,NA,NA,NA,NA,NaN,NA,1438.7000000476837,left,1,NA,NA,NA,NA,NA
qJHjdvl9,3fk4g712o0duz4m7qhicsa7sfszsso,3i0btbyza1yth1cy7nwjpal26070y8,qJHjdvl9,2020-0188,2021-10-31,19:09:16,20:15:23,NA,incomplete,false,NA,NA,true,2,12,NA,NA,NA,left,m_s_077.jpg,gray,blue,NA,NA,NA,NA,NA,NA,NA,NA,NA,NaN,NA,1615.1999998092651,right,0,NA,NA,NA,NA,NA
qJHjdvl9,3fk4g712o0duz4m7qhicsa7sfszsso,3i0btbyza1yth1cy7nwjpal26070y8,qJHjdvl9,2020-0188,2021-10-31,19:09:16,20:15:23,NA,incomplete,false,NA,NA,true,2,13,NA,NA,NA,left,m_s_105.jpg,yellow,green,NA,NA,NA,NA,NA,NA,NA,NA,NA,NaN,NA,2079.0999999046326,right,0,NA,NA,NA,NA,NA
qJHjdvl9,3fk4g712o0duz4m7qhicsa7sfszsso,3i0btbyza1yth1cy7nwjpal26070y8,qJHjdvl9,2020-0188,2021-10-31,19:09:16,20:15:23,NA,incomplete,false,NA,NA,true,2,14,NA,NA,NA,right,m_s_028.jpg,green,yellow,NA,NA,NA,NA,NA,NA,NA,NA,NA,NaN,NA,2703.5,right,1,NA,NA,NA,NA,NA
qJHjdvl9,3fk4g712o0duz4m7qhicsa7sfszsso,3i0btbyza1yth1cy7nwjpal26070y8,qJHjdvl9,2020-0188,2021-10-31,19:09:16,20:15:23,NA,incomplete,false,NA,NA,true,2,15,NA,NA,NA,left,m_l_107.jpg,green,yellow,NA,NA,NA,NA,NA,NA,NA,NA,NA,NaN,NA,1295.1000001430511,left,1,NA,NA,NA,NA,NA
qJHjdvl9,3fk4g712o0duz4m7qhicsa7sfszsso,3i0btbyza1yth1cy7nwjpal26070y8,qJHjdvl9,2020-0188,2021-10-31,19:09:16,20:15:23,NA,incomplete,false,NA,NA,true,2,16,NA,NA,NA,left,n_l_005.jpg,green,yellow,NA,NA,NA,NA,NA,NA,NA,NA,NA,NaN,NA,1791.3999998569489,left,1,NA,NA,NA,NA,NA
qJHjdvl9,3fk4g712o0duz4m7qhicsa7sfszsso,3i0btbyza1yth1cy7nwjpal26070y8,qJHjdvl9,2020-0188,2021-10-31,19:09:16,20:15:23,NA,incomplete,false,NA,NA,true,2,17,NA,NA,NA,right,n_l_031.jpg,purple,orange,NA,NA,NA,NA,NA,NA,NA,NA,NA,NaN,NA,3158.600000143051,right,1,NA,NA,NA,NA,NA
qJHjdvl9,3fk4g712o0duz4m7qhicsa7sfszsso,3i0btbyza1yth1cy7nwjpal26070y8,qJHjdvl9,2020-0188,2021-10-31,19:09:16,20:15:23,NA,incomplete,false,NA,NA,true,2,18,NA,NA,NA,right,m_l_081.jpg,blue,gray,NA,NA,NA,NA,NA,NA,NA,NA,NA,NaN,NA,1638.9000000953674,left,0,NA,NA,NA,NA,NA
qJHjdvl9,3fk4g712o0duz4m7qhicsa7sfszsso,3i0btbyza1yth1cy7nwjpal26070y8,qJHjdvl9,2020-0188,2021-10-31,19:09:16,20:15:23,NA,incomplete,false,NA,NA,true,2,19,NA,NA,NA,left,n_s_011.jpg,purple,gray,NA,NA,NA,NA,NA,NA,NA,NA,NA,NaN,NA,1222.9000000953674,left,1,NA,NA,NA,NA,NA
qJHjdvl9,3fk4g712o0duz4m7qhicsa7sfszsso,3i0btbyza1yth1cy7nwjpal26070y8,qJHjdvl9,2020-0188,2021-10-31,19:09:16,20:15:23,NA,incomplete,false,NA,NA,true,2,20,NA,NA,NA,right,m_s_048.jpg,orange,purple,NA,NA,NA,NA,NA,NA,NA,NA,NA,NaN,NA,1335.5,right,1,NA,NA,NA,NA,NA
qJHjdvl9,3fk4g712o0duz4m7qhicsa7sfszsso,3i0btbyza1yth1cy7nwjpal26070y8,qJHjdvl9,2020-0188,2021-10-31,19:09:16,20:15:23,NA,incomplete,false,NA,NA,true,2,21,NA,NA,NA,right,m_s_069.jpg,yellow,blue,NA,NA,NA,NA,NA,NA,NA,NA,NA,NaN,NA,1734.7000000476837,left,0,NA,NA,NA,NA,NA
qJHjdvl9,3fk4g712o0duz4m7qhicsa7sfszsso,3i0btbyza1yth1cy7nwjpal26070y8,qJHjdvl9,2020-0188,2021-10-31,19:09:16,20:15:23,NA,incomplete,false,NA,true,NA,2,0,NA,NA,NA,right,NA,NA,NA,absent,NA,NA,n_s_080.jpg,blue,m_l_066.jpg,blue,within,NA,NaN,NA,NA,NA,NA,left,3869.9000000953674,0,2,1903.5
qJHjdvl9,3fk4g712o0duz4m7qhicsa7sfszsso,3i0btbyza1yth1cy7nwjpal26070y8,qJHjdvl9,2020-0188,2021-10-31,19:09:16,20:15:23,NA,incomplete,false,NA,true,NA,2,1,NA,NA,NA,left,NA,NA,NA,absent,NA,NA,n_s_059.jpg,gray,n_s_116.jpg,gray,within,NA,NaN,NA,NA,NA,NA,right,2039.2999999523163,0,2,1519.1000001430511
qJHjdvl9,3fk4g712o0duz4m7qhicsa7sfszsso,3i0btbyza1yth1cy7nwjpal26070y8,qJHjdvl9,2020-0188,2021-10-31,19:09:16,20:15:23,NA,incomplete,false,NA,true,NA,2,2,NA,NA,NA,left,NA,NA,NA,absent,NA,NA,m_s_109.jpg,blue,m_s_105.jpg,yellow,between,NA,NaN,NA,NA,NA,NA,left,2127.0999999046326,1,1,1622.2999999523163
qJHjdvl9,3fk4g712o0duz4m7qhicsa7sfszsso,3i0btbyza1yth1cy7nwjpal26070y8,qJHjdvl9,2020-0188,2021-10-31,19:09:16,20:15:23,NA,incomplete,false,NA,true,NA,2,3,NA,NA,NA,right,NA,NA,NA,absent,NA,NA,m_s_069.jpg,blue,m_l_081.jpg,gray,between,NA,NaN,NA,NA,NA,NA,right,2255.2000000476837,1,2,1550.5
qJHjdvl9,3fk4g712o0duz4m7qhicsa7sfszsso,3i0btbyza1yth1cy7nwjpal26070y8,qJHjdvl9,2020-0188,2021-10-31,19:09:16,20:15:23,NA,incomplete,false,NA,true,NA,2,4,NA,NA,NA,right,NA,NA,NA,absent,NA,NA,n_l_103.jpg,orange,n_s_117.jpg,orange,within,NA,NaN,NA,NA,NA,NA,right,3622.5999999046326,1,2,1063.4000000953674
qJHjdvl9,3fk4g712o0duz4m7qhicsa7sfszsso,3i0btbyza1yth1cy7nwjpal26070y8,qJHjdvl9,2020-0188,2021-10-31,19:09:16,20:15:23,NA,incomplete,false,NA,true,NA,2,5,NA,NA,NA,left,NA,NA,NA,absent,NA,NA,n_l_035.jpg,yellow,n_l_005.jpg,green,between,NA,NaN,NA,NA,NA,NA,left,1583.2999999523163,1,2,863.4000000953674
qJHjdvl9,3fk4g712o0duz4m7qhicsa7sfszsso,3i0btbyza1yth1cy7nwjpal26070y8,qJHjdvl9,2020-0188,2021-10-31,19:09:16,20:15:23,NA,incomplete,false,NA,true,NA,2,6,NA,NA,NA,left,NA,NA,NA,absent,NA,NA,m_l_107.jpg,green,n_l_027.jpg,green,within,NA,NaN,NA,NA,NA,NA,left,2975.399999856949,1,1,935.2999999523163
qJHjdvl9,3fk4g712o0duz4m7qhicsa7sfszsso,3i0btbyza1yth1cy7nwjpal26070y8,qJHjdvl9,2020-0188,2021-10-31,19:09:16,20:15:23,NA,incomplete,false,NA,true,NA,2,7,NA,NA,NA,right,NA,NA,NA,absent,NA,NA,m_s_048.jpg,purple,m_s_115.jpg,purple,within,NA,NaN,NA,NA,NA,NA,right,2448,1,1,1087.8999998569489
qJHjdvl9,3fk4g712o0duz4m7qhicsa7sfszsso,3i0btbyza1yth1cy7nwjpal26070y8,qJHjdvl9,2020-0188,2021-10-31,19:09:16,20:15:23,NA,incomplete,false,NA,true,NA,2,8,NA,NA,NA,left,NA,NA,NA,absent,NA,NA,n_l_031.jpg,orange,n_l_022.jpg,purple,between,NA,NaN,NA,NA,NA,NA,left,1791.7000000476837,1,2,2055
qJHjdvl9,3fk4g712o0duz4m7qhicsa7sfszsso,3i0btbyza1yth1cy7nwjpal26070y8,qJHjdvl9,2020-0188,2021-10-31,19:09:16,20:15:23,NA,incomplete,false,NA,true,NA,2,9,NA,NA,NA,right,NA,NA,NA,absent,NA,NA,m_s_077.jpg,gray,n_s_011.jpg,purple,between,NA,NaN,NA,NA,NA,NA,right,2614.800000190735,1,2,1150.8000001907349
qJHjdvl9,3fk4g712o0duz4m7qhicsa7sfszsso,3i0btbyza1yth1cy7nwjpal26070y8,qJHjdvl9,2020-0188,2021-10-31,19:09:16,20:15:23,NA,incomplete,false,NA,true,NA,2,10,NA,NA,NA,right,NA,NA,NA,absent,NA,NA,m_s_028.jpg,yellow,n_l_018.jpg,yellow,within,NA,NaN,NA,NA,NA,NA,right,1431.3000001907349,1,2,815.2000000476837
qJHjdvl9,3fk4g712o0duz4m7qhicsa7sfszsso,3i0btbyza1yth1cy7nwjpal26070y8,qJHjdvl9,2020-0188,2021-10-31,19:09:16,20:15:23,NA,incomplete,false,true,NA,NA,3,0,NA,brown,n_s_095.jpg,NA,NA,NA,NA,NA,unpleasant,pleasant,NA,NA,NA,NA,NA,right,2073,true,NA,NA,NA,NA,NA,NA,NA,NA
qJHjdvl9,3fk4g712o0duz4m7qhicsa7sfszsso,3i0btbyza1yth1cy7nwjpal26070y8,qJHjdvl9,2020-0188,2021-10-31,19:09:16,20:15:23,NA,incomplete,false,true,NA,NA,3,1,NA,brown,m_s_056.jpg,NA,NA,NA,NA,NA,pleasant,unpleasant,NA,NA,NA,NA,NA,left,1476,true,NA,NA,NA,NA,NA,NA,NA,NA
qJHjdvl9,3fk4g712o0duz4m7qhicsa7sfszsso,3i0btbyza1yth1cy7nwjpal26070y8,qJHjdvl9,2020-0188,2021-10-31,19:09:16,20:15:23,NA,incomplete,false,true,NA,NA,3,2,NA,brown,m_s_079.jpg,NA,NA,NA,NA,NA,pleasant,unpleasant,NA,NA,NA,NA,NA,left,1128.20000004768,true,NA,NA,NA,NA,NA,NA,NA,NA
qJHjdvl9,3fk4g712o0duz4m7qhicsa7sfszsso,3i0btbyza1yth1cy7nwjpal26070y8,qJHjdvl9,2020-0188,2021-10-31,19:09:16,20:15:23,NA,incomplete,false,true,NA,NA,3,3,NA,brown,m_s_066.jpg,NA,NA,NA,NA,NA,pleasant,unpleasant,NA,NA,NA,NA,NA,right,1357,true,NA,NA,NA,NA,NA,NA,NA,NA
qJHjdvl9,3fk4g712o0duz4m7qhicsa7sfszsso,3i0btbyza1yth1cy7nwjpal26070y8,qJHjdvl9,2020-0188,2021-10-31,19:09:16,20:15:23,NA,incomplete,false,true,NA,NA,3,4,NA,brown,m_s_005.jpg,NA,NA,NA,NA,NA,unpleasant,pleasant,NA,NA,NA,NA,NA,left,1552.20000004768,true,NA,NA,NA,NA,NA,NA,NA,NA
qJHjdvl9,3fk4g712o0duz4m7qhicsa7sfszsso,3i0btbyza1yth1cy7nwjpal26070y8,qJHjdvl9,2020-0188,2021-10-31,19:09:16,20:15:23,NA,incomplete,false,true,NA,NA,3,5,NA,brown,n_l_032.jpg,NA,NA,NA,NA,NA,pleasant,unpleasant,NA,NA,NA,NA,NA,right,1053.29999995232,true,NA,NA,NA,NA,NA,NA,NA,NA
qJHjdvl9,3fk4g712o0duz4m7qhicsa7sfszsso,3i0btbyza1yth1cy7nwjpal26070y8,qJHjdvl9,2020-0188,2021-10-31,19:09:16,20:15:23,NA,incomplete,false,true,NA,NA,3,6,NA,black,m_s_021.jpg,NA,NA,NA,NA,NA,unpleasant,pleasant,NA,NA,NA,NA,NA,left,1096.39999985695,true,NA,NA,NA,NA,NA,NA,NA,NA
qJHjdvl9,3fk4g712o0duz4m7qhicsa7sfszsso,3i0btbyza1yth1cy7nwjpal26070y8,qJHjdvl9,2020-0188,2021-10-31,19:09:16,20:15:23,NA,incomplete,false,true,NA,NA,3,7,NA,black,m_l_076.jpg,NA,NA,NA,NA,NA,unpleasant,pleasant,NA,NA,NA,NA,NA,left,869,true,NA,NA,NA,NA,NA,NA,NA,NA
qJHjdvl9,3fk4g712o0duz4m7qhicsa7sfszsso,3i0btbyza1yth1cy7nwjpal26070y8,qJHjdvl9,2020-0188,2021-10-31,19:09:16,20:15:23,NA,incomplete,false,true,NA,NA,3,8,NA,black,m_l_112.jpg,NA,NA,NA,NA,NA,unpleasant,pleasant,NA,NA,NA,NA,NA,right,1129.89999985695,true,NA,NA,NA,NA,NA,NA,NA,NA
qJHjdvl9,3fk4g712o0duz4m7qhicsa7sfszsso,3i0btbyza1yth1cy7nwjpal26070y8,qJHjdvl9,2020-0188,2021-10-31,19:09:16,20:15:23,NA,incomplete,false,true,NA,NA,3,9,NA,black,n_s_042.jpg,NA,NA,NA,NA,NA,unpleasant,pleasant,NA,NA,NA,NA,NA,left,901.399999856949,true,NA,NA,NA,NA,NA,NA,NA,NA
qJHjdvl9,3fk4g712o0duz4m7qhicsa7sfszsso,3i0btbyza1yth1cy7nwjpal26070y8,qJHjdvl9,2020-0188,2021-10-31,19:09:16,20:15:23,NA,incomplete,false,true,NA,NA,3,10,NA,black,n_l_069.jpg,NA,NA,NA,NA,NA,unpleasant,pleasant,NA,NA,NA,NA,NA,left,808.799999952316,true,NA,NA,NA,NA,NA,NA,NA,NA
qJHjdvl9,3fk4g712o0duz4m7qhicsa7sfszsso,3i0btbyza1yth1cy7nwjpal26070y8,qJHjdvl9,2020-0188,2021-10-31,19:09:16,20:15:23,NA,incomplete,false,true,NA,NA,3,11,NA,black,n_s_083.jpg,NA,NA,NA,NA,NA,unpleasant,pleasant,NA,NA,NA,NA,NA,left,951,true,NA,NA,NA,NA,NA,NA,NA,NA
qJHjdvl9,3fk4g712o0duz4m7qhicsa7sfszsso,3i0btbyza1yth1cy7nwjpal26070y8,qJHjdvl9,2020-0188,2021-10-31,19:09:16,20:15:23,NA,incomplete,false,true,NA,NA,3,12,NA,red,m_s_002.jpg,NA,NA,NA,NA,NA,unpleasant,pleasant,NA,NA,NA,NA,NA,left,1017.5,true,NA,NA,NA,NA,NA,NA,NA,NA
qJHjdvl9,3fk4g712o0duz4m7qhicsa7sfszsso,3i0btbyza1yth1cy7nwjpal26070y8,qJHjdvl9,2020-0188,2021-10-31,19:09:16,20:15:23,NA,incomplete,false,true,NA,NA,3,13,NA,red,m_l_077.jpg,NA,NA,NA,NA,NA,unpleasant,pleasant,NA,NA,NA,NA,NA,right,948.700000047684,true,NA,NA,NA,NA,NA,NA,NA,NA
qJHjdvl9,3fk4g712o0duz4m7qhicsa7sfszsso,3i0btbyza1yth1cy7nwjpal26070y8,qJHjdvl9,2020-0188,2021-10-31,19:09:16,20:15:23,NA,incomplete,false,true,NA,NA,3,14,NA,red,n_s_007.jpg,NA,NA,NA,NA,NA,pleasant,unpleasant,NA,NA,NA,NA,NA,right,1153,true,NA,NA,NA,NA,NA,NA,NA,NA
qJHjdvl9,3fk4g712o0duz4m7qhicsa7sfszsso,3i0btbyza1yth1cy7nwjpal26070y8,qJHjdvl9,2020-0188,2021-10-31,19:09:16,20:15:23,NA,incomplete,false,true,NA,NA,3,15,NA,red,m_l_102.jpg,NA,NA,NA,NA,NA,pleasant,unpleasant,NA,NA,NA,NA,NA,left,1310.20000004768,true,NA,NA,NA,NA,NA,NA,NA,NA
qJHjdvl9,3fk4g712o0duz4m7qhicsa7sfszsso,3i0btbyza1yth1cy7nwjpal26070y8,qJHjdvl9,2020-0188,2021-10-31,19:09:16,20:15:23,NA,incomplete,false,true,NA,NA,3,16,NA,red,n_l_044.jpg,NA,NA,NA,NA,NA,pleasant,unpleasant,NA,NA,NA,NA,NA,left,931.100000143051,true,NA,NA,NA,NA,NA,NA,NA,NA
qJHjdvl9,3fk4g712o0duz4m7qhicsa7sfszsso,3i0btbyza1yth1cy7nwjpal26070y8,qJHjdvl9,2020-0188,2021-10-31,19:09:16,20:15:23,NA,incomplete,false,true,NA,NA,3,17,NA,red,n_s_003.jpg,NA,NA,NA,NA,NA,unpleasant,pleasant,NA,NA,NA,NA,NA,left,1441.70000004768,true,NA,NA,NA,NA,NA,NA,NA,NA
qJHjdvl9,3fk4g712o0duz4m7qhicsa7sfszsso,3i0btbyza1yth1cy7nwjpal26070y8,qJHjdvl9,2020-0188,2021-10-31,19:09:16,20:15:23,NA,incomplete,false,true,NA,NA,3,18,NA,green,m_s_093.jpg,NA,NA,NA,NA,NA,unpleasant,pleasant,NA,NA,NA,NA,NA,left,1019.5,true,NA,NA,NA,NA,NA,NA,NA,NA
qJHjdvl9,3fk4g712o0duz4m7qhicsa7sfszsso,3i0btbyza1yth1cy7nwjpal26070y8,qJHjdvl9,2020-0188,2021-10-31,19:09:16,20:15:23,NA,incomplete,false,true,NA,NA,3,19,NA,green,m_l_059.jpg,NA,NA,NA,NA,NA,pleasant,unpleasant,NA,NA,NA,NA,NA,right,1255.20000004768,true,NA,NA,NA,NA,NA,NA,NA,NA
qJHjdvl9,3fk4g712o0duz4m7qhicsa7sfszsso,3i0btbyza1yth1cy7nwjpal26070y8,qJHjdvl9,2020-0188,2021-10-31,19:09:16,20:15:23,NA,incomplete,false,true,NA,NA,3,20,NA,green,n_l_102.jpg,NA,NA,NA,NA,NA,unpleasant,pleasant,NA,NA,NA,NA,NA,left,972.200000047684,true,NA,NA,NA,NA,NA,NA,NA,NA
qJHjdvl9,3fk4g712o0duz4m7qhicsa7sfszsso,3i0btbyza1yth1cy7nwjpal26070y8,qJHjdvl9,2020-0188,2021-10-31,19:09:16,20:15:23,NA,incomplete,false,true,NA,NA,3,21,NA,green,n_l_081.jpg,NA,NA,NA,NA,NA,unpleasant,pleasant,NA,NA,NA,NA,NA,right,1062.09999990463,true,NA,NA,NA,NA,NA,NA,NA,NA
qJHjdvl9,3fk4g712o0duz4m7qhicsa7sfszsso,3i0btbyza1yth1cy7nwjpal26070y8,qJHjdvl9,2020-0188,2021-10-31,19:09:16,20:15:23,NA,incomplete,false,true,NA,NA,3,22,NA,green,m_s_023.jpg,NA,NA,NA,NA,NA,unpleasant,pleasant,NA,NA,NA,NA,NA,left,1026.59999990463,true,NA,NA,NA,NA,NA,NA,NA,NA
qJHjdvl9,3fk4g712o0duz4m7qhicsa7sfszsso,3i0btbyza1yth1cy7nwjpal26070y8,qJHjdvl9,2020-0188,2021-10-31,19:09:16,20:15:23,NA,incomplete,false,true,NA,NA,3,23,NA,green,n_l_070.jpg,NA,NA,NA,NA,NA,unpleasant,pleasant,NA,NA,NA,NA,NA,right,1025,true,NA,NA,NA,NA,NA,NA,NA,NA
qJHjdvl9,3fk4g712o0duz4m7qhicsa7sfszsso,3i0btbyza1yth1cy7nwjpal26070y8,qJHjdvl9,2020-0188,2021-10-31,19:09:16,20:15:23,NA,incomplete,false,true,NA,NA,3,24,NA,orange,m_l_099.jpg,NA,NA,NA,NA,NA,unpleasant,pleasant,NA,NA,NA,NA,NA,right,1300.29999995232,true,NA,NA,NA,NA,NA,NA,NA,NA
qJHjdvl9,3fk4g712o0duz4m7qhicsa7sfszsso,3i0btbyza1yth1cy7nwjpal26070y8,qJHjdvl9,2020-0188,2021-10-31,19:09:16,20:15:23,NA,incomplete,false,true,NA,NA,3,25,NA,orange,m_s_058.jpg,NA,NA,NA,NA,NA,pleasant,unpleasant,NA,NA,NA,NA,NA,left,1255.40000009537,true,NA,NA,NA,NA,NA,NA,NA,NA
qJHjdvl9,3fk4g712o0duz4m7qhicsa7sfszsso,3i0btbyza1yth1cy7nwjpal26070y8,qJHjdvl9,2020-0188,2021-10-31,19:09:16,20:15:23,NA,incomplete,false,true,NA,NA,3,26,NA,orange,m_l_073.jpg,NA,NA,NA,NA,NA,unpleasant,pleasant,NA,NA,NA,NA,NA,right,1203.89999985695,true,NA,NA,NA,NA,NA,NA,NA,NA
qJHjdvl9,3fk4g712o0duz4m7qhicsa7sfszsso,3i0btbyza1yth1cy7nwjpal26070y8,qJHjdvl9,2020-0188,2021-10-31,19:09:16,20:15:23,NA,incomplete,false,true,NA,NA,3,27,NA,orange,n_l_059.jpg,NA,NA,NA,NA,NA,unpleasant,pleasant,NA,NA,NA,NA,NA,left,1464.19999980927,true,NA,NA,NA,NA,NA,NA,NA,NA
qJHjdvl9,3fk4g712o0duz4m7qhicsa7sfszsso,3i0btbyza1yth1cy7nwjpal26070y8,qJHjdvl9,2020-0188,2021-10-31,19:09:16,20:15:23,NA,incomplete,false,true,NA,NA,3,28,NA,orange,m_s_108.jpg,NA,NA,NA,NA,NA,unpleasant,pleasant,NA,NA,NA,NA,NA,right,1963.70000004768,true,NA,NA,NA,NA,NA,NA,NA,NA
qJHjdvl9,3fk4g712o0duz4m7qhicsa7sfszsso,3i0btbyza1yth1cy7nwjpal26070y8,qJHjdvl9,2020-0188,2021-10-31,19:09:16,20:15:23,NA,incomplete,false,true,NA,NA,3,29,NA,orange,m_l_103.jpg,NA,NA,NA,NA,NA,unpleasant,pleasant,NA,NA,NA,NA,NA,right,1312.70000004768,true,NA,NA,NA,NA,NA,NA,NA,NA
qJHjdvl9,3fk4g712o0duz4m7qhicsa7sfszsso,3i0btbyza1yth1cy7nwjpal26070y8,qJHjdvl9,2020-0188,2021-10-31,19:09:16,20:15:23,NA,incomplete,false,true,NA,NA,3,30,NA,yellow,n_s_053.jpg,NA,NA,NA,NA,NA,unpleasant,pleasant,NA,NA,NA,NA,NA,left,1012.90000009537,true,NA,NA,NA,NA,NA,NA,NA,NA
qJHjdvl9,3fk4g712o0duz4m7qhicsa7sfszsso,3i0btbyza1yth1cy7nwjpal26070y8,qJHjdvl9,2020-0188,2021-10-31,19:09:16,20:15:23,NA,incomplete,false,true,NA,NA,3,31,NA,yellow,n_s_054.jpg,NA,NA,NA,NA,NA,pleasant,unpleasant,NA,NA,NA,NA,NA,right,1168.09999990463,true,NA,NA,NA,NA,NA,NA,NA,NA
qJHjdvl9,3fk4g712o0duz4m7qhicsa7sfszsso,3i0btbyza1yth1cy7nwjpal26070y8,qJHjdvl9,2020-0188,2021-10-31,19:09:16,20:15:23,NA,incomplete,false,true,NA,NA,3,32,NA,yellow,n_l_060.jpg,NA,NA,NA,NA,NA,pleasant,unpleasant,NA,NA,NA,NA,NA,left,941.899999856949,true,NA,NA,NA,NA,NA,NA,NA,NA
qJHjdvl9,3fk4g712o0duz4m7qhicsa7sfszsso,3i0btbyza1yth1cy7nwjpal26070y8,qJHjdvl9,2020-0188,2021-10-31,19:09:16,20:15:23,NA,incomplete,false,true,NA,NA,3,33,NA,yellow,n_s_081.jpg,NA,NA,NA,NA,NA,unpleasant,pleasant,NA,NA,NA,NA,NA,left,1240.39999985695,true,NA,NA,NA,NA,NA,NA,NA,NA
qJHjdvl9,3fk4g712o0duz4m7qhicsa7sfszsso,3i0btbyza1yth1cy7nwjpal26070y8,qJHjdvl9,2020-0188,2021-10-31,19:09:16,20:15:23,NA,incomplete,false,true,NA,NA,3,34,NA,yellow,n_l_089.jpg,NA,NA,NA,NA,NA,unpleasant,pleasant,NA,NA,NA,NA,NA,left,1123.09999990463,true,NA,NA,NA,NA,NA,NA,NA,NA
qJHjdvl9,3fk4g712o0duz4m7qhicsa7sfszsso,3i0btbyza1yth1cy7nwjpal26070y8,qJHjdvl9,2020-0188,2021-10-31,19:09:16,20:15:23,NA,incomplete,false,true,NA,NA,3,35,NA,yellow,m_s_003.jpg,NA,NA,NA,NA,NA,unpleasant,pleasant,NA,NA,NA,NA,NA,left,992.5,true,NA,NA,NA,NA,NA,NA,NA,NA
qJHjdvl9,3fk4g712o0duz4m7qhicsa7sfszsso,3i0btbyza1yth1cy7nwjpal26070y8,qJHjdvl9,2020-0188,2021-10-31,19:09:16,20:15:23,NA,incomplete,false,NA,NA,true,3,0,NA,NA,NA,left,m_l_059.jpg,green,red,NA,NA,NA,NA,NA,NA,NA,NA,NA,NaN,NA,2335.699999809265,left,1,NA,NA,NA,NA,NA
qJHjdvl9,3fk4g712o0duz4m7qhicsa7sfszsso,3i0btbyza1yth1cy7nwjpal26070y8,qJHjdvl9,2020-0188,2021-10-31,19:09:16,20:15:23,NA,incomplete,false,NA,NA,true,3,1,NA,NA,NA,left,n_l_032.jpg,brown,black,NA,NA,NA,NA,NA,NA,NA,NA,NA,NaN,NA,1638.7999999523163,left,1,NA,NA,NA,NA,NA
qJHjdvl9,3fk4g712o0duz4m7qhicsa7sfszsso,3i0btbyza1yth1cy7nwjpal26070y8,qJHjdvl9,2020-0188,2021-10-31,19:09:16,20:15:23,NA,incomplete,false,NA,NA,true,3,2,NA,NA,NA,left,n_s_054.jpg,yellow,orange,NA,NA,NA,NA,NA,NA,NA,NA,NA,NaN,NA,1560,left,1,NA,NA,NA,NA,NA
qJHjdvl9,3fk4g712o0duz4m7qhicsa7sfszsso,3i0btbyza1yth1cy7nwjpal26070y8,qJHjdvl9,2020-0188,2021-10-31,19:09:16,20:15:23,NA,incomplete,false,NA,NA,true,3,3,NA,NA,NA,right,m_s_058.jpg,green,orange,NA,NA,NA,NA,NA,NA,NA,NA,NA,NaN,NA,1751.0999999046326,left,0,NA,NA,NA,NA,NA
qJHjdvl9,3fk4g712o0duz4m7qhicsa7sfszsso,3i0btbyza1yth1cy7nwjpal26070y8,qJHjdvl9,2020-0188,2021-10-31,19:09:16,20:15:23,NA,incomplete,false,NA,NA,true,3,4,NA,NA,NA,right,m_s_005.jpg,black,brown,NA,NA,NA,NA,NA,NA,NA,NA,NA,NaN,NA,1463.5,left,0,NA,NA,NA,NA,NA
qJHjdvl9,3fk4g712o0duz4m7qhicsa7sfszsso,3i0btbyza1yth1cy7nwjpal26070y8,qJHjdvl9,2020-0188,2021-10-31,19:09:16,20:15:23,NA,incomplete,false,NA,NA,true,3,5,NA,NA,NA,right,n_l_044.jpg,green,red,NA,NA,NA,NA,NA,NA,NA,NA,NA,NaN,NA,1270.5999999046326,right,1,NA,NA,NA,NA,NA
qJHjdvl9,3fk4g712o0duz4m7qhicsa7sfszsso,3i0btbyza1yth1cy7nwjpal26070y8,qJHjdvl9,2020-0188,2021-10-31,19:09:16,20:15:23,NA,incomplete,false,NA,NA,true,3,6,NA,NA,NA,left,m_s_003.jpg,yellow,orange,NA,NA,NA,NA,NA,NA,NA,NA,NA,NaN,NA,1623.2000000476837,left,1,NA,NA,NA,NA,NA
qJHjdvl9,3fk4g712o0duz4m7qhicsa7sfszsso,3i0btbyza1yth1cy7nwjpal26070y8,qJHjdvl9,2020-0188,2021-10-31,19:09:16,20:15:23,NA,incomplete,false,NA,NA,true,3,7,NA,NA,NA,left,m_l_103.jpg,orange,green,NA,NA,NA,NA,NA,NA,NA,NA,NA,NaN,NA,2694.2999999523163,left,1,NA,NA,NA,NA,NA
qJHjdvl9,3fk4g712o0duz4m7qhicsa7sfszsso,3i0btbyza1yth1cy7nwjpal26070y8,qJHjdvl9,2020-0188,2021-10-31,19:09:16,20:15:23,NA,incomplete,false,NA,NA,true,3,8,NA,NA,NA,right,n_l_102.jpg,red,green,NA,NA,NA,NA,NA,NA,NA,NA,NA,NaN,NA,1198.7999999523163,left,0,NA,NA,NA,NA,NA
qJHjdvl9,3fk4g712o0duz4m7qhicsa7sfszsso,3i0btbyza1yth1cy7nwjpal26070y8,qJHjdvl9,2020-0188,2021-10-31,19:09:16,20:15:23,NA,incomplete,false,NA,NA,true,3,9,NA,NA,NA,left,n_s_007.jpg,red,black,NA,NA,NA,NA,NA,NA,NA,NA,NA,NaN,NA,1344.2000000476837,right,0,NA,NA,NA,NA,NA
qJHjdvl9,3fk4g712o0duz4m7qhicsa7sfszsso,3i0btbyza1yth1cy7nwjpal26070y8,qJHjdvl9,2020-0188,2021-10-31,19:09:16,20:15:23,NA,incomplete,false,NA,NA,true,3,10,NA,NA,NA,right,m_l_076.jpg,red,black,NA,NA,NA,NA,NA,NA,NA,NA,NA,NaN,NA,1295.2999999523163,right,1,NA,NA,NA,NA,NA
qJHjdvl9,3fk4g712o0duz4m7qhicsa7sfszsso,3i0btbyza1yth1cy7nwjpal26070y8,qJHjdvl9,2020-0188,2021-10-31,19:09:16,20:15:23,NA,incomplete,false,NA,NA,true,3,11,NA,NA,NA,right,n_s_083.jpg,red,black,NA,NA,NA,NA,NA,NA,NA,NA,NA,NaN,NA,1871.0999999046326,right,1,NA,NA,NA,NA,NA
qJHjdvl9,3fk4g712o0duz4m7qhicsa7sfszsso,3i0btbyza1yth1cy7nwjpal26070y8,qJHjdvl9,2020-0188,2021-10-31,19:09:16,20:15:23,NA,incomplete,false,NA,NA,true,3,12,NA,NA,NA,right,m_s_108.jpg,yellow,orange,NA,NA,NA,NA,NA,NA,NA,NA,NA,NaN,NA,1231,left,0,NA,NA,NA,NA,NA
qJHjdvl9,3fk4g712o0duz4m7qhicsa7sfszsso,3i0btbyza1yth1cy7nwjpal26070y8,qJHjdvl9,2020-0188,2021-10-31,19:09:16,20:15:23,NA,incomplete,false,NA,NA,true,3,13,NA,NA,NA,right,m_s_056.jpg,black,brown,NA,NA,NA,NA,NA,NA,NA,NA,NA,NaN,NA,1239.7000000476837,right,1,NA,NA,NA,NA,NA
qJHjdvl9,3fk4g712o0duz4m7qhicsa7sfszsso,3i0btbyza1yth1cy7nwjpal26070y8,qJHjdvl9,2020-0188,2021-10-31,19:09:16,20:15:23,NA,incomplete,false,NA,NA,true,3,14,NA,NA,NA,right,m_l_112.jpg,brown,black,NA,NA,NA,NA,NA,NA,NA,NA,NA,NaN,NA,1110.7999999523163,right,1,NA,NA,NA,NA,NA
qJHjdvl9,3fk4g712o0duz4m7qhicsa7sfszsso,3i0btbyza1yth1cy7nwjpal26070y8,qJHjdvl9,2020-0188,2021-10-31,19:09:16,20:15:23,NA,incomplete,false,NA,NA,true,3,15,NA,NA,NA,right,n_l_060.jpg,orange,yellow,NA,NA,NA,NA,NA,NA,NA,NA,NA,NaN,NA,3334.7000000476837,right,1,NA,NA,NA,NA,NA
qJHjdvl9,3fk4g712o0duz4m7qhicsa7sfszsso,3i0btbyza1yth1cy7nwjpal26070y8,qJHjdvl9,2020-0188,2021-10-31,19:09:16,20:15:23,NA,incomplete,false,NA,NA,true,3,16,NA,NA,NA,right,m_l_077.jpg,black,red,NA,NA,NA,NA,NA,NA,NA,NA,NA,NaN,NA,2470.7000000476837,right,1,NA,NA,NA,NA,NA
qJHjdvl9,3fk4g712o0duz4m7qhicsa7sfszsso,3i0btbyza1yth1cy7nwjpal26070y8,qJHjdvl9,2020-0188,2021-10-31,19:09:16,20:15:23,NA,incomplete,false,NA,NA,true,3,17,NA,NA,NA,left,n_s_003.jpg,red,black,NA,NA,NA,NA,NA,NA,NA,NA,NA,NaN,NA,1374.5,left,1,NA,NA,NA,NA,NA
qJHjdvl9,3fk4g712o0duz4m7qhicsa7sfszsso,3i0btbyza1yth1cy7nwjpal26070y8,qJHjdvl9,2020-0188,2021-10-31,19:09:16,20:15:23,NA,incomplete,false,NA,NA,true,3,18,NA,NA,NA,left,m_l_073.jpg,orange,yellow,NA,NA,NA,NA,NA,NA,NA,NA,NA,NaN,NA,1326.7000000476837,left,1,NA,NA,NA,NA,NA
qJHjdvl9,3fk4g712o0duz4m7qhicsa7sfszsso,3i0btbyza1yth1cy7nwjpal26070y8,qJHjdvl9,2020-0188,2021-10-31,19:09:16,20:15:23,NA,incomplete,false,NA,NA,true,3,19,NA,NA,NA,right,m_s_023.jpg,orange,green,NA,NA,NA,NA,NA,NA,NA,NA,NA,NaN,NA,1111.7000000476837,right,1,NA,NA,NA,NA,NA
qJHjdvl9,3fk4g712o0duz4m7qhicsa7sfszsso,3i0btbyza1yth1cy7nwjpal26070y8,qJHjdvl9,2020-0188,2021-10-31,19:09:16,20:15:23,NA,incomplete,false,NA,NA,true,3,20,NA,NA,NA,left,n_l_070.jpg,green,orange,NA,NA,NA,NA,NA,NA,NA,NA,NA,NaN,NA,1390.9000000953674,left,1,NA,NA,NA,NA,NA
qJHjdvl9,3fk4g712o0duz4m7qhicsa7sfszsso,3i0btbyza1yth1cy7nwjpal26070y8,qJHjdvl9,2020-0188,2021-10-31,19:09:16,20:15:23,NA,incomplete,false,NA,NA,true,3,21,NA,NA,NA,right,n_l_069.jpg,brown,black,NA,NA,NA,NA,NA,NA,NA,NA,NA,NaN,NA,3958.7000000476837,left,0,NA,NA,NA,NA,NA
qJHjdvl9,3fk4g712o0duz4m7qhicsa7sfszsso,3i0btbyza1yth1cy7nwjpal26070y8,qJHjdvl9,2020-0188,2021-10-31,19:09:16,20:15:23,NA,incomplete,false,NA,true,NA,3,0,NA,NA,NA,right,NA,NA,NA,absent,NA,NA,m_l_073.jpg,orange,m_s_023.jpg,green,between,NA,NaN,NA,NA,NA,NA,right,2190.899999856949,1,2,927.5
qJHjdvl9,3fk4g712o0duz4m7qhicsa7sfszsso,3i0btbyza1yth1cy7nwjpal26070y8,qJHjdvl9,2020-0188,2021-10-31,19:09:16,20:15:23,NA,incomplete,false,NA,true,NA,3,1,NA,NA,NA,right,NA,NA,NA,absent,NA,NA,n_s_007.jpg,red,n_l_069.jpg,black,between,NA,NaN,NA,NA,NA,NA,left,2351.100000143051,0,1,991.4000000953674
qJHjdvl9,3fk4g712o0duz4m7qhicsa7sfszsso,3i0btbyza1yth1cy7nwjpal26070y8,qJHjdvl9,2020-0188,2021-10-31,19:09:16,20:15:23,NA,incomplete,false,NA,true,NA,3,2,NA,NA,NA,right,NA,NA,NA,absent,NA,NA,n_s_003.jpg,red,m_l_077.jpg,red,within,NA,NaN,NA,NA,NA,NA,right,3471.899999856949,1,1,1286.8999998569489
qJHjdvl9,3fk4g712o0duz4m7qhicsa7sfszsso,3i0btbyza1yth1cy7nwjpal26070y8,qJHjdvl9,2020-0188,2021-10-31,19:09:16,20:15:23,NA,incomplete,false,NA,true,NA,3,3,NA,NA,NA,left,NA,NA,NA,absent,NA,NA,n_l_044.jpg,red,n_l_102.jpg,green,between,NA,NaN,NA,NA,NA,NA,right,1743.2000000476837,0,2,727.6000001430511
qJHjdvl9,3fk4g712o0duz4m7qhicsa7sfszsso,3i0btbyza1yth1cy7nwjpal26070y8,qJHjdvl9,2020-0188,2021-10-31,19:09:16,20:15:23,NA,incomplete,false,NA,true,NA,3,4,NA,NA,NA,right,NA,NA,NA,absent,NA,NA,n_l_060.jpg,yellow,m_s_108.jpg,orange,between,NA,NaN,NA,NA,NA,NA,right,3287.0999999046326,1,1,934.1999998092651
qJHjdvl9,3fk4g712o0duz4m7qhicsa7sfszsso,3i0btbyza1yth1cy7nwjpal26070y8,qJHjdvl9,2020-0188,2021-10-31,19:09:16,20:15:23,NA,incomplete,false,NA,true,NA,3,5,NA,NA,NA,left,NA,NA,NA,absent,NA,NA,m_s_058.jpg,orange,m_l_103.jpg,orange,within,NA,NaN,NA,NA,NA,NA,left,1471,1,3,1151.1000001430511
qJHjdvl9,3fk4g712o0duz4m7qhicsa7sfszsso,3i0btbyza1yth1cy7nwjpal26070y8,qJHjdvl9,2020-0188,2021-10-31,19:09:16,20:15:23,NA,incomplete,false,NA,true,NA,3,6,NA,NA,NA,left,NA,NA,NA,absent,NA,NA,m_l_059.jpg,green,n_l_070.jpg,green,within,NA,NaN,NA,NA,NA,NA,left,2246.7000000476837,1,2,1440.0999999046326
qJHjdvl9,3fk4g712o0duz4m7qhicsa7sfszsso,3i0btbyza1yth1cy7nwjpal26070y8,qJHjdvl9,2020-0188,2021-10-31,19:09:16,20:15:23,NA,incomplete,false,NA,true,NA,3,7,NA,NA,NA,left,NA,NA,NA,absent,NA,NA,n_s_054.jpg,yellow,m_s_003.jpg,yellow,within,NA,NaN,NA,NA,NA,NA,left,1767.1999998092651,1,1,1135.1999998092651
qJHjdvl9,3fk4g712o0duz4m7qhicsa7sfszsso,3i0btbyza1yth1cy7nwjpal26070y8,qJHjdvl9,2020-0188,2021-10-31,19:09:16,20:15:23,NA,incomplete,false,NA,true,NA,3,8,NA,NA,NA,right,NA,NA,NA,absent,NA,NA,n_s_083.jpg,black,m_l_076.jpg,black,within,NA,NaN,NA,NA,NA,NA,right,1879.8000001907349,1,1,1031.7000000476837
qJHjdvl9,3fk4g712o0duz4m7qhicsa7sfszsso,3i0btbyza1yth1cy7nwjpal26070y8,qJHjdvl9,2020-0188,2021-10-31,19:09:16,20:15:23,NA,incomplete,false,NA,true,NA,3,9,NA,NA,NA,right,NA,NA,NA,absent,NA,NA,n_l_032.jpg,brown,m_s_056.jpg,brown,within,NA,NaN,NA,NA,NA,NA,right,1743.1999998092651,1,1,767.8999998569489
qJHjdvl9,3fk4g712o0duz4m7qhicsa7sfszsso,3i0btbyza1yth1cy7nwjpal26070y8,qJHjdvl9,2020-0188,2021-10-31,19:09:16,20:15:23,NA,incomplete,false,NA,true,NA,3,10,NA,NA,NA,right,NA,NA,NA,absent,NA,NA,m_l_112.jpg,black,m_s_005.jpg,brown,between,NA,NaN,NA,NA,NA,NA,right,3262.7999999523163,1,1,839.8999998569489
qJHjdvl9,3fk4g712o0duz4m7qhicsa7sfszsso,3i0btbyza1yth1cy7nwjpal26070y8,qJHjdvl9,2020-0188,2021-10-31,19:09:16,20:15:23,NA,incomplete,false,true,NA,NA,4,0,NA,red,n_s_099.jpg,NA,NA,NA,NA,NA,pleasant,unpleasant,NA,NA,NA,NA,NA,left,1478.70000004768,true,NA,NA,NA,NA,NA,NA,NA,NA
qJHjdvl9,3fk4g712o0duz4m7qhicsa7sfszsso,3i0btbyza1yth1cy7nwjpal26070y8,qJHjdvl9,2020-0188,2021-10-31,19:09:16,20:15:23,NA,incomplete,false,true,NA,NA,4,1,NA,red,m_s_050.jpg,NA,NA,NA,NA,NA,unpleasant,pleasant,NA,NA,NA,NA,NA,right,1316.29999995232,true,NA,NA,NA,NA,NA,NA,NA,NA
qJHjdvl9,3fk4g712o0duz4m7qhicsa7sfszsso,3i0btbyza1yth1cy7nwjpal26070y8,qJHjdvl9,2020-0188,2021-10-31,19:09:16,20:15:23,NA,incomplete,false,true,NA,NA,4,2,NA,red,m_l_031.jpg,NA,NA,NA,NA,NA,unpleasant,pleasant,NA,NA,NA,NA,NA,left,954.599999904633,true,NA,NA,NA,NA,NA,NA,NA,NA
qJHjdvl9,3fk4g712o0duz4m7qhicsa7sfszsso,3i0btbyza1yth1cy7nwjpal26070y8,qJHjdvl9,2020-0188,2021-10-31,19:09:16,20:15:23,NA,incomplete,false,true,NA,NA,4,3,NA,red,m_s_072.jpg,NA,NA,NA,NA,NA,unpleasant,pleasant,NA,NA,NA,NA,NA,right,1019.29999995232,true,NA,NA,NA,NA,NA,NA,NA,NA
qJHjdvl9,3fk4g712o0duz4m7qhicsa7sfszsso,3i0btbyza1yth1cy7nwjpal26070y8,qJHjdvl9,2020-0188,2021-10-31,19:09:16,20:15:23,NA,incomplete,false,true,NA,NA,4,4,NA,red,n_l_019.jpg,NA,NA,NA,NA,NA,unpleasant,pleasant,NA,NA,NA,NA,NA,right,839.700000047684,true,NA,NA,NA,NA,NA,NA,NA,NA
qJHjdvl9,3fk4g712o0duz4m7qhicsa7sfszsso,3i0btbyza1yth1cy7nwjpal26070y8,qJHjdvl9,2020-0188,2021-10-31,19:09:16,20:15:23,NA,incomplete,false,true,NA,NA,4,5,NA,red,m_s_012.jpg,NA,NA,NA,NA,NA,pleasant,unpleasant,NA,NA,NA,NA,NA,right,1404.59999990463,true,NA,NA,NA,NA,NA,NA,NA,NA
qJHjdvl9,3fk4g712o0duz4m7qhicsa7sfszsso,3i0btbyza1yth1cy7nwjpal26070y8,qJHjdvl9,2020-0188,2021-10-31,19:09:16,20:15:23,NA,incomplete,false,true,NA,NA,4,6,NA,purple,n_s_039.jpg,NA,NA,NA,NA,NA,unpleasant,pleasant,NA,NA,NA,NA,NA,right,1095.5,true,NA,NA,NA,NA,NA,NA,NA,NA
qJHjdvl9,3fk4g712o0duz4m7qhicsa7sfszsso,3i0btbyza1yth1cy7nwjpal26070y8,qJHjdvl9,2020-0188,2021-10-31,19:09:16,20:15:23,NA,incomplete,false,true,NA,NA,4,7,NA,purple,n_l_009.jpg,NA,NA,NA,NA,NA,unpleasant,pleasant,NA,NA,NA,NA,NA,right,931.799999952316,true,NA,NA,NA,NA,NA,NA,NA,NA
qJHjdvl9,3fk4g712o0duz4m7qhicsa7sfszsso,3i0btbyza1yth1cy7nwjpal26070y8,qJHjdvl9,2020-0188,2021-10-31,19:09:16,20:15:23,NA,incomplete,false,true,NA,NA,4,8,NA,purple,n_s_046.jpg,NA,NA,NA,NA,NA,unpleasant,pleasant,NA,NA,NA,NA,NA,left,929,true,NA,NA,NA,NA,NA,NA,NA,NA
qJHjdvl9,3fk4g712o0duz4m7qhicsa7sfszsso,3i0btbyza1yth1cy7nwjpal26070y8,qJHjdvl9,2020-0188,2021-10-31,19:09:16,20:15:23,NA,incomplete,false,true,NA,NA,4,9,NA,purple,n_l_113.jpg,NA,NA,NA,NA,NA,unpleasant,pleasant,NA,NA,NA,NA,NA,left,980.899999856949,true,NA,NA,NA,NA,NA,NA,NA,NA
qJHjdvl9,3fk4g712o0duz4m7qhicsa7sfszsso,3i0btbyza1yth1cy7nwjpal26070y8,qJHjdvl9,2020-0188,2021-10-31,19:09:16,20:15:23,NA,incomplete,false,true,NA,NA,4,10,NA,purple,n_s_062.jpg,NA,NA,NA,NA,NA,unpleasant,pleasant,NA,NA,NA,NA,NA,left,952,true,NA,NA,NA,NA,NA,NA,NA,NA
qJHjdvl9,3fk4g712o0duz4m7qhicsa7sfszsso,3i0btbyza1yth1cy7nwjpal26070y8,qJHjdvl9,2020-0188,2021-10-31,19:09:16,20:15:23,NA,incomplete,false,true,NA,NA,4,11,NA,purple,n_s_068.jpg,NA,NA,NA,NA,NA,pleasant,unpleasant,NA,NA,NA,NA,NA,left,1278.70000004768,true,NA,NA,NA,NA,NA,NA,NA,NA
qJHjdvl9,3fk4g712o0duz4m7qhicsa7sfszsso,3i0btbyza1yth1cy7nwjpal26070y8,qJHjdvl9,2020-0188,2021-10-31,19:09:16,20:15:23,NA,incomplete,false,true,NA,NA,4,12,NA,white,n_l_101.jpg,NA,NA,NA,NA,NA,unpleasant,pleasant,NA,NA,NA,NA,NA,left,961.5,true,NA,NA,NA,NA,NA,NA,NA,NA
qJHjdvl9,3fk4g712o0duz4m7qhicsa7sfszsso,3i0btbyza1yth1cy7nwjpal26070y8,qJHjdvl9,2020-0188,2021-10-31,19:09:16,20:15:23,NA,incomplete,false,true,NA,NA,4,13,NA,white,m_s_017.jpg,NA,NA,NA,NA,NA,pleasant,unpleasant,NA,NA,NA,NA,NA,right,1268.79999995232,true,NA,NA,NA,NA,NA,NA,NA,NA
qJHjdvl9,3fk4g712o0duz4m7qhicsa7sfszsso,3i0btbyza1yth1cy7nwjpal26070y8,qJHjdvl9,2020-0188,2021-10-31,19:09:16,20:15:23,NA,incomplete,false,true,NA,NA,4,14,NA,white,m_l_017.jpg,NA,NA,NA,NA,NA,unpleasant,pleasant,NA,NA,NA,NA,NA,left,1034.90000009537,true,NA,NA,NA,NA,NA,NA,NA,NA
qJHjdvl9,3fk4g712o0duz4m7qhicsa7sfszsso,3i0btbyza1yth1cy7nwjpal26070y8,qJHjdvl9,2020-0188,2021-10-31,19:09:16,20:15:23,NA,incomplete,false,true,NA,NA,4,15,NA,white,m_s_068.jpg,NA,NA,NA,NA,NA,unpleasant,pleasant,NA,NA,NA,NA,NA,right,1205.70000004768,true,NA,NA,NA,NA,NA,NA,NA,NA
qJHjdvl9,3fk4g712o0duz4m7qhicsa7sfszsso,3i0btbyza1yth1cy7nwjpal26070y8,qJHjdvl9,2020-0188,2021-10-31,19:09:16,20:15:23,NA,incomplete,false,true,NA,NA,4,16,NA,white,m_s_100.jpg,NA,NA,NA,NA,NA,unpleasant,pleasant,NA,NA,NA,NA,NA,right,1074.20000004768,true,NA,NA,NA,NA,NA,NA,NA,NA
qJHjdvl9,3fk4g712o0duz4m7qhicsa7sfszsso,3i0btbyza1yth1cy7nwjpal26070y8,qJHjdvl9,2020-0188,2021-10-31,19:09:16,20:15:23,NA,incomplete,false,true,NA,NA,4,17,NA,white,n_s_103.jpg,NA,NA,NA,NA,NA,unpleasant,pleasant,NA,NA,NA,NA,NA,right,934.699999809265,true,NA,NA,NA,NA,NA,NA,NA,NA
qJHjdvl9,3fk4g712o0duz4m7qhicsa7sfszsso,3i0btbyza1yth1cy7nwjpal26070y8,qJHjdvl9,2020-0188,2021-10-31,19:09:16,20:15:23,NA,incomplete,false,true,NA,NA,4,18,NA,green,n_l_116.jpg,NA,NA,NA,NA,NA,unpleasant,pleasant,NA,NA,NA,NA,NA,left,1017.20000004768,true,NA,NA,NA,NA,NA,NA,NA,NA
qJHjdvl9,3fk4g712o0duz4m7qhicsa7sfszsso,3i0btbyza1yth1cy7nwjpal26070y8,qJHjdvl9,2020-0188,2021-10-31,19:09:16,20:15:23,NA,incomplete,false,true,NA,NA,4,19,NA,green,n_s_009.jpg,NA,NA,NA,NA,NA,pleasant,unpleasant,NA,NA,NA,NA,NA,left,1389.29999995232,true,NA,NA,NA,NA,NA,NA,NA,NA
qJHjdvl9,3fk4g712o0duz4m7qhicsa7sfszsso,3i0btbyza1yth1cy7nwjpal26070y8,qJHjdvl9,2020-0188,2021-10-31,19:09:16,20:15:23,NA,incomplete,false,true,NA,NA,4,20,NA,green,m_s_027.jpg,NA,NA,NA,NA,NA,unpleasant,pleasant,NA,NA,NA,NA,NA,right,1106.39999985695,true,NA,NA,NA,NA,NA,NA,NA,NA
qJHjdvl9,3fk4g712o0duz4m7qhicsa7sfszsso,3i0btbyza1yth1cy7nwjpal26070y8,qJHjdvl9,2020-0188,2021-10-31,19:09:16,20:15:23,NA,incomplete,false,true,NA,NA,4,21,NA,green,m_l_039.jpg,NA,NA,NA,NA,NA,unpleasant,pleasant,NA,NA,NA,NA,NA,right,1021.79999995232,true,NA,NA,NA,NA,NA,NA,NA,NA
qJHjdvl9,3fk4g712o0duz4m7qhicsa7sfszsso,3i0btbyza1yth1cy7nwjpal26070y8,qJHjdvl9,2020-0188,2021-10-31,19:09:16,20:15:23,NA,incomplete,false,true,NA,NA,4,22,NA,green,m_l_024.jpg,NA,NA,NA,NA,NA,unpleasant,pleasant,NA,NA,NA,NA,NA,right,1473.5,true,NA,NA,NA,NA,NA,NA,NA,NA
qJHjdvl9,3fk4g712o0duz4m7qhicsa7sfszsso,3i0btbyza1yth1cy7nwjpal26070y8,qJHjdvl9,2020-0188,2021-10-31,19:09:16,20:15:23,NA,incomplete,false,true,NA,NA,4,23,NA,green,n_s_047.jpg,NA,NA,NA,NA,NA,pleasant,unpleasant,NA,NA,NA,NA,NA,right,1086.40000009537,true,NA,NA,NA,NA,NA,NA,NA,NA
qJHjdvl9,3fk4g712o0duz4m7qhicsa7sfszsso,3i0btbyza1yth1cy7nwjpal26070y8,qJHjdvl9,2020-0188,2021-10-31,19:09:16,20:15:23,NA,incomplete,false,true,NA,NA,4,24,NA,orange,n_l_107.jpg,NA,NA,NA,NA,NA,unpleasant,pleasant,NA,NA,NA,NA,NA,left,1176.30000019073,true,NA,NA,NA,NA,NA,NA,NA,NA
qJHjdvl9,3fk4g712o0duz4m7qhicsa7sfszsso,3i0btbyza1yth1cy7nwjpal26070y8,qJHjdvl9,2020-0188,2021-10-31,19:09:16,20:15:23,NA,incomplete,false,true,NA,NA,4,25,NA,orange,m_s_055.jpg,NA,NA,NA,NA,NA,pleasant,unpleasant,NA,NA,NA,NA,NA,right,1476.29999995232,true,NA,NA,NA,NA,NA,NA,NA,NA
qJHjdvl9,3fk4g712o0duz4m7qhicsa7sfszsso,3i0btbyza1yth1cy7nwjpal26070y8,qJHjdvl9,2020-0188,2021-10-31,19:09:16,20:15:23,NA,incomplete,false,true,NA,NA,4,26,NA,orange,m_s_076.jpg,NA,NA,NA,NA,NA,unpleasant,pleasant,NA,NA,NA,NA,NA,left,1172.70000004768,true,NA,NA,NA,NA,NA,NA,NA,NA
qJHjdvl9,3fk4g712o0duz4m7qhicsa7sfszsso,3i0btbyza1yth1cy7nwjpal26070y8,qJHjdvl9,2020-0188,2021-10-31,19:09:16,20:15:23,NA,incomplete,false,true,NA,NA,4,27,NA,orange,n_s_021.jpg,NA,NA,NA,NA,NA,unpleasant,pleasant,NA,NA,NA,NA,NA,right,934.5,true,NA,NA,NA,NA,NA,NA,NA,NA
qJHjdvl9,3fk4g712o0duz4m7qhicsa7sfszsso,3i0btbyza1yth1cy7nwjpal26070y8,qJHjdvl9,2020-0188,2021-10-31,19:09:16,20:15:23,NA,incomplete,false,true,NA,NA,4,28,NA,orange,n_l_002.jpg,NA,NA,NA,NA,NA,unpleasant,pleasant,NA,NA,NA,NA,NA,left,1346.30000019073,true,NA,NA,NA,NA,NA,NA,NA,NA
qJHjdvl9,3fk4g712o0duz4m7qhicsa7sfszsso,3i0btbyza1yth1cy7nwjpal26070y8,qJHjdvl9,2020-0188,2021-10-31,19:09:16,20:15:23,NA,incomplete,false,true,NA,NA,4,29,NA,orange,n_s_088.jpg,NA,NA,NA,NA,NA,unpleasant,pleasant,NA,NA,NA,NA,NA,right,1008.70000004768,true,NA,NA,NA,NA,NA,NA,NA,NA
qJHjdvl9,3fk4g712o0duz4m7qhicsa7sfszsso,3i0btbyza1yth1cy7nwjpal26070y8,qJHjdvl9,2020-0188,2021-10-31,19:09:16,20:15:23,NA,incomplete,false,true,NA,NA,4,30,NA,brown,m_s_030.jpg,NA,NA,NA,NA,NA,unpleasant,pleasant,NA,NA,NA,NA,NA,left,1219.20000004768,true,NA,NA,NA,NA,NA,NA,NA,NA
qJHjdvl9,3fk4g712o0duz4m7qhicsa7sfszsso,3i0btbyza1yth1cy7nwjpal26070y8,qJHjdvl9,2020-0188,2021-10-31,19:09:16,20:15:23,NA,incomplete,false,true,NA,NA,4,31,NA,brown,n_s_036.jpg,NA,NA,NA,NA,NA,pleasant,unpleasant,NA,NA,NA,NA,NA,left,1030.59999990463,true,NA,NA,NA,NA,NA,NA,NA,NA
qJHjdvl9,3fk4g712o0duz4m7qhicsa7sfszsso,3i0btbyza1yth1cy7nwjpal26070y8,qJHjdvl9,2020-0188,2021-10-31,19:09:16,20:15:23,NA,incomplete,false,true,NA,NA,4,32,NA,brown,n_s_085.jpg,NA,NA,NA,NA,NA,unpleasant,pleasant,NA,NA,NA,NA,NA,left,931.799999952316,true,NA,NA,NA,NA,NA,NA,NA,NA
qJHjdvl9,3fk4g712o0duz4m7qhicsa7sfszsso,3i0btbyza1yth1cy7nwjpal26070y8,qJHjdvl9,2020-0188,2021-10-31,19:09:16,20:15:23,NA,incomplete,false,true,NA,NA,4,33,NA,brown,m_l_092.jpg,NA,NA,NA,NA,NA,unpleasant,pleasant,NA,NA,NA,NA,NA,left,927.600000143051,true,NA,NA,NA,NA,NA,NA,NA,NA
qJHjdvl9,3fk4g712o0duz4m7qhicsa7sfszsso,3i0btbyza1yth1cy7nwjpal26070y8,qJHjdvl9,2020-0188,2021-10-31,19:09:16,20:15:23,NA,incomplete,false,true,NA,NA,4,34,NA,brown,n_l_034.jpg,NA,NA,NA,NA,NA,unpleasant,pleasant,NA,NA,NA,NA,NA,left,834.699999809265,true,NA,NA,NA,NA,NA,NA,NA,NA
qJHjdvl9,3fk4g712o0duz4m7qhicsa7sfszsso,3i0btbyza1yth1cy7nwjpal26070y8,qJHjdvl9,2020-0188,2021-10-31,19:09:16,20:15:23,NA,incomplete,false,true,NA,NA,4,35,NA,brown,m_s_036.jpg,NA,NA,NA,NA,NA,pleasant,unpleasant,NA,NA,NA,NA,NA,left,1065,true,NA,NA,NA,NA,NA,NA,NA,NA
qJHjdvl9,3fk4g712o0duz4m7qhicsa7sfszsso,3i0btbyza1yth1cy7nwjpal26070y8,qJHjdvl9,2020-0188,2021-10-31,19:09:16,20:15:23,NA,incomplete,false,NA,NA,true,4,0,NA,NA,NA,right,n_s_046.jpg,red,purple,NA,NA,NA,NA,NA,NA,NA,NA,NA,NaN,NA,1766.8000001907349,left,0,NA,NA,NA,NA,NA
qJHjdvl9,3fk4g712o0duz4m7qhicsa7sfszsso,3i0btbyza1yth1cy7nwjpal26070y8,qJHjdvl9,2020-0188,2021-10-31,19:09:16,20:15:23,NA,incomplete,false,NA,NA,true,4,1,NA,NA,NA,left,n_s_103.jpg,white,purple,NA,NA,NA,NA,NA,NA,NA,NA,NA,NaN,NA,1694.9000000953674,left,1,NA,NA,NA,NA,NA
qJHjdvl9,3fk4g712o0duz4m7qhicsa7sfszsso,3i0btbyza1yth1cy7nwjpal26070y8,qJHjdvl9,2020-0188,2021-10-31,19:09:16,20:15:23,NA,incomplete,false,NA,NA,true,4,2,NA,NA,NA,left,m_s_017.jpg,white,purple,NA,NA,NA,NA,NA,NA,NA,NA,NA,NaN,NA,1079.2000000476837,left,1,NA,NA,NA,NA,NA
qJHjdvl9,3fk4g712o0duz4m7qhicsa7sfszsso,3i0btbyza1yth1cy7nwjpal26070y8,qJHjdvl9,2020-0188,2021-10-31,19:09:16,20:15:23,NA,incomplete,false,NA,NA,true,4,3,NA,NA,NA,left,m_s_012.jpg,red,purple,NA,NA,NA,NA,NA,NA,NA,NA,NA,NaN,NA,2630.7999999523163,left,1,NA,NA,NA,NA,NA
qJHjdvl9,3fk4g712o0duz4m7qhicsa7sfszsso,3i0btbyza1yth1cy7nwjpal26070y8,qJHjdvl9,2020-0188,2021-10-31,19:09:16,20:15:23,NA,incomplete,false,NA,NA,true,4,4,NA,NA,NA,left,n_s_062.jpg,purple,red,NA,NA,NA,NA,NA,NA,NA,NA,NA,NaN,NA,1391.2000000476837,left,1,NA,NA,NA,NA,NA
qJHjdvl9,3fk4g712o0duz4m7qhicsa7sfszsso,3i0btbyza1yth1cy7nwjpal26070y8,qJHjdvl9,2020-0188,2021-10-31,19:09:16,20:15:23,NA,incomplete,false,NA,NA,true,4,5,NA,NA,NA,left,m_s_100.jpg,white,purple,NA,NA,NA,NA,NA,NA,NA,NA,NA,NaN,NA,1462.9000000953674,left,1,NA,NA,NA,NA,NA
qJHjdvl9,3fk4g712o0duz4m7qhicsa7sfszsso,3i0btbyza1yth1cy7nwjpal26070y8,qJHjdvl9,2020-0188,2021-10-31,19:09:16,20:15:23,NA,incomplete,false,NA,NA,true,4,6,NA,NA,NA,left,m_l_024.jpg,green,white,NA,NA,NA,NA,NA,NA,NA,NA,NA,NaN,NA,2942.2999999523163,left,1,NA,NA,NA,NA,NA
qJHjdvl9,3fk4g712o0duz4m7qhicsa7sfszsso,3i0btbyza1yth1cy7nwjpal26070y8,qJHjdvl9,2020-0188,2021-10-31,19:09:16,20:15:23,NA,incomplete,false,NA,NA,true,4,7,NA,NA,NA,left,n_l_009.jpg,purple,white,NA,NA,NA,NA,NA,NA,NA,NA,NA,NaN,NA,1103.5,left,1,NA,NA,NA,NA,NA
qJHjdvl9,3fk4g712o0duz4m7qhicsa7sfszsso,3i0btbyza1yth1cy7nwjpal26070y8,qJHjdvl9,2020-0188,2021-10-31,19:09:16,20:15:23,NA,incomplete,false,NA,NA,true,4,8,NA,NA,NA,left,n_s_085.jpg,brown,orange,NA,NA,NA,NA,NA,NA,NA,NA,NA,NaN,NA,1470.5999999046326,left,1,NA,NA,NA,NA,NA
qJHjdvl9,3fk4g712o0duz4m7qhicsa7sfszsso,3i0btbyza1yth1cy7nwjpal26070y8,qJHjdvl9,2020-0188,2021-10-31,19:09:16,20:15:23,NA,incomplete,false,NA,NA,true,4,9,NA,NA,NA,right,n_l_002.jpg,brown,orange,NA,NA,NA,NA,NA,NA,NA,NA,NA,NaN,NA,1487.4000000953674,left,0,NA,NA,NA,NA,NA
qJHjdvl9,3fk4g712o0duz4m7qhicsa7sfszsso,3i0btbyza1yth1cy7nwjpal26070y8,qJHjdvl9,2020-0188,2021-10-31,19:09:16,20:15:23,NA,incomplete,false,NA,NA,true,4,10,NA,NA,NA,right,n_s_036.jpg,orange,brown,NA,NA,NA,NA,NA,NA,NA,NA,NA,NaN,NA,2183,right,1,NA,NA,NA,NA,NA
qJHjdvl9,3fk4g712o0duz4m7qhicsa7sfszsso,3i0btbyza1yth1cy7nwjpal26070y8,qJHjdvl9,2020-0188,2021-10-31,19:09:16,20:15:23,NA,incomplete,false,NA,NA,true,4,11,NA,NA,NA,right,n_s_088.jpg,brown,orange,NA,NA,NA,NA,NA,NA,NA,NA,NA,NaN,NA,1239.1999998092651,left,0,NA,NA,NA,NA,NA
qJHjdvl9,3fk4g712o0duz4m7qhicsa7sfszsso,3i0btbyza1yth1cy7nwjpal26070y8,qJHjdvl9,2020-0188,2021-10-31,19:09:16,20:15:23,NA,incomplete,false,NA,NA,true,4,12,NA,NA,NA,right,m_s_050.jpg,purple,red,NA,NA,NA,NA,NA,NA,NA,NA,NA,NaN,NA,1158.8999998569489,left,0,NA,NA,NA,NA,NA
qJHjdvl9,3fk4g712o0duz4m7qhicsa7sfszsso,3i0btbyza1yth1cy7nwjpal26070y8,qJHjdvl9,2020-0188,2021-10-31,19:09:16,20:15:23,NA,incomplete,false,NA,NA,true,4,13,NA,NA,NA,left,n_s_068.jpg,purple,red,NA,NA,NA,NA,NA,NA,NA,NA,NA,NaN,NA,1486.6999998092651,left,1,NA,NA,NA,NA,NA
qJHjdvl9,3fk4g712o0duz4m7qhicsa7sfszsso,3i0btbyza1yth1cy7nwjpal26070y8,qJHjdvl9,2020-0188,2021-10-31,19:09:16,20:15:23,NA,incomplete,false,NA,NA,true,4,14,NA,NA,NA,left,m_s_027.jpg,green,orange,NA,NA,NA,NA,NA,NA,NA,NA,NA,NaN,NA,1383.0999999046326,left,1,NA,NA,NA,NA,NA
qJHjdvl9,3fk4g712o0duz4m7qhicsa7sfszsso,3i0btbyza1yth1cy7nwjpal26070y8,qJHjdvl9,2020-0188,2021-10-31,19:09:16,20:15:23,NA,incomplete,false,NA,NA,true,4,15,NA,NA,NA,right,n_l_019.jpg,purple,red,NA,NA,NA,NA,NA,NA,NA,NA,NA,NaN,NA,1743.3000001907349,left,0,NA,NA,NA,NA,NA
qJHjdvl9,3fk4g712o0duz4m7qhicsa7sfszsso,3i0btbyza1yth1cy7nwjpal26070y8,qJHjdvl9,2020-0188,2021-10-31,19:09:16,20:15:23,NA,incomplete,false,NA,NA,true,4,16,NA,NA,NA,right,m_s_055.jpg,brown,orange,NA,NA,NA,NA,NA,NA,NA,NA,NA,NaN,NA,3743.5999999046326,right,1,NA,NA,NA,NA,NA
qJHjdvl9,3fk4g712o0duz4m7qhicsa7sfszsso,3i0btbyza1yth1cy7nwjpal26070y8,qJHjdvl9,2020-0188,2021-10-31,19:09:16,20:15:23,NA,incomplete,false,NA,NA,true,4,17,NA,NA,NA,right,n_s_047.jpg,orange,green,NA,NA,NA,NA,NA,NA,NA,NA,NA,NaN,NA,1378,right,1,NA,NA,NA,NA,NA
qJHjdvl9,3fk4g712o0duz4m7qhicsa7sfszsso,3i0btbyza1yth1cy7nwjpal26070y8,qJHjdvl9,2020-0188,2021-10-31,19:09:16,20:15:23,NA,incomplete,false,NA,NA,true,4,18,NA,NA,NA,right,n_s_009.jpg,orange,green,NA,NA,NA,NA,NA,NA,NA,NA,NA,NaN,NA,1183.2999999523163,right,1,NA,NA,NA,NA,NA
qJHjdvl9,3fk4g712o0duz4m7qhicsa7sfszsso,3i0btbyza1yth1cy7nwjpal26070y8,qJHjdvl9,2020-0188,2021-10-31,19:09:16,20:15:23,NA,incomplete,false,NA,NA,true,4,19,NA,NA,NA,left,m_l_017.jpg,white,green,NA,NA,NA,NA,NA,NA,NA,NA,NA,NaN,NA,1278.8999998569489,left,1,NA,NA,NA,NA,NA
qJHjdvl9,3fk4g712o0duz4m7qhicsa7sfszsso,3i0btbyza1yth1cy7nwjpal26070y8,qJHjdvl9,2020-0188,2021-10-31,19:09:16,20:15:23,NA,incomplete,false,NA,NA,true,4,20,NA,NA,NA,left,m_s_076.jpg,orange,brown,NA,NA,NA,NA,NA,NA,NA,NA,NA,NaN,NA,2718.7999999523163,left,1,NA,NA,NA,NA,NA
qJHjdvl9,3fk4g712o0duz4m7qhicsa7sfszsso,3i0btbyza1yth1cy7nwjpal26070y8,qJHjdvl9,2020-0188,2021-10-31,19:09:16,20:15:23,NA,incomplete,false,NA,NA,true,4,21,NA,NA,NA,right,m_s_036.jpg,orange,brown,NA,NA,NA,NA,NA,NA,NA,NA,NA,NaN,NA,1309.8999998569489,right,1,NA,NA,NA,NA,NA
qJHjdvl9,3fk4g712o0duz4m7qhicsa7sfszsso,3i0btbyza1yth1cy7nwjpal26070y8,qJHjdvl9,2020-0188,2021-10-31,19:09:16,20:15:23,NA,incomplete,false,NA,true,NA,4,0,NA,NA,NA,left,NA,NA,NA,absent,NA,NA,n_s_062.jpg,purple,m_l_017.jpg,white,between,NA,NaN,NA,NA,NA,NA,right,1709.7999999523163,0,1,1014.4000000953674
qJHjdvl9,3fk4g712o0duz4m7qhicsa7sfszsso,3i0btbyza1yth1cy7nwjpal26070y8,qJHjdvl9,2020-0188,2021-10-31,19:09:16,20:15:23,NA,incomplete,false,NA,true,NA,4,1,NA,NA,NA,left,NA,NA,NA,absent,NA,NA,m_s_017.jpg,white,n_s_103.jpg,white,within,NA,NaN,NA,NA,NA,NA,left,3902,1,1,711
qJHjdvl9,3fk4g712o0duz4m7qhicsa7sfszsso,3i0btbyza1yth1cy7nwjpal26070y8,qJHjdvl9,2020-0188,2021-10-31,19:09:16,20:15:23,NA,incomplete,false,NA,true,NA,4,2,NA,NA,NA,right,NA,NA,NA,absent,NA,NA,n_s_068.jpg,purple,n_l_009.jpg,purple,within,NA,NaN,NA,NA,NA,NA,right,5390.400000095367,1,1,1071.2000000476837
qJHjdvl9,3fk4g712o0duz4m7qhicsa7sfszsso,3i0btbyza1yth1cy7nwjpal26070y8,qJHjdvl9,2020-0188,2021-10-31,19:09:16,20:15:23,NA,incomplete,false,NA,true,NA,4,3,NA,NA,NA,left,NA,NA,NA,absent,NA,NA,n_s_009.jpg,green,n_s_047.jpg,green,within,NA,NaN,NA,NA,NA,NA,left,1838.2999999523163,1,1,1391.2000000476837
qJHjdvl9,3fk4g712o0duz4m7qhicsa7sfszsso,3i0btbyza1yth1cy7nwjpal26070y8,qJHjdvl9,2020-0188,2021-10-31,19:09:16,20:15:23,NA,incomplete,false,NA,true,NA,4,4,NA,NA,NA,right,NA,NA,NA,absent,NA,NA,n_s_046.jpg,purple,n_l_019.jpg,red,between,NA,NaN,NA,NA,NA,NA,right,1646.3000001907349,1,2,959.2999999523163
qJHjdvl9,3fk4g712o0duz4m7qhicsa7sfszsso,3i0btbyza1yth1cy7nwjpal26070y8,qJHjdvl9,2020-0188,2021-10-31,19:09:16,20:15:23,NA,incomplete,false,NA,true,NA,4,5,NA,NA,NA,right,NA,NA,NA,absent,NA,NA,n_s_085.jpg,brown,n_l_002.jpg,orange,between,NA,NaN,NA,NA,NA,NA,right,1870.7000000476837,1,1,879.2000000476837
qJHjdvl9,3fk4g712o0duz4m7qhicsa7sfszsso,3i0btbyza1yth1cy7nwjpal26070y8,qJHjdvl9,2020-0188,2021-10-31,19:09:16,20:15:23,NA,incomplete,false,NA,true,NA,4,6,NA,NA,NA,right,NA,NA,NA,absent,NA,NA,m_s_076.jpg,orange,m_l_024.jpg,green,between,NA,NaN,NA,NA,NA,NA,right,1935.7999999523163,1,1,823.5999999046326
qJHjdvl9,3fk4g712o0duz4m7qhicsa7sfszsso,3i0btbyza1yth1cy7nwjpal26070y8,qJHjdvl9,2020-0188,2021-10-31,19:09:16,20:15:23,NA,incomplete,false,NA,true,NA,4,7,NA,NA,NA,right,NA,NA,NA,absent,NA,NA,m_s_036.jpg,brown,n_s_036.jpg,brown,within,NA,NaN,NA,NA,NA,NA,right,1847.3000001907349,1,1,919.6000001430511
qJHjdvl9,3fk4g712o0duz4m7qhicsa7sfszsso,3i0btbyza1yth1cy7nwjpal26070y8,qJHjdvl9,2020-0188,2021-10-31,19:09:16,20:15:23,NA,incomplete,false,NA,true,NA,4,8,NA,NA,NA,right,NA,NA,NA,absent,NA,NA,m_s_012.jpg,red,m_s_050.jpg,red,within,NA,NaN,NA,NA,NA,NA,right,2207.2999999523163,1,1,959.2999999523163
qJHjdvl9,3fk4g712o0duz4m7qhicsa7sfszsso,3i0btbyza1yth1cy7nwjpal26070y8,qJHjdvl9,2020-0188,2021-10-31,19:09:16,20:15:23,NA,incomplete,false,NA,true,NA,4,9,NA,NA,NA,left,NA,NA,NA,absent,NA,NA,m_s_100.jpg,white,m_s_027.jpg,green,between,NA,NaN,NA,NA,NA,NA,left,1719.2999999523163,1,2,927
qJHjdvl9,3fk4g712o0duz4m7qhicsa7sfszsso,3i0btbyza1yth1cy7nwjpal26070y8,qJHjdvl9,2020-0188,2021-10-31,19:09:16,20:15:23,NA,incomplete,false,NA,true,NA,4,10,NA,NA,NA,right,NA,NA,NA,absent,NA,NA,n_s_088.jpg,orange,m_s_055.jpg,orange,within,NA,NaN,NA,NA,NA,NA,left,3606.5,0,2,966.8000001907349
qJHjdvl9,3fk4g712o0duz4m7qhicsa7sfszsso,3i0btbyza1yth1cy7nwjpal26070y8,qJHjdvl9,2020-0188,2021-10-31,19:09:16,20:15:23,NA,incomplete,false,true,NA,NA,5,0,NA,blue,m_l_091.jpg,NA,NA,NA,NA,NA,unpleasant,pleasant,NA,NA,NA,NA,NA,right,2112.20000004768,true,NA,NA,NA,NA,NA,NA,NA,NA
qJHjdvl9,3fk4g712o0duz4m7qhicsa7sfszsso,3i0btbyza1yth1cy7nwjpal26070y8,qJHjdvl9,2020-0188,2021-10-31,19:09:16,20:15:23,NA,incomplete,false,true,NA,NA,5,1,NA,blue,m_l_083.jpg,NA,NA,NA,NA,NA,pleasant,unpleasant,NA,NA,NA,NA,NA,left,1253.20000004768,true,NA,NA,NA,NA,NA,NA,NA,NA
qJHjdvl9,3fk4g712o0duz4m7qhicsa7sfszsso,3i0btbyza1yth1cy7nwjpal26070y8,qJHjdvl9,2020-0188,2021-10-31,19:09:16,20:15:23,NA,incomplete,false,true,NA,NA,5,2,NA,blue,n_s_066.jpg,NA,NA,NA,NA,NA,unpleasant,pleasant,NA,NA,NA,NA,NA,right,1178.70000004768,true,NA,NA,NA,NA,NA,NA,NA,NA
qJHjdvl9,3fk4g712o0duz4m7qhicsa7sfszsso,3i0btbyza1yth1cy7nwjpal26070y8,qJHjdvl9,2020-0188,2021-10-31,19:09:16,20:15:23,NA,incomplete,false,true,NA,NA,5,3,NA,blue,n_l_006.jpg,NA,NA,NA,NA,NA,pleasant,unpleasant,NA,NA,NA,NA,NA,left,861.599999904633,true,NA,NA,NA,NA,NA,NA,NA,NA
qJHjdvl9,3fk4g712o0duz4m7qhicsa7sfszsso,3i0btbyza1yth1cy7nwjpal26070y8,qJHjdvl9,2020-0188,2021-10-31,19:09:16,20:15:23,NA,incomplete,false,true,NA,NA,5,4,NA,blue,n_s_029.jpg,NA,NA,NA,NA,NA,unpleasant,pleasant,NA,NA,NA,NA,NA,left,1266.90000009537,true,NA,NA,NA,NA,NA,NA,NA,NA
qJHjdvl9,3fk4g712o0duz4m7qhicsa7sfszsso,3i0btbyza1yth1cy7nwjpal26070y8,qJHjdvl9,2020-0188,2021-10-31,19:09:16,20:15:23,NA,incomplete,false,true,NA,NA,5,5,NA,blue,m_s_040.jpg,NA,NA,NA,NA,NA,pleasant,unpleasant,NA,NA,NA,NA,NA,left,1000.29999995232,true,NA,NA,NA,NA,NA,NA,NA,NA
qJHjdvl9,3fk4g712o0duz4m7qhicsa7sfszsso,3i0btbyza1yth1cy7nwjpal26070y8,qJHjdvl9,2020-0188,2021-10-31,19:09:16,20:15:23,NA,incomplete,false,true,NA,NA,5,6,NA,yellow,m_s_020.jpg,NA,NA,NA,NA,NA,pleasant,unpleasant,NA,NA,NA,NA,NA,left,1074.70000004768,true,NA,NA,NA,NA,NA,NA,NA,NA
qJHjdvl9,3fk4g712o0duz4m7qhicsa7sfszsso,3i0btbyza1yth1cy7nwjpal26070y8,qJHjdvl9,2020-0188,2021-10-31,19:09:16,20:15:23,NA,incomplete,false,true,NA,NA,5,7,NA,yellow,n_s_092.jpg,NA,NA,NA,NA,NA,unpleasant,pleasant,NA,NA,NA,NA,NA,left,2503.90000009537,true,NA,NA,NA,NA,NA,NA,NA,NA
qJHjdvl9,3fk4g712o0duz4m7qhicsa7sfszsso,3i0btbyza1yth1cy7nwjpal26070y8,qJHjdvl9,2020-0188,2021-10-31,19:09:16,20:15:23,NA,incomplete,false,true,NA,NA,5,8,NA,yellow,m_s_031.jpg,NA,NA,NA,NA,NA,pleasant,unpleasant,NA,NA,NA,NA,NA,left,1066.5,true,NA,NA,NA,NA,NA,NA,NA,NA
qJHjdvl9,3fk4g712o0duz4m7qhicsa7sfszsso,3i0btbyza1yth1cy7nwjpal26070y8,qJHjdvl9,2020-0188,2021-10-31,19:09:16,20:15:23,NA,incomplete,false,true,NA,NA,5,9,NA,yellow,n_s_001.jpg,NA,NA,NA,NA,NA,unpleasant,pleasant,NA,NA,NA,NA,NA,left,1055.20000004768,true,NA,NA,NA,NA,NA,NA,NA,NA
qJHjdvl9,3fk4g712o0duz4m7qhicsa7sfszsso,3i0btbyza1yth1cy7nwjpal26070y8,qJHjdvl9,2020-0188,2021-10-31,19:09:16,20:15:23,NA,incomplete,false,true,NA,NA,5,10,NA,yellow,m_s_029.jpg,NA,NA,NA,NA,NA,pleasant,unpleasant,NA,NA,NA,NA,NA,left,1108.20000004768,true,NA,NA,NA,NA,NA,NA,NA,NA
qJHjdvl9,3fk4g712o0duz4m7qhicsa7sfszsso,3i0btbyza1yth1cy7nwjpal26070y8,qJHjdvl9,2020-0188,2021-10-31,19:09:16,20:15:23,NA,incomplete,false,true,NA,NA,5,11,NA,yellow,n_s_115.jpg,NA,NA,NA,NA,NA,unpleasant,pleasant,NA,NA,NA,NA,NA,right,1383,true,NA,NA,NA,NA,NA,NA,NA,NA
qJHjdvl9,3fk4g712o0duz4m7qhicsa7sfszsso,3i0btbyza1yth1cy7nwjpal26070y8,qJHjdvl9,2020-0188,2021-10-31,19:09:16,20:15:23,NA,incomplete,false,true,NA,NA,5,12,NA,purple,m_s_082.jpg,NA,NA,NA,NA,NA,pleasant,unpleasant,NA,NA,NA,NA,NA,right,1299.39999985695,true,NA,NA,NA,NA,NA,NA,NA,NA
qJHjdvl9,3fk4g712o0duz4m7qhicsa7sfszsso,3i0btbyza1yth1cy7nwjpal26070y8,qJHjdvl9,2020-0188,2021-10-31,19:09:16,20:15:23,NA,incomplete,false,true,NA,NA,5,13,NA,purple,m_l_021.jpg,NA,NA,NA,NA,NA,unpleasant,pleasant,NA,NA,NA,NA,NA,right,1177.29999995232,true,NA,NA,NA,NA,NA,NA,NA,NA
qJHjdvl9,3fk4g712o0duz4m7qhicsa7sfszsso,3i0btbyza1yth1cy7nwjpal26070y8,qJHjdvl9,2020-0188,2021-10-31,19:09:16,20:15:23,NA,incomplete,false,true,NA,NA,5,14,NA,purple,n_l_037.jpg,NA,NA,NA,NA,NA,pleasant,unpleasant,NA,NA,NA,NA,NA,right,1066.5,true,NA,NA,NA,NA,NA,NA,NA,NA
qJHjdvl9,3fk4g712o0duz4m7qhicsa7sfszsso,3i0btbyza1yth1cy7nwjpal26070y8,qJHjdvl9,2020-0188,2021-10-31,19:09:16,20:15:23,NA,incomplete,false,true,NA,NA,5,15,NA,purple,m_s_004.jpg,NA,NA,NA,NA,NA,pleasant,unpleasant,NA,NA,NA,NA,NA,left,1016,true,NA,NA,NA,NA,NA,NA,NA,NA
