workerId,hitId,assignmentId,subject,studyid,exp_date,exp_start,exp_end,time_start,time_end,practice,encoding,memory,association,block,trial,event_order,event,stim,answer,object,left_context,right_context,context_type,label_left,label_right,left_image,left_event,right_image,right_event,condition,response,response_time,response_acc,association_response_time,association_response,association_acc,order_response,order_response_time,order_acc,distance_response,distance_response_time
T3snscpx,39kv3a5d2bk8g62f2ek1xjbwsefs7u,3j2uybxqqppryh2s141r6j196nq60j,T3snscpx,2020-0188,2021-10-31,06:31:11,07:53:23,NA,incomplete,true,true,NA,NA,0,0,NA,white,m_s_048.jpg,NA,NA,NA,NA,NA,unpleasant,pleasant,NA,NA,NA,NA,NA,right,1704.5,true,NA,NA,NA,NA,NA,NA,NA,NA
T3snscpx,39kv3a5d2bk8g62f2ek1xjbwsefs7u,3j2uybxqqppryh2s141r6j196nq60j,T3snscpx,2020-0188,2021-10-31,06:31:11,07:53:23,NA,incomplete,true,true,NA,NA,0,1,NA,white,m_l_012.jpg,NA,NA,NA,NA,NA,pleasant,unpleasant,NA,NA,NA,NA,NA,left,2096.79999995232,true,NA,NA,NA,NA,NA,NA,NA,NA
T3snscpx,39kv3a5d2bk8g62f2ek1xjbwsefs7u,3j2uybxqqppryh2s141r6j196nq60j,T3snscpx,2020-0188,2021-10-31,06:31:11,07:53:23,NA,incomplete,true,true,NA,NA,0,2,NA,white,m_s_027.jpg,NA,NA,NA,NA,NA,pleasant,unpleasant,NA,NA,NA,NA,NA,right,3490.20000004768,true,NA,NA,NA,NA,NA,NA,NA,NA
T3snscpx,39kv3a5d2bk8g62f2ek1xjbwsefs7u,3j2uybxqqppryh2s141r6j196nq60j,T3snscpx,2020-0188,2021-10-31,06:31:11,07:53:23,NA,incomplete,true,true,NA,NA,0,3,NA,white,m_l_115.jpg,NA,NA,NA,NA,NA,pleasant,unpleasant,NA,NA,NA,NA,NA,left,1426.20000004768,true,NA,NA,NA,NA,NA,NA,NA,NA
T3snscpx,39kv3a5d2bk8g62f2ek1xjbwsefs7u,3j2uybxqqppryh2s141r6j196nq60j,T3snscpx,2020-0188,2021-10-31,06:31:11,07:53:23,NA,incomplete,true,true,NA,NA,0,4,NA,white,n_s_043.jpg,NA,NA,NA,NA,NA,unpleasant,pleasant,NA,NA,NA,NA,NA,right,3403.79999995232,true,NA,NA,NA,NA,NA,NA,NA,NA
T3snscpx,39kv3a5d2bk8g62f2ek1xjbwsefs7u,3j2uybxqqppryh2s141r6j196nq60j,T3snscpx,2020-0188,2021-10-31,06:31:11,07:53:23,NA,incomplete,true,true,NA,NA,0,5,NA,white,m_l_027.jpg,NA,NA,NA,NA,NA,pleasant,unpleasant,NA,NA,NA,NA,NA,right,2771.69999980927,true,NA,NA,NA,NA,NA,NA,NA,NA
T3snscpx,39kv3a5d2bk8g62f2ek1xjbwsefs7u,3j2uybxqqppryh2s141r6j196nq60j,T3snscpx,2020-0188,2021-10-31,06:31:11,07:53:23,NA,incomplete,true,true,NA,NA,0,6,NA,red,n_s_056.jpg,NA,NA,NA,NA,NA,unpleasant,pleasant,NA,NA,NA,NA,NA,left,2317.10000014305,true,NA,NA,NA,NA,NA,NA,NA,NA
T3snscpx,39kv3a5d2bk8g62f2ek1xjbwsefs7u,3j2uybxqqppryh2s141r6j196nq60j,T3snscpx,2020-0188,2021-10-31,06:31:11,07:53:23,NA,incomplete,true,true,NA,NA,0,7,NA,red,m_s_007.jpg,NA,NA,NA,NA,NA,unpleasant,pleasant,NA,NA,NA,NA,NA,left,2766.20000004768,true,NA,NA,NA,NA,NA,NA,NA,NA
T3snscpx,39kv3a5d2bk8g62f2ek1xjbwsefs7u,3j2uybxqqppryh2s141r6j196nq60j,T3snscpx,2020-0188,2021-10-31,06:31:11,07:53:23,NA,incomplete,true,true,NA,NA,0,8,NA,red,n_l_069.jpg,NA,NA,NA,NA,NA,unpleasant,pleasant,NA,NA,NA,NA,NA,left,2327.10000014305,true,NA,NA,NA,NA,NA,NA,NA,NA
T3snscpx,39kv3a5d2bk8g62f2ek1xjbwsefs7u,3j2uybxqqppryh2s141r6j196nq60j,T3snscpx,2020-0188,2021-10-31,06:31:11,07:53:23,NA,incomplete,true,true,NA,NA,0,9,NA,red,n_s_094.jpg,NA,NA,NA,NA,NA,pleasant,unpleasant,NA,NA,NA,NA,NA,left,2919.70000004768,true,NA,NA,NA,NA,NA,NA,NA,NA
T3snscpx,39kv3a5d2bk8g62f2ek1xjbwsefs7u,3j2uybxqqppryh2s141r6j196nq60j,T3snscpx,2020-0188,2021-10-31,06:31:11,07:53:23,NA,incomplete,true,true,NA,NA,0,10,NA,red,n_l_083.jpg,NA,NA,NA,NA,NA,unpleasant,pleasant,NA,NA,NA,NA,NA,left,2512.70000004768,true,NA,NA,NA,NA,NA,NA,NA,NA
T3snscpx,39kv3a5d2bk8g62f2ek1xjbwsefs7u,3j2uybxqqppryh2s141r6j196nq60j,T3snscpx,2020-0188,2021-10-31,06:31:11,07:53:23,NA,incomplete,true,true,NA,NA,0,11,NA,red,n_l_026.jpg,NA,NA,NA,NA,NA,pleasant,unpleasant,NA,NA,NA,NA,NA,left,2914,true,NA,NA,NA,NA,NA,NA,NA,NA
T3snscpx,39kv3a5d2bk8g62f2ek1xjbwsefs7u,3j2uybxqqppryh2s141r6j196nq60j,T3snscpx,2020-0188,2021-10-31,06:31:11,07:53:23,NA,incomplete,true,true,NA,NA,0,12,NA,yellow,m_s_051.jpg,NA,NA,NA,NA,NA,pleasant,unpleasant,NA,NA,NA,NA,NA,left,2211,true,NA,NA,NA,NA,NA,NA,NA,NA
T3snscpx,39kv3a5d2bk8g62f2ek1xjbwsefs7u,3j2uybxqqppryh2s141r6j196nq60j,T3snscpx,2020-0188,2021-10-31,06:31:11,07:53:23,NA,incomplete,true,true,NA,NA,0,13,NA,yellow,n_s_038.jpg,NA,NA,NA,NA,NA,unpleasant,pleasant,NA,NA,NA,NA,NA,left,1869.09999990463,true,NA,NA,NA,NA,NA,NA,NA,NA
T3snscpx,39kv3a5d2bk8g62f2ek1xjbwsefs7u,3j2uybxqqppryh2s141r6j196nq60j,T3snscpx,2020-0188,2021-10-31,06:31:11,07:53:23,NA,incomplete,true,true,NA,NA,0,14,NA,yellow,m_l_004.jpg,NA,NA,NA,NA,NA,pleasant,unpleasant,NA,NA,NA,NA,NA,left,2774.59999990463,true,NA,NA,NA,NA,NA,NA,NA,NA
T3snscpx,39kv3a5d2bk8g62f2ek1xjbwsefs7u,3j2uybxqqppryh2s141r6j196nq60j,T3snscpx,2020-0188,2021-10-31,06:31:11,07:53:23,NA,incomplete,true,true,NA,NA,0,15,NA,yellow,n_l_039.jpg,NA,NA,NA,NA,NA,unpleasant,pleasant,NA,NA,NA,NA,NA,right,1702.5,true,NA,NA,NA,NA,NA,NA,NA,NA
T3snscpx,39kv3a5d2bk8g62f2ek1xjbwsefs7u,3j2uybxqqppryh2s141r6j196nq60j,T3snscpx,2020-0188,2021-10-31,06:31:11,07:53:23,NA,incomplete,true,true,NA,NA,0,16,NA,yellow,m_l_105.jpg,NA,NA,NA,NA,NA,pleasant,unpleasant,NA,NA,NA,NA,NA,right,2615.10000014305,true,NA,NA,NA,NA,NA,NA,NA,NA
T3snscpx,39kv3a5d2bk8g62f2ek1xjbwsefs7u,3j2uybxqqppryh2s141r6j196nq60j,T3snscpx,2020-0188,2021-10-31,06:31:11,07:53:23,NA,incomplete,true,true,NA,NA,0,17,NA,yellow,m_l_008.jpg,NA,NA,NA,NA,NA,unpleasant,pleasant,NA,NA,NA,NA,NA,right,1585,true,NA,NA,NA,NA,NA,NA,NA,NA
T3snscpx,39kv3a5d2bk8g62f2ek1xjbwsefs7u,3j2uybxqqppryh2s141r6j196nq60j,T3snscpx,2020-0188,2021-10-31,06:31:11,07:53:23,NA,incomplete,true,true,NA,NA,0,18,NA,green,m_l_095.jpg,NA,NA,NA,NA,NA,pleasant,unpleasant,NA,NA,NA,NA,NA,right,3297.40000009537,true,NA,NA,NA,NA,NA,NA,NA,NA
T3snscpx,39kv3a5d2bk8g62f2ek1xjbwsefs7u,3j2uybxqqppryh2s141r6j196nq60j,T3snscpx,2020-0188,2021-10-31,06:31:11,07:53:23,NA,incomplete,true,true,NA,NA,0,19,NA,green,n_l_071.jpg,NA,NA,NA,NA,NA,pleasant,unpleasant,NA,NA,NA,NA,NA,left,1378.19999980927,true,NA,NA,NA,NA,NA,NA,NA,NA
T3snscpx,39kv3a5d2bk8g62f2ek1xjbwsefs7u,3j2uybxqqppryh2s141r6j196nq60j,T3snscpx,2020-0188,2021-10-31,06:31:11,07:53:23,NA,incomplete,true,true,NA,NA,0,20,NA,green,m_s_035.jpg,NA,NA,NA,NA,NA,unpleasant,pleasant,NA,NA,NA,NA,NA,right,2500.5,true,NA,NA,NA,NA,NA,NA,NA,NA
T3snscpx,39kv3a5d2bk8g62f2ek1xjbwsefs7u,3j2uybxqqppryh2s141r6j196nq60j,T3snscpx,2020-0188,2021-10-31,06:31:11,07:53:23,NA,incomplete,true,true,NA,NA,0,21,NA,green,n_s_081.jpg,NA,NA,NA,NA,NA,unpleasant,pleasant,NA,NA,NA,NA,NA,left,2004.39999985695,true,NA,NA,NA,NA,NA,NA,NA,NA
T3snscpx,39kv3a5d2bk8g62f2ek1xjbwsefs7u,3j2uybxqqppryh2s141r6j196nq60j,T3snscpx,2020-0188,2021-10-31,06:31:11,07:53:23,NA,incomplete,true,true,NA,NA,0,22,NA,green,m_s_082.jpg,NA,NA,NA,NA,NA,unpleasant,pleasant,NA,NA,NA,NA,NA,left,2116.69999980927,true,NA,NA,NA,NA,NA,NA,NA,NA
T3snscpx,39kv3a5d2bk8g62f2ek1xjbwsefs7u,3j2uybxqqppryh2s141r6j196nq60j,T3snscpx,2020-0188,2021-10-31,06:31:11,07:53:23,NA,incomplete,true,true,NA,NA,0,23,NA,green,m_s_059.jpg,NA,NA,NA,NA,NA,pleasant,unpleasant,NA,NA,NA,NA,NA,left,1926.30000019073,true,NA,NA,NA,NA,NA,NA,NA,NA
T3snscpx,39kv3a5d2bk8g62f2ek1xjbwsefs7u,3j2uybxqqppryh2s141r6j196nq60j,T3snscpx,2020-0188,2021-10-31,06:31:11,07:53:23,NA,incomplete,true,true,NA,NA,0,24,NA,gray,n_l_003.jpg,NA,NA,NA,NA,NA,pleasant,unpleasant,NA,NA,NA,NA,NA,left,1463.20000004768,true,NA,NA,NA,NA,NA,NA,NA,NA
T3snscpx,39kv3a5d2bk8g62f2ek1xjbwsefs7u,3j2uybxqqppryh2s141r6j196nq60j,T3snscpx,2020-0188,2021-10-31,06:31:11,07:53:23,NA,incomplete,true,true,NA,NA,0,25,NA,gray,n_s_084.jpg,NA,NA,NA,NA,NA,unpleasant,pleasant,NA,NA,NA,NA,NA,left,2546,true,NA,NA,NA,NA,NA,NA,NA,NA
T3snscpx,39kv3a5d2bk8g62f2ek1xjbwsefs7u,3j2uybxqqppryh2s141r6j196nq60j,T3snscpx,2020-0188,2021-10-31,06:31:11,07:53:23,NA,incomplete,true,true,NA,NA,0,26,NA,gray,m_l_092.jpg,NA,NA,NA,NA,NA,unpleasant,pleasant,NA,NA,NA,NA,NA,right,1499.70000004768,true,NA,NA,NA,NA,NA,NA,NA,NA
T3snscpx,39kv3a5d2bk8g62f2ek1xjbwsefs7u,3j2uybxqqppryh2s141r6j196nq60j,T3snscpx,2020-0188,2021-10-31,06:31:11,07:53:23,NA,incomplete,true,true,NA,NA,0,27,NA,gray,m_s_081.jpg,NA,NA,NA,NA,NA,unpleasant,pleasant,NA,NA,NA,NA,NA,right,2363,true,NA,NA,NA,NA,NA,NA,NA,NA
T3snscpx,39kv3a5d2bk8g62f2ek1xjbwsefs7u,3j2uybxqqppryh2s141r6j196nq60j,T3snscpx,2020-0188,2021-10-31,06:31:11,07:53:23,NA,incomplete,true,true,NA,NA,0,28,NA,gray,m_l_107.jpg,NA,NA,NA,NA,NA,unpleasant,pleasant,NA,NA,NA,NA,NA,left,2084.5,true,NA,NA,NA,NA,NA,NA,NA,NA
T3snscpx,39kv3a5d2bk8g62f2ek1xjbwsefs7u,3j2uybxqqppryh2s141r6j196nq60j,T3snscpx,2020-0188,2021-10-31,06:31:11,07:53:23,NA,incomplete,true,true,NA,NA,0,29,NA,gray,n_l_030.jpg,NA,NA,NA,NA,NA,pleasant,unpleasant,NA,NA,NA,NA,NA,left,1903,true,NA,NA,NA,NA,NA,NA,NA,NA
T3snscpx,39kv3a5d2bk8g62f2ek1xjbwsefs7u,3j2uybxqqppryh2s141r6j196nq60j,T3snscpx,2020-0188,2021-10-31,06:31:11,07:53:23,NA,incomplete,true,true,NA,NA,0,30,NA,black,n_l_093.jpg,NA,NA,NA,NA,NA,pleasant,unpleasant,NA,NA,NA,NA,NA,right,1894.90000009537,true,NA,NA,NA,NA,NA,NA,NA,NA
T3snscpx,39kv3a5d2bk8g62f2ek1xjbwsefs7u,3j2uybxqqppryh2s141r6j196nq60j,T3snscpx,2020-0188,2021-10-31,06:31:11,07:53:23,NA,incomplete,true,true,NA,NA,0,31,NA,black,n_s_075.jpg,NA,NA,NA,NA,NA,unpleasant,pleasant,NA,NA,NA,NA,NA,right,1760.09999990463,true,NA,NA,NA,NA,NA,NA,NA,NA
T3snscpx,39kv3a5d2bk8g62f2ek1xjbwsefs7u,3j2uybxqqppryh2s141r6j196nq60j,T3snscpx,2020-0188,2021-10-31,06:31:11,07:53:23,NA,incomplete,true,true,NA,NA,0,32,NA,black,m_l_084.jpg,NA,NA,NA,NA,NA,unpleasant,pleasant,NA,NA,NA,NA,NA,right,2410,true,NA,NA,NA,NA,NA,NA,NA,NA
T3snscpx,39kv3a5d2bk8g62f2ek1xjbwsefs7u,3j2uybxqqppryh2s141r6j196nq60j,T3snscpx,2020-0188,2021-10-31,06:31:11,07:53:23,NA,incomplete,true,true,NA,NA,0,33,NA,black,m_l_018.jpg,NA,NA,NA,NA,NA,unpleasant,pleasant,NA,NA,NA,NA,NA,right,2106.80000019073,true,NA,NA,NA,NA,NA,NA,NA,NA
T3snscpx,39kv3a5d2bk8g62f2ek1xjbwsefs7u,3j2uybxqqppryh2s141r6j196nq60j,T3snscpx,2020-0188,2021-10-31,06:31:11,07:53:23,NA,incomplete,true,true,NA,NA,0,34,NA,black,m_l_088.jpg,NA,NA,NA,NA,NA,unpleasant,pleasant,NA,NA,NA,NA,NA,right,3370.10000014305,true,NA,NA,NA,NA,NA,NA,NA,NA
T3snscpx,39kv3a5d2bk8g62f2ek1xjbwsefs7u,3j2uybxqqppryh2s141r6j196nq60j,T3snscpx,2020-0188,2021-10-31,06:31:11,07:53:23,NA,incomplete,true,true,NA,NA,0,35,NA,black,m_s_057.jpg,NA,NA,NA,NA,NA,unpleasant,pleasant,NA,NA,NA,NA,NA,right,1516.20000004768,true,NA,NA,NA,NA,NA,NA,NA,NA
T3snscpx,39kv3a5d2bk8g62f2ek1xjbwsefs7u,3j2uybxqqppryh2s141r6j196nq60j,T3snscpx,2020-0188,2021-10-31,06:31:11,07:53:23,NA,incomplete,true,NA,NA,true,0,0,NA,NA,NA,right,n_s_038.jpg,green,yellow,NA,NA,NA,NA,NA,NA,NA,NA,NA,NaN,NA,6847.299999952316,right,1,NA,NA,NA,NA,NA
T3snscpx,39kv3a5d2bk8g62f2ek1xjbwsefs7u,3j2uybxqqppryh2s141r6j196nq60j,T3snscpx,2020-0188,2021-10-31,06:31:11,07:53:23,NA,incomplete,true,NA,NA,true,0,1,NA,NA,NA,right,m_l_092.jpg,green,gray,NA,NA,NA,NA,NA,NA,NA,NA,NA,NaN,NA,2574.9000000953674,right,1,NA,NA,NA,NA,NA
T3snscpx,39kv3a5d2bk8g62f2ek1xjbwsefs7u,3j2uybxqqppryh2s141r6j196nq60j,T3snscpx,2020-0188,2021-10-31,06:31:11,07:53:23,NA,incomplete,true,NA,NA,true,0,2,NA,NA,NA,left,m_s_035.jpg,green,yellow,NA,NA,NA,NA,NA,NA,NA,NA,NA,NaN,NA,2903.300000190735,right,0,NA,NA,NA,NA,NA
T3snscpx,39kv3a5d2bk8g62f2ek1xjbwsefs7u,3j2uybxqqppryh2s141r6j196nq60j,T3snscpx,2020-0188,2021-10-31,06:31:11,07:53:23,NA,incomplete,true,NA,NA,true,0,3,NA,NA,NA,right,m_l_012.jpg,red,white,NA,NA,NA,NA,NA,NA,NA,NA,NA,NaN,NA,2359.4000000953674,right,1,NA,NA,NA,NA,NA
T3snscpx,39kv3a5d2bk8g62f2ek1xjbwsefs7u,3j2uybxqqppryh2s141r6j196nq60j,T3snscpx,2020-0188,2021-10-31,06:31:11,07:53:23,NA,incomplete,true,NA,NA,true,0,4,NA,NA,NA,left,n_l_069.jpg,red,white,NA,NA,NA,NA,NA,NA,NA,NA,NA,NaN,NA,3799.300000190735,left,1,NA,NA,NA,NA,NA
T3snscpx,39kv3a5d2bk8g62f2ek1xjbwsefs7u,3j2uybxqqppryh2s141r6j196nq60j,T3snscpx,2020-0188,2021-10-31,06:31:11,07:53:23,NA,incomplete,true,NA,NA,true,0,5,NA,NA,NA,left,n_l_030.jpg,gray,black,NA,NA,NA,NA,NA,NA,NA,NA,NA,NaN,NA,2247.600000143051,left,1,NA,NA,NA,NA,NA
T3snscpx,39kv3a5d2bk8g62f2ek1xjbwsefs7u,3j2uybxqqppryh2s141r6j196nq60j,T3snscpx,2020-0188,2021-10-31,06:31:11,07:53:23,NA,incomplete,true,NA,NA,true,0,6,NA,NA,NA,right,m_l_004.jpg,green,yellow,NA,NA,NA,NA,NA,NA,NA,NA,NA,NaN,NA,2791.4000000953674,right,1,NA,NA,NA,NA,NA
T3snscpx,39kv3a5d2bk8g62f2ek1xjbwsefs7u,3j2uybxqqppryh2s141r6j196nq60j,T3snscpx,2020-0188,2021-10-31,06:31:11,07:53:23,NA,incomplete,true,NA,NA,true,0,7,NA,NA,NA,right,m_s_082.jpg,yellow,green,NA,NA,NA,NA,NA,NA,NA,NA,NA,NaN,NA,3239.4000000953674,right,1,NA,NA,NA,NA,NA
T3snscpx,39kv3a5d2bk8g62f2ek1xjbwsefs7u,3j2uybxqqppryh2s141r6j196nq60j,T3snscpx,2020-0188,2021-10-31,06:31:11,07:53:23,NA,incomplete,true,NA,NA,true,0,8,NA,NA,NA,right,m_s_007.jpg,yellow,red,NA,NA,NA,NA,NA,NA,NA,NA,NA,NaN,NA,2655.300000190735,left,0,NA,NA,NA,NA,NA
T3snscpx,39kv3a5d2bk8g62f2ek1xjbwsefs7u,3j2uybxqqppryh2s141r6j196nq60j,T3snscpx,2020-0188,2021-10-31,06:31:11,07:53:23,NA,incomplete,true,NA,NA,true,0,9,NA,NA,NA,left,n_s_075.jpg,black,gray,NA,NA,NA,NA,NA,NA,NA,NA,NA,NaN,NA,4879.5,right,0,NA,NA,NA,NA,NA
T3snscpx,39kv3a5d2bk8g62f2ek1xjbwsefs7u,3j2uybxqqppryh2s141r6j196nq60j,T3snscpx,2020-0188,2021-10-31,06:31:11,07:53:23,NA,incomplete,true,NA,NA,true,0,10,NA,NA,NA,left,n_s_043.jpg,white,red,NA,NA,NA,NA,NA,NA,NA,NA,NA,NaN,NA,6335.299999952316,left,1,NA,NA,NA,NA,NA
T3snscpx,39kv3a5d2bk8g62f2ek1xjbwsefs7u,3j2uybxqqppryh2s141r6j196nq60j,T3snscpx,2020-0188,2021-10-31,06:31:11,07:53:23,NA,incomplete,true,NA,NA,true,0,11,NA,NA,NA,left,m_l_027.jpg,white,red,NA,NA,NA,NA,NA,NA,NA,NA,NA,NaN,NA,2079,right,0,NA,NA,NA,NA,NA
T3snscpx,39kv3a5d2bk8g62f2ek1xjbwsefs7u,3j2uybxqqppryh2s141r6j196nq60j,T3snscpx,2020-0188,2021-10-31,06:31:11,07:53:23,NA,incomplete,true,NA,NA,true,0,12,NA,NA,NA,left,n_l_026.jpg,red,white,NA,NA,NA,NA,NA,NA,NA,NA,NA,NaN,NA,2911.5,right,0,NA,NA,NA,NA,NA
T3snscpx,39kv3a5d2bk8g62f2ek1xjbwsefs7u,3j2uybxqqppryh2s141r6j196nq60j,T3snscpx,2020-0188,2021-10-31,06:31:11,07:53:23,NA,incomplete,true,NA,NA,true,0,13,NA,NA,NA,left,m_l_107.jpg,gray,green,NA,NA,NA,NA,NA,NA,NA,NA,NA,NaN,NA,4591.700000047684,left,1,NA,NA,NA,NA,NA
T3snscpx,39kv3a5d2bk8g62f2ek1xjbwsefs7u,3j2uybxqqppryh2s141r6j196nq60j,T3snscpx,2020-0188,2021-10-31,06:31:11,07:53:23,NA,incomplete,true,NA,NA,true,0,14,NA,NA,NA,right,m_l_084.jpg,gray,black,NA,NA,NA,NA,NA,NA,NA,NA,NA,NaN,NA,2799.300000190735,right,1,NA,NA,NA,NA,NA
T3snscpx,39kv3a5d2bk8g62f2ek1xjbwsefs7u,3j2uybxqqppryh2s141r6j196nq60j,T3snscpx,2020-0188,2021-10-31,06:31:11,07:53:23,NA,incomplete,true,NA,NA,true,0,15,NA,NA,NA,left,n_s_084.jpg,gray,green,NA,NA,NA,NA,NA,NA,NA,NA,NA,NaN,NA,2534.9000000953674,left,1,NA,NA,NA,NA,NA
T3snscpx,39kv3a5d2bk8g62f2ek1xjbwsefs7u,3j2uybxqqppryh2s141r6j196nq60j,T3snscpx,2020-0188,2021-10-31,06:31:11,07:53:23,NA,incomplete,true,NA,NA,true,0,16,NA,NA,NA,left,m_s_059.jpg,green,gray,NA,NA,NA,NA,NA,NA,NA,NA,NA,NaN,NA,2103.4000000953674,right,0,NA,NA,NA,NA,NA
T3snscpx,39kv3a5d2bk8g62f2ek1xjbwsefs7u,3j2uybxqqppryh2s141r6j196nq60j,T3snscpx,2020-0188,2021-10-31,06:31:11,07:53:23,NA,incomplete,true,NA,NA,true,0,17,NA,NA,NA,right,m_s_057.jpg,gray,black,NA,NA,NA,NA,NA,NA,NA,NA,NA,NaN,NA,3007.300000190735,left,0,NA,NA,NA,NA,NA
T3snscpx,39kv3a5d2bk8g62f2ek1xjbwsefs7u,3j2uybxqqppryh2s141r6j196nq60j,T3snscpx,2020-0188,2021-10-31,06:31:11,07:53:23,NA,incomplete,true,NA,NA,true,0,18,NA,NA,NA,right,n_l_083.jpg,yellow,red,NA,NA,NA,NA,NA,NA,NA,NA,NA,NaN,NA,2711.4000000953674,right,1,NA,NA,NA,NA,NA
T3snscpx,39kv3a5d2bk8g62f2ek1xjbwsefs7u,3j2uybxqqppryh2s141r6j196nq60j,T3snscpx,2020-0188,2021-10-31,06:31:11,07:53:23,NA,incomplete,true,NA,NA,true,0,19,NA,NA,NA,left,n_l_071.jpg,green,gray,NA,NA,NA,NA,NA,NA,NA,NA,NA,NaN,NA,3927.2000000476837,right,0,NA,NA,NA,NA,NA
T3snscpx,39kv3a5d2bk8g62f2ek1xjbwsefs7u,3j2uybxqqppryh2s141r6j196nq60j,T3snscpx,2020-0188,2021-10-31,06:31:11,07:53:23,NA,incomplete,true,NA,NA,true,0,20,NA,NA,NA,right,m_l_008.jpg,red,yellow,NA,NA,NA,NA,NA,NA,NA,NA,NA,NaN,NA,3047.399999856949,left,0,NA,NA,NA,NA,NA
T3snscpx,39kv3a5d2bk8g62f2ek1xjbwsefs7u,3j2uybxqqppryh2s141r6j196nq60j,T3snscpx,2020-0188,2021-10-31,06:31:11,07:53:23,NA,incomplete,true,NA,NA,true,0,21,NA,NA,NA,right,m_l_105.jpg,green,yellow,NA,NA,NA,NA,NA,NA,NA,NA,NA,NaN,NA,3719.4000000953674,right,1,NA,NA,NA,NA,NA
T3snscpx,39kv3a5d2bk8g62f2ek1xjbwsefs7u,3j2uybxqqppryh2s141r6j196nq60j,T3snscpx,2020-0188,2021-10-31,06:31:11,07:53:23,NA,incomplete,true,NA,true,NA,0,0,NA,NA,NA,left,NA,NA,NA,present,NA,NA,n_s_075.jpg,black,m_s_057.jpg,black,within,NA,NaN,NA,NA,NA,NA,right,6646.200000047684,0,1,8318.900000095367
T3snscpx,39kv3a5d2bk8g62f2ek1xjbwsefs7u,3j2uybxqqppryh2s141r6j196nq60j,T3snscpx,2020-0188,2021-10-31,06:31:11,07:53:23,NA,incomplete,true,NA,true,NA,0,1,NA,NA,NA,right,NA,NA,NA,present,NA,NA,m_l_008.jpg,yellow,n_s_038.jpg,yellow,within,NA,NaN,NA,NA,NA,NA,left,3782.7999999523163,0,2,2975.2999999523163
T3snscpx,39kv3a5d2bk8g62f2ek1xjbwsefs7u,3j2uybxqqppryh2s141r6j196nq60j,T3snscpx,2020-0188,2021-10-31,06:31:11,07:53:23,NA,incomplete,true,NA,true,NA,0,2,NA,NA,NA,right,NA,NA,NA,present,NA,NA,m_s_035.jpg,green,m_l_105.jpg,yellow,between,NA,NaN,NA,NA,NA,NA,right,8335.399999856949,1,2,1383.7000000476837
T3snscpx,39kv3a5d2bk8g62f2ek1xjbwsefs7u,3j2uybxqqppryh2s141r6j196nq60j,T3snscpx,2020-0188,2021-10-31,06:31:11,07:53:23,NA,incomplete,true,NA,true,NA,0,3,NA,NA,NA,right,NA,NA,NA,present,NA,NA,m_l_092.jpg,gray,m_s_082.jpg,green,between,NA,NaN,NA,NA,NA,NA,right,3863.399999856949,1,2,1503.7000000476837
T3snscpx,39kv3a5d2bk8g62f2ek1xjbwsefs7u,3j2uybxqqppryh2s141r6j196nq60j,T3snscpx,2020-0188,2021-10-31,06:31:11,07:53:23,NA,incomplete,true,NA,true,NA,0,4,NA,NA,NA,left,NA,NA,NA,present,NA,NA,n_l_071.jpg,green,m_s_059.jpg,green,within,NA,NaN,NA,NA,NA,NA,left,5063.299999952316,1,0,1527.4000000953674
T3snscpx,39kv3a5d2bk8g62f2ek1xjbwsefs7u,3j2uybxqqppryh2s141r6j196nq60j,T3snscpx,2020-0188,2021-10-31,06:31:11,07:53:23,NA,incomplete,true,NA,true,NA,0,5,NA,NA,NA,right,NA,NA,NA,present,NA,NA,m_l_027.jpg,white,m_l_012.jpg,white,within,NA,NaN,NA,NA,NA,NA,left,5111.5,0,0,1319.1000001430511
T3snscpx,39kv3a5d2bk8g62f2ek1xjbwsefs7u,3j2uybxqqppryh2s141r6j196nq60j,T3snscpx,2020-0188,2021-10-31,06:31:11,07:53:23,NA,incomplete,true,NA,true,NA,0,6,NA,NA,NA,left,NA,NA,NA,present,NA,NA,m_l_107.jpg,gray,m_l_084.jpg,black,between,NA,NaN,NA,NA,NA,NA,left,3887.2000000476837,1,1,2311.2000000476837
T3snscpx,39kv3a5d2bk8g62f2ek1xjbwsefs7u,3j2uybxqqppryh2s141r6j196nq60j,T3snscpx,2020-0188,2021-10-31,06:31:11,07:53:23,NA,incomplete,true,NA,true,NA,0,7,NA,NA,NA,right,NA,NA,NA,present,NA,NA,n_l_026.jpg,red,m_s_007.jpg,red,within,NA,NaN,NA,NA,NA,NA,left,3879.2999999523163,0,1,1071.3000001907349
T3snscpx,39kv3a5d2bk8g62f2ek1xjbwsefs7u,3j2uybxqqppryh2s141r6j196nq60j,T3snscpx,2020-0188,2021-10-31,06:31:11,07:53:23,NA,incomplete,true,NA,true,NA,0,8,NA,NA,NA,right,NA,NA,NA,present,NA,NA,n_l_030.jpg,gray,n_s_084.jpg,gray,within,NA,NaN,NA,NA,NA,NA,right,5383.299999952316,1,1,1015.2999999523163
T3snscpx,39kv3a5d2bk8g62f2ek1xjbwsefs7u,3j2uybxqqppryh2s141r6j196nq60j,T3snscpx,2020-0188,2021-10-31,06:31:11,07:53:23,NA,incomplete,true,NA,true,NA,0,9,NA,NA,NA,right,NA,NA,NA,present,NA,NA,n_l_069.jpg,red,n_s_043.jpg,white,between,NA,NaN,NA,NA,NA,NA,right,4143.200000047684,1,2,1919.3999998569489
T3snscpx,39kv3a5d2bk8g62f2ek1xjbwsefs7u,3j2uybxqqppryh2s141r6j196nq60j,T3snscpx,2020-0188,2021-10-31,06:31:11,07:53:23,NA,incomplete,true,NA,true,NA,0,10,NA,NA,NA,left,NA,NA,NA,present,NA,NA,n_l_083.jpg,red,m_l_004.jpg,yellow,between,NA,NaN,NA,NA,NA,NA,right,3015.2999999523163,0,2,1375.3999998569489
T3snscpx,39kv3a5d2bk8g62f2ek1xjbwsefs7u,3j2uybxqqppryh2s141r6j196nq60j,T3snscpx,2020-0188,2021-10-31,06:31:11,07:53:23,NA,incomplete,false,true,NA,NA,1,0,NA,yellow,n_s_065.jpg,NA,NA,NA,NA,NA,pleasant,unpleasant,NA,NA,NA,NA,NA,right,2885.20000004768,true,NA,NA,NA,NA,NA,NA,NA,NA
T3snscpx,39kv3a5d2bk8g62f2ek1xjbwsefs7u,3j2uybxqqppryh2s141r6j196nq60j,T3snscpx,2020-0188,2021-10-31,06:31:11,07:53:23,NA,incomplete,false,true,NA,NA,1,1,NA,yellow,m_l_061.jpg,NA,NA,NA,NA,NA,unpleasant,pleasant,NA,NA,NA,NA,NA,left,1949,true,NA,NA,NA,NA,NA,NA,NA,NA
T3snscpx,39kv3a5d2bk8g62f2ek1xjbwsefs7u,3j2uybxqqppryh2s141r6j196nq60j,T3snscpx,2020-0188,2021-10-31,06:31:11,07:53:23,NA,incomplete,false,true,NA,NA,1,2,NA,yellow,m_l_065.jpg,NA,NA,NA,NA,NA,pleasant,unpleasant,NA,NA,NA,NA,NA,left,1224.19999980927,true,NA,NA,NA,NA,NA,NA,NA,NA
T3snscpx,39kv3a5d2bk8g62f2ek1xjbwsefs7u,3j2uybxqqppryh2s141r6j196nq60j,T3snscpx,2020-0188,2021-10-31,06:31:11,07:53:23,NA,incomplete,false,true,NA,NA,1,3,NA,yellow,n_s_011.jpg,NA,NA,NA,NA,NA,pleasant,unpleasant,NA,NA,NA,NA,NA,left,1552.5,true,NA,NA,NA,NA,NA,NA,NA,NA
T3snscpx,39kv3a5d2bk8g62f2ek1xjbwsefs7u,3j2uybxqqppryh2s141r6j196nq60j,T3snscpx,2020-0188,2021-10-31,06:31:11,07:53:23,NA,incomplete,false,true,NA,NA,1,4,NA,yellow,m_l_085.jpg,NA,NA,NA,NA,NA,pleasant,unpleasant,NA,NA,NA,NA,NA,left,1824.69999980927,true,NA,NA,NA,NA,NA,NA,NA,NA
T3snscpx,39kv3a5d2bk8g62f2ek1xjbwsefs7u,3j2uybxqqppryh2s141r6j196nq60j,T3snscpx,2020-0188,2021-10-31,06:31:11,07:53:23,NA,incomplete,false,true,NA,NA,1,5,NA,yellow,n_l_080.jpg,NA,NA,NA,NA,NA,pleasant,unpleasant,NA,NA,NA,NA,NA,right,2203.5,true,NA,NA,NA,NA,NA,NA,NA,NA
T3snscpx,39kv3a5d2bk8g62f2ek1xjbwsefs7u,3j2uybxqqppryh2s141r6j196nq60j,T3snscpx,2020-0188,2021-10-31,06:31:11,07:53:23,NA,incomplete,false,true,NA,NA,1,6,NA,gray,m_s_117.jpg,NA,NA,NA,NA,NA,unpleasant,pleasant,NA,NA,NA,NA,NA,right,2339.20000004768,true,NA,NA,NA,NA,NA,NA,NA,NA
T3snscpx,39kv3a5d2bk8g62f2ek1xjbwsefs7u,3j2uybxqqppryh2s141r6j196nq60j,T3snscpx,2020-0188,2021-10-31,06:31:11,07:53:23,NA,incomplete,false,true,NA,NA,1,7,NA,gray,n_s_008.jpg,NA,NA,NA,NA,NA,unpleasant,pleasant,NA,NA,NA,NA,NA,right,1355.79999995232,true,NA,NA,NA,NA,NA,NA,NA,NA
T3snscpx,39kv3a5d2bk8g62f2ek1xjbwsefs7u,3j2uybxqqppryh2s141r6j196nq60j,T3snscpx,2020-0188,2021-10-31,06:31:11,07:53:23,NA,incomplete,false,true,NA,NA,1,8,NA,gray,n_l_102.jpg,NA,NA,NA,NA,NA,unpleasant,pleasant,NA,NA,NA,NA,NA,right,2532.5,true,NA,NA,NA,NA,NA,NA,NA,NA
T3snscpx,39kv3a5d2bk8g62f2ek1xjbwsefs7u,3j2uybxqqppryh2s141r6j196nq60j,T3snscpx,2020-0188,2021-10-31,06:31:11,07:53:23,NA,incomplete,false,true,NA,NA,1,9,NA,gray,m_s_012.jpg,NA,NA,NA,NA,NA,pleasant,unpleasant,NA,NA,NA,NA,NA,left,2013.60000014305,true,NA,NA,NA,NA,NA,NA,NA,NA
T3snscpx,39kv3a5d2bk8g62f2ek1xjbwsefs7u,3j2uybxqqppryh2s141r6j196nq60j,T3snscpx,2020-0188,2021-10-31,06:31:11,07:53:23,NA,incomplete,false,true,NA,NA,1,10,NA,gray,m_s_044.jpg,NA,NA,NA,NA,NA,pleasant,unpleasant,NA,NA,NA,NA,NA,left,1999,true,NA,NA,NA,NA,NA,NA,NA,NA
T3snscpx,39kv3a5d2bk8g62f2ek1xjbwsefs7u,3j2uybxqqppryh2s141r6j196nq60j,T3snscpx,2020-0188,2021-10-31,06:31:11,07:53:23,NA,incomplete,false,true,NA,NA,1,11,NA,gray,m_s_092.jpg,NA,NA,NA,NA,NA,pleasant,unpleasant,NA,NA,NA,NA,NA,right,2024.69999980927,true,NA,NA,NA,NA,NA,NA,NA,NA
T3snscpx,39kv3a5d2bk8g62f2ek1xjbwsefs7u,3j2uybxqqppryh2s141r6j196nq60j,T3snscpx,2020-0188,2021-10-31,06:31:11,07:53:23,NA,incomplete,false,true,NA,NA,1,12,NA,blue,n_s_057.jpg,NA,NA,NA,NA,NA,unpleasant,pleasant,NA,NA,NA,NA,NA,left,2369.70000004768,true,NA,NA,NA,NA,NA,NA,NA,NA
T3snscpx,39kv3a5d2bk8g62f2ek1xjbwsefs7u,3j2uybxqqppryh2s141r6j196nq60j,T3snscpx,2020-0188,2021-10-31,06:31:11,07:53:23,NA,incomplete,false,true,NA,NA,1,13,NA,blue,m_s_102.jpg,NA,NA,NA,NA,NA,unpleasant,pleasant,NA,NA,NA,NA,NA,right,2378,true,NA,NA,NA,NA,NA,NA,NA,NA
T3snscpx,39kv3a5d2bk8g62f2ek1xjbwsefs7u,3j2uybxqqppryh2s141r6j196nq60j,T3snscpx,2020-0188,2021-10-31,06:31:11,07:53:23,NA,incomplete,false,true,NA,NA,1,14,NA,blue,n_s_116.jpg,NA,NA,NA,NA,NA,unpleasant,pleasant,NA,NA,NA,NA,NA,left,1771.79999995232,true,NA,NA,NA,NA,NA,NA,NA,NA
T3snscpx,39kv3a5d2bk8g62f2ek1xjbwsefs7u,3j2uybxqqppryh2s141r6j196nq60j,T3snscpx,2020-0188,2021-10-31,06:31:11,07:53:23,NA,incomplete,false,true,NA,NA,1,15,NA,blue,m_s_103.jpg,NA,NA,NA,NA,NA,unpleasant,pleasant,NA,NA,NA,NA,NA,left,2562.70000004768,true,NA,NA,NA,NA,NA,NA,NA,NA
T3snscpx,39kv3a5d2bk8g62f2ek1xjbwsefs7u,3j2uybxqqppryh2s141r6j196nq60j,T3snscpx,2020-0188,2021-10-31,06:31:11,07:53:23,NA,incomplete,false,true,NA,NA,1,16,NA,blue,m_l_058.jpg,NA,NA,NA,NA,NA,pleasant,unpleasant,NA,NA,NA,NA,NA,right,3140.70000004768,true,NA,NA,NA,NA,NA,NA,NA,NA
T3snscpx,39kv3a5d2bk8g62f2ek1xjbwsefs7u,3j2uybxqqppryh2s141r6j196nq60j,T3snscpx,2020-0188,2021-10-31,06:31:11,07:53:23,NA,incomplete,false,true,NA,NA,1,17,NA,blue,m_s_107.jpg,NA,NA,NA,NA,NA,pleasant,unpleasant,NA,NA,NA,NA,NA,right,2957.59999990463,true,NA,NA,NA,NA,NA,NA,NA,NA
T3snscpx,39kv3a5d2bk8g62f2ek1xjbwsefs7u,3j2uybxqqppryh2s141r6j196nq60j,T3snscpx,2020-0188,2021-10-31,06:31:11,07:53:23,NA,incomplete,false,true,NA,NA,1,18,NA,orange,m_s_116.jpg,NA,NA,NA,NA,NA,pleasant,unpleasant,NA,NA,NA,NA,NA,left,1628.09999990463,true,NA,NA,NA,NA,NA,NA,NA,NA
T3snscpx,39kv3a5d2bk8g62f2ek1xjbwsefs7u,3j2uybxqqppryh2s141r6j196nq60j,T3snscpx,2020-0188,2021-10-31,06:31:11,07:53:23,NA,incomplete,false,true,NA,NA,1,19,NA,orange,n_s_017.jpg,NA,NA,NA,NA,NA,pleasant,unpleasant,NA,NA,NA,NA,NA,right,2055.79999995232,true,NA,NA,NA,NA,NA,NA,NA,NA
T3snscpx,39kv3a5d2bk8g62f2ek1xjbwsefs7u,3j2uybxqqppryh2s141r6j196nq60j,T3snscpx,2020-0188,2021-10-31,06:31:11,07:53:23,NA,incomplete,false,true,NA,NA,1,20,NA,orange,n_l_027.jpg,NA,NA,NA,NA,NA,pleasant,unpleasant,NA,NA,NA,NA,NA,right,2495.70000004768,true,NA,NA,NA,NA,NA,NA,NA,NA
T3snscpx,39kv3a5d2bk8g62f2ek1xjbwsefs7u,3j2uybxqqppryh2s141r6j196nq60j,T3snscpx,2020-0188,2021-10-31,06:31:11,07:53:23,NA,incomplete,false,true,NA,NA,1,21,NA,orange,n_l_037.jpg,NA,NA,NA,NA,NA,pleasant,unpleasant,NA,NA,NA,NA,NA,right,1689.40000009537,true,NA,NA,NA,NA,NA,NA,NA,NA
T3snscpx,39kv3a5d2bk8g62f2ek1xjbwsefs7u,3j2uybxqqppryh2s141r6j196nq60j,T3snscpx,2020-0188,2021-10-31,06:31:11,07:53:23,NA,incomplete,false,true,NA,NA,1,22,NA,orange,n_s_009.jpg,NA,NA,NA,NA,NA,unpleasant,pleasant,NA,NA,NA,NA,NA,none,0,false,NA,NA,NA,NA,NA,NA,NA,NA
T3snscpx,39kv3a5d2bk8g62f2ek1xjbwsefs7u,3j2uybxqqppryh2s141r6j196nq60j,T3snscpx,2020-0188,2021-10-31,06:31:11,07:53:23,NA,incomplete,false,true,NA,NA,1,23,NA,orange,m_l_071.jpg,NA,NA,NA,NA,NA,unpleasant,pleasant,NA,NA,NA,NA,NA,right,2049.29999995232,true,NA,NA,NA,NA,NA,NA,NA,NA
T3snscpx,39kv3a5d2bk8g62f2ek1xjbwsefs7u,3j2uybxqqppryh2s141r6j196nq60j,T3snscpx,2020-0188,2021-10-31,06:31:11,07:53:23,NA,incomplete,false,true,NA,NA,1,24,NA,white,n_l_046.jpg,NA,NA,NA,NA,NA,unpleasant,pleasant,NA,NA,NA,NA,NA,right,2963.79999995232,true,NA,NA,NA,NA,NA,NA,NA,NA
T3snscpx,39kv3a5d2bk8g62f2ek1xjbwsefs7u,3j2uybxqqppryh2s141r6j196nq60j,T3snscpx,2020-0188,2021-10-31,06:31:11,07:53:23,NA,incomplete,false,true,NA,NA,1,25,NA,white,n_l_029.jpg,NA,NA,NA,NA,NA,unpleasant,pleasant,NA,NA,NA,NA,NA,right,1837.09999990463,true,NA,NA,NA,NA,NA,NA,NA,NA
T3snscpx,39kv3a5d2bk8g62f2ek1xjbwsefs7u,3j2uybxqqppryh2s141r6j196nq60j,T3snscpx,2020-0188,2021-10-31,06:31:11,07:53:23,NA,incomplete,false,true,NA,NA,1,26,NA,white,n_l_022.jpg,NA,NA,NA,NA,NA,unpleasant,pleasant,NA,NA,NA,NA,NA,right,1189.5,true,NA,NA,NA,NA,NA,NA,NA,NA
T3snscpx,39kv3a5d2bk8g62f2ek1xjbwsefs7u,3j2uybxqqppryh2s141r6j196nq60j,T3snscpx,2020-0188,2021-10-31,06:31:11,07:53:23,NA,incomplete,false,true,NA,NA,1,27,NA,white,m_l_060.jpg,NA,NA,NA,NA,NA,pleasant,unpleasant,NA,NA,NA,NA,NA,right,956.899999856949,true,NA,NA,NA,NA,NA,NA,NA,NA
T3snscpx,39kv3a5d2bk8g62f2ek1xjbwsefs7u,3j2uybxqqppryh2s141r6j196nq60j,T3snscpx,2020-0188,2021-10-31,06:31:11,07:53:23,NA,incomplete,false,true,NA,NA,1,28,NA,white,n_l_109.jpg,NA,NA,NA,NA,NA,pleasant,unpleasant,NA,NA,NA,NA,NA,right,2479.09999990463,true,NA,NA,NA,NA,NA,NA,NA,NA
T3snscpx,39kv3a5d2bk8g62f2ek1xjbwsefs7u,3j2uybxqqppryh2s141r6j196nq60j,T3snscpx,2020-0188,2021-10-31,06:31:11,07:53:23,NA,incomplete,false,true,NA,NA,1,29,NA,white,n_l_054.jpg,NA,NA,NA,NA,NA,unpleasant,pleasant,NA,NA,NA,NA,NA,right,1808.29999995232,true,NA,NA,NA,NA,NA,NA,NA,NA
T3snscpx,39kv3a5d2bk8g62f2ek1xjbwsefs7u,3j2uybxqqppryh2s141r6j196nq60j,T3snscpx,2020-0188,2021-10-31,06:31:11,07:53:23,NA,incomplete,false,true,NA,NA,1,30,NA,green,n_s_114.jpg,NA,NA,NA,NA,NA,unpleasant,pleasant,NA,NA,NA,NA,NA,left,2465.89999985695,true,NA,NA,NA,NA,NA,NA,NA,NA
T3snscpx,39kv3a5d2bk8g62f2ek1xjbwsefs7u,3j2uybxqqppryh2s141r6j196nq60j,T3snscpx,2020-0188,2021-10-31,06:31:11,07:53:23,NA,incomplete,false,true,NA,NA,1,31,NA,green,n_s_101.jpg,NA,NA,NA,NA,NA,unpleasant,pleasant,NA,NA,NA,NA,NA,left,2466.29999995232,true,NA,NA,NA,NA,NA,NA,NA,NA
T3snscpx,39kv3a5d2bk8g62f2ek1xjbwsefs7u,3j2uybxqqppryh2s141r6j196nq60j,T3snscpx,2020-0188,2021-10-31,06:31:11,07:53:23,NA,incomplete,false,true,NA,NA,1,32,NA,green,n_l_020.jpg,NA,NA,NA,NA,NA,pleasant,unpleasant,NA,NA,NA,NA,NA,right,1524.70000004768,true,NA,NA,NA,NA,NA,NA,NA,NA
T3snscpx,39kv3a5d2bk8g62f2ek1xjbwsefs7u,3j2uybxqqppryh2s141r6j196nq60j,T3snscpx,2020-0188,2021-10-31,06:31:11,07:53:23,NA,incomplete,false,true,NA,NA,1,33,NA,green,n_l_010.jpg,NA,NA,NA,NA,NA,unpleasant,pleasant,NA,NA,NA,NA,NA,right,1564.90000009537,true,NA,NA,NA,NA,NA,NA,NA,NA
T3snscpx,39kv3a5d2bk8g62f2ek1xjbwsefs7u,3j2uybxqqppryh2s141r6j196nq60j,T3snscpx,2020-0188,2021-10-31,06:31:11,07:53:23,NA,incomplete,false,true,NA,NA,1,34,NA,green,n_l_041.jpg,NA,NA,NA,NA,NA,unpleasant,pleasant,NA,NA,NA,NA,NA,left,2143.29999995232,true,NA,NA,NA,NA,NA,NA,NA,NA
T3snscpx,39kv3a5d2bk8g62f2ek1xjbwsefs7u,3j2uybxqqppryh2s141r6j196nq60j,T3snscpx,2020-0188,2021-10-31,06:31:11,07:53:23,NA,incomplete,false,true,NA,NA,1,35,NA,green,n_l_059.jpg,NA,NA,NA,NA,NA,unpleasant,pleasant,NA,NA,NA,NA,NA,right,2247.89999985695,true,NA,NA,NA,NA,NA,NA,NA,NA
T3snscpx,39kv3a5d2bk8g62f2ek1xjbwsefs7u,3j2uybxqqppryh2s141r6j196nq60j,T3snscpx,2020-0188,2021-10-31,06:31:11,07:53:23,NA,incomplete,false,NA,NA,true,1,0,NA,NA,NA,right,n_s_009.jpg,blue,orange,NA,NA,NA,NA,NA,NA,NA,NA,NA,NaN,NA,2607.7999999523163,right,1,NA,NA,NA,NA,NA
T3snscpx,39kv3a5d2bk8g62f2ek1xjbwsefs7u,3j2uybxqqppryh2s141r6j196nq60j,T3snscpx,2020-0188,2021-10-31,06:31:11,07:53:23,NA,incomplete,false,NA,NA,true,1,1,NA,NA,NA,right,n_l_020.jpg,white,green,NA,NA,NA,NA,NA,NA,NA,NA,NA,NaN,NA,2751.4000000953674,right,1,NA,NA,NA,NA,NA
T3snscpx,39kv3a5d2bk8g62f2ek1xjbwsefs7u,3j2uybxqqppryh2s141r6j196nq60j,T3snscpx,2020-0188,2021-10-31,06:31:11,07:53:23,NA,incomplete,false,NA,NA,true,1,2,NA,NA,NA,right,n_l_059.jpg,white,green,NA,NA,NA,NA,NA,NA,NA,NA,NA,NaN,NA,2071.4000000953674,right,1,NA,NA,NA,NA,NA
T3snscpx,39kv3a5d2bk8g62f2ek1xjbwsefs7u,3j2uybxqqppryh2s141r6j196nq60j,T3snscpx,2020-0188,2021-10-31,06:31:11,07:53:23,NA,incomplete,false,NA,NA,true,1,3,NA,NA,NA,right,m_l_061.jpg,gray,yellow,NA,NA,NA,NA,NA,NA,NA,NA,NA,NaN,NA,4111.300000190735,left,0,NA,NA,NA,NA,NA
T3snscpx,39kv3a5d2bk8g62f2ek1xjbwsefs7u,3j2uybxqqppryh2s141r6j196nq60j,T3snscpx,2020-0188,2021-10-31,06:31:11,07:53:23,NA,incomplete,false,NA,NA,true,1,4,NA,NA,NA,right,n_s_116.jpg,orange,blue,NA,NA,NA,NA,NA,NA,NA,NA,NA,NaN,NA,2759.4000000953674,right,1,NA,NA,NA,NA,NA
T3snscpx,39kv3a5d2bk8g62f2ek1xjbwsefs7u,3j2uybxqqppryh2s141r6j196nq60j,T3snscpx,2020-0188,2021-10-31,06:31:11,07:53:23,NA,incomplete,false,NA,NA,true,1,5,NA,NA,NA,right,n_l_027.jpg,blue,orange,NA,NA,NA,NA,NA,NA,NA,NA,NA,NaN,NA,3455.2999999523163,left,0,NA,NA,NA,NA,NA
T3snscpx,39kv3a5d2bk8g62f2ek1xjbwsefs7u,3j2uybxqqppryh2s141r6j196nq60j,T3snscpx,2020-0188,2021-10-31,06:31:11,07:53:23,NA,incomplete,false,NA,NA,true,1,6,NA,NA,NA,right,m_l_071.jpg,blue,orange,NA,NA,NA,NA,NA,NA,NA,NA,NA,NaN,NA,2272,right,1,NA,NA,NA,NA,NA
T3snscpx,39kv3a5d2bk8g62f2ek1xjbwsefs7u,3j2uybxqqppryh2s141r6j196nq60j,T3snscpx,2020-0188,2021-10-31,06:31:11,07:53:23,NA,incomplete,false,NA,NA,true,1,7,NA,NA,NA,left,m_l_058.jpg,blue,gray,NA,NA,NA,NA,NA,NA,NA,NA,NA,NaN,NA,2231.2000000476837,right,0,NA,NA,NA,NA,NA
T3snscpx,39kv3a5d2bk8g62f2ek1xjbwsefs7u,3j2uybxqqppryh2s141r6j196nq60j,T3snscpx,2020-0188,2021-10-31,06:31:11,07:53:23,NA,incomplete,false,NA,NA,true,1,8,NA,NA,NA,right,n_l_054.jpg,green,white,NA,NA,NA,NA,NA,NA,NA,NA,NA,NaN,NA,4887.299999952316,left,0,NA,NA,NA,NA,NA
T3snscpx,39kv3a5d2bk8g62f2ek1xjbwsefs7u,3j2uybxqqppryh2s141r6j196nq60j,T3snscpx,2020-0188,2021-10-31,06:31:11,07:53:23,NA,incomplete,false,NA,NA,true,1,9,NA,NA,NA,right,n_l_022.jpg,green,white,NA,NA,NA,NA,NA,NA,NA,NA,NA,NaN,NA,2167.2000000476837,right,1,NA,NA,NA,NA,NA
T3snscpx,39kv3a5d2bk8g62f2ek1xjbwsefs7u,3j2uybxqqppryh2s141r6j196nq60j,T3snscpx,2020-0188,2021-10-31,06:31:11,07:53:23,NA,incomplete,false,NA,NA,true,1,10,NA,NA,NA,right,m_s_044.jpg,blue,gray,NA,NA,NA,NA,NA,NA,NA,NA,NA,NaN,NA,2935.4000000953674,right,1,NA,NA,NA,NA,NA
T3snscpx,39kv3a5d2bk8g62f2ek1xjbwsefs7u,3j2uybxqqppryh2s141r6j196nq60j,T3snscpx,2020-0188,2021-10-31,06:31:11,07:53:23,NA,incomplete,false,NA,NA,true,1,11,NA,NA,NA,left,n_s_017.jpg,orange,white,NA,NA,NA,NA,NA,NA,NA,NA,NA,NaN,NA,2423.300000190735,left,1,NA,NA,NA,NA,NA
T3snscpx,39kv3a5d2bk8g62f2ek1xjbwsefs7u,3j2uybxqqppryh2s141r6j196nq60j,T3snscpx,2020-0188,2021-10-31,06:31:11,07:53:23,NA,incomplete,false,NA,NA,true,1,12,NA,NA,NA,right,m_s_102.jpg,gray,blue,NA,NA,NA,NA,NA,NA,NA,NA,NA,NaN,NA,2439,right,1,NA,NA,NA,NA,NA
T3snscpx,39kv3a5d2bk8g62f2ek1xjbwsefs7u,3j2uybxqqppryh2s141r6j196nq60j,T3snscpx,2020-0188,2021-10-31,06:31:11,07:53:23,NA,incomplete,false,NA,NA,true,1,13,NA,NA,NA,left,m_l_085.jpg,yellow,gray,NA,NA,NA,NA,NA,NA,NA,NA,NA,NaN,NA,2175.5,right,0,NA,NA,NA,NA,NA
T3snscpx,39kv3a5d2bk8g62f2ek1xjbwsefs7u,3j2uybxqqppryh2s141r6j196nq60j,T3snscpx,2020-0188,2021-10-31,06:31:11,07:53:23,NA,incomplete,false,NA,NA,true,1,14,NA,NA,NA,left,m_s_092.jpg,gray,yellow,NA,NA,NA,NA,NA,NA,NA,NA,NA,NaN,NA,2767.4000000953674,right,0,NA,NA,NA,NA,NA
T3snscpx,39kv3a5d2bk8g62f2ek1xjbwsefs7u,3j2uybxqqppryh2s141r6j196nq60j,T3snscpx,2020-0188,2021-10-31,06:31:11,07:53:23,NA,incomplete,false,NA,NA,true,1,15,NA,NA,NA,left,m_s_107.jpg,blue,gray,NA,NA,NA,NA,NA,NA,NA,NA,NA,NaN,NA,1999.4000000953674,right,0,NA,NA,NA,NA,NA
T3snscpx,39kv3a5d2bk8g62f2ek1xjbwsefs7u,3j2uybxqqppryh2s141r6j196nq60j,T3snscpx,2020-0188,2021-10-31,06:31:11,07:53:23,NA,incomplete,false,NA,NA,true,1,16,NA,NA,NA,right,n_l_109.jpg,green,white,NA,NA,NA,NA,NA,NA,NA,NA,NA,NaN,NA,3126.800000190735,left,0,NA,NA,NA,NA,NA
T3snscpx,39kv3a5d2bk8g62f2ek1xjbwsefs7u,3j2uybxqqppryh2s141r6j196nq60j,T3snscpx,2020-0188,2021-10-31,06:31:11,07:53:23,NA,incomplete,false,NA,NA,true,1,17,NA,NA,NA,left,n_s_008.jpg,gray,blue,NA,NA,NA,NA,NA,NA,NA,NA,NA,NaN,NA,2383.2000000476837,right,0,NA,NA,NA,NA,NA
T3snscpx,39kv3a5d2bk8g62f2ek1xjbwsefs7u,3j2uybxqqppryh2s141r6j196nq60j,T3snscpx,2020-0188,2021-10-31,06:31:11,07:53:23,NA,incomplete,false,NA,NA,true,1,18,NA,NA,NA,left,n_l_029.jpg,white,green,NA,NA,NA,NA,NA,NA,NA,NA,NA,NaN,NA,3039.4000000953674,left,1,NA,NA,NA,NA,NA
T3snscpx,39kv3a5d2bk8g62f2ek1xjbwsefs7u,3j2uybxqqppryh2s141r6j196nq60j,T3snscpx,2020-0188,2021-10-31,06:31:11,07:53:23,NA,incomplete,false,NA,NA,true,1,19,NA,NA,NA,right,n_l_080.jpg,gray,yellow,NA,NA,NA,NA,NA,NA,NA,NA,NA,NaN,NA,3479.2000000476837,left,0,NA,NA,NA,NA,NA
T3snscpx,39kv3a5d2bk8g62f2ek1xjbwsefs7u,3j2uybxqqppryh2s141r6j196nq60j,T3snscpx,2020-0188,2021-10-31,06:31:11,07:53:23,NA,incomplete,false,NA,NA,true,1,20,NA,NA,NA,right,n_s_101.jpg,white,green,NA,NA,NA,NA,NA,NA,NA,NA,NA,NaN,NA,3183.2000000476837,right,1,NA,NA,NA,NA,NA
T3snscpx,39kv3a5d2bk8g62f2ek1xjbwsefs7u,3j2uybxqqppryh2s141r6j196nq60j,T3snscpx,2020-0188,2021-10-31,06:31:11,07:53:23,NA,incomplete,false,NA,NA,true,1,21,NA,NA,NA,left,n_l_102.jpg,gray,yellow,NA,NA,NA,NA,NA,NA,NA,NA,NA,NaN,NA,2943.4000000953674,right,0,NA,NA,NA,NA,NA
T3snscpx,39kv3a5d2bk8g62f2ek1xjbwsefs7u,3j2uybxqqppryh2s141r6j196nq60j,T3snscpx,2020-0188,2021-10-31,06:31:11,07:53:23,NA,incomplete,false,NA,true,NA,1,0,NA,NA,NA,left,NA,NA,NA,present,NA,NA,m_l_085.jpg,yellow,n_l_102.jpg,gray,between,NA,NaN,NA,NA,NA,NA,left,7622.399999856949,1,2,2438.5
T3snscpx,39kv3a5d2bk8g62f2ek1xjbwsefs7u,3j2uybxqqppryh2s141r6j196nq60j,T3snscpx,2020-0188,2021-10-31,06:31:11,07:53:23,NA,incomplete,false,NA,true,NA,1,1,NA,NA,NA,left,NA,NA,NA,present,NA,NA,m_l_061.jpg,yellow,n_l_080.jpg,yellow,within,NA,NaN,NA,NA,NA,NA,left,2831.2999999523163,1,1,1343.0999999046326
T3snscpx,39kv3a5d2bk8g62f2ek1xjbwsefs7u,3j2uybxqqppryh2s141r6j196nq60j,T3snscpx,2020-0188,2021-10-31,06:31:11,07:53:23,NA,incomplete,false,NA,true,NA,1,2,NA,NA,NA,left,NA,NA,NA,present,NA,NA,m_s_044.jpg,gray,n_s_116.jpg,blue,between,NA,NaN,NA,NA,NA,NA,right,3383.399999856949,0,2,1439.2999999523163
T3snscpx,39kv3a5d2bk8g62f2ek1xjbwsefs7u,3j2uybxqqppryh2s141r6j196nq60j,T3snscpx,2020-0188,2021-10-31,06:31:11,07:53:23,NA,incomplete,false,NA,true,NA,1,3,NA,NA,NA,left,NA,NA,NA,present,NA,NA,n_l_029.jpg,white,n_l_054.jpg,white,within,NA,NaN,NA,NA,NA,NA,right,4911.099999904633,0,1,1111.3999998569489
T3snscpx,39kv3a5d2bk8g62f2ek1xjbwsefs7u,3j2uybxqqppryh2s141r6j196nq60j,T3snscpx,2020-0188,2021-10-31,06:31:11,07:53:23,NA,incomplete,false,NA,true,NA,1,4,NA,NA,NA,right,NA,NA,NA,present,NA,NA,n_l_059.jpg,green,n_s_101.jpg,green,within,NA,NaN,NA,NA,NA,NA,right,3335.2999999523163,1,0,1447.2999999523163
T3snscpx,39kv3a5d2bk8g62f2ek1xjbwsefs7u,3j2uybxqqppryh2s141r6j196nq60j,T3snscpx,2020-0188,2021-10-31,06:31:11,07:53:23,NA,incomplete,false,NA,true,NA,1,5,NA,NA,NA,left,NA,NA,NA,present,NA,NA,m_l_058.jpg,blue,n_l_027.jpg,orange,between,NA,NaN,NA,NA,NA,NA,left,2727.5999999046326,1,2,1295.3000001907349
T3snscpx,39kv3a5d2bk8g62f2ek1xjbwsefs7u,3j2uybxqqppryh2s141r6j196nq60j,T3snscpx,2020-0188,2021-10-31,06:31:11,07:53:23,NA,incomplete,false,NA,true,NA,1,6,NA,NA,NA,right,NA,NA,NA,present,NA,NA,m_s_092.jpg,gray,n_s_008.jpg,gray,within,NA,NaN,NA,NA,NA,NA,right,2991.4000000953674,1,1,910.8000001907349
T3snscpx,39kv3a5d2bk8g62f2ek1xjbwsefs7u,3j2uybxqqppryh2s141r6j196nq60j,T3snscpx,2020-0188,2021-10-31,06:31:11,07:53:23,NA,incomplete,false,NA,true,NA,1,7,NA,NA,NA,left,NA,NA,NA,present,NA,NA,n_l_109.jpg,white,n_l_020.jpg,green,between,NA,NaN,NA,NA,NA,NA,right,5223.200000047684,0,2,2367
T3snscpx,39kv3a5d2bk8g62f2ek1xjbwsefs7u,3j2uybxqqppryh2s141r6j196nq60j,T3snscpx,2020-0188,2021-10-31,06:31:11,07:53:23,NA,incomplete,false,NA,true,NA,1,8,NA,NA,NA,left,NA,NA,NA,present,NA,NA,n_s_017.jpg,orange,m_l_071.jpg,orange,within,NA,NaN,NA,NA,NA,NA,left,2655.399999856949,1,0,3087.5
T3snscpx,39kv3a5d2bk8g62f2ek1xjbwsefs7u,3j2uybxqqppryh2s141r6j196nq60j,T3snscpx,2020-0188,2021-10-31,06:31:11,07:53:23,NA,incomplete,false,NA,true,NA,1,9,NA,NA,NA,left,NA,NA,NA,present,NA,NA,m_s_102.jpg,blue,m_s_107.jpg,blue,within,NA,NaN,NA,NA,NA,NA,right,4647.199999809265,0,0,3711.9000000953674
T3snscpx,39kv3a5d2bk8g62f2ek1xjbwsefs7u,3j2uybxqqppryh2s141r6j196nq60j,T3snscpx,2020-0188,2021-10-31,06:31:11,07:53:23,NA,incomplete,false,NA,true,NA,1,10,NA,NA,NA,right,NA,NA,NA,present,NA,NA,n_l_022.jpg,white,n_s_009.jpg,orange,between,NA,NaN,NA,NA,NA,NA,right,3111.4000000953674,1,3,991.4000000953674
T3snscpx,39kv3a5d2bk8g62f2ek1xjbwsefs7u,3j2uybxqqppryh2s141r6j196nq60j,T3snscpx,2020-0188,2021-10-31,06:31:11,07:53:23,NA,incomplete,false,true,NA,NA,2,0,NA,purple,m_l_044.jpg,NA,NA,NA,NA,NA,unpleasant,pleasant,NA,NA,NA,NA,NA,right,2563.39999985695,true,NA,NA,NA,NA,NA,NA,NA,NA
T3snscpx,39kv3a5d2bk8g62f2ek1xjbwsefs7u,3j2uybxqqppryh2s141r6j196nq60j,T3snscpx,2020-0188,2021-10-31,06:31:11,07:53:23,NA,incomplete,false,true,NA,NA,2,1,NA,purple,m_l_022.jpg,NA,NA,NA,NA,NA,unpleasant,pleasant,NA,NA,NA,NA,NA,right,2980.20000004768,true,NA,NA,NA,NA,NA,NA,NA,NA
T3snscpx,39kv3a5d2bk8g62f2ek1xjbwsefs7u,3j2uybxqqppryh2s141r6j196nq60j,T3snscpx,2020-0188,2021-10-31,06:31:11,07:53:23,NA,incomplete,false,true,NA,NA,2,2,NA,purple,m_s_074.jpg,NA,NA,NA,NA,NA,pleasant,unpleasant,NA,NA,NA,NA,NA,left,2404.89999985695,true,NA,NA,NA,NA,NA,NA,NA,NA
T3snscpx,39kv3a5d2bk8g62f2ek1xjbwsefs7u,3j2uybxqqppryh2s141r6j196nq60j,T3snscpx,2020-0188,2021-10-31,06:31:11,07:53:23,NA,incomplete,false,true,NA,NA,2,3,NA,purple,m_s_019.jpg,NA,NA,NA,NA,NA,pleasant,unpleasant,NA,NA,NA,NA,NA,left,1494.20000004768,true,NA,NA,NA,NA,NA,NA,NA,NA
T3snscpx,39kv3a5d2bk8g62f2ek1xjbwsefs7u,3j2uybxqqppryh2s141r6j196nq60j,T3snscpx,2020-0188,2021-10-31,06:31:11,07:53:23,NA,incomplete,false,true,NA,NA,2,4,NA,purple,n_s_059.jpg,NA,NA,NA,NA,NA,unpleasant,pleasant,NA,NA,NA,NA,NA,left,2103.29999995232,true,NA,NA,NA,NA,NA,NA,NA,NA
T3snscpx,39kv3a5d2bk8g62f2ek1xjbwsefs7u,3j2uybxqqppryh2s141r6j196nq60j,T3snscpx,2020-0188,2021-10-31,06:31:11,07:53:23,NA,incomplete,false,true,NA,NA,2,5,NA,purple,n_s_085.jpg,NA,NA,NA,NA,NA,unpleasant,pleasant,NA,NA,NA,NA,NA,left,1318.89999985695,true,NA,NA,NA,NA,NA,NA,NA,NA
T3snscpx,39kv3a5d2bk8g62f2ek1xjbwsefs7u,3j2uybxqqppryh2s141r6j196nq60j,T3snscpx,2020-0188,2021-10-31,06:31:11,07:53:23,NA,incomplete,false,true,NA,NA,2,6,NA,blue,n_l_031.jpg,NA,NA,NA,NA,NA,unpleasant,pleasant,NA,NA,NA,NA,NA,right,2431.70000004768,true,NA,NA,NA,NA,NA,NA,NA,NA
T3snscpx,39kv3a5d2bk8g62f2ek1xjbwsefs7u,3j2uybxqqppryh2s141r6j196nq60j,T3snscpx,2020-0188,2021-10-31,06:31:11,07:53:23,NA,incomplete,false,true,NA,NA,2,7,NA,blue,m_s_001.jpg,NA,NA,NA,NA,NA,pleasant,unpleasant,NA,NA,NA,NA,NA,left,1417.90000009537,true,NA,NA,NA,NA,NA,NA,NA,NA
T3snscpx,39kv3a5d2bk8g62f2ek1xjbwsefs7u,3j2uybxqqppryh2s141r6j196nq60j,T3snscpx,2020-0188,2021-10-31,06:31:11,07:53:23,NA,incomplete,false,true,NA,NA,2,8,NA,blue,n_s_006.jpg,NA,NA,NA,NA,NA,pleasant,unpleasant,NA,NA,NA,NA,NA,left,1468,true,NA,NA,NA,NA,NA,NA,NA,NA
T3snscpx,39kv3a5d2bk8g62f2ek1xjbwsefs7u,3j2uybxqqppryh2s141r6j196nq60j,T3snscpx,2020-0188,2021-10-31,06:31:11,07:53:23,NA,incomplete,false,true,NA,NA,2,9,NA,blue,n_s_026.jpg,NA,NA,NA,NA,NA,pleasant,unpleasant,NA,NA,NA,NA,NA,right,2283.5,true,NA,NA,NA,NA,NA,NA,NA,NA
T3snscpx,39kv3a5d2bk8g62f2ek1xjbwsefs7u,3j2uybxqqppryh2s141r6j196nq60j,T3snscpx,2020-0188,2021-10-31,06:31:11,07:53:23,NA,incomplete,false,true,NA,NA,2,10,NA,blue,n_s_039.jpg,NA,NA,NA,NA,NA,pleasant,unpleasant,NA,NA,NA,NA,NA,left,1476.5,true,NA,NA,NA,NA,NA,NA,NA,NA
T3snscpx,39kv3a5d2bk8g62f2ek1xjbwsefs7u,3j2uybxqqppryh2s141r6j196nq60j,T3snscpx,2020-0188,2021-10-31,06:31:11,07:53:23,NA,incomplete,false,true,NA,NA,2,11,NA,blue,n_l_028.jpg,NA,NA,NA,NA,NA,pleasant,unpleasant,NA,NA,NA,NA,NA,left,2591.40000009537,true,NA,NA,NA,NA,NA,NA,NA,NA
T3snscpx,39kv3a5d2bk8g62f2ek1xjbwsefs7u,3j2uybxqqppryh2s141r6j196nq60j,T3snscpx,2020-0188,2021-10-31,06:31:11,07:53:23,NA,incomplete,false,true,NA,NA,2,12,NA,red,n_l_111.jpg,NA,NA,NA,NA,NA,unpleasant,pleasant,NA,NA,NA,NA,NA,right,1543.70000004768,true,NA,NA,NA,NA,NA,NA,NA,NA
T3snscpx,39kv3a5d2bk8g62f2ek1xjbwsefs7u,3j2uybxqqppryh2s141r6j196nq60j,T3snscpx,2020-0188,2021-10-31,06:31:11,07:53:23,NA,incomplete,false,true,NA,NA,2,13,NA,red,n_l_110.jpg,NA,NA,NA,NA,NA,unpleasant,pleasant,NA,NA,NA,NA,NA,right,1337.29999995232,true,NA,NA,NA,NA,NA,NA,NA,NA
T3snscpx,39kv3a5d2bk8g62f2ek1xjbwsefs7u,3j2uybxqqppryh2s141r6j196nq60j,T3snscpx,2020-0188,2021-10-31,06:31:11,07:53:23,NA,incomplete,false,true,NA,NA,2,14,NA,red,m_l_093.jpg,NA,NA,NA,NA,NA,pleasant,unpleasant,NA,NA,NA,NA,NA,left,1241.09999990463,true,NA,NA,NA,NA,NA,NA,NA,NA
T3snscpx,39kv3a5d2bk8g62f2ek1xjbwsefs7u,3j2uybxqqppryh2s141r6j196nq60j,T3snscpx,2020-0188,2021-10-31,06:31:11,07:53:23,NA,incomplete,false,true,NA,NA,2,15,NA,red,m_s_078.jpg,NA,NA,NA,NA,NA,pleasant,unpleasant,NA,NA,NA,NA,NA,left,2035.39999985695,true,NA,NA,NA,NA,NA,NA,NA,NA
T3snscpx,39kv3a5d2bk8g62f2ek1xjbwsefs7u,3j2uybxqqppryh2s141r6j196nq60j,T3snscpx,2020-0188,2021-10-31,06:31:11,07:53:23,NA,incomplete,false,true,NA,NA,2,16,NA,red,n_s_106.jpg,NA,NA,NA,NA,NA,unpleasant,pleasant,NA,NA,NA,NA,NA,right,2252.5,true,NA,NA,NA,NA,NA,NA,NA,NA
T3snscpx,39kv3a5d2bk8g62f2ek1xjbwsefs7u,3j2uybxqqppryh2s141r6j196nq60j,T3snscpx,2020-0188,2021-10-31,06:31:11,07:53:23,NA,incomplete,false,true,NA,NA,2,17,NA,red,n_s_070.jpg,NA,NA,NA,NA,NA,pleasant,unpleasant,NA,NA,NA,NA,NA,right,2613,true,NA,NA,NA,NA,NA,NA,NA,NA
T3snscpx,39kv3a5d2bk8g62f2ek1xjbwsefs7u,3j2uybxqqppryh2s141r6j196nq60j,T3snscpx,2020-0188,2021-10-31,06:31:11,07:53:23,NA,incomplete,false,true,NA,NA,2,18,NA,green,m_l_096.jpg,NA,NA,NA,NA,NA,unpleasant,pleasant,NA,NA,NA,NA,NA,right,1854.70000004768,true,NA,NA,NA,NA,NA,NA,NA,NA
T3snscpx,39kv3a5d2bk8g62f2ek1xjbwsefs7u,3j2uybxqqppryh2s141r6j196nq60j,T3snscpx,2020-0188,2021-10-31,06:31:11,07:53:23,NA,incomplete,false,true,NA,NA,2,19,NA,green,n_l_103.jpg,NA,NA,NA,NA,NA,pleasant,unpleasant,NA,NA,NA,NA,NA,right,2423.5,true,NA,NA,NA,NA,NA,NA,NA,NA
T3snscpx,39kv3a5d2bk8g62f2ek1xjbwsefs7u,3j2uybxqqppryh2s141r6j196nq60j,T3snscpx,2020-0188,2021-10-31,06:31:11,07:53:23,NA,incomplete,false,true,NA,NA,2,20,NA,green,m_l_082.jpg,NA,NA,NA,NA,NA,pleasant,unpleasant,NA,NA,NA,NA,NA,right,2087.89999985695,true,NA,NA,NA,NA,NA,NA,NA,NA
T3snscpx,39kv3a5d2bk8g62f2ek1xjbwsefs7u,3j2uybxqqppryh2s141r6j196nq60j,T3snscpx,2020-0188,2021-10-31,06:31:11,07:53:23,NA,incomplete,false,true,NA,NA,2,21,NA,green,m_s_052.jpg,NA,NA,NA,NA,NA,pleasant,unpleasant,NA,NA,NA,NA,NA,left,1416.69999980927,true,NA,NA,NA,NA,NA,NA,NA,NA
T3snscpx,39kv3a5d2bk8g62f2ek1xjbwsefs7u,3j2uybxqqppryh2s141r6j196nq60j,T3snscpx,2020-0188,2021-10-31,06:31:11,07:53:23,NA,incomplete,false,true,NA,NA,2,22,NA,green,m_s_061.jpg,NA,NA,NA,NA,NA,unpleasant,pleasant,NA,NA,NA,NA,NA,left,2225.60000014305,true,NA,NA,NA,NA,NA,NA,NA,NA
T3snscpx,39kv3a5d2bk8g62f2ek1xjbwsefs7u,3j2uybxqqppryh2s141r6j196nq60j,T3snscpx,2020-0188,2021-10-31,06:31:11,07:53:23,NA,incomplete,false,true,NA,NA,2,23,NA,green,n_l_097.jpg,NA,NA,NA,NA,NA,unpleasant,pleasant,NA,NA,NA,NA,NA,left,2194.10000014305,true,NA,NA,NA,NA,NA,NA,NA,NA
T3snscpx,39kv3a5d2bk8g62f2ek1xjbwsefs7u,3j2uybxqqppryh2s141r6j196nq60j,T3snscpx,2020-0188,2021-10-31,06:31:11,07:53:23,NA,incomplete,false,true,NA,NA,2,24,NA,white,n_s_112.jpg,NA,NA,NA,NA,NA,unpleasant,pleasant,NA,NA,NA,NA,NA,right,1891.30000019073,true,NA,NA,NA,NA,NA,NA,NA,NA
T3snscpx,39kv3a5d2bk8g62f2ek1xjbwsefs7u,3j2uybxqqppryh2s141r6j196nq60j,T3snscpx,2020-0188,2021-10-31,06:31:11,07:53:23,NA,incomplete,false,true,NA,NA,2,25,NA,white,m_s_028.jpg,NA,NA,NA,NA,NA,pleasant,unpleasant,NA,NA,NA,NA,NA,right,949.400000095367,true,NA,NA,NA,NA,NA,NA,NA,NA
T3snscpx,39kv3a5d2bk8g62f2ek1xjbwsefs7u,3j2uybxqqppryh2s141r6j196nq60j,T3snscpx,2020-0188,2021-10-31,06:31:11,07:53:23,NA,incomplete,false,true,NA,NA,2,26,NA,white,n_l_096.jpg,NA,NA,NA,NA,NA,pleasant,unpleasant,NA,NA,NA,NA,NA,left,2375.29999995232,true,NA,NA,NA,NA,NA,NA,NA,NA
T3snscpx,39kv3a5d2bk8g62f2ek1xjbwsefs7u,3j2uybxqqppryh2s141r6j196nq60j,T3snscpx,2020-0188,2021-10-31,06:31:11,07:53:23,NA,incomplete,false,true,NA,NA,2,27,NA,white,m_l_062.jpg,NA,NA,NA,NA,NA,pleasant,unpleasant,NA,NA,NA,NA,NA,left,2141.79999995232,true,NA,NA,NA,NA,NA,NA,NA,NA
T3snscpx,39kv3a5d2bk8g62f2ek1xjbwsefs7u,3j2uybxqqppryh2s141r6j196nq60j,T3snscpx,2020-0188,2021-10-31,06:31:11,07:53:23,NA,incomplete,false,true,NA,NA,2,28,NA,white,n_s_110.jpg,NA,NA,NA,NA,NA,pleasant,unpleasant,NA,NA,NA,NA,NA,left,2305.20000004768,true,NA,NA,NA,NA,NA,NA,NA,NA
T3snscpx,39kv3a5d2bk8g62f2ek1xjbwsefs7u,3j2uybxqqppryh2s141r6j196nq60j,T3snscpx,2020-0188,2021-10-31,06:31:11,07:53:23,NA,incomplete,false,true,NA,NA,2,29,NA,white,n_s_019.jpg,NA,NA,NA,NA,NA,pleasant,unpleasant,NA,NA,NA,NA,NA,right,1504.29999995232,true,NA,NA,NA,NA,NA,NA,NA,NA
T3snscpx,39kv3a5d2bk8g62f2ek1xjbwsefs7u,3j2uybxqqppryh2s141r6j196nq60j,T3snscpx,2020-0188,2021-10-31,06:31:11,07:53:23,NA,incomplete,false,true,NA,NA,2,30,NA,black,m_s_060.jpg,NA,NA,NA,NA,NA,unpleasant,pleasant,NA,NA,NA,NA,NA,right,2714.39999985695,true,NA,NA,NA,NA,NA,NA,NA,NA
T3snscpx,39kv3a5d2bk8g62f2ek1xjbwsefs7u,3j2uybxqqppryh2s141r6j196nq60j,T3snscpx,2020-0188,2021-10-31,06:31:11,07:53:23,NA,incomplete,false,true,NA,NA,2,31,NA,black,m_s_113.jpg,NA,NA,NA,NA,NA,pleasant,unpleasant,NA,NA,NA,NA,NA,left,1699.69999980927,true,NA,NA,NA,NA,NA,NA,NA,NA
T3snscpx,39kv3a5d2bk8g62f2ek1xjbwsefs7u,3j2uybxqqppryh2s141r6j196nq60j,T3snscpx,2020-0188,2021-10-31,06:31:11,07:53:23,NA,incomplete,false,true,NA,NA,2,32,NA,black,m_s_062.jpg,NA,NA,NA,NA,NA,pleasant,unpleasant,NA,NA,NA,NA,NA,left,2149.5,true,NA,NA,NA,NA,NA,NA,NA,NA
T3snscpx,39kv3a5d2bk8g62f2ek1xjbwsefs7u,3j2uybxqqppryh2s141r6j196nq60j,T3snscpx,2020-0188,2021-10-31,06:31:11,07:53:23,NA,incomplete,false,true,NA,NA,2,33,NA,black,n_l_055.jpg,NA,NA,NA,NA,NA,unpleasant,pleasant,NA,NA,NA,NA,NA,right,2518.5,true,NA,NA,NA,NA,NA,NA,NA,NA
T3snscpx,39kv3a5d2bk8g62f2ek1xjbwsefs7u,3j2uybxqqppryh2s141r6j196nq60j,T3snscpx,2020-0188,2021-10-31,06:31:11,07:53:23,NA,incomplete,false,true,NA,NA,2,34,NA,black,n_l_036.jpg,NA,NA,NA,NA,NA,unpleasant,pleasant,NA,NA,NA,NA,NA,right,2575.29999995232,true,NA,NA,NA,NA,NA,NA,NA,NA
T3snscpx,39kv3a5d2bk8g62f2ek1xjbwsefs7u,3j2uybxqqppryh2s141r6j196nq60j,T3snscpx,2020-0188,2021-10-31,06:31:11,07:53:23,NA,incomplete,false,true,NA,NA,2,35,NA,black,m_s_084.jpg,NA,NA,NA,NA,NA,unpleasant,pleasant,NA,NA,NA,NA,NA,left,2529.79999995232,true,NA,NA,NA,NA,NA,NA,NA,NA
T3snscpx,39kv3a5d2bk8g62f2ek1xjbwsefs7u,3j2uybxqqppryh2s141r6j196nq60j,T3snscpx,2020-0188,2021-10-31,06:31:11,07:53:23,NA,incomplete,false,NA,NA,true,2,0,NA,NA,NA,right,m_l_082.jpg,red,green,NA,NA,NA,NA,NA,NA,NA,NA,NA,NaN,NA,4422.900000095367,left,0,NA,NA,NA,NA,NA
T3snscpx,39kv3a5d2bk8g62f2ek1xjbwsefs7u,3j2uybxqqppryh2s141r6j196nq60j,T3snscpx,2020-0188,2021-10-31,06:31:11,07:53:23,NA,incomplete,false,NA,NA,true,2,1,NA,NA,NA,right,n_l_097.jpg,red,green,NA,NA,NA,NA,NA,NA,NA,NA,NA,NaN,NA,4503.5,left,0,NA,NA,NA,NA,NA
T3snscpx,39kv3a5d2bk8g62f2ek1xjbwsefs7u,3j2uybxqqppryh2s141r6j196nq60j,T3snscpx,2020-0188,2021-10-31,06:31:11,07:53:23,NA,incomplete,false,NA,NA,true,2,2,NA,NA,NA,left,n_l_028.jpg,blue,red,NA,NA,NA,NA,NA,NA,NA,NA,NA,NaN,NA,2255.5,left,1,NA,NA,NA,NA,NA
T3snscpx,39kv3a5d2bk8g62f2ek1xjbwsefs7u,3j2uybxqqppryh2s141r6j196nq60j,T3snscpx,2020-0188,2021-10-31,06:31:11,07:53:23,NA,incomplete,false,NA,NA,true,2,3,NA,NA,NA,right,n_s_070.jpg,green,red,NA,NA,NA,NA,NA,NA,NA,NA,NA,NaN,NA,4871.399999856949,left,0,NA,NA,NA,NA,NA
T3snscpx,39kv3a5d2bk8g62f2ek1xjbwsefs7u,3j2uybxqqppryh2s141r6j196nq60j,T3snscpx,2020-0188,2021-10-31,06:31:11,07:53:23,NA,incomplete,false,NA,NA,true,2,4,NA,NA,NA,left,m_s_061.jpg,green,white,NA,NA,NA,NA,NA,NA,NA,NA,NA,NaN,NA,1783.2999999523163,right,0,NA,NA,NA,NA,NA
T3snscpx,39kv3a5d2bk8g62f2ek1xjbwsefs7u,3j2uybxqqppryh2s141r6j196nq60j,T3snscpx,2020-0188,2021-10-31,06:31:11,07:53:23,NA,incomplete,false,NA,NA,true,2,5,NA,NA,NA,right,m_l_022.jpg,blue,purple,NA,NA,NA,NA,NA,NA,NA,NA,NA,NaN,NA,3423.2999999523163,right,1,NA,NA,NA,NA,NA
T3snscpx,39kv3a5d2bk8g62f2ek1xjbwsefs7u,3j2uybxqqppryh2s141r6j196nq60j,T3snscpx,2020-0188,2021-10-31,06:31:11,07:53:23,NA,incomplete,false,NA,NA,true,2,6,NA,NA,NA,right,m_s_113.jpg,white,black,NA,NA,NA,NA,NA,NA,NA,NA,NA,NaN,NA,2607.399999856949,right,1,NA,NA,NA,NA,NA
T3snscpx,39kv3a5d2bk8g62f2ek1xjbwsefs7u,3j2uybxqqppryh2s141r6j196nq60j,T3snscpx,2020-0188,2021-10-31,06:31:11,07:53:23,NA,incomplete,false,NA,NA,true,2,7,NA,NA,NA,left,n_s_039.jpg,blue,red,NA,NA,NA,NA,NA,NA,NA,NA,NA,NaN,NA,2079.600000143051,left,1,NA,NA,NA,NA,NA
T3snscpx,39kv3a5d2bk8g62f2ek1xjbwsefs7u,3j2uybxqqppryh2s141r6j196nq60j,T3snscpx,2020-0188,2021-10-31,06:31:11,07:53:23,NA,incomplete,false,NA,NA,true,2,8,NA,NA,NA,left,n_s_110.jpg,white,black,NA,NA,NA,NA,NA,NA,NA,NA,NA,NaN,NA,2759.2999999523163,left,1,NA,NA,NA,NA,NA
T3snscpx,39kv3a5d2bk8g62f2ek1xjbwsefs7u,3j2uybxqqppryh2s141r6j196nq60j,T3snscpx,2020-0188,2021-10-31,06:31:11,07:53:23,NA,incomplete,false,NA,NA,true,2,9,NA,NA,NA,right,m_s_084.jpg,white,black,NA,NA,NA,NA,NA,NA,NA,NA,NA,NaN,NA,2599.5,right,1,NA,NA,NA,NA,NA
T3snscpx,39kv3a5d2bk8g62f2ek1xjbwsefs7u,3j2uybxqqppryh2s141r6j196nq60j,T3snscpx,2020-0188,2021-10-31,06:31:11,07:53:23,NA,incomplete,false,NA,NA,true,2,10,NA,NA,NA,left,m_s_062.jpg,black,white,NA,NA,NA,NA,NA,NA,NA,NA,NA,NaN,NA,2367.2000000476837,right,0,NA,NA,NA,NA,NA
T3snscpx,39kv3a5d2bk8g62f2ek1xjbwsefs7u,3j2uybxqqppryh2s141r6j196nq60j,T3snscpx,2020-0188,2021-10-31,06:31:11,07:53:23,NA,incomplete,false,NA,NA,true,2,11,NA,NA,NA,right,n_s_106.jpg,green,red,NA,NA,NA,NA,NA,NA,NA,NA,NA,NaN,NA,2399.2999999523163,right,1,NA,NA,NA,NA,NA
T3snscpx,39kv3a5d2bk8g62f2ek1xjbwsefs7u,3j2uybxqqppryh2s141r6j196nq60j,T3snscpx,2020-0188,2021-10-31,06:31:11,07:53:23,NA,incomplete,false,NA,NA,true,2,12,NA,NA,NA,right,n_s_019.jpg,black,white,NA,NA,NA,NA,NA,NA,NA,NA,NA,NaN,NA,3119.2999999523163,right,1,NA,NA,NA,NA,NA
T3snscpx,39kv3a5d2bk8g62f2ek1xjbwsefs7u,3j2uybxqqppryh2s141r6j196nq60j,T3snscpx,2020-0188,2021-10-31,06:31:11,07:53:23,NA,incomplete,false,NA,NA,true,2,13,NA,NA,NA,right,n_l_096.jpg,green,white,NA,NA,NA,NA,NA,NA,NA,NA,NA,NaN,NA,4359.700000047684,right,1,NA,NA,NA,NA,NA
T3snscpx,39kv3a5d2bk8g62f2ek1xjbwsefs7u,3j2uybxqqppryh2s141r6j196nq60j,T3snscpx,2020-0188,2021-10-31,06:31:11,07:53:23,NA,incomplete,false,NA,NA,true,2,14,NA,NA,NA,right,n_s_085.jpg,blue,purple,NA,NA,NA,NA,NA,NA,NA,NA,NA,NaN,NA,1815,right,1,NA,NA,NA,NA,NA
T3snscpx,39kv3a5d2bk8g62f2ek1xjbwsefs7u,3j2uybxqqppryh2s141r6j196nq60j,T3snscpx,2020-0188,2021-10-31,06:31:11,07:53:23,NA,incomplete,false,NA,NA,true,2,15,NA,NA,NA,right,n_l_110.jpg,blue,red,NA,NA,NA,NA,NA,NA,NA,NA,NA,NaN,NA,2623.2999999523163,left,0,NA,NA,NA,NA,NA
T3snscpx,39kv3a5d2bk8g62f2ek1xjbwsefs7u,3j2uybxqqppryh2s141r6j196nq60j,T3snscpx,2020-0188,2021-10-31,06:31:11,07:53:23,NA,incomplete,false,NA,NA,true,2,16,NA,NA,NA,left,m_s_028.jpg,white,green,NA,NA,NA,NA,NA,NA,NA,NA,NA,NaN,NA,2071.399999856949,left,1,NA,NA,NA,NA,NA
T3snscpx,39kv3a5d2bk8g62f2ek1xjbwsefs7u,3j2uybxqqppryh2s141r6j196nq60j,T3snscpx,2020-0188,2021-10-31,06:31:11,07:53:23,NA,incomplete,false,NA,NA,true,2,17,NA,NA,NA,right,m_l_093.jpg,blue,red,NA,NA,NA,NA,NA,NA,NA,NA,NA,NaN,NA,2967.2999999523163,right,1,NA,NA,NA,NA,NA
T3snscpx,39kv3a5d2bk8g62f2ek1xjbwsefs7u,3j2uybxqqppryh2s141r6j196nq60j,T3snscpx,2020-0188,2021-10-31,06:31:11,07:53:23,NA,incomplete,false,NA,NA,true,2,18,NA,NA,NA,right,n_s_059.jpg,blue,purple,NA,NA,NA,NA,NA,NA,NA,NA,NA,NaN,NA,2047.7999999523163,right,1,NA,NA,NA,NA,NA
T3snscpx,39kv3a5d2bk8g62f2ek1xjbwsefs7u,3j2uybxqqppryh2s141r6j196nq60j,T3snscpx,2020-0188,2021-10-31,06:31:11,07:53:23,NA,incomplete,false,NA,NA,true,2,19,NA,NA,NA,right,m_s_001.jpg,red,blue,NA,NA,NA,NA,NA,NA,NA,NA,NA,NaN,NA,3199.399999856949,right,1,NA,NA,NA,NA,NA
T3snscpx,39kv3a5d2bk8g62f2ek1xjbwsefs7u,3j2uybxqqppryh2s141r6j196nq60j,T3snscpx,2020-0188,2021-10-31,06:31:11,07:53:23,NA,incomplete,false,NA,NA,true,2,20,NA,NA,NA,left,n_l_103.jpg,green,red,NA,NA,NA,NA,NA,NA,NA,NA,NA,NaN,NA,2007.3999998569489,left,1,NA,NA,NA,NA,NA
T3snscpx,39kv3a5d2bk8g62f2ek1xjbwsefs7u,3j2uybxqqppryh2s141r6j196nq60j,T3snscpx,2020-0188,2021-10-31,06:31:11,07:53:23,NA,incomplete,false,NA,NA,true,2,21,NA,NA,NA,left,n_s_006.jpg,blue,purple,NA,NA,NA,NA,NA,NA,NA,NA,NA,NaN,NA,3407.399999856949,right,0,NA,NA,NA,NA,NA
T3snscpx,39kv3a5d2bk8g62f2ek1xjbwsefs7u,3j2uybxqqppryh2s141r6j196nq60j,T3snscpx,2020-0188,2021-10-31,06:31:11,07:53:23,NA,incomplete,false,NA,true,NA,2,0,NA,NA,NA,right,NA,NA,NA,present,NA,NA,n_s_006.jpg,blue,n_s_059.jpg,purple,between,NA,NaN,NA,NA,NA,NA,right,6606.799999952316,1,2,2423.7000000476837
T3snscpx,39kv3a5d2bk8g62f2ek1xjbwsefs7u,3j2uybxqqppryh2s141r6j196nq60j,T3snscpx,2020-0188,2021-10-31,06:31:11,07:53:23,NA,incomplete,false,NA,true,NA,2,1,NA,NA,NA,left,NA,NA,NA,present,NA,NA,n_s_039.jpg,blue,m_l_093.jpg,red,between,NA,NaN,NA,NA,NA,NA,right,3911,0,2,1206.7999999523163
T3snscpx,39kv3a5d2bk8g62f2ek1xjbwsefs7u,3j2uybxqqppryh2s141r6j196nq60j,T3snscpx,2020-0188,2021-10-31,06:31:11,07:53:23,NA,incomplete,false,NA,true,NA,2,2,NA,NA,NA,right,NA,NA,NA,present,NA,NA,n_l_028.jpg,blue,m_s_001.jpg,blue,within,NA,NaN,NA,NA,NA,NA,left,3374.7999999523163,0,0,2486.5
T3snscpx,39kv3a5d2bk8g62f2ek1xjbwsefs7u,3j2uybxqqppryh2s141r6j196nq60j,T3snscpx,2020-0188,2021-10-31,06:31:11,07:53:23,NA,incomplete,false,NA,true,NA,2,3,NA,NA,NA,left,NA,NA,NA,present,NA,NA,n_l_103.jpg,green,n_l_097.jpg,green,within,NA,NaN,NA,NA,NA,NA,right,3390.699999809265,0,1,1439.1999998092651
T3snscpx,39kv3a5d2bk8g62f2ek1xjbwsefs7u,3j2uybxqqppryh2s141r6j196nq60j,T3snscpx,2020-0188,2021-10-31,06:31:11,07:53:23,NA,incomplete,false,NA,true,NA,2,4,NA,NA,NA,right,NA,NA,NA,present,NA,NA,n_s_019.jpg,white,m_s_028.jpg,white,within,NA,NaN,NA,NA,NA,NA,left,3607.399999856949,0,0,1095.7999999523163
T3snscpx,39kv3a5d2bk8g62f2ek1xjbwsefs7u,3j2uybxqqppryh2s141r6j196nq60j,T3snscpx,2020-0188,2021-10-31,06:31:11,07:53:23,NA,incomplete,false,NA,true,NA,2,5,NA,NA,NA,left,NA,NA,NA,present,NA,NA,n_l_110.jpg,red,n_s_070.jpg,red,within,NA,NaN,NA,NA,NA,NA,right,3479.4000000953674,0,0,1311.2000000476837
T3snscpx,39kv3a5d2bk8g62f2ek1xjbwsefs7u,3j2uybxqqppryh2s141r6j196nq60j,T3snscpx,2020-0188,2021-10-31,06:31:11,07:53:23,NA,incomplete,false,NA,true,NA,2,6,NA,NA,NA,left,NA,NA,NA,present,NA,NA,n_s_106.jpg,red,m_l_082.jpg,green,between,NA,NaN,NA,NA,NA,NA,right,4679.299999952316,0,2,1007.2999999523163
T3snscpx,39kv3a5d2bk8g62f2ek1xjbwsefs7u,3j2uybxqqppryh2s141r6j196nq60j,T3snscpx,2020-0188,2021-10-31,06:31:11,07:53:23,NA,incomplete,false,NA,true,NA,2,7,NA,NA,NA,left,NA,NA,NA,present,NA,NA,n_s_110.jpg,white,m_s_062.jpg,black,between,NA,NaN,NA,NA,NA,NA,right,6679.5,0,2,1215.5
T3snscpx,39kv3a5d2bk8g62f2ek1xjbwsefs7u,3j2uybxqqppryh2s141r6j196nq60j,T3snscpx,2020-0188,2021-10-31,06:31:11,07:53:23,NA,incomplete,false,NA,true,NA,2,8,NA,NA,NA,right,NA,NA,NA,present,NA,NA,m_s_084.jpg,black,m_s_113.jpg,black,within,NA,NaN,NA,NA,NA,NA,left,3879.5,0,1,1231.2999999523163
T3snscpx,39kv3a5d2bk8g62f2ek1xjbwsefs7u,3j2uybxqqppryh2s141r6j196nq60j,T3snscpx,2020-0188,2021-10-31,06:31:11,07:53:23,NA,incomplete,false,NA,true,NA,2,9,NA,NA,NA,left,NA,NA,NA,present,NA,NA,m_l_022.jpg,purple,n_s_085.jpg,purple,within,NA,NaN,NA,NA,NA,NA,left,6495.299999952316,1,1,847.4000000953674
T3snscpx,39kv3a5d2bk8g62f2ek1xjbwsefs7u,3j2uybxqqppryh2s141r6j196nq60j,T3snscpx,2020-0188,2021-10-31,06:31:11,07:53:23,NA,incomplete,false,NA,true,NA,2,10,NA,NA,NA,left,NA,NA,NA,present,NA,NA,m_s_061.jpg,green,n_l_096.jpg,white,between,NA,NaN,NA,NA,NA,NA,left,5767.299999952316,1,2,1223.2999999523163
T3snscpx,39kv3a5d2bk8g62f2ek1xjbwsefs7u,3j2uybxqqppryh2s141r6j196nq60j,T3snscpx,2020-0188,2021-10-31,06:31:11,07:53:23,NA,incomplete,false,true,NA,NA,3,0,NA,brown,n_l_018.jpg,NA,NA,NA,NA,NA,unpleasant,pleasant,NA,NA,NA,NA,NA,right,2465.29999995232,true,NA,NA,NA,NA,NA,NA,NA,NA
T3snscpx,39kv3a5d2bk8g62f2ek1xjbwsefs7u,3j2uybxqqppryh2s141r6j196nq60j,T3snscpx,2020-0188,2021-10-31,06:31:11,07:53:23,NA,incomplete,false,true,NA,NA,3,1,NA,brown,n_l_095.jpg,NA,NA,NA,NA,NA,pleasant,unpleasant,NA,NA,NA,NA,NA,left,2490.70000004768,true,NA,NA,NA,NA,NA,NA,NA,NA
T3snscpx,39kv3a5d2bk8g62f2ek1xjbwsefs7u,3j2uybxqqppryh2s141r6j196nq60j,T3snscpx,2020-0188,2021-10-31,06:31:11,07:53:23,NA,incomplete,false,true,NA,NA,3,2,NA,brown,n_l_063.jpg,NA,NA,NA,NA,NA,pleasant,unpleasant,NA,NA,NA,NA,NA,right,2346.70000004768,true,NA,NA,NA,NA,NA,NA,NA,NA
T3snscpx,39kv3a5d2bk8g62f2ek1xjbwsefs7u,3j2uybxqqppryh2s141r6j196nq60j,T3snscpx,2020-0188,2021-10-31,06:31:11,07:53:23,NA,incomplete,false,true,NA,NA,3,3,NA,brown,n_s_033.jpg,NA,NA,NA,NA,NA,unpleasant,pleasant,NA,NA,NA,NA,NA,left,2668.5,true,NA,NA,NA,NA,NA,NA,NA,NA
T3snscpx,39kv3a5d2bk8g62f2ek1xjbwsefs7u,3j2uybxqqppryh2s141r6j196nq60j,T3snscpx,2020-0188,2021-10-31,06:31:11,07:53:23,NA,incomplete,false,true,NA,NA,3,4,NA,brown,m_l_030.jpg,NA,NA,NA,NA,NA,unpleasant,pleasant,NA,NA,NA,NA,NA,right,2732.90000009537,true,NA,NA,NA,NA,NA,NA,NA,NA
T3snscpx,39kv3a5d2bk8g62f2ek1xjbwsefs7u,3j2uybxqqppryh2s141r6j196nq60j,T3snscpx,2020-0188,2021-10-31,06:31:11,07:53:23,NA,incomplete,false,true,NA,NA,3,5,NA,brown,m_l_029.jpg,NA,NA,NA,NA,NA,unpleasant,pleasant,NA,NA,NA,NA,NA,right,1711.5,true,NA,NA,NA,NA,NA,NA,NA,NA
T3snscpx,39kv3a5d2bk8g62f2ek1xjbwsefs7u,3j2uybxqqppryh2s141r6j196nq60j,T3snscpx,2020-0188,2021-10-31,06:31:11,07:53:23,NA,incomplete,false,true,NA,NA,3,6,NA,blue,m_s_033.jpg,NA,NA,NA,NA,NA,pleasant,unpleasant,NA,NA,NA,NA,NA,right,2671.30000019073,true,NA,NA,NA,NA,NA,NA,NA,NA
T3snscpx,39kv3a5d2bk8g62f2ek1xjbwsefs7u,3j2uybxqqppryh2s141r6j196nq60j,T3snscpx,2020-0188,2021-10-31,06:31:11,07:53:23,NA,incomplete,false,true,NA,NA,3,7,NA,blue,m_s_049.jpg,NA,NA,NA,NA,NA,pleasant,unpleasant,NA,NA,NA,NA,NA,left,1528.30000019073,true,NA,NA,NA,NA,NA,NA,NA,NA
T3snscpx,39kv3a5d2bk8g62f2ek1xjbwsefs7u,3j2uybxqqppryh2s141r6j196nq60j,T3snscpx,2020-0188,2021-10-31,06:31:11,07:53:23,NA,incomplete,false,true,NA,NA,3,8,NA,blue,m_s_018.jpg,NA,NA,NA,NA,NA,pleasant,unpleasant,NA,NA,NA,NA,NA,left,2537.29999995232,true,NA,NA,NA,NA,NA,NA,NA,NA
T3snscpx,39kv3a5d2bk8g62f2ek1xjbwsefs7u,3j2uybxqqppryh2s141r6j196nq60j,T3snscpx,2020-0188,2021-10-31,06:31:11,07:53:23,NA,incomplete,false,true,NA,NA,3,9,NA,blue,n_s_087.jpg,NA,NA,NA,NA,NA,unpleasant,pleasant,NA,NA,NA,NA,NA,left,1897.39999985695,true,NA,NA,NA,NA,NA,NA,NA,NA
T3snscpx,39kv3a5d2bk8g62f2ek1xjbwsefs7u,3j2uybxqqppryh2s141r6j196nq60j,T3snscpx,2020-0188,2021-10-31,06:31:11,07:53:23,NA,incomplete,false,true,NA,NA,3,10,NA,blue,m_s_039.jpg,NA,NA,NA,NA,NA,pleasant,unpleasant,NA,NA,NA,NA,NA,right,2387.90000009537,true,NA,NA,NA,NA,NA,NA,NA,NA
T3snscpx,39kv3a5d2bk8g62f2ek1xjbwsefs7u,3j2uybxqqppryh2s141r6j196nq60j,T3snscpx,2020-0188,2021-10-31,06:31:11,07:53:23,NA,incomplete,false,true,NA,NA,3,11,NA,blue,n_l_089.jpg,NA,NA,NA,NA,NA,pleasant,unpleasant,NA,NA,NA,NA,NA,left,1492.69999980927,true,NA,NA,NA,NA,NA,NA,NA,NA
T3snscpx,39kv3a5d2bk8g62f2ek1xjbwsefs7u,3j2uybxqqppryh2s141r6j196nq60j,T3snscpx,2020-0188,2021-10-31,06:31:11,07:53:23,NA,incomplete,false,true,NA,NA,3,12,NA,white,n_l_009.jpg,NA,NA,NA,NA,NA,pleasant,unpleasant,NA,NA,NA,NA,NA,left,2061.90000009537,true,NA,NA,NA,NA,NA,NA,NA,NA
T3snscpx,39kv3a5d2bk8g62f2ek1xjbwsefs7u,3j2uybxqqppryh2s141r6j196nq60j,T3snscpx,2020-0188,2021-10-31,06:31:11,07:53:23,NA,incomplete,false,true,NA,NA,3,13,NA,white,n_s_073.jpg,NA,NA,NA,NA,NA,pleasant,unpleasant,NA,NA,NA,NA,NA,left,1661.79999995232,true,NA,NA,NA,NA,NA,NA,NA,NA
T3snscpx,39kv3a5d2bk8g62f2ek1xjbwsefs7u,3j2uybxqqppryh2s141r6j196nq60j,T3snscpx,2020-0188,2021-10-31,06:31:11,07:53:23,NA,incomplete,false,true,NA,NA,3,14,NA,white,m_l_064.jpg,NA,NA,NA,NA,NA,pleasant,unpleasant,NA,NA,NA,NA,NA,left,1080.89999985695,true,NA,NA,NA,NA,NA,NA,NA,NA
T3snscpx,39kv3a5d2bk8g62f2ek1xjbwsefs7u,3j2uybxqqppryh2s141r6j196nq60j,T3snscpx,2020-0188,2021-10-31,06:31:11,07:53:23,NA,incomplete,false,true,NA,NA,3,15,NA,white,n_l_092.jpg,NA,NA,NA,NA,NA,unpleasant,pleasant,NA,NA,NA,NA,NA,left,2769.40000009537,true,NA,NA,NA,NA,NA,NA,NA,NA
T3snscpx,39kv3a5d2bk8g62f2ek1xjbwsefs7u,3j2uybxqqppryh2s141r6j196nq60j,T3snscpx,2020-0188,2021-10-31,06:31:11,07:53:23,NA,incomplete,false,true,NA,NA,3,16,NA,white,n_s_117.jpg,NA,NA,NA,NA,NA,pleasant,unpleasant,NA,NA,NA,NA,NA,right,2970.59999990463,true,NA,NA,NA,NA,NA,NA,NA,NA
T3snscpx,39kv3a5d2bk8g62f2ek1xjbwsefs7u,3j2uybxqqppryh2s141r6j196nq60j,T3snscpx,2020-0188,2021-10-31,06:31:11,07:53:23,NA,incomplete,false,true,NA,NA,3,17,NA,white,m_l_083.jpg,NA,NA,NA,NA,NA,pleasant,unpleasant,NA,NA,NA,NA,NA,left,2057.5,true,NA,NA,NA,NA,NA,NA,NA,NA
T3snscpx,39kv3a5d2bk8g62f2ek1xjbwsefs7u,3j2uybxqqppryh2s141r6j196nq60j,T3snscpx,2020-0188,2021-10-31,06:31:11,07:53:23,NA,incomplete,false,true,NA,NA,3,18,NA,yellow,n_s_108.jpg,NA,NA,NA,NA,NA,pleasant,unpleasant,NA,NA,NA,NA,NA,right,2666.10000014305,true,NA,NA,NA,NA,NA,NA,NA,NA
T3snscpx,39kv3a5d2bk8g62f2ek1xjbwsefs7u,3j2uybxqqppryh2s141r6j196nq60j,T3snscpx,2020-0188,2021-10-31,06:31:11,07:53:23,NA,incomplete,false,true,NA,NA,3,19,NA,yellow,n_l_053.jpg,NA,NA,NA,NA,NA,pleasant,unpleasant,NA,NA,NA,NA,NA,left,1692.10000014305,true,NA,NA,NA,NA,NA,NA,NA,NA
T3snscpx,39kv3a5d2bk8g62f2ek1xjbwsefs7u,3j2uybxqqppryh2s141r6j196nq60j,T3snscpx,2020-0188,2021-10-31,06:31:11,07:53:23,NA,incomplete,false,true,NA,NA,3,20,NA,yellow,m_l_021.jpg,NA,NA,NA,NA,NA,unpleasant,pleasant,NA,NA,NA,NA,NA,left,2725.5,true,NA,NA,NA,NA,NA,NA,NA,NA
T3snscpx,39kv3a5d2bk8g62f2ek1xjbwsefs7u,3j2uybxqqppryh2s141r6j196nq60j,T3snscpx,2020-0188,2021-10-31,06:31:11,07:53:23,NA,incomplete,false,true,NA,NA,3,21,NA,yellow,m_l_094.jpg,NA,NA,NA,NA,NA,pleasant,unpleasant,NA,NA,NA,NA,NA,left,2342.90000009537,true,NA,NA,NA,NA,NA,NA,NA,NA
T3snscpx,39kv3a5d2bk8g62f2ek1xjbwsefs7u,3j2uybxqqppryh2s141r6j196nq60j,T3snscpx,2020-0188,2021-10-31,06:31:11,07:53:23,NA,incomplete,false,true,NA,NA,3,22,NA,yellow,m_s_070.jpg,NA,NA,NA,NA,NA,pleasant,unpleasant,NA,NA,NA,NA,NA,left,1983.09999990463,true,NA,NA,NA,NA,NA,NA,NA,NA
T3snscpx,39kv3a5d2bk8g62f2ek1xjbwsefs7u,3j2uybxqqppryh2s141r6j196nq60j,T3snscpx,2020-0188,2021-10-31,06:31:11,07:53:23,NA,incomplete,false,true,NA,NA,3,23,NA,yellow,m_s_013.jpg,NA,NA,NA,NA,NA,unpleasant,pleasant,NA,NA,NA,NA,NA,left,1856.30000019073,true,NA,NA,NA,NA,NA,NA,NA,NA
T3snscpx,39kv3a5d2bk8g62f2ek1xjbwsefs7u,3j2uybxqqppryh2s141r6j196nq60j,T3snscpx,2020-0188,2021-10-31,06:31:11,07:53:23,NA,incomplete,false,true,NA,NA,3,24,NA,black,n_s_014.jpg,NA,NA,NA,NA,NA,unpleasant,pleasant,NA,NA,NA,NA,NA,left,1864.5,true,NA,NA,NA,NA,NA,NA,NA,NA
T3snscpx,39kv3a5d2bk8g62f2ek1xjbwsefs7u,3j2uybxqqppryh2s141r6j196nq60j,T3snscpx,2020-0188,2021-10-31,06:31:11,07:53:23,NA,incomplete,false,true,NA,NA,3,25,NA,black,n_s_077.jpg,NA,NA,NA,NA,NA,unpleasant,pleasant,NA,NA,NA,NA,NA,left,2587.29999995232,true,NA,NA,NA,NA,NA,NA,NA,NA
T3snscpx,39kv3a5d2bk8g62f2ek1xjbwsefs7u,3j2uybxqqppryh2s141r6j196nq60j,T3snscpx,2020-0188,2021-10-31,06:31:11,07:53:23,NA,incomplete,false,true,NA,NA,3,26,NA,black,m_l_047.jpg,NA,NA,NA,NA,NA,pleasant,unpleasant,NA,NA,NA,NA,NA,none,0,false,NA,NA,NA,NA,NA,NA,NA,NA
T3snscpx,39kv3a5d2bk8g62f2ek1xjbwsefs7u,3j2uybxqqppryh2s141r6j196nq60j,T3snscpx,2020-0188,2021-10-31,06:31:11,07:53:23,NA,incomplete,false,true,NA,NA,3,27,NA,black,n_s_071.jpg,NA,NA,NA,NA,NA,unpleasant,pleasant,NA,NA,NA,NA,NA,right,2748.30000019073,true,NA,NA,NA,NA,NA,NA,NA,NA
T3snscpx,39kv3a5d2bk8g62f2ek1xjbwsefs7u,3j2uybxqqppryh2s141r6j196nq60j,T3snscpx,2020-0188,2021-10-31,06:31:11,07:53:23,NA,incomplete,false,true,NA,NA,3,28,NA,black,n_s_097.jpg,NA,NA,NA,NA,NA,pleasant,unpleasant,NA,NA,NA,NA,NA,left,1717.89999985695,true,NA,NA,NA,NA,NA,NA,NA,NA
T3snscpx,39kv3a5d2bk8g62f2ek1xjbwsefs7u,3j2uybxqqppryh2s141r6j196nq60j,T3snscpx,2020-0188,2021-10-31,06:31:11,07:53:23,NA,incomplete,false,true,NA,NA,3,29,NA,black,m_l_069.jpg,NA,NA,NA,NA,NA,unpleasant,pleasant,NA,NA,NA,NA,NA,left,2670.40000009537,true,NA,NA,NA,NA,NA,NA,NA,NA
T3snscpx,39kv3a5d2bk8g62f2ek1xjbwsefs7u,3j2uybxqqppryh2s141r6j196nq60j,T3snscpx,2020-0188,2021-10-31,06:31:11,07:53:23,NA,incomplete,false,true,NA,NA,3,30,NA,red,n_s_096.jpg,NA,NA,NA,NA,NA,pleasant,unpleasant,NA,NA,NA,NA,NA,left,1486.29999995232,true,NA,NA,NA,NA,NA,NA,NA,NA
T3snscpx,39kv3a5d2bk8g62f2ek1xjbwsefs7u,3j2uybxqqppryh2s141r6j196nq60j,T3snscpx,2020-0188,2021-10-31,06:31:11,07:53:23,NA,incomplete,false,true,NA,NA,3,31,NA,red,n_s_086.jpg,NA,NA,NA,NA,NA,pleasant,unpleasant,NA,NA,NA,NA,NA,left,3168.5,true,NA,NA,NA,NA,NA,NA,NA,NA
T3snscpx,39kv3a5d2bk8g62f2ek1xjbwsefs7u,3j2uybxqqppryh2s141r6j196nq60j,T3snscpx,2020-0188,2021-10-31,06:31:11,07:53:23,NA,incomplete,false,true,NA,NA,3,32,NA,red,n_s_107.jpg,NA,NA,NA,NA,NA,pleasant,unpleasant,NA,NA,NA,NA,NA,left,3296.90000009537,true,NA,NA,NA,NA,NA,NA,NA,NA
T3snscpx,39kv3a5d2bk8g62f2ek1xjbwsefs7u,3j2uybxqqppryh2s141r6j196nq60j,T3snscpx,2020-0188,2021-10-31,06:31:11,07:53:23,NA,incomplete,false,true,NA,NA,3,33,NA,red,m_l_081.jpg,NA,NA,NA,NA,NA,pleasant,unpleasant,NA,NA,NA,NA,NA,right,2346,true,NA,NA,NA,NA,NA,NA,NA,NA
T3snscpx,39kv3a5d2bk8g62f2ek1xjbwsefs7u,3j2uybxqqppryh2s141r6j196nq60j,T3snscpx,2020-0188,2021-10-31,06:31:11,07:53:23,NA,incomplete,false,true,NA,NA,3,34,NA,red,n_l_115.jpg,NA,NA,NA,NA,NA,pleasant,unpleasant,NA,NA,NA,NA,NA,left,1979.10000014305,true,NA,NA,NA,NA,NA,NA,NA,NA
T3snscpx,39kv3a5d2bk8g62f2ek1xjbwsefs7u,3j2uybxqqppryh2s141r6j196nq60j,T3snscpx,2020-0188,2021-10-31,06:31:11,07:53:23,NA,incomplete,false,true,NA,NA,3,35,NA,red,n_s_021.jpg,NA,NA,NA,NA,NA,unpleasant,pleasant,NA,NA,NA,NA,NA,left,1364.29999995232,true,NA,NA,NA,NA,NA,NA,NA,NA
T3snscpx,39kv3a5d2bk8g62f2ek1xjbwsefs7u,3j2uybxqqppryh2s141r6j196nq60j,T3snscpx,2020-0188,2021-10-31,06:31:11,07:53:23,NA,incomplete,false,NA,NA,true,3,0,NA,NA,NA,left,n_l_095.jpg,brown,blue,NA,NA,NA,NA,NA,NA,NA,NA,NA,NaN,NA,2551.199999809265,left,1,NA,NA,NA,NA,NA
T3snscpx,39kv3a5d2bk8g62f2ek1xjbwsefs7u,3j2uybxqqppryh2s141r6j196nq60j,T3snscpx,2020-0188,2021-10-31,06:31:11,07:53:23,NA,incomplete,false,NA,NA,true,3,1,NA,NA,NA,left,m_l_030.jpg,brown,blue,NA,NA,NA,NA,NA,NA,NA,NA,NA,NaN,NA,1615.1999998092651,left,1,NA,NA,NA,NA,NA
T3snscpx,39kv3a5d2bk8g62f2ek1xjbwsefs7u,3j2uybxqqppryh2s141r6j196nq60j,T3snscpx,2020-0188,2021-10-31,06:31:11,07:53:23,NA,incomplete,false,NA,NA,true,3,2,NA,NA,NA,right,m_s_013.jpg,black,yellow,NA,NA,NA,NA,NA,NA,NA,NA,NA,NaN,NA,3463,left,0,NA,NA,NA,NA,NA
T3snscpx,39kv3a5d2bk8g62f2ek1xjbwsefs7u,3j2uybxqqppryh2s141r6j196nq60j,T3snscpx,2020-0188,2021-10-31,06:31:11,07:53:23,NA,incomplete,false,NA,NA,true,3,3,NA,NA,NA,right,m_s_049.jpg,white,blue,NA,NA,NA,NA,NA,NA,NA,NA,NA,NaN,NA,2103.5999999046326,right,1,NA,NA,NA,NA,NA
T3snscpx,39kv3a5d2bk8g62f2ek1xjbwsefs7u,3j2uybxqqppryh2s141r6j196nq60j,T3snscpx,2020-0188,2021-10-31,06:31:11,07:53:23,NA,incomplete,false,NA,NA,true,3,4,NA,NA,NA,right,n_s_086.jpg,black,red,NA,NA,NA,NA,NA,NA,NA,NA,NA,NaN,NA,3271.100000143051,left,0,NA,NA,NA,NA,NA
T3snscpx,39kv3a5d2bk8g62f2ek1xjbwsefs7u,3j2uybxqqppryh2s141r6j196nq60j,T3snscpx,2020-0188,2021-10-31,06:31:11,07:53:23,NA,incomplete,false,NA,NA,true,3,5,NA,NA,NA,right,n_s_117.jpg,yellow,white,NA,NA,NA,NA,NA,NA,NA,NA,NA,NaN,NA,2415,right,1,NA,NA,NA,NA,NA
T3snscpx,39kv3a5d2bk8g62f2ek1xjbwsefs7u,3j2uybxqqppryh2s141r6j196nq60j,T3snscpx,2020-0188,2021-10-31,06:31:11,07:53:23,NA,incomplete,false,NA,NA,true,3,6,NA,NA,NA,right,n_s_107.jpg,black,red,NA,NA,NA,NA,NA,NA,NA,NA,NA,NaN,NA,3008.0999999046326,right,1,NA,NA,NA,NA,NA
T3snscpx,39kv3a5d2bk8g62f2ek1xjbwsefs7u,3j2uybxqqppryh2s141r6j196nq60j,T3snscpx,2020-0188,2021-10-31,06:31:11,07:53:23,NA,incomplete,false,NA,NA,true,3,7,NA,NA,NA,left,n_l_089.jpg,blue,white,NA,NA,NA,NA,NA,NA,NA,NA,NA,NaN,NA,3159.5,left,1,NA,NA,NA,NA,NA
T3snscpx,39kv3a5d2bk8g62f2ek1xjbwsefs7u,3j2uybxqqppryh2s141r6j196nq60j,T3snscpx,2020-0188,2021-10-31,06:31:11,07:53:23,NA,incomplete,false,NA,NA,true,3,8,NA,NA,NA,left,n_s_073.jpg,white,blue,NA,NA,NA,NA,NA,NA,NA,NA,NA,NaN,NA,2695.899999856949,left,1,NA,NA,NA,NA,NA
T3snscpx,39kv3a5d2bk8g62f2ek1xjbwsefs7u,3j2uybxqqppryh2s141r6j196nq60j,T3snscpx,2020-0188,2021-10-31,06:31:11,07:53:23,NA,incomplete,false,NA,NA,true,3,9,NA,NA,NA,right,m_s_039.jpg,brown,blue,NA,NA,NA,NA,NA,NA,NA,NA,NA,NaN,NA,4695.5,right,1,NA,NA,NA,NA,NA
T3snscpx,39kv3a5d2bk8g62f2ek1xjbwsefs7u,3j2uybxqqppryh2s141r6j196nq60j,T3snscpx,2020-0188,2021-10-31,06:31:11,07:53:23,NA,incomplete,false,NA,NA,true,3,10,NA,NA,NA,left,m_l_083.jpg,white,blue,NA,NA,NA,NA,NA,NA,NA,NA,NA,NaN,NA,2351.5999999046326,left,1,NA,NA,NA,NA,NA
T3snscpx,39kv3a5d2bk8g62f2ek1xjbwsefs7u,3j2uybxqqppryh2s141r6j196nq60j,T3snscpx,2020-0188,2021-10-31,06:31:11,07:53:23,NA,incomplete,false,NA,NA,true,3,11,NA,NA,NA,left,m_l_021.jpg,yellow,black,NA,NA,NA,NA,NA,NA,NA,NA,NA,NaN,NA,1775.4000000953674,right,0,NA,NA,NA,NA,NA
T3snscpx,39kv3a5d2bk8g62f2ek1xjbwsefs7u,3j2uybxqqppryh2s141r6j196nq60j,T3snscpx,2020-0188,2021-10-31,06:31:11,07:53:23,NA,incomplete,false,NA,NA,true,3,12,NA,NA,NA,left,n_l_053.jpg,yellow,black,NA,NA,NA,NA,NA,NA,NA,NA,NA,NaN,NA,6783.299999952316,left,1,NA,NA,NA,NA,NA
T3snscpx,39kv3a5d2bk8g62f2ek1xjbwsefs7u,3j2uybxqqppryh2s141r6j196nq60j,T3snscpx,2020-0188,2021-10-31,06:31:11,07:53:23,NA,incomplete,false,NA,NA,true,3,13,NA,NA,NA,right,m_s_018.jpg,white,blue,NA,NA,NA,NA,NA,NA,NA,NA,NA,NaN,NA,2415.2999999523163,right,1,NA,NA,NA,NA,NA
T3snscpx,39kv3a5d2bk8g62f2ek1xjbwsefs7u,3j2uybxqqppryh2s141r6j196nq60j,T3snscpx,2020-0188,2021-10-31,06:31:11,07:53:23,NA,incomplete,false,NA,NA,true,3,14,NA,NA,NA,left,m_l_047.jpg,black,yellow,NA,NA,NA,NA,NA,NA,NA,NA,NA,NaN,NA,2167.2999999523163,left,1,NA,NA,NA,NA,NA
T3snscpx,39kv3a5d2bk8g62f2ek1xjbwsefs7u,3j2uybxqqppryh2s141r6j196nq60j,T3snscpx,2020-0188,2021-10-31,06:31:11,07:53:23,NA,incomplete,false,NA,NA,true,3,15,NA,NA,NA,right,m_l_064.jpg,yellow,white,NA,NA,NA,NA,NA,NA,NA,NA,NA,NaN,NA,2015.2999999523163,right,1,NA,NA,NA,NA,NA
T3snscpx,39kv3a5d2bk8g62f2ek1xjbwsefs7u,3j2uybxqqppryh2s141r6j196nq60j,T3snscpx,2020-0188,2021-10-31,06:31:11,07:53:23,NA,incomplete,false,NA,NA,true,3,16,NA,NA,NA,left,n_s_021.jpg,red,black,NA,NA,NA,NA,NA,NA,NA,NA,NA,NaN,NA,2639.4000000953674,right,0,NA,NA,NA,NA,NA
T3snscpx,39kv3a5d2bk8g62f2ek1xjbwsefs7u,3j2uybxqqppryh2s141r6j196nq60j,T3snscpx,2020-0188,2021-10-31,06:31:11,07:53:23,NA,incomplete,false,NA,NA,true,3,17,NA,NA,NA,left,n_s_097.jpg,black,yellow,NA,NA,NA,NA,NA,NA,NA,NA,NA,NaN,NA,4247.399999856949,right,0,NA,NA,NA,NA,NA
T3snscpx,39kv3a5d2bk8g62f2ek1xjbwsefs7u,3j2uybxqqppryh2s141r6j196nq60j,T3snscpx,2020-0188,2021-10-31,06:31:11,07:53:23,NA,incomplete,false,NA,NA,true,3,18,NA,NA,NA,right,m_l_029.jpg,blue,brown,NA,NA,NA,NA,NA,NA,NA,NA,NA,NaN,NA,1903.3999998569489,right,1,NA,NA,NA,NA,NA
T3snscpx,39kv3a5d2bk8g62f2ek1xjbwsefs7u,3j2uybxqqppryh2s141r6j196nq60j,T3snscpx,2020-0188,2021-10-31,06:31:11,07:53:23,NA,incomplete,false,NA,NA,true,3,19,NA,NA,NA,right,n_s_077.jpg,yellow,black,NA,NA,NA,NA,NA,NA,NA,NA,NA,NaN,NA,2679.4000000953674,right,1,NA,NA,NA,NA,NA
T3snscpx,39kv3a5d2bk8g62f2ek1xjbwsefs7u,3j2uybxqqppryh2s141r6j196nq60j,T3snscpx,2020-0188,2021-10-31,06:31:11,07:53:23,NA,incomplete,false,NA,NA,true,3,20,NA,NA,NA,left,m_s_070.jpg,yellow,white,NA,NA,NA,NA,NA,NA,NA,NA,NA,NaN,NA,2655.2999999523163,left,1,NA,NA,NA,NA,NA
T3snscpx,39kv3a5d2bk8g62f2ek1xjbwsefs7u,3j2uybxqqppryh2s141r6j196nq60j,T3snscpx,2020-0188,2021-10-31,06:31:11,07:53:23,NA,incomplete,false,NA,NA,true,3,21,NA,NA,NA,right,m_l_069.jpg,red,black,NA,NA,NA,NA,NA,NA,NA,NA,NA,NaN,NA,3511.7999999523163,left,0,NA,NA,NA,NA,NA
T3snscpx,39kv3a5d2bk8g62f2ek1xjbwsefs7u,3j2uybxqqppryh2s141r6j196nq60j,T3snscpx,2020-0188,2021-10-31,06:31:11,07:53:23,NA,incomplete,false,NA,true,NA,3,0,NA,NA,NA,right,NA,NA,NA,present,NA,NA,n_s_107.jpg,red,n_s_097.jpg,black,between,NA,NaN,NA,NA,NA,NA,right,4407.199999809265,1,3,2495.199999809265
T3snscpx,39kv3a5d2bk8g62f2ek1xjbwsefs7u,3j2uybxqqppryh2s141r6j196nq60j,T3snscpx,2020-0188,2021-10-31,06:31:11,07:53:23,NA,incomplete,false,NA,true,NA,3,1,NA,NA,NA,left,NA,NA,NA,present,NA,NA,n_l_053.jpg,yellow,m_s_013.jpg,yellow,within,NA,NaN,NA,NA,NA,NA,left,2695.0999999046326,1,1,959.5
T3snscpx,39kv3a5d2bk8g62f2ek1xjbwsefs7u,3j2uybxqqppryh2s141r6j196nq60j,T3snscpx,2020-0188,2021-10-31,06:31:11,07:53:23,NA,incomplete,false,NA,true,NA,3,2,NA,NA,NA,right,NA,NA,NA,present,NA,NA,n_s_021.jpg,red,n_s_086.jpg,red,within,NA,NaN,NA,NA,NA,NA,left,3727.399999856949,0,0,991.1999998092651
T3snscpx,39kv3a5d2bk8g62f2ek1xjbwsefs7u,3j2uybxqqppryh2s141r6j196nq60j,T3snscpx,2020-0188,2021-10-31,06:31:11,07:53:23,NA,incomplete,false,NA,true,NA,3,3,NA,NA,NA,right,NA,NA,NA,present,NA,NA,n_l_089.jpg,blue,m_s_049.jpg,blue,within,NA,NaN,NA,NA,NA,NA,right,4071.2999999523163,1,1,1655.1999998092651
T3snscpx,39kv3a5d2bk8g62f2ek1xjbwsefs7u,3j2uybxqqppryh2s141r6j196nq60j,T3snscpx,2020-0188,2021-10-31,06:31:11,07:53:23,NA,incomplete,false,NA,true,NA,3,4,NA,NA,NA,left,NA,NA,NA,present,NA,NA,n_s_117.jpg,white,m_l_021.jpg,yellow,between,NA,NaN,NA,NA,NA,NA,right,2935.2999999523163,0,2,1375.2000000476837
T3snscpx,39kv3a5d2bk8g62f2ek1xjbwsefs7u,3j2uybxqqppryh2s141r6j196nq60j,T3snscpx,2020-0188,2021-10-31,06:31:11,07:53:23,NA,incomplete,false,NA,true,NA,3,5,NA,NA,NA,right,NA,NA,NA,present,NA,NA,m_l_069.jpg,black,n_s_077.jpg,black,within,NA,NaN,NA,NA,NA,NA,right,4103.099999904633,1,0,1103.1999998092651
T3snscpx,39kv3a5d2bk8g62f2ek1xjbwsefs7u,3j2uybxqqppryh2s141r6j196nq60j,T3snscpx,2020-0188,2021-10-31,06:31:11,07:53:23,NA,incomplete,false,NA,true,NA,3,6,NA,NA,NA,right,NA,NA,NA,present,NA,NA,m_l_029.jpg,brown,n_l_095.jpg,brown,within,NA,NaN,NA,NA,NA,NA,left,3839.600000143051,0,0,1047.5
T3snscpx,39kv3a5d2bk8g62f2ek1xjbwsefs7u,3j2uybxqqppryh2s141r6j196nq60j,T3snscpx,2020-0188,2021-10-31,06:31:11,07:53:23,NA,incomplete,false,NA,true,NA,3,7,NA,NA,NA,right,NA,NA,NA,present,NA,NA,m_s_018.jpg,blue,m_l_030.jpg,brown,between,NA,NaN,NA,NA,NA,NA,right,2751.2999999523163,1,2,2327.4000000953674
T3snscpx,39kv3a5d2bk8g62f2ek1xjbwsefs7u,3j2uybxqqppryh2s141r6j196nq60j,T3snscpx,2020-0188,2021-10-31,06:31:11,07:53:23,NA,incomplete,false,NA,true,NA,3,8,NA,NA,NA,left,NA,NA,NA,present,NA,NA,m_s_039.jpg,blue,m_l_064.jpg,white,between,NA,NaN,NA,NA,NA,NA,left,5487.299999952316,1,2,775.2999999523163
T3snscpx,39kv3a5d2bk8g62f2ek1xjbwsefs7u,3j2uybxqqppryh2s141r6j196nq60j,T3snscpx,2020-0188,2021-10-31,06:31:11,07:53:23,NA,incomplete,false,NA,true,NA,3,9,NA,NA,NA,right,NA,NA,NA,present,NA,NA,m_l_047.jpg,black,m_s_070.jpg,yellow,between,NA,NaN,NA,NA,NA,NA,right,2487,1,3,1591.5
T3snscpx,39kv3a5d2bk8g62f2ek1xjbwsefs7u,3j2uybxqqppryh2s141r6j196nq60j,T3snscpx,2020-0188,2021-10-31,06:31:11,07:53:23,NA,incomplete,false,NA,true,NA,3,10,NA,NA,NA,left,NA,NA,NA,present,NA,NA,n_s_073.jpg,white,m_l_083.jpg,white,within,NA,NaN,NA,NA,NA,NA,right,2799.2999999523163,0,1,1655.2999999523163
T3snscpx,39kv3a5d2bk8g62f2ek1xjbwsefs7u,3j2uybxqqppryh2s141r6j196nq60j,T3snscpx,2020-0188,2021-10-31,06:31:11,07:53:23,NA,incomplete,false,true,NA,NA,4,0,NA,yellow,m_s_075.jpg,NA,NA,NA,NA,NA,unpleasant,pleasant,NA,NA,NA,NA,NA,right,2592.20000004768,true,NA,NA,NA,NA,NA,NA,NA,NA
T3snscpx,39kv3a5d2bk8g62f2ek1xjbwsefs7u,3j2uybxqqppryh2s141r6j196nq60j,T3snscpx,2020-0188,2021-10-31,06:31:11,07:53:23,NA,incomplete,false,true,NA,NA,4,1,NA,yellow,m_l_054.jpg,NA,NA,NA,NA,NA,unpleasant,pleasant,NA,NA,NA,NA,NA,right,2161.60000014305,true,NA,NA,NA,NA,NA,NA,NA,NA
T3snscpx,39kv3a5d2bk8g62f2ek1xjbwsefs7u,3j2uybxqqppryh2s141r6j196nq60j,T3snscpx,2020-0188,2021-10-31,06:31:11,07:53:23,NA,incomplete,false,true,NA,NA,4,2,NA,yellow,m_s_104.jpg,NA,NA,NA,NA,NA,unpleasant,pleasant,NA,NA,NA,NA,NA,right,1146.89999985695,true,NA,NA,NA,NA,NA,NA,NA,NA
T3snscpx,39kv3a5d2bk8g62f2ek1xjbwsefs7u,3j2uybxqqppryh2s141r6j196nq60j,T3snscpx,2020-0188,2021-10-31,06:31:11,07:53:23,NA,incomplete,false,true,NA,NA,4,3,NA,yellow,m_l_003.jpg,NA,NA,NA,NA,NA,pleasant,unpleasant,NA,NA,NA,NA,NA,right,1804.10000014305,true,NA,NA,NA,NA,NA,NA,NA,NA
T3snscpx,39kv3a5d2bk8g62f2ek1xjbwsefs7u,3j2uybxqqppryh2s141r6j196nq60j,T3snscpx,2020-0188,2021-10-31,06:31:11,07:53:23,NA,incomplete,false,true,NA,NA,4,4,NA,yellow,m_l_045.jpg,NA,NA,NA,NA,NA,pleasant,unpleasant,NA,NA,NA,NA,NA,left,1972.60000014305,true,NA,NA,NA,NA,NA,NA,NA,NA
T3snscpx,39kv3a5d2bk8g62f2ek1xjbwsefs7u,3j2uybxqqppryh2s141r6j196nq60j,T3snscpx,2020-0188,2021-10-31,06:31:11,07:53:23,NA,incomplete,false,true,NA,NA,4,5,NA,yellow,n_s_105.jpg,NA,NA,NA,NA,NA,pleasant,unpleasant,NA,NA,NA,NA,NA,left,2333.79999995232,true,NA,NA,NA,NA,NA,NA,NA,NA
T3snscpx,39kv3a5d2bk8g62f2ek1xjbwsefs7u,3j2uybxqqppryh2s141r6j196nq60j,T3snscpx,2020-0188,2021-10-31,06:31:11,07:53:23,NA,incomplete,false,true,NA,NA,4,6,NA,black,n_l_068.jpg,NA,NA,NA,NA,NA,pleasant,unpleasant,NA,NA,NA,NA,NA,right,1742.60000014305,true,NA,NA,NA,NA,NA,NA,NA,NA
T3snscpx,39kv3a5d2bk8g62f2ek1xjbwsefs7u,3j2uybxqqppryh2s141r6j196nq60j,T3snscpx,2020-0188,2021-10-31,06:31:11,07:53:23,NA,incomplete,false,true,NA,NA,4,7,NA,black,n_s_068.jpg,NA,NA,NA,NA,NA,pleasant,unpleasant,NA,NA,NA,NA,NA,right,2127.40000009537,true,NA,NA,NA,NA,NA,NA,NA,NA
T3snscpx,39kv3a5d2bk8g62f2ek1xjbwsefs7u,3j2uybxqqppryh2s141r6j196nq60j,T3snscpx,2020-0188,2021-10-31,06:31:11,07:53:23,NA,incomplete,false,true,NA,NA,4,8,NA,black,m_l_100.jpg,NA,NA,NA,NA,NA,pleasant,unpleasant,NA,NA,NA,NA,NA,left,1680.29999995232,true,NA,NA,NA,NA,NA,NA,NA,NA
T3snscpx,39kv3a5d2bk8g62f2ek1xjbwsefs7u,3j2uybxqqppryh2s141r6j196nq60j,T3snscpx,2020-0188,2021-10-31,06:31:11,07:53:23,NA,incomplete,false,true,NA,NA,4,9,NA,black,m_s_022.jpg,NA,NA,NA,NA,NA,unpleasant,pleasant,NA,NA,NA,NA,NA,left,2794.5,true,NA,NA,NA,NA,NA,NA,NA,NA
T3snscpx,39kv3a5d2bk8g62f2ek1xjbwsefs7u,3j2uybxqqppryh2s141r6j196nq60j,T3snscpx,2020-0188,2021-10-31,06:31:11,07:53:23,NA,incomplete,false,true,NA,NA,4,10,NA,black,n_l_056.jpg,NA,NA,NA,NA,NA,pleasant,unpleasant,NA,NA,NA,NA,NA,right,1411.20000004768,true,NA,NA,NA,NA,NA,NA,NA,NA
T3snscpx,39kv3a5d2bk8g62f2ek1xjbwsefs7u,3j2uybxqqppryh2s141r6j196nq60j,T3snscpx,2020-0188,2021-10-31,06:31:11,07:53:23,NA,incomplete,false,true,NA,NA,4,11,NA,black,m_l_001.jpg,NA,NA,NA,NA,NA,pleasant,unpleasant,NA,NA,NA,NA,NA,left,2421.09999990463,true,NA,NA,NA,NA,NA,NA,NA,NA
T3snscpx,39kv3a5d2bk8g62f2ek1xjbwsefs7u,3j2uybxqqppryh2s141r6j196nq60j,T3snscpx,2020-0188,2021-10-31,06:31:11,07:53:23,NA,incomplete,false,true,NA,NA,4,12,NA,orange,n_l_017.jpg,NA,NA,NA,NA,NA,pleasant,unpleasant,NA,NA,NA,NA,NA,left,1925.29999995232,true,NA,NA,NA,NA,NA,NA,NA,NA
T3snscpx,39kv3a5d2bk8g62f2ek1xjbwsefs7u,3j2uybxqqppryh2s141r6j196nq60j,T3snscpx,2020-0188,2021-10-31,06:31:11,07:53:23,NA,incomplete,false,true,NA,NA,4,13,NA,orange,n_s_003.jpg,NA,NA,NA,NA,NA,pleasant,unpleasant,NA,NA,NA,NA,NA,left,2862.29999995232,true,NA,NA,NA,NA,NA,NA,NA,NA
T3snscpx,39kv3a5d2bk8g62f2ek1xjbwsefs7u,3j2uybxqqppryh2s141r6j196nq60j,T3snscpx,2020-0188,2021-10-31,06:31:11,07:53:23,NA,incomplete,false,true,NA,NA,4,14,NA,orange,m_l_053.jpg,NA,NA,NA,NA,NA,unpleasant,pleasant,NA,NA,NA,NA,NA,right,1576.39999985695,true,NA,NA,NA,NA,NA,NA,NA,NA
T3snscpx,39kv3a5d2bk8g62f2ek1xjbwsefs7u,3j2uybxqqppryh2s141r6j196nq60j,T3snscpx,2020-0188,2021-10-31,06:31:11,07:53:23,NA,incomplete,false,true,NA,NA,4,15,NA,orange,n_s_037.jpg,NA,NA,NA,NA,NA,unpleasant,pleasant,NA,NA,NA,NA,NA,left,2137,true,NA,NA,NA,NA,NA,NA,NA,NA
T3snscpx,39kv3a5d2bk8g62f2ek1xjbwsefs7u,3j2uybxqqppryh2s141r6j196nq60j,T3snscpx,2020-0188,2021-10-31,06:31:11,07:53:23,NA,incomplete,false,true,NA,NA,4,16,NA,orange,n_l_011.jpg,NA,NA,NA,NA,NA,pleasant,unpleasant,NA,NA,NA,NA,NA,left,1825.5,true,NA,NA,NA,NA,NA,NA,NA,NA
T3snscpx,39kv3a5d2bk8g62f2ek1xjbwsefs7u,3j2uybxqqppryh2s141r6j196nq60j,T3snscpx,2020-0188,2021-10-31,06:31:11,07:53:23,NA,incomplete,false,true,NA,NA,4,17,NA,orange,m_l_103.jpg,NA,NA,NA,NA,NA,pleasant,unpleasant,NA,NA,NA,NA,NA,left,1363.70000004768,true,NA,NA,NA,NA,NA,NA,NA,NA
T3snscpx,39kv3a5d2bk8g62f2ek1xjbwsefs7u,3j2uybxqqppryh2s141r6j196nq60j,T3snscpx,2020-0188,2021-10-31,06:31:11,07:53:23,NA,incomplete,false,true,NA,NA,4,18,NA,blue,n_s_032.jpg,NA,NA,NA,NA,NA,unpleasant,pleasant,NA,NA,NA,NA,NA,left,2004.70000004768,true,NA,NA,NA,NA,NA,NA,NA,NA
T3snscpx,39kv3a5d2bk8g62f2ek1xjbwsefs7u,3j2uybxqqppryh2s141r6j196nq60j,T3snscpx,2020-0188,2021-10-31,06:31:11,07:53:23,NA,incomplete,false,true,NA,NA,4,19,NA,blue,m_l_063.jpg,NA,NA,NA,NA,NA,pleasant,unpleasant,NA,NA,NA,NA,NA,left,1171.90000009537,true,NA,NA,NA,NA,NA,NA,NA,NA
T3snscpx,39kv3a5d2bk8g62f2ek1xjbwsefs7u,3j2uybxqqppryh2s141r6j196nq60j,T3snscpx,2020-0188,2021-10-31,06:31:11,07:53:23,NA,incomplete,false,true,NA,NA,4,20,NA,blue,n_l_081.jpg,NA,NA,NA,NA,NA,pleasant,unpleasant,NA,NA,NA,NA,NA,none,0,false,NA,NA,NA,NA,NA,NA,NA,NA
T3snscpx,39kv3a5d2bk8g62f2ek1xjbwsefs7u,3j2uybxqqppryh2s141r6j196nq60j,T3snscpx,2020-0188,2021-10-31,06:31:11,07:53:23,NA,incomplete,false,true,NA,NA,4,21,NA,blue,n_s_060.jpg,NA,NA,NA,NA,NA,unpleasant,pleasant,NA,NA,NA,NA,NA,left,2349,true,NA,NA,NA,NA,NA,NA,NA,NA
T3snscpx,39kv3a5d2bk8g62f2ek1xjbwsefs7u,3j2uybxqqppryh2s141r6j196nq60j,T3snscpx,2020-0188,2021-10-31,06:31:11,07:53:23,NA,incomplete,false,true,NA,NA,4,22,NA,blue,m_l_038.jpg,NA,NA,NA,NA,NA,unpleasant,pleasant,NA,NA,NA,NA,NA,right,2183.20000004768,true,NA,NA,NA,NA,NA,NA,NA,NA
T3snscpx,39kv3a5d2bk8g62f2ek1xjbwsefs7u,3j2uybxqqppryh2s141r6j196nq60j,T3snscpx,2020-0188,2021-10-31,06:31:11,07:53:23,NA,incomplete,false,true,NA,NA,4,23,NA,blue,m_s_024.jpg,NA,NA,NA,NA,NA,pleasant,unpleasant,NA,NA,NA,NA,NA,right,1783.89999985695,true,NA,NA,NA,NA,NA,NA,NA,NA
T3snscpx,39kv3a5d2bk8g62f2ek1xjbwsefs7u,3j2uybxqqppryh2s141r6j196nq60j,T3snscpx,2020-0188,2021-10-31,06:31:11,07:53:23,NA,incomplete,false,true,NA,NA,4,24,NA,brown,m_l_089.jpg,NA,NA,NA,NA,NA,pleasant,unpleasant,NA,NA,NA,NA,NA,left,1977.5,true,NA,NA,NA,NA,NA,NA,NA,NA
T3snscpx,39kv3a5d2bk8g62f2ek1xjbwsefs7u,3j2uybxqqppryh2s141r6j196nq60j,T3snscpx,2020-0188,2021-10-31,06:31:11,07:53:23,NA,incomplete,false,true,NA,NA,4,25,NA,brown,n_s_023.jpg,NA,NA,NA,NA,NA,pleasant,unpleasant,NA,NA,NA,NA,NA,left,2393.20000004768,true,NA,NA,NA,NA,NA,NA,NA,NA
T3snscpx,39kv3a5d2bk8g62f2ek1xjbwsefs7u,3j2uybxqqppryh2s141r6j196nq60j,T3snscpx,2020-0188,2021-10-31,06:31:11,07:53:23,NA,incomplete,false,true,NA,NA,4,26,NA,brown,m_s_095.jpg,NA,NA,NA,NA,NA,pleasant,unpleasant,NA,NA,NA,NA,NA,left,2349.09999990463,true,NA,NA,NA,NA,NA,NA,NA,NA
T3snscpx,39kv3a5d2bk8g62f2ek1xjbwsefs7u,3j2uybxqqppryh2s141r6j196nq60j,T3snscpx,2020-0188,2021-10-31,06:31:11,07:53:23,NA,incomplete,false,true,NA,NA,4,27,NA,brown,m_s_015.jpg,NA,NA,NA,NA,NA,pleasant,unpleasant,NA,NA,NA,NA,NA,left,1700.90000009537,true,NA,NA,NA,NA,NA,NA,NA,NA
T3snscpx,39kv3a5d2bk8g62f2ek1xjbwsefs7u,3j2uybxqqppryh2s141r6j196nq60j,T3snscpx,2020-0188,2021-10-31,06:31:11,07:53:23,NA,incomplete,false,true,NA,NA,4,28,NA,brown,n_s_007.jpg,NA,NA,NA,NA,NA,pleasant,unpleasant,NA,NA,NA,NA,NA,left,2341.70000004768,true,NA,NA,NA,NA,NA,NA,NA,NA
T3snscpx,39kv3a5d2bk8g62f2ek1xjbwsefs7u,3j2uybxqqppryh2s141r6j196nq60j,T3snscpx,2020-0188,2021-10-31,06:31:11,07:53:23,NA,incomplete,false,true,NA,NA,4,29,NA,brown,m_s_099.jpg,NA,NA,NA,NA,NA,pleasant,unpleasant,NA,NA,NA,NA,NA,left,2007.39999985695,true,NA,NA,NA,NA,NA,NA,NA,NA
T3snscpx,39kv3a5d2bk8g62f2ek1xjbwsefs7u,3j2uybxqqppryh2s141r6j196nq60j,T3snscpx,2020-0188,2021-10-31,06:31:11,07:53:23,NA,incomplete,false,true,NA,NA,4,30,NA,green,n_l_042.jpg,NA,NA,NA,NA,NA,unpleasant,pleasant,NA,NA,NA,NA,NA,right,2024.79999995232,true,NA,NA,NA,NA,NA,NA,NA,NA
T3snscpx,39kv3a5d2bk8g62f2ek1xjbwsefs7u,3j2uybxqqppryh2s141r6j196nq60j,T3snscpx,2020-0188,2021-10-31,06:31:11,07:53:23,NA,incomplete,false,true,NA,NA,4,31,NA,green,m_l_020.jpg,NA,NA,NA,NA,NA,pleasant,unpleasant,NA,NA,NA,NA,NA,right,1993.20000004768,true,NA,NA,NA,NA,NA,NA,NA,NA
T3snscpx,39kv3a5d2bk8g62f2ek1xjbwsefs7u,3j2uybxqqppryh2s141r6j196nq60j,T3snscpx,2020-0188,2021-10-31,06:31:11,07:53:23,NA,incomplete,false,true,NA,NA,4,32,NA,green,m_s_079.jpg,NA,NA,NA,NA,NA,unpleasant,pleasant,NA,NA,NA,NA,NA,left,2932,true,NA,NA,NA,NA,NA,NA,NA,NA
T3snscpx,39kv3a5d2bk8g62f2ek1xjbwsefs7u,3j2uybxqqppryh2s141r6j196nq60j,T3snscpx,2020-0188,2021-10-31,06:31:11,07:53:23,NA,incomplete,false,true,NA,NA,4,33,NA,green,m_s_090.jpg,NA,NA,NA,NA,NA,unpleasant,pleasant,NA,NA,NA,NA,NA,right,1892.80000019073,true,NA,NA,NA,NA,NA,NA,NA,NA
T3snscpx,39kv3a5d2bk8g62f2ek1xjbwsefs7u,3j2uybxqqppryh2s141r6j196nq60j,T3snscpx,2020-0188,2021-10-31,06:31:11,07:53:23,NA,incomplete,false,true,NA,NA,4,34,NA,green,n_s_027.jpg,NA,NA,NA,NA,NA,unpleasant,pleasant,NA,NA,NA,NA,NA,left,2477.89999985695,true,NA,NA,NA,NA,NA,NA,NA,NA
T3snscpx,39kv3a5d2bk8g62f2ek1xjbwsefs7u,3j2uybxqqppryh2s141r6j196nq60j,T3snscpx,2020-0188,2021-10-31,06:31:11,07:53:23,NA,incomplete,false,true,NA,NA,4,35,NA,green,n_s_091.jpg,NA,NA,NA,NA,NA,unpleasant,pleasant,NA,NA,NA,NA,NA,right,2550.79999995232,true,NA,NA,NA,NA,NA,NA,NA,NA
T3snscpx,39kv3a5d2bk8g62f2ek1xjbwsefs7u,3j2uybxqqppryh2s141r6j196nq60j,T3snscpx,2020-0188,2021-10-31,06:31:11,07:53:23,NA,incomplete,false,NA,NA,true,4,0,NA,NA,NA,right,n_s_068.jpg,yellow,black,NA,NA,NA,NA,NA,NA,NA,NA,NA,NaN,NA,6815.200000047684,right,1,NA,NA,NA,NA,NA
T3snscpx,39kv3a5d2bk8g62f2ek1xjbwsefs7u,3j2uybxqqppryh2s141r6j196nq60j,T3snscpx,2020-0188,2021-10-31,06:31:11,07:53:23,NA,incomplete,false,NA,NA,true,4,1,NA,NA,NA,left,m_s_079.jpg,green,brown,NA,NA,NA,NA,NA,NA,NA,NA,NA,NaN,NA,3295.2999999523163,left,1,NA,NA,NA,NA,NA
T3snscpx,39kv3a5d2bk8g62f2ek1xjbwsefs7u,3j2uybxqqppryh2s141r6j196nq60j,T3snscpx,2020-0188,2021-10-31,06:31:11,07:53:23,NA,incomplete,false,NA,NA,true,4,2,NA,NA,NA,right,n_l_056.jpg,yellow,black,NA,NA,NA,NA,NA,NA,NA,NA,NA,NaN,NA,3255.2999999523163,left,0,NA,NA,NA,NA,NA
T3snscpx,39kv3a5d2bk8g62f2ek1xjbwsefs7u,3j2uybxqqppryh2s141r6j196nq60j,T3snscpx,2020-0188,2021-10-31,06:31:11,07:53:23,NA,incomplete,false,NA,NA,true,4,3,NA,NA,NA,right,n_l_081.jpg,orange,blue,NA,NA,NA,NA,NA,NA,NA,NA,NA,NaN,NA,2583.399999856949,right,1,NA,NA,NA,NA,NA
T3snscpx,39kv3a5d2bk8g62f2ek1xjbwsefs7u,3j2uybxqqppryh2s141r6j196nq60j,T3snscpx,2020-0188,2021-10-31,06:31:11,07:53:23,NA,incomplete,false,NA,NA,true,4,4,NA,NA,NA,right,n_s_007.jpg,blue,brown,NA,NA,NA,NA,NA,NA,NA,NA,NA,NaN,NA,2007.3999998569489,right,1,NA,NA,NA,NA,NA
T3snscpx,39kv3a5d2bk8g62f2ek1xjbwsefs7u,3j2uybxqqppryh2s141r6j196nq60j,T3snscpx,2020-0188,2021-10-31,06:31:11,07:53:23,NA,incomplete,false,NA,NA,true,4,5,NA,NA,NA,right,m_l_054.jpg,black,yellow,NA,NA,NA,NA,NA,NA,NA,NA,NA,NaN,NA,2103.399999856949,left,0,NA,NA,NA,NA,NA
T3snscpx,39kv3a5d2bk8g62f2ek1xjbwsefs7u,3j2uybxqqppryh2s141r6j196nq60j,T3snscpx,2020-0188,2021-10-31,06:31:11,07:53:23,NA,incomplete,false,NA,NA,true,4,6,NA,NA,NA,left,m_l_038.jpg,blue,brown,NA,NA,NA,NA,NA,NA,NA,NA,NA,NaN,NA,2391.2999999523163,right,0,NA,NA,NA,NA,NA
T3snscpx,39kv3a5d2bk8g62f2ek1xjbwsefs7u,3j2uybxqqppryh2s141r6j196nq60j,T3snscpx,2020-0188,2021-10-31,06:31:11,07:53:23,NA,incomplete,false,NA,NA,true,4,7,NA,NA,NA,left,n_s_091.jpg,green,brown,NA,NA,NA,NA,NA,NA,NA,NA,NA,NaN,NA,1847.2000000476837,right,0,NA,NA,NA,NA,NA
T3snscpx,39kv3a5d2bk8g62f2ek1xjbwsefs7u,3j2uybxqqppryh2s141r6j196nq60j,T3snscpx,2020-0188,2021-10-31,06:31:11,07:53:23,NA,incomplete,false,NA,NA,true,4,8,NA,NA,NA,left,m_l_001.jpg,black,orange,NA,NA,NA,NA,NA,NA,NA,NA,NA,NaN,NA,3583.399999856949,left,1,NA,NA,NA,NA,NA
T3snscpx,39kv3a5d2bk8g62f2ek1xjbwsefs7u,3j2uybxqqppryh2s141r6j196nq60j,T3snscpx,2020-0188,2021-10-31,06:31:11,07:53:23,NA,incomplete,false,NA,NA,true,4,9,NA,NA,NA,left,m_s_099.jpg,brown,green,NA,NA,NA,NA,NA,NA,NA,NA,NA,NaN,NA,2815,right,0,NA,NA,NA,NA,NA
T3snscpx,39kv3a5d2bk8g62f2ek1xjbwsefs7u,3j2uybxqqppryh2s141r6j196nq60j,T3snscpx,2020-0188,2021-10-31,06:31:11,07:53:23,NA,incomplete,false,NA,NA,true,4,10,NA,NA,NA,right,m_l_063.jpg,orange,blue,NA,NA,NA,NA,NA,NA,NA,NA,NA,NaN,NA,1903.3999998569489,right,1,NA,NA,NA,NA,NA
T3snscpx,39kv3a5d2bk8g62f2ek1xjbwsefs7u,3j2uybxqqppryh2s141r6j196nq60j,T3snscpx,2020-0188,2021-10-31,06:31:11,07:53:23,NA,incomplete,false,NA,NA,true,4,11,NA,NA,NA,right,m_l_100.jpg,orange,black,NA,NA,NA,NA,NA,NA,NA,NA,NA,NaN,NA,1839.0999999046326,right,1,NA,NA,NA,NA,NA
T3snscpx,39kv3a5d2bk8g62f2ek1xjbwsefs7u,3j2uybxqqppryh2s141r6j196nq60j,T3snscpx,2020-0188,2021-10-31,06:31:11,07:53:23,NA,incomplete,false,NA,NA,true,4,12,NA,NA,NA,left,n_s_003.jpg,orange,blue,NA,NA,NA,NA,NA,NA,NA,NA,NA,NaN,NA,1975,left,1,NA,NA,NA,NA,NA
T3snscpx,39kv3a5d2bk8g62f2ek1xjbwsefs7u,3j2uybxqqppryh2s141r6j196nq60j,T3snscpx,2020-0188,2021-10-31,06:31:11,07:53:23,NA,incomplete,false,NA,NA,true,4,13,NA,NA,NA,left,m_l_103.jpg,orange,black,NA,NA,NA,NA,NA,NA,NA,NA,NA,NaN,NA,1999.2999999523163,right,0,NA,NA,NA,NA,NA
T3snscpx,39kv3a5d2bk8g62f2ek1xjbwsefs7u,3j2uybxqqppryh2s141r6j196nq60j,T3snscpx,2020-0188,2021-10-31,06:31:11,07:53:23,NA,incomplete,false,NA,NA,true,4,14,NA,NA,NA,left,m_l_045.jpg,yellow,black,NA,NA,NA,NA,NA,NA,NA,NA,NA,NaN,NA,1623.2999999523163,right,0,NA,NA,NA,NA,NA
T3snscpx,39kv3a5d2bk8g62f2ek1xjbwsefs7u,3j2uybxqqppryh2s141r6j196nq60j,T3snscpx,2020-0188,2021-10-31,06:31:11,07:53:23,NA,incomplete,false,NA,NA,true,4,15,NA,NA,NA,right,m_s_095.jpg,blue,brown,NA,NA,NA,NA,NA,NA,NA,NA,NA,NaN,NA,2567.399999856949,right,1,NA,NA,NA,NA,NA
T3snscpx,39kv3a5d2bk8g62f2ek1xjbwsefs7u,3j2uybxqqppryh2s141r6j196nq60j,T3snscpx,2020-0188,2021-10-31,06:31:11,07:53:23,NA,incomplete,false,NA,NA,true,4,16,NA,NA,NA,left,m_s_024.jpg,blue,orange,NA,NA,NA,NA,NA,NA,NA,NA,NA,NaN,NA,3215.2000000476837,left,1,NA,NA,NA,NA,NA
T3snscpx,39kv3a5d2bk8g62f2ek1xjbwsefs7u,3j2uybxqqppryh2s141r6j196nq60j,T3snscpx,2020-0188,2021-10-31,06:31:11,07:53:23,NA,incomplete,false,NA,NA,true,4,17,NA,NA,NA,right,n_s_023.jpg,blue,brown,NA,NA,NA,NA,NA,NA,NA,NA,NA,NaN,NA,3823.399999856949,right,1,NA,NA,NA,NA,NA
T3snscpx,39kv3a5d2bk8g62f2ek1xjbwsefs7u,3j2uybxqqppryh2s141r6j196nq60j,T3snscpx,2020-0188,2021-10-31,06:31:11,07:53:23,NA,incomplete,false,NA,NA,true,4,18,NA,NA,NA,right,n_s_105.jpg,black,yellow,NA,NA,NA,NA,NA,NA,NA,NA,NA,NaN,NA,2023.2999999523163,right,1,NA,NA,NA,NA,NA
T3snscpx,39kv3a5d2bk8g62f2ek1xjbwsefs7u,3j2uybxqqppryh2s141r6j196nq60j,T3snscpx,2020-0188,2021-10-31,06:31:11,07:53:23,NA,incomplete,false,NA,NA,true,4,19,NA,NA,NA,left,n_l_011.jpg,orange,blue,NA,NA,NA,NA,NA,NA,NA,NA,NA,NaN,NA,2927.4000000953674,left,1,NA,NA,NA,NA,NA
T3snscpx,39kv3a5d2bk8g62f2ek1xjbwsefs7u,3j2uybxqqppryh2s141r6j196nq60j,T3snscpx,2020-0188,2021-10-31,06:31:11,07:53:23,NA,incomplete,false,NA,NA,true,4,20,NA,NA,NA,right,m_l_053.jpg,blue,orange,NA,NA,NA,NA,NA,NA,NA,NA,NA,NaN,NA,1919.2999999523163,right,1,NA,NA,NA,NA,NA
T3snscpx,39kv3a5d2bk8g62f2ek1xjbwsefs7u,3j2uybxqqppryh2s141r6j196nq60j,T3snscpx,2020-0188,2021-10-31,06:31:11,07:53:23,NA,incomplete,false,NA,NA,true,4,21,NA,NA,NA,left,m_l_020.jpg,green,brown,NA,NA,NA,NA,NA,NA,NA,NA,NA,NaN,NA,1863.2999999523163,right,0,NA,NA,NA,NA,NA
T3snscpx,39kv3a5d2bk8g62f2ek1xjbwsefs7u,3j2uybxqqppryh2s141r6j196nq60j,T3snscpx,2020-0188,2021-10-31,06:31:11,07:53:23,NA,incomplete,false,NA,true,NA,4,0,NA,NA,NA,left,NA,NA,NA,present,NA,NA,m_l_020.jpg,green,n_s_091.jpg,green,within,NA,NaN,NA,NA,NA,NA,left,5814.299999952316,1,0,2062.600000143051
T3snscpx,39kv3a5d2bk8g62f2ek1xjbwsefs7u,3j2uybxqqppryh2s141r6j196nq60j,T3snscpx,2020-0188,2021-10-31,06:31:11,07:53:23,NA,incomplete,false,NA,true,NA,4,1,NA,NA,NA,left,NA,NA,NA,present,NA,NA,n_l_011.jpg,orange,n_l_081.jpg,blue,between,NA,NaN,NA,NA,NA,NA,left,5519.400000095367,1,2,1439.4000000953674
T3snscpx,39kv3a5d2bk8g62f2ek1xjbwsefs7u,3j2uybxqqppryh2s141r6j196nq60j,T3snscpx,2020-0188,2021-10-31,06:31:11,07:53:23,NA,incomplete,false,NA,true,NA,4,2,NA,NA,NA,right,NA,NA,NA,present,NA,NA,m_s_095.jpg,brown,m_l_038.jpg,blue,between,NA,NaN,NA,NA,NA,NA,left,5887,0,2,1095.3000001907349
T3snscpx,39kv3a5d2bk8g62f2ek1xjbwsefs7u,3j2uybxqqppryh2s141r6j196nq60j,T3snscpx,2020-0188,2021-10-31,06:31:11,07:53:23,NA,incomplete,false,NA,true,NA,4,3,NA,NA,NA,left,NA,NA,NA,present,NA,NA,n_s_007.jpg,brown,m_s_079.jpg,green,between,NA,NaN,NA,NA,NA,NA,left,2255.4000000953674,1,2,1223.5
T3snscpx,39kv3a5d2bk8g62f2ek1xjbwsefs7u,3j2uybxqqppryh2s141r6j196nq60j,T3snscpx,2020-0188,2021-10-31,06:31:11,07:53:23,NA,incomplete,false,NA,true,NA,4,4,NA,NA,NA,right,NA,NA,NA,present,NA,NA,n_s_105.jpg,yellow,m_l_054.jpg,yellow,within,NA,NaN,NA,NA,NA,NA,right,2447.4000000953674,1,0,1015
T3snscpx,39kv3a5d2bk8g62f2ek1xjbwsefs7u,3j2uybxqqppryh2s141r6j196nq60j,T3snscpx,2020-0188,2021-10-31,06:31:11,07:53:23,NA,incomplete,false,NA,true,NA,4,5,NA,NA,NA,right,NA,NA,NA,present,NA,NA,m_l_103.jpg,orange,n_s_003.jpg,orange,within,NA,NaN,NA,NA,NA,NA,left,3039.4000000953674,0,1,1063.4000000953674
T3snscpx,39kv3a5d2bk8g62f2ek1xjbwsefs7u,3j2uybxqqppryh2s141r6j196nq60j,T3snscpx,2020-0188,2021-10-31,06:31:11,07:53:23,NA,incomplete,false,NA,true,NA,4,6,NA,NA,NA,right,NA,NA,NA,present,NA,NA,m_s_024.jpg,blue,m_l_063.jpg,blue,within,NA,NaN,NA,NA,NA,NA,left,2847.300000190735,0,0,1303.7999999523163
T3snscpx,39kv3a5d2bk8g62f2ek1xjbwsefs7u,3j2uybxqqppryh2s141r6j196nq60j,T3snscpx,2020-0188,2021-10-31,06:31:11,07:53:23,NA,incomplete,false,NA,true,NA,4,7,NA,NA,NA,right,NA,NA,NA,present,NA,NA,m_l_001.jpg,black,n_s_068.jpg,black,within,NA,NaN,NA,NA,NA,NA,right,3311.2000000476837,1,1,3415.4000000953674
T3snscpx,39kv3a5d2bk8g62f2ek1xjbwsefs7u,3j2uybxqqppryh2s141r6j196nq60j,T3snscpx,2020-0188,2021-10-31,06:31:11,07:53:23,NA,incomplete,false,NA,true,NA,4,8,NA,NA,NA,left,NA,NA,NA,present,NA,NA,n_l_056.jpg,black,m_l_053.jpg,orange,between,NA,NaN,NA,NA,NA,NA,right,3327.399999856949,0,2,1047.4000000953674
T3snscpx,39kv3a5d2bk8g62f2ek1xjbwsefs7u,3j2uybxqqppryh2s141r6j196nq60j,T3snscpx,2020-0188,2021-10-31,06:31:11,07:53:23,NA,incomplete,false,NA,true,NA,4,9,NA,NA,NA,left,NA,NA,NA,present,NA,NA,n_s_023.jpg,brown,m_s_099.jpg,brown,within,NA,NaN,NA,NA,NA,NA,right,6695.700000047684,0,1,2175.5
T3snscpx,39kv3a5d2bk8g62f2ek1xjbwsefs7u,3j2uybxqqppryh2s141r6j196nq60j,T3snscpx,2020-0188,2021-10-31,06:31:11,07:53:23,NA,incomplete,false,NA,true,NA,4,10,NA,NA,NA,right,NA,NA,NA,present,NA,NA,m_l_100.jpg,black,m_l_045.jpg,yellow,between,NA,NaN,NA,NA,NA,NA,left,5183.5,0,2,1975.7999999523163
T3snscpx,39kv3a5d2bk8g62f2ek1xjbwsefs7u,3j2uybxqqppryh2s141r6j196nq60j,T3snscpx,2020-0188,2021-10-31,06:31:11,07:53:23,NA,incomplete,false,true,NA,NA,5,0,NA,yellow,m_l_102.jpg,NA,NA,NA,NA,NA,pleasant,unpleasant,NA,NA,NA,NA,NA,left,3017.20000004768,true,NA,NA,NA,NA,NA,NA,NA,NA
T3snscpx,39kv3a5d2bk8g62f2ek1xjbwsefs7u,3j2uybxqqppryh2s141r6j196nq60j,T3snscpx,2020-0188,2021-10-31,06:31:11,07:53:23,NA,incomplete,false,true,NA,NA,5,1,NA,yellow,m_l_007.jpg,NA,NA,NA,NA,NA,pleasant,unpleasant,NA,NA,NA,NA,NA,right,2122,true,NA,NA,NA,NA,NA,NA,NA,NA
T3snscpx,39kv3a5d2bk8g62f2ek1xjbwsefs7u,3j2uybxqqppryh2s141r6j196nq60j,T3snscpx,2020-0188,2021-10-31,06:31:11,07:53:23,NA,incomplete,false,true,NA,NA,5,2,NA,yellow,n_l_091.jpg,NA,NA,NA,NA,NA,unpleasant,pleasant,NA,NA,NA,NA,NA,left,2739.5,true,NA,NA,NA,NA,NA,NA,NA,NA
T3snscpx,39kv3a5d2bk8g62f2ek1xjbwsefs7u,3j2uybxqqppryh2s141r6j196nq60j,T3snscpx,2020-0188,2021-10-31,06:31:11,07:53:23,NA,incomplete,false,true,NA,NA,5,3,NA,yellow,n_s_001.jpg,NA,NA,NA,NA,NA,unpleasant,pleasant,NA,NA,NA,NA,NA,left,1482.90000009537,true,NA,NA,NA,NA,NA,NA,NA,NA
T3snscpx,39kv3a5d2bk8g62f2ek1xjbwsefs7u,3j2uybxqqppryh2s141r6j196nq60j,T3snscpx,2020-0188,2021-10-31,06:31:11,07:53:23,NA,incomplete,false,true,NA,NA,5,4,NA,yellow,n_l_033.jpg,NA,NA,NA,NA,NA,unpleasant,pleasant,NA,NA,NA,NA,NA,right,2804.79999995232,true,NA,NA,NA,NA,NA,NA,NA,NA
T3snscpx,39kv3a5d2bk8g62f2ek1xjbwsefs7u,3j2uybxqqppryh2s141r6j196nq60j,T3snscpx,2020-0188,2021-10-31,06:31:11,07:53:23,NA,incomplete,false,true,NA,NA,5,5,NA,yellow,m_s_101.jpg,NA,NA,NA,NA,NA,unpleasant,pleasant,NA,NA,NA,NA,NA,right,1878,true,NA,NA,NA,NA,NA,NA,NA,NA
T3snscpx,39kv3a5d2bk8g62f2ek1xjbwsefs7u,3j2uybxqqppryh2s141r6j196nq60j,T3snscpx,2020-0188,2021-10-31,06:31:11,07:53:23,NA,incomplete,false,true,NA,NA,5,6,NA,red,n_l_108.jpg,NA,NA,NA,NA,NA,pleasant,unpleasant,NA,NA,NA,NA,NA,left,2974.79999995232,true,NA,NA,NA,NA,NA,NA,NA,NA
T3snscpx,39kv3a5d2bk8g62f2ek1xjbwsefs7u,3j2uybxqqppryh2s141r6j196nq60j,T3snscpx,2020-0188,2021-10-31,06:31:11,07:53:23,NA,incomplete,false,true,NA,NA,5,7,NA,red,m_l_091.jpg,NA,NA,NA,NA,NA,pleasant,unpleasant,NA,NA,NA,NA,NA,right,1327,true,NA,NA,NA,NA,NA,NA,NA,NA
T3snscpx,39kv3a5d2bk8g62f2ek1xjbwsefs7u,3j2uybxqqppryh2s141r6j196nq60j,T3snscpx,2020-0188,2021-10-31,06:31:11,07:53:23,NA,incomplete,false,true,NA,NA,5,8,NA,red,m_l_076.jpg,NA,NA,NA,NA,NA,unpleasant,pleasant,NA,NA,NA,NA,NA,right,1737.39999985695,true,NA,NA,NA,NA,NA,NA,NA,NA
T3snscpx,39kv3a5d2bk8g62f2ek1xjbwsefs7u,3j2uybxqqppryh2s141r6j196nq60j,T3snscpx,2020-0188,2021-10-31,06:31:11,07:53:23,NA,incomplete,false,true,NA,NA,5,9,NA,red,m_l_050.jpg,NA,NA,NA,NA,NA,unpleasant,pleasant,NA,NA,NA,NA,NA,right,1009.5,true,NA,NA,NA,NA,NA,NA,NA,NA
T3snscpx,39kv3a5d2bk8g62f2ek1xjbwsefs7u,3j2uybxqqppryh2s141r6j196nq60j,T3snscpx,2020-0188,2021-10-31,06:31:11,07:53:23,NA,incomplete,false,true,NA,NA,5,10,NA,red,m_s_064.jpg,NA,NA,NA,NA,NA,pleasant,unpleasant,NA,NA,NA,NA,NA,right,1097.69999980927,true,NA,NA,NA,NA,NA,NA,NA,NA
T3snscpx,39kv3a5d2bk8g62f2ek1xjbwsefs7u,3j2uybxqqppryh2s141r6j196nq60j,T3snscpx,2020-0188,2021-10-31,06:31:11,07:53:23,NA,incomplete,false,true,NA,NA,5,11,NA,red,m_s_021.jpg,NA,NA,NA,NA,NA,pleasant,unpleasant,NA,NA,NA,NA,NA,right,1675.59999990463,true,NA,NA,NA,NA,NA,NA,NA,NA
T3snscpx,39kv3a5d2bk8g62f2ek1xjbwsefs7u,3j2uybxqqppryh2s141r6j196nq60j,T3snscpx,2020-0188,2021-10-31,06:31:11,07:53:23,NA,incomplete,false,true,NA,NA,5,12,NA,purple,n_l_113.jpg,NA,NA,NA,NA,NA,unpleasant,pleasant,NA,NA,NA,NA,NA,left,2661.29999995232,true,NA,NA,NA,NA,NA,NA,NA,NA
T3snscpx,39kv3a5d2bk8g62f2ek1xjbwsefs7u,3j2uybxqqppryh2s141r6j196nq60j,T3snscpx,2020-0188,2021-10-31,06:31:11,07:53:23,NA,incomplete,false,true,NA,NA,5,13,NA,purple,m_s_045.jpg,NA,NA,NA,NA,NA,pleasant,unpleasant,NA,NA,NA,NA,NA,left,1286.5,true,NA,NA,NA,NA,NA,NA,NA,NA
T3snscpx,39kv3a5d2bk8g62f2ek1xjbwsefs7u,3j2uybxqqppryh2s141r6j196nq60j,T3snscpx,2020-0188,2021-10-31,06:31:11,07:53:23,NA,incomplete,false,true,NA,NA,5,14,NA,purple,n_s_054.jpg,NA,NA,NA,NA,NA,unpleasant,pleasant,NA,NA,NA,NA,NA,left,1719.90000009537,true,NA,NA,NA,NA,NA,NA,NA,NA
T3snscpx,39kv3a5d2bk8g62f2ek1xjbwsefs7u,3j2uybxqqppryh2s141r6j196nq60j,T3snscpx,2020-0188,2021-10-31,06:31:11,07:53:23,NA,incomplete,false,true,NA,NA,5,15,NA,purple,n_s_051.jpg,NA,NA,NA,NA,NA,unpleasant,pleasant,NA,NA,NA,NA,NA,left,1414.90000009537,true,NA,NA,NA,NA,NA,NA,NA,NA
