workerId,hitId,assignmentId,subject,studyid,exp_date,exp_start,exp_end,time_start,time_end,practice,encoding,memory,association,block,trial,event_order,event,stim,answer,object,left_context,right_context,context_type,label_left,label_right,left_image,left_event,right_image,right_event,condition,response,response_time,response_acc,association_response_time,association_response,association_acc,order_response,order_response_time,order_acc,distance_response,distance_response_time
BSONEuST,3z8ujejod2q8a85trwhk37uqvoc39x,3kakfy4pgyf38twqmssz5kpliq23i2,BSONEuST,2020-0188,2021-10-31,01:39:22,03:02:02,NA,incomplete,true,true,NA,NA,0,0,NA,red,n_s_042.jpg,NA,NA,NA,NA,NA,unpleasant,pleasant,NA,NA,NA,NA,NA,right,1272.10000014305,true,NA,NA,NA,NA,NA,NA,NA,NA
BSONEuST,3z8ujejod2q8a85trwhk37uqvoc39x,3kakfy4pgyf38twqmssz5kpliq23i2,BSONEuST,2020-0188,2021-10-31,01:39:22,03:02:02,NA,incomplete,true,true,NA,NA,0,1,NA,red,n_s_068.jpg,NA,NA,NA,NA,NA,pleasant,unpleasant,NA,NA,NA,NA,NA,right,940.200000047684,true,NA,NA,NA,NA,NA,NA,NA,NA
BSONEuST,3z8ujejod2q8a85trwhk37uqvoc39x,3kakfy4pgyf38twqmssz5kpliq23i2,BSONEuST,2020-0188,2021-10-31,01:39:22,03:02:02,NA,incomplete,true,true,NA,NA,0,2,NA,red,n_s_016.jpg,NA,NA,NA,NA,NA,unpleasant,pleasant,NA,NA,NA,NA,NA,left,1315.20000004768,true,NA,NA,NA,NA,NA,NA,NA,NA
BSONEuST,3z8ujejod2q8a85trwhk37uqvoc39x,3kakfy4pgyf38twqmssz5kpliq23i2,BSONEuST,2020-0188,2021-10-31,01:39:22,03:02:02,NA,incomplete,true,true,NA,NA,0,3,NA,red,m_l_013.jpg,NA,NA,NA,NA,NA,unpleasant,pleasant,NA,NA,NA,NA,NA,right,1058.89999985695,true,NA,NA,NA,NA,NA,NA,NA,NA
BSONEuST,3z8ujejod2q8a85trwhk37uqvoc39x,3kakfy4pgyf38twqmssz5kpliq23i2,BSONEuST,2020-0188,2021-10-31,01:39:22,03:02:02,NA,incomplete,true,true,NA,NA,0,4,NA,red,n_s_077.jpg,NA,NA,NA,NA,NA,pleasant,unpleasant,NA,NA,NA,NA,NA,left,1634.79999995232,true,NA,NA,NA,NA,NA,NA,NA,NA
BSONEuST,3z8ujejod2q8a85trwhk37uqvoc39x,3kakfy4pgyf38twqmssz5kpliq23i2,BSONEuST,2020-0188,2021-10-31,01:39:22,03:02:02,NA,incomplete,true,true,NA,NA,0,5,NA,red,n_l_109.jpg,NA,NA,NA,NA,NA,unpleasant,pleasant,NA,NA,NA,NA,NA,left,1240,true,NA,NA,NA,NA,NA,NA,NA,NA
BSONEuST,3z8ujejod2q8a85trwhk37uqvoc39x,3kakfy4pgyf38twqmssz5kpliq23i2,BSONEuST,2020-0188,2021-10-31,01:39:22,03:02:02,NA,incomplete,true,true,NA,NA,0,6,NA,orange,m_l_107.jpg,NA,NA,NA,NA,NA,pleasant,unpleasant,NA,NA,NA,NA,NA,left,1948,true,NA,NA,NA,NA,NA,NA,NA,NA
BSONEuST,3z8ujejod2q8a85trwhk37uqvoc39x,3kakfy4pgyf38twqmssz5kpliq23i2,BSONEuST,2020-0188,2021-10-31,01:39:22,03:02:02,NA,incomplete,true,true,NA,NA,0,7,NA,orange,n_s_105.jpg,NA,NA,NA,NA,NA,unpleasant,pleasant,NA,NA,NA,NA,NA,right,921.799999952316,true,NA,NA,NA,NA,NA,NA,NA,NA
BSONEuST,3z8ujejod2q8a85trwhk37uqvoc39x,3kakfy4pgyf38twqmssz5kpliq23i2,BSONEuST,2020-0188,2021-10-31,01:39:22,03:02:02,NA,incomplete,true,true,NA,NA,0,8,NA,orange,n_s_072.jpg,NA,NA,NA,NA,NA,pleasant,unpleasant,NA,NA,NA,NA,NA,left,1004.80000019073,true,NA,NA,NA,NA,NA,NA,NA,NA
BSONEuST,3z8ujejod2q8a85trwhk37uqvoc39x,3kakfy4pgyf38twqmssz5kpliq23i2,BSONEuST,2020-0188,2021-10-31,01:39:22,03:02:02,NA,incomplete,true,true,NA,NA,0,9,NA,orange,n_s_107.jpg,NA,NA,NA,NA,NA,unpleasant,pleasant,NA,NA,NA,NA,NA,left,1231.60000014305,true,NA,NA,NA,NA,NA,NA,NA,NA
BSONEuST,3z8ujejod2q8a85trwhk37uqvoc39x,3kakfy4pgyf38twqmssz5kpliq23i2,BSONEuST,2020-0188,2021-10-31,01:39:22,03:02:02,NA,incomplete,true,true,NA,NA,0,10,NA,orange,m_s_070.jpg,NA,NA,NA,NA,NA,pleasant,unpleasant,NA,NA,NA,NA,NA,left,1278.20000004768,true,NA,NA,NA,NA,NA,NA,NA,NA
BSONEuST,3z8ujejod2q8a85trwhk37uqvoc39x,3kakfy4pgyf38twqmssz5kpliq23i2,BSONEuST,2020-0188,2021-10-31,01:39:22,03:02:02,NA,incomplete,true,true,NA,NA,0,11,NA,orange,m_s_001.jpg,NA,NA,NA,NA,NA,pleasant,unpleasant,NA,NA,NA,NA,NA,left,1006.70000004768,true,NA,NA,NA,NA,NA,NA,NA,NA
BSONEuST,3z8ujejod2q8a85trwhk37uqvoc39x,3kakfy4pgyf38twqmssz5kpliq23i2,BSONEuST,2020-0188,2021-10-31,01:39:22,03:02:02,NA,incomplete,true,true,NA,NA,0,12,NA,green,m_l_108.jpg,NA,NA,NA,NA,NA,unpleasant,pleasant,NA,NA,NA,NA,NA,right,1644.29999995232,true,NA,NA,NA,NA,NA,NA,NA,NA
BSONEuST,3z8ujejod2q8a85trwhk37uqvoc39x,3kakfy4pgyf38twqmssz5kpliq23i2,BSONEuST,2020-0188,2021-10-31,01:39:22,03:02:02,NA,incomplete,true,true,NA,NA,0,13,NA,green,m_s_088.jpg,NA,NA,NA,NA,NA,pleasant,unpleasant,NA,NA,NA,NA,NA,left,1356.59999990463,true,NA,NA,NA,NA,NA,NA,NA,NA
BSONEuST,3z8ujejod2q8a85trwhk37uqvoc39x,3kakfy4pgyf38twqmssz5kpliq23i2,BSONEuST,2020-0188,2021-10-31,01:39:22,03:02:02,NA,incomplete,true,true,NA,NA,0,14,NA,green,n_l_039.jpg,NA,NA,NA,NA,NA,pleasant,unpleasant,NA,NA,NA,NA,NA,right,947.599999904633,true,NA,NA,NA,NA,NA,NA,NA,NA
BSONEuST,3z8ujejod2q8a85trwhk37uqvoc39x,3kakfy4pgyf38twqmssz5kpliq23i2,BSONEuST,2020-0188,2021-10-31,01:39:22,03:02:02,NA,incomplete,true,true,NA,NA,0,15,NA,green,n_l_087.jpg,NA,NA,NA,NA,NA,pleasant,unpleasant,NA,NA,NA,NA,NA,right,1019.09999990463,true,NA,NA,NA,NA,NA,NA,NA,NA
BSONEuST,3z8ujejod2q8a85trwhk37uqvoc39x,3kakfy4pgyf38twqmssz5kpliq23i2,BSONEuST,2020-0188,2021-10-31,01:39:22,03:02:02,NA,incomplete,true,true,NA,NA,0,16,NA,green,n_l_037.jpg,NA,NA,NA,NA,NA,unpleasant,pleasant,NA,NA,NA,NA,NA,right,1084.10000014305,true,NA,NA,NA,NA,NA,NA,NA,NA
BSONEuST,3z8ujejod2q8a85trwhk37uqvoc39x,3kakfy4pgyf38twqmssz5kpliq23i2,BSONEuST,2020-0188,2021-10-31,01:39:22,03:02:02,NA,incomplete,true,true,NA,NA,0,17,NA,green,n_s_111.jpg,NA,NA,NA,NA,NA,unpleasant,pleasant,NA,NA,NA,NA,NA,right,963.099999904633,true,NA,NA,NA,NA,NA,NA,NA,NA
BSONEuST,3z8ujejod2q8a85trwhk37uqvoc39x,3kakfy4pgyf38twqmssz5kpliq23i2,BSONEuST,2020-0188,2021-10-31,01:39:22,03:02:02,NA,incomplete,true,true,NA,NA,0,18,NA,purple,m_s_103.jpg,NA,NA,NA,NA,NA,unpleasant,pleasant,NA,NA,NA,NA,NA,right,1161.39999985695,true,NA,NA,NA,NA,NA,NA,NA,NA
BSONEuST,3z8ujejod2q8a85trwhk37uqvoc39x,3kakfy4pgyf38twqmssz5kpliq23i2,BSONEuST,2020-0188,2021-10-31,01:39:22,03:02:02,NA,incomplete,true,true,NA,NA,0,19,NA,purple,m_l_056.jpg,NA,NA,NA,NA,NA,unpleasant,pleasant,NA,NA,NA,NA,NA,right,1177,true,NA,NA,NA,NA,NA,NA,NA,NA
BSONEuST,3z8ujejod2q8a85trwhk37uqvoc39x,3kakfy4pgyf38twqmssz5kpliq23i2,BSONEuST,2020-0188,2021-10-31,01:39:22,03:02:02,NA,incomplete,true,true,NA,NA,0,20,NA,purple,n_l_025.jpg,NA,NA,NA,NA,NA,unpleasant,pleasant,NA,NA,NA,NA,NA,left,916.299999952316,true,NA,NA,NA,NA,NA,NA,NA,NA
BSONEuST,3z8ujejod2q8a85trwhk37uqvoc39x,3kakfy4pgyf38twqmssz5kpliq23i2,BSONEuST,2020-0188,2021-10-31,01:39:22,03:02:02,NA,incomplete,true,true,NA,NA,0,21,NA,purple,n_s_054.jpg,NA,NA,NA,NA,NA,unpleasant,pleasant,NA,NA,NA,NA,NA,right,1068.5,true,NA,NA,NA,NA,NA,NA,NA,NA
BSONEuST,3z8ujejod2q8a85trwhk37uqvoc39x,3kakfy4pgyf38twqmssz5kpliq23i2,BSONEuST,2020-0188,2021-10-31,01:39:22,03:02:02,NA,incomplete,true,true,NA,NA,0,22,NA,purple,n_l_086.jpg,NA,NA,NA,NA,NA,unpleasant,pleasant,NA,NA,NA,NA,NA,left,844.199999809265,true,NA,NA,NA,NA,NA,NA,NA,NA
BSONEuST,3z8ujejod2q8a85trwhk37uqvoc39x,3kakfy4pgyf38twqmssz5kpliq23i2,BSONEuST,2020-0188,2021-10-31,01:39:22,03:02:02,NA,incomplete,true,true,NA,NA,0,23,NA,purple,m_s_077.jpg,NA,NA,NA,NA,NA,pleasant,unpleasant,NA,NA,NA,NA,NA,left,1197.59999990463,true,NA,NA,NA,NA,NA,NA,NA,NA
BSONEuST,3z8ujejod2q8a85trwhk37uqvoc39x,3kakfy4pgyf38twqmssz5kpliq23i2,BSONEuST,2020-0188,2021-10-31,01:39:22,03:02:02,NA,incomplete,true,true,NA,NA,0,24,NA,blue,m_l_067.jpg,NA,NA,NA,NA,NA,pleasant,unpleasant,NA,NA,NA,NA,NA,left,823.400000095367,true,NA,NA,NA,NA,NA,NA,NA,NA
BSONEuST,3z8ujejod2q8a85trwhk37uqvoc39x,3kakfy4pgyf38twqmssz5kpliq23i2,BSONEuST,2020-0188,2021-10-31,01:39:22,03:02:02,NA,incomplete,true,true,NA,NA,0,25,NA,blue,m_s_015.jpg,NA,NA,NA,NA,NA,unpleasant,pleasant,NA,NA,NA,NA,NA,right,950,true,NA,NA,NA,NA,NA,NA,NA,NA
BSONEuST,3z8ujejod2q8a85trwhk37uqvoc39x,3kakfy4pgyf38twqmssz5kpliq23i2,BSONEuST,2020-0188,2021-10-31,01:39:22,03:02:02,NA,incomplete,true,true,NA,NA,0,26,NA,blue,n_l_035.jpg,NA,NA,NA,NA,NA,unpleasant,pleasant,NA,NA,NA,NA,NA,right,1297,true,NA,NA,NA,NA,NA,NA,NA,NA
BSONEuST,3z8ujejod2q8a85trwhk37uqvoc39x,3kakfy4pgyf38twqmssz5kpliq23i2,BSONEuST,2020-0188,2021-10-31,01:39:22,03:02:02,NA,incomplete,true,true,NA,NA,0,27,NA,blue,n_l_093.jpg,NA,NA,NA,NA,NA,unpleasant,pleasant,NA,NA,NA,NA,NA,left,1462.79999995232,true,NA,NA,NA,NA,NA,NA,NA,NA
BSONEuST,3z8ujejod2q8a85trwhk37uqvoc39x,3kakfy4pgyf38twqmssz5kpliq23i2,BSONEuST,2020-0188,2021-10-31,01:39:22,03:02:02,NA,incomplete,true,true,NA,NA,0,28,NA,blue,m_l_047.jpg,NA,NA,NA,NA,NA,pleasant,unpleasant,NA,NA,NA,NA,NA,right,1420.29999995232,true,NA,NA,NA,NA,NA,NA,NA,NA
BSONEuST,3z8ujejod2q8a85trwhk37uqvoc39x,3kakfy4pgyf38twqmssz5kpliq23i2,BSONEuST,2020-0188,2021-10-31,01:39:22,03:02:02,NA,incomplete,true,true,NA,NA,0,29,NA,blue,m_l_015.jpg,NA,NA,NA,NA,NA,pleasant,unpleasant,NA,NA,NA,NA,NA,left,873.200000047684,true,NA,NA,NA,NA,NA,NA,NA,NA
BSONEuST,3z8ujejod2q8a85trwhk37uqvoc39x,3kakfy4pgyf38twqmssz5kpliq23i2,BSONEuST,2020-0188,2021-10-31,01:39:22,03:02:02,NA,incomplete,true,true,NA,NA,0,30,NA,gray,n_l_033.jpg,NA,NA,NA,NA,NA,pleasant,unpleasant,NA,NA,NA,NA,NA,left,1225.59999990463,true,NA,NA,NA,NA,NA,NA,NA,NA
BSONEuST,3z8ujejod2q8a85trwhk37uqvoc39x,3kakfy4pgyf38twqmssz5kpliq23i2,BSONEuST,2020-0188,2021-10-31,01:39:22,03:02:02,NA,incomplete,true,true,NA,NA,0,31,NA,gray,m_s_109.jpg,NA,NA,NA,NA,NA,unpleasant,pleasant,NA,NA,NA,NA,NA,left,941.5,true,NA,NA,NA,NA,NA,NA,NA,NA
BSONEuST,3z8ujejod2q8a85trwhk37uqvoc39x,3kakfy4pgyf38twqmssz5kpliq23i2,BSONEuST,2020-0188,2021-10-31,01:39:22,03:02:02,NA,incomplete,true,true,NA,NA,0,32,NA,gray,m_l_063.jpg,NA,NA,NA,NA,NA,pleasant,unpleasant,NA,NA,NA,NA,NA,left,906.200000047684,true,NA,NA,NA,NA,NA,NA,NA,NA
BSONEuST,3z8ujejod2q8a85trwhk37uqvoc39x,3kakfy4pgyf38twqmssz5kpliq23i2,BSONEuST,2020-0188,2021-10-31,01:39:22,03:02:02,NA,incomplete,true,true,NA,NA,0,33,NA,gray,n_l_032.jpg,NA,NA,NA,NA,NA,pleasant,unpleasant,NA,NA,NA,NA,NA,right,1016.20000004768,true,NA,NA,NA,NA,NA,NA,NA,NA
BSONEuST,3z8ujejod2q8a85trwhk37uqvoc39x,3kakfy4pgyf38twqmssz5kpliq23i2,BSONEuST,2020-0188,2021-10-31,01:39:22,03:02:02,NA,incomplete,true,true,NA,NA,0,34,NA,gray,m_s_061.jpg,NA,NA,NA,NA,NA,pleasant,unpleasant,NA,NA,NA,NA,NA,left,727.5,true,NA,NA,NA,NA,NA,NA,NA,NA
BSONEuST,3z8ujejod2q8a85trwhk37uqvoc39x,3kakfy4pgyf38twqmssz5kpliq23i2,BSONEuST,2020-0188,2021-10-31,01:39:22,03:02:02,NA,incomplete,true,true,NA,NA,0,35,NA,gray,n_l_001.jpg,NA,NA,NA,NA,NA,unpleasant,pleasant,NA,NA,NA,NA,NA,right,1136,true,NA,NA,NA,NA,NA,NA,NA,NA
BSONEuST,3z8ujejod2q8a85trwhk37uqvoc39x,3kakfy4pgyf38twqmssz5kpliq23i2,BSONEuST,2020-0188,2021-10-31,01:39:22,03:02:02,NA,incomplete,true,NA,NA,true,0,0,NA,NA,NA,left,n_l_001.jpg,gray,blue,NA,NA,NA,NA,NA,NA,NA,NA,NA,NaN,NA,2494.199999809265,left,1,NA,NA,NA,NA,NA
BSONEuST,3z8ujejod2q8a85trwhk37uqvoc39x,3kakfy4pgyf38twqmssz5kpliq23i2,BSONEuST,2020-0188,2021-10-31,01:39:22,03:02:02,NA,incomplete,true,NA,NA,true,0,1,NA,NA,NA,left,m_s_088.jpg,green,orange,NA,NA,NA,NA,NA,NA,NA,NA,NA,NaN,NA,1533.5,left,1,NA,NA,NA,NA,NA
BSONEuST,3z8ujejod2q8a85trwhk37uqvoc39x,3kakfy4pgyf38twqmssz5kpliq23i2,BSONEuST,2020-0188,2021-10-31,01:39:22,03:02:02,NA,incomplete,true,NA,NA,true,0,2,NA,NA,NA,right,n_s_068.jpg,orange,red,NA,NA,NA,NA,NA,NA,NA,NA,NA,NaN,NA,1808.9000000953674,right,1,NA,NA,NA,NA,NA
BSONEuST,3z8ujejod2q8a85trwhk37uqvoc39x,3kakfy4pgyf38twqmssz5kpliq23i2,BSONEuST,2020-0188,2021-10-31,01:39:22,03:02:02,NA,incomplete,true,NA,NA,true,0,3,NA,NA,NA,left,m_l_015.jpg,blue,gray,NA,NA,NA,NA,NA,NA,NA,NA,NA,NaN,NA,1242.5,left,1,NA,NA,NA,NA,NA
BSONEuST,3z8ujejod2q8a85trwhk37uqvoc39x,3kakfy4pgyf38twqmssz5kpliq23i2,BSONEuST,2020-0188,2021-10-31,01:39:22,03:02:02,NA,incomplete,true,NA,NA,true,0,4,NA,NA,NA,left,m_l_063.jpg,gray,blue,NA,NA,NA,NA,NA,NA,NA,NA,NA,NaN,NA,1221.7000000476837,left,1,NA,NA,NA,NA,NA
BSONEuST,3z8ujejod2q8a85trwhk37uqvoc39x,3kakfy4pgyf38twqmssz5kpliq23i2,BSONEuST,2020-0188,2021-10-31,01:39:22,03:02:02,NA,incomplete,true,NA,NA,true,0,5,NA,NA,NA,right,n_l_086.jpg,green,purple,NA,NA,NA,NA,NA,NA,NA,NA,NA,NaN,NA,1376.5999999046326,right,1,NA,NA,NA,NA,NA
BSONEuST,3z8ujejod2q8a85trwhk37uqvoc39x,3kakfy4pgyf38twqmssz5kpliq23i2,BSONEuST,2020-0188,2021-10-31,01:39:22,03:02:02,NA,incomplete,true,NA,NA,true,0,6,NA,NA,NA,right,n_s_072.jpg,red,orange,NA,NA,NA,NA,NA,NA,NA,NA,NA,NaN,NA,1397,right,1,NA,NA,NA,NA,NA
BSONEuST,3z8ujejod2q8a85trwhk37uqvoc39x,3kakfy4pgyf38twqmssz5kpliq23i2,BSONEuST,2020-0188,2021-10-31,01:39:22,03:02:02,NA,incomplete,true,NA,NA,true,0,7,NA,NA,NA,left,n_l_025.jpg,purple,blue,NA,NA,NA,NA,NA,NA,NA,NA,NA,NaN,NA,1690.2999999523163,left,1,NA,NA,NA,NA,NA
BSONEuST,3z8ujejod2q8a85trwhk37uqvoc39x,3kakfy4pgyf38twqmssz5kpliq23i2,BSONEuST,2020-0188,2021-10-31,01:39:22,03:02:02,NA,incomplete,true,NA,NA,true,0,8,NA,NA,NA,right,m_s_015.jpg,gray,blue,NA,NA,NA,NA,NA,NA,NA,NA,NA,NaN,NA,1274.4000000953674,left,0,NA,NA,NA,NA,NA
BSONEuST,3z8ujejod2q8a85trwhk37uqvoc39x,3kakfy4pgyf38twqmssz5kpliq23i2,BSONEuST,2020-0188,2021-10-31,01:39:22,03:02:02,NA,incomplete,true,NA,NA,true,0,9,NA,NA,NA,right,m_l_047.jpg,purple,blue,NA,NA,NA,NA,NA,NA,NA,NA,NA,NaN,NA,1256.7999999523163,right,1,NA,NA,NA,NA,NA
BSONEuST,3z8ujejod2q8a85trwhk37uqvoc39x,3kakfy4pgyf38twqmssz5kpliq23i2,BSONEuST,2020-0188,2021-10-31,01:39:22,03:02:02,NA,incomplete,true,NA,NA,true,0,10,NA,NA,NA,right,m_s_001.jpg,red,orange,NA,NA,NA,NA,NA,NA,NA,NA,NA,NaN,NA,1476.3000001907349,right,1,NA,NA,NA,NA,NA
BSONEuST,3z8ujejod2q8a85trwhk37uqvoc39x,3kakfy4pgyf38twqmssz5kpliq23i2,BSONEuST,2020-0188,2021-10-31,01:39:22,03:02:02,NA,incomplete,true,NA,NA,true,0,11,NA,NA,NA,left,n_l_035.jpg,blue,gray,NA,NA,NA,NA,NA,NA,NA,NA,NA,NaN,NA,1989.3999998569489,left,1,NA,NA,NA,NA,NA
BSONEuST,3z8ujejod2q8a85trwhk37uqvoc39x,3kakfy4pgyf38twqmssz5kpliq23i2,BSONEuST,2020-0188,2021-10-31,01:39:22,03:02:02,NA,incomplete,true,NA,NA,true,0,12,NA,NA,NA,left,n_l_109.jpg,red,orange,NA,NA,NA,NA,NA,NA,NA,NA,NA,NaN,NA,1992.9000000953674,left,1,NA,NA,NA,NA,NA
BSONEuST,3z8ujejod2q8a85trwhk37uqvoc39x,3kakfy4pgyf38twqmssz5kpliq23i2,BSONEuST,2020-0188,2021-10-31,01:39:22,03:02:02,NA,incomplete,true,NA,NA,true,0,13,NA,NA,NA,right,n_s_111.jpg,orange,green,NA,NA,NA,NA,NA,NA,NA,NA,NA,NaN,NA,1673.7999999523163,right,1,NA,NA,NA,NA,NA
BSONEuST,3z8ujejod2q8a85trwhk37uqvoc39x,3kakfy4pgyf38twqmssz5kpliq23i2,BSONEuST,2020-0188,2021-10-31,01:39:22,03:02:02,NA,incomplete,true,NA,NA,true,0,14,NA,NA,NA,left,m_s_109.jpg,gray,blue,NA,NA,NA,NA,NA,NA,NA,NA,NA,NaN,NA,1152.5999999046326,left,1,NA,NA,NA,NA,NA
BSONEuST,3z8ujejod2q8a85trwhk37uqvoc39x,3kakfy4pgyf38twqmssz5kpliq23i2,BSONEuST,2020-0188,2021-10-31,01:39:22,03:02:02,NA,incomplete,true,NA,NA,true,0,15,NA,NA,NA,left,m_s_070.jpg,orange,red,NA,NA,NA,NA,NA,NA,NA,NA,NA,NaN,NA,1525.2000000476837,left,1,NA,NA,NA,NA,NA
BSONEuST,3z8ujejod2q8a85trwhk37uqvoc39x,3kakfy4pgyf38twqmssz5kpliq23i2,BSONEuST,2020-0188,2021-10-31,01:39:22,03:02:02,NA,incomplete,true,NA,NA,true,0,16,NA,NA,NA,right,n_l_037.jpg,orange,green,NA,NA,NA,NA,NA,NA,NA,NA,NA,NaN,NA,998.7999999523163,right,1,NA,NA,NA,NA,NA
BSONEuST,3z8ujejod2q8a85trwhk37uqvoc39x,3kakfy4pgyf38twqmssz5kpliq23i2,BSONEuST,2020-0188,2021-10-31,01:39:22,03:02:02,NA,incomplete,true,NA,NA,true,0,17,NA,NA,NA,left,m_l_056.jpg,purple,blue,NA,NA,NA,NA,NA,NA,NA,NA,NA,NaN,NA,4617.700000047684,left,1,NA,NA,NA,NA,NA
BSONEuST,3z8ujejod2q8a85trwhk37uqvoc39x,3kakfy4pgyf38twqmssz5kpliq23i2,BSONEuST,2020-0188,2021-10-31,01:39:22,03:02:02,NA,incomplete,true,NA,NA,true,0,18,NA,NA,NA,right,n_s_077.jpg,orange,red,NA,NA,NA,NA,NA,NA,NA,NA,NA,NaN,NA,1347.9000000953674,right,1,NA,NA,NA,NA,NA
BSONEuST,3z8ujejod2q8a85trwhk37uqvoc39x,3kakfy4pgyf38twqmssz5kpliq23i2,BSONEuST,2020-0188,2021-10-31,01:39:22,03:02:02,NA,incomplete,true,NA,NA,true,0,19,NA,NA,NA,left,m_s_077.jpg,purple,green,NA,NA,NA,NA,NA,NA,NA,NA,NA,NaN,NA,1342.4000000953674,left,1,NA,NA,NA,NA,NA
BSONEuST,3z8ujejod2q8a85trwhk37uqvoc39x,3kakfy4pgyf38twqmssz5kpliq23i2,BSONEuST,2020-0188,2021-10-31,01:39:22,03:02:02,NA,incomplete,true,NA,NA,true,0,20,NA,NA,NA,right,n_l_039.jpg,purple,green,NA,NA,NA,NA,NA,NA,NA,NA,NA,NaN,NA,3366,right,1,NA,NA,NA,NA,NA
BSONEuST,3z8ujejod2q8a85trwhk37uqvoc39x,3kakfy4pgyf38twqmssz5kpliq23i2,BSONEuST,2020-0188,2021-10-31,01:39:22,03:02:02,NA,incomplete,true,NA,NA,true,0,21,NA,NA,NA,right,n_s_105.jpg,green,orange,NA,NA,NA,NA,NA,NA,NA,NA,NA,NaN,NA,1688.5,right,1,NA,NA,NA,NA,NA
BSONEuST,3z8ujejod2q8a85trwhk37uqvoc39x,3kakfy4pgyf38twqmssz5kpliq23i2,BSONEuST,2020-0188,2021-10-31,01:39:22,03:02:02,NA,incomplete,true,NA,true,NA,0,0,NA,NA,NA,left,NA,NA,NA,present,NA,NA,n_s_077.jpg,red,n_s_072.jpg,orange,between,NA,NaN,NA,NA,NA,NA,left,4572.700000047684,1,1,3537.2999999523163
BSONEuST,3z8ujejod2q8a85trwhk37uqvoc39x,3kakfy4pgyf38twqmssz5kpliq23i2,BSONEuST,2020-0188,2021-10-31,01:39:22,03:02:02,NA,incomplete,true,NA,true,NA,0,1,NA,NA,NA,right,NA,NA,NA,present,NA,NA,n_l_035.jpg,blue,n_l_086.jpg,purple,between,NA,NaN,NA,NA,NA,NA,left,3096.2999999523163,0,2,2792
BSONEuST,3z8ujejod2q8a85trwhk37uqvoc39x,3kakfy4pgyf38twqmssz5kpliq23i2,BSONEuST,2020-0188,2021-10-31,01:39:22,03:02:02,NA,incomplete,true,NA,true,NA,0,2,NA,NA,NA,left,NA,NA,NA,present,NA,NA,m_s_015.jpg,blue,m_l_015.jpg,blue,within,NA,NaN,NA,NA,NA,NA,right,7068.700000047684,0,0,1122.2999999523163
BSONEuST,3z8ujejod2q8a85trwhk37uqvoc39x,3kakfy4pgyf38twqmssz5kpliq23i2,BSONEuST,2020-0188,2021-10-31,01:39:22,03:02:02,NA,incomplete,true,NA,true,NA,0,3,NA,NA,NA,left,NA,NA,NA,present,NA,NA,m_l_056.jpg,purple,m_s_077.jpg,purple,within,NA,NaN,NA,NA,NA,NA,left,4308.899999856949,1,0,770.2999999523163
BSONEuST,3z8ujejod2q8a85trwhk37uqvoc39x,3kakfy4pgyf38twqmssz5kpliq23i2,BSONEuST,2020-0188,2021-10-31,01:39:22,03:02:02,NA,incomplete,true,NA,true,NA,0,4,NA,NA,NA,right,NA,NA,NA,present,NA,NA,m_l_063.jpg,gray,m_l_047.jpg,blue,between,NA,NaN,NA,NA,NA,NA,right,4258.299999952316,1,2,1859.3999998569489
BSONEuST,3z8ujejod2q8a85trwhk37uqvoc39x,3kakfy4pgyf38twqmssz5kpliq23i2,BSONEuST,2020-0188,2021-10-31,01:39:22,03:02:02,NA,incomplete,true,NA,true,NA,0,5,NA,NA,NA,right,NA,NA,NA,present,NA,NA,n_l_025.jpg,purple,n_l_037.jpg,green,between,NA,NaN,NA,NA,NA,NA,right,2349.5,1,2,2058.2999999523163
BSONEuST,3z8ujejod2q8a85trwhk37uqvoc39x,3kakfy4pgyf38twqmssz5kpliq23i2,BSONEuST,2020-0188,2021-10-31,01:39:22,03:02:02,NA,incomplete,true,NA,true,NA,0,6,NA,NA,NA,right,NA,NA,NA,present,NA,NA,n_l_001.jpg,gray,m_s_109.jpg,gray,within,NA,NaN,NA,NA,NA,NA,right,3396.0999999046326,1,1,1209.7000000476837
BSONEuST,3z8ujejod2q8a85trwhk37uqvoc39x,3kakfy4pgyf38twqmssz5kpliq23i2,BSONEuST,2020-0188,2021-10-31,01:39:22,03:02:02,NA,incomplete,true,NA,true,NA,0,7,NA,NA,NA,right,NA,NA,NA,present,NA,NA,m_s_001.jpg,orange,n_s_105.jpg,orange,within,NA,NaN,NA,NA,NA,NA,right,3018.2000000476837,1,0,881.4000000953674
BSONEuST,3z8ujejod2q8a85trwhk37uqvoc39x,3kakfy4pgyf38twqmssz5kpliq23i2,BSONEuST,2020-0188,2021-10-31,01:39:22,03:02:02,NA,incomplete,true,NA,true,NA,0,8,NA,NA,NA,left,NA,NA,NA,present,NA,NA,n_s_068.jpg,red,n_l_109.jpg,red,within,NA,NaN,NA,NA,NA,NA,left,5008.399999856949,1,0,967.5999999046326
BSONEuST,3z8ujejod2q8a85trwhk37uqvoc39x,3kakfy4pgyf38twqmssz5kpliq23i2,BSONEuST,2020-0188,2021-10-31,01:39:22,03:02:02,NA,incomplete,true,NA,true,NA,0,9,NA,NA,NA,left,NA,NA,NA,present,NA,NA,m_s_088.jpg,green,n_s_111.jpg,green,within,NA,NaN,NA,NA,NA,NA,right,3258.5,0,1,1132.5
BSONEuST,3z8ujejod2q8a85trwhk37uqvoc39x,3kakfy4pgyf38twqmssz5kpliq23i2,BSONEuST,2020-0188,2021-10-31,01:39:22,03:02:02,NA,incomplete,true,NA,true,NA,0,10,NA,NA,NA,left,NA,NA,NA,present,NA,NA,m_s_070.jpg,orange,n_l_039.jpg,green,between,NA,NaN,NA,NA,NA,NA,left,8778.200000047684,1,2,1032.5999999046326
BSONEuST,3z8ujejod2q8a85trwhk37uqvoc39x,3kakfy4pgyf38twqmssz5kpliq23i2,BSONEuST,2020-0188,2021-10-31,01:39:22,03:02:02,NA,incomplete,false,true,NA,NA,1,0,NA,green,n_l_098.jpg,NA,NA,NA,NA,NA,unpleasant,pleasant,NA,NA,NA,NA,NA,left,1316,true,NA,NA,NA,NA,NA,NA,NA,NA
BSONEuST,3z8ujejod2q8a85trwhk37uqvoc39x,3kakfy4pgyf38twqmssz5kpliq23i2,BSONEuST,2020-0188,2021-10-31,01:39:22,03:02:02,NA,incomplete,false,true,NA,NA,1,1,NA,green,n_l_007.jpg,NA,NA,NA,NA,NA,unpleasant,pleasant,NA,NA,NA,NA,NA,right,1019.5,true,NA,NA,NA,NA,NA,NA,NA,NA
BSONEuST,3z8ujejod2q8a85trwhk37uqvoc39x,3kakfy4pgyf38twqmssz5kpliq23i2,BSONEuST,2020-0188,2021-10-31,01:39:22,03:02:02,NA,incomplete,false,true,NA,NA,1,2,NA,green,m_s_044.jpg,NA,NA,NA,NA,NA,unpleasant,pleasant,NA,NA,NA,NA,NA,right,905.5,true,NA,NA,NA,NA,NA,NA,NA,NA
BSONEuST,3z8ujejod2q8a85trwhk37uqvoc39x,3kakfy4pgyf38twqmssz5kpliq23i2,BSONEuST,2020-0188,2021-10-31,01:39:22,03:02:02,NA,incomplete,false,true,NA,NA,1,3,NA,green,m_l_045.jpg,NA,NA,NA,NA,NA,unpleasant,pleasant,NA,NA,NA,NA,NA,right,1100.60000014305,true,NA,NA,NA,NA,NA,NA,NA,NA
BSONEuST,3z8ujejod2q8a85trwhk37uqvoc39x,3kakfy4pgyf38twqmssz5kpliq23i2,BSONEuST,2020-0188,2021-10-31,01:39:22,03:02:02,NA,incomplete,false,true,NA,NA,1,4,NA,green,m_l_086.jpg,NA,NA,NA,NA,NA,pleasant,unpleasant,NA,NA,NA,NA,NA,left,912.5,true,NA,NA,NA,NA,NA,NA,NA,NA
BSONEuST,3z8ujejod2q8a85trwhk37uqvoc39x,3kakfy4pgyf38twqmssz5kpliq23i2,BSONEuST,2020-0188,2021-10-31,01:39:22,03:02:02,NA,incomplete,false,true,NA,NA,1,5,NA,green,n_s_109.jpg,NA,NA,NA,NA,NA,pleasant,unpleasant,NA,NA,NA,NA,NA,right,1213.89999985695,true,NA,NA,NA,NA,NA,NA,NA,NA
BSONEuST,3z8ujejod2q8a85trwhk37uqvoc39x,3kakfy4pgyf38twqmssz5kpliq23i2,BSONEuST,2020-0188,2021-10-31,01:39:22,03:02:02,NA,incomplete,false,true,NA,NA,1,6,NA,blue,n_l_097.jpg,NA,NA,NA,NA,NA,pleasant,unpleasant,NA,NA,NA,NA,NA,left,1008.79999995232,true,NA,NA,NA,NA,NA,NA,NA,NA
BSONEuST,3z8ujejod2q8a85trwhk37uqvoc39x,3kakfy4pgyf38twqmssz5kpliq23i2,BSONEuST,2020-0188,2021-10-31,01:39:22,03:02:02,NA,incomplete,false,true,NA,NA,1,7,NA,blue,m_s_010.jpg,NA,NA,NA,NA,NA,pleasant,unpleasant,NA,NA,NA,NA,NA,left,933.200000047684,true,NA,NA,NA,NA,NA,NA,NA,NA
BSONEuST,3z8ujejod2q8a85trwhk37uqvoc39x,3kakfy4pgyf38twqmssz5kpliq23i2,BSONEuST,2020-0188,2021-10-31,01:39:22,03:02:02,NA,incomplete,false,true,NA,NA,1,8,NA,blue,n_s_021.jpg,NA,NA,NA,NA,NA,pleasant,unpleasant,NA,NA,NA,NA,NA,right,1041.09999990463,true,NA,NA,NA,NA,NA,NA,NA,NA
BSONEuST,3z8ujejod2q8a85trwhk37uqvoc39x,3kakfy4pgyf38twqmssz5kpliq23i2,BSONEuST,2020-0188,2021-10-31,01:39:22,03:02:02,NA,incomplete,false,true,NA,NA,1,9,NA,blue,n_s_024.jpg,NA,NA,NA,NA,NA,unpleasant,pleasant,NA,NA,NA,NA,NA,left,1206.89999985695,true,NA,NA,NA,NA,NA,NA,NA,NA
BSONEuST,3z8ujejod2q8a85trwhk37uqvoc39x,3kakfy4pgyf38twqmssz5kpliq23i2,BSONEuST,2020-0188,2021-10-31,01:39:22,03:02:02,NA,incomplete,false,true,NA,NA,1,10,NA,blue,m_l_017.jpg,NA,NA,NA,NA,NA,unpleasant,pleasant,NA,NA,NA,NA,NA,right,946.800000190735,true,NA,NA,NA,NA,NA,NA,NA,NA
BSONEuST,3z8ujejod2q8a85trwhk37uqvoc39x,3kakfy4pgyf38twqmssz5kpliq23i2,BSONEuST,2020-0188,2021-10-31,01:39:22,03:02:02,NA,incomplete,false,true,NA,NA,1,11,NA,blue,m_s_117.jpg,NA,NA,NA,NA,NA,unpleasant,pleasant,NA,NA,NA,NA,NA,right,1005.29999995232,true,NA,NA,NA,NA,NA,NA,NA,NA
BSONEuST,3z8ujejod2q8a85trwhk37uqvoc39x,3kakfy4pgyf38twqmssz5kpliq23i2,BSONEuST,2020-0188,2021-10-31,01:39:22,03:02:02,NA,incomplete,false,true,NA,NA,1,12,NA,black,m_s_011.jpg,NA,NA,NA,NA,NA,pleasant,unpleasant,NA,NA,NA,NA,NA,left,1156.09999990463,true,NA,NA,NA,NA,NA,NA,NA,NA
BSONEuST,3z8ujejod2q8a85trwhk37uqvoc39x,3kakfy4pgyf38twqmssz5kpliq23i2,BSONEuST,2020-0188,2021-10-31,01:39:22,03:02:02,NA,incomplete,false,true,NA,NA,1,13,NA,black,m_s_040.jpg,NA,NA,NA,NA,NA,pleasant,unpleasant,NA,NA,NA,NA,NA,left,968.399999856949,true,NA,NA,NA,NA,NA,NA,NA,NA
BSONEuST,3z8ujejod2q8a85trwhk37uqvoc39x,3kakfy4pgyf38twqmssz5kpliq23i2,BSONEuST,2020-0188,2021-10-31,01:39:22,03:02:02,NA,incomplete,false,true,NA,NA,1,14,NA,black,m_s_110.jpg,NA,NA,NA,NA,NA,unpleasant,pleasant,NA,NA,NA,NA,NA,right,1103.20000004768,true,NA,NA,NA,NA,NA,NA,NA,NA
BSONEuST,3z8ujejod2q8a85trwhk37uqvoc39x,3kakfy4pgyf38twqmssz5kpliq23i2,BSONEuST,2020-0188,2021-10-31,01:39:22,03:02:02,NA,incomplete,false,true,NA,NA,1,15,NA,black,m_l_037.jpg,NA,NA,NA,NA,NA,pleasant,unpleasant,NA,NA,NA,NA,NA,left,981.5,true,NA,NA,NA,NA,NA,NA,NA,NA
BSONEuST,3z8ujejod2q8a85trwhk37uqvoc39x,3kakfy4pgyf38twqmssz5kpliq23i2,BSONEuST,2020-0188,2021-10-31,01:39:22,03:02:02,NA,incomplete,false,true,NA,NA,1,16,NA,black,n_l_029.jpg,NA,NA,NA,NA,NA,pleasant,unpleasant,NA,NA,NA,NA,NA,left,1183.70000004768,true,NA,NA,NA,NA,NA,NA,NA,NA
BSONEuST,3z8ujejod2q8a85trwhk37uqvoc39x,3kakfy4pgyf38twqmssz5kpliq23i2,BSONEuST,2020-0188,2021-10-31,01:39:22,03:02:02,NA,incomplete,false,true,NA,NA,1,17,NA,black,m_l_073.jpg,NA,NA,NA,NA,NA,pleasant,unpleasant,NA,NA,NA,NA,NA,left,941.600000143051,true,NA,NA,NA,NA,NA,NA,NA,NA
BSONEuST,3z8ujejod2q8a85trwhk37uqvoc39x,3kakfy4pgyf38twqmssz5kpliq23i2,BSONEuST,2020-0188,2021-10-31,01:39:22,03:02:02,NA,incomplete,false,true,NA,NA,1,18,NA,brown,n_s_087.jpg,NA,NA,NA,NA,NA,unpleasant,pleasant,NA,NA,NA,NA,NA,left,1288.5,true,NA,NA,NA,NA,NA,NA,NA,NA
BSONEuST,3z8ujejod2q8a85trwhk37uqvoc39x,3kakfy4pgyf38twqmssz5kpliq23i2,BSONEuST,2020-0188,2021-10-31,01:39:22,03:02:02,NA,incomplete,false,true,NA,NA,1,19,NA,brown,m_s_116.jpg,NA,NA,NA,NA,NA,pleasant,unpleasant,NA,NA,NA,NA,NA,left,1065,true,NA,NA,NA,NA,NA,NA,NA,NA
BSONEuST,3z8ujejod2q8a85trwhk37uqvoc39x,3kakfy4pgyf38twqmssz5kpliq23i2,BSONEuST,2020-0188,2021-10-31,01:39:22,03:02:02,NA,incomplete,false,true,NA,NA,1,20,NA,brown,m_s_091.jpg,NA,NA,NA,NA,NA,pleasant,unpleasant,NA,NA,NA,NA,NA,left,986.400000095367,true,NA,NA,NA,NA,NA,NA,NA,NA
BSONEuST,3z8ujejod2q8a85trwhk37uqvoc39x,3kakfy4pgyf38twqmssz5kpliq23i2,BSONEuST,2020-0188,2021-10-31,01:39:22,03:02:02,NA,incomplete,false,true,NA,NA,1,21,NA,brown,m_l_089.jpg,NA,NA,NA,NA,NA,unpleasant,pleasant,NA,NA,NA,NA,NA,right,1315.29999995232,true,NA,NA,NA,NA,NA,NA,NA,NA
BSONEuST,3z8ujejod2q8a85trwhk37uqvoc39x,3kakfy4pgyf38twqmssz5kpliq23i2,BSONEuST,2020-0188,2021-10-31,01:39:22,03:02:02,NA,incomplete,false,true,NA,NA,1,22,NA,brown,n_l_056.jpg,NA,NA,NA,NA,NA,pleasant,unpleasant,NA,NA,NA,NA,NA,left,905.700000047684,true,NA,NA,NA,NA,NA,NA,NA,NA
BSONEuST,3z8ujejod2q8a85trwhk37uqvoc39x,3kakfy4pgyf38twqmssz5kpliq23i2,BSONEuST,2020-0188,2021-10-31,01:39:22,03:02:02,NA,incomplete,false,true,NA,NA,1,23,NA,brown,m_s_051.jpg,NA,NA,NA,NA,NA,unpleasant,pleasant,NA,NA,NA,NA,NA,left,1311.79999995232,true,NA,NA,NA,NA,NA,NA,NA,NA
BSONEuST,3z8ujejod2q8a85trwhk37uqvoc39x,3kakfy4pgyf38twqmssz5kpliq23i2,BSONEuST,2020-0188,2021-10-31,01:39:22,03:02:02,NA,incomplete,false,true,NA,NA,1,24,NA,purple,m_s_072.jpg,NA,NA,NA,NA,NA,pleasant,unpleasant,NA,NA,NA,NA,NA,right,1809.29999995232,true,NA,NA,NA,NA,NA,NA,NA,NA
BSONEuST,3z8ujejod2q8a85trwhk37uqvoc39x,3kakfy4pgyf38twqmssz5kpliq23i2,BSONEuST,2020-0188,2021-10-31,01:39:22,03:02:02,NA,incomplete,false,true,NA,NA,1,25,NA,purple,n_s_006.jpg,NA,NA,NA,NA,NA,pleasant,unpleasant,NA,NA,NA,NA,NA,right,1003.5,true,NA,NA,NA,NA,NA,NA,NA,NA
BSONEuST,3z8ujejod2q8a85trwhk37uqvoc39x,3kakfy4pgyf38twqmssz5kpliq23i2,BSONEuST,2020-0188,2021-10-31,01:39:22,03:02:02,NA,incomplete,false,true,NA,NA,1,26,NA,purple,n_l_045.jpg,NA,NA,NA,NA,NA,pleasant,unpleasant,NA,NA,NA,NA,NA,right,1345.60000014305,true,NA,NA,NA,NA,NA,NA,NA,NA
BSONEuST,3z8ujejod2q8a85trwhk37uqvoc39x,3kakfy4pgyf38twqmssz5kpliq23i2,BSONEuST,2020-0188,2021-10-31,01:39:22,03:02:02,NA,incomplete,false,true,NA,NA,1,27,NA,purple,n_l_009.jpg,NA,NA,NA,NA,NA,unpleasant,pleasant,NA,NA,NA,NA,NA,left,1177.39999985695,true,NA,NA,NA,NA,NA,NA,NA,NA
BSONEuST,3z8ujejod2q8a85trwhk37uqvoc39x,3kakfy4pgyf38twqmssz5kpliq23i2,BSONEuST,2020-0188,2021-10-31,01:39:22,03:02:02,NA,incomplete,false,true,NA,NA,1,28,NA,purple,n_l_117.jpg,NA,NA,NA,NA,NA,pleasant,unpleasant,NA,NA,NA,NA,NA,right,1207.30000019073,true,NA,NA,NA,NA,NA,NA,NA,NA
BSONEuST,3z8ujejod2q8a85trwhk37uqvoc39x,3kakfy4pgyf38twqmssz5kpliq23i2,BSONEuST,2020-0188,2021-10-31,01:39:22,03:02:02,NA,incomplete,false,true,NA,NA,1,29,NA,purple,m_l_068.jpg,NA,NA,NA,NA,NA,unpleasant,pleasant,NA,NA,NA,NA,NA,right,1200.5,true,NA,NA,NA,NA,NA,NA,NA,NA
BSONEuST,3z8ujejod2q8a85trwhk37uqvoc39x,3kakfy4pgyf38twqmssz5kpliq23i2,BSONEuST,2020-0188,2021-10-31,01:39:22,03:02:02,NA,incomplete,false,true,NA,NA,1,30,NA,red,n_l_099.jpg,NA,NA,NA,NA,NA,unpleasant,pleasant,NA,NA,NA,NA,NA,left,1824,true,NA,NA,NA,NA,NA,NA,NA,NA
BSONEuST,3z8ujejod2q8a85trwhk37uqvoc39x,3kakfy4pgyf38twqmssz5kpliq23i2,BSONEuST,2020-0188,2021-10-31,01:39:22,03:02:02,NA,incomplete,false,true,NA,NA,1,31,NA,red,m_s_033.jpg,NA,NA,NA,NA,NA,pleasant,unpleasant,NA,NA,NA,NA,NA,left,1442.09999990463,true,NA,NA,NA,NA,NA,NA,NA,NA
BSONEuST,3z8ujejod2q8a85trwhk37uqvoc39x,3kakfy4pgyf38twqmssz5kpliq23i2,BSONEuST,2020-0188,2021-10-31,01:39:22,03:02:02,NA,incomplete,false,true,NA,NA,1,32,NA,red,n_s_059.jpg,NA,NA,NA,NA,NA,pleasant,unpleasant,NA,NA,NA,NA,NA,right,1157.40000009537,true,NA,NA,NA,NA,NA,NA,NA,NA
BSONEuST,3z8ujejod2q8a85trwhk37uqvoc39x,3kakfy4pgyf38twqmssz5kpliq23i2,BSONEuST,2020-0188,2021-10-31,01:39:22,03:02:02,NA,incomplete,false,true,NA,NA,1,33,NA,red,n_s_064.jpg,NA,NA,NA,NA,NA,unpleasant,pleasant,NA,NA,NA,NA,NA,left,1058,true,NA,NA,NA,NA,NA,NA,NA,NA
BSONEuST,3z8ujejod2q8a85trwhk37uqvoc39x,3kakfy4pgyf38twqmssz5kpliq23i2,BSONEuST,2020-0188,2021-10-31,01:39:22,03:02:02,NA,incomplete,false,true,NA,NA,1,34,NA,red,m_s_080.jpg,NA,NA,NA,NA,NA,unpleasant,pleasant,NA,NA,NA,NA,NA,right,1048,true,NA,NA,NA,NA,NA,NA,NA,NA
BSONEuST,3z8ujejod2q8a85trwhk37uqvoc39x,3kakfy4pgyf38twqmssz5kpliq23i2,BSONEuST,2020-0188,2021-10-31,01:39:22,03:02:02,NA,incomplete,false,true,NA,NA,1,35,NA,red,m_l_051.jpg,NA,NA,NA,NA,NA,pleasant,unpleasant,NA,NA,NA,NA,NA,right,1285.39999985695,true,NA,NA,NA,NA,NA,NA,NA,NA
BSONEuST,3z8ujejod2q8a85trwhk37uqvoc39x,3kakfy4pgyf38twqmssz5kpliq23i2,BSONEuST,2020-0188,2021-10-31,01:39:22,03:02:02,NA,incomplete,false,NA,NA,true,1,0,NA,NA,NA,left,m_s_040.jpg,black,blue,NA,NA,NA,NA,NA,NA,NA,NA,NA,NaN,NA,1890.8000001907349,left,1,NA,NA,NA,NA,NA
BSONEuST,3z8ujejod2q8a85trwhk37uqvoc39x,3kakfy4pgyf38twqmssz5kpliq23i2,BSONEuST,2020-0188,2021-10-31,01:39:22,03:02:02,NA,incomplete,false,NA,NA,true,1,1,NA,NA,NA,right,n_l_045.jpg,brown,purple,NA,NA,NA,NA,NA,NA,NA,NA,NA,NaN,NA,1585,left,0,NA,NA,NA,NA,NA
BSONEuST,3z8ujejod2q8a85trwhk37uqvoc39x,3kakfy4pgyf38twqmssz5kpliq23i2,BSONEuST,2020-0188,2021-10-31,01:39:22,03:02:02,NA,incomplete,false,NA,NA,true,1,2,NA,NA,NA,left,m_l_086.jpg,green,blue,NA,NA,NA,NA,NA,NA,NA,NA,NA,NaN,NA,3869.600000143051,right,0,NA,NA,NA,NA,NA
BSONEuST,3z8ujejod2q8a85trwhk37uqvoc39x,3kakfy4pgyf38twqmssz5kpliq23i2,BSONEuST,2020-0188,2021-10-31,01:39:22,03:02:02,NA,incomplete,false,NA,NA,true,1,3,NA,NA,NA,right,m_s_010.jpg,black,blue,NA,NA,NA,NA,NA,NA,NA,NA,NA,NaN,NA,2126,left,0,NA,NA,NA,NA,NA
BSONEuST,3z8ujejod2q8a85trwhk37uqvoc39x,3kakfy4pgyf38twqmssz5kpliq23i2,BSONEuST,2020-0188,2021-10-31,01:39:22,03:02:02,NA,incomplete,false,NA,NA,true,1,4,NA,NA,NA,left,m_s_091.jpg,brown,black,NA,NA,NA,NA,NA,NA,NA,NA,NA,NaN,NA,1300.2000000476837,left,1,NA,NA,NA,NA,NA
BSONEuST,3z8ujejod2q8a85trwhk37uqvoc39x,3kakfy4pgyf38twqmssz5kpliq23i2,BSONEuST,2020-0188,2021-10-31,01:39:22,03:02:02,NA,incomplete,false,NA,NA,true,1,5,NA,NA,NA,left,n_l_056.jpg,brown,purple,NA,NA,NA,NA,NA,NA,NA,NA,NA,NaN,NA,4850.600000143051,left,1,NA,NA,NA,NA,NA
BSONEuST,3z8ujejod2q8a85trwhk37uqvoc39x,3kakfy4pgyf38twqmssz5kpliq23i2,BSONEuST,2020-0188,2021-10-31,01:39:22,03:02:02,NA,incomplete,false,NA,NA,true,1,6,NA,NA,NA,left,m_s_033.jpg,red,purple,NA,NA,NA,NA,NA,NA,NA,NA,NA,NaN,NA,1646.2000000476837,left,1,NA,NA,NA,NA,NA
BSONEuST,3z8ujejod2q8a85trwhk37uqvoc39x,3kakfy4pgyf38twqmssz5kpliq23i2,BSONEuST,2020-0188,2021-10-31,01:39:22,03:02:02,NA,incomplete,false,NA,NA,true,1,7,NA,NA,NA,right,n_s_109.jpg,blue,green,NA,NA,NA,NA,NA,NA,NA,NA,NA,NaN,NA,1474.7999999523163,right,1,NA,NA,NA,NA,NA
BSONEuST,3z8ujejod2q8a85trwhk37uqvoc39x,3kakfy4pgyf38twqmssz5kpliq23i2,BSONEuST,2020-0188,2021-10-31,01:39:22,03:02:02,NA,incomplete,false,NA,NA,true,1,8,NA,NA,NA,right,n_s_059.jpg,purple,red,NA,NA,NA,NA,NA,NA,NA,NA,NA,NaN,NA,1658.2999999523163,right,1,NA,NA,NA,NA,NA
BSONEuST,3z8ujejod2q8a85trwhk37uqvoc39x,3kakfy4pgyf38twqmssz5kpliq23i2,BSONEuST,2020-0188,2021-10-31,01:39:22,03:02:02,NA,incomplete,false,NA,NA,true,1,9,NA,NA,NA,right,m_s_051.jpg,black,brown,NA,NA,NA,NA,NA,NA,NA,NA,NA,NaN,NA,1352.7000000476837,right,1,NA,NA,NA,NA,NA
BSONEuST,3z8ujejod2q8a85trwhk37uqvoc39x,3kakfy4pgyf38twqmssz5kpliq23i2,BSONEuST,2020-0188,2021-10-31,01:39:22,03:02:02,NA,incomplete,false,NA,NA,true,1,10,NA,NA,NA,right,m_s_116.jpg,purple,brown,NA,NA,NA,NA,NA,NA,NA,NA,NA,NaN,NA,1330.0999999046326,right,1,NA,NA,NA,NA,NA
BSONEuST,3z8ujejod2q8a85trwhk37uqvoc39x,3kakfy4pgyf38twqmssz5kpliq23i2,BSONEuST,2020-0188,2021-10-31,01:39:22,03:02:02,NA,incomplete,false,NA,NA,true,1,11,NA,NA,NA,right,m_l_017.jpg,black,blue,NA,NA,NA,NA,NA,NA,NA,NA,NA,NaN,NA,6781.700000047684,left,0,NA,NA,NA,NA,NA
BSONEuST,3z8ujejod2q8a85trwhk37uqvoc39x,3kakfy4pgyf38twqmssz5kpliq23i2,BSONEuST,2020-0188,2021-10-31,01:39:22,03:02:02,NA,incomplete,false,NA,NA,true,1,12,NA,NA,NA,left,n_l_117.jpg,purple,brown,NA,NA,NA,NA,NA,NA,NA,NA,NA,NaN,NA,1901,left,1,NA,NA,NA,NA,NA
BSONEuST,3z8ujejod2q8a85trwhk37uqvoc39x,3kakfy4pgyf38twqmssz5kpliq23i2,BSONEuST,2020-0188,2021-10-31,01:39:22,03:02:02,NA,incomplete,false,NA,NA,true,1,13,NA,NA,NA,left,n_l_029.jpg,black,blue,NA,NA,NA,NA,NA,NA,NA,NA,NA,NaN,NA,2064.9000000953674,left,1,NA,NA,NA,NA,NA
BSONEuST,3z8ujejod2q8a85trwhk37uqvoc39x,3kakfy4pgyf38twqmssz5kpliq23i2,BSONEuST,2020-0188,2021-10-31,01:39:22,03:02:02,NA,incomplete,false,NA,NA,true,1,14,NA,NA,NA,right,m_s_117.jpg,black,blue,NA,NA,NA,NA,NA,NA,NA,NA,NA,NaN,NA,2941.4000000953674,right,1,NA,NA,NA,NA,NA
BSONEuST,3z8ujejod2q8a85trwhk37uqvoc39x,3kakfy4pgyf38twqmssz5kpliq23i2,BSONEuST,2020-0188,2021-10-31,01:39:22,03:02:02,NA,incomplete,false,NA,NA,true,1,15,NA,NA,NA,right,m_l_073.jpg,brown,black,NA,NA,NA,NA,NA,NA,NA,NA,NA,NaN,NA,1980.8000001907349,right,1,NA,NA,NA,NA,NA
BSONEuST,3z8ujejod2q8a85trwhk37uqvoc39x,3kakfy4pgyf38twqmssz5kpliq23i2,BSONEuST,2020-0188,2021-10-31,01:39:22,03:02:02,NA,incomplete,false,NA,NA,true,1,16,NA,NA,NA,left,n_s_006.jpg,purple,brown,NA,NA,NA,NA,NA,NA,NA,NA,NA,NaN,NA,1791.1999998092651,left,1,NA,NA,NA,NA,NA
BSONEuST,3z8ujejod2q8a85trwhk37uqvoc39x,3kakfy4pgyf38twqmssz5kpliq23i2,BSONEuST,2020-0188,2021-10-31,01:39:22,03:02:02,NA,incomplete,false,NA,NA,true,1,17,NA,NA,NA,right,n_s_021.jpg,green,blue,NA,NA,NA,NA,NA,NA,NA,NA,NA,NaN,NA,2430.0999999046326,right,1,NA,NA,NA,NA,NA
BSONEuST,3z8ujejod2q8a85trwhk37uqvoc39x,3kakfy4pgyf38twqmssz5kpliq23i2,BSONEuST,2020-0188,2021-10-31,01:39:22,03:02:02,NA,incomplete,false,NA,NA,true,1,18,NA,NA,NA,left,m_s_110.jpg,black,brown,NA,NA,NA,NA,NA,NA,NA,NA,NA,NaN,NA,1500.2999999523163,left,1,NA,NA,NA,NA,NA
BSONEuST,3z8ujejod2q8a85trwhk37uqvoc39x,3kakfy4pgyf38twqmssz5kpliq23i2,BSONEuST,2020-0188,2021-10-31,01:39:22,03:02:02,NA,incomplete,false,NA,NA,true,1,19,NA,NA,NA,right,n_l_007.jpg,blue,green,NA,NA,NA,NA,NA,NA,NA,NA,NA,NaN,NA,1818.8999998569489,right,1,NA,NA,NA,NA,NA
BSONEuST,3z8ujejod2q8a85trwhk37uqvoc39x,3kakfy4pgyf38twqmssz5kpliq23i2,BSONEuST,2020-0188,2021-10-31,01:39:22,03:02:02,NA,incomplete,false,NA,NA,true,1,20,NA,NA,NA,left,m_l_068.jpg,purple,brown,NA,NA,NA,NA,NA,NA,NA,NA,NA,NaN,NA,1538.5,right,0,NA,NA,NA,NA,NA
BSONEuST,3z8ujejod2q8a85trwhk37uqvoc39x,3kakfy4pgyf38twqmssz5kpliq23i2,BSONEuST,2020-0188,2021-10-31,01:39:22,03:02:02,NA,incomplete,false,NA,NA,true,1,21,NA,NA,NA,left,m_l_051.jpg,red,purple,NA,NA,NA,NA,NA,NA,NA,NA,NA,NaN,NA,1526.2999999523163,left,1,NA,NA,NA,NA,NA
BSONEuST,3z8ujejod2q8a85trwhk37uqvoc39x,3kakfy4pgyf38twqmssz5kpliq23i2,BSONEuST,2020-0188,2021-10-31,01:39:22,03:02:02,NA,incomplete,false,NA,true,NA,1,0,NA,NA,NA,right,NA,NA,NA,present,NA,NA,m_s_051.jpg,brown,m_s_116.jpg,brown,within,NA,NaN,NA,NA,NA,NA,right,5054.900000095367,1,1,1146.8999998569489
BSONEuST,3z8ujejod2q8a85trwhk37uqvoc39x,3kakfy4pgyf38twqmssz5kpliq23i2,BSONEuST,2020-0188,2021-10-31,01:39:22,03:02:02,NA,incomplete,false,NA,true,NA,1,1,NA,NA,NA,left,NA,NA,NA,present,NA,NA,m_s_010.jpg,blue,m_s_117.jpg,blue,within,NA,NaN,NA,NA,NA,NA,right,2787.7000000476837,0,0,1436.1999998092651
BSONEuST,3z8ujejod2q8a85trwhk37uqvoc39x,3kakfy4pgyf38twqmssz5kpliq23i2,BSONEuST,2020-0188,2021-10-31,01:39:22,03:02:02,NA,incomplete,false,NA,true,NA,1,2,NA,NA,NA,right,NA,NA,NA,present,NA,NA,m_l_073.jpg,black,m_s_040.jpg,black,within,NA,NaN,NA,NA,NA,NA,right,1547.9000000953674,1,1,1348.2999999523163
BSONEuST,3z8ujejod2q8a85trwhk37uqvoc39x,3kakfy4pgyf38twqmssz5kpliq23i2,BSONEuST,2020-0188,2021-10-31,01:39:22,03:02:02,NA,incomplete,false,NA,true,NA,1,3,NA,NA,NA,right,NA,NA,NA,present,NA,NA,n_s_109.jpg,green,n_l_007.jpg,green,within,NA,NaN,NA,NA,NA,NA,left,2353.2000000476837,0,1,1795.5
BSONEuST,3z8ujejod2q8a85trwhk37uqvoc39x,3kakfy4pgyf38twqmssz5kpliq23i2,BSONEuST,2020-0188,2021-10-31,01:39:22,03:02:02,NA,incomplete,false,NA,true,NA,1,4,NA,NA,NA,left,NA,NA,NA,present,NA,NA,m_l_086.jpg,green,n_s_021.jpg,blue,between,NA,NaN,NA,NA,NA,NA,left,5452.799999952316,1,1,1158.9000000953674
BSONEuST,3z8ujejod2q8a85trwhk37uqvoc39x,3kakfy4pgyf38twqmssz5kpliq23i2,BSONEuST,2020-0188,2021-10-31,01:39:22,03:02:02,NA,incomplete,false,NA,true,NA,1,5,NA,NA,NA,right,NA,NA,NA,present,NA,NA,m_l_068.jpg,purple,n_s_006.jpg,purple,within,NA,NaN,NA,NA,NA,NA,left,5183.700000047684,0,1,1463.4000000953674
BSONEuST,3z8ujejod2q8a85trwhk37uqvoc39x,3kakfy4pgyf38twqmssz5kpliq23i2,BSONEuST,2020-0188,2021-10-31,01:39:22,03:02:02,NA,incomplete,false,NA,true,NA,1,6,NA,NA,NA,left,NA,NA,NA,present,NA,NA,n_l_029.jpg,black,m_s_091.jpg,brown,between,NA,NaN,NA,NA,NA,NA,right,5328.600000143051,0,1,1768.5
BSONEuST,3z8ujejod2q8a85trwhk37uqvoc39x,3kakfy4pgyf38twqmssz5kpliq23i2,BSONEuST,2020-0188,2021-10-31,01:39:22,03:02:02,NA,incomplete,false,NA,true,NA,1,7,NA,NA,NA,right,NA,NA,NA,present,NA,NA,m_l_051.jpg,red,m_s_033.jpg,red,within,NA,NaN,NA,NA,NA,NA,right,3317.7000000476837,1,0,1943
BSONEuST,3z8ujejod2q8a85trwhk37uqvoc39x,3kakfy4pgyf38twqmssz5kpliq23i2,BSONEuST,2020-0188,2021-10-31,01:39:22,03:02:02,NA,incomplete,false,NA,true,NA,1,8,NA,NA,NA,left,NA,NA,NA,present,NA,NA,n_l_056.jpg,brown,n_l_045.jpg,purple,between,NA,NaN,NA,NA,NA,NA,left,4208.199999809265,1,2,1490.7000000476837
BSONEuST,3z8ujejod2q8a85trwhk37uqvoc39x,3kakfy4pgyf38twqmssz5kpliq23i2,BSONEuST,2020-0188,2021-10-31,01:39:22,03:02:02,NA,incomplete,false,NA,true,NA,1,9,NA,NA,NA,left,NA,NA,NA,present,NA,NA,n_l_117.jpg,purple,n_s_059.jpg,red,between,NA,NaN,NA,NA,NA,NA,left,2877.5999999046326,1,2,3712.2999999523163
BSONEuST,3z8ujejod2q8a85trwhk37uqvoc39x,3kakfy4pgyf38twqmssz5kpliq23i2,BSONEuST,2020-0188,2021-10-31,01:39:22,03:02:02,NA,incomplete,false,NA,true,NA,1,10,NA,NA,NA,right,NA,NA,NA,present,NA,NA,m_s_110.jpg,black,m_l_017.jpg,blue,between,NA,NaN,NA,NA,NA,NA,right,3188.7999999523163,1,2,4631.799999952316
BSONEuST,3z8ujejod2q8a85trwhk37uqvoc39x,3kakfy4pgyf38twqmssz5kpliq23i2,BSONEuST,2020-0188,2021-10-31,01:39:22,03:02:02,NA,incomplete,false,true,NA,NA,2,0,NA,brown,m_s_007.jpg,NA,NA,NA,NA,NA,unpleasant,pleasant,NA,NA,NA,NA,NA,left,1445.90000009537,true,NA,NA,NA,NA,NA,NA,NA,NA
BSONEuST,3z8ujejod2q8a85trwhk37uqvoc39x,3kakfy4pgyf38twqmssz5kpliq23i2,BSONEuST,2020-0188,2021-10-31,01:39:22,03:02:02,NA,incomplete,false,true,NA,NA,2,1,NA,brown,n_l_003.jpg,NA,NA,NA,NA,NA,unpleasant,pleasant,NA,NA,NA,NA,NA,right,1655,true,NA,NA,NA,NA,NA,NA,NA,NA
BSONEuST,3z8ujejod2q8a85trwhk37uqvoc39x,3kakfy4pgyf38twqmssz5kpliq23i2,BSONEuST,2020-0188,2021-10-31,01:39:22,03:02:02,NA,incomplete,false,true,NA,NA,2,2,NA,brown,m_l_074.jpg,NA,NA,NA,NA,NA,pleasant,unpleasant,NA,NA,NA,NA,NA,left,1523,true,NA,NA,NA,NA,NA,NA,NA,NA
BSONEuST,3z8ujejod2q8a85trwhk37uqvoc39x,3kakfy4pgyf38twqmssz5kpliq23i2,BSONEuST,2020-0188,2021-10-31,01:39:22,03:02:02,NA,incomplete,false,true,NA,NA,2,3,NA,brown,m_s_049.jpg,NA,NA,NA,NA,NA,pleasant,unpleasant,NA,NA,NA,NA,NA,right,1342.40000009537,true,NA,NA,NA,NA,NA,NA,NA,NA
BSONEuST,3z8ujejod2q8a85trwhk37uqvoc39x,3kakfy4pgyf38twqmssz5kpliq23i2,BSONEuST,2020-0188,2021-10-31,01:39:22,03:02:02,NA,incomplete,false,true,NA,NA,2,4,NA,brown,m_l_076.jpg,NA,NA,NA,NA,NA,unpleasant,pleasant,NA,NA,NA,NA,NA,right,1032.39999985695,true,NA,NA,NA,NA,NA,NA,NA,NA
BSONEuST,3z8ujejod2q8a85trwhk37uqvoc39x,3kakfy4pgyf38twqmssz5kpliq23i2,BSONEuST,2020-0188,2021-10-31,01:39:22,03:02:02,NA,incomplete,false,true,NA,NA,2,5,NA,brown,n_s_071.jpg,NA,NA,NA,NA,NA,pleasant,unpleasant,NA,NA,NA,NA,NA,right,1563.20000004768,true,NA,NA,NA,NA,NA,NA,NA,NA
BSONEuST,3z8ujejod2q8a85trwhk37uqvoc39x,3kakfy4pgyf38twqmssz5kpliq23i2,BSONEuST,2020-0188,2021-10-31,01:39:22,03:02:02,NA,incomplete,false,true,NA,NA,2,6,NA,green,m_s_074.jpg,NA,NA,NA,NA,NA,unpleasant,pleasant,NA,NA,NA,NA,NA,right,1212.10000014305,true,NA,NA,NA,NA,NA,NA,NA,NA
BSONEuST,3z8ujejod2q8a85trwhk37uqvoc39x,3kakfy4pgyf38twqmssz5kpliq23i2,BSONEuST,2020-0188,2021-10-31,01:39:22,03:02:02,NA,incomplete,false,true,NA,NA,2,7,NA,green,n_l_079.jpg,NA,NA,NA,NA,NA,pleasant,unpleasant,NA,NA,NA,NA,NA,right,1732.89999985695,true,NA,NA,NA,NA,NA,NA,NA,NA
BSONEuST,3z8ujejod2q8a85trwhk37uqvoc39x,3kakfy4pgyf38twqmssz5kpliq23i2,BSONEuST,2020-0188,2021-10-31,01:39:22,03:02:02,NA,incomplete,false,true,NA,NA,2,8,NA,green,m_l_036.jpg,NA,NA,NA,NA,NA,unpleasant,pleasant,NA,NA,NA,NA,NA,right,1096.59999990463,true,NA,NA,NA,NA,NA,NA,NA,NA
BSONEuST,3z8ujejod2q8a85trwhk37uqvoc39x,3kakfy4pgyf38twqmssz5kpliq23i2,BSONEuST,2020-0188,2021-10-31,01:39:22,03:02:02,NA,incomplete,false,true,NA,NA,2,9,NA,green,n_l_040.jpg,NA,NA,NA,NA,NA,pleasant,unpleasant,NA,NA,NA,NA,NA,left,1190,true,NA,NA,NA,NA,NA,NA,NA,NA
BSONEuST,3z8ujejod2q8a85trwhk37uqvoc39x,3kakfy4pgyf38twqmssz5kpliq23i2,BSONEuST,2020-0188,2021-10-31,01:39:22,03:02:02,NA,incomplete,false,true,NA,NA,2,10,NA,green,m_l_104.jpg,NA,NA,NA,NA,NA,unpleasant,pleasant,NA,NA,NA,NA,NA,left,1436.10000014305,true,NA,NA,NA,NA,NA,NA,NA,NA
BSONEuST,3z8ujejod2q8a85trwhk37uqvoc39x,3kakfy4pgyf38twqmssz5kpliq23i2,BSONEuST,2020-0188,2021-10-31,01:39:22,03:02:02,NA,incomplete,false,true,NA,NA,2,11,NA,green,m_l_100.jpg,NA,NA,NA,NA,NA,unpleasant,pleasant,NA,NA,NA,NA,NA,right,1241.40000009537,true,NA,NA,NA,NA,NA,NA,NA,NA
BSONEuST,3z8ujejod2q8a85trwhk37uqvoc39x,3kakfy4pgyf38twqmssz5kpliq23i2,BSONEuST,2020-0188,2021-10-31,01:39:22,03:02:02,NA,incomplete,false,true,NA,NA,2,12,NA,yellow,n_s_060.jpg,NA,NA,NA,NA,NA,pleasant,unpleasant,NA,NA,NA,NA,NA,left,1586.5,true,NA,NA,NA,NA,NA,NA,NA,NA
BSONEuST,3z8ujejod2q8a85trwhk37uqvoc39x,3kakfy4pgyf38twqmssz5kpliq23i2,BSONEuST,2020-0188,2021-10-31,01:39:22,03:02:02,NA,incomplete,false,true,NA,NA,2,13,NA,yellow,n_l_014.jpg,NA,NA,NA,NA,NA,pleasant,unpleasant,NA,NA,NA,NA,NA,left,1059.70000004768,true,NA,NA,NA,NA,NA,NA,NA,NA
BSONEuST,3z8ujejod2q8a85trwhk37uqvoc39x,3kakfy4pgyf38twqmssz5kpliq23i2,BSONEuST,2020-0188,2021-10-31,01:39:22,03:02:02,NA,incomplete,false,true,NA,NA,2,14,NA,yellow,n_l_078.jpg,NA,NA,NA,NA,NA,pleasant,unpleasant,NA,NA,NA,NA,NA,right,986.199999809265,true,NA,NA,NA,NA,NA,NA,NA,NA
BSONEuST,3z8ujejod2q8a85trwhk37uqvoc39x,3kakfy4pgyf38twqmssz5kpliq23i2,BSONEuST,2020-0188,2021-10-31,01:39:22,03:02:02,NA,incomplete,false,true,NA,NA,2,15,NA,yellow,m_l_052.jpg,NA,NA,NA,NA,NA,pleasant,unpleasant,NA,NA,NA,NA,NA,left,1034.20000004768,true,NA,NA,NA,NA,NA,NA,NA,NA
BSONEuST,3z8ujejod2q8a85trwhk37uqvoc39x,3kakfy4pgyf38twqmssz5kpliq23i2,BSONEuST,2020-0188,2021-10-31,01:39:22,03:02:02,NA,incomplete,false,true,NA,NA,2,16,NA,yellow,m_s_019.jpg,NA,NA,NA,NA,NA,pleasant,unpleasant,NA,NA,NA,NA,NA,left,1018.79999995232,true,NA,NA,NA,NA,NA,NA,NA,NA
BSONEuST,3z8ujejod2q8a85trwhk37uqvoc39x,3kakfy4pgyf38twqmssz5kpliq23i2,BSONEuST,2020-0188,2021-10-31,01:39:22,03:02:02,NA,incomplete,false,true,NA,NA,2,17,NA,yellow,m_s_084.jpg,NA,NA,NA,NA,NA,pleasant,unpleasant,NA,NA,NA,NA,NA,left,1200.5,true,NA,NA,NA,NA,NA,NA,NA,NA
BSONEuST,3z8ujejod2q8a85trwhk37uqvoc39x,3kakfy4pgyf38twqmssz5kpliq23i2,BSONEuST,2020-0188,2021-10-31,01:39:22,03:02:02,NA,incomplete,false,true,NA,NA,2,18,NA,red,n_l_091.jpg,NA,NA,NA,NA,NA,unpleasant,pleasant,NA,NA,NA,NA,NA,left,954.899999856949,true,NA,NA,NA,NA,NA,NA,NA,NA
BSONEuST,3z8ujejod2q8a85trwhk37uqvoc39x,3kakfy4pgyf38twqmssz5kpliq23i2,BSONEuST,2020-0188,2021-10-31,01:39:22,03:02:02,NA,incomplete,false,true,NA,NA,2,19,NA,red,n_s_057.jpg,NA,NA,NA,NA,NA,unpleasant,pleasant,NA,NA,NA,NA,NA,left,995.400000095367,true,NA,NA,NA,NA,NA,NA,NA,NA
BSONEuST,3z8ujejod2q8a85trwhk37uqvoc39x,3kakfy4pgyf38twqmssz5kpliq23i2,BSONEuST,2020-0188,2021-10-31,01:39:22,03:02:02,NA,incomplete,false,true,NA,NA,2,20,NA,red,n_l_041.jpg,NA,NA,NA,NA,NA,unpleasant,pleasant,NA,NA,NA,NA,NA,left,1058.79999995232,true,NA,NA,NA,NA,NA,NA,NA,NA
BSONEuST,3z8ujejod2q8a85trwhk37uqvoc39x,3kakfy4pgyf38twqmssz5kpliq23i2,BSONEuST,2020-0188,2021-10-31,01:39:22,03:02:02,NA,incomplete,false,true,NA,NA,2,21,NA,red,m_l_055.jpg,NA,NA,NA,NA,NA,unpleasant,pleasant,NA,NA,NA,NA,NA,right,985.400000095367,true,NA,NA,NA,NA,NA,NA,NA,NA
BSONEuST,3z8ujejod2q8a85trwhk37uqvoc39x,3kakfy4pgyf38twqmssz5kpliq23i2,BSONEuST,2020-0188,2021-10-31,01:39:22,03:02:02,NA,incomplete,false,true,NA,NA,2,22,NA,red,m_l_096.jpg,NA,NA,NA,NA,NA,pleasant,unpleasant,NA,NA,NA,NA,NA,left,1099.19999980927,true,NA,NA,NA,NA,NA,NA,NA,NA
BSONEuST,3z8ujejod2q8a85trwhk37uqvoc39x,3kakfy4pgyf38twqmssz5kpliq23i2,BSONEuST,2020-0188,2021-10-31,01:39:22,03:02:02,NA,incomplete,false,true,NA,NA,2,23,NA,red,n_s_078.jpg,NA,NA,NA,NA,NA,unpleasant,pleasant,NA,NA,NA,NA,NA,left,966.200000047684,true,NA,NA,NA,NA,NA,NA,NA,NA
BSONEuST,3z8ujejod2q8a85trwhk37uqvoc39x,3kakfy4pgyf38twqmssz5kpliq23i2,BSONEuST,2020-0188,2021-10-31,01:39:22,03:02:02,NA,incomplete,false,true,NA,NA,2,24,NA,black,m_s_053.jpg,NA,NA,NA,NA,NA,unpleasant,pleasant,NA,NA,NA,NA,NA,right,1111.09999990463,true,NA,NA,NA,NA,NA,NA,NA,NA
BSONEuST,3z8ujejod2q8a85trwhk37uqvoc39x,3kakfy4pgyf38twqmssz5kpliq23i2,BSONEuST,2020-0188,2021-10-31,01:39:22,03:02:02,NA,incomplete,false,true,NA,NA,2,25,NA,black,m_s_064.jpg,NA,NA,NA,NA,NA,unpleasant,pleasant,NA,NA,NA,NA,NA,right,980.299999952316,true,NA,NA,NA,NA,NA,NA,NA,NA
BSONEuST,3z8ujejod2q8a85trwhk37uqvoc39x,3kakfy4pgyf38twqmssz5kpliq23i2,BSONEuST,2020-0188,2021-10-31,01:39:22,03:02:02,NA,incomplete,false,true,NA,NA,2,26,NA,black,n_l_070.jpg,NA,NA,NA,NA,NA,unpleasant,pleasant,NA,NA,NA,NA,NA,right,1544.5,true,NA,NA,NA,NA,NA,NA,NA,NA
BSONEuST,3z8ujejod2q8a85trwhk37uqvoc39x,3kakfy4pgyf38twqmssz5kpliq23i2,BSONEuST,2020-0188,2021-10-31,01:39:22,03:02:02,NA,incomplete,false,true,NA,NA,2,27,NA,black,m_l_105.jpg,NA,NA,NA,NA,NA,pleasant,unpleasant,NA,NA,NA,NA,NA,left,807.100000143051,true,NA,NA,NA,NA,NA,NA,NA,NA
BSONEuST,3z8ujejod2q8a85trwhk37uqvoc39x,3kakfy4pgyf38twqmssz5kpliq23i2,BSONEuST,2020-0188,2021-10-31,01:39:22,03:02:02,NA,incomplete,false,true,NA,NA,2,28,NA,black,n_l_064.jpg,NA,NA,NA,NA,NA,unpleasant,pleasant,NA,NA,NA,NA,NA,right,899.400000095367,true,NA,NA,NA,NA,NA,NA,NA,NA
BSONEuST,3z8ujejod2q8a85trwhk37uqvoc39x,3kakfy4pgyf38twqmssz5kpliq23i2,BSONEuST,2020-0188,2021-10-31,01:39:22,03:02:02,NA,incomplete,false,true,NA,NA,2,29,NA,black,m_s_115.jpg,NA,NA,NA,NA,NA,unpleasant,pleasant,NA,NA,NA,NA,NA,left,1296.70000004768,true,NA,NA,NA,NA,NA,NA,NA,NA
BSONEuST,3z8ujejod2q8a85trwhk37uqvoc39x,3kakfy4pgyf38twqmssz5kpliq23i2,BSONEuST,2020-0188,2021-10-31,01:39:22,03:02:02,NA,incomplete,false,true,NA,NA,2,30,NA,blue,n_l_102.jpg,NA,NA,NA,NA,NA,unpleasant,pleasant,NA,NA,NA,NA,NA,left,963.800000190735,true,NA,NA,NA,NA,NA,NA,NA,NA
BSONEuST,3z8ujejod2q8a85trwhk37uqvoc39x,3kakfy4pgyf38twqmssz5kpliq23i2,BSONEuST,2020-0188,2021-10-31,01:39:22,03:02:02,NA,incomplete,false,true,NA,NA,2,31,NA,blue,n_s_108.jpg,NA,NA,NA,NA,NA,unpleasant,pleasant,NA,NA,NA,NA,NA,left,1220.90000009537,true,NA,NA,NA,NA,NA,NA,NA,NA
BSONEuST,3z8ujejod2q8a85trwhk37uqvoc39x,3kakfy4pgyf38twqmssz5kpliq23i2,BSONEuST,2020-0188,2021-10-31,01:39:22,03:02:02,NA,incomplete,false,true,NA,NA,2,32,NA,blue,n_l_015.jpg,NA,NA,NA,NA,NA,unpleasant,pleasant,NA,NA,NA,NA,NA,left,812.5,true,NA,NA,NA,NA,NA,NA,NA,NA
BSONEuST,3z8ujejod2q8a85trwhk37uqvoc39x,3kakfy4pgyf38twqmssz5kpliq23i2,BSONEuST,2020-0188,2021-10-31,01:39:22,03:02:02,NA,incomplete,false,true,NA,NA,2,33,NA,blue,n_l_071.jpg,NA,NA,NA,NA,NA,pleasant,unpleasant,NA,NA,NA,NA,NA,left,962.900000095367,true,NA,NA,NA,NA,NA,NA,NA,NA
BSONEuST,3z8ujejod2q8a85trwhk37uqvoc39x,3kakfy4pgyf38twqmssz5kpliq23i2,BSONEuST,2020-0188,2021-10-31,01:39:22,03:02:02,NA,incomplete,false,true,NA,NA,2,34,NA,blue,m_l_111.jpg,NA,NA,NA,NA,NA,pleasant,unpleasant,NA,NA,NA,NA,NA,left,957.199999809265,true,NA,NA,NA,NA,NA,NA,NA,NA
BSONEuST,3z8ujejod2q8a85trwhk37uqvoc39x,3kakfy4pgyf38twqmssz5kpliq23i2,BSONEuST,2020-0188,2021-10-31,01:39:22,03:02:02,NA,incomplete,false,true,NA,NA,2,35,NA,blue,n_l_055.jpg,NA,NA,NA,NA,NA,pleasant,unpleasant,NA,NA,NA,NA,NA,right,918.799999952316,true,NA,NA,NA,NA,NA,NA,NA,NA
BSONEuST,3z8ujejod2q8a85trwhk37uqvoc39x,3kakfy4pgyf38twqmssz5kpliq23i2,BSONEuST,2020-0188,2021-10-31,01:39:22,03:02:02,NA,incomplete,false,NA,NA,true,2,0,NA,NA,NA,left,n_s_078.jpg,red,yellow,NA,NA,NA,NA,NA,NA,NA,NA,NA,NaN,NA,2654.899999856949,left,1,NA,NA,NA,NA,NA
BSONEuST,3z8ujejod2q8a85trwhk37uqvoc39x,3kakfy4pgyf38twqmssz5kpliq23i2,BSONEuST,2020-0188,2021-10-31,01:39:22,03:02:02,NA,incomplete,false,NA,NA,true,2,1,NA,NA,NA,left,m_l_036.jpg,green,yellow,NA,NA,NA,NA,NA,NA,NA,NA,NA,NaN,NA,1525.0999999046326,left,1,NA,NA,NA,NA,NA
BSONEuST,3z8ujejod2q8a85trwhk37uqvoc39x,3kakfy4pgyf38twqmssz5kpliq23i2,BSONEuST,2020-0188,2021-10-31,01:39:22,03:02:02,NA,incomplete,false,NA,NA,true,2,2,NA,NA,NA,right,m_l_100.jpg,brown,green,NA,NA,NA,NA,NA,NA,NA,NA,NA,NaN,NA,1514.2999999523163,left,0,NA,NA,NA,NA,NA
BSONEuST,3z8ujejod2q8a85trwhk37uqvoc39x,3kakfy4pgyf38twqmssz5kpliq23i2,BSONEuST,2020-0188,2021-10-31,01:39:22,03:02:02,NA,incomplete,false,NA,NA,true,2,3,NA,NA,NA,right,m_s_115.jpg,red,black,NA,NA,NA,NA,NA,NA,NA,NA,NA,NaN,NA,1200.2999999523163,right,1,NA,NA,NA,NA,NA
BSONEuST,3z8ujejod2q8a85trwhk37uqvoc39x,3kakfy4pgyf38twqmssz5kpliq23i2,BSONEuST,2020-0188,2021-10-31,01:39:22,03:02:02,NA,incomplete,false,NA,NA,true,2,4,NA,NA,NA,left,n_s_108.jpg,blue,black,NA,NA,NA,NA,NA,NA,NA,NA,NA,NaN,NA,1396.7999999523163,left,1,NA,NA,NA,NA,NA
BSONEuST,3z8ujejod2q8a85trwhk37uqvoc39x,3kakfy4pgyf38twqmssz5kpliq23i2,BSONEuST,2020-0188,2021-10-31,01:39:22,03:02:02,NA,incomplete,false,NA,NA,true,2,5,NA,NA,NA,left,m_s_019.jpg,yellow,green,NA,NA,NA,NA,NA,NA,NA,NA,NA,NaN,NA,1349.2000000476837,left,1,NA,NA,NA,NA,NA
BSONEuST,3z8ujejod2q8a85trwhk37uqvoc39x,3kakfy4pgyf38twqmssz5kpliq23i2,BSONEuST,2020-0188,2021-10-31,01:39:22,03:02:02,NA,incomplete,false,NA,NA,true,2,6,NA,NA,NA,right,n_l_015.jpg,black,blue,NA,NA,NA,NA,NA,NA,NA,NA,NA,NaN,NA,2147.7000000476837,right,1,NA,NA,NA,NA,NA
BSONEuST,3z8ujejod2q8a85trwhk37uqvoc39x,3kakfy4pgyf38twqmssz5kpliq23i2,BSONEuST,2020-0188,2021-10-31,01:39:22,03:02:02,NA,incomplete,false,NA,NA,true,2,7,NA,NA,NA,right,n_l_014.jpg,green,yellow,NA,NA,NA,NA,NA,NA,NA,NA,NA,NaN,NA,2034.3000001907349,right,1,NA,NA,NA,NA,NA
BSONEuST,3z8ujejod2q8a85trwhk37uqvoc39x,3kakfy4pgyf38twqmssz5kpliq23i2,BSONEuST,2020-0188,2021-10-31,01:39:22,03:02:02,NA,incomplete,false,NA,NA,true,2,8,NA,NA,NA,left,n_l_070.jpg,black,red,NA,NA,NA,NA,NA,NA,NA,NA,NA,NaN,NA,1405.3999998569489,left,1,NA,NA,NA,NA,NA
BSONEuST,3z8ujejod2q8a85trwhk37uqvoc39x,3kakfy4pgyf38twqmssz5kpliq23i2,BSONEuST,2020-0188,2021-10-31,01:39:22,03:02:02,NA,incomplete,false,NA,NA,true,2,9,NA,NA,NA,left,m_l_096.jpg,red,yellow,NA,NA,NA,NA,NA,NA,NA,NA,NA,NaN,NA,1306.6999998092651,left,1,NA,NA,NA,NA,NA
BSONEuST,3z8ujejod2q8a85trwhk37uqvoc39x,3kakfy4pgyf38twqmssz5kpliq23i2,BSONEuST,2020-0188,2021-10-31,01:39:22,03:02:02,NA,incomplete,false,NA,NA,true,2,10,NA,NA,NA,right,n_l_055.jpg,black,blue,NA,NA,NA,NA,NA,NA,NA,NA,NA,NaN,NA,2737.0999999046326,right,1,NA,NA,NA,NA,NA
BSONEuST,3z8ujejod2q8a85trwhk37uqvoc39x,3kakfy4pgyf38twqmssz5kpliq23i2,BSONEuST,2020-0188,2021-10-31,01:39:22,03:02:02,NA,incomplete,false,NA,NA,true,2,11,NA,NA,NA,left,m_s_064.jpg,black,blue,NA,NA,NA,NA,NA,NA,NA,NA,NA,NaN,NA,1507,left,1,NA,NA,NA,NA,NA
BSONEuST,3z8ujejod2q8a85trwhk37uqvoc39x,3kakfy4pgyf38twqmssz5kpliq23i2,BSONEuST,2020-0188,2021-10-31,01:39:22,03:02:02,NA,incomplete,false,NA,NA,true,2,12,NA,NA,NA,left,n_s_071.jpg,brown,green,NA,NA,NA,NA,NA,NA,NA,NA,NA,NaN,NA,1405.7999999523163,left,1,NA,NA,NA,NA,NA
BSONEuST,3z8ujejod2q8a85trwhk37uqvoc39x,3kakfy4pgyf38twqmssz5kpliq23i2,BSONEuST,2020-0188,2021-10-31,01:39:22,03:02:02,NA,incomplete,false,NA,NA,true,2,13,NA,NA,NA,right,m_l_076.jpg,green,brown,NA,NA,NA,NA,NA,NA,NA,NA,NA,NaN,NA,2377.7999999523163,right,1,NA,NA,NA,NA,NA
BSONEuST,3z8ujejod2q8a85trwhk37uqvoc39x,3kakfy4pgyf38twqmssz5kpliq23i2,BSONEuST,2020-0188,2021-10-31,01:39:22,03:02:02,NA,incomplete,false,NA,NA,true,2,14,NA,NA,NA,right,n_l_078.jpg,green,yellow,NA,NA,NA,NA,NA,NA,NA,NA,NA,NaN,NA,1609.5,right,1,NA,NA,NA,NA,NA
BSONEuST,3z8ujejod2q8a85trwhk37uqvoc39x,3kakfy4pgyf38twqmssz5kpliq23i2,BSONEuST,2020-0188,2021-10-31,01:39:22,03:02:02,NA,incomplete,false,NA,NA,true,2,15,NA,NA,NA,right,m_l_104.jpg,yellow,green,NA,NA,NA,NA,NA,NA,NA,NA,NA,NaN,NA,2797.5,right,1,NA,NA,NA,NA,NA
BSONEuST,3z8ujejod2q8a85trwhk37uqvoc39x,3kakfy4pgyf38twqmssz5kpliq23i2,BSONEuST,2020-0188,2021-10-31,01:39:22,03:02:02,NA,incomplete,false,NA,NA,true,2,16,NA,NA,NA,right,n_l_041.jpg,yellow,red,NA,NA,NA,NA,NA,NA,NA,NA,NA,NaN,NA,1180.6000001430511,right,1,NA,NA,NA,NA,NA
BSONEuST,3z8ujejod2q8a85trwhk37uqvoc39x,3kakfy4pgyf38twqmssz5kpliq23i2,BSONEuST,2020-0188,2021-10-31,01:39:22,03:02:02,NA,incomplete,false,NA,NA,true,2,17,NA,NA,NA,left,n_l_064.jpg,black,red,NA,NA,NA,NA,NA,NA,NA,NA,NA,NaN,NA,1130.2000000476837,left,1,NA,NA,NA,NA,NA
BSONEuST,3z8ujejod2q8a85trwhk37uqvoc39x,3kakfy4pgyf38twqmssz5kpliq23i2,BSONEuST,2020-0188,2021-10-31,01:39:22,03:02:02,NA,incomplete,false,NA,NA,true,2,18,NA,NA,NA,left,n_l_079.jpg,green,brown,NA,NA,NA,NA,NA,NA,NA,NA,NA,NaN,NA,2835,left,1,NA,NA,NA,NA,NA
BSONEuST,3z8ujejod2q8a85trwhk37uqvoc39x,3kakfy4pgyf38twqmssz5kpliq23i2,BSONEuST,2020-0188,2021-10-31,01:39:22,03:02:02,NA,incomplete,false,NA,NA,true,2,19,NA,NA,NA,left,n_s_057.jpg,red,black,NA,NA,NA,NA,NA,NA,NA,NA,NA,NaN,NA,1483.0999999046326,left,1,NA,NA,NA,NA,NA
BSONEuST,3z8ujejod2q8a85trwhk37uqvoc39x,3kakfy4pgyf38twqmssz5kpliq23i2,BSONEuST,2020-0188,2021-10-31,01:39:22,03:02:02,NA,incomplete,false,NA,NA,true,2,20,NA,NA,NA,left,n_l_003.jpg,brown,green,NA,NA,NA,NA,NA,NA,NA,NA,NA,NaN,NA,4489.400000095367,left,1,NA,NA,NA,NA,NA
BSONEuST,3z8ujejod2q8a85trwhk37uqvoc39x,3kakfy4pgyf38twqmssz5kpliq23i2,BSONEuST,2020-0188,2021-10-31,01:39:22,03:02:02,NA,incomplete,false,NA,NA,true,2,21,NA,NA,NA,right,m_s_084.jpg,red,yellow,NA,NA,NA,NA,NA,NA,NA,NA,NA,NaN,NA,1470.6000001430511,right,1,NA,NA,NA,NA,NA
BSONEuST,3z8ujejod2q8a85trwhk37uqvoc39x,3kakfy4pgyf38twqmssz5kpliq23i2,BSONEuST,2020-0188,2021-10-31,01:39:22,03:02:02,NA,incomplete,false,NA,true,NA,2,0,NA,NA,NA,right,NA,NA,NA,present,NA,NA,m_s_115.jpg,black,m_s_064.jpg,black,within,NA,NaN,NA,NA,NA,NA,left,4597.400000095367,0,0,1705
BSONEuST,3z8ujejod2q8a85trwhk37uqvoc39x,3kakfy4pgyf38twqmssz5kpliq23i2,BSONEuST,2020-0188,2021-10-31,01:39:22,03:02:02,NA,incomplete,false,NA,true,NA,2,1,NA,NA,NA,right,NA,NA,NA,present,NA,NA,m_l_036.jpg,green,m_l_076.jpg,brown,between,NA,NaN,NA,NA,NA,NA,right,4467.800000190735,1,1,3628.5
BSONEuST,3z8ujejod2q8a85trwhk37uqvoc39x,3kakfy4pgyf38twqmssz5kpliq23i2,BSONEuST,2020-0188,2021-10-31,01:39:22,03:02:02,NA,incomplete,false,NA,true,NA,2,2,NA,NA,NA,right,NA,NA,NA,present,NA,NA,n_l_078.jpg,yellow,m_l_104.jpg,green,between,NA,NaN,NA,NA,NA,NA,right,11713.200000047684,1,1,1795.5
BSONEuST,3z8ujejod2q8a85trwhk37uqvoc39x,3kakfy4pgyf38twqmssz5kpliq23i2,BSONEuST,2020-0188,2021-10-31,01:39:22,03:02:02,NA,incomplete,false,NA,true,NA,2,3,NA,NA,NA,left,NA,NA,NA,present,NA,NA,n_l_064.jpg,black,n_l_015.jpg,blue,between,NA,NaN,NA,NA,NA,NA,left,3718.0999999046326,1,3,923.1000001430511
BSONEuST,3z8ujejod2q8a85trwhk37uqvoc39x,3kakfy4pgyf38twqmssz5kpliq23i2,BSONEuST,2020-0188,2021-10-31,01:39:22,03:02:02,NA,incomplete,false,NA,true,NA,2,4,NA,NA,NA,left,NA,NA,NA,present,NA,NA,n_l_079.jpg,green,m_l_100.jpg,green,within,NA,NaN,NA,NA,NA,NA,left,3477.2999999523163,1,1,1857.9000000953674
BSONEuST,3z8ujejod2q8a85trwhk37uqvoc39x,3kakfy4pgyf38twqmssz5kpliq23i2,BSONEuST,2020-0188,2021-10-31,01:39:22,03:02:02,NA,incomplete,false,NA,true,NA,2,5,NA,NA,NA,right,NA,NA,NA,present,NA,NA,m_s_084.jpg,yellow,n_l_014.jpg,yellow,within,NA,NaN,NA,NA,NA,NA,right,3706.0999999046326,1,0,1229.4000000953674
BSONEuST,3z8ujejod2q8a85trwhk37uqvoc39x,3kakfy4pgyf38twqmssz5kpliq23i2,BSONEuST,2020-0188,2021-10-31,01:39:22,03:02:02,NA,incomplete,false,NA,true,NA,2,6,NA,NA,NA,right,NA,NA,NA,present,NA,NA,n_l_041.jpg,red,m_s_019.jpg,yellow,between,NA,NaN,NA,NA,NA,NA,right,3331,1,1,2704.399999856949
BSONEuST,3z8ujejod2q8a85trwhk37uqvoc39x,3kakfy4pgyf38twqmssz5kpliq23i2,BSONEuST,2020-0188,2021-10-31,01:39:22,03:02:02,NA,incomplete,false,NA,true,NA,2,7,NA,NA,NA,right,NA,NA,NA,present,NA,NA,n_l_055.jpg,blue,n_s_108.jpg,blue,within,NA,NaN,NA,NA,NA,NA,right,2566.7000000476837,1,0,1188.8000001907349
BSONEuST,3z8ujejod2q8a85trwhk37uqvoc39x,3kakfy4pgyf38twqmssz5kpliq23i2,BSONEuST,2020-0188,2021-10-31,01:39:22,03:02:02,NA,incomplete,false,NA,true,NA,2,8,NA,NA,NA,left,NA,NA,NA,present,NA,NA,n_s_057.jpg,red,n_s_078.jpg,red,within,NA,NaN,NA,NA,NA,NA,left,2021.7999999523163,1,1,1619.0999999046326
BSONEuST,3z8ujejod2q8a85trwhk37uqvoc39x,3kakfy4pgyf38twqmssz5kpliq23i2,BSONEuST,2020-0188,2021-10-31,01:39:22,03:02:02,NA,incomplete,false,NA,true,NA,2,9,NA,NA,NA,right,NA,NA,NA,present,NA,NA,n_s_071.jpg,brown,n_l_003.jpg,brown,within,NA,NaN,NA,NA,NA,NA,left,2463,0,1,1413.7000000476837
BSONEuST,3z8ujejod2q8a85trwhk37uqvoc39x,3kakfy4pgyf38twqmssz5kpliq23i2,BSONEuST,2020-0188,2021-10-31,01:39:22,03:02:02,NA,incomplete,false,NA,true,NA,2,10,NA,NA,NA,left,NA,NA,NA,present,NA,NA,m_l_096.jpg,red,n_l_070.jpg,black,between,NA,NaN,NA,NA,NA,NA,left,5651.5,1,1,2028.3000001907349
BSONEuST,3z8ujejod2q8a85trwhk37uqvoc39x,3kakfy4pgyf38twqmssz5kpliq23i2,BSONEuST,2020-0188,2021-10-31,01:39:22,03:02:02,NA,incomplete,false,true,NA,NA,3,0,NA,yellow,m_s_048.jpg,NA,NA,NA,NA,NA,pleasant,unpleasant,NA,NA,NA,NA,NA,left,1175,true,NA,NA,NA,NA,NA,NA,NA,NA
BSONEuST,3z8ujejod2q8a85trwhk37uqvoc39x,3kakfy4pgyf38twqmssz5kpliq23i2,BSONEuST,2020-0188,2021-10-31,01:39:22,03:02:02,NA,incomplete,false,true,NA,NA,3,1,NA,yellow,n_l_075.jpg,NA,NA,NA,NA,NA,pleasant,unpleasant,NA,NA,NA,NA,NA,right,1156.40000009537,true,NA,NA,NA,NA,NA,NA,NA,NA
BSONEuST,3z8ujejod2q8a85trwhk37uqvoc39x,3kakfy4pgyf38twqmssz5kpliq23i2,BSONEuST,2020-0188,2021-10-31,01:39:22,03:02:02,NA,incomplete,false,true,NA,NA,3,2,NA,yellow,n_s_092.jpg,NA,NA,NA,NA,NA,unpleasant,pleasant,NA,NA,NA,NA,NA,right,1475.70000004768,true,NA,NA,NA,NA,NA,NA,NA,NA
BSONEuST,3z8ujejod2q8a85trwhk37uqvoc39x,3kakfy4pgyf38twqmssz5kpliq23i2,BSONEuST,2020-0188,2021-10-31,01:39:22,03:02:02,NA,incomplete,false,true,NA,NA,3,3,NA,yellow,n_s_011.jpg,NA,NA,NA,NA,NA,unpleasant,pleasant,NA,NA,NA,NA,NA,right,1043.30000019073,true,NA,NA,NA,NA,NA,NA,NA,NA
BSONEuST,3z8ujejod2q8a85trwhk37uqvoc39x,3kakfy4pgyf38twqmssz5kpliq23i2,BSONEuST,2020-0188,2021-10-31,01:39:22,03:02:02,NA,incomplete,false,true,NA,NA,3,4,NA,yellow,m_l_080.jpg,NA,NA,NA,NA,NA,unpleasant,pleasant,NA,NA,NA,NA,NA,right,1591.70000004768,true,NA,NA,NA,NA,NA,NA,NA,NA
BSONEuST,3z8ujejod2q8a85trwhk37uqvoc39x,3kakfy4pgyf38twqmssz5kpliq23i2,BSONEuST,2020-0188,2021-10-31,01:39:22,03:02:02,NA,incomplete,false,true,NA,NA,3,5,NA,yellow,m_l_023.jpg,NA,NA,NA,NA,NA,pleasant,unpleasant,NA,NA,NA,NA,NA,right,1367.29999995232,true,NA,NA,NA,NA,NA,NA,NA,NA
BSONEuST,3z8ujejod2q8a85trwhk37uqvoc39x,3kakfy4pgyf38twqmssz5kpliq23i2,BSONEuST,2020-0188,2021-10-31,01:39:22,03:02:02,NA,incomplete,false,true,NA,NA,3,6,NA,white,m_l_103.jpg,NA,NA,NA,NA,NA,unpleasant,pleasant,NA,NA,NA,NA,NA,right,1549.89999985695,true,NA,NA,NA,NA,NA,NA,NA,NA
BSONEuST,3z8ujejod2q8a85trwhk37uqvoc39x,3kakfy4pgyf38twqmssz5kpliq23i2,BSONEuST,2020-0188,2021-10-31,01:39:22,03:02:02,NA,incomplete,false,true,NA,NA,3,7,NA,white,m_l_033.jpg,NA,NA,NA,NA,NA,unpleasant,pleasant,NA,NA,NA,NA,NA,right,1203.90000009537,true,NA,NA,NA,NA,NA,NA,NA,NA
BSONEuST,3z8ujejod2q8a85trwhk37uqvoc39x,3kakfy4pgyf38twqmssz5kpliq23i2,BSONEuST,2020-0188,2021-10-31,01:39:22,03:02:02,NA,incomplete,false,true,NA,NA,3,8,NA,white,n_l_059.jpg,NA,NA,NA,NA,NA,pleasant,unpleasant,NA,NA,NA,NA,NA,left,1581,true,NA,NA,NA,NA,NA,NA,NA,NA
BSONEuST,3z8ujejod2q8a85trwhk37uqvoc39x,3kakfy4pgyf38twqmssz5kpliq23i2,BSONEuST,2020-0188,2021-10-31,01:39:22,03:02:02,NA,incomplete,false,true,NA,NA,3,9,NA,white,m_l_114.jpg,NA,NA,NA,NA,NA,unpleasant,pleasant,NA,NA,NA,NA,NA,right,1121.30000019073,true,NA,NA,NA,NA,NA,NA,NA,NA
BSONEuST,3z8ujejod2q8a85trwhk37uqvoc39x,3kakfy4pgyf38twqmssz5kpliq23i2,BSONEuST,2020-0188,2021-10-31,01:39:22,03:02:02,NA,incomplete,false,true,NA,NA,3,10,NA,white,m_l_021.jpg,NA,NA,NA,NA,NA,unpleasant,pleasant,NA,NA,NA,NA,NA,left,1161.70000004768,true,NA,NA,NA,NA,NA,NA,NA,NA
BSONEuST,3z8ujejod2q8a85trwhk37uqvoc39x,3kakfy4pgyf38twqmssz5kpliq23i2,BSONEuST,2020-0188,2021-10-31,01:39:22,03:02:02,NA,incomplete,false,true,NA,NA,3,11,NA,white,n_l_034.jpg,NA,NA,NA,NA,NA,unpleasant,pleasant,NA,NA,NA,NA,NA,left,1198,true,NA,NA,NA,NA,NA,NA,NA,NA
BSONEuST,3z8ujejod2q8a85trwhk37uqvoc39x,3kakfy4pgyf38twqmssz5kpliq23i2,BSONEuST,2020-0188,2021-10-31,01:39:22,03:02:02,NA,incomplete,false,true,NA,NA,3,12,NA,black,n_l_024.jpg,NA,NA,NA,NA,NA,pleasant,unpleasant,NA,NA,NA,NA,NA,left,1434.70000004768,true,NA,NA,NA,NA,NA,NA,NA,NA
BSONEuST,3z8ujejod2q8a85trwhk37uqvoc39x,3kakfy4pgyf38twqmssz5kpliq23i2,BSONEuST,2020-0188,2021-10-31,01:39:22,03:02:02,NA,incomplete,false,true,NA,NA,3,13,NA,black,m_s_004.jpg,NA,NA,NA,NA,NA,unpleasant,pleasant,NA,NA,NA,NA,NA,right,1242.79999995232,true,NA,NA,NA,NA,NA,NA,NA,NA
BSONEuST,3z8ujejod2q8a85trwhk37uqvoc39x,3kakfy4pgyf38twqmssz5kpliq23i2,BSONEuST,2020-0188,2021-10-31,01:39:22,03:02:02,NA,incomplete,false,true,NA,NA,3,14,NA,black,m_l_029.jpg,NA,NA,NA,NA,NA,unpleasant,pleasant,NA,NA,NA,NA,NA,right,894.599999904633,true,NA,NA,NA,NA,NA,NA,NA,NA
BSONEuST,3z8ujejod2q8a85trwhk37uqvoc39x,3kakfy4pgyf38twqmssz5kpliq23i2,BSONEuST,2020-0188,2021-10-31,01:39:22,03:02:02,NA,incomplete,false,true,NA,NA,3,15,NA,black,m_s_032.jpg,NA,NA,NA,NA,NA,unpleasant,pleasant,NA,NA,NA,NA,NA,right,966.799999952316,true,NA,NA,NA,NA,NA,NA,NA,NA
BSONEuST,3z8ujejod2q8a85trwhk37uqvoc39x,3kakfy4pgyf38twqmssz5kpliq23i2,BSONEuST,2020-0188,2021-10-31,01:39:22,03:02:02,NA,incomplete,false,true,NA,NA,3,16,NA,black,n_l_005.jpg,NA,NA,NA,NA,NA,pleasant,unpleasant,NA,NA,NA,NA,NA,left,989.5,true,NA,NA,NA,NA,NA,NA,NA,NA
BSONEuST,3z8ujejod2q8a85trwhk37uqvoc39x,3kakfy4pgyf38twqmssz5kpliq23i2,BSONEuST,2020-0188,2021-10-31,01:39:22,03:02:02,NA,incomplete,false,true,NA,NA,3,17,NA,black,m_s_021.jpg,NA,NA,NA,NA,NA,pleasant,unpleasant,NA,NA,NA,NA,NA,right,1380.09999990463,true,NA,NA,NA,NA,NA,NA,NA,NA
BSONEuST,3z8ujejod2q8a85trwhk37uqvoc39x,3kakfy4pgyf38twqmssz5kpliq23i2,BSONEuST,2020-0188,2021-10-31,01:39:22,03:02:02,NA,incomplete,false,true,NA,NA,3,18,NA,gray,n_s_053.jpg,NA,NA,NA,NA,NA,unpleasant,pleasant,NA,NA,NA,NA,NA,left,1076.40000009537,true,NA,NA,NA,NA,NA,NA,NA,NA
BSONEuST,3z8ujejod2q8a85trwhk37uqvoc39x,3kakfy4pgyf38twqmssz5kpliq23i2,BSONEuST,2020-0188,2021-10-31,01:39:22,03:02:02,NA,incomplete,false,true,NA,NA,3,19,NA,gray,m_s_006.jpg,NA,NA,NA,NA,NA,unpleasant,pleasant,NA,NA,NA,NA,NA,left,1352.89999985695,true,NA,NA,NA,NA,NA,NA,NA,NA
BSONEuST,3z8ujejod2q8a85trwhk37uqvoc39x,3kakfy4pgyf38twqmssz5kpliq23i2,BSONEuST,2020-0188,2021-10-31,01:39:22,03:02:02,NA,incomplete,false,true,NA,NA,3,20,NA,gray,n_l_101.jpg,NA,NA,NA,NA,NA,pleasant,unpleasant,NA,NA,NA,NA,NA,left,1117.5,true,NA,NA,NA,NA,NA,NA,NA,NA
BSONEuST,3z8ujejod2q8a85trwhk37uqvoc39x,3kakfy4pgyf38twqmssz5kpliq23i2,BSONEuST,2020-0188,2021-10-31,01:39:22,03:02:02,NA,incomplete,false,true,NA,NA,3,21,NA,gray,m_l_008.jpg,NA,NA,NA,NA,NA,unpleasant,pleasant,NA,NA,NA,NA,NA,right,832,true,NA,NA,NA,NA,NA,NA,NA,NA
BSONEuST,3z8ujejod2q8a85trwhk37uqvoc39x,3kakfy4pgyf38twqmssz5kpliq23i2,BSONEuST,2020-0188,2021-10-31,01:39:22,03:02:02,NA,incomplete,false,true,NA,NA,3,22,NA,gray,n_s_089.jpg,NA,NA,NA,NA,NA,unpleasant,pleasant,NA,NA,NA,NA,NA,left,861,true,NA,NA,NA,NA,NA,NA,NA,NA
BSONEuST,3z8ujejod2q8a85trwhk37uqvoc39x,3kakfy4pgyf38twqmssz5kpliq23i2,BSONEuST,2020-0188,2021-10-31,01:39:22,03:02:02,NA,incomplete,false,true,NA,NA,3,23,NA,gray,m_s_018.jpg,NA,NA,NA,NA,NA,unpleasant,pleasant,NA,NA,NA,NA,NA,left,1144.60000014305,true,NA,NA,NA,NA,NA,NA,NA,NA
BSONEuST,3z8ujejod2q8a85trwhk37uqvoc39x,3kakfy4pgyf38twqmssz5kpliq23i2,BSONEuST,2020-0188,2021-10-31,01:39:22,03:02:02,NA,incomplete,false,true,NA,NA,3,24,NA,purple,n_l_068.jpg,NA,NA,NA,NA,NA,unpleasant,pleasant,NA,NA,NA,NA,NA,right,1051.29999995232,true,NA,NA,NA,NA,NA,NA,NA,NA
BSONEuST,3z8ujejod2q8a85trwhk37uqvoc39x,3kakfy4pgyf38twqmssz5kpliq23i2,BSONEuST,2020-0188,2021-10-31,01:39:22,03:02:02,NA,incomplete,false,true,NA,NA,3,25,NA,purple,n_l_019.jpg,NA,NA,NA,NA,NA,pleasant,unpleasant,NA,NA,NA,NA,NA,right,1061.10000014305,true,NA,NA,NA,NA,NA,NA,NA,NA
BSONEuST,3z8ujejod2q8a85trwhk37uqvoc39x,3kakfy4pgyf38twqmssz5kpliq23i2,BSONEuST,2020-0188,2021-10-31,01:39:22,03:02:02,NA,incomplete,false,true,NA,NA,3,26,NA,purple,m_l_039.jpg,NA,NA,NA,NA,NA,pleasant,unpleasant,NA,NA,NA,NA,NA,left,972.599999904633,true,NA,NA,NA,NA,NA,NA,NA,NA
BSONEuST,3z8ujejod2q8a85trwhk37uqvoc39x,3kakfy4pgyf38twqmssz5kpliq23i2,BSONEuST,2020-0188,2021-10-31,01:39:22,03:02:02,NA,incomplete,false,true,NA,NA,3,27,NA,purple,m_l_030.jpg,NA,NA,NA,NA,NA,unpleasant,pleasant,NA,NA,NA,NA,NA,right,1146.20000004768,true,NA,NA,NA,NA,NA,NA,NA,NA
BSONEuST,3z8ujejod2q8a85trwhk37uqvoc39x,3kakfy4pgyf38twqmssz5kpliq23i2,BSONEuST,2020-0188,2021-10-31,01:39:22,03:02:02,NA,incomplete,false,true,NA,NA,3,28,NA,purple,n_s_027.jpg,NA,NA,NA,NA,NA,pleasant,unpleasant,NA,NA,NA,NA,NA,right,942,true,NA,NA,NA,NA,NA,NA,NA,NA
BSONEuST,3z8ujejod2q8a85trwhk37uqvoc39x,3kakfy4pgyf38twqmssz5kpliq23i2,BSONEuST,2020-0188,2021-10-31,01:39:22,03:02:02,NA,incomplete,false,true,NA,NA,3,29,NA,purple,m_s_087.jpg,NA,NA,NA,NA,NA,unpleasant,pleasant,NA,NA,NA,NA,NA,right,893.5,true,NA,NA,NA,NA,NA,NA,NA,NA
BSONEuST,3z8ujejod2q8a85trwhk37uqvoc39x,3kakfy4pgyf38twqmssz5kpliq23i2,BSONEuST,2020-0188,2021-10-31,01:39:22,03:02:02,NA,incomplete,false,true,NA,NA,3,30,NA,blue,n_s_098.jpg,NA,NA,NA,NA,NA,unpleasant,pleasant,NA,NA,NA,NA,NA,left,1184.20000004768,true,NA,NA,NA,NA,NA,NA,NA,NA
BSONEuST,3z8ujejod2q8a85trwhk37uqvoc39x,3kakfy4pgyf38twqmssz5kpliq23i2,BSONEuST,2020-0188,2021-10-31,01:39:22,03:02:02,NA,incomplete,false,true,NA,NA,3,31,NA,blue,n_l_113.jpg,NA,NA,NA,NA,NA,pleasant,unpleasant,NA,NA,NA,NA,NA,left,1290.09999990463,true,NA,NA,NA,NA,NA,NA,NA,NA
BSONEuST,3z8ujejod2q8a85trwhk37uqvoc39x,3kakfy4pgyf38twqmssz5kpliq23i2,BSONEuST,2020-0188,2021-10-31,01:39:22,03:02:02,NA,incomplete,false,true,NA,NA,3,32,NA,blue,m_l_081.jpg,NA,NA,NA,NA,NA,pleasant,unpleasant,NA,NA,NA,NA,NA,left,1046.09999990463,true,NA,NA,NA,NA,NA,NA,NA,NA
BSONEuST,3z8ujejod2q8a85trwhk37uqvoc39x,3kakfy4pgyf38twqmssz5kpliq23i2,BSONEuST,2020-0188,2021-10-31,01:39:22,03:02:02,NA,incomplete,false,true,NA,NA,3,33,NA,blue,n_s_015.jpg,NA,NA,NA,NA,NA,unpleasant,pleasant,NA,NA,NA,NA,NA,left,1073.29999995232,true,NA,NA,NA,NA,NA,NA,NA,NA
BSONEuST,3z8ujejod2q8a85trwhk37uqvoc39x,3kakfy4pgyf38twqmssz5kpliq23i2,BSONEuST,2020-0188,2021-10-31,01:39:22,03:02:02,NA,incomplete,false,true,NA,NA,3,34,NA,blue,n_s_020.jpg,NA,NA,NA,NA,NA,pleasant,unpleasant,NA,NA,NA,NA,NA,right,1142.79999995232,true,NA,NA,NA,NA,NA,NA,NA,NA
BSONEuST,3z8ujejod2q8a85trwhk37uqvoc39x,3kakfy4pgyf38twqmssz5kpliq23i2,BSONEuST,2020-0188,2021-10-31,01:39:22,03:02:02,NA,incomplete,false,true,NA,NA,3,35,NA,blue,n_l_107.jpg,NA,NA,NA,NA,NA,unpleasant,pleasant,NA,NA,NA,NA,NA,left,991.400000095367,true,NA,NA,NA,NA,NA,NA,NA,NA
BSONEuST,3z8ujejod2q8a85trwhk37uqvoc39x,3kakfy4pgyf38twqmssz5kpliq23i2,BSONEuST,2020-0188,2021-10-31,01:39:22,03:02:02,NA,incomplete,false,NA,NA,true,3,0,NA,NA,NA,left,n_l_075.jpg,yellow,white,NA,NA,NA,NA,NA,NA,NA,NA,NA,NaN,NA,1356.5999999046326,left,1,NA,NA,NA,NA,NA
BSONEuST,3z8ujejod2q8a85trwhk37uqvoc39x,3kakfy4pgyf38twqmssz5kpliq23i2,BSONEuST,2020-0188,2021-10-31,01:39:22,03:02:02,NA,incomplete,false,NA,NA,true,3,1,NA,NA,NA,left,n_l_101.jpg,gray,black,NA,NA,NA,NA,NA,NA,NA,NA,NA,NaN,NA,1219.2999999523163,left,1,NA,NA,NA,NA,NA
BSONEuST,3z8ujejod2q8a85trwhk37uqvoc39x,3kakfy4pgyf38twqmssz5kpliq23i2,BSONEuST,2020-0188,2021-10-31,01:39:22,03:02:02,NA,incomplete,false,NA,NA,true,3,2,NA,NA,NA,left,n_s_089.jpg,gray,black,NA,NA,NA,NA,NA,NA,NA,NA,NA,NaN,NA,1292.5,left,1,NA,NA,NA,NA,NA
BSONEuST,3z8ujejod2q8a85trwhk37uqvoc39x,3kakfy4pgyf38twqmssz5kpliq23i2,BSONEuST,2020-0188,2021-10-31,01:39:22,03:02:02,NA,incomplete,false,NA,NA,true,3,3,NA,NA,NA,right,n_s_027.jpg,blue,purple,NA,NA,NA,NA,NA,NA,NA,NA,NA,NaN,NA,2139,right,1,NA,NA,NA,NA,NA
BSONEuST,3z8ujejod2q8a85trwhk37uqvoc39x,3kakfy4pgyf38twqmssz5kpliq23i2,BSONEuST,2020-0188,2021-10-31,01:39:22,03:02:02,NA,incomplete,false,NA,NA,true,3,4,NA,NA,NA,left,n_l_107.jpg,blue,purple,NA,NA,NA,NA,NA,NA,NA,NA,NA,NaN,NA,2128.0999999046326,left,1,NA,NA,NA,NA,NA
BSONEuST,3z8ujejod2q8a85trwhk37uqvoc39x,3kakfy4pgyf38twqmssz5kpliq23i2,BSONEuST,2020-0188,2021-10-31,01:39:22,03:02:02,NA,incomplete,false,NA,NA,true,3,5,NA,NA,NA,left,m_l_081.jpg,blue,purple,NA,NA,NA,NA,NA,NA,NA,NA,NA,NaN,NA,1625.3000001907349,left,1,NA,NA,NA,NA,NA
BSONEuST,3z8ujejod2q8a85trwhk37uqvoc39x,3kakfy4pgyf38twqmssz5kpliq23i2,BSONEuST,2020-0188,2021-10-31,01:39:22,03:02:02,NA,incomplete,false,NA,NA,true,3,6,NA,NA,NA,left,m_l_021.jpg,white,yellow,NA,NA,NA,NA,NA,NA,NA,NA,NA,NaN,NA,2255.100000143051,left,1,NA,NA,NA,NA,NA
BSONEuST,3z8ujejod2q8a85trwhk37uqvoc39x,3kakfy4pgyf38twqmssz5kpliq23i2,BSONEuST,2020-0188,2021-10-31,01:39:22,03:02:02,NA,incomplete,false,NA,NA,true,3,7,NA,NA,NA,right,m_s_021.jpg,gray,black,NA,NA,NA,NA,NA,NA,NA,NA,NA,NaN,NA,1547.3000001907349,right,1,NA,NA,NA,NA,NA
BSONEuST,3z8ujejod2q8a85trwhk37uqvoc39x,3kakfy4pgyf38twqmssz5kpliq23i2,BSONEuST,2020-0188,2021-10-31,01:39:22,03:02:02,NA,incomplete,false,NA,NA,true,3,8,NA,NA,NA,left,m_l_033.jpg,white,yellow,NA,NA,NA,NA,NA,NA,NA,NA,NA,NaN,NA,1313.6000001430511,left,1,NA,NA,NA,NA,NA
BSONEuST,3z8ujejod2q8a85trwhk37uqvoc39x,3kakfy4pgyf38twqmssz5kpliq23i2,BSONEuST,2020-0188,2021-10-31,01:39:22,03:02:02,NA,incomplete,false,NA,NA,true,3,9,NA,NA,NA,right,m_s_018.jpg,black,gray,NA,NA,NA,NA,NA,NA,NA,NA,NA,NaN,NA,1336.8999998569489,right,1,NA,NA,NA,NA,NA
BSONEuST,3z8ujejod2q8a85trwhk37uqvoc39x,3kakfy4pgyf38twqmssz5kpliq23i2,BSONEuST,2020-0188,2021-10-31,01:39:22,03:02:02,NA,incomplete,false,NA,NA,true,3,10,NA,NA,NA,right,m_s_087.jpg,gray,purple,NA,NA,NA,NA,NA,NA,NA,NA,NA,NaN,NA,1412.5,right,1,NA,NA,NA,NA,NA
BSONEuST,3z8ujejod2q8a85trwhk37uqvoc39x,3kakfy4pgyf38twqmssz5kpliq23i2,BSONEuST,2020-0188,2021-10-31,01:39:22,03:02:02,NA,incomplete,false,NA,NA,true,3,11,NA,NA,NA,left,m_l_023.jpg,yellow,white,NA,NA,NA,NA,NA,NA,NA,NA,NA,NaN,NA,1148,left,1,NA,NA,NA,NA,NA
BSONEuST,3z8ujejod2q8a85trwhk37uqvoc39x,3kakfy4pgyf38twqmssz5kpliq23i2,BSONEuST,2020-0188,2021-10-31,01:39:22,03:02:02,NA,incomplete,false,NA,NA,true,3,12,NA,NA,NA,right,n_l_019.jpg,gray,purple,NA,NA,NA,NA,NA,NA,NA,NA,NA,NaN,NA,1342.5,right,1,NA,NA,NA,NA,NA
BSONEuST,3z8ujejod2q8a85trwhk37uqvoc39x,3kakfy4pgyf38twqmssz5kpliq23i2,BSONEuST,2020-0188,2021-10-31,01:39:22,03:02:02,NA,incomplete,false,NA,NA,true,3,13,NA,NA,NA,right,m_s_004.jpg,gray,black,NA,NA,NA,NA,NA,NA,NA,NA,NA,NaN,NA,1296,right,1,NA,NA,NA,NA,NA
BSONEuST,3z8ujejod2q8a85trwhk37uqvoc39x,3kakfy4pgyf38twqmssz5kpliq23i2,BSONEuST,2020-0188,2021-10-31,01:39:22,03:02:02,NA,incomplete,false,NA,NA,true,3,14,NA,NA,NA,right,m_l_080.jpg,white,yellow,NA,NA,NA,NA,NA,NA,NA,NA,NA,NaN,NA,1188.5999999046326,right,1,NA,NA,NA,NA,NA
BSONEuST,3z8ujejod2q8a85trwhk37uqvoc39x,3kakfy4pgyf38twqmssz5kpliq23i2,BSONEuST,2020-0188,2021-10-31,01:39:22,03:02:02,NA,incomplete,false,NA,NA,true,3,15,NA,NA,NA,left,n_l_005.jpg,black,white,NA,NA,NA,NA,NA,NA,NA,NA,NA,NaN,NA,1213.9000000953674,left,1,NA,NA,NA,NA,NA
BSONEuST,3z8ujejod2q8a85trwhk37uqvoc39x,3kakfy4pgyf38twqmssz5kpliq23i2,BSONEuST,2020-0188,2021-10-31,01:39:22,03:02:02,NA,incomplete,false,NA,NA,true,3,16,NA,NA,NA,left,m_l_029.jpg,black,gray,NA,NA,NA,NA,NA,NA,NA,NA,NA,NaN,NA,1491.8000001907349,left,1,NA,NA,NA,NA,NA
BSONEuST,3z8ujejod2q8a85trwhk37uqvoc39x,3kakfy4pgyf38twqmssz5kpliq23i2,BSONEuST,2020-0188,2021-10-31,01:39:22,03:02:02,NA,incomplete,false,NA,NA,true,3,17,NA,NA,NA,left,n_l_113.jpg,blue,purple,NA,NA,NA,NA,NA,NA,NA,NA,NA,NaN,NA,1434.1000001430511,left,1,NA,NA,NA,NA,NA
BSONEuST,3z8ujejod2q8a85trwhk37uqvoc39x,3kakfy4pgyf38twqmssz5kpliq23i2,BSONEuST,2020-0188,2021-10-31,01:39:22,03:02:02,NA,incomplete,false,NA,NA,true,3,18,NA,NA,NA,left,n_l_034.jpg,white,yellow,NA,NA,NA,NA,NA,NA,NA,NA,NA,NaN,NA,1469.2999999523163,left,1,NA,NA,NA,NA,NA
BSONEuST,3z8ujejod2q8a85trwhk37uqvoc39x,3kakfy4pgyf38twqmssz5kpliq23i2,BSONEuST,2020-0188,2021-10-31,01:39:22,03:02:02,NA,incomplete,false,NA,NA,true,3,19,NA,NA,NA,left,m_s_006.jpg,gray,black,NA,NA,NA,NA,NA,NA,NA,NA,NA,NaN,NA,1320.2999999523163,left,1,NA,NA,NA,NA,NA
BSONEuST,3z8ujejod2q8a85trwhk37uqvoc39x,3kakfy4pgyf38twqmssz5kpliq23i2,BSONEuST,2020-0188,2021-10-31,01:39:22,03:02:02,NA,incomplete,false,NA,NA,true,3,20,NA,NA,NA,right,m_l_039.jpg,blue,purple,NA,NA,NA,NA,NA,NA,NA,NA,NA,NaN,NA,3966.5,left,0,NA,NA,NA,NA,NA
BSONEuST,3z8ujejod2q8a85trwhk37uqvoc39x,3kakfy4pgyf38twqmssz5kpliq23i2,BSONEuST,2020-0188,2021-10-31,01:39:22,03:02:02,NA,incomplete,false,NA,NA,true,3,21,NA,NA,NA,left,n_l_059.jpg,white,yellow,NA,NA,NA,NA,NA,NA,NA,NA,NA,NaN,NA,2176.100000143051,left,1,NA,NA,NA,NA,NA
BSONEuST,3z8ujejod2q8a85trwhk37uqvoc39x,3kakfy4pgyf38twqmssz5kpliq23i2,BSONEuST,2020-0188,2021-10-31,01:39:22,03:02:02,NA,incomplete,false,NA,true,NA,3,0,NA,NA,NA,left,NA,NA,NA,present,NA,NA,n_s_089.jpg,gray,m_l_039.jpg,purple,between,NA,NaN,NA,NA,NA,NA,left,4766.099999904633,1,1,1156.7000000476837
BSONEuST,3z8ujejod2q8a85trwhk37uqvoc39x,3kakfy4pgyf38twqmssz5kpliq23i2,BSONEuST,2020-0188,2021-10-31,01:39:22,03:02:02,NA,incomplete,false,NA,true,NA,3,1,NA,NA,NA,right,NA,NA,NA,present,NA,NA,n_l_059.jpg,white,m_l_080.jpg,yellow,between,NA,NaN,NA,NA,NA,NA,right,4058.2999999523163,1,1,894.8999998569489
BSONEuST,3z8ujejod2q8a85trwhk37uqvoc39x,3kakfy4pgyf38twqmssz5kpliq23i2,BSONEuST,2020-0188,2021-10-31,01:39:22,03:02:02,NA,incomplete,false,NA,true,NA,3,2,NA,NA,NA,left,NA,NA,NA,present,NA,NA,n_l_075.jpg,yellow,m_l_023.jpg,yellow,within,NA,NaN,NA,NA,NA,NA,left,2530.7000000476837,1,0,1482.7000000476837
BSONEuST,3z8ujejod2q8a85trwhk37uqvoc39x,3kakfy4pgyf38twqmssz5kpliq23i2,BSONEuST,2020-0188,2021-10-31,01:39:22,03:02:02,NA,incomplete,false,NA,true,NA,3,3,NA,NA,NA,right,NA,NA,NA,present,NA,NA,m_l_029.jpg,black,m_l_021.jpg,white,between,NA,NaN,NA,NA,NA,NA,right,3981,1,1,742.7999999523163
BSONEuST,3z8ujejod2q8a85trwhk37uqvoc39x,3kakfy4pgyf38twqmssz5kpliq23i2,BSONEuST,2020-0188,2021-10-31,01:39:22,03:02:02,NA,incomplete,false,NA,true,NA,3,4,NA,NA,NA,left,NA,NA,NA,present,NA,NA,m_s_006.jpg,gray,m_s_018.jpg,gray,within,NA,NaN,NA,NA,NA,NA,left,4928.099999904633,1,0,2898.7000000476837
BSONEuST,3z8ujejod2q8a85trwhk37uqvoc39x,3kakfy4pgyf38twqmssz5kpliq23i2,BSONEuST,2020-0188,2021-10-31,01:39:22,03:02:02,NA,incomplete,false,NA,true,NA,3,5,NA,NA,NA,right,NA,NA,NA,present,NA,NA,n_l_107.jpg,blue,n_l_113.jpg,blue,within,NA,NaN,NA,NA,NA,NA,left,3339.7999999523163,0,0,1554.5999999046326
BSONEuST,3z8ujejod2q8a85trwhk37uqvoc39x,3kakfy4pgyf38twqmssz5kpliq23i2,BSONEuST,2020-0188,2021-10-31,01:39:22,03:02:02,NA,incomplete,false,NA,true,NA,3,6,NA,NA,NA,right,NA,NA,NA,present,NA,NA,n_l_101.jpg,gray,n_l_005.jpg,black,between,NA,NaN,NA,NA,NA,NA,right,4044.7000000476837,1,1,981.2999999523163
BSONEuST,3z8ujejod2q8a85trwhk37uqvoc39x,3kakfy4pgyf38twqmssz5kpliq23i2,BSONEuST,2020-0188,2021-10-31,01:39:22,03:02:02,NA,incomplete,false,NA,true,NA,3,7,NA,NA,NA,right,NA,NA,NA,present,NA,NA,m_s_021.jpg,black,m_s_004.jpg,black,within,NA,NaN,NA,NA,NA,NA,right,2771.7000000476837,1,0,1172.3000001907349
BSONEuST,3z8ujejod2q8a85trwhk37uqvoc39x,3kakfy4pgyf38twqmssz5kpliq23i2,BSONEuST,2020-0188,2021-10-31,01:39:22,03:02:02,NA,incomplete,false,NA,true,NA,3,8,NA,NA,NA,right,NA,NA,NA,present,NA,NA,n_l_034.jpg,white,m_l_033.jpg,white,within,NA,NaN,NA,NA,NA,NA,right,3082.100000143051,1,0,1526.6999998092651
BSONEuST,3z8ujejod2q8a85trwhk37uqvoc39x,3kakfy4pgyf38twqmssz5kpliq23i2,BSONEuST,2020-0188,2021-10-31,01:39:22,03:02:02,NA,incomplete,false,NA,true,NA,3,9,NA,NA,NA,right,NA,NA,NA,present,NA,NA,m_s_087.jpg,purple,n_l_019.jpg,purple,within,NA,NaN,NA,NA,NA,NA,left,2517,0,0,1046.1000001430511
BSONEuST,3z8ujejod2q8a85trwhk37uqvoc39x,3kakfy4pgyf38twqmssz5kpliq23i2,BSONEuST,2020-0188,2021-10-31,01:39:22,03:02:02,NA,incomplete,false,NA,true,NA,3,10,NA,NA,NA,right,NA,NA,NA,present,NA,NA,m_l_081.jpg,blue,n_s_027.jpg,purple,between,NA,NaN,NA,NA,NA,NA,right,3692.100000143051,1,1,2905.9000000953674
BSONEuST,3z8ujejod2q8a85trwhk37uqvoc39x,3kakfy4pgyf38twqmssz5kpliq23i2,BSONEuST,2020-0188,2021-10-31,01:39:22,03:02:02,NA,incomplete,false,true,NA,NA,4,0,NA,purple,m_s_111.jpg,NA,NA,NA,NA,NA,pleasant,unpleasant,NA,NA,NA,NA,NA,left,1726.89999985695,true,NA,NA,NA,NA,NA,NA,NA,NA
BSONEuST,3z8ujejod2q8a85trwhk37uqvoc39x,3kakfy4pgyf38twqmssz5kpliq23i2,BSONEuST,2020-0188,2021-10-31,01:39:22,03:02:02,NA,incomplete,false,true,NA,NA,4,1,NA,purple,m_l_071.jpg,NA,NA,NA,NA,NA,pleasant,unpleasant,NA,NA,NA,NA,NA,left,1111.70000004768,true,NA,NA,NA,NA,NA,NA,NA,NA
BSONEuST,3z8ujejod2q8a85trwhk37uqvoc39x,3kakfy4pgyf38twqmssz5kpliq23i2,BSONEuST,2020-0188,2021-10-31,01:39:22,03:02:02,NA,incomplete,false,true,NA,NA,4,2,NA,purple,m_l_072.jpg,NA,NA,NA,NA,NA,pleasant,unpleasant,NA,NA,NA,NA,NA,left,1081,true,NA,NA,NA,NA,NA,NA,NA,NA
BSONEuST,3z8ujejod2q8a85trwhk37uqvoc39x,3kakfy4pgyf38twqmssz5kpliq23i2,BSONEuST,2020-0188,2021-10-31,01:39:22,03:02:02,NA,incomplete,false,true,NA,NA,4,3,NA,purple,n_l_042.jpg,NA,NA,NA,NA,NA,pleasant,unpleasant,NA,NA,NA,NA,NA,right,950.100000143051,true,NA,NA,NA,NA,NA,NA,NA,NA
BSONEuST,3z8ujejod2q8a85trwhk37uqvoc39x,3kakfy4pgyf38twqmssz5kpliq23i2,BSONEuST,2020-0188,2021-10-31,01:39:22,03:02:02,NA,incomplete,false,true,NA,NA,4,4,NA,purple,n_l_112.jpg,NA,NA,NA,NA,NA,unpleasant,pleasant,NA,NA,NA,NA,NA,left,1043,true,NA,NA,NA,NA,NA,NA,NA,NA
BSONEuST,3z8ujejod2q8a85trwhk37uqvoc39x,3kakfy4pgyf38twqmssz5kpliq23i2,BSONEuST,2020-0188,2021-10-31,01:39:22,03:02:02,NA,incomplete,false,true,NA,NA,4,5,NA,purple,n_s_012.jpg,NA,NA,NA,NA,NA,pleasant,unpleasant,NA,NA,NA,NA,NA,left,1087.29999995232,true,NA,NA,NA,NA,NA,NA,NA,NA
BSONEuST,3z8ujejod2q8a85trwhk37uqvoc39x,3kakfy4pgyf38twqmssz5kpliq23i2,BSONEuST,2020-0188,2021-10-31,01:39:22,03:02:02,NA,incomplete,false,true,NA,NA,4,6,NA,green,m_l_088.jpg,NA,NA,NA,NA,NA,unpleasant,pleasant,NA,NA,NA,NA,NA,right,1195.20000004768,true,NA,NA,NA,NA,NA,NA,NA,NA
BSONEuST,3z8ujejod2q8a85trwhk37uqvoc39x,3kakfy4pgyf38twqmssz5kpliq23i2,BSONEuST,2020-0188,2021-10-31,01:39:22,03:02:02,NA,incomplete,false,true,NA,NA,4,7,NA,green,m_s_069.jpg,NA,NA,NA,NA,NA,pleasant,unpleasant,NA,NA,NA,NA,NA,left,1006.60000014305,true,NA,NA,NA,NA,NA,NA,NA,NA
BSONEuST,3z8ujejod2q8a85trwhk37uqvoc39x,3kakfy4pgyf38twqmssz5kpliq23i2,BSONEuST,2020-0188,2021-10-31,01:39:22,03:02:02,NA,incomplete,false,true,NA,NA,4,8,NA,green,m_l_016.jpg,NA,NA,NA,NA,NA,pleasant,unpleasant,NA,NA,NA,NA,NA,right,1057.5,true,NA,NA,NA,NA,NA,NA,NA,NA
BSONEuST,3z8ujejod2q8a85trwhk37uqvoc39x,3kakfy4pgyf38twqmssz5kpliq23i2,BSONEuST,2020-0188,2021-10-31,01:39:22,03:02:02,NA,incomplete,false,true,NA,NA,4,9,NA,green,n_l_069.jpg,NA,NA,NA,NA,NA,pleasant,unpleasant,NA,NA,NA,NA,NA,right,959.900000095367,true,NA,NA,NA,NA,NA,NA,NA,NA
BSONEuST,3z8ujejod2q8a85trwhk37uqvoc39x,3kakfy4pgyf38twqmssz5kpliq23i2,BSONEuST,2020-0188,2021-10-31,01:39:22,03:02:02,NA,incomplete,false,true,NA,NA,4,10,NA,green,n_s_040.jpg,NA,NA,NA,NA,NA,unpleasant,pleasant,NA,NA,NA,NA,NA,left,1365.20000004768,true,NA,NA,NA,NA,NA,NA,NA,NA
BSONEuST,3z8ujejod2q8a85trwhk37uqvoc39x,3kakfy4pgyf38twqmssz5kpliq23i2,BSONEuST,2020-0188,2021-10-31,01:39:22,03:02:02,NA,incomplete,false,true,NA,NA,4,11,NA,green,n_l_010.jpg,NA,NA,NA,NA,NA,unpleasant,pleasant,NA,NA,NA,NA,NA,right,963,true,NA,NA,NA,NA,NA,NA,NA,NA
BSONEuST,3z8ujejod2q8a85trwhk37uqvoc39x,3kakfy4pgyf38twqmssz5kpliq23i2,BSONEuST,2020-0188,2021-10-31,01:39:22,03:02:02,NA,incomplete,false,true,NA,NA,4,12,NA,red,m_s_017.jpg,NA,NA,NA,NA,NA,unpleasant,pleasant,NA,NA,NA,NA,NA,left,1282.40000009537,true,NA,NA,NA,NA,NA,NA,NA,NA
BSONEuST,3z8ujejod2q8a85trwhk37uqvoc39x,3kakfy4pgyf38twqmssz5kpliq23i2,BSONEuST,2020-0188,2021-10-31,01:39:22,03:02:02,NA,incomplete,false,true,NA,NA,4,13,NA,red,m_s_002.jpg,NA,NA,NA,NA,NA,pleasant,unpleasant,NA,NA,NA,NA,NA,left,1303.10000014305,true,NA,NA,NA,NA,NA,NA,NA,NA
BSONEuST,3z8ujejod2q8a85trwhk37uqvoc39x,3kakfy4pgyf38twqmssz5kpliq23i2,BSONEuST,2020-0188,2021-10-31,01:39:22,03:02:02,NA,incomplete,false,true,NA,NA,4,14,NA,red,m_l_040.jpg,NA,NA,NA,NA,NA,pleasant,unpleasant,NA,NA,NA,NA,NA,left,930.399999856949,true,NA,NA,NA,NA,NA,NA,NA,NA
BSONEuST,3z8ujejod2q8a85trwhk37uqvoc39x,3kakfy4pgyf38twqmssz5kpliq23i2,BSONEuST,2020-0188,2021-10-31,01:39:22,03:02:02,NA,incomplete,false,true,NA,NA,4,15,NA,red,n_l_096.jpg,NA,NA,NA,NA,NA,unpleasant,pleasant,NA,NA,NA,NA,NA,left,928.700000047684,true,NA,NA,NA,NA,NA,NA,NA,NA
BSONEuST,3z8ujejod2q8a85trwhk37uqvoc39x,3kakfy4pgyf38twqmssz5kpliq23i2,BSONEuST,2020-0188,2021-10-31,01:39:22,03:02:02,NA,incomplete,false,true,NA,NA,4,16,NA,red,n_l_044.jpg,NA,NA,NA,NA,NA,pleasant,unpleasant,NA,NA,NA,NA,NA,right,984.5,true,NA,NA,NA,NA,NA,NA,NA,NA
BSONEuST,3z8ujejod2q8a85trwhk37uqvoc39x,3kakfy4pgyf38twqmssz5kpliq23i2,BSONEuST,2020-0188,2021-10-31,01:39:22,03:02:02,NA,incomplete,false,true,NA,NA,4,17,NA,red,n_s_117.jpg,NA,NA,NA,NA,NA,pleasant,unpleasant,NA,NA,NA,NA,NA,right,1101.79999995232,true,NA,NA,NA,NA,NA,NA,NA,NA
BSONEuST,3z8ujejod2q8a85trwhk37uqvoc39x,3kakfy4pgyf38twqmssz5kpliq23i2,BSONEuST,2020-0188,2021-10-31,01:39:22,03:02:02,NA,incomplete,false,true,NA,NA,4,18,NA,gray,n_s_082.jpg,NA,NA,NA,NA,NA,unpleasant,pleasant,NA,NA,NA,NA,NA,right,1324,true,NA,NA,NA,NA,NA,NA,NA,NA
BSONEuST,3z8ujejod2q8a85trwhk37uqvoc39x,3kakfy4pgyf38twqmssz5kpliq23i2,BSONEuST,2020-0188,2021-10-31,01:39:22,03:02:02,NA,incomplete,false,true,NA,NA,4,19,NA,gray,m_s_085.jpg,NA,NA,NA,NA,NA,unpleasant,pleasant,NA,NA,NA,NA,NA,right,974.599999904633,true,NA,NA,NA,NA,NA,NA,NA,NA
BSONEuST,3z8ujejod2q8a85trwhk37uqvoc39x,3kakfy4pgyf38twqmssz5kpliq23i2,BSONEuST,2020-0188,2021-10-31,01:39:22,03:02:02,NA,incomplete,false,true,NA,NA,4,20,NA,gray,n_l_085.jpg,NA,NA,NA,NA,NA,pleasant,unpleasant,NA,NA,NA,NA,NA,left,948,true,NA,NA,NA,NA,NA,NA,NA,NA
BSONEuST,3z8ujejod2q8a85trwhk37uqvoc39x,3kakfy4pgyf38twqmssz5kpliq23i2,BSONEuST,2020-0188,2021-10-31,01:39:22,03:02:02,NA,incomplete,false,true,NA,NA,4,21,NA,gray,n_s_106.jpg,NA,NA,NA,NA,NA,unpleasant,pleasant,NA,NA,NA,NA,NA,left,1075,true,NA,NA,NA,NA,NA,NA,NA,NA
BSONEuST,3z8ujejod2q8a85trwhk37uqvoc39x,3kakfy4pgyf38twqmssz5kpliq23i2,BSONEuST,2020-0188,2021-10-31,01:39:22,03:02:02,NA,incomplete,false,true,NA,NA,4,22,NA,gray,n_l_108.jpg,NA,NA,NA,NA,NA,pleasant,unpleasant,NA,NA,NA,NA,NA,left,1269.79999995232,true,NA,NA,NA,NA,NA,NA,NA,NA
BSONEuST,3z8ujejod2q8a85trwhk37uqvoc39x,3kakfy4pgyf38twqmssz5kpliq23i2,BSONEuST,2020-0188,2021-10-31,01:39:22,03:02:02,NA,incomplete,false,true,NA,NA,4,23,NA,gray,m_s_066.jpg,NA,NA,NA,NA,NA,unpleasant,pleasant,NA,NA,NA,NA,NA,right,1059.30000019073,true,NA,NA,NA,NA,NA,NA,NA,NA
BSONEuST,3z8ujejod2q8a85trwhk37uqvoc39x,3kakfy4pgyf38twqmssz5kpliq23i2,BSONEuST,2020-0188,2021-10-31,01:39:22,03:02:02,NA,incomplete,false,true,NA,NA,4,24,NA,yellow,m_s_009.jpg,NA,NA,NA,NA,NA,unpleasant,pleasant,NA,NA,NA,NA,NA,right,1152.10000014305,true,NA,NA,NA,NA,NA,NA,NA,NA
BSONEuST,3z8ujejod2q8a85trwhk37uqvoc39x,3kakfy4pgyf38twqmssz5kpliq23i2,BSONEuST,2020-0188,2021-10-31,01:39:22,03:02:02,NA,incomplete,false,true,NA,NA,4,25,NA,yellow,m_s_008.jpg,NA,NA,NA,NA,NA,unpleasant,pleasant,NA,NA,NA,NA,NA,left,998.799999952316,true,NA,NA,NA,NA,NA,NA,NA,NA
BSONEuST,3z8ujejod2q8a85trwhk37uqvoc39x,3kakfy4pgyf38twqmssz5kpliq23i2,BSONEuST,2020-0188,2021-10-31,01:39:22,03:02:02,NA,incomplete,false,true,NA,NA,4,26,NA,yellow,n_s_036.jpg,NA,NA,NA,NA,NA,unpleasant,pleasant,NA,NA,NA,NA,NA,left,743.700000047684,true,NA,NA,NA,NA,NA,NA,NA,NA
BSONEuST,3z8ujejod2q8a85trwhk37uqvoc39x,3kakfy4pgyf38twqmssz5kpliq23i2,BSONEuST,2020-0188,2021-10-31,01:39:22,03:02:02,NA,incomplete,false,true,NA,NA,4,27,NA,yellow,m_s_092.jpg,NA,NA,NA,NA,NA,unpleasant,pleasant,NA,NA,NA,NA,NA,right,1075.09999990463,true,NA,NA,NA,NA,NA,NA,NA,NA
BSONEuST,3z8ujejod2q8a85trwhk37uqvoc39x,3kakfy4pgyf38twqmssz5kpliq23i2,BSONEuST,2020-0188,2021-10-31,01:39:22,03:02:02,NA,incomplete,false,true,NA,NA,4,28,NA,yellow,n_s_074.jpg,NA,NA,NA,NA,NA,unpleasant,pleasant,NA,NA,NA,NA,NA,left,1113.29999995232,true,NA,NA,NA,NA,NA,NA,NA,NA
BSONEuST,3z8ujejod2q8a85trwhk37uqvoc39x,3kakfy4pgyf38twqmssz5kpliq23i2,BSONEuST,2020-0188,2021-10-31,01:39:22,03:02:02,NA,incomplete,false,true,NA,NA,4,29,NA,yellow,m_s_065.jpg,NA,NA,NA,NA,NA,unpleasant,pleasant,NA,NA,NA,NA,NA,right,893.299999952316,true,NA,NA,NA,NA,NA,NA,NA,NA
BSONEuST,3z8ujejod2q8a85trwhk37uqvoc39x,3kakfy4pgyf38twqmssz5kpliq23i2,BSONEuST,2020-0188,2021-10-31,01:39:22,03:02:02,NA,incomplete,false,true,NA,NA,4,30,NA,white,n_s_110.jpg,NA,NA,NA,NA,NA,pleasant,unpleasant,NA,NA,NA,NA,NA,left,1273.70000004768,true,NA,NA,NA,NA,NA,NA,NA,NA
BSONEuST,3z8ujejod2q8a85trwhk37uqvoc39x,3kakfy4pgyf38twqmssz5kpliq23i2,BSONEuST,2020-0188,2021-10-31,01:39:22,03:02:02,NA,incomplete,false,true,NA,NA,4,31,NA,white,n_l_020.jpg,NA,NA,NA,NA,NA,pleasant,unpleasant,NA,NA,NA,NA,NA,right,920.5,true,NA,NA,NA,NA,NA,NA,NA,NA
BSONEuST,3z8ujejod2q8a85trwhk37uqvoc39x,3kakfy4pgyf38twqmssz5kpliq23i2,BSONEuST,2020-0188,2021-10-31,01:39:22,03:02:02,NA,incomplete,false,true,NA,NA,4,32,NA,white,n_s_103.jpg,NA,NA,NA,NA,NA,pleasant,unpleasant,NA,NA,NA,NA,NA,right,1008.90000009537,true,NA,NA,NA,NA,NA,NA,NA,NA
BSONEuST,3z8ujejod2q8a85trwhk37uqvoc39x,3kakfy4pgyf38twqmssz5kpliq23i2,BSONEuST,2020-0188,2021-10-31,01:39:22,03:02:02,NA,incomplete,false,true,NA,NA,4,33,NA,white,m_s_016.jpg,NA,NA,NA,NA,NA,pleasant,unpleasant,NA,NA,NA,NA,NA,left,1128.89999985695,true,NA,NA,NA,NA,NA,NA,NA,NA
BSONEuST,3z8ujejod2q8a85trwhk37uqvoc39x,3kakfy4pgyf38twqmssz5kpliq23i2,BSONEuST,2020-0188,2021-10-31,01:39:22,03:02:02,NA,incomplete,false,true,NA,NA,4,34,NA,white,m_l_004.jpg,NA,NA,NA,NA,NA,pleasant,unpleasant,NA,NA,NA,NA,NA,left,991,true,NA,NA,NA,NA,NA,NA,NA,NA
BSONEuST,3z8ujejod2q8a85trwhk37uqvoc39x,3kakfy4pgyf38twqmssz5kpliq23i2,BSONEuST,2020-0188,2021-10-31,01:39:22,03:02:02,NA,incomplete,false,true,NA,NA,4,35,NA,white,m_l_069.jpg,NA,NA,NA,NA,NA,unpleasant,pleasant,NA,NA,NA,NA,NA,right,1059.90000009537,true,NA,NA,NA,NA,NA,NA,NA,NA
BSONEuST,3z8ujejod2q8a85trwhk37uqvoc39x,3kakfy4pgyf38twqmssz5kpliq23i2,BSONEuST,2020-0188,2021-10-31,01:39:22,03:02:02,NA,incomplete,false,NA,NA,true,4,0,NA,NA,NA,right,m_s_085.jpg,red,gray,NA,NA,NA,NA,NA,NA,NA,NA,NA,NaN,NA,1619.7999999523163,right,1,NA,NA,NA,NA,NA
BSONEuST,3z8ujejod2q8a85trwhk37uqvoc39x,3kakfy4pgyf38twqmssz5kpliq23i2,BSONEuST,2020-0188,2021-10-31,01:39:22,03:02:02,NA,incomplete,false,NA,NA,true,4,1,NA,NA,NA,left,n_s_012.jpg,purple,green,NA,NA,NA,NA,NA,NA,NA,NA,NA,NaN,NA,1370.7999999523163,left,1,NA,NA,NA,NA,NA
BSONEuST,3z8ujejod2q8a85trwhk37uqvoc39x,3kakfy4pgyf38twqmssz5kpliq23i2,BSONEuST,2020-0188,2021-10-31,01:39:22,03:02:02,NA,incomplete,false,NA,NA,true,4,2,NA,NA,NA,left,n_s_103.jpg,white,yellow,NA,NA,NA,NA,NA,NA,NA,NA,NA,NaN,NA,2473.600000143051,left,1,NA,NA,NA,NA,NA
BSONEuST,3z8ujejod2q8a85trwhk37uqvoc39x,3kakfy4pgyf38twqmssz5kpliq23i2,BSONEuST,2020-0188,2021-10-31,01:39:22,03:02:02,NA,incomplete,false,NA,NA,true,4,3,NA,NA,NA,right,n_s_036.jpg,white,yellow,NA,NA,NA,NA,NA,NA,NA,NA,NA,NaN,NA,3825.5,right,1,NA,NA,NA,NA,NA
BSONEuST,3z8ujejod2q8a85trwhk37uqvoc39x,3kakfy4pgyf38twqmssz5kpliq23i2,BSONEuST,2020-0188,2021-10-31,01:39:22,03:02:02,NA,incomplete,false,NA,NA,true,4,4,NA,NA,NA,right,m_s_069.jpg,red,green,NA,NA,NA,NA,NA,NA,NA,NA,NA,NaN,NA,1307.2000000476837,right,1,NA,NA,NA,NA,NA
BSONEuST,3z8ujejod2q8a85trwhk37uqvoc39x,3kakfy4pgyf38twqmssz5kpliq23i2,BSONEuST,2020-0188,2021-10-31,01:39:22,03:02:02,NA,incomplete,false,NA,NA,true,4,5,NA,NA,NA,right,n_l_108.jpg,yellow,gray,NA,NA,NA,NA,NA,NA,NA,NA,NA,NaN,NA,1993.2999999523163,right,1,NA,NA,NA,NA,NA
BSONEuST,3z8ujejod2q8a85trwhk37uqvoc39x,3kakfy4pgyf38twqmssz5kpliq23i2,BSONEuST,2020-0188,2021-10-31,01:39:22,03:02:02,NA,incomplete,false,NA,NA,true,4,6,NA,NA,NA,left,n_s_040.jpg,green,purple,NA,NA,NA,NA,NA,NA,NA,NA,NA,NaN,NA,1644.2000000476837,left,1,NA,NA,NA,NA,NA
BSONEuST,3z8ujejod2q8a85trwhk37uqvoc39x,3kakfy4pgyf38twqmssz5kpliq23i2,BSONEuST,2020-0188,2021-10-31,01:39:22,03:02:02,NA,incomplete,false,NA,NA,true,4,7,NA,NA,NA,left,n_l_112.jpg,purple,green,NA,NA,NA,NA,NA,NA,NA,NA,NA,NaN,NA,1326.7999999523163,left,1,NA,NA,NA,NA,NA
BSONEuST,3z8ujejod2q8a85trwhk37uqvoc39x,3kakfy4pgyf38twqmssz5kpliq23i2,BSONEuST,2020-0188,2021-10-31,01:39:22,03:02:02,NA,incomplete,false,NA,NA,true,4,8,NA,NA,NA,right,n_s_117.jpg,green,red,NA,NA,NA,NA,NA,NA,NA,NA,NA,NaN,NA,1718.2000000476837,right,1,NA,NA,NA,NA,NA
BSONEuST,3z8ujejod2q8a85trwhk37uqvoc39x,3kakfy4pgyf38twqmssz5kpliq23i2,BSONEuST,2020-0188,2021-10-31,01:39:22,03:02:02,NA,incomplete,false,NA,NA,true,4,9,NA,NA,NA,right,n_s_074.jpg,white,yellow,NA,NA,NA,NA,NA,NA,NA,NA,NA,NaN,NA,1207.1999998092651,right,1,NA,NA,NA,NA,NA
BSONEuST,3z8ujejod2q8a85trwhk37uqvoc39x,3kakfy4pgyf38twqmssz5kpliq23i2,BSONEuST,2020-0188,2021-10-31,01:39:22,03:02:02,NA,incomplete,false,NA,NA,true,4,10,NA,NA,NA,left,n_l_020.jpg,white,yellow,NA,NA,NA,NA,NA,NA,NA,NA,NA,NaN,NA,1407.4000000953674,left,1,NA,NA,NA,NA,NA
BSONEuST,3z8ujejod2q8a85trwhk37uqvoc39x,3kakfy4pgyf38twqmssz5kpliq23i2,BSONEuST,2020-0188,2021-10-31,01:39:22,03:02:02,NA,incomplete,false,NA,NA,true,4,11,NA,NA,NA,left,n_l_044.jpg,red,gray,NA,NA,NA,NA,NA,NA,NA,NA,NA,NaN,NA,7280.799999952316,right,0,NA,NA,NA,NA,NA
BSONEuST,3z8ujejod2q8a85trwhk37uqvoc39x,3kakfy4pgyf38twqmssz5kpliq23i2,BSONEuST,2020-0188,2021-10-31,01:39:22,03:02:02,NA,incomplete,false,NA,NA,true,4,12,NA,NA,NA,left,m_s_002.jpg,red,green,NA,NA,NA,NA,NA,NA,NA,NA,NA,NaN,NA,1278.5999999046326,left,1,NA,NA,NA,NA,NA
BSONEuST,3z8ujejod2q8a85trwhk37uqvoc39x,3kakfy4pgyf38twqmssz5kpliq23i2,BSONEuST,2020-0188,2021-10-31,01:39:22,03:02:02,NA,incomplete,false,NA,NA,true,4,13,NA,NA,NA,left,m_s_066.jpg,gray,red,NA,NA,NA,NA,NA,NA,NA,NA,NA,NaN,NA,1356.2999999523163,left,1,NA,NA,NA,NA,NA
BSONEuST,3z8ujejod2q8a85trwhk37uqvoc39x,3kakfy4pgyf38twqmssz5kpliq23i2,BSONEuST,2020-0188,2021-10-31,01:39:22,03:02:02,NA,incomplete,false,NA,NA,true,4,14,NA,NA,NA,right,m_l_040.jpg,gray,red,NA,NA,NA,NA,NA,NA,NA,NA,NA,NaN,NA,1468.5999999046326,left,0,NA,NA,NA,NA,NA
BSONEuST,3z8ujejod2q8a85trwhk37uqvoc39x,3kakfy4pgyf38twqmssz5kpliq23i2,BSONEuST,2020-0188,2021-10-31,01:39:22,03:02:02,NA,incomplete,false,NA,NA,true,4,15,NA,NA,NA,right,m_l_071.jpg,green,purple,NA,NA,NA,NA,NA,NA,NA,NA,NA,NaN,NA,1170.8000001907349,right,1,NA,NA,NA,NA,NA
BSONEuST,3z8ujejod2q8a85trwhk37uqvoc39x,3kakfy4pgyf38twqmssz5kpliq23i2,BSONEuST,2020-0188,2021-10-31,01:39:22,03:02:02,NA,incomplete,false,NA,NA,true,4,16,NA,NA,NA,left,m_l_016.jpg,green,red,NA,NA,NA,NA,NA,NA,NA,NA,NA,NaN,NA,1603,left,1,NA,NA,NA,NA,NA
BSONEuST,3z8ujejod2q8a85trwhk37uqvoc39x,3kakfy4pgyf38twqmssz5kpliq23i2,BSONEuST,2020-0188,2021-10-31,01:39:22,03:02:02,NA,incomplete,false,NA,NA,true,4,17,NA,NA,NA,left,n_l_085.jpg,gray,yellow,NA,NA,NA,NA,NA,NA,NA,NA,NA,NaN,NA,1676.8999998569489,left,1,NA,NA,NA,NA,NA
BSONEuST,3z8ujejod2q8a85trwhk37uqvoc39x,3kakfy4pgyf38twqmssz5kpliq23i2,BSONEuST,2020-0188,2021-10-31,01:39:22,03:02:02,NA,incomplete,false,NA,NA,true,4,18,NA,NA,NA,right,m_s_008.jpg,white,yellow,NA,NA,NA,NA,NA,NA,NA,NA,NA,NaN,NA,1483.7999999523163,right,1,NA,NA,NA,NA,NA
BSONEuST,3z8ujejod2q8a85trwhk37uqvoc39x,3kakfy4pgyf38twqmssz5kpliq23i2,BSONEuST,2020-0188,2021-10-31,01:39:22,03:02:02,NA,incomplete,false,NA,NA,true,4,19,NA,NA,NA,right,m_l_069.jpg,yellow,white,NA,NA,NA,NA,NA,NA,NA,NA,NA,NaN,NA,1484,right,1,NA,NA,NA,NA,NA
BSONEuST,3z8ujejod2q8a85trwhk37uqvoc39x,3kakfy4pgyf38twqmssz5kpliq23i2,BSONEuST,2020-0188,2021-10-31,01:39:22,03:02:02,NA,incomplete,false,NA,NA,true,4,20,NA,NA,NA,right,m_s_065.jpg,gray,yellow,NA,NA,NA,NA,NA,NA,NA,NA,NA,NaN,NA,1405.5,right,1,NA,NA,NA,NA,NA
BSONEuST,3z8ujejod2q8a85trwhk37uqvoc39x,3kakfy4pgyf38twqmssz5kpliq23i2,BSONEuST,2020-0188,2021-10-31,01:39:22,03:02:02,NA,incomplete,false,NA,NA,true,4,21,NA,NA,NA,right,n_l_010.jpg,purple,green,NA,NA,NA,NA,NA,NA,NA,NA,NA,NaN,NA,1208.2999999523163,right,1,NA,NA,NA,NA,NA
BSONEuST,3z8ujejod2q8a85trwhk37uqvoc39x,3kakfy4pgyf38twqmssz5kpliq23i2,BSONEuST,2020-0188,2021-10-31,01:39:22,03:02:02,NA,incomplete,false,NA,true,NA,4,0,NA,NA,NA,right,NA,NA,NA,present,NA,NA,m_s_065.jpg,yellow,m_s_008.jpg,yellow,within,NA,NaN,NA,NA,NA,NA,right,7420.399999856949,1,0,1483.0999999046326
BSONEuST,3z8ujejod2q8a85trwhk37uqvoc39x,3kakfy4pgyf38twqmssz5kpliq23i2,BSONEuST,2020-0188,2021-10-31,01:39:22,03:02:02,NA,incomplete,false,NA,true,NA,4,1,NA,NA,NA,right,NA,NA,NA,present,NA,NA,n_s_036.jpg,yellow,n_l_108.jpg,gray,between,NA,NaN,NA,NA,NA,NA,right,4198.5,1,1,783.4000000953674
BSONEuST,3z8ujejod2q8a85trwhk37uqvoc39x,3kakfy4pgyf38twqmssz5kpliq23i2,BSONEuST,2020-0188,2021-10-31,01:39:22,03:02:02,NA,incomplete,false,NA,true,NA,4,2,NA,NA,NA,left,NA,NA,NA,present,NA,NA,m_l_071.jpg,purple,n_s_012.jpg,purple,within,NA,NaN,NA,NA,NA,NA,left,2305.2999999523163,1,0,1059.4000000953674
BSONEuST,3z8ujejod2q8a85trwhk37uqvoc39x,3kakfy4pgyf38twqmssz5kpliq23i2,BSONEuST,2020-0188,2021-10-31,01:39:22,03:02:02,NA,incomplete,false,NA,true,NA,4,3,NA,NA,NA,right,NA,NA,NA,present,NA,NA,m_s_066.jpg,gray,m_s_085.jpg,gray,within,NA,NaN,NA,NA,NA,NA,right,2761.7000000476837,1,0,1236.7000000476837
BSONEuST,3z8ujejod2q8a85trwhk37uqvoc39x,3kakfy4pgyf38twqmssz5kpliq23i2,BSONEuST,2020-0188,2021-10-31,01:39:22,03:02:02,NA,incomplete,false,NA,true,NA,4,4,NA,NA,NA,left,NA,NA,NA,present,NA,NA,n_l_020.jpg,white,m_l_069.jpg,white,within,NA,NaN,NA,NA,NA,NA,left,1842.8999998569489,1,0,1187.7999999523163
BSONEuST,3z8ujejod2q8a85trwhk37uqvoc39x,3kakfy4pgyf38twqmssz5kpliq23i2,BSONEuST,2020-0188,2021-10-31,01:39:22,03:02:02,NA,incomplete,false,NA,true,NA,4,5,NA,NA,NA,right,NA,NA,NA,present,NA,NA,n_s_117.jpg,red,m_s_002.jpg,red,within,NA,NaN,NA,NA,NA,NA,right,2254.399999856949,1,0,1639.5999999046326
BSONEuST,3z8ujejod2q8a85trwhk37uqvoc39x,3kakfy4pgyf38twqmssz5kpliq23i2,BSONEuST,2020-0188,2021-10-31,01:39:22,03:02:02,NA,incomplete,false,NA,true,NA,4,6,NA,NA,NA,right,NA,NA,NA,present,NA,NA,m_l_016.jpg,green,n_l_112.jpg,purple,between,NA,NaN,NA,NA,NA,NA,right,3805.7999999523163,1,1,823.5999999046326
BSONEuST,3z8ujejod2q8a85trwhk37uqvoc39x,3kakfy4pgyf38twqmssz5kpliq23i2,BSONEuST,2020-0188,2021-10-31,01:39:22,03:02:02,NA,incomplete,false,NA,true,NA,4,7,NA,NA,NA,right,NA,NA,NA,present,NA,NA,n_l_010.jpg,green,m_s_069.jpg,green,within,NA,NaN,NA,NA,NA,NA,right,4589,1,0,1476.5999999046326
BSONEuST,3z8ujejod2q8a85trwhk37uqvoc39x,3kakfy4pgyf38twqmssz5kpliq23i2,BSONEuST,2020-0188,2021-10-31,01:39:22,03:02:02,NA,incomplete,false,NA,true,NA,4,8,NA,NA,NA,left,NA,NA,NA,present,NA,NA,n_s_040.jpg,green,m_l_040.jpg,red,between,NA,NaN,NA,NA,NA,NA,left,2573.899999856949,1,1,732.5
BSONEuST,3z8ujejod2q8a85trwhk37uqvoc39x,3kakfy4pgyf38twqmssz5kpliq23i2,BSONEuST,2020-0188,2021-10-31,01:39:22,03:02:02,NA,incomplete,false,NA,true,NA,4,9,NA,NA,NA,right,NA,NA,NA,present,NA,NA,n_l_085.jpg,gray,n_l_044.jpg,red,between,NA,NaN,NA,NA,NA,NA,right,4625.200000047684,1,1,1186.3999998569489
BSONEuST,3z8ujejod2q8a85trwhk37uqvoc39x,3kakfy4pgyf38twqmssz5kpliq23i2,BSONEuST,2020-0188,2021-10-31,01:39:22,03:02:02,NA,incomplete,false,NA,true,NA,4,10,NA,NA,NA,right,NA,NA,NA,present,NA,NA,n_s_103.jpg,white,n_s_074.jpg,yellow,between,NA,NaN,NA,NA,NA,NA,right,3784.100000143051,1,1,1030.8999998569489
BSONEuST,3z8ujejod2q8a85trwhk37uqvoc39x,3kakfy4pgyf38twqmssz5kpliq23i2,BSONEuST,2020-0188,2021-10-31,01:39:22,03:02:02,NA,incomplete,false,true,NA,NA,5,0,NA,black,m_l_090.jpg,NA,NA,NA,NA,NA,unpleasant,pleasant,NA,NA,NA,NA,NA,right,990,true,NA,NA,NA,NA,NA,NA,NA,NA
BSONEuST,3z8ujejod2q8a85trwhk37uqvoc39x,3kakfy4pgyf38twqmssz5kpliq23i2,BSONEuST,2020-0188,2021-10-31,01:39:22,03:02:02,NA,incomplete,false,true,NA,NA,5,1,NA,black,n_l_082.jpg,NA,NA,NA,NA,NA,unpleasant,pleasant,NA,NA,NA,NA,NA,right,1496.09999990463,true,NA,NA,NA,NA,NA,NA,NA,NA
BSONEuST,3z8ujejod2q8a85trwhk37uqvoc39x,3kakfy4pgyf38twqmssz5kpliq23i2,BSONEuST,2020-0188,2021-10-31,01:39:22,03:02:02,NA,incomplete,false,true,NA,NA,5,2,NA,black,n_s_083.jpg,NA,NA,NA,NA,NA,pleasant,unpleasant,NA,NA,NA,NA,NA,right,866.100000143051,true,NA,NA,NA,NA,NA,NA,NA,NA
BSONEuST,3z8ujejod2q8a85trwhk37uqvoc39x,3kakfy4pgyf38twqmssz5kpliq23i2,BSONEuST,2020-0188,2021-10-31,01:39:22,03:02:02,NA,incomplete,false,true,NA,NA,5,3,NA,black,m_s_012.jpg,NA,NA,NA,NA,NA,pleasant,unpleasant,NA,NA,NA,NA,NA,left,993.299999952316,true,NA,NA,NA,NA,NA,NA,NA,NA
BSONEuST,3z8ujejod2q8a85trwhk37uqvoc39x,3kakfy4pgyf38twqmssz5kpliq23i2,BSONEuST,2020-0188,2021-10-31,01:39:22,03:02:02,NA,incomplete,false,true,NA,NA,5,4,NA,black,m_s_056.jpg,NA,NA,NA,NA,NA,pleasant,unpleasant,NA,NA,NA,NA,NA,left,827.799999952316,true,NA,NA,NA,NA,NA,NA,NA,NA
BSONEuST,3z8ujejod2q8a85trwhk37uqvoc39x,3kakfy4pgyf38twqmssz5kpliq23i2,BSONEuST,2020-0188,2021-10-31,01:39:22,03:02:02,NA,incomplete,false,true,NA,NA,5,5,NA,black,n_s_100.jpg,NA,NA,NA,NA,NA,unpleasant,pleasant,NA,NA,NA,NA,NA,left,1556.90000009537,true,NA,NA,NA,NA,NA,NA,NA,NA
BSONEuST,3z8ujejod2q8a85trwhk37uqvoc39x,3kakfy4pgyf38twqmssz5kpliq23i2,BSONEuST,2020-0188,2021-10-31,01:39:22,03:02:02,NA,incomplete,false,true,NA,NA,5,6,NA,purple,n_l_081.jpg,NA,NA,NA,NA,NA,pleasant,unpleasant,NA,NA,NA,NA,NA,right,1060.29999995232,true,NA,NA,NA,NA,NA,NA,NA,NA
BSONEuST,3z8ujejod2q8a85trwhk37uqvoc39x,3kakfy4pgyf38twqmssz5kpliq23i2,BSONEuST,2020-0188,2021-10-31,01:39:22,03:02:02,NA,incomplete,false,true,NA,NA,5,7,NA,purple,m_l_053.jpg,NA,NA,NA,NA,NA,unpleasant,pleasant,NA,NA,NA,NA,NA,right,805.700000047684,true,NA,NA,NA,NA,NA,NA,NA,NA
BSONEuST,3z8ujejod2q8a85trwhk37uqvoc39x,3kakfy4pgyf38twqmssz5kpliq23i2,BSONEuST,2020-0188,2021-10-31,01:39:22,03:02:02,NA,incomplete,false,true,NA,NA,5,8,NA,purple,n_s_002.jpg,NA,NA,NA,NA,NA,unpleasant,pleasant,NA,NA,NA,NA,NA,right,1315.59999990463,true,NA,NA,NA,NA,NA,NA,NA,NA
BSONEuST,3z8ujejod2q8a85trwhk37uqvoc39x,3kakfy4pgyf38twqmssz5kpliq23i2,BSONEuST,2020-0188,2021-10-31,01:39:22,03:02:02,NA,incomplete,false,true,NA,NA,5,9,NA,purple,n_s_062.jpg,NA,NA,NA,NA,NA,unpleasant,pleasant,NA,NA,NA,NA,NA,left,919.599999904633,true,NA,NA,NA,NA,NA,NA,NA,NA
BSONEuST,3z8ujejod2q8a85trwhk37uqvoc39x,3kakfy4pgyf38twqmssz5kpliq23i2,BSONEuST,2020-0188,2021-10-31,01:39:22,03:02:02,NA,incomplete,false,true,NA,NA,5,10,NA,purple,n_l_105.jpg,NA,NA,NA,NA,NA,pleasant,unpleasant,NA,NA,NA,NA,NA,right,1010.20000004768,true,NA,NA,NA,NA,NA,NA,NA,NA
BSONEuST,3z8ujejod2q8a85trwhk37uqvoc39x,3kakfy4pgyf38twqmssz5kpliq23i2,BSONEuST,2020-0188,2021-10-31,01:39:22,03:02:02,NA,incomplete,false,true,NA,NA,5,11,NA,purple,n_s_070.jpg,NA,NA,NA,NA,NA,unpleasant,pleasant,NA,NA,NA,NA,NA,left,1067.40000009537,true,NA,NA,NA,NA,NA,NA,NA,NA
BSONEuST,3z8ujejod2q8a85trwhk37uqvoc39x,3kakfy4pgyf38twqmssz5kpliq23i2,BSONEuST,2020-0188,2021-10-31,01:39:22,03:02:02,NA,incomplete,false,true,NA,NA,5,12,NA,green,m_l_060.jpg,NA,NA,NA,NA,NA,unpleasant,pleasant,NA,NA,NA,NA,NA,right,943.299999952316,true,NA,NA,NA,NA,NA,NA,NA,NA
BSONEuST,3z8ujejod2q8a85trwhk37uqvoc39x,3kakfy4pgyf38twqmssz5kpliq23i2,BSONEuST,2020-0188,2021-10-31,01:39:22,03:02:02,NA,incomplete,false,true,NA,NA,5,13,NA,green,m_l_022.jpg,NA,NA,NA,NA,NA,pleasant,unpleasant,NA,NA,NA,NA,NA,left,831.099999904633,true,NA,NA,NA,NA,NA,NA,NA,NA
BSONEuST,3z8ujejod2q8a85trwhk37uqvoc39x,3kakfy4pgyf38twqmssz5kpliq23i2,BSONEuST,2020-0188,2021-10-31,01:39:22,03:02:02,NA,incomplete,false,true,NA,NA,5,14,NA,green,n_s_075.jpg,NA,NA,NA,NA,NA,unpleasant,pleasant,NA,NA,NA,NA,NA,left,828.800000190735,true,NA,NA,NA,NA,NA,NA,NA,NA
BSONEuST,3z8ujejod2q8a85trwhk37uqvoc39x,3kakfy4pgyf38twqmssz5kpliq23i2,BSONEuST,2020-0188,2021-10-31,01:39:22,03:02:02,NA,incomplete,false,true,NA,NA,5,15,NA,green,m_s_059.jpg,NA,NA,NA,NA,NA,unpleasant,pleasant,NA,NA,NA,NA,NA,right,968.299999952316,true,NA,NA,NA,NA,NA,NA,NA,NA
BSONEuST,3z8ujejod2q8a85trwhk37uqvoc39x,3kakfy4pgyf38twqmssz5kpliq23i2,BSONEuST,2020-0188,2021-10-31,01:39:22,03:02:02,NA,incomplete,false,true,NA,NA,5,16,NA,green,m_l_002.jpg,NA,NA,NA,NA,NA,pleasant,unpleasant,NA,NA,NA,NA,NA,left,846.5,true,NA,NA,NA,NA,NA,NA,NA,NA
