workerId,hitId,assignmentId,subject,studyid,exp_date,exp_start,exp_end,time_start,time_end,practice,encoding,memory,association,block,trial,event_order,event,stim,answer,object,left_context,right_context,context_type,label_left,label_right,left_image,left_event,right_image,right_event,condition,response,response_time,response_acc,association_response_time,association_response,association_acc,order_response,order_response_time,order_acc,distance_response,distance_response_time
LxKiirlt,3bawbgqgzoco8yjjw9p686v3rigv79,3kgtpgbs61yjw2v7c9385d8467r2u0,LxKiirlt,2020-0188,2021-10-31,04:47:29,06:11:15,NA,incomplete,true,true,NA,NA,0,0,NA,purple,m_s_078.jpg,NA,NA,NA,NA,NA,pleasant,unpleasant,NA,NA,NA,NA,NA,left,1593.19500019774,true,NA,NA,NA,NA,NA,NA,NA,NA
LxKiirlt,3bawbgqgzoco8yjjw9p686v3rigv79,3kgtpgbs61yjw2v7c9385d8467r2u0,LxKiirlt,2020-0188,2021-10-31,04:47:29,06:11:15,NA,incomplete,true,true,NA,NA,0,1,NA,purple,m_l_008.jpg,NA,NA,NA,NA,NA,pleasant,unpleasant,NA,NA,NA,NA,NA,left,1829.58499994129,true,NA,NA,NA,NA,NA,NA,NA,NA
LxKiirlt,3bawbgqgzoco8yjjw9p686v3rigv79,3kgtpgbs61yjw2v7c9385d8467r2u0,LxKiirlt,2020-0188,2021-10-31,04:47:29,06:11:15,NA,incomplete,true,true,NA,NA,0,2,NA,purple,n_s_002.jpg,NA,NA,NA,NA,NA,unpleasant,pleasant,NA,NA,NA,NA,NA,left,1094.31000007316,true,NA,NA,NA,NA,NA,NA,NA,NA
LxKiirlt,3bawbgqgzoco8yjjw9p686v3rigv79,3kgtpgbs61yjw2v7c9385d8467r2u0,LxKiirlt,2020-0188,2021-10-31,04:47:29,06:11:15,NA,incomplete,true,true,NA,NA,0,3,NA,purple,n_l_024.jpg,NA,NA,NA,NA,NA,pleasant,unpleasant,NA,NA,NA,NA,NA,right,2319.42499987781,true,NA,NA,NA,NA,NA,NA,NA,NA
LxKiirlt,3bawbgqgzoco8yjjw9p686v3rigv79,3kgtpgbs61yjw2v7c9385d8467r2u0,LxKiirlt,2020-0188,2021-10-31,04:47:29,06:11:15,NA,incomplete,true,true,NA,NA,0,4,NA,purple,m_l_107.jpg,NA,NA,NA,NA,NA,pleasant,unpleasant,NA,NA,NA,NA,NA,right,1028.67500018328,true,NA,NA,NA,NA,NA,NA,NA,NA
LxKiirlt,3bawbgqgzoco8yjjw9p686v3rigv79,3kgtpgbs61yjw2v7c9385d8467r2u0,LxKiirlt,2020-0188,2021-10-31,04:47:29,06:11:15,NA,incomplete,true,true,NA,NA,0,5,NA,purple,m_s_088.jpg,NA,NA,NA,NA,NA,pleasant,unpleasant,NA,NA,NA,NA,NA,right,1474.01000000536,true,NA,NA,NA,NA,NA,NA,NA,NA
LxKiirlt,3bawbgqgzoco8yjjw9p686v3rigv79,3kgtpgbs61yjw2v7c9385d8467r2u0,LxKiirlt,2020-0188,2021-10-31,04:47:29,06:11:15,NA,incomplete,true,true,NA,NA,0,6,NA,green,n_s_004.jpg,NA,NA,NA,NA,NA,unpleasant,pleasant,NA,NA,NA,NA,NA,right,1168.4850002639,true,NA,NA,NA,NA,NA,NA,NA,NA
LxKiirlt,3bawbgqgzoco8yjjw9p686v3rigv79,3kgtpgbs61yjw2v7c9385d8467r2u0,LxKiirlt,2020-0188,2021-10-31,04:47:29,06:11:15,NA,incomplete,true,true,NA,NA,0,7,NA,green,m_s_022.jpg,NA,NA,NA,NA,NA,pleasant,unpleasant,NA,NA,NA,NA,NA,right,1989.32000016794,true,NA,NA,NA,NA,NA,NA,NA,NA
LxKiirlt,3bawbgqgzoco8yjjw9p686v3rigv79,3kgtpgbs61yjw2v7c9385d8467r2u0,LxKiirlt,2020-0188,2021-10-31,04:47:29,06:11:15,NA,incomplete,true,true,NA,NA,0,8,NA,green,n_s_112.jpg,NA,NA,NA,NA,NA,pleasant,unpleasant,NA,NA,NA,NA,NA,left,1115.96499988809,true,NA,NA,NA,NA,NA,NA,NA,NA
LxKiirlt,3bawbgqgzoco8yjjw9p686v3rigv79,3kgtpgbs61yjw2v7c9385d8467r2u0,LxKiirlt,2020-0188,2021-10-31,04:47:29,06:11:15,NA,incomplete,true,true,NA,NA,0,9,NA,green,n_s_045.jpg,NA,NA,NA,NA,NA,pleasant,unpleasant,NA,NA,NA,NA,NA,left,1312.99499981105,true,NA,NA,NA,NA,NA,NA,NA,NA
LxKiirlt,3bawbgqgzoco8yjjw9p686v3rigv79,3kgtpgbs61yjw2v7c9385d8467r2u0,LxKiirlt,2020-0188,2021-10-31,04:47:29,06:11:15,NA,incomplete,true,true,NA,NA,0,10,NA,green,m_l_018.jpg,NA,NA,NA,NA,NA,unpleasant,pleasant,NA,NA,NA,NA,NA,right,1972.73999964818,true,NA,NA,NA,NA,NA,NA,NA,NA
LxKiirlt,3bawbgqgzoco8yjjw9p686v3rigv79,3kgtpgbs61yjw2v7c9385d8467r2u0,LxKiirlt,2020-0188,2021-10-31,04:47:29,06:11:15,NA,incomplete,true,true,NA,NA,0,11,NA,green,n_l_046.jpg,NA,NA,NA,NA,NA,unpleasant,pleasant,NA,NA,NA,NA,NA,right,1438.80000011995,true,NA,NA,NA,NA,NA,NA,NA,NA
LxKiirlt,3bawbgqgzoco8yjjw9p686v3rigv79,3kgtpgbs61yjw2v7c9385d8467r2u0,LxKiirlt,2020-0188,2021-10-31,04:47:29,06:11:15,NA,incomplete,true,true,NA,NA,0,12,NA,blue,m_s_046.jpg,NA,NA,NA,NA,NA,unpleasant,pleasant,NA,NA,NA,NA,NA,right,2211.68499998748,true,NA,NA,NA,NA,NA,NA,NA,NA
LxKiirlt,3bawbgqgzoco8yjjw9p686v3rigv79,3kgtpgbs61yjw2v7c9385d8467r2u0,LxKiirlt,2020-0188,2021-10-31,04:47:29,06:11:15,NA,incomplete,true,true,NA,NA,0,13,NA,blue,m_s_042.jpg,NA,NA,NA,NA,NA,unpleasant,pleasant,NA,NA,NA,NA,NA,right,1882.43000023067,true,NA,NA,NA,NA,NA,NA,NA,NA
LxKiirlt,3bawbgqgzoco8yjjw9p686v3rigv79,3kgtpgbs61yjw2v7c9385d8467r2u0,LxKiirlt,2020-0188,2021-10-31,04:47:29,06:11:15,NA,incomplete,true,true,NA,NA,0,14,NA,blue,m_l_078.jpg,NA,NA,NA,NA,NA,pleasant,unpleasant,NA,NA,NA,NA,NA,left,1489.92499988526,true,NA,NA,NA,NA,NA,NA,NA,NA
LxKiirlt,3bawbgqgzoco8yjjw9p686v3rigv79,3kgtpgbs61yjw2v7c9385d8467r2u0,LxKiirlt,2020-0188,2021-10-31,04:47:29,06:11:15,NA,incomplete,true,true,NA,NA,0,15,NA,blue,n_s_057.jpg,NA,NA,NA,NA,NA,unpleasant,pleasant,NA,NA,NA,NA,NA,left,2526.56499994919,true,NA,NA,NA,NA,NA,NA,NA,NA
LxKiirlt,3bawbgqgzoco8yjjw9p686v3rigv79,3kgtpgbs61yjw2v7c9385d8467r2u0,LxKiirlt,2020-0188,2021-10-31,04:47:29,06:11:15,NA,incomplete,true,true,NA,NA,0,16,NA,blue,m_s_053.jpg,NA,NA,NA,NA,NA,unpleasant,pleasant,NA,NA,NA,NA,NA,right,1496.09000002965,true,NA,NA,NA,NA,NA,NA,NA,NA
LxKiirlt,3bawbgqgzoco8yjjw9p686v3rigv79,3kgtpgbs61yjw2v7c9385d8467r2u0,LxKiirlt,2020-0188,2021-10-31,04:47:29,06:11:15,NA,incomplete,true,true,NA,NA,0,17,NA,blue,m_s_059.jpg,NA,NA,NA,NA,NA,unpleasant,pleasant,NA,NA,NA,NA,NA,right,1669.08999998122,true,NA,NA,NA,NA,NA,NA,NA,NA
LxKiirlt,3bawbgqgzoco8yjjw9p686v3rigv79,3kgtpgbs61yjw2v7c9385d8467r2u0,LxKiirlt,2020-0188,2021-10-31,04:47:29,06:11:15,NA,incomplete,true,true,NA,NA,0,18,NA,red,n_l_063.jpg,NA,NA,NA,NA,NA,pleasant,unpleasant,NA,NA,NA,NA,NA,left,2319.90000000224,true,NA,NA,NA,NA,NA,NA,NA,NA
LxKiirlt,3bawbgqgzoco8yjjw9p686v3rigv79,3kgtpgbs61yjw2v7c9385d8467r2u0,LxKiirlt,2020-0188,2021-10-31,04:47:29,06:11:15,NA,incomplete,true,true,NA,NA,0,19,NA,red,m_l_020.jpg,NA,NA,NA,NA,NA,unpleasant,pleasant,NA,NA,NA,NA,NA,left,2069.40499972552,true,NA,NA,NA,NA,NA,NA,NA,NA
LxKiirlt,3bawbgqgzoco8yjjw9p686v3rigv79,3kgtpgbs61yjw2v7c9385d8467r2u0,LxKiirlt,2020-0188,2021-10-31,04:47:29,06:11:15,NA,incomplete,true,true,NA,NA,0,20,NA,red,n_l_106.jpg,NA,NA,NA,NA,NA,pleasant,unpleasant,NA,NA,NA,NA,NA,right,2570.60500001535,true,NA,NA,NA,NA,NA,NA,NA,NA
LxKiirlt,3bawbgqgzoco8yjjw9p686v3rigv79,3kgtpgbs61yjw2v7c9385d8467r2u0,LxKiirlt,2020-0188,2021-10-31,04:47:29,06:11:15,NA,incomplete,true,true,NA,NA,0,21,NA,red,m_l_009.jpg,NA,NA,NA,NA,NA,pleasant,unpleasant,NA,NA,NA,NA,NA,left,1481.9200001657,true,NA,NA,NA,NA,NA,NA,NA,NA
LxKiirlt,3bawbgqgzoco8yjjw9p686v3rigv79,3kgtpgbs61yjw2v7c9385d8467r2u0,LxKiirlt,2020-0188,2021-10-31,04:47:29,06:11:15,NA,incomplete,true,true,NA,NA,0,22,NA,red,n_l_110.jpg,NA,NA,NA,NA,NA,pleasant,unpleasant,NA,NA,NA,NA,NA,left,1332.86500023678,true,NA,NA,NA,NA,NA,NA,NA,NA
LxKiirlt,3bawbgqgzoco8yjjw9p686v3rigv79,3kgtpgbs61yjw2v7c9385d8467r2u0,LxKiirlt,2020-0188,2021-10-31,04:47:29,06:11:15,NA,incomplete,true,true,NA,NA,0,23,NA,red,n_s_108.jpg,NA,NA,NA,NA,NA,pleasant,unpleasant,NA,NA,NA,NA,NA,right,1378.97500023246,true,NA,NA,NA,NA,NA,NA,NA,NA
LxKiirlt,3bawbgqgzoco8yjjw9p686v3rigv79,3kgtpgbs61yjw2v7c9385d8467r2u0,LxKiirlt,2020-0188,2021-10-31,04:47:29,06:11:15,NA,incomplete,true,true,NA,NA,0,24,NA,yellow,m_s_036.jpg,NA,NA,NA,NA,NA,unpleasant,pleasant,NA,NA,NA,NA,NA,right,1762.61000009254,true,NA,NA,NA,NA,NA,NA,NA,NA
LxKiirlt,3bawbgqgzoco8yjjw9p686v3rigv79,3kgtpgbs61yjw2v7c9385d8467r2u0,LxKiirlt,2020-0188,2021-10-31,04:47:29,06:11:15,NA,incomplete,true,true,NA,NA,0,25,NA,yellow,m_l_069.jpg,NA,NA,NA,NA,NA,pleasant,unpleasant,NA,NA,NA,NA,NA,right,2287.08499995992,true,NA,NA,NA,NA,NA,NA,NA,NA
LxKiirlt,3bawbgqgzoco8yjjw9p686v3rigv79,3kgtpgbs61yjw2v7c9385d8467r2u0,LxKiirlt,2020-0188,2021-10-31,04:47:29,06:11:15,NA,incomplete,true,true,NA,NA,0,26,NA,yellow,n_s_051.jpg,NA,NA,NA,NA,NA,unpleasant,pleasant,NA,NA,NA,NA,NA,right,1690.05500013009,true,NA,NA,NA,NA,NA,NA,NA,NA
LxKiirlt,3bawbgqgzoco8yjjw9p686v3rigv79,3kgtpgbs61yjw2v7c9385d8467r2u0,LxKiirlt,2020-0188,2021-10-31,04:47:29,06:11:15,NA,incomplete,true,true,NA,NA,0,27,NA,yellow,n_s_062.jpg,NA,NA,NA,NA,NA,unpleasant,pleasant,NA,NA,NA,NA,NA,right,2001.7400002107,true,NA,NA,NA,NA,NA,NA,NA,NA
LxKiirlt,3bawbgqgzoco8yjjw9p686v3rigv79,3kgtpgbs61yjw2v7c9385d8467r2u0,LxKiirlt,2020-0188,2021-10-31,04:47:29,06:11:15,NA,incomplete,true,true,NA,NA,0,28,NA,yellow,n_s_018.jpg,NA,NA,NA,NA,NA,unpleasant,pleasant,NA,NA,NA,NA,NA,left,1420.0599999167,true,NA,NA,NA,NA,NA,NA,NA,NA
LxKiirlt,3bawbgqgzoco8yjjw9p686v3rigv79,3kgtpgbs61yjw2v7c9385d8467r2u0,LxKiirlt,2020-0188,2021-10-31,04:47:29,06:11:15,NA,incomplete,true,true,NA,NA,0,29,NA,yellow,m_s_090.jpg,NA,NA,NA,NA,NA,unpleasant,pleasant,NA,NA,NA,NA,NA,right,1428.74999996275,true,NA,NA,NA,NA,NA,NA,NA,NA
LxKiirlt,3bawbgqgzoco8yjjw9p686v3rigv79,3kgtpgbs61yjw2v7c9385d8467r2u0,LxKiirlt,2020-0188,2021-10-31,04:47:29,06:11:15,NA,incomplete,true,true,NA,NA,0,30,NA,gray,n_l_064.jpg,NA,NA,NA,NA,NA,unpleasant,pleasant,NA,NA,NA,NA,NA,right,1588.32500036806,true,NA,NA,NA,NA,NA,NA,NA,NA
LxKiirlt,3bawbgqgzoco8yjjw9p686v3rigv79,3kgtpgbs61yjw2v7c9385d8467r2u0,LxKiirlt,2020-0188,2021-10-31,04:47:29,06:11:15,NA,incomplete,true,true,NA,NA,0,31,NA,gray,n_s_072.jpg,NA,NA,NA,NA,NA,unpleasant,pleasant,NA,NA,NA,NA,NA,right,1664.53000018373,true,NA,NA,NA,NA,NA,NA,NA,NA
LxKiirlt,3bawbgqgzoco8yjjw9p686v3rigv79,3kgtpgbs61yjw2v7c9385d8467r2u0,LxKiirlt,2020-0188,2021-10-31,04:47:29,06:11:15,NA,incomplete,true,true,NA,NA,0,32,NA,gray,m_s_024.jpg,NA,NA,NA,NA,NA,unpleasant,pleasant,NA,NA,NA,NA,NA,right,1675.45500025153,true,NA,NA,NA,NA,NA,NA,NA,NA
LxKiirlt,3bawbgqgzoco8yjjw9p686v3rigv79,3kgtpgbs61yjw2v7c9385d8467r2u0,LxKiirlt,2020-0188,2021-10-31,04:47:29,06:11:15,NA,incomplete,true,true,NA,NA,0,33,NA,gray,n_s_111.jpg,NA,NA,NA,NA,NA,unpleasant,pleasant,NA,NA,NA,NA,NA,right,1517.11499970406,true,NA,NA,NA,NA,NA,NA,NA,NA
LxKiirlt,3bawbgqgzoco8yjjw9p686v3rigv79,3kgtpgbs61yjw2v7c9385d8467r2u0,LxKiirlt,2020-0188,2021-10-31,04:47:29,06:11:15,NA,incomplete,true,true,NA,NA,0,34,NA,gray,n_l_102.jpg,NA,NA,NA,NA,NA,pleasant,unpleasant,NA,NA,NA,NA,NA,left,1659.25000002608,true,NA,NA,NA,NA,NA,NA,NA,NA
LxKiirlt,3bawbgqgzoco8yjjw9p686v3rigv79,3kgtpgbs61yjw2v7c9385d8467r2u0,LxKiirlt,2020-0188,2021-10-31,04:47:29,06:11:15,NA,incomplete,true,true,NA,NA,0,35,NA,gray,n_l_011.jpg,NA,NA,NA,NA,NA,pleasant,unpleasant,NA,NA,NA,NA,NA,right,2094.31000007316,true,NA,NA,NA,NA,NA,NA,NA,NA
LxKiirlt,3bawbgqgzoco8yjjw9p686v3rigv79,3kgtpgbs61yjw2v7c9385d8467r2u0,LxKiirlt,2020-0188,2021-10-31,04:47:29,06:11:15,NA,incomplete,true,NA,NA,true,0,0,NA,NA,NA,right,n_l_011.jpg,yellow,gray,NA,NA,NA,NA,NA,NA,NA,NA,NA,NaN,NA,8142.649999819696,right,1,NA,NA,NA,NA,NA
LxKiirlt,3bawbgqgzoco8yjjw9p686v3rigv79,3kgtpgbs61yjw2v7c9385d8467r2u0,LxKiirlt,2020-0188,2021-10-31,04:47:29,06:11:15,NA,incomplete,true,NA,NA,true,0,1,NA,NA,NA,left,m_s_024.jpg,gray,yellow,NA,NA,NA,NA,NA,NA,NA,NA,NA,NaN,NA,3053.479999769479,left,1,NA,NA,NA,NA,NA
LxKiirlt,3bawbgqgzoco8yjjw9p686v3rigv79,3kgtpgbs61yjw2v7c9385d8467r2u0,LxKiirlt,2020-0188,2021-10-31,04:47:29,06:11:15,NA,incomplete,true,NA,NA,true,0,2,NA,NA,NA,left,n_s_072.jpg,gray,yellow,NA,NA,NA,NA,NA,NA,NA,NA,NA,NaN,NA,2398.31000007689,left,1,NA,NA,NA,NA,NA
LxKiirlt,3bawbgqgzoco8yjjw9p686v3rigv79,3kgtpgbs61yjw2v7c9385d8467r2u0,LxKiirlt,2020-0188,2021-10-31,04:47:29,06:11:15,NA,incomplete,true,NA,NA,true,0,3,NA,NA,NA,left,m_l_020.jpg,red,yellow,NA,NA,NA,NA,NA,NA,NA,NA,NA,NaN,NA,4770.784999709576,left,1,NA,NA,NA,NA,NA
LxKiirlt,3bawbgqgzoco8yjjw9p686v3rigv79,3kgtpgbs61yjw2v7c9385d8467r2u0,LxKiirlt,2020-0188,2021-10-31,04:47:29,06:11:15,NA,incomplete,true,NA,NA,true,0,4,NA,NA,NA,right,n_s_051.jpg,red,yellow,NA,NA,NA,NA,NA,NA,NA,NA,NA,NaN,NA,5130.590000189841,right,1,NA,NA,NA,NA,NA
LxKiirlt,3bawbgqgzoco8yjjw9p686v3rigv79,3kgtpgbs61yjw2v7c9385d8467r2u0,LxKiirlt,2020-0188,2021-10-31,04:47:29,06:11:15,NA,incomplete,true,NA,NA,true,0,5,NA,NA,NA,left,m_s_088.jpg,purple,green,NA,NA,NA,NA,NA,NA,NA,NA,NA,NaN,NA,2374.3400000967085,right,0,NA,NA,NA,NA,NA
LxKiirlt,3bawbgqgzoco8yjjw9p686v3rigv79,3kgtpgbs61yjw2v7c9385d8467r2u0,LxKiirlt,2020-0188,2021-10-31,04:47:29,06:11:15,NA,incomplete,true,NA,NA,true,0,6,NA,NA,NA,left,n_l_106.jpg,red,yellow,NA,NA,NA,NA,NA,NA,NA,NA,NA,NaN,NA,3163.0049999803305,left,1,NA,NA,NA,NA,NA
LxKiirlt,3bawbgqgzoco8yjjw9p686v3rigv79,3kgtpgbs61yjw2v7c9385d8467r2u0,LxKiirlt,2020-0188,2021-10-31,04:47:29,06:11:15,NA,incomplete,true,NA,NA,true,0,7,NA,NA,NA,left,m_l_008.jpg,purple,green,NA,NA,NA,NA,NA,NA,NA,NA,NA,NaN,NA,3178.970000240952,left,1,NA,NA,NA,NA,NA
LxKiirlt,3bawbgqgzoco8yjjw9p686v3rigv79,3kgtpgbs61yjw2v7c9385d8467r2u0,LxKiirlt,2020-0188,2021-10-31,04:47:29,06:11:15,NA,incomplete,true,NA,NA,true,0,8,NA,NA,NA,left,m_l_107.jpg,purple,green,NA,NA,NA,NA,NA,NA,NA,NA,NA,NaN,NA,4734.525000210851,left,1,NA,NA,NA,NA,NA
LxKiirlt,3bawbgqgzoco8yjjw9p686v3rigv79,3kgtpgbs61yjw2v7c9385d8467r2u0,LxKiirlt,2020-0188,2021-10-31,04:47:29,06:11:15,NA,incomplete,true,NA,NA,true,0,9,NA,NA,NA,left,m_s_059.jpg,blue,green,NA,NA,NA,NA,NA,NA,NA,NA,NA,NaN,NA,2956.444999668747,left,1,NA,NA,NA,NA,NA
LxKiirlt,3bawbgqgzoco8yjjw9p686v3rigv79,3kgtpgbs61yjw2v7c9385d8467r2u0,LxKiirlt,2020-0188,2021-10-31,04:47:29,06:11:15,NA,incomplete,true,NA,NA,true,0,10,NA,NA,NA,right,n_l_046.jpg,blue,green,NA,NA,NA,NA,NA,NA,NA,NA,NA,NaN,NA,4031.0349999926984,right,1,NA,NA,NA,NA,NA
LxKiirlt,3bawbgqgzoco8yjjw9p686v3rigv79,3kgtpgbs61yjw2v7c9385d8467r2u0,LxKiirlt,2020-0188,2021-10-31,04:47:29,06:11:15,NA,incomplete,true,NA,NA,true,0,11,NA,NA,NA,right,m_l_069.jpg,gray,yellow,NA,NA,NA,NA,NA,NA,NA,NA,NA,NaN,NA,2857.0450004190207,right,1,NA,NA,NA,NA,NA
LxKiirlt,3bawbgqgzoco8yjjw9p686v3rigv79,3kgtpgbs61yjw2v7c9385d8467r2u0,LxKiirlt,2020-0188,2021-10-31,04:47:29,06:11:15,NA,incomplete,true,NA,NA,true,0,12,NA,NA,NA,right,m_l_078.jpg,green,blue,NA,NA,NA,NA,NA,NA,NA,NA,NA,NaN,NA,2655.179999768734,right,1,NA,NA,NA,NA,NA
LxKiirlt,3bawbgqgzoco8yjjw9p686v3rigv79,3kgtpgbs61yjw2v7c9385d8467r2u0,LxKiirlt,2020-0188,2021-10-31,04:47:29,06:11:15,NA,incomplete,true,NA,NA,true,0,13,NA,NA,NA,left,m_s_022.jpg,green,purple,NA,NA,NA,NA,NA,NA,NA,NA,NA,NaN,NA,2933.015000075102,left,1,NA,NA,NA,NA,NA
LxKiirlt,3bawbgqgzoco8yjjw9p686v3rigv79,3kgtpgbs61yjw2v7c9385d8467r2u0,LxKiirlt,2020-0188,2021-10-31,04:47:29,06:11:15,NA,incomplete,true,NA,NA,true,0,14,NA,NA,NA,right,m_s_090.jpg,gray,yellow,NA,NA,NA,NA,NA,NA,NA,NA,NA,NaN,NA,4646.219999995083,left,0,NA,NA,NA,NA,NA
LxKiirlt,3bawbgqgzoco8yjjw9p686v3rigv79,3kgtpgbs61yjw2v7c9385d8467r2u0,LxKiirlt,2020-0188,2021-10-31,04:47:29,06:11:15,NA,incomplete,true,NA,NA,true,0,15,NA,NA,NA,right,n_s_108.jpg,yellow,red,NA,NA,NA,NA,NA,NA,NA,NA,NA,NaN,NA,2435.940000228584,right,1,NA,NA,NA,NA,NA
LxKiirlt,3bawbgqgzoco8yjjw9p686v3rigv79,3kgtpgbs61yjw2v7c9385d8467r2u0,LxKiirlt,2020-0188,2021-10-31,04:47:29,06:11:15,NA,incomplete,true,NA,NA,true,0,16,NA,NA,NA,left,n_s_018.jpg,yellow,red,NA,NA,NA,NA,NA,NA,NA,NA,NA,NaN,NA,3138.3700002916157,left,1,NA,NA,NA,NA,NA
LxKiirlt,3bawbgqgzoco8yjjw9p686v3rigv79,3kgtpgbs61yjw2v7c9385d8467r2u0,LxKiirlt,2020-0188,2021-10-31,04:47:29,06:11:15,NA,incomplete,true,NA,NA,true,0,17,NA,NA,NA,right,m_s_053.jpg,green,blue,NA,NA,NA,NA,NA,NA,NA,NA,NA,NaN,NA,7613.829999696463,left,0,NA,NA,NA,NA,NA
LxKiirlt,3bawbgqgzoco8yjjw9p686v3rigv79,3kgtpgbs61yjw2v7c9385d8467r2u0,LxKiirlt,2020-0188,2021-10-31,04:47:29,06:11:15,NA,incomplete,true,NA,NA,true,0,18,NA,NA,NA,right,m_l_018.jpg,blue,green,NA,NA,NA,NA,NA,NA,NA,NA,NA,NaN,NA,5541.414999868721,right,1,NA,NA,NA,NA,NA
LxKiirlt,3bawbgqgzoco8yjjw9p686v3rigv79,3kgtpgbs61yjw2v7c9385d8467r2u0,LxKiirlt,2020-0188,2021-10-31,04:47:29,06:11:15,NA,incomplete,true,NA,NA,true,0,19,NA,NA,NA,right,m_s_042.jpg,green,blue,NA,NA,NA,NA,NA,NA,NA,NA,NA,NaN,NA,2312.1050000190735,right,1,NA,NA,NA,NA,NA
LxKiirlt,3bawbgqgzoco8yjjw9p686v3rigv79,3kgtpgbs61yjw2v7c9385d8467r2u0,LxKiirlt,2020-0188,2021-10-31,04:47:29,06:11:15,NA,incomplete,true,NA,NA,true,0,20,NA,NA,NA,left,n_s_112.jpg,green,purple,NA,NA,NA,NA,NA,NA,NA,NA,NA,NaN,NA,3116.900000255555,left,1,NA,NA,NA,NA,NA
LxKiirlt,3bawbgqgzoco8yjjw9p686v3rigv79,3kgtpgbs61yjw2v7c9385d8467r2u0,LxKiirlt,2020-0188,2021-10-31,04:47:29,06:11:15,NA,incomplete,true,NA,NA,true,0,21,NA,NA,NA,right,n_l_110.jpg,blue,red,NA,NA,NA,NA,NA,NA,NA,NA,NA,NaN,NA,4100.120000075549,right,1,NA,NA,NA,NA,NA
LxKiirlt,3bawbgqgzoco8yjjw9p686v3rigv79,3kgtpgbs61yjw2v7c9385d8467r2u0,LxKiirlt,2020-0188,2021-10-31,04:47:29,06:11:15,NA,incomplete,true,NA,true,NA,0,0,NA,NA,NA,right,NA,NA,NA,present,NA,NA,n_l_011.jpg,gray,n_s_072.jpg,gray,within,NA,NaN,NA,NA,NA,NA,right,15282.505000010133,1,1,5534.365000203252
LxKiirlt,3bawbgqgzoco8yjjw9p686v3rigv79,3kgtpgbs61yjw2v7c9385d8467r2u0,LxKiirlt,2020-0188,2021-10-31,04:47:29,06:11:15,NA,incomplete,true,NA,true,NA,0,1,NA,NA,NA,right,NA,NA,NA,present,NA,NA,m_l_078.jpg,blue,m_l_018.jpg,green,between,NA,NaN,NA,NA,NA,NA,left,4615.199999883771,0,2,2144.13999998942
LxKiirlt,3bawbgqgzoco8yjjw9p686v3rigv79,3kgtpgbs61yjw2v7c9385d8467r2u0,LxKiirlt,2020-0188,2021-10-31,04:47:29,06:11:15,NA,incomplete,true,NA,true,NA,0,2,NA,NA,NA,left,NA,NA,NA,present,NA,NA,m_s_053.jpg,blue,n_l_106.jpg,red,between,NA,NaN,NA,NA,NA,NA,left,6566.485000308603,1,2,2521.2449999526143
LxKiirlt,3bawbgqgzoco8yjjw9p686v3rigv79,3kgtpgbs61yjw2v7c9385d8467r2u0,LxKiirlt,2020-0188,2021-10-31,04:47:29,06:11:15,NA,incomplete,true,NA,true,NA,0,3,NA,NA,NA,right,NA,NA,NA,present,NA,NA,n_l_046.jpg,green,m_s_022.jpg,green,within,NA,NaN,NA,NA,NA,NA,left,11241.990000009537,0,1,2535.2300000377
LxKiirlt,3bawbgqgzoco8yjjw9p686v3rigv79,3kgtpgbs61yjw2v7c9385d8467r2u0,LxKiirlt,2020-0188,2021-10-31,04:47:29,06:11:15,NA,incomplete,true,NA,true,NA,0,4,NA,NA,NA,right,NA,NA,NA,present,NA,NA,m_s_024.jpg,gray,n_s_018.jpg,yellow,between,NA,NaN,NA,NA,NA,NA,right,4748.165000230074,1,2,2947.235000319779
LxKiirlt,3bawbgqgzoco8yjjw9p686v3rigv79,3kgtpgbs61yjw2v7c9385d8467r2u0,LxKiirlt,2020-0188,2021-10-31,04:47:29,06:11:15,NA,incomplete,true,NA,true,NA,0,5,NA,NA,NA,left,NA,NA,NA,present,NA,NA,m_l_069.jpg,yellow,m_s_090.jpg,yellow,within,NA,NaN,NA,NA,NA,NA,right,7850.149999838322,0,1,1571.9999996945262
LxKiirlt,3bawbgqgzoco8yjjw9p686v3rigv79,3kgtpgbs61yjw2v7c9385d8467r2u0,LxKiirlt,2020-0188,2021-10-31,04:47:29,06:11:15,NA,incomplete,true,NA,true,NA,0,6,NA,NA,NA,left,NA,NA,NA,present,NA,NA,m_s_042.jpg,blue,m_s_059.jpg,blue,within,NA,NaN,NA,NA,NA,NA,left,6492.7199999801815,1,1,2762.970000039786
LxKiirlt,3bawbgqgzoco8yjjw9p686v3rigv79,3kgtpgbs61yjw2v7c9385d8467r2u0,LxKiirlt,2020-0188,2021-10-31,04:47:29,06:11:15,NA,incomplete,true,NA,true,NA,0,7,NA,NA,NA,left,NA,NA,NA,present,NA,NA,n_l_110.jpg,red,n_s_051.jpg,yellow,between,NA,NaN,NA,NA,NA,NA,left,7352.214999962598,1,2,1637.2600002214313
LxKiirlt,3bawbgqgzoco8yjjw9p686v3rigv79,3kgtpgbs61yjw2v7c9385d8467r2u0,LxKiirlt,2020-0188,2021-10-31,04:47:29,06:11:15,NA,incomplete,true,NA,true,NA,0,8,NA,NA,NA,left,NA,NA,NA,present,NA,NA,m_l_008.jpg,purple,m_s_088.jpg,purple,within,NA,NaN,NA,NA,NA,NA,left,3637.08999985829,1,1,1833.9450000785291
LxKiirlt,3bawbgqgzoco8yjjw9p686v3rigv79,3kgtpgbs61yjw2v7c9385d8467r2u0,LxKiirlt,2020-0188,2021-10-31,04:47:29,06:11:15,NA,incomplete,true,NA,true,NA,0,9,NA,NA,NA,left,NA,NA,NA,present,NA,NA,m_l_020.jpg,red,n_s_108.jpg,red,within,NA,NaN,NA,NA,NA,NA,left,5981.459999922663,1,0,2619.640000164509
LxKiirlt,3bawbgqgzoco8yjjw9p686v3rigv79,3kgtpgbs61yjw2v7c9385d8467r2u0,LxKiirlt,2020-0188,2021-10-31,04:47:29,06:11:15,NA,incomplete,true,NA,true,NA,0,10,NA,NA,NA,left,NA,NA,NA,present,NA,NA,m_l_107.jpg,purple,n_s_112.jpg,green,between,NA,NaN,NA,NA,NA,NA,left,3678.0699999071658,1,2,3621.7649998143315
LxKiirlt,3bawbgqgzoco8yjjw9p686v3rigv79,3kgtpgbs61yjw2v7c9385d8467r2u0,LxKiirlt,2020-0188,2021-10-31,04:47:29,06:11:15,NA,incomplete,false,true,NA,NA,1,0,NA,green,m_l_047.jpg,NA,NA,NA,NA,NA,unpleasant,pleasant,NA,NA,NA,NA,NA,right,1528.45499990508,true,NA,NA,NA,NA,NA,NA,NA,NA
LxKiirlt,3bawbgqgzoco8yjjw9p686v3rigv79,3kgtpgbs61yjw2v7c9385d8467r2u0,LxKiirlt,2020-0188,2021-10-31,04:47:29,06:11:15,NA,incomplete,false,true,NA,NA,1,1,NA,green,m_s_048.jpg,NA,NA,NA,NA,NA,unpleasant,pleasant,NA,NA,NA,NA,NA,right,1890.99500002339,true,NA,NA,NA,NA,NA,NA,NA,NA
LxKiirlt,3bawbgqgzoco8yjjw9p686v3rigv79,3kgtpgbs61yjw2v7c9385d8467r2u0,LxKiirlt,2020-0188,2021-10-31,04:47:29,06:11:15,NA,incomplete,false,true,NA,NA,1,2,NA,green,n_l_033.jpg,NA,NA,NA,NA,NA,unpleasant,pleasant,NA,NA,NA,NA,NA,left,1390.44500002638,true,NA,NA,NA,NA,NA,NA,NA,NA
LxKiirlt,3bawbgqgzoco8yjjw9p686v3rigv79,3kgtpgbs61yjw2v7c9385d8467r2u0,LxKiirlt,2020-0188,2021-10-31,04:47:29,06:11:15,NA,incomplete,false,true,NA,NA,1,3,NA,green,n_l_109.jpg,NA,NA,NA,NA,NA,unpleasant,pleasant,NA,NA,NA,NA,NA,left,1745.03500014544,true,NA,NA,NA,NA,NA,NA,NA,NA
LxKiirlt,3bawbgqgzoco8yjjw9p686v3rigv79,3kgtpgbs61yjw2v7c9385d8467r2u0,LxKiirlt,2020-0188,2021-10-31,04:47:29,06:11:15,NA,incomplete,false,true,NA,NA,1,4,NA,green,m_l_088.jpg,NA,NA,NA,NA,NA,pleasant,unpleasant,NA,NA,NA,NA,NA,left,1521.24999975786,true,NA,NA,NA,NA,NA,NA,NA,NA
LxKiirlt,3bawbgqgzoco8yjjw9p686v3rigv79,3kgtpgbs61yjw2v7c9385d8467r2u0,LxKiirlt,2020-0188,2021-10-31,04:47:29,06:11:15,NA,incomplete,false,true,NA,NA,1,5,NA,green,n_s_101.jpg,NA,NA,NA,NA,NA,unpleasant,pleasant,NA,NA,NA,NA,NA,left,1484.64500019327,true,NA,NA,NA,NA,NA,NA,NA,NA
LxKiirlt,3bawbgqgzoco8yjjw9p686v3rigv79,3kgtpgbs61yjw2v7c9385d8467r2u0,LxKiirlt,2020-0188,2021-10-31,04:47:29,06:11:15,NA,incomplete,false,true,NA,NA,1,6,NA,gray,m_l_042.jpg,NA,NA,NA,NA,NA,unpleasant,pleasant,NA,NA,NA,NA,NA,right,1552.68999980763,true,NA,NA,NA,NA,NA,NA,NA,NA
LxKiirlt,3bawbgqgzoco8yjjw9p686v3rigv79,3kgtpgbs61yjw2v7c9385d8467r2u0,LxKiirlt,2020-0188,2021-10-31,04:47:29,06:11:15,NA,incomplete,false,true,NA,NA,1,7,NA,gray,m_s_112.jpg,NA,NA,NA,NA,NA,unpleasant,pleasant,NA,NA,NA,NA,NA,right,1321.32000010461,true,NA,NA,NA,NA,NA,NA,NA,NA
LxKiirlt,3bawbgqgzoco8yjjw9p686v3rigv79,3kgtpgbs61yjw2v7c9385d8467r2u0,LxKiirlt,2020-0188,2021-10-31,04:47:29,06:11:15,NA,incomplete,false,true,NA,NA,1,8,NA,gray,n_s_090.jpg,NA,NA,NA,NA,NA,pleasant,unpleasant,NA,NA,NA,NA,NA,left,2181.52000010014,true,NA,NA,NA,NA,NA,NA,NA,NA
LxKiirlt,3bawbgqgzoco8yjjw9p686v3rigv79,3kgtpgbs61yjw2v7c9385d8467r2u0,LxKiirlt,2020-0188,2021-10-31,04:47:29,06:11:15,NA,incomplete,false,true,NA,NA,1,9,NA,gray,m_l_108.jpg,NA,NA,NA,NA,NA,unpleasant,pleasant,NA,NA,NA,NA,NA,left,2217.48499991372,true,NA,NA,NA,NA,NA,NA,NA,NA
LxKiirlt,3bawbgqgzoco8yjjw9p686v3rigv79,3kgtpgbs61yjw2v7c9385d8467r2u0,LxKiirlt,2020-0188,2021-10-31,04:47:29,06:11:15,NA,incomplete,false,true,NA,NA,1,10,NA,gray,m_s_113.jpg,NA,NA,NA,NA,NA,pleasant,unpleasant,NA,NA,NA,NA,NA,left,1611.12499982119,true,NA,NA,NA,NA,NA,NA,NA,NA
LxKiirlt,3bawbgqgzoco8yjjw9p686v3rigv79,3kgtpgbs61yjw2v7c9385d8467r2u0,LxKiirlt,2020-0188,2021-10-31,04:47:29,06:11:15,NA,incomplete,false,true,NA,NA,1,11,NA,gray,m_l_068.jpg,NA,NA,NA,NA,NA,unpleasant,pleasant,NA,NA,NA,NA,NA,right,1634.44999977946,true,NA,NA,NA,NA,NA,NA,NA,NA
LxKiirlt,3bawbgqgzoco8yjjw9p686v3rigv79,3kgtpgbs61yjw2v7c9385d8467r2u0,LxKiirlt,2020-0188,2021-10-31,04:47:29,06:11:15,NA,incomplete,false,true,NA,NA,1,12,NA,blue,n_s_026.jpg,NA,NA,NA,NA,NA,unpleasant,pleasant,NA,NA,NA,NA,NA,left,1177.2149996832,true,NA,NA,NA,NA,NA,NA,NA,NA
LxKiirlt,3bawbgqgzoco8yjjw9p686v3rigv79,3kgtpgbs61yjw2v7c9385d8467r2u0,LxKiirlt,2020-0188,2021-10-31,04:47:29,06:11:15,NA,incomplete,false,true,NA,NA,1,13,NA,blue,n_l_044.jpg,NA,NA,NA,NA,NA,pleasant,unpleasant,NA,NA,NA,NA,NA,left,1495.88999990374,true,NA,NA,NA,NA,NA,NA,NA,NA
LxKiirlt,3bawbgqgzoco8yjjw9p686v3rigv79,3kgtpgbs61yjw2v7c9385d8467r2u0,LxKiirlt,2020-0188,2021-10-31,04:47:29,06:11:15,NA,incomplete,false,true,NA,NA,1,14,NA,blue,m_s_082.jpg,NA,NA,NA,NA,NA,unpleasant,pleasant,NA,NA,NA,NA,NA,left,2392.03500002623,true,NA,NA,NA,NA,NA,NA,NA,NA
LxKiirlt,3bawbgqgzoco8yjjw9p686v3rigv79,3kgtpgbs61yjw2v7c9385d8467r2u0,LxKiirlt,2020-0188,2021-10-31,04:47:29,06:11:15,NA,incomplete,false,true,NA,NA,1,15,NA,blue,m_l_044.jpg,NA,NA,NA,NA,NA,pleasant,unpleasant,NA,NA,NA,NA,NA,left,1383.89000017196,true,NA,NA,NA,NA,NA,NA,NA,NA
LxKiirlt,3bawbgqgzoco8yjjw9p686v3rigv79,3kgtpgbs61yjw2v7c9385d8467r2u0,LxKiirlt,2020-0188,2021-10-31,04:47:29,06:11:15,NA,incomplete,false,true,NA,NA,1,16,NA,blue,n_l_053.jpg,NA,NA,NA,NA,NA,unpleasant,pleasant,NA,NA,NA,NA,NA,left,1672.55500005558,true,NA,NA,NA,NA,NA,NA,NA,NA
LxKiirlt,3bawbgqgzoco8yjjw9p686v3rigv79,3kgtpgbs61yjw2v7c9385d8467r2u0,LxKiirlt,2020-0188,2021-10-31,04:47:29,06:11:15,NA,incomplete,false,true,NA,NA,1,17,NA,blue,n_s_089.jpg,NA,NA,NA,NA,NA,pleasant,unpleasant,NA,NA,NA,NA,NA,left,1276.74999972805,true,NA,NA,NA,NA,NA,NA,NA,NA
LxKiirlt,3bawbgqgzoco8yjjw9p686v3rigv79,3kgtpgbs61yjw2v7c9385d8467r2u0,LxKiirlt,2020-0188,2021-10-31,04:47:29,06:11:15,NA,incomplete,false,true,NA,NA,1,18,NA,white,n_l_070.jpg,NA,NA,NA,NA,NA,pleasant,unpleasant,NA,NA,NA,NA,NA,left,1213.3249999024,true,NA,NA,NA,NA,NA,NA,NA,NA
LxKiirlt,3bawbgqgzoco8yjjw9p686v3rigv79,3kgtpgbs61yjw2v7c9385d8467r2u0,LxKiirlt,2020-0188,2021-10-31,04:47:29,06:11:15,NA,incomplete,false,true,NA,NA,1,19,NA,white,m_s_080.jpg,NA,NA,NA,NA,NA,unpleasant,pleasant,NA,NA,NA,NA,NA,right,1576.34499995038,true,NA,NA,NA,NA,NA,NA,NA,NA
LxKiirlt,3bawbgqgzoco8yjjw9p686v3rigv79,3kgtpgbs61yjw2v7c9385d8467r2u0,LxKiirlt,2020-0188,2021-10-31,04:47:29,06:11:15,NA,incomplete,false,true,NA,NA,1,20,NA,white,n_s_082.jpg,NA,NA,NA,NA,NA,unpleasant,pleasant,NA,NA,NA,NA,NA,right,1960.81499988213,true,NA,NA,NA,NA,NA,NA,NA,NA
LxKiirlt,3bawbgqgzoco8yjjw9p686v3rigv79,3kgtpgbs61yjw2v7c9385d8467r2u0,LxKiirlt,2020-0188,2021-10-31,04:47:29,06:11:15,NA,incomplete,false,true,NA,NA,1,21,NA,white,m_l_081.jpg,NA,NA,NA,NA,NA,unpleasant,pleasant,NA,NA,NA,NA,NA,right,1412.58000023663,true,NA,NA,NA,NA,NA,NA,NA,NA
LxKiirlt,3bawbgqgzoco8yjjw9p686v3rigv79,3kgtpgbs61yjw2v7c9385d8467r2u0,LxKiirlt,2020-0188,2021-10-31,04:47:29,06:11:15,NA,incomplete,false,true,NA,NA,1,22,NA,white,m_l_064.jpg,NA,NA,NA,NA,NA,unpleasant,pleasant,NA,NA,NA,NA,NA,right,1252.84500000998,true,NA,NA,NA,NA,NA,NA,NA,NA
LxKiirlt,3bawbgqgzoco8yjjw9p686v3rigv79,3kgtpgbs61yjw2v7c9385d8467r2u0,LxKiirlt,2020-0188,2021-10-31,04:47:29,06:11:15,NA,incomplete,false,true,NA,NA,1,23,NA,white,n_l_021.jpg,NA,NA,NA,NA,NA,unpleasant,pleasant,NA,NA,NA,NA,NA,right,1177.9399998486,true,NA,NA,NA,NA,NA,NA,NA,NA
LxKiirlt,3bawbgqgzoco8yjjw9p686v3rigv79,3kgtpgbs61yjw2v7c9385d8467r2u0,LxKiirlt,2020-0188,2021-10-31,04:47:29,06:11:15,NA,incomplete,false,true,NA,NA,1,24,NA,red,n_s_116.jpg,NA,NA,NA,NA,NA,pleasant,unpleasant,NA,NA,NA,NA,NA,right,1510.19500009716,true,NA,NA,NA,NA,NA,NA,NA,NA
LxKiirlt,3bawbgqgzoco8yjjw9p686v3rigv79,3kgtpgbs61yjw2v7c9385d8467r2u0,LxKiirlt,2020-0188,2021-10-31,04:47:29,06:11:15,NA,incomplete,false,true,NA,NA,1,25,NA,red,m_l_084.jpg,NA,NA,NA,NA,NA,pleasant,unpleasant,NA,NA,NA,NA,NA,left,1494.61500020698,true,NA,NA,NA,NA,NA,NA,NA,NA
LxKiirlt,3bawbgqgzoco8yjjw9p686v3rigv79,3kgtpgbs61yjw2v7c9385d8467r2u0,LxKiirlt,2020-0188,2021-10-31,04:47:29,06:11:15,NA,incomplete,false,true,NA,NA,1,26,NA,red,m_s_045.jpg,NA,NA,NA,NA,NA,unpleasant,pleasant,NA,NA,NA,NA,NA,right,2216.45499998704,true,NA,NA,NA,NA,NA,NA,NA,NA
LxKiirlt,3bawbgqgzoco8yjjw9p686v3rigv79,3kgtpgbs61yjw2v7c9385d8467r2u0,LxKiirlt,2020-0188,2021-10-31,04:47:29,06:11:15,NA,incomplete,false,true,NA,NA,1,27,NA,red,m_s_065.jpg,NA,NA,NA,NA,NA,unpleasant,pleasant,NA,NA,NA,NA,NA,right,1709.3550004065,true,NA,NA,NA,NA,NA,NA,NA,NA
LxKiirlt,3bawbgqgzoco8yjjw9p686v3rigv79,3kgtpgbs61yjw2v7c9385d8467r2u0,LxKiirlt,2020-0188,2021-10-31,04:47:29,06:11:15,NA,incomplete,false,true,NA,NA,1,28,NA,red,m_l_051.jpg,NA,NA,NA,NA,NA,pleasant,unpleasant,NA,NA,NA,NA,NA,left,1544.96500035748,true,NA,NA,NA,NA,NA,NA,NA,NA
LxKiirlt,3bawbgqgzoco8yjjw9p686v3rigv79,3kgtpgbs61yjw2v7c9385d8467r2u0,LxKiirlt,2020-0188,2021-10-31,04:47:29,06:11:15,NA,incomplete,false,true,NA,NA,1,29,NA,red,n_l_049.jpg,NA,NA,NA,NA,NA,pleasant,unpleasant,NA,NA,NA,NA,NA,left,1164.09000009298,true,NA,NA,NA,NA,NA,NA,NA,NA
LxKiirlt,3bawbgqgzoco8yjjw9p686v3rigv79,3kgtpgbs61yjw2v7c9385d8467r2u0,LxKiirlt,2020-0188,2021-10-31,04:47:29,06:11:15,NA,incomplete,false,true,NA,NA,1,30,NA,orange,n_s_028.jpg,NA,NA,NA,NA,NA,unpleasant,pleasant,NA,NA,NA,NA,NA,right,1508.66999989375,true,NA,NA,NA,NA,NA,NA,NA,NA
LxKiirlt,3bawbgqgzoco8yjjw9p686v3rigv79,3kgtpgbs61yjw2v7c9385d8467r2u0,LxKiirlt,2020-0188,2021-10-31,04:47:29,06:11:15,NA,incomplete,false,true,NA,NA,1,31,NA,orange,n_l_041.jpg,NA,NA,NA,NA,NA,unpleasant,pleasant,NA,NA,NA,NA,NA,right,1742.56999976933,true,NA,NA,NA,NA,NA,NA,NA,NA
LxKiirlt,3bawbgqgzoco8yjjw9p686v3rigv79,3kgtpgbs61yjw2v7c9385d8467r2u0,LxKiirlt,2020-0188,2021-10-31,04:47:29,06:11:15,NA,incomplete,false,true,NA,NA,1,32,NA,orange,n_l_055.jpg,NA,NA,NA,NA,NA,unpleasant,pleasant,NA,NA,NA,NA,NA,left,1894.50500020757,true,NA,NA,NA,NA,NA,NA,NA,NA
LxKiirlt,3bawbgqgzoco8yjjw9p686v3rigv79,3kgtpgbs61yjw2v7c9385d8467r2u0,LxKiirlt,2020-0188,2021-10-31,04:47:29,06:11:15,NA,incomplete,false,true,NA,NA,1,33,NA,orange,n_s_020.jpg,NA,NA,NA,NA,NA,unpleasant,pleasant,NA,NA,NA,NA,NA,right,1433.56999987736,true,NA,NA,NA,NA,NA,NA,NA,NA
LxKiirlt,3bawbgqgzoco8yjjw9p686v3rigv79,3kgtpgbs61yjw2v7c9385d8467r2u0,LxKiirlt,2020-0188,2021-10-31,04:47:29,06:11:15,NA,incomplete,false,true,NA,NA,1,34,NA,orange,n_s_094.jpg,NA,NA,NA,NA,NA,pleasant,unpleasant,NA,NA,NA,NA,NA,left,1375.89500006288,true,NA,NA,NA,NA,NA,NA,NA,NA
LxKiirlt,3bawbgqgzoco8yjjw9p686v3rigv79,3kgtpgbs61yjw2v7c9385d8467r2u0,LxKiirlt,2020-0188,2021-10-31,04:47:29,06:11:15,NA,incomplete,false,true,NA,NA,1,35,NA,orange,m_l_067.jpg,NA,NA,NA,NA,NA,pleasant,unpleasant,NA,NA,NA,NA,NA,left,1284.86999962479,true,NA,NA,NA,NA,NA,NA,NA,NA
LxKiirlt,3bawbgqgzoco8yjjw9p686v3rigv79,3kgtpgbs61yjw2v7c9385d8467r2u0,LxKiirlt,2020-0188,2021-10-31,04:47:29,06:11:15,NA,incomplete,false,NA,NA,true,1,0,NA,NA,NA,right,m_s_080.jpg,blue,white,NA,NA,NA,NA,NA,NA,NA,NA,NA,NaN,NA,6422.844999935478,right,1,NA,NA,NA,NA,NA
LxKiirlt,3bawbgqgzoco8yjjw9p686v3rigv79,3kgtpgbs61yjw2v7c9385d8467r2u0,LxKiirlt,2020-0188,2021-10-31,04:47:29,06:11:15,NA,incomplete,false,NA,NA,true,1,1,NA,NA,NA,right,n_l_055.jpg,red,orange,NA,NA,NA,NA,NA,NA,NA,NA,NA,NaN,NA,2733.9699999429286,right,1,NA,NA,NA,NA,NA
LxKiirlt,3bawbgqgzoco8yjjw9p686v3rigv79,3kgtpgbs61yjw2v7c9385d8467r2u0,LxKiirlt,2020-0188,2021-10-31,04:47:29,06:11:15,NA,incomplete,false,NA,NA,true,1,2,NA,NA,NA,right,n_l_053.jpg,gray,blue,NA,NA,NA,NA,NA,NA,NA,NA,NA,NaN,NA,2964.9749998934567,right,1,NA,NA,NA,NA,NA
LxKiirlt,3bawbgqgzoco8yjjw9p686v3rigv79,3kgtpgbs61yjw2v7c9385d8467r2u0,LxKiirlt,2020-0188,2021-10-31,04:47:29,06:11:15,NA,incomplete,false,NA,NA,true,1,3,NA,NA,NA,right,m_l_084.jpg,orange,red,NA,NA,NA,NA,NA,NA,NA,NA,NA,NaN,NA,2096.2749999016523,right,1,NA,NA,NA,NA,NA
LxKiirlt,3bawbgqgzoco8yjjw9p686v3rigv79,3kgtpgbs61yjw2v7c9385d8467r2u0,LxKiirlt,2020-0188,2021-10-31,04:47:29,06:11:15,NA,incomplete,false,NA,NA,true,1,4,NA,NA,NA,left,n_l_021.jpg,white,red,NA,NA,NA,NA,NA,NA,NA,NA,NA,NaN,NA,2736.2499996088445,right,0,NA,NA,NA,NA,NA
LxKiirlt,3bawbgqgzoco8yjjw9p686v3rigv79,3kgtpgbs61yjw2v7c9385d8467r2u0,LxKiirlt,2020-0188,2021-10-31,04:47:29,06:11:15,NA,incomplete,false,NA,NA,true,1,5,NA,NA,NA,left,n_s_101.jpg,green,gray,NA,NA,NA,NA,NA,NA,NA,NA,NA,NaN,NA,2422.4199997261167,left,1,NA,NA,NA,NA,NA
LxKiirlt,3bawbgqgzoco8yjjw9p686v3rigv79,3kgtpgbs61yjw2v7c9385d8467r2u0,LxKiirlt,2020-0188,2021-10-31,04:47:29,06:11:15,NA,incomplete,false,NA,NA,true,1,6,NA,NA,NA,right,m_s_112.jpg,blue,gray,NA,NA,NA,NA,NA,NA,NA,NA,NA,NaN,NA,3053.160000126809,right,1,NA,NA,NA,NA,NA
LxKiirlt,3bawbgqgzoco8yjjw9p686v3rigv79,3kgtpgbs61yjw2v7c9385d8467r2u0,LxKiirlt,2020-0188,2021-10-31,04:47:29,06:11:15,NA,incomplete,false,NA,NA,true,1,7,NA,NA,NA,left,m_s_045.jpg,red,white,NA,NA,NA,NA,NA,NA,NA,NA,NA,NaN,NA,2232.865000143647,left,1,NA,NA,NA,NA,NA
LxKiirlt,3bawbgqgzoco8yjjw9p686v3rigv79,3kgtpgbs61yjw2v7c9385d8467r2u0,LxKiirlt,2020-0188,2021-10-31,04:47:29,06:11:15,NA,incomplete,false,NA,NA,true,1,8,NA,NA,NA,right,m_s_048.jpg,gray,green,NA,NA,NA,NA,NA,NA,NA,NA,NA,NaN,NA,6748.244999907911,left,0,NA,NA,NA,NA,NA
LxKiirlt,3bawbgqgzoco8yjjw9p686v3rigv79,3kgtpgbs61yjw2v7c9385d8467r2u0,LxKiirlt,2020-0188,2021-10-31,04:47:29,06:11:15,NA,incomplete,false,NA,NA,true,1,9,NA,NA,NA,right,n_l_049.jpg,white,red,NA,NA,NA,NA,NA,NA,NA,NA,NA,NaN,NA,2046.440000180155,right,1,NA,NA,NA,NA,NA
LxKiirlt,3bawbgqgzoco8yjjw9p686v3rigv79,3kgtpgbs61yjw2v7c9385d8467r2u0,LxKiirlt,2020-0188,2021-10-31,04:47:29,06:11:15,NA,incomplete,false,NA,NA,true,1,10,NA,NA,NA,right,m_s_082.jpg,white,blue,NA,NA,NA,NA,NA,NA,NA,NA,NA,NaN,NA,4833.140000235289,left,0,NA,NA,NA,NA,NA
LxKiirlt,3bawbgqgzoco8yjjw9p686v3rigv79,3kgtpgbs61yjw2v7c9385d8467r2u0,LxKiirlt,2020-0188,2021-10-31,04:47:29,06:11:15,NA,incomplete,false,NA,NA,true,1,11,NA,NA,NA,left,m_l_068.jpg,gray,green,NA,NA,NA,NA,NA,NA,NA,NA,NA,NaN,NA,2105.935000348836,left,1,NA,NA,NA,NA,NA
LxKiirlt,3bawbgqgzoco8yjjw9p686v3rigv79,3kgtpgbs61yjw2v7c9385d8467r2u0,LxKiirlt,2020-0188,2021-10-31,04:47:29,06:11:15,NA,incomplete,false,NA,NA,true,1,12,NA,NA,NA,left,m_l_064.jpg,white,blue,NA,NA,NA,NA,NA,NA,NA,NA,NA,NaN,NA,6109.725000336766,right,0,NA,NA,NA,NA,NA
LxKiirlt,3bawbgqgzoco8yjjw9p686v3rigv79,3kgtpgbs61yjw2v7c9385d8467r2u0,LxKiirlt,2020-0188,2021-10-31,04:47:29,06:11:15,NA,incomplete,false,NA,NA,true,1,13,NA,NA,NA,right,m_l_067.jpg,red,orange,NA,NA,NA,NA,NA,NA,NA,NA,NA,NaN,NA,2884.7400001250207,right,1,NA,NA,NA,NA,NA
LxKiirlt,3bawbgqgzoco8yjjw9p686v3rigv79,3kgtpgbs61yjw2v7c9385d8467r2u0,LxKiirlt,2020-0188,2021-10-31,04:47:29,06:11:15,NA,incomplete,false,NA,NA,true,1,14,NA,NA,NA,left,n_l_044.jpg,blue,gray,NA,NA,NA,NA,NA,NA,NA,NA,NA,NaN,NA,2638.0049996078014,left,1,NA,NA,NA,NA,NA
LxKiirlt,3bawbgqgzoco8yjjw9p686v3rigv79,3kgtpgbs61yjw2v7c9385d8467r2u0,LxKiirlt,2020-0188,2021-10-31,04:47:29,06:11:15,NA,incomplete,false,NA,NA,true,1,15,NA,NA,NA,right,n_s_082.jpg,red,white,NA,NA,NA,NA,NA,NA,NA,NA,NA,NaN,NA,2540.919999592006,right,1,NA,NA,NA,NA,NA
LxKiirlt,3bawbgqgzoco8yjjw9p686v3rigv79,3kgtpgbs61yjw2v7c9385d8467r2u0,LxKiirlt,2020-0188,2021-10-31,04:47:29,06:11:15,NA,incomplete,false,NA,NA,true,1,16,NA,NA,NA,left,n_s_090.jpg,gray,blue,NA,NA,NA,NA,NA,NA,NA,NA,NA,NaN,NA,2352.765000425279,left,1,NA,NA,NA,NA,NA
LxKiirlt,3bawbgqgzoco8yjjw9p686v3rigv79,3kgtpgbs61yjw2v7c9385d8467r2u0,LxKiirlt,2020-0188,2021-10-31,04:47:29,06:11:15,NA,incomplete,false,NA,NA,true,1,17,NA,NA,NA,right,n_l_041.jpg,red,orange,NA,NA,NA,NA,NA,NA,NA,NA,NA,NaN,NA,3536.305000074208,right,1,NA,NA,NA,NA,NA
LxKiirlt,3bawbgqgzoco8yjjw9p686v3rigv79,3kgtpgbs61yjw2v7c9385d8467r2u0,LxKiirlt,2020-0188,2021-10-31,04:47:29,06:11:15,NA,incomplete,false,NA,NA,true,1,18,NA,NA,NA,left,m_s_113.jpg,gray,blue,NA,NA,NA,NA,NA,NA,NA,NA,NA,NaN,NA,3541.149999946356,right,0,NA,NA,NA,NA,NA
LxKiirlt,3bawbgqgzoco8yjjw9p686v3rigv79,3kgtpgbs61yjw2v7c9385d8467r2u0,LxKiirlt,2020-0188,2021-10-31,04:47:29,06:11:15,NA,incomplete,false,NA,NA,true,1,19,NA,NA,NA,left,m_l_051.jpg,red,orange,NA,NA,NA,NA,NA,NA,NA,NA,NA,NaN,NA,3813.0649998784065,right,0,NA,NA,NA,NA,NA
LxKiirlt,3bawbgqgzoco8yjjw9p686v3rigv79,3kgtpgbs61yjw2v7c9385d8467r2u0,LxKiirlt,2020-0188,2021-10-31,04:47:29,06:11:15,NA,incomplete,false,NA,NA,true,1,20,NA,NA,NA,right,m_l_088.jpg,gray,green,NA,NA,NA,NA,NA,NA,NA,NA,NA,NaN,NA,2139.2600000835955,left,0,NA,NA,NA,NA,NA
LxKiirlt,3bawbgqgzoco8yjjw9p686v3rigv79,3kgtpgbs61yjw2v7c9385d8467r2u0,LxKiirlt,2020-0188,2021-10-31,04:47:29,06:11:15,NA,incomplete,false,NA,NA,true,1,21,NA,NA,NA,left,n_s_089.jpg,blue,white,NA,NA,NA,NA,NA,NA,NA,NA,NA,NaN,NA,2474.315000232309,right,0,NA,NA,NA,NA,NA
LxKiirlt,3bawbgqgzoco8yjjw9p686v3rigv79,3kgtpgbs61yjw2v7c9385d8467r2u0,LxKiirlt,2020-0188,2021-10-31,04:47:29,06:11:15,NA,incomplete,false,NA,true,NA,1,0,NA,NA,NA,right,NA,NA,NA,present,NA,NA,n_l_055.jpg,orange,m_l_051.jpg,red,between,NA,NaN,NA,NA,NA,NA,right,4291.704999748617,1,2,6341.099999845028
LxKiirlt,3bawbgqgzoco8yjjw9p686v3rigv79,3kgtpgbs61yjw2v7c9385d8467r2u0,LxKiirlt,2020-0188,2021-10-31,04:47:29,06:11:15,NA,incomplete,false,NA,true,NA,1,1,NA,NA,NA,left,NA,NA,NA,present,NA,NA,n_l_044.jpg,blue,n_s_089.jpg,blue,within,NA,NaN,NA,NA,NA,NA,left,3757.935000117868,1,1,3812.770000193268
LxKiirlt,3bawbgqgzoco8yjjw9p686v3rigv79,3kgtpgbs61yjw2v7c9385d8467r2u0,LxKiirlt,2020-0188,2021-10-31,04:47:29,06:11:15,NA,incomplete,false,NA,true,NA,1,2,NA,NA,NA,left,NA,NA,NA,present,NA,NA,m_s_080.jpg,white,n_l_021.jpg,white,within,NA,NaN,NA,NA,NA,NA,right,6340.95499990508,0,1,2131.000000052154
LxKiirlt,3bawbgqgzoco8yjjw9p686v3rigv79,3kgtpgbs61yjw2v7c9385d8467r2u0,LxKiirlt,2020-0188,2021-10-31,04:47:29,06:11:15,NA,incomplete,false,NA,true,NA,1,3,NA,NA,NA,left,NA,NA,NA,present,NA,NA,m_l_064.jpg,white,m_s_045.jpg,red,between,NA,NaN,NA,NA,NA,NA,right,5096.144999843091,0,2,1386.8399998173118
LxKiirlt,3bawbgqgzoco8yjjw9p686v3rigv79,3kgtpgbs61yjw2v7c9385d8467r2u0,LxKiirlt,2020-0188,2021-10-31,04:47:29,06:11:15,NA,incomplete,false,NA,true,NA,1,4,NA,NA,NA,right,NA,NA,NA,present,NA,NA,m_l_067.jpg,orange,n_l_041.jpg,orange,within,NA,NaN,NA,NA,NA,NA,right,4540.044999681413,1,0,3511.9950002990663
LxKiirlt,3bawbgqgzoco8yjjw9p686v3rigv79,3kgtpgbs61yjw2v7c9385d8467r2u0,LxKiirlt,2020-0188,2021-10-31,04:47:29,06:11:15,NA,incomplete,false,NA,true,NA,1,5,NA,NA,NA,left,NA,NA,NA,present,NA,NA,m_s_112.jpg,gray,m_l_068.jpg,gray,within,NA,NaN,NA,NA,NA,NA,left,4380.770000163466,1,2,1881.3199996948242
LxKiirlt,3bawbgqgzoco8yjjw9p686v3rigv79,3kgtpgbs61yjw2v7c9385d8467r2u0,LxKiirlt,2020-0188,2021-10-31,04:47:29,06:11:15,NA,incomplete,false,NA,true,NA,1,6,NA,NA,NA,left,NA,NA,NA,present,NA,NA,n_l_053.jpg,blue,n_s_082.jpg,white,between,NA,NaN,NA,NA,NA,NA,left,8132.990000303835,1,2,1743.6150000430644
LxKiirlt,3bawbgqgzoco8yjjw9p686v3rigv79,3kgtpgbs61yjw2v7c9385d8467r2u0,LxKiirlt,2020-0188,2021-10-31,04:47:29,06:11:15,NA,incomplete,false,NA,true,NA,1,7,NA,NA,NA,left,NA,NA,NA,present,NA,NA,m_l_084.jpg,red,n_l_049.jpg,red,within,NA,NaN,NA,NA,NA,NA,left,3488.435000181198,1,0,2142.0599999837577
LxKiirlt,3bawbgqgzoco8yjjw9p686v3rigv79,3kgtpgbs61yjw2v7c9385d8467r2u0,LxKiirlt,2020-0188,2021-10-31,04:47:29,06:11:15,NA,incomplete,false,NA,true,NA,1,8,NA,NA,NA,right,NA,NA,NA,present,NA,NA,n_s_101.jpg,green,m_s_048.jpg,green,within,NA,NaN,NA,NA,NA,NA,right,3201.284999959171,1,0,2825.040000025183
LxKiirlt,3bawbgqgzoco8yjjw9p686v3rigv79,3kgtpgbs61yjw2v7c9385d8467r2u0,LxKiirlt,2020-0188,2021-10-31,04:47:29,06:11:15,NA,incomplete,false,NA,true,NA,1,9,NA,NA,NA,right,NA,NA,NA,present,NA,NA,n_s_090.jpg,gray,m_l_088.jpg,green,between,NA,NaN,NA,NA,NA,NA,right,4690.814999863505,1,2,1908.8049996644258
LxKiirlt,3bawbgqgzoco8yjjw9p686v3rigv79,3kgtpgbs61yjw2v7c9385d8467r2u0,LxKiirlt,2020-0188,2021-10-31,04:47:29,06:11:15,NA,incomplete,false,NA,true,NA,1,10,NA,NA,NA,right,NA,NA,NA,present,NA,NA,m_s_082.jpg,blue,m_s_113.jpg,gray,between,NA,NaN,NA,NA,NA,NA,right,3939.1999999061227,1,2,2066.9549996964633
LxKiirlt,3bawbgqgzoco8yjjw9p686v3rigv79,3kgtpgbs61yjw2v7c9385d8467r2u0,LxKiirlt,2020-0188,2021-10-31,04:47:29,06:11:15,NA,incomplete,false,true,NA,NA,2,0,NA,gray,n_l_085.jpg,NA,NA,NA,NA,NA,unpleasant,pleasant,NA,NA,NA,NA,NA,none,0,false,NA,NA,NA,NA,NA,NA,NA,NA
LxKiirlt,3bawbgqgzoco8yjjw9p686v3rigv79,3kgtpgbs61yjw2v7c9385d8467r2u0,LxKiirlt,2020-0188,2021-10-31,04:47:29,06:11:15,NA,incomplete,false,true,NA,NA,2,1,NA,gray,n_l_048.jpg,NA,NA,NA,NA,NA,unpleasant,pleasant,NA,NA,NA,NA,NA,left,3302.57000029087,true,NA,NA,NA,NA,NA,NA,NA,NA
LxKiirlt,3bawbgqgzoco8yjjw9p686v3rigv79,3kgtpgbs61yjw2v7c9385d8467r2u0,LxKiirlt,2020-0188,2021-10-31,04:47:29,06:11:15,NA,incomplete,false,true,NA,NA,2,2,NA,gray,n_s_023.jpg,NA,NA,NA,NA,NA,pleasant,unpleasant,NA,NA,NA,NA,NA,left,1359.47500029579,true,NA,NA,NA,NA,NA,NA,NA,NA
LxKiirlt,3bawbgqgzoco8yjjw9p686v3rigv79,3kgtpgbs61yjw2v7c9385d8467r2u0,LxKiirlt,2020-0188,2021-10-31,04:47:29,06:11:15,NA,incomplete,false,true,NA,NA,2,3,NA,gray,n_l_074.jpg,NA,NA,NA,NA,NA,unpleasant,pleasant,NA,NA,NA,NA,NA,right,1434.46500040591,true,NA,NA,NA,NA,NA,NA,NA,NA
LxKiirlt,3bawbgqgzoco8yjjw9p686v3rigv79,3kgtpgbs61yjw2v7c9385d8467r2u0,LxKiirlt,2020-0188,2021-10-31,04:47:29,06:11:15,NA,incomplete,false,true,NA,NA,2,4,NA,gray,m_s_049.jpg,NA,NA,NA,NA,NA,unpleasant,pleasant,NA,NA,NA,NA,NA,right,1225.95000034198,true,NA,NA,NA,NA,NA,NA,NA,NA
LxKiirlt,3bawbgqgzoco8yjjw9p686v3rigv79,3kgtpgbs61yjw2v7c9385d8467r2u0,LxKiirlt,2020-0188,2021-10-31,04:47:29,06:11:15,NA,incomplete,false,true,NA,NA,2,5,NA,gray,n_s_019.jpg,NA,NA,NA,NA,NA,unpleasant,pleasant,NA,NA,NA,NA,NA,right,1168.31499990076,true,NA,NA,NA,NA,NA,NA,NA,NA
LxKiirlt,3bawbgqgzoco8yjjw9p686v3rigv79,3kgtpgbs61yjw2v7c9385d8467r2u0,LxKiirlt,2020-0188,2021-10-31,04:47:29,06:11:15,NA,incomplete,false,true,NA,NA,2,6,NA,white,n_s_005.jpg,NA,NA,NA,NA,NA,unpleasant,pleasant,NA,NA,NA,NA,NA,right,1217.48499991372,true,NA,NA,NA,NA,NA,NA,NA,NA
LxKiirlt,3bawbgqgzoco8yjjw9p686v3rigv79,3kgtpgbs61yjw2v7c9385d8467r2u0,LxKiirlt,2020-0188,2021-10-31,04:47:29,06:11:15,NA,incomplete,false,true,NA,NA,2,7,NA,white,m_l_006.jpg,NA,NA,NA,NA,NA,unpleasant,pleasant,NA,NA,NA,NA,NA,right,1255.41500002146,true,NA,NA,NA,NA,NA,NA,NA,NA
LxKiirlt,3bawbgqgzoco8yjjw9p686v3rigv79,3kgtpgbs61yjw2v7c9385d8467r2u0,LxKiirlt,2020-0188,2021-10-31,04:47:29,06:11:15,NA,incomplete,false,true,NA,NA,2,8,NA,white,m_s_104.jpg,NA,NA,NA,NA,NA,unpleasant,pleasant,NA,NA,NA,NA,NA,right,1052.41500027478,true,NA,NA,NA,NA,NA,NA,NA,NA
LxKiirlt,3bawbgqgzoco8yjjw9p686v3rigv79,3kgtpgbs61yjw2v7c9385d8467r2u0,LxKiirlt,2020-0188,2021-10-31,04:47:29,06:11:15,NA,incomplete,false,true,NA,NA,2,9,NA,white,n_s_074.jpg,NA,NA,NA,NA,NA,pleasant,unpleasant,NA,NA,NA,NA,NA,right,2122.2500000149,true,NA,NA,NA,NA,NA,NA,NA,NA
LxKiirlt,3bawbgqgzoco8yjjw9p686v3rigv79,3kgtpgbs61yjw2v7c9385d8467r2u0,LxKiirlt,2020-0188,2021-10-31,04:47:29,06:11:15,NA,incomplete,false,true,NA,NA,2,10,NA,white,m_s_070.jpg,NA,NA,NA,NA,NA,pleasant,unpleasant,NA,NA,NA,NA,NA,right,2807.13000008836,true,NA,NA,NA,NA,NA,NA,NA,NA
LxKiirlt,3bawbgqgzoco8yjjw9p686v3rigv79,3kgtpgbs61yjw2v7c9385d8467r2u0,LxKiirlt,2020-0188,2021-10-31,04:47:29,06:11:15,NA,incomplete,false,true,NA,NA,2,11,NA,white,n_l_104.jpg,NA,NA,NA,NA,NA,unpleasant,pleasant,NA,NA,NA,NA,NA,right,2238.34499996156,true,NA,NA,NA,NA,NA,NA,NA,NA
LxKiirlt,3bawbgqgzoco8yjjw9p686v3rigv79,3kgtpgbs61yjw2v7c9385d8467r2u0,LxKiirlt,2020-0188,2021-10-31,04:47:29,06:11:15,NA,incomplete,false,true,NA,NA,2,12,NA,brown,m_s_005.jpg,NA,NA,NA,NA,NA,unpleasant,pleasant,NA,NA,NA,NA,NA,right,1642.34500005841,true,NA,NA,NA,NA,NA,NA,NA,NA
LxKiirlt,3bawbgqgzoco8yjjw9p686v3rigv79,3kgtpgbs61yjw2v7c9385d8467r2u0,LxKiirlt,2020-0188,2021-10-31,04:47:29,06:11:15,NA,incomplete,false,true,NA,NA,2,13,NA,brown,n_s_117.jpg,NA,NA,NA,NA,NA,unpleasant,pleasant,NA,NA,NA,NA,NA,left,1795.12000037357,true,NA,NA,NA,NA,NA,NA,NA,NA
LxKiirlt,3bawbgqgzoco8yjjw9p686v3rigv79,3kgtpgbs61yjw2v7c9385d8467r2u0,LxKiirlt,2020-0188,2021-10-31,04:47:29,06:11:15,NA,incomplete,false,true,NA,NA,2,14,NA,brown,n_l_067.jpg,NA,NA,NA,NA,NA,pleasant,unpleasant,NA,NA,NA,NA,NA,left,1807.81499994919,true,NA,NA,NA,NA,NA,NA,NA,NA
LxKiirlt,3bawbgqgzoco8yjjw9p686v3rigv79,3kgtpgbs61yjw2v7c9385d8467r2u0,LxKiirlt,2020-0188,2021-10-31,04:47:29,06:11:15,NA,incomplete,false,true,NA,NA,2,15,NA,brown,m_l_076.jpg,NA,NA,NA,NA,NA,pleasant,unpleasant,NA,NA,NA,NA,NA,left,1269.19500017539,true,NA,NA,NA,NA,NA,NA,NA,NA
LxKiirlt,3bawbgqgzoco8yjjw9p686v3rigv79,3kgtpgbs61yjw2v7c9385d8467r2u0,LxKiirlt,2020-0188,2021-10-31,04:47:29,06:11:15,NA,incomplete,false,true,NA,NA,2,16,NA,brown,m_s_008.jpg,NA,NA,NA,NA,NA,unpleasant,pleasant,NA,NA,NA,NA,NA,right,1543.87499997392,true,NA,NA,NA,NA,NA,NA,NA,NA
LxKiirlt,3bawbgqgzoco8yjjw9p686v3rigv79,3kgtpgbs61yjw2v7c9385d8467r2u0,LxKiirlt,2020-0188,2021-10-31,04:47:29,06:11:15,NA,incomplete,false,true,NA,NA,2,17,NA,brown,m_s_091.jpg,NA,NA,NA,NA,NA,unpleasant,pleasant,NA,NA,NA,NA,NA,right,1390.02999989316,true,NA,NA,NA,NA,NA,NA,NA,NA
LxKiirlt,3bawbgqgzoco8yjjw9p686v3rigv79,3kgtpgbs61yjw2v7c9385d8467r2u0,LxKiirlt,2020-0188,2021-10-31,04:47:29,06:11:15,NA,incomplete,false,true,NA,NA,2,18,NA,purple,m_l_024.jpg,NA,NA,NA,NA,NA,pleasant,unpleasant,NA,NA,NA,NA,NA,left,1661.62499971688,true,NA,NA,NA,NA,NA,NA,NA,NA
LxKiirlt,3bawbgqgzoco8yjjw9p686v3rigv79,3kgtpgbs61yjw2v7c9385d8467r2u0,LxKiirlt,2020-0188,2021-10-31,04:47:29,06:11:15,NA,incomplete,false,true,NA,NA,2,19,NA,purple,m_s_067.jpg,NA,NA,NA,NA,NA,unpleasant,pleasant,NA,NA,NA,NA,NA,right,1416.05499992147,true,NA,NA,NA,NA,NA,NA,NA,NA
LxKiirlt,3bawbgqgzoco8yjjw9p686v3rigv79,3kgtpgbs61yjw2v7c9385d8467r2u0,LxKiirlt,2020-0188,2021-10-31,04:47:29,06:11:15,NA,incomplete,false,true,NA,NA,2,20,NA,purple,m_s_062.jpg,NA,NA,NA,NA,NA,unpleasant,pleasant,NA,NA,NA,NA,NA,right,1066.74999976531,true,NA,NA,NA,NA,NA,NA,NA,NA
LxKiirlt,3bawbgqgzoco8yjjw9p686v3rigv79,3kgtpgbs61yjw2v7c9385d8467r2u0,LxKiirlt,2020-0188,2021-10-31,04:47:29,06:11:15,NA,incomplete,false,true,NA,NA,2,21,NA,purple,m_s_023.jpg,NA,NA,NA,NA,NA,unpleasant,pleasant,NA,NA,NA,NA,NA,right,1573.94000003114,true,NA,NA,NA,NA,NA,NA,NA,NA
LxKiirlt,3bawbgqgzoco8yjjw9p686v3rigv79,3kgtpgbs61yjw2v7c9385d8467r2u0,LxKiirlt,2020-0188,2021-10-31,04:47:29,06:11:15,NA,incomplete,false,true,NA,NA,2,22,NA,purple,m_s_039.jpg,NA,NA,NA,NA,NA,unpleasant,pleasant,NA,NA,NA,NA,NA,right,1320.83000009879,true,NA,NA,NA,NA,NA,NA,NA,NA
LxKiirlt,3bawbgqgzoco8yjjw9p686v3rigv79,3kgtpgbs61yjw2v7c9385d8467r2u0,LxKiirlt,2020-0188,2021-10-31,04:47:29,06:11:15,NA,incomplete,false,true,NA,NA,2,23,NA,purple,n_l_075.jpg,NA,NA,NA,NA,NA,unpleasant,pleasant,NA,NA,NA,NA,NA,left,2311.24999979511,true,NA,NA,NA,NA,NA,NA,NA,NA
LxKiirlt,3bawbgqgzoco8yjjw9p686v3rigv79,3kgtpgbs61yjw2v7c9385d8467r2u0,LxKiirlt,2020-0188,2021-10-31,04:47:29,06:11:15,NA,incomplete,false,true,NA,NA,2,24,NA,yellow,n_l_051.jpg,NA,NA,NA,NA,NA,unpleasant,pleasant,NA,NA,NA,NA,NA,left,1889.80000000447,true,NA,NA,NA,NA,NA,NA,NA,NA
LxKiirlt,3bawbgqgzoco8yjjw9p686v3rigv79,3kgtpgbs61yjw2v7c9385d8467r2u0,LxKiirlt,2020-0188,2021-10-31,04:47:29,06:11:15,NA,incomplete,false,true,NA,NA,2,25,NA,yellow,m_l_102.jpg,NA,NA,NA,NA,NA,pleasant,unpleasant,NA,NA,NA,NA,NA,left,2057.79999960214,true,NA,NA,NA,NA,NA,NA,NA,NA
LxKiirlt,3bawbgqgzoco8yjjw9p686v3rigv79,3kgtpgbs61yjw2v7c9385d8467r2u0,LxKiirlt,2020-0188,2021-10-31,04:47:29,06:11:15,NA,incomplete,false,true,NA,NA,2,26,NA,yellow,n_s_007.jpg,NA,NA,NA,NA,NA,pleasant,unpleasant,NA,NA,NA,NA,NA,right,1848.60999975353,true,NA,NA,NA,NA,NA,NA,NA,NA
LxKiirlt,3bawbgqgzoco8yjjw9p686v3rigv79,3kgtpgbs61yjw2v7c9385d8467r2u0,LxKiirlt,2020-0188,2021-10-31,04:47:29,06:11:15,NA,incomplete,false,true,NA,NA,2,27,NA,yellow,m_l_022.jpg,NA,NA,NA,NA,NA,unpleasant,pleasant,NA,NA,NA,NA,NA,right,1566.58499967307,true,NA,NA,NA,NA,NA,NA,NA,NA
LxKiirlt,3bawbgqgzoco8yjjw9p686v3rigv79,3kgtpgbs61yjw2v7c9385d8467r2u0,LxKiirlt,2020-0188,2021-10-31,04:47:29,06:11:15,NA,incomplete,false,true,NA,NA,2,28,NA,yellow,n_l_091.jpg,NA,NA,NA,NA,NA,pleasant,unpleasant,NA,NA,NA,NA,NA,left,1645.78999998048,true,NA,NA,NA,NA,NA,NA,NA,NA
LxKiirlt,3bawbgqgzoco8yjjw9p686v3rigv79,3kgtpgbs61yjw2v7c9385d8467r2u0,LxKiirlt,2020-0188,2021-10-31,04:47:29,06:11:15,NA,incomplete,false,true,NA,NA,2,29,NA,yellow,m_s_071.jpg,NA,NA,NA,NA,NA,unpleasant,pleasant,NA,NA,NA,NA,NA,left,2606.30499990657,true,NA,NA,NA,NA,NA,NA,NA,NA
LxKiirlt,3bawbgqgzoco8yjjw9p686v3rigv79,3kgtpgbs61yjw2v7c9385d8467r2u0,LxKiirlt,2020-0188,2021-10-31,04:47:29,06:11:15,NA,incomplete,false,true,NA,NA,2,30,NA,green,n_l_117.jpg,NA,NA,NA,NA,NA,pleasant,unpleasant,NA,NA,NA,NA,NA,left,2673.33999974653,true,NA,NA,NA,NA,NA,NA,NA,NA
LxKiirlt,3bawbgqgzoco8yjjw9p686v3rigv79,3kgtpgbs61yjw2v7c9385d8467r2u0,LxKiirlt,2020-0188,2021-10-31,04:47:29,06:11:15,NA,incomplete,false,true,NA,NA,2,31,NA,green,m_s_076.jpg,NA,NA,NA,NA,NA,unpleasant,pleasant,NA,NA,NA,NA,NA,right,1302.70999995992,true,NA,NA,NA,NA,NA,NA,NA,NA
LxKiirlt,3bawbgqgzoco8yjjw9p686v3rigv79,3kgtpgbs61yjw2v7c9385d8467r2u0,LxKiirlt,2020-0188,2021-10-31,04:47:29,06:11:15,NA,incomplete,false,true,NA,NA,2,32,NA,green,m_s_068.jpg,NA,NA,NA,NA,NA,pleasant,unpleasant,NA,NA,NA,NA,NA,left,1442.80500011519,true,NA,NA,NA,NA,NA,NA,NA,NA
LxKiirlt,3bawbgqgzoco8yjjw9p686v3rigv79,3kgtpgbs61yjw2v7c9385d8467r2u0,LxKiirlt,2020-0188,2021-10-31,04:47:29,06:11:15,NA,incomplete,false,true,NA,NA,2,33,NA,green,n_l_077.jpg,NA,NA,NA,NA,NA,pleasant,unpleasant,NA,NA,NA,NA,NA,left,1601.72499995679,true,NA,NA,NA,NA,NA,NA,NA,NA
LxKiirlt,3bawbgqgzoco8yjjw9p686v3rigv79,3kgtpgbs61yjw2v7c9385d8467r2u0,LxKiirlt,2020-0188,2021-10-31,04:47:29,06:11:15,NA,incomplete,false,true,NA,NA,2,34,NA,green,m_l_094.jpg,NA,NA,NA,NA,NA,pleasant,unpleasant,NA,NA,NA,NA,NA,right,1592.86500001326,true,NA,NA,NA,NA,NA,NA,NA,NA
LxKiirlt,3bawbgqgzoco8yjjw9p686v3rigv79,3kgtpgbs61yjw2v7c9385d8467r2u0,LxKiirlt,2020-0188,2021-10-31,04:47:29,06:11:15,NA,incomplete,false,true,NA,NA,2,35,NA,green,m_l_090.jpg,NA,NA,NA,NA,NA,pleasant,unpleasant,NA,NA,NA,NA,NA,left,1950.97999973223,true,NA,NA,NA,NA,NA,NA,NA,NA
LxKiirlt,3bawbgqgzoco8yjjw9p686v3rigv79,3kgtpgbs61yjw2v7c9385d8467r2u0,LxKiirlt,2020-0188,2021-10-31,04:47:29,06:11:15,NA,incomplete,false,NA,NA,true,2,0,NA,NA,NA,left,n_s_019.jpg,gray,white,NA,NA,NA,NA,NA,NA,NA,NA,NA,NaN,NA,5959.735000040382,left,1,NA,NA,NA,NA,NA
LxKiirlt,3bawbgqgzoco8yjjw9p686v3rigv79,3kgtpgbs61yjw2v7c9385d8467r2u0,LxKiirlt,2020-0188,2021-10-31,04:47:29,06:11:15,NA,incomplete,false,NA,NA,true,2,1,NA,NA,NA,right,m_s_104.jpg,gray,white,NA,NA,NA,NA,NA,NA,NA,NA,NA,NaN,NA,2181.0249998234212,right,1,NA,NA,NA,NA,NA
LxKiirlt,3bawbgqgzoco8yjjw9p686v3rigv79,3kgtpgbs61yjw2v7c9385d8467r2u0,LxKiirlt,2020-0188,2021-10-31,04:47:29,06:11:15,NA,incomplete,false,NA,NA,true,2,2,NA,NA,NA,right,m_s_076.jpg,yellow,green,NA,NA,NA,NA,NA,NA,NA,NA,NA,NaN,NA,2720.800000242889,right,1,NA,NA,NA,NA,NA
LxKiirlt,3bawbgqgzoco8yjjw9p686v3rigv79,3kgtpgbs61yjw2v7c9385d8467r2u0,LxKiirlt,2020-0188,2021-10-31,04:47:29,06:11:15,NA,incomplete,false,NA,NA,true,2,3,NA,NA,NA,right,m_s_068.jpg,yellow,green,NA,NA,NA,NA,NA,NA,NA,NA,NA,NaN,NA,2050.8949998766184,left,0,NA,NA,NA,NA,NA
LxKiirlt,3bawbgqgzoco8yjjw9p686v3rigv79,3kgtpgbs61yjw2v7c9385d8467r2u0,LxKiirlt,2020-0188,2021-10-31,04:47:29,06:11:15,NA,incomplete,false,NA,NA,true,2,4,NA,NA,NA,left,m_l_102.jpg,yellow,green,NA,NA,NA,NA,NA,NA,NA,NA,NA,NaN,NA,2484.9350000731647,left,1,NA,NA,NA,NA,NA
LxKiirlt,3bawbgqgzoco8yjjw9p686v3rigv79,3kgtpgbs61yjw2v7c9385d8467r2u0,LxKiirlt,2020-0188,2021-10-31,04:47:29,06:11:15,NA,incomplete,false,NA,NA,true,2,5,NA,NA,NA,left,n_s_007.jpg,yellow,green,NA,NA,NA,NA,NA,NA,NA,NA,NA,NaN,NA,2487.57000034675,right,0,NA,NA,NA,NA,NA
LxKiirlt,3bawbgqgzoco8yjjw9p686v3rigv79,3kgtpgbs61yjw2v7c9385d8467r2u0,LxKiirlt,2020-0188,2021-10-31,04:47:29,06:11:15,NA,incomplete,false,NA,NA,true,2,6,NA,NA,NA,left,n_l_048.jpg,gray,white,NA,NA,NA,NA,NA,NA,NA,NA,NA,NaN,NA,4223.664999939501,left,1,NA,NA,NA,NA,NA
LxKiirlt,3bawbgqgzoco8yjjw9p686v3rigv79,3kgtpgbs61yjw2v7c9385d8467r2u0,LxKiirlt,2020-0188,2021-10-31,04:47:29,06:11:15,NA,incomplete,false,NA,NA,true,2,7,NA,NA,NA,right,m_l_090.jpg,yellow,green,NA,NA,NA,NA,NA,NA,NA,NA,NA,NaN,NA,6167.109999805689,left,0,NA,NA,NA,NA,NA
LxKiirlt,3bawbgqgzoco8yjjw9p686v3rigv79,3kgtpgbs61yjw2v7c9385d8467r2u0,LxKiirlt,2020-0188,2021-10-31,04:47:29,06:11:15,NA,incomplete,false,NA,NA,true,2,8,NA,NA,NA,left,n_s_117.jpg,brown,purple,NA,NA,NA,NA,NA,NA,NA,NA,NA,NaN,NA,2495.23500027135,left,1,NA,NA,NA,NA,NA
LxKiirlt,3bawbgqgzoco8yjjw9p686v3rigv79,3kgtpgbs61yjw2v7c9385d8467r2u0,LxKiirlt,2020-0188,2021-10-31,04:47:29,06:11:15,NA,incomplete,false,NA,NA,true,2,9,NA,NA,NA,right,m_s_008.jpg,white,brown,NA,NA,NA,NA,NA,NA,NA,NA,NA,NaN,NA,2735.5849999003112,right,1,NA,NA,NA,NA,NA
LxKiirlt,3bawbgqgzoco8yjjw9p686v3rigv79,3kgtpgbs61yjw2v7c9385d8467r2u0,LxKiirlt,2020-0188,2021-10-31,04:47:29,06:11:15,NA,incomplete,false,NA,NA,true,2,10,NA,NA,NA,right,m_s_070.jpg,brown,white,NA,NA,NA,NA,NA,NA,NA,NA,NA,NaN,NA,3706.590000074357,left,0,NA,NA,NA,NA,NA
LxKiirlt,3bawbgqgzoco8yjjw9p686v3rigv79,3kgtpgbs61yjw2v7c9385d8467r2u0,LxKiirlt,2020-0188,2021-10-31,04:47:29,06:11:15,NA,incomplete,false,NA,NA,true,2,11,NA,NA,NA,right,m_s_062.jpg,brown,purple,NA,NA,NA,NA,NA,NA,NA,NA,NA,NaN,NA,3419.1749999299645,left,0,NA,NA,NA,NA,NA
LxKiirlt,3bawbgqgzoco8yjjw9p686v3rigv79,3kgtpgbs61yjw2v7c9385d8467r2u0,LxKiirlt,2020-0188,2021-10-31,04:47:29,06:11:15,NA,incomplete,false,NA,NA,true,2,12,NA,NA,NA,right,m_s_039.jpg,brown,purple,NA,NA,NA,NA,NA,NA,NA,NA,NA,NaN,NA,2179.9550000578165,right,1,NA,NA,NA,NA,NA
LxKiirlt,3bawbgqgzoco8yjjw9p686v3rigv79,3kgtpgbs61yjw2v7c9385d8467r2u0,LxKiirlt,2020-0188,2021-10-31,04:47:29,06:11:15,NA,incomplete,false,NA,NA,true,2,13,NA,NA,NA,right,m_s_091.jpg,purple,brown,NA,NA,NA,NA,NA,NA,NA,NA,NA,NaN,NA,2661.8750002235174,right,1,NA,NA,NA,NA,NA
LxKiirlt,3bawbgqgzoco8yjjw9p686v3rigv79,3kgtpgbs61yjw2v7c9385d8467r2u0,LxKiirlt,2020-0188,2021-10-31,04:47:29,06:11:15,NA,incomplete,false,NA,NA,true,2,14,NA,NA,NA,left,m_s_071.jpg,yellow,green,NA,NA,NA,NA,NA,NA,NA,NA,NA,NaN,NA,5970.770000014454,left,1,NA,NA,NA,NA,NA
LxKiirlt,3bawbgqgzoco8yjjw9p686v3rigv79,3kgtpgbs61yjw2v7c9385d8467r2u0,LxKiirlt,2020-0188,2021-10-31,04:47:29,06:11:15,NA,incomplete,false,NA,NA,true,2,15,NA,NA,NA,right,m_s_067.jpg,yellow,purple,NA,NA,NA,NA,NA,NA,NA,NA,NA,NaN,NA,2904.400000348687,right,1,NA,NA,NA,NA,NA
LxKiirlt,3bawbgqgzoco8yjjw9p686v3rigv79,3kgtpgbs61yjw2v7c9385d8467r2u0,LxKiirlt,2020-0188,2021-10-31,04:47:29,06:11:15,NA,incomplete,false,NA,NA,true,2,16,NA,NA,NA,left,n_l_067.jpg,brown,white,NA,NA,NA,NA,NA,NA,NA,NA,NA,NaN,NA,8846.624999772757,left,1,NA,NA,NA,NA,NA
LxKiirlt,3bawbgqgzoco8yjjw9p686v3rigv79,3kgtpgbs61yjw2v7c9385d8467r2u0,LxKiirlt,2020-0188,2021-10-31,04:47:29,06:11:15,NA,incomplete,false,NA,NA,true,2,17,NA,NA,NA,left,m_s_049.jpg,gray,white,NA,NA,NA,NA,NA,NA,NA,NA,NA,NaN,NA,2150.3350003622472,left,1,NA,NA,NA,NA,NA
LxKiirlt,3bawbgqgzoco8yjjw9p686v3rigv79,3kgtpgbs61yjw2v7c9385d8467r2u0,LxKiirlt,2020-0188,2021-10-31,04:47:29,06:11:15,NA,incomplete,false,NA,NA,true,2,18,NA,NA,NA,left,m_l_006.jpg,white,brown,NA,NA,NA,NA,NA,NA,NA,NA,NA,NaN,NA,2885.5650001205504,left,1,NA,NA,NA,NA,NA
LxKiirlt,3bawbgqgzoco8yjjw9p686v3rigv79,3kgtpgbs61yjw2v7c9385d8467r2u0,LxKiirlt,2020-0188,2021-10-31,04:47:29,06:11:15,NA,incomplete,false,NA,NA,true,2,19,NA,NA,NA,right,n_l_104.jpg,gray,white,NA,NA,NA,NA,NA,NA,NA,NA,NA,NaN,NA,5151.464999653399,right,1,NA,NA,NA,NA,NA
LxKiirlt,3bawbgqgzoco8yjjw9p686v3rigv79,3kgtpgbs61yjw2v7c9385d8467r2u0,LxKiirlt,2020-0188,2021-10-31,04:47:29,06:11:15,NA,incomplete,false,NA,NA,true,2,20,NA,NA,NA,right,n_l_075.jpg,brown,purple,NA,NA,NA,NA,NA,NA,NA,NA,NA,NaN,NA,3439.689999911934,left,0,NA,NA,NA,NA,NA
LxKiirlt,3bawbgqgzoco8yjjw9p686v3rigv79,3kgtpgbs61yjw2v7c9385d8467r2u0,LxKiirlt,2020-0188,2021-10-31,04:47:29,06:11:15,NA,incomplete,false,NA,NA,true,2,21,NA,NA,NA,right,n_l_091.jpg,green,yellow,NA,NA,NA,NA,NA,NA,NA,NA,NA,NaN,NA,2719.169999938458,right,1,NA,NA,NA,NA,NA
LxKiirlt,3bawbgqgzoco8yjjw9p686v3rigv79,3kgtpgbs61yjw2v7c9385d8467r2u0,LxKiirlt,2020-0188,2021-10-31,04:47:29,06:11:15,NA,incomplete,false,NA,true,NA,2,0,NA,NA,NA,right,NA,NA,NA,present,NA,NA,n_l_104.jpg,white,m_l_006.jpg,white,within,NA,NaN,NA,NA,NA,NA,right,5465.119999833405,1,2,1942.5800000317395
LxKiirlt,3bawbgqgzoco8yjjw9p686v3rigv79,3kgtpgbs61yjw2v7c9385d8467r2u0,LxKiirlt,2020-0188,2021-10-31,04:47:29,06:11:15,NA,incomplete,false,NA,true,NA,2,1,NA,NA,NA,right,NA,NA,NA,present,NA,NA,n_l_067.jpg,brown,m_s_070.jpg,white,between,NA,NaN,NA,NA,NA,NA,left,5328.8699998520315,0,2,1395.7199999131262
LxKiirlt,3bawbgqgzoco8yjjw9p686v3rigv79,3kgtpgbs61yjw2v7c9385d8467r2u0,LxKiirlt,2020-0188,2021-10-31,04:47:29,06:11:15,NA,incomplete,false,NA,true,NA,2,2,NA,NA,NA,right,NA,NA,NA,present,NA,NA,m_s_068.jpg,green,n_l_091.jpg,yellow,between,NA,NaN,NA,NA,NA,NA,left,9467.515000142157,0,2,1358.6299996823072
LxKiirlt,3bawbgqgzoco8yjjw9p686v3rigv79,3kgtpgbs61yjw2v7c9385d8467r2u0,LxKiirlt,2020-0188,2021-10-31,04:47:29,06:11:15,NA,incomplete,false,NA,true,NA,2,3,NA,NA,NA,left,NA,NA,NA,present,NA,NA,m_s_076.jpg,green,m_l_090.jpg,green,within,NA,NaN,NA,NA,NA,NA,left,3490.9500000067055,1,0,2355.05500016734
LxKiirlt,3bawbgqgzoco8yjjw9p686v3rigv79,3kgtpgbs61yjw2v7c9385d8467r2u0,LxKiirlt,2020-0188,2021-10-31,04:47:29,06:11:15,NA,incomplete,false,NA,true,NA,2,4,NA,NA,NA,right,NA,NA,NA,present,NA,NA,m_s_062.jpg,purple,m_s_008.jpg,brown,between,NA,NaN,NA,NA,NA,NA,left,4756.934999953955,0,2,1797.4449996836483
LxKiirlt,3bawbgqgzoco8yjjw9p686v3rigv79,3kgtpgbs61yjw2v7c9385d8467r2u0,LxKiirlt,2020-0188,2021-10-31,04:47:29,06:11:15,NA,incomplete,false,NA,true,NA,2,5,NA,NA,NA,left,NA,NA,NA,present,NA,NA,m_s_067.jpg,purple,n_l_075.jpg,purple,within,NA,NaN,NA,NA,NA,NA,left,3051.190000027418,1,1,1947.7650001645088
LxKiirlt,3bawbgqgzoco8yjjw9p686v3rigv79,3kgtpgbs61yjw2v7c9385d8467r2u0,LxKiirlt,2020-0188,2021-10-31,04:47:29,06:11:15,NA,incomplete,false,NA,true,NA,2,6,NA,NA,NA,right,NA,NA,NA,present,NA,NA,m_s_091.jpg,brown,n_s_117.jpg,brown,within,NA,NaN,NA,NA,NA,NA,right,3775.855000130832,1,1,1887.6550002023578
LxKiirlt,3bawbgqgzoco8yjjw9p686v3rigv79,3kgtpgbs61yjw2v7c9385d8467r2u0,LxKiirlt,2020-0188,2021-10-31,04:47:29,06:11:15,NA,incomplete,false,NA,true,NA,2,7,NA,NA,NA,right,NA,NA,NA,present,NA,NA,n_s_007.jpg,yellow,m_s_039.jpg,purple,between,NA,NaN,NA,NA,NA,NA,right,3189.540000166744,1,2,1319.6200001984835
LxKiirlt,3bawbgqgzoco8yjjw9p686v3rigv79,3kgtpgbs61yjw2v7c9385d8467r2u0,LxKiirlt,2020-0188,2021-10-31,04:47:29,06:11:15,NA,incomplete,false,NA,true,NA,2,8,NA,NA,NA,right,NA,NA,NA,present,NA,NA,m_s_071.jpg,yellow,m_l_102.jpg,yellow,within,NA,NaN,NA,NA,NA,NA,right,3857.5750002637506,1,0,1504.769999999553
LxKiirlt,3bawbgqgzoco8yjjw9p686v3rigv79,3kgtpgbs61yjw2v7c9385d8467r2u0,LxKiirlt,2020-0188,2021-10-31,04:47:29,06:11:15,NA,incomplete,false,NA,true,NA,2,9,NA,NA,NA,right,NA,NA,NA,present,NA,NA,m_s_104.jpg,white,m_s_049.jpg,gray,between,NA,NaN,NA,NA,NA,NA,left,6807.585000060499,0,2,1915.0499999523163
LxKiirlt,3bawbgqgzoco8yjjw9p686v3rigv79,3kgtpgbs61yjw2v7c9385d8467r2u0,LxKiirlt,2020-0188,2021-10-31,04:47:29,06:11:15,NA,incomplete,false,NA,true,NA,2,10,NA,NA,NA,right,NA,NA,NA,present,NA,NA,n_s_019.jpg,gray,n_l_048.jpg,gray,within,NA,NaN,NA,NA,NA,NA,left,3952.084999997169,0,0,2588.3849998936057
LxKiirlt,3bawbgqgzoco8yjjw9p686v3rigv79,3kgtpgbs61yjw2v7c9385d8467r2u0,LxKiirlt,2020-0188,2021-10-31,04:47:29,06:11:15,NA,incomplete,false,true,NA,NA,3,0,NA,brown,n_s_034.jpg,NA,NA,NA,NA,NA,unpleasant,pleasant,NA,NA,NA,NA,NA,left,2453.72000010684,true,NA,NA,NA,NA,NA,NA,NA,NA
LxKiirlt,3bawbgqgzoco8yjjw9p686v3rigv79,3kgtpgbs61yjw2v7c9385d8467r2u0,LxKiirlt,2020-0188,2021-10-31,04:47:29,06:11:15,NA,incomplete,false,true,NA,NA,3,1,NA,brown,n_l_008.jpg,NA,NA,NA,NA,NA,pleasant,unpleasant,NA,NA,NA,NA,NA,right,1991.50000000373,true,NA,NA,NA,NA,NA,NA,NA,NA
LxKiirlt,3bawbgqgzoco8yjjw9p686v3rigv79,3kgtpgbs61yjw2v7c9385d8467r2u0,LxKiirlt,2020-0188,2021-10-31,04:47:29,06:11:15,NA,incomplete,false,true,NA,NA,3,2,NA,brown,n_s_115.jpg,NA,NA,NA,NA,NA,pleasant,unpleasant,NA,NA,NA,NA,NA,left,1477.36500017345,true,NA,NA,NA,NA,NA,NA,NA,NA
LxKiirlt,3bawbgqgzoco8yjjw9p686v3rigv79,3kgtpgbs61yjw2v7c9385d8467r2u0,LxKiirlt,2020-0188,2021-10-31,04:47:29,06:11:15,NA,incomplete,false,true,NA,NA,3,3,NA,brown,n_l_034.jpg,NA,NA,NA,NA,NA,unpleasant,pleasant,NA,NA,NA,NA,NA,left,1745.46500016004,true,NA,NA,NA,NA,NA,NA,NA,NA
LxKiirlt,3bawbgqgzoco8yjjw9p686v3rigv79,3kgtpgbs61yjw2v7c9385d8467r2u0,LxKiirlt,2020-0188,2021-10-31,04:47:29,06:11:15,NA,incomplete,false,true,NA,NA,3,4,NA,brown,m_s_116.jpg,NA,NA,NA,NA,NA,pleasant,unpleasant,NA,NA,NA,NA,NA,right,2936.18499999866,true,NA,NA,NA,NA,NA,NA,NA,NA
LxKiirlt,3bawbgqgzoco8yjjw9p686v3rigv79,3kgtpgbs61yjw2v7c9385d8467r2u0,LxKiirlt,2020-0188,2021-10-31,04:47:29,06:11:15,NA,incomplete,false,true,NA,NA,3,5,NA,brown,m_s_026.jpg,NA,NA,NA,NA,NA,unpleasant,pleasant,NA,NA,NA,NA,NA,right,1880.69000001997,true,NA,NA,NA,NA,NA,NA,NA,NA
LxKiirlt,3bawbgqgzoco8yjjw9p686v3rigv79,3kgtpgbs61yjw2v7c9385d8467r2u0,LxKiirlt,2020-0188,2021-10-31,04:47:29,06:11:15,NA,incomplete,false,true,NA,NA,3,6,NA,white,n_l_086.jpg,NA,NA,NA,NA,NA,pleasant,unpleasant,NA,NA,NA,NA,NA,left,2554.60499972105,true,NA,NA,NA,NA,NA,NA,NA,NA
LxKiirlt,3bawbgqgzoco8yjjw9p686v3rigv79,3kgtpgbs61yjw2v7c9385d8467r2u0,LxKiirlt,2020-0188,2021-10-31,04:47:29,06:11:15,NA,incomplete,false,true,NA,NA,3,7,NA,white,m_l_034.jpg,NA,NA,NA,NA,NA,pleasant,unpleasant,NA,NA,NA,NA,NA,left,1555.03499973565,true,NA,NA,NA,NA,NA,NA,NA,NA
LxKiirlt,3bawbgqgzoco8yjjw9p686v3rigv79,3kgtpgbs61yjw2v7c9385d8467r2u0,LxKiirlt,2020-0188,2021-10-31,04:47:29,06:11:15,NA,incomplete,false,true,NA,NA,3,8,NA,white,m_l_036.jpg,NA,NA,NA,NA,NA,unpleasant,pleasant,NA,NA,NA,NA,NA,left,1641.80999994278,true,NA,NA,NA,NA,NA,NA,NA,NA
LxKiirlt,3bawbgqgzoco8yjjw9p686v3rigv79,3kgtpgbs61yjw2v7c9385d8467r2u0,LxKiirlt,2020-0188,2021-10-31,04:47:29,06:11:15,NA,incomplete,false,true,NA,NA,3,9,NA,white,m_l_110.jpg,NA,NA,NA,NA,NA,pleasant,unpleasant,NA,NA,NA,NA,NA,left,2080.10999998078,true,NA,NA,NA,NA,NA,NA,NA,NA
LxKiirlt,3bawbgqgzoco8yjjw9p686v3rigv79,3kgtpgbs61yjw2v7c9385d8467r2u0,LxKiirlt,2020-0188,2021-10-31,04:47:29,06:11:15,NA,incomplete,false,true,NA,NA,3,10,NA,white,m_s_018.jpg,NA,NA,NA,NA,NA,unpleasant,pleasant,NA,NA,NA,NA,NA,right,1389.5299998112,true,NA,NA,NA,NA,NA,NA,NA,NA
LxKiirlt,3bawbgqgzoco8yjjw9p686v3rigv79,3kgtpgbs61yjw2v7c9385d8467r2u0,LxKiirlt,2020-0188,2021-10-31,04:47:29,06:11:15,NA,incomplete,false,true,NA,NA,3,11,NA,white,n_l_030.jpg,NA,NA,NA,NA,NA,unpleasant,pleasant,NA,NA,NA,NA,NA,right,1524.44499963894,true,NA,NA,NA,NA,NA,NA,NA,NA
LxKiirlt,3bawbgqgzoco8yjjw9p686v3rigv79,3kgtpgbs61yjw2v7c9385d8467r2u0,LxKiirlt,2020-0188,2021-10-31,04:47:29,06:11:15,NA,incomplete,false,true,NA,NA,3,12,NA,orange,m_s_086.jpg,NA,NA,NA,NA,NA,unpleasant,pleasant,NA,NA,NA,NA,NA,left,1854.15499983355,true,NA,NA,NA,NA,NA,NA,NA,NA
LxKiirlt,3bawbgqgzoco8yjjw9p686v3rigv79,3kgtpgbs61yjw2v7c9385d8467r2u0,LxKiirlt,2020-0188,2021-10-31,04:47:29,06:11:15,NA,incomplete,false,true,NA,NA,3,13,NA,orange,n_l_088.jpg,NA,NA,NA,NA,NA,pleasant,unpleasant,NA,NA,NA,NA,NA,right,2605.63000012189,true,NA,NA,NA,NA,NA,NA,NA,NA
LxKiirlt,3bawbgqgzoco8yjjw9p686v3rigv79,3kgtpgbs61yjw2v7c9385d8467r2u0,LxKiirlt,2020-0188,2021-10-31,04:47:29,06:11:15,NA,incomplete,false,true,NA,NA,3,14,NA,orange,n_l_025.jpg,NA,NA,NA,NA,NA,pleasant,unpleasant,NA,NA,NA,NA,NA,right,1460.18500020728,true,NA,NA,NA,NA,NA,NA,NA,NA
LxKiirlt,3bawbgqgzoco8yjjw9p686v3rigv79,3kgtpgbs61yjw2v7c9385d8467r2u0,LxKiirlt,2020-0188,2021-10-31,04:47:29,06:11:15,NA,incomplete,false,true,NA,NA,3,15,NA,orange,n_s_022.jpg,NA,NA,NA,NA,NA,pleasant,unpleasant,NA,NA,NA,NA,NA,left,2738.94999967888,true,NA,NA,NA,NA,NA,NA,NA,NA
LxKiirlt,3bawbgqgzoco8yjjw9p686v3rigv79,3kgtpgbs61yjw2v7c9385d8467r2u0,LxKiirlt,2020-0188,2021-10-31,04:47:29,06:11:15,NA,incomplete,false,true,NA,NA,3,16,NA,orange,n_l_098.jpg,NA,NA,NA,NA,NA,unpleasant,pleasant,NA,NA,NA,NA,NA,right,1407.30500034988,true,NA,NA,NA,NA,NA,NA,NA,NA
LxKiirlt,3bawbgqgzoco8yjjw9p686v3rigv79,3kgtpgbs61yjw2v7c9385d8467r2u0,LxKiirlt,2020-0188,2021-10-31,04:47:29,06:11:15,NA,incomplete,false,true,NA,NA,3,17,NA,orange,n_l_082.jpg,NA,NA,NA,NA,NA,unpleasant,pleasant,NA,NA,NA,NA,NA,right,2079.28000018001,true,NA,NA,NA,NA,NA,NA,NA,NA
LxKiirlt,3bawbgqgzoco8yjjw9p686v3rigv79,3kgtpgbs61yjw2v7c9385d8467r2u0,LxKiirlt,2020-0188,2021-10-31,04:47:29,06:11:15,NA,incomplete,false,true,NA,NA,3,18,NA,red,m_l_116.jpg,NA,NA,NA,NA,NA,pleasant,unpleasant,NA,NA,NA,NA,NA,left,2498.73000010848,true,NA,NA,NA,NA,NA,NA,NA,NA
LxKiirlt,3bawbgqgzoco8yjjw9p686v3rigv79,3kgtpgbs61yjw2v7c9385d8467r2u0,LxKiirlt,2020-0188,2021-10-31,04:47:29,06:11:15,NA,incomplete,false,true,NA,NA,3,19,NA,red,m_s_020.jpg,NA,NA,NA,NA,NA,unpleasant,pleasant,NA,NA,NA,NA,NA,right,2176.64499999955,true,NA,NA,NA,NA,NA,NA,NA,NA
LxKiirlt,3bawbgqgzoco8yjjw9p686v3rigv79,3kgtpgbs61yjw2v7c9385d8467r2u0,LxKiirlt,2020-0188,2021-10-31,04:47:29,06:11:15,NA,incomplete,false,true,NA,NA,3,20,NA,red,m_l_027.jpg,NA,NA,NA,NA,NA,unpleasant,pleasant,NA,NA,NA,NA,NA,right,2028.64000014961,true,NA,NA,NA,NA,NA,NA,NA,NA
LxKiirlt,3bawbgqgzoco8yjjw9p686v3rigv79,3kgtpgbs61yjw2v7c9385d8467r2u0,LxKiirlt,2020-0188,2021-10-31,04:47:29,06:11:15,NA,incomplete,false,true,NA,NA,3,21,NA,red,n_l_032.jpg,NA,NA,NA,NA,NA,pleasant,unpleasant,NA,NA,NA,NA,NA,left,1818.23500012979,true,NA,NA,NA,NA,NA,NA,NA,NA
LxKiirlt,3bawbgqgzoco8yjjw9p686v3rigv79,3kgtpgbs61yjw2v7c9385d8467r2u0,LxKiirlt,2020-0188,2021-10-31,04:47:29,06:11:15,NA,incomplete,false,true,NA,NA,3,22,NA,red,n_s_029.jpg,NA,NA,NA,NA,NA,pleasant,unpleasant,NA,NA,NA,NA,NA,left,3472.87000017241,true,NA,NA,NA,NA,NA,NA,NA,NA
LxKiirlt,3bawbgqgzoco8yjjw9p686v3rigv79,3kgtpgbs61yjw2v7c9385d8467r2u0,LxKiirlt,2020-0188,2021-10-31,04:47:29,06:11:15,NA,incomplete,false,true,NA,NA,3,23,NA,red,n_l_038.jpg,NA,NA,NA,NA,NA,unpleasant,pleasant,NA,NA,NA,NA,NA,left,2403.47999986261,true,NA,NA,NA,NA,NA,NA,NA,NA
LxKiirlt,3bawbgqgzoco8yjjw9p686v3rigv79,3kgtpgbs61yjw2v7c9385d8467r2u0,LxKiirlt,2020-0188,2021-10-31,04:47:29,06:11:15,NA,incomplete,false,true,NA,NA,3,24,NA,black,n_s_058.jpg,NA,NA,NA,NA,NA,pleasant,unpleasant,NA,NA,NA,NA,NA,left,2435.73000002652,true,NA,NA,NA,NA,NA,NA,NA,NA
LxKiirlt,3bawbgqgzoco8yjjw9p686v3rigv79,3kgtpgbs61yjw2v7c9385d8467r2u0,LxKiirlt,2020-0188,2021-10-31,04:47:29,06:11:15,NA,incomplete,false,true,NA,NA,3,25,NA,black,m_l_011.jpg,NA,NA,NA,NA,NA,unpleasant,pleasant,NA,NA,NA,NA,NA,left,1484.86000020057,true,NA,NA,NA,NA,NA,NA,NA,NA
LxKiirlt,3bawbgqgzoco8yjjw9p686v3rigv79,3kgtpgbs61yjw2v7c9385d8467r2u0,LxKiirlt,2020-0188,2021-10-31,04:47:29,06:11:15,NA,incomplete,false,true,NA,NA,3,26,NA,black,m_l_003.jpg,NA,NA,NA,NA,NA,unpleasant,pleasant,NA,NA,NA,NA,NA,right,1759.37999971211,true,NA,NA,NA,NA,NA,NA,NA,NA
LxKiirlt,3bawbgqgzoco8yjjw9p686v3rigv79,3kgtpgbs61yjw2v7c9385d8467r2u0,LxKiirlt,2020-0188,2021-10-31,04:47:29,06:11:15,NA,incomplete,false,true,NA,NA,3,27,NA,black,n_l_114.jpg,NA,NA,NA,NA,NA,pleasant,unpleasant,NA,NA,NA,NA,NA,right,1712.01500017196,true,NA,NA,NA,NA,NA,NA,NA,NA
LxKiirlt,3bawbgqgzoco8yjjw9p686v3rigv79,3kgtpgbs61yjw2v7c9385d8467r2u0,LxKiirlt,2020-0188,2021-10-31,04:47:29,06:11:15,NA,incomplete,false,true,NA,NA,3,28,NA,black,m_l_004.jpg,NA,NA,NA,NA,NA,unpleasant,pleasant,NA,NA,NA,NA,NA,left,1904.74999975413,true,NA,NA,NA,NA,NA,NA,NA,NA
LxKiirlt,3bawbgqgzoco8yjjw9p686v3rigv79,3kgtpgbs61yjw2v7c9385d8467r2u0,LxKiirlt,2020-0188,2021-10-31,04:47:29,06:11:15,NA,incomplete,false,true,NA,NA,3,29,NA,black,n_s_059.jpg,NA,NA,NA,NA,NA,unpleasant,pleasant,NA,NA,NA,NA,NA,right,2196.70500000939,true,NA,NA,NA,NA,NA,NA,NA,NA
LxKiirlt,3bawbgqgzoco8yjjw9p686v3rigv79,3kgtpgbs61yjw2v7c9385d8467r2u0,LxKiirlt,2020-0188,2021-10-31,04:47:29,06:11:15,NA,incomplete,false,true,NA,NA,3,30,NA,purple,m_s_019.jpg,NA,NA,NA,NA,NA,pleasant,unpleasant,NA,NA,NA,NA,NA,left,1249.16499992833,true,NA,NA,NA,NA,NA,NA,NA,NA
LxKiirlt,3bawbgqgzoco8yjjw9p686v3rigv79,3kgtpgbs61yjw2v7c9385d8467r2u0,LxKiirlt,2020-0188,2021-10-31,04:47:29,06:11:15,NA,incomplete,false,true,NA,NA,3,31,NA,purple,m_s_007.jpg,NA,NA,NA,NA,NA,unpleasant,pleasant,NA,NA,NA,NA,NA,right,1614.17500022799,true,NA,NA,NA,NA,NA,NA,NA,NA
LxKiirlt,3bawbgqgzoco8yjjw9p686v3rigv79,3kgtpgbs61yjw2v7c9385d8467r2u0,LxKiirlt,2020-0188,2021-10-31,04:47:29,06:11:15,NA,incomplete,false,true,NA,NA,3,32,NA,purple,m_l_056.jpg,NA,NA,NA,NA,NA,unpleasant,pleasant,NA,NA,NA,NA,NA,right,1222.69000019878,true,NA,NA,NA,NA,NA,NA,NA,NA
LxKiirlt,3bawbgqgzoco8yjjw9p686v3rigv79,3kgtpgbs61yjw2v7c9385d8467r2u0,LxKiirlt,2020-0188,2021-10-31,04:47:29,06:11:15,NA,incomplete,false,true,NA,NA,3,33,NA,purple,m_l_046.jpg,NA,NA,NA,NA,NA,pleasant,unpleasant,NA,NA,NA,NA,NA,left,1228.39999990538,true,NA,NA,NA,NA,NA,NA,NA,NA
LxKiirlt,3bawbgqgzoco8yjjw9p686v3rigv79,3kgtpgbs61yjw2v7c9385d8467r2u0,LxKiirlt,2020-0188,2021-10-31,04:47:29,06:11:15,NA,incomplete,false,true,NA,NA,3,34,NA,purple,m_l_103.jpg,NA,NA,NA,NA,NA,unpleasant,pleasant,NA,NA,NA,NA,NA,right,1560.99000014365,true,NA,NA,NA,NA,NA,NA,NA,NA
LxKiirlt,3bawbgqgzoco8yjjw9p686v3rigv79,3kgtpgbs61yjw2v7c9385d8467r2u0,LxKiirlt,2020-0188,2021-10-31,04:47:29,06:11:15,NA,incomplete,false,true,NA,NA,3,35,NA,purple,m_l_099.jpg,NA,NA,NA,NA,NA,unpleasant,pleasant,NA,NA,NA,NA,NA,right,1406.43499977887,true,NA,NA,NA,NA,NA,NA,NA,NA
LxKiirlt,3bawbgqgzoco8yjjw9p686v3rigv79,3kgtpgbs61yjw2v7c9385d8467r2u0,LxKiirlt,2020-0188,2021-10-31,04:47:29,06:11:15,NA,incomplete,false,NA,NA,true,3,0,NA,NA,NA,right,m_s_007.jpg,black,purple,NA,NA,NA,NA,NA,NA,NA,NA,NA,NaN,NA,6550.1950001344085,right,1,NA,NA,NA,NA,NA
LxKiirlt,3bawbgqgzoco8yjjw9p686v3rigv79,3kgtpgbs61yjw2v7c9385d8467r2u0,LxKiirlt,2020-0188,2021-10-31,04:47:29,06:11:15,NA,incomplete,false,NA,NA,true,3,1,NA,NA,NA,right,n_l_082.jpg,red,orange,NA,NA,NA,NA,NA,NA,NA,NA,NA,NaN,NA,3747.910000383854,right,1,NA,NA,NA,NA,NA
LxKiirlt,3bawbgqgzoco8yjjw9p686v3rigv79,3kgtpgbs61yjw2v7c9385d8467r2u0,LxKiirlt,2020-0188,2021-10-31,04:47:29,06:11:15,NA,incomplete,false,NA,NA,true,3,2,NA,NA,NA,right,m_l_056.jpg,black,purple,NA,NA,NA,NA,NA,NA,NA,NA,NA,NaN,NA,2836.875000037253,right,1,NA,NA,NA,NA,NA
LxKiirlt,3bawbgqgzoco8yjjw9p686v3rigv79,3kgtpgbs61yjw2v7c9385d8467r2u0,LxKiirlt,2020-0188,2021-10-31,04:47:29,06:11:15,NA,incomplete,false,NA,NA,true,3,3,NA,NA,NA,right,n_l_088.jpg,white,orange,NA,NA,NA,NA,NA,NA,NA,NA,NA,NaN,NA,2387.525000143796,right,1,NA,NA,NA,NA,NA
LxKiirlt,3bawbgqgzoco8yjjw9p686v3rigv79,3kgtpgbs61yjw2v7c9385d8467r2u0,LxKiirlt,2020-0188,2021-10-31,04:47:29,06:11:15,NA,incomplete,false,NA,NA,true,3,4,NA,NA,NA,right,n_l_098.jpg,white,orange,NA,NA,NA,NA,NA,NA,NA,NA,NA,NaN,NA,2462.8650001250207,right,1,NA,NA,NA,NA,NA
LxKiirlt,3bawbgqgzoco8yjjw9p686v3rigv79,3kgtpgbs61yjw2v7c9385d8467r2u0,LxKiirlt,2020-0188,2021-10-31,04:47:29,06:11:15,NA,incomplete,false,NA,NA,true,3,5,NA,NA,NA,left,m_s_026.jpg,brown,white,NA,NA,NA,NA,NA,NA,NA,NA,NA,NaN,NA,2349.6849997900426,left,1,NA,NA,NA,NA,NA
LxKiirlt,3bawbgqgzoco8yjjw9p686v3rigv79,3kgtpgbs61yjw2v7c9385d8467r2u0,LxKiirlt,2020-0188,2021-10-31,04:47:29,06:11:15,NA,incomplete,false,NA,NA,true,3,6,NA,NA,NA,left,n_l_038.jpg,red,orange,NA,NA,NA,NA,NA,NA,NA,NA,NA,NaN,NA,3571.155000012368,left,1,NA,NA,NA,NA,NA
LxKiirlt,3bawbgqgzoco8yjjw9p686v3rigv79,3kgtpgbs61yjw2v7c9385d8467r2u0,LxKiirlt,2020-0188,2021-10-31,04:47:29,06:11:15,NA,incomplete,false,NA,NA,true,3,7,NA,NA,NA,left,m_l_011.jpg,black,red,NA,NA,NA,NA,NA,NA,NA,NA,NA,NaN,NA,3453.6150000058115,left,1,NA,NA,NA,NA,NA
LxKiirlt,3bawbgqgzoco8yjjw9p686v3rigv79,3kgtpgbs61yjw2v7c9385d8467r2u0,LxKiirlt,2020-0188,2021-10-31,04:47:29,06:11:15,NA,incomplete,false,NA,NA,true,3,8,NA,NA,NA,left,m_l_003.jpg,black,purple,NA,NA,NA,NA,NA,NA,NA,NA,NA,NaN,NA,2067.249999847263,left,1,NA,NA,NA,NA,NA
LxKiirlt,3bawbgqgzoco8yjjw9p686v3rigv79,3kgtpgbs61yjw2v7c9385d8467r2u0,LxKiirlt,2020-0188,2021-10-31,04:47:29,06:11:15,NA,incomplete,false,NA,NA,true,3,9,NA,NA,NA,right,m_l_036.jpg,brown,white,NA,NA,NA,NA,NA,NA,NA,NA,NA,NaN,NA,2681.639999616891,right,1,NA,NA,NA,NA,NA
LxKiirlt,3bawbgqgzoco8yjjw9p686v3rigv79,3kgtpgbs61yjw2v7c9385d8467r2u0,LxKiirlt,2020-0188,2021-10-31,04:47:29,06:11:15,NA,incomplete,false,NA,NA,true,3,10,NA,NA,NA,left,n_l_030.jpg,white,orange,NA,NA,NA,NA,NA,NA,NA,NA,NA,NaN,NA,1720.2300000935793,right,0,NA,NA,NA,NA,NA
LxKiirlt,3bawbgqgzoco8yjjw9p686v3rigv79,3kgtpgbs61yjw2v7c9385d8467r2u0,LxKiirlt,2020-0188,2021-10-31,04:47:29,06:11:15,NA,incomplete,false,NA,NA,true,3,11,NA,NA,NA,left,n_s_029.jpg,red,black,NA,NA,NA,NA,NA,NA,NA,NA,NA,NaN,NA,2107.864999677986,left,1,NA,NA,NA,NA,NA
LxKiirlt,3bawbgqgzoco8yjjw9p686v3rigv79,3kgtpgbs61yjw2v7c9385d8467r2u0,LxKiirlt,2020-0188,2021-10-31,04:47:29,06:11:15,NA,incomplete,false,NA,NA,true,3,12,NA,NA,NA,right,n_s_059.jpg,red,black,NA,NA,NA,NA,NA,NA,NA,NA,NA,NaN,NA,3738.4950001724064,right,1,NA,NA,NA,NA,NA
LxKiirlt,3bawbgqgzoco8yjjw9p686v3rigv79,3kgtpgbs61yjw2v7c9385d8467r2u0,LxKiirlt,2020-0188,2021-10-31,04:47:29,06:11:15,NA,incomplete,false,NA,NA,true,3,13,NA,NA,NA,left,m_l_027.jpg,red,black,NA,NA,NA,NA,NA,NA,NA,NA,NA,NaN,NA,3310.7950002886355,left,1,NA,NA,NA,NA,NA
LxKiirlt,3bawbgqgzoco8yjjw9p686v3rigv79,3kgtpgbs61yjw2v7c9385d8467r2u0,LxKiirlt,2020-0188,2021-10-31,04:47:29,06:11:15,NA,incomplete,false,NA,NA,true,3,14,NA,NA,NA,left,m_s_116.jpg,brown,white,NA,NA,NA,NA,NA,NA,NA,NA,NA,NaN,NA,4259.984999895096,left,1,NA,NA,NA,NA,NA
LxKiirlt,3bawbgqgzoco8yjjw9p686v3rigv79,3kgtpgbs61yjw2v7c9385d8467r2u0,LxKiirlt,2020-0188,2021-10-31,04:47:29,06:11:15,NA,incomplete,false,NA,NA,true,3,15,NA,NA,NA,right,m_s_018.jpg,brown,white,NA,NA,NA,NA,NA,NA,NA,NA,NA,NaN,NA,2839.3900003284216,right,1,NA,NA,NA,NA,NA
LxKiirlt,3bawbgqgzoco8yjjw9p686v3rigv79,3kgtpgbs61yjw2v7c9385d8467r2u0,LxKiirlt,2020-0188,2021-10-31,04:47:29,06:11:15,NA,incomplete,false,NA,NA,true,3,16,NA,NA,NA,right,m_l_099.jpg,black,purple,NA,NA,NA,NA,NA,NA,NA,NA,NA,NaN,NA,1931.7949996329844,right,1,NA,NA,NA,NA,NA
LxKiirlt,3bawbgqgzoco8yjjw9p686v3rigv79,3kgtpgbs61yjw2v7c9385d8467r2u0,LxKiirlt,2020-0188,2021-10-31,04:47:29,06:11:15,NA,incomplete,false,NA,NA,true,3,17,NA,NA,NA,left,n_l_008.jpg,brown,white,NA,NA,NA,NA,NA,NA,NA,NA,NA,NaN,NA,1886.214999947697,left,1,NA,NA,NA,NA,NA
LxKiirlt,3bawbgqgzoco8yjjw9p686v3rigv79,3kgtpgbs61yjw2v7c9385d8467r2u0,LxKiirlt,2020-0188,2021-10-31,04:47:29,06:11:15,NA,incomplete,false,NA,NA,true,3,18,NA,NA,NA,left,m_l_004.jpg,black,red,NA,NA,NA,NA,NA,NA,NA,NA,NA,NaN,NA,1870.8750000223517,left,1,NA,NA,NA,NA,NA
LxKiirlt,3bawbgqgzoco8yjjw9p686v3rigv79,3kgtpgbs61yjw2v7c9385d8467r2u0,LxKiirlt,2020-0188,2021-10-31,04:47:29,06:11:15,NA,incomplete,false,NA,NA,true,3,19,NA,NA,NA,right,m_s_020.jpg,black,red,NA,NA,NA,NA,NA,NA,NA,NA,NA,NaN,NA,1720.8500001579523,right,1,NA,NA,NA,NA,NA
LxKiirlt,3bawbgqgzoco8yjjw9p686v3rigv79,3kgtpgbs61yjw2v7c9385d8467r2u0,LxKiirlt,2020-0188,2021-10-31,04:47:29,06:11:15,NA,incomplete,false,NA,NA,true,3,20,NA,NA,NA,right,m_l_034.jpg,orange,white,NA,NA,NA,NA,NA,NA,NA,NA,NA,NaN,NA,2060.9550001099706,right,1,NA,NA,NA,NA,NA
LxKiirlt,3bawbgqgzoco8yjjw9p686v3rigv79,3kgtpgbs61yjw2v7c9385d8467r2u0,LxKiirlt,2020-0188,2021-10-31,04:47:29,06:11:15,NA,incomplete,false,NA,NA,true,3,21,NA,NA,NA,left,n_l_025.jpg,orange,white,NA,NA,NA,NA,NA,NA,NA,NA,NA,NaN,NA,1706.6750000230968,right,0,NA,NA,NA,NA,NA
LxKiirlt,3bawbgqgzoco8yjjw9p686v3rigv79,3kgtpgbs61yjw2v7c9385d8467r2u0,LxKiirlt,2020-0188,2021-10-31,04:47:29,06:11:15,NA,incomplete,false,NA,true,NA,3,0,NA,NA,NA,left,NA,NA,NA,present,NA,NA,m_s_007.jpg,purple,m_l_099.jpg,purple,within,NA,NaN,NA,NA,NA,NA,left,5774.740000255406,1,1,1809.9050000309944
LxKiirlt,3bawbgqgzoco8yjjw9p686v3rigv79,3kgtpgbs61yjw2v7c9385d8467r2u0,LxKiirlt,2020-0188,2021-10-31,04:47:29,06:11:15,NA,incomplete,false,NA,true,NA,3,1,NA,NA,NA,right,NA,NA,NA,present,NA,NA,n_l_030.jpg,white,m_l_034.jpg,white,within,NA,NaN,NA,NA,NA,NA,right,3897.2799996845424,1,1,3677.4699999950826
LxKiirlt,3bawbgqgzoco8yjjw9p686v3rigv79,3kgtpgbs61yjw2v7c9385d8467r2u0,LxKiirlt,2020-0188,2021-10-31,04:47:29,06:11:15,NA,incomplete,false,NA,true,NA,3,2,NA,NA,NA,right,NA,NA,NA,present,NA,NA,n_l_082.jpg,orange,n_l_088.jpg,orange,within,NA,NaN,NA,NA,NA,NA,left,3751.9700000993907,0,0,1648.7150001339614
LxKiirlt,3bawbgqgzoco8yjjw9p686v3rigv79,3kgtpgbs61yjw2v7c9385d8467r2u0,LxKiirlt,2020-0188,2021-10-31,04:47:29,06:11:15,NA,incomplete,false,NA,true,NA,3,3,NA,NA,NA,left,NA,NA,NA,present,NA,NA,n_l_008.jpg,brown,m_s_026.jpg,brown,within,NA,NaN,NA,NA,NA,NA,left,3332.5749998912215,1,1,1557.2249996475875
LxKiirlt,3bawbgqgzoco8yjjw9p686v3rigv79,3kgtpgbs61yjw2v7c9385d8467r2u0,LxKiirlt,2020-0188,2021-10-31,04:47:29,06:11:15,NA,incomplete,false,NA,true,NA,3,4,NA,NA,NA,left,NA,NA,NA,present,NA,NA,m_s_116.jpg,brown,m_l_036.jpg,white,between,NA,NaN,NA,NA,NA,NA,left,2608.6450000293553,1,2,2326.3799999840558
LxKiirlt,3bawbgqgzoco8yjjw9p686v3rigv79,3kgtpgbs61yjw2v7c9385d8467r2u0,LxKiirlt,2020-0188,2021-10-31,04:47:29,06:11:15,NA,incomplete,false,NA,true,NA,3,5,NA,NA,NA,left,NA,NA,NA,present,NA,NA,n_s_029.jpg,red,m_l_003.jpg,black,between,NA,NaN,NA,NA,NA,NA,left,6233.459999784827,1,2,1704.5900002121925
LxKiirlt,3bawbgqgzoco8yjjw9p686v3rigv79,3kgtpgbs61yjw2v7c9385d8467r2u0,LxKiirlt,2020-0188,2021-10-31,04:47:29,06:11:15,NA,incomplete,false,NA,true,NA,3,6,NA,NA,NA,left,NA,NA,NA,present,NA,NA,m_l_011.jpg,black,n_s_059.jpg,black,within,NA,NaN,NA,NA,NA,NA,left,5038.739999756217,1,0,2405.894999857992
LxKiirlt,3bawbgqgzoco8yjjw9p686v3rigv79,3kgtpgbs61yjw2v7c9385d8467r2u0,LxKiirlt,2020-0188,2021-10-31,04:47:29,06:11:15,NA,incomplete,false,NA,true,NA,3,7,NA,NA,NA,right,NA,NA,NA,present,NA,NA,n_l_038.jpg,red,m_s_020.jpg,red,within,NA,NaN,NA,NA,NA,NA,right,3144.6050000377,1,0,2833.695000037551
LxKiirlt,3bawbgqgzoco8yjjw9p686v3rigv79,3kgtpgbs61yjw2v7c9385d8467r2u0,LxKiirlt,2020-0188,2021-10-31,04:47:29,06:11:15,NA,incomplete,false,NA,true,NA,3,8,NA,NA,NA,left,NA,NA,NA,present,NA,NA,m_s_018.jpg,white,n_l_025.jpg,orange,between,NA,NaN,NA,NA,NA,NA,right,9019.47999978438,0,2,1553.665000014007
LxKiirlt,3bawbgqgzoco8yjjw9p686v3rigv79,3kgtpgbs61yjw2v7c9385d8467r2u0,LxKiirlt,2020-0188,2021-10-31,04:47:29,06:11:15,NA,incomplete,false,NA,true,NA,3,9,NA,NA,NA,left,NA,NA,NA,present,NA,NA,n_l_098.jpg,orange,m_l_027.jpg,red,between,NA,NaN,NA,NA,NA,NA,left,5786.935000214726,1,2,1539.6099998615682
LxKiirlt,3bawbgqgzoco8yjjw9p686v3rigv79,3kgtpgbs61yjw2v7c9385d8467r2u0,LxKiirlt,2020-0188,2021-10-31,04:47:29,06:11:15,NA,incomplete,false,NA,true,NA,3,10,NA,NA,NA,left,NA,NA,NA,present,NA,NA,m_l_004.jpg,black,m_l_056.jpg,purple,between,NA,NaN,NA,NA,NA,NA,left,4245.634999591857,1,3,2521.470000036061
LxKiirlt,3bawbgqgzoco8yjjw9p686v3rigv79,3kgtpgbs61yjw2v7c9385d8467r2u0,LxKiirlt,2020-0188,2021-10-31,04:47:29,06:11:15,NA,incomplete,false,true,NA,NA,4,0,NA,red,n_l_029.jpg,NA,NA,NA,NA,NA,pleasant,unpleasant,NA,NA,NA,NA,NA,left,1684.8249998875,true,NA,NA,NA,NA,NA,NA,NA,NA
LxKiirlt,3bawbgqgzoco8yjjw9p686v3rigv79,3kgtpgbs61yjw2v7c9385d8467r2u0,LxKiirlt,2020-0188,2021-10-31,04:47:29,06:11:15,NA,incomplete,false,true,NA,NA,4,1,NA,red,n_s_083.jpg,NA,NA,NA,NA,NA,unpleasant,pleasant,NA,NA,NA,NA,NA,right,1487.75500012562,true,NA,NA,NA,NA,NA,NA,NA,NA
LxKiirlt,3bawbgqgzoco8yjjw9p686v3rigv79,3kgtpgbs61yjw2v7c9385d8467r2u0,LxKiirlt,2020-0188,2021-10-31,04:47:29,06:11:15,NA,incomplete,false,true,NA,NA,4,2,NA,red,m_s_015.jpg,NA,NA,NA,NA,NA,pleasant,unpleasant,NA,NA,NA,NA,NA,left,1302.85499989986,true,NA,NA,NA,NA,NA,NA,NA,NA
LxKiirlt,3bawbgqgzoco8yjjw9p686v3rigv79,3kgtpgbs61yjw2v7c9385d8467r2u0,LxKiirlt,2020-0188,2021-10-31,04:47:29,06:11:15,NA,incomplete,false,true,NA,NA,4,3,NA,red,m_l_010.jpg,NA,NA,NA,NA,NA,unpleasant,pleasant,NA,NA,NA,NA,NA,right,1096.72500006855,true,NA,NA,NA,NA,NA,NA,NA,NA
LxKiirlt,3bawbgqgzoco8yjjw9p686v3rigv79,3kgtpgbs61yjw2v7c9385d8467r2u0,LxKiirlt,2020-0188,2021-10-31,04:47:29,06:11:15,NA,incomplete,false,true,NA,NA,4,4,NA,red,m_s_002.jpg,NA,NA,NA,NA,NA,pleasant,unpleasant,NA,NA,NA,NA,NA,left,1743.52000001818,true,NA,NA,NA,NA,NA,NA,NA,NA
LxKiirlt,3bawbgqgzoco8yjjw9p686v3rigv79,3kgtpgbs61yjw2v7c9385d8467r2u0,LxKiirlt,2020-0188,2021-10-31,04:47:29,06:11:15,NA,incomplete,false,true,NA,NA,4,5,NA,red,m_s_035.jpg,NA,NA,NA,NA,NA,unpleasant,pleasant,NA,NA,NA,NA,NA,right,1232.55500011146,true,NA,NA,NA,NA,NA,NA,NA,NA
LxKiirlt,3bawbgqgzoco8yjjw9p686v3rigv79,3kgtpgbs61yjw2v7c9385d8467r2u0,LxKiirlt,2020-0188,2021-10-31,04:47:29,06:11:15,NA,incomplete,false,true,NA,NA,4,6,NA,white,n_l_100.jpg,NA,NA,NA,NA,NA,unpleasant,pleasant,NA,NA,NA,NA,NA,right,1449.45999979973,true,NA,NA,NA,NA,NA,NA,NA,NA
LxKiirlt,3bawbgqgzoco8yjjw9p686v3rigv79,3kgtpgbs61yjw2v7c9385d8467r2u0,LxKiirlt,2020-0188,2021-10-31,04:47:29,06:11:15,NA,incomplete,false,true,NA,NA,4,7,NA,white,m_s_028.jpg,NA,NA,NA,NA,NA,pleasant,unpleasant,NA,NA,NA,NA,NA,left,1315.82000013441,true,NA,NA,NA,NA,NA,NA,NA,NA
LxKiirlt,3bawbgqgzoco8yjjw9p686v3rigv79,3kgtpgbs61yjw2v7c9385d8467r2u0,LxKiirlt,2020-0188,2021-10-31,04:47:29,06:11:15,NA,incomplete,false,true,NA,NA,4,8,NA,white,m_s_084.jpg,NA,NA,NA,NA,NA,pleasant,unpleasant,NA,NA,NA,NA,NA,left,1181.72500003129,true,NA,NA,NA,NA,NA,NA,NA,NA
LxKiirlt,3bawbgqgzoco8yjjw9p686v3rigv79,3kgtpgbs61yjw2v7c9385d8467r2u0,LxKiirlt,2020-0188,2021-10-31,04:47:29,06:11:15,NA,incomplete,false,true,NA,NA,4,9,NA,white,m_s_101.jpg,NA,NA,NA,NA,NA,unpleasant,pleasant,NA,NA,NA,NA,NA,right,1505.15000009909,true,NA,NA,NA,NA,NA,NA,NA,NA
LxKiirlt,3bawbgqgzoco8yjjw9p686v3rigv79,3kgtpgbs61yjw2v7c9385d8467r2u0,LxKiirlt,2020-0188,2021-10-31,04:47:29,06:11:15,NA,incomplete,false,true,NA,NA,4,10,NA,white,n_s_070.jpg,NA,NA,NA,NA,NA,pleasant,unpleasant,NA,NA,NA,NA,NA,left,1528.18999998271,true,NA,NA,NA,NA,NA,NA,NA,NA
LxKiirlt,3bawbgqgzoco8yjjw9p686v3rigv79,3kgtpgbs61yjw2v7c9385d8467r2u0,LxKiirlt,2020-0188,2021-10-31,04:47:29,06:11:15,NA,incomplete,false,true,NA,NA,4,11,NA,white,n_l_035.jpg,NA,NA,NA,NA,NA,pleasant,unpleasant,NA,NA,NA,NA,NA,left,1076.94500032812,true,NA,NA,NA,NA,NA,NA,NA,NA
LxKiirlt,3bawbgqgzoco8yjjw9p686v3rigv79,3kgtpgbs61yjw2v7c9385d8467r2u0,LxKiirlt,2020-0188,2021-10-31,04:47:29,06:11:15,NA,incomplete,false,true,NA,NA,4,12,NA,green,n_l_016.jpg,NA,NA,NA,NA,NA,pleasant,unpleasant,NA,NA,NA,NA,NA,left,2470.20500013605,true,NA,NA,NA,NA,NA,NA,NA,NA
LxKiirlt,3bawbgqgzoco8yjjw9p686v3rigv79,3kgtpgbs61yjw2v7c9385d8467r2u0,LxKiirlt,2020-0188,2021-10-31,04:47:29,06:11:15,NA,incomplete,false,true,NA,NA,4,13,NA,green,n_s_001.jpg,NA,NA,NA,NA,NA,pleasant,unpleasant,NA,NA,NA,NA,NA,left,2499.60999982432,true,NA,NA,NA,NA,NA,NA,NA,NA
LxKiirlt,3bawbgqgzoco8yjjw9p686v3rigv79,3kgtpgbs61yjw2v7c9385d8467r2u0,LxKiirlt,2020-0188,2021-10-31,04:47:29,06:11:15,NA,incomplete,false,true,NA,NA,4,14,NA,green,n_l_078.jpg,NA,NA,NA,NA,NA,pleasant,unpleasant,NA,NA,NA,NA,NA,left,1474.70499994233,true,NA,NA,NA,NA,NA,NA,NA,NA
LxKiirlt,3bawbgqgzoco8yjjw9p686v3rigv79,3kgtpgbs61yjw2v7c9385d8467r2u0,LxKiirlt,2020-0188,2021-10-31,04:47:29,06:11:15,NA,incomplete,false,true,NA,NA,4,15,NA,green,n_s_069.jpg,NA,NA,NA,NA,NA,pleasant,unpleasant,NA,NA,NA,NA,NA,left,1220.96000006422,true,NA,NA,NA,NA,NA,NA,NA,NA
LxKiirlt,3bawbgqgzoco8yjjw9p686v3rigv79,3kgtpgbs61yjw2v7c9385d8467r2u0,LxKiirlt,2020-0188,2021-10-31,04:47:29,06:11:15,NA,incomplete,false,true,NA,NA,4,16,NA,green,m_l_087.jpg,NA,NA,NA,NA,NA,unpleasant,pleasant,NA,NA,NA,NA,NA,right,1524.53000005335,true,NA,NA,NA,NA,NA,NA,NA,NA
LxKiirlt,3bawbgqgzoco8yjjw9p686v3rigv79,3kgtpgbs61yjw2v7c9385d8467r2u0,LxKiirlt,2020-0188,2021-10-31,04:47:29,06:11:15,NA,incomplete,false,true,NA,NA,4,17,NA,green,m_l_063.jpg,NA,NA,NA,NA,NA,pleasant,unpleasant,NA,NA,NA,NA,NA,left,1364.5850000903,true,NA,NA,NA,NA,NA,NA,NA,NA
LxKiirlt,3bawbgqgzoco8yjjw9p686v3rigv79,3kgtpgbs61yjw2v7c9385d8467r2u0,LxKiirlt,2020-0188,2021-10-31,04:47:29,06:11:15,NA,incomplete,false,true,NA,NA,4,18,NA,gray,m_l_049.jpg,NA,NA,NA,NA,NA,pleasant,unpleasant,NA,NA,NA,NA,NA,left,2529.96500022709,true,NA,NA,NA,NA,NA,NA,NA,NA
LxKiirlt,3bawbgqgzoco8yjjw9p686v3rigv79,3kgtpgbs61yjw2v7c9385d8467r2u0,LxKiirlt,2020-0188,2021-10-31,04:47:29,06:11:15,NA,incomplete,false,true,NA,NA,4,19,NA,gray,n_s_075.jpg,NA,NA,NA,NA,NA,unpleasant,pleasant,NA,NA,NA,NA,NA,left,2348.52999961004,true,NA,NA,NA,NA,NA,NA,NA,NA
LxKiirlt,3bawbgqgzoco8yjjw9p686v3rigv79,3kgtpgbs61yjw2v7c9385d8467r2u0,LxKiirlt,2020-0188,2021-10-31,04:47:29,06:11:15,NA,incomplete,false,true,NA,NA,4,20,NA,gray,n_l_039.jpg,NA,NA,NA,NA,NA,unpleasant,pleasant,NA,NA,NA,NA,NA,right,1821.66500017047,true,NA,NA,NA,NA,NA,NA,NA,NA
LxKiirlt,3bawbgqgzoco8yjjw9p686v3rigv79,3kgtpgbs61yjw2v7c9385d8467r2u0,LxKiirlt,2020-0188,2021-10-31,04:47:29,06:11:15,NA,incomplete,false,true,NA,NA,4,21,NA,gray,n_l_010.jpg,NA,NA,NA,NA,NA,pleasant,unpleasant,NA,NA,NA,NA,NA,left,1314.68999991193,true,NA,NA,NA,NA,NA,NA,NA,NA
LxKiirlt,3bawbgqgzoco8yjjw9p686v3rigv79,3kgtpgbs61yjw2v7c9385d8467r2u0,LxKiirlt,2020-0188,2021-10-31,04:47:29,06:11:15,NA,incomplete,false,true,NA,NA,4,22,NA,gray,n_s_091.jpg,NA,NA,NA,NA,NA,pleasant,unpleasant,NA,NA,NA,NA,NA,right,1438.91499983147,true,NA,NA,NA,NA,NA,NA,NA,NA
LxKiirlt,3bawbgqgzoco8yjjw9p686v3rigv79,3kgtpgbs61yjw2v7c9385d8467r2u0,LxKiirlt,2020-0188,2021-10-31,04:47:29,06:11:15,NA,incomplete,false,true,NA,NA,4,23,NA,gray,m_l_007.jpg,NA,NA,NA,NA,NA,pleasant,unpleasant,NA,NA,NA,NA,NA,left,1873.12000012025,true,NA,NA,NA,NA,NA,NA,NA,NA
LxKiirlt,3bawbgqgzoco8yjjw9p686v3rigv79,3kgtpgbs61yjw2v7c9385d8467r2u0,LxKiirlt,2020-0188,2021-10-31,04:47:29,06:11:15,NA,incomplete,false,true,NA,NA,4,24,NA,orange,n_l_002.jpg,NA,NA,NA,NA,NA,pleasant,unpleasant,NA,NA,NA,NA,NA,left,1467.55999978632,true,NA,NA,NA,NA,NA,NA,NA,NA
LxKiirlt,3bawbgqgzoco8yjjw9p686v3rigv79,3kgtpgbs61yjw2v7c9385d8467r2u0,LxKiirlt,2020-0188,2021-10-31,04:47:29,06:11:15,NA,incomplete,false,true,NA,NA,4,25,NA,orange,m_s_107.jpg,NA,NA,NA,NA,NA,unpleasant,pleasant,NA,NA,NA,NA,NA,left,2575.1600000076,true,NA,NA,NA,NA,NA,NA,NA,NA
LxKiirlt,3bawbgqgzoco8yjjw9p686v3rigv79,3kgtpgbs61yjw2v7c9385d8467r2u0,LxKiirlt,2020-0188,2021-10-31,04:47:29,06:11:15,NA,incomplete,false,true,NA,NA,4,26,NA,orange,m_s_075.jpg,NA,NA,NA,NA,NA,unpleasant,pleasant,NA,NA,NA,NA,NA,right,2372.21499998122,true,NA,NA,NA,NA,NA,NA,NA,NA
LxKiirlt,3bawbgqgzoco8yjjw9p686v3rigv79,3kgtpgbs61yjw2v7c9385d8467r2u0,LxKiirlt,2020-0188,2021-10-31,04:47:29,06:11:15,NA,incomplete,false,true,NA,NA,4,27,NA,orange,n_l_076.jpg,NA,NA,NA,NA,NA,pleasant,unpleasant,NA,NA,NA,NA,NA,right,1815.78000029549,true,NA,NA,NA,NA,NA,NA,NA,NA
LxKiirlt,3bawbgqgzoco8yjjw9p686v3rigv79,3kgtpgbs61yjw2v7c9385d8467r2u0,LxKiirlt,2020-0188,2021-10-31,04:47:29,06:11:15,NA,incomplete,false,true,NA,NA,4,28,NA,orange,m_l_117.jpg,NA,NA,NA,NA,NA,unpleasant,pleasant,NA,NA,NA,NA,NA,right,1777.29499991983,true,NA,NA,NA,NA,NA,NA,NA,NA
LxKiirlt,3bawbgqgzoco8yjjw9p686v3rigv79,3kgtpgbs61yjw2v7c9385d8467r2u0,LxKiirlt,2020-0188,2021-10-31,04:47:29,06:11:15,NA,incomplete,false,true,NA,NA,4,29,NA,orange,n_l_013.jpg,NA,NA,NA,NA,NA,unpleasant,pleasant,NA,NA,NA,NA,NA,right,1304.35999995098,true,NA,NA,NA,NA,NA,NA,NA,NA
LxKiirlt,3bawbgqgzoco8yjjw9p686v3rigv79,3kgtpgbs61yjw2v7c9385d8467r2u0,LxKiirlt,2020-0188,2021-10-31,04:47:29,06:11:15,NA,incomplete,false,true,NA,NA,4,30,NA,black,m_l_082.jpg,NA,NA,NA,NA,NA,pleasant,unpleasant,NA,NA,NA,NA,NA,right,2421.08000023291,true,NA,NA,NA,NA,NA,NA,NA,NA
LxKiirlt,3bawbgqgzoco8yjjw9p686v3rigv79,3kgtpgbs61yjw2v7c9385d8467r2u0,LxKiirlt,2020-0188,2021-10-31,04:47:29,06:11:15,NA,incomplete,false,true,NA,NA,4,31,NA,black,m_l_100.jpg,NA,NA,NA,NA,NA,unpleasant,pleasant,NA,NA,NA,NA,NA,right,1836.15500014275,true,NA,NA,NA,NA,NA,NA,NA,NA
LxKiirlt,3bawbgqgzoco8yjjw9p686v3rigv79,3kgtpgbs61yjw2v7c9385d8467r2u0,LxKiirlt,2020-0188,2021-10-31,04:47:29,06:11:15,NA,incomplete,false,true,NA,NA,4,32,NA,black,n_s_065.jpg,NA,NA,NA,NA,NA,pleasant,unpleasant,NA,NA,NA,NA,NA,right,1765.0349996984,true,NA,NA,NA,NA,NA,NA,NA,NA
LxKiirlt,3bawbgqgzoco8yjjw9p686v3rigv79,3kgtpgbs61yjw2v7c9385d8467r2u0,LxKiirlt,2020-0188,2021-10-31,04:47:29,06:11:15,NA,incomplete,false,true,NA,NA,4,33,NA,black,m_s_114.jpg,NA,NA,NA,NA,NA,unpleasant,pleasant,NA,NA,NA,NA,NA,right,2282.82999992371,true,NA,NA,NA,NA,NA,NA,NA,NA
LxKiirlt,3bawbgqgzoco8yjjw9p686v3rigv79,3kgtpgbs61yjw2v7c9385d8467r2u0,LxKiirlt,2020-0188,2021-10-31,04:47:29,06:11:15,NA,incomplete,false,true,NA,NA,4,34,NA,black,n_s_095.jpg,NA,NA,NA,NA,NA,unpleasant,pleasant,NA,NA,NA,NA,NA,right,2309.94000006467,true,NA,NA,NA,NA,NA,NA,NA,NA
LxKiirlt,3bawbgqgzoco8yjjw9p686v3rigv79,3kgtpgbs61yjw2v7c9385d8467r2u0,LxKiirlt,2020-0188,2021-10-31,04:47:29,06:11:15,NA,incomplete,false,true,NA,NA,4,35,NA,black,m_s_034.jpg,NA,NA,NA,NA,NA,pleasant,unpleasant,NA,NA,NA,NA,NA,left,1668.57000021264,true,NA,NA,NA,NA,NA,NA,NA,NA
LxKiirlt,3bawbgqgzoco8yjjw9p686v3rigv79,3kgtpgbs61yjw2v7c9385d8467r2u0,LxKiirlt,2020-0188,2021-10-31,04:47:29,06:11:15,NA,incomplete,false,NA,NA,true,4,0,NA,NA,NA,right,n_s_075.jpg,orange,gray,NA,NA,NA,NA,NA,NA,NA,NA,NA,NaN,NA,6657.3499999940395,right,1,NA,NA,NA,NA,NA
LxKiirlt,3bawbgqgzoco8yjjw9p686v3rigv79,3kgtpgbs61yjw2v7c9385d8467r2u0,LxKiirlt,2020-0188,2021-10-31,04:47:29,06:11:15,NA,incomplete,false,NA,NA,true,4,1,NA,NA,NA,left,m_s_034.jpg,black,orange,NA,NA,NA,NA,NA,NA,NA,NA,NA,NaN,NA,2840.0599998421967,left,1,NA,NA,NA,NA,NA
LxKiirlt,3bawbgqgzoco8yjjw9p686v3rigv79,3kgtpgbs61yjw2v7c9385d8467r2u0,LxKiirlt,2020-0188,2021-10-31,04:47:29,06:11:15,NA,incomplete,false,NA,NA,true,4,2,NA,NA,NA,right,m_l_087.jpg,white,green,NA,NA,NA,NA,NA,NA,NA,NA,NA,NaN,NA,2112.439999822527,right,1,NA,NA,NA,NA,NA
LxKiirlt,3bawbgqgzoco8yjjw9p686v3rigv79,3kgtpgbs61yjw2v7c9385d8467r2u0,LxKiirlt,2020-0188,2021-10-31,04:47:29,06:11:15,NA,incomplete,false,NA,NA,true,4,3,NA,NA,NA,left,n_l_013.jpg,orange,gray,NA,NA,NA,NA,NA,NA,NA,NA,NA,NaN,NA,4280.490000266582,right,0,NA,NA,NA,NA,NA
LxKiirlt,3bawbgqgzoco8yjjw9p686v3rigv79,3kgtpgbs61yjw2v7c9385d8467r2u0,LxKiirlt,2020-0188,2021-10-31,04:47:29,06:11:15,NA,incomplete,false,NA,NA,true,4,4,NA,NA,NA,right,m_l_007.jpg,orange,gray,NA,NA,NA,NA,NA,NA,NA,NA,NA,NaN,NA,1970.3850001096725,left,0,NA,NA,NA,NA,NA
LxKiirlt,3bawbgqgzoco8yjjw9p686v3rigv79,3kgtpgbs61yjw2v7c9385d8467r2u0,LxKiirlt,2020-0188,2021-10-31,04:47:29,06:11:15,NA,incomplete,false,NA,NA,true,4,5,NA,NA,NA,right,m_s_075.jpg,gray,orange,NA,NA,NA,NA,NA,NA,NA,NA,NA,NaN,NA,2105.2950001321733,right,1,NA,NA,NA,NA,NA
LxKiirlt,3bawbgqgzoco8yjjw9p686v3rigv79,3kgtpgbs61yjw2v7c9385d8467r2u0,LxKiirlt,2020-0188,2021-10-31,04:47:29,06:11:15,NA,incomplete,false,NA,NA,true,4,6,NA,NA,NA,left,n_s_083.jpg,red,white,NA,NA,NA,NA,NA,NA,NA,NA,NA,NaN,NA,6371.985000092536,left,1,NA,NA,NA,NA,NA
LxKiirlt,3bawbgqgzoco8yjjw9p686v3rigv79,3kgtpgbs61yjw2v7c9385d8467r2u0,LxKiirlt,2020-0188,2021-10-31,04:47:29,06:11:15,NA,incomplete,false,NA,NA,true,4,7,NA,NA,NA,right,m_l_100.jpg,orange,black,NA,NA,NA,NA,NA,NA,NA,NA,NA,NaN,NA,2699.4500001892447,right,1,NA,NA,NA,NA,NA
LxKiirlt,3bawbgqgzoco8yjjw9p686v3rigv79,3kgtpgbs61yjw2v7c9385d8467r2u0,LxKiirlt,2020-0188,2021-10-31,04:47:29,06:11:15,NA,incomplete,false,NA,NA,true,4,8,NA,NA,NA,right,m_l_063.jpg,gray,green,NA,NA,NA,NA,NA,NA,NA,NA,NA,NaN,NA,1763.8999996706843,right,1,NA,NA,NA,NA,NA
LxKiirlt,3bawbgqgzoco8yjjw9p686v3rigv79,3kgtpgbs61yjw2v7c9385d8467r2u0,LxKiirlt,2020-0188,2021-10-31,04:47:29,06:11:15,NA,incomplete,false,NA,NA,true,4,9,NA,NA,NA,left,m_s_035.jpg,red,white,NA,NA,NA,NA,NA,NA,NA,NA,NA,NaN,NA,1909.3049997463822,left,1,NA,NA,NA,NA,NA
LxKiirlt,3bawbgqgzoco8yjjw9p686v3rigv79,3kgtpgbs61yjw2v7c9385d8467r2u0,LxKiirlt,2020-0188,2021-10-31,04:47:29,06:11:15,NA,incomplete,false,NA,NA,true,4,10,NA,NA,NA,right,n_s_001.jpg,gray,green,NA,NA,NA,NA,NA,NA,NA,NA,NA,NaN,NA,1842.7200000733137,right,1,NA,NA,NA,NA,NA
LxKiirlt,3bawbgqgzoco8yjjw9p686v3rigv79,3kgtpgbs61yjw2v7c9385d8467r2u0,LxKiirlt,2020-0188,2021-10-31,04:47:29,06:11:15,NA,incomplete,false,NA,NA,true,4,11,NA,NA,NA,left,n_l_039.jpg,gray,orange,NA,NA,NA,NA,NA,NA,NA,NA,NA,NaN,NA,2678.499999921769,left,1,NA,NA,NA,NA,NA
LxKiirlt,3bawbgqgzoco8yjjw9p686v3rigv79,3kgtpgbs61yjw2v7c9385d8467r2u0,LxKiirlt,2020-0188,2021-10-31,04:47:29,06:11:15,NA,incomplete,false,NA,NA,true,4,12,NA,NA,NA,right,m_l_117.jpg,black,orange,NA,NA,NA,NA,NA,NA,NA,NA,NA,NaN,NA,1961.955000180751,right,1,NA,NA,NA,NA,NA
LxKiirlt,3bawbgqgzoco8yjjw9p686v3rigv79,3kgtpgbs61yjw2v7c9385d8467r2u0,LxKiirlt,2020-0188,2021-10-31,04:47:29,06:11:15,NA,incomplete,false,NA,NA,true,4,13,NA,NA,NA,left,n_l_078.jpg,green,gray,NA,NA,NA,NA,NA,NA,NA,NA,NA,NaN,NA,2069.5150000974536,left,1,NA,NA,NA,NA,NA
LxKiirlt,3bawbgqgzoco8yjjw9p686v3rigv79,3kgtpgbs61yjw2v7c9385d8467r2u0,LxKiirlt,2020-0188,2021-10-31,04:47:29,06:11:15,NA,incomplete,false,NA,NA,true,4,14,NA,NA,NA,right,n_s_065.jpg,orange,black,NA,NA,NA,NA,NA,NA,NA,NA,NA,NaN,NA,4168.14999980852,right,1,NA,NA,NA,NA,NA
LxKiirlt,3bawbgqgzoco8yjjw9p686v3rigv79,3kgtpgbs61yjw2v7c9385d8467r2u0,LxKiirlt,2020-0188,2021-10-31,04:47:29,06:11:15,NA,incomplete,false,NA,NA,true,4,15,NA,NA,NA,left,m_s_084.jpg,white,red,NA,NA,NA,NA,NA,NA,NA,NA,NA,NaN,NA,1979.764999821782,right,0,NA,NA,NA,NA,NA
LxKiirlt,3bawbgqgzoco8yjjw9p686v3rigv79,3kgtpgbs61yjw2v7c9385d8467r2u0,LxKiirlt,2020-0188,2021-10-31,04:47:29,06:11:15,NA,incomplete,false,NA,NA,true,4,16,NA,NA,NA,right,m_s_002.jpg,white,red,NA,NA,NA,NA,NA,NA,NA,NA,NA,NaN,NA,1733.0549997277558,right,1,NA,NA,NA,NA,NA
LxKiirlt,3bawbgqgzoco8yjjw9p686v3rigv79,3kgtpgbs61yjw2v7c9385d8467r2u0,LxKiirlt,2020-0188,2021-10-31,04:47:29,06:11:15,NA,incomplete,false,NA,NA,true,4,17,NA,NA,NA,right,n_l_035.jpg,red,white,NA,NA,NA,NA,NA,NA,NA,NA,NA,NaN,NA,1747.2250000573695,right,1,NA,NA,NA,NA,NA
LxKiirlt,3bawbgqgzoco8yjjw9p686v3rigv79,3kgtpgbs61yjw2v7c9385d8467r2u0,LxKiirlt,2020-0188,2021-10-31,04:47:29,06:11:15,NA,incomplete,false,NA,NA,true,4,18,NA,NA,NA,right,n_s_091.jpg,orange,gray,NA,NA,NA,NA,NA,NA,NA,NA,NA,NaN,NA,2224.0749998018146,left,0,NA,NA,NA,NA,NA
LxKiirlt,3bawbgqgzoco8yjjw9p686v3rigv79,3kgtpgbs61yjw2v7c9385d8467r2u0,LxKiirlt,2020-0188,2021-10-31,04:47:29,06:11:15,NA,incomplete,false,NA,NA,true,4,19,NA,NA,NA,left,n_s_070.jpg,white,red,NA,NA,NA,NA,NA,NA,NA,NA,NA,NaN,NA,1816.0799997858703,left,1,NA,NA,NA,NA,NA
LxKiirlt,3bawbgqgzoco8yjjw9p686v3rigv79,3kgtpgbs61yjw2v7c9385d8467r2u0,LxKiirlt,2020-0188,2021-10-31,04:47:29,06:11:15,NA,incomplete,false,NA,NA,true,4,20,NA,NA,NA,left,m_s_107.jpg,orange,gray,NA,NA,NA,NA,NA,NA,NA,NA,NA,NaN,NA,1970.1899997889996,left,1,NA,NA,NA,NA,NA
LxKiirlt,3bawbgqgzoco8yjjw9p686v3rigv79,3kgtpgbs61yjw2v7c9385d8467r2u0,LxKiirlt,2020-0188,2021-10-31,04:47:29,06:11:15,NA,incomplete,false,NA,NA,true,4,21,NA,NA,NA,right,m_s_028.jpg,red,white,NA,NA,NA,NA,NA,NA,NA,NA,NA,NaN,NA,3818.1199999526143,right,1,NA,NA,NA,NA,NA
LxKiirlt,3bawbgqgzoco8yjjw9p686v3rigv79,3kgtpgbs61yjw2v7c9385d8467r2u0,LxKiirlt,2020-0188,2021-10-31,04:47:29,06:11:15,NA,incomplete,false,NA,true,NA,4,0,NA,NA,NA,right,NA,NA,NA,present,NA,NA,n_l_039.jpg,gray,m_l_087.jpg,green,between,NA,NaN,NA,NA,NA,NA,right,10549.319999758154,1,2,2359.3300003558397
LxKiirlt,3bawbgqgzoco8yjjw9p686v3rigv79,3kgtpgbs61yjw2v7c9385d8467r2u0,LxKiirlt,2020-0188,2021-10-31,04:47:29,06:11:15,NA,incomplete,false,NA,true,NA,4,1,NA,NA,NA,left,NA,NA,NA,present,NA,NA,m_l_100.jpg,black,m_s_034.jpg,black,within,NA,NaN,NA,NA,NA,NA,left,3665.664999745786,1,1,1630.364999640733
LxKiirlt,3bawbgqgzoco8yjjw9p686v3rigv79,3kgtpgbs61yjw2v7c9385d8467r2u0,LxKiirlt,2020-0188,2021-10-31,04:47:29,06:11:15,NA,incomplete,false,NA,true,NA,4,2,NA,NA,NA,left,NA,NA,NA,present,NA,NA,n_s_083.jpg,red,m_s_035.jpg,red,within,NA,NaN,NA,NA,NA,NA,right,3915.9200000576675,0,2,7338.889999780804
LxKiirlt,3bawbgqgzoco8yjjw9p686v3rigv79,3kgtpgbs61yjw2v7c9385d8467r2u0,LxKiirlt,2020-0188,2021-10-31,04:47:29,06:11:15,NA,incomplete,false,NA,true,NA,4,3,NA,NA,NA,left,NA,NA,NA,present,NA,NA,m_s_028.jpg,white,n_l_035.jpg,white,within,NA,NaN,NA,NA,NA,NA,right,4936.619999818504,0,1,1710.4849996976554
LxKiirlt,3bawbgqgzoco8yjjw9p686v3rigv79,3kgtpgbs61yjw2v7c9385d8467r2u0,LxKiirlt,2020-0188,2021-10-31,04:47:29,06:11:15,NA,incomplete,false,NA,true,NA,4,4,NA,NA,NA,left,NA,NA,NA,present,NA,NA,n_s_070.jpg,white,n_l_078.jpg,green,between,NA,NaN,NA,NA,NA,NA,left,4196.590000297874,1,2,2821.919999551028
LxKiirlt,3bawbgqgzoco8yjjw9p686v3rigv79,3kgtpgbs61yjw2v7c9385d8467r2u0,LxKiirlt,2020-0188,2021-10-31,04:47:29,06:11:15,NA,incomplete,false,NA,true,NA,4,5,NA,NA,NA,right,NA,NA,NA,present,NA,NA,m_s_084.jpg,white,m_s_002.jpg,red,between,NA,NaN,NA,NA,NA,NA,left,2807.3249999433756,0,2,3056.5499998629093
LxKiirlt,3bawbgqgzoco8yjjw9p686v3rigv79,3kgtpgbs61yjw2v7c9385d8467r2u0,LxKiirlt,2020-0188,2021-10-31,04:47:29,06:11:15,NA,incomplete,false,NA,true,NA,4,6,NA,NA,NA,left,NA,NA,NA,present,NA,NA,m_l_117.jpg,orange,n_s_065.jpg,black,between,NA,NaN,NA,NA,NA,NA,right,3032.230000011623,0,2,1289.6900000050664
LxKiirlt,3bawbgqgzoco8yjjw9p686v3rigv79,3kgtpgbs61yjw2v7c9385d8467r2u0,LxKiirlt,2020-0188,2021-10-31,04:47:29,06:11:15,NA,incomplete,false,NA,true,NA,4,7,NA,NA,NA,left,NA,NA,NA,present,NA,NA,m_s_107.jpg,orange,n_l_013.jpg,orange,within,NA,NaN,NA,NA,NA,NA,right,4804.959999863058,0,1,2100.5750000476837
LxKiirlt,3bawbgqgzoco8yjjw9p686v3rigv79,3kgtpgbs61yjw2v7c9385d8467r2u0,LxKiirlt,2020-0188,2021-10-31,04:47:29,06:11:15,NA,incomplete,false,NA,true,NA,4,8,NA,NA,NA,left,NA,NA,NA,present,NA,NA,n_s_001.jpg,green,m_l_063.jpg,green,within,NA,NaN,NA,NA,NA,NA,right,3490.8549999818206,0,1,5072.8750000707805
LxKiirlt,3bawbgqgzoco8yjjw9p686v3rigv79,3kgtpgbs61yjw2v7c9385d8467r2u0,LxKiirlt,2020-0188,2021-10-31,04:47:29,06:11:15,NA,incomplete,false,NA,true,NA,4,9,NA,NA,NA,left,NA,NA,NA,present,NA,NA,n_s_075.jpg,gray,m_l_007.jpg,gray,within,NA,NaN,NA,NA,NA,NA,left,4869.565000291914,1,2,1690.9799999557436
LxKiirlt,3bawbgqgzoco8yjjw9p686v3rigv79,3kgtpgbs61yjw2v7c9385d8467r2u0,LxKiirlt,2020-0188,2021-10-31,04:47:29,06:11:15,NA,incomplete,false,NA,true,NA,4,10,NA,NA,NA,left,NA,NA,NA,present,NA,NA,n_s_091.jpg,gray,m_s_075.jpg,orange,between,NA,NaN,NA,NA,NA,NA,right,2726.7100000754,0,2,2185.930000152439
LxKiirlt,3bawbgqgzoco8yjjw9p686v3rigv79,3kgtpgbs61yjw2v7c9385d8467r2u0,LxKiirlt,2020-0188,2021-10-31,04:47:29,06:11:15,NA,incomplete,false,true,NA,NA,5,0,NA,blue,n_s_003.jpg,NA,NA,NA,NA,NA,pleasant,unpleasant,NA,NA,NA,NA,NA,right,2710.91500017792,true,NA,NA,NA,NA,NA,NA,NA,NA
LxKiirlt,3bawbgqgzoco8yjjw9p686v3rigv79,3kgtpgbs61yjw2v7c9385d8467r2u0,LxKiirlt,2020-0188,2021-10-31,04:47:29,06:11:15,NA,incomplete,false,true,NA,NA,5,1,NA,blue,n_l_042.jpg,NA,NA,NA,NA,NA,pleasant,unpleasant,NA,NA,NA,NA,NA,right,1481.06499994174,true,NA,NA,NA,NA,NA,NA,NA,NA
LxKiirlt,3bawbgqgzoco8yjjw9p686v3rigv79,3kgtpgbs61yjw2v7c9385d8467r2u0,LxKiirlt,2020-0188,2021-10-31,04:47:29,06:11:15,NA,incomplete,false,true,NA,NA,5,2,NA,blue,m_s_003.jpg,NA,NA,NA,NA,NA,pleasant,unpleasant,NA,NA,NA,NA,NA,left,1892.82499998808,true,NA,NA,NA,NA,NA,NA,NA,NA
LxKiirlt,3bawbgqgzoco8yjjw9p686v3rigv79,3kgtpgbs61yjw2v7c9385d8467r2u0,LxKiirlt,2020-0188,2021-10-31,04:47:29,06:11:15,NA,incomplete,false,true,NA,NA,5,3,NA,blue,m_l_021.jpg,NA,NA,NA,NA,NA,unpleasant,pleasant,NA,NA,NA,NA,NA,right,1382.55499955267,true,NA,NA,NA,NA,NA,NA,NA,NA
LxKiirlt,3bawbgqgzoco8yjjw9p686v3rigv79,3kgtpgbs61yjw2v7c9385d8467r2u0,LxKiirlt,2020-0188,2021-10-31,04:47:29,06:11:15,NA,incomplete,false,true,NA,NA,5,4,NA,blue,m_l_012.jpg,NA,NA,NA,NA,NA,pleasant,unpleasant,NA,NA,NA,NA,NA,left,1254.7549996525,true,NA,NA,NA,NA,NA,NA,NA,NA
LxKiirlt,3bawbgqgzoco8yjjw9p686v3rigv79,3kgtpgbs61yjw2v7c9385d8467r2u0,LxKiirlt,2020-0188,2021-10-31,04:47:29,06:11:15,NA,incomplete,false,true,NA,NA,5,5,NA,blue,m_l_104.jpg,NA,NA,NA,NA,NA,unpleasant,pleasant,NA,NA,NA,NA,NA,right,1415.13499990106,true,NA,NA,NA,NA,NA,NA,NA,NA
LxKiirlt,3bawbgqgzoco8yjjw9p686v3rigv79,3kgtpgbs61yjw2v7c9385d8467r2u0,LxKiirlt,2020-0188,2021-10-31,04:47:29,06:11:15,NA,incomplete,false,true,NA,NA,5,6,NA,green,m_s_030.jpg,NA,NA,NA,NA,NA,unpleasant,pleasant,NA,NA,NA,NA,NA,right,1433.67999978364,true,NA,NA,NA,NA,NA,NA,NA,NA
LxKiirlt,3bawbgqgzoco8yjjw9p686v3rigv79,3kgtpgbs61yjw2v7c9385d8467r2u0,LxKiirlt,2020-0188,2021-10-31,04:47:29,06:11:15,NA,incomplete,false,true,NA,NA,5,7,NA,green,n_l_111.jpg,NA,NA,NA,NA,NA,unpleasant,pleasant,NA,NA,NA,NA,NA,right,1572.53499981016,true,NA,NA,NA,NA,NA,NA,NA,NA
LxKiirlt,3bawbgqgzoco8yjjw9p686v3rigv79,3kgtpgbs61yjw2v7c9385d8467r2u0,LxKiirlt,2020-0188,2021-10-31,04:47:29,06:11:15,NA,incomplete,false,true,NA,NA,5,8,NA,green,m_s_047.jpg,NA,NA,NA,NA,NA,pleasant,unpleasant,NA,NA,NA,NA,NA,right,2710.03499999642,true,NA,NA,NA,NA,NA,NA,NA,NA
LxKiirlt,3bawbgqgzoco8yjjw9p686v3rigv79,3kgtpgbs61yjw2v7c9385d8467r2u0,LxKiirlt,2020-0188,2021-10-31,04:47:29,06:11:15,NA,incomplete,false,true,NA,NA,5,9,NA,green,m_l_096.jpg,NA,NA,NA,NA,NA,unpleasant,pleasant,NA,NA,NA,NA,NA,right,2164.49499968439,true,NA,NA,NA,NA,NA,NA,NA,NA
LxKiirlt,3bawbgqgzoco8yjjw9p686v3rigv79,3kgtpgbs61yjw2v7c9385d8467r2u0,LxKiirlt,2020-0188,2021-10-31,04:47:29,06:11:15,NA,incomplete,false,true,NA,NA,5,10,NA,green,n_s_042.jpg,NA,NA,NA,NA,NA,pleasant,unpleasant,NA,NA,NA,NA,NA,right,1502.37500015646,true,NA,NA,NA,NA,NA,NA,NA,NA
LxKiirlt,3bawbgqgzoco8yjjw9p686v3rigv79,3kgtpgbs61yjw2v7c9385d8467r2u0,LxKiirlt,2020-0188,2021-10-31,04:47:29,06:11:15,NA,incomplete,false,true,NA,NA,5,11,NA,green,m_s_111.jpg,NA,NA,NA,NA,NA,pleasant,unpleasant,NA,NA,NA,NA,NA,left,1196.86000002548,true,NA,NA,NA,NA,NA,NA,NA,NA
LxKiirlt,3bawbgqgzoco8yjjw9p686v3rigv79,3kgtpgbs61yjw2v7c9385d8467r2u0,LxKiirlt,2020-0188,2021-10-31,04:47:29,06:11:15,NA,incomplete,false,true,NA,NA,5,12,NA,orange,n_l_037.jpg,NA,NA,NA,NA,NA,pleasant,unpleasant,NA,NA,NA,NA,NA,right,1306.72500003129,true,NA,NA,NA,NA,NA,NA,NA,NA
