workerId,hitId,assignmentId,subject,studyid,exp_date,exp_start,exp_end,time_start,time_end,practice,encoding,memory,association,block,trial,event_order,event,stim,answer,object,left_context,right_context,context_type,label_left,label_right,left_image,left_event,right_image,right_event,condition,response,response_time,response_acc,association_response_time,association_response,association_acc,order_response,order_response_time,order_acc,distance_response,distance_response_time
IrSMhe7E,3k2cedradeesg9mhvkrgq648pmomto,3l2is5hsfevflok0ys1sx1b2i6kunu,IrSMhe7E,2020-0188,2021-11-01,20:03:21,21:37:48,NA,incomplete,true,true,NA,NA,0,0,NA,blue,m_l_060.jpg,NA,NA,NA,NA,NA,pleasant,unpleasant,NA,NA,NA,NA,NA,right,2528.59999999963,true,NA,NA,NA,NA,NA,NA,NA,NA
IrSMhe7E,3k2cedradeesg9mhvkrgq648pmomto,3l2is5hsfevflok0ys1sx1b2i6kunu,IrSMhe7E,2020-0188,2021-11-01,20:03:21,21:37:48,NA,incomplete,true,true,NA,NA,0,1,NA,blue,m_l_093.jpg,NA,NA,NA,NA,NA,unpleasant,pleasant,NA,NA,NA,NA,NA,left,2112.5,true,NA,NA,NA,NA,NA,NA,NA,NA
IrSMhe7E,3k2cedradeesg9mhvkrgq648pmomto,3l2is5hsfevflok0ys1sx1b2i6kunu,IrSMhe7E,2020-0188,2021-11-01,20:03:21,21:37:48,NA,incomplete,true,true,NA,NA,0,2,NA,blue,m_s_006.jpg,NA,NA,NA,NA,NA,unpleasant,pleasant,NA,NA,NA,NA,NA,right,1218.70000000112,true,NA,NA,NA,NA,NA,NA,NA,NA
IrSMhe7E,3k2cedradeesg9mhvkrgq648pmomto,3l2is5hsfevflok0ys1sx1b2i6kunu,IrSMhe7E,2020-0188,2021-11-01,20:03:21,21:37:48,NA,incomplete,true,true,NA,NA,0,3,NA,blue,n_s_096.jpg,NA,NA,NA,NA,NA,pleasant,unpleasant,NA,NA,NA,NA,NA,right,1259.29999999888,true,NA,NA,NA,NA,NA,NA,NA,NA
IrSMhe7E,3k2cedradeesg9mhvkrgq648pmomto,3l2is5hsfevflok0ys1sx1b2i6kunu,IrSMhe7E,2020-0188,2021-11-01,20:03:21,21:37:48,NA,incomplete,true,true,NA,NA,0,4,NA,blue,m_l_107.jpg,NA,NA,NA,NA,NA,unpleasant,pleasant,NA,NA,NA,NA,NA,left,1751.80000000075,true,NA,NA,NA,NA,NA,NA,NA,NA
IrSMhe7E,3k2cedradeesg9mhvkrgq648pmomto,3l2is5hsfevflok0ys1sx1b2i6kunu,IrSMhe7E,2020-0188,2021-11-01,20:03:21,21:37:48,NA,incomplete,true,true,NA,NA,0,5,NA,blue,m_l_007.jpg,NA,NA,NA,NA,NA,pleasant,unpleasant,NA,NA,NA,NA,NA,left,1153.29999999888,true,NA,NA,NA,NA,NA,NA,NA,NA
IrSMhe7E,3k2cedradeesg9mhvkrgq648pmomto,3l2is5hsfevflok0ys1sx1b2i6kunu,IrSMhe7E,2020-0188,2021-11-01,20:03:21,21:37:48,NA,incomplete,true,true,NA,NA,0,6,NA,red,m_l_059.jpg,NA,NA,NA,NA,NA,unpleasant,pleasant,NA,NA,NA,NA,NA,right,1262.40000000037,true,NA,NA,NA,NA,NA,NA,NA,NA
IrSMhe7E,3k2cedradeesg9mhvkrgq648pmomto,3l2is5hsfevflok0ys1sx1b2i6kunu,IrSMhe7E,2020-0188,2021-11-01,20:03:21,21:37:48,NA,incomplete,true,true,NA,NA,0,7,NA,red,m_l_082.jpg,NA,NA,NA,NA,NA,pleasant,unpleasant,NA,NA,NA,NA,NA,left,1433.09999999963,true,NA,NA,NA,NA,NA,NA,NA,NA
IrSMhe7E,3k2cedradeesg9mhvkrgq648pmomto,3l2is5hsfevflok0ys1sx1b2i6kunu,IrSMhe7E,2020-0188,2021-11-01,20:03:21,21:37:48,NA,incomplete,true,true,NA,NA,0,8,NA,red,n_s_111.jpg,NA,NA,NA,NA,NA,pleasant,unpleasant,NA,NA,NA,NA,NA,right,1644.40000000037,true,NA,NA,NA,NA,NA,NA,NA,NA
IrSMhe7E,3k2cedradeesg9mhvkrgq648pmomto,3l2is5hsfevflok0ys1sx1b2i6kunu,IrSMhe7E,2020-0188,2021-11-01,20:03:21,21:37:48,NA,incomplete,true,true,NA,NA,0,9,NA,red,n_s_064.jpg,NA,NA,NA,NA,NA,unpleasant,pleasant,NA,NA,NA,NA,NA,right,2004.09999999963,true,NA,NA,NA,NA,NA,NA,NA,NA
IrSMhe7E,3k2cedradeesg9mhvkrgq648pmomto,3l2is5hsfevflok0ys1sx1b2i6kunu,IrSMhe7E,2020-0188,2021-11-01,20:03:21,21:37:48,NA,incomplete,true,true,NA,NA,0,10,NA,red,m_s_068.jpg,NA,NA,NA,NA,NA,pleasant,unpleasant,NA,NA,NA,NA,NA,left,1100.70000000112,true,NA,NA,NA,NA,NA,NA,NA,NA
IrSMhe7E,3k2cedradeesg9mhvkrgq648pmomto,3l2is5hsfevflok0ys1sx1b2i6kunu,IrSMhe7E,2020-0188,2021-11-01,20:03:21,21:37:48,NA,incomplete,true,true,NA,NA,0,11,NA,red,n_l_096.jpg,NA,NA,NA,NA,NA,unpleasant,pleasant,NA,NA,NA,NA,NA,left,952.099999999627,true,NA,NA,NA,NA,NA,NA,NA,NA
IrSMhe7E,3k2cedradeesg9mhvkrgq648pmomto,3l2is5hsfevflok0ys1sx1b2i6kunu,IrSMhe7E,2020-0188,2021-11-01,20:03:21,21:37:48,NA,incomplete,true,true,NA,NA,0,12,NA,yellow,n_l_017.jpg,NA,NA,NA,NA,NA,pleasant,unpleasant,NA,NA,NA,NA,NA,right,1442.59999999963,true,NA,NA,NA,NA,NA,NA,NA,NA
IrSMhe7E,3k2cedradeesg9mhvkrgq648pmomto,3l2is5hsfevflok0ys1sx1b2i6kunu,IrSMhe7E,2020-0188,2021-11-01,20:03:21,21:37:48,NA,incomplete,true,true,NA,NA,0,13,NA,yellow,m_l_099.jpg,NA,NA,NA,NA,NA,pleasant,unpleasant,NA,NA,NA,NA,NA,left,1659,true,NA,NA,NA,NA,NA,NA,NA,NA
IrSMhe7E,3k2cedradeesg9mhvkrgq648pmomto,3l2is5hsfevflok0ys1sx1b2i6kunu,IrSMhe7E,2020-0188,2021-11-01,20:03:21,21:37:48,NA,incomplete,true,true,NA,NA,0,14,NA,yellow,n_s_084.jpg,NA,NA,NA,NA,NA,unpleasant,pleasant,NA,NA,NA,NA,NA,left,998.400000000373,true,NA,NA,NA,NA,NA,NA,NA,NA
IrSMhe7E,3k2cedradeesg9mhvkrgq648pmomto,3l2is5hsfevflok0ys1sx1b2i6kunu,IrSMhe7E,2020-0188,2021-11-01,20:03:21,21:37:48,NA,incomplete,true,true,NA,NA,0,15,NA,yellow,n_l_103.jpg,NA,NA,NA,NA,NA,pleasant,unpleasant,NA,NA,NA,NA,NA,right,1061.59999999963,true,NA,NA,NA,NA,NA,NA,NA,NA
IrSMhe7E,3k2cedradeesg9mhvkrgq648pmomto,3l2is5hsfevflok0ys1sx1b2i6kunu,IrSMhe7E,2020-0188,2021-11-01,20:03:21,21:37:48,NA,incomplete,true,true,NA,NA,0,16,NA,yellow,m_l_054.jpg,NA,NA,NA,NA,NA,pleasant,unpleasant,NA,NA,NA,NA,NA,right,1843,true,NA,NA,NA,NA,NA,NA,NA,NA
IrSMhe7E,3k2cedradeesg9mhvkrgq648pmomto,3l2is5hsfevflok0ys1sx1b2i6kunu,IrSMhe7E,2020-0188,2021-11-01,20:03:21,21:37:48,NA,incomplete,true,true,NA,NA,0,17,NA,yellow,n_l_044.jpg,NA,NA,NA,NA,NA,pleasant,unpleasant,NA,NA,NA,NA,NA,right,1090.80000000075,true,NA,NA,NA,NA,NA,NA,NA,NA
IrSMhe7E,3k2cedradeesg9mhvkrgq648pmomto,3l2is5hsfevflok0ys1sx1b2i6kunu,IrSMhe7E,2020-0188,2021-11-01,20:03:21,21:37:48,NA,incomplete,true,true,NA,NA,0,18,NA,brown,m_s_004.jpg,NA,NA,NA,NA,NA,pleasant,unpleasant,NA,NA,NA,NA,NA,left,1222.09999999963,true,NA,NA,NA,NA,NA,NA,NA,NA
IrSMhe7E,3k2cedradeesg9mhvkrgq648pmomto,3l2is5hsfevflok0ys1sx1b2i6kunu,IrSMhe7E,2020-0188,2021-11-01,20:03:21,21:37:48,NA,incomplete,true,true,NA,NA,0,19,NA,brown,m_s_082.jpg,NA,NA,NA,NA,NA,pleasant,unpleasant,NA,NA,NA,NA,NA,left,1539,true,NA,NA,NA,NA,NA,NA,NA,NA
IrSMhe7E,3k2cedradeesg9mhvkrgq648pmomto,3l2is5hsfevflok0ys1sx1b2i6kunu,IrSMhe7E,2020-0188,2021-11-01,20:03:21,21:37:48,NA,incomplete,true,true,NA,NA,0,20,NA,brown,m_l_050.jpg,NA,NA,NA,NA,NA,pleasant,unpleasant,NA,NA,NA,NA,NA,left,831.699999999255,true,NA,NA,NA,NA,NA,NA,NA,NA
IrSMhe7E,3k2cedradeesg9mhvkrgq648pmomto,3l2is5hsfevflok0ys1sx1b2i6kunu,IrSMhe7E,2020-0188,2021-11-01,20:03:21,21:37:48,NA,incomplete,true,true,NA,NA,0,21,NA,brown,n_l_116.jpg,NA,NA,NA,NA,NA,pleasant,unpleasant,NA,NA,NA,NA,NA,right,1990.20000000112,true,NA,NA,NA,NA,NA,NA,NA,NA
IrSMhe7E,3k2cedradeesg9mhvkrgq648pmomto,3l2is5hsfevflok0ys1sx1b2i6kunu,IrSMhe7E,2020-0188,2021-11-01,20:03:21,21:37:48,NA,incomplete,true,true,NA,NA,0,22,NA,brown,m_s_106.jpg,NA,NA,NA,NA,NA,unpleasant,pleasant,NA,NA,NA,NA,NA,left,1866,true,NA,NA,NA,NA,NA,NA,NA,NA
IrSMhe7E,3k2cedradeesg9mhvkrgq648pmomto,3l2is5hsfevflok0ys1sx1b2i6kunu,IrSMhe7E,2020-0188,2021-11-01,20:03:21,21:37:48,NA,incomplete,true,true,NA,NA,0,23,NA,brown,n_l_117.jpg,NA,NA,NA,NA,NA,unpleasant,pleasant,NA,NA,NA,NA,NA,left,1444.79999999888,true,NA,NA,NA,NA,NA,NA,NA,NA
IrSMhe7E,3k2cedradeesg9mhvkrgq648pmomto,3l2is5hsfevflok0ys1sx1b2i6kunu,IrSMhe7E,2020-0188,2021-11-01,20:03:21,21:37:48,NA,incomplete,true,true,NA,NA,0,24,NA,purple,m_s_024.jpg,NA,NA,NA,NA,NA,pleasant,unpleasant,NA,NA,NA,NA,NA,left,1540.5,true,NA,NA,NA,NA,NA,NA,NA,NA
IrSMhe7E,3k2cedradeesg9mhvkrgq648pmomto,3l2is5hsfevflok0ys1sx1b2i6kunu,IrSMhe7E,2020-0188,2021-11-01,20:03:21,21:37:48,NA,incomplete,true,true,NA,NA,0,25,NA,purple,m_l_057.jpg,NA,NA,NA,NA,NA,unpleasant,pleasant,NA,NA,NA,NA,NA,right,1065,true,NA,NA,NA,NA,NA,NA,NA,NA
IrSMhe7E,3k2cedradeesg9mhvkrgq648pmomto,3l2is5hsfevflok0ys1sx1b2i6kunu,IrSMhe7E,2020-0188,2021-11-01,20:03:21,21:37:48,NA,incomplete,true,true,NA,NA,0,26,NA,purple,m_l_015.jpg,NA,NA,NA,NA,NA,pleasant,unpleasant,NA,NA,NA,NA,NA,left,1054.20000000112,true,NA,NA,NA,NA,NA,NA,NA,NA
IrSMhe7E,3k2cedradeesg9mhvkrgq648pmomto,3l2is5hsfevflok0ys1sx1b2i6kunu,IrSMhe7E,2020-0188,2021-11-01,20:03:21,21:37:48,NA,incomplete,true,true,NA,NA,0,27,NA,purple,n_s_082.jpg,NA,NA,NA,NA,NA,pleasant,unpleasant,NA,NA,NA,NA,NA,right,1146.09999999963,true,NA,NA,NA,NA,NA,NA,NA,NA
IrSMhe7E,3k2cedradeesg9mhvkrgq648pmomto,3l2is5hsfevflok0ys1sx1b2i6kunu,IrSMhe7E,2020-0188,2021-11-01,20:03:21,21:37:48,NA,incomplete,true,true,NA,NA,0,28,NA,purple,n_s_050.jpg,NA,NA,NA,NA,NA,unpleasant,pleasant,NA,NA,NA,NA,NA,left,1126.80000000075,true,NA,NA,NA,NA,NA,NA,NA,NA
IrSMhe7E,3k2cedradeesg9mhvkrgq648pmomto,3l2is5hsfevflok0ys1sx1b2i6kunu,IrSMhe7E,2020-0188,2021-11-01,20:03:21,21:37:48,NA,incomplete,true,true,NA,NA,0,29,NA,purple,m_l_001.jpg,NA,NA,NA,NA,NA,pleasant,unpleasant,NA,NA,NA,NA,NA,left,1774.90000000037,true,NA,NA,NA,NA,NA,NA,NA,NA
IrSMhe7E,3k2cedradeesg9mhvkrgq648pmomto,3l2is5hsfevflok0ys1sx1b2i6kunu,IrSMhe7E,2020-0188,2021-11-01,20:03:21,21:37:48,NA,incomplete,true,true,NA,NA,0,30,NA,orange,m_l_117.jpg,NA,NA,NA,NA,NA,unpleasant,pleasant,NA,NA,NA,NA,NA,left,2085.69999999925,true,NA,NA,NA,NA,NA,NA,NA,NA
IrSMhe7E,3k2cedradeesg9mhvkrgq648pmomto,3l2is5hsfevflok0ys1sx1b2i6kunu,IrSMhe7E,2020-0188,2021-11-01,20:03:21,21:37:48,NA,incomplete,true,true,NA,NA,0,31,NA,orange,m_s_003.jpg,NA,NA,NA,NA,NA,unpleasant,pleasant,NA,NA,NA,NA,NA,right,1115.40000000037,true,NA,NA,NA,NA,NA,NA,NA,NA
IrSMhe7E,3k2cedradeesg9mhvkrgq648pmomto,3l2is5hsfevflok0ys1sx1b2i6kunu,IrSMhe7E,2020-0188,2021-11-01,20:03:21,21:37:48,NA,incomplete,true,true,NA,NA,0,32,NA,orange,n_l_029.jpg,NA,NA,NA,NA,NA,unpleasant,pleasant,NA,NA,NA,NA,NA,left,973.10000000149,true,NA,NA,NA,NA,NA,NA,NA,NA
IrSMhe7E,3k2cedradeesg9mhvkrgq648pmomto,3l2is5hsfevflok0ys1sx1b2i6kunu,IrSMhe7E,2020-0188,2021-11-01,20:03:21,21:37:48,NA,incomplete,true,true,NA,NA,0,33,NA,orange,m_l_047.jpg,NA,NA,NA,NA,NA,pleasant,unpleasant,NA,NA,NA,NA,NA,right,1320.40000000037,true,NA,NA,NA,NA,NA,NA,NA,NA
IrSMhe7E,3k2cedradeesg9mhvkrgq648pmomto,3l2is5hsfevflok0ys1sx1b2i6kunu,IrSMhe7E,2020-0188,2021-11-01,20:03:21,21:37:48,NA,incomplete,true,true,NA,NA,0,34,NA,orange,m_s_077.jpg,NA,NA,NA,NA,NA,unpleasant,pleasant,NA,NA,NA,NA,NA,right,1565,true,NA,NA,NA,NA,NA,NA,NA,NA
IrSMhe7E,3k2cedradeesg9mhvkrgq648pmomto,3l2is5hsfevflok0ys1sx1b2i6kunu,IrSMhe7E,2020-0188,2021-11-01,20:03:21,21:37:48,NA,incomplete,true,true,NA,NA,0,35,NA,orange,n_l_008.jpg,NA,NA,NA,NA,NA,unpleasant,pleasant,NA,NA,NA,NA,NA,right,1435.40000000037,true,NA,NA,NA,NA,NA,NA,NA,NA
IrSMhe7E,3k2cedradeesg9mhvkrgq648pmomto,3l2is5hsfevflok0ys1sx1b2i6kunu,IrSMhe7E,2020-0188,2021-11-01,20:03:21,21:37:48,NA,incomplete,true,NA,NA,true,0,0,NA,NA,NA,right,m_s_003.jpg,purple,orange,NA,NA,NA,NA,NA,NA,NA,NA,NA,NaN,NA,3402.5999999996275,right,1,NA,NA,NA,NA,NA
IrSMhe7E,3k2cedradeesg9mhvkrgq648pmomto,3l2is5hsfevflok0ys1sx1b2i6kunu,IrSMhe7E,2020-0188,2021-11-01,20:03:21,21:37:48,NA,incomplete,true,NA,NA,true,0,1,NA,NA,NA,left,n_s_050.jpg,purple,brown,NA,NA,NA,NA,NA,NA,NA,NA,NA,NaN,NA,2138.7000000011176,left,1,NA,NA,NA,NA,NA
IrSMhe7E,3k2cedradeesg9mhvkrgq648pmomto,3l2is5hsfevflok0ys1sx1b2i6kunu,IrSMhe7E,2020-0188,2021-11-01,20:03:21,21:37:48,NA,incomplete,true,NA,NA,true,0,2,NA,NA,NA,right,m_l_099.jpg,brown,yellow,NA,NA,NA,NA,NA,NA,NA,NA,NA,NaN,NA,2034.199999999255,right,1,NA,NA,NA,NA,NA
IrSMhe7E,3k2cedradeesg9mhvkrgq648pmomto,3l2is5hsfevflok0ys1sx1b2i6kunu,IrSMhe7E,2020-0188,2021-11-01,20:03:21,21:37:48,NA,incomplete,true,NA,NA,true,0,3,NA,NA,NA,right,m_s_082.jpg,purple,brown,NA,NA,NA,NA,NA,NA,NA,NA,NA,NaN,NA,1856.5,right,1,NA,NA,NA,NA,NA
IrSMhe7E,3k2cedradeesg9mhvkrgq648pmomto,3l2is5hsfevflok0ys1sx1b2i6kunu,IrSMhe7E,2020-0188,2021-11-01,20:03:21,21:37:48,NA,incomplete,true,NA,NA,true,0,4,NA,NA,NA,right,n_l_117.jpg,purple,brown,NA,NA,NA,NA,NA,NA,NA,NA,NA,NaN,NA,3726.9000000003725,right,1,NA,NA,NA,NA,NA
IrSMhe7E,3k2cedradeesg9mhvkrgq648pmomto,3l2is5hsfevflok0ys1sx1b2i6kunu,IrSMhe7E,2020-0188,2021-11-01,20:03:21,21:37:48,NA,incomplete,true,NA,NA,true,0,5,NA,NA,NA,left,m_l_082.jpg,red,yellow,NA,NA,NA,NA,NA,NA,NA,NA,NA,NaN,NA,2537.0999999996275,left,1,NA,NA,NA,NA,NA
IrSMhe7E,3k2cedradeesg9mhvkrgq648pmomto,3l2is5hsfevflok0ys1sx1b2i6kunu,IrSMhe7E,2020-0188,2021-11-01,20:03:21,21:37:48,NA,incomplete,true,NA,NA,true,0,6,NA,NA,NA,left,m_s_068.jpg,red,blue,NA,NA,NA,NA,NA,NA,NA,NA,NA,NaN,NA,2821.4000000003725,left,1,NA,NA,NA,NA,NA
IrSMhe7E,3k2cedradeesg9mhvkrgq648pmomto,3l2is5hsfevflok0ys1sx1b2i6kunu,IrSMhe7E,2020-0188,2021-11-01,20:03:21,21:37:48,NA,incomplete,true,NA,NA,true,0,7,NA,NA,NA,left,m_l_107.jpg,blue,red,NA,NA,NA,NA,NA,NA,NA,NA,NA,NaN,NA,3559.7000000011176,left,1,NA,NA,NA,NA,NA
IrSMhe7E,3k2cedradeesg9mhvkrgq648pmomto,3l2is5hsfevflok0ys1sx1b2i6kunu,IrSMhe7E,2020-0188,2021-11-01,20:03:21,21:37:48,NA,incomplete,true,NA,NA,true,0,8,NA,NA,NA,right,n_l_044.jpg,red,yellow,NA,NA,NA,NA,NA,NA,NA,NA,NA,NaN,NA,1779.5,right,1,NA,NA,NA,NA,NA
IrSMhe7E,3k2cedradeesg9mhvkrgq648pmomto,3l2is5hsfevflok0ys1sx1b2i6kunu,IrSMhe7E,2020-0188,2021-11-01,20:03:21,21:37:48,NA,incomplete,true,NA,NA,true,0,9,NA,NA,NA,left,n_s_111.jpg,red,yellow,NA,NA,NA,NA,NA,NA,NA,NA,NA,NaN,NA,3786.10000000149,left,1,NA,NA,NA,NA,NA
IrSMhe7E,3k2cedradeesg9mhvkrgq648pmomto,3l2is5hsfevflok0ys1sx1b2i6kunu,IrSMhe7E,2020-0188,2021-11-01,20:03:21,21:37:48,NA,incomplete,true,NA,NA,true,0,10,NA,NA,NA,left,m_l_057.jpg,purple,brown,NA,NA,NA,NA,NA,NA,NA,NA,NA,NaN,NA,2320.2999999988824,left,1,NA,NA,NA,NA,NA
IrSMhe7E,3k2cedradeesg9mhvkrgq648pmomto,3l2is5hsfevflok0ys1sx1b2i6kunu,IrSMhe7E,2020-0188,2021-11-01,20:03:21,21:37:48,NA,incomplete,true,NA,NA,true,0,11,NA,NA,NA,left,m_s_106.jpg,brown,yellow,NA,NA,NA,NA,NA,NA,NA,NA,NA,NaN,NA,2220.9000000003725,right,0,NA,NA,NA,NA,NA
IrSMhe7E,3k2cedradeesg9mhvkrgq648pmomto,3l2is5hsfevflok0ys1sx1b2i6kunu,IrSMhe7E,2020-0188,2021-11-01,20:03:21,21:37:48,NA,incomplete,true,NA,NA,true,0,12,NA,NA,NA,right,n_l_029.jpg,purple,orange,NA,NA,NA,NA,NA,NA,NA,NA,NA,NaN,NA,4562.300000000745,right,1,NA,NA,NA,NA,NA
IrSMhe7E,3k2cedradeesg9mhvkrgq648pmomto,3l2is5hsfevflok0ys1sx1b2i6kunu,IrSMhe7E,2020-0188,2021-11-01,20:03:21,21:37:48,NA,incomplete,true,NA,NA,true,0,13,NA,NA,NA,right,m_l_007.jpg,red,blue,NA,NA,NA,NA,NA,NA,NA,NA,NA,NaN,NA,4269,right,1,NA,NA,NA,NA,NA
IrSMhe7E,3k2cedradeesg9mhvkrgq648pmomto,3l2is5hsfevflok0ys1sx1b2i6kunu,IrSMhe7E,2020-0188,2021-11-01,20:03:21,21:37:48,NA,incomplete,true,NA,NA,true,0,14,NA,NA,NA,right,m_l_093.jpg,red,blue,NA,NA,NA,NA,NA,NA,NA,NA,NA,NaN,NA,3908.9000000003725,right,1,NA,NA,NA,NA,NA
IrSMhe7E,3k2cedradeesg9mhvkrgq648pmomto,3l2is5hsfevflok0ys1sx1b2i6kunu,IrSMhe7E,2020-0188,2021-11-01,20:03:21,21:37:48,NA,incomplete,true,NA,NA,true,0,15,NA,NA,NA,left,m_l_050.jpg,brown,yellow,NA,NA,NA,NA,NA,NA,NA,NA,NA,NaN,NA,2605.300000000745,left,1,NA,NA,NA,NA,NA
IrSMhe7E,3k2cedradeesg9mhvkrgq648pmomto,3l2is5hsfevflok0ys1sx1b2i6kunu,IrSMhe7E,2020-0188,2021-11-01,20:03:21,21:37:48,NA,incomplete,true,NA,NA,true,0,16,NA,NA,NA,left,n_s_084.jpg,yellow,red,NA,NA,NA,NA,NA,NA,NA,NA,NA,NaN,NA,1886.4000000003725,right,0,NA,NA,NA,NA,NA
IrSMhe7E,3k2cedradeesg9mhvkrgq648pmomto,3l2is5hsfevflok0ys1sx1b2i6kunu,IrSMhe7E,2020-0188,2021-11-01,20:03:21,21:37:48,NA,incomplete,true,NA,NA,true,0,17,NA,NA,NA,left,m_l_054.jpg,yellow,red,NA,NA,NA,NA,NA,NA,NA,NA,NA,NaN,NA,2329.800000000745,left,1,NA,NA,NA,NA,NA
IrSMhe7E,3k2cedradeesg9mhvkrgq648pmomto,3l2is5hsfevflok0ys1sx1b2i6kunu,IrSMhe7E,2020-0188,2021-11-01,20:03:21,21:37:48,NA,incomplete,true,NA,NA,true,0,18,NA,NA,NA,left,m_l_015.jpg,purple,orange,NA,NA,NA,NA,NA,NA,NA,NA,NA,NaN,NA,3352.5999999996275,left,1,NA,NA,NA,NA,NA
IrSMhe7E,3k2cedradeesg9mhvkrgq648pmomto,3l2is5hsfevflok0ys1sx1b2i6kunu,IrSMhe7E,2020-0188,2021-11-01,20:03:21,21:37:48,NA,incomplete,true,NA,NA,true,0,19,NA,NA,NA,left,m_l_001.jpg,purple,orange,NA,NA,NA,NA,NA,NA,NA,NA,NA,NaN,NA,5045.4000000003725,left,1,NA,NA,NA,NA,NA
IrSMhe7E,3k2cedradeesg9mhvkrgq648pmomto,3l2is5hsfevflok0ys1sx1b2i6kunu,IrSMhe7E,2020-0188,2021-11-01,20:03:21,21:37:48,NA,incomplete,true,NA,NA,true,0,20,NA,NA,NA,right,n_l_096.jpg,blue,red,NA,NA,NA,NA,NA,NA,NA,NA,NA,NaN,NA,2409.4000000003725,right,1,NA,NA,NA,NA,NA
IrSMhe7E,3k2cedradeesg9mhvkrgq648pmomto,3l2is5hsfevflok0ys1sx1b2i6kunu,IrSMhe7E,2020-0188,2021-11-01,20:03:21,21:37:48,NA,incomplete,true,NA,NA,true,0,21,NA,NA,NA,right,n_l_008.jpg,purple,orange,NA,NA,NA,NA,NA,NA,NA,NA,NA,NaN,NA,1729.5999999996275,right,1,NA,NA,NA,NA,NA
IrSMhe7E,3k2cedradeesg9mhvkrgq648pmomto,3l2is5hsfevflok0ys1sx1b2i6kunu,IrSMhe7E,2020-0188,2021-11-01,20:03:21,21:37:48,NA,incomplete,true,NA,true,NA,0,0,NA,NA,NA,right,NA,NA,NA,absent,NA,NA,n_l_117.jpg,brown,m_s_082.jpg,brown,within,NA,NaN,NA,NA,NA,NA,left,3192.5999999996275,0,0,3735
IrSMhe7E,3k2cedradeesg9mhvkrgq648pmomto,3l2is5hsfevflok0ys1sx1b2i6kunu,IrSMhe7E,2020-0188,2021-11-01,20:03:21,21:37:48,NA,incomplete,true,NA,true,NA,0,1,NA,NA,NA,right,NA,NA,NA,absent,NA,NA,n_l_044.jpg,yellow,m_l_099.jpg,yellow,within,NA,NaN,NA,NA,NA,NA,right,2137.7999999988824,1,1,3490
IrSMhe7E,3k2cedradeesg9mhvkrgq648pmomto,3l2is5hsfevflok0ys1sx1b2i6kunu,IrSMhe7E,2020-0188,2021-11-01,20:03:21,21:37:48,NA,incomplete,true,NA,true,NA,0,2,NA,NA,NA,right,NA,NA,NA,absent,NA,NA,n_s_084.jpg,yellow,m_s_068.jpg,red,between,NA,NaN,NA,NA,NA,NA,right,2544.4000000003725,1,3,1547.4000000003725
IrSMhe7E,3k2cedradeesg9mhvkrgq648pmomto,3l2is5hsfevflok0ys1sx1b2i6kunu,IrSMhe7E,2020-0188,2021-11-01,20:03:21,21:37:48,NA,incomplete,true,NA,true,NA,0,3,NA,NA,NA,left,NA,NA,NA,absent,NA,NA,m_l_054.jpg,yellow,m_l_050.jpg,brown,between,NA,NaN,NA,NA,NA,NA,left,2722.5999999996275,1,0,1717.5999999996275
IrSMhe7E,3k2cedradeesg9mhvkrgq648pmomto,3l2is5hsfevflok0ys1sx1b2i6kunu,IrSMhe7E,2020-0188,2021-11-01,20:03:21,21:37:48,NA,incomplete,true,NA,true,NA,0,4,NA,NA,NA,left,NA,NA,NA,absent,NA,NA,m_l_107.jpg,blue,n_s_111.jpg,red,between,NA,NaN,NA,NA,NA,NA,left,2593.800000000745,1,2,1776.9000000003725
IrSMhe7E,3k2cedradeesg9mhvkrgq648pmomto,3l2is5hsfevflok0ys1sx1b2i6kunu,IrSMhe7E,2020-0188,2021-11-01,20:03:21,21:37:48,NA,incomplete,true,NA,true,NA,0,5,NA,NA,NA,right,NA,NA,NA,absent,NA,NA,n_l_096.jpg,red,m_l_082.jpg,red,within,NA,NaN,NA,NA,NA,NA,right,2281.5999999996275,1,0,4170.0999999996275
IrSMhe7E,3k2cedradeesg9mhvkrgq648pmomto,3l2is5hsfevflok0ys1sx1b2i6kunu,IrSMhe7E,2020-0188,2021-11-01,20:03:21,21:37:48,NA,incomplete,true,NA,true,NA,0,6,NA,NA,NA,right,NA,NA,NA,absent,NA,NA,m_l_007.jpg,blue,m_l_093.jpg,blue,within,NA,NaN,NA,NA,NA,NA,left,3727.39999999851,0,0,4406.299999998882
IrSMhe7E,3k2cedradeesg9mhvkrgq648pmomto,3l2is5hsfevflok0ys1sx1b2i6kunu,IrSMhe7E,2020-0188,2021-11-01,20:03:21,21:37:48,NA,incomplete,true,NA,true,NA,0,7,NA,NA,NA,left,NA,NA,NA,absent,NA,NA,m_s_003.jpg,orange,n_l_008.jpg,orange,within,NA,NaN,NA,NA,NA,NA,left,2605.800000000745,1,3,1640.699999999255
IrSMhe7E,3k2cedradeesg9mhvkrgq648pmomto,3l2is5hsfevflok0ys1sx1b2i6kunu,IrSMhe7E,2020-0188,2021-11-01,20:03:21,21:37:48,NA,incomplete,true,NA,true,NA,0,8,NA,NA,NA,right,NA,NA,NA,absent,NA,NA,m_l_015.jpg,purple,m_s_106.jpg,brown,between,NA,NaN,NA,NA,NA,NA,right,6136.9000000003725,1,0,2802.699999999255
IrSMhe7E,3k2cedradeesg9mhvkrgq648pmomto,3l2is5hsfevflok0ys1sx1b2i6kunu,IrSMhe7E,2020-0188,2021-11-01,20:03:21,21:37:48,NA,incomplete,true,NA,true,NA,0,9,NA,NA,NA,right,NA,NA,NA,absent,NA,NA,n_l_029.jpg,orange,n_s_050.jpg,purple,between,NA,NaN,NA,NA,NA,NA,right,2261.199999999255,1,3,1503.7999999988824
IrSMhe7E,3k2cedradeesg9mhvkrgq648pmomto,3l2is5hsfevflok0ys1sx1b2i6kunu,IrSMhe7E,2020-0188,2021-11-01,20:03:21,21:37:48,NA,incomplete,true,NA,true,NA,0,10,NA,NA,NA,left,NA,NA,NA,absent,NA,NA,m_l_057.jpg,purple,m_l_001.jpg,purple,within,NA,NaN,NA,NA,NA,NA,left,2467.5999999996275,1,3,1345.300000000745
IrSMhe7E,3k2cedradeesg9mhvkrgq648pmomto,3l2is5hsfevflok0ys1sx1b2i6kunu,IrSMhe7E,2020-0188,2021-11-01,20:03:21,21:37:48,NA,incomplete,false,true,NA,NA,1,0,NA,blue,m_l_004.jpg,NA,NA,NA,NA,NA,unpleasant,pleasant,NA,NA,NA,NA,NA,right,2734.5,true,NA,NA,NA,NA,NA,NA,NA,NA
IrSMhe7E,3k2cedradeesg9mhvkrgq648pmomto,3l2is5hsfevflok0ys1sx1b2i6kunu,IrSMhe7E,2020-0188,2021-11-01,20:03:21,21:37:48,NA,incomplete,false,true,NA,NA,1,1,NA,blue,n_l_004.jpg,NA,NA,NA,NA,NA,unpleasant,pleasant,NA,NA,NA,NA,NA,left,1809.40000000037,true,NA,NA,NA,NA,NA,NA,NA,NA
IrSMhe7E,3k2cedradeesg9mhvkrgq648pmomto,3l2is5hsfevflok0ys1sx1b2i6kunu,IrSMhe7E,2020-0188,2021-11-01,20:03:21,21:37:48,NA,incomplete,false,true,NA,NA,1,2,NA,blue,n_l_081.jpg,NA,NA,NA,NA,NA,pleasant,unpleasant,NA,NA,NA,NA,NA,right,2670.19999999925,true,NA,NA,NA,NA,NA,NA,NA,NA
IrSMhe7E,3k2cedradeesg9mhvkrgq648pmomto,3l2is5hsfevflok0ys1sx1b2i6kunu,IrSMhe7E,2020-0188,2021-11-01,20:03:21,21:37:48,NA,incomplete,false,true,NA,NA,1,3,NA,blue,n_s_039.jpg,NA,NA,NA,NA,NA,pleasant,unpleasant,NA,NA,NA,NA,NA,right,1665,true,NA,NA,NA,NA,NA,NA,NA,NA
IrSMhe7E,3k2cedradeesg9mhvkrgq648pmomto,3l2is5hsfevflok0ys1sx1b2i6kunu,IrSMhe7E,2020-0188,2021-11-01,20:03:21,21:37:48,NA,incomplete,false,true,NA,NA,1,4,NA,blue,n_l_065.jpg,NA,NA,NA,NA,NA,pleasant,unpleasant,NA,NA,NA,NA,NA,right,1585.30000000075,true,NA,NA,NA,NA,NA,NA,NA,NA
IrSMhe7E,3k2cedradeesg9mhvkrgq648pmomto,3l2is5hsfevflok0ys1sx1b2i6kunu,IrSMhe7E,2020-0188,2021-11-01,20:03:21,21:37:48,NA,incomplete,false,true,NA,NA,1,5,NA,blue,n_s_078.jpg,NA,NA,NA,NA,NA,unpleasant,pleasant,NA,NA,NA,NA,NA,left,1712.5,true,NA,NA,NA,NA,NA,NA,NA,NA
IrSMhe7E,3k2cedradeesg9mhvkrgq648pmomto,3l2is5hsfevflok0ys1sx1b2i6kunu,IrSMhe7E,2020-0188,2021-11-01,20:03:21,21:37:48,NA,incomplete,false,true,NA,NA,1,6,NA,red,m_s_103.jpg,NA,NA,NA,NA,NA,unpleasant,pleasant,NA,NA,NA,NA,NA,right,2485.40000000037,true,NA,NA,NA,NA,NA,NA,NA,NA
IrSMhe7E,3k2cedradeesg9mhvkrgq648pmomto,3l2is5hsfevflok0ys1sx1b2i6kunu,IrSMhe7E,2020-0188,2021-11-01,20:03:21,21:37:48,NA,incomplete,false,true,NA,NA,1,7,NA,red,m_l_098.jpg,NA,NA,NA,NA,NA,unpleasant,pleasant,NA,NA,NA,NA,NA,left,2253.19999999925,true,NA,NA,NA,NA,NA,NA,NA,NA
IrSMhe7E,3k2cedradeesg9mhvkrgq648pmomto,3l2is5hsfevflok0ys1sx1b2i6kunu,IrSMhe7E,2020-0188,2021-11-01,20:03:21,21:37:48,NA,incomplete,false,true,NA,NA,1,8,NA,red,m_l_039.jpg,NA,NA,NA,NA,NA,unpleasant,pleasant,NA,NA,NA,NA,NA,right,1575.5,true,NA,NA,NA,NA,NA,NA,NA,NA
IrSMhe7E,3k2cedradeesg9mhvkrgq648pmomto,3l2is5hsfevflok0ys1sx1b2i6kunu,IrSMhe7E,2020-0188,2021-11-01,20:03:21,21:37:48,NA,incomplete,false,true,NA,NA,1,9,NA,red,m_l_028.jpg,NA,NA,NA,NA,NA,pleasant,unpleasant,NA,NA,NA,NA,NA,right,1558.29999999888,true,NA,NA,NA,NA,NA,NA,NA,NA
IrSMhe7E,3k2cedradeesg9mhvkrgq648pmomto,3l2is5hsfevflok0ys1sx1b2i6kunu,IrSMhe7E,2020-0188,2021-11-01,20:03:21,21:37:48,NA,incomplete,false,true,NA,NA,1,10,NA,red,n_l_009.jpg,NA,NA,NA,NA,NA,unpleasant,pleasant,NA,NA,NA,NA,NA,left,1422.5,true,NA,NA,NA,NA,NA,NA,NA,NA
IrSMhe7E,3k2cedradeesg9mhvkrgq648pmomto,3l2is5hsfevflok0ys1sx1b2i6kunu,IrSMhe7E,2020-0188,2021-11-01,20:03:21,21:37:48,NA,incomplete,false,true,NA,NA,1,11,NA,red,n_l_012.jpg,NA,NA,NA,NA,NA,unpleasant,pleasant,NA,NA,NA,NA,NA,left,1348,true,NA,NA,NA,NA,NA,NA,NA,NA
IrSMhe7E,3k2cedradeesg9mhvkrgq648pmomto,3l2is5hsfevflok0ys1sx1b2i6kunu,IrSMhe7E,2020-0188,2021-11-01,20:03:21,21:37:48,NA,incomplete,false,true,NA,NA,1,12,NA,green,n_l_110.jpg,NA,NA,NA,NA,NA,unpleasant,pleasant,NA,NA,NA,NA,NA,left,2268,true,NA,NA,NA,NA,NA,NA,NA,NA
IrSMhe7E,3k2cedradeesg9mhvkrgq648pmomto,3l2is5hsfevflok0ys1sx1b2i6kunu,IrSMhe7E,2020-0188,2021-11-01,20:03:21,21:37:48,NA,incomplete,false,true,NA,NA,1,13,NA,green,m_l_075.jpg,NA,NA,NA,NA,NA,unpleasant,pleasant,NA,NA,NA,NA,NA,right,2204.39999999851,true,NA,NA,NA,NA,NA,NA,NA,NA
IrSMhe7E,3k2cedradeesg9mhvkrgq648pmomto,3l2is5hsfevflok0ys1sx1b2i6kunu,IrSMhe7E,2020-0188,2021-11-01,20:03:21,21:37:48,NA,incomplete,false,true,NA,NA,1,14,NA,green,m_s_088.jpg,NA,NA,NA,NA,NA,pleasant,unpleasant,NA,NA,NA,NA,NA,right,1338.39999999851,true,NA,NA,NA,NA,NA,NA,NA,NA
IrSMhe7E,3k2cedradeesg9mhvkrgq648pmomto,3l2is5hsfevflok0ys1sx1b2i6kunu,IrSMhe7E,2020-0188,2021-11-01,20:03:21,21:37:48,NA,incomplete,false,true,NA,NA,1,15,NA,green,m_s_032.jpg,NA,NA,NA,NA,NA,pleasant,unpleasant,NA,NA,NA,NA,NA,left,2923.89999999851,true,NA,NA,NA,NA,NA,NA,NA,NA
IrSMhe7E,3k2cedradeesg9mhvkrgq648pmomto,3l2is5hsfevflok0ys1sx1b2i6kunu,IrSMhe7E,2020-0188,2021-11-01,20:03:21,21:37:48,NA,incomplete,false,true,NA,NA,1,16,NA,green,m_l_029.jpg,NA,NA,NA,NA,NA,unpleasant,pleasant,NA,NA,NA,NA,NA,right,1702.29999999888,true,NA,NA,NA,NA,NA,NA,NA,NA
IrSMhe7E,3k2cedradeesg9mhvkrgq648pmomto,3l2is5hsfevflok0ys1sx1b2i6kunu,IrSMhe7E,2020-0188,2021-11-01,20:03:21,21:37:48,NA,incomplete,false,true,NA,NA,1,17,NA,green,n_s_002.jpg,NA,NA,NA,NA,NA,pleasant,unpleasant,NA,NA,NA,NA,NA,left,1731.59999999963,true,NA,NA,NA,NA,NA,NA,NA,NA
IrSMhe7E,3k2cedradeesg9mhvkrgq648pmomto,3l2is5hsfevflok0ys1sx1b2i6kunu,IrSMhe7E,2020-0188,2021-11-01,20:03:21,21:37:48,NA,incomplete,false,true,NA,NA,1,18,NA,white,n_l_021.jpg,NA,NA,NA,NA,NA,pleasant,unpleasant,NA,NA,NA,NA,NA,left,2657.40000000037,true,NA,NA,NA,NA,NA,NA,NA,NA
IrSMhe7E,3k2cedradeesg9mhvkrgq648pmomto,3l2is5hsfevflok0ys1sx1b2i6kunu,IrSMhe7E,2020-0188,2021-11-01,20:03:21,21:37:48,NA,incomplete,false,true,NA,NA,1,19,NA,white,m_s_069.jpg,NA,NA,NA,NA,NA,pleasant,unpleasant,NA,NA,NA,NA,NA,right,3215.80000000075,true,NA,NA,NA,NA,NA,NA,NA,NA
IrSMhe7E,3k2cedradeesg9mhvkrgq648pmomto,3l2is5hsfevflok0ys1sx1b2i6kunu,IrSMhe7E,2020-0188,2021-11-01,20:03:21,21:37:48,NA,incomplete,false,true,NA,NA,1,20,NA,white,n_s_059.jpg,NA,NA,NA,NA,NA,pleasant,unpleasant,NA,NA,NA,NA,NA,left,2001.79999999888,true,NA,NA,NA,NA,NA,NA,NA,NA
IrSMhe7E,3k2cedradeesg9mhvkrgq648pmomto,3l2is5hsfevflok0ys1sx1b2i6kunu,IrSMhe7E,2020-0188,2021-11-01,20:03:21,21:37:48,NA,incomplete,false,true,NA,NA,1,21,NA,white,n_s_116.jpg,NA,NA,NA,NA,NA,pleasant,unpleasant,NA,NA,NA,NA,NA,right,1804.19999999925,true,NA,NA,NA,NA,NA,NA,NA,NA
IrSMhe7E,3k2cedradeesg9mhvkrgq648pmomto,3l2is5hsfevflok0ys1sx1b2i6kunu,IrSMhe7E,2020-0188,2021-11-01,20:03:21,21:37:48,NA,incomplete,false,true,NA,NA,1,22,NA,white,n_s_097.jpg,NA,NA,NA,NA,NA,unpleasant,pleasant,NA,NA,NA,NA,NA,right,1613.5,true,NA,NA,NA,NA,NA,NA,NA,NA
IrSMhe7E,3k2cedradeesg9mhvkrgq648pmomto,3l2is5hsfevflok0ys1sx1b2i6kunu,IrSMhe7E,2020-0188,2021-11-01,20:03:21,21:37:48,NA,incomplete,false,true,NA,NA,1,23,NA,white,n_l_072.jpg,NA,NA,NA,NA,NA,unpleasant,pleasant,NA,NA,NA,NA,NA,right,1460.30000000075,true,NA,NA,NA,NA,NA,NA,NA,NA
IrSMhe7E,3k2cedradeesg9mhvkrgq648pmomto,3l2is5hsfevflok0ys1sx1b2i6kunu,IrSMhe7E,2020-0188,2021-11-01,20:03:21,21:37:48,NA,incomplete,false,true,NA,NA,1,24,NA,purple,n_l_098.jpg,NA,NA,NA,NA,NA,pleasant,unpleasant,NA,NA,NA,NA,NA,right,1156.59999999963,true,NA,NA,NA,NA,NA,NA,NA,NA
IrSMhe7E,3k2cedradeesg9mhvkrgq648pmomto,3l2is5hsfevflok0ys1sx1b2i6kunu,IrSMhe7E,2020-0188,2021-11-01,20:03:21,21:37:48,NA,incomplete,false,true,NA,NA,1,25,NA,purple,m_l_011.jpg,NA,NA,NA,NA,NA,unpleasant,pleasant,NA,NA,NA,NA,NA,right,2194.20000000112,true,NA,NA,NA,NA,NA,NA,NA,NA
IrSMhe7E,3k2cedradeesg9mhvkrgq648pmomto,3l2is5hsfevflok0ys1sx1b2i6kunu,IrSMhe7E,2020-0188,2021-11-01,20:03:21,21:37:48,NA,incomplete,false,true,NA,NA,1,26,NA,purple,m_l_101.jpg,NA,NA,NA,NA,NA,pleasant,unpleasant,NA,NA,NA,NA,NA,right,1992.89999999851,true,NA,NA,NA,NA,NA,NA,NA,NA
IrSMhe7E,3k2cedradeesg9mhvkrgq648pmomto,3l2is5hsfevflok0ys1sx1b2i6kunu,IrSMhe7E,2020-0188,2021-11-01,20:03:21,21:37:48,NA,incomplete,false,true,NA,NA,1,27,NA,purple,m_l_021.jpg,NA,NA,NA,NA,NA,pleasant,unpleasant,NA,NA,NA,NA,NA,left,1912.5,true,NA,NA,NA,NA,NA,NA,NA,NA
IrSMhe7E,3k2cedradeesg9mhvkrgq648pmomto,3l2is5hsfevflok0ys1sx1b2i6kunu,IrSMhe7E,2020-0188,2021-11-01,20:03:21,21:37:48,NA,incomplete,false,true,NA,NA,1,28,NA,purple,m_l_109.jpg,NA,NA,NA,NA,NA,pleasant,unpleasant,NA,NA,NA,NA,NA,left,1919.69999999925,true,NA,NA,NA,NA,NA,NA,NA,NA
IrSMhe7E,3k2cedradeesg9mhvkrgq648pmomto,3l2is5hsfevflok0ys1sx1b2i6kunu,IrSMhe7E,2020-0188,2021-11-01,20:03:21,21:37:48,NA,incomplete,false,true,NA,NA,1,29,NA,purple,m_s_043.jpg,NA,NA,NA,NA,NA,pleasant,unpleasant,NA,NA,NA,NA,NA,left,2247.70000000112,true,NA,NA,NA,NA,NA,NA,NA,NA
IrSMhe7E,3k2cedradeesg9mhvkrgq648pmomto,3l2is5hsfevflok0ys1sx1b2i6kunu,IrSMhe7E,2020-0188,2021-11-01,20:03:21,21:37:48,NA,incomplete,false,true,NA,NA,1,30,NA,orange,n_s_103.jpg,NA,NA,NA,NA,NA,pleasant,unpleasant,NA,NA,NA,NA,NA,left,2630.09999999963,true,NA,NA,NA,NA,NA,NA,NA,NA
IrSMhe7E,3k2cedradeesg9mhvkrgq648pmomto,3l2is5hsfevflok0ys1sx1b2i6kunu,IrSMhe7E,2020-0188,2021-11-01,20:03:21,21:37:48,NA,incomplete,false,true,NA,NA,1,31,NA,orange,m_s_012.jpg,NA,NA,NA,NA,NA,pleasant,unpleasant,NA,NA,NA,NA,NA,right,2409.89999999851,true,NA,NA,NA,NA,NA,NA,NA,NA
IrSMhe7E,3k2cedradeesg9mhvkrgq648pmomto,3l2is5hsfevflok0ys1sx1b2i6kunu,IrSMhe7E,2020-0188,2021-11-01,20:03:21,21:37:48,NA,incomplete,false,true,NA,NA,1,32,NA,orange,m_s_042.jpg,NA,NA,NA,NA,NA,pleasant,unpleasant,NA,NA,NA,NA,NA,right,2491.5,true,NA,NA,NA,NA,NA,NA,NA,NA
IrSMhe7E,3k2cedradeesg9mhvkrgq648pmomto,3l2is5hsfevflok0ys1sx1b2i6kunu,IrSMhe7E,2020-0188,2021-11-01,20:03:21,21:37:48,NA,incomplete,false,true,NA,NA,1,33,NA,orange,n_l_049.jpg,NA,NA,NA,NA,NA,unpleasant,pleasant,NA,NA,NA,NA,NA,left,2084.29999999888,true,NA,NA,NA,NA,NA,NA,NA,NA
IrSMhe7E,3k2cedradeesg9mhvkrgq648pmomto,3l2is5hsfevflok0ys1sx1b2i6kunu,IrSMhe7E,2020-0188,2021-11-01,20:03:21,21:37:48,NA,incomplete,false,true,NA,NA,1,34,NA,orange,n_l_005.jpg,NA,NA,NA,NA,NA,pleasant,unpleasant,NA,NA,NA,NA,NA,right,1494,true,NA,NA,NA,NA,NA,NA,NA,NA
IrSMhe7E,3k2cedradeesg9mhvkrgq648pmomto,3l2is5hsfevflok0ys1sx1b2i6kunu,IrSMhe7E,2020-0188,2021-11-01,20:03:21,21:37:48,NA,incomplete,false,true,NA,NA,1,35,NA,orange,m_l_044.jpg,NA,NA,NA,NA,NA,unpleasant,pleasant,NA,NA,NA,NA,NA,right,2048.59999999963,true,NA,NA,NA,NA,NA,NA,NA,NA
IrSMhe7E,3k2cedradeesg9mhvkrgq648pmomto,3l2is5hsfevflok0ys1sx1b2i6kunu,IrSMhe7E,2020-0188,2021-11-01,20:03:21,21:37:48,NA,incomplete,false,NA,NA,true,1,0,NA,NA,NA,left,m_l_011.jpg,purple,orange,NA,NA,NA,NA,NA,NA,NA,NA,NA,NaN,NA,4200,left,1,NA,NA,NA,NA,NA
IrSMhe7E,3k2cedradeesg9mhvkrgq648pmomto,3l2is5hsfevflok0ys1sx1b2i6kunu,IrSMhe7E,2020-0188,2021-11-01,20:03:21,21:37:48,NA,incomplete,false,NA,NA,true,1,1,NA,NA,NA,left,n_s_097.jpg,white,purple,NA,NA,NA,NA,NA,NA,NA,NA,NA,NaN,NA,2231.89999999851,left,1,NA,NA,NA,NA,NA
IrSMhe7E,3k2cedradeesg9mhvkrgq648pmomto,3l2is5hsfevflok0ys1sx1b2i6kunu,IrSMhe7E,2020-0188,2021-11-01,20:03:21,21:37:48,NA,incomplete,false,NA,NA,true,1,2,NA,NA,NA,right,m_l_075.jpg,white,green,NA,NA,NA,NA,NA,NA,NA,NA,NA,NaN,NA,3491.199999999255,right,1,NA,NA,NA,NA,NA
IrSMhe7E,3k2cedradeesg9mhvkrgq648pmomto,3l2is5hsfevflok0ys1sx1b2i6kunu,IrSMhe7E,2020-0188,2021-11-01,20:03:21,21:37:48,NA,incomplete,false,NA,NA,true,1,3,NA,NA,NA,left,n_l_012.jpg,red,blue,NA,NA,NA,NA,NA,NA,NA,NA,NA,NaN,NA,3106.5999999996275,left,1,NA,NA,NA,NA,NA
IrSMhe7E,3k2cedradeesg9mhvkrgq648pmomto,3l2is5hsfevflok0ys1sx1b2i6kunu,IrSMhe7E,2020-0188,2021-11-01,20:03:21,21:37:48,NA,incomplete,false,NA,NA,true,1,4,NA,NA,NA,left,n_s_078.jpg,blue,red,NA,NA,NA,NA,NA,NA,NA,NA,NA,NaN,NA,2930.2000000011176,left,1,NA,NA,NA,NA,NA
IrSMhe7E,3k2cedradeesg9mhvkrgq648pmomto,3l2is5hsfevflok0ys1sx1b2i6kunu,IrSMhe7E,2020-0188,2021-11-01,20:03:21,21:37:48,NA,incomplete,false,NA,NA,true,1,5,NA,NA,NA,left,m_s_042.jpg,orange,purple,NA,NA,NA,NA,NA,NA,NA,NA,NA,NaN,NA,2673,left,1,NA,NA,NA,NA,NA
IrSMhe7E,3k2cedradeesg9mhvkrgq648pmomto,3l2is5hsfevflok0ys1sx1b2i6kunu,IrSMhe7E,2020-0188,2021-11-01,20:03:21,21:37:48,NA,incomplete,false,NA,NA,true,1,6,NA,NA,NA,left,m_l_029.jpg,green,white,NA,NA,NA,NA,NA,NA,NA,NA,NA,NaN,NA,1897.3999999985099,left,1,NA,NA,NA,NA,NA
IrSMhe7E,3k2cedradeesg9mhvkrgq648pmomto,3l2is5hsfevflok0ys1sx1b2i6kunu,IrSMhe7E,2020-0188,2021-11-01,20:03:21,21:37:48,NA,incomplete,false,NA,NA,true,1,7,NA,NA,NA,left,n_s_059.jpg,white,purple,NA,NA,NA,NA,NA,NA,NA,NA,NA,NaN,NA,2341.4000000003725,left,1,NA,NA,NA,NA,NA
IrSMhe7E,3k2cedradeesg9mhvkrgq648pmomto,3l2is5hsfevflok0ys1sx1b2i6kunu,IrSMhe7E,2020-0188,2021-11-01,20:03:21,21:37:48,NA,incomplete,false,NA,NA,true,1,8,NA,NA,NA,left,m_l_101.jpg,purple,orange,NA,NA,NA,NA,NA,NA,NA,NA,NA,NaN,NA,2319.9000000003725,left,1,NA,NA,NA,NA,NA
IrSMhe7E,3k2cedradeesg9mhvkrgq648pmomto,3l2is5hsfevflok0ys1sx1b2i6kunu,IrSMhe7E,2020-0188,2021-11-01,20:03:21,21:37:48,NA,incomplete,false,NA,NA,true,1,9,NA,NA,NA,left,m_s_043.jpg,purple,orange,NA,NA,NA,NA,NA,NA,NA,NA,NA,NaN,NA,5507.699999999255,right,0,NA,NA,NA,NA,NA
IrSMhe7E,3k2cedradeesg9mhvkrgq648pmomto,3l2is5hsfevflok0ys1sx1b2i6kunu,IrSMhe7E,2020-0188,2021-11-01,20:03:21,21:37:48,NA,incomplete,false,NA,NA,true,1,10,NA,NA,NA,left,n_l_004.jpg,blue,red,NA,NA,NA,NA,NA,NA,NA,NA,NA,NaN,NA,2261.199999999255,left,1,NA,NA,NA,NA,NA
IrSMhe7E,3k2cedradeesg9mhvkrgq648pmomto,3l2is5hsfevflok0ys1sx1b2i6kunu,IrSMhe7E,2020-0188,2021-11-01,20:03:21,21:37:48,NA,incomplete,false,NA,NA,true,1,11,NA,NA,NA,right,n_l_009.jpg,green,red,NA,NA,NA,NA,NA,NA,NA,NA,NA,NaN,NA,2133.39999999851,right,1,NA,NA,NA,NA,NA
IrSMhe7E,3k2cedradeesg9mhvkrgq648pmomto,3l2is5hsfevflok0ys1sx1b2i6kunu,IrSMhe7E,2020-0188,2021-11-01,20:03:21,21:37:48,NA,incomplete,false,NA,NA,true,1,12,NA,NA,NA,left,m_s_069.jpg,white,green,NA,NA,NA,NA,NA,NA,NA,NA,NA,NaN,NA,2831.5999999996275,left,1,NA,NA,NA,NA,NA
IrSMhe7E,3k2cedradeesg9mhvkrgq648pmomto,3l2is5hsfevflok0ys1sx1b2i6kunu,IrSMhe7E,2020-0188,2021-11-01,20:03:21,21:37:48,NA,incomplete,false,NA,NA,true,1,13,NA,NA,NA,left,m_l_044.jpg,orange,purple,NA,NA,NA,NA,NA,NA,NA,NA,NA,NaN,NA,2841.5,right,0,NA,NA,NA,NA,NA
IrSMhe7E,3k2cedradeesg9mhvkrgq648pmomto,3l2is5hsfevflok0ys1sx1b2i6kunu,IrSMhe7E,2020-0188,2021-11-01,20:03:21,21:37:48,NA,incomplete,false,NA,NA,true,1,14,NA,NA,NA,left,m_l_098.jpg,red,blue,NA,NA,NA,NA,NA,NA,NA,NA,NA,NaN,NA,2054,right,0,NA,NA,NA,NA,NA
IrSMhe7E,3k2cedradeesg9mhvkrgq648pmomto,3l2is5hsfevflok0ys1sx1b2i6kunu,IrSMhe7E,2020-0188,2021-11-01,20:03:21,21:37:48,NA,incomplete,false,NA,NA,true,1,15,NA,NA,NA,right,m_l_039.jpg,green,red,NA,NA,NA,NA,NA,NA,NA,NA,NA,NaN,NA,3097.7000000011176,right,1,NA,NA,NA,NA,NA
IrSMhe7E,3k2cedradeesg9mhvkrgq648pmomto,3l2is5hsfevflok0ys1sx1b2i6kunu,IrSMhe7E,2020-0188,2021-11-01,20:03:21,21:37:48,NA,incomplete,false,NA,NA,true,1,16,NA,NA,NA,left,n_s_002.jpg,green,red,NA,NA,NA,NA,NA,NA,NA,NA,NA,NaN,NA,2556.0999999996275,left,1,NA,NA,NA,NA,NA
IrSMhe7E,3k2cedradeesg9mhvkrgq648pmomto,3l2is5hsfevflok0ys1sx1b2i6kunu,IrSMhe7E,2020-0188,2021-11-01,20:03:21,21:37:48,NA,incomplete,false,NA,NA,true,1,17,NA,NA,NA,right,m_s_012.jpg,purple,orange,NA,NA,NA,NA,NA,NA,NA,NA,NA,NaN,NA,2802.199999999255,left,0,NA,NA,NA,NA,NA
IrSMhe7E,3k2cedradeesg9mhvkrgq648pmomto,3l2is5hsfevflok0ys1sx1b2i6kunu,IrSMhe7E,2020-0188,2021-11-01,20:03:21,21:37:48,NA,incomplete,false,NA,NA,true,1,18,NA,NA,NA,right,n_l_072.jpg,green,white,NA,NA,NA,NA,NA,NA,NA,NA,NA,NaN,NA,2104.10000000149,right,1,NA,NA,NA,NA,NA
IrSMhe7E,3k2cedradeesg9mhvkrgq648pmomto,3l2is5hsfevflok0ys1sx1b2i6kunu,IrSMhe7E,2020-0188,2021-11-01,20:03:21,21:37:48,NA,incomplete,false,NA,NA,true,1,19,NA,NA,NA,left,n_l_065.jpg,blue,red,NA,NA,NA,NA,NA,NA,NA,NA,NA,NaN,NA,2567.5999999996275,left,1,NA,NA,NA,NA,NA
IrSMhe7E,3k2cedradeesg9mhvkrgq648pmomto,3l2is5hsfevflok0ys1sx1b2i6kunu,IrSMhe7E,2020-0188,2021-11-01,20:03:21,21:37:48,NA,incomplete,false,NA,NA,true,1,20,NA,NA,NA,left,m_s_088.jpg,green,white,NA,NA,NA,NA,NA,NA,NA,NA,NA,NaN,NA,7149.5,left,1,NA,NA,NA,NA,NA
IrSMhe7E,3k2cedradeesg9mhvkrgq648pmomto,3l2is5hsfevflok0ys1sx1b2i6kunu,IrSMhe7E,2020-0188,2021-11-01,20:03:21,21:37:48,NA,incomplete,false,NA,NA,true,1,21,NA,NA,NA,left,m_l_109.jpg,purple,orange,NA,NA,NA,NA,NA,NA,NA,NA,NA,NaN,NA,3933,right,0,NA,NA,NA,NA,NA
IrSMhe7E,3k2cedradeesg9mhvkrgq648pmomto,3l2is5hsfevflok0ys1sx1b2i6kunu,IrSMhe7E,2020-0188,2021-11-01,20:03:21,21:37:48,NA,incomplete,false,NA,true,NA,1,0,NA,NA,NA,left,NA,NA,NA,absent,NA,NA,m_l_109.jpg,purple,m_s_042.jpg,orange,between,NA,NaN,NA,NA,NA,NA,left,7163.10000000149,1,1,1905.5
IrSMhe7E,3k2cedradeesg9mhvkrgq648pmomto,3l2is5hsfevflok0ys1sx1b2i6kunu,IrSMhe7E,2020-0188,2021-11-01,20:03:21,21:37:48,NA,incomplete,false,NA,true,NA,1,1,NA,NA,NA,right,NA,NA,NA,absent,NA,NA,n_l_072.jpg,white,m_s_069.jpg,white,within,NA,NaN,NA,NA,NA,NA,right,2426.9000000003725,1,2,2350.4000000003725
IrSMhe7E,3k2cedradeesg9mhvkrgq648pmomto,3l2is5hsfevflok0ys1sx1b2i6kunu,IrSMhe7E,2020-0188,2021-11-01,20:03:21,21:37:48,NA,incomplete,false,NA,true,NA,1,2,NA,NA,NA,left,NA,NA,NA,absent,NA,NA,m_l_011.jpg,purple,m_s_043.jpg,purple,within,NA,NaN,NA,NA,NA,NA,left,4122.4000000003725,1,0,2307.199999999255
IrSMhe7E,3k2cedradeesg9mhvkrgq648pmomto,3l2is5hsfevflok0ys1sx1b2i6kunu,IrSMhe7E,2020-0188,2021-11-01,20:03:21,21:37:48,NA,incomplete,false,NA,true,NA,1,3,NA,NA,NA,right,NA,NA,NA,absent,NA,NA,n_l_012.jpg,red,m_l_098.jpg,red,within,NA,NaN,NA,NA,NA,NA,right,1914,1,2,2446.9000000003725
IrSMhe7E,3k2cedradeesg9mhvkrgq648pmomto,3l2is5hsfevflok0ys1sx1b2i6kunu,IrSMhe7E,2020-0188,2021-11-01,20:03:21,21:37:48,NA,incomplete,false,NA,true,NA,1,4,NA,NA,NA,right,NA,NA,NA,absent,NA,NA,m_l_039.jpg,red,n_l_065.jpg,blue,between,NA,NaN,NA,NA,NA,NA,right,2043.7999999988824,1,3,1471.9000000003725
IrSMhe7E,3k2cedradeesg9mhvkrgq648pmomto,3l2is5hsfevflok0ys1sx1b2i6kunu,IrSMhe7E,2020-0188,2021-11-01,20:03:21,21:37:48,NA,incomplete,false,NA,true,NA,1,5,NA,NA,NA,left,NA,NA,NA,absent,NA,NA,n_l_004.jpg,blue,n_s_078.jpg,blue,within,NA,NaN,NA,NA,NA,NA,left,2446.60000000149,1,0,2300.699999999255
IrSMhe7E,3k2cedradeesg9mhvkrgq648pmomto,3l2is5hsfevflok0ys1sx1b2i6kunu,IrSMhe7E,2020-0188,2021-11-01,20:03:21,21:37:48,NA,incomplete,false,NA,true,NA,1,6,NA,NA,NA,right,NA,NA,NA,absent,NA,NA,n_s_059.jpg,white,m_l_029.jpg,green,between,NA,NaN,NA,NA,NA,NA,right,4406.0999999996275,1,2,3874.5
IrSMhe7E,3k2cedradeesg9mhvkrgq648pmomto,3l2is5hsfevflok0ys1sx1b2i6kunu,IrSMhe7E,2020-0188,2021-11-01,20:03:21,21:37:48,NA,incomplete,false,NA,true,NA,1,7,NA,NA,NA,left,NA,NA,NA,absent,NA,NA,m_s_012.jpg,orange,m_l_044.jpg,orange,within,NA,NaN,NA,NA,NA,NA,left,5114.800000000745,1,1,1410.199999999255
IrSMhe7E,3k2cedradeesg9mhvkrgq648pmomto,3l2is5hsfevflok0ys1sx1b2i6kunu,IrSMhe7E,2020-0188,2021-11-01,20:03:21,21:37:48,NA,incomplete,false,NA,true,NA,1,8,NA,NA,NA,right,NA,NA,NA,absent,NA,NA,n_s_002.jpg,green,m_l_075.jpg,green,within,NA,NaN,NA,NA,NA,NA,right,2714.199999999255,1,2,1680.5
IrSMhe7E,3k2cedradeesg9mhvkrgq648pmomto,3l2is5hsfevflok0ys1sx1b2i6kunu,IrSMhe7E,2020-0188,2021-11-01,20:03:21,21:37:48,NA,incomplete,false,NA,true,NA,1,9,NA,NA,NA,right,NA,NA,NA,absent,NA,NA,m_s_088.jpg,green,n_l_009.jpg,red,between,NA,NaN,NA,NA,NA,NA,left,4947.0999999996275,0,1,2555.9000000003725
IrSMhe7E,3k2cedradeesg9mhvkrgq648pmomto,3l2is5hsfevflok0ys1sx1b2i6kunu,IrSMhe7E,2020-0188,2021-11-01,20:03:21,21:37:48,NA,incomplete,false,NA,true,NA,1,10,NA,NA,NA,right,NA,NA,NA,absent,NA,NA,m_l_101.jpg,purple,n_s_097.jpg,white,between,NA,NaN,NA,NA,NA,NA,left,5232.9000000003725,0,2,1611.7999999988824
IrSMhe7E,3k2cedradeesg9mhvkrgq648pmomto,3l2is5hsfevflok0ys1sx1b2i6kunu,IrSMhe7E,2020-0188,2021-11-01,20:03:21,21:37:48,NA,incomplete,false,true,NA,NA,2,0,NA,black,n_l_101.jpg,NA,NA,NA,NA,NA,pleasant,unpleasant,NA,NA,NA,NA,NA,none,0,false,NA,NA,NA,NA,NA,NA,NA,NA
IrSMhe7E,3k2cedradeesg9mhvkrgq648pmomto,3l2is5hsfevflok0ys1sx1b2i6kunu,IrSMhe7E,2020-0188,2021-11-01,20:03:21,21:37:48,NA,incomplete,false,true,NA,NA,2,1,NA,black,n_l_066.jpg,NA,NA,NA,NA,NA,pleasant,unpleasant,NA,NA,NA,NA,NA,left,2411.59999999963,true,NA,NA,NA,NA,NA,NA,NA,NA
IrSMhe7E,3k2cedradeesg9mhvkrgq648pmomto,3l2is5hsfevflok0ys1sx1b2i6kunu,IrSMhe7E,2020-0188,2021-11-01,20:03:21,21:37:48,NA,incomplete,false,true,NA,NA,2,2,NA,black,n_s_007.jpg,NA,NA,NA,NA,NA,pleasant,unpleasant,NA,NA,NA,NA,NA,right,2465.60000000149,true,NA,NA,NA,NA,NA,NA,NA,NA
IrSMhe7E,3k2cedradeesg9mhvkrgq648pmomto,3l2is5hsfevflok0ys1sx1b2i6kunu,IrSMhe7E,2020-0188,2021-11-01,20:03:21,21:37:48,NA,incomplete,false,true,NA,NA,2,3,NA,black,n_l_087.jpg,NA,NA,NA,NA,NA,pleasant,unpleasant,NA,NA,NA,NA,NA,left,2391.09999999963,true,NA,NA,NA,NA,NA,NA,NA,NA
IrSMhe7E,3k2cedradeesg9mhvkrgq648pmomto,3l2is5hsfevflok0ys1sx1b2i6kunu,IrSMhe7E,2020-0188,2021-11-01,20:03:21,21:37:48,NA,incomplete,false,true,NA,NA,2,4,NA,black,m_s_070.jpg,NA,NA,NA,NA,NA,pleasant,unpleasant,NA,NA,NA,NA,NA,left,1197.19999999925,true,NA,NA,NA,NA,NA,NA,NA,NA
IrSMhe7E,3k2cedradeesg9mhvkrgq648pmomto,3l2is5hsfevflok0ys1sx1b2i6kunu,IrSMhe7E,2020-0188,2021-11-01,20:03:21,21:37:48,NA,incomplete,false,true,NA,NA,2,5,NA,black,m_l_027.jpg,NA,NA,NA,NA,NA,unpleasant,pleasant,NA,NA,NA,NA,NA,left,2458.40000000037,true,NA,NA,NA,NA,NA,NA,NA,NA
IrSMhe7E,3k2cedradeesg9mhvkrgq648pmomto,3l2is5hsfevflok0ys1sx1b2i6kunu,IrSMhe7E,2020-0188,2021-11-01,20:03:21,21:37:48,NA,incomplete,false,true,NA,NA,2,6,NA,blue,m_s_066.jpg,NA,NA,NA,NA,NA,unpleasant,pleasant,NA,NA,NA,NA,NA,left,1441.29999999888,true,NA,NA,NA,NA,NA,NA,NA,NA
IrSMhe7E,3k2cedradeesg9mhvkrgq648pmomto,3l2is5hsfevflok0ys1sx1b2i6kunu,IrSMhe7E,2020-0188,2021-11-01,20:03:21,21:37:48,NA,incomplete,false,true,NA,NA,2,7,NA,blue,n_s_066.jpg,NA,NA,NA,NA,NA,unpleasant,pleasant,NA,NA,NA,NA,NA,left,1403.90000000037,true,NA,NA,NA,NA,NA,NA,NA,NA
IrSMhe7E,3k2cedradeesg9mhvkrgq648pmomto,3l2is5hsfevflok0ys1sx1b2i6kunu,IrSMhe7E,2020-0188,2021-11-01,20:03:21,21:37:48,NA,incomplete,false,true,NA,NA,2,8,NA,blue,m_l_062.jpg,NA,NA,NA,NA,NA,pleasant,unpleasant,NA,NA,NA,NA,NA,right,2468.90000000037,true,NA,NA,NA,NA,NA,NA,NA,NA
IrSMhe7E,3k2cedradeesg9mhvkrgq648pmomto,3l2is5hsfevflok0ys1sx1b2i6kunu,IrSMhe7E,2020-0188,2021-11-01,20:03:21,21:37:48,NA,incomplete,false,true,NA,NA,2,9,NA,blue,m_s_028.jpg,NA,NA,NA,NA,NA,unpleasant,pleasant,NA,NA,NA,NA,NA,left,1186.70000000112,true,NA,NA,NA,NA,NA,NA,NA,NA
IrSMhe7E,3k2cedradeesg9mhvkrgq648pmomto,3l2is5hsfevflok0ys1sx1b2i6kunu,IrSMhe7E,2020-0188,2021-11-01,20:03:21,21:37:48,NA,incomplete,false,true,NA,NA,2,10,NA,blue,n_s_069.jpg,NA,NA,NA,NA,NA,unpleasant,pleasant,NA,NA,NA,NA,NA,left,1060.70000000112,true,NA,NA,NA,NA,NA,NA,NA,NA
IrSMhe7E,3k2cedradeesg9mhvkrgq648pmomto,3l2is5hsfevflok0ys1sx1b2i6kunu,IrSMhe7E,2020-0188,2021-11-01,20:03:21,21:37:48,NA,incomplete,false,true,NA,NA,2,11,NA,blue,m_s_045.jpg,NA,NA,NA,NA,NA,unpleasant,pleasant,NA,NA,NA,NA,NA,left,1378,true,NA,NA,NA,NA,NA,NA,NA,NA
IrSMhe7E,3k2cedradeesg9mhvkrgq648pmomto,3l2is5hsfevflok0ys1sx1b2i6kunu,IrSMhe7E,2020-0188,2021-11-01,20:03:21,21:37:48,NA,incomplete,false,true,NA,NA,2,12,NA,brown,m_s_036.jpg,NA,NA,NA,NA,NA,pleasant,unpleasant,NA,NA,NA,NA,NA,right,1687.90000000037,true,NA,NA,NA,NA,NA,NA,NA,NA
IrSMhe7E,3k2cedradeesg9mhvkrgq648pmomto,3l2is5hsfevflok0ys1sx1b2i6kunu,IrSMhe7E,2020-0188,2021-11-01,20:03:21,21:37:48,NA,incomplete,false,true,NA,NA,2,13,NA,brown,m_s_033.jpg,NA,NA,NA,NA,NA,pleasant,unpleasant,NA,NA,NA,NA,NA,right,1428.19999999925,true,NA,NA,NA,NA,NA,NA,NA,NA
IrSMhe7E,3k2cedradeesg9mhvkrgq648pmomto,3l2is5hsfevflok0ys1sx1b2i6kunu,IrSMhe7E,2020-0188,2021-11-01,20:03:21,21:37:48,NA,incomplete,false,true,NA,NA,2,14,NA,brown,n_s_033.jpg,NA,NA,NA,NA,NA,unpleasant,pleasant,NA,NA,NA,NA,NA,left,1366.20000000112,true,NA,NA,NA,NA,NA,NA,NA,NA
IrSMhe7E,3k2cedradeesg9mhvkrgq648pmomto,3l2is5hsfevflok0ys1sx1b2i6kunu,IrSMhe7E,2020-0188,2021-11-01,20:03:21,21:37:48,NA,incomplete,false,true,NA,NA,2,15,NA,brown,m_l_036.jpg,NA,NA,NA,NA,NA,unpleasant,pleasant,NA,NA,NA,NA,NA,right,2539.5,true,NA,NA,NA,NA,NA,NA,NA,NA
IrSMhe7E,3k2cedradeesg9mhvkrgq648pmomto,3l2is5hsfevflok0ys1sx1b2i6kunu,IrSMhe7E,2020-0188,2021-11-01,20:03:21,21:37:48,NA,incomplete,false,true,NA,NA,2,16,NA,brown,n_l_075.jpg,NA,NA,NA,NA,NA,unpleasant,pleasant,NA,NA,NA,NA,NA,left,1420.5,true,NA,NA,NA,NA,NA,NA,NA,NA
IrSMhe7E,3k2cedradeesg9mhvkrgq648pmomto,3l2is5hsfevflok0ys1sx1b2i6kunu,IrSMhe7E,2020-0188,2021-11-01,20:03:21,21:37:48,NA,incomplete,false,true,NA,NA,2,17,NA,brown,n_s_036.jpg,NA,NA,NA,NA,NA,unpleasant,pleasant,NA,NA,NA,NA,NA,left,2051.40000000037,true,NA,NA,NA,NA,NA,NA,NA,NA
IrSMhe7E,3k2cedradeesg9mhvkrgq648pmomto,3l2is5hsfevflok0ys1sx1b2i6kunu,IrSMhe7E,2020-0188,2021-11-01,20:03:21,21:37:48,NA,incomplete,false,true,NA,NA,2,18,NA,white,m_l_002.jpg,NA,NA,NA,NA,NA,pleasant,unpleasant,NA,NA,NA,NA,NA,left,1867.30000000075,true,NA,NA,NA,NA,NA,NA,NA,NA
IrSMhe7E,3k2cedradeesg9mhvkrgq648pmomto,3l2is5hsfevflok0ys1sx1b2i6kunu,IrSMhe7E,2020-0188,2021-11-01,20:03:21,21:37:48,NA,incomplete,false,true,NA,NA,2,19,NA,white,m_s_117.jpg,NA,NA,NA,NA,NA,pleasant,unpleasant,NA,NA,NA,NA,NA,none,0,false,NA,NA,NA,NA,NA,NA,NA,NA
IrSMhe7E,3k2cedradeesg9mhvkrgq648pmomto,3l2is5hsfevflok0ys1sx1b2i6kunu,IrSMhe7E,2020-0188,2021-11-01,20:03:21,21:37:48,NA,incomplete,false,true,NA,NA,2,20,NA,white,n_l_093.jpg,NA,NA,NA,NA,NA,pleasant,unpleasant,NA,NA,NA,NA,NA,right,1847.70000000112,true,NA,NA,NA,NA,NA,NA,NA,NA
IrSMhe7E,3k2cedradeesg9mhvkrgq648pmomto,3l2is5hsfevflok0ys1sx1b2i6kunu,IrSMhe7E,2020-0188,2021-11-01,20:03:21,21:37:48,NA,incomplete,false,true,NA,NA,2,21,NA,white,m_s_080.jpg,NA,NA,NA,NA,NA,unpleasant,pleasant,NA,NA,NA,NA,NA,right,1566,true,NA,NA,NA,NA,NA,NA,NA,NA
IrSMhe7E,3k2cedradeesg9mhvkrgq648pmomto,3l2is5hsfevflok0ys1sx1b2i6kunu,IrSMhe7E,2020-0188,2021-11-01,20:03:21,21:37:48,NA,incomplete,false,true,NA,NA,2,22,NA,white,n_s_101.jpg,NA,NA,NA,NA,NA,unpleasant,pleasant,NA,NA,NA,NA,NA,left,1846.90000000037,true,NA,NA,NA,NA,NA,NA,NA,NA
IrSMhe7E,3k2cedradeesg9mhvkrgq648pmomto,3l2is5hsfevflok0ys1sx1b2i6kunu,IrSMhe7E,2020-0188,2021-11-01,20:03:21,21:37:48,NA,incomplete,false,true,NA,NA,2,23,NA,white,n_s_052.jpg,NA,NA,NA,NA,NA,pleasant,unpleasant,NA,NA,NA,NA,NA,right,1760,true,NA,NA,NA,NA,NA,NA,NA,NA
IrSMhe7E,3k2cedradeesg9mhvkrgq648pmomto,3l2is5hsfevflok0ys1sx1b2i6kunu,IrSMhe7E,2020-0188,2021-11-01,20:03:21,21:37:48,NA,incomplete,false,true,NA,NA,2,24,NA,orange,n_l_067.jpg,NA,NA,NA,NA,NA,unpleasant,pleasant,NA,NA,NA,NA,NA,left,1835.40000000037,true,NA,NA,NA,NA,NA,NA,NA,NA
IrSMhe7E,3k2cedradeesg9mhvkrgq648pmomto,3l2is5hsfevflok0ys1sx1b2i6kunu,IrSMhe7E,2020-0188,2021-11-01,20:03:21,21:37:48,NA,incomplete,false,true,NA,NA,2,25,NA,orange,n_s_009.jpg,NA,NA,NA,NA,NA,pleasant,unpleasant,NA,NA,NA,NA,NA,left,1721,true,NA,NA,NA,NA,NA,NA,NA,NA
IrSMhe7E,3k2cedradeesg9mhvkrgq648pmomto,3l2is5hsfevflok0ys1sx1b2i6kunu,IrSMhe7E,2020-0188,2021-11-01,20:03:21,21:37:48,NA,incomplete,false,true,NA,NA,2,26,NA,orange,n_l_068.jpg,NA,NA,NA,NA,NA,unpleasant,pleasant,NA,NA,NA,NA,NA,right,2178.20000000112,true,NA,NA,NA,NA,NA,NA,NA,NA
IrSMhe7E,3k2cedradeesg9mhvkrgq648pmomto,3l2is5hsfevflok0ys1sx1b2i6kunu,IrSMhe7E,2020-0188,2021-11-01,20:03:21,21:37:48,NA,incomplete,false,true,NA,NA,2,27,NA,orange,n_l_083.jpg,NA,NA,NA,NA,NA,pleasant,unpleasant,NA,NA,NA,NA,NA,right,1749.90000000037,true,NA,NA,NA,NA,NA,NA,NA,NA
IrSMhe7E,3k2cedradeesg9mhvkrgq648pmomto,3l2is5hsfevflok0ys1sx1b2i6kunu,IrSMhe7E,2020-0188,2021-11-01,20:03:21,21:37:48,NA,incomplete,false,true,NA,NA,2,28,NA,orange,m_s_044.jpg,NA,NA,NA,NA,NA,pleasant,unpleasant,NA,NA,NA,NA,NA,left,1907.09999999963,true,NA,NA,NA,NA,NA,NA,NA,NA
IrSMhe7E,3k2cedradeesg9mhvkrgq648pmomto,3l2is5hsfevflok0ys1sx1b2i6kunu,IrSMhe7E,2020-0188,2021-11-01,20:03:21,21:37:48,NA,incomplete,false,true,NA,NA,2,29,NA,orange,m_s_081.jpg,NA,NA,NA,NA,NA,pleasant,unpleasant,NA,NA,NA,NA,NA,left,1791.30000000075,true,NA,NA,NA,NA,NA,NA,NA,NA
IrSMhe7E,3k2cedradeesg9mhvkrgq648pmomto,3l2is5hsfevflok0ys1sx1b2i6kunu,IrSMhe7E,2020-0188,2021-11-01,20:03:21,21:37:48,NA,incomplete,false,true,NA,NA,2,30,NA,purple,m_s_054.jpg,NA,NA,NA,NA,NA,unpleasant,pleasant,NA,NA,NA,NA,NA,left,1311,true,NA,NA,NA,NA,NA,NA,NA,NA
IrSMhe7E,3k2cedradeesg9mhvkrgq648pmomto,3l2is5hsfevflok0ys1sx1b2i6kunu,IrSMhe7E,2020-0188,2021-11-01,20:03:21,21:37:48,NA,incomplete,false,true,NA,NA,2,31,NA,purple,n_s_113.jpg,NA,NA,NA,NA,NA,unpleasant,pleasant,NA,NA,NA,NA,NA,left,1056.39999999851,true,NA,NA,NA,NA,NA,NA,NA,NA
IrSMhe7E,3k2cedradeesg9mhvkrgq648pmomto,3l2is5hsfevflok0ys1sx1b2i6kunu,IrSMhe7E,2020-0188,2021-11-01,20:03:21,21:37:48,NA,incomplete,false,true,NA,NA,2,32,NA,purple,n_s_076.jpg,NA,NA,NA,NA,NA,pleasant,unpleasant,NA,NA,NA,NA,NA,right,1427.09999999963,true,NA,NA,NA,NA,NA,NA,NA,NA
IrSMhe7E,3k2cedradeesg9mhvkrgq648pmomto,3l2is5hsfevflok0ys1sx1b2i6kunu,IrSMhe7E,2020-0188,2021-11-01,20:03:21,21:37:48,NA,incomplete,false,true,NA,NA,2,33,NA,purple,m_l_026.jpg,NA,NA,NA,NA,NA,pleasant,unpleasant,NA,NA,NA,NA,NA,right,1771.5,true,NA,NA,NA,NA,NA,NA,NA,NA
IrSMhe7E,3k2cedradeesg9mhvkrgq648pmomto,3l2is5hsfevflok0ys1sx1b2i6kunu,IrSMhe7E,2020-0188,2021-11-01,20:03:21,21:37:48,NA,incomplete,false,true,NA,NA,2,34,NA,purple,n_s_053.jpg,NA,NA,NA,NA,NA,pleasant,unpleasant,NA,NA,NA,NA,NA,right,2115.5,true,NA,NA,NA,NA,NA,NA,NA,NA
IrSMhe7E,3k2cedradeesg9mhvkrgq648pmomto,3l2is5hsfevflok0ys1sx1b2i6kunu,IrSMhe7E,2020-0188,2021-11-01,20:03:21,21:37:48,NA,incomplete,false,true,NA,NA,2,35,NA,purple,n_l_097.jpg,NA,NA,NA,NA,NA,pleasant,unpleasant,NA,NA,NA,NA,NA,right,1401,true,NA,NA,NA,NA,NA,NA,NA,NA
IrSMhe7E,3k2cedradeesg9mhvkrgq648pmomto,3l2is5hsfevflok0ys1sx1b2i6kunu,IrSMhe7E,2020-0188,2021-11-01,20:03:21,21:37:48,NA,incomplete,false,NA,NA,true,2,0,NA,NA,NA,right,n_s_066.jpg,brown,blue,NA,NA,NA,NA,NA,NA,NA,NA,NA,NaN,NA,3628.2000000011176,left,0,NA,NA,NA,NA,NA
IrSMhe7E,3k2cedradeesg9mhvkrgq648pmomto,3l2is5hsfevflok0ys1sx1b2i6kunu,IrSMhe7E,2020-0188,2021-11-01,20:03:21,21:37:48,NA,incomplete,false,NA,NA,true,2,1,NA,NA,NA,left,n_l_097.jpg,purple,orange,NA,NA,NA,NA,NA,NA,NA,NA,NA,NaN,NA,2055.199999999255,right,0,NA,NA,NA,NA,NA
IrSMhe7E,3k2cedradeesg9mhvkrgq648pmomto,3l2is5hsfevflok0ys1sx1b2i6kunu,IrSMhe7E,2020-0188,2021-11-01,20:03:21,21:37:48,NA,incomplete,false,NA,NA,true,2,2,NA,NA,NA,right,n_s_101.jpg,orange,white,NA,NA,NA,NA,NA,NA,NA,NA,NA,NaN,NA,4632.9000000003725,right,1,NA,NA,NA,NA,NA
IrSMhe7E,3k2cedradeesg9mhvkrgq648pmomto,3l2is5hsfevflok0ys1sx1b2i6kunu,IrSMhe7E,2020-0188,2021-11-01,20:03:21,21:37:48,NA,incomplete,false,NA,NA,true,2,3,NA,NA,NA,left,n_s_113.jpg,purple,orange,NA,NA,NA,NA,NA,NA,NA,NA,NA,NaN,NA,2764.0999999996275,left,1,NA,NA,NA,NA,NA
IrSMhe7E,3k2cedradeesg9mhvkrgq648pmomto,3l2is5hsfevflok0ys1sx1b2i6kunu,IrSMhe7E,2020-0188,2021-11-01,20:03:21,21:37:48,NA,incomplete,false,NA,NA,true,2,4,NA,NA,NA,right,n_l_075.jpg,white,brown,NA,NA,NA,NA,NA,NA,NA,NA,NA,NaN,NA,2507.5,left,0,NA,NA,NA,NA,NA
IrSMhe7E,3k2cedradeesg9mhvkrgq648pmomto,3l2is5hsfevflok0ys1sx1b2i6kunu,IrSMhe7E,2020-0188,2021-11-01,20:03:21,21:37:48,NA,incomplete,false,NA,NA,true,2,5,NA,NA,NA,right,n_s_052.jpg,brown,white,NA,NA,NA,NA,NA,NA,NA,NA,NA,NaN,NA,1759.9000000003725,right,1,NA,NA,NA,NA,NA
IrSMhe7E,3k2cedradeesg9mhvkrgq648pmomto,3l2is5hsfevflok0ys1sx1b2i6kunu,IrSMhe7E,2020-0188,2021-11-01,20:03:21,21:37:48,NA,incomplete,false,NA,NA,true,2,6,NA,NA,NA,right,n_l_093.jpg,orange,white,NA,NA,NA,NA,NA,NA,NA,NA,NA,NaN,NA,3933.5999999996275,right,1,NA,NA,NA,NA,NA
IrSMhe7E,3k2cedradeesg9mhvkrgq648pmomto,3l2is5hsfevflok0ys1sx1b2i6kunu,IrSMhe7E,2020-0188,2021-11-01,20:03:21,21:37:48,NA,incomplete,false,NA,NA,true,2,7,NA,NA,NA,left,n_s_033.jpg,brown,white,NA,NA,NA,NA,NA,NA,NA,NA,NA,NaN,NA,1759,right,0,NA,NA,NA,NA,NA
IrSMhe7E,3k2cedradeesg9mhvkrgq648pmomto,3l2is5hsfevflok0ys1sx1b2i6kunu,IrSMhe7E,2020-0188,2021-11-01,20:03:21,21:37:48,NA,incomplete,false,NA,NA,true,2,8,NA,NA,NA,left,m_s_044.jpg,orange,purple,NA,NA,NA,NA,NA,NA,NA,NA,NA,NaN,NA,3627.5,left,1,NA,NA,NA,NA,NA
IrSMhe7E,3k2cedradeesg9mhvkrgq648pmomto,3l2is5hsfevflok0ys1sx1b2i6kunu,IrSMhe7E,2020-0188,2021-11-01,20:03:21,21:37:48,NA,incomplete,false,NA,NA,true,2,9,NA,NA,NA,left,n_s_036.jpg,brown,blue,NA,NA,NA,NA,NA,NA,NA,NA,NA,NaN,NA,2526.2000000011176,left,1,NA,NA,NA,NA,NA
IrSMhe7E,3k2cedradeesg9mhvkrgq648pmomto,3l2is5hsfevflok0ys1sx1b2i6kunu,IrSMhe7E,2020-0188,2021-11-01,20:03:21,21:37:48,NA,incomplete,false,NA,NA,true,2,10,NA,NA,NA,right,m_l_062.jpg,brown,blue,NA,NA,NA,NA,NA,NA,NA,NA,NA,NaN,NA,3235.5999999996275,right,1,NA,NA,NA,NA,NA
IrSMhe7E,3k2cedradeesg9mhvkrgq648pmomto,3l2is5hsfevflok0ys1sx1b2i6kunu,IrSMhe7E,2020-0188,2021-11-01,20:03:21,21:37:48,NA,incomplete,false,NA,NA,true,2,11,NA,NA,NA,right,m_s_045.jpg,black,blue,NA,NA,NA,NA,NA,NA,NA,NA,NA,NaN,NA,2960.7999999988824,right,1,NA,NA,NA,NA,NA
IrSMhe7E,3k2cedradeesg9mhvkrgq648pmomto,3l2is5hsfevflok0ys1sx1b2i6kunu,IrSMhe7E,2020-0188,2021-11-01,20:03:21,21:37:48,NA,incomplete,false,NA,NA,true,2,12,NA,NA,NA,left,n_l_066.jpg,black,blue,NA,NA,NA,NA,NA,NA,NA,NA,NA,NaN,NA,2379.10000000149,left,1,NA,NA,NA,NA,NA
IrSMhe7E,3k2cedradeesg9mhvkrgq648pmomto,3l2is5hsfevflok0ys1sx1b2i6kunu,IrSMhe7E,2020-0188,2021-11-01,20:03:21,21:37:48,NA,incomplete,false,NA,NA,true,2,13,NA,NA,NA,right,m_s_081.jpg,white,orange,NA,NA,NA,NA,NA,NA,NA,NA,NA,NaN,NA,2418.4000000003725,right,1,NA,NA,NA,NA,NA
IrSMhe7E,3k2cedradeesg9mhvkrgq648pmomto,3l2is5hsfevflok0ys1sx1b2i6kunu,IrSMhe7E,2020-0188,2021-11-01,20:03:21,21:37:48,NA,incomplete,false,NA,NA,true,2,14,NA,NA,NA,right,n_s_069.jpg,brown,blue,NA,NA,NA,NA,NA,NA,NA,NA,NA,NaN,NA,5074.4000000003725,right,1,NA,NA,NA,NA,NA
IrSMhe7E,3k2cedradeesg9mhvkrgq648pmomto,3l2is5hsfevflok0ys1sx1b2i6kunu,IrSMhe7E,2020-0188,2021-11-01,20:03:21,21:37:48,NA,incomplete,false,NA,NA,true,2,15,NA,NA,NA,left,m_s_117.jpg,white,orange,NA,NA,NA,NA,NA,NA,NA,NA,NA,NaN,NA,2398.0999999996275,left,1,NA,NA,NA,NA,NA
IrSMhe7E,3k2cedradeesg9mhvkrgq648pmomto,3l2is5hsfevflok0ys1sx1b2i6kunu,IrSMhe7E,2020-0188,2021-11-01,20:03:21,21:37:48,NA,incomplete,false,NA,NA,true,2,16,NA,NA,NA,left,m_s_070.jpg,black,blue,NA,NA,NA,NA,NA,NA,NA,NA,NA,NaN,NA,2265.4000000003725,left,1,NA,NA,NA,NA,NA
IrSMhe7E,3k2cedradeesg9mhvkrgq648pmomto,3l2is5hsfevflok0ys1sx1b2i6kunu,IrSMhe7E,2020-0188,2021-11-01,20:03:21,21:37:48,NA,incomplete,false,NA,NA,true,2,17,NA,NA,NA,right,m_s_033.jpg,blue,brown,NA,NA,NA,NA,NA,NA,NA,NA,NA,NaN,NA,2368.699999999255,right,1,NA,NA,NA,NA,NA
IrSMhe7E,3k2cedradeesg9mhvkrgq648pmomto,3l2is5hsfevflok0ys1sx1b2i6kunu,IrSMhe7E,2020-0188,2021-11-01,20:03:21,21:37:48,NA,incomplete,false,NA,NA,true,2,18,NA,NA,NA,left,m_l_027.jpg,black,blue,NA,NA,NA,NA,NA,NA,NA,NA,NA,NaN,NA,3199,left,1,NA,NA,NA,NA,NA
IrSMhe7E,3k2cedradeesg9mhvkrgq648pmomto,3l2is5hsfevflok0ys1sx1b2i6kunu,IrSMhe7E,2020-0188,2021-11-01,20:03:21,21:37:48,NA,incomplete,false,NA,NA,true,2,19,NA,NA,NA,left,n_l_068.jpg,orange,white,NA,NA,NA,NA,NA,NA,NA,NA,NA,NaN,NA,2586.800000000745,left,1,NA,NA,NA,NA,NA
IrSMhe7E,3k2cedradeesg9mhvkrgq648pmomto,3l2is5hsfevflok0ys1sx1b2i6kunu,IrSMhe7E,2020-0188,2021-11-01,20:03:21,21:37:48,NA,incomplete,false,NA,NA,true,2,20,NA,NA,NA,left,n_s_076.jpg,purple,orange,NA,NA,NA,NA,NA,NA,NA,NA,NA,NaN,NA,2626.5,left,1,NA,NA,NA,NA,NA
IrSMhe7E,3k2cedradeesg9mhvkrgq648pmomto,3l2is5hsfevflok0ys1sx1b2i6kunu,IrSMhe7E,2020-0188,2021-11-01,20:03:21,21:37:48,NA,incomplete,false,NA,NA,true,2,21,NA,NA,NA,right,n_s_009.jpg,white,orange,NA,NA,NA,NA,NA,NA,NA,NA,NA,NaN,NA,16584.5,right,1,NA,NA,NA,NA,NA
IrSMhe7E,3k2cedradeesg9mhvkrgq648pmomto,3l2is5hsfevflok0ys1sx1b2i6kunu,IrSMhe7E,2020-0188,2021-11-01,20:03:21,21:37:48,NA,incomplete,false,NA,true,NA,2,0,NA,NA,NA,left,NA,NA,NA,absent,NA,NA,n_s_066.jpg,blue,m_s_045.jpg,blue,within,NA,NaN,NA,NA,NA,NA,right,4727.699999999255,0,1,2584.0999999996275
IrSMhe7E,3k2cedradeesg9mhvkrgq648pmomto,3l2is5hsfevflok0ys1sx1b2i6kunu,IrSMhe7E,2020-0188,2021-11-01,20:03:21,21:37:48,NA,incomplete,false,NA,true,NA,2,1,NA,NA,NA,right,NA,NA,NA,absent,NA,NA,n_s_076.jpg,purple,m_s_044.jpg,orange,between,NA,NaN,NA,NA,NA,NA,left,2908.699999999255,0,0,2605.5
IrSMhe7E,3k2cedradeesg9mhvkrgq648pmomto,3l2is5hsfevflok0ys1sx1b2i6kunu,IrSMhe7E,2020-0188,2021-11-01,20:03:21,21:37:48,NA,incomplete,false,NA,true,NA,2,2,NA,NA,NA,left,NA,NA,NA,absent,NA,NA,n_s_009.jpg,orange,m_s_081.jpg,orange,within,NA,NaN,NA,NA,NA,NA,right,3519.7000000011176,0,1,1285.0999999996275
IrSMhe7E,3k2cedradeesg9mhvkrgq648pmomto,3l2is5hsfevflok0ys1sx1b2i6kunu,IrSMhe7E,2020-0188,2021-11-01,20:03:21,21:37:48,NA,incomplete,false,NA,true,NA,2,3,NA,NA,NA,right,NA,NA,NA,absent,NA,NA,m_l_062.jpg,blue,m_s_070.jpg,black,between,NA,NaN,NA,NA,NA,NA,right,2948.300000000745,1,2,2722
IrSMhe7E,3k2cedradeesg9mhvkrgq648pmomto,3l2is5hsfevflok0ys1sx1b2i6kunu,IrSMhe7E,2020-0188,2021-11-01,20:03:21,21:37:48,NA,incomplete,false,NA,true,NA,2,4,NA,NA,NA,left,NA,NA,NA,absent,NA,NA,n_s_069.jpg,blue,n_s_033.jpg,brown,between,NA,NaN,NA,NA,NA,NA,right,2760.800000000745,0,2,1895.4000000003725
IrSMhe7E,3k2cedradeesg9mhvkrgq648pmomto,3l2is5hsfevflok0ys1sx1b2i6kunu,IrSMhe7E,2020-0188,2021-11-01,20:03:21,21:37:48,NA,incomplete,false,NA,true,NA,2,5,NA,NA,NA,right,NA,NA,NA,absent,NA,NA,n_s_052.jpg,white,m_s_117.jpg,white,within,NA,NaN,NA,NA,NA,NA,right,2594.199999999255,1,3,3548.7000000011176
IrSMhe7E,3k2cedradeesg9mhvkrgq648pmomto,3l2is5hsfevflok0ys1sx1b2i6kunu,IrSMhe7E,2020-0188,2021-11-01,20:03:21,21:37:48,NA,incomplete,false,NA,true,NA,2,6,NA,NA,NA,right,NA,NA,NA,absent,NA,NA,n_s_036.jpg,brown,m_s_033.jpg,brown,within,NA,NaN,NA,NA,NA,NA,left,3156.699999999255,0,2,2183.2999999988824
IrSMhe7E,3k2cedradeesg9mhvkrgq648pmomto,3l2is5hsfevflok0ys1sx1b2i6kunu,IrSMhe7E,2020-0188,2021-11-01,20:03:21,21:37:48,NA,incomplete,false,NA,true,NA,2,7,NA,NA,NA,right,NA,NA,NA,absent,NA,NA,n_l_093.jpg,white,n_l_075.jpg,brown,between,NA,NaN,NA,NA,NA,NA,left,2585.5,0,1,2026.5
IrSMhe7E,3k2cedradeesg9mhvkrgq648pmomto,3l2is5hsfevflok0ys1sx1b2i6kunu,IrSMhe7E,2020-0188,2021-11-01,20:03:21,21:37:48,NA,incomplete,false,NA,true,NA,2,8,NA,NA,NA,right,NA,NA,NA,absent,NA,NA,m_l_027.jpg,black,n_l_066.jpg,black,within,NA,NaN,NA,NA,NA,NA,right,2241.2999999988824,1,1,2016.9000000003725
IrSMhe7E,3k2cedradeesg9mhvkrgq648pmomto,3l2is5hsfevflok0ys1sx1b2i6kunu,IrSMhe7E,2020-0188,2021-11-01,20:03:21,21:37:48,NA,incomplete,false,NA,true,NA,2,9,NA,NA,NA,right,NA,NA,NA,absent,NA,NA,n_l_097.jpg,purple,n_s_113.jpg,purple,within,NA,NaN,NA,NA,NA,NA,left,4396.300000000745,0,2,1002.3999999985099
IrSMhe7E,3k2cedradeesg9mhvkrgq648pmomto,3l2is5hsfevflok0ys1sx1b2i6kunu,IrSMhe7E,2020-0188,2021-11-01,20:03:21,21:37:48,NA,incomplete,false,NA,true,NA,2,10,NA,NA,NA,right,NA,NA,NA,absent,NA,NA,n_l_068.jpg,orange,n_s_101.jpg,white,between,NA,NaN,NA,NA,NA,NA,left,4092.7999999988824,0,1,2035.5
IrSMhe7E,3k2cedradeesg9mhvkrgq648pmomto,3l2is5hsfevflok0ys1sx1b2i6kunu,IrSMhe7E,2020-0188,2021-11-01,20:03:21,21:37:48,NA,incomplete,false,true,NA,NA,3,0,NA,brown,m_s_047.jpg,NA,NA,NA,NA,NA,pleasant,unpleasant,NA,NA,NA,NA,NA,right,2782.90000000037,true,NA,NA,NA,NA,NA,NA,NA,NA
IrSMhe7E,3k2cedradeesg9mhvkrgq648pmomto,3l2is5hsfevflok0ys1sx1b2i6kunu,IrSMhe7E,2020-0188,2021-11-01,20:03:21,21:37:48,NA,incomplete,false,true,NA,NA,3,1,NA,brown,n_l_107.jpg,NA,NA,NA,NA,NA,pleasant,unpleasant,NA,NA,NA,NA,NA,left,2983.19999999925,true,NA,NA,NA,NA,NA,NA,NA,NA
IrSMhe7E,3k2cedradeesg9mhvkrgq648pmomto,3l2is5hsfevflok0ys1sx1b2i6kunu,IrSMhe7E,2020-0188,2021-11-01,20:03:21,21:37:48,NA,incomplete,false,true,NA,NA,3,2,NA,brown,n_l_025.jpg,NA,NA,NA,NA,NA,unpleasant,pleasant,NA,NA,NA,NA,NA,right,2225.60000000149,true,NA,NA,NA,NA,NA,NA,NA,NA
IrSMhe7E,3k2cedradeesg9mhvkrgq648pmomto,3l2is5hsfevflok0ys1sx1b2i6kunu,IrSMhe7E,2020-0188,2021-11-01,20:03:21,21:37:48,NA,incomplete,false,true,NA,NA,3,3,NA,brown,n_s_108.jpg,NA,NA,NA,NA,NA,unpleasant,pleasant,NA,NA,NA,NA,NA,right,1986.29999999888,true,NA,NA,NA,NA,NA,NA,NA,NA
IrSMhe7E,3k2cedradeesg9mhvkrgq648pmomto,3l2is5hsfevflok0ys1sx1b2i6kunu,IrSMhe7E,2020-0188,2021-11-01,20:03:21,21:37:48,NA,incomplete,false,true,NA,NA,3,4,NA,brown,m_s_110.jpg,NA,NA,NA,NA,NA,pleasant,unpleasant,NA,NA,NA,NA,NA,left,2582.69999999925,true,NA,NA,NA,NA,NA,NA,NA,NA
IrSMhe7E,3k2cedradeesg9mhvkrgq648pmomto,3l2is5hsfevflok0ys1sx1b2i6kunu,IrSMhe7E,2020-0188,2021-11-01,20:03:21,21:37:48,NA,incomplete,false,true,NA,NA,3,5,NA,brown,n_s_027.jpg,NA,NA,NA,NA,NA,unpleasant,pleasant,NA,NA,NA,NA,NA,none,0,false,NA,NA,NA,NA,NA,NA,NA,NA
IrSMhe7E,3k2cedradeesg9mhvkrgq648pmomto,3l2is5hsfevflok0ys1sx1b2i6kunu,IrSMhe7E,2020-0188,2021-11-01,20:03:21,21:37:48,NA,incomplete,false,true,NA,NA,3,6,NA,white,m_l_113.jpg,NA,NA,NA,NA,NA,unpleasant,pleasant,NA,NA,NA,NA,NA,right,3274.90000000037,true,NA,NA,NA,NA,NA,NA,NA,NA
IrSMhe7E,3k2cedradeesg9mhvkrgq648pmomto,3l2is5hsfevflok0ys1sx1b2i6kunu,IrSMhe7E,2020-0188,2021-11-01,20:03:21,21:37:48,NA,incomplete,false,true,NA,NA,3,7,NA,white,m_s_057.jpg,NA,NA,NA,NA,NA,unpleasant,pleasant,NA,NA,NA,NA,NA,right,1736.70000000112,true,NA,NA,NA,NA,NA,NA,NA,NA
IrSMhe7E,3k2cedradeesg9mhvkrgq648pmomto,3l2is5hsfevflok0ys1sx1b2i6kunu,IrSMhe7E,2020-0188,2021-11-01,20:03:21,21:37:48,NA,incomplete,false,true,NA,NA,3,8,NA,white,n_s_110.jpg,NA,NA,NA,NA,NA,pleasant,unpleasant,NA,NA,NA,NA,NA,left,1619.89999999851,true,NA,NA,NA,NA,NA,NA,NA,NA
IrSMhe7E,3k2cedradeesg9mhvkrgq648pmomto,3l2is5hsfevflok0ys1sx1b2i6kunu,IrSMhe7E,2020-0188,2021-11-01,20:03:21,21:37:48,NA,incomplete,false,true,NA,NA,3,9,NA,white,n_s_011.jpg,NA,NA,NA,NA,NA,unpleasant,pleasant,NA,NA,NA,NA,NA,right,3016.90000000037,true,NA,NA,NA,NA,NA,NA,NA,NA
IrSMhe7E,3k2cedradeesg9mhvkrgq648pmomto,3l2is5hsfevflok0ys1sx1b2i6kunu,IrSMhe7E,2020-0188,2021-11-01,20:03:21,21:37:48,NA,incomplete,false,true,NA,NA,3,10,NA,white,n_s_067.jpg,NA,NA,NA,NA,NA,unpleasant,pleasant,NA,NA,NA,NA,NA,right,2947.59999999963,true,NA,NA,NA,NA,NA,NA,NA,NA
IrSMhe7E,3k2cedradeesg9mhvkrgq648pmomto,3l2is5hsfevflok0ys1sx1b2i6kunu,IrSMhe7E,2020-0188,2021-11-01,20:03:21,21:37:48,NA,incomplete,false,true,NA,NA,3,11,NA,white,m_l_072.jpg,NA,NA,NA,NA,NA,pleasant,unpleasant,NA,NA,NA,NA,NA,left,1703.09999999963,true,NA,NA,NA,NA,NA,NA,NA,NA
IrSMhe7E,3k2cedradeesg9mhvkrgq648pmomto,3l2is5hsfevflok0ys1sx1b2i6kunu,IrSMhe7E,2020-0188,2021-11-01,20:03:21,21:37:48,NA,incomplete,false,true,NA,NA,3,12,NA,black,m_s_041.jpg,NA,NA,NA,NA,NA,pleasant,unpleasant,NA,NA,NA,NA,NA,left,1477.5,true,NA,NA,NA,NA,NA,NA,NA,NA
IrSMhe7E,3k2cedradeesg9mhvkrgq648pmomto,3l2is5hsfevflok0ys1sx1b2i6kunu,IrSMhe7E,2020-0188,2021-11-01,20:03:21,21:37:48,NA,incomplete,false,true,NA,NA,3,13,NA,black,n_s_086.jpg,NA,NA,NA,NA,NA,pleasant,unpleasant,NA,NA,NA,NA,NA,right,2620.20000000112,true,NA,NA,NA,NA,NA,NA,NA,NA
IrSMhe7E,3k2cedradeesg9mhvkrgq648pmomto,3l2is5hsfevflok0ys1sx1b2i6kunu,IrSMhe7E,2020-0188,2021-11-01,20:03:21,21:37:48,NA,incomplete,false,true,NA,NA,3,14,NA,black,m_l_108.jpg,NA,NA,NA,NA,NA,unpleasant,pleasant,NA,NA,NA,NA,NA,right,1783,true,NA,NA,NA,NA,NA,NA,NA,NA
IrSMhe7E,3k2cedradeesg9mhvkrgq648pmomto,3l2is5hsfevflok0ys1sx1b2i6kunu,IrSMhe7E,2020-0188,2021-11-01,20:03:21,21:37:48,NA,incomplete,false,true,NA,NA,3,15,NA,black,m_l_086.jpg,NA,NA,NA,NA,NA,unpleasant,pleasant,NA,NA,NA,NA,NA,right,1275.09999999963,true,NA,NA,NA,NA,NA,NA,NA,NA
IrSMhe7E,3k2cedradeesg9mhvkrgq648pmomto,3l2is5hsfevflok0ys1sx1b2i6kunu,IrSMhe7E,2020-0188,2021-11-01,20:03:21,21:37:48,NA,incomplete,false,true,NA,NA,3,16,NA,black,m_l_070.jpg,NA,NA,NA,NA,NA,pleasant,unpleasant,NA,NA,NA,NA,NA,left,1584.30000000075,true,NA,NA,NA,NA,NA,NA,NA,NA
IrSMhe7E,3k2cedradeesg9mhvkrgq648pmomto,3l2is5hsfevflok0ys1sx1b2i6kunu,IrSMhe7E,2020-0188,2021-11-01,20:03:21,21:37:48,NA,incomplete,false,true,NA,NA,3,17,NA,black,n_l_080.jpg,NA,NA,NA,NA,NA,pleasant,unpleasant,NA,NA,NA,NA,NA,right,1488,true,NA,NA,NA,NA,NA,NA,NA,NA
IrSMhe7E,3k2cedradeesg9mhvkrgq648pmomto,3l2is5hsfevflok0ys1sx1b2i6kunu,IrSMhe7E,2020-0188,2021-11-01,20:03:21,21:37:48,NA,incomplete,false,true,NA,NA,3,18,NA,red,n_l_113.jpg,NA,NA,NA,NA,NA,pleasant,unpleasant,NA,NA,NA,NA,NA,right,1721,true,NA,NA,NA,NA,NA,NA,NA,NA
IrSMhe7E,3k2cedradeesg9mhvkrgq648pmomto,3l2is5hsfevflok0ys1sx1b2i6kunu,IrSMhe7E,2020-0188,2021-11-01,20:03:21,21:37:48,NA,incomplete,false,true,NA,NA,3,19,NA,red,n_s_030.jpg,NA,NA,NA,NA,NA,unpleasant,pleasant,NA,NA,NA,NA,NA,right,1569.29999999888,true,NA,NA,NA,NA,NA,NA,NA,NA
IrSMhe7E,3k2cedradeesg9mhvkrgq648pmomto,3l2is5hsfevflok0ys1sx1b2i6kunu,IrSMhe7E,2020-0188,2021-11-01,20:03:21,21:37:48,NA,incomplete,false,true,NA,NA,3,20,NA,red,m_l_085.jpg,NA,NA,NA,NA,NA,pleasant,unpleasant,NA,NA,NA,NA,NA,right,1511.5,true,NA,NA,NA,NA,NA,NA,NA,NA
IrSMhe7E,3k2cedradeesg9mhvkrgq648pmomto,3l2is5hsfevflok0ys1sx1b2i6kunu,IrSMhe7E,2020-0188,2021-11-01,20:03:21,21:37:48,NA,incomplete,false,true,NA,NA,3,21,NA,red,m_l_040.jpg,NA,NA,NA,NA,NA,unpleasant,pleasant,NA,NA,NA,NA,NA,left,1740.79999999888,true,NA,NA,NA,NA,NA,NA,NA,NA
IrSMhe7E,3k2cedradeesg9mhvkrgq648pmomto,3l2is5hsfevflok0ys1sx1b2i6kunu,IrSMhe7E,2020-0188,2021-11-01,20:03:21,21:37:48,NA,incomplete,false,true,NA,NA,3,22,NA,red,m_l_094.jpg,NA,NA,NA,NA,NA,pleasant,unpleasant,NA,NA,NA,NA,NA,right,1374.80000000075,true,NA,NA,NA,NA,NA,NA,NA,NA
IrSMhe7E,3k2cedradeesg9mhvkrgq648pmomto,3l2is5hsfevflok0ys1sx1b2i6kunu,IrSMhe7E,2020-0188,2021-11-01,20:03:21,21:37:48,NA,incomplete,false,true,NA,NA,3,23,NA,red,m_l_077.jpg,NA,NA,NA,NA,NA,unpleasant,pleasant,NA,NA,NA,NA,NA,left,2757.39999999851,true,NA,NA,NA,NA,NA,NA,NA,NA
IrSMhe7E,3k2cedradeesg9mhvkrgq648pmomto,3l2is5hsfevflok0ys1sx1b2i6kunu,IrSMhe7E,2020-0188,2021-11-01,20:03:21,21:37:48,NA,incomplete,false,true,NA,NA,3,24,NA,gray,n_s_117.jpg,NA,NA,NA,NA,NA,unpleasant,pleasant,NA,NA,NA,NA,NA,right,2212.30000000075,true,NA,NA,NA,NA,NA,NA,NA,NA
IrSMhe7E,3k2cedradeesg9mhvkrgq648pmomto,3l2is5hsfevflok0ys1sx1b2i6kunu,IrSMhe7E,2020-0188,2021-11-01,20:03:21,21:37:48,NA,incomplete,false,true,NA,NA,3,25,NA,gray,n_s_095.jpg,NA,NA,NA,NA,NA,unpleasant,pleasant,NA,NA,NA,NA,NA,right,1450.69999999925,true,NA,NA,NA,NA,NA,NA,NA,NA
IrSMhe7E,3k2cedradeesg9mhvkrgq648pmomto,3l2is5hsfevflok0ys1sx1b2i6kunu,IrSMhe7E,2020-0188,2021-11-01,20:03:21,21:37:48,NA,incomplete,false,true,NA,NA,3,26,NA,gray,m_s_095.jpg,NA,NA,NA,NA,NA,unpleasant,pleasant,NA,NA,NA,NA,NA,right,2216.89999999851,true,NA,NA,NA,NA,NA,NA,NA,NA
IrSMhe7E,3k2cedradeesg9mhvkrgq648pmomto,3l2is5hsfevflok0ys1sx1b2i6kunu,IrSMhe7E,2020-0188,2021-11-01,20:03:21,21:37:48,NA,incomplete,false,true,NA,NA,3,27,NA,gray,m_s_037.jpg,NA,NA,NA,NA,NA,pleasant,unpleasant,NA,NA,NA,NA,NA,left,1669.89999999851,true,NA,NA,NA,NA,NA,NA,NA,NA
IrSMhe7E,3k2cedradeesg9mhvkrgq648pmomto,3l2is5hsfevflok0ys1sx1b2i6kunu,IrSMhe7E,2020-0188,2021-11-01,20:03:21,21:37:48,NA,incomplete,false,true,NA,NA,3,28,NA,gray,n_l_105.jpg,NA,NA,NA,NA,NA,unpleasant,pleasant,NA,NA,NA,NA,NA,right,1479,true,NA,NA,NA,NA,NA,NA,NA,NA
IrSMhe7E,3k2cedradeesg9mhvkrgq648pmomto,3l2is5hsfevflok0ys1sx1b2i6kunu,IrSMhe7E,2020-0188,2021-11-01,20:03:21,21:37:48,NA,incomplete,false,true,NA,NA,3,29,NA,gray,n_s_006.jpg,NA,NA,NA,NA,NA,pleasant,unpleasant,NA,NA,NA,NA,NA,right,1475.5,true,NA,NA,NA,NA,NA,NA,NA,NA
IrSMhe7E,3k2cedradeesg9mhvkrgq648pmomto,3l2is5hsfevflok0ys1sx1b2i6kunu,IrSMhe7E,2020-0188,2021-11-01,20:03:21,21:37:48,NA,incomplete,false,true,NA,NA,3,30,NA,blue,n_s_057.jpg,NA,NA,NA,NA,NA,unpleasant,pleasant,NA,NA,NA,NA,NA,left,2259.20000000112,true,NA,NA,NA,NA,NA,NA,NA,NA
IrSMhe7E,3k2cedradeesg9mhvkrgq648pmomto,3l2is5hsfevflok0ys1sx1b2i6kunu,IrSMhe7E,2020-0188,2021-11-01,20:03:21,21:37:48,NA,incomplete,false,true,NA,NA,3,31,NA,blue,n_s_063.jpg,NA,NA,NA,NA,NA,pleasant,unpleasant,NA,NA,NA,NA,NA,right,1550.5,true,NA,NA,NA,NA,NA,NA,NA,NA
IrSMhe7E,3k2cedradeesg9mhvkrgq648pmomto,3l2is5hsfevflok0ys1sx1b2i6kunu,IrSMhe7E,2020-0188,2021-11-01,20:03:21,21:37:48,NA,incomplete,false,true,NA,NA,3,32,NA,blue,m_l_115.jpg,NA,NA,NA,NA,NA,unpleasant,pleasant,NA,NA,NA,NA,NA,right,1801.09999999963,true,NA,NA,NA,NA,NA,NA,NA,NA
IrSMhe7E,3k2cedradeesg9mhvkrgq648pmomto,3l2is5hsfevflok0ys1sx1b2i6kunu,IrSMhe7E,2020-0188,2021-11-01,20:03:21,21:37:48,NA,incomplete,false,true,NA,NA,3,33,NA,blue,m_l_114.jpg,NA,NA,NA,NA,NA,unpleasant,pleasant,NA,NA,NA,NA,NA,left,2010.79999999888,true,NA,NA,NA,NA,NA,NA,NA,NA
IrSMhe7E,3k2cedradeesg9mhvkrgq648pmomto,3l2is5hsfevflok0ys1sx1b2i6kunu,IrSMhe7E,2020-0188,2021-11-01,20:03:21,21:37:48,NA,incomplete,false,true,NA,NA,3,34,NA,blue,n_s_017.jpg,NA,NA,NA,NA,NA,pleasant,unpleasant,NA,NA,NA,NA,NA,right,1456.20000000112,true,NA,NA,NA,NA,NA,NA,NA,NA
IrSMhe7E,3k2cedradeesg9mhvkrgq648pmomto,3l2is5hsfevflok0ys1sx1b2i6kunu,IrSMhe7E,2020-0188,2021-11-01,20:03:21,21:37:48,NA,incomplete,false,true,NA,NA,3,35,NA,blue,m_s_114.jpg,NA,NA,NA,NA,NA,unpleasant,pleasant,NA,NA,NA,NA,NA,left,1962.90000000037,true,NA,NA,NA,NA,NA,NA,NA,NA
IrSMhe7E,3k2cedradeesg9mhvkrgq648pmomto,3l2is5hsfevflok0ys1sx1b2i6kunu,IrSMhe7E,2020-0188,2021-11-01,20:03:21,21:37:48,NA,incomplete,false,NA,NA,true,3,0,NA,NA,NA,right,n_s_067.jpg,black,white,NA,NA,NA,NA,NA,NA,NA,NA,NA,NaN,NA,3928.7999999988824,right,1,NA,NA,NA,NA,NA
IrSMhe7E,3k2cedradeesg9mhvkrgq648pmomto,3l2is5hsfevflok0ys1sx1b2i6kunu,IrSMhe7E,2020-0188,2021-11-01,20:03:21,21:37:48,NA,incomplete,false,NA,NA,true,3,1,NA,NA,NA,right,n_s_095.jpg,red,gray,NA,NA,NA,NA,NA,NA,NA,NA,NA,NaN,NA,6912,right,1,NA,NA,NA,NA,NA
IrSMhe7E,3k2cedradeesg9mhvkrgq648pmomto,3l2is5hsfevflok0ys1sx1b2i6kunu,IrSMhe7E,2020-0188,2021-11-01,20:03:21,21:37:48,NA,incomplete,false,NA,NA,true,3,2,NA,NA,NA,left,m_l_115.jpg,blue,gray,NA,NA,NA,NA,NA,NA,NA,NA,NA,NaN,NA,2421,left,1,NA,NA,NA,NA,NA
IrSMhe7E,3k2cedradeesg9mhvkrgq648pmomto,3l2is5hsfevflok0ys1sx1b2i6kunu,IrSMhe7E,2020-0188,2021-11-01,20:03:21,21:37:48,NA,incomplete,false,NA,NA,true,3,3,NA,NA,NA,right,n_s_027.jpg,white,brown,NA,NA,NA,NA,NA,NA,NA,NA,NA,NaN,NA,2438.0999999996275,left,0,NA,NA,NA,NA,NA
IrSMhe7E,3k2cedradeesg9mhvkrgq648pmomto,3l2is5hsfevflok0ys1sx1b2i6kunu,IrSMhe7E,2020-0188,2021-11-01,20:03:21,21:37:48,NA,incomplete,false,NA,NA,true,3,4,NA,NA,NA,right,n_s_086.jpg,white,black,NA,NA,NA,NA,NA,NA,NA,NA,NA,NaN,NA,3559.5999999996275,left,0,NA,NA,NA,NA,NA
IrSMhe7E,3k2cedradeesg9mhvkrgq648pmomto,3l2is5hsfevflok0ys1sx1b2i6kunu,IrSMhe7E,2020-0188,2021-11-01,20:03:21,21:37:48,NA,incomplete,false,NA,NA,true,3,5,NA,NA,NA,right,n_l_107.jpg,white,brown,NA,NA,NA,NA,NA,NA,NA,NA,NA,NaN,NA,2920.800000000745,right,1,NA,NA,NA,NA,NA
IrSMhe7E,3k2cedradeesg9mhvkrgq648pmomto,3l2is5hsfevflok0ys1sx1b2i6kunu,IrSMhe7E,2020-0188,2021-11-01,20:03:21,21:37:48,NA,incomplete,false,NA,NA,true,3,6,NA,NA,NA,right,m_s_095.jpg,red,gray,NA,NA,NA,NA,NA,NA,NA,NA,NA,NaN,NA,3550.4000000003725,right,1,NA,NA,NA,NA,NA
IrSMhe7E,3k2cedradeesg9mhvkrgq648pmomto,3l2is5hsfevflok0ys1sx1b2i6kunu,IrSMhe7E,2020-0188,2021-11-01,20:03:21,21:37:48,NA,incomplete,false,NA,NA,true,3,7,NA,NA,NA,left,m_l_085.jpg,red,black,NA,NA,NA,NA,NA,NA,NA,NA,NA,NaN,NA,3157.0999999996275,right,0,NA,NA,NA,NA,NA
IrSMhe7E,3k2cedradeesg9mhvkrgq648pmomto,3l2is5hsfevflok0ys1sx1b2i6kunu,IrSMhe7E,2020-0188,2021-11-01,20:03:21,21:37:48,NA,incomplete,false,NA,NA,true,3,8,NA,NA,NA,left,n_s_063.jpg,blue,gray,NA,NA,NA,NA,NA,NA,NA,NA,NA,NaN,NA,4190.9000000003725,left,1,NA,NA,NA,NA,NA
IrSMhe7E,3k2cedradeesg9mhvkrgq648pmomto,3l2is5hsfevflok0ys1sx1b2i6kunu,IrSMhe7E,2020-0188,2021-11-01,20:03:21,21:37:48,NA,incomplete,false,NA,NA,true,3,9,NA,NA,NA,left,m_s_110.jpg,brown,white,NA,NA,NA,NA,NA,NA,NA,NA,NA,NaN,NA,2497.5999999996275,left,1,NA,NA,NA,NA,NA
IrSMhe7E,3k2cedradeesg9mhvkrgq648pmomto,3l2is5hsfevflok0ys1sx1b2i6kunu,IrSMhe7E,2020-0188,2021-11-01,20:03:21,21:37:48,NA,incomplete,false,NA,NA,true,3,10,NA,NA,NA,right,m_l_108.jpg,white,black,NA,NA,NA,NA,NA,NA,NA,NA,NA,NaN,NA,2340.0999999996275,right,1,NA,NA,NA,NA,NA
IrSMhe7E,3k2cedradeesg9mhvkrgq648pmomto,3l2is5hsfevflok0ys1sx1b2i6kunu,IrSMhe7E,2020-0188,2021-11-01,20:03:21,21:37:48,NA,incomplete,false,NA,NA,true,3,11,NA,NA,NA,left,n_s_110.jpg,white,black,NA,NA,NA,NA,NA,NA,NA,NA,NA,NaN,NA,2300.2999999988824,left,1,NA,NA,NA,NA,NA
IrSMhe7E,3k2cedradeesg9mhvkrgq648pmomto,3l2is5hsfevflok0ys1sx1b2i6kunu,IrSMhe7E,2020-0188,2021-11-01,20:03:21,21:37:48,NA,incomplete,false,NA,NA,true,3,12,NA,NA,NA,left,m_s_057.jpg,white,brown,NA,NA,NA,NA,NA,NA,NA,NA,NA,NaN,NA,2301.2999999988824,left,1,NA,NA,NA,NA,NA
IrSMhe7E,3k2cedradeesg9mhvkrgq648pmomto,3l2is5hsfevflok0ys1sx1b2i6kunu,IrSMhe7E,2020-0188,2021-11-01,20:03:21,21:37:48,NA,incomplete,false,NA,NA,true,3,13,NA,NA,NA,right,m_l_070.jpg,red,black,NA,NA,NA,NA,NA,NA,NA,NA,NA,NaN,NA,1925.699999999255,right,1,NA,NA,NA,NA,NA
IrSMhe7E,3k2cedradeesg9mhvkrgq648pmomto,3l2is5hsfevflok0ys1sx1b2i6kunu,IrSMhe7E,2020-0188,2021-11-01,20:03:21,21:37:48,NA,incomplete,false,NA,NA,true,3,14,NA,NA,NA,right,m_l_077.jpg,gray,red,NA,NA,NA,NA,NA,NA,NA,NA,NA,NaN,NA,2231.800000000745,left,0,NA,NA,NA,NA,NA
IrSMhe7E,3k2cedradeesg9mhvkrgq648pmomto,3l2is5hsfevflok0ys1sx1b2i6kunu,IrSMhe7E,2020-0188,2021-11-01,20:03:21,21:37:48,NA,incomplete,false,NA,NA,true,3,15,NA,NA,NA,right,n_s_030.jpg,gray,red,NA,NA,NA,NA,NA,NA,NA,NA,NA,NaN,NA,2261.0999999996275,right,1,NA,NA,NA,NA,NA
IrSMhe7E,3k2cedradeesg9mhvkrgq648pmomto,3l2is5hsfevflok0ys1sx1b2i6kunu,IrSMhe7E,2020-0188,2021-11-01,20:03:21,21:37:48,NA,incomplete,false,NA,NA,true,3,16,NA,NA,NA,right,n_l_105.jpg,blue,gray,NA,NA,NA,NA,NA,NA,NA,NA,NA,NaN,NA,2172.2999999988824,right,1,NA,NA,NA,NA,NA
IrSMhe7E,3k2cedradeesg9mhvkrgq648pmomto,3l2is5hsfevflok0ys1sx1b2i6kunu,IrSMhe7E,2020-0188,2021-11-01,20:03:21,21:37:48,NA,incomplete,false,NA,NA,true,3,17,NA,NA,NA,left,m_l_094.jpg,red,black,NA,NA,NA,NA,NA,NA,NA,NA,NA,NaN,NA,2036,left,1,NA,NA,NA,NA,NA
IrSMhe7E,3k2cedradeesg9mhvkrgq648pmomto,3l2is5hsfevflok0ys1sx1b2i6kunu,IrSMhe7E,2020-0188,2021-11-01,20:03:21,21:37:48,NA,incomplete,false,NA,NA,true,3,18,NA,NA,NA,right,n_s_006.jpg,red,gray,NA,NA,NA,NA,NA,NA,NA,NA,NA,NaN,NA,1818.9000000003725,right,1,NA,NA,NA,NA,NA
IrSMhe7E,3k2cedradeesg9mhvkrgq648pmomto,3l2is5hsfevflok0ys1sx1b2i6kunu,IrSMhe7E,2020-0188,2021-11-01,20:03:21,21:37:48,NA,incomplete,false,NA,NA,true,3,19,NA,NA,NA,right,m_s_114.jpg,gray,blue,NA,NA,NA,NA,NA,NA,NA,NA,NA,NaN,NA,2399.300000000745,right,1,NA,NA,NA,NA,NA
IrSMhe7E,3k2cedradeesg9mhvkrgq648pmomto,3l2is5hsfevflok0ys1sx1b2i6kunu,IrSMhe7E,2020-0188,2021-11-01,20:03:21,21:37:48,NA,incomplete,false,NA,NA,true,3,20,NA,NA,NA,right,m_l_072.jpg,brown,white,NA,NA,NA,NA,NA,NA,NA,NA,NA,NaN,NA,1888.2000000011176,right,1,NA,NA,NA,NA,NA
IrSMhe7E,3k2cedradeesg9mhvkrgq648pmomto,3l2is5hsfevflok0ys1sx1b2i6kunu,IrSMhe7E,2020-0188,2021-11-01,20:03:21,21:37:48,NA,incomplete,false,NA,NA,true,3,21,NA,NA,NA,left,n_l_080.jpg,black,white,NA,NA,NA,NA,NA,NA,NA,NA,NA,NaN,NA,2201.2000000011176,left,1,NA,NA,NA,NA,NA
IrSMhe7E,3k2cedradeesg9mhvkrgq648pmomto,3l2is5hsfevflok0ys1sx1b2i6kunu,IrSMhe7E,2020-0188,2021-11-01,20:03:21,21:37:48,NA,incomplete,false,NA,true,NA,3,0,NA,NA,NA,left,NA,NA,NA,absent,NA,NA,m_l_070.jpg,black,m_l_085.jpg,red,between,NA,NaN,NA,NA,NA,NA,right,4514.4000000003725,0,2,2632
IrSMhe7E,3k2cedradeesg9mhvkrgq648pmomto,3l2is5hsfevflok0ys1sx1b2i6kunu,IrSMhe7E,2020-0188,2021-11-01,20:03:21,21:37:48,NA,incomplete,false,NA,true,NA,3,1,NA,NA,NA,right,NA,NA,NA,absent,NA,NA,m_s_095.jpg,gray,m_l_094.jpg,red,between,NA,NaN,NA,NA,NA,NA,right,3901.199999999255,1,1,2989
IrSMhe7E,3k2cedradeesg9mhvkrgq648pmomto,3l2is5hsfevflok0ys1sx1b2i6kunu,IrSMhe7E,2020-0188,2021-11-01,20:03:21,21:37:48,NA,incomplete,false,NA,true,NA,3,2,NA,NA,NA,left,NA,NA,NA,absent,NA,NA,m_s_057.jpg,white,m_l_072.jpg,white,within,NA,NaN,NA,NA,NA,NA,left,3815.2000000011176,1,0,3903.60000000149
IrSMhe7E,3k2cedradeesg9mhvkrgq648pmomto,3l2is5hsfevflok0ys1sx1b2i6kunu,IrSMhe7E,2020-0188,2021-11-01,20:03:21,21:37:48,NA,incomplete,false,NA,true,NA,3,3,NA,NA,NA,left,NA,NA,NA,absent,NA,NA,n_s_067.jpg,white,m_l_108.jpg,black,between,NA,NaN,NA,NA,NA,NA,right,5133.9000000003725,0,0,2263.9000000003725
IrSMhe7E,3k2cedradeesg9mhvkrgq648pmomto,3l2is5hsfevflok0ys1sx1b2i6kunu,IrSMhe7E,2020-0188,2021-11-01,20:03:21,21:37:48,NA,incomplete,false,NA,true,NA,3,4,NA,NA,NA,left,NA,NA,NA,absent,NA,NA,n_l_107.jpg,brown,n_s_027.jpg,brown,within,NA,NaN,NA,NA,NA,NA,left,5013.0999999996275,1,1,2507.2999999988824
IrSMhe7E,3k2cedradeesg9mhvkrgq648pmomto,3l2is5hsfevflok0ys1sx1b2i6kunu,IrSMhe7E,2020-0188,2021-11-01,20:03:21,21:37:48,NA,incomplete,false,NA,true,NA,3,5,NA,NA,NA,right,NA,NA,NA,absent,NA,NA,n_s_006.jpg,gray,n_s_095.jpg,gray,within,NA,NaN,NA,NA,NA,NA,right,4220.5,1,3,1512.2000000011176
IrSMhe7E,3k2cedradeesg9mhvkrgq648pmomto,3l2is5hsfevflok0ys1sx1b2i6kunu,IrSMhe7E,2020-0188,2021-11-01,20:03:21,21:37:48,NA,incomplete,false,NA,true,NA,3,6,NA,NA,NA,left,NA,NA,NA,absent,NA,NA,n_s_030.jpg,red,m_l_077.jpg,red,within,NA,NaN,NA,NA,NA,NA,right,2495,0,3,2744.0999999996275
IrSMhe7E,3k2cedradeesg9mhvkrgq648pmomto,3l2is5hsfevflok0ys1sx1b2i6kunu,IrSMhe7E,2020-0188,2021-11-01,20:03:21,21:37:48,NA,incomplete,false,NA,true,NA,3,7,NA,NA,NA,right,NA,NA,NA,absent,NA,NA,n_s_110.jpg,white,m_s_110.jpg,brown,between,NA,NaN,NA,NA,NA,NA,right,2733.9000000003725,1,2,2979.5999999996275
IrSMhe7E,3k2cedradeesg9mhvkrgq648pmomto,3l2is5hsfevflok0ys1sx1b2i6kunu,IrSMhe7E,2020-0188,2021-11-01,20:03:21,21:37:48,NA,incomplete,false,NA,true,NA,3,8,NA,NA,NA,left,NA,NA,NA,absent,NA,NA,n_s_063.jpg,blue,m_s_114.jpg,blue,within,NA,NaN,NA,NA,NA,NA,right,2802.5,0,3,1661.699999999255
IrSMhe7E,3k2cedradeesg9mhvkrgq648pmomto,3l2is5hsfevflok0ys1sx1b2i6kunu,IrSMhe7E,2020-0188,2021-11-01,20:03:21,21:37:48,NA,incomplete,false,NA,true,NA,3,9,NA,NA,NA,left,NA,NA,NA,absent,NA,NA,n_l_105.jpg,gray,m_l_115.jpg,blue,between,NA,NaN,NA,NA,NA,NA,left,4613.9000000003725,1,1,2044.800000000745
IrSMhe7E,3k2cedradeesg9mhvkrgq648pmomto,3l2is5hsfevflok0ys1sx1b2i6kunu,IrSMhe7E,2020-0188,2021-11-01,20:03:21,21:37:48,NA,incomplete,false,NA,true,NA,3,10,NA,NA,NA,right,NA,NA,NA,absent,NA,NA,n_l_080.jpg,black,n_s_086.jpg,black,within,NA,NaN,NA,NA,NA,NA,left,3737.5,0,3,2300
IrSMhe7E,3k2cedradeesg9mhvkrgq648pmomto,3l2is5hsfevflok0ys1sx1b2i6kunu,IrSMhe7E,2020-0188,2021-11-01,20:03:21,21:37:48,NA,incomplete,false,true,NA,NA,4,0,NA,purple,m_l_045.jpg,NA,NA,NA,NA,NA,unpleasant,pleasant,NA,NA,NA,NA,NA,right,2052.90000000037,true,NA,NA,NA,NA,NA,NA,NA,NA
IrSMhe7E,3k2cedradeesg9mhvkrgq648pmomto,3l2is5hsfevflok0ys1sx1b2i6kunu,IrSMhe7E,2020-0188,2021-11-01,20:03:21,21:37:48,NA,incomplete,false,true,NA,NA,4,1,NA,purple,n_s_028.jpg,NA,NA,NA,NA,NA,pleasant,unpleasant,NA,NA,NA,NA,NA,right,1451.29999999888,true,NA,NA,NA,NA,NA,NA,NA,NA
IrSMhe7E,3k2cedradeesg9mhvkrgq648pmomto,3l2is5hsfevflok0ys1sx1b2i6kunu,IrSMhe7E,2020-0188,2021-11-01,20:03:21,21:37:48,NA,incomplete,false,true,NA,NA,4,2,NA,purple,n_s_010.jpg,NA,NA,NA,NA,NA,pleasant,unpleasant,NA,NA,NA,NA,NA,right,2329.70000000112,true,NA,NA,NA,NA,NA,NA,NA,NA
IrSMhe7E,3k2cedradeesg9mhvkrgq648pmomto,3l2is5hsfevflok0ys1sx1b2i6kunu,IrSMhe7E,2020-0188,2021-11-01,20:03:21,21:37:48,NA,incomplete,false,true,NA,NA,4,3,NA,purple,n_l_019.jpg,NA,NA,NA,NA,NA,unpleasant,pleasant,NA,NA,NA,NA,NA,left,1570.40000000037,true,NA,NA,NA,NA,NA,NA,NA,NA
IrSMhe7E,3k2cedradeesg9mhvkrgq648pmomto,3l2is5hsfevflok0ys1sx1b2i6kunu,IrSMhe7E,2020-0188,2021-11-01,20:03:21,21:37:48,NA,incomplete,false,true,NA,NA,4,4,NA,purple,n_s_056.jpg,NA,NA,NA,NA,NA,unpleasant,pleasant,NA,NA,NA,NA,NA,left,1101.09999999963,true,NA,NA,NA,NA,NA,NA,NA,NA
IrSMhe7E,3k2cedradeesg9mhvkrgq648pmomto,3l2is5hsfevflok0ys1sx1b2i6kunu,IrSMhe7E,2020-0188,2021-11-01,20:03:21,21:37:48,NA,incomplete,false,true,NA,NA,4,5,NA,purple,m_l_032.jpg,NA,NA,NA,NA,NA,pleasant,unpleasant,NA,NA,NA,NA,NA,right,1950.20000000112,true,NA,NA,NA,NA,NA,NA,NA,NA
IrSMhe7E,3k2cedradeesg9mhvkrgq648pmomto,3l2is5hsfevflok0ys1sx1b2i6kunu,IrSMhe7E,2020-0188,2021-11-01,20:03:21,21:37:48,NA,incomplete,false,true,NA,NA,4,6,NA,yellow,n_s_012.jpg,NA,NA,NA,NA,NA,pleasant,unpleasant,NA,NA,NA,NA,NA,left,1434.09999999963,true,NA,NA,NA,NA,NA,NA,NA,NA
IrSMhe7E,3k2cedradeesg9mhvkrgq648pmomto,3l2is5hsfevflok0ys1sx1b2i6kunu,IrSMhe7E,2020-0188,2021-11-01,20:03:21,21:37:48,NA,incomplete,false,true,NA,NA,4,7,NA,yellow,m_s_073.jpg,NA,NA,NA,NA,NA,unpleasant,pleasant,NA,NA,NA,NA,NA,right,1447.29999999888,true,NA,NA,NA,NA,NA,NA,NA,NA
IrSMhe7E,3k2cedradeesg9mhvkrgq648pmomto,3l2is5hsfevflok0ys1sx1b2i6kunu,IrSMhe7E,2020-0188,2021-11-01,20:03:21,21:37:48,NA,incomplete,false,true,NA,NA,4,8,NA,yellow,m_l_106.jpg,NA,NA,NA,NA,NA,unpleasant,pleasant,NA,NA,NA,NA,NA,right,2081,true,NA,NA,NA,NA,NA,NA,NA,NA
IrSMhe7E,3k2cedradeesg9mhvkrgq648pmomto,3l2is5hsfevflok0ys1sx1b2i6kunu,IrSMhe7E,2020-0188,2021-11-01,20:03:21,21:37:48,NA,incomplete,false,true,NA,NA,4,9,NA,yellow,n_l_022.jpg,NA,NA,NA,NA,NA,pleasant,unpleasant,NA,NA,NA,NA,NA,right,1739.20000000112,true,NA,NA,NA,NA,NA,NA,NA,NA
IrSMhe7E,3k2cedradeesg9mhvkrgq648pmomto,3l2is5hsfevflok0ys1sx1b2i6kunu,IrSMhe7E,2020-0188,2021-11-01,20:03:21,21:37:48,NA,incomplete,false,true,NA,NA,4,10,NA,yellow,n_s_040.jpg,NA,NA,NA,NA,NA,unpleasant,pleasant,NA,NA,NA,NA,NA,left,1467.80000000075,true,NA,NA,NA,NA,NA,NA,NA,NA
IrSMhe7E,3k2cedradeesg9mhvkrgq648pmomto,3l2is5hsfevflok0ys1sx1b2i6kunu,IrSMhe7E,2020-0188,2021-11-01,20:03:21,21:37:48,NA,incomplete,false,true,NA,NA,4,11,NA,yellow,m_l_065.jpg,NA,NA,NA,NA,NA,unpleasant,pleasant,NA,NA,NA,NA,NA,left,1499.90000000037,true,NA,NA,NA,NA,NA,NA,NA,NA
IrSMhe7E,3k2cedradeesg9mhvkrgq648pmomto,3l2is5hsfevflok0ys1sx1b2i6kunu,IrSMhe7E,2020-0188,2021-11-01,20:03:21,21:37:48,NA,incomplete,false,true,NA,NA,4,12,NA,black,n_s_044.jpg,NA,NA,NA,NA,NA,unpleasant,pleasant,NA,NA,NA,NA,NA,right,1788,true,NA,NA,NA,NA,NA,NA,NA,NA
IrSMhe7E,3k2cedradeesg9mhvkrgq648pmomto,3l2is5hsfevflok0ys1sx1b2i6kunu,IrSMhe7E,2020-0188,2021-11-01,20:03:21,21:37:48,NA,incomplete,false,true,NA,NA,4,13,NA,black,n_s_083.jpg,NA,NA,NA,NA,NA,unpleasant,pleasant,NA,NA,NA,NA,NA,left,1773.69999999925,true,NA,NA,NA,NA,NA,NA,NA,NA
IrSMhe7E,3k2cedradeesg9mhvkrgq648pmomto,3l2is5hsfevflok0ys1sx1b2i6kunu,IrSMhe7E,2020-0188,2021-11-01,20:03:21,21:37:48,NA,incomplete,false,true,NA,NA,4,14,NA,black,m_l_090.jpg,NA,NA,NA,NA,NA,unpleasant,pleasant,NA,NA,NA,NA,NA,right,1646.59999999963,true,NA,NA,NA,NA,NA,NA,NA,NA
IrSMhe7E,3k2cedradeesg9mhvkrgq648pmomto,3l2is5hsfevflok0ys1sx1b2i6kunu,IrSMhe7E,2020-0188,2021-11-01,20:03:21,21:37:48,NA,incomplete,false,true,NA,NA,4,15,NA,black,n_l_042.jpg,NA,NA,NA,NA,NA,unpleasant,pleasant,NA,NA,NA,NA,NA,left,1348.30000000075,true,NA,NA,NA,NA,NA,NA,NA,NA
IrSMhe7E,3k2cedradeesg9mhvkrgq648pmomto,3l2is5hsfevflok0ys1sx1b2i6kunu,IrSMhe7E,2020-0188,2021-11-01,20:03:21,21:37:48,NA,incomplete,false,true,NA,NA,4,16,NA,black,n_l_079.jpg,NA,NA,NA,NA,NA,pleasant,unpleasant,NA,NA,NA,NA,NA,left,1418,true,NA,NA,NA,NA,NA,NA,NA,NA
IrSMhe7E,3k2cedradeesg9mhvkrgq648pmomto,3l2is5hsfevflok0ys1sx1b2i6kunu,IrSMhe7E,2020-0188,2021-11-01,20:03:21,21:37:48,NA,incomplete,false,true,NA,NA,4,17,NA,black,m_l_041.jpg,NA,NA,NA,NA,NA,unpleasant,pleasant,NA,NA,NA,NA,NA,right,1628.80000000075,true,NA,NA,NA,NA,NA,NA,NA,NA
IrSMhe7E,3k2cedradeesg9mhvkrgq648pmomto,3l2is5hsfevflok0ys1sx1b2i6kunu,IrSMhe7E,2020-0188,2021-11-01,20:03:21,21:37:48,NA,incomplete,false,true,NA,NA,4,18,NA,gray,m_s_102.jpg,NA,NA,NA,NA,NA,unpleasant,pleasant,NA,NA,NA,NA,NA,right,1288,true,NA,NA,NA,NA,NA,NA,NA,NA
IrSMhe7E,3k2cedradeesg9mhvkrgq648pmomto,3l2is5hsfevflok0ys1sx1b2i6kunu,IrSMhe7E,2020-0188,2021-11-01,20:03:21,21:37:48,NA,incomplete,false,true,NA,NA,4,19,NA,gray,m_l_058.jpg,NA,NA,NA,NA,NA,unpleasant,pleasant,NA,NA,NA,NA,NA,right,1283.90000000037,true,NA,NA,NA,NA,NA,NA,NA,NA
IrSMhe7E,3k2cedradeesg9mhvkrgq648pmomto,3l2is5hsfevflok0ys1sx1b2i6kunu,IrSMhe7E,2020-0188,2021-11-01,20:03:21,21:37:48,NA,incomplete,false,true,NA,NA,4,20,NA,gray,n_l_028.jpg,NA,NA,NA,NA,NA,unpleasant,pleasant,NA,NA,NA,NA,NA,right,1086.59999999963,true,NA,NA,NA,NA,NA,NA,NA,NA
IrSMhe7E,3k2cedradeesg9mhvkrgq648pmomto,3l2is5hsfevflok0ys1sx1b2i6kunu,IrSMhe7E,2020-0188,2021-11-01,20:03:21,21:37:48,NA,incomplete,false,true,NA,NA,4,21,NA,gray,n_l_050.jpg,NA,NA,NA,NA,NA,pleasant,unpleasant,NA,NA,NA,NA,NA,right,2006,true,NA,NA,NA,NA,NA,NA,NA,NA
IrSMhe7E,3k2cedradeesg9mhvkrgq648pmomto,3l2is5hsfevflok0ys1sx1b2i6kunu,IrSMhe7E,2020-0188,2021-11-01,20:03:21,21:37:48,NA,incomplete,false,true,NA,NA,4,22,NA,gray,m_s_013.jpg,NA,NA,NA,NA,NA,unpleasant,pleasant,NA,NA,NA,NA,NA,right,1481.70000000112,true,NA,NA,NA,NA,NA,NA,NA,NA
IrSMhe7E,3k2cedradeesg9mhvkrgq648pmomto,3l2is5hsfevflok0ys1sx1b2i6kunu,IrSMhe7E,2020-0188,2021-11-01,20:03:21,21:37:48,NA,incomplete,false,true,NA,NA,4,23,NA,gray,m_s_018.jpg,NA,NA,NA,NA,NA,pleasant,unpleasant,NA,NA,NA,NA,NA,right,1884.09999999963,true,NA,NA,NA,NA,NA,NA,NA,NA
IrSMhe7E,3k2cedradeesg9mhvkrgq648pmomto,3l2is5hsfevflok0ys1sx1b2i6kunu,IrSMhe7E,2020-0188,2021-11-01,20:03:21,21:37:48,NA,incomplete,false,true,NA,NA,4,24,NA,red,m_l_076.jpg,NA,NA,NA,NA,NA,unpleasant,pleasant,NA,NA,NA,NA,NA,left,1654.80000000075,true,NA,NA,NA,NA,NA,NA,NA,NA
IrSMhe7E,3k2cedradeesg9mhvkrgq648pmomto,3l2is5hsfevflok0ys1sx1b2i6kunu,IrSMhe7E,2020-0188,2021-11-01,20:03:21,21:37:48,NA,incomplete,false,true,NA,NA,4,25,NA,red,n_l_043.jpg,NA,NA,NA,NA,NA,unpleasant,pleasant,NA,NA,NA,NA,NA,left,2361.5,true,NA,NA,NA,NA,NA,NA,NA,NA
IrSMhe7E,3k2cedradeesg9mhvkrgq648pmomto,3l2is5hsfevflok0ys1sx1b2i6kunu,IrSMhe7E,2020-0188,2021-11-01,20:03:21,21:37:48,NA,incomplete,false,true,NA,NA,4,26,NA,red,m_l_051.jpg,NA,NA,NA,NA,NA,pleasant,unpleasant,NA,NA,NA,NA,NA,right,1411.5,true,NA,NA,NA,NA,NA,NA,NA,NA
IrSMhe7E,3k2cedradeesg9mhvkrgq648pmomto,3l2is5hsfevflok0ys1sx1b2i6kunu,IrSMhe7E,2020-0188,2021-11-01,20:03:21,21:37:48,NA,incomplete,false,true,NA,NA,4,27,NA,red,n_l_069.jpg,NA,NA,NA,NA,NA,unpleasant,pleasant,NA,NA,NA,NA,NA,right,1739,true,NA,NA,NA,NA,NA,NA,NA,NA
IrSMhe7E,3k2cedradeesg9mhvkrgq648pmomto,3l2is5hsfevflok0ys1sx1b2i6kunu,IrSMhe7E,2020-0188,2021-11-01,20:03:21,21:37:48,NA,incomplete,false,true,NA,NA,4,28,NA,red,m_s_009.jpg,NA,NA,NA,NA,NA,pleasant,unpleasant,NA,NA,NA,NA,NA,left,2341.79999999888,true,NA,NA,NA,NA,NA,NA,NA,NA
IrSMhe7E,3k2cedradeesg9mhvkrgq648pmomto,3l2is5hsfevflok0ys1sx1b2i6kunu,IrSMhe7E,2020-0188,2021-11-01,20:03:21,21:37:48,NA,incomplete,false,true,NA,NA,4,29,NA,red,n_l_048.jpg,NA,NA,NA,NA,NA,pleasant,unpleasant,NA,NA,NA,NA,NA,right,1311.90000000037,true,NA,NA,NA,NA,NA,NA,NA,NA
IrSMhe7E,3k2cedradeesg9mhvkrgq648pmomto,3l2is5hsfevflok0ys1sx1b2i6kunu,IrSMhe7E,2020-0188,2021-11-01,20:03:21,21:37:48,NA,incomplete,false,true,NA,NA,4,30,NA,green,m_s_099.jpg,NA,NA,NA,NA,NA,pleasant,unpleasant,NA,NA,NA,NA,NA,left,1570.90000000037,true,NA,NA,NA,NA,NA,NA,NA,NA
IrSMhe7E,3k2cedradeesg9mhvkrgq648pmomto,3l2is5hsfevflok0ys1sx1b2i6kunu,IrSMhe7E,2020-0188,2021-11-01,20:03:21,21:37:48,NA,incomplete,false,true,NA,NA,4,31,NA,green,m_s_116.jpg,NA,NA,NA,NA,NA,unpleasant,pleasant,NA,NA,NA,NA,NA,right,2116.30000000075,true,NA,NA,NA,NA,NA,NA,NA,NA
IrSMhe7E,3k2cedradeesg9mhvkrgq648pmomto,3l2is5hsfevflok0ys1sx1b2i6kunu,IrSMhe7E,2020-0188,2021-11-01,20:03:21,21:37:48,NA,incomplete,false,true,NA,NA,4,32,NA,green,m_l_100.jpg,NA,NA,NA,NA,NA,pleasant,unpleasant,NA,NA,NA,NA,NA,left,2341.10000000149,true,NA,NA,NA,NA,NA,NA,NA,NA
IrSMhe7E,3k2cedradeesg9mhvkrgq648pmomto,3l2is5hsfevflok0ys1sx1b2i6kunu,IrSMhe7E,2020-0188,2021-11-01,20:03:21,21:37:48,NA,incomplete,false,true,NA,NA,4,33,NA,green,n_l_041.jpg,NA,NA,NA,NA,NA,pleasant,unpleasant,NA,NA,NA,NA,NA,right,1392.5,true,NA,NA,NA,NA,NA,NA,NA,NA
IrSMhe7E,3k2cedradeesg9mhvkrgq648pmomto,3l2is5hsfevflok0ys1sx1b2i6kunu,IrSMhe7E,2020-0188,2021-11-01,20:03:21,21:37:48,NA,incomplete,false,true,NA,NA,4,34,NA,green,m_l_097.jpg,NA,NA,NA,NA,NA,unpleasant,pleasant,NA,NA,NA,NA,NA,left,1589.89999999851,true,NA,NA,NA,NA,NA,NA,NA,NA
IrSMhe7E,3k2cedradeesg9mhvkrgq648pmomto,3l2is5hsfevflok0ys1sx1b2i6kunu,IrSMhe7E,2020-0188,2021-11-01,20:03:21,21:37:48,NA,incomplete,false,true,NA,NA,4,35,NA,green,n_s_019.jpg,NA,NA,NA,NA,NA,unpleasant,pleasant,NA,NA,NA,NA,NA,left,1198.80000000075,true,NA,NA,NA,NA,NA,NA,NA,NA
IrSMhe7E,3k2cedradeesg9mhvkrgq648pmomto,3l2is5hsfevflok0ys1sx1b2i6kunu,IrSMhe7E,2020-0188,2021-11-01,20:03:21,21:37:48,NA,incomplete,false,NA,NA,true,4,0,NA,NA,NA,right,n_s_028.jpg,yellow,purple,NA,NA,NA,NA,NA,NA,NA,NA,NA,NaN,NA,5813.5999999996275,right,1,NA,NA,NA,NA,NA
IrSMhe7E,3k2cedradeesg9mhvkrgq648pmomto,3l2is5hsfevflok0ys1sx1b2i6kunu,IrSMhe7E,2020-0188,2021-11-01,20:03:21,21:37:48,NA,incomplete,false,NA,NA,true,4,1,NA,NA,NA,left,n_l_079.jpg,black,gray,NA,NA,NA,NA,NA,NA,NA,NA,NA,NaN,NA,5420,left,1,NA,NA,NA,NA,NA
IrSMhe7E,3k2cedradeesg9mhvkrgq648pmomto,3l2is5hsfevflok0ys1sx1b2i6kunu,IrSMhe7E,2020-0188,2021-11-01,20:03:21,21:37:48,NA,incomplete,false,NA,NA,true,4,2,NA,NA,NA,left,n_l_028.jpg,gray,red,NA,NA,NA,NA,NA,NA,NA,NA,NA,NaN,NA,2715.5999999996275,left,1,NA,NA,NA,NA,NA
IrSMhe7E,3k2cedradeesg9mhvkrgq648pmomto,3l2is5hsfevflok0ys1sx1b2i6kunu,IrSMhe7E,2020-0188,2021-11-01,20:03:21,21:37:48,NA,incomplete,false,NA,NA,true,4,3,NA,NA,NA,right,n_s_040.jpg,purple,yellow,NA,NA,NA,NA,NA,NA,NA,NA,NA,NaN,NA,2181.10000000149,right,1,NA,NA,NA,NA,NA
IrSMhe7E,3k2cedradeesg9mhvkrgq648pmomto,3l2is5hsfevflok0ys1sx1b2i6kunu,IrSMhe7E,2020-0188,2021-11-01,20:03:21,21:37:48,NA,incomplete,false,NA,NA,true,4,4,NA,NA,NA,left,m_s_018.jpg,gray,red,NA,NA,NA,NA,NA,NA,NA,NA,NA,NaN,NA,4662.5,left,1,NA,NA,NA,NA,NA
IrSMhe7E,3k2cedradeesg9mhvkrgq648pmomto,3l2is5hsfevflok0ys1sx1b2i6kunu,IrSMhe7E,2020-0188,2021-11-01,20:03:21,21:37:48,NA,incomplete,false,NA,NA,true,4,5,NA,NA,NA,right,n_s_056.jpg,yellow,purple,NA,NA,NA,NA,NA,NA,NA,NA,NA,NaN,NA,3735.5,left,0,NA,NA,NA,NA,NA
IrSMhe7E,3k2cedradeesg9mhvkrgq648pmomto,3l2is5hsfevflok0ys1sx1b2i6kunu,IrSMhe7E,2020-0188,2021-11-01,20:03:21,21:37:48,NA,incomplete,false,NA,NA,true,4,6,NA,NA,NA,left,n_s_019.jpg,green,red,NA,NA,NA,NA,NA,NA,NA,NA,NA,NaN,NA,2388.2999999988824,left,1,NA,NA,NA,NA,NA
IrSMhe7E,3k2cedradeesg9mhvkrgq648pmomto,3l2is5hsfevflok0ys1sx1b2i6kunu,IrSMhe7E,2020-0188,2021-11-01,20:03:21,21:37:48,NA,incomplete,false,NA,NA,true,4,7,NA,NA,NA,left,n_l_043.jpg,red,green,NA,NA,NA,NA,NA,NA,NA,NA,NA,NaN,NA,2252.4000000003725,right,0,NA,NA,NA,NA,NA
IrSMhe7E,3k2cedradeesg9mhvkrgq648pmomto,3l2is5hsfevflok0ys1sx1b2i6kunu,IrSMhe7E,2020-0188,2021-11-01,20:03:21,21:37:48,NA,incomplete,false,NA,NA,true,4,8,NA,NA,NA,left,m_l_032.jpg,purple,yellow,NA,NA,NA,NA,NA,NA,NA,NA,NA,NaN,NA,3068.4000000003725,right,0,NA,NA,NA,NA,NA
IrSMhe7E,3k2cedradeesg9mhvkrgq648pmomto,3l2is5hsfevflok0ys1sx1b2i6kunu,IrSMhe7E,2020-0188,2021-11-01,20:03:21,21:37:48,NA,incomplete,false,NA,NA,true,4,9,NA,NA,NA,left,n_l_048.jpg,red,gray,NA,NA,NA,NA,NA,NA,NA,NA,NA,NaN,NA,2319.89999999851,right,0,NA,NA,NA,NA,NA
IrSMhe7E,3k2cedradeesg9mhvkrgq648pmomto,3l2is5hsfevflok0ys1sx1b2i6kunu,IrSMhe7E,2020-0188,2021-11-01,20:03:21,21:37:48,NA,incomplete,false,NA,NA,true,4,10,NA,NA,NA,right,m_l_041.jpg,yellow,black,NA,NA,NA,NA,NA,NA,NA,NA,NA,NaN,NA,2074.5999999996275,right,1,NA,NA,NA,NA,NA
IrSMhe7E,3k2cedradeesg9mhvkrgq648pmomto,3l2is5hsfevflok0ys1sx1b2i6kunu,IrSMhe7E,2020-0188,2021-11-01,20:03:21,21:37:48,NA,incomplete,false,NA,NA,true,4,11,NA,NA,NA,left,m_s_116.jpg,green,red,NA,NA,NA,NA,NA,NA,NA,NA,NA,NaN,NA,3068.5999999996275,left,1,NA,NA,NA,NA,NA
IrSMhe7E,3k2cedradeesg9mhvkrgq648pmomto,3l2is5hsfevflok0ys1sx1b2i6kunu,IrSMhe7E,2020-0188,2021-11-01,20:03:21,21:37:48,NA,incomplete,false,NA,NA,true,4,12,NA,NA,NA,right,m_l_065.jpg,purple,yellow,NA,NA,NA,NA,NA,NA,NA,NA,NA,NaN,NA,1818.5999999996275,right,1,NA,NA,NA,NA,NA
IrSMhe7E,3k2cedradeesg9mhvkrgq648pmomto,3l2is5hsfevflok0ys1sx1b2i6kunu,IrSMhe7E,2020-0188,2021-11-01,20:03:21,21:37:48,NA,incomplete,false,NA,NA,true,4,13,NA,NA,NA,left,m_s_073.jpg,yellow,black,NA,NA,NA,NA,NA,NA,NA,NA,NA,NaN,NA,3175.7999999988824,left,1,NA,NA,NA,NA,NA
IrSMhe7E,3k2cedradeesg9mhvkrgq648pmomto,3l2is5hsfevflok0ys1sx1b2i6kunu,IrSMhe7E,2020-0188,2021-11-01,20:03:21,21:37:48,NA,incomplete,false,NA,NA,true,4,14,NA,NA,NA,right,m_l_106.jpg,purple,yellow,NA,NA,NA,NA,NA,NA,NA,NA,NA,NaN,NA,1985.5,right,1,NA,NA,NA,NA,NA
IrSMhe7E,3k2cedradeesg9mhvkrgq648pmomto,3l2is5hsfevflok0ys1sx1b2i6kunu,IrSMhe7E,2020-0188,2021-11-01,20:03:21,21:37:48,NA,incomplete,false,NA,NA,true,4,15,NA,NA,NA,left,n_s_083.jpg,black,gray,NA,NA,NA,NA,NA,NA,NA,NA,NA,NaN,NA,2398.2999999988824,left,1,NA,NA,NA,NA,NA
IrSMhe7E,3k2cedradeesg9mhvkrgq648pmomto,3l2is5hsfevflok0ys1sx1b2i6kunu,IrSMhe7E,2020-0188,2021-11-01,20:03:21,21:37:48,NA,incomplete,false,NA,NA,true,4,16,NA,NA,NA,left,m_s_013.jpg,gray,black,NA,NA,NA,NA,NA,NA,NA,NA,NA,NaN,NA,1927,left,1,NA,NA,NA,NA,NA
IrSMhe7E,3k2cedradeesg9mhvkrgq648pmomto,3l2is5hsfevflok0ys1sx1b2i6kunu,IrSMhe7E,2020-0188,2021-11-01,20:03:21,21:37:48,NA,incomplete,false,NA,NA,true,4,17,NA,NA,NA,left,m_l_051.jpg,red,gray,NA,NA,NA,NA,NA,NA,NA,NA,NA,NaN,NA,2527.7000000011176,left,1,NA,NA,NA,NA,NA
IrSMhe7E,3k2cedradeesg9mhvkrgq648pmomto,3l2is5hsfevflok0ys1sx1b2i6kunu,IrSMhe7E,2020-0188,2021-11-01,20:03:21,21:37:48,NA,incomplete,false,NA,NA,true,4,18,NA,NA,NA,right,m_s_009.jpg,green,red,NA,NA,NA,NA,NA,NA,NA,NA,NA,NaN,NA,3520.800000000745,right,1,NA,NA,NA,NA,NA
IrSMhe7E,3k2cedradeesg9mhvkrgq648pmomto,3l2is5hsfevflok0ys1sx1b2i6kunu,IrSMhe7E,2020-0188,2021-11-01,20:03:21,21:37:48,NA,incomplete,false,NA,NA,true,4,19,NA,NA,NA,right,m_l_058.jpg,black,gray,NA,NA,NA,NA,NA,NA,NA,NA,NA,NaN,NA,2340.10000000149,left,0,NA,NA,NA,NA,NA
IrSMhe7E,3k2cedradeesg9mhvkrgq648pmomto,3l2is5hsfevflok0ys1sx1b2i6kunu,IrSMhe7E,2020-0188,2021-11-01,20:03:21,21:37:48,NA,incomplete,false,NA,NA,true,4,20,NA,NA,NA,left,m_l_100.jpg,green,red,NA,NA,NA,NA,NA,NA,NA,NA,NA,NaN,NA,3717.5,left,1,NA,NA,NA,NA,NA
IrSMhe7E,3k2cedradeesg9mhvkrgq648pmomto,3l2is5hsfevflok0ys1sx1b2i6kunu,IrSMhe7E,2020-0188,2021-11-01,20:03:21,21:37:48,NA,incomplete,false,NA,NA,true,4,21,NA,NA,NA,left,m_l_090.jpg,black,yellow,NA,NA,NA,NA,NA,NA,NA,NA,NA,NaN,NA,2930.2000000011176,left,1,NA,NA,NA,NA,NA
IrSMhe7E,3k2cedradeesg9mhvkrgq648pmomto,3l2is5hsfevflok0ys1sx1b2i6kunu,IrSMhe7E,2020-0188,2021-11-01,20:03:21,21:37:48,NA,incomplete,false,NA,true,NA,4,0,NA,NA,NA,left,NA,NA,NA,absent,NA,NA,n_l_079.jpg,black,n_l_028.jpg,gray,between,NA,NaN,NA,NA,NA,NA,right,3964,0,1,1621.800000000745
IrSMhe7E,3k2cedradeesg9mhvkrgq648pmomto,3l2is5hsfevflok0ys1sx1b2i6kunu,IrSMhe7E,2020-0188,2021-11-01,20:03:21,21:37:48,NA,incomplete,false,NA,true,NA,4,1,NA,NA,NA,right,NA,NA,NA,absent,NA,NA,n_l_048.jpg,red,n_l_043.jpg,red,within,NA,NaN,NA,NA,NA,NA,left,6129.5999999996275,0,3,1573.3999999985099
IrSMhe7E,3k2cedradeesg9mhvkrgq648pmomto,3l2is5hsfevflok0ys1sx1b2i6kunu,IrSMhe7E,2020-0188,2021-11-01,20:03:21,21:37:48,NA,incomplete,false,NA,true,NA,4,2,NA,NA,NA,right,NA,NA,NA,absent,NA,NA,m_l_090.jpg,black,n_s_040.jpg,yellow,between,NA,NaN,NA,NA,NA,NA,right,4641.9000000003725,1,2,2999.4000000003725
IrSMhe7E,3k2cedradeesg9mhvkrgq648pmomto,3l2is5hsfevflok0ys1sx1b2i6kunu,IrSMhe7E,2020-0188,2021-11-01,20:03:21,21:37:48,NA,incomplete,false,NA,true,NA,4,3,NA,NA,NA,right,NA,NA,NA,absent,NA,NA,m_l_065.jpg,yellow,m_s_073.jpg,yellow,within,NA,NaN,NA,NA,NA,NA,right,2103.7000000011176,1,3,1336.5
IrSMhe7E,3k2cedradeesg9mhvkrgq648pmomto,3l2is5hsfevflok0ys1sx1b2i6kunu,IrSMhe7E,2020-0188,2021-11-01,20:03:21,21:37:48,NA,incomplete,false,NA,true,NA,4,4,NA,NA,NA,left,NA,NA,NA,absent,NA,NA,m_s_009.jpg,red,m_l_100.jpg,green,between,NA,NaN,NA,NA,NA,NA,right,2251.0999999996275,0,1,1661.7999999988824
IrSMhe7E,3k2cedradeesg9mhvkrgq648pmomto,3l2is5hsfevflok0ys1sx1b2i6kunu,IrSMhe7E,2020-0188,2021-11-01,20:03:21,21:37:48,NA,incomplete,false,NA,true,NA,4,5,NA,NA,NA,right,NA,NA,NA,absent,NA,NA,n_s_019.jpg,green,m_s_116.jpg,green,within,NA,NaN,NA,NA,NA,NA,left,2478.5999999996275,0,3,1445
IrSMhe7E,3k2cedradeesg9mhvkrgq648pmomto,3l2is5hsfevflok0ys1sx1b2i6kunu,IrSMhe7E,2020-0188,2021-11-01,20:03:21,21:37:48,NA,incomplete,false,NA,true,NA,4,6,NA,NA,NA,left,NA,NA,NA,absent,NA,NA,n_s_028.jpg,purple,m_l_032.jpg,purple,within,NA,NaN,NA,NA,NA,NA,left,3718.9000000003725,1,2,1740.7000000011176
IrSMhe7E,3k2cedradeesg9mhvkrgq648pmomto,3l2is5hsfevflok0ys1sx1b2i6kunu,IrSMhe7E,2020-0188,2021-11-01,20:03:21,21:37:48,NA,incomplete,false,NA,true,NA,4,7,NA,NA,NA,right,NA,NA,NA,absent,NA,NA,m_s_018.jpg,gray,m_l_058.jpg,gray,within,NA,NaN,NA,NA,NA,NA,right,1740.199999999255,1,2,2202.0999999996275
IrSMhe7E,3k2cedradeesg9mhvkrgq648pmomto,3l2is5hsfevflok0ys1sx1b2i6kunu,IrSMhe7E,2020-0188,2021-11-01,20:03:21,21:37:48,NA,incomplete,false,NA,true,NA,4,8,NA,NA,NA,left,NA,NA,NA,absent,NA,NA,n_s_056.jpg,purple,m_l_106.jpg,yellow,between,NA,NaN,NA,NA,NA,NA,left,2281,1,2,2319.9000000003725
IrSMhe7E,3k2cedradeesg9mhvkrgq648pmomto,3l2is5hsfevflok0ys1sx1b2i6kunu,IrSMhe7E,2020-0188,2021-11-01,20:03:21,21:37:48,NA,incomplete,false,NA,true,NA,4,9,NA,NA,NA,right,NA,NA,NA,absent,NA,NA,m_l_051.jpg,red,m_s_013.jpg,gray,between,NA,NaN,NA,NA,NA,NA,right,1916.4000000003725,1,0,3236.0999999996275
IrSMhe7E,3k2cedradeesg9mhvkrgq648pmomto,3l2is5hsfevflok0ys1sx1b2i6kunu,IrSMhe7E,2020-0188,2021-11-01,20:03:21,21:37:48,NA,incomplete,false,NA,true,NA,4,10,NA,NA,NA,right,NA,NA,NA,absent,NA,NA,m_l_041.jpg,black,n_s_083.jpg,black,within,NA,NaN,NA,NA,NA,NA,right,1986.5999999996275,1,3,1345.800000000745
IrSMhe7E,3k2cedradeesg9mhvkrgq648pmomto,3l2is5hsfevflok0ys1sx1b2i6kunu,IrSMhe7E,2020-0188,2021-11-01,20:03:21,21:37:48,NA,incomplete,false,true,NA,NA,5,0,NA,blue,n_s_034.jpg,NA,NA,NA,NA,NA,pleasant,unpleasant,NA,NA,NA,NA,NA,right,1345.70000000112,true,NA,NA,NA,NA,NA,NA,NA,NA
IrSMhe7E,3k2cedradeesg9mhvkrgq648pmomto,3l2is5hsfevflok0ys1sx1b2i6kunu,IrSMhe7E,2020-0188,2021-11-01,20:03:21,21:37:48,NA,incomplete,false,true,NA,NA,5,1,NA,blue,m_s_075.jpg,NA,NA,NA,NA,NA,pleasant,unpleasant,NA,NA,NA,NA,NA,right,2858,true,NA,NA,NA,NA,NA,NA,NA,NA
IrSMhe7E,3k2cedradeesg9mhvkrgq648pmomto,3l2is5hsfevflok0ys1sx1b2i6kunu,IrSMhe7E,2020-0188,2021-11-01,20:03:21,21:37:48,NA,incomplete,false,true,NA,NA,5,2,NA,blue,m_s_058.jpg,NA,NA,NA,NA,NA,pleasant,unpleasant,NA,NA,NA,NA,NA,left,3459.80000000075,true,NA,NA,NA,NA,NA,NA,NA,NA
IrSMhe7E,3k2cedradeesg9mhvkrgq648pmomto,3l2is5hsfevflok0ys1sx1b2i6kunu,IrSMhe7E,2020-0188,2021-11-01,20:03:21,21:37:48,NA,incomplete,false,true,NA,NA,5,3,NA,blue,n_l_112.jpg,NA,NA,NA,NA,NA,unpleasant,pleasant,NA,NA,NA,NA,NA,left,1601.30000000075,true,NA,NA,NA,NA,NA,NA,NA,NA
IrSMhe7E,3k2cedradeesg9mhvkrgq648pmomto,3l2is5hsfevflok0ys1sx1b2i6kunu,IrSMhe7E,2020-0188,2021-11-01,20:03:21,21:37:48,NA,incomplete,false,true,NA,NA,5,4,NA,blue,m_s_071.jpg,NA,NA,NA,NA,NA,unpleasant,pleasant,NA,NA,NA,NA,NA,left,2311.19999999925,true,NA,NA,NA,NA,NA,NA,NA,NA
IrSMhe7E,3k2cedradeesg9mhvkrgq648pmomto,3l2is5hsfevflok0ys1sx1b2i6kunu,IrSMhe7E,2020-0188,2021-11-01,20:03:21,21:37:48,NA,incomplete,false,true,NA,NA,5,5,NA,blue,n_l_086.jpg,NA,NA,NA,NA,NA,pleasant,unpleasant,NA,NA,NA,NA,NA,right,1786.5,true,NA,NA,NA,NA,NA,NA,NA,NA
IrSMhe7E,3k2cedradeesg9mhvkrgq648pmomto,3l2is5hsfevflok0ys1sx1b2i6kunu,IrSMhe7E,2020-0188,2021-11-01,20:03:21,21:37:48,NA,incomplete,false,true,NA,NA,5,6,NA,yellow,m_l_061.jpg,NA,NA,NA,NA,NA,pleasant,unpleasant,NA,NA,NA,NA,NA,right,2743.30000000075,true,NA,NA,NA,NA,NA,NA,NA,NA
IrSMhe7E,3k2cedradeesg9mhvkrgq648pmomto,3l2is5hsfevflok0ys1sx1b2i6kunu,IrSMhe7E,2020-0188,2021-11-01,20:03:21,21:37:48,NA,incomplete,false,true,NA,NA,5,7,NA,yellow,m_s_051.jpg,NA,NA,NA,NA,NA,unpleasant,pleasant,NA,NA,NA,NA,NA,right,1157.69999999925,true,NA,NA,NA,NA,NA,NA,NA,NA
IrSMhe7E,3k2cedradeesg9mhvkrgq648pmomto,3l2is5hsfevflok0ys1sx1b2i6kunu,IrSMhe7E,2020-0188,2021-11-01,20:03:21,21:37:48,NA,incomplete,false,true,NA,NA,5,8,NA,yellow,n_s_051.jpg,NA,NA,NA,NA,NA,unpleasant,pleasant,NA,NA,NA,NA,NA,left,2008.70000000112,true,NA,NA,NA,NA,NA,NA,NA,NA
IrSMhe7E,3k2cedradeesg9mhvkrgq648pmomto,3l2is5hsfevflok0ys1sx1b2i6kunu,IrSMhe7E,2020-0188,2021-11-01,20:03:21,21:37:48,NA,incomplete,false,true,NA,NA,5,9,NA,yellow,m_s_025.jpg,NA,NA,NA,NA,NA,unpleasant,pleasant,NA,NA,NA,NA,NA,left,2376.40000000037,true,NA,NA,NA,NA,NA,NA,NA,NA
IrSMhe7E,3k2cedradeesg9mhvkrgq648pmomto,3l2is5hsfevflok0ys1sx1b2i6kunu,IrSMhe7E,2020-0188,2021-11-01,20:03:21,21:37:48,NA,incomplete,false,true,NA,NA,5,10,NA,yellow,n_s_018.jpg,NA,NA,NA,NA,NA,pleasant,unpleasant,NA,NA,NA,NA,NA,right,1530.59999999963,true,NA,NA,NA,NA,NA,NA,NA,NA
IrSMhe7E,3k2cedradeesg9mhvkrgq648pmomto,3l2is5hsfevflok0ys1sx1b2i6kunu,IrSMhe7E,2020-0188,2021-11-01,20:03:21,21:37:48,NA,incomplete,false,true,NA,NA,5,11,NA,yellow,n_s_071.jpg,NA,NA,NA,NA,NA,unpleasant,pleasant,NA,NA,NA,NA,NA,right,1737.20000000112,true,NA,NA,NA,NA,NA,NA,NA,NA
IrSMhe7E,3k2cedradeesg9mhvkrgq648pmomto,3l2is5hsfevflok0ys1sx1b2i6kunu,IrSMhe7E,2020-0188,2021-11-01,20:03:21,21:37:48,NA,incomplete,false,true,NA,NA,5,12,NA,white,m_s_089.jpg,NA,NA,NA,NA,NA,unpleasant,pleasant,NA,NA,NA,NA,NA,right,2276.20000000112,true,NA,NA,NA,NA,NA,NA,NA,NA
IrSMhe7E,3k2cedradeesg9mhvkrgq648pmomto,3l2is5hsfevflok0ys1sx1b2i6kunu,IrSMhe7E,2020-0188,2021-11-01,20:03:21,21:37:48,NA,incomplete,false,true,NA,NA,5,13,NA,white,m_l_033.jpg,NA,NA,NA,NA,NA,pleasant,unpleasant,NA,NA,NA,NA,NA,left,1443.09999999963,true,NA,NA,NA,NA,NA,NA,NA,NA
IrSMhe7E,3k2cedradeesg9mhvkrgq648pmomto,3l2is5hsfevflok0ys1sx1b2i6kunu,IrSMhe7E,2020-0188,2021-11-01,20:03:21,21:37:48,NA,incomplete,false,true,NA,NA,5,14,NA,white,m_l_078.jpg,NA,NA,NA,NA,NA,unpleasant,pleasant,NA,NA,NA,NA,NA,left,2179.20000000112,true,NA,NA,NA,NA,NA,NA,NA,NA
IrSMhe7E,3k2cedradeesg9mhvkrgq648pmomto,3l2is5hsfevflok0ys1sx1b2i6kunu,IrSMhe7E,2020-0188,2021-11-01,20:03:21,21:37:48,NA,incomplete,false,true,NA,NA,5,15,NA,white,m_s_056.jpg,NA,NA,NA,NA,NA,pleasant,unpleasant,NA,NA,NA,NA,NA,right,2005.5,true,NA,NA,NA,NA,NA,NA,NA,NA
IrSMhe7E,3k2cedradeesg9mhvkrgq648pmomto,3l2is5hsfevflok0ys1sx1b2i6kunu,IrSMhe7E,2020-0188,2021-11-01,20:03:21,21:37:48,NA,incomplete,false,true,NA,NA,5,16,NA,white,n_s_090.jpg,NA,NA,NA,NA,NA,unpleasant,pleasant,NA,NA,NA,NA,NA,left,2293.69999999925,true,NA,NA,NA,NA,NA,NA,NA,NA
