workerId,hitId,assignmentId,subject,studyid,exp_date,exp_start,exp_end,time_start,time_end,practice,encoding,memory,association,block,trial,event_order,event,stim,answer,object,left_context,right_context,context_type,label_left,label_right,left_image,left_event,right_image,right_event,condition,response,response_time,response_acc,association_response_time,association_response,association_acc,order_response,order_response_time,order_acc,distance_response,distance_response_time
H4ZTzK70,3z8ujejod2q8a85trwhk37uqvoc39x,3l4d84mil35excnvjv21lf5vea6jhy,H4ZTzK70,2020-0188,2021-10-31,10:17:56,11:31:24,NA,incomplete,true,true,NA,NA,0,0,NA,black,n_l_024.jpg,NA,NA,NA,NA,NA,pleasant,unpleasant,NA,NA,NA,NA,NA,left,2216.59999999404,true,NA,NA,NA,NA,NA,NA,NA,NA
H4ZTzK70,3z8ujejod2q8a85trwhk37uqvoc39x,3l4d84mil35excnvjv21lf5vea6jhy,H4ZTzK70,2020-0188,2021-10-31,10:17:56,11:31:24,NA,incomplete,true,true,NA,NA,0,1,NA,black,n_l_103.jpg,NA,NA,NA,NA,NA,unpleasant,pleasant,NA,NA,NA,NA,NA,right,2634.19999999553,true,NA,NA,NA,NA,NA,NA,NA,NA
H4ZTzK70,3z8ujejod2q8a85trwhk37uqvoc39x,3l4d84mil35excnvjv21lf5vea6jhy,H4ZTzK70,2020-0188,2021-10-31,10:17:56,11:31:24,NA,incomplete,true,true,NA,NA,0,2,NA,black,n_s_082.jpg,NA,NA,NA,NA,NA,pleasant,unpleasant,NA,NA,NA,NA,NA,right,2549.29999999702,true,NA,NA,NA,NA,NA,NA,NA,NA
H4ZTzK70,3z8ujejod2q8a85trwhk37uqvoc39x,3l4d84mil35excnvjv21lf5vea6jhy,H4ZTzK70,2020-0188,2021-10-31,10:17:56,11:31:24,NA,incomplete,true,true,NA,NA,0,3,NA,black,n_l_081.jpg,NA,NA,NA,NA,NA,unpleasant,pleasant,NA,NA,NA,NA,NA,left,1834.20000000298,true,NA,NA,NA,NA,NA,NA,NA,NA
H4ZTzK70,3z8ujejod2q8a85trwhk37uqvoc39x,3l4d84mil35excnvjv21lf5vea6jhy,H4ZTzK70,2020-0188,2021-10-31,10:17:56,11:31:24,NA,incomplete,true,true,NA,NA,0,4,NA,black,n_l_053.jpg,NA,NA,NA,NA,NA,unpleasant,pleasant,NA,NA,NA,NA,NA,right,1221.80000000447,true,NA,NA,NA,NA,NA,NA,NA,NA
H4ZTzK70,3z8ujejod2q8a85trwhk37uqvoc39x,3l4d84mil35excnvjv21lf5vea6jhy,H4ZTzK70,2020-0188,2021-10-31,10:17:56,11:31:24,NA,incomplete,true,true,NA,NA,0,5,NA,black,n_l_082.jpg,NA,NA,NA,NA,NA,unpleasant,pleasant,NA,NA,NA,NA,NA,left,1428.90000000596,true,NA,NA,NA,NA,NA,NA,NA,NA
H4ZTzK70,3z8ujejod2q8a85trwhk37uqvoc39x,3l4d84mil35excnvjv21lf5vea6jhy,H4ZTzK70,2020-0188,2021-10-31,10:17:56,11:31:24,NA,incomplete,true,true,NA,NA,0,6,NA,blue,m_l_084.jpg,NA,NA,NA,NA,NA,unpleasant,pleasant,NA,NA,NA,NA,NA,right,1060.70000000298,true,NA,NA,NA,NA,NA,NA,NA,NA
H4ZTzK70,3z8ujejod2q8a85trwhk37uqvoc39x,3l4d84mil35excnvjv21lf5vea6jhy,H4ZTzK70,2020-0188,2021-10-31,10:17:56,11:31:24,NA,incomplete,true,true,NA,NA,0,7,NA,blue,n_l_055.jpg,NA,NA,NA,NA,NA,unpleasant,pleasant,NA,NA,NA,NA,NA,left,1456.60000000149,true,NA,NA,NA,NA,NA,NA,NA,NA
H4ZTzK70,3z8ujejod2q8a85trwhk37uqvoc39x,3l4d84mil35excnvjv21lf5vea6jhy,H4ZTzK70,2020-0188,2021-10-31,10:17:56,11:31:24,NA,incomplete,true,true,NA,NA,0,8,NA,blue,n_l_031.jpg,NA,NA,NA,NA,NA,unpleasant,pleasant,NA,NA,NA,NA,NA,right,1196.59999999404,true,NA,NA,NA,NA,NA,NA,NA,NA
H4ZTzK70,3z8ujejod2q8a85trwhk37uqvoc39x,3l4d84mil35excnvjv21lf5vea6jhy,H4ZTzK70,2020-0188,2021-10-31,10:17:56,11:31:24,NA,incomplete,true,true,NA,NA,0,9,NA,blue,m_s_046.jpg,NA,NA,NA,NA,NA,unpleasant,pleasant,NA,NA,NA,NA,NA,left,1152.89999999851,true,NA,NA,NA,NA,NA,NA,NA,NA
H4ZTzK70,3z8ujejod2q8a85trwhk37uqvoc39x,3l4d84mil35excnvjv21lf5vea6jhy,H4ZTzK70,2020-0188,2021-10-31,10:17:56,11:31:24,NA,incomplete,true,true,NA,NA,0,10,NA,blue,m_s_063.jpg,NA,NA,NA,NA,NA,pleasant,unpleasant,NA,NA,NA,NA,NA,right,1746.5,true,NA,NA,NA,NA,NA,NA,NA,NA
H4ZTzK70,3z8ujejod2q8a85trwhk37uqvoc39x,3l4d84mil35excnvjv21lf5vea6jhy,H4ZTzK70,2020-0188,2021-10-31,10:17:56,11:31:24,NA,incomplete,true,true,NA,NA,0,11,NA,blue,m_l_112.jpg,NA,NA,NA,NA,NA,pleasant,unpleasant,NA,NA,NA,NA,NA,left,1318.09999999404,true,NA,NA,NA,NA,NA,NA,NA,NA
H4ZTzK70,3z8ujejod2q8a85trwhk37uqvoc39x,3l4d84mil35excnvjv21lf5vea6jhy,H4ZTzK70,2020-0188,2021-10-31,10:17:56,11:31:24,NA,incomplete,true,true,NA,NA,0,12,NA,yellow,m_s_078.jpg,NA,NA,NA,NA,NA,pleasant,unpleasant,NA,NA,NA,NA,NA,left,1294.69999999553,true,NA,NA,NA,NA,NA,NA,NA,NA
H4ZTzK70,3z8ujejod2q8a85trwhk37uqvoc39x,3l4d84mil35excnvjv21lf5vea6jhy,H4ZTzK70,2020-0188,2021-10-31,10:17:56,11:31:24,NA,incomplete,true,true,NA,NA,0,13,NA,yellow,n_l_010.jpg,NA,NA,NA,NA,NA,unpleasant,pleasant,NA,NA,NA,NA,NA,right,1107.80000000447,true,NA,NA,NA,NA,NA,NA,NA,NA
H4ZTzK70,3z8ujejod2q8a85trwhk37uqvoc39x,3l4d84mil35excnvjv21lf5vea6jhy,H4ZTzK70,2020-0188,2021-10-31,10:17:56,11:31:24,NA,incomplete,true,true,NA,NA,0,14,NA,yellow,n_s_114.jpg,NA,NA,NA,NA,NA,unpleasant,pleasant,NA,NA,NA,NA,NA,left,1190,true,NA,NA,NA,NA,NA,NA,NA,NA
H4ZTzK70,3z8ujejod2q8a85trwhk37uqvoc39x,3l4d84mil35excnvjv21lf5vea6jhy,H4ZTzK70,2020-0188,2021-10-31,10:17:56,11:31:24,NA,incomplete,true,true,NA,NA,0,15,NA,yellow,n_l_013.jpg,NA,NA,NA,NA,NA,pleasant,unpleasant,NA,NA,NA,NA,NA,right,1855.29999999702,true,NA,NA,NA,NA,NA,NA,NA,NA
H4ZTzK70,3z8ujejod2q8a85trwhk37uqvoc39x,3l4d84mil35excnvjv21lf5vea6jhy,H4ZTzK70,2020-0188,2021-10-31,10:17:56,11:31:24,NA,incomplete,true,true,NA,NA,0,16,NA,yellow,n_s_079.jpg,NA,NA,NA,NA,NA,unpleasant,pleasant,NA,NA,NA,NA,NA,right,1282.79999999702,true,NA,NA,NA,NA,NA,NA,NA,NA
H4ZTzK70,3z8ujejod2q8a85trwhk37uqvoc39x,3l4d84mil35excnvjv21lf5vea6jhy,H4ZTzK70,2020-0188,2021-10-31,10:17:56,11:31:24,NA,incomplete,true,true,NA,NA,0,17,NA,yellow,m_l_071.jpg,NA,NA,NA,NA,NA,pleasant,unpleasant,NA,NA,NA,NA,NA,right,2061.20000000298,true,NA,NA,NA,NA,NA,NA,NA,NA
H4ZTzK70,3z8ujejod2q8a85trwhk37uqvoc39x,3l4d84mil35excnvjv21lf5vea6jhy,H4ZTzK70,2020-0188,2021-10-31,10:17:56,11:31:24,NA,incomplete,true,true,NA,NA,0,18,NA,gray,m_l_067.jpg,NA,NA,NA,NA,NA,pleasant,unpleasant,NA,NA,NA,NA,NA,right,1229.30000000447,true,NA,NA,NA,NA,NA,NA,NA,NA
H4ZTzK70,3z8ujejod2q8a85trwhk37uqvoc39x,3l4d84mil35excnvjv21lf5vea6jhy,H4ZTzK70,2020-0188,2021-10-31,10:17:56,11:31:24,NA,incomplete,true,true,NA,NA,0,19,NA,gray,m_s_053.jpg,NA,NA,NA,NA,NA,pleasant,unpleasant,NA,NA,NA,NA,NA,right,1199.5,true,NA,NA,NA,NA,NA,NA,NA,NA
H4ZTzK70,3z8ujejod2q8a85trwhk37uqvoc39x,3l4d84mil35excnvjv21lf5vea6jhy,H4ZTzK70,2020-0188,2021-10-31,10:17:56,11:31:24,NA,incomplete,true,true,NA,NA,0,20,NA,gray,n_l_018.jpg,NA,NA,NA,NA,NA,pleasant,unpleasant,NA,NA,NA,NA,NA,left,1492.5,true,NA,NA,NA,NA,NA,NA,NA,NA
H4ZTzK70,3z8ujejod2q8a85trwhk37uqvoc39x,3l4d84mil35excnvjv21lf5vea6jhy,H4ZTzK70,2020-0188,2021-10-31,10:17:56,11:31:24,NA,incomplete,true,true,NA,NA,0,21,NA,gray,m_s_021.jpg,NA,NA,NA,NA,NA,unpleasant,pleasant,NA,NA,NA,NA,NA,left,1405.10000000149,true,NA,NA,NA,NA,NA,NA,NA,NA
H4ZTzK70,3z8ujejod2q8a85trwhk37uqvoc39x,3l4d84mil35excnvjv21lf5vea6jhy,H4ZTzK70,2020-0188,2021-10-31,10:17:56,11:31:24,NA,incomplete,true,true,NA,NA,0,22,NA,gray,n_l_116.jpg,NA,NA,NA,NA,NA,unpleasant,pleasant,NA,NA,NA,NA,NA,left,1490,true,NA,NA,NA,NA,NA,NA,NA,NA
H4ZTzK70,3z8ujejod2q8a85trwhk37uqvoc39x,3l4d84mil35excnvjv21lf5vea6jhy,H4ZTzK70,2020-0188,2021-10-31,10:17:56,11:31:24,NA,incomplete,true,true,NA,NA,0,23,NA,gray,m_l_063.jpg,NA,NA,NA,NA,NA,pleasant,unpleasant,NA,NA,NA,NA,NA,left,1486.10000000149,true,NA,NA,NA,NA,NA,NA,NA,NA
H4ZTzK70,3z8ujejod2q8a85trwhk37uqvoc39x,3l4d84mil35excnvjv21lf5vea6jhy,H4ZTzK70,2020-0188,2021-10-31,10:17:56,11:31:24,NA,incomplete,true,true,NA,NA,0,24,NA,orange,n_l_050.jpg,NA,NA,NA,NA,NA,pleasant,unpleasant,NA,NA,NA,NA,NA,left,1273.10000000149,true,NA,NA,NA,NA,NA,NA,NA,NA
H4ZTzK70,3z8ujejod2q8a85trwhk37uqvoc39x,3l4d84mil35excnvjv21lf5vea6jhy,H4ZTzK70,2020-0188,2021-10-31,10:17:56,11:31:24,NA,incomplete,true,true,NA,NA,0,25,NA,orange,n_s_090.jpg,NA,NA,NA,NA,NA,pleasant,unpleasant,NA,NA,NA,NA,NA,left,1589,true,NA,NA,NA,NA,NA,NA,NA,NA
H4ZTzK70,3z8ujejod2q8a85trwhk37uqvoc39x,3l4d84mil35excnvjv21lf5vea6jhy,H4ZTzK70,2020-0188,2021-10-31,10:17:56,11:31:24,NA,incomplete,true,true,NA,NA,0,26,NA,orange,m_s_094.jpg,NA,NA,NA,NA,NA,pleasant,unpleasant,NA,NA,NA,NA,NA,left,1110.39999999851,true,NA,NA,NA,NA,NA,NA,NA,NA
H4ZTzK70,3z8ujejod2q8a85trwhk37uqvoc39x,3l4d84mil35excnvjv21lf5vea6jhy,H4ZTzK70,2020-0188,2021-10-31,10:17:56,11:31:24,NA,incomplete,true,true,NA,NA,0,27,NA,orange,n_l_006.jpg,NA,NA,NA,NA,NA,unpleasant,pleasant,NA,NA,NA,NA,NA,right,1011.5,true,NA,NA,NA,NA,NA,NA,NA,NA
H4ZTzK70,3z8ujejod2q8a85trwhk37uqvoc39x,3l4d84mil35excnvjv21lf5vea6jhy,H4ZTzK70,2020-0188,2021-10-31,10:17:56,11:31:24,NA,incomplete,true,true,NA,NA,0,28,NA,orange,n_s_058.jpg,NA,NA,NA,NA,NA,unpleasant,pleasant,NA,NA,NA,NA,NA,right,1367.40000000596,true,NA,NA,NA,NA,NA,NA,NA,NA
H4ZTzK70,3z8ujejod2q8a85trwhk37uqvoc39x,3l4d84mil35excnvjv21lf5vea6jhy,H4ZTzK70,2020-0188,2021-10-31,10:17:56,11:31:24,NA,incomplete,true,true,NA,NA,0,29,NA,orange,m_s_059.jpg,NA,NA,NA,NA,NA,unpleasant,pleasant,NA,NA,NA,NA,NA,right,1173,true,NA,NA,NA,NA,NA,NA,NA,NA
H4ZTzK70,3z8ujejod2q8a85trwhk37uqvoc39x,3l4d84mil35excnvjv21lf5vea6jhy,H4ZTzK70,2020-0188,2021-10-31,10:17:56,11:31:24,NA,incomplete,true,true,NA,NA,0,30,NA,brown,m_s_002.jpg,NA,NA,NA,NA,NA,unpleasant,pleasant,NA,NA,NA,NA,NA,left,1065.60000000149,true,NA,NA,NA,NA,NA,NA,NA,NA
H4ZTzK70,3z8ujejod2q8a85trwhk37uqvoc39x,3l4d84mil35excnvjv21lf5vea6jhy,H4ZTzK70,2020-0188,2021-10-31,10:17:56,11:31:24,NA,incomplete,true,true,NA,NA,0,31,NA,brown,n_l_045.jpg,NA,NA,NA,NA,NA,unpleasant,pleasant,NA,NA,NA,NA,NA,right,1224.19999999553,true,NA,NA,NA,NA,NA,NA,NA,NA
H4ZTzK70,3z8ujejod2q8a85trwhk37uqvoc39x,3l4d84mil35excnvjv21lf5vea6jhy,H4ZTzK70,2020-0188,2021-10-31,10:17:56,11:31:24,NA,incomplete,true,true,NA,NA,0,32,NA,brown,m_l_038.jpg,NA,NA,NA,NA,NA,unpleasant,pleasant,NA,NA,NA,NA,NA,right,1091.39999999851,true,NA,NA,NA,NA,NA,NA,NA,NA
H4ZTzK70,3z8ujejod2q8a85trwhk37uqvoc39x,3l4d84mil35excnvjv21lf5vea6jhy,H4ZTzK70,2020-0188,2021-10-31,10:17:56,11:31:24,NA,incomplete,true,true,NA,NA,0,33,NA,brown,m_s_076.jpg,NA,NA,NA,NA,NA,unpleasant,pleasant,NA,NA,NA,NA,NA,right,1646,true,NA,NA,NA,NA,NA,NA,NA,NA
H4ZTzK70,3z8ujejod2q8a85trwhk37uqvoc39x,3l4d84mil35excnvjv21lf5vea6jhy,H4ZTzK70,2020-0188,2021-10-31,10:17:56,11:31:24,NA,incomplete,true,true,NA,NA,0,34,NA,brown,m_l_064.jpg,NA,NA,NA,NA,NA,pleasant,unpleasant,NA,NA,NA,NA,NA,left,1136.60000000149,true,NA,NA,NA,NA,NA,NA,NA,NA
H4ZTzK70,3z8ujejod2q8a85trwhk37uqvoc39x,3l4d84mil35excnvjv21lf5vea6jhy,H4ZTzK70,2020-0188,2021-10-31,10:17:56,11:31:24,NA,incomplete,true,true,NA,NA,0,35,NA,brown,n_s_113.jpg,NA,NA,NA,NA,NA,pleasant,unpleasant,NA,NA,NA,NA,NA,right,1022.5,true,NA,NA,NA,NA,NA,NA,NA,NA
H4ZTzK70,3z8ujejod2q8a85trwhk37uqvoc39x,3l4d84mil35excnvjv21lf5vea6jhy,H4ZTzK70,2020-0188,2021-10-31,10:17:56,11:31:24,NA,incomplete,true,NA,NA,true,0,0,NA,NA,NA,right,n_l_031.jpg,black,blue,NA,NA,NA,NA,NA,NA,NA,NA,NA,NaN,NA,6055.39999999851,left,0,NA,NA,NA,NA,NA
H4ZTzK70,3z8ujejod2q8a85trwhk37uqvoc39x,3l4d84mil35excnvjv21lf5vea6jhy,H4ZTzK70,2020-0188,2021-10-31,10:17:56,11:31:24,NA,incomplete,true,NA,NA,true,0,1,NA,NA,NA,left,n_l_045.jpg,brown,orange,NA,NA,NA,NA,NA,NA,NA,NA,NA,NaN,NA,3293.2999999970198,right,0,NA,NA,NA,NA,NA
H4ZTzK70,3z8ujejod2q8a85trwhk37uqvoc39x,3l4d84mil35excnvjv21lf5vea6jhy,H4ZTzK70,2020-0188,2021-10-31,10:17:56,11:31:24,NA,incomplete,true,NA,NA,true,0,2,NA,NA,NA,right,n_l_116.jpg,orange,gray,NA,NA,NA,NA,NA,NA,NA,NA,NA,NaN,NA,3390.7000000029802,right,1,NA,NA,NA,NA,NA
H4ZTzK70,3z8ujejod2q8a85trwhk37uqvoc39x,3l4d84mil35excnvjv21lf5vea6jhy,H4ZTzK70,2020-0188,2021-10-31,10:17:56,11:31:24,NA,incomplete,true,NA,NA,true,0,3,NA,NA,NA,left,m_l_063.jpg,gray,orange,NA,NA,NA,NA,NA,NA,NA,NA,NA,NaN,NA,3863.2000000029802,right,0,NA,NA,NA,NA,NA
H4ZTzK70,3z8ujejod2q8a85trwhk37uqvoc39x,3l4d84mil35excnvjv21lf5vea6jhy,H4ZTzK70,2020-0188,2021-10-31,10:17:56,11:31:24,NA,incomplete,true,NA,NA,true,0,4,NA,NA,NA,left,m_l_071.jpg,yellow,blue,NA,NA,NA,NA,NA,NA,NA,NA,NA,NaN,NA,7652.60000000149,left,1,NA,NA,NA,NA,NA
H4ZTzK70,3z8ujejod2q8a85trwhk37uqvoc39x,3l4d84mil35excnvjv21lf5vea6jhy,H4ZTzK70,2020-0188,2021-10-31,10:17:56,11:31:24,NA,incomplete,true,NA,NA,true,0,5,NA,NA,NA,right,m_s_059.jpg,gray,orange,NA,NA,NA,NA,NA,NA,NA,NA,NA,NaN,NA,3436.60000000149,right,1,NA,NA,NA,NA,NA
H4ZTzK70,3z8ujejod2q8a85trwhk37uqvoc39x,3l4d84mil35excnvjv21lf5vea6jhy,H4ZTzK70,2020-0188,2021-10-31,10:17:56,11:31:24,NA,incomplete,true,NA,NA,true,0,6,NA,NA,NA,right,m_l_112.jpg,yellow,blue,NA,NA,NA,NA,NA,NA,NA,NA,NA,NaN,NA,2172.39999999851,left,0,NA,NA,NA,NA,NA
H4ZTzK70,3z8ujejod2q8a85trwhk37uqvoc39x,3l4d84mil35excnvjv21lf5vea6jhy,H4ZTzK70,2020-0188,2021-10-31,10:17:56,11:31:24,NA,incomplete,true,NA,NA,true,0,7,NA,NA,NA,right,m_s_053.jpg,orange,gray,NA,NA,NA,NA,NA,NA,NA,NA,NA,NaN,NA,1892,right,1,NA,NA,NA,NA,NA
H4ZTzK70,3z8ujejod2q8a85trwhk37uqvoc39x,3l4d84mil35excnvjv21lf5vea6jhy,H4ZTzK70,2020-0188,2021-10-31,10:17:56,11:31:24,NA,incomplete,true,NA,NA,true,0,8,NA,NA,NA,left,n_l_103.jpg,black,blue,NA,NA,NA,NA,NA,NA,NA,NA,NA,NaN,NA,2031.8000000044703,left,1,NA,NA,NA,NA,NA
H4ZTzK70,3z8ujejod2q8a85trwhk37uqvoc39x,3l4d84mil35excnvjv21lf5vea6jhy,H4ZTzK70,2020-0188,2021-10-31,10:17:56,11:31:24,NA,incomplete,true,NA,NA,true,0,9,NA,NA,NA,left,n_l_053.jpg,black,blue,NA,NA,NA,NA,NA,NA,NA,NA,NA,NaN,NA,1691.3999999985099,left,1,NA,NA,NA,NA,NA
H4ZTzK70,3z8ujejod2q8a85trwhk37uqvoc39x,3l4d84mil35excnvjv21lf5vea6jhy,H4ZTzK70,2020-0188,2021-10-31,10:17:56,11:31:24,NA,incomplete,true,NA,NA,true,0,10,NA,NA,NA,right,m_l_038.jpg,orange,brown,NA,NA,NA,NA,NA,NA,NA,NA,NA,NaN,NA,4365.20000000298,right,1,NA,NA,NA,NA,NA
H4ZTzK70,3z8ujejod2q8a85trwhk37uqvoc39x,3l4d84mil35excnvjv21lf5vea6jhy,H4ZTzK70,2020-0188,2021-10-31,10:17:56,11:31:24,NA,incomplete,true,NA,NA,true,0,11,NA,NA,NA,right,n_s_090.jpg,gray,orange,NA,NA,NA,NA,NA,NA,NA,NA,NA,NaN,NA,2825,left,0,NA,NA,NA,NA,NA
H4ZTzK70,3z8ujejod2q8a85trwhk37uqvoc39x,3l4d84mil35excnvjv21lf5vea6jhy,H4ZTzK70,2020-0188,2021-10-31,10:17:56,11:31:24,NA,incomplete,true,NA,NA,true,0,12,NA,NA,NA,right,n_l_018.jpg,orange,gray,NA,NA,NA,NA,NA,NA,NA,NA,NA,NaN,NA,1727.1000000014901,right,1,NA,NA,NA,NA,NA
H4ZTzK70,3z8ujejod2q8a85trwhk37uqvoc39x,3l4d84mil35excnvjv21lf5vea6jhy,H4ZTzK70,2020-0188,2021-10-31,10:17:56,11:31:24,NA,incomplete,true,NA,NA,true,0,13,NA,NA,NA,right,n_l_055.jpg,yellow,blue,NA,NA,NA,NA,NA,NA,NA,NA,NA,NaN,NA,4846.19999999553,right,1,NA,NA,NA,NA,NA
H4ZTzK70,3z8ujejod2q8a85trwhk37uqvoc39x,3l4d84mil35excnvjv21lf5vea6jhy,H4ZTzK70,2020-0188,2021-10-31,10:17:56,11:31:24,NA,incomplete,true,NA,NA,true,0,14,NA,NA,NA,right,n_l_082.jpg,blue,black,NA,NA,NA,NA,NA,NA,NA,NA,NA,NaN,NA,1878.3999999985099,right,1,NA,NA,NA,NA,NA
H4ZTzK70,3z8ujejod2q8a85trwhk37uqvoc39x,3l4d84mil35excnvjv21lf5vea6jhy,H4ZTzK70,2020-0188,2021-10-31,10:17:56,11:31:24,NA,incomplete,true,NA,NA,true,0,15,NA,NA,NA,right,m_s_094.jpg,brown,orange,NA,NA,NA,NA,NA,NA,NA,NA,NA,NaN,NA,2653.10000000149,right,1,NA,NA,NA,NA,NA
H4ZTzK70,3z8ujejod2q8a85trwhk37uqvoc39x,3l4d84mil35excnvjv21lf5vea6jhy,H4ZTzK70,2020-0188,2021-10-31,10:17:56,11:31:24,NA,incomplete,true,NA,NA,true,0,16,NA,NA,NA,right,n_s_058.jpg,brown,orange,NA,NA,NA,NA,NA,NA,NA,NA,NA,NaN,NA,1973.7999999970198,left,0,NA,NA,NA,NA,NA
H4ZTzK70,3z8ujejod2q8a85trwhk37uqvoc39x,3l4d84mil35excnvjv21lf5vea6jhy,H4ZTzK70,2020-0188,2021-10-31,10:17:56,11:31:24,NA,incomplete,true,NA,NA,true,0,17,NA,NA,NA,right,n_l_010.jpg,blue,yellow,NA,NA,NA,NA,NA,NA,NA,NA,NA,NaN,NA,2565.3000000044703,right,1,NA,NA,NA,NA,NA
H4ZTzK70,3z8ujejod2q8a85trwhk37uqvoc39x,3l4d84mil35excnvjv21lf5vea6jhy,H4ZTzK70,2020-0188,2021-10-31,10:17:56,11:31:24,NA,incomplete,true,NA,NA,true,0,18,NA,NA,NA,left,n_s_079.jpg,yellow,blue,NA,NA,NA,NA,NA,NA,NA,NA,NA,NaN,NA,3020.5,left,1,NA,NA,NA,NA,NA
H4ZTzK70,3z8ujejod2q8a85trwhk37uqvoc39x,3l4d84mil35excnvjv21lf5vea6jhy,H4ZTzK70,2020-0188,2021-10-31,10:17:56,11:31:24,NA,incomplete,true,NA,NA,true,0,19,NA,NA,NA,right,m_s_063.jpg,black,blue,NA,NA,NA,NA,NA,NA,NA,NA,NA,NaN,NA,2121.39999999851,left,0,NA,NA,NA,NA,NA
H4ZTzK70,3z8ujejod2q8a85trwhk37uqvoc39x,3l4d84mil35excnvjv21lf5vea6jhy,H4ZTzK70,2020-0188,2021-10-31,10:17:56,11:31:24,NA,incomplete,true,NA,NA,true,0,20,NA,NA,NA,right,n_s_113.jpg,orange,brown,NA,NA,NA,NA,NA,NA,NA,NA,NA,NaN,NA,2849.10000000149,right,1,NA,NA,NA,NA,NA
H4ZTzK70,3z8ujejod2q8a85trwhk37uqvoc39x,3l4d84mil35excnvjv21lf5vea6jhy,H4ZTzK70,2020-0188,2021-10-31,10:17:56,11:31:24,NA,incomplete,true,NA,NA,true,0,21,NA,NA,NA,left,n_s_114.jpg,yellow,blue,NA,NA,NA,NA,NA,NA,NA,NA,NA,NaN,NA,2414.3000000044703,left,1,NA,NA,NA,NA,NA
H4ZTzK70,3z8ujejod2q8a85trwhk37uqvoc39x,3l4d84mil35excnvjv21lf5vea6jhy,H4ZTzK70,2020-0188,2021-10-31,10:17:56,11:31:24,NA,incomplete,true,NA,true,NA,0,0,NA,NA,NA,left,NA,NA,NA,absent,NA,NA,n_l_010.jpg,yellow,m_l_071.jpg,yellow,within,NA,NaN,NA,NA,NA,NA,left,13466.19999999553,1,2,6740.80000000447
H4ZTzK70,3z8ujejod2q8a85trwhk37uqvoc39x,3l4d84mil35excnvjv21lf5vea6jhy,H4ZTzK70,2020-0188,2021-10-31,10:17:56,11:31:24,NA,incomplete,true,NA,true,NA,0,1,NA,NA,NA,right,NA,NA,NA,absent,NA,NA,n_s_114.jpg,yellow,m_s_063.jpg,blue,between,NA,NaN,NA,NA,NA,NA,right,4500.79999999702,1,1,2980.7000000029802
H4ZTzK70,3z8ujejod2q8a85trwhk37uqvoc39x,3l4d84mil35excnvjv21lf5vea6jhy,H4ZTzK70,2020-0188,2021-10-31,10:17:56,11:31:24,NA,incomplete,true,NA,true,NA,0,2,NA,NA,NA,left,NA,NA,NA,absent,NA,NA,n_s_079.jpg,yellow,n_l_018.jpg,gray,between,NA,NaN,NA,NA,NA,NA,right,3112.3000000044703,0,1,2248.6999999955297
H4ZTzK70,3z8ujejod2q8a85trwhk37uqvoc39x,3l4d84mil35excnvjv21lf5vea6jhy,H4ZTzK70,2020-0188,2021-10-31,10:17:56,11:31:24,NA,incomplete,true,NA,true,NA,0,3,NA,NA,NA,left,NA,NA,NA,absent,NA,NA,n_s_058.jpg,orange,m_l_038.jpg,brown,between,NA,NaN,NA,NA,NA,NA,left,5269.89999999851,1,1,1974.7999999970198
H4ZTzK70,3z8ujejod2q8a85trwhk37uqvoc39x,3l4d84mil35excnvjv21lf5vea6jhy,H4ZTzK70,2020-0188,2021-10-31,10:17:56,11:31:24,NA,incomplete,true,NA,true,NA,0,4,NA,NA,NA,right,NA,NA,NA,absent,NA,NA,m_s_059.jpg,orange,n_s_090.jpg,orange,within,NA,NaN,NA,NA,NA,NA,left,3735,0,0,3068.7999999970198
H4ZTzK70,3z8ujejod2q8a85trwhk37uqvoc39x,3l4d84mil35excnvjv21lf5vea6jhy,H4ZTzK70,2020-0188,2021-10-31,10:17:56,11:31:24,NA,incomplete,true,NA,true,NA,0,5,NA,NA,NA,left,NA,NA,NA,absent,NA,NA,n_l_103.jpg,black,n_l_082.jpg,black,within,NA,NaN,NA,NA,NA,NA,right,2645,0,2,2189.8000000044703
H4ZTzK70,3z8ujejod2q8a85trwhk37uqvoc39x,3l4d84mil35excnvjv21lf5vea6jhy,H4ZTzK70,2020-0188,2021-10-31,10:17:56,11:31:24,NA,incomplete,true,NA,true,NA,0,6,NA,NA,NA,right,NA,NA,NA,absent,NA,NA,m_l_063.jpg,gray,m_s_053.jpg,gray,within,NA,NaN,NA,NA,NA,NA,right,2199.5,1,0,4950.89999999851
H4ZTzK70,3z8ujejod2q8a85trwhk37uqvoc39x,3l4d84mil35excnvjv21lf5vea6jhy,H4ZTzK70,2020-0188,2021-10-31,10:17:56,11:31:24,NA,incomplete,true,NA,true,NA,0,7,NA,NA,NA,left,NA,NA,NA,absent,NA,NA,n_l_045.jpg,brown,n_s_113.jpg,brown,within,NA,NaN,NA,NA,NA,NA,left,3279.3000000044703,1,1,2703.60000000149
H4ZTzK70,3z8ujejod2q8a85trwhk37uqvoc39x,3l4d84mil35excnvjv21lf5vea6jhy,H4ZTzK70,2020-0188,2021-10-31,10:17:56,11:31:24,NA,incomplete,true,NA,true,NA,0,8,NA,NA,NA,left,NA,NA,NA,absent,NA,NA,n_l_053.jpg,black,n_l_031.jpg,blue,between,NA,NaN,NA,NA,NA,NA,right,3423.39999999851,0,1,2047
H4ZTzK70,3z8ujejod2q8a85trwhk37uqvoc39x,3l4d84mil35excnvjv21lf5vea6jhy,H4ZTzK70,2020-0188,2021-10-31,10:17:56,11:31:24,NA,incomplete,true,NA,true,NA,0,9,NA,NA,NA,left,NA,NA,NA,absent,NA,NA,n_l_116.jpg,gray,m_s_094.jpg,orange,between,NA,NaN,NA,NA,NA,NA,right,3808,0,1,3299.89999999851
H4ZTzK70,3z8ujejod2q8a85trwhk37uqvoc39x,3l4d84mil35excnvjv21lf5vea6jhy,H4ZTzK70,2020-0188,2021-10-31,10:17:56,11:31:24,NA,incomplete,true,NA,true,NA,0,10,NA,NA,NA,left,NA,NA,NA,absent,NA,NA,n_l_055.jpg,blue,m_l_112.jpg,blue,within,NA,NaN,NA,NA,NA,NA,left,1910,1,1,2424.5
H4ZTzK70,3z8ujejod2q8a85trwhk37uqvoc39x,3l4d84mil35excnvjv21lf5vea6jhy,H4ZTzK70,2020-0188,2021-10-31,10:17:56,11:31:24,NA,incomplete,false,true,NA,NA,1,0,NA,black,n_s_032.jpg,NA,NA,NA,NA,NA,unpleasant,pleasant,NA,NA,NA,NA,NA,left,1642.89999999851,true,NA,NA,NA,NA,NA,NA,NA,NA
H4ZTzK70,3z8ujejod2q8a85trwhk37uqvoc39x,3l4d84mil35excnvjv21lf5vea6jhy,H4ZTzK70,2020-0188,2021-10-31,10:17:56,11:31:24,NA,incomplete,false,true,NA,NA,1,1,NA,black,n_s_015.jpg,NA,NA,NA,NA,NA,pleasant,unpleasant,NA,NA,NA,NA,NA,right,1454.09999999404,true,NA,NA,NA,NA,NA,NA,NA,NA
H4ZTzK70,3z8ujejod2q8a85trwhk37uqvoc39x,3l4d84mil35excnvjv21lf5vea6jhy,H4ZTzK70,2020-0188,2021-10-31,10:17:56,11:31:24,NA,incomplete,false,true,NA,NA,1,2,NA,black,m_s_115.jpg,NA,NA,NA,NA,NA,unpleasant,pleasant,NA,NA,NA,NA,NA,left,1787.60000000149,true,NA,NA,NA,NA,NA,NA,NA,NA
H4ZTzK70,3z8ujejod2q8a85trwhk37uqvoc39x,3l4d84mil35excnvjv21lf5vea6jhy,H4ZTzK70,2020-0188,2021-10-31,10:17:56,11:31:24,NA,incomplete,false,true,NA,NA,1,3,NA,black,m_s_027.jpg,NA,NA,NA,NA,NA,pleasant,unpleasant,NA,NA,NA,NA,NA,left,987.5,true,NA,NA,NA,NA,NA,NA,NA,NA
H4ZTzK70,3z8ujejod2q8a85trwhk37uqvoc39x,3l4d84mil35excnvjv21lf5vea6jhy,H4ZTzK70,2020-0188,2021-10-31,10:17:56,11:31:24,NA,incomplete,false,true,NA,NA,1,4,NA,black,n_l_043.jpg,NA,NA,NA,NA,NA,unpleasant,pleasant,NA,NA,NA,NA,NA,right,1585.5,true,NA,NA,NA,NA,NA,NA,NA,NA
H4ZTzK70,3z8ujejod2q8a85trwhk37uqvoc39x,3l4d84mil35excnvjv21lf5vea6jhy,H4ZTzK70,2020-0188,2021-10-31,10:17:56,11:31:24,NA,incomplete,false,true,NA,NA,1,5,NA,black,m_l_019.jpg,NA,NA,NA,NA,NA,unpleasant,pleasant,NA,NA,NA,NA,NA,right,1128.20000000298,true,NA,NA,NA,NA,NA,NA,NA,NA
H4ZTzK70,3z8ujejod2q8a85trwhk37uqvoc39x,3l4d84mil35excnvjv21lf5vea6jhy,H4ZTzK70,2020-0188,2021-10-31,10:17:56,11:31:24,NA,incomplete,false,true,NA,NA,1,6,NA,red,m_l_046.jpg,NA,NA,NA,NA,NA,unpleasant,pleasant,NA,NA,NA,NA,NA,right,1136.5,true,NA,NA,NA,NA,NA,NA,NA,NA
H4ZTzK70,3z8ujejod2q8a85trwhk37uqvoc39x,3l4d84mil35excnvjv21lf5vea6jhy,H4ZTzK70,2020-0188,2021-10-31,10:17:56,11:31:24,NA,incomplete,false,true,NA,NA,1,7,NA,red,m_l_027.jpg,NA,NA,NA,NA,NA,pleasant,unpleasant,NA,NA,NA,NA,NA,right,1617.70000000298,true,NA,NA,NA,NA,NA,NA,NA,NA
H4ZTzK70,3z8ujejod2q8a85trwhk37uqvoc39x,3l4d84mil35excnvjv21lf5vea6jhy,H4ZTzK70,2020-0188,2021-10-31,10:17:56,11:31:24,NA,incomplete,false,true,NA,NA,1,8,NA,red,m_l_074.jpg,NA,NA,NA,NA,NA,pleasant,unpleasant,NA,NA,NA,NA,NA,left,995.59999999404,true,NA,NA,NA,NA,NA,NA,NA,NA
H4ZTzK70,3z8ujejod2q8a85trwhk37uqvoc39x,3l4d84mil35excnvjv21lf5vea6jhy,H4ZTzK70,2020-0188,2021-10-31,10:17:56,11:31:24,NA,incomplete,false,true,NA,NA,1,9,NA,red,n_l_054.jpg,NA,NA,NA,NA,NA,pleasant,unpleasant,NA,NA,NA,NA,NA,left,1002.80000000447,true,NA,NA,NA,NA,NA,NA,NA,NA
H4ZTzK70,3z8ujejod2q8a85trwhk37uqvoc39x,3l4d84mil35excnvjv21lf5vea6jhy,H4ZTzK70,2020-0188,2021-10-31,10:17:56,11:31:24,NA,incomplete,false,true,NA,NA,1,10,NA,red,m_l_093.jpg,NA,NA,NA,NA,NA,unpleasant,pleasant,NA,NA,NA,NA,NA,right,1125.10000000149,true,NA,NA,NA,NA,NA,NA,NA,NA
H4ZTzK70,3z8ujejod2q8a85trwhk37uqvoc39x,3l4d84mil35excnvjv21lf5vea6jhy,H4ZTzK70,2020-0188,2021-10-31,10:17:56,11:31:24,NA,incomplete,false,true,NA,NA,1,11,NA,red,m_l_059.jpg,NA,NA,NA,NA,NA,pleasant,unpleasant,NA,NA,NA,NA,NA,left,1044.09999999404,true,NA,NA,NA,NA,NA,NA,NA,NA
H4ZTzK70,3z8ujejod2q8a85trwhk37uqvoc39x,3l4d84mil35excnvjv21lf5vea6jhy,H4ZTzK70,2020-0188,2021-10-31,10:17:56,11:31:24,NA,incomplete,false,true,NA,NA,1,12,NA,gray,n_s_087.jpg,NA,NA,NA,NA,NA,pleasant,unpleasant,NA,NA,NA,NA,NA,right,1241.10000000149,true,NA,NA,NA,NA,NA,NA,NA,NA
H4ZTzK70,3z8ujejod2q8a85trwhk37uqvoc39x,3l4d84mil35excnvjv21lf5vea6jhy,H4ZTzK70,2020-0188,2021-10-31,10:17:56,11:31:24,NA,incomplete,false,true,NA,NA,1,13,NA,gray,m_l_117.jpg,NA,NA,NA,NA,NA,unpleasant,pleasant,NA,NA,NA,NA,NA,right,1389.20000000298,true,NA,NA,NA,NA,NA,NA,NA,NA
H4ZTzK70,3z8ujejod2q8a85trwhk37uqvoc39x,3l4d84mil35excnvjv21lf5vea6jhy,H4ZTzK70,2020-0188,2021-10-31,10:17:56,11:31:24,NA,incomplete,false,true,NA,NA,1,14,NA,gray,n_l_033.jpg,NA,NA,NA,NA,NA,unpleasant,pleasant,NA,NA,NA,NA,NA,left,1651.5,true,NA,NA,NA,NA,NA,NA,NA,NA
H4ZTzK70,3z8ujejod2q8a85trwhk37uqvoc39x,3l4d84mil35excnvjv21lf5vea6jhy,H4ZTzK70,2020-0188,2021-10-31,10:17:56,11:31:24,NA,incomplete,false,true,NA,NA,1,15,NA,gray,n_s_071.jpg,NA,NA,NA,NA,NA,unpleasant,pleasant,NA,NA,NA,NA,NA,right,1525.10000000149,true,NA,NA,NA,NA,NA,NA,NA,NA
H4ZTzK70,3z8ujejod2q8a85trwhk37uqvoc39x,3l4d84mil35excnvjv21lf5vea6jhy,H4ZTzK70,2020-0188,2021-10-31,10:17:56,11:31:24,NA,incomplete,false,true,NA,NA,1,16,NA,gray,n_s_041.jpg,NA,NA,NA,NA,NA,unpleasant,pleasant,NA,NA,NA,NA,NA,left,949.89999999851,true,NA,NA,NA,NA,NA,NA,NA,NA
H4ZTzK70,3z8ujejod2q8a85trwhk37uqvoc39x,3l4d84mil35excnvjv21lf5vea6jhy,H4ZTzK70,2020-0188,2021-10-31,10:17:56,11:31:24,NA,incomplete,false,true,NA,NA,1,17,NA,gray,n_l_017.jpg,NA,NA,NA,NA,NA,pleasant,unpleasant,NA,NA,NA,NA,NA,right,1420.80000000447,true,NA,NA,NA,NA,NA,NA,NA,NA
H4ZTzK70,3z8ujejod2q8a85trwhk37uqvoc39x,3l4d84mil35excnvjv21lf5vea6jhy,H4ZTzK70,2020-0188,2021-10-31,10:17:56,11:31:24,NA,incomplete,false,true,NA,NA,1,18,NA,brown,n_l_020.jpg,NA,NA,NA,NA,NA,pleasant,unpleasant,NA,NA,NA,NA,NA,left,953.79999999702,true,NA,NA,NA,NA,NA,NA,NA,NA
H4ZTzK70,3z8ujejod2q8a85trwhk37uqvoc39x,3l4d84mil35excnvjv21lf5vea6jhy,H4ZTzK70,2020-0188,2021-10-31,10:17:56,11:31:24,NA,incomplete,false,true,NA,NA,1,19,NA,brown,n_l_060.jpg,NA,NA,NA,NA,NA,unpleasant,pleasant,NA,NA,NA,NA,NA,right,1238.89999999851,true,NA,NA,NA,NA,NA,NA,NA,NA
H4ZTzK70,3z8ujejod2q8a85trwhk37uqvoc39x,3l4d84mil35excnvjv21lf5vea6jhy,H4ZTzK70,2020-0188,2021-10-31,10:17:56,11:31:24,NA,incomplete,false,true,NA,NA,1,20,NA,brown,m_s_049.jpg,NA,NA,NA,NA,NA,pleasant,unpleasant,NA,NA,NA,NA,NA,left,1319,true,NA,NA,NA,NA,NA,NA,NA,NA
H4ZTzK70,3z8ujejod2q8a85trwhk37uqvoc39x,3l4d84mil35excnvjv21lf5vea6jhy,H4ZTzK70,2020-0188,2021-10-31,10:17:56,11:31:24,NA,incomplete,false,true,NA,NA,1,21,NA,brown,m_l_018.jpg,NA,NA,NA,NA,NA,pleasant,unpleasant,NA,NA,NA,NA,NA,left,1176.40000000596,true,NA,NA,NA,NA,NA,NA,NA,NA
H4ZTzK70,3z8ujejod2q8a85trwhk37uqvoc39x,3l4d84mil35excnvjv21lf5vea6jhy,H4ZTzK70,2020-0188,2021-10-31,10:17:56,11:31:24,NA,incomplete,false,true,NA,NA,1,22,NA,brown,n_l_064.jpg,NA,NA,NA,NA,NA,pleasant,unpleasant,NA,NA,NA,NA,NA,left,974.20000000298,true,NA,NA,NA,NA,NA,NA,NA,NA
H4ZTzK70,3z8ujejod2q8a85trwhk37uqvoc39x,3l4d84mil35excnvjv21lf5vea6jhy,H4ZTzK70,2020-0188,2021-10-31,10:17:56,11:31:24,NA,incomplete,false,true,NA,NA,1,23,NA,brown,n_l_049.jpg,NA,NA,NA,NA,NA,pleasant,unpleasant,NA,NA,NA,NA,NA,left,614.29999999702,true,NA,NA,NA,NA,NA,NA,NA,NA
H4ZTzK70,3z8ujejod2q8a85trwhk37uqvoc39x,3l4d84mil35excnvjv21lf5vea6jhy,H4ZTzK70,2020-0188,2021-10-31,10:17:56,11:31:24,NA,incomplete,false,true,NA,NA,1,24,NA,purple,m_s_054.jpg,NA,NA,NA,NA,NA,unpleasant,pleasant,NA,NA,NA,NA,NA,right,912.89999999851,true,NA,NA,NA,NA,NA,NA,NA,NA
H4ZTzK70,3z8ujejod2q8a85trwhk37uqvoc39x,3l4d84mil35excnvjv21lf5vea6jhy,H4ZTzK70,2020-0188,2021-10-31,10:17:56,11:31:24,NA,incomplete,false,true,NA,NA,1,25,NA,purple,m_s_029.jpg,NA,NA,NA,NA,NA,unpleasant,pleasant,NA,NA,NA,NA,NA,right,1052,true,NA,NA,NA,NA,NA,NA,NA,NA
H4ZTzK70,3z8ujejod2q8a85trwhk37uqvoc39x,3l4d84mil35excnvjv21lf5vea6jhy,H4ZTzK70,2020-0188,2021-10-31,10:17:56,11:31:24,NA,incomplete,false,true,NA,NA,1,26,NA,purple,m_s_036.jpg,NA,NA,NA,NA,NA,pleasant,unpleasant,NA,NA,NA,NA,NA,left,1784.09999999404,true,NA,NA,NA,NA,NA,NA,NA,NA
H4ZTzK70,3z8ujejod2q8a85trwhk37uqvoc39x,3l4d84mil35excnvjv21lf5vea6jhy,H4ZTzK70,2020-0188,2021-10-31,10:17:56,11:31:24,NA,incomplete,false,true,NA,NA,1,27,NA,purple,n_s_076.jpg,NA,NA,NA,NA,NA,unpleasant,pleasant,NA,NA,NA,NA,NA,left,1488.5,true,NA,NA,NA,NA,NA,NA,NA,NA
H4ZTzK70,3z8ujejod2q8a85trwhk37uqvoc39x,3l4d84mil35excnvjv21lf5vea6jhy,H4ZTzK70,2020-0188,2021-10-31,10:17:56,11:31:24,NA,incomplete,false,true,NA,NA,1,28,NA,purple,m_s_016.jpg,NA,NA,NA,NA,NA,pleasant,unpleasant,NA,NA,NA,NA,NA,left,1158.20000000298,true,NA,NA,NA,NA,NA,NA,NA,NA
H4ZTzK70,3z8ujejod2q8a85trwhk37uqvoc39x,3l4d84mil35excnvjv21lf5vea6jhy,H4ZTzK70,2020-0188,2021-10-31,10:17:56,11:31:24,NA,incomplete,false,true,NA,NA,1,29,NA,purple,n_l_052.jpg,NA,NA,NA,NA,NA,pleasant,unpleasant,NA,NA,NA,NA,NA,left,1185.89999999851,true,NA,NA,NA,NA,NA,NA,NA,NA
H4ZTzK70,3z8ujejod2q8a85trwhk37uqvoc39x,3l4d84mil35excnvjv21lf5vea6jhy,H4ZTzK70,2020-0188,2021-10-31,10:17:56,11:31:24,NA,incomplete,false,true,NA,NA,1,30,NA,orange,m_l_023.jpg,NA,NA,NA,NA,NA,unpleasant,pleasant,NA,NA,NA,NA,NA,right,1221.19999999553,true,NA,NA,NA,NA,NA,NA,NA,NA
H4ZTzK70,3z8ujejod2q8a85trwhk37uqvoc39x,3l4d84mil35excnvjv21lf5vea6jhy,H4ZTzK70,2020-0188,2021-10-31,10:17:56,11:31:24,NA,incomplete,false,true,NA,NA,1,31,NA,orange,n_s_084.jpg,NA,NA,NA,NA,NA,pleasant,unpleasant,NA,NA,NA,NA,NA,right,1219.69999999553,true,NA,NA,NA,NA,NA,NA,NA,NA
H4ZTzK70,3z8ujejod2q8a85trwhk37uqvoc39x,3l4d84mil35excnvjv21lf5vea6jhy,H4ZTzK70,2020-0188,2021-10-31,10:17:56,11:31:24,NA,incomplete,false,true,NA,NA,1,32,NA,orange,n_l_089.jpg,NA,NA,NA,NA,NA,unpleasant,pleasant,NA,NA,NA,NA,NA,left,1520.19999999553,true,NA,NA,NA,NA,NA,NA,NA,NA
H4ZTzK70,3z8ujejod2q8a85trwhk37uqvoc39x,3l4d84mil35excnvjv21lf5vea6jhy,H4ZTzK70,2020-0188,2021-10-31,10:17:56,11:31:24,NA,incomplete,false,true,NA,NA,1,33,NA,orange,n_s_060.jpg,NA,NA,NA,NA,NA,unpleasant,pleasant,NA,NA,NA,NA,NA,right,891.89999999851,true,NA,NA,NA,NA,NA,NA,NA,NA
H4ZTzK70,3z8ujejod2q8a85trwhk37uqvoc39x,3l4d84mil35excnvjv21lf5vea6jhy,H4ZTzK70,2020-0188,2021-10-31,10:17:56,11:31:24,NA,incomplete,false,true,NA,NA,1,34,NA,orange,m_s_098.jpg,NA,NA,NA,NA,NA,pleasant,unpleasant,NA,NA,NA,NA,NA,left,1176.79999999702,true,NA,NA,NA,NA,NA,NA,NA,NA
H4ZTzK70,3z8ujejod2q8a85trwhk37uqvoc39x,3l4d84mil35excnvjv21lf5vea6jhy,H4ZTzK70,2020-0188,2021-10-31,10:17:56,11:31:24,NA,incomplete,false,true,NA,NA,1,35,NA,orange,n_s_027.jpg,NA,NA,NA,NA,NA,pleasant,unpleasant,NA,NA,NA,NA,NA,right,1406.59999999404,true,NA,NA,NA,NA,NA,NA,NA,NA
H4ZTzK70,3z8ujejod2q8a85trwhk37uqvoc39x,3l4d84mil35excnvjv21lf5vea6jhy,H4ZTzK70,2020-0188,2021-10-31,10:17:56,11:31:24,NA,incomplete,false,NA,NA,true,1,0,NA,NA,NA,right,m_s_016.jpg,brown,purple,NA,NA,NA,NA,NA,NA,NA,NA,NA,NaN,NA,4263.30000000447,left,0,NA,NA,NA,NA,NA
H4ZTzK70,3z8ujejod2q8a85trwhk37uqvoc39x,3l4d84mil35excnvjv21lf5vea6jhy,H4ZTzK70,2020-0188,2021-10-31,10:17:56,11:31:24,NA,incomplete,false,NA,NA,true,1,1,NA,NA,NA,left,n_l_049.jpg,brown,purple,NA,NA,NA,NA,NA,NA,NA,NA,NA,NaN,NA,2094.5,right,0,NA,NA,NA,NA,NA
H4ZTzK70,3z8ujejod2q8a85trwhk37uqvoc39x,3l4d84mil35excnvjv21lf5vea6jhy,H4ZTzK70,2020-0188,2021-10-31,10:17:56,11:31:24,NA,incomplete,false,NA,NA,true,1,2,NA,NA,NA,right,m_l_027.jpg,gray,red,NA,NA,NA,NA,NA,NA,NA,NA,NA,NaN,NA,5542.79999999702,right,1,NA,NA,NA,NA,NA
H4ZTzK70,3z8ujejod2q8a85trwhk37uqvoc39x,3l4d84mil35excnvjv21lf5vea6jhy,H4ZTzK70,2020-0188,2021-10-31,10:17:56,11:31:24,NA,incomplete,false,NA,NA,true,1,3,NA,NA,NA,right,n_s_041.jpg,brown,gray,NA,NA,NA,NA,NA,NA,NA,NA,NA,NaN,NA,1739.8999999985099,right,1,NA,NA,NA,NA,NA
H4ZTzK70,3z8ujejod2q8a85trwhk37uqvoc39x,3l4d84mil35excnvjv21lf5vea6jhy,H4ZTzK70,2020-0188,2021-10-31,10:17:56,11:31:24,NA,incomplete,false,NA,NA,true,1,4,NA,NA,NA,right,m_l_059.jpg,black,red,NA,NA,NA,NA,NA,NA,NA,NA,NA,NaN,NA,3621,left,0,NA,NA,NA,NA,NA
H4ZTzK70,3z8ujejod2q8a85trwhk37uqvoc39x,3l4d84mil35excnvjv21lf5vea6jhy,H4ZTzK70,2020-0188,2021-10-31,10:17:56,11:31:24,NA,incomplete,false,NA,NA,true,1,5,NA,NA,NA,left,m_l_019.jpg,black,red,NA,NA,NA,NA,NA,NA,NA,NA,NA,NaN,NA,3462.6999999955297,right,0,NA,NA,NA,NA,NA
H4ZTzK70,3z8ujejod2q8a85trwhk37uqvoc39x,3l4d84mil35excnvjv21lf5vea6jhy,H4ZTzK70,2020-0188,2021-10-31,10:17:56,11:31:24,NA,incomplete,false,NA,NA,true,1,6,NA,NA,NA,left,n_l_052.jpg,purple,orange,NA,NA,NA,NA,NA,NA,NA,NA,NA,NaN,NA,6007.10000000149,left,1,NA,NA,NA,NA,NA
H4ZTzK70,3z8ujejod2q8a85trwhk37uqvoc39x,3l4d84mil35excnvjv21lf5vea6jhy,H4ZTzK70,2020-0188,2021-10-31,10:17:56,11:31:24,NA,incomplete,false,NA,NA,true,1,7,NA,NA,NA,left,n_s_015.jpg,black,red,NA,NA,NA,NA,NA,NA,NA,NA,NA,NaN,NA,1968.2000000029802,left,1,NA,NA,NA,NA,NA
H4ZTzK70,3z8ujejod2q8a85trwhk37uqvoc39x,3l4d84mil35excnvjv21lf5vea6jhy,H4ZTzK70,2020-0188,2021-10-31,10:17:56,11:31:24,NA,incomplete,false,NA,NA,true,1,8,NA,NA,NA,right,m_s_049.jpg,purple,brown,NA,NA,NA,NA,NA,NA,NA,NA,NA,NaN,NA,2429.10000000149,right,1,NA,NA,NA,NA,NA
H4ZTzK70,3z8ujejod2q8a85trwhk37uqvoc39x,3l4d84mil35excnvjv21lf5vea6jhy,H4ZTzK70,2020-0188,2021-10-31,10:17:56,11:31:24,NA,incomplete,false,NA,NA,true,1,9,NA,NA,NA,left,m_l_093.jpg,red,black,NA,NA,NA,NA,NA,NA,NA,NA,NA,NaN,NA,2022,left,1,NA,NA,NA,NA,NA
H4ZTzK70,3z8ujejod2q8a85trwhk37uqvoc39x,3l4d84mil35excnvjv21lf5vea6jhy,H4ZTzK70,2020-0188,2021-10-31,10:17:56,11:31:24,NA,incomplete,false,NA,NA,true,1,10,NA,NA,NA,right,n_l_017.jpg,red,gray,NA,NA,NA,NA,NA,NA,NA,NA,NA,NaN,NA,3317.10000000149,right,1,NA,NA,NA,NA,NA
H4ZTzK70,3z8ujejod2q8a85trwhk37uqvoc39x,3l4d84mil35excnvjv21lf5vea6jhy,H4ZTzK70,2020-0188,2021-10-31,10:17:56,11:31:24,NA,incomplete,false,NA,NA,true,1,11,NA,NA,NA,right,m_s_029.jpg,brown,purple,NA,NA,NA,NA,NA,NA,NA,NA,NA,NaN,NA,2902.8000000044703,right,1,NA,NA,NA,NA,NA
H4ZTzK70,3z8ujejod2q8a85trwhk37uqvoc39x,3l4d84mil35excnvjv21lf5vea6jhy,H4ZTzK70,2020-0188,2021-10-31,10:17:56,11:31:24,NA,incomplete,false,NA,NA,true,1,12,NA,NA,NA,right,n_l_043.jpg,red,black,NA,NA,NA,NA,NA,NA,NA,NA,NA,NaN,NA,1940.3999999985099,right,1,NA,NA,NA,NA,NA
H4ZTzK70,3z8ujejod2q8a85trwhk37uqvoc39x,3l4d84mil35excnvjv21lf5vea6jhy,H4ZTzK70,2020-0188,2021-10-31,10:17:56,11:31:24,NA,incomplete,false,NA,NA,true,1,13,NA,NA,NA,right,m_l_074.jpg,black,red,NA,NA,NA,NA,NA,NA,NA,NA,NA,NaN,NA,2056,left,0,NA,NA,NA,NA,NA
H4ZTzK70,3z8ujejod2q8a85trwhk37uqvoc39x,3l4d84mil35excnvjv21lf5vea6jhy,H4ZTzK70,2020-0188,2021-10-31,10:17:56,11:31:24,NA,incomplete,false,NA,NA,true,1,14,NA,NA,NA,right,n_l_060.jpg,purple,brown,NA,NA,NA,NA,NA,NA,NA,NA,NA,NaN,NA,2336.60000000149,left,0,NA,NA,NA,NA,NA
H4ZTzK70,3z8ujejod2q8a85trwhk37uqvoc39x,3l4d84mil35excnvjv21lf5vea6jhy,H4ZTzK70,2020-0188,2021-10-31,10:17:56,11:31:24,NA,incomplete,false,NA,NA,true,1,15,NA,NA,NA,right,n_s_027.jpg,purple,orange,NA,NA,NA,NA,NA,NA,NA,NA,NA,NaN,NA,2215.89999999851,right,1,NA,NA,NA,NA,NA
H4ZTzK70,3z8ujejod2q8a85trwhk37uqvoc39x,3l4d84mil35excnvjv21lf5vea6jhy,H4ZTzK70,2020-0188,2021-10-31,10:17:56,11:31:24,NA,incomplete,false,NA,NA,true,1,16,NA,NA,NA,left,m_s_036.jpg,purple,brown,NA,NA,NA,NA,NA,NA,NA,NA,NA,NaN,NA,4212.5,left,1,NA,NA,NA,NA,NA
H4ZTzK70,3z8ujejod2q8a85trwhk37uqvoc39x,3l4d84mil35excnvjv21lf5vea6jhy,H4ZTzK70,2020-0188,2021-10-31,10:17:56,11:31:24,NA,incomplete,false,NA,NA,true,1,17,NA,NA,NA,left,n_l_089.jpg,orange,purple,NA,NA,NA,NA,NA,NA,NA,NA,NA,NaN,NA,3467.7999999970198,right,0,NA,NA,NA,NA,NA
H4ZTzK70,3z8ujejod2q8a85trwhk37uqvoc39x,3l4d84mil35excnvjv21lf5vea6jhy,H4ZTzK70,2020-0188,2021-10-31,10:17:56,11:31:24,NA,incomplete,false,NA,NA,true,1,18,NA,NA,NA,right,n_s_084.jpg,purple,orange,NA,NA,NA,NA,NA,NA,NA,NA,NA,NaN,NA,2052.10000000149,right,1,NA,NA,NA,NA,NA
H4ZTzK70,3z8ujejod2q8a85trwhk37uqvoc39x,3l4d84mil35excnvjv21lf5vea6jhy,H4ZTzK70,2020-0188,2021-10-31,10:17:56,11:31:24,NA,incomplete,false,NA,NA,true,1,19,NA,NA,NA,right,n_l_064.jpg,purple,brown,NA,NA,NA,NA,NA,NA,NA,NA,NA,NaN,NA,1404.9000000059605,right,1,NA,NA,NA,NA,NA
H4ZTzK70,3z8ujejod2q8a85trwhk37uqvoc39x,3l4d84mil35excnvjv21lf5vea6jhy,H4ZTzK70,2020-0188,2021-10-31,10:17:56,11:31:24,NA,incomplete,false,NA,NA,true,1,20,NA,NA,NA,left,n_l_033.jpg,gray,red,NA,NA,NA,NA,NA,NA,NA,NA,NA,NaN,NA,2204.8000000044703,left,1,NA,NA,NA,NA,NA
H4ZTzK70,3z8ujejod2q8a85trwhk37uqvoc39x,3l4d84mil35excnvjv21lf5vea6jhy,H4ZTzK70,2020-0188,2021-10-31,10:17:56,11:31:24,NA,incomplete,false,NA,NA,true,1,21,NA,NA,NA,right,m_l_117.jpg,red,gray,NA,NA,NA,NA,NA,NA,NA,NA,NA,NaN,NA,2980.1999999955297,right,1,NA,NA,NA,NA,NA
H4ZTzK70,3z8ujejod2q8a85trwhk37uqvoc39x,3l4d84mil35excnvjv21lf5vea6jhy,H4ZTzK70,2020-0188,2021-10-31,10:17:56,11:31:24,NA,incomplete,false,NA,true,NA,1,0,NA,NA,NA,left,NA,NA,NA,absent,NA,NA,m_s_029.jpg,purple,n_l_052.jpg,purple,within,NA,NaN,NA,NA,NA,NA,right,3299.60000000149,0,2,4072.60000000149
H4ZTzK70,3z8ujejod2q8a85trwhk37uqvoc39x,3l4d84mil35excnvjv21lf5vea6jhy,H4ZTzK70,2020-0188,2021-10-31,10:17:56,11:31:24,NA,incomplete,false,NA,true,NA,1,1,NA,NA,NA,right,NA,NA,NA,absent,NA,NA,n_l_017.jpg,gray,m_l_117.jpg,gray,within,NA,NaN,NA,NA,NA,NA,left,2052.2000000029802,0,2,2487.2000000029802
H4ZTzK70,3z8ujejod2q8a85trwhk37uqvoc39x,3l4d84mil35excnvjv21lf5vea6jhy,H4ZTzK70,2020-0188,2021-10-31,10:17:56,11:31:24,NA,incomplete,false,NA,true,NA,1,2,NA,NA,NA,right,NA,NA,NA,absent,NA,NA,n_l_033.jpg,gray,m_l_093.jpg,red,between,NA,NaN,NA,NA,NA,NA,left,2528.2000000029802,0,1,4455.39999999851
H4ZTzK70,3z8ujejod2q8a85trwhk37uqvoc39x,3l4d84mil35excnvjv21lf5vea6jhy,H4ZTzK70,2020-0188,2021-10-31,10:17:56,11:31:24,NA,incomplete,false,NA,true,NA,1,3,NA,NA,NA,left,NA,NA,NA,absent,NA,NA,n_s_084.jpg,orange,n_s_027.jpg,orange,within,NA,NaN,NA,NA,NA,NA,left,3655.1999999955297,1,2,2431.39999999851
H4ZTzK70,3z8ujejod2q8a85trwhk37uqvoc39x,3l4d84mil35excnvjv21lf5vea6jhy,H4ZTzK70,2020-0188,2021-10-31,10:17:56,11:31:24,NA,incomplete,false,NA,true,NA,1,4,NA,NA,NA,left,NA,NA,NA,absent,NA,NA,m_s_016.jpg,purple,n_l_089.jpg,orange,between,NA,NaN,NA,NA,NA,NA,left,1949.2000000029802,1,2,2169.6999999955297
H4ZTzK70,3z8ujejod2q8a85trwhk37uqvoc39x,3l4d84mil35excnvjv21lf5vea6jhy,H4ZTzK70,2020-0188,2021-10-31,10:17:56,11:31:24,NA,incomplete,false,NA,true,NA,1,5,NA,NA,NA,left,NA,NA,NA,absent,NA,NA,n_s_015.jpg,black,m_l_019.jpg,black,within,NA,NaN,NA,NA,NA,NA,left,2487,1,1,2064.5
H4ZTzK70,3z8ujejod2q8a85trwhk37uqvoc39x,3l4d84mil35excnvjv21lf5vea6jhy,H4ZTzK70,2020-0188,2021-10-31,10:17:56,11:31:24,NA,incomplete,false,NA,true,NA,1,6,NA,NA,NA,left,NA,NA,NA,absent,NA,NA,n_s_041.jpg,gray,m_s_049.jpg,brown,between,NA,NaN,NA,NA,NA,NA,right,2478.89999999851,0,1,2134.2999999970198
H4ZTzK70,3z8ujejod2q8a85trwhk37uqvoc39x,3l4d84mil35excnvjv21lf5vea6jhy,H4ZTzK70,2020-0188,2021-10-31,10:17:56,11:31:24,NA,incomplete,false,NA,true,NA,1,7,NA,NA,NA,left,NA,NA,NA,absent,NA,NA,n_l_043.jpg,black,m_l_074.jpg,red,between,NA,NaN,NA,NA,NA,NA,left,2536.5999999940395,1,1,3253.60000000149
H4ZTzK70,3z8ujejod2q8a85trwhk37uqvoc39x,3l4d84mil35excnvjv21lf5vea6jhy,H4ZTzK70,2020-0188,2021-10-31,10:17:56,11:31:24,NA,incomplete,false,NA,true,NA,1,8,NA,NA,NA,right,NA,NA,NA,absent,NA,NA,m_l_059.jpg,red,m_l_027.jpg,red,within,NA,NaN,NA,NA,NA,NA,left,2272.0999999940395,0,1,4237.60000000149
H4ZTzK70,3z8ujejod2q8a85trwhk37uqvoc39x,3l4d84mil35excnvjv21lf5vea6jhy,H4ZTzK70,2020-0188,2021-10-31,10:17:56,11:31:24,NA,incomplete,false,NA,true,NA,1,9,NA,NA,NA,left,NA,NA,NA,absent,NA,NA,n_l_060.jpg,brown,n_l_049.jpg,brown,within,NA,NaN,NA,NA,NA,NA,left,3614.5,1,2,3124.60000000149
H4ZTzK70,3z8ujejod2q8a85trwhk37uqvoc39x,3l4d84mil35excnvjv21lf5vea6jhy,H4ZTzK70,2020-0188,2021-10-31,10:17:56,11:31:24,NA,incomplete,false,NA,true,NA,1,10,NA,NA,NA,left,NA,NA,NA,absent,NA,NA,n_l_064.jpg,brown,m_s_036.jpg,purple,between,NA,NaN,NA,NA,NA,NA,left,3151.3000000044703,1,2,2027.8999999985099
H4ZTzK70,3z8ujejod2q8a85trwhk37uqvoc39x,3l4d84mil35excnvjv21lf5vea6jhy,H4ZTzK70,2020-0188,2021-10-31,10:17:56,11:31:24,NA,incomplete,false,true,NA,NA,2,0,NA,green,n_l_051.jpg,NA,NA,NA,NA,NA,unpleasant,pleasant,NA,NA,NA,NA,NA,right,1661.89999999851,true,NA,NA,NA,NA,NA,NA,NA,NA
H4ZTzK70,3z8ujejod2q8a85trwhk37uqvoc39x,3l4d84mil35excnvjv21lf5vea6jhy,H4ZTzK70,2020-0188,2021-10-31,10:17:56,11:31:24,NA,incomplete,false,true,NA,NA,2,1,NA,green,n_l_099.jpg,NA,NA,NA,NA,NA,pleasant,unpleasant,NA,NA,NA,NA,NA,left,1077.69999999553,true,NA,NA,NA,NA,NA,NA,NA,NA
H4ZTzK70,3z8ujejod2q8a85trwhk37uqvoc39x,3l4d84mil35excnvjv21lf5vea6jhy,H4ZTzK70,2020-0188,2021-10-31,10:17:56,11:31:24,NA,incomplete,false,true,NA,NA,2,2,NA,green,m_s_056.jpg,NA,NA,NA,NA,NA,pleasant,unpleasant,NA,NA,NA,NA,NA,left,913.10000000149,true,NA,NA,NA,NA,NA,NA,NA,NA
H4ZTzK70,3z8ujejod2q8a85trwhk37uqvoc39x,3l4d84mil35excnvjv21lf5vea6jhy,H4ZTzK70,2020-0188,2021-10-31,10:17:56,11:31:24,NA,incomplete,false,true,NA,NA,2,3,NA,green,n_s_044.jpg,NA,NA,NA,NA,NA,unpleasant,pleasant,NA,NA,NA,NA,NA,left,1164.29999999702,true,NA,NA,NA,NA,NA,NA,NA,NA
H4ZTzK70,3z8ujejod2q8a85trwhk37uqvoc39x,3l4d84mil35excnvjv21lf5vea6jhy,H4ZTzK70,2020-0188,2021-10-31,10:17:56,11:31:24,NA,incomplete,false,true,NA,NA,2,4,NA,green,n_l_093.jpg,NA,NA,NA,NA,NA,unpleasant,pleasant,NA,NA,NA,NA,NA,right,845.29999999702,true,NA,NA,NA,NA,NA,NA,NA,NA
H4ZTzK70,3z8ujejod2q8a85trwhk37uqvoc39x,3l4d84mil35excnvjv21lf5vea6jhy,H4ZTzK70,2020-0188,2021-10-31,10:17:56,11:31:24,NA,incomplete,false,true,NA,NA,2,5,NA,green,m_l_044.jpg,NA,NA,NA,NA,NA,pleasant,unpleasant,NA,NA,NA,NA,NA,left,1104.39999999851,true,NA,NA,NA,NA,NA,NA,NA,NA
H4ZTzK70,3z8ujejod2q8a85trwhk37uqvoc39x,3l4d84mil35excnvjv21lf5vea6jhy,H4ZTzK70,2020-0188,2021-10-31,10:17:56,11:31:24,NA,incomplete,false,true,NA,NA,2,6,NA,black,n_l_069.jpg,NA,NA,NA,NA,NA,pleasant,unpleasant,NA,NA,NA,NA,NA,left,1064.5,true,NA,NA,NA,NA,NA,NA,NA,NA
H4ZTzK70,3z8ujejod2q8a85trwhk37uqvoc39x,3l4d84mil35excnvjv21lf5vea6jhy,H4ZTzK70,2020-0188,2021-10-31,10:17:56,11:31:24,NA,incomplete,false,true,NA,NA,2,7,NA,black,n_l_026.jpg,NA,NA,NA,NA,NA,unpleasant,pleasant,NA,NA,NA,NA,NA,right,1257.70000000298,true,NA,NA,NA,NA,NA,NA,NA,NA
H4ZTzK70,3z8ujejod2q8a85trwhk37uqvoc39x,3l4d84mil35excnvjv21lf5vea6jhy,H4ZTzK70,2020-0188,2021-10-31,10:17:56,11:31:24,NA,incomplete,false,true,NA,NA,2,8,NA,black,m_l_070.jpg,NA,NA,NA,NA,NA,unpleasant,pleasant,NA,NA,NA,NA,NA,right,834.59999999404,true,NA,NA,NA,NA,NA,NA,NA,NA
H4ZTzK70,3z8ujejod2q8a85trwhk37uqvoc39x,3l4d84mil35excnvjv21lf5vea6jhy,H4ZTzK70,2020-0188,2021-10-31,10:17:56,11:31:24,NA,incomplete,false,true,NA,NA,2,9,NA,black,m_s_080.jpg,NA,NA,NA,NA,NA,unpleasant,pleasant,NA,NA,NA,NA,NA,right,1663.29999999702,true,NA,NA,NA,NA,NA,NA,NA,NA
H4ZTzK70,3z8ujejod2q8a85trwhk37uqvoc39x,3l4d84mil35excnvjv21lf5vea6jhy,H4ZTzK70,2020-0188,2021-10-31,10:17:56,11:31:24,NA,incomplete,false,true,NA,NA,2,10,NA,black,n_l_095.jpg,NA,NA,NA,NA,NA,unpleasant,pleasant,NA,NA,NA,NA,NA,right,1373.19999999553,true,NA,NA,NA,NA,NA,NA,NA,NA
H4ZTzK70,3z8ujejod2q8a85trwhk37uqvoc39x,3l4d84mil35excnvjv21lf5vea6jhy,H4ZTzK70,2020-0188,2021-10-31,10:17:56,11:31:24,NA,incomplete,false,true,NA,NA,2,11,NA,black,m_l_037.jpg,NA,NA,NA,NA,NA,pleasant,unpleasant,NA,NA,NA,NA,NA,left,906.39999999851,true,NA,NA,NA,NA,NA,NA,NA,NA
H4ZTzK70,3z8ujejod2q8a85trwhk37uqvoc39x,3l4d84mil35excnvjv21lf5vea6jhy,H4ZTzK70,2020-0188,2021-10-31,10:17:56,11:31:24,NA,incomplete,false,true,NA,NA,2,12,NA,brown,n_l_101.jpg,NA,NA,NA,NA,NA,pleasant,unpleasant,NA,NA,NA,NA,NA,right,1245.89999999851,true,NA,NA,NA,NA,NA,NA,NA,NA
H4ZTzK70,3z8ujejod2q8a85trwhk37uqvoc39x,3l4d84mil35excnvjv21lf5vea6jhy,H4ZTzK70,2020-0188,2021-10-31,10:17:56,11:31:24,NA,incomplete,false,true,NA,NA,2,13,NA,brown,n_l_087.jpg,NA,NA,NA,NA,NA,unpleasant,pleasant,NA,NA,NA,NA,NA,right,1093.60000000149,true,NA,NA,NA,NA,NA,NA,NA,NA
H4ZTzK70,3z8ujejod2q8a85trwhk37uqvoc39x,3l4d84mil35excnvjv21lf5vea6jhy,H4ZTzK70,2020-0188,2021-10-31,10:17:56,11:31:24,NA,incomplete,false,true,NA,NA,2,14,NA,brown,m_l_021.jpg,NA,NA,NA,NA,NA,unpleasant,pleasant,NA,NA,NA,NA,NA,right,897.80000000447,true,NA,NA,NA,NA,NA,NA,NA,NA
H4ZTzK70,3z8ujejod2q8a85trwhk37uqvoc39x,3l4d84mil35excnvjv21lf5vea6jhy,H4ZTzK70,2020-0188,2021-10-31,10:17:56,11:31:24,NA,incomplete,false,true,NA,NA,2,15,NA,brown,m_l_051.jpg,NA,NA,NA,NA,NA,unpleasant,pleasant,NA,NA,NA,NA,NA,right,1056.89999999851,true,NA,NA,NA,NA,NA,NA,NA,NA
H4ZTzK70,3z8ujejod2q8a85trwhk37uqvoc39x,3l4d84mil35excnvjv21lf5vea6jhy,H4ZTzK70,2020-0188,2021-10-31,10:17:56,11:31:24,NA,incomplete,false,true,NA,NA,2,16,NA,brown,m_l_105.jpg,NA,NA,NA,NA,NA,unpleasant,pleasant,NA,NA,NA,NA,NA,right,888,true,NA,NA,NA,NA,NA,NA,NA,NA
H4ZTzK70,3z8ujejod2q8a85trwhk37uqvoc39x,3l4d84mil35excnvjv21lf5vea6jhy,H4ZTzK70,2020-0188,2021-10-31,10:17:56,11:31:24,NA,incomplete,false,true,NA,NA,2,17,NA,brown,m_s_012.jpg,NA,NA,NA,NA,NA,unpleasant,pleasant,NA,NA,NA,NA,NA,right,826.59999999404,true,NA,NA,NA,NA,NA,NA,NA,NA
H4ZTzK70,3z8ujejod2q8a85trwhk37uqvoc39x,3l4d84mil35excnvjv21lf5vea6jhy,H4ZTzK70,2020-0188,2021-10-31,10:17:56,11:31:24,NA,incomplete,false,true,NA,NA,2,18,NA,red,n_s_024.jpg,NA,NA,NA,NA,NA,unpleasant,pleasant,NA,NA,NA,NA,NA,right,1367.60000000149,true,NA,NA,NA,NA,NA,NA,NA,NA
H4ZTzK70,3z8ujejod2q8a85trwhk37uqvoc39x,3l4d84mil35excnvjv21lf5vea6jhy,H4ZTzK70,2020-0188,2021-10-31,10:17:56,11:31:24,NA,incomplete,false,true,NA,NA,2,19,NA,red,n_l_014.jpg,NA,NA,NA,NA,NA,unpleasant,pleasant,NA,NA,NA,NA,NA,left,854.89999999851,true,NA,NA,NA,NA,NA,NA,NA,NA
H4ZTzK70,3z8ujejod2q8a85trwhk37uqvoc39x,3l4d84mil35excnvjv21lf5vea6jhy,H4ZTzK70,2020-0188,2021-10-31,10:17:56,11:31:24,NA,incomplete,false,true,NA,NA,2,20,NA,red,n_s_046.jpg,NA,NA,NA,NA,NA,unpleasant,pleasant,NA,NA,NA,NA,NA,left,1023.5,true,NA,NA,NA,NA,NA,NA,NA,NA
H4ZTzK70,3z8ujejod2q8a85trwhk37uqvoc39x,3l4d84mil35excnvjv21lf5vea6jhy,H4ZTzK70,2020-0188,2021-10-31,10:17:56,11:31:24,NA,incomplete,false,true,NA,NA,2,21,NA,red,n_l_044.jpg,NA,NA,NA,NA,NA,pleasant,unpleasant,NA,NA,NA,NA,NA,right,1870.89999999851,true,NA,NA,NA,NA,NA,NA,NA,NA
H4ZTzK70,3z8ujejod2q8a85trwhk37uqvoc39x,3l4d84mil35excnvjv21lf5vea6jhy,H4ZTzK70,2020-0188,2021-10-31,10:17:56,11:31:24,NA,incomplete,false,true,NA,NA,2,22,NA,red,m_s_033.jpg,NA,NA,NA,NA,NA,pleasant,unpleasant,NA,NA,NA,NA,NA,right,2038.20000000298,true,NA,NA,NA,NA,NA,NA,NA,NA
H4ZTzK70,3z8ujejod2q8a85trwhk37uqvoc39x,3l4d84mil35excnvjv21lf5vea6jhy,H4ZTzK70,2020-0188,2021-10-31,10:17:56,11:31:24,NA,incomplete,false,true,NA,NA,2,23,NA,red,m_l_058.jpg,NA,NA,NA,NA,NA,pleasant,unpleasant,NA,NA,NA,NA,NA,left,959.89999999851,true,NA,NA,NA,NA,NA,NA,NA,NA
H4ZTzK70,3z8ujejod2q8a85trwhk37uqvoc39x,3l4d84mil35excnvjv21lf5vea6jhy,H4ZTzK70,2020-0188,2021-10-31,10:17:56,11:31:24,NA,incomplete,false,true,NA,NA,2,24,NA,orange,m_s_114.jpg,NA,NA,NA,NA,NA,pleasant,unpleasant,NA,NA,NA,NA,NA,left,1299.39999999851,true,NA,NA,NA,NA,NA,NA,NA,NA
H4ZTzK70,3z8ujejod2q8a85trwhk37uqvoc39x,3l4d84mil35excnvjv21lf5vea6jhy,H4ZTzK70,2020-0188,2021-10-31,10:17:56,11:31:24,NA,incomplete,false,true,NA,NA,2,25,NA,orange,m_l_077.jpg,NA,NA,NA,NA,NA,unpleasant,pleasant,NA,NA,NA,NA,NA,right,960.69999999553,true,NA,NA,NA,NA,NA,NA,NA,NA
H4ZTzK70,3z8ujejod2q8a85trwhk37uqvoc39x,3l4d84mil35excnvjv21lf5vea6jhy,H4ZTzK70,2020-0188,2021-10-31,10:17:56,11:31:24,NA,incomplete,false,true,NA,NA,2,26,NA,orange,n_l_038.jpg,NA,NA,NA,NA,NA,pleasant,unpleasant,NA,NA,NA,NA,NA,left,814.09999999404,true,NA,NA,NA,NA,NA,NA,NA,NA
H4ZTzK70,3z8ujejod2q8a85trwhk37uqvoc39x,3l4d84mil35excnvjv21lf5vea6jhy,H4ZTzK70,2020-0188,2021-10-31,10:17:56,11:31:24,NA,incomplete,false,true,NA,NA,2,27,NA,orange,n_l_015.jpg,NA,NA,NA,NA,NA,unpleasant,pleasant,NA,NA,NA,NA,NA,right,813.5,true,NA,NA,NA,NA,NA,NA,NA,NA
H4ZTzK70,3z8ujejod2q8a85trwhk37uqvoc39x,3l4d84mil35excnvjv21lf5vea6jhy,H4ZTzK70,2020-0188,2021-10-31,10:17:56,11:31:24,NA,incomplete,false,true,NA,NA,2,28,NA,orange,m_l_025.jpg,NA,NA,NA,NA,NA,pleasant,unpleasant,NA,NA,NA,NA,NA,left,714.59999999404,true,NA,NA,NA,NA,NA,NA,NA,NA
H4ZTzK70,3z8ujejod2q8a85trwhk37uqvoc39x,3l4d84mil35excnvjv21lf5vea6jhy,H4ZTzK70,2020-0188,2021-10-31,10:17:56,11:31:24,NA,incomplete,false,true,NA,NA,2,29,NA,orange,n_s_010.jpg,NA,NA,NA,NA,NA,pleasant,unpleasant,NA,NA,NA,NA,NA,left,730.79999999702,true,NA,NA,NA,NA,NA,NA,NA,NA
H4ZTzK70,3z8ujejod2q8a85trwhk37uqvoc39x,3l4d84mil35excnvjv21lf5vea6jhy,H4ZTzK70,2020-0188,2021-10-31,10:17:56,11:31:24,NA,incomplete,false,true,NA,NA,2,30,NA,yellow,m_l_072.jpg,NA,NA,NA,NA,NA,unpleasant,pleasant,NA,NA,NA,NA,NA,right,756.89999999851,true,NA,NA,NA,NA,NA,NA,NA,NA
H4ZTzK70,3z8ujejod2q8a85trwhk37uqvoc39x,3l4d84mil35excnvjv21lf5vea6jhy,H4ZTzK70,2020-0188,2021-10-31,10:17:56,11:31:24,NA,incomplete,false,true,NA,NA,2,31,NA,yellow,n_s_115.jpg,NA,NA,NA,NA,NA,pleasant,unpleasant,NA,NA,NA,NA,NA,left,974.5,true,NA,NA,NA,NA,NA,NA,NA,NA
H4ZTzK70,3z8ujejod2q8a85trwhk37uqvoc39x,3l4d84mil35excnvjv21lf5vea6jhy,H4ZTzK70,2020-0188,2021-10-31,10:17:56,11:31:24,NA,incomplete,false,true,NA,NA,2,32,NA,yellow,n_s_081.jpg,NA,NA,NA,NA,NA,unpleasant,pleasant,NA,NA,NA,NA,NA,right,831.39999999851,true,NA,NA,NA,NA,NA,NA,NA,NA
H4ZTzK70,3z8ujejod2q8a85trwhk37uqvoc39x,3l4d84mil35excnvjv21lf5vea6jhy,H4ZTzK70,2020-0188,2021-10-31,10:17:56,11:31:24,NA,incomplete,false,true,NA,NA,2,33,NA,yellow,m_l_048.jpg,NA,NA,NA,NA,NA,pleasant,unpleasant,NA,NA,NA,NA,NA,left,932,true,NA,NA,NA,NA,NA,NA,NA,NA
H4ZTzK70,3z8ujejod2q8a85trwhk37uqvoc39x,3l4d84mil35excnvjv21lf5vea6jhy,H4ZTzK70,2020-0188,2021-10-31,10:17:56,11:31:24,NA,incomplete,false,true,NA,NA,2,34,NA,yellow,m_l_066.jpg,NA,NA,NA,NA,NA,pleasant,unpleasant,NA,NA,NA,NA,NA,left,1332.10000000149,true,NA,NA,NA,NA,NA,NA,NA,NA
H4ZTzK70,3z8ujejod2q8a85trwhk37uqvoc39x,3l4d84mil35excnvjv21lf5vea6jhy,H4ZTzK70,2020-0188,2021-10-31,10:17:56,11:31:24,NA,incomplete,false,true,NA,NA,2,35,NA,yellow,n_s_068.jpg,NA,NA,NA,NA,NA,pleasant,unpleasant,NA,NA,NA,NA,NA,left,1406.39999999851,true,NA,NA,NA,NA,NA,NA,NA,NA
H4ZTzK70,3z8ujejod2q8a85trwhk37uqvoc39x,3l4d84mil35excnvjv21lf5vea6jhy,H4ZTzK70,2020-0188,2021-10-31,10:17:56,11:31:24,NA,incomplete,false,NA,NA,true,2,0,NA,NA,NA,left,n_s_115.jpg,yellow,orange,NA,NA,NA,NA,NA,NA,NA,NA,NA,NaN,NA,2550.7000000029802,left,1,NA,NA,NA,NA,NA
H4ZTzK70,3z8ujejod2q8a85trwhk37uqvoc39x,3l4d84mil35excnvjv21lf5vea6jhy,H4ZTzK70,2020-0188,2021-10-31,10:17:56,11:31:24,NA,incomplete,false,NA,NA,true,2,1,NA,NA,NA,left,m_l_021.jpg,brown,red,NA,NA,NA,NA,NA,NA,NA,NA,NA,NaN,NA,1768.8999999985099,right,0,NA,NA,NA,NA,NA
H4ZTzK70,3z8ujejod2q8a85trwhk37uqvoc39x,3l4d84mil35excnvjv21lf5vea6jhy,H4ZTzK70,2020-0188,2021-10-31,10:17:56,11:31:24,NA,incomplete,false,NA,NA,true,2,2,NA,NA,NA,left,m_l_058.jpg,red,brown,NA,NA,NA,NA,NA,NA,NA,NA,NA,NaN,NA,2967.10000000149,right,0,NA,NA,NA,NA,NA
H4ZTzK70,3z8ujejod2q8a85trwhk37uqvoc39x,3l4d84mil35excnvjv21lf5vea6jhy,H4ZTzK70,2020-0188,2021-10-31,10:17:56,11:31:24,NA,incomplete,false,NA,NA,true,2,3,NA,NA,NA,right,m_l_044.jpg,black,green,NA,NA,NA,NA,NA,NA,NA,NA,NA,NaN,NA,1335.3999999985099,right,1,NA,NA,NA,NA,NA
H4ZTzK70,3z8ujejod2q8a85trwhk37uqvoc39x,3l4d84mil35excnvjv21lf5vea6jhy,H4ZTzK70,2020-0188,2021-10-31,10:17:56,11:31:24,NA,incomplete,false,NA,NA,true,2,4,NA,NA,NA,left,m_l_070.jpg,black,green,NA,NA,NA,NA,NA,NA,NA,NA,NA,NaN,NA,2629.7000000029802,left,1,NA,NA,NA,NA,NA
H4ZTzK70,3z8ujejod2q8a85trwhk37uqvoc39x,3l4d84mil35excnvjv21lf5vea6jhy,H4ZTzK70,2020-0188,2021-10-31,10:17:56,11:31:24,NA,incomplete,false,NA,NA,true,2,5,NA,NA,NA,left,n_l_087.jpg,brown,red,NA,NA,NA,NA,NA,NA,NA,NA,NA,NaN,NA,2326.2000000029802,left,1,NA,NA,NA,NA,NA
H4ZTzK70,3z8ujejod2q8a85trwhk37uqvoc39x,3l4d84mil35excnvjv21lf5vea6jhy,H4ZTzK70,2020-0188,2021-10-31,10:17:56,11:31:24,NA,incomplete,false,NA,NA,true,2,6,NA,NA,NA,left,m_l_077.jpg,orange,red,NA,NA,NA,NA,NA,NA,NA,NA,NA,NaN,NA,1261,left,1,NA,NA,NA,NA,NA
H4ZTzK70,3z8ujejod2q8a85trwhk37uqvoc39x,3l4d84mil35excnvjv21lf5vea6jhy,H4ZTzK70,2020-0188,2021-10-31,10:17:56,11:31:24,NA,incomplete,false,NA,NA,true,2,7,NA,NA,NA,left,m_s_033.jpg,red,brown,NA,NA,NA,NA,NA,NA,NA,NA,NA,NaN,NA,2055,right,0,NA,NA,NA,NA,NA
H4ZTzK70,3z8ujejod2q8a85trwhk37uqvoc39x,3l4d84mil35excnvjv21lf5vea6jhy,H4ZTzK70,2020-0188,2021-10-31,10:17:56,11:31:24,NA,incomplete,false,NA,NA,true,2,8,NA,NA,NA,right,n_l_095.jpg,brown,black,NA,NA,NA,NA,NA,NA,NA,NA,NA,NaN,NA,1685.8000000044703,right,1,NA,NA,NA,NA,NA
H4ZTzK70,3z8ujejod2q8a85trwhk37uqvoc39x,3l4d84mil35excnvjv21lf5vea6jhy,H4ZTzK70,2020-0188,2021-10-31,10:17:56,11:31:24,NA,incomplete,false,NA,NA,true,2,9,NA,NA,NA,right,m_l_025.jpg,red,orange,NA,NA,NA,NA,NA,NA,NA,NA,NA,NaN,NA,1840.3000000044703,right,1,NA,NA,NA,NA,NA
H4ZTzK70,3z8ujejod2q8a85trwhk37uqvoc39x,3l4d84mil35excnvjv21lf5vea6jhy,H4ZTzK70,2020-0188,2021-10-31,10:17:56,11:31:24,NA,incomplete,false,NA,NA,true,2,10,NA,NA,NA,left,n_s_010.jpg,orange,yellow,NA,NA,NA,NA,NA,NA,NA,NA,NA,NaN,NA,2043.8999999985099,right,0,NA,NA,NA,NA,NA
H4ZTzK70,3z8ujejod2q8a85trwhk37uqvoc39x,3l4d84mil35excnvjv21lf5vea6jhy,H4ZTzK70,2020-0188,2021-10-31,10:17:56,11:31:24,NA,incomplete,false,NA,NA,true,2,11,NA,NA,NA,right,n_s_068.jpg,orange,yellow,NA,NA,NA,NA,NA,NA,NA,NA,NA,NaN,NA,1678.5,left,0,NA,NA,NA,NA,NA
H4ZTzK70,3z8ujejod2q8a85trwhk37uqvoc39x,3l4d84mil35excnvjv21lf5vea6jhy,H4ZTzK70,2020-0188,2021-10-31,10:17:56,11:31:24,NA,incomplete,false,NA,NA,true,2,12,NA,NA,NA,left,m_s_012.jpg,brown,red,NA,NA,NA,NA,NA,NA,NA,NA,NA,NaN,NA,1061,right,0,NA,NA,NA,NA,NA
H4ZTzK70,3z8ujejod2q8a85trwhk37uqvoc39x,3l4d84mil35excnvjv21lf5vea6jhy,H4ZTzK70,2020-0188,2021-10-31,10:17:56,11:31:24,NA,incomplete,false,NA,NA,true,2,13,NA,NA,NA,left,n_l_093.jpg,green,black,NA,NA,NA,NA,NA,NA,NA,NA,NA,NaN,NA,2373.7999999970198,left,1,NA,NA,NA,NA,NA
H4ZTzK70,3z8ujejod2q8a85trwhk37uqvoc39x,3l4d84mil35excnvjv21lf5vea6jhy,H4ZTzK70,2020-0188,2021-10-31,10:17:56,11:31:24,NA,incomplete,false,NA,NA,true,2,14,NA,NA,NA,left,n_l_026.jpg,black,brown,NA,NA,NA,NA,NA,NA,NA,NA,NA,NaN,NA,2015,left,1,NA,NA,NA,NA,NA
H4ZTzK70,3z8ujejod2q8a85trwhk37uqvoc39x,3l4d84mil35excnvjv21lf5vea6jhy,H4ZTzK70,2020-0188,2021-10-31,10:17:56,11:31:24,NA,incomplete,false,NA,NA,true,2,15,NA,NA,NA,left,m_l_037.jpg,black,green,NA,NA,NA,NA,NA,NA,NA,NA,NA,NaN,NA,1525.2999999970198,right,0,NA,NA,NA,NA,NA
H4ZTzK70,3z8ujejod2q8a85trwhk37uqvoc39x,3l4d84mil35excnvjv21lf5vea6jhy,H4ZTzK70,2020-0188,2021-10-31,10:17:56,11:31:24,NA,incomplete,false,NA,NA,true,2,16,NA,NA,NA,left,n_s_046.jpg,red,orange,NA,NA,NA,NA,NA,NA,NA,NA,NA,NaN,NA,1396.7999999970198,right,0,NA,NA,NA,NA,NA
H4ZTzK70,3z8ujejod2q8a85trwhk37uqvoc39x,3l4d84mil35excnvjv21lf5vea6jhy,H4ZTzK70,2020-0188,2021-10-31,10:17:56,11:31:24,NA,incomplete,false,NA,NA,true,2,17,NA,NA,NA,left,n_l_099.jpg,green,black,NA,NA,NA,NA,NA,NA,NA,NA,NA,NaN,NA,4383.39999999851,right,0,NA,NA,NA,NA,NA
H4ZTzK70,3z8ujejod2q8a85trwhk37uqvoc39x,3l4d84mil35excnvjv21lf5vea6jhy,H4ZTzK70,2020-0188,2021-10-31,10:17:56,11:31:24,NA,incomplete,false,NA,NA,true,2,18,NA,NA,NA,left,n_s_081.jpg,yellow,orange,NA,NA,NA,NA,NA,NA,NA,NA,NA,NaN,NA,3024.7999999970198,left,1,NA,NA,NA,NA,NA
H4ZTzK70,3z8ujejod2q8a85trwhk37uqvoc39x,3l4d84mil35excnvjv21lf5vea6jhy,H4ZTzK70,2020-0188,2021-10-31,10:17:56,11:31:24,NA,incomplete,false,NA,NA,true,2,19,NA,NA,NA,right,n_l_038.jpg,yellow,orange,NA,NA,NA,NA,NA,NA,NA,NA,NA,NaN,NA,1549.8999999985099,right,1,NA,NA,NA,NA,NA
H4ZTzK70,3z8ujejod2q8a85trwhk37uqvoc39x,3l4d84mil35excnvjv21lf5vea6jhy,H4ZTzK70,2020-0188,2021-10-31,10:17:56,11:31:24,NA,incomplete,false,NA,NA,true,2,20,NA,NA,NA,left,m_l_105.jpg,brown,red,NA,NA,NA,NA,NA,NA,NA,NA,NA,NaN,NA,1101.8000000044703,right,0,NA,NA,NA,NA,NA
H4ZTzK70,3z8ujejod2q8a85trwhk37uqvoc39x,3l4d84mil35excnvjv21lf5vea6jhy,H4ZTzK70,2020-0188,2021-10-31,10:17:56,11:31:24,NA,incomplete,false,NA,NA,true,2,21,NA,NA,NA,right,n_l_014.jpg,brown,red,NA,NA,NA,NA,NA,NA,NA,NA,NA,NaN,NA,2473.10000000149,left,0,NA,NA,NA,NA,NA
H4ZTzK70,3z8ujejod2q8a85trwhk37uqvoc39x,3l4d84mil35excnvjv21lf5vea6jhy,H4ZTzK70,2020-0188,2021-10-31,10:17:56,11:31:24,NA,incomplete,false,NA,true,NA,2,0,NA,NA,NA,right,NA,NA,NA,absent,NA,NA,n_s_010.jpg,orange,m_l_077.jpg,orange,within,NA,NaN,NA,NA,NA,NA,left,3015.7999999970198,0,1,2438.6999999955297
H4ZTzK70,3z8ujejod2q8a85trwhk37uqvoc39x,3l4d84mil35excnvjv21lf5vea6jhy,H4ZTzK70,2020-0188,2021-10-31,10:17:56,11:31:24,NA,incomplete,false,NA,true,NA,2,1,NA,NA,NA,right,NA,NA,NA,absent,NA,NA,n_s_046.jpg,red,m_l_105.jpg,brown,between,NA,NaN,NA,NA,NA,NA,left,1402.8999999985099,0,1,1879.5
H4ZTzK70,3z8ujejod2q8a85trwhk37uqvoc39x,3l4d84mil35excnvjv21lf5vea6jhy,H4ZTzK70,2020-0188,2021-10-31,10:17:56,11:31:24,NA,incomplete,false,NA,true,NA,2,2,NA,NA,NA,right,NA,NA,NA,absent,NA,NA,m_l_021.jpg,brown,n_l_095.jpg,black,between,NA,NaN,NA,NA,NA,NA,right,2204,1,1,1345.7999999970198
H4ZTzK70,3z8ujejod2q8a85trwhk37uqvoc39x,3l4d84mil35excnvjv21lf5vea6jhy,H4ZTzK70,2020-0188,2021-10-31,10:17:56,11:31:24,NA,incomplete,false,NA,true,NA,2,3,NA,NA,NA,left,NA,NA,NA,absent,NA,NA,n_l_099.jpg,green,m_l_044.jpg,green,within,NA,NaN,NA,NA,NA,NA,left,1661.5999999940395,1,0,4135.30000000447
H4ZTzK70,3z8ujejod2q8a85trwhk37uqvoc39x,3l4d84mil35excnvjv21lf5vea6jhy,H4ZTzK70,2020-0188,2021-10-31,10:17:56,11:31:24,NA,incomplete,false,NA,true,NA,2,4,NA,NA,NA,left,NA,NA,NA,absent,NA,NA,n_l_087.jpg,brown,m_s_012.jpg,brown,within,NA,NaN,NA,NA,NA,NA,left,1901.2000000029802,1,0,1132.7999999970198
H4ZTzK70,3z8ujejod2q8a85trwhk37uqvoc39x,3l4d84mil35excnvjv21lf5vea6jhy,H4ZTzK70,2020-0188,2021-10-31,10:17:56,11:31:24,NA,incomplete,false,NA,true,NA,2,5,NA,NA,NA,right,NA,NA,NA,absent,NA,NA,m_l_070.jpg,black,n_l_093.jpg,green,between,NA,NaN,NA,NA,NA,NA,right,2705.10000000149,1,1,1963.1999999955297
H4ZTzK70,3z8ujejod2q8a85trwhk37uqvoc39x,3l4d84mil35excnvjv21lf5vea6jhy,H4ZTzK70,2020-0188,2021-10-31,10:17:56,11:31:24,NA,incomplete,false,NA,true,NA,2,6,NA,NA,NA,right,NA,NA,NA,absent,NA,NA,n_s_068.jpg,yellow,n_s_115.jpg,yellow,within,NA,NaN,NA,NA,NA,NA,left,1325.8999999985099,0,1,1592.1000000014901
H4ZTzK70,3z8ujejod2q8a85trwhk37uqvoc39x,3l4d84mil35excnvjv21lf5vea6jhy,H4ZTzK70,2020-0188,2021-10-31,10:17:56,11:31:24,NA,incomplete,false,NA,true,NA,2,7,NA,NA,NA,left,NA,NA,NA,absent,NA,NA,m_s_033.jpg,red,n_l_038.jpg,orange,between,NA,NaN,NA,NA,NA,NA,right,1732.1999999955297,0,1,1980.1000000014901
H4ZTzK70,3z8ujejod2q8a85trwhk37uqvoc39x,3l4d84mil35excnvjv21lf5vea6jhy,H4ZTzK70,2020-0188,2021-10-31,10:17:56,11:31:24,NA,incomplete,false,NA,true,NA,2,8,NA,NA,NA,right,NA,NA,NA,absent,NA,NA,m_l_037.jpg,black,n_l_026.jpg,black,within,NA,NaN,NA,NA,NA,NA,right,1599.5,1,0,3597.2999999970198
H4ZTzK70,3z8ujejod2q8a85trwhk37uqvoc39x,3l4d84mil35excnvjv21lf5vea6jhy,H4ZTzK70,2020-0188,2021-10-31,10:17:56,11:31:24,NA,incomplete,false,NA,true,NA,2,9,NA,NA,NA,left,NA,NA,NA,absent,NA,NA,n_l_014.jpg,red,m_l_058.jpg,red,within,NA,NaN,NA,NA,NA,NA,left,3823.60000000149,1,1,3333.6999999955297
H4ZTzK70,3z8ujejod2q8a85trwhk37uqvoc39x,3l4d84mil35excnvjv21lf5vea6jhy,H4ZTzK70,2020-0188,2021-10-31,10:17:56,11:31:24,NA,incomplete,false,NA,true,NA,2,10,NA,NA,NA,left,NA,NA,NA,absent,NA,NA,m_l_025.jpg,orange,n_s_081.jpg,yellow,between,NA,NaN,NA,NA,NA,NA,left,2563.60000000149,1,2,1813.8000000044703
H4ZTzK70,3z8ujejod2q8a85trwhk37uqvoc39x,3l4d84mil35excnvjv21lf5vea6jhy,H4ZTzK70,2020-0188,2021-10-31,10:17:56,11:31:24,NA,incomplete,false,true,NA,NA,3,0,NA,yellow,m_s_096.jpg,NA,NA,NA,NA,NA,unpleasant,pleasant,NA,NA,NA,NA,NA,right,1980.60000000149,true,NA,NA,NA,NA,NA,NA,NA,NA
H4ZTzK70,3z8ujejod2q8a85trwhk37uqvoc39x,3l4d84mil35excnvjv21lf5vea6jhy,H4ZTzK70,2020-0188,2021-10-31,10:17:56,11:31:24,NA,incomplete,false,true,NA,NA,3,1,NA,yellow,n_l_100.jpg,NA,NA,NA,NA,NA,unpleasant,pleasant,NA,NA,NA,NA,NA,right,1049.5,true,NA,NA,NA,NA,NA,NA,NA,NA
H4ZTzK70,3z8ujejod2q8a85trwhk37uqvoc39x,3l4d84mil35excnvjv21lf5vea6jhy,H4ZTzK70,2020-0188,2021-10-31,10:17:56,11:31:24,NA,incomplete,false,true,NA,NA,3,2,NA,yellow,m_l_022.jpg,NA,NA,NA,NA,NA,pleasant,unpleasant,NA,NA,NA,NA,NA,left,804.20000000298,true,NA,NA,NA,NA,NA,NA,NA,NA
H4ZTzK70,3z8ujejod2q8a85trwhk37uqvoc39x,3l4d84mil35excnvjv21lf5vea6jhy,H4ZTzK70,2020-0188,2021-10-31,10:17:56,11:31:24,NA,incomplete,false,true,NA,NA,3,3,NA,yellow,m_s_037.jpg,NA,NA,NA,NA,NA,unpleasant,pleasant,NA,NA,NA,NA,NA,right,719.60000000149,true,NA,NA,NA,NA,NA,NA,NA,NA
H4ZTzK70,3z8ujejod2q8a85trwhk37uqvoc39x,3l4d84mil35excnvjv21lf5vea6jhy,H4ZTzK70,2020-0188,2021-10-31,10:17:56,11:31:24,NA,incomplete,false,true,NA,NA,3,4,NA,yellow,n_l_019.jpg,NA,NA,NA,NA,NA,unpleasant,pleasant,NA,NA,NA,NA,NA,right,538.5,true,NA,NA,NA,NA,NA,NA,NA,NA
H4ZTzK70,3z8ujejod2q8a85trwhk37uqvoc39x,3l4d84mil35excnvjv21lf5vea6jhy,H4ZTzK70,2020-0188,2021-10-31,10:17:56,11:31:24,NA,incomplete,false,true,NA,NA,3,5,NA,yellow,m_l_098.jpg,NA,NA,NA,NA,NA,pleasant,unpleasant,NA,NA,NA,NA,NA,right,1006.79999999702,true,NA,NA,NA,NA,NA,NA,NA,NA
H4ZTzK70,3z8ujejod2q8a85trwhk37uqvoc39x,3l4d84mil35excnvjv21lf5vea6jhy,H4ZTzK70,2020-0188,2021-10-31,10:17:56,11:31:24,NA,incomplete,false,true,NA,NA,3,6,NA,green,n_s_022.jpg,NA,NA,NA,NA,NA,unpleasant,pleasant,NA,NA,NA,NA,NA,left,1167.29999999702,true,NA,NA,NA,NA,NA,NA,NA,NA
H4ZTzK70,3z8ujejod2q8a85trwhk37uqvoc39x,3l4d84mil35excnvjv21lf5vea6jhy,H4ZTzK70,2020-0188,2021-10-31,10:17:56,11:31:24,NA,incomplete,false,true,NA,NA,3,7,NA,green,m_l_028.jpg,NA,NA,NA,NA,NA,unpleasant,pleasant,NA,NA,NA,NA,NA,right,991.10000000149,true,NA,NA,NA,NA,NA,NA,NA,NA
H4ZTzK70,3z8ujejod2q8a85trwhk37uqvoc39x,3l4d84mil35excnvjv21lf5vea6jhy,H4ZTzK70,2020-0188,2021-10-31,10:17:56,11:31:24,NA,incomplete,false,true,NA,NA,3,8,NA,green,n_s_036.jpg,NA,NA,NA,NA,NA,pleasant,unpleasant,NA,NA,NA,NA,NA,right,1343.80000000447,true,NA,NA,NA,NA,NA,NA,NA,NA
H4ZTzK70,3z8ujejod2q8a85trwhk37uqvoc39x,3l4d84mil35excnvjv21lf5vea6jhy,H4ZTzK70,2020-0188,2021-10-31,10:17:56,11:31:24,NA,incomplete,false,true,NA,NA,3,9,NA,green,m_s_082.jpg,NA,NA,NA,NA,NA,unpleasant,pleasant,NA,NA,NA,NA,NA,right,1190,true,NA,NA,NA,NA,NA,NA,NA,NA
H4ZTzK70,3z8ujejod2q8a85trwhk37uqvoc39x,3l4d84mil35excnvjv21lf5vea6jhy,H4ZTzK70,2020-0188,2021-10-31,10:17:56,11:31:24,NA,incomplete,false,true,NA,NA,3,10,NA,green,m_l_069.jpg,NA,NA,NA,NA,NA,unpleasant,pleasant,NA,NA,NA,NA,NA,right,1170.90000000596,true,NA,NA,NA,NA,NA,NA,NA,NA
H4ZTzK70,3z8ujejod2q8a85trwhk37uqvoc39x,3l4d84mil35excnvjv21lf5vea6jhy,H4ZTzK70,2020-0188,2021-10-31,10:17:56,11:31:24,NA,incomplete,false,true,NA,NA,3,11,NA,green,n_s_011.jpg,NA,NA,NA,NA,NA,pleasant,unpleasant,NA,NA,NA,NA,NA,right,940.60000000149,true,NA,NA,NA,NA,NA,NA,NA,NA
H4ZTzK70,3z8ujejod2q8a85trwhk37uqvoc39x,3l4d84mil35excnvjv21lf5vea6jhy,H4ZTzK70,2020-0188,2021-10-31,10:17:56,11:31:24,NA,incomplete,false,true,NA,NA,3,12,NA,gray,n_l_047.jpg,NA,NA,NA,NA,NA,pleasant,unpleasant,NA,NA,NA,NA,NA,left,896.30000000447,true,NA,NA,NA,NA,NA,NA,NA,NA
H4ZTzK70,3z8ujejod2q8a85trwhk37uqvoc39x,3l4d84mil35excnvjv21lf5vea6jhy,H4ZTzK70,2020-0188,2021-10-31,10:17:56,11:31:24,NA,incomplete,false,true,NA,NA,3,13,NA,gray,n_s_013.jpg,NA,NA,NA,NA,NA,pleasant,unpleasant,NA,NA,NA,NA,NA,right,1169.5,true,NA,NA,NA,NA,NA,NA,NA,NA
H4ZTzK70,3z8ujejod2q8a85trwhk37uqvoc39x,3l4d84mil35excnvjv21lf5vea6jhy,H4ZTzK70,2020-0188,2021-10-31,10:17:56,11:31:24,NA,incomplete,false,true,NA,NA,3,14,NA,gray,m_s_073.jpg,NA,NA,NA,NA,NA,pleasant,unpleasant,NA,NA,NA,NA,NA,left,1153.90000000596,true,NA,NA,NA,NA,NA,NA,NA,NA
H4ZTzK70,3z8ujejod2q8a85trwhk37uqvoc39x,3l4d84mil35excnvjv21lf5vea6jhy,H4ZTzK70,2020-0188,2021-10-31,10:17:56,11:31:24,NA,incomplete,false,true,NA,NA,3,15,NA,gray,m_s_052.jpg,NA,NA,NA,NA,NA,pleasant,unpleasant,NA,NA,NA,NA,NA,left,1046.90000000596,true,NA,NA,NA,NA,NA,NA,NA,NA
H4ZTzK70,3z8ujejod2q8a85trwhk37uqvoc39x,3l4d84mil35excnvjv21lf5vea6jhy,H4ZTzK70,2020-0188,2021-10-31,10:17:56,11:31:24,NA,incomplete,false,true,NA,NA,3,16,NA,gray,m_l_050.jpg,NA,NA,NA,NA,NA,pleasant,unpleasant,NA,NA,NA,NA,NA,left,1431.60000000149,true,NA,NA,NA,NA,NA,NA,NA,NA
H4ZTzK70,3z8ujejod2q8a85trwhk37uqvoc39x,3l4d84mil35excnvjv21lf5vea6jhy,H4ZTzK70,2020-0188,2021-10-31,10:17:56,11:31:24,NA,incomplete,false,true,NA,NA,3,17,NA,gray,n_l_062.jpg,NA,NA,NA,NA,NA,pleasant,unpleasant,NA,NA,NA,NA,NA,left,1140.90000000596,true,NA,NA,NA,NA,NA,NA,NA,NA
H4ZTzK70,3z8ujejod2q8a85trwhk37uqvoc39x,3l4d84mil35excnvjv21lf5vea6jhy,H4ZTzK70,2020-0188,2021-10-31,10:17:56,11:31:24,NA,incomplete,false,true,NA,NA,3,18,NA,black,m_s_077.jpg,NA,NA,NA,NA,NA,pleasant,unpleasant,NA,NA,NA,NA,NA,right,1092.19999999553,true,NA,NA,NA,NA,NA,NA,NA,NA
H4ZTzK70,3z8ujejod2q8a85trwhk37uqvoc39x,3l4d84mil35excnvjv21lf5vea6jhy,H4ZTzK70,2020-0188,2021-10-31,10:17:56,11:31:24,NA,incomplete,false,true,NA,NA,3,19,NA,black,n_l_092.jpg,NA,NA,NA,NA,NA,pleasant,unpleasant,NA,NA,NA,NA,NA,left,710.5,true,NA,NA,NA,NA,NA,NA,NA,NA
H4ZTzK70,3z8ujejod2q8a85trwhk37uqvoc39x,3l4d84mil35excnvjv21lf5vea6jhy,H4ZTzK70,2020-0188,2021-10-31,10:17:56,11:31:24,NA,incomplete,false,true,NA,NA,3,20,NA,black,n_s_064.jpg,NA,NA,NA,NA,NA,unpleasant,pleasant,NA,NA,NA,NA,NA,right,886,true,NA,NA,NA,NA,NA,NA,NA,NA
H4ZTzK70,3z8ujejod2q8a85trwhk37uqvoc39x,3l4d84mil35excnvjv21lf5vea6jhy,H4ZTzK70,2020-0188,2021-10-31,10:17:56,11:31:24,NA,incomplete,false,true,NA,NA,3,21,NA,black,m_l_047.jpg,NA,NA,NA,NA,NA,unpleasant,pleasant,NA,NA,NA,NA,NA,right,1031.10000000149,true,NA,NA,NA,NA,NA,NA,NA,NA
H4ZTzK70,3z8ujejod2q8a85trwhk37uqvoc39x,3l4d84mil35excnvjv21lf5vea6jhy,H4ZTzK70,2020-0188,2021-10-31,10:17:56,11:31:24,NA,incomplete,false,true,NA,NA,3,22,NA,black,m_s_026.jpg,NA,NA,NA,NA,NA,unpleasant,pleasant,NA,NA,NA,NA,NA,left,1455.59999999404,true,NA,NA,NA,NA,NA,NA,NA,NA
H4ZTzK70,3z8ujejod2q8a85trwhk37uqvoc39x,3l4d84mil35excnvjv21lf5vea6jhy,H4ZTzK70,2020-0188,2021-10-31,10:17:56,11:31:24,NA,incomplete,false,true,NA,NA,3,23,NA,black,m_s_101.jpg,NA,NA,NA,NA,NA,pleasant,unpleasant,NA,NA,NA,NA,NA,left,977.79999999702,true,NA,NA,NA,NA,NA,NA,NA,NA
H4ZTzK70,3z8ujejod2q8a85trwhk37uqvoc39x,3l4d84mil35excnvjv21lf5vea6jhy,H4ZTzK70,2020-0188,2021-10-31,10:17:56,11:31:24,NA,incomplete,false,true,NA,NA,3,24,NA,orange,m_s_117.jpg,NA,NA,NA,NA,NA,pleasant,unpleasant,NA,NA,NA,NA,NA,left,826.89999999851,true,NA,NA,NA,NA,NA,NA,NA,NA
H4ZTzK70,3z8ujejod2q8a85trwhk37uqvoc39x,3l4d84mil35excnvjv21lf5vea6jhy,H4ZTzK70,2020-0188,2021-10-31,10:17:56,11:31:24,NA,incomplete,false,true,NA,NA,3,25,NA,orange,n_l_003.jpg,NA,NA,NA,NA,NA,unpleasant,pleasant,NA,NA,NA,NA,NA,right,836.39999999851,true,NA,NA,NA,NA,NA,NA,NA,NA
H4ZTzK70,3z8ujejod2q8a85trwhk37uqvoc39x,3l4d84mil35excnvjv21lf5vea6jhy,H4ZTzK70,2020-0188,2021-10-31,10:17:56,11:31:24,NA,incomplete,false,true,NA,NA,3,26,NA,orange,m_l_024.jpg,NA,NA,NA,NA,NA,pleasant,unpleasant,NA,NA,NA,NA,NA,left,940.40000000596,true,NA,NA,NA,NA,NA,NA,NA,NA
H4ZTzK70,3z8ujejod2q8a85trwhk37uqvoc39x,3l4d84mil35excnvjv21lf5vea6jhy,H4ZTzK70,2020-0188,2021-10-31,10:17:56,11:31:24,NA,incomplete,false,true,NA,NA,3,27,NA,orange,m_s_060.jpg,NA,NA,NA,NA,NA,pleasant,unpleasant,NA,NA,NA,NA,NA,left,1980.10000000149,true,NA,NA,NA,NA,NA,NA,NA,NA
H4ZTzK70,3z8ujejod2q8a85trwhk37uqvoc39x,3l4d84mil35excnvjv21lf5vea6jhy,H4ZTzK70,2020-0188,2021-10-31,10:17:56,11:31:24,NA,incomplete,false,true,NA,NA,3,28,NA,orange,m_s_005.jpg,NA,NA,NA,NA,NA,unpleasant,pleasant,NA,NA,NA,NA,NA,left,671.89999999851,true,NA,NA,NA,NA,NA,NA,NA,NA
H4ZTzK70,3z8ujejod2q8a85trwhk37uqvoc39x,3l4d84mil35excnvjv21lf5vea6jhy,H4ZTzK70,2020-0188,2021-10-31,10:17:56,11:31:24,NA,incomplete,false,true,NA,NA,3,29,NA,orange,m_s_028.jpg,NA,NA,NA,NA,NA,pleasant,unpleasant,NA,NA,NA,NA,NA,left,769.5,true,NA,NA,NA,NA,NA,NA,NA,NA
H4ZTzK70,3z8ujejod2q8a85trwhk37uqvoc39x,3l4d84mil35excnvjv21lf5vea6jhy,H4ZTzK70,2020-0188,2021-10-31,10:17:56,11:31:24,NA,incomplete,false,true,NA,NA,3,30,NA,purple,m_s_086.jpg,NA,NA,NA,NA,NA,pleasant,unpleasant,NA,NA,NA,NA,NA,right,1014.29999999702,true,NA,NA,NA,NA,NA,NA,NA,NA
H4ZTzK70,3z8ujejod2q8a85trwhk37uqvoc39x,3l4d84mil35excnvjv21lf5vea6jhy,H4ZTzK70,2020-0188,2021-10-31,10:17:56,11:31:24,NA,incomplete,false,true,NA,NA,3,31,NA,purple,m_l_106.jpg,NA,NA,NA,NA,NA,pleasant,unpleasant,NA,NA,NA,NA,NA,left,1198.39999999851,true,NA,NA,NA,NA,NA,NA,NA,NA
H4ZTzK70,3z8ujejod2q8a85trwhk37uqvoc39x,3l4d84mil35excnvjv21lf5vea6jhy,H4ZTzK70,2020-0188,2021-10-31,10:17:56,11:31:24,NA,incomplete,false,true,NA,NA,3,32,NA,purple,n_l_074.jpg,NA,NA,NA,NA,NA,unpleasant,pleasant,NA,NA,NA,NA,NA,right,1666.39999999851,true,NA,NA,NA,NA,NA,NA,NA,NA
H4ZTzK70,3z8ujejod2q8a85trwhk37uqvoc39x,3l4d84mil35excnvjv21lf5vea6jhy,H4ZTzK70,2020-0188,2021-10-31,10:17:56,11:31:24,NA,incomplete,false,true,NA,NA,3,33,NA,purple,n_l_107.jpg,NA,NA,NA,NA,NA,unpleasant,pleasant,NA,NA,NA,NA,NA,right,1028.79999999702,true,NA,NA,NA,NA,NA,NA,NA,NA
H4ZTzK70,3z8ujejod2q8a85trwhk37uqvoc39x,3l4d84mil35excnvjv21lf5vea6jhy,H4ZTzK70,2020-0188,2021-10-31,10:17:56,11:31:24,NA,incomplete,false,true,NA,NA,3,34,NA,purple,n_s_105.jpg,NA,NA,NA,NA,NA,pleasant,unpleasant,NA,NA,NA,NA,NA,right,783.5,true,NA,NA,NA,NA,NA,NA,NA,NA
H4ZTzK70,3z8ujejod2q8a85trwhk37uqvoc39x,3l4d84mil35excnvjv21lf5vea6jhy,H4ZTzK70,2020-0188,2021-10-31,10:17:56,11:31:24,NA,incomplete,false,true,NA,NA,3,35,NA,purple,m_s_042.jpg,NA,NA,NA,NA,NA,pleasant,unpleasant,NA,NA,NA,NA,NA,left,827,true,NA,NA,NA,NA,NA,NA,NA,NA
H4ZTzK70,3z8ujejod2q8a85trwhk37uqvoc39x,3l4d84mil35excnvjv21lf5vea6jhy,H4ZTzK70,2020-0188,2021-10-31,10:17:56,11:31:24,NA,incomplete,false,NA,NA,true,3,0,NA,NA,NA,left,n_s_064.jpg,black,gray,NA,NA,NA,NA,NA,NA,NA,NA,NA,NaN,NA,3213.5,left,1,NA,NA,NA,NA,NA
H4ZTzK70,3z8ujejod2q8a85trwhk37uqvoc39x,3l4d84mil35excnvjv21lf5vea6jhy,H4ZTzK70,2020-0188,2021-10-31,10:17:56,11:31:24,NA,incomplete,false,NA,NA,true,3,1,NA,NA,NA,right,n_l_003.jpg,black,orange,NA,NA,NA,NA,NA,NA,NA,NA,NA,NaN,NA,1600.1999999955297,right,1,NA,NA,NA,NA,NA
H4ZTzK70,3z8ujejod2q8a85trwhk37uqvoc39x,3l4d84mil35excnvjv21lf5vea6jhy,H4ZTzK70,2020-0188,2021-10-31,10:17:56,11:31:24,NA,incomplete,false,NA,NA,true,3,2,NA,NA,NA,right,m_l_024.jpg,black,orange,NA,NA,NA,NA,NA,NA,NA,NA,NA,NaN,NA,1098.0999999940395,left,0,NA,NA,NA,NA,NA
H4ZTzK70,3z8ujejod2q8a85trwhk37uqvoc39x,3l4d84mil35excnvjv21lf5vea6jhy,H4ZTzK70,2020-0188,2021-10-31,10:17:56,11:31:24,NA,incomplete,false,NA,NA,true,3,3,NA,NA,NA,left,m_l_050.jpg,gray,black,NA,NA,NA,NA,NA,NA,NA,NA,NA,NaN,NA,1120,left,1,NA,NA,NA,NA,NA
H4ZTzK70,3z8ujejod2q8a85trwhk37uqvoc39x,3l4d84mil35excnvjv21lf5vea6jhy,H4ZTzK70,2020-0188,2021-10-31,10:17:56,11:31:24,NA,incomplete,false,NA,NA,true,3,4,NA,NA,NA,left,n_l_062.jpg,gray,black,NA,NA,NA,NA,NA,NA,NA,NA,NA,NaN,NA,965.8999999985099,right,0,NA,NA,NA,NA,NA
H4ZTzK70,3z8ujejod2q8a85trwhk37uqvoc39x,3l4d84mil35excnvjv21lf5vea6jhy,H4ZTzK70,2020-0188,2021-10-31,10:17:56,11:31:24,NA,incomplete,false,NA,NA,true,3,5,NA,NA,NA,right,n_l_092.jpg,gray,black,NA,NA,NA,NA,NA,NA,NA,NA,NA,NaN,NA,1380.7999999970198,right,1,NA,NA,NA,NA,NA
H4ZTzK70,3z8ujejod2q8a85trwhk37uqvoc39x,3l4d84mil35excnvjv21lf5vea6jhy,H4ZTzK70,2020-0188,2021-10-31,10:17:56,11:31:24,NA,incomplete,false,NA,NA,true,3,6,NA,NA,NA,left,m_l_069.jpg,green,gray,NA,NA,NA,NA,NA,NA,NA,NA,NA,NaN,NA,1313.8999999985099,left,1,NA,NA,NA,NA,NA
H4ZTzK70,3z8ujejod2q8a85trwhk37uqvoc39x,3l4d84mil35excnvjv21lf5vea6jhy,H4ZTzK70,2020-0188,2021-10-31,10:17:56,11:31:24,NA,incomplete,false,NA,NA,true,3,7,NA,NA,NA,right,n_s_011.jpg,gray,green,NA,NA,NA,NA,NA,NA,NA,NA,NA,NaN,NA,2162.7999999970198,right,1,NA,NA,NA,NA,NA
H4ZTzK70,3z8ujejod2q8a85trwhk37uqvoc39x,3l4d84mil35excnvjv21lf5vea6jhy,H4ZTzK70,2020-0188,2021-10-31,10:17:56,11:31:24,NA,incomplete,false,NA,NA,true,3,8,NA,NA,NA,right,m_s_028.jpg,black,orange,NA,NA,NA,NA,NA,NA,NA,NA,NA,NaN,NA,946.2000000029802,right,1,NA,NA,NA,NA,NA
H4ZTzK70,3z8ujejod2q8a85trwhk37uqvoc39x,3l4d84mil35excnvjv21lf5vea6jhy,H4ZTzK70,2020-0188,2021-10-31,10:17:56,11:31:24,NA,incomplete,false,NA,NA,true,3,9,NA,NA,NA,right,n_l_019.jpg,green,yellow,NA,NA,NA,NA,NA,NA,NA,NA,NA,NaN,NA,1430.3999999985099,left,0,NA,NA,NA,NA,NA
H4ZTzK70,3z8ujejod2q8a85trwhk37uqvoc39x,3l4d84mil35excnvjv21lf5vea6jhy,H4ZTzK70,2020-0188,2021-10-31,10:17:56,11:31:24,NA,incomplete,false,NA,NA,true,3,10,NA,NA,NA,right,m_s_073.jpg,black,gray,NA,NA,NA,NA,NA,NA,NA,NA,NA,NaN,NA,2565.60000000149,left,0,NA,NA,NA,NA,NA
H4ZTzK70,3z8ujejod2q8a85trwhk37uqvoc39x,3l4d84mil35excnvjv21lf5vea6jhy,H4ZTzK70,2020-0188,2021-10-31,10:17:56,11:31:24,NA,incomplete,false,NA,NA,true,3,11,NA,NA,NA,left,n_s_036.jpg,green,gray,NA,NA,NA,NA,NA,NA,NA,NA,NA,NaN,NA,1050.2999999970198,left,1,NA,NA,NA,NA,NA
H4ZTzK70,3z8ujejod2q8a85trwhk37uqvoc39x,3l4d84mil35excnvjv21lf5vea6jhy,H4ZTzK70,2020-0188,2021-10-31,10:17:56,11:31:24,NA,incomplete,false,NA,NA,true,3,12,NA,NA,NA,right,m_s_101.jpg,gray,black,NA,NA,NA,NA,NA,NA,NA,NA,NA,NaN,NA,1579.3999999985099,right,1,NA,NA,NA,NA,NA
H4ZTzK70,3z8ujejod2q8a85trwhk37uqvoc39x,3l4d84mil35excnvjv21lf5vea6jhy,H4ZTzK70,2020-0188,2021-10-31,10:17:56,11:31:24,NA,incomplete,false,NA,NA,true,3,13,NA,NA,NA,right,m_s_042.jpg,orange,purple,NA,NA,NA,NA,NA,NA,NA,NA,NA,NaN,NA,1558.5,left,0,NA,NA,NA,NA,NA
H4ZTzK70,3z8ujejod2q8a85trwhk37uqvoc39x,3l4d84mil35excnvjv21lf5vea6jhy,H4ZTzK70,2020-0188,2021-10-31,10:17:56,11:31:24,NA,incomplete,false,NA,NA,true,3,14,NA,NA,NA,right,m_l_106.jpg,orange,purple,NA,NA,NA,NA,NA,NA,NA,NA,NA,NaN,NA,1168.5,right,1,NA,NA,NA,NA,NA
H4ZTzK70,3z8ujejod2q8a85trwhk37uqvoc39x,3l4d84mil35excnvjv21lf5vea6jhy,H4ZTzK70,2020-0188,2021-10-31,10:17:56,11:31:24,NA,incomplete,false,NA,NA,true,3,15,NA,NA,NA,left,n_l_100.jpg,yellow,green,NA,NA,NA,NA,NA,NA,NA,NA,NA,NaN,NA,1599.3999999985099,right,0,NA,NA,NA,NA,NA
H4ZTzK70,3z8ujejod2q8a85trwhk37uqvoc39x,3l4d84mil35excnvjv21lf5vea6jhy,H4ZTzK70,2020-0188,2021-10-31,10:17:56,11:31:24,NA,incomplete,false,NA,NA,true,3,16,NA,NA,NA,right,n_s_013.jpg,black,gray,NA,NA,NA,NA,NA,NA,NA,NA,NA,NaN,NA,1074.8999999985099,left,0,NA,NA,NA,NA,NA
H4ZTzK70,3z8ujejod2q8a85trwhk37uqvoc39x,3l4d84mil35excnvjv21lf5vea6jhy,H4ZTzK70,2020-0188,2021-10-31,10:17:56,11:31:24,NA,incomplete,false,NA,NA,true,3,17,NA,NA,NA,left,n_l_074.jpg,purple,orange,NA,NA,NA,NA,NA,NA,NA,NA,NA,NaN,NA,1012.5,left,1,NA,NA,NA,NA,NA
H4ZTzK70,3z8ujejod2q8a85trwhk37uqvoc39x,3l4d84mil35excnvjv21lf5vea6jhy,H4ZTzK70,2020-0188,2021-10-31,10:17:56,11:31:24,NA,incomplete,false,NA,NA,true,3,18,NA,NA,NA,left,m_l_098.jpg,yellow,green,NA,NA,NA,NA,NA,NA,NA,NA,NA,NaN,NA,2462.60000000149,left,1,NA,NA,NA,NA,NA
H4ZTzK70,3z8ujejod2q8a85trwhk37uqvoc39x,3l4d84mil35excnvjv21lf5vea6jhy,H4ZTzK70,2020-0188,2021-10-31,10:17:56,11:31:24,NA,incomplete,false,NA,NA,true,3,19,NA,NA,NA,left,m_s_005.jpg,orange,purple,NA,NA,NA,NA,NA,NA,NA,NA,NA,NaN,NA,1352.7000000029802,left,1,NA,NA,NA,NA,NA
H4ZTzK70,3z8ujejod2q8a85trwhk37uqvoc39x,3l4d84mil35excnvjv21lf5vea6jhy,H4ZTzK70,2020-0188,2021-10-31,10:17:56,11:31:24,NA,incomplete,false,NA,NA,true,3,20,NA,NA,NA,right,m_s_026.jpg,gray,black,NA,NA,NA,NA,NA,NA,NA,NA,NA,NaN,NA,2331.4000000059605,right,1,NA,NA,NA,NA,NA
H4ZTzK70,3z8ujejod2q8a85trwhk37uqvoc39x,3l4d84mil35excnvjv21lf5vea6jhy,H4ZTzK70,2020-0188,2021-10-31,10:17:56,11:31:24,NA,incomplete,false,NA,NA,true,3,21,NA,NA,NA,right,m_l_028.jpg,yellow,green,NA,NA,NA,NA,NA,NA,NA,NA,NA,NaN,NA,1611.8999999985099,right,1,NA,NA,NA,NA,NA
H4ZTzK70,3z8ujejod2q8a85trwhk37uqvoc39x,3l4d84mil35excnvjv21lf5vea6jhy,H4ZTzK70,2020-0188,2021-10-31,10:17:56,11:31:24,NA,incomplete,false,NA,true,NA,3,0,NA,NA,NA,left,NA,NA,NA,absent,NA,NA,n_l_092.jpg,black,m_s_101.jpg,black,within,NA,NaN,NA,NA,NA,NA,left,2127.2000000029802,1,1,2400.89999999851
H4ZTzK70,3z8ujejod2q8a85trwhk37uqvoc39x,3l4d84mil35excnvjv21lf5vea6jhy,H4ZTzK70,2020-0188,2021-10-31,10:17:56,11:31:24,NA,incomplete,false,NA,true,NA,3,1,NA,NA,NA,right,NA,NA,NA,absent,NA,NA,n_l_062.jpg,gray,n_s_013.jpg,gray,within,NA,NaN,NA,NA,NA,NA,right,2886.89999999851,1,1,1604.3000000044703
H4ZTzK70,3z8ujejod2q8a85trwhk37uqvoc39x,3l4d84mil35excnvjv21lf5vea6jhy,H4ZTzK70,2020-0188,2021-10-31,10:17:56,11:31:24,NA,incomplete,false,NA,true,NA,3,2,NA,NA,NA,left,NA,NA,NA,absent,NA,NA,n_l_003.jpg,orange,m_s_028.jpg,orange,within,NA,NaN,NA,NA,NA,NA,left,3414,1,1,2359.2999999970198
H4ZTzK70,3z8ujejod2q8a85trwhk37uqvoc39x,3l4d84mil35excnvjv21lf5vea6jhy,H4ZTzK70,2020-0188,2021-10-31,10:17:56,11:31:24,NA,incomplete,false,NA,true,NA,3,3,NA,NA,NA,right,NA,NA,NA,absent,NA,NA,m_l_098.jpg,yellow,n_l_100.jpg,yellow,within,NA,NaN,NA,NA,NA,NA,left,3816,0,1,1447.5
H4ZTzK70,3z8ujejod2q8a85trwhk37uqvoc39x,3l4d84mil35excnvjv21lf5vea6jhy,H4ZTzK70,2020-0188,2021-10-31,10:17:56,11:31:24,NA,incomplete,false,NA,true,NA,3,4,NA,NA,NA,right,NA,NA,NA,absent,NA,NA,n_l_074.jpg,purple,m_s_005.jpg,orange,between,NA,NaN,NA,NA,NA,NA,left,1830.6999999955297,0,1,1482
H4ZTzK70,3z8ujejod2q8a85trwhk37uqvoc39x,3l4d84mil35excnvjv21lf5vea6jhy,H4ZTzK70,2020-0188,2021-10-31,10:17:56,11:31:24,NA,incomplete,false,NA,true,NA,3,5,NA,NA,NA,right,NA,NA,NA,absent,NA,NA,n_s_011.jpg,green,m_l_028.jpg,green,within,NA,NaN,NA,NA,NA,NA,left,1965.1000000014901,0,1,1398.7999999970198
H4ZTzK70,3z8ujejod2q8a85trwhk37uqvoc39x,3l4d84mil35excnvjv21lf5vea6jhy,H4ZTzK70,2020-0188,2021-10-31,10:17:56,11:31:24,NA,incomplete,false,NA,true,NA,3,6,NA,NA,NA,right,NA,NA,NA,absent,NA,NA,m_s_042.jpg,purple,m_l_106.jpg,purple,within,NA,NaN,NA,NA,NA,NA,right,1348.1999999955297,1,1,1380.8000000044703
H4ZTzK70,3z8ujejod2q8a85trwhk37uqvoc39x,3l4d84mil35excnvjv21lf5vea6jhy,H4ZTzK70,2020-0188,2021-10-31,10:17:56,11:31:24,NA,incomplete,false,NA,true,NA,3,7,NA,NA,NA,left,NA,NA,NA,absent,NA,NA,m_l_069.jpg,green,m_s_073.jpg,gray,between,NA,NaN,NA,NA,NA,NA,right,1482.4000000059605,0,1,1165
H4ZTzK70,3z8ujejod2q8a85trwhk37uqvoc39x,3l4d84mil35excnvjv21lf5vea6jhy,H4ZTzK70,2020-0188,2021-10-31,10:17:56,11:31:24,NA,incomplete,false,NA,true,NA,3,8,NA,NA,NA,left,NA,NA,NA,absent,NA,NA,n_l_019.jpg,yellow,n_s_036.jpg,green,between,NA,NaN,NA,NA,NA,NA,right,2481.39999999851,0,2,1531.6000000014901
H4ZTzK70,3z8ujejod2q8a85trwhk37uqvoc39x,3l4d84mil35excnvjv21lf5vea6jhy,H4ZTzK70,2020-0188,2021-10-31,10:17:56,11:31:24,NA,incomplete,false,NA,true,NA,3,9,NA,NA,NA,right,NA,NA,NA,absent,NA,NA,n_s_064.jpg,black,m_l_050.jpg,gray,between,NA,NaN,NA,NA,NA,NA,left,1915,0,1,1397.8999999985099
H4ZTzK70,3z8ujejod2q8a85trwhk37uqvoc39x,3l4d84mil35excnvjv21lf5vea6jhy,H4ZTzK70,2020-0188,2021-10-31,10:17:56,11:31:24,NA,incomplete,false,NA,true,NA,3,10,NA,NA,NA,left,NA,NA,NA,absent,NA,NA,m_s_026.jpg,black,m_l_024.jpg,orange,between,NA,NaN,NA,NA,NA,NA,right,1913.8999999985099,0,1,1215.1999999955297
H4ZTzK70,3z8ujejod2q8a85trwhk37uqvoc39x,3l4d84mil35excnvjv21lf5vea6jhy,H4ZTzK70,2020-0188,2021-10-31,10:17:56,11:31:24,NA,incomplete,false,true,NA,NA,4,0,NA,brown,n_s_052.jpg,NA,NA,NA,NA,NA,pleasant,unpleasant,NA,NA,NA,NA,NA,left,2081.30000000447,true,NA,NA,NA,NA,NA,NA,NA,NA
H4ZTzK70,3z8ujejod2q8a85trwhk37uqvoc39x,3l4d84mil35excnvjv21lf5vea6jhy,H4ZTzK70,2020-0188,2021-10-31,10:17:56,11:31:24,NA,incomplete,false,true,NA,NA,4,1,NA,brown,m_l_068.jpg,NA,NA,NA,NA,NA,pleasant,unpleasant,NA,NA,NA,NA,NA,left,1020.5,true,NA,NA,NA,NA,NA,NA,NA,NA
H4ZTzK70,3z8ujejod2q8a85trwhk37uqvoc39x,3l4d84mil35excnvjv21lf5vea6jhy,H4ZTzK70,2020-0188,2021-10-31,10:17:56,11:31:24,NA,incomplete,false,true,NA,NA,4,2,NA,brown,m_s_041.jpg,NA,NA,NA,NA,NA,pleasant,unpleasant,NA,NA,NA,NA,NA,left,757.79999999702,true,NA,NA,NA,NA,NA,NA,NA,NA
H4ZTzK70,3z8ujejod2q8a85trwhk37uqvoc39x,3l4d84mil35excnvjv21lf5vea6jhy,H4ZTzK70,2020-0188,2021-10-31,10:17:56,11:31:24,NA,incomplete,false,true,NA,NA,4,3,NA,brown,m_l_041.jpg,NA,NA,NA,NA,NA,pleasant,unpleasant,NA,NA,NA,NA,NA,left,697.69999999553,true,NA,NA,NA,NA,NA,NA,NA,NA
H4ZTzK70,3z8ujejod2q8a85trwhk37uqvoc39x,3l4d84mil35excnvjv21lf5vea6jhy,H4ZTzK70,2020-0188,2021-10-31,10:17:56,11:31:24,NA,incomplete,false,true,NA,NA,4,4,NA,brown,m_l_116.jpg,NA,NA,NA,NA,NA,pleasant,unpleasant,NA,NA,NA,NA,NA,left,758.70000000298,true,NA,NA,NA,NA,NA,NA,NA,NA
H4ZTzK70,3z8ujejod2q8a85trwhk37uqvoc39x,3l4d84mil35excnvjv21lf5vea6jhy,H4ZTzK70,2020-0188,2021-10-31,10:17:56,11:31:24,NA,incomplete,false,true,NA,NA,4,5,NA,brown,m_s_085.jpg,NA,NA,NA,NA,NA,unpleasant,pleasant,NA,NA,NA,NA,NA,right,863,true,NA,NA,NA,NA,NA,NA,NA,NA
H4ZTzK70,3z8ujejod2q8a85trwhk37uqvoc39x,3l4d84mil35excnvjv21lf5vea6jhy,H4ZTzK70,2020-0188,2021-10-31,10:17:56,11:31:24,NA,incomplete,false,true,NA,NA,4,6,NA,white,m_l_029.jpg,NA,NA,NA,NA,NA,pleasant,unpleasant,NA,NA,NA,NA,NA,left,857.69999999553,true,NA,NA,NA,NA,NA,NA,NA,NA
H4ZTzK70,3z8ujejod2q8a85trwhk37uqvoc39x,3l4d84mil35excnvjv21lf5vea6jhy,H4ZTzK70,2020-0188,2021-10-31,10:17:56,11:31:24,NA,incomplete,false,true,NA,NA,4,7,NA,white,n_s_094.jpg,NA,NA,NA,NA,NA,unpleasant,pleasant,NA,NA,NA,NA,NA,left,1166.89999999851,true,NA,NA,NA,NA,NA,NA,NA,NA
H4ZTzK70,3z8ujejod2q8a85trwhk37uqvoc39x,3l4d84mil35excnvjv21lf5vea6jhy,H4ZTzK70,2020-0188,2021-10-31,10:17:56,11:31:24,NA,incomplete,false,true,NA,NA,4,8,NA,white,n_l_098.jpg,NA,NA,NA,NA,NA,pleasant,unpleasant,NA,NA,NA,NA,NA,left,1362.69999999553,true,NA,NA,NA,NA,NA,NA,NA,NA
H4ZTzK70,3z8ujejod2q8a85trwhk37uqvoc39x,3l4d84mil35excnvjv21lf5vea6jhy,H4ZTzK70,2020-0188,2021-10-31,10:17:56,11:31:24,NA,incomplete,false,true,NA,NA,4,9,NA,white,n_l_108.jpg,NA,NA,NA,NA,NA,pleasant,unpleasant,NA,NA,NA,NA,NA,left,1207.39999999851,true,NA,NA,NA,NA,NA,NA,NA,NA
H4ZTzK70,3z8ujejod2q8a85trwhk37uqvoc39x,3l4d84mil35excnvjv21lf5vea6jhy,H4ZTzK70,2020-0188,2021-10-31,10:17:56,11:31:24,NA,incomplete,false,true,NA,NA,4,10,NA,white,m_l_095.jpg,NA,NA,NA,NA,NA,pleasant,unpleasant,NA,NA,NA,NA,NA,left,1000.30000000447,true,NA,NA,NA,NA,NA,NA,NA,NA
H4ZTzK70,3z8ujejod2q8a85trwhk37uqvoc39x,3l4d84mil35excnvjv21lf5vea6jhy,H4ZTzK70,2020-0188,2021-10-31,10:17:56,11:31:24,NA,incomplete,false,true,NA,NA,4,11,NA,white,m_s_017.jpg,NA,NA,NA,NA,NA,unpleasant,pleasant,NA,NA,NA,NA,NA,right,1168.70000000298,true,NA,NA,NA,NA,NA,NA,NA,NA
H4ZTzK70,3z8ujejod2q8a85trwhk37uqvoc39x,3l4d84mil35excnvjv21lf5vea6jhy,H4ZTzK70,2020-0188,2021-10-31,10:17:56,11:31:24,NA,incomplete,false,true,NA,NA,4,12,NA,green,n_s_023.jpg,NA,NA,NA,NA,NA,pleasant,unpleasant,NA,NA,NA,NA,NA,right,1084.69999999553,true,NA,NA,NA,NA,NA,NA,NA,NA
H4ZTzK70,3z8ujejod2q8a85trwhk37uqvoc39x,3l4d84mil35excnvjv21lf5vea6jhy,H4ZTzK70,2020-0188,2021-10-31,10:17:56,11:31:24,NA,incomplete,false,true,NA,NA,4,13,NA,green,n_l_059.jpg,NA,NA,NA,NA,NA,pleasant,unpleasant,NA,NA,NA,NA,NA,left,988.10000000149,true,NA,NA,NA,NA,NA,NA,NA,NA
H4ZTzK70,3z8ujejod2q8a85trwhk37uqvoc39x,3l4d84mil35excnvjv21lf5vea6jhy,H4ZTzK70,2020-0188,2021-10-31,10:17:56,11:31:24,NA,incomplete,false,true,NA,NA,4,14,NA,green,m_s_025.jpg,NA,NA,NA,NA,NA,pleasant,unpleasant,NA,NA,NA,NA,NA,right,890.70000000298,true,NA,NA,NA,NA,NA,NA,NA,NA
H4ZTzK70,3z8ujejod2q8a85trwhk37uqvoc39x,3l4d84mil35excnvjv21lf5vea6jhy,H4ZTzK70,2020-0188,2021-10-31,10:17:56,11:31:24,NA,incomplete,false,true,NA,NA,4,15,NA,green,n_l_036.jpg,NA,NA,NA,NA,NA,pleasant,unpleasant,NA,NA,NA,NA,NA,left,710,true,NA,NA,NA,NA,NA,NA,NA,NA
H4ZTzK70,3z8ujejod2q8a85trwhk37uqvoc39x,3l4d84mil35excnvjv21lf5vea6jhy,H4ZTzK70,2020-0188,2021-10-31,10:17:56,11:31:24,NA,incomplete,false,true,NA,NA,4,16,NA,green,n_l_039.jpg,NA,NA,NA,NA,NA,pleasant,unpleasant,NA,NA,NA,NA,NA,left,1160.29999999702,true,NA,NA,NA,NA,NA,NA,NA,NA
H4ZTzK70,3z8ujejod2q8a85trwhk37uqvoc39x,3l4d84mil35excnvjv21lf5vea6jhy,H4ZTzK70,2020-0188,2021-10-31,10:17:56,11:31:24,NA,incomplete,false,true,NA,NA,4,17,NA,green,m_l_062.jpg,NA,NA,NA,NA,NA,pleasant,unpleasant,NA,NA,NA,NA,NA,left,581.39999999851,true,NA,NA,NA,NA,NA,NA,NA,NA
H4ZTzK70,3z8ujejod2q8a85trwhk37uqvoc39x,3l4d84mil35excnvjv21lf5vea6jhy,H4ZTzK70,2020-0188,2021-10-31,10:17:56,11:31:24,NA,incomplete,false,true,NA,NA,4,18,NA,gray,m_l_002.jpg,NA,NA,NA,NA,NA,unpleasant,pleasant,NA,NA,NA,NA,NA,left,1164.29999999702,true,NA,NA,NA,NA,NA,NA,NA,NA
H4ZTzK70,3z8ujejod2q8a85trwhk37uqvoc39x,3l4d84mil35excnvjv21lf5vea6jhy,H4ZTzK70,2020-0188,2021-10-31,10:17:56,11:31:24,NA,incomplete,false,true,NA,NA,4,19,NA,gray,n_s_061.jpg,NA,NA,NA,NA,NA,pleasant,unpleasant,NA,NA,NA,NA,NA,right,1077.89999999851,true,NA,NA,NA,NA,NA,NA,NA,NA
H4ZTzK70,3z8ujejod2q8a85trwhk37uqvoc39x,3l4d84mil35excnvjv21lf5vea6jhy,H4ZTzK70,2020-0188,2021-10-31,10:17:56,11:31:24,NA,incomplete,false,true,NA,NA,4,20,NA,gray,m_s_102.jpg,NA,NA,NA,NA,NA,unpleasant,pleasant,NA,NA,NA,NA,NA,right,1165.79999999702,true,NA,NA,NA,NA,NA,NA,NA,NA
H4ZTzK70,3z8ujejod2q8a85trwhk37uqvoc39x,3l4d84mil35excnvjv21lf5vea6jhy,H4ZTzK70,2020-0188,2021-10-31,10:17:56,11:31:24,NA,incomplete,false,true,NA,NA,4,21,NA,gray,n_s_005.jpg,NA,NA,NA,NA,NA,pleasant,unpleasant,NA,NA,NA,NA,NA,left,3376.29999999702,true,NA,NA,NA,NA,NA,NA,NA,NA
H4ZTzK70,3z8ujejod2q8a85trwhk37uqvoc39x,3l4d84mil35excnvjv21lf5vea6jhy,H4ZTzK70,2020-0188,2021-10-31,10:17:56,11:31:24,NA,incomplete,false,true,NA,NA,4,22,NA,gray,n_s_057.jpg,NA,NA,NA,NA,NA,unpleasant,pleasant,NA,NA,NA,NA,NA,right,811.69999999553,true,NA,NA,NA,NA,NA,NA,NA,NA
H4ZTzK70,3z8ujejod2q8a85trwhk37uqvoc39x,3l4d84mil35excnvjv21lf5vea6jhy,H4ZTzK70,2020-0188,2021-10-31,10:17:56,11:31:24,NA,incomplete,false,true,NA,NA,4,23,NA,gray,n_l_001.jpg,NA,NA,NA,NA,NA,unpleasant,pleasant,NA,NA,NA,NA,NA,right,977.5,true,NA,NA,NA,NA,NA,NA,NA,NA
H4ZTzK70,3z8ujejod2q8a85trwhk37uqvoc39x,3l4d84mil35excnvjv21lf5vea6jhy,H4ZTzK70,2020-0188,2021-10-31,10:17:56,11:31:24,NA,incomplete,false,true,NA,NA,4,24,NA,blue,n_s_033.jpg,NA,NA,NA,NA,NA,pleasant,unpleasant,NA,NA,NA,NA,NA,left,644.70000000298,true,NA,NA,NA,NA,NA,NA,NA,NA
H4ZTzK70,3z8ujejod2q8a85trwhk37uqvoc39x,3l4d84mil35excnvjv21lf5vea6jhy,H4ZTzK70,2020-0188,2021-10-31,10:17:56,11:31:24,NA,incomplete,false,true,NA,NA,4,25,NA,blue,n_l_040.jpg,NA,NA,NA,NA,NA,pleasant,unpleasant,NA,NA,NA,NA,NA,right,131.79999999702,true,NA,NA,NA,NA,NA,NA,NA,NA
H4ZTzK70,3z8ujejod2q8a85trwhk37uqvoc39x,3l4d84mil35excnvjv21lf5vea6jhy,H4ZTzK70,2020-0188,2021-10-31,10:17:56,11:31:24,NA,incomplete,false,true,NA,NA,4,26,NA,blue,m_s_089.jpg,NA,NA,NA,NA,NA,pleasant,unpleasant,NA,NA,NA,NA,NA,left,753.10000000149,true,NA,NA,NA,NA,NA,NA,NA,NA
H4ZTzK70,3z8ujejod2q8a85trwhk37uqvoc39x,3l4d84mil35excnvjv21lf5vea6jhy,H4ZTzK70,2020-0188,2021-10-31,10:17:56,11:31:24,NA,incomplete,false,true,NA,NA,4,27,NA,blue,n_s_038.jpg,NA,NA,NA,NA,NA,unpleasant,pleasant,NA,NA,NA,NA,NA,right,1417.60000000149,true,NA,NA,NA,NA,NA,NA,NA,NA
H4ZTzK70,3z8ujejod2q8a85trwhk37uqvoc39x,3l4d84mil35excnvjv21lf5vea6jhy,H4ZTzK70,2020-0188,2021-10-31,10:17:56,11:31:24,NA,incomplete,false,true,NA,NA,4,28,NA,blue,m_s_023.jpg,NA,NA,NA,NA,NA,pleasant,unpleasant,NA,NA,NA,NA,NA,left,1807.5,true,NA,NA,NA,NA,NA,NA,NA,NA
H4ZTzK70,3z8ujejod2q8a85trwhk37uqvoc39x,3l4d84mil35excnvjv21lf5vea6jhy,H4ZTzK70,2020-0188,2021-10-31,10:17:56,11:31:24,NA,incomplete,false,true,NA,NA,4,29,NA,blue,m_l_036.jpg,NA,NA,NA,NA,NA,unpleasant,pleasant,NA,NA,NA,NA,NA,right,1461.29999999702,true,NA,NA,NA,NA,NA,NA,NA,NA
H4ZTzK70,3z8ujejod2q8a85trwhk37uqvoc39x,3l4d84mil35excnvjv21lf5vea6jhy,H4ZTzK70,2020-0188,2021-10-31,10:17:56,11:31:24,NA,incomplete,false,true,NA,NA,4,30,NA,purple,m_s_031.jpg,NA,NA,NA,NA,NA,pleasant,unpleasant,NA,NA,NA,NA,NA,left,871.90000000596,true,NA,NA,NA,NA,NA,NA,NA,NA
H4ZTzK70,3z8ujejod2q8a85trwhk37uqvoc39x,3l4d84mil35excnvjv21lf5vea6jhy,H4ZTzK70,2020-0188,2021-10-31,10:17:56,11:31:24,NA,incomplete,false,true,NA,NA,4,31,NA,purple,m_l_101.jpg,NA,NA,NA,NA,NA,unpleasant,pleasant,NA,NA,NA,NA,NA,right,949.60000000149,true,NA,NA,NA,NA,NA,NA,NA,NA
H4ZTzK70,3z8ujejod2q8a85trwhk37uqvoc39x,3l4d84mil35excnvjv21lf5vea6jhy,H4ZTzK70,2020-0188,2021-10-31,10:17:56,11:31:24,NA,incomplete,false,true,NA,NA,4,32,NA,purple,m_s_113.jpg,NA,NA,NA,NA,NA,pleasant,unpleasant,NA,NA,NA,NA,NA,left,1831.10000000149,true,NA,NA,NA,NA,NA,NA,NA,NA
H4ZTzK70,3z8ujejod2q8a85trwhk37uqvoc39x,3l4d84mil35excnvjv21lf5vea6jhy,H4ZTzK70,2020-0188,2021-10-31,10:17:56,11:31:24,NA,incomplete,false,true,NA,NA,4,33,NA,purple,n_s_062.jpg,NA,NA,NA,NA,NA,unpleasant,pleasant,NA,NA,NA,NA,NA,left,1045,true,NA,NA,NA,NA,NA,NA,NA,NA
H4ZTzK70,3z8ujejod2q8a85trwhk37uqvoc39x,3l4d84mil35excnvjv21lf5vea6jhy,H4ZTzK70,2020-0188,2021-10-31,10:17:56,11:31:24,NA,incomplete,false,true,NA,NA,4,34,NA,purple,n_s_034.jpg,NA,NA,NA,NA,NA,unpleasant,pleasant,NA,NA,NA,NA,NA,left,786,true,NA,NA,NA,NA,NA,NA,NA,NA
H4ZTzK70,3z8ujejod2q8a85trwhk37uqvoc39x,3l4d84mil35excnvjv21lf5vea6jhy,H4ZTzK70,2020-0188,2021-10-31,10:17:56,11:31:24,NA,incomplete,false,true,NA,NA,4,35,NA,purple,m_s_055.jpg,NA,NA,NA,NA,NA,unpleasant,pleasant,NA,NA,NA,NA,NA,left,1256.29999999702,true,NA,NA,NA,NA,NA,NA,NA,NA
H4ZTzK70,3z8ujejod2q8a85trwhk37uqvoc39x,3l4d84mil35excnvjv21lf5vea6jhy,H4ZTzK70,2020-0188,2021-10-31,10:17:56,11:31:24,NA,incomplete,false,NA,NA,true,4,0,NA,NA,NA,left,m_l_116.jpg,brown,white,NA,NA,NA,NA,NA,NA,NA,NA,NA,NaN,NA,1856.3999999985099,right,0,NA,NA,NA,NA,NA
H4ZTzK70,3z8ujejod2q8a85trwhk37uqvoc39x,3l4d84mil35excnvjv21lf5vea6jhy,H4ZTzK70,2020-0188,2021-10-31,10:17:56,11:31:24,NA,incomplete,false,NA,NA,true,4,1,NA,NA,NA,left,m_s_055.jpg,purple,blue,NA,NA,NA,NA,NA,NA,NA,NA,NA,NaN,NA,1719.6000000014901,left,1,NA,NA,NA,NA,NA
H4ZTzK70,3z8ujejod2q8a85trwhk37uqvoc39x,3l4d84mil35excnvjv21lf5vea6jhy,H4ZTzK70,2020-0188,2021-10-31,10:17:56,11:31:24,NA,incomplete,false,NA,NA,true,4,2,NA,NA,NA,left,n_l_098.jpg,white,brown,NA,NA,NA,NA,NA,NA,NA,NA,NA,NaN,NA,1078.1999999955297,left,1,NA,NA,NA,NA,NA
H4ZTzK70,3z8ujejod2q8a85trwhk37uqvoc39x,3l4d84mil35excnvjv21lf5vea6jhy,H4ZTzK70,2020-0188,2021-10-31,10:17:56,11:31:24,NA,incomplete,false,NA,NA,true,4,3,NA,NA,NA,right,n_s_057.jpg,green,gray,NA,NA,NA,NA,NA,NA,NA,NA,NA,NaN,NA,1081.1999999955297,left,0,NA,NA,NA,NA,NA
H4ZTzK70,3z8ujejod2q8a85trwhk37uqvoc39x,3l4d84mil35excnvjv21lf5vea6jhy,H4ZTzK70,2020-0188,2021-10-31,10:17:56,11:31:24,NA,incomplete,false,NA,NA,true,4,4,NA,NA,NA,left,m_s_023.jpg,blue,purple,NA,NA,NA,NA,NA,NA,NA,NA,NA,NaN,NA,1482,left,1,NA,NA,NA,NA,NA
H4ZTzK70,3z8ujejod2q8a85trwhk37uqvoc39x,3l4d84mil35excnvjv21lf5vea6jhy,H4ZTzK70,2020-0188,2021-10-31,10:17:56,11:31:24,NA,incomplete,false,NA,NA,true,4,5,NA,NA,NA,right,m_s_089.jpg,purple,blue,NA,NA,NA,NA,NA,NA,NA,NA,NA,NaN,NA,1070.6000000014901,right,1,NA,NA,NA,NA,NA
H4ZTzK70,3z8ujejod2q8a85trwhk37uqvoc39x,3l4d84mil35excnvjv21lf5vea6jhy,H4ZTzK70,2020-0188,2021-10-31,10:17:56,11:31:24,NA,incomplete,false,NA,NA,true,4,6,NA,NA,NA,left,m_l_062.jpg,green,gray,NA,NA,NA,NA,NA,NA,NA,NA,NA,NaN,NA,1697.2000000029802,left,1,NA,NA,NA,NA,NA
H4ZTzK70,3z8ujejod2q8a85trwhk37uqvoc39x,3l4d84mil35excnvjv21lf5vea6jhy,H4ZTzK70,2020-0188,2021-10-31,10:17:56,11:31:24,NA,incomplete,false,NA,NA,true,4,7,NA,NA,NA,right,m_l_068.jpg,white,brown,NA,NA,NA,NA,NA,NA,NA,NA,NA,NaN,NA,1689.8000000044703,right,1,NA,NA,NA,NA,NA
H4ZTzK70,3z8ujejod2q8a85trwhk37uqvoc39x,3l4d84mil35excnvjv21lf5vea6jhy,H4ZTzK70,2020-0188,2021-10-31,10:17:56,11:31:24,NA,incomplete,false,NA,NA,true,4,8,NA,NA,NA,right,m_s_102.jpg,green,gray,NA,NA,NA,NA,NA,NA,NA,NA,NA,NaN,NA,2513.7000000029802,left,0,NA,NA,NA,NA,NA
H4ZTzK70,3z8ujejod2q8a85trwhk37uqvoc39x,3l4d84mil35excnvjv21lf5vea6jhy,H4ZTzK70,2020-0188,2021-10-31,10:17:56,11:31:24,NA,incomplete,false,NA,NA,true,4,9,NA,NA,NA,left,m_s_085.jpg,brown,white,NA,NA,NA,NA,NA,NA,NA,NA,NA,NaN,NA,810.7000000029802,left,1,NA,NA,NA,NA,NA
H4ZTzK70,3z8ujejod2q8a85trwhk37uqvoc39x,3l4d84mil35excnvjv21lf5vea6jhy,H4ZTzK70,2020-0188,2021-10-31,10:17:56,11:31:24,NA,incomplete,false,NA,NA,true,4,10,NA,NA,NA,left,m_s_025.jpg,green,gray,NA,NA,NA,NA,NA,NA,NA,NA,NA,NaN,NA,2559.10000000149,left,1,NA,NA,NA,NA,NA
H4ZTzK70,3z8ujejod2q8a85trwhk37uqvoc39x,3l4d84mil35excnvjv21lf5vea6jhy,H4ZTzK70,2020-0188,2021-10-31,10:17:56,11:31:24,NA,incomplete,false,NA,NA,true,4,11,NA,NA,NA,right,m_l_101.jpg,blue,purple,NA,NA,NA,NA,NA,NA,NA,NA,NA,NaN,NA,1449.1000000014901,right,1,NA,NA,NA,NA,NA
H4ZTzK70,3z8ujejod2q8a85trwhk37uqvoc39x,3l4d84mil35excnvjv21lf5vea6jhy,H4ZTzK70,2020-0188,2021-10-31,10:17:56,11:31:24,NA,incomplete,false,NA,NA,true,4,12,NA,NA,NA,right,n_l_040.jpg,purple,blue,NA,NA,NA,NA,NA,NA,NA,NA,NA,NaN,NA,1463.3999999985099,right,1,NA,NA,NA,NA,NA
H4ZTzK70,3z8ujejod2q8a85trwhk37uqvoc39x,3l4d84mil35excnvjv21lf5vea6jhy,H4ZTzK70,2020-0188,2021-10-31,10:17:56,11:31:24,NA,incomplete,false,NA,NA,true,4,13,NA,NA,NA,left,n_s_094.jpg,white,green,NA,NA,NA,NA,NA,NA,NA,NA,NA,NaN,NA,996.0999999940395,left,1,NA,NA,NA,NA,NA
H4ZTzK70,3z8ujejod2q8a85trwhk37uqvoc39x,3l4d84mil35excnvjv21lf5vea6jhy,H4ZTzK70,2020-0188,2021-10-31,10:17:56,11:31:24,NA,incomplete,false,NA,NA,true,4,14,NA,NA,NA,left,n_l_039.jpg,green,white,NA,NA,NA,NA,NA,NA,NA,NA,NA,NaN,NA,1191.8999999985099,left,1,NA,NA,NA,NA,NA
H4ZTzK70,3z8ujejod2q8a85trwhk37uqvoc39x,3l4d84mil35excnvjv21lf5vea6jhy,H4ZTzK70,2020-0188,2021-10-31,10:17:56,11:31:24,NA,incomplete,false,NA,NA,true,4,15,NA,NA,NA,left,m_l_095.jpg,white,green,NA,NA,NA,NA,NA,NA,NA,NA,NA,NaN,NA,1263.2999999970198,right,0,NA,NA,NA,NA,NA
H4ZTzK70,3z8ujejod2q8a85trwhk37uqvoc39x,3l4d84mil35excnvjv21lf5vea6jhy,H4ZTzK70,2020-0188,2021-10-31,10:17:56,11:31:24,NA,incomplete,false,NA,NA,true,4,16,NA,NA,NA,left,n_s_061.jpg,gray,blue,NA,NA,NA,NA,NA,NA,NA,NA,NA,NaN,NA,776.5,left,1,NA,NA,NA,NA,NA
H4ZTzK70,3z8ujejod2q8a85trwhk37uqvoc39x,3l4d84mil35excnvjv21lf5vea6jhy,H4ZTzK70,2020-0188,2021-10-31,10:17:56,11:31:24,NA,incomplete,false,NA,NA,true,4,17,NA,NA,NA,right,n_l_001.jpg,green,gray,NA,NA,NA,NA,NA,NA,NA,NA,NA,NaN,NA,1296,right,1,NA,NA,NA,NA,NA
H4ZTzK70,3z8ujejod2q8a85trwhk37uqvoc39x,3l4d84mil35excnvjv21lf5vea6jhy,H4ZTzK70,2020-0188,2021-10-31,10:17:56,11:31:24,NA,incomplete,false,NA,NA,true,4,18,NA,NA,NA,left,m_s_017.jpg,white,brown,NA,NA,NA,NA,NA,NA,NA,NA,NA,NaN,NA,1344.2999999970198,right,0,NA,NA,NA,NA,NA
H4ZTzK70,3z8ujejod2q8a85trwhk37uqvoc39x,3l4d84mil35excnvjv21lf5vea6jhy,H4ZTzK70,2020-0188,2021-10-31,10:17:56,11:31:24,NA,incomplete,false,NA,NA,true,4,19,NA,NA,NA,left,m_s_113.jpg,purple,blue,NA,NA,NA,NA,NA,NA,NA,NA,NA,NaN,NA,1152.7000000029802,left,1,NA,NA,NA,NA,NA
H4ZTzK70,3z8ujejod2q8a85trwhk37uqvoc39x,3l4d84mil35excnvjv21lf5vea6jhy,H4ZTzK70,2020-0188,2021-10-31,10:17:56,11:31:24,NA,incomplete,false,NA,NA,true,4,20,NA,NA,NA,right,m_l_036.jpg,gray,blue,NA,NA,NA,NA,NA,NA,NA,NA,NA,NaN,NA,1632,right,1,NA,NA,NA,NA,NA
H4ZTzK70,3z8ujejod2q8a85trwhk37uqvoc39x,3l4d84mil35excnvjv21lf5vea6jhy,H4ZTzK70,2020-0188,2021-10-31,10:17:56,11:31:24,NA,incomplete,false,NA,NA,true,4,21,NA,NA,NA,left,n_l_059.jpg,green,white,NA,NA,NA,NA,NA,NA,NA,NA,NA,NaN,NA,1387,left,1,NA,NA,NA,NA,NA
H4ZTzK70,3z8ujejod2q8a85trwhk37uqvoc39x,3l4d84mil35excnvjv21lf5vea6jhy,H4ZTzK70,2020-0188,2021-10-31,10:17:56,11:31:24,NA,incomplete,false,NA,true,NA,4,0,NA,NA,NA,right,NA,NA,NA,absent,NA,NA,n_l_098.jpg,white,m_l_116.jpg,brown,between,NA,NaN,NA,NA,NA,NA,left,1941,0,1,1501.5999999940395
H4ZTzK70,3z8ujejod2q8a85trwhk37uqvoc39x,3l4d84mil35excnvjv21lf5vea6jhy,H4ZTzK70,2020-0188,2021-10-31,10:17:56,11:31:24,NA,incomplete,false,NA,true,NA,4,1,NA,NA,NA,right,NA,NA,NA,absent,NA,NA,m_s_113.jpg,purple,m_s_023.jpg,blue,between,NA,NaN,NA,NA,NA,NA,left,1647.6000000014901,0,1,2615.5
H4ZTzK70,3z8ujejod2q8a85trwhk37uqvoc39x,3l4d84mil35excnvjv21lf5vea6jhy,H4ZTzK70,2020-0188,2021-10-31,10:17:56,11:31:24,NA,incomplete,false,NA,true,NA,4,2,NA,NA,NA,right,NA,NA,NA,absent,NA,NA,m_s_102.jpg,gray,n_l_039.jpg,green,between,NA,NaN,NA,NA,NA,NA,right,2691.3000000044703,1,1,1245.2000000029802
H4ZTzK70,3z8ujejod2q8a85trwhk37uqvoc39x,3l4d84mil35excnvjv21lf5vea6jhy,H4ZTzK70,2020-0188,2021-10-31,10:17:56,11:31:24,NA,incomplete,false,NA,true,NA,4,3,NA,NA,NA,right,NA,NA,NA,absent,NA,NA,m_l_036.jpg,blue,n_l_040.jpg,blue,within,NA,NaN,NA,NA,NA,NA,left,1164.7000000029802,0,1,1630.6000000014901
H4ZTzK70,3z8ujejod2q8a85trwhk37uqvoc39x,3l4d84mil35excnvjv21lf5vea6jhy,H4ZTzK70,2020-0188,2021-10-31,10:17:56,11:31:24,NA,incomplete,false,NA,true,NA,4,4,NA,NA,NA,right,NA,NA,NA,absent,NA,NA,m_s_089.jpg,blue,n_s_057.jpg,gray,between,NA,NaN,NA,NA,NA,NA,right,1730.6999999955297,1,1,1169.6999999955297
H4ZTzK70,3z8ujejod2q8a85trwhk37uqvoc39x,3l4d84mil35excnvjv21lf5vea6jhy,H4ZTzK70,2020-0188,2021-10-31,10:17:56,11:31:24,NA,incomplete,false,NA,true,NA,4,5,NA,NA,NA,right,NA,NA,NA,absent,NA,NA,m_s_025.jpg,green,m_l_095.jpg,white,between,NA,NaN,NA,NA,NA,NA,left,2062.2999999970198,0,1,1462.2999999970198
H4ZTzK70,3z8ujejod2q8a85trwhk37uqvoc39x,3l4d84mil35excnvjv21lf5vea6jhy,H4ZTzK70,2020-0188,2021-10-31,10:17:56,11:31:24,NA,incomplete,false,NA,true,NA,4,6,NA,NA,NA,left,NA,NA,NA,absent,NA,NA,n_l_059.jpg,green,m_l_062.jpg,green,within,NA,NaN,NA,NA,NA,NA,right,1897.7000000029802,0,1,1124.5
H4ZTzK70,3z8ujejod2q8a85trwhk37uqvoc39x,3l4d84mil35excnvjv21lf5vea6jhy,H4ZTzK70,2020-0188,2021-10-31,10:17:56,11:31:24,NA,incomplete,false,NA,true,NA,4,7,NA,NA,NA,right,NA,NA,NA,absent,NA,NA,m_s_055.jpg,purple,m_l_101.jpg,purple,within,NA,NaN,NA,NA,NA,NA,right,1631.7000000029802,1,1,1341.7999999970198
H4ZTzK70,3z8ujejod2q8a85trwhk37uqvoc39x,3l4d84mil35excnvjv21lf5vea6jhy,H4ZTzK70,2020-0188,2021-10-31,10:17:56,11:31:24,NA,incomplete,false,NA,true,NA,4,8,NA,NA,NA,left,NA,NA,NA,absent,NA,NA,m_l_068.jpg,brown,m_s_085.jpg,brown,within,NA,NaN,NA,NA,NA,NA,right,1466,0,2,1635.5
H4ZTzK70,3z8ujejod2q8a85trwhk37uqvoc39x,3l4d84mil35excnvjv21lf5vea6jhy,H4ZTzK70,2020-0188,2021-10-31,10:17:56,11:31:24,NA,incomplete,false,NA,true,NA,4,9,NA,NA,NA,left,NA,NA,NA,absent,NA,NA,n_s_061.jpg,gray,n_l_001.jpg,gray,within,NA,NaN,NA,NA,NA,NA,left,1838.2999999970198,1,1,1099.1999999955297
H4ZTzK70,3z8ujejod2q8a85trwhk37uqvoc39x,3l4d84mil35excnvjv21lf5vea6jhy,H4ZTzK70,2020-0188,2021-10-31,10:17:56,11:31:24,NA,incomplete,false,NA,true,NA,4,10,NA,NA,NA,left,NA,NA,NA,absent,NA,NA,n_s_094.jpg,white,m_s_017.jpg,white,within,NA,NaN,NA,NA,NA,NA,left,1373.1000000014901,1,1,1263.1000000014901
H4ZTzK70,3z8ujejod2q8a85trwhk37uqvoc39x,3l4d84mil35excnvjv21lf5vea6jhy,H4ZTzK70,2020-0188,2021-10-31,10:17:56,11:31:24,NA,incomplete,false,true,NA,NA,5,0,NA,gray,n_s_054.jpg,NA,NA,NA,NA,NA,unpleasant,pleasant,NA,NA,NA,NA,NA,right,1195,true,NA,NA,NA,NA,NA,NA,NA,NA
H4ZTzK70,3z8ujejod2q8a85trwhk37uqvoc39x,3l4d84mil35excnvjv21lf5vea6jhy,H4ZTzK70,2020-0188,2021-10-31,10:17:56,11:31:24,NA,incomplete,false,true,NA,NA,5,1,NA,gray,n_s_091.jpg,NA,NA,NA,NA,NA,pleasant,unpleasant,NA,NA,NA,NA,NA,left,966.30000000447,true,NA,NA,NA,NA,NA,NA,NA,NA
H4ZTzK70,3z8ujejod2q8a85trwhk37uqvoc39x,3l4d84mil35excnvjv21lf5vea6jhy,H4ZTzK70,2020-0188,2021-10-31,10:17:56,11:31:24,NA,incomplete,false,true,NA,NA,5,2,NA,gray,n_s_014.jpg,NA,NA,NA,NA,NA,pleasant,unpleasant,NA,NA,NA,NA,NA,left,1045.79999999702,true,NA,NA,NA,NA,NA,NA,NA,NA
H4ZTzK70,3z8ujejod2q8a85trwhk37uqvoc39x,3l4d84mil35excnvjv21lf5vea6jhy,H4ZTzK70,2020-0188,2021-10-31,10:17:56,11:31:24,NA,incomplete,false,true,NA,NA,5,3,NA,gray,n_s_026.jpg,NA,NA,NA,NA,NA,pleasant,unpleasant,NA,NA,NA,NA,NA,left,921.30000000447,true,NA,NA,NA,NA,NA,NA,NA,NA
H4ZTzK70,3z8ujejod2q8a85trwhk37uqvoc39x,3l4d84mil35excnvjv21lf5vea6jhy,H4ZTzK70,2020-0188,2021-10-31,10:17:56,11:31:24,NA,incomplete,false,true,NA,NA,5,4,NA,gray,m_s_009.jpg,NA,NA,NA,NA,NA,pleasant,unpleasant,NA,NA,NA,NA,NA,left,3143,true,NA,NA,NA,NA,NA,NA,NA,NA
H4ZTzK70,3z8ujejod2q8a85trwhk37uqvoc39x,3l4d84mil35excnvjv21lf5vea6jhy,H4ZTzK70,2020-0188,2021-10-31,10:17:56,11:31:24,NA,incomplete,false,true,NA,NA,5,5,NA,gray,n_l_035.jpg,NA,NA,NA,NA,NA,pleasant,unpleasant,NA,NA,NA,NA,NA,left,2090.09999999404,true,NA,NA,NA,NA,NA,NA,NA,NA
H4ZTzK70,3z8ujejod2q8a85trwhk37uqvoc39x,3l4d84mil35excnvjv21lf5vea6jhy,H4ZTzK70,2020-0188,2021-10-31,10:17:56,11:31:24,NA,incomplete,false,true,NA,NA,5,6,NA,blue,m_s_058.jpg,NA,NA,NA,NA,NA,pleasant,unpleasant,NA,NA,NA,NA,NA,left,1349.90000000596,true,NA,NA,NA,NA,NA,NA,NA,NA
H4ZTzK70,3z8ujejod2q8a85trwhk37uqvoc39x,3l4d84mil35excnvjv21lf5vea6jhy,H4ZTzK70,2020-0188,2021-10-31,10:17:56,11:31:24,NA,incomplete,false,true,NA,NA,5,7,NA,blue,n_l_112.jpg,NA,NA,NA,NA,NA,unpleasant,pleasant,NA,NA,NA,NA,NA,left,576.30000000447,true,NA,NA,NA,NA,NA,NA,NA,NA
H4ZTzK70,3z8ujejod2q8a85trwhk37uqvoc39x,3l4d84mil35excnvjv21lf5vea6jhy,H4ZTzK70,2020-0188,2021-10-31,10:17:56,11:31:24,NA,incomplete,false,true,NA,NA,5,8,NA,blue,m_l_115.jpg,NA,NA,NA,NA,NA,pleasant,unpleasant,NA,NA,NA,NA,NA,left,1093.79999999702,true,NA,NA,NA,NA,NA,NA,NA,NA
H4ZTzK70,3z8ujejod2q8a85trwhk37uqvoc39x,3l4d84mil35excnvjv21lf5vea6jhy,H4ZTzK70,2020-0188,2021-10-31,10:17:56,11:31:24,NA,incomplete,false,true,NA,NA,5,9,NA,blue,n_s_086.jpg,NA,NA,NA,NA,NA,pleasant,unpleasant,NA,NA,NA,NA,NA,right,889.29999999702,true,NA,NA,NA,NA,NA,NA,NA,NA
H4ZTzK70,3z8ujejod2q8a85trwhk37uqvoc39x,3l4d84mil35excnvjv21lf5vea6jhy,H4ZTzK70,2020-0188,2021-10-31,10:17:56,11:31:24,NA,incomplete,false,true,NA,NA,5,10,NA,blue,n_l_022.jpg,NA,NA,NA,NA,NA,pleasant,unpleasant,NA,NA,NA,NA,NA,left,768.10000000149,true,NA,NA,NA,NA,NA,NA,NA,NA
H4ZTzK70,3z8ujejod2q8a85trwhk37uqvoc39x,3l4d84mil35excnvjv21lf5vea6jhy,H4ZTzK70,2020-0188,2021-10-31,10:17:56,11:31:24,NA,incomplete,false,true,NA,NA,5,11,NA,blue,m_l_055.jpg,NA,NA,NA,NA,NA,pleasant,unpleasant,NA,NA,NA,NA,NA,left,768.60000000149,true,NA,NA,NA,NA,NA,NA,NA,NA
H4ZTzK70,3z8ujejod2q8a85trwhk37uqvoc39x,3l4d84mil35excnvjv21lf5vea6jhy,H4ZTzK70,2020-0188,2021-10-31,10:17:56,11:31:24,NA,incomplete,false,true,NA,NA,5,12,NA,orange,n_l_063.jpg,NA,NA,NA,NA,NA,unpleasant,pleasant,NA,NA,NA,NA,NA,left,1137.80000000447,true,NA,NA,NA,NA,NA,NA,NA,NA
H4ZTzK70,3z8ujejod2q8a85trwhk37uqvoc39x,3l4d84mil35excnvjv21lf5vea6jhy,H4ZTzK70,2020-0188,2021-10-31,10:17:56,11:31:24,NA,incomplete,false,true,NA,NA,5,13,NA,orange,n_s_018.jpg,NA,NA,NA,NA,NA,unpleasant,pleasant,NA,NA,NA,NA,NA,left,1133.29999999702,true,NA,NA,NA,NA,NA,NA,NA,NA
H4ZTzK70,3z8ujejod2q8a85trwhk37uqvoc39x,3l4d84mil35excnvjv21lf5vea6jhy,H4ZTzK70,2020-0188,2021-10-31,10:17:56,11:31:24,NA,incomplete,false,true,NA,NA,5,14,NA,orange,n_l_034.jpg,NA,NA,NA,NA,NA,unpleasant,pleasant,NA,NA,NA,NA,NA,right,1374.29999999702,true,NA,NA,NA,NA,NA,NA,NA,NA
H4ZTzK70,3z8ujejod2q8a85trwhk37uqvoc39x,3l4d84mil35excnvjv21lf5vea6jhy,H4ZTzK70,2020-0188,2021-10-31,10:17:56,11:31:24,NA,incomplete,false,true,NA,NA,5,15,NA,orange,m_s_099.jpg,NA,NA,NA,NA,NA,pleasant,unpleasant,NA,NA,NA,NA,NA,left,932.60000000149,true,NA,NA,NA,NA,NA,NA,NA,NA
H4ZTzK70,3z8ujejod2q8a85trwhk37uqvoc39x,3l4d84mil35excnvjv21lf5vea6jhy,H4ZTzK70,2020-0188,2021-10-31,10:17:56,11:31:24,NA,incomplete,false,true,NA,NA,5,16,NA,orange,n_s_012.jpg,NA,NA,NA,NA,NA,unpleasant,pleasant,NA,NA,NA,NA,NA,right,894.29999999702,true,NA,NA,NA,NA,NA,NA,NA,NA
