workerId,hitId,assignmentId,subject,studyid,exp_date,exp_start,exp_end,time_start,time_end,practice,encoding,memory,association,block,trial,event_order,event,stim,answer,object,left_context,right_context,context_type,label_left,label_right,left_image,left_event,right_image,right_event,condition,response,response_time,response_acc,association_response_time,association_response,association_acc,order_response,order_response_time,order_acc,distance_response,distance_response_time
eGky9cky,375vsr8fwzmfz1886kcfytzzg59zr5,3n1fsuefl9d7iez8usw7os1e4lm4di,eGky9cky,2020-0188,2021-10-30,22:55:45,00:00:07,NA,incomplete,true,true,NA,NA,0,0,NA,green,m_s_091.jpg,NA,NA,NA,NA,NA,unpleasant,pleasant,NA,NA,NA,NA,NA,left,2366,true,NA,NA,NA,NA,NA,NA,NA,NA
eGky9cky,375vsr8fwzmfz1886kcfytzzg59zr5,3n1fsuefl9d7iez8usw7os1e4lm4di,eGky9cky,2020-0188,2021-10-30,22:55:45,00:00:07,NA,incomplete,true,true,NA,NA,0,1,NA,green,n_s_020.jpg,NA,NA,NA,NA,NA,unpleasant,pleasant,NA,NA,NA,NA,NA,left,2215,true,NA,NA,NA,NA,NA,NA,NA,NA
eGky9cky,375vsr8fwzmfz1886kcfytzzg59zr5,3n1fsuefl9d7iez8usw7os1e4lm4di,eGky9cky,2020-0188,2021-10-30,22:55:45,00:00:07,NA,incomplete,true,true,NA,NA,0,2,NA,green,n_l_003.jpg,NA,NA,NA,NA,NA,unpleasant,pleasant,NA,NA,NA,NA,NA,right,2129,true,NA,NA,NA,NA,NA,NA,NA,NA
eGky9cky,375vsr8fwzmfz1886kcfytzzg59zr5,3n1fsuefl9d7iez8usw7os1e4lm4di,eGky9cky,2020-0188,2021-10-30,22:55:45,00:00:07,NA,incomplete,true,true,NA,NA,0,3,NA,green,m_l_060.jpg,NA,NA,NA,NA,NA,unpleasant,pleasant,NA,NA,NA,NA,NA,left,1204,true,NA,NA,NA,NA,NA,NA,NA,NA
eGky9cky,375vsr8fwzmfz1886kcfytzzg59zr5,3n1fsuefl9d7iez8usw7os1e4lm4di,eGky9cky,2020-0188,2021-10-30,22:55:45,00:00:07,NA,incomplete,true,true,NA,NA,0,4,NA,green,n_s_045.jpg,NA,NA,NA,NA,NA,pleasant,unpleasant,NA,NA,NA,NA,NA,left,2017,true,NA,NA,NA,NA,NA,NA,NA,NA
eGky9cky,375vsr8fwzmfz1886kcfytzzg59zr5,3n1fsuefl9d7iez8usw7os1e4lm4di,eGky9cky,2020-0188,2021-10-30,22:55:45,00:00:07,NA,incomplete,true,true,NA,NA,0,5,NA,green,m_l_040.jpg,NA,NA,NA,NA,NA,unpleasant,pleasant,NA,NA,NA,NA,NA,left,1885,true,NA,NA,NA,NA,NA,NA,NA,NA
eGky9cky,375vsr8fwzmfz1886kcfytzzg59zr5,3n1fsuefl9d7iez8usw7os1e4lm4di,eGky9cky,2020-0188,2021-10-30,22:55:45,00:00:07,NA,incomplete,true,true,NA,NA,0,6,NA,yellow,m_s_058.jpg,NA,NA,NA,NA,NA,pleasant,unpleasant,NA,NA,NA,NA,NA,right,1561,true,NA,NA,NA,NA,NA,NA,NA,NA
eGky9cky,375vsr8fwzmfz1886kcfytzzg59zr5,3n1fsuefl9d7iez8usw7os1e4lm4di,eGky9cky,2020-0188,2021-10-30,22:55:45,00:00:07,NA,incomplete,true,true,NA,NA,0,7,NA,yellow,m_s_041.jpg,NA,NA,NA,NA,NA,pleasant,unpleasant,NA,NA,NA,NA,NA,right,1550,true,NA,NA,NA,NA,NA,NA,NA,NA
eGky9cky,375vsr8fwzmfz1886kcfytzzg59zr5,3n1fsuefl9d7iez8usw7os1e4lm4di,eGky9cky,2020-0188,2021-10-30,22:55:45,00:00:07,NA,incomplete,true,true,NA,NA,0,8,NA,yellow,m_s_098.jpg,NA,NA,NA,NA,NA,unpleasant,pleasant,NA,NA,NA,NA,NA,right,2697,true,NA,NA,NA,NA,NA,NA,NA,NA
eGky9cky,375vsr8fwzmfz1886kcfytzzg59zr5,3n1fsuefl9d7iez8usw7os1e4lm4di,eGky9cky,2020-0188,2021-10-30,22:55:45,00:00:07,NA,incomplete,true,true,NA,NA,0,9,NA,yellow,m_l_042.jpg,NA,NA,NA,NA,NA,pleasant,unpleasant,NA,NA,NA,NA,NA,right,2054,true,NA,NA,NA,NA,NA,NA,NA,NA
eGky9cky,375vsr8fwzmfz1886kcfytzzg59zr5,3n1fsuefl9d7iez8usw7os1e4lm4di,eGky9cky,2020-0188,2021-10-30,22:55:45,00:00:07,NA,incomplete,true,true,NA,NA,0,10,NA,yellow,n_l_026.jpg,NA,NA,NA,NA,NA,unpleasant,pleasant,NA,NA,NA,NA,NA,left,1223,true,NA,NA,NA,NA,NA,NA,NA,NA
eGky9cky,375vsr8fwzmfz1886kcfytzzg59zr5,3n1fsuefl9d7iez8usw7os1e4lm4di,eGky9cky,2020-0188,2021-10-30,22:55:45,00:00:07,NA,incomplete,true,true,NA,NA,0,11,NA,yellow,m_s_072.jpg,NA,NA,NA,NA,NA,pleasant,unpleasant,NA,NA,NA,NA,NA,right,1268,true,NA,NA,NA,NA,NA,NA,NA,NA
eGky9cky,375vsr8fwzmfz1886kcfytzzg59zr5,3n1fsuefl9d7iez8usw7os1e4lm4di,eGky9cky,2020-0188,2021-10-30,22:55:45,00:00:07,NA,incomplete,true,true,NA,NA,0,12,NA,red,n_s_074.jpg,NA,NA,NA,NA,NA,pleasant,unpleasant,NA,NA,NA,NA,NA,right,1254,true,NA,NA,NA,NA,NA,NA,NA,NA
eGky9cky,375vsr8fwzmfz1886kcfytzzg59zr5,3n1fsuefl9d7iez8usw7os1e4lm4di,eGky9cky,2020-0188,2021-10-30,22:55:45,00:00:07,NA,incomplete,true,true,NA,NA,0,13,NA,red,m_l_026.jpg,NA,NA,NA,NA,NA,unpleasant,pleasant,NA,NA,NA,NA,NA,right,2547,true,NA,NA,NA,NA,NA,NA,NA,NA
eGky9cky,375vsr8fwzmfz1886kcfytzzg59zr5,3n1fsuefl9d7iez8usw7os1e4lm4di,eGky9cky,2020-0188,2021-10-30,22:55:45,00:00:07,NA,incomplete,true,true,NA,NA,0,14,NA,red,m_s_116.jpg,NA,NA,NA,NA,NA,pleasant,unpleasant,NA,NA,NA,NA,NA,right,1757,true,NA,NA,NA,NA,NA,NA,NA,NA
eGky9cky,375vsr8fwzmfz1886kcfytzzg59zr5,3n1fsuefl9d7iez8usw7os1e4lm4di,eGky9cky,2020-0188,2021-10-30,22:55:45,00:00:07,NA,incomplete,true,true,NA,NA,0,15,NA,red,m_s_083.jpg,NA,NA,NA,NA,NA,unpleasant,pleasant,NA,NA,NA,NA,NA,left,1346,true,NA,NA,NA,NA,NA,NA,NA,NA
eGky9cky,375vsr8fwzmfz1886kcfytzzg59zr5,3n1fsuefl9d7iez8usw7os1e4lm4di,eGky9cky,2020-0188,2021-10-30,22:55:45,00:00:07,NA,incomplete,true,true,NA,NA,0,16,NA,red,n_s_111.jpg,NA,NA,NA,NA,NA,pleasant,unpleasant,NA,NA,NA,NA,NA,right,1261,true,NA,NA,NA,NA,NA,NA,NA,NA
eGky9cky,375vsr8fwzmfz1886kcfytzzg59zr5,3n1fsuefl9d7iez8usw7os1e4lm4di,eGky9cky,2020-0188,2021-10-30,22:55:45,00:00:07,NA,incomplete,true,true,NA,NA,0,17,NA,red,n_l_116.jpg,NA,NA,NA,NA,NA,unpleasant,pleasant,NA,NA,NA,NA,NA,right,2648,true,NA,NA,NA,NA,NA,NA,NA,NA
eGky9cky,375vsr8fwzmfz1886kcfytzzg59zr5,3n1fsuefl9d7iez8usw7os1e4lm4di,eGky9cky,2020-0188,2021-10-30,22:55:45,00:00:07,NA,incomplete,true,true,NA,NA,0,18,NA,white,m_s_007.jpg,NA,NA,NA,NA,NA,pleasant,unpleasant,NA,NA,NA,NA,NA,left,1685,true,NA,NA,NA,NA,NA,NA,NA,NA
eGky9cky,375vsr8fwzmfz1886kcfytzzg59zr5,3n1fsuefl9d7iez8usw7os1e4lm4di,eGky9cky,2020-0188,2021-10-30,22:55:45,00:00:07,NA,incomplete,true,true,NA,NA,0,19,NA,white,m_s_061.jpg,NA,NA,NA,NA,NA,pleasant,unpleasant,NA,NA,NA,NA,NA,left,1656,true,NA,NA,NA,NA,NA,NA,NA,NA
eGky9cky,375vsr8fwzmfz1886kcfytzzg59zr5,3n1fsuefl9d7iez8usw7os1e4lm4di,eGky9cky,2020-0188,2021-10-30,22:55:45,00:00:07,NA,incomplete,true,true,NA,NA,0,20,NA,white,m_l_033.jpg,NA,NA,NA,NA,NA,pleasant,unpleasant,NA,NA,NA,NA,NA,left,2772,true,NA,NA,NA,NA,NA,NA,NA,NA
eGky9cky,375vsr8fwzmfz1886kcfytzzg59zr5,3n1fsuefl9d7iez8usw7os1e4lm4di,eGky9cky,2020-0188,2021-10-30,22:55:45,00:00:07,NA,incomplete,true,true,NA,NA,0,21,NA,white,m_l_108.jpg,NA,NA,NA,NA,NA,unpleasant,pleasant,NA,NA,NA,NA,NA,right,1785,true,NA,NA,NA,NA,NA,NA,NA,NA
eGky9cky,375vsr8fwzmfz1886kcfytzzg59zr5,3n1fsuefl9d7iez8usw7os1e4lm4di,eGky9cky,2020-0188,2021-10-30,22:55:45,00:00:07,NA,incomplete,true,true,NA,NA,0,22,NA,white,m_l_115.jpg,NA,NA,NA,NA,NA,pleasant,unpleasant,NA,NA,NA,NA,NA,left,1005,true,NA,NA,NA,NA,NA,NA,NA,NA
eGky9cky,375vsr8fwzmfz1886kcfytzzg59zr5,3n1fsuefl9d7iez8usw7os1e4lm4di,eGky9cky,2020-0188,2021-10-30,22:55:45,00:00:07,NA,incomplete,true,true,NA,NA,0,23,NA,white,n_l_075.jpg,NA,NA,NA,NA,NA,unpleasant,pleasant,NA,NA,NA,NA,NA,left,2256,true,NA,NA,NA,NA,NA,NA,NA,NA
eGky9cky,375vsr8fwzmfz1886kcfytzzg59zr5,3n1fsuefl9d7iez8usw7os1e4lm4di,eGky9cky,2020-0188,2021-10-30,22:55:45,00:00:07,NA,incomplete,true,true,NA,NA,0,24,NA,purple,m_s_094.jpg,NA,NA,NA,NA,NA,pleasant,unpleasant,NA,NA,NA,NA,NA,right,1603,true,NA,NA,NA,NA,NA,NA,NA,NA
eGky9cky,375vsr8fwzmfz1886kcfytzzg59zr5,3n1fsuefl9d7iez8usw7os1e4lm4di,eGky9cky,2020-0188,2021-10-30,22:55:45,00:00:07,NA,incomplete,true,true,NA,NA,0,25,NA,purple,m_s_078.jpg,NA,NA,NA,NA,NA,pleasant,unpleasant,NA,NA,NA,NA,NA,right,1423,true,NA,NA,NA,NA,NA,NA,NA,NA
eGky9cky,375vsr8fwzmfz1886kcfytzzg59zr5,3n1fsuefl9d7iez8usw7os1e4lm4di,eGky9cky,2020-0188,2021-10-30,22:55:45,00:00:07,NA,incomplete,true,true,NA,NA,0,26,NA,purple,n_l_070.jpg,NA,NA,NA,NA,NA,pleasant,unpleasant,NA,NA,NA,NA,NA,right,1242,true,NA,NA,NA,NA,NA,NA,NA,NA
eGky9cky,375vsr8fwzmfz1886kcfytzzg59zr5,3n1fsuefl9d7iez8usw7os1e4lm4di,eGky9cky,2020-0188,2021-10-30,22:55:45,00:00:07,NA,incomplete,true,true,NA,NA,0,27,NA,purple,m_s_080.jpg,NA,NA,NA,NA,NA,unpleasant,pleasant,NA,NA,NA,NA,NA,left,1477,true,NA,NA,NA,NA,NA,NA,NA,NA
eGky9cky,375vsr8fwzmfz1886kcfytzzg59zr5,3n1fsuefl9d7iez8usw7os1e4lm4di,eGky9cky,2020-0188,2021-10-30,22:55:45,00:00:07,NA,incomplete,true,true,NA,NA,0,28,NA,purple,m_s_003.jpg,NA,NA,NA,NA,NA,pleasant,unpleasant,NA,NA,NA,NA,NA,right,993,true,NA,NA,NA,NA,NA,NA,NA,NA
eGky9cky,375vsr8fwzmfz1886kcfytzzg59zr5,3n1fsuefl9d7iez8usw7os1e4lm4di,eGky9cky,2020-0188,2021-10-30,22:55:45,00:00:07,NA,incomplete,true,true,NA,NA,0,29,NA,purple,n_s_116.jpg,NA,NA,NA,NA,NA,pleasant,unpleasant,NA,NA,NA,NA,NA,right,1115,true,NA,NA,NA,NA,NA,NA,NA,NA
eGky9cky,375vsr8fwzmfz1886kcfytzzg59zr5,3n1fsuefl9d7iez8usw7os1e4lm4di,eGky9cky,2020-0188,2021-10-30,22:55:45,00:00:07,NA,incomplete,true,true,NA,NA,0,30,NA,blue,n_l_022.jpg,NA,NA,NA,NA,NA,unpleasant,pleasant,NA,NA,NA,NA,NA,left,2367,true,NA,NA,NA,NA,NA,NA,NA,NA
eGky9cky,375vsr8fwzmfz1886kcfytzzg59zr5,3n1fsuefl9d7iez8usw7os1e4lm4di,eGky9cky,2020-0188,2021-10-30,22:55:45,00:00:07,NA,incomplete,true,true,NA,NA,0,31,NA,blue,n_s_077.jpg,NA,NA,NA,NA,NA,pleasant,unpleasant,NA,NA,NA,NA,NA,right,1202,true,NA,NA,NA,NA,NA,NA,NA,NA
eGky9cky,375vsr8fwzmfz1886kcfytzzg59zr5,3n1fsuefl9d7iez8usw7os1e4lm4di,eGky9cky,2020-0188,2021-10-30,22:55:45,00:00:07,NA,incomplete,true,true,NA,NA,0,32,NA,blue,m_s_037.jpg,NA,NA,NA,NA,NA,unpleasant,pleasant,NA,NA,NA,NA,NA,right,1614,true,NA,NA,NA,NA,NA,NA,NA,NA
eGky9cky,375vsr8fwzmfz1886kcfytzzg59zr5,3n1fsuefl9d7iez8usw7os1e4lm4di,eGky9cky,2020-0188,2021-10-30,22:55:45,00:00:07,NA,incomplete,true,true,NA,NA,0,33,NA,blue,n_s_114.jpg,NA,NA,NA,NA,NA,unpleasant,pleasant,NA,NA,NA,NA,NA,left,1571,true,NA,NA,NA,NA,NA,NA,NA,NA
eGky9cky,375vsr8fwzmfz1886kcfytzzg59zr5,3n1fsuefl9d7iez8usw7os1e4lm4di,eGky9cky,2020-0188,2021-10-30,22:55:45,00:00:07,NA,incomplete,true,true,NA,NA,0,34,NA,blue,m_s_101.jpg,NA,NA,NA,NA,NA,pleasant,unpleasant,NA,NA,NA,NA,NA,left,2696,true,NA,NA,NA,NA,NA,NA,NA,NA
eGky9cky,375vsr8fwzmfz1886kcfytzzg59zr5,3n1fsuefl9d7iez8usw7os1e4lm4di,eGky9cky,2020-0188,2021-10-30,22:55:45,00:00:07,NA,incomplete,true,true,NA,NA,0,35,NA,blue,n_l_013.jpg,NA,NA,NA,NA,NA,unpleasant,pleasant,NA,NA,NA,NA,NA,left,1634,true,NA,NA,NA,NA,NA,NA,NA,NA
eGky9cky,375vsr8fwzmfz1886kcfytzzg59zr5,3n1fsuefl9d7iez8usw7os1e4lm4di,eGky9cky,2020-0188,2021-10-30,22:55:45,00:00:07,NA,incomplete,true,NA,NA,true,0,0,NA,NA,NA,left,m_l_115.jpg,white,red,NA,NA,NA,NA,NA,NA,NA,NA,NA,NaN,NA,2191,left,1,NA,NA,NA,NA,NA
eGky9cky,375vsr8fwzmfz1886kcfytzzg59zr5,3n1fsuefl9d7iez8usw7os1e4lm4di,eGky9cky,2020-0188,2021-10-30,22:55:45,00:00:07,NA,incomplete,true,NA,NA,true,0,1,NA,NA,NA,right,n_l_070.jpg,blue,purple,NA,NA,NA,NA,NA,NA,NA,NA,NA,NaN,NA,2557,left,0,NA,NA,NA,NA,NA
eGky9cky,375vsr8fwzmfz1886kcfytzzg59zr5,3n1fsuefl9d7iez8usw7os1e4lm4di,eGky9cky,2020-0188,2021-10-30,22:55:45,00:00:07,NA,incomplete,true,NA,NA,true,0,2,NA,NA,NA,left,n_l_026.jpg,yellow,red,NA,NA,NA,NA,NA,NA,NA,NA,NA,NaN,NA,3159,left,1,NA,NA,NA,NA,NA
eGky9cky,375vsr8fwzmfz1886kcfytzzg59zr5,3n1fsuefl9d7iez8usw7os1e4lm4di,eGky9cky,2020-0188,2021-10-30,22:55:45,00:00:07,NA,incomplete,true,NA,NA,true,0,3,NA,NA,NA,right,n_l_075.jpg,purple,white,NA,NA,NA,NA,NA,NA,NA,NA,NA,NaN,NA,3333,right,1,NA,NA,NA,NA,NA
eGky9cky,375vsr8fwzmfz1886kcfytzzg59zr5,3n1fsuefl9d7iez8usw7os1e4lm4di,eGky9cky,2020-0188,2021-10-30,22:55:45,00:00:07,NA,incomplete,true,NA,NA,true,0,4,NA,NA,NA,left,m_s_061.jpg,white,purple,NA,NA,NA,NA,NA,NA,NA,NA,NA,NaN,NA,2707,right,0,NA,NA,NA,NA,NA
eGky9cky,375vsr8fwzmfz1886kcfytzzg59zr5,3n1fsuefl9d7iez8usw7os1e4lm4di,eGky9cky,2020-0188,2021-10-30,22:55:45,00:00:07,NA,incomplete,true,NA,NA,true,0,5,NA,NA,NA,right,m_s_098.jpg,green,yellow,NA,NA,NA,NA,NA,NA,NA,NA,NA,NaN,NA,1785,right,1,NA,NA,NA,NA,NA
eGky9cky,375vsr8fwzmfz1886kcfytzzg59zr5,3n1fsuefl9d7iez8usw7os1e4lm4di,eGky9cky,2020-0188,2021-10-30,22:55:45,00:00:07,NA,incomplete,true,NA,NA,true,0,6,NA,NA,NA,left,n_s_045.jpg,green,yellow,NA,NA,NA,NA,NA,NA,NA,NA,NA,NaN,NA,1732,left,1,NA,NA,NA,NA,NA
eGky9cky,375vsr8fwzmfz1886kcfytzzg59zr5,3n1fsuefl9d7iez8usw7os1e4lm4di,eGky9cky,2020-0188,2021-10-30,22:55:45,00:00:07,NA,incomplete,true,NA,NA,true,0,7,NA,NA,NA,right,n_l_116.jpg,yellow,red,NA,NA,NA,NA,NA,NA,NA,NA,NA,NaN,NA,2054,right,1,NA,NA,NA,NA,NA
eGky9cky,375vsr8fwzmfz1886kcfytzzg59zr5,3n1fsuefl9d7iez8usw7os1e4lm4di,eGky9cky,2020-0188,2021-10-30,22:55:45,00:00:07,NA,incomplete,true,NA,NA,true,0,8,NA,NA,NA,right,m_s_003.jpg,blue,purple,NA,NA,NA,NA,NA,NA,NA,NA,NA,NaN,NA,3964,left,0,NA,NA,NA,NA,NA
eGky9cky,375vsr8fwzmfz1886kcfytzzg59zr5,3n1fsuefl9d7iez8usw7os1e4lm4di,eGky9cky,2020-0188,2021-10-30,22:55:45,00:00:07,NA,incomplete,true,NA,NA,true,0,9,NA,NA,NA,left,n_l_013.jpg,blue,purple,NA,NA,NA,NA,NA,NA,NA,NA,NA,NaN,NA,1922,left,1,NA,NA,NA,NA,NA
eGky9cky,375vsr8fwzmfz1886kcfytzzg59zr5,3n1fsuefl9d7iez8usw7os1e4lm4di,eGky9cky,2020-0188,2021-10-30,22:55:45,00:00:07,NA,incomplete,true,NA,NA,true,0,10,NA,NA,NA,right,m_l_040.jpg,yellow,green,NA,NA,NA,NA,NA,NA,NA,NA,NA,NaN,NA,2832,left,0,NA,NA,NA,NA,NA
eGky9cky,375vsr8fwzmfz1886kcfytzzg59zr5,3n1fsuefl9d7iez8usw7os1e4lm4di,eGky9cky,2020-0188,2021-10-30,22:55:45,00:00:07,NA,incomplete,true,NA,NA,true,0,11,NA,NA,NA,right,m_s_072.jpg,red,yellow,NA,NA,NA,NA,NA,NA,NA,NA,NA,NaN,NA,1876,right,1,NA,NA,NA,NA,NA
eGky9cky,375vsr8fwzmfz1886kcfytzzg59zr5,3n1fsuefl9d7iez8usw7os1e4lm4di,eGky9cky,2020-0188,2021-10-30,22:55:45,00:00:07,NA,incomplete,true,NA,NA,true,0,12,NA,NA,NA,right,n_s_020.jpg,yellow,green,NA,NA,NA,NA,NA,NA,NA,NA,NA,NaN,NA,2121,right,1,NA,NA,NA,NA,NA
eGky9cky,375vsr8fwzmfz1886kcfytzzg59zr5,3n1fsuefl9d7iez8usw7os1e4lm4di,eGky9cky,2020-0188,2021-10-30,22:55:45,00:00:07,NA,incomplete,true,NA,NA,true,0,13,NA,NA,NA,right,n_s_116.jpg,blue,purple,NA,NA,NA,NA,NA,NA,NA,NA,NA,NaN,NA,1643,right,1,NA,NA,NA,NA,NA
eGky9cky,375vsr8fwzmfz1886kcfytzzg59zr5,3n1fsuefl9d7iez8usw7os1e4lm4di,eGky9cky,2020-0188,2021-10-30,22:55:45,00:00:07,NA,incomplete,true,NA,NA,true,0,14,NA,NA,NA,left,m_s_037.jpg,blue,purple,NA,NA,NA,NA,NA,NA,NA,NA,NA,NaN,NA,2333,left,1,NA,NA,NA,NA,NA
eGky9cky,375vsr8fwzmfz1886kcfytzzg59zr5,3n1fsuefl9d7iez8usw7os1e4lm4di,eGky9cky,2020-0188,2021-10-30,22:55:45,00:00:07,NA,incomplete,true,NA,NA,true,0,15,NA,NA,NA,right,m_s_116.jpg,yellow,red,NA,NA,NA,NA,NA,NA,NA,NA,NA,NaN,NA,2993,left,0,NA,NA,NA,NA,NA
eGky9cky,375vsr8fwzmfz1886kcfytzzg59zr5,3n1fsuefl9d7iez8usw7os1e4lm4di,eGky9cky,2020-0188,2021-10-30,22:55:45,00:00:07,NA,incomplete,true,NA,NA,true,0,16,NA,NA,NA,left,m_s_078.jpg,purple,blue,NA,NA,NA,NA,NA,NA,NA,NA,NA,NaN,NA,3018,right,0,NA,NA,NA,NA,NA
eGky9cky,375vsr8fwzmfz1886kcfytzzg59zr5,3n1fsuefl9d7iez8usw7os1e4lm4di,eGky9cky,2020-0188,2021-10-30,22:55:45,00:00:07,NA,incomplete,true,NA,NA,true,0,17,NA,NA,NA,left,m_l_026.jpg,red,white,NA,NA,NA,NA,NA,NA,NA,NA,NA,NaN,NA,4307,left,1,NA,NA,NA,NA,NA
eGky9cky,375vsr8fwzmfz1886kcfytzzg59zr5,3n1fsuefl9d7iez8usw7os1e4lm4di,eGky9cky,2020-0188,2021-10-30,22:55:45,00:00:07,NA,incomplete,true,NA,NA,true,0,18,NA,NA,NA,right,m_s_041.jpg,green,yellow,NA,NA,NA,NA,NA,NA,NA,NA,NA,NaN,NA,2560,right,1,NA,NA,NA,NA,NA
eGky9cky,375vsr8fwzmfz1886kcfytzzg59zr5,3n1fsuefl9d7iez8usw7os1e4lm4di,eGky9cky,2020-0188,2021-10-30,22:55:45,00:00:07,NA,incomplete,true,NA,NA,true,0,19,NA,NA,NA,right,n_s_077.jpg,purple,blue,NA,NA,NA,NA,NA,NA,NA,NA,NA,NaN,NA,2272,right,1,NA,NA,NA,NA,NA
eGky9cky,375vsr8fwzmfz1886kcfytzzg59zr5,3n1fsuefl9d7iez8usw7os1e4lm4di,eGky9cky,2020-0188,2021-10-30,22:55:45,00:00:07,NA,incomplete,true,NA,NA,true,0,20,NA,NA,NA,right,m_l_033.jpg,red,white,NA,NA,NA,NA,NA,NA,NA,NA,NA,NaN,NA,2356,right,1,NA,NA,NA,NA,NA
eGky9cky,375vsr8fwzmfz1886kcfytzzg59zr5,3n1fsuefl9d7iez8usw7os1e4lm4di,eGky9cky,2020-0188,2021-10-30,22:55:45,00:00:07,NA,incomplete,true,NA,NA,true,0,21,NA,NA,NA,right,n_s_111.jpg,white,red,NA,NA,NA,NA,NA,NA,NA,NA,NA,NaN,NA,3630,right,1,NA,NA,NA,NA,NA
eGky9cky,375vsr8fwzmfz1886kcfytzzg59zr5,3n1fsuefl9d7iez8usw7os1e4lm4di,eGky9cky,2020-0188,2021-10-30,22:55:45,00:00:07,NA,incomplete,true,NA,true,NA,0,0,NA,NA,NA,right,NA,NA,NA,absent,NA,NA,m_s_037.jpg,blue,m_s_003.jpg,purple,between,NA,NaN,NA,NA,NA,NA,right,3862,1,1,2208
eGky9cky,375vsr8fwzmfz1886kcfytzzg59zr5,3n1fsuefl9d7iez8usw7os1e4lm4di,eGky9cky,2020-0188,2021-10-30,22:55:45,00:00:07,NA,incomplete,true,NA,true,NA,0,1,NA,NA,NA,right,NA,NA,NA,absent,NA,NA,n_l_013.jpg,blue,n_s_077.jpg,blue,within,NA,NaN,NA,NA,NA,NA,right,2504,1,2,1098
eGky9cky,375vsr8fwzmfz1886kcfytzzg59zr5,3n1fsuefl9d7iez8usw7os1e4lm4di,eGky9cky,2020-0188,2021-10-30,22:55:45,00:00:07,NA,incomplete,true,NA,true,NA,0,2,NA,NA,NA,right,NA,NA,NA,absent,NA,NA,n_s_116.jpg,purple,m_s_078.jpg,purple,within,NA,NaN,NA,NA,NA,NA,right,2790,1,3,1058
eGky9cky,375vsr8fwzmfz1886kcfytzzg59zr5,3n1fsuefl9d7iez8usw7os1e4lm4di,eGky9cky,2020-0188,2021-10-30,22:55:45,00:00:07,NA,incomplete,true,NA,true,NA,0,3,NA,NA,NA,right,NA,NA,NA,absent,NA,NA,m_l_040.jpg,green,n_s_020.jpg,green,within,NA,NaN,NA,NA,NA,NA,left,2811,0,3,820
eGky9cky,375vsr8fwzmfz1886kcfytzzg59zr5,3n1fsuefl9d7iez8usw7os1e4lm4di,eGky9cky,2020-0188,2021-10-30,22:55:45,00:00:07,NA,incomplete,true,NA,true,NA,0,4,NA,NA,NA,right,NA,NA,NA,absent,NA,NA,n_l_116.jpg,red,m_l_026.jpg,red,within,NA,NaN,NA,NA,NA,NA,left,3789,0,1,1242
eGky9cky,375vsr8fwzmfz1886kcfytzzg59zr5,3n1fsuefl9d7iez8usw7os1e4lm4di,eGky9cky,2020-0188,2021-10-30,22:55:45,00:00:07,NA,incomplete,true,NA,true,NA,0,5,NA,NA,NA,right,NA,NA,NA,absent,NA,NA,m_s_098.jpg,yellow,n_s_045.jpg,green,between,NA,NaN,NA,NA,NA,NA,left,5638,0,2,1607
eGky9cky,375vsr8fwzmfz1886kcfytzzg59zr5,3n1fsuefl9d7iez8usw7os1e4lm4di,eGky9cky,2020-0188,2021-10-30,22:55:45,00:00:07,NA,incomplete,true,NA,true,NA,0,6,NA,NA,NA,right,NA,NA,NA,absent,NA,NA,n_l_075.jpg,white,m_s_061.jpg,white,within,NA,NaN,NA,NA,NA,NA,right,4437,1,2,1134
eGky9cky,375vsr8fwzmfz1886kcfytzzg59zr5,3n1fsuefl9d7iez8usw7os1e4lm4di,eGky9cky,2020-0188,2021-10-30,22:55:45,00:00:07,NA,incomplete,true,NA,true,NA,0,7,NA,NA,NA,right,NA,NA,NA,absent,NA,NA,m_l_033.jpg,white,n_s_111.jpg,red,between,NA,NaN,NA,NA,NA,NA,right,3834,1,1,711
eGky9cky,375vsr8fwzmfz1886kcfytzzg59zr5,3n1fsuefl9d7iez8usw7os1e4lm4di,eGky9cky,2020-0188,2021-10-30,22:55:45,00:00:07,NA,incomplete,true,NA,true,NA,0,8,NA,NA,NA,right,NA,NA,NA,absent,NA,NA,m_s_116.jpg,red,n_l_026.jpg,yellow,between,NA,NaN,NA,NA,NA,NA,left,2062,0,3,715
eGky9cky,375vsr8fwzmfz1886kcfytzzg59zr5,3n1fsuefl9d7iez8usw7os1e4lm4di,eGky9cky,2020-0188,2021-10-30,22:55:45,00:00:07,NA,incomplete,true,NA,true,NA,0,9,NA,NA,NA,right,NA,NA,NA,absent,NA,NA,m_s_072.jpg,yellow,m_s_041.jpg,yellow,within,NA,NaN,NA,NA,NA,NA,right,1911,1,0,2058
eGky9cky,375vsr8fwzmfz1886kcfytzzg59zr5,3n1fsuefl9d7iez8usw7os1e4lm4di,eGky9cky,2020-0188,2021-10-30,22:55:45,00:00:07,NA,incomplete,true,NA,true,NA,0,10,NA,NA,NA,left,NA,NA,NA,absent,NA,NA,m_l_115.jpg,white,n_l_070.jpg,purple,between,NA,NaN,NA,NA,NA,NA,right,9744,0,2,1610
eGky9cky,375vsr8fwzmfz1886kcfytzzg59zr5,3n1fsuefl9d7iez8usw7os1e4lm4di,eGky9cky,2020-0188,2021-10-30,22:55:45,00:00:07,NA,incomplete,false,true,NA,NA,1,0,NA,brown,m_l_094.jpg,NA,NA,NA,NA,NA,pleasant,unpleasant,NA,NA,NA,NA,NA,right,2216,true,NA,NA,NA,NA,NA,NA,NA,NA
eGky9cky,375vsr8fwzmfz1886kcfytzzg59zr5,3n1fsuefl9d7iez8usw7os1e4lm4di,eGky9cky,2020-0188,2021-10-30,22:55:45,00:00:07,NA,incomplete,false,true,NA,NA,1,1,NA,brown,m_l_012.jpg,NA,NA,NA,NA,NA,pleasant,unpleasant,NA,NA,NA,NA,NA,right,1349,true,NA,NA,NA,NA,NA,NA,NA,NA
eGky9cky,375vsr8fwzmfz1886kcfytzzg59zr5,3n1fsuefl9d7iez8usw7os1e4lm4di,eGky9cky,2020-0188,2021-10-30,22:55:45,00:00:07,NA,incomplete,false,true,NA,NA,1,2,NA,brown,m_s_053.jpg,NA,NA,NA,NA,NA,pleasant,unpleasant,NA,NA,NA,NA,NA,right,1362,true,NA,NA,NA,NA,NA,NA,NA,NA
eGky9cky,375vsr8fwzmfz1886kcfytzzg59zr5,3n1fsuefl9d7iez8usw7os1e4lm4di,eGky9cky,2020-0188,2021-10-30,22:55:45,00:00:07,NA,incomplete,false,true,NA,NA,1,3,NA,brown,n_l_115.jpg,NA,NA,NA,NA,NA,unpleasant,pleasant,NA,NA,NA,NA,NA,right,2206,true,NA,NA,NA,NA,NA,NA,NA,NA
eGky9cky,375vsr8fwzmfz1886kcfytzzg59zr5,3n1fsuefl9d7iez8usw7os1e4lm4di,eGky9cky,2020-0188,2021-10-30,22:55:45,00:00:07,NA,incomplete,false,true,NA,NA,1,4,NA,brown,n_l_024.jpg,NA,NA,NA,NA,NA,pleasant,unpleasant,NA,NA,NA,NA,NA,left,1154,true,NA,NA,NA,NA,NA,NA,NA,NA
eGky9cky,375vsr8fwzmfz1886kcfytzzg59zr5,3n1fsuefl9d7iez8usw7os1e4lm4di,eGky9cky,2020-0188,2021-10-30,22:55:45,00:00:07,NA,incomplete,false,true,NA,NA,1,5,NA,brown,m_l_100.jpg,NA,NA,NA,NA,NA,pleasant,unpleasant,NA,NA,NA,NA,NA,right,1917,true,NA,NA,NA,NA,NA,NA,NA,NA
eGky9cky,375vsr8fwzmfz1886kcfytzzg59zr5,3n1fsuefl9d7iez8usw7os1e4lm4di,eGky9cky,2020-0188,2021-10-30,22:55:45,00:00:07,NA,incomplete,false,true,NA,NA,1,6,NA,green,n_l_020.jpg,NA,NA,NA,NA,NA,pleasant,unpleasant,NA,NA,NA,NA,NA,right,2162,true,NA,NA,NA,NA,NA,NA,NA,NA
eGky9cky,375vsr8fwzmfz1886kcfytzzg59zr5,3n1fsuefl9d7iez8usw7os1e4lm4di,eGky9cky,2020-0188,2021-10-30,22:55:45,00:00:07,NA,incomplete,false,true,NA,NA,1,7,NA,green,m_l_114.jpg,NA,NA,NA,NA,NA,pleasant,unpleasant,NA,NA,NA,NA,NA,right,1046,true,NA,NA,NA,NA,NA,NA,NA,NA
eGky9cky,375vsr8fwzmfz1886kcfytzzg59zr5,3n1fsuefl9d7iez8usw7os1e4lm4di,eGky9cky,2020-0188,2021-10-30,22:55:45,00:00:07,NA,incomplete,false,true,NA,NA,1,8,NA,green,m_l_037.jpg,NA,NA,NA,NA,NA,pleasant,unpleasant,NA,NA,NA,NA,NA,right,890,true,NA,NA,NA,NA,NA,NA,NA,NA
eGky9cky,375vsr8fwzmfz1886kcfytzzg59zr5,3n1fsuefl9d7iez8usw7os1e4lm4di,eGky9cky,2020-0188,2021-10-30,22:55:45,00:00:07,NA,incomplete,false,true,NA,NA,1,9,NA,green,n_s_067.jpg,NA,NA,NA,NA,NA,pleasant,unpleasant,NA,NA,NA,NA,NA,right,1429,true,NA,NA,NA,NA,NA,NA,NA,NA
eGky9cky,375vsr8fwzmfz1886kcfytzzg59zr5,3n1fsuefl9d7iez8usw7os1e4lm4di,eGky9cky,2020-0188,2021-10-30,22:55:45,00:00:07,NA,incomplete,false,true,NA,NA,1,10,NA,green,m_s_005.jpg,NA,NA,NA,NA,NA,unpleasant,pleasant,NA,NA,NA,NA,NA,left,1213,true,NA,NA,NA,NA,NA,NA,NA,NA
eGky9cky,375vsr8fwzmfz1886kcfytzzg59zr5,3n1fsuefl9d7iez8usw7os1e4lm4di,eGky9cky,2020-0188,2021-10-30,22:55:45,00:00:07,NA,incomplete,false,true,NA,NA,1,11,NA,green,n_s_110.jpg,NA,NA,NA,NA,NA,pleasant,unpleasant,NA,NA,NA,NA,NA,right,1566,true,NA,NA,NA,NA,NA,NA,NA,NA
eGky9cky,375vsr8fwzmfz1886kcfytzzg59zr5,3n1fsuefl9d7iez8usw7os1e4lm4di,eGky9cky,2020-0188,2021-10-30,22:55:45,00:00:07,NA,incomplete,false,true,NA,NA,1,12,NA,purple,m_s_008.jpg,NA,NA,NA,NA,NA,pleasant,unpleasant,NA,NA,NA,NA,NA,left,2042,true,NA,NA,NA,NA,NA,NA,NA,NA
eGky9cky,375vsr8fwzmfz1886kcfytzzg59zr5,3n1fsuefl9d7iez8usw7os1e4lm4di,eGky9cky,2020-0188,2021-10-30,22:55:45,00:00:07,NA,incomplete,false,true,NA,NA,1,13,NA,purple,n_l_044.jpg,NA,NA,NA,NA,NA,pleasant,unpleasant,NA,NA,NA,NA,NA,right,2590,true,NA,NA,NA,NA,NA,NA,NA,NA
eGky9cky,375vsr8fwzmfz1886kcfytzzg59zr5,3n1fsuefl9d7iez8usw7os1e4lm4di,eGky9cky,2020-0188,2021-10-30,22:55:45,00:00:07,NA,incomplete,false,true,NA,NA,1,14,NA,purple,m_s_070.jpg,NA,NA,NA,NA,NA,unpleasant,pleasant,NA,NA,NA,NA,NA,left,2523,true,NA,NA,NA,NA,NA,NA,NA,NA
eGky9cky,375vsr8fwzmfz1886kcfytzzg59zr5,3n1fsuefl9d7iez8usw7os1e4lm4di,eGky9cky,2020-0188,2021-10-30,22:55:45,00:00:07,NA,incomplete,false,true,NA,NA,1,15,NA,purple,n_l_117.jpg,NA,NA,NA,NA,NA,unpleasant,pleasant,NA,NA,NA,NA,NA,left,1303,true,NA,NA,NA,NA,NA,NA,NA,NA
eGky9cky,375vsr8fwzmfz1886kcfytzzg59zr5,3n1fsuefl9d7iez8usw7os1e4lm4di,eGky9cky,2020-0188,2021-10-30,22:55:45,00:00:07,NA,incomplete,false,true,NA,NA,1,16,NA,purple,m_l_050.jpg,NA,NA,NA,NA,NA,pleasant,unpleasant,NA,NA,NA,NA,NA,right,1483,true,NA,NA,NA,NA,NA,NA,NA,NA
eGky9cky,375vsr8fwzmfz1886kcfytzzg59zr5,3n1fsuefl9d7iez8usw7os1e4lm4di,eGky9cky,2020-0188,2021-10-30,22:55:45,00:00:07,NA,incomplete,false,true,NA,NA,1,17,NA,purple,m_s_012.jpg,NA,NA,NA,NA,NA,pleasant,unpleasant,NA,NA,NA,NA,NA,left,1582,true,NA,NA,NA,NA,NA,NA,NA,NA
eGky9cky,375vsr8fwzmfz1886kcfytzzg59zr5,3n1fsuefl9d7iez8usw7os1e4lm4di,eGky9cky,2020-0188,2021-10-30,22:55:45,00:00:07,NA,incomplete,false,true,NA,NA,1,18,NA,red,m_s_010.jpg,NA,NA,NA,NA,NA,unpleasant,pleasant,NA,NA,NA,NA,NA,right,2233,true,NA,NA,NA,NA,NA,NA,NA,NA
eGky9cky,375vsr8fwzmfz1886kcfytzzg59zr5,3n1fsuefl9d7iez8usw7os1e4lm4di,eGky9cky,2020-0188,2021-10-30,22:55:45,00:00:07,NA,incomplete,false,true,NA,NA,1,19,NA,red,m_s_107.jpg,NA,NA,NA,NA,NA,pleasant,unpleasant,NA,NA,NA,NA,NA,left,2589,true,NA,NA,NA,NA,NA,NA,NA,NA
eGky9cky,375vsr8fwzmfz1886kcfytzzg59zr5,3n1fsuefl9d7iez8usw7os1e4lm4di,eGky9cky,2020-0188,2021-10-30,22:55:45,00:00:07,NA,incomplete,false,true,NA,NA,1,20,NA,red,n_s_070.jpg,NA,NA,NA,NA,NA,pleasant,unpleasant,NA,NA,NA,NA,NA,right,1136,true,NA,NA,NA,NA,NA,NA,NA,NA
eGky9cky,375vsr8fwzmfz1886kcfytzzg59zr5,3n1fsuefl9d7iez8usw7os1e4lm4di,eGky9cky,2020-0188,2021-10-30,22:55:45,00:00:07,NA,incomplete,false,true,NA,NA,1,21,NA,red,m_s_085.jpg,NA,NA,NA,NA,NA,pleasant,unpleasant,NA,NA,NA,NA,NA,right,979,true,NA,NA,NA,NA,NA,NA,NA,NA
eGky9cky,375vsr8fwzmfz1886kcfytzzg59zr5,3n1fsuefl9d7iez8usw7os1e4lm4di,eGky9cky,2020-0188,2021-10-30,22:55:45,00:00:07,NA,incomplete,false,true,NA,NA,1,22,NA,red,m_s_048.jpg,NA,NA,NA,NA,NA,pleasant,unpleasant,NA,NA,NA,NA,NA,right,2016,true,NA,NA,NA,NA,NA,NA,NA,NA
eGky9cky,375vsr8fwzmfz1886kcfytzzg59zr5,3n1fsuefl9d7iez8usw7os1e4lm4di,eGky9cky,2020-0188,2021-10-30,22:55:45,00:00:07,NA,incomplete,false,true,NA,NA,1,23,NA,red,m_l_001.jpg,NA,NA,NA,NA,NA,unpleasant,pleasant,NA,NA,NA,NA,NA,left,1332,true,NA,NA,NA,NA,NA,NA,NA,NA
eGky9cky,375vsr8fwzmfz1886kcfytzzg59zr5,3n1fsuefl9d7iez8usw7os1e4lm4di,eGky9cky,2020-0188,2021-10-30,22:55:45,00:00:07,NA,incomplete,false,true,NA,NA,1,24,NA,black,n_s_062.jpg,NA,NA,NA,NA,NA,unpleasant,pleasant,NA,NA,NA,NA,NA,right,2246,true,NA,NA,NA,NA,NA,NA,NA,NA
eGky9cky,375vsr8fwzmfz1886kcfytzzg59zr5,3n1fsuefl9d7iez8usw7os1e4lm4di,eGky9cky,2020-0188,2021-10-30,22:55:45,00:00:07,NA,incomplete,false,true,NA,NA,1,25,NA,black,n_l_027.jpg,NA,NA,NA,NA,NA,unpleasant,pleasant,NA,NA,NA,NA,NA,right,978,true,NA,NA,NA,NA,NA,NA,NA,NA
eGky9cky,375vsr8fwzmfz1886kcfytzzg59zr5,3n1fsuefl9d7iez8usw7os1e4lm4di,eGky9cky,2020-0188,2021-10-30,22:55:45,00:00:07,NA,incomplete,false,true,NA,NA,1,26,NA,black,n_l_016.jpg,NA,NA,NA,NA,NA,unpleasant,pleasant,NA,NA,NA,NA,NA,right,1094,true,NA,NA,NA,NA,NA,NA,NA,NA
eGky9cky,375vsr8fwzmfz1886kcfytzzg59zr5,3n1fsuefl9d7iez8usw7os1e4lm4di,eGky9cky,2020-0188,2021-10-30,22:55:45,00:00:07,NA,incomplete,false,true,NA,NA,1,27,NA,black,m_s_109.jpg,NA,NA,NA,NA,NA,pleasant,unpleasant,NA,NA,NA,NA,NA,left,1584,true,NA,NA,NA,NA,NA,NA,NA,NA
eGky9cky,375vsr8fwzmfz1886kcfytzzg59zr5,3n1fsuefl9d7iez8usw7os1e4lm4di,eGky9cky,2020-0188,2021-10-30,22:55:45,00:00:07,NA,incomplete,false,true,NA,NA,1,28,NA,black,n_l_098.jpg,NA,NA,NA,NA,NA,pleasant,unpleasant,NA,NA,NA,NA,NA,left,1558,true,NA,NA,NA,NA,NA,NA,NA,NA
eGky9cky,375vsr8fwzmfz1886kcfytzzg59zr5,3n1fsuefl9d7iez8usw7os1e4lm4di,eGky9cky,2020-0188,2021-10-30,22:55:45,00:00:07,NA,incomplete,false,true,NA,NA,1,29,NA,black,n_s_054.jpg,NA,NA,NA,NA,NA,unpleasant,pleasant,NA,NA,NA,NA,NA,left,1650,true,NA,NA,NA,NA,NA,NA,NA,NA
eGky9cky,375vsr8fwzmfz1886kcfytzzg59zr5,3n1fsuefl9d7iez8usw7os1e4lm4di,eGky9cky,2020-0188,2021-10-30,22:55:45,00:00:07,NA,incomplete,false,true,NA,NA,1,30,NA,orange,m_l_083.jpg,NA,NA,NA,NA,NA,unpleasant,pleasant,NA,NA,NA,NA,NA,left,1533,true,NA,NA,NA,NA,NA,NA,NA,NA
eGky9cky,375vsr8fwzmfz1886kcfytzzg59zr5,3n1fsuefl9d7iez8usw7os1e4lm4di,eGky9cky,2020-0188,2021-10-30,22:55:45,00:00:07,NA,incomplete,false,true,NA,NA,1,31,NA,orange,n_l_056.jpg,NA,NA,NA,NA,NA,pleasant,unpleasant,NA,NA,NA,NA,NA,right,1360,true,NA,NA,NA,NA,NA,NA,NA,NA
eGky9cky,375vsr8fwzmfz1886kcfytzzg59zr5,3n1fsuefl9d7iez8usw7os1e4lm4di,eGky9cky,2020-0188,2021-10-30,22:55:45,00:00:07,NA,incomplete,false,true,NA,NA,1,32,NA,orange,n_l_030.jpg,NA,NA,NA,NA,NA,unpleasant,pleasant,NA,NA,NA,NA,NA,left,1436,true,NA,NA,NA,NA,NA,NA,NA,NA
eGky9cky,375vsr8fwzmfz1886kcfytzzg59zr5,3n1fsuefl9d7iez8usw7os1e4lm4di,eGky9cky,2020-0188,2021-10-30,22:55:45,00:00:07,NA,incomplete,false,true,NA,NA,1,33,NA,orange,m_s_113.jpg,NA,NA,NA,NA,NA,pleasant,unpleasant,NA,NA,NA,NA,NA,right,1303,true,NA,NA,NA,NA,NA,NA,NA,NA
eGky9cky,375vsr8fwzmfz1886kcfytzzg59zr5,3n1fsuefl9d7iez8usw7os1e4lm4di,eGky9cky,2020-0188,2021-10-30,22:55:45,00:00:07,NA,incomplete,false,true,NA,NA,1,34,NA,orange,m_l_056.jpg,NA,NA,NA,NA,NA,pleasant,unpleasant,NA,NA,NA,NA,NA,right,1227,true,NA,NA,NA,NA,NA,NA,NA,NA
eGky9cky,375vsr8fwzmfz1886kcfytzzg59zr5,3n1fsuefl9d7iez8usw7os1e4lm4di,eGky9cky,2020-0188,2021-10-30,22:55:45,00:00:07,NA,incomplete,false,true,NA,NA,1,35,NA,orange,m_l_103.jpg,NA,NA,NA,NA,NA,pleasant,unpleasant,NA,NA,NA,NA,NA,right,1174,true,NA,NA,NA,NA,NA,NA,NA,NA
eGky9cky,375vsr8fwzmfz1886kcfytzzg59zr5,3n1fsuefl9d7iez8usw7os1e4lm4di,eGky9cky,2020-0188,2021-10-30,22:55:45,00:00:07,NA,incomplete,false,NA,NA,true,1,0,NA,NA,NA,left,m_s_005.jpg,green,purple,NA,NA,NA,NA,NA,NA,NA,NA,NA,NaN,NA,4575,left,1,NA,NA,NA,NA,NA
eGky9cky,375vsr8fwzmfz1886kcfytzzg59zr5,3n1fsuefl9d7iez8usw7os1e4lm4di,eGky9cky,2020-0188,2021-10-30,22:55:45,00:00:07,NA,incomplete,false,NA,NA,true,1,1,NA,NA,NA,left,m_s_048.jpg,red,black,NA,NA,NA,NA,NA,NA,NA,NA,NA,NaN,NA,1718,left,1,NA,NA,NA,NA,NA
eGky9cky,375vsr8fwzmfz1886kcfytzzg59zr5,3n1fsuefl9d7iez8usw7os1e4lm4di,eGky9cky,2020-0188,2021-10-30,22:55:45,00:00:07,NA,incomplete,false,NA,NA,true,1,2,NA,NA,NA,left,n_l_044.jpg,purple,red,NA,NA,NA,NA,NA,NA,NA,NA,NA,NaN,NA,1999,left,1,NA,NA,NA,NA,NA
eGky9cky,375vsr8fwzmfz1886kcfytzzg59zr5,3n1fsuefl9d7iez8usw7os1e4lm4di,eGky9cky,2020-0188,2021-10-30,22:55:45,00:00:07,NA,incomplete,false,NA,NA,true,1,3,NA,NA,NA,left,n_l_016.jpg,black,red,NA,NA,NA,NA,NA,NA,NA,NA,NA,NaN,NA,1761,left,1,NA,NA,NA,NA,NA
eGky9cky,375vsr8fwzmfz1886kcfytzzg59zr5,3n1fsuefl9d7iez8usw7os1e4lm4di,eGky9cky,2020-0188,2021-10-30,22:55:45,00:00:07,NA,incomplete,false,NA,NA,true,1,4,NA,NA,NA,left,m_l_050.jpg,purple,red,NA,NA,NA,NA,NA,NA,NA,NA,NA,NaN,NA,4892,left,1,NA,NA,NA,NA,NA
eGky9cky,375vsr8fwzmfz1886kcfytzzg59zr5,3n1fsuefl9d7iez8usw7os1e4lm4di,eGky9cky,2020-0188,2021-10-30,22:55:45,00:00:07,NA,incomplete,false,NA,NA,true,1,5,NA,NA,NA,right,m_l_037.jpg,purple,green,NA,NA,NA,NA,NA,NA,NA,NA,NA,NaN,NA,1709,right,1,NA,NA,NA,NA,NA
eGky9cky,375vsr8fwzmfz1886kcfytzzg59zr5,3n1fsuefl9d7iez8usw7os1e4lm4di,eGky9cky,2020-0188,2021-10-30,22:55:45,00:00:07,NA,incomplete,false,NA,NA,true,1,6,NA,NA,NA,right,m_l_001.jpg,purple,red,NA,NA,NA,NA,NA,NA,NA,NA,NA,NaN,NA,2314,right,1,NA,NA,NA,NA,NA
eGky9cky,375vsr8fwzmfz1886kcfytzzg59zr5,3n1fsuefl9d7iez8usw7os1e4lm4di,eGky9cky,2020-0188,2021-10-30,22:55:45,00:00:07,NA,incomplete,false,NA,NA,true,1,7,NA,NA,NA,right,n_l_056.jpg,black,orange,NA,NA,NA,NA,NA,NA,NA,NA,NA,NaN,NA,1100,right,1,NA,NA,NA,NA,NA
eGky9cky,375vsr8fwzmfz1886kcfytzzg59zr5,3n1fsuefl9d7iez8usw7os1e4lm4di,eGky9cky,2020-0188,2021-10-30,22:55:45,00:00:07,NA,incomplete,false,NA,NA,true,1,8,NA,NA,NA,left,m_l_100.jpg,brown,green,NA,NA,NA,NA,NA,NA,NA,NA,NA,NaN,NA,2297,right,0,NA,NA,NA,NA,NA
eGky9cky,375vsr8fwzmfz1886kcfytzzg59zr5,3n1fsuefl9d7iez8usw7os1e4lm4di,eGky9cky,2020-0188,2021-10-30,22:55:45,00:00:07,NA,incomplete,false,NA,NA,true,1,9,NA,NA,NA,left,n_l_027.jpg,black,red,NA,NA,NA,NA,NA,NA,NA,NA,NA,NaN,NA,1737,left,1,NA,NA,NA,NA,NA
eGky9cky,375vsr8fwzmfz1886kcfytzzg59zr5,3n1fsuefl9d7iez8usw7os1e4lm4di,eGky9cky,2020-0188,2021-10-30,22:55:45,00:00:07,NA,incomplete,false,NA,NA,true,1,10,NA,NA,NA,left,n_s_054.jpg,black,orange,NA,NA,NA,NA,NA,NA,NA,NA,NA,NaN,NA,1655,left,1,NA,NA,NA,NA,NA
eGky9cky,375vsr8fwzmfz1886kcfytzzg59zr5,3n1fsuefl9d7iez8usw7os1e4lm4di,eGky9cky,2020-0188,2021-10-30,22:55:45,00:00:07,NA,incomplete,false,NA,NA,true,1,11,NA,NA,NA,right,m_s_107.jpg,black,red,NA,NA,NA,NA,NA,NA,NA,NA,NA,NaN,NA,1188,right,1,NA,NA,NA,NA,NA
eGky9cky,375vsr8fwzmfz1886kcfytzzg59zr5,3n1fsuefl9d7iez8usw7os1e4lm4di,eGky9cky,2020-0188,2021-10-30,22:55:45,00:00:07,NA,incomplete,false,NA,NA,true,1,12,NA,NA,NA,right,n_s_070.jpg,purple,red,NA,NA,NA,NA,NA,NA,NA,NA,NA,NaN,NA,2269,left,0,NA,NA,NA,NA,NA
eGky9cky,375vsr8fwzmfz1886kcfytzzg59zr5,3n1fsuefl9d7iez8usw7os1e4lm4di,eGky9cky,2020-0188,2021-10-30,22:55:45,00:00:07,NA,incomplete,false,NA,NA,true,1,13,NA,NA,NA,left,n_l_030.jpg,orange,black,NA,NA,NA,NA,NA,NA,NA,NA,NA,NaN,NA,1793,left,1,NA,NA,NA,NA,NA
eGky9cky,375vsr8fwzmfz1886kcfytzzg59zr5,3n1fsuefl9d7iez8usw7os1e4lm4di,eGky9cky,2020-0188,2021-10-30,22:55:45,00:00:07,NA,incomplete,false,NA,NA,true,1,14,NA,NA,NA,left,m_s_012.jpg,purple,green,NA,NA,NA,NA,NA,NA,NA,NA,NA,NaN,NA,1529,left,1,NA,NA,NA,NA,NA
eGky9cky,375vsr8fwzmfz1886kcfytzzg59zr5,3n1fsuefl9d7iez8usw7os1e4lm4di,eGky9cky,2020-0188,2021-10-30,22:55:45,00:00:07,NA,incomplete,false,NA,NA,true,1,15,NA,NA,NA,right,m_l_114.jpg,brown,green,NA,NA,NA,NA,NA,NA,NA,NA,NA,NaN,NA,1613,left,0,NA,NA,NA,NA,NA
eGky9cky,375vsr8fwzmfz1886kcfytzzg59zr5,3n1fsuefl9d7iez8usw7os1e4lm4di,eGky9cky,2020-0188,2021-10-30,22:55:45,00:00:07,NA,incomplete,false,NA,NA,true,1,16,NA,NA,NA,right,m_s_070.jpg,red,purple,NA,NA,NA,NA,NA,NA,NA,NA,NA,NaN,NA,2240,right,1,NA,NA,NA,NA,NA
eGky9cky,375vsr8fwzmfz1886kcfytzzg59zr5,3n1fsuefl9d7iez8usw7os1e4lm4di,eGky9cky,2020-0188,2021-10-30,22:55:45,00:00:07,NA,incomplete,false,NA,NA,true,1,17,NA,NA,NA,left,n_s_110.jpg,green,purple,NA,NA,NA,NA,NA,NA,NA,NA,NA,NaN,NA,2080,left,1,NA,NA,NA,NA,NA
eGky9cky,375vsr8fwzmfz1886kcfytzzg59zr5,3n1fsuefl9d7iez8usw7os1e4lm4di,eGky9cky,2020-0188,2021-10-30,22:55:45,00:00:07,NA,incomplete,false,NA,NA,true,1,18,NA,NA,NA,left,m_l_012.jpg,brown,green,NA,NA,NA,NA,NA,NA,NA,NA,NA,NaN,NA,2291,left,1,NA,NA,NA,NA,NA
eGky9cky,375vsr8fwzmfz1886kcfytzzg59zr5,3n1fsuefl9d7iez8usw7os1e4lm4di,eGky9cky,2020-0188,2021-10-30,22:55:45,00:00:07,NA,incomplete,false,NA,NA,true,1,19,NA,NA,NA,left,m_l_103.jpg,orange,black,NA,NA,NA,NA,NA,NA,NA,NA,NA,NaN,NA,2747,left,1,NA,NA,NA,NA,NA
eGky9cky,375vsr8fwzmfz1886kcfytzzg59zr5,3n1fsuefl9d7iez8usw7os1e4lm4di,eGky9cky,2020-0188,2021-10-30,22:55:45,00:00:07,NA,incomplete,false,NA,NA,true,1,20,NA,NA,NA,left,n_l_024.jpg,brown,green,NA,NA,NA,NA,NA,NA,NA,NA,NA,NaN,NA,1624,left,1,NA,NA,NA,NA,NA
eGky9cky,375vsr8fwzmfz1886kcfytzzg59zr5,3n1fsuefl9d7iez8usw7os1e4lm4di,eGky9cky,2020-0188,2021-10-30,22:55:45,00:00:07,NA,incomplete,false,NA,NA,true,1,21,NA,NA,NA,left,n_l_098.jpg,black,orange,NA,NA,NA,NA,NA,NA,NA,NA,NA,NaN,NA,1888,left,1,NA,NA,NA,NA,NA
eGky9cky,375vsr8fwzmfz1886kcfytzzg59zr5,3n1fsuefl9d7iez8usw7os1e4lm4di,eGky9cky,2020-0188,2021-10-30,22:55:45,00:00:07,NA,incomplete,false,NA,true,NA,1,0,NA,NA,NA,left,NA,NA,NA,absent,NA,NA,n_l_024.jpg,brown,m_l_037.jpg,green,between,NA,NaN,NA,NA,NA,NA,left,4547,1,1,1234
eGky9cky,375vsr8fwzmfz1886kcfytzzg59zr5,3n1fsuefl9d7iez8usw7os1e4lm4di,eGky9cky,2020-0188,2021-10-30,22:55:45,00:00:07,NA,incomplete,false,NA,true,NA,1,1,NA,NA,NA,right,NA,NA,NA,absent,NA,NA,m_l_001.jpg,red,m_s_107.jpg,red,within,NA,NaN,NA,NA,NA,NA,left,5827,0,1,508
eGky9cky,375vsr8fwzmfz1886kcfytzzg59zr5,3n1fsuefl9d7iez8usw7os1e4lm4di,eGky9cky,2020-0188,2021-10-30,22:55:45,00:00:07,NA,incomplete,false,NA,true,NA,1,2,NA,NA,NA,left,NA,NA,NA,absent,NA,NA,n_l_098.jpg,black,n_l_030.jpg,orange,between,NA,NaN,NA,NA,NA,NA,left,1857,1,2,1102
eGky9cky,375vsr8fwzmfz1886kcfytzzg59zr5,3n1fsuefl9d7iez8usw7os1e4lm4di,eGky9cky,2020-0188,2021-10-30,22:55:45,00:00:07,NA,incomplete,false,NA,true,NA,1,3,NA,NA,NA,right,NA,NA,NA,absent,NA,NA,n_s_110.jpg,green,m_l_114.jpg,green,within,NA,NaN,NA,NA,NA,NA,right,3765,1,2,1144
eGky9cky,375vsr8fwzmfz1886kcfytzzg59zr5,3n1fsuefl9d7iez8usw7os1e4lm4di,eGky9cky,2020-0188,2021-10-30,22:55:45,00:00:07,NA,incomplete,false,NA,true,NA,1,4,NA,NA,NA,left,NA,NA,NA,absent,NA,NA,m_l_050.jpg,purple,n_s_070.jpg,red,between,NA,NaN,NA,NA,NA,NA,left,2772,1,3,887
eGky9cky,375vsr8fwzmfz1886kcfytzzg59zr5,3n1fsuefl9d7iez8usw7os1e4lm4di,eGky9cky,2020-0188,2021-10-30,22:55:45,00:00:07,NA,incomplete,false,NA,true,NA,1,5,NA,NA,NA,left,NA,NA,NA,absent,NA,NA,n_l_044.jpg,purple,m_s_012.jpg,purple,within,NA,NaN,NA,NA,NA,NA,left,3606,1,2,1347
eGky9cky,375vsr8fwzmfz1886kcfytzzg59zr5,3n1fsuefl9d7iez8usw7os1e4lm4di,eGky9cky,2020-0188,2021-10-30,22:55:45,00:00:07,NA,incomplete,false,NA,true,NA,1,6,NA,NA,NA,right,NA,NA,NA,absent,NA,NA,m_l_100.jpg,brown,m_l_012.jpg,brown,within,NA,NaN,NA,NA,NA,NA,right,1908,1,1,1130
eGky9cky,375vsr8fwzmfz1886kcfytzzg59zr5,3n1fsuefl9d7iez8usw7os1e4lm4di,eGky9cky,2020-0188,2021-10-30,22:55:45,00:00:07,NA,incomplete,false,NA,true,NA,1,7,NA,NA,NA,right,NA,NA,NA,absent,NA,NA,n_s_054.jpg,black,n_l_027.jpg,black,within,NA,NaN,NA,NA,NA,NA,right,2685,1,0,964
eGky9cky,375vsr8fwzmfz1886kcfytzzg59zr5,3n1fsuefl9d7iez8usw7os1e4lm4di,eGky9cky,2020-0188,2021-10-30,22:55:45,00:00:07,NA,incomplete,false,NA,true,NA,1,8,NA,NA,NA,left,NA,NA,NA,absent,NA,NA,n_l_056.jpg,orange,m_l_103.jpg,orange,within,NA,NaN,NA,NA,NA,NA,right,2657,0,2,1088
eGky9cky,375vsr8fwzmfz1886kcfytzzg59zr5,3n1fsuefl9d7iez8usw7os1e4lm4di,eGky9cky,2020-0188,2021-10-30,22:55:45,00:00:07,NA,incomplete,false,NA,true,NA,1,9,NA,NA,NA,left,NA,NA,NA,absent,NA,NA,m_s_048.jpg,red,n_l_016.jpg,black,between,NA,NaN,NA,NA,NA,NA,left,4827,1,1,982
eGky9cky,375vsr8fwzmfz1886kcfytzzg59zr5,3n1fsuefl9d7iez8usw7os1e4lm4di,eGky9cky,2020-0188,2021-10-30,22:55:45,00:00:07,NA,incomplete,false,NA,true,NA,1,10,NA,NA,NA,left,NA,NA,NA,absent,NA,NA,m_s_005.jpg,green,m_s_070.jpg,purple,between,NA,NaN,NA,NA,NA,NA,right,2925,0,3,1199
eGky9cky,375vsr8fwzmfz1886kcfytzzg59zr5,3n1fsuefl9d7iez8usw7os1e4lm4di,eGky9cky,2020-0188,2021-10-30,22:55:45,00:00:07,NA,incomplete,false,true,NA,NA,2,0,NA,yellow,n_s_113.jpg,NA,NA,NA,NA,NA,pleasant,unpleasant,NA,NA,NA,NA,NA,right,2049,true,NA,NA,NA,NA,NA,NA,NA,NA
eGky9cky,375vsr8fwzmfz1886kcfytzzg59zr5,3n1fsuefl9d7iez8usw7os1e4lm4di,eGky9cky,2020-0188,2021-10-30,22:55:45,00:00:07,NA,incomplete,false,true,NA,NA,2,1,NA,yellow,n_s_108.jpg,NA,NA,NA,NA,NA,unpleasant,pleasant,NA,NA,NA,NA,NA,left,1516,true,NA,NA,NA,NA,NA,NA,NA,NA
eGky9cky,375vsr8fwzmfz1886kcfytzzg59zr5,3n1fsuefl9d7iez8usw7os1e4lm4di,eGky9cky,2020-0188,2021-10-30,22:55:45,00:00:07,NA,incomplete,false,true,NA,NA,2,2,NA,yellow,m_l_084.jpg,NA,NA,NA,NA,NA,pleasant,unpleasant,NA,NA,NA,NA,NA,right,930,true,NA,NA,NA,NA,NA,NA,NA,NA
eGky9cky,375vsr8fwzmfz1886kcfytzzg59zr5,3n1fsuefl9d7iez8usw7os1e4lm4di,eGky9cky,2020-0188,2021-10-30,22:55:45,00:00:07,NA,incomplete,false,true,NA,NA,2,3,NA,yellow,m_l_027.jpg,NA,NA,NA,NA,NA,pleasant,unpleasant,NA,NA,NA,NA,NA,right,821,true,NA,NA,NA,NA,NA,NA,NA,NA
eGky9cky,375vsr8fwzmfz1886kcfytzzg59zr5,3n1fsuefl9d7iez8usw7os1e4lm4di,eGky9cky,2020-0188,2021-10-30,22:55:45,00:00:07,NA,incomplete,false,true,NA,NA,2,4,NA,yellow,n_l_090.jpg,NA,NA,NA,NA,NA,unpleasant,pleasant,NA,NA,NA,NA,NA,left,953,true,NA,NA,NA,NA,NA,NA,NA,NA
eGky9cky,375vsr8fwzmfz1886kcfytzzg59zr5,3n1fsuefl9d7iez8usw7os1e4lm4di,eGky9cky,2020-0188,2021-10-30,22:55:45,00:00:07,NA,incomplete,false,true,NA,NA,2,5,NA,yellow,m_s_013.jpg,NA,NA,NA,NA,NA,unpleasant,pleasant,NA,NA,NA,NA,NA,left,1278,true,NA,NA,NA,NA,NA,NA,NA,NA
eGky9cky,375vsr8fwzmfz1886kcfytzzg59zr5,3n1fsuefl9d7iez8usw7os1e4lm4di,eGky9cky,2020-0188,2021-10-30,22:55:45,00:00:07,NA,incomplete,false,true,NA,NA,2,6,NA,red,n_l_084.jpg,NA,NA,NA,NA,NA,unpleasant,pleasant,NA,NA,NA,NA,NA,left,1721,true,NA,NA,NA,NA,NA,NA,NA,NA
eGky9cky,375vsr8fwzmfz1886kcfytzzg59zr5,3n1fsuefl9d7iez8usw7os1e4lm4di,eGky9cky,2020-0188,2021-10-30,22:55:45,00:00:07,NA,incomplete,false,true,NA,NA,2,7,NA,red,m_l_005.jpg,NA,NA,NA,NA,NA,unpleasant,pleasant,NA,NA,NA,NA,NA,left,1317,true,NA,NA,NA,NA,NA,NA,NA,NA
eGky9cky,375vsr8fwzmfz1886kcfytzzg59zr5,3n1fsuefl9d7iez8usw7os1e4lm4di,eGky9cky,2020-0188,2021-10-30,22:55:45,00:00:07,NA,incomplete,false,true,NA,NA,2,8,NA,red,n_l_072.jpg,NA,NA,NA,NA,NA,unpleasant,pleasant,NA,NA,NA,NA,NA,left,1671,true,NA,NA,NA,NA,NA,NA,NA,NA
eGky9cky,375vsr8fwzmfz1886kcfytzzg59zr5,3n1fsuefl9d7iez8usw7os1e4lm4di,eGky9cky,2020-0188,2021-10-30,22:55:45,00:00:07,NA,incomplete,false,true,NA,NA,2,9,NA,red,n_s_051.jpg,NA,NA,NA,NA,NA,unpleasant,pleasant,NA,NA,NA,NA,NA,left,1059,true,NA,NA,NA,NA,NA,NA,NA,NA
eGky9cky,375vsr8fwzmfz1886kcfytzzg59zr5,3n1fsuefl9d7iez8usw7os1e4lm4di,eGky9cky,2020-0188,2021-10-30,22:55:45,00:00:07,NA,incomplete,false,true,NA,NA,2,10,NA,red,n_l_060.jpg,NA,NA,NA,NA,NA,pleasant,unpleasant,NA,NA,NA,NA,NA,right,1927,true,NA,NA,NA,NA,NA,NA,NA,NA
eGky9cky,375vsr8fwzmfz1886kcfytzzg59zr5,3n1fsuefl9d7iez8usw7os1e4lm4di,eGky9cky,2020-0188,2021-10-30,22:55:45,00:00:07,NA,incomplete,false,true,NA,NA,2,11,NA,red,m_s_033.jpg,NA,NA,NA,NA,NA,pleasant,unpleasant,NA,NA,NA,NA,NA,right,1276,true,NA,NA,NA,NA,NA,NA,NA,NA
eGky9cky,375vsr8fwzmfz1886kcfytzzg59zr5,3n1fsuefl9d7iez8usw7os1e4lm4di,eGky9cky,2020-0188,2021-10-30,22:55:45,00:00:07,NA,incomplete,false,true,NA,NA,2,12,NA,green,m_l_003.jpg,NA,NA,NA,NA,NA,unpleasant,pleasant,NA,NA,NA,NA,NA,right,1798,true,NA,NA,NA,NA,NA,NA,NA,NA
eGky9cky,375vsr8fwzmfz1886kcfytzzg59zr5,3n1fsuefl9d7iez8usw7os1e4lm4di,eGky9cky,2020-0188,2021-10-30,22:55:45,00:00:07,NA,incomplete,false,true,NA,NA,2,13,NA,green,m_s_054.jpg,NA,NA,NA,NA,NA,unpleasant,pleasant,NA,NA,NA,NA,NA,left,1625,true,NA,NA,NA,NA,NA,NA,NA,NA
eGky9cky,375vsr8fwzmfz1886kcfytzzg59zr5,3n1fsuefl9d7iez8usw7os1e4lm4di,eGky9cky,2020-0188,2021-10-30,22:55:45,00:00:07,NA,incomplete,false,true,NA,NA,2,14,NA,green,n_s_042.jpg,NA,NA,NA,NA,NA,pleasant,unpleasant,NA,NA,NA,NA,NA,right,1709,true,NA,NA,NA,NA,NA,NA,NA,NA
eGky9cky,375vsr8fwzmfz1886kcfytzzg59zr5,3n1fsuefl9d7iez8usw7os1e4lm4di,eGky9cky,2020-0188,2021-10-30,22:55:45,00:00:07,NA,incomplete,false,true,NA,NA,2,15,NA,green,n_s_071.jpg,NA,NA,NA,NA,NA,unpleasant,pleasant,NA,NA,NA,NA,NA,right,1625,true,NA,NA,NA,NA,NA,NA,NA,NA
eGky9cky,375vsr8fwzmfz1886kcfytzzg59zr5,3n1fsuefl9d7iez8usw7os1e4lm4di,eGky9cky,2020-0188,2021-10-30,22:55:45,00:00:07,NA,incomplete,false,true,NA,NA,2,16,NA,green,n_l_112.jpg,NA,NA,NA,NA,NA,unpleasant,pleasant,NA,NA,NA,NA,NA,left,1478,true,NA,NA,NA,NA,NA,NA,NA,NA
eGky9cky,375vsr8fwzmfz1886kcfytzzg59zr5,3n1fsuefl9d7iez8usw7os1e4lm4di,eGky9cky,2020-0188,2021-10-30,22:55:45,00:00:07,NA,incomplete,false,true,NA,NA,2,17,NA,green,m_l_046.jpg,NA,NA,NA,NA,NA,pleasant,unpleasant,NA,NA,NA,NA,NA,right,1816,true,NA,NA,NA,NA,NA,NA,NA,NA
eGky9cky,375vsr8fwzmfz1886kcfytzzg59zr5,3n1fsuefl9d7iez8usw7os1e4lm4di,eGky9cky,2020-0188,2021-10-30,22:55:45,00:00:07,NA,incomplete,false,true,NA,NA,2,18,NA,orange,m_s_060.jpg,NA,NA,NA,NA,NA,pleasant,unpleasant,NA,NA,NA,NA,NA,left,2542,true,NA,NA,NA,NA,NA,NA,NA,NA
eGky9cky,375vsr8fwzmfz1886kcfytzzg59zr5,3n1fsuefl9d7iez8usw7os1e4lm4di,eGky9cky,2020-0188,2021-10-30,22:55:45,00:00:07,NA,incomplete,false,true,NA,NA,2,19,NA,orange,m_s_059.jpg,NA,NA,NA,NA,NA,pleasant,unpleasant,NA,NA,NA,NA,NA,left,1727,true,NA,NA,NA,NA,NA,NA,NA,NA
eGky9cky,375vsr8fwzmfz1886kcfytzzg59zr5,3n1fsuefl9d7iez8usw7os1e4lm4di,eGky9cky,2020-0188,2021-10-30,22:55:45,00:00:07,NA,incomplete,false,true,NA,NA,2,20,NA,orange,n_s_115.jpg,NA,NA,NA,NA,NA,unpleasant,pleasant,NA,NA,NA,NA,NA,left,1082,true,NA,NA,NA,NA,NA,NA,NA,NA
eGky9cky,375vsr8fwzmfz1886kcfytzzg59zr5,3n1fsuefl9d7iez8usw7os1e4lm4di,eGky9cky,2020-0188,2021-10-30,22:55:45,00:00:07,NA,incomplete,false,true,NA,NA,2,21,NA,orange,m_l_092.jpg,NA,NA,NA,NA,NA,pleasant,unpleasant,NA,NA,NA,NA,NA,left,1149,true,NA,NA,NA,NA,NA,NA,NA,NA
eGky9cky,375vsr8fwzmfz1886kcfytzzg59zr5,3n1fsuefl9d7iez8usw7os1e4lm4di,eGky9cky,2020-0188,2021-10-30,22:55:45,00:00:07,NA,incomplete,false,true,NA,NA,2,22,NA,orange,m_l_079.jpg,NA,NA,NA,NA,NA,pleasant,unpleasant,NA,NA,NA,NA,NA,right,920,true,NA,NA,NA,NA,NA,NA,NA,NA
eGky9cky,375vsr8fwzmfz1886kcfytzzg59zr5,3n1fsuefl9d7iez8usw7os1e4lm4di,eGky9cky,2020-0188,2021-10-30,22:55:45,00:00:07,NA,incomplete,false,true,NA,NA,2,23,NA,orange,m_s_051.jpg,NA,NA,NA,NA,NA,pleasant,unpleasant,NA,NA,NA,NA,NA,right,1628,true,NA,NA,NA,NA,NA,NA,NA,NA
eGky9cky,375vsr8fwzmfz1886kcfytzzg59zr5,3n1fsuefl9d7iez8usw7os1e4lm4di,eGky9cky,2020-0188,2021-10-30,22:55:45,00:00:07,NA,incomplete,false,true,NA,NA,2,24,NA,purple,n_s_107.jpg,NA,NA,NA,NA,NA,pleasant,unpleasant,NA,NA,NA,NA,NA,right,1202,true,NA,NA,NA,NA,NA,NA,NA,NA
eGky9cky,375vsr8fwzmfz1886kcfytzzg59zr5,3n1fsuefl9d7iez8usw7os1e4lm4di,eGky9cky,2020-0188,2021-10-30,22:55:45,00:00:07,NA,incomplete,false,true,NA,NA,2,25,NA,purple,m_s_071.jpg,NA,NA,NA,NA,NA,pleasant,unpleasant,NA,NA,NA,NA,NA,right,1018,true,NA,NA,NA,NA,NA,NA,NA,NA
eGky9cky,375vsr8fwzmfz1886kcfytzzg59zr5,3n1fsuefl9d7iez8usw7os1e4lm4di,eGky9cky,2020-0188,2021-10-30,22:55:45,00:00:07,NA,incomplete,false,true,NA,NA,2,26,NA,purple,m_s_097.jpg,NA,NA,NA,NA,NA,pleasant,unpleasant,NA,NA,NA,NA,NA,right,1057,true,NA,NA,NA,NA,NA,NA,NA,NA
eGky9cky,375vsr8fwzmfz1886kcfytzzg59zr5,3n1fsuefl9d7iez8usw7os1e4lm4di,eGky9cky,2020-0188,2021-10-30,22:55:45,00:00:07,NA,incomplete,false,true,NA,NA,2,27,NA,purple,m_l_057.jpg,NA,NA,NA,NA,NA,unpleasant,pleasant,NA,NA,NA,NA,NA,left,1093,true,NA,NA,NA,NA,NA,NA,NA,NA
eGky9cky,375vsr8fwzmfz1886kcfytzzg59zr5,3n1fsuefl9d7iez8usw7os1e4lm4di,eGky9cky,2020-0188,2021-10-30,22:55:45,00:00:07,NA,incomplete,false,true,NA,NA,2,28,NA,purple,m_s_002.jpg,NA,NA,NA,NA,NA,pleasant,unpleasant,NA,NA,NA,NA,NA,left,1712,true,NA,NA,NA,NA,NA,NA,NA,NA
eGky9cky,375vsr8fwzmfz1886kcfytzzg59zr5,3n1fsuefl9d7iez8usw7os1e4lm4di,eGky9cky,2020-0188,2021-10-30,22:55:45,00:00:07,NA,incomplete,false,true,NA,NA,2,29,NA,purple,m_s_096.jpg,NA,NA,NA,NA,NA,unpleasant,pleasant,NA,NA,NA,NA,NA,left,1220,true,NA,NA,NA,NA,NA,NA,NA,NA
eGky9cky,375vsr8fwzmfz1886kcfytzzg59zr5,3n1fsuefl9d7iez8usw7os1e4lm4di,eGky9cky,2020-0188,2021-10-30,22:55:45,00:00:07,NA,incomplete,false,true,NA,NA,2,30,NA,brown,m_s_021.jpg,NA,NA,NA,NA,NA,unpleasant,pleasant,NA,NA,NA,NA,NA,left,1181,true,NA,NA,NA,NA,NA,NA,NA,NA
eGky9cky,375vsr8fwzmfz1886kcfytzzg59zr5,3n1fsuefl9d7iez8usw7os1e4lm4di,eGky9cky,2020-0188,2021-10-30,22:55:45,00:00:07,NA,incomplete,false,true,NA,NA,2,31,NA,brown,m_l_101.jpg,NA,NA,NA,NA,NA,pleasant,unpleasant,NA,NA,NA,NA,NA,right,1354,true,NA,NA,NA,NA,NA,NA,NA,NA
eGky9cky,375vsr8fwzmfz1886kcfytzzg59zr5,3n1fsuefl9d7iez8usw7os1e4lm4di,eGky9cky,2020-0188,2021-10-30,22:55:45,00:00:07,NA,incomplete,false,true,NA,NA,2,32,NA,brown,m_l_068.jpg,NA,NA,NA,NA,NA,unpleasant,pleasant,NA,NA,NA,NA,NA,left,1092,true,NA,NA,NA,NA,NA,NA,NA,NA
eGky9cky,375vsr8fwzmfz1886kcfytzzg59zr5,3n1fsuefl9d7iez8usw7os1e4lm4di,eGky9cky,2020-0188,2021-10-30,22:55:45,00:00:07,NA,incomplete,false,true,NA,NA,2,33,NA,brown,m_l_113.jpg,NA,NA,NA,NA,NA,unpleasant,pleasant,NA,NA,NA,NA,NA,left,1625,true,NA,NA,NA,NA,NA,NA,NA,NA
eGky9cky,375vsr8fwzmfz1886kcfytzzg59zr5,3n1fsuefl9d7iez8usw7os1e4lm4di,eGky9cky,2020-0188,2021-10-30,22:55:45,00:00:07,NA,incomplete,false,true,NA,NA,2,34,NA,brown,n_s_061.jpg,NA,NA,NA,NA,NA,pleasant,unpleasant,NA,NA,NA,NA,NA,right,926,true,NA,NA,NA,NA,NA,NA,NA,NA
eGky9cky,375vsr8fwzmfz1886kcfytzzg59zr5,3n1fsuefl9d7iez8usw7os1e4lm4di,eGky9cky,2020-0188,2021-10-30,22:55:45,00:00:07,NA,incomplete,false,true,NA,NA,2,35,NA,brown,m_l_011.jpg,NA,NA,NA,NA,NA,unpleasant,pleasant,NA,NA,NA,NA,NA,left,1234,true,NA,NA,NA,NA,NA,NA,NA,NA
eGky9cky,375vsr8fwzmfz1886kcfytzzg59zr5,3n1fsuefl9d7iez8usw7os1e4lm4di,eGky9cky,2020-0188,2021-10-30,22:55:45,00:00:07,NA,incomplete,false,NA,NA,true,2,0,NA,NA,NA,right,n_s_042.jpg,orange,green,NA,NA,NA,NA,NA,NA,NA,NA,NA,NaN,NA,2572,right,1,NA,NA,NA,NA,NA
eGky9cky,375vsr8fwzmfz1886kcfytzzg59zr5,3n1fsuefl9d7iez8usw7os1e4lm4di,eGky9cky,2020-0188,2021-10-30,22:55:45,00:00:07,NA,incomplete,false,NA,NA,true,2,1,NA,NA,NA,left,m_s_054.jpg,green,orange,NA,NA,NA,NA,NA,NA,NA,NA,NA,NaN,NA,1502,left,1,NA,NA,NA,NA,NA
eGky9cky,375vsr8fwzmfz1886kcfytzzg59zr5,3n1fsuefl9d7iez8usw7os1e4lm4di,eGky9cky,2020-0188,2021-10-30,22:55:45,00:00:07,NA,incomplete,false,NA,NA,true,2,2,NA,NA,NA,right,m_l_046.jpg,red,green,NA,NA,NA,NA,NA,NA,NA,NA,NA,NaN,NA,3319,left,0,NA,NA,NA,NA,NA
eGky9cky,375vsr8fwzmfz1886kcfytzzg59zr5,3n1fsuefl9d7iez8usw7os1e4lm4di,eGky9cky,2020-0188,2021-10-30,22:55:45,00:00:07,NA,incomplete,false,NA,NA,true,2,3,NA,NA,NA,right,m_l_068.jpg,purple,brown,NA,NA,NA,NA,NA,NA,NA,NA,NA,NaN,NA,2456,left,0,NA,NA,NA,NA,NA
eGky9cky,375vsr8fwzmfz1886kcfytzzg59zr5,3n1fsuefl9d7iez8usw7os1e4lm4di,eGky9cky,2020-0188,2021-10-30,22:55:45,00:00:07,NA,incomplete,false,NA,NA,true,2,4,NA,NA,NA,right,m_s_002.jpg,orange,purple,NA,NA,NA,NA,NA,NA,NA,NA,NA,NaN,NA,1232,right,1,NA,NA,NA,NA,NA
eGky9cky,375vsr8fwzmfz1886kcfytzzg59zr5,3n1fsuefl9d7iez8usw7os1e4lm4di,eGky9cky,2020-0188,2021-10-30,22:55:45,00:00:07,NA,incomplete,false,NA,NA,true,2,5,NA,NA,NA,left,m_l_101.jpg,brown,purple,NA,NA,NA,NA,NA,NA,NA,NA,NA,NaN,NA,2205,left,1,NA,NA,NA,NA,NA
eGky9cky,375vsr8fwzmfz1886kcfytzzg59zr5,3n1fsuefl9d7iez8usw7os1e4lm4di,eGky9cky,2020-0188,2021-10-30,22:55:45,00:00:07,NA,incomplete,false,NA,NA,true,2,6,NA,NA,NA,left,n_l_090.jpg,yellow,red,NA,NA,NA,NA,NA,NA,NA,NA,NA,NaN,NA,2920,left,1,NA,NA,NA,NA,NA
eGky9cky,375vsr8fwzmfz1886kcfytzzg59zr5,3n1fsuefl9d7iez8usw7os1e4lm4di,eGky9cky,2020-0188,2021-10-30,22:55:45,00:00:07,NA,incomplete,false,NA,NA,true,2,7,NA,NA,NA,right,n_s_115.jpg,purple,orange,NA,NA,NA,NA,NA,NA,NA,NA,NA,NaN,NA,2101,left,0,NA,NA,NA,NA,NA
eGky9cky,375vsr8fwzmfz1886kcfytzzg59zr5,3n1fsuefl9d7iez8usw7os1e4lm4di,eGky9cky,2020-0188,2021-10-30,22:55:45,00:00:07,NA,incomplete,false,NA,NA,true,2,8,NA,NA,NA,right,m_l_011.jpg,purple,brown,NA,NA,NA,NA,NA,NA,NA,NA,NA,NaN,NA,1992,right,1,NA,NA,NA,NA,NA
eGky9cky,375vsr8fwzmfz1886kcfytzzg59zr5,3n1fsuefl9d7iez8usw7os1e4lm4di,eGky9cky,2020-0188,2021-10-30,22:55:45,00:00:07,NA,incomplete,false,NA,NA,true,2,9,NA,NA,NA,left,m_s_096.jpg,purple,brown,NA,NA,NA,NA,NA,NA,NA,NA,NA,NaN,NA,1835,left,1,NA,NA,NA,NA,NA
eGky9cky,375vsr8fwzmfz1886kcfytzzg59zr5,3n1fsuefl9d7iez8usw7os1e4lm4di,eGky9cky,2020-0188,2021-10-30,22:55:45,00:00:07,NA,incomplete,false,NA,NA,true,2,10,NA,NA,NA,right,n_l_112.jpg,orange,green,NA,NA,NA,NA,NA,NA,NA,NA,NA,NaN,NA,3148,right,1,NA,NA,NA,NA,NA
eGky9cky,375vsr8fwzmfz1886kcfytzzg59zr5,3n1fsuefl9d7iez8usw7os1e4lm4di,eGky9cky,2020-0188,2021-10-30,22:55:45,00:00:07,NA,incomplete,false,NA,NA,true,2,11,NA,NA,NA,left,m_s_051.jpg,orange,green,NA,NA,NA,NA,NA,NA,NA,NA,NA,NaN,NA,1818,left,1,NA,NA,NA,NA,NA
eGky9cky,375vsr8fwzmfz1886kcfytzzg59zr5,3n1fsuefl9d7iez8usw7os1e4lm4di,eGky9cky,2020-0188,2021-10-30,22:55:45,00:00:07,NA,incomplete,false,NA,NA,true,2,12,NA,NA,NA,left,n_s_108.jpg,yellow,red,NA,NA,NA,NA,NA,NA,NA,NA,NA,NaN,NA,2799,right,0,NA,NA,NA,NA,NA
eGky9cky,375vsr8fwzmfz1886kcfytzzg59zr5,3n1fsuefl9d7iez8usw7os1e4lm4di,eGky9cky,2020-0188,2021-10-30,22:55:45,00:00:07,NA,incomplete,false,NA,NA,true,2,13,NA,NA,NA,right,m_s_033.jpg,yellow,red,NA,NA,NA,NA,NA,NA,NA,NA,NA,NaN,NA,2464,left,0,NA,NA,NA,NA,NA
eGky9cky,375vsr8fwzmfz1886kcfytzzg59zr5,3n1fsuefl9d7iez8usw7os1e4lm4di,eGky9cky,2020-0188,2021-10-30,22:55:45,00:00:07,NA,incomplete,false,NA,NA,true,2,14,NA,NA,NA,left,m_s_097.jpg,purple,brown,NA,NA,NA,NA,NA,NA,NA,NA,NA,NaN,NA,2015,left,1,NA,NA,NA,NA,NA
eGky9cky,375vsr8fwzmfz1886kcfytzzg59zr5,3n1fsuefl9d7iez8usw7os1e4lm4di,eGky9cky,2020-0188,2021-10-30,22:55:45,00:00:07,NA,incomplete,false,NA,NA,true,2,15,NA,NA,NA,left,m_s_013.jpg,yellow,red,NA,NA,NA,NA,NA,NA,NA,NA,NA,NaN,NA,3140,left,1,NA,NA,NA,NA,NA
eGky9cky,375vsr8fwzmfz1886kcfytzzg59zr5,3n1fsuefl9d7iez8usw7os1e4lm4di,eGky9cky,2020-0188,2021-10-30,22:55:45,00:00:07,NA,incomplete,false,NA,NA,true,2,16,NA,NA,NA,right,m_s_059.jpg,green,orange,NA,NA,NA,NA,NA,NA,NA,NA,NA,NaN,NA,1471,right,1,NA,NA,NA,NA,NA
eGky9cky,375vsr8fwzmfz1886kcfytzzg59zr5,3n1fsuefl9d7iez8usw7os1e4lm4di,eGky9cky,2020-0188,2021-10-30,22:55:45,00:00:07,NA,incomplete,false,NA,NA,true,2,17,NA,NA,NA,left,m_l_079.jpg,orange,green,NA,NA,NA,NA,NA,NA,NA,NA,NA,NaN,NA,4757,left,1,NA,NA,NA,NA,NA
eGky9cky,375vsr8fwzmfz1886kcfytzzg59zr5,3n1fsuefl9d7iez8usw7os1e4lm4di,eGky9cky,2020-0188,2021-10-30,22:55:45,00:00:07,NA,incomplete,false,NA,NA,true,2,18,NA,NA,NA,right,m_s_071.jpg,brown,purple,NA,NA,NA,NA,NA,NA,NA,NA,NA,NaN,NA,2938,right,1,NA,NA,NA,NA,NA
eGky9cky,375vsr8fwzmfz1886kcfytzzg59zr5,3n1fsuefl9d7iez8usw7os1e4lm4di,eGky9cky,2020-0188,2021-10-30,22:55:45,00:00:07,NA,incomplete,false,NA,NA,true,2,19,NA,NA,NA,left,n_l_060.jpg,red,green,NA,NA,NA,NA,NA,NA,NA,NA,NA,NaN,NA,4504,left,1,NA,NA,NA,NA,NA
eGky9cky,375vsr8fwzmfz1886kcfytzzg59zr5,3n1fsuefl9d7iez8usw7os1e4lm4di,eGky9cky,2020-0188,2021-10-30,22:55:45,00:00:07,NA,incomplete,false,NA,NA,true,2,20,NA,NA,NA,right,n_l_072.jpg,yellow,red,NA,NA,NA,NA,NA,NA,NA,NA,NA,NaN,NA,1527,left,0,NA,NA,NA,NA,NA
eGky9cky,375vsr8fwzmfz1886kcfytzzg59zr5,3n1fsuefl9d7iez8usw7os1e4lm4di,eGky9cky,2020-0188,2021-10-30,22:55:45,00:00:07,NA,incomplete,false,NA,NA,true,2,21,NA,NA,NA,left,m_l_005.jpg,red,green,NA,NA,NA,NA,NA,NA,NA,NA,NA,NaN,NA,2239,left,1,NA,NA,NA,NA,NA
eGky9cky,375vsr8fwzmfz1886kcfytzzg59zr5,3n1fsuefl9d7iez8usw7os1e4lm4di,eGky9cky,2020-0188,2021-10-30,22:55:45,00:00:07,NA,incomplete,false,NA,true,NA,2,0,NA,NA,NA,left,NA,NA,NA,absent,NA,NA,m_l_079.jpg,orange,m_s_097.jpg,purple,between,NA,NaN,NA,NA,NA,NA,left,2853,1,1,1218
eGky9cky,375vsr8fwzmfz1886kcfytzzg59zr5,3n1fsuefl9d7iez8usw7os1e4lm4di,eGky9cky,2020-0188,2021-10-30,22:55:45,00:00:07,NA,incomplete,false,NA,true,NA,2,1,NA,NA,NA,left,NA,NA,NA,absent,NA,NA,n_l_112.jpg,green,n_s_115.jpg,orange,between,NA,NaN,NA,NA,NA,NA,right,1611,0,1,1489
eGky9cky,375vsr8fwzmfz1886kcfytzzg59zr5,3n1fsuefl9d7iez8usw7os1e4lm4di,eGky9cky,2020-0188,2021-10-30,22:55:45,00:00:07,NA,incomplete,false,NA,true,NA,2,2,NA,NA,NA,left,NA,NA,NA,absent,NA,NA,m_l_101.jpg,brown,m_l_011.jpg,brown,within,NA,NaN,NA,NA,NA,NA,left,4265,1,0,1015
eGky9cky,375vsr8fwzmfz1886kcfytzzg59zr5,3n1fsuefl9d7iez8usw7os1e4lm4di,eGky9cky,2020-0188,2021-10-30,22:55:45,00:00:07,NA,incomplete,false,NA,true,NA,2,3,NA,NA,NA,right,NA,NA,NA,absent,NA,NA,m_s_033.jpg,red,m_l_005.jpg,red,within,NA,NaN,NA,NA,NA,NA,right,1386,1,2,888
eGky9cky,375vsr8fwzmfz1886kcfytzzg59zr5,3n1fsuefl9d7iez8usw7os1e4lm4di,eGky9cky,2020-0188,2021-10-30,22:55:45,00:00:07,NA,incomplete,false,NA,true,NA,2,4,NA,NA,NA,left,NA,NA,NA,absent,NA,NA,n_l_060.jpg,red,n_s_042.jpg,green,between,NA,NaN,NA,NA,NA,NA,left,2423,1,1,1336
eGky9cky,375vsr8fwzmfz1886kcfytzzg59zr5,3n1fsuefl9d7iez8usw7os1e4lm4di,eGky9cky,2020-0188,2021-10-30,22:55:45,00:00:07,NA,incomplete,false,NA,true,NA,2,5,NA,NA,NA,right,NA,NA,NA,absent,NA,NA,m_l_046.jpg,green,m_s_054.jpg,green,within,NA,NaN,NA,NA,NA,NA,right,1905,1,2,1293
eGky9cky,375vsr8fwzmfz1886kcfytzzg59zr5,3n1fsuefl9d7iez8usw7os1e4lm4di,eGky9cky,2020-0188,2021-10-30,22:55:45,00:00:07,NA,incomplete,false,NA,true,NA,2,6,NA,NA,NA,left,NA,NA,NA,absent,NA,NA,m_s_071.jpg,purple,m_s_096.jpg,purple,within,NA,NaN,NA,NA,NA,NA,right,4704,0,1,902
eGky9cky,375vsr8fwzmfz1886kcfytzzg59zr5,3n1fsuefl9d7iez8usw7os1e4lm4di,eGky9cky,2020-0188,2021-10-30,22:55:45,00:00:07,NA,incomplete,false,NA,true,NA,2,7,NA,NA,NA,right,NA,NA,NA,absent,NA,NA,m_s_051.jpg,orange,m_s_059.jpg,orange,within,NA,NaN,NA,NA,NA,NA,right,1688,1,3,1083
eGky9cky,375vsr8fwzmfz1886kcfytzzg59zr5,3n1fsuefl9d7iez8usw7os1e4lm4di,eGky9cky,2020-0188,2021-10-30,22:55:45,00:00:07,NA,incomplete,false,NA,true,NA,2,8,NA,NA,NA,left,NA,NA,NA,absent,NA,NA,n_s_108.jpg,yellow,m_s_013.jpg,yellow,within,NA,NaN,NA,NA,NA,NA,left,1416,1,3,803
eGky9cky,375vsr8fwzmfz1886kcfytzzg59zr5,3n1fsuefl9d7iez8usw7os1e4lm4di,eGky9cky,2020-0188,2021-10-30,22:55:45,00:00:07,NA,incomplete,false,NA,true,NA,2,9,NA,NA,NA,right,NA,NA,NA,absent,NA,NA,n_l_072.jpg,red,n_l_090.jpg,yellow,between,NA,NaN,NA,NA,NA,NA,left,1744,0,2,818
eGky9cky,375vsr8fwzmfz1886kcfytzzg59zr5,3n1fsuefl9d7iez8usw7os1e4lm4di,eGky9cky,2020-0188,2021-10-30,22:55:45,00:00:07,NA,incomplete,false,NA,true,NA,2,10,NA,NA,NA,right,NA,NA,NA,absent,NA,NA,m_l_068.jpg,brown,m_s_002.jpg,purple,between,NA,NaN,NA,NA,NA,NA,left,2610,0,1,878
eGky9cky,375vsr8fwzmfz1886kcfytzzg59zr5,3n1fsuefl9d7iez8usw7os1e4lm4di,eGky9cky,2020-0188,2021-10-30,22:55:45,00:00:07,NA,incomplete,false,true,NA,NA,3,0,NA,white,m_l_049.jpg,NA,NA,NA,NA,NA,pleasant,unpleasant,NA,NA,NA,NA,NA,left,1971,true,NA,NA,NA,NA,NA,NA,NA,NA
eGky9cky,375vsr8fwzmfz1886kcfytzzg59zr5,3n1fsuefl9d7iez8usw7os1e4lm4di,eGky9cky,2020-0188,2021-10-30,22:55:45,00:00:07,NA,incomplete,false,true,NA,NA,3,1,NA,white,m_l_038.jpg,NA,NA,NA,NA,NA,unpleasant,pleasant,NA,NA,NA,NA,NA,right,1071,true,NA,NA,NA,NA,NA,NA,NA,NA
eGky9cky,375vsr8fwzmfz1886kcfytzzg59zr5,3n1fsuefl9d7iez8usw7os1e4lm4di,eGky9cky,2020-0188,2021-10-30,22:55:45,00:00:07,NA,incomplete,false,true,NA,NA,3,2,NA,white,m_s_063.jpg,NA,NA,NA,NA,NA,pleasant,unpleasant,NA,NA,NA,NA,NA,left,1473,true,NA,NA,NA,NA,NA,NA,NA,NA
eGky9cky,375vsr8fwzmfz1886kcfytzzg59zr5,3n1fsuefl9d7iez8usw7os1e4lm4di,eGky9cky,2020-0188,2021-10-30,22:55:45,00:00:07,NA,incomplete,false,true,NA,NA,3,3,NA,white,m_s_095.jpg,NA,NA,NA,NA,NA,pleasant,unpleasant,NA,NA,NA,NA,NA,left,1159,true,NA,NA,NA,NA,NA,NA,NA,NA
eGky9cky,375vsr8fwzmfz1886kcfytzzg59zr5,3n1fsuefl9d7iez8usw7os1e4lm4di,eGky9cky,2020-0188,2021-10-30,22:55:45,00:00:07,NA,incomplete,false,true,NA,NA,3,4,NA,white,n_s_023.jpg,NA,NA,NA,NA,NA,pleasant,unpleasant,NA,NA,NA,NA,NA,left,1970,true,NA,NA,NA,NA,NA,NA,NA,NA
eGky9cky,375vsr8fwzmfz1886kcfytzzg59zr5,3n1fsuefl9d7iez8usw7os1e4lm4di,eGky9cky,2020-0188,2021-10-30,22:55:45,00:00:07,NA,incomplete,false,true,NA,NA,3,5,NA,white,m_l_055.jpg,NA,NA,NA,NA,NA,pleasant,unpleasant,NA,NA,NA,NA,NA,left,772,true,NA,NA,NA,NA,NA,NA,NA,NA
eGky9cky,375vsr8fwzmfz1886kcfytzzg59zr5,3n1fsuefl9d7iez8usw7os1e4lm4di,eGky9cky,2020-0188,2021-10-30,22:55:45,00:00:07,NA,incomplete,false,true,NA,NA,3,6,NA,gray,n_s_091.jpg,NA,NA,NA,NA,NA,unpleasant,pleasant,NA,NA,NA,NA,NA,left,1367,true,NA,NA,NA,NA,NA,NA,NA,NA
eGky9cky,375vsr8fwzmfz1886kcfytzzg59zr5,3n1fsuefl9d7iez8usw7os1e4lm4di,eGky9cky,2020-0188,2021-10-30,22:55:45,00:00:07,NA,incomplete,false,true,NA,NA,3,7,NA,gray,n_l_110.jpg,NA,NA,NA,NA,NA,unpleasant,pleasant,NA,NA,NA,NA,NA,right,1131,true,NA,NA,NA,NA,NA,NA,NA,NA
eGky9cky,375vsr8fwzmfz1886kcfytzzg59zr5,3n1fsuefl9d7iez8usw7os1e4lm4di,eGky9cky,2020-0188,2021-10-30,22:55:45,00:00:07,NA,incomplete,false,true,NA,NA,3,8,NA,gray,n_l_087.jpg,NA,NA,NA,NA,NA,unpleasant,pleasant,NA,NA,NA,NA,NA,right,1611,true,NA,NA,NA,NA,NA,NA,NA,NA
eGky9cky,375vsr8fwzmfz1886kcfytzzg59zr5,3n1fsuefl9d7iez8usw7os1e4lm4di,eGky9cky,2020-0188,2021-10-30,22:55:45,00:00:07,NA,incomplete,false,true,NA,NA,3,9,NA,gray,n_s_006.jpg,NA,NA,NA,NA,NA,unpleasant,pleasant,NA,NA,NA,NA,NA,right,1601,true,NA,NA,NA,NA,NA,NA,NA,NA
eGky9cky,375vsr8fwzmfz1886kcfytzzg59zr5,3n1fsuefl9d7iez8usw7os1e4lm4di,eGky9cky,2020-0188,2021-10-30,22:55:45,00:00:07,NA,incomplete,false,true,NA,NA,3,10,NA,gray,n_s_014.jpg,NA,NA,NA,NA,NA,pleasant,unpleasant,NA,NA,NA,NA,NA,right,1852,true,NA,NA,NA,NA,NA,NA,NA,NA
eGky9cky,375vsr8fwzmfz1886kcfytzzg59zr5,3n1fsuefl9d7iez8usw7os1e4lm4di,eGky9cky,2020-0188,2021-10-30,22:55:45,00:00:07,NA,incomplete,false,true,NA,NA,3,11,NA,gray,m_s_084.jpg,NA,NA,NA,NA,NA,unpleasant,pleasant,NA,NA,NA,NA,NA,left,1755,true,NA,NA,NA,NA,NA,NA,NA,NA
eGky9cky,375vsr8fwzmfz1886kcfytzzg59zr5,3n1fsuefl9d7iez8usw7os1e4lm4di,eGky9cky,2020-0188,2021-10-30,22:55:45,00:00:07,NA,incomplete,false,true,NA,NA,3,12,NA,brown,n_s_059.jpg,NA,NA,NA,NA,NA,unpleasant,pleasant,NA,NA,NA,NA,NA,left,974,true,NA,NA,NA,NA,NA,NA,NA,NA
eGky9cky,375vsr8fwzmfz1886kcfytzzg59zr5,3n1fsuefl9d7iez8usw7os1e4lm4di,eGky9cky,2020-0188,2021-10-30,22:55:45,00:00:07,NA,incomplete,false,true,NA,NA,3,13,NA,brown,m_s_023.jpg,NA,NA,NA,NA,NA,pleasant,unpleasant,NA,NA,NA,NA,NA,right,1243,true,NA,NA,NA,NA,NA,NA,NA,NA
eGky9cky,375vsr8fwzmfz1886kcfytzzg59zr5,3n1fsuefl9d7iez8usw7os1e4lm4di,eGky9cky,2020-0188,2021-10-30,22:55:45,00:00:07,NA,incomplete,false,true,NA,NA,3,14,NA,brown,m_l_034.jpg,NA,NA,NA,NA,NA,pleasant,unpleasant,NA,NA,NA,NA,NA,right,998,true,NA,NA,NA,NA,NA,NA,NA,NA
eGky9cky,375vsr8fwzmfz1886kcfytzzg59zr5,3n1fsuefl9d7iez8usw7os1e4lm4di,eGky9cky,2020-0188,2021-10-30,22:55:45,00:00:07,NA,incomplete,false,true,NA,NA,3,15,NA,brown,n_s_019.jpg,NA,NA,NA,NA,NA,pleasant,unpleasant,NA,NA,NA,NA,NA,right,1450,true,NA,NA,NA,NA,NA,NA,NA,NA
eGky9cky,375vsr8fwzmfz1886kcfytzzg59zr5,3n1fsuefl9d7iez8usw7os1e4lm4di,eGky9cky,2020-0188,2021-10-30,22:55:45,00:00:07,NA,incomplete,false,true,NA,NA,3,16,NA,brown,n_s_007.jpg,NA,NA,NA,NA,NA,pleasant,unpleasant,NA,NA,NA,NA,NA,right,797,true,NA,NA,NA,NA,NA,NA,NA,NA
eGky9cky,375vsr8fwzmfz1886kcfytzzg59zr5,3n1fsuefl9d7iez8usw7os1e4lm4di,eGky9cky,2020-0188,2021-10-30,22:55:45,00:00:07,NA,incomplete,false,true,NA,NA,3,17,NA,brown,m_l_091.jpg,NA,NA,NA,NA,NA,pleasant,unpleasant,NA,NA,NA,NA,NA,left,1088,true,NA,NA,NA,NA,NA,NA,NA,NA
eGky9cky,375vsr8fwzmfz1886kcfytzzg59zr5,3n1fsuefl9d7iez8usw7os1e4lm4di,eGky9cky,2020-0188,2021-10-30,22:55:45,00:00:07,NA,incomplete,false,true,NA,NA,3,18,NA,purple,m_s_011.jpg,NA,NA,NA,NA,NA,unpleasant,pleasant,NA,NA,NA,NA,NA,left,1492,true,NA,NA,NA,NA,NA,NA,NA,NA
eGky9cky,375vsr8fwzmfz1886kcfytzzg59zr5,3n1fsuefl9d7iez8usw7os1e4lm4di,eGky9cky,2020-0188,2021-10-30,22:55:45,00:00:07,NA,incomplete,false,true,NA,NA,3,19,NA,purple,n_s_044.jpg,NA,NA,NA,NA,NA,pleasant,unpleasant,NA,NA,NA,NA,NA,right,1077,true,NA,NA,NA,NA,NA,NA,NA,NA
eGky9cky,375vsr8fwzmfz1886kcfytzzg59zr5,3n1fsuefl9d7iez8usw7os1e4lm4di,eGky9cky,2020-0188,2021-10-30,22:55:45,00:00:07,NA,incomplete,false,true,NA,NA,3,20,NA,purple,m_s_111.jpg,NA,NA,NA,NA,NA,unpleasant,pleasant,NA,NA,NA,NA,NA,left,1162,true,NA,NA,NA,NA,NA,NA,NA,NA
eGky9cky,375vsr8fwzmfz1886kcfytzzg59zr5,3n1fsuefl9d7iez8usw7os1e4lm4di,eGky9cky,2020-0188,2021-10-30,22:55:45,00:00:07,NA,incomplete,false,true,NA,NA,3,21,NA,purple,m_l_009.jpg,NA,NA,NA,NA,NA,unpleasant,pleasant,NA,NA,NA,NA,NA,left,844,true,NA,NA,NA,NA,NA,NA,NA,NA
eGky9cky,375vsr8fwzmfz1886kcfytzzg59zr5,3n1fsuefl9d7iez8usw7os1e4lm4di,eGky9cky,2020-0188,2021-10-30,22:55:45,00:00:07,NA,incomplete,false,true,NA,NA,3,22,NA,purple,n_l_077.jpg,NA,NA,NA,NA,NA,pleasant,unpleasant,NA,NA,NA,NA,NA,left,922,true,NA,NA,NA,NA,NA,NA,NA,NA
eGky9cky,375vsr8fwzmfz1886kcfytzzg59zr5,3n1fsuefl9d7iez8usw7os1e4lm4di,eGky9cky,2020-0188,2021-10-30,22:55:45,00:00:07,NA,incomplete,false,true,NA,NA,3,23,NA,purple,n_l_046.jpg,NA,NA,NA,NA,NA,pleasant,unpleasant,NA,NA,NA,NA,NA,right,997,true,NA,NA,NA,NA,NA,NA,NA,NA
eGky9cky,375vsr8fwzmfz1886kcfytzzg59zr5,3n1fsuefl9d7iez8usw7os1e4lm4di,eGky9cky,2020-0188,2021-10-30,22:55:45,00:00:07,NA,incomplete,false,true,NA,NA,3,24,NA,yellow,m_s_077.jpg,NA,NA,NA,NA,NA,unpleasant,pleasant,NA,NA,NA,NA,NA,right,1847,true,NA,NA,NA,NA,NA,NA,NA,NA
eGky9cky,375vsr8fwzmfz1886kcfytzzg59zr5,3n1fsuefl9d7iez8usw7os1e4lm4di,eGky9cky,2020-0188,2021-10-30,22:55:45,00:00:07,NA,incomplete,false,true,NA,NA,3,25,NA,yellow,n_s_049.jpg,NA,NA,NA,NA,NA,pleasant,unpleasant,NA,NA,NA,NA,NA,right,1285,true,NA,NA,NA,NA,NA,NA,NA,NA
eGky9cky,375vsr8fwzmfz1886kcfytzzg59zr5,3n1fsuefl9d7iez8usw7os1e4lm4di,eGky9cky,2020-0188,2021-10-30,22:55:45,00:00:07,NA,incomplete,false,true,NA,NA,3,26,NA,yellow,n_l_037.jpg,NA,NA,NA,NA,NA,unpleasant,pleasant,NA,NA,NA,NA,NA,left,944,true,NA,NA,NA,NA,NA,NA,NA,NA
eGky9cky,375vsr8fwzmfz1886kcfytzzg59zr5,3n1fsuefl9d7iez8usw7os1e4lm4di,eGky9cky,2020-0188,2021-10-30,22:55:45,00:00:07,NA,incomplete,false,true,NA,NA,3,27,NA,yellow,n_l_053.jpg,NA,NA,NA,NA,NA,unpleasant,pleasant,NA,NA,NA,NA,NA,left,1324,true,NA,NA,NA,NA,NA,NA,NA,NA
eGky9cky,375vsr8fwzmfz1886kcfytzzg59zr5,3n1fsuefl9d7iez8usw7os1e4lm4di,eGky9cky,2020-0188,2021-10-30,22:55:45,00:00:07,NA,incomplete,false,true,NA,NA,3,28,NA,yellow,m_s_068.jpg,NA,NA,NA,NA,NA,pleasant,unpleasant,NA,NA,NA,NA,NA,left,998,true,NA,NA,NA,NA,NA,NA,NA,NA
eGky9cky,375vsr8fwzmfz1886kcfytzzg59zr5,3n1fsuefl9d7iez8usw7os1e4lm4di,eGky9cky,2020-0188,2021-10-30,22:55:45,00:00:07,NA,incomplete,false,true,NA,NA,3,29,NA,yellow,n_l_089.jpg,NA,NA,NA,NA,NA,unpleasant,pleasant,NA,NA,NA,NA,NA,left,1714,true,NA,NA,NA,NA,NA,NA,NA,NA
eGky9cky,375vsr8fwzmfz1886kcfytzzg59zr5,3n1fsuefl9d7iez8usw7os1e4lm4di,eGky9cky,2020-0188,2021-10-30,22:55:45,00:00:07,NA,incomplete,false,true,NA,NA,3,30,NA,green,m_l_086.jpg,NA,NA,NA,NA,NA,unpleasant,pleasant,NA,NA,NA,NA,NA,left,1302,true,NA,NA,NA,NA,NA,NA,NA,NA
eGky9cky,375vsr8fwzmfz1886kcfytzzg59zr5,3n1fsuefl9d7iez8usw7os1e4lm4di,eGky9cky,2020-0188,2021-10-30,22:55:45,00:00:07,NA,incomplete,false,true,NA,NA,3,31,NA,green,m_s_062.jpg,NA,NA,NA,NA,NA,pleasant,unpleasant,NA,NA,NA,NA,NA,right,1506,true,NA,NA,NA,NA,NA,NA,NA,NA
eGky9cky,375vsr8fwzmfz1886kcfytzzg59zr5,3n1fsuefl9d7iez8usw7os1e4lm4di,eGky9cky,2020-0188,2021-10-30,22:55:45,00:00:07,NA,incomplete,false,true,NA,NA,3,32,NA,green,m_l_063.jpg,NA,NA,NA,NA,NA,pleasant,unpleasant,NA,NA,NA,NA,NA,right,1109,true,NA,NA,NA,NA,NA,NA,NA,NA
eGky9cky,375vsr8fwzmfz1886kcfytzzg59zr5,3n1fsuefl9d7iez8usw7os1e4lm4di,eGky9cky,2020-0188,2021-10-30,22:55:45,00:00:07,NA,incomplete,false,true,NA,NA,3,33,NA,green,m_s_110.jpg,NA,NA,NA,NA,NA,unpleasant,pleasant,NA,NA,NA,NA,NA,left,1416,true,NA,NA,NA,NA,NA,NA,NA,NA
eGky9cky,375vsr8fwzmfz1886kcfytzzg59zr5,3n1fsuefl9d7iez8usw7os1e4lm4di,eGky9cky,2020-0188,2021-10-30,22:55:45,00:00:07,NA,incomplete,false,true,NA,NA,3,34,NA,green,m_l_059.jpg,NA,NA,NA,NA,NA,unpleasant,pleasant,NA,NA,NA,NA,NA,right,1443,true,NA,NA,NA,NA,NA,NA,NA,NA
eGky9cky,375vsr8fwzmfz1886kcfytzzg59zr5,3n1fsuefl9d7iez8usw7os1e4lm4di,eGky9cky,2020-0188,2021-10-30,22:55:45,00:00:07,NA,incomplete,false,true,NA,NA,3,35,NA,green,n_s_048.jpg,NA,NA,NA,NA,NA,pleasant,unpleasant,NA,NA,NA,NA,NA,left,1183,true,NA,NA,NA,NA,NA,NA,NA,NA
eGky9cky,375vsr8fwzmfz1886kcfytzzg59zr5,3n1fsuefl9d7iez8usw7os1e4lm4di,eGky9cky,2020-0188,2021-10-30,22:55:45,00:00:07,NA,incomplete,false,NA,NA,true,3,0,NA,NA,NA,left,m_l_034.jpg,brown,gray,NA,NA,NA,NA,NA,NA,NA,NA,NA,NaN,NA,3076,left,1,NA,NA,NA,NA,NA
eGky9cky,375vsr8fwzmfz1886kcfytzzg59zr5,3n1fsuefl9d7iez8usw7os1e4lm4di,eGky9cky,2020-0188,2021-10-30,22:55:45,00:00:07,NA,incomplete,false,NA,NA,true,3,1,NA,NA,NA,left,n_s_049.jpg,yellow,purple,NA,NA,NA,NA,NA,NA,NA,NA,NA,NaN,NA,2808,left,1,NA,NA,NA,NA,NA
eGky9cky,375vsr8fwzmfz1886kcfytzzg59zr5,3n1fsuefl9d7iez8usw7os1e4lm4di,eGky9cky,2020-0188,2021-10-30,22:55:45,00:00:07,NA,incomplete,false,NA,NA,true,3,2,NA,NA,NA,left,m_l_038.jpg,white,gray,NA,NA,NA,NA,NA,NA,NA,NA,NA,NaN,NA,2719,right,0,NA,NA,NA,NA,NA
eGky9cky,375vsr8fwzmfz1886kcfytzzg59zr5,3n1fsuefl9d7iez8usw7os1e4lm4di,eGky9cky,2020-0188,2021-10-30,22:55:45,00:00:07,NA,incomplete,false,NA,NA,true,3,3,NA,NA,NA,right,m_s_062.jpg,yellow,green,NA,NA,NA,NA,NA,NA,NA,NA,NA,NaN,NA,2310,right,1,NA,NA,NA,NA,NA
eGky9cky,375vsr8fwzmfz1886kcfytzzg59zr5,3n1fsuefl9d7iez8usw7os1e4lm4di,eGky9cky,2020-0188,2021-10-30,22:55:45,00:00:07,NA,incomplete,false,NA,NA,true,3,4,NA,NA,NA,right,m_l_063.jpg,yellow,green,NA,NA,NA,NA,NA,NA,NA,NA,NA,NaN,NA,3419,left,0,NA,NA,NA,NA,NA
eGky9cky,375vsr8fwzmfz1886kcfytzzg59zr5,3n1fsuefl9d7iez8usw7os1e4lm4di,eGky9cky,2020-0188,2021-10-30,22:55:45,00:00:07,NA,incomplete,false,NA,NA,true,3,5,NA,NA,NA,right,m_s_111.jpg,brown,purple,NA,NA,NA,NA,NA,NA,NA,NA,NA,NaN,NA,2303,right,1,NA,NA,NA,NA,NA
eGky9cky,375vsr8fwzmfz1886kcfytzzg59zr5,3n1fsuefl9d7iez8usw7os1e4lm4di,eGky9cky,2020-0188,2021-10-30,22:55:45,00:00:07,NA,incomplete,false,NA,NA,true,3,6,NA,NA,NA,left,n_s_048.jpg,green,yellow,NA,NA,NA,NA,NA,NA,NA,NA,NA,NaN,NA,1683,right,0,NA,NA,NA,NA,NA
eGky9cky,375vsr8fwzmfz1886kcfytzzg59zr5,3n1fsuefl9d7iez8usw7os1e4lm4di,eGky9cky,2020-0188,2021-10-30,22:55:45,00:00:07,NA,incomplete,false,NA,NA,true,3,7,NA,NA,NA,right,m_l_055.jpg,gray,white,NA,NA,NA,NA,NA,NA,NA,NA,NA,NaN,NA,2798,left,0,NA,NA,NA,NA,NA
eGky9cky,375vsr8fwzmfz1886kcfytzzg59zr5,3n1fsuefl9d7iez8usw7os1e4lm4di,eGky9cky,2020-0188,2021-10-30,22:55:45,00:00:07,NA,incomplete,false,NA,NA,true,3,8,NA,NA,NA,left,m_s_068.jpg,yellow,purple,NA,NA,NA,NA,NA,NA,NA,NA,NA,NaN,NA,2844,left,1,NA,NA,NA,NA,NA
eGky9cky,375vsr8fwzmfz1886kcfytzzg59zr5,3n1fsuefl9d7iez8usw7os1e4lm4di,eGky9cky,2020-0188,2021-10-30,22:55:45,00:00:07,NA,incomplete,false,NA,NA,true,3,9,NA,NA,NA,right,n_l_087.jpg,brown,gray,NA,NA,NA,NA,NA,NA,NA,NA,NA,NaN,NA,1716,right,1,NA,NA,NA,NA,NA
eGky9cky,375vsr8fwzmfz1886kcfytzzg59zr5,3n1fsuefl9d7iez8usw7os1e4lm4di,eGky9cky,2020-0188,2021-10-30,22:55:45,00:00:07,NA,incomplete,false,NA,NA,true,3,10,NA,NA,NA,right,n_s_023.jpg,gray,white,NA,NA,NA,NA,NA,NA,NA,NA,NA,NaN,NA,4600,left,0,NA,NA,NA,NA,NA
eGky9cky,375vsr8fwzmfz1886kcfytzzg59zr5,3n1fsuefl9d7iez8usw7os1e4lm4di,eGky9cky,2020-0188,2021-10-30,22:55:45,00:00:07,NA,incomplete,false,NA,NA,true,3,11,NA,NA,NA,left,n_l_037.jpg,yellow,purple,NA,NA,NA,NA,NA,NA,NA,NA,NA,NaN,NA,1323,left,1,NA,NA,NA,NA,NA
eGky9cky,375vsr8fwzmfz1886kcfytzzg59zr5,3n1fsuefl9d7iez8usw7os1e4lm4di,eGky9cky,2020-0188,2021-10-30,22:55:45,00:00:07,NA,incomplete,false,NA,NA,true,3,12,NA,NA,NA,right,n_s_044.jpg,yellow,purple,NA,NA,NA,NA,NA,NA,NA,NA,NA,NaN,NA,1400,right,1,NA,NA,NA,NA,NA
eGky9cky,375vsr8fwzmfz1886kcfytzzg59zr5,3n1fsuefl9d7iez8usw7os1e4lm4di,eGky9cky,2020-0188,2021-10-30,22:55:45,00:00:07,NA,incomplete,false,NA,NA,true,3,13,NA,NA,NA,left,n_l_046.jpg,purple,brown,NA,NA,NA,NA,NA,NA,NA,NA,NA,NaN,NA,3168,right,0,NA,NA,NA,NA,NA
eGky9cky,375vsr8fwzmfz1886kcfytzzg59zr5,3n1fsuefl9d7iez8usw7os1e4lm4di,eGky9cky,2020-0188,2021-10-30,22:55:45,00:00:07,NA,incomplete,false,NA,NA,true,3,14,NA,NA,NA,right,n_s_007.jpg,purple,brown,NA,NA,NA,NA,NA,NA,NA,NA,NA,NaN,NA,2954,left,0,NA,NA,NA,NA,NA
eGky9cky,375vsr8fwzmfz1886kcfytzzg59zr5,3n1fsuefl9d7iez8usw7os1e4lm4di,eGky9cky,2020-0188,2021-10-30,22:55:45,00:00:07,NA,incomplete,false,NA,NA,true,3,15,NA,NA,NA,left,m_s_084.jpg,gray,brown,NA,NA,NA,NA,NA,NA,NA,NA,NA,NaN,NA,1739,left,1,NA,NA,NA,NA,NA
eGky9cky,375vsr8fwzmfz1886kcfytzzg59zr5,3n1fsuefl9d7iez8usw7os1e4lm4di,eGky9cky,2020-0188,2021-10-30,22:55:45,00:00:07,NA,incomplete,false,NA,NA,true,3,16,NA,NA,NA,right,n_l_077.jpg,brown,purple,NA,NA,NA,NA,NA,NA,NA,NA,NA,NaN,NA,1697,right,1,NA,NA,NA,NA,NA
eGky9cky,375vsr8fwzmfz1886kcfytzzg59zr5,3n1fsuefl9d7iez8usw7os1e4lm4di,eGky9cky,2020-0188,2021-10-30,22:55:45,00:00:07,NA,incomplete,false,NA,NA,true,3,17,NA,NA,NA,left,m_s_023.jpg,brown,gray,NA,NA,NA,NA,NA,NA,NA,NA,NA,NaN,NA,3999,right,0,NA,NA,NA,NA,NA
eGky9cky,375vsr8fwzmfz1886kcfytzzg59zr5,3n1fsuefl9d7iez8usw7os1e4lm4di,eGky9cky,2020-0188,2021-10-30,22:55:45,00:00:07,NA,incomplete,false,NA,NA,true,3,18,NA,NA,NA,right,m_l_091.jpg,purple,brown,NA,NA,NA,NA,NA,NA,NA,NA,NA,NaN,NA,1205,right,1,NA,NA,NA,NA,NA
eGky9cky,375vsr8fwzmfz1886kcfytzzg59zr5,3n1fsuefl9d7iez8usw7os1e4lm4di,eGky9cky,2020-0188,2021-10-30,22:55:45,00:00:07,NA,incomplete,false,NA,NA,true,3,19,NA,NA,NA,left,n_l_110.jpg,gray,brown,NA,NA,NA,NA,NA,NA,NA,NA,NA,NaN,NA,1630,left,1,NA,NA,NA,NA,NA
eGky9cky,375vsr8fwzmfz1886kcfytzzg59zr5,3n1fsuefl9d7iez8usw7os1e4lm4di,eGky9cky,2020-0188,2021-10-30,22:55:45,00:00:07,NA,incomplete,false,NA,NA,true,3,20,NA,NA,NA,left,n_l_089.jpg,yellow,green,NA,NA,NA,NA,NA,NA,NA,NA,NA,NaN,NA,2373,left,1,NA,NA,NA,NA,NA
eGky9cky,375vsr8fwzmfz1886kcfytzzg59zr5,3n1fsuefl9d7iez8usw7os1e4lm4di,eGky9cky,2020-0188,2021-10-30,22:55:45,00:00:07,NA,incomplete,false,NA,NA,true,3,21,NA,NA,NA,left,n_s_014.jpg,gray,white,NA,NA,NA,NA,NA,NA,NA,NA,NA,NaN,NA,1525,left,1,NA,NA,NA,NA,NA
eGky9cky,375vsr8fwzmfz1886kcfytzzg59zr5,3n1fsuefl9d7iez8usw7os1e4lm4di,eGky9cky,2020-0188,2021-10-30,22:55:45,00:00:07,NA,incomplete,false,NA,true,NA,3,0,NA,NA,NA,right,NA,NA,NA,absent,NA,NA,m_l_063.jpg,green,m_s_068.jpg,yellow,between,NA,NaN,NA,NA,NA,NA,left,2429,0,1,1236
eGky9cky,375vsr8fwzmfz1886kcfytzzg59zr5,3n1fsuefl9d7iez8usw7os1e4lm4di,eGky9cky,2020-0188,2021-10-30,22:55:45,00:00:07,NA,incomplete,false,NA,true,NA,3,1,NA,NA,NA,right,NA,NA,NA,absent,NA,NA,n_l_037.jpg,yellow,n_l_077.jpg,purple,between,NA,NaN,NA,NA,NA,NA,right,2930,1,1,1583
eGky9cky,375vsr8fwzmfz1886kcfytzzg59zr5,3n1fsuefl9d7iez8usw7os1e4lm4di,eGky9cky,2020-0188,2021-10-30,22:55:45,00:00:07,NA,incomplete,false,NA,true,NA,3,2,NA,NA,NA,left,NA,NA,NA,absent,NA,NA,n_l_110.jpg,gray,m_s_084.jpg,gray,within,NA,NaN,NA,NA,NA,NA,left,1534,1,2,866
eGky9cky,375vsr8fwzmfz1886kcfytzzg59zr5,3n1fsuefl9d7iez8usw7os1e4lm4di,eGky9cky,2020-0188,2021-10-30,22:55:45,00:00:07,NA,incomplete,false,NA,true,NA,3,3,NA,NA,NA,right,NA,NA,NA,absent,NA,NA,m_l_034.jpg,brown,n_s_014.jpg,gray,between,NA,NaN,NA,NA,NA,NA,right,2973,1,3,757
eGky9cky,375vsr8fwzmfz1886kcfytzzg59zr5,3n1fsuefl9d7iez8usw7os1e4lm4di,eGky9cky,2020-0188,2021-10-30,22:55:45,00:00:07,NA,incomplete,false,NA,true,NA,3,4,NA,NA,NA,right,NA,NA,NA,absent,NA,NA,m_s_111.jpg,purple,n_s_007.jpg,brown,between,NA,NaN,NA,NA,NA,NA,left,2216,0,2,623
eGky9cky,375vsr8fwzmfz1886kcfytzzg59zr5,3n1fsuefl9d7iez8usw7os1e4lm4di,eGky9cky,2020-0188,2021-10-30,22:55:45,00:00:07,NA,incomplete,false,NA,true,NA,3,5,NA,NA,NA,left,NA,NA,NA,absent,NA,NA,n_s_049.jpg,yellow,n_l_089.jpg,yellow,within,NA,NaN,NA,NA,NA,NA,left,3042,1,0,1732
eGky9cky,375vsr8fwzmfz1886kcfytzzg59zr5,3n1fsuefl9d7iez8usw7os1e4lm4di,eGky9cky,2020-0188,2021-10-30,22:55:45,00:00:07,NA,incomplete,false,NA,true,NA,3,6,NA,NA,NA,right,NA,NA,NA,absent,NA,NA,n_l_046.jpg,purple,n_s_044.jpg,purple,within,NA,NaN,NA,NA,NA,NA,right,2521,1,1,779
eGky9cky,375vsr8fwzmfz1886kcfytzzg59zr5,3n1fsuefl9d7iez8usw7os1e4lm4di,eGky9cky,2020-0188,2021-10-30,22:55:45,00:00:07,NA,incomplete,false,NA,true,NA,3,7,NA,NA,NA,left,NA,NA,NA,absent,NA,NA,m_s_023.jpg,brown,m_l_091.jpg,brown,within,NA,NaN,NA,NA,NA,NA,left,3309,1,1,691
eGky9cky,375vsr8fwzmfz1886kcfytzzg59zr5,3n1fsuefl9d7iez8usw7os1e4lm4di,eGky9cky,2020-0188,2021-10-30,22:55:45,00:00:07,NA,incomplete,false,NA,true,NA,3,8,NA,NA,NA,right,NA,NA,NA,absent,NA,NA,m_l_055.jpg,white,m_l_038.jpg,white,within,NA,NaN,NA,NA,NA,NA,right,1441,1,2,786
eGky9cky,375vsr8fwzmfz1886kcfytzzg59zr5,3n1fsuefl9d7iez8usw7os1e4lm4di,eGky9cky,2020-0188,2021-10-30,22:55:45,00:00:07,NA,incomplete,false,NA,true,NA,3,9,NA,NA,NA,left,NA,NA,NA,absent,NA,NA,n_s_023.jpg,white,n_l_087.jpg,gray,between,NA,NaN,NA,NA,NA,NA,left,3303,1,0,1902
eGky9cky,375vsr8fwzmfz1886kcfytzzg59zr5,3n1fsuefl9d7iez8usw7os1e4lm4di,eGky9cky,2020-0188,2021-10-30,22:55:45,00:00:07,NA,incomplete,false,NA,true,NA,3,10,NA,NA,NA,left,NA,NA,NA,absent,NA,NA,m_s_062.jpg,green,n_s_048.jpg,green,within,NA,NaN,NA,NA,NA,NA,left,2158,1,2,1161
eGky9cky,375vsr8fwzmfz1886kcfytzzg59zr5,3n1fsuefl9d7iez8usw7os1e4lm4di,eGky9cky,2020-0188,2021-10-30,22:55:45,00:00:07,NA,incomplete,false,true,NA,NA,4,0,NA,white,m_s_046.jpg,NA,NA,NA,NA,NA,unpleasant,pleasant,NA,NA,NA,NA,NA,right,1337,true,NA,NA,NA,NA,NA,NA,NA,NA
eGky9cky,375vsr8fwzmfz1886kcfytzzg59zr5,3n1fsuefl9d7iez8usw7os1e4lm4di,eGky9cky,2020-0188,2021-10-30,22:55:45,00:00:07,NA,incomplete,false,true,NA,NA,4,1,NA,white,m_l_020.jpg,NA,NA,NA,NA,NA,unpleasant,pleasant,NA,NA,NA,NA,NA,right,877,true,NA,NA,NA,NA,NA,NA,NA,NA
eGky9cky,375vsr8fwzmfz1886kcfytzzg59zr5,3n1fsuefl9d7iez8usw7os1e4lm4di,eGky9cky,2020-0188,2021-10-30,22:55:45,00:00:07,NA,incomplete,false,true,NA,NA,4,2,NA,white,n_s_040.jpg,NA,NA,NA,NA,NA,unpleasant,pleasant,NA,NA,NA,NA,NA,left,1401,true,NA,NA,NA,NA,NA,NA,NA,NA
eGky9cky,375vsr8fwzmfz1886kcfytzzg59zr5,3n1fsuefl9d7iez8usw7os1e4lm4di,eGky9cky,2020-0188,2021-10-30,22:55:45,00:00:07,NA,incomplete,false,true,NA,NA,4,3,NA,white,n_s_104.jpg,NA,NA,NA,NA,NA,pleasant,unpleasant,NA,NA,NA,NA,NA,left,1644,true,NA,NA,NA,NA,NA,NA,NA,NA
eGky9cky,375vsr8fwzmfz1886kcfytzzg59zr5,3n1fsuefl9d7iez8usw7os1e4lm4di,eGky9cky,2020-0188,2021-10-30,22:55:45,00:00:07,NA,incomplete,false,true,NA,NA,4,4,NA,white,m_l_065.jpg,NA,NA,NA,NA,NA,unpleasant,pleasant,NA,NA,NA,NA,NA,right,1376,true,NA,NA,NA,NA,NA,NA,NA,NA
eGky9cky,375vsr8fwzmfz1886kcfytzzg59zr5,3n1fsuefl9d7iez8usw7os1e4lm4di,eGky9cky,2020-0188,2021-10-30,22:55:45,00:00:07,NA,incomplete,false,true,NA,NA,4,5,NA,white,n_s_003.jpg,NA,NA,NA,NA,NA,pleasant,unpleasant,NA,NA,NA,NA,NA,right,1316,true,NA,NA,NA,NA,NA,NA,NA,NA
eGky9cky,375vsr8fwzmfz1886kcfytzzg59zr5,3n1fsuefl9d7iez8usw7os1e4lm4di,eGky9cky,2020-0188,2021-10-30,22:55:45,00:00:07,NA,incomplete,false,true,NA,NA,4,6,NA,yellow,n_s_099.jpg,NA,NA,NA,NA,NA,pleasant,unpleasant,NA,NA,NA,NA,NA,left,1449,true,NA,NA,NA,NA,NA,NA,NA,NA
eGky9cky,375vsr8fwzmfz1886kcfytzzg59zr5,3n1fsuefl9d7iez8usw7os1e4lm4di,eGky9cky,2020-0188,2021-10-30,22:55:45,00:00:07,NA,incomplete,false,true,NA,NA,4,7,NA,yellow,m_l_073.jpg,NA,NA,NA,NA,NA,pleasant,unpleasant,NA,NA,NA,NA,NA,right,1396,true,NA,NA,NA,NA,NA,NA,NA,NA
eGky9cky,375vsr8fwzmfz1886kcfytzzg59zr5,3n1fsuefl9d7iez8usw7os1e4lm4di,eGky9cky,2020-0188,2021-10-30,22:55:45,00:00:07,NA,incomplete,false,true,NA,NA,4,8,NA,yellow,m_s_073.jpg,NA,NA,NA,NA,NA,pleasant,unpleasant,NA,NA,NA,NA,NA,left,1304,true,NA,NA,NA,NA,NA,NA,NA,NA
eGky9cky,375vsr8fwzmfz1886kcfytzzg59zr5,3n1fsuefl9d7iez8usw7os1e4lm4di,eGky9cky,2020-0188,2021-10-30,22:55:45,00:00:07,NA,incomplete,false,true,NA,NA,4,9,NA,yellow,m_s_039.jpg,NA,NA,NA,NA,NA,pleasant,unpleasant,NA,NA,NA,NA,NA,left,1235,true,NA,NA,NA,NA,NA,NA,NA,NA
eGky9cky,375vsr8fwzmfz1886kcfytzzg59zr5,3n1fsuefl9d7iez8usw7os1e4lm4di,eGky9cky,2020-0188,2021-10-30,22:55:45,00:00:07,NA,incomplete,false,true,NA,NA,4,10,NA,yellow,n_l_032.jpg,NA,NA,NA,NA,NA,pleasant,unpleasant,NA,NA,NA,NA,NA,left,1856,true,NA,NA,NA,NA,NA,NA,NA,NA
eGky9cky,375vsr8fwzmfz1886kcfytzzg59zr5,3n1fsuefl9d7iez8usw7os1e4lm4di,eGky9cky,2020-0188,2021-10-30,22:55:45,00:00:07,NA,incomplete,false,true,NA,NA,4,11,NA,yellow,n_l_021.jpg,NA,NA,NA,NA,NA,unpleasant,pleasant,NA,NA,NA,NA,NA,left,1757,true,NA,NA,NA,NA,NA,NA,NA,NA
eGky9cky,375vsr8fwzmfz1886kcfytzzg59zr5,3n1fsuefl9d7iez8usw7os1e4lm4di,eGky9cky,2020-0188,2021-10-30,22:55:45,00:00:07,NA,incomplete,false,true,NA,NA,4,12,NA,red,m_s_050.jpg,NA,NA,NA,NA,NA,pleasant,unpleasant,NA,NA,NA,NA,NA,right,1208,true,NA,NA,NA,NA,NA,NA,NA,NA
eGky9cky,375vsr8fwzmfz1886kcfytzzg59zr5,3n1fsuefl9d7iez8usw7os1e4lm4di,eGky9cky,2020-0188,2021-10-30,22:55:45,00:00:07,NA,incomplete,false,true,NA,NA,4,13,NA,red,n_s_080.jpg,NA,NA,NA,NA,NA,unpleasant,pleasant,NA,NA,NA,NA,NA,left,1034,true,NA,NA,NA,NA,NA,NA,NA,NA
eGky9cky,375vsr8fwzmfz1886kcfytzzg59zr5,3n1fsuefl9d7iez8usw7os1e4lm4di,eGky9cky,2020-0188,2021-10-30,22:55:45,00:00:07,NA,incomplete,false,true,NA,NA,4,14,NA,red,m_s_027.jpg,NA,NA,NA,NA,NA,pleasant,unpleasant,NA,NA,NA,NA,NA,left,1357,true,NA,NA,NA,NA,NA,NA,NA,NA
eGky9cky,375vsr8fwzmfz1886kcfytzzg59zr5,3n1fsuefl9d7iez8usw7os1e4lm4di,eGky9cky,2020-0188,2021-10-30,22:55:45,00:00:07,NA,incomplete,false,true,NA,NA,4,15,NA,red,m_s_032.jpg,NA,NA,NA,NA,NA,unpleasant,pleasant,NA,NA,NA,NA,NA,right,1298,true,NA,NA,NA,NA,NA,NA,NA,NA
eGky9cky,375vsr8fwzmfz1886kcfytzzg59zr5,3n1fsuefl9d7iez8usw7os1e4lm4di,eGky9cky,2020-0188,2021-10-30,22:55:45,00:00:07,NA,incomplete,false,true,NA,NA,4,16,NA,red,m_l_078.jpg,NA,NA,NA,NA,NA,pleasant,unpleasant,NA,NA,NA,NA,NA,right,1102,true,NA,NA,NA,NA,NA,NA,NA,NA
eGky9cky,375vsr8fwzmfz1886kcfytzzg59zr5,3n1fsuefl9d7iez8usw7os1e4lm4di,eGky9cky,2020-0188,2021-10-30,22:55:45,00:00:07,NA,incomplete,false,true,NA,NA,4,17,NA,red,m_l_077.jpg,NA,NA,NA,NA,NA,pleasant,unpleasant,NA,NA,NA,NA,NA,left,1232,true,NA,NA,NA,NA,NA,NA,NA,NA
eGky9cky,375vsr8fwzmfz1886kcfytzzg59zr5,3n1fsuefl9d7iez8usw7os1e4lm4di,eGky9cky,2020-0188,2021-10-30,22:55:45,00:00:07,NA,incomplete,false,true,NA,NA,4,18,NA,gray,n_s_085.jpg,NA,NA,NA,NA,NA,unpleasant,pleasant,NA,NA,NA,NA,NA,right,1772,true,NA,NA,NA,NA,NA,NA,NA,NA
eGky9cky,375vsr8fwzmfz1886kcfytzzg59zr5,3n1fsuefl9d7iez8usw7os1e4lm4di,eGky9cky,2020-0188,2021-10-30,22:55:45,00:00:07,NA,incomplete,false,true,NA,NA,4,19,NA,gray,n_s_079.jpg,NA,NA,NA,NA,NA,pleasant,unpleasant,NA,NA,NA,NA,NA,left,2090,true,NA,NA,NA,NA,NA,NA,NA,NA
eGky9cky,375vsr8fwzmfz1886kcfytzzg59zr5,3n1fsuefl9d7iez8usw7os1e4lm4di,eGky9cky,2020-0188,2021-10-30,22:55:45,00:00:07,NA,incomplete,false,true,NA,NA,4,20,NA,gray,n_s_038.jpg,NA,NA,NA,NA,NA,pleasant,unpleasant,NA,NA,NA,NA,NA,left,1424,true,NA,NA,NA,NA,NA,NA,NA,NA
eGky9cky,375vsr8fwzmfz1886kcfytzzg59zr5,3n1fsuefl9d7iez8usw7os1e4lm4di,eGky9cky,2020-0188,2021-10-30,22:55:45,00:00:07,NA,incomplete,false,true,NA,NA,4,21,NA,gray,n_s_005.jpg,NA,NA,NA,NA,NA,pleasant,unpleasant,NA,NA,NA,NA,NA,left,1234,true,NA,NA,NA,NA,NA,NA,NA,NA
eGky9cky,375vsr8fwzmfz1886kcfytzzg59zr5,3n1fsuefl9d7iez8usw7os1e4lm4di,eGky9cky,2020-0188,2021-10-30,22:55:45,00:00:07,NA,incomplete,false,true,NA,NA,4,22,NA,gray,m_s_108.jpg,NA,NA,NA,NA,NA,unpleasant,pleasant,NA,NA,NA,NA,NA,right,1396,true,NA,NA,NA,NA,NA,NA,NA,NA
eGky9cky,375vsr8fwzmfz1886kcfytzzg59zr5,3n1fsuefl9d7iez8usw7os1e4lm4di,eGky9cky,2020-0188,2021-10-30,22:55:45,00:00:07,NA,incomplete,false,true,NA,NA,4,23,NA,gray,n_l_102.jpg,NA,NA,NA,NA,NA,unpleasant,pleasant,NA,NA,NA,NA,NA,left,2240,true,NA,NA,NA,NA,NA,NA,NA,NA
eGky9cky,375vsr8fwzmfz1886kcfytzzg59zr5,3n1fsuefl9d7iez8usw7os1e4lm4di,eGky9cky,2020-0188,2021-10-30,22:55:45,00:00:07,NA,incomplete,false,true,NA,NA,4,24,NA,orange,m_s_024.jpg,NA,NA,NA,NA,NA,unpleasant,pleasant,NA,NA,NA,NA,NA,left,1507,true,NA,NA,NA,NA,NA,NA,NA,NA
eGky9cky,375vsr8fwzmfz1886kcfytzzg59zr5,3n1fsuefl9d7iez8usw7os1e4lm4di,eGky9cky,2020-0188,2021-10-30,22:55:45,00:00:07,NA,incomplete,false,true,NA,NA,4,25,NA,orange,n_l_050.jpg,NA,NA,NA,NA,NA,unpleasant,pleasant,NA,NA,NA,NA,NA,left,1120,true,NA,NA,NA,NA,NA,NA,NA,NA
eGky9cky,375vsr8fwzmfz1886kcfytzzg59zr5,3n1fsuefl9d7iez8usw7os1e4lm4di,eGky9cky,2020-0188,2021-10-30,22:55:45,00:00:07,NA,incomplete,false,true,NA,NA,4,26,NA,orange,n_s_073.jpg,NA,NA,NA,NA,NA,unpleasant,pleasant,NA,NA,NA,NA,NA,right,2052,true,NA,NA,NA,NA,NA,NA,NA,NA
eGky9cky,375vsr8fwzmfz1886kcfytzzg59zr5,3n1fsuefl9d7iez8usw7os1e4lm4di,eGky9cky,2020-0188,2021-10-30,22:55:45,00:00:07,NA,incomplete,false,true,NA,NA,4,27,NA,orange,m_l_102.jpg,NA,NA,NA,NA,NA,pleasant,unpleasant,NA,NA,NA,NA,NA,right,2281,true,NA,NA,NA,NA,NA,NA,NA,NA
eGky9cky,375vsr8fwzmfz1886kcfytzzg59zr5,3n1fsuefl9d7iez8usw7os1e4lm4di,eGky9cky,2020-0188,2021-10-30,22:55:45,00:00:07,NA,incomplete,false,true,NA,NA,4,28,NA,orange,m_s_015.jpg,NA,NA,NA,NA,NA,pleasant,unpleasant,NA,NA,NA,NA,NA,left,1950,true,NA,NA,NA,NA,NA,NA,NA,NA
eGky9cky,375vsr8fwzmfz1886kcfytzzg59zr5,3n1fsuefl9d7iez8usw7os1e4lm4di,eGky9cky,2020-0188,2021-10-30,22:55:45,00:00:07,NA,incomplete,false,true,NA,NA,4,29,NA,orange,m_l_023.jpg,NA,NA,NA,NA,NA,unpleasant,pleasant,NA,NA,NA,NA,NA,left,1408,true,NA,NA,NA,NA,NA,NA,NA,NA
eGky9cky,375vsr8fwzmfz1886kcfytzzg59zr5,3n1fsuefl9d7iez8usw7os1e4lm4di,eGky9cky,2020-0188,2021-10-30,22:55:45,00:00:07,NA,incomplete,false,true,NA,NA,4,30,NA,black,m_l_036.jpg,NA,NA,NA,NA,NA,unpleasant,pleasant,NA,NA,NA,NA,NA,right,1493,true,NA,NA,NA,NA,NA,NA,NA,NA
eGky9cky,375vsr8fwzmfz1886kcfytzzg59zr5,3n1fsuefl9d7iez8usw7os1e4lm4di,eGky9cky,2020-0188,2021-10-30,22:55:45,00:00:07,NA,incomplete,false,true,NA,NA,4,31,NA,black,n_l_062.jpg,NA,NA,NA,NA,NA,unpleasant,pleasant,NA,NA,NA,NA,NA,right,2583,true,NA,NA,NA,NA,NA,NA,NA,NA
eGky9cky,375vsr8fwzmfz1886kcfytzzg59zr5,3n1fsuefl9d7iez8usw7os1e4lm4di,eGky9cky,2020-0188,2021-10-30,22:55:45,00:00:07,NA,incomplete,false,true,NA,NA,4,32,NA,black,n_l_108.jpg,NA,NA,NA,NA,NA,pleasant,unpleasant,NA,NA,NA,NA,NA,left,1092,true,NA,NA,NA,NA,NA,NA,NA,NA
eGky9cky,375vsr8fwzmfz1886kcfytzzg59zr5,3n1fsuefl9d7iez8usw7os1e4lm4di,eGky9cky,2020-0188,2021-10-30,22:55:45,00:00:07,NA,incomplete,false,true,NA,NA,4,33,NA,black,m_s_006.jpg,NA,NA,NA,NA,NA,pleasant,unpleasant,NA,NA,NA,NA,NA,right,1369,true,NA,NA,NA,NA,NA,NA,NA,NA
eGky9cky,375vsr8fwzmfz1886kcfytzzg59zr5,3n1fsuefl9d7iez8usw7os1e4lm4di,eGky9cky,2020-0188,2021-10-30,22:55:45,00:00:07,NA,incomplete,false,true,NA,NA,4,34,NA,black,n_s_013.jpg,NA,NA,NA,NA,NA,pleasant,unpleasant,NA,NA,NA,NA,NA,right,1580,true,NA,NA,NA,NA,NA,NA,NA,NA
eGky9cky,375vsr8fwzmfz1886kcfytzzg59zr5,3n1fsuefl9d7iez8usw7os1e4lm4di,eGky9cky,2020-0188,2021-10-30,22:55:45,00:00:07,NA,incomplete,false,true,NA,NA,4,35,NA,black,m_s_017.jpg,NA,NA,NA,NA,NA,unpleasant,pleasant,NA,NA,NA,NA,NA,right,1346,true,NA,NA,NA,NA,NA,NA,NA,NA
eGky9cky,375vsr8fwzmfz1886kcfytzzg59zr5,3n1fsuefl9d7iez8usw7os1e4lm4di,eGky9cky,2020-0188,2021-10-30,22:55:45,00:00:07,NA,incomplete,false,NA,NA,true,4,0,NA,NA,NA,left,n_l_108.jpg,black,orange,NA,NA,NA,NA,NA,NA,NA,NA,NA,NaN,NA,3202,left,1,NA,NA,NA,NA,NA
eGky9cky,375vsr8fwzmfz1886kcfytzzg59zr5,3n1fsuefl9d7iez8usw7os1e4lm4di,eGky9cky,2020-0188,2021-10-30,22:55:45,00:00:07,NA,incomplete,false,NA,NA,true,4,1,NA,NA,NA,left,m_l_020.jpg,white,yellow,NA,NA,NA,NA,NA,NA,NA,NA,NA,NaN,NA,2509,left,1,NA,NA,NA,NA,NA
eGky9cky,375vsr8fwzmfz1886kcfytzzg59zr5,3n1fsuefl9d7iez8usw7os1e4lm4di,eGky9cky,2020-0188,2021-10-30,22:55:45,00:00:07,NA,incomplete,false,NA,NA,true,4,2,NA,NA,NA,right,n_l_021.jpg,red,yellow,NA,NA,NA,NA,NA,NA,NA,NA,NA,NaN,NA,1898,right,1,NA,NA,NA,NA,NA
eGky9cky,375vsr8fwzmfz1886kcfytzzg59zr5,3n1fsuefl9d7iez8usw7os1e4lm4di,eGky9cky,2020-0188,2021-10-30,22:55:45,00:00:07,NA,incomplete,false,NA,NA,true,4,3,NA,NA,NA,right,n_l_062.jpg,orange,black,NA,NA,NA,NA,NA,NA,NA,NA,NA,NaN,NA,1639,left,0,NA,NA,NA,NA,NA
eGky9cky,375vsr8fwzmfz1886kcfytzzg59zr5,3n1fsuefl9d7iez8usw7os1e4lm4di,eGky9cky,2020-0188,2021-10-30,22:55:45,00:00:07,NA,incomplete,false,NA,NA,true,4,4,NA,NA,NA,left,m_s_017.jpg,black,orange,NA,NA,NA,NA,NA,NA,NA,NA,NA,NaN,NA,1776,left,1,NA,NA,NA,NA,NA
eGky9cky,375vsr8fwzmfz1886kcfytzzg59zr5,3n1fsuefl9d7iez8usw7os1e4lm4di,eGky9cky,2020-0188,2021-10-30,22:55:45,00:00:07,NA,incomplete,false,NA,NA,true,4,5,NA,NA,NA,left,n_s_038.jpg,gray,orange,NA,NA,NA,NA,NA,NA,NA,NA,NA,NaN,NA,1212,left,1,NA,NA,NA,NA,NA
eGky9cky,375vsr8fwzmfz1886kcfytzzg59zr5,3n1fsuefl9d7iez8usw7os1e4lm4di,eGky9cky,2020-0188,2021-10-30,22:55:45,00:00:07,NA,incomplete,false,NA,NA,true,4,6,NA,NA,NA,left,m_l_065.jpg,white,yellow,NA,NA,NA,NA,NA,NA,NA,NA,NA,NaN,NA,2508,left,1,NA,NA,NA,NA,NA
eGky9cky,375vsr8fwzmfz1886kcfytzzg59zr5,3n1fsuefl9d7iez8usw7os1e4lm4di,eGky9cky,2020-0188,2021-10-30,22:55:45,00:00:07,NA,incomplete,false,NA,NA,true,4,7,NA,NA,NA,left,n_l_032.jpg,yellow,white,NA,NA,NA,NA,NA,NA,NA,NA,NA,NaN,NA,2274,left,1,NA,NA,NA,NA,NA
eGky9cky,375vsr8fwzmfz1886kcfytzzg59zr5,3n1fsuefl9d7iez8usw7os1e4lm4di,eGky9cky,2020-0188,2021-10-30,22:55:45,00:00:07,NA,incomplete,false,NA,NA,true,4,8,NA,NA,NA,right,n_l_102.jpg,orange,gray,NA,NA,NA,NA,NA,NA,NA,NA,NA,NaN,NA,2494,right,1,NA,NA,NA,NA,NA
eGky9cky,375vsr8fwzmfz1886kcfytzzg59zr5,3n1fsuefl9d7iez8usw7os1e4lm4di,eGky9cky,2020-0188,2021-10-30,22:55:45,00:00:07,NA,incomplete,false,NA,NA,true,4,9,NA,NA,NA,left,m_l_077.jpg,red,yellow,NA,NA,NA,NA,NA,NA,NA,NA,NA,NaN,NA,1212,left,1,NA,NA,NA,NA,NA
eGky9cky,375vsr8fwzmfz1886kcfytzzg59zr5,3n1fsuefl9d7iez8usw7os1e4lm4di,eGky9cky,2020-0188,2021-10-30,22:55:45,00:00:07,NA,incomplete,false,NA,NA,true,4,10,NA,NA,NA,left,n_s_073.jpg,orange,black,NA,NA,NA,NA,NA,NA,NA,NA,NA,NaN,NA,1665,left,1,NA,NA,NA,NA,NA
eGky9cky,375vsr8fwzmfz1886kcfytzzg59zr5,3n1fsuefl9d7iez8usw7os1e4lm4di,eGky9cky,2020-0188,2021-10-30,22:55:45,00:00:07,NA,incomplete,false,NA,NA,true,4,11,NA,NA,NA,left,n_s_080.jpg,red,gray,NA,NA,NA,NA,NA,NA,NA,NA,NA,NaN,NA,1079,left,1,NA,NA,NA,NA,NA
eGky9cky,375vsr8fwzmfz1886kcfytzzg59zr5,3n1fsuefl9d7iez8usw7os1e4lm4di,eGky9cky,2020-0188,2021-10-30,22:55:45,00:00:07,NA,incomplete,false,NA,NA,true,4,12,NA,NA,NA,left,m_s_108.jpg,gray,orange,NA,NA,NA,NA,NA,NA,NA,NA,NA,NaN,NA,3204,right,0,NA,NA,NA,NA,NA
eGky9cky,375vsr8fwzmfz1886kcfytzzg59zr5,3n1fsuefl9d7iez8usw7os1e4lm4di,eGky9cky,2020-0188,2021-10-30,22:55:45,00:00:07,NA,incomplete,false,NA,NA,true,4,13,NA,NA,NA,left,m_s_027.jpg,red,gray,NA,NA,NA,NA,NA,NA,NA,NA,NA,NaN,NA,1379,left,1,NA,NA,NA,NA,NA
eGky9cky,375vsr8fwzmfz1886kcfytzzg59zr5,3n1fsuefl9d7iez8usw7os1e4lm4di,eGky9cky,2020-0188,2021-10-30,22:55:45,00:00:07,NA,incomplete,false,NA,NA,true,4,14,NA,NA,NA,left,m_s_015.jpg,orange,gray,NA,NA,NA,NA,NA,NA,NA,NA,NA,NaN,NA,1294,left,1,NA,NA,NA,NA,NA
eGky9cky,375vsr8fwzmfz1886kcfytzzg59zr5,3n1fsuefl9d7iez8usw7os1e4lm4di,eGky9cky,2020-0188,2021-10-30,22:55:45,00:00:07,NA,incomplete,false,NA,NA,true,4,15,NA,NA,NA,left,n_s_079.jpg,gray,orange,NA,NA,NA,NA,NA,NA,NA,NA,NA,NaN,NA,1341,left,1,NA,NA,NA,NA,NA
eGky9cky,375vsr8fwzmfz1886kcfytzzg59zr5,3n1fsuefl9d7iez8usw7os1e4lm4di,eGky9cky,2020-0188,2021-10-30,22:55:45,00:00:07,NA,incomplete,false,NA,NA,true,4,16,NA,NA,NA,left,n_s_003.jpg,white,yellow,NA,NA,NA,NA,NA,NA,NA,NA,NA,NaN,NA,2536,right,0,NA,NA,NA,NA,NA
eGky9cky,375vsr8fwzmfz1886kcfytzzg59zr5,3n1fsuefl9d7iez8usw7os1e4lm4di,eGky9cky,2020-0188,2021-10-30,22:55:45,00:00:07,NA,incomplete,false,NA,NA,true,4,17,NA,NA,NA,right,m_l_023.jpg,gray,orange,NA,NA,NA,NA,NA,NA,NA,NA,NA,NaN,NA,3437,left,0,NA,NA,NA,NA,NA
eGky9cky,375vsr8fwzmfz1886kcfytzzg59zr5,3n1fsuefl9d7iez8usw7os1e4lm4di,eGky9cky,2020-0188,2021-10-30,22:55:45,00:00:07,NA,incomplete,false,NA,NA,true,4,18,NA,NA,NA,right,m_l_078.jpg,gray,red,NA,NA,NA,NA,NA,NA,NA,NA,NA,NaN,NA,1502,right,1,NA,NA,NA,NA,NA
eGky9cky,375vsr8fwzmfz1886kcfytzzg59zr5,3n1fsuefl9d7iez8usw7os1e4lm4di,eGky9cky,2020-0188,2021-10-30,22:55:45,00:00:07,NA,incomplete,false,NA,NA,true,4,19,NA,NA,NA,left,m_l_073.jpg,yellow,red,NA,NA,NA,NA,NA,NA,NA,NA,NA,NaN,NA,1125,left,1,NA,NA,NA,NA,NA
eGky9cky,375vsr8fwzmfz1886kcfytzzg59zr5,3n1fsuefl9d7iez8usw7os1e4lm4di,eGky9cky,2020-0188,2021-10-30,22:55:45,00:00:07,NA,incomplete,false,NA,NA,true,4,20,NA,NA,NA,right,n_l_050.jpg,black,orange,NA,NA,NA,NA,NA,NA,NA,NA,NA,NaN,NA,2019,right,1,NA,NA,NA,NA,NA
eGky9cky,375vsr8fwzmfz1886kcfytzzg59zr5,3n1fsuefl9d7iez8usw7os1e4lm4di,eGky9cky,2020-0188,2021-10-30,22:55:45,00:00:07,NA,incomplete,false,NA,NA,true,4,21,NA,NA,NA,left,m_s_073.jpg,yellow,white,NA,NA,NA,NA,NA,NA,NA,NA,NA,NaN,NA,1076,left,1,NA,NA,NA,NA,NA
eGky9cky,375vsr8fwzmfz1886kcfytzzg59zr5,3n1fsuefl9d7iez8usw7os1e4lm4di,eGky9cky,2020-0188,2021-10-30,22:55:45,00:00:07,NA,incomplete,false,NA,true,NA,4,0,NA,NA,NA,left,NA,NA,NA,absent,NA,NA,m_l_073.jpg,yellow,n_l_021.jpg,yellow,within,NA,NaN,NA,NA,NA,NA,left,2438,1,1,833
eGky9cky,375vsr8fwzmfz1886kcfytzzg59zr5,3n1fsuefl9d7iez8usw7os1e4lm4di,eGky9cky,2020-0188,2021-10-30,22:55:45,00:00:07,NA,incomplete,false,NA,true,NA,4,1,NA,NA,NA,left,NA,NA,NA,absent,NA,NA,n_s_080.jpg,red,m_l_077.jpg,red,within,NA,NaN,NA,NA,NA,NA,left,4938,1,0,776
eGky9cky,375vsr8fwzmfz1886kcfytzzg59zr5,3n1fsuefl9d7iez8usw7os1e4lm4di,eGky9cky,2020-0188,2021-10-30,22:55:45,00:00:07,NA,incomplete,false,NA,true,NA,4,2,NA,NA,NA,left,NA,NA,NA,absent,NA,NA,m_s_108.jpg,gray,n_s_073.jpg,orange,between,NA,NaN,NA,NA,NA,NA,right,2995,0,1,1071
eGky9cky,375vsr8fwzmfz1886kcfytzzg59zr5,3n1fsuefl9d7iez8usw7os1e4lm4di,eGky9cky,2020-0188,2021-10-30,22:55:45,00:00:07,NA,incomplete,false,NA,true,NA,4,3,NA,NA,NA,left,NA,NA,NA,absent,NA,NA,m_l_020.jpg,white,n_s_003.jpg,white,within,NA,NaN,NA,NA,NA,NA,right,1554,0,2,1098
eGky9cky,375vsr8fwzmfz1886kcfytzzg59zr5,3n1fsuefl9d7iez8usw7os1e4lm4di,eGky9cky,2020-0188,2021-10-30,22:55:45,00:00:07,NA,incomplete,false,NA,true,NA,4,4,NA,NA,NA,left,NA,NA,NA,absent,NA,NA,n_s_079.jpg,gray,n_l_102.jpg,gray,within,NA,NaN,NA,NA,NA,NA,left,3684,1,0,1027
eGky9cky,375vsr8fwzmfz1886kcfytzzg59zr5,3n1fsuefl9d7iez8usw7os1e4lm4di,eGky9cky,2020-0188,2021-10-30,22:55:45,00:00:07,NA,incomplete,false,NA,true,NA,4,5,NA,NA,NA,left,NA,NA,NA,absent,NA,NA,n_l_062.jpg,black,m_s_017.jpg,black,within,NA,NaN,NA,NA,NA,NA,right,2276,0,2,1283
eGky9cky,375vsr8fwzmfz1886kcfytzzg59zr5,3n1fsuefl9d7iez8usw7os1e4lm4di,eGky9cky,2020-0188,2021-10-30,22:55:45,00:00:07,NA,incomplete,false,NA,true,NA,4,6,NA,NA,NA,right,NA,NA,NA,absent,NA,NA,n_l_108.jpg,black,m_s_015.jpg,orange,between,NA,NaN,NA,NA,NA,NA,right,2290,1,1,1016
eGky9cky,375vsr8fwzmfz1886kcfytzzg59zr5,3n1fsuefl9d7iez8usw7os1e4lm4di,eGky9cky,2020-0188,2021-10-30,22:55:45,00:00:07,NA,incomplete,false,NA,true,NA,4,7,NA,NA,NA,right,NA,NA,NA,absent,NA,NA,m_s_027.jpg,red,n_l_032.jpg,yellow,between,NA,NaN,NA,NA,NA,NA,right,4622,1,2,1123
eGky9cky,375vsr8fwzmfz1886kcfytzzg59zr5,3n1fsuefl9d7iez8usw7os1e4lm4di,eGky9cky,2020-0188,2021-10-30,22:55:45,00:00:07,NA,incomplete,false,NA,true,NA,4,8,NA,NA,NA,right,NA,NA,NA,absent,NA,NA,m_l_023.jpg,orange,n_l_050.jpg,orange,within,NA,NaN,NA,NA,NA,NA,right,1994,1,3,727
eGky9cky,375vsr8fwzmfz1886kcfytzzg59zr5,3n1fsuefl9d7iez8usw7os1e4lm4di,eGky9cky,2020-0188,2021-10-30,22:55:45,00:00:07,NA,incomplete,false,NA,true,NA,4,9,NA,NA,NA,left,NA,NA,NA,absent,NA,NA,m_l_078.jpg,red,n_s_038.jpg,gray,between,NA,NaN,NA,NA,NA,NA,left,2496,1,1,783
eGky9cky,375vsr8fwzmfz1886kcfytzzg59zr5,3n1fsuefl9d7iez8usw7os1e4lm4di,eGky9cky,2020-0188,2021-10-30,22:55:45,00:00:07,NA,incomplete,false,NA,true,NA,4,10,NA,NA,NA,left,NA,NA,NA,absent,NA,NA,m_l_065.jpg,white,m_s_073.jpg,yellow,between,NA,NaN,NA,NA,NA,NA,right,1357,0,2,842
eGky9cky,375vsr8fwzmfz1886kcfytzzg59zr5,3n1fsuefl9d7iez8usw7os1e4lm4di,eGky9cky,2020-0188,2021-10-30,22:55:45,00:00:07,NA,incomplete,false,true,NA,NA,5,0,NA,red,n_l_111.jpg,NA,NA,NA,NA,NA,unpleasant,pleasant,NA,NA,NA,NA,NA,left,1447,true,NA,NA,NA,NA,NA,NA,NA,NA
eGky9cky,375vsr8fwzmfz1886kcfytzzg59zr5,3n1fsuefl9d7iez8usw7os1e4lm4di,eGky9cky,2020-0188,2021-10-30,22:55:45,00:00:07,NA,incomplete,false,true,NA,NA,5,1,NA,red,n_l_067.jpg,NA,NA,NA,NA,NA,unpleasant,pleasant,NA,NA,NA,NA,NA,left,2157,true,NA,NA,NA,NA,NA,NA,NA,NA
eGky9cky,375vsr8fwzmfz1886kcfytzzg59zr5,3n1fsuefl9d7iez8usw7os1e4lm4di,eGky9cky,2020-0188,2021-10-30,22:55:45,00:00:07,NA,incomplete,false,true,NA,NA,5,2,NA,red,n_l_023.jpg,NA,NA,NA,NA,NA,pleasant,unpleasant,NA,NA,NA,NA,NA,left,1985,true,NA,NA,NA,NA,NA,NA,NA,NA
eGky9cky,375vsr8fwzmfz1886kcfytzzg59zr5,3n1fsuefl9d7iez8usw7os1e4lm4di,eGky9cky,2020-0188,2021-10-30,22:55:45,00:00:07,NA,incomplete,false,true,NA,NA,5,3,NA,red,n_l_113.jpg,NA,NA,NA,NA,NA,pleasant,unpleasant,NA,NA,NA,NA,NA,right,1163,true,NA,NA,NA,NA,NA,NA,NA,NA
eGky9cky,375vsr8fwzmfz1886kcfytzzg59zr5,3n1fsuefl9d7iez8usw7os1e4lm4di,eGky9cky,2020-0188,2021-10-30,22:55:45,00:00:07,NA,incomplete,false,true,NA,NA,5,4,NA,red,m_s_049.jpg,NA,NA,NA,NA,NA,pleasant,unpleasant,NA,NA,NA,NA,NA,left,976,true,NA,NA,NA,NA,NA,NA,NA,NA
eGky9cky,375vsr8fwzmfz1886kcfytzzg59zr5,3n1fsuefl9d7iez8usw7os1e4lm4di,eGky9cky,2020-0188,2021-10-30,22:55:45,00:00:07,NA,incomplete,false,true,NA,NA,5,5,NA,red,n_l_018.jpg,NA,NA,NA,NA,NA,unpleasant,pleasant,NA,NA,NA,NA,NA,left,2240,true,NA,NA,NA,NA,NA,NA,NA,NA
eGky9cky,375vsr8fwzmfz1886kcfytzzg59zr5,3n1fsuefl9d7iez8usw7os1e4lm4di,eGky9cky,2020-0188,2021-10-30,22:55:45,00:00:07,NA,incomplete,false,true,NA,NA,5,6,NA,white,n_l_058.jpg,NA,NA,NA,NA,NA,pleasant,unpleasant,NA,NA,NA,NA,NA,left,1748,true,NA,NA,NA,NA,NA,NA,NA,NA
eGky9cky,375vsr8fwzmfz1886kcfytzzg59zr5,3n1fsuefl9d7iez8usw7os1e4lm4di,eGky9cky,2020-0188,2021-10-30,22:55:45,00:00:07,NA,incomplete,false,true,NA,NA,5,7,NA,white,m_s_102.jpg,NA,NA,NA,NA,NA,pleasant,unpleasant,NA,NA,NA,NA,NA,left,1016,true,NA,NA,NA,NA,NA,NA,NA,NA
eGky9cky,375vsr8fwzmfz1886kcfytzzg59zr5,3n1fsuefl9d7iez8usw7os1e4lm4di,eGky9cky,2020-0188,2021-10-30,22:55:45,00:00:07,NA,incomplete,false,true,NA,NA,5,8,NA,white,m_l_080.jpg,NA,NA,NA,NA,NA,unpleasant,pleasant,NA,NA,NA,NA,NA,right,934,true,NA,NA,NA,NA,NA,NA,NA,NA
eGky9cky,375vsr8fwzmfz1886kcfytzzg59zr5,3n1fsuefl9d7iez8usw7os1e4lm4di,eGky9cky,2020-0188,2021-10-30,22:55:45,00:00:07,NA,incomplete,false,true,NA,NA,5,9,NA,white,n_s_058.jpg,NA,NA,NA,NA,NA,pleasant,unpleasant,NA,NA,NA,NA,NA,left,2555,true,NA,NA,NA,NA,NA,NA,NA,NA
eGky9cky,375vsr8fwzmfz1886kcfytzzg59zr5,3n1fsuefl9d7iez8usw7os1e4lm4di,eGky9cky,2020-0188,2021-10-30,22:55:45,00:00:07,NA,incomplete,false,true,NA,NA,5,10,NA,white,n_l_082.jpg,NA,NA,NA,NA,NA,unpleasant,pleasant,NA,NA,NA,NA,NA,right,1173,true,NA,NA,NA,NA,NA,NA,NA,NA
eGky9cky,375vsr8fwzmfz1886kcfytzzg59zr5,3n1fsuefl9d7iez8usw7os1e4lm4di,eGky9cky,2020-0188,2021-10-30,22:55:45,00:00:07,NA,incomplete,false,true,NA,NA,5,11,NA,white,n_s_063.jpg,NA,NA,NA,NA,NA,pleasant,unpleasant,NA,NA,NA,NA,NA,right,1607,true,NA,NA,NA,NA,NA,NA,NA,NA
eGky9cky,375vsr8fwzmfz1886kcfytzzg59zr5,3n1fsuefl9d7iez8usw7os1e4lm4di,eGky9cky,2020-0188,2021-10-30,22:55:45,00:00:07,NA,incomplete,false,true,NA,NA,5,12,NA,brown,n_s_076.jpg,NA,NA,NA,NA,NA,unpleasant,pleasant,NA,NA,NA,NA,NA,left,1278,true,NA,NA,NA,NA,NA,NA,NA,NA
eGky9cky,375vsr8fwzmfz1886kcfytzzg59zr5,3n1fsuefl9d7iez8usw7os1e4lm4di,eGky9cky,2020-0188,2021-10-30,22:55:45,00:00:07,NA,incomplete,false,true,NA,NA,5,13,NA,brown,m_l_099.jpg,NA,NA,NA,NA,NA,pleasant,unpleasant,NA,NA,NA,NA,NA,right,1609,true,NA,NA,NA,NA,NA,NA,NA,NA
eGky9cky,375vsr8fwzmfz1886kcfytzzg59zr5,3n1fsuefl9d7iez8usw7os1e4lm4di,eGky9cky,2020-0188,2021-10-30,22:55:45,00:00:07,NA,incomplete,false,true,NA,NA,5,14,NA,brown,n_l_101.jpg,NA,NA,NA,NA,NA,unpleasant,pleasant,NA,NA,NA,NA,NA,left,1051,true,NA,NA,NA,NA,NA,NA,NA,NA
eGky9cky,375vsr8fwzmfz1886kcfytzzg59zr5,3n1fsuefl9d7iez8usw7os1e4lm4di,eGky9cky,2020-0188,2021-10-30,22:55:45,00:00:07,NA,incomplete,false,true,NA,NA,5,15,NA,brown,n_l_104.jpg,NA,NA,NA,NA,NA,pleasant,unpleasant,NA,NA,NA,NA,NA,left,1775,true,NA,NA,NA,NA,NA,NA,NA,NA
eGky9cky,375vsr8fwzmfz1886kcfytzzg59zr5,3n1fsuefl9d7iez8usw7os1e4lm4di,eGky9cky,2020-0188,2021-10-30,22:55:45,00:00:07,NA,incomplete,false,true,NA,NA,5,16,NA,brown,m_s_020.jpg,NA,NA,NA,NA,NA,unpleasant,pleasant,NA,NA,NA,NA,NA,left,1009,true,NA,NA,NA,NA,NA,NA,NA,NA
eGky9cky,375vsr8fwzmfz1886kcfytzzg59zr5,3n1fsuefl9d7iez8usw7os1e4lm4di,eGky9cky,2020-0188,2021-10-30,22:55:45,00:00:07,NA,incomplete,false,true,NA,NA,5,17,NA,brown,m_l_041.jpg,NA,NA,NA,NA,NA,unpleasant,pleasant,NA,NA,NA,NA,NA,left,1477,true,NA,NA,NA,NA,NA,NA,NA,NA
eGky9cky,375vsr8fwzmfz1886kcfytzzg59zr5,3n1fsuefl9d7iez8usw7os1e4lm4di,eGky9cky,2020-0188,2021-10-30,22:55:45,00:00:07,NA,incomplete,false,true,NA,NA,5,18,NA,yellow,n_s_002.jpg,NA,NA,NA,NA,NA,pleasant,unpleasant,NA,NA,NA,NA,NA,left,1752,true,NA,NA,NA,NA,NA,NA,NA,NA
eGky9cky,375vsr8fwzmfz1886kcfytzzg59zr5,3n1fsuefl9d7iez8usw7os1e4lm4di,eGky9cky,2020-0188,2021-10-30,22:55:45,00:00:07,NA,incomplete,false,true,NA,NA,5,19,NA,yellow,m_s_022.jpg,NA,NA,NA,NA,NA,pleasant,unpleasant,NA,NA,NA,NA,NA,right,1710,true,NA,NA,NA,NA,NA,NA,NA,NA
eGky9cky,375vsr8fwzmfz1886kcfytzzg59zr5,3n1fsuefl9d7iez8usw7os1e4lm4di,eGky9cky,2020-0188,2021-10-30,22:55:45,00:00:07,NA,incomplete,false,true,NA,NA,5,20,NA,yellow,n_s_031.jpg,NA,NA,NA,NA,NA,unpleasant,pleasant,NA,NA,NA,NA,NA,left,1393,true,NA,NA,NA,NA,NA,NA,NA,NA
eGky9cky,375vsr8fwzmfz1886kcfytzzg59zr5,3n1fsuefl9d7iez8usw7os1e4lm4di,eGky9cky,2020-0188,2021-10-30,22:55:45,00:00:07,NA,incomplete,false,true,NA,NA,5,21,NA,yellow,m_l_061.jpg,NA,NA,NA,NA,NA,unpleasant,pleasant,NA,NA,NA,NA,NA,left,965,true,NA,NA,NA,NA,NA,NA,NA,NA
eGky9cky,375vsr8fwzmfz1886kcfytzzg59zr5,3n1fsuefl9d7iez8usw7os1e4lm4di,eGky9cky,2020-0188,2021-10-30,22:55:45,00:00:07,NA,incomplete,false,true,NA,NA,5,22,NA,yellow,n_s_030.jpg,NA,NA,NA,NA,NA,pleasant,unpleasant,NA,NA,NA,NA,NA,right,1031,true,NA,NA,NA,NA,NA,NA,NA,NA
eGky9cky,375vsr8fwzmfz1886kcfytzzg59zr5,3n1fsuefl9d7iez8usw7os1e4lm4di,eGky9cky,2020-0188,2021-10-30,22:55:45,00:00:07,NA,incomplete,false,true,NA,NA,5,23,NA,yellow,n_l_079.jpg,NA,NA,NA,NA,NA,unpleasant,pleasant,NA,NA,NA,NA,NA,left,1143,true,NA,NA,NA,NA,NA,NA,NA,NA
eGky9cky,375vsr8fwzmfz1886kcfytzzg59zr5,3n1fsuefl9d7iez8usw7os1e4lm4di,eGky9cky,2020-0188,2021-10-30,22:55:45,00:00:07,NA,incomplete,false,true,NA,NA,5,24,NA,blue,n_s_088.jpg,NA,NA,NA,NA,NA,unpleasant,pleasant,NA,NA,NA,NA,NA,left,1505,true,NA,NA,NA,NA,NA,NA,NA,NA
eGky9cky,375vsr8fwzmfz1886kcfytzzg59zr5,3n1fsuefl9d7iez8usw7os1e4lm4di,eGky9cky,2020-0188,2021-10-30,22:55:45,00:00:07,NA,incomplete,false,true,NA,NA,5,25,NA,blue,m_l_116.jpg,NA,NA,NA,NA,NA,pleasant,unpleasant,NA,NA,NA,NA,NA,right,972,true,NA,NA,NA,NA,NA,NA,NA,NA
eGky9cky,375vsr8fwzmfz1886kcfytzzg59zr5,3n1fsuefl9d7iez8usw7os1e4lm4di,eGky9cky,2020-0188,2021-10-30,22:55:45,00:00:07,NA,incomplete,false,true,NA,NA,5,26,NA,blue,n_s_084.jpg,NA,NA,NA,NA,NA,unpleasant,pleasant,NA,NA,NA,NA,NA,left,1187,true,NA,NA,NA,NA,NA,NA,NA,NA
eGky9cky,375vsr8fwzmfz1886kcfytzzg59zr5,3n1fsuefl9d7iez8usw7os1e4lm4di,eGky9cky,2020-0188,2021-10-30,22:55:45,00:00:07,NA,incomplete,false,true,NA,NA,5,27,NA,blue,n_s_024.jpg,NA,NA,NA,NA,NA,pleasant,unpleasant,NA,NA,NA,NA,NA,right,1028,true,NA,NA,NA,NA,NA,NA,NA,NA
eGky9cky,375vsr8fwzmfz1886kcfytzzg59zr5,3n1fsuefl9d7iez8usw7os1e4lm4di,eGky9cky,2020-0188,2021-10-30,22:55:45,00:00:07,NA,incomplete,false,true,NA,NA,5,28,NA,blue,n_s_096.jpg,NA,NA,NA,NA,NA,pleasant,unpleasant,NA,NA,NA,NA,NA,left,1545,true,NA,NA,NA,NA,NA,NA,NA,NA
eGky9cky,375vsr8fwzmfz1886kcfytzzg59zr5,3n1fsuefl9d7iez8usw7os1e4lm4di,eGky9cky,2020-0188,2021-10-30,22:55:45,00:00:07,NA,incomplete,false,true,NA,NA,5,29,NA,blue,m_s_052.jpg,NA,NA,NA,NA,NA,pleasant,unpleasant,NA,NA,NA,NA,NA,left,1334,true,NA,NA,NA,NA,NA,NA,NA,NA
eGky9cky,375vsr8fwzmfz1886kcfytzzg59zr5,3n1fsuefl9d7iez8usw7os1e4lm4di,eGky9cky,2020-0188,2021-10-30,22:55:45,00:00:07,NA,incomplete,false,true,NA,NA,5,30,NA,green,n_s_060.jpg,NA,NA,NA,NA,NA,unpleasant,pleasant,NA,NA,NA,NA,NA,right,1465,true,NA,NA,NA,NA,NA,NA,NA,NA
eGky9cky,375vsr8fwzmfz1886kcfytzzg59zr5,3n1fsuefl9d7iez8usw7os1e4lm4di,eGky9cky,2020-0188,2021-10-30,22:55:45,00:00:07,NA,incomplete,false,true,NA,NA,5,31,NA,green,n_s_032.jpg,NA,NA,NA,NA,NA,pleasant,unpleasant,NA,NA,NA,NA,NA,right,1454,true,NA,NA,NA,NA,NA,NA,NA,NA
eGky9cky,375vsr8fwzmfz1886kcfytzzg59zr5,3n1fsuefl9d7iez8usw7os1e4lm4di,eGky9cky,2020-0188,2021-10-30,22:55:45,00:00:07,NA,incomplete,false,true,NA,NA,5,32,NA,green,n_l_086.jpg,NA,NA,NA,NA,NA,pleasant,unpleasant,NA,NA,NA,NA,NA,left,1835,true,NA,NA,NA,NA,NA,NA,NA,NA
