workerId,hitId,assignmentId,subject,studyid,exp_date,exp_start,exp_end,time_start,time_end,practice,encoding,memory,association,block,trial,event_order,event,stim,answer,object,left_context,right_context,context_type,label_left,label_right,left_image,left_event,right_image,right_event,condition,response,response_time,response_acc,association_response_time,association_response,association_acc,order_response,order_response_time,order_acc,distance_response,distance_response_time
daoAKQWc,39kv3a5d2bk8g62f2ek1xjbwsefs7u,3n1fsuefl9d7iez8usw7os1e4lnd4s,daoAKQWc,2020-0188,2021-10-31,02:30:30,03:46:47,NA,incomplete,true,true,NA,NA,0,0,NA,red,m_s_089.jpg,NA,NA,NA,NA,NA,pleasant,unpleasant,NA,NA,NA,NA,NA,left,1779,true,NA,NA,NA,NA,NA,NA,NA,NA
daoAKQWc,39kv3a5d2bk8g62f2ek1xjbwsefs7u,3n1fsuefl9d7iez8usw7os1e4lnd4s,daoAKQWc,2020-0188,2021-10-31,02:30:30,03:46:47,NA,incomplete,true,true,NA,NA,0,1,NA,red,n_l_088.jpg,NA,NA,NA,NA,NA,unpleasant,pleasant,NA,NA,NA,NA,NA,right,2589,true,NA,NA,NA,NA,NA,NA,NA,NA
daoAKQWc,39kv3a5d2bk8g62f2ek1xjbwsefs7u,3n1fsuefl9d7iez8usw7os1e4lnd4s,daoAKQWc,2020-0188,2021-10-31,02:30:30,03:46:47,NA,incomplete,true,true,NA,NA,0,2,NA,red,m_s_060.jpg,NA,NA,NA,NA,NA,pleasant,unpleasant,NA,NA,NA,NA,NA,right,3152,true,NA,NA,NA,NA,NA,NA,NA,NA
daoAKQWc,39kv3a5d2bk8g62f2ek1xjbwsefs7u,3n1fsuefl9d7iez8usw7os1e4lnd4s,daoAKQWc,2020-0188,2021-10-31,02:30:30,03:46:47,NA,incomplete,true,true,NA,NA,0,3,NA,red,n_s_036.jpg,NA,NA,NA,NA,NA,pleasant,unpleasant,NA,NA,NA,NA,NA,right,1928,true,NA,NA,NA,NA,NA,NA,NA,NA
daoAKQWc,39kv3a5d2bk8g62f2ek1xjbwsefs7u,3n1fsuefl9d7iez8usw7os1e4lnd4s,daoAKQWc,2020-0188,2021-10-31,02:30:30,03:46:47,NA,incomplete,true,true,NA,NA,0,4,NA,red,m_s_028.jpg,NA,NA,NA,NA,NA,unpleasant,pleasant,NA,NA,NA,NA,NA,right,2559,true,NA,NA,NA,NA,NA,NA,NA,NA
daoAKQWc,39kv3a5d2bk8g62f2ek1xjbwsefs7u,3n1fsuefl9d7iez8usw7os1e4lnd4s,daoAKQWc,2020-0188,2021-10-31,02:30:30,03:46:47,NA,incomplete,true,true,NA,NA,0,5,NA,red,m_l_115.jpg,NA,NA,NA,NA,NA,pleasant,unpleasant,NA,NA,NA,NA,NA,left,1955,true,NA,NA,NA,NA,NA,NA,NA,NA
daoAKQWc,39kv3a5d2bk8g62f2ek1xjbwsefs7u,3n1fsuefl9d7iez8usw7os1e4lnd4s,daoAKQWc,2020-0188,2021-10-31,02:30:30,03:46:47,NA,incomplete,true,true,NA,NA,0,6,NA,brown,m_l_109.jpg,NA,NA,NA,NA,NA,unpleasant,pleasant,NA,NA,NA,NA,NA,left,2970,true,NA,NA,NA,NA,NA,NA,NA,NA
daoAKQWc,39kv3a5d2bk8g62f2ek1xjbwsefs7u,3n1fsuefl9d7iez8usw7os1e4lnd4s,daoAKQWc,2020-0188,2021-10-31,02:30:30,03:46:47,NA,incomplete,true,true,NA,NA,0,7,NA,brown,m_l_027.jpg,NA,NA,NA,NA,NA,pleasant,unpleasant,NA,NA,NA,NA,NA,right,1695,true,NA,NA,NA,NA,NA,NA,NA,NA
daoAKQWc,39kv3a5d2bk8g62f2ek1xjbwsefs7u,3n1fsuefl9d7iez8usw7os1e4lnd4s,daoAKQWc,2020-0188,2021-10-31,02:30:30,03:46:47,NA,incomplete,true,true,NA,NA,0,8,NA,brown,n_l_053.jpg,NA,NA,NA,NA,NA,pleasant,unpleasant,NA,NA,NA,NA,NA,left,1851,true,NA,NA,NA,NA,NA,NA,NA,NA
daoAKQWc,39kv3a5d2bk8g62f2ek1xjbwsefs7u,3n1fsuefl9d7iez8usw7os1e4lnd4s,daoAKQWc,2020-0188,2021-10-31,02:30:30,03:46:47,NA,incomplete,true,true,NA,NA,0,9,NA,brown,m_s_098.jpg,NA,NA,NA,NA,NA,unpleasant,pleasant,NA,NA,NA,NA,NA,left,1921,true,NA,NA,NA,NA,NA,NA,NA,NA
daoAKQWc,39kv3a5d2bk8g62f2ek1xjbwsefs7u,3n1fsuefl9d7iez8usw7os1e4lnd4s,daoAKQWc,2020-0188,2021-10-31,02:30:30,03:46:47,NA,incomplete,true,true,NA,NA,0,10,NA,brown,n_s_013.jpg,NA,NA,NA,NA,NA,unpleasant,pleasant,NA,NA,NA,NA,NA,left,1863,true,NA,NA,NA,NA,NA,NA,NA,NA
daoAKQWc,39kv3a5d2bk8g62f2ek1xjbwsefs7u,3n1fsuefl9d7iez8usw7os1e4lnd4s,daoAKQWc,2020-0188,2021-10-31,02:30:30,03:46:47,NA,incomplete,true,true,NA,NA,0,11,NA,brown,n_s_082.jpg,NA,NA,NA,NA,NA,unpleasant,pleasant,NA,NA,NA,NA,NA,left,1393,true,NA,NA,NA,NA,NA,NA,NA,NA
daoAKQWc,39kv3a5d2bk8g62f2ek1xjbwsefs7u,3n1fsuefl9d7iez8usw7os1e4lnd4s,daoAKQWc,2020-0188,2021-10-31,02:30:30,03:46:47,NA,incomplete,true,true,NA,NA,0,12,NA,yellow,n_l_013.jpg,NA,NA,NA,NA,NA,unpleasant,pleasant,NA,NA,NA,NA,NA,right,2111,true,NA,NA,NA,NA,NA,NA,NA,NA
daoAKQWc,39kv3a5d2bk8g62f2ek1xjbwsefs7u,3n1fsuefl9d7iez8usw7os1e4lnd4s,daoAKQWc,2020-0188,2021-10-31,02:30:30,03:46:47,NA,incomplete,true,true,NA,NA,0,13,NA,yellow,m_l_022.jpg,NA,NA,NA,NA,NA,unpleasant,pleasant,NA,NA,NA,NA,NA,right,2038,true,NA,NA,NA,NA,NA,NA,NA,NA
daoAKQWc,39kv3a5d2bk8g62f2ek1xjbwsefs7u,3n1fsuefl9d7iez8usw7os1e4lnd4s,daoAKQWc,2020-0188,2021-10-31,02:30:30,03:46:47,NA,incomplete,true,true,NA,NA,0,14,NA,yellow,n_s_091.jpg,NA,NA,NA,NA,NA,pleasant,unpleasant,NA,NA,NA,NA,NA,left,1677,true,NA,NA,NA,NA,NA,NA,NA,NA
daoAKQWc,39kv3a5d2bk8g62f2ek1xjbwsefs7u,3n1fsuefl9d7iez8usw7os1e4lnd4s,daoAKQWc,2020-0188,2021-10-31,02:30:30,03:46:47,NA,incomplete,true,true,NA,NA,0,15,NA,yellow,m_l_102.jpg,NA,NA,NA,NA,NA,unpleasant,pleasant,NA,NA,NA,NA,NA,right,1848,true,NA,NA,NA,NA,NA,NA,NA,NA
daoAKQWc,39kv3a5d2bk8g62f2ek1xjbwsefs7u,3n1fsuefl9d7iez8usw7os1e4lnd4s,daoAKQWc,2020-0188,2021-10-31,02:30:30,03:46:47,NA,incomplete,true,true,NA,NA,0,16,NA,yellow,n_l_084.jpg,NA,NA,NA,NA,NA,pleasant,unpleasant,NA,NA,NA,NA,NA,right,1710,true,NA,NA,NA,NA,NA,NA,NA,NA
daoAKQWc,39kv3a5d2bk8g62f2ek1xjbwsefs7u,3n1fsuefl9d7iez8usw7os1e4lnd4s,daoAKQWc,2020-0188,2021-10-31,02:30:30,03:46:47,NA,incomplete,true,true,NA,NA,0,17,NA,yellow,n_l_027.jpg,NA,NA,NA,NA,NA,pleasant,unpleasant,NA,NA,NA,NA,NA,right,1967,true,NA,NA,NA,NA,NA,NA,NA,NA
daoAKQWc,39kv3a5d2bk8g62f2ek1xjbwsefs7u,3n1fsuefl9d7iez8usw7os1e4lnd4s,daoAKQWc,2020-0188,2021-10-31,02:30:30,03:46:47,NA,incomplete,true,true,NA,NA,0,18,NA,green,n_l_001.jpg,NA,NA,NA,NA,NA,unpleasant,pleasant,NA,NA,NA,NA,NA,right,2086,true,NA,NA,NA,NA,NA,NA,NA,NA
daoAKQWc,39kv3a5d2bk8g62f2ek1xjbwsefs7u,3n1fsuefl9d7iez8usw7os1e4lnd4s,daoAKQWc,2020-0188,2021-10-31,02:30:30,03:46:47,NA,incomplete,true,true,NA,NA,0,19,NA,green,n_l_105.jpg,NA,NA,NA,NA,NA,pleasant,unpleasant,NA,NA,NA,NA,NA,left,1510,true,NA,NA,NA,NA,NA,NA,NA,NA
daoAKQWc,39kv3a5d2bk8g62f2ek1xjbwsefs7u,3n1fsuefl9d7iez8usw7os1e4lnd4s,daoAKQWc,2020-0188,2021-10-31,02:30:30,03:46:47,NA,incomplete,true,true,NA,NA,0,20,NA,green,n_l_081.jpg,NA,NA,NA,NA,NA,unpleasant,pleasant,NA,NA,NA,NA,NA,right,1427,true,NA,NA,NA,NA,NA,NA,NA,NA
daoAKQWc,39kv3a5d2bk8g62f2ek1xjbwsefs7u,3n1fsuefl9d7iez8usw7os1e4lnd4s,daoAKQWc,2020-0188,2021-10-31,02:30:30,03:46:47,NA,incomplete,true,true,NA,NA,0,21,NA,green,n_l_066.jpg,NA,NA,NA,NA,NA,pleasant,unpleasant,NA,NA,NA,NA,NA,left,2450,true,NA,NA,NA,NA,NA,NA,NA,NA
daoAKQWc,39kv3a5d2bk8g62f2ek1xjbwsefs7u,3n1fsuefl9d7iez8usw7os1e4lnd4s,daoAKQWc,2020-0188,2021-10-31,02:30:30,03:46:47,NA,incomplete,true,true,NA,NA,0,22,NA,green,m_l_117.jpg,NA,NA,NA,NA,NA,pleasant,unpleasant,NA,NA,NA,NA,NA,left,1926,true,NA,NA,NA,NA,NA,NA,NA,NA
daoAKQWc,39kv3a5d2bk8g62f2ek1xjbwsefs7u,3n1fsuefl9d7iez8usw7os1e4lnd4s,daoAKQWc,2020-0188,2021-10-31,02:30:30,03:46:47,NA,incomplete,true,true,NA,NA,0,23,NA,green,n_s_115.jpg,NA,NA,NA,NA,NA,pleasant,unpleasant,NA,NA,NA,NA,NA,left,1207,true,NA,NA,NA,NA,NA,NA,NA,NA
daoAKQWc,39kv3a5d2bk8g62f2ek1xjbwsefs7u,3n1fsuefl9d7iez8usw7os1e4lnd4s,daoAKQWc,2020-0188,2021-10-31,02:30:30,03:46:47,NA,incomplete,true,true,NA,NA,0,24,NA,white,m_s_048.jpg,NA,NA,NA,NA,NA,unpleasant,pleasant,NA,NA,NA,NA,NA,right,2317,true,NA,NA,NA,NA,NA,NA,NA,NA
daoAKQWc,39kv3a5d2bk8g62f2ek1xjbwsefs7u,3n1fsuefl9d7iez8usw7os1e4lnd4s,daoAKQWc,2020-0188,2021-10-31,02:30:30,03:46:47,NA,incomplete,true,true,NA,NA,0,25,NA,white,m_s_035.jpg,NA,NA,NA,NA,NA,pleasant,unpleasant,NA,NA,NA,NA,NA,left,2278,true,NA,NA,NA,NA,NA,NA,NA,NA
daoAKQWc,39kv3a5d2bk8g62f2ek1xjbwsefs7u,3n1fsuefl9d7iez8usw7os1e4lnd4s,daoAKQWc,2020-0188,2021-10-31,02:30:30,03:46:47,NA,incomplete,true,true,NA,NA,0,26,NA,white,n_l_100.jpg,NA,NA,NA,NA,NA,pleasant,unpleasant,NA,NA,NA,NA,NA,left,2289,true,NA,NA,NA,NA,NA,NA,NA,NA
daoAKQWc,39kv3a5d2bk8g62f2ek1xjbwsefs7u,3n1fsuefl9d7iez8usw7os1e4lnd4s,daoAKQWc,2020-0188,2021-10-31,02:30:30,03:46:47,NA,incomplete,true,true,NA,NA,0,27,NA,white,n_l_071.jpg,NA,NA,NA,NA,NA,unpleasant,pleasant,NA,NA,NA,NA,NA,left,1942,true,NA,NA,NA,NA,NA,NA,NA,NA
daoAKQWc,39kv3a5d2bk8g62f2ek1xjbwsefs7u,3n1fsuefl9d7iez8usw7os1e4lnd4s,daoAKQWc,2020-0188,2021-10-31,02:30:30,03:46:47,NA,incomplete,true,true,NA,NA,0,28,NA,white,m_s_084.jpg,NA,NA,NA,NA,NA,pleasant,unpleasant,NA,NA,NA,NA,NA,left,1798,true,NA,NA,NA,NA,NA,NA,NA,NA
daoAKQWc,39kv3a5d2bk8g62f2ek1xjbwsefs7u,3n1fsuefl9d7iez8usw7os1e4lnd4s,daoAKQWc,2020-0188,2021-10-31,02:30:30,03:46:47,NA,incomplete,true,true,NA,NA,0,29,NA,white,n_s_095.jpg,NA,NA,NA,NA,NA,unpleasant,pleasant,NA,NA,NA,NA,NA,right,1557,true,NA,NA,NA,NA,NA,NA,NA,NA
daoAKQWc,39kv3a5d2bk8g62f2ek1xjbwsefs7u,3n1fsuefl9d7iez8usw7os1e4lnd4s,daoAKQWc,2020-0188,2021-10-31,02:30:30,03:46:47,NA,incomplete,true,true,NA,NA,0,30,NA,purple,m_l_079.jpg,NA,NA,NA,NA,NA,pleasant,unpleasant,NA,NA,NA,NA,NA,left,1820,true,NA,NA,NA,NA,NA,NA,NA,NA
daoAKQWc,39kv3a5d2bk8g62f2ek1xjbwsefs7u,3n1fsuefl9d7iez8usw7os1e4lnd4s,daoAKQWc,2020-0188,2021-10-31,02:30:30,03:46:47,NA,incomplete,true,true,NA,NA,0,31,NA,purple,n_s_110.jpg,NA,NA,NA,NA,NA,pleasant,unpleasant,NA,NA,NA,NA,NA,left,1666,true,NA,NA,NA,NA,NA,NA,NA,NA
daoAKQWc,39kv3a5d2bk8g62f2ek1xjbwsefs7u,3n1fsuefl9d7iez8usw7os1e4lnd4s,daoAKQWc,2020-0188,2021-10-31,02:30:30,03:46:47,NA,incomplete,true,true,NA,NA,0,32,NA,purple,n_l_065.jpg,NA,NA,NA,NA,NA,pleasant,unpleasant,NA,NA,NA,NA,NA,left,1905,true,NA,NA,NA,NA,NA,NA,NA,NA
daoAKQWc,39kv3a5d2bk8g62f2ek1xjbwsefs7u,3n1fsuefl9d7iez8usw7os1e4lnd4s,daoAKQWc,2020-0188,2021-10-31,02:30:30,03:46:47,NA,incomplete,true,true,NA,NA,0,33,NA,purple,m_s_086.jpg,NA,NA,NA,NA,NA,pleasant,unpleasant,NA,NA,NA,NA,NA,left,1487,true,NA,NA,NA,NA,NA,NA,NA,NA
daoAKQWc,39kv3a5d2bk8g62f2ek1xjbwsefs7u,3n1fsuefl9d7iez8usw7os1e4lnd4s,daoAKQWc,2020-0188,2021-10-31,02:30:30,03:46:47,NA,incomplete,true,true,NA,NA,0,34,NA,purple,m_l_103.jpg,NA,NA,NA,NA,NA,unpleasant,pleasant,NA,NA,NA,NA,NA,right,1243,true,NA,NA,NA,NA,NA,NA,NA,NA
daoAKQWc,39kv3a5d2bk8g62f2ek1xjbwsefs7u,3n1fsuefl9d7iez8usw7os1e4lnd4s,daoAKQWc,2020-0188,2021-10-31,02:30:30,03:46:47,NA,incomplete,true,true,NA,NA,0,35,NA,purple,m_s_077.jpg,NA,NA,NA,NA,NA,pleasant,unpleasant,NA,NA,NA,NA,NA,left,1326,true,NA,NA,NA,NA,NA,NA,NA,NA
daoAKQWc,39kv3a5d2bk8g62f2ek1xjbwsefs7u,3n1fsuefl9d7iez8usw7os1e4lnd4s,daoAKQWc,2020-0188,2021-10-31,02:30:30,03:46:47,NA,incomplete,true,NA,NA,true,0,0,NA,NA,NA,right,m_l_022.jpg,brown,yellow,NA,NA,NA,NA,NA,NA,NA,NA,NA,NaN,NA,2227,right,1,NA,NA,NA,NA,NA
daoAKQWc,39kv3a5d2bk8g62f2ek1xjbwsefs7u,3n1fsuefl9d7iez8usw7os1e4lnd4s,daoAKQWc,2020-0188,2021-10-31,02:30:30,03:46:47,NA,incomplete,true,NA,NA,true,0,1,NA,NA,NA,left,n_l_105.jpg,green,white,NA,NA,NA,NA,NA,NA,NA,NA,NA,NaN,NA,2456,left,1,NA,NA,NA,NA,NA
daoAKQWc,39kv3a5d2bk8g62f2ek1xjbwsefs7u,3n1fsuefl9d7iez8usw7os1e4lnd4s,daoAKQWc,2020-0188,2021-10-31,02:30:30,03:46:47,NA,incomplete,true,NA,NA,true,0,2,NA,NA,NA,right,m_s_084.jpg,purple,white,NA,NA,NA,NA,NA,NA,NA,NA,NA,NaN,NA,2956,right,1,NA,NA,NA,NA,NA
daoAKQWc,39kv3a5d2bk8g62f2ek1xjbwsefs7u,3n1fsuefl9d7iez8usw7os1e4lnd4s,daoAKQWc,2020-0188,2021-10-31,02:30:30,03:46:47,NA,incomplete,true,NA,NA,true,0,3,NA,NA,NA,left,n_s_013.jpg,brown,yellow,NA,NA,NA,NA,NA,NA,NA,NA,NA,NaN,NA,1897,left,1,NA,NA,NA,NA,NA
daoAKQWc,39kv3a5d2bk8g62f2ek1xjbwsefs7u,3n1fsuefl9d7iez8usw7os1e4lnd4s,daoAKQWc,2020-0188,2021-10-31,02:30:30,03:46:47,NA,incomplete,true,NA,NA,true,0,4,NA,NA,NA,right,m_l_027.jpg,red,brown,NA,NA,NA,NA,NA,NA,NA,NA,NA,NaN,NA,2025,right,1,NA,NA,NA,NA,NA
daoAKQWc,39kv3a5d2bk8g62f2ek1xjbwsefs7u,3n1fsuefl9d7iez8usw7os1e4lnd4s,daoAKQWc,2020-0188,2021-10-31,02:30:30,03:46:47,NA,incomplete,true,NA,NA,true,0,5,NA,NA,NA,left,n_l_081.jpg,green,yellow,NA,NA,NA,NA,NA,NA,NA,NA,NA,NaN,NA,2251,left,1,NA,NA,NA,NA,NA
daoAKQWc,39kv3a5d2bk8g62f2ek1xjbwsefs7u,3n1fsuefl9d7iez8usw7os1e4lnd4s,daoAKQWc,2020-0188,2021-10-31,02:30:30,03:46:47,NA,incomplete,true,NA,NA,true,0,6,NA,NA,NA,left,n_s_082.jpg,brown,yellow,NA,NA,NA,NA,NA,NA,NA,NA,NA,NaN,NA,2155,left,1,NA,NA,NA,NA,NA
daoAKQWc,39kv3a5d2bk8g62f2ek1xjbwsefs7u,3n1fsuefl9d7iez8usw7os1e4lnd4s,daoAKQWc,2020-0188,2021-10-31,02:30:30,03:46:47,NA,incomplete,true,NA,NA,true,0,7,NA,NA,NA,left,n_l_100.jpg,white,green,NA,NA,NA,NA,NA,NA,NA,NA,NA,NaN,NA,2133,left,1,NA,NA,NA,NA,NA
daoAKQWc,39kv3a5d2bk8g62f2ek1xjbwsefs7u,3n1fsuefl9d7iez8usw7os1e4lnd4s,daoAKQWc,2020-0188,2021-10-31,02:30:30,03:46:47,NA,incomplete,true,NA,NA,true,0,8,NA,NA,NA,left,n_s_110.jpg,purple,white,NA,NA,NA,NA,NA,NA,NA,NA,NA,NaN,NA,1900,left,1,NA,NA,NA,NA,NA
daoAKQWc,39kv3a5d2bk8g62f2ek1xjbwsefs7u,3n1fsuefl9d7iez8usw7os1e4lnd4s,daoAKQWc,2020-0188,2021-10-31,02:30:30,03:46:47,NA,incomplete,true,NA,NA,true,0,9,NA,NA,NA,left,n_l_065.jpg,purple,white,NA,NA,NA,NA,NA,NA,NA,NA,NA,NaN,NA,3359,left,1,NA,NA,NA,NA,NA
daoAKQWc,39kv3a5d2bk8g62f2ek1xjbwsefs7u,3n1fsuefl9d7iez8usw7os1e4lnd4s,daoAKQWc,2020-0188,2021-10-31,02:30:30,03:46:47,NA,incomplete,true,NA,NA,true,0,10,NA,NA,NA,left,n_s_095.jpg,white,purple,NA,NA,NA,NA,NA,NA,NA,NA,NA,NaN,NA,2164,left,1,NA,NA,NA,NA,NA
daoAKQWc,39kv3a5d2bk8g62f2ek1xjbwsefs7u,3n1fsuefl9d7iez8usw7os1e4lnd4s,daoAKQWc,2020-0188,2021-10-31,02:30:30,03:46:47,NA,incomplete,true,NA,NA,true,0,11,NA,NA,NA,left,n_l_088.jpg,red,brown,NA,NA,NA,NA,NA,NA,NA,NA,NA,NaN,NA,2543,left,1,NA,NA,NA,NA,NA
daoAKQWc,39kv3a5d2bk8g62f2ek1xjbwsefs7u,3n1fsuefl9d7iez8usw7os1e4lnd4s,daoAKQWc,2020-0188,2021-10-31,02:30:30,03:46:47,NA,incomplete,true,NA,NA,true,0,12,NA,NA,NA,left,n_s_091.jpg,yellow,green,NA,NA,NA,NA,NA,NA,NA,NA,NA,NaN,NA,2212,left,1,NA,NA,NA,NA,NA
daoAKQWc,39kv3a5d2bk8g62f2ek1xjbwsefs7u,3n1fsuefl9d7iez8usw7os1e4lnd4s,daoAKQWc,2020-0188,2021-10-31,02:30:30,03:46:47,NA,incomplete,true,NA,NA,true,0,13,NA,NA,NA,right,m_l_115.jpg,brown,red,NA,NA,NA,NA,NA,NA,NA,NA,NA,NaN,NA,1979,right,1,NA,NA,NA,NA,NA
daoAKQWc,39kv3a5d2bk8g62f2ek1xjbwsefs7u,3n1fsuefl9d7iez8usw7os1e4lnd4s,daoAKQWc,2020-0188,2021-10-31,02:30:30,03:46:47,NA,incomplete,true,NA,NA,true,0,14,NA,NA,NA,left,n_l_027.jpg,yellow,green,NA,NA,NA,NA,NA,NA,NA,NA,NA,NaN,NA,2509,left,1,NA,NA,NA,NA,NA
daoAKQWc,39kv3a5d2bk8g62f2ek1xjbwsefs7u,3n1fsuefl9d7iez8usw7os1e4lnd4s,daoAKQWc,2020-0188,2021-10-31,02:30:30,03:46:47,NA,incomplete,true,NA,NA,true,0,15,NA,NA,NA,left,m_s_077.jpg,purple,white,NA,NA,NA,NA,NA,NA,NA,NA,NA,NaN,NA,2003,left,1,NA,NA,NA,NA,NA
daoAKQWc,39kv3a5d2bk8g62f2ek1xjbwsefs7u,3n1fsuefl9d7iez8usw7os1e4lnd4s,daoAKQWc,2020-0188,2021-10-31,02:30:30,03:46:47,NA,incomplete,true,NA,NA,true,0,16,NA,NA,NA,left,n_s_115.jpg,green,white,NA,NA,NA,NA,NA,NA,NA,NA,NA,NaN,NA,1801,left,1,NA,NA,NA,NA,NA
daoAKQWc,39kv3a5d2bk8g62f2ek1xjbwsefs7u,3n1fsuefl9d7iez8usw7os1e4lnd4s,daoAKQWc,2020-0188,2021-10-31,02:30:30,03:46:47,NA,incomplete,true,NA,NA,true,0,17,NA,NA,NA,right,n_l_084.jpg,green,yellow,NA,NA,NA,NA,NA,NA,NA,NA,NA,NaN,NA,1578,right,1,NA,NA,NA,NA,NA
daoAKQWc,39kv3a5d2bk8g62f2ek1xjbwsefs7u,3n1fsuefl9d7iez8usw7os1e4lnd4s,daoAKQWc,2020-0188,2021-10-31,02:30:30,03:46:47,NA,incomplete,true,NA,NA,true,0,18,NA,NA,NA,right,n_l_053.jpg,yellow,brown,NA,NA,NA,NA,NA,NA,NA,NA,NA,NaN,NA,1931,right,1,NA,NA,NA,NA,NA
daoAKQWc,39kv3a5d2bk8g62f2ek1xjbwsefs7u,3n1fsuefl9d7iez8usw7os1e4lnd4s,daoAKQWc,2020-0188,2021-10-31,02:30:30,03:46:47,NA,incomplete,true,NA,NA,true,0,19,NA,NA,NA,left,m_s_028.jpg,red,brown,NA,NA,NA,NA,NA,NA,NA,NA,NA,NaN,NA,1986,left,1,NA,NA,NA,NA,NA
daoAKQWc,39kv3a5d2bk8g62f2ek1xjbwsefs7u,3n1fsuefl9d7iez8usw7os1e4lnd4s,daoAKQWc,2020-0188,2021-10-31,02:30:30,03:46:47,NA,incomplete,true,NA,NA,true,0,20,NA,NA,NA,left,m_l_117.jpg,green,yellow,NA,NA,NA,NA,NA,NA,NA,NA,NA,NaN,NA,2229,left,1,NA,NA,NA,NA,NA
daoAKQWc,39kv3a5d2bk8g62f2ek1xjbwsefs7u,3n1fsuefl9d7iez8usw7os1e4lnd4s,daoAKQWc,2020-0188,2021-10-31,02:30:30,03:46:47,NA,incomplete,true,NA,NA,true,0,21,NA,NA,NA,right,m_s_035.jpg,purple,white,NA,NA,NA,NA,NA,NA,NA,NA,NA,NaN,NA,1868,right,1,NA,NA,NA,NA,NA
daoAKQWc,39kv3a5d2bk8g62f2ek1xjbwsefs7u,3n1fsuefl9d7iez8usw7os1e4lnd4s,daoAKQWc,2020-0188,2021-10-31,02:30:30,03:46:47,NA,incomplete,true,NA,true,NA,0,0,NA,NA,NA,left,NA,NA,NA,absent,NA,NA,m_s_035.jpg,white,n_s_095.jpg,white,within,NA,NaN,NA,NA,NA,NA,left,3305,1,1,3203
daoAKQWc,39kv3a5d2bk8g62f2ek1xjbwsefs7u,3n1fsuefl9d7iez8usw7os1e4lnd4s,daoAKQWc,2020-0188,2021-10-31,02:30:30,03:46:47,NA,incomplete,true,NA,true,NA,0,1,NA,NA,NA,left,NA,NA,NA,absent,NA,NA,m_l_027.jpg,brown,n_s_082.jpg,brown,within,NA,NaN,NA,NA,NA,NA,left,4267,1,1,5622
daoAKQWc,39kv3a5d2bk8g62f2ek1xjbwsefs7u,3n1fsuefl9d7iez8usw7os1e4lnd4s,daoAKQWc,2020-0188,2021-10-31,02:30:30,03:46:47,NA,incomplete,true,NA,true,NA,0,2,NA,NA,NA,left,NA,NA,NA,absent,NA,NA,n_l_105.jpg,green,n_s_115.jpg,green,within,NA,NaN,NA,NA,NA,NA,left,3500,1,1,1886
daoAKQWc,39kv3a5d2bk8g62f2ek1xjbwsefs7u,3n1fsuefl9d7iez8usw7os1e4lnd4s,daoAKQWc,2020-0188,2021-10-31,02:30:30,03:46:47,NA,incomplete,true,NA,true,NA,0,3,NA,NA,NA,right,NA,NA,NA,absent,NA,NA,m_s_077.jpg,purple,n_s_110.jpg,purple,within,NA,NaN,NA,NA,NA,NA,right,3019,1,1,2219
daoAKQWc,39kv3a5d2bk8g62f2ek1xjbwsefs7u,3n1fsuefl9d7iez8usw7os1e4lnd4s,daoAKQWc,2020-0188,2021-10-31,02:30:30,03:46:47,NA,incomplete,true,NA,true,NA,0,4,NA,NA,NA,right,NA,NA,NA,absent,NA,NA,n_l_053.jpg,brown,m_s_028.jpg,red,between,NA,NaN,NA,NA,NA,NA,right,5901,1,2,2079
daoAKQWc,39kv3a5d2bk8g62f2ek1xjbwsefs7u,3n1fsuefl9d7iez8usw7os1e4lnd4s,daoAKQWc,2020-0188,2021-10-31,02:30:30,03:46:47,NA,incomplete,true,NA,true,NA,0,5,NA,NA,NA,left,NA,NA,NA,absent,NA,NA,n_s_013.jpg,brown,n_s_091.jpg,yellow,between,NA,NaN,NA,NA,NA,NA,right,6746,0,2,1731
daoAKQWc,39kv3a5d2bk8g62f2ek1xjbwsefs7u,3n1fsuefl9d7iez8usw7os1e4lnd4s,daoAKQWc,2020-0188,2021-10-31,02:30:30,03:46:47,NA,incomplete,true,NA,true,NA,0,6,NA,NA,NA,left,NA,NA,NA,absent,NA,NA,n_l_084.jpg,yellow,n_l_081.jpg,green,between,NA,NaN,NA,NA,NA,NA,left,4596,1,2,4293
daoAKQWc,39kv3a5d2bk8g62f2ek1xjbwsefs7u,3n1fsuefl9d7iez8usw7os1e4lnd4s,daoAKQWc,2020-0188,2021-10-31,02:30:30,03:46:47,NA,incomplete,true,NA,true,NA,0,7,NA,NA,NA,left,NA,NA,NA,absent,NA,NA,m_l_022.jpg,yellow,n_l_027.jpg,yellow,within,NA,NaN,NA,NA,NA,NA,left,4693,1,1,2310
daoAKQWc,39kv3a5d2bk8g62f2ek1xjbwsefs7u,3n1fsuefl9d7iez8usw7os1e4lnd4s,daoAKQWc,2020-0188,2021-10-31,02:30:30,03:46:47,NA,incomplete,true,NA,true,NA,0,8,NA,NA,NA,left,NA,NA,NA,absent,NA,NA,n_l_088.jpg,red,m_l_115.jpg,red,within,NA,NaN,NA,NA,NA,NA,left,3315,1,0,1539
daoAKQWc,39kv3a5d2bk8g62f2ek1xjbwsefs7u,3n1fsuefl9d7iez8usw7os1e4lnd4s,daoAKQWc,2020-0188,2021-10-31,02:30:30,03:46:47,NA,incomplete,true,NA,true,NA,0,9,NA,NA,NA,left,NA,NA,NA,absent,NA,NA,m_l_117.jpg,green,n_l_100.jpg,white,between,NA,NaN,NA,NA,NA,NA,left,7075,1,2,1945
daoAKQWc,39kv3a5d2bk8g62f2ek1xjbwsefs7u,3n1fsuefl9d7iez8usw7os1e4lnd4s,daoAKQWc,2020-0188,2021-10-31,02:30:30,03:46:47,NA,incomplete,true,NA,true,NA,0,10,NA,NA,NA,left,NA,NA,NA,absent,NA,NA,m_s_084.jpg,white,n_l_065.jpg,purple,between,NA,NaN,NA,NA,NA,NA,left,6985,1,2,1407
daoAKQWc,39kv3a5d2bk8g62f2ek1xjbwsefs7u,3n1fsuefl9d7iez8usw7os1e4lnd4s,daoAKQWc,2020-0188,2021-10-31,02:30:30,03:46:47,NA,incomplete,false,true,NA,NA,1,0,NA,yellow,m_s_044.jpg,NA,NA,NA,NA,NA,unpleasant,pleasant,NA,NA,NA,NA,NA,right,1283,true,NA,NA,NA,NA,NA,NA,NA,NA
daoAKQWc,39kv3a5d2bk8g62f2ek1xjbwsefs7u,3n1fsuefl9d7iez8usw7os1e4lnd4s,daoAKQWc,2020-0188,2021-10-31,02:30:30,03:46:47,NA,incomplete,false,true,NA,NA,1,1,NA,yellow,n_l_111.jpg,NA,NA,NA,NA,NA,unpleasant,pleasant,NA,NA,NA,NA,NA,right,2130,true,NA,NA,NA,NA,NA,NA,NA,NA
daoAKQWc,39kv3a5d2bk8g62f2ek1xjbwsefs7u,3n1fsuefl9d7iez8usw7os1e4lnd4s,daoAKQWc,2020-0188,2021-10-31,02:30:30,03:46:47,NA,incomplete,false,true,NA,NA,1,2,NA,yellow,m_s_087.jpg,NA,NA,NA,NA,NA,pleasant,unpleasant,NA,NA,NA,NA,NA,left,1779,true,NA,NA,NA,NA,NA,NA,NA,NA
daoAKQWc,39kv3a5d2bk8g62f2ek1xjbwsefs7u,3n1fsuefl9d7iez8usw7os1e4lnd4s,daoAKQWc,2020-0188,2021-10-31,02:30:30,03:46:47,NA,incomplete,false,true,NA,NA,1,3,NA,yellow,n_s_006.jpg,NA,NA,NA,NA,NA,pleasant,unpleasant,NA,NA,NA,NA,NA,left,1466,true,NA,NA,NA,NA,NA,NA,NA,NA
daoAKQWc,39kv3a5d2bk8g62f2ek1xjbwsefs7u,3n1fsuefl9d7iez8usw7os1e4lnd4s,daoAKQWc,2020-0188,2021-10-31,02:30:30,03:46:47,NA,incomplete,false,true,NA,NA,1,4,NA,yellow,n_s_005.jpg,NA,NA,NA,NA,NA,unpleasant,pleasant,NA,NA,NA,NA,NA,right,1158,true,NA,NA,NA,NA,NA,NA,NA,NA
daoAKQWc,39kv3a5d2bk8g62f2ek1xjbwsefs7u,3n1fsuefl9d7iez8usw7os1e4lnd4s,daoAKQWc,2020-0188,2021-10-31,02:30:30,03:46:47,NA,incomplete,false,true,NA,NA,1,5,NA,yellow,n_l_062.jpg,NA,NA,NA,NA,NA,unpleasant,pleasant,NA,NA,NA,NA,NA,right,2295,true,NA,NA,NA,NA,NA,NA,NA,NA
daoAKQWc,39kv3a5d2bk8g62f2ek1xjbwsefs7u,3n1fsuefl9d7iez8usw7os1e4lnd4s,daoAKQWc,2020-0188,2021-10-31,02:30:30,03:46:47,NA,incomplete,false,true,NA,NA,1,6,NA,green,n_s_074.jpg,NA,NA,NA,NA,NA,pleasant,unpleasant,NA,NA,NA,NA,NA,left,2047,true,NA,NA,NA,NA,NA,NA,NA,NA
daoAKQWc,39kv3a5d2bk8g62f2ek1xjbwsefs7u,3n1fsuefl9d7iez8usw7os1e4lnd4s,daoAKQWc,2020-0188,2021-10-31,02:30:30,03:46:47,NA,incomplete,false,true,NA,NA,1,7,NA,green,m_l_101.jpg,NA,NA,NA,NA,NA,pleasant,unpleasant,NA,NA,NA,NA,NA,left,2461,true,NA,NA,NA,NA,NA,NA,NA,NA
daoAKQWc,39kv3a5d2bk8g62f2ek1xjbwsefs7u,3n1fsuefl9d7iez8usw7os1e4lnd4s,daoAKQWc,2020-0188,2021-10-31,02:30:30,03:46:47,NA,incomplete,false,true,NA,NA,1,8,NA,green,m_s_079.jpg,NA,NA,NA,NA,NA,pleasant,unpleasant,NA,NA,NA,NA,NA,left,1875,true,NA,NA,NA,NA,NA,NA,NA,NA
daoAKQWc,39kv3a5d2bk8g62f2ek1xjbwsefs7u,3n1fsuefl9d7iez8usw7os1e4lnd4s,daoAKQWc,2020-0188,2021-10-31,02:30:30,03:46:47,NA,incomplete,false,true,NA,NA,1,9,NA,green,n_l_073.jpg,NA,NA,NA,NA,NA,unpleasant,pleasant,NA,NA,NA,NA,NA,right,1374,true,NA,NA,NA,NA,NA,NA,NA,NA
daoAKQWc,39kv3a5d2bk8g62f2ek1xjbwsefs7u,3n1fsuefl9d7iez8usw7os1e4lnd4s,daoAKQWc,2020-0188,2021-10-31,02:30:30,03:46:47,NA,incomplete,false,true,NA,NA,1,10,NA,green,m_s_107.jpg,NA,NA,NA,NA,NA,unpleasant,pleasant,NA,NA,NA,NA,NA,right,1606,true,NA,NA,NA,NA,NA,NA,NA,NA
daoAKQWc,39kv3a5d2bk8g62f2ek1xjbwsefs7u,3n1fsuefl9d7iez8usw7os1e4lnd4s,daoAKQWc,2020-0188,2021-10-31,02:30:30,03:46:47,NA,incomplete,false,true,NA,NA,1,11,NA,green,n_s_094.jpg,NA,NA,NA,NA,NA,unpleasant,pleasant,NA,NA,NA,NA,NA,right,2048,true,NA,NA,NA,NA,NA,NA,NA,NA
daoAKQWc,39kv3a5d2bk8g62f2ek1xjbwsefs7u,3n1fsuefl9d7iez8usw7os1e4lnd4s,daoAKQWc,2020-0188,2021-10-31,02:30:30,03:46:47,NA,incomplete,false,true,NA,NA,1,12,NA,red,n_s_003.jpg,NA,NA,NA,NA,NA,unpleasant,pleasant,NA,NA,NA,NA,NA,left,1884,true,NA,NA,NA,NA,NA,NA,NA,NA
daoAKQWc,39kv3a5d2bk8g62f2ek1xjbwsefs7u,3n1fsuefl9d7iez8usw7os1e4lnd4s,daoAKQWc,2020-0188,2021-10-31,02:30:30,03:46:47,NA,incomplete,false,true,NA,NA,1,13,NA,red,n_s_098.jpg,NA,NA,NA,NA,NA,unpleasant,pleasant,NA,NA,NA,NA,NA,right,1474,true,NA,NA,NA,NA,NA,NA,NA,NA
daoAKQWc,39kv3a5d2bk8g62f2ek1xjbwsefs7u,3n1fsuefl9d7iez8usw7os1e4lnd4s,daoAKQWc,2020-0188,2021-10-31,02:30:30,03:46:47,NA,incomplete,false,true,NA,NA,1,14,NA,red,n_s_037.jpg,NA,NA,NA,NA,NA,pleasant,unpleasant,NA,NA,NA,NA,NA,left,1924,true,NA,NA,NA,NA,NA,NA,NA,NA
daoAKQWc,39kv3a5d2bk8g62f2ek1xjbwsefs7u,3n1fsuefl9d7iez8usw7os1e4lnd4s,daoAKQWc,2020-0188,2021-10-31,02:30:30,03:46:47,NA,incomplete,false,true,NA,NA,1,15,NA,red,m_s_010.jpg,NA,NA,NA,NA,NA,pleasant,unpleasant,NA,NA,NA,NA,NA,right,1996,true,NA,NA,NA,NA,NA,NA,NA,NA
daoAKQWc,39kv3a5d2bk8g62f2ek1xjbwsefs7u,3n1fsuefl9d7iez8usw7os1e4lnd4s,daoAKQWc,2020-0188,2021-10-31,02:30:30,03:46:47,NA,incomplete,false,true,NA,NA,1,16,NA,red,m_s_073.jpg,NA,NA,NA,NA,NA,unpleasant,pleasant,NA,NA,NA,NA,NA,right,1707,true,NA,NA,NA,NA,NA,NA,NA,NA
daoAKQWc,39kv3a5d2bk8g62f2ek1xjbwsefs7u,3n1fsuefl9d7iez8usw7os1e4lnd4s,daoAKQWc,2020-0188,2021-10-31,02:30:30,03:46:47,NA,incomplete,false,true,NA,NA,1,17,NA,red,n_s_018.jpg,NA,NA,NA,NA,NA,pleasant,unpleasant,NA,NA,NA,NA,NA,left,1523,true,NA,NA,NA,NA,NA,NA,NA,NA
daoAKQWc,39kv3a5d2bk8g62f2ek1xjbwsefs7u,3n1fsuefl9d7iez8usw7os1e4lnd4s,daoAKQWc,2020-0188,2021-10-31,02:30:30,03:46:47,NA,incomplete,false,true,NA,NA,1,18,NA,black,m_l_086.jpg,NA,NA,NA,NA,NA,pleasant,unpleasant,NA,NA,NA,NA,NA,right,2294,true,NA,NA,NA,NA,NA,NA,NA,NA
daoAKQWc,39kv3a5d2bk8g62f2ek1xjbwsefs7u,3n1fsuefl9d7iez8usw7os1e4lnd4s,daoAKQWc,2020-0188,2021-10-31,02:30:30,03:46:47,NA,incomplete,false,true,NA,NA,1,19,NA,black,m_l_069.jpg,NA,NA,NA,NA,NA,pleasant,unpleasant,NA,NA,NA,NA,NA,right,1779,true,NA,NA,NA,NA,NA,NA,NA,NA
daoAKQWc,39kv3a5d2bk8g62f2ek1xjbwsefs7u,3n1fsuefl9d7iez8usw7os1e4lnd4s,daoAKQWc,2020-0188,2021-10-31,02:30:30,03:46:47,NA,incomplete,false,true,NA,NA,1,20,NA,black,n_l_064.jpg,NA,NA,NA,NA,NA,pleasant,unpleasant,NA,NA,NA,NA,NA,left,2164,true,NA,NA,NA,NA,NA,NA,NA,NA
daoAKQWc,39kv3a5d2bk8g62f2ek1xjbwsefs7u,3n1fsuefl9d7iez8usw7os1e4lnd4s,daoAKQWc,2020-0188,2021-10-31,02:30:30,03:46:47,NA,incomplete,false,true,NA,NA,1,21,NA,black,n_s_060.jpg,NA,NA,NA,NA,NA,pleasant,unpleasant,NA,NA,NA,NA,NA,right,1551,true,NA,NA,NA,NA,NA,NA,NA,NA
daoAKQWc,39kv3a5d2bk8g62f2ek1xjbwsefs7u,3n1fsuefl9d7iez8usw7os1e4lnd4s,daoAKQWc,2020-0188,2021-10-31,02:30:30,03:46:47,NA,incomplete,false,true,NA,NA,1,22,NA,black,m_s_009.jpg,NA,NA,NA,NA,NA,unpleasant,pleasant,NA,NA,NA,NA,NA,left,1661,true,NA,NA,NA,NA,NA,NA,NA,NA
daoAKQWc,39kv3a5d2bk8g62f2ek1xjbwsefs7u,3n1fsuefl9d7iez8usw7os1e4lnd4s,daoAKQWc,2020-0188,2021-10-31,02:30:30,03:46:47,NA,incomplete,false,true,NA,NA,1,23,NA,black,m_l_055.jpg,NA,NA,NA,NA,NA,pleasant,unpleasant,NA,NA,NA,NA,NA,right,1490,true,NA,NA,NA,NA,NA,NA,NA,NA
daoAKQWc,39kv3a5d2bk8g62f2ek1xjbwsefs7u,3n1fsuefl9d7iez8usw7os1e4lnd4s,daoAKQWc,2020-0188,2021-10-31,02:30:30,03:46:47,NA,incomplete,false,true,NA,NA,1,24,NA,purple,n_l_101.jpg,NA,NA,NA,NA,NA,unpleasant,pleasant,NA,NA,NA,NA,NA,right,1584,true,NA,NA,NA,NA,NA,NA,NA,NA
daoAKQWc,39kv3a5d2bk8g62f2ek1xjbwsefs7u,3n1fsuefl9d7iez8usw7os1e4lnd4s,daoAKQWc,2020-0188,2021-10-31,02:30:30,03:46:47,NA,incomplete,false,true,NA,NA,1,25,NA,purple,m_s_096.jpg,NA,NA,NA,NA,NA,unpleasant,pleasant,NA,NA,NA,NA,NA,right,2261,true,NA,NA,NA,NA,NA,NA,NA,NA
daoAKQWc,39kv3a5d2bk8g62f2ek1xjbwsefs7u,3n1fsuefl9d7iez8usw7os1e4lnd4s,daoAKQWc,2020-0188,2021-10-31,02:30:30,03:46:47,NA,incomplete,false,true,NA,NA,1,26,NA,purple,m_l_015.jpg,NA,NA,NA,NA,NA,pleasant,unpleasant,NA,NA,NA,NA,NA,left,1324,true,NA,NA,NA,NA,NA,NA,NA,NA
daoAKQWc,39kv3a5d2bk8g62f2ek1xjbwsefs7u,3n1fsuefl9d7iez8usw7os1e4lnd4s,daoAKQWc,2020-0188,2021-10-31,02:30:30,03:46:47,NA,incomplete,false,true,NA,NA,1,27,NA,purple,n_l_097.jpg,NA,NA,NA,NA,NA,pleasant,unpleasant,NA,NA,NA,NA,NA,left,1495,true,NA,NA,NA,NA,NA,NA,NA,NA
daoAKQWc,39kv3a5d2bk8g62f2ek1xjbwsefs7u,3n1fsuefl9d7iez8usw7os1e4lnd4s,daoAKQWc,2020-0188,2021-10-31,02:30:30,03:46:47,NA,incomplete,false,true,NA,NA,1,28,NA,purple,n_s_096.jpg,NA,NA,NA,NA,NA,pleasant,unpleasant,NA,NA,NA,NA,NA,left,1207,true,NA,NA,NA,NA,NA,NA,NA,NA
daoAKQWc,39kv3a5d2bk8g62f2ek1xjbwsefs7u,3n1fsuefl9d7iez8usw7os1e4lnd4s,daoAKQWc,2020-0188,2021-10-31,02:30:30,03:46:47,NA,incomplete,false,true,NA,NA,1,29,NA,purple,n_s_008.jpg,NA,NA,NA,NA,NA,pleasant,unpleasant,NA,NA,NA,NA,NA,left,1733,true,NA,NA,NA,NA,NA,NA,NA,NA
daoAKQWc,39kv3a5d2bk8g62f2ek1xjbwsefs7u,3n1fsuefl9d7iez8usw7os1e4lnd4s,daoAKQWc,2020-0188,2021-10-31,02:30:30,03:46:47,NA,incomplete,false,true,NA,NA,1,30,NA,white,n_s_079.jpg,NA,NA,NA,NA,NA,unpleasant,pleasant,NA,NA,NA,NA,NA,right,1752,true,NA,NA,NA,NA,NA,NA,NA,NA
daoAKQWc,39kv3a5d2bk8g62f2ek1xjbwsefs7u,3n1fsuefl9d7iez8usw7os1e4lnd4s,daoAKQWc,2020-0188,2021-10-31,02:30:30,03:46:47,NA,incomplete,false,true,NA,NA,1,31,NA,white,n_l_016.jpg,NA,NA,NA,NA,NA,unpleasant,pleasant,NA,NA,NA,NA,NA,right,2419,true,NA,NA,NA,NA,NA,NA,NA,NA
daoAKQWc,39kv3a5d2bk8g62f2ek1xjbwsefs7u,3n1fsuefl9d7iez8usw7os1e4lnd4s,daoAKQWc,2020-0188,2021-10-31,02:30:30,03:46:47,NA,incomplete,false,true,NA,NA,1,32,NA,white,n_s_007.jpg,NA,NA,NA,NA,NA,pleasant,unpleasant,NA,NA,NA,NA,NA,left,1544,true,NA,NA,NA,NA,NA,NA,NA,NA
daoAKQWc,39kv3a5d2bk8g62f2ek1xjbwsefs7u,3n1fsuefl9d7iez8usw7os1e4lnd4s,daoAKQWc,2020-0188,2021-10-31,02:30:30,03:46:47,NA,incomplete,false,true,NA,NA,1,33,NA,white,m_l_020.jpg,NA,NA,NA,NA,NA,unpleasant,pleasant,NA,NA,NA,NA,NA,right,1751,true,NA,NA,NA,NA,NA,NA,NA,NA
daoAKQWc,39kv3a5d2bk8g62f2ek1xjbwsefs7u,3n1fsuefl9d7iez8usw7os1e4lnd4s,daoAKQWc,2020-0188,2021-10-31,02:30:30,03:46:47,NA,incomplete,false,true,NA,NA,1,34,NA,white,n_l_003.jpg,NA,NA,NA,NA,NA,unpleasant,pleasant,NA,NA,NA,NA,NA,right,1824,true,NA,NA,NA,NA,NA,NA,NA,NA
daoAKQWc,39kv3a5d2bk8g62f2ek1xjbwsefs7u,3n1fsuefl9d7iez8usw7os1e4lnd4s,daoAKQWc,2020-0188,2021-10-31,02:30:30,03:46:47,NA,incomplete,false,true,NA,NA,1,35,NA,white,n_s_093.jpg,NA,NA,NA,NA,NA,unpleasant,pleasant,NA,NA,NA,NA,NA,left,2014,true,NA,NA,NA,NA,NA,NA,NA,NA
daoAKQWc,39kv3a5d2bk8g62f2ek1xjbwsefs7u,3n1fsuefl9d7iez8usw7os1e4lnd4s,daoAKQWc,2020-0188,2021-10-31,02:30:30,03:46:47,NA,incomplete,false,NA,NA,true,1,0,NA,NA,NA,left,n_s_018.jpg,red,black,NA,NA,NA,NA,NA,NA,NA,NA,NA,NaN,NA,2375,left,1,NA,NA,NA,NA,NA
daoAKQWc,39kv3a5d2bk8g62f2ek1xjbwsefs7u,3n1fsuefl9d7iez8usw7os1e4lnd4s,daoAKQWc,2020-0188,2021-10-31,02:30:30,03:46:47,NA,incomplete,false,NA,NA,true,1,1,NA,NA,NA,left,m_s_096.jpg,purple,black,NA,NA,NA,NA,NA,NA,NA,NA,NA,NaN,NA,1687,left,1,NA,NA,NA,NA,NA
daoAKQWc,39kv3a5d2bk8g62f2ek1xjbwsefs7u,3n1fsuefl9d7iez8usw7os1e4lnd4s,daoAKQWc,2020-0188,2021-10-31,02:30:30,03:46:47,NA,incomplete,false,NA,NA,true,1,2,NA,NA,NA,right,m_s_079.jpg,yellow,green,NA,NA,NA,NA,NA,NA,NA,NA,NA,NaN,NA,1643,right,1,NA,NA,NA,NA,NA
daoAKQWc,39kv3a5d2bk8g62f2ek1xjbwsefs7u,3n1fsuefl9d7iez8usw7os1e4lnd4s,daoAKQWc,2020-0188,2021-10-31,02:30:30,03:46:47,NA,incomplete,false,NA,NA,true,1,3,NA,NA,NA,left,m_l_055.jpg,black,purple,NA,NA,NA,NA,NA,NA,NA,NA,NA,NaN,NA,2241,left,1,NA,NA,NA,NA,NA
daoAKQWc,39kv3a5d2bk8g62f2ek1xjbwsefs7u,3n1fsuefl9d7iez8usw7os1e4lnd4s,daoAKQWc,2020-0188,2021-10-31,02:30:30,03:46:47,NA,incomplete,false,NA,NA,true,1,4,NA,NA,NA,left,n_s_098.jpg,red,green,NA,NA,NA,NA,NA,NA,NA,NA,NA,NaN,NA,2134,left,1,NA,NA,NA,NA,NA
daoAKQWc,39kv3a5d2bk8g62f2ek1xjbwsefs7u,3n1fsuefl9d7iez8usw7os1e4lnd4s,daoAKQWc,2020-0188,2021-10-31,02:30:30,03:46:47,NA,incomplete,false,NA,NA,true,1,5,NA,NA,NA,left,n_s_007.jpg,white,purple,NA,NA,NA,NA,NA,NA,NA,NA,NA,NaN,NA,3307,left,1,NA,NA,NA,NA,NA
daoAKQWc,39kv3a5d2bk8g62f2ek1xjbwsefs7u,3n1fsuefl9d7iez8usw7os1e4lnd4s,daoAKQWc,2020-0188,2021-10-31,02:30:30,03:46:47,NA,incomplete,false,NA,NA,true,1,6,NA,NA,NA,left,n_l_062.jpg,yellow,green,NA,NA,NA,NA,NA,NA,NA,NA,NA,NaN,NA,2635,left,1,NA,NA,NA,NA,NA
daoAKQWc,39kv3a5d2bk8g62f2ek1xjbwsefs7u,3n1fsuefl9d7iez8usw7os1e4lnd4s,daoAKQWc,2020-0188,2021-10-31,02:30:30,03:46:47,NA,incomplete,false,NA,NA,true,1,7,NA,NA,NA,left,m_s_073.jpg,red,black,NA,NA,NA,NA,NA,NA,NA,NA,NA,NaN,NA,2135,left,1,NA,NA,NA,NA,NA
daoAKQWc,39kv3a5d2bk8g62f2ek1xjbwsefs7u,3n1fsuefl9d7iez8usw7os1e4lnd4s,daoAKQWc,2020-0188,2021-10-31,02:30:30,03:46:47,NA,incomplete,false,NA,NA,true,1,8,NA,NA,NA,right,m_s_107.jpg,red,green,NA,NA,NA,NA,NA,NA,NA,NA,NA,NaN,NA,1985,left,0,NA,NA,NA,NA,NA
daoAKQWc,39kv3a5d2bk8g62f2ek1xjbwsefs7u,3n1fsuefl9d7iez8usw7os1e4lnd4s,daoAKQWc,2020-0188,2021-10-31,02:30:30,03:46:47,NA,incomplete,false,NA,NA,true,1,9,NA,NA,NA,right,n_s_096.jpg,black,purple,NA,NA,NA,NA,NA,NA,NA,NA,NA,NaN,NA,1454,right,1,NA,NA,NA,NA,NA
daoAKQWc,39kv3a5d2bk8g62f2ek1xjbwsefs7u,3n1fsuefl9d7iez8usw7os1e4lnd4s,daoAKQWc,2020-0188,2021-10-31,02:30:30,03:46:47,NA,incomplete,false,NA,NA,true,1,10,NA,NA,NA,left,m_l_101.jpg,green,red,NA,NA,NA,NA,NA,NA,NA,NA,NA,NaN,NA,2543,left,1,NA,NA,NA,NA,NA
daoAKQWc,39kv3a5d2bk8g62f2ek1xjbwsefs7u,3n1fsuefl9d7iez8usw7os1e4lnd4s,daoAKQWc,2020-0188,2021-10-31,02:30:30,03:46:47,NA,incomplete,false,NA,NA,true,1,11,NA,NA,NA,right,m_s_009.jpg,red,black,NA,NA,NA,NA,NA,NA,NA,NA,NA,NaN,NA,1506,right,1,NA,NA,NA,NA,NA
daoAKQWc,39kv3a5d2bk8g62f2ek1xjbwsefs7u,3n1fsuefl9d7iez8usw7os1e4lnd4s,daoAKQWc,2020-0188,2021-10-31,02:30:30,03:46:47,NA,incomplete,false,NA,NA,true,1,12,NA,NA,NA,left,n_s_008.jpg,purple,white,NA,NA,NA,NA,NA,NA,NA,NA,NA,NaN,NA,1682,left,1,NA,NA,NA,NA,NA
daoAKQWc,39kv3a5d2bk8g62f2ek1xjbwsefs7u,3n1fsuefl9d7iez8usw7os1e4lnd4s,daoAKQWc,2020-0188,2021-10-31,02:30:30,03:46:47,NA,incomplete,false,NA,NA,true,1,13,NA,NA,NA,left,n_s_037.jpg,red,green,NA,NA,NA,NA,NA,NA,NA,NA,NA,NaN,NA,2053,left,1,NA,NA,NA,NA,NA
daoAKQWc,39kv3a5d2bk8g62f2ek1xjbwsefs7u,3n1fsuefl9d7iez8usw7os1e4lnd4s,daoAKQWc,2020-0188,2021-10-31,02:30:30,03:46:47,NA,incomplete,false,NA,NA,true,1,14,NA,NA,NA,left,n_s_093.jpg,white,purple,NA,NA,NA,NA,NA,NA,NA,NA,NA,NaN,NA,2123,left,1,NA,NA,NA,NA,NA
daoAKQWc,39kv3a5d2bk8g62f2ek1xjbwsefs7u,3n1fsuefl9d7iez8usw7os1e4lnd4s,daoAKQWc,2020-0188,2021-10-31,02:30:30,03:46:47,NA,incomplete,false,NA,NA,true,1,15,NA,NA,NA,left,m_l_069.jpg,black,purple,NA,NA,NA,NA,NA,NA,NA,NA,NA,NaN,NA,1785,left,1,NA,NA,NA,NA,NA
daoAKQWc,39kv3a5d2bk8g62f2ek1xjbwsefs7u,3n1fsuefl9d7iez8usw7os1e4lnd4s,daoAKQWc,2020-0188,2021-10-31,02:30:30,03:46:47,NA,incomplete,false,NA,NA,true,1,16,NA,NA,NA,right,n_s_005.jpg,green,yellow,NA,NA,NA,NA,NA,NA,NA,NA,NA,NaN,NA,2869,right,1,NA,NA,NA,NA,NA
daoAKQWc,39kv3a5d2bk8g62f2ek1xjbwsefs7u,3n1fsuefl9d7iez8usw7os1e4lnd4s,daoAKQWc,2020-0188,2021-10-31,02:30:30,03:46:47,NA,incomplete,false,NA,NA,true,1,17,NA,NA,NA,right,n_l_016.jpg,purple,white,NA,NA,NA,NA,NA,NA,NA,NA,NA,NaN,NA,1624,right,1,NA,NA,NA,NA,NA
daoAKQWc,39kv3a5d2bk8g62f2ek1xjbwsefs7u,3n1fsuefl9d7iez8usw7os1e4lnd4s,daoAKQWc,2020-0188,2021-10-31,02:30:30,03:46:47,NA,incomplete,false,NA,NA,true,1,18,NA,NA,NA,right,n_l_111.jpg,green,yellow,NA,NA,NA,NA,NA,NA,NA,NA,NA,NaN,NA,1915,right,1,NA,NA,NA,NA,NA
daoAKQWc,39kv3a5d2bk8g62f2ek1xjbwsefs7u,3n1fsuefl9d7iez8usw7os1e4lnd4s,daoAKQWc,2020-0188,2021-10-31,02:30:30,03:46:47,NA,incomplete,false,NA,NA,true,1,19,NA,NA,NA,right,n_l_064.jpg,red,black,NA,NA,NA,NA,NA,NA,NA,NA,NA,NaN,NA,2293,right,1,NA,NA,NA,NA,NA
daoAKQWc,39kv3a5d2bk8g62f2ek1xjbwsefs7u,3n1fsuefl9d7iez8usw7os1e4lnd4s,daoAKQWc,2020-0188,2021-10-31,02:30:30,03:46:47,NA,incomplete,false,NA,NA,true,1,20,NA,NA,NA,right,n_s_094.jpg,yellow,green,NA,NA,NA,NA,NA,NA,NA,NA,NA,NaN,NA,5643,right,1,NA,NA,NA,NA,NA
daoAKQWc,39kv3a5d2bk8g62f2ek1xjbwsefs7u,3n1fsuefl9d7iez8usw7os1e4lnd4s,daoAKQWc,2020-0188,2021-10-31,02:30:30,03:46:47,NA,incomplete,false,NA,NA,true,1,21,NA,NA,NA,left,m_l_015.jpg,purple,black,NA,NA,NA,NA,NA,NA,NA,NA,NA,NaN,NA,1753,left,1,NA,NA,NA,NA,NA
daoAKQWc,39kv3a5d2bk8g62f2ek1xjbwsefs7u,3n1fsuefl9d7iez8usw7os1e4lnd4s,daoAKQWc,2020-0188,2021-10-31,02:30:30,03:46:47,NA,incomplete,false,NA,true,NA,1,0,NA,NA,NA,left,NA,NA,NA,absent,NA,NA,n_l_016.jpg,white,n_s_093.jpg,white,within,NA,NaN,NA,NA,NA,NA,left,2302,1,1,4595
daoAKQWc,39kv3a5d2bk8g62f2ek1xjbwsefs7u,3n1fsuefl9d7iez8usw7os1e4lnd4s,daoAKQWc,2020-0188,2021-10-31,02:30:30,03:46:47,NA,incomplete,false,NA,true,NA,1,1,NA,NA,NA,left,NA,NA,NA,absent,NA,NA,m_l_101.jpg,green,n_s_094.jpg,green,within,NA,NaN,NA,NA,NA,NA,left,3812,1,1,2617
daoAKQWc,39kv3a5d2bk8g62f2ek1xjbwsefs7u,3n1fsuefl9d7iez8usw7os1e4lnd4s,daoAKQWc,2020-0188,2021-10-31,02:30:30,03:46:47,NA,incomplete,false,NA,true,NA,1,2,NA,NA,NA,left,NA,NA,NA,absent,NA,NA,m_s_073.jpg,red,n_l_064.jpg,black,between,NA,NaN,NA,NA,NA,NA,left,9045,1,2,3011
daoAKQWc,39kv3a5d2bk8g62f2ek1xjbwsefs7u,3n1fsuefl9d7iez8usw7os1e4lnd4s,daoAKQWc,2020-0188,2021-10-31,02:30:30,03:46:47,NA,incomplete,false,NA,true,NA,1,3,NA,NA,NA,left,NA,NA,NA,absent,NA,NA,n_s_098.jpg,red,n_s_018.jpg,red,within,NA,NaN,NA,NA,NA,NA,left,3920,1,1,1559
daoAKQWc,39kv3a5d2bk8g62f2ek1xjbwsefs7u,3n1fsuefl9d7iez8usw7os1e4lnd4s,daoAKQWc,2020-0188,2021-10-31,02:30:30,03:46:47,NA,incomplete,false,NA,true,NA,1,4,NA,NA,NA,right,NA,NA,NA,absent,NA,NA,n_s_007.jpg,white,n_s_096.jpg,purple,between,NA,NaN,NA,NA,NA,NA,right,3167,1,2,1553
daoAKQWc,39kv3a5d2bk8g62f2ek1xjbwsefs7u,3n1fsuefl9d7iez8usw7os1e4lnd4s,daoAKQWc,2020-0188,2021-10-31,02:30:30,03:46:47,NA,incomplete,false,NA,true,NA,1,5,NA,NA,NA,right,NA,NA,NA,absent,NA,NA,n_s_008.jpg,purple,m_s_096.jpg,purple,within,NA,NaN,NA,NA,NA,NA,right,3953,1,1,1367
daoAKQWc,39kv3a5d2bk8g62f2ek1xjbwsefs7u,3n1fsuefl9d7iez8usw7os1e4lnd4s,daoAKQWc,2020-0188,2021-10-31,02:30:30,03:46:47,NA,incomplete,false,NA,true,NA,1,6,NA,NA,NA,left,NA,NA,NA,absent,NA,NA,m_s_107.jpg,green,n_s_037.jpg,red,between,NA,NaN,NA,NA,NA,NA,left,5210,1,1,1473
daoAKQWc,39kv3a5d2bk8g62f2ek1xjbwsefs7u,3n1fsuefl9d7iez8usw7os1e4lnd4s,daoAKQWc,2020-0188,2021-10-31,02:30:30,03:46:47,NA,incomplete,false,NA,true,NA,1,7,NA,NA,NA,left,NA,NA,NA,absent,NA,NA,n_s_005.jpg,yellow,m_s_079.jpg,green,between,NA,NaN,NA,NA,NA,NA,left,6153,1,1,2183
daoAKQWc,39kv3a5d2bk8g62f2ek1xjbwsefs7u,3n1fsuefl9d7iez8usw7os1e4lnd4s,daoAKQWc,2020-0188,2021-10-31,02:30:30,03:46:47,NA,incomplete,false,NA,true,NA,1,8,NA,NA,NA,right,NA,NA,NA,absent,NA,NA,m_l_015.jpg,purple,m_s_009.jpg,black,between,NA,NaN,NA,NA,NA,NA,right,8513,1,2,1721
daoAKQWc,39kv3a5d2bk8g62f2ek1xjbwsefs7u,3n1fsuefl9d7iez8usw7os1e4lnd4s,daoAKQWc,2020-0188,2021-10-31,02:30:30,03:46:47,NA,incomplete,false,NA,true,NA,1,9,NA,NA,NA,right,NA,NA,NA,absent,NA,NA,n_l_062.jpg,yellow,n_l_111.jpg,yellow,within,NA,NaN,NA,NA,NA,NA,right,3526,1,1,1601
daoAKQWc,39kv3a5d2bk8g62f2ek1xjbwsefs7u,3n1fsuefl9d7iez8usw7os1e4lnd4s,daoAKQWc,2020-0188,2021-10-31,02:30:30,03:46:47,NA,incomplete,false,NA,true,NA,1,10,NA,NA,NA,left,NA,NA,NA,absent,NA,NA,m_l_069.jpg,black,m_l_055.jpg,black,within,NA,NaN,NA,NA,NA,NA,left,2789,1,1,5479
daoAKQWc,39kv3a5d2bk8g62f2ek1xjbwsefs7u,3n1fsuefl9d7iez8usw7os1e4lnd4s,daoAKQWc,2020-0188,2021-10-31,02:30:30,03:46:47,NA,incomplete,false,true,NA,NA,2,0,NA,green,m_l_095.jpg,NA,NA,NA,NA,NA,pleasant,unpleasant,NA,NA,NA,NA,NA,left,2114,true,NA,NA,NA,NA,NA,NA,NA,NA
daoAKQWc,39kv3a5d2bk8g62f2ek1xjbwsefs7u,3n1fsuefl9d7iez8usw7os1e4lnd4s,daoAKQWc,2020-0188,2021-10-31,02:30:30,03:46:47,NA,incomplete,false,true,NA,NA,2,1,NA,green,n_s_023.jpg,NA,NA,NA,NA,NA,unpleasant,pleasant,NA,NA,NA,NA,NA,right,1416,true,NA,NA,NA,NA,NA,NA,NA,NA
daoAKQWc,39kv3a5d2bk8g62f2ek1xjbwsefs7u,3n1fsuefl9d7iez8usw7os1e4lnd4s,daoAKQWc,2020-0188,2021-10-31,02:30:30,03:46:47,NA,incomplete,false,true,NA,NA,2,2,NA,green,n_s_089.jpg,NA,NA,NA,NA,NA,unpleasant,pleasant,NA,NA,NA,NA,NA,left,1894,true,NA,NA,NA,NA,NA,NA,NA,NA
daoAKQWc,39kv3a5d2bk8g62f2ek1xjbwsefs7u,3n1fsuefl9d7iez8usw7os1e4lnd4s,daoAKQWc,2020-0188,2021-10-31,02:30:30,03:46:47,NA,incomplete,false,true,NA,NA,2,3,NA,green,m_l_090.jpg,NA,NA,NA,NA,NA,unpleasant,pleasant,NA,NA,NA,NA,NA,right,2056,true,NA,NA,NA,NA,NA,NA,NA,NA
daoAKQWc,39kv3a5d2bk8g62f2ek1xjbwsefs7u,3n1fsuefl9d7iez8usw7os1e4lnd4s,daoAKQWc,2020-0188,2021-10-31,02:30:30,03:46:47,NA,incomplete,false,true,NA,NA,2,4,NA,green,m_s_058.jpg,NA,NA,NA,NA,NA,unpleasant,pleasant,NA,NA,NA,NA,NA,right,1405,true,NA,NA,NA,NA,NA,NA,NA,NA
daoAKQWc,39kv3a5d2bk8g62f2ek1xjbwsefs7u,3n1fsuefl9d7iez8usw7os1e4lnd4s,daoAKQWc,2020-0188,2021-10-31,02:30:30,03:46:47,NA,incomplete,false,true,NA,NA,2,5,NA,green,n_l_052.jpg,NA,NA,NA,NA,NA,unpleasant,pleasant,NA,NA,NA,NA,NA,right,1234,true,NA,NA,NA,NA,NA,NA,NA,NA
daoAKQWc,39kv3a5d2bk8g62f2ek1xjbwsefs7u,3n1fsuefl9d7iez8usw7os1e4lnd4s,daoAKQWc,2020-0188,2021-10-31,02:30:30,03:46:47,NA,incomplete,false,true,NA,NA,2,6,NA,orange,n_l_078.jpg,NA,NA,NA,NA,NA,pleasant,unpleasant,NA,NA,NA,NA,NA,right,1646,true,NA,NA,NA,NA,NA,NA,NA,NA
daoAKQWc,39kv3a5d2bk8g62f2ek1xjbwsefs7u,3n1fsuefl9d7iez8usw7os1e4lnd4s,daoAKQWc,2020-0188,2021-10-31,02:30:30,03:46:47,NA,incomplete,false,true,NA,NA,2,7,NA,orange,n_l_012.jpg,NA,NA,NA,NA,NA,pleasant,unpleasant,NA,NA,NA,NA,NA,left,2017,true,NA,NA,NA,NA,NA,NA,NA,NA
daoAKQWc,39kv3a5d2bk8g62f2ek1xjbwsefs7u,3n1fsuefl9d7iez8usw7os1e4lnd4s,daoAKQWc,2020-0188,2021-10-31,02:30:30,03:46:47,NA,incomplete,false,true,NA,NA,2,8,NA,orange,n_l_108.jpg,NA,NA,NA,NA,NA,unpleasant,pleasant,NA,NA,NA,NA,NA,right,2059,true,NA,NA,NA,NA,NA,NA,NA,NA
daoAKQWc,39kv3a5d2bk8g62f2ek1xjbwsefs7u,3n1fsuefl9d7iez8usw7os1e4lnd4s,daoAKQWc,2020-0188,2021-10-31,02:30:30,03:46:47,NA,incomplete,false,true,NA,NA,2,9,NA,orange,n_l_055.jpg,NA,NA,NA,NA,NA,unpleasant,pleasant,NA,NA,NA,NA,NA,right,1570,true,NA,NA,NA,NA,NA,NA,NA,NA
daoAKQWc,39kv3a5d2bk8g62f2ek1xjbwsefs7u,3n1fsuefl9d7iez8usw7os1e4lnd4s,daoAKQWc,2020-0188,2021-10-31,02:30:30,03:46:47,NA,incomplete,false,true,NA,NA,2,10,NA,orange,n_s_092.jpg,NA,NA,NA,NA,NA,pleasant,unpleasant,NA,NA,NA,NA,NA,left,1672,true,NA,NA,NA,NA,NA,NA,NA,NA
daoAKQWc,39kv3a5d2bk8g62f2ek1xjbwsefs7u,3n1fsuefl9d7iez8usw7os1e4lnd4s,daoAKQWc,2020-0188,2021-10-31,02:30:30,03:46:47,NA,incomplete,false,true,NA,NA,2,11,NA,orange,n_l_091.jpg,NA,NA,NA,NA,NA,unpleasant,pleasant,NA,NA,NA,NA,NA,left,1654,true,NA,NA,NA,NA,NA,NA,NA,NA
daoAKQWc,39kv3a5d2bk8g62f2ek1xjbwsefs7u,3n1fsuefl9d7iez8usw7os1e4lnd4s,daoAKQWc,2020-0188,2021-10-31,02:30:30,03:46:47,NA,incomplete,false,true,NA,NA,2,12,NA,brown,n_l_110.jpg,NA,NA,NA,NA,NA,pleasant,unpleasant,NA,NA,NA,NA,NA,right,1761,true,NA,NA,NA,NA,NA,NA,NA,NA
daoAKQWc,39kv3a5d2bk8g62f2ek1xjbwsefs7u,3n1fsuefl9d7iez8usw7os1e4lnd4s,daoAKQWc,2020-0188,2021-10-31,02:30:30,03:46:47,NA,incomplete,false,true,NA,NA,2,13,NA,brown,m_l_068.jpg,NA,NA,NA,NA,NA,unpleasant,pleasant,NA,NA,NA,NA,NA,right,1752,true,NA,NA,NA,NA,NA,NA,NA,NA
daoAKQWc,39kv3a5d2bk8g62f2ek1xjbwsefs7u,3n1fsuefl9d7iez8usw7os1e4lnd4s,daoAKQWc,2020-0188,2021-10-31,02:30:30,03:46:47,NA,incomplete,false,true,NA,NA,2,14,NA,brown,m_l_049.jpg,NA,NA,NA,NA,NA,unpleasant,pleasant,NA,NA,NA,NA,NA,left,2528,true,NA,NA,NA,NA,NA,NA,NA,NA
daoAKQWc,39kv3a5d2bk8g62f2ek1xjbwsefs7u,3n1fsuefl9d7iez8usw7os1e4lnd4s,daoAKQWc,2020-0188,2021-10-31,02:30:30,03:46:47,NA,incomplete,false,true,NA,NA,2,15,NA,brown,m_l_018.jpg,NA,NA,NA,NA,NA,pleasant,unpleasant,NA,NA,NA,NA,NA,right,2221,true,NA,NA,NA,NA,NA,NA,NA,NA
daoAKQWc,39kv3a5d2bk8g62f2ek1xjbwsefs7u,3n1fsuefl9d7iez8usw7os1e4lnd4s,daoAKQWc,2020-0188,2021-10-31,02:30:30,03:46:47,NA,incomplete,false,true,NA,NA,2,16,NA,brown,m_s_101.jpg,NA,NA,NA,NA,NA,pleasant,unpleasant,NA,NA,NA,NA,NA,left,1508,true,NA,NA,NA,NA,NA,NA,NA,NA
daoAKQWc,39kv3a5d2bk8g62f2ek1xjbwsefs7u,3n1fsuefl9d7iez8usw7os1e4lnd4s,daoAKQWc,2020-0188,2021-10-31,02:30:30,03:46:47,NA,incomplete,false,true,NA,NA,2,17,NA,brown,m_l_111.jpg,NA,NA,NA,NA,NA,pleasant,unpleasant,NA,NA,NA,NA,NA,left,1670,true,NA,NA,NA,NA,NA,NA,NA,NA
daoAKQWc,39kv3a5d2bk8g62f2ek1xjbwsefs7u,3n1fsuefl9d7iez8usw7os1e4lnd4s,daoAKQWc,2020-0188,2021-10-31,02:30:30,03:46:47,NA,incomplete,false,true,NA,NA,2,18,NA,blue,m_s_076.jpg,NA,NA,NA,NA,NA,unpleasant,pleasant,NA,NA,NA,NA,NA,right,1373,true,NA,NA,NA,NA,NA,NA,NA,NA
daoAKQWc,39kv3a5d2bk8g62f2ek1xjbwsefs7u,3n1fsuefl9d7iez8usw7os1e4lnd4s,daoAKQWc,2020-0188,2021-10-31,02:30:30,03:46:47,NA,incomplete,false,true,NA,NA,2,19,NA,blue,n_s_020.jpg,NA,NA,NA,NA,NA,unpleasant,pleasant,NA,NA,NA,NA,NA,right,1555,true,NA,NA,NA,NA,NA,NA,NA,NA
daoAKQWc,39kv3a5d2bk8g62f2ek1xjbwsefs7u,3n1fsuefl9d7iez8usw7os1e4lnd4s,daoAKQWc,2020-0188,2021-10-31,02:30:30,03:46:47,NA,incomplete,false,true,NA,NA,2,20,NA,blue,m_l_114.jpg,NA,NA,NA,NA,NA,pleasant,unpleasant,NA,NA,NA,NA,NA,left,1158,true,NA,NA,NA,NA,NA,NA,NA,NA
daoAKQWc,39kv3a5d2bk8g62f2ek1xjbwsefs7u,3n1fsuefl9d7iez8usw7os1e4lnd4s,daoAKQWc,2020-0188,2021-10-31,02:30:30,03:46:47,NA,incomplete,false,true,NA,NA,2,21,NA,blue,n_l_005.jpg,NA,NA,NA,NA,NA,pleasant,unpleasant,NA,NA,NA,NA,NA,left,1221,true,NA,NA,NA,NA,NA,NA,NA,NA
daoAKQWc,39kv3a5d2bk8g62f2ek1xjbwsefs7u,3n1fsuefl9d7iez8usw7os1e4lnd4s,daoAKQWc,2020-0188,2021-10-31,02:30:30,03:46:47,NA,incomplete,false,true,NA,NA,2,22,NA,blue,m_s_074.jpg,NA,NA,NA,NA,NA,unpleasant,pleasant,NA,NA,NA,NA,NA,right,2082,true,NA,NA,NA,NA,NA,NA,NA,NA
daoAKQWc,39kv3a5d2bk8g62f2ek1xjbwsefs7u,3n1fsuefl9d7iez8usw7os1e4lnd4s,daoAKQWc,2020-0188,2021-10-31,02:30:30,03:46:47,NA,incomplete,false,true,NA,NA,2,23,NA,blue,m_l_105.jpg,NA,NA,NA,NA,NA,pleasant,unpleasant,NA,NA,NA,NA,NA,left,1463,true,NA,NA,NA,NA,NA,NA,NA,NA
daoAKQWc,39kv3a5d2bk8g62f2ek1xjbwsefs7u,3n1fsuefl9d7iez8usw7os1e4lnd4s,daoAKQWc,2020-0188,2021-10-31,02:30:30,03:46:47,NA,incomplete,false,true,NA,NA,2,24,NA,purple,m_s_020.jpg,NA,NA,NA,NA,NA,pleasant,unpleasant,NA,NA,NA,NA,NA,left,1523,true,NA,NA,NA,NA,NA,NA,NA,NA
daoAKQWc,39kv3a5d2bk8g62f2ek1xjbwsefs7u,3n1fsuefl9d7iez8usw7os1e4lnd4s,daoAKQWc,2020-0188,2021-10-31,02:30:30,03:46:47,NA,incomplete,false,true,NA,NA,2,25,NA,purple,m_s_108.jpg,NA,NA,NA,NA,NA,unpleasant,pleasant,NA,NA,NA,NA,NA,right,1538,true,NA,NA,NA,NA,NA,NA,NA,NA
daoAKQWc,39kv3a5d2bk8g62f2ek1xjbwsefs7u,3n1fsuefl9d7iez8usw7os1e4lnd4s,daoAKQWc,2020-0188,2021-10-31,02:30:30,03:46:47,NA,incomplete,false,true,NA,NA,2,26,NA,purple,m_l_041.jpg,NA,NA,NA,NA,NA,unpleasant,pleasant,NA,NA,NA,NA,NA,right,1552,true,NA,NA,NA,NA,NA,NA,NA,NA
daoAKQWc,39kv3a5d2bk8g62f2ek1xjbwsefs7u,3n1fsuefl9d7iez8usw7os1e4lnd4s,daoAKQWc,2020-0188,2021-10-31,02:30:30,03:46:47,NA,incomplete,false,true,NA,NA,2,27,NA,purple,m_s_019.jpg,NA,NA,NA,NA,NA,pleasant,unpleasant,NA,NA,NA,NA,NA,left,1638,true,NA,NA,NA,NA,NA,NA,NA,NA
daoAKQWc,39kv3a5d2bk8g62f2ek1xjbwsefs7u,3n1fsuefl9d7iez8usw7os1e4lnd4s,daoAKQWc,2020-0188,2021-10-31,02:30:30,03:46:47,NA,incomplete,false,true,NA,NA,2,28,NA,purple,n_s_099.jpg,NA,NA,NA,NA,NA,unpleasant,pleasant,NA,NA,NA,NA,NA,right,1067,true,NA,NA,NA,NA,NA,NA,NA,NA
daoAKQWc,39kv3a5d2bk8g62f2ek1xjbwsefs7u,3n1fsuefl9d7iez8usw7os1e4lnd4s,daoAKQWc,2020-0188,2021-10-31,02:30:30,03:46:47,NA,incomplete,false,true,NA,NA,2,29,NA,purple,n_s_030.jpg,NA,NA,NA,NA,NA,unpleasant,pleasant,NA,NA,NA,NA,NA,right,1177,true,NA,NA,NA,NA,NA,NA,NA,NA
daoAKQWc,39kv3a5d2bk8g62f2ek1xjbwsefs7u,3n1fsuefl9d7iez8usw7os1e4lnd4s,daoAKQWc,2020-0188,2021-10-31,02:30:30,03:46:47,NA,incomplete,false,true,NA,NA,2,30,NA,white,m_s_040.jpg,NA,NA,NA,NA,NA,unpleasant,pleasant,NA,NA,NA,NA,NA,right,1722,true,NA,NA,NA,NA,NA,NA,NA,NA
daoAKQWc,39kv3a5d2bk8g62f2ek1xjbwsefs7u,3n1fsuefl9d7iez8usw7os1e4lnd4s,daoAKQWc,2020-0188,2021-10-31,02:30:30,03:46:47,NA,incomplete,false,true,NA,NA,2,31,NA,white,m_l_067.jpg,NA,NA,NA,NA,NA,unpleasant,pleasant,NA,NA,NA,NA,NA,left,2094,true,NA,NA,NA,NA,NA,NA,NA,NA
daoAKQWc,39kv3a5d2bk8g62f2ek1xjbwsefs7u,3n1fsuefl9d7iez8usw7os1e4lnd4s,daoAKQWc,2020-0188,2021-10-31,02:30:30,03:46:47,NA,incomplete,false,true,NA,NA,2,32,NA,white,n_s_039.jpg,NA,NA,NA,NA,NA,pleasant,unpleasant,NA,NA,NA,NA,NA,left,1694,true,NA,NA,NA,NA,NA,NA,NA,NA
daoAKQWc,39kv3a5d2bk8g62f2ek1xjbwsefs7u,3n1fsuefl9d7iez8usw7os1e4lnd4s,daoAKQWc,2020-0188,2021-10-31,02:30:30,03:46:47,NA,incomplete,false,true,NA,NA,2,33,NA,white,n_l_023.jpg,NA,NA,NA,NA,NA,unpleasant,pleasant,NA,NA,NA,NA,NA,left,2125,true,NA,NA,NA,NA,NA,NA,NA,NA
daoAKQWc,39kv3a5d2bk8g62f2ek1xjbwsefs7u,3n1fsuefl9d7iez8usw7os1e4lnd4s,daoAKQWc,2020-0188,2021-10-31,02:30:30,03:46:47,NA,incomplete,false,true,NA,NA,2,34,NA,white,m_l_078.jpg,NA,NA,NA,NA,NA,pleasant,unpleasant,NA,NA,NA,NA,NA,left,2113,true,NA,NA,NA,NA,NA,NA,NA,NA
daoAKQWc,39kv3a5d2bk8g62f2ek1xjbwsefs7u,3n1fsuefl9d7iez8usw7os1e4lnd4s,daoAKQWc,2020-0188,2021-10-31,02:30:30,03:46:47,NA,incomplete,false,true,NA,NA,2,35,NA,white,n_s_031.jpg,NA,NA,NA,NA,NA,pleasant,unpleasant,NA,NA,NA,NA,NA,left,2046,true,NA,NA,NA,NA,NA,NA,NA,NA
daoAKQWc,39kv3a5d2bk8g62f2ek1xjbwsefs7u,3n1fsuefl9d7iez8usw7os1e4lnd4s,daoAKQWc,2020-0188,2021-10-31,02:30:30,03:46:47,NA,incomplete,false,NA,NA,true,2,0,NA,NA,NA,right,n_s_092.jpg,brown,orange,NA,NA,NA,NA,NA,NA,NA,NA,NA,NaN,NA,1988,right,1,NA,NA,NA,NA,NA
daoAKQWc,39kv3a5d2bk8g62f2ek1xjbwsefs7u,3n1fsuefl9d7iez8usw7os1e4lnd4s,daoAKQWc,2020-0188,2021-10-31,02:30:30,03:46:47,NA,incomplete,false,NA,NA,true,2,1,NA,NA,NA,right,n_s_031.jpg,purple,white,NA,NA,NA,NA,NA,NA,NA,NA,NA,NaN,NA,2157,right,1,NA,NA,NA,NA,NA
daoAKQWc,39kv3a5d2bk8g62f2ek1xjbwsefs7u,3n1fsuefl9d7iez8usw7os1e4lnd4s,daoAKQWc,2020-0188,2021-10-31,02:30:30,03:46:47,NA,incomplete,false,NA,NA,true,2,2,NA,NA,NA,right,m_s_058.jpg,orange,green,NA,NA,NA,NA,NA,NA,NA,NA,NA,NaN,NA,4997,right,1,NA,NA,NA,NA,NA
daoAKQWc,39kv3a5d2bk8g62f2ek1xjbwsefs7u,3n1fsuefl9d7iez8usw7os1e4lnd4s,daoAKQWc,2020-0188,2021-10-31,02:30:30,03:46:47,NA,incomplete,false,NA,NA,true,2,3,NA,NA,NA,right,m_l_111.jpg,blue,brown,NA,NA,NA,NA,NA,NA,NA,NA,NA,NaN,NA,1913,right,1,NA,NA,NA,NA,NA
daoAKQWc,39kv3a5d2bk8g62f2ek1xjbwsefs7u,3n1fsuefl9d7iez8usw7os1e4lnd4s,daoAKQWc,2020-0188,2021-10-31,02:30:30,03:46:47,NA,incomplete,false,NA,NA,true,2,4,NA,NA,NA,left,n_s_023.jpg,green,orange,NA,NA,NA,NA,NA,NA,NA,NA,NA,NaN,NA,2282,left,1,NA,NA,NA,NA,NA
daoAKQWc,39kv3a5d2bk8g62f2ek1xjbwsefs7u,3n1fsuefl9d7iez8usw7os1e4lnd4s,daoAKQWc,2020-0188,2021-10-31,02:30:30,03:46:47,NA,incomplete,false,NA,NA,true,2,5,NA,NA,NA,right,n_l_012.jpg,green,orange,NA,NA,NA,NA,NA,NA,NA,NA,NA,NaN,NA,2188,right,1,NA,NA,NA,NA,NA
daoAKQWc,39kv3a5d2bk8g62f2ek1xjbwsefs7u,3n1fsuefl9d7iez8usw7os1e4lnd4s,daoAKQWc,2020-0188,2021-10-31,02:30:30,03:46:47,NA,incomplete,false,NA,NA,true,2,6,NA,NA,NA,right,n_s_030.jpg,white,purple,NA,NA,NA,NA,NA,NA,NA,NA,NA,NaN,NA,1710,right,1,NA,NA,NA,NA,NA
daoAKQWc,39kv3a5d2bk8g62f2ek1xjbwsefs7u,3n1fsuefl9d7iez8usw7os1e4lnd4s,daoAKQWc,2020-0188,2021-10-31,02:30:30,03:46:47,NA,incomplete,false,NA,NA,true,2,7,NA,NA,NA,right,m_l_049.jpg,blue,brown,NA,NA,NA,NA,NA,NA,NA,NA,NA,NaN,NA,1729,right,1,NA,NA,NA,NA,NA
daoAKQWc,39kv3a5d2bk8g62f2ek1xjbwsefs7u,3n1fsuefl9d7iez8usw7os1e4lnd4s,daoAKQWc,2020-0188,2021-10-31,02:30:30,03:46:47,NA,incomplete,false,NA,NA,true,2,8,NA,NA,NA,right,m_l_068.jpg,blue,brown,NA,NA,NA,NA,NA,NA,NA,NA,NA,NaN,NA,1776,right,1,NA,NA,NA,NA,NA
daoAKQWc,39kv3a5d2bk8g62f2ek1xjbwsefs7u,3n1fsuefl9d7iez8usw7os1e4lnd4s,daoAKQWc,2020-0188,2021-10-31,02:30:30,03:46:47,NA,incomplete,false,NA,NA,true,2,9,NA,NA,NA,left,n_s_099.jpg,purple,blue,NA,NA,NA,NA,NA,NA,NA,NA,NA,NaN,NA,4387,left,1,NA,NA,NA,NA,NA
daoAKQWc,39kv3a5d2bk8g62f2ek1xjbwsefs7u,3n1fsuefl9d7iez8usw7os1e4lnd4s,daoAKQWc,2020-0188,2021-10-31,02:30:30,03:46:47,NA,incomplete,false,NA,NA,true,2,10,NA,NA,NA,left,n_l_052.jpg,green,orange,NA,NA,NA,NA,NA,NA,NA,NA,NA,NaN,NA,2515,left,1,NA,NA,NA,NA,NA
daoAKQWc,39kv3a5d2bk8g62f2ek1xjbwsefs7u,3n1fsuefl9d7iez8usw7os1e4lnd4s,daoAKQWc,2020-0188,2021-10-31,02:30:30,03:46:47,NA,incomplete,false,NA,NA,true,2,11,NA,NA,NA,right,m_s_074.jpg,brown,blue,NA,NA,NA,NA,NA,NA,NA,NA,NA,NaN,NA,1543,right,1,NA,NA,NA,NA,NA
daoAKQWc,39kv3a5d2bk8g62f2ek1xjbwsefs7u,3n1fsuefl9d7iez8usw7os1e4lnd4s,daoAKQWc,2020-0188,2021-10-31,02:30:30,03:46:47,NA,incomplete,false,NA,NA,true,2,12,NA,NA,NA,right,m_l_114.jpg,purple,blue,NA,NA,NA,NA,NA,NA,NA,NA,NA,NaN,NA,2620,right,1,NA,NA,NA,NA,NA
daoAKQWc,39kv3a5d2bk8g62f2ek1xjbwsefs7u,3n1fsuefl9d7iez8usw7os1e4lnd4s,daoAKQWc,2020-0188,2021-10-31,02:30:30,03:46:47,NA,incomplete,false,NA,NA,true,2,13,NA,NA,NA,right,m_s_101.jpg,orange,brown,NA,NA,NA,NA,NA,NA,NA,NA,NA,NaN,NA,1544,right,1,NA,NA,NA,NA,NA
daoAKQWc,39kv3a5d2bk8g62f2ek1xjbwsefs7u,3n1fsuefl9d7iez8usw7os1e4lnd4s,daoAKQWc,2020-0188,2021-10-31,02:30:30,03:46:47,NA,incomplete,false,NA,NA,true,2,14,NA,NA,NA,left,m_s_108.jpg,purple,white,NA,NA,NA,NA,NA,NA,NA,NA,NA,NaN,NA,1646,left,1,NA,NA,NA,NA,NA
daoAKQWc,39kv3a5d2bk8g62f2ek1xjbwsefs7u,3n1fsuefl9d7iez8usw7os1e4lnd4s,daoAKQWc,2020-0188,2021-10-31,02:30:30,03:46:47,NA,incomplete,false,NA,NA,true,2,15,NA,NA,NA,right,n_l_108.jpg,brown,orange,NA,NA,NA,NA,NA,NA,NA,NA,NA,NaN,NA,1789,right,1,NA,NA,NA,NA,NA
daoAKQWc,39kv3a5d2bk8g62f2ek1xjbwsefs7u,3n1fsuefl9d7iez8usw7os1e4lnd4s,daoAKQWc,2020-0188,2021-10-31,02:30:30,03:46:47,NA,incomplete,false,NA,NA,true,2,16,NA,NA,NA,left,n_s_039.jpg,white,purple,NA,NA,NA,NA,NA,NA,NA,NA,NA,NaN,NA,2629,left,1,NA,NA,NA,NA,NA
daoAKQWc,39kv3a5d2bk8g62f2ek1xjbwsefs7u,3n1fsuefl9d7iez8usw7os1e4lnd4s,daoAKQWc,2020-0188,2021-10-31,02:30:30,03:46:47,NA,incomplete,false,NA,NA,true,2,17,NA,NA,NA,left,m_l_041.jpg,purple,white,NA,NA,NA,NA,NA,NA,NA,NA,NA,NaN,NA,1930,left,1,NA,NA,NA,NA,NA
daoAKQWc,39kv3a5d2bk8g62f2ek1xjbwsefs7u,3n1fsuefl9d7iez8usw7os1e4lnd4s,daoAKQWc,2020-0188,2021-10-31,02:30:30,03:46:47,NA,incomplete,false,NA,NA,true,2,18,NA,NA,NA,right,m_l_067.jpg,purple,white,NA,NA,NA,NA,NA,NA,NA,NA,NA,NaN,NA,2141,right,1,NA,NA,NA,NA,NA
daoAKQWc,39kv3a5d2bk8g62f2ek1xjbwsefs7u,3n1fsuefl9d7iez8usw7os1e4lnd4s,daoAKQWc,2020-0188,2021-10-31,02:30:30,03:46:47,NA,incomplete,false,NA,NA,true,2,19,NA,NA,NA,right,n_l_091.jpg,green,orange,NA,NA,NA,NA,NA,NA,NA,NA,NA,NaN,NA,1664,right,1,NA,NA,NA,NA,NA
daoAKQWc,39kv3a5d2bk8g62f2ek1xjbwsefs7u,3n1fsuefl9d7iez8usw7os1e4lnd4s,daoAKQWc,2020-0188,2021-10-31,02:30:30,03:46:47,NA,incomplete,false,NA,NA,true,2,20,NA,NA,NA,right,n_s_020.jpg,purple,blue,NA,NA,NA,NA,NA,NA,NA,NA,NA,NaN,NA,1617,right,1,NA,NA,NA,NA,NA
daoAKQWc,39kv3a5d2bk8g62f2ek1xjbwsefs7u,3n1fsuefl9d7iez8usw7os1e4lnd4s,daoAKQWc,2020-0188,2021-10-31,02:30:30,03:46:47,NA,incomplete,false,NA,NA,true,2,21,NA,NA,NA,left,m_l_105.jpg,blue,brown,NA,NA,NA,NA,NA,NA,NA,NA,NA,NaN,NA,1982,left,1,NA,NA,NA,NA,NA
daoAKQWc,39kv3a5d2bk8g62f2ek1xjbwsefs7u,3n1fsuefl9d7iez8usw7os1e4lnd4s,daoAKQWc,2020-0188,2021-10-31,02:30:30,03:46:47,NA,incomplete,false,NA,true,NA,2,0,NA,NA,NA,left,NA,NA,NA,absent,NA,NA,n_s_023.jpg,green,n_l_052.jpg,green,within,NA,NaN,NA,NA,NA,NA,left,3742,1,1,2639
daoAKQWc,39kv3a5d2bk8g62f2ek1xjbwsefs7u,3n1fsuefl9d7iez8usw7os1e4lnd4s,daoAKQWc,2020-0188,2021-10-31,02:30:30,03:46:47,NA,incomplete,false,NA,true,NA,2,1,NA,NA,NA,right,NA,NA,NA,absent,NA,NA,n_l_108.jpg,orange,m_s_058.jpg,green,between,NA,NaN,NA,NA,NA,NA,right,3313,1,1,4293
daoAKQWc,39kv3a5d2bk8g62f2ek1xjbwsefs7u,3n1fsuefl9d7iez8usw7os1e4lnd4s,daoAKQWc,2020-0188,2021-10-31,02:30:30,03:46:47,NA,incomplete,false,NA,true,NA,2,2,NA,NA,NA,right,NA,NA,NA,absent,NA,NA,m_l_105.jpg,blue,n_s_020.jpg,blue,within,NA,NaN,NA,NA,NA,NA,right,2844,1,0,1229
daoAKQWc,39kv3a5d2bk8g62f2ek1xjbwsefs7u,3n1fsuefl9d7iez8usw7os1e4lnd4s,daoAKQWc,2020-0188,2021-10-31,02:30:30,03:46:47,NA,incomplete,false,NA,true,NA,2,3,NA,NA,NA,right,NA,NA,NA,absent,NA,NA,n_s_039.jpg,white,n_s_099.jpg,purple,between,NA,NaN,NA,NA,NA,NA,right,10347,1,2,2562
daoAKQWc,39kv3a5d2bk8g62f2ek1xjbwsefs7u,3n1fsuefl9d7iez8usw7os1e4lnd4s,daoAKQWc,2020-0188,2021-10-31,02:30:30,03:46:47,NA,incomplete,false,NA,true,NA,2,4,NA,NA,NA,left,NA,NA,NA,absent,NA,NA,m_l_068.jpg,brown,m_l_111.jpg,brown,within,NA,NaN,NA,NA,NA,NA,left,2743,1,1,4961
daoAKQWc,39kv3a5d2bk8g62f2ek1xjbwsefs7u,3n1fsuefl9d7iez8usw7os1e4lnd4s,daoAKQWc,2020-0188,2021-10-31,02:30:30,03:46:47,NA,incomplete,false,NA,true,NA,2,5,NA,NA,NA,right,NA,NA,NA,absent,NA,NA,n_s_030.jpg,purple,m_s_108.jpg,purple,within,NA,NaN,NA,NA,NA,NA,right,3002,1,1,1857
daoAKQWc,39kv3a5d2bk8g62f2ek1xjbwsefs7u,3n1fsuefl9d7iez8usw7os1e4lnd4s,daoAKQWc,2020-0188,2021-10-31,02:30:30,03:46:47,NA,incomplete,false,NA,true,NA,2,6,NA,NA,NA,right,NA,NA,NA,absent,NA,NA,n_l_091.jpg,orange,n_l_012.jpg,orange,within,NA,NaN,NA,NA,NA,NA,right,4103,1,1,1604
daoAKQWc,39kv3a5d2bk8g62f2ek1xjbwsefs7u,3n1fsuefl9d7iez8usw7os1e4lnd4s,daoAKQWc,2020-0188,2021-10-31,02:30:30,03:46:47,NA,incomplete,false,NA,true,NA,2,7,NA,NA,NA,left,NA,NA,NA,absent,NA,NA,m_l_067.jpg,white,n_s_031.jpg,white,within,NA,NaN,NA,NA,NA,NA,left,3856,1,1,1886
daoAKQWc,39kv3a5d2bk8g62f2ek1xjbwsefs7u,3n1fsuefl9d7iez8usw7os1e4lnd4s,daoAKQWc,2020-0188,2021-10-31,02:30:30,03:46:47,NA,incomplete,false,NA,true,NA,2,8,NA,NA,NA,right,NA,NA,NA,absent,NA,NA,m_l_049.jpg,brown,n_s_092.jpg,orange,between,NA,NaN,NA,NA,NA,NA,right,5257,1,2,2013
daoAKQWc,39kv3a5d2bk8g62f2ek1xjbwsefs7u,3n1fsuefl9d7iez8usw7os1e4lnd4s,daoAKQWc,2020-0188,2021-10-31,02:30:30,03:46:47,NA,incomplete,false,NA,true,NA,2,9,NA,NA,NA,left,NA,NA,NA,absent,NA,NA,m_s_074.jpg,blue,m_l_041.jpg,purple,between,NA,NaN,NA,NA,NA,NA,right,13960,0,2,1893
daoAKQWc,39kv3a5d2bk8g62f2ek1xjbwsefs7u,3n1fsuefl9d7iez8usw7os1e4lnd4s,daoAKQWc,2020-0188,2021-10-31,02:30:30,03:46:47,NA,incomplete,false,NA,true,NA,2,10,NA,NA,NA,left,NA,NA,NA,absent,NA,NA,m_s_101.jpg,brown,m_l_114.jpg,blue,between,NA,NaN,NA,NA,NA,NA,left,4942,1,2,1608
daoAKQWc,39kv3a5d2bk8g62f2ek1xjbwsefs7u,3n1fsuefl9d7iez8usw7os1e4lnd4s,daoAKQWc,2020-0188,2021-10-31,02:30:30,03:46:47,NA,incomplete,false,true,NA,NA,3,0,NA,blue,n_l_008.jpg,NA,NA,NA,NA,NA,unpleasant,pleasant,NA,NA,NA,NA,NA,right,2167,true,NA,NA,NA,NA,NA,NA,NA,NA
daoAKQWc,39kv3a5d2bk8g62f2ek1xjbwsefs7u,3n1fsuefl9d7iez8usw7os1e4lnd4s,daoAKQWc,2020-0188,2021-10-31,02:30:30,03:46:47,NA,incomplete,false,true,NA,NA,3,1,NA,blue,n_s_041.jpg,NA,NA,NA,NA,NA,pleasant,unpleasant,NA,NA,NA,NA,NA,left,1842,true,NA,NA,NA,NA,NA,NA,NA,NA
daoAKQWc,39kv3a5d2bk8g62f2ek1xjbwsefs7u,3n1fsuefl9d7iez8usw7os1e4lnd4s,daoAKQWc,2020-0188,2021-10-31,02:30:30,03:46:47,NA,incomplete,false,true,NA,NA,3,2,NA,blue,m_s_023.jpg,NA,NA,NA,NA,NA,unpleasant,pleasant,NA,NA,NA,NA,NA,right,1250,true,NA,NA,NA,NA,NA,NA,NA,NA
daoAKQWc,39kv3a5d2bk8g62f2ek1xjbwsefs7u,3n1fsuefl9d7iez8usw7os1e4lnd4s,daoAKQWc,2020-0188,2021-10-31,02:30:30,03:46:47,NA,incomplete,false,true,NA,NA,3,3,NA,blue,m_l_053.jpg,NA,NA,NA,NA,NA,pleasant,unpleasant,NA,NA,NA,NA,NA,left,1487,true,NA,NA,NA,NA,NA,NA,NA,NA
daoAKQWc,39kv3a5d2bk8g62f2ek1xjbwsefs7u,3n1fsuefl9d7iez8usw7os1e4lnd4s,daoAKQWc,2020-0188,2021-10-31,02:30:30,03:46:47,NA,incomplete,false,true,NA,NA,3,4,NA,blue,n_s_035.jpg,NA,NA,NA,NA,NA,pleasant,unpleasant,NA,NA,NA,NA,NA,left,1898,true,NA,NA,NA,NA,NA,NA,NA,NA
daoAKQWc,39kv3a5d2bk8g62f2ek1xjbwsefs7u,3n1fsuefl9d7iez8usw7os1e4lnd4s,daoAKQWc,2020-0188,2021-10-31,02:30:30,03:46:47,NA,incomplete,false,true,NA,NA,3,5,NA,blue,m_s_080.jpg,NA,NA,NA,NA,NA,unpleasant,pleasant,NA,NA,NA,NA,NA,right,1183,true,NA,NA,NA,NA,NA,NA,NA,NA
daoAKQWc,39kv3a5d2bk8g62f2ek1xjbwsefs7u,3n1fsuefl9d7iez8usw7os1e4lnd4s,daoAKQWc,2020-0188,2021-10-31,02:30:30,03:46:47,NA,incomplete,false,true,NA,NA,3,6,NA,brown,m_l_054.jpg,NA,NA,NA,NA,NA,pleasant,unpleasant,NA,NA,NA,NA,NA,right,1556,true,NA,NA,NA,NA,NA,NA,NA,NA
daoAKQWc,39kv3a5d2bk8g62f2ek1xjbwsefs7u,3n1fsuefl9d7iez8usw7os1e4lnd4s,daoAKQWc,2020-0188,2021-10-31,02:30:30,03:46:47,NA,incomplete,false,true,NA,NA,3,7,NA,brown,n_s_101.jpg,NA,NA,NA,NA,NA,pleasant,unpleasant,NA,NA,NA,NA,NA,right,1283,true,NA,NA,NA,NA,NA,NA,NA,NA
daoAKQWc,39kv3a5d2bk8g62f2ek1xjbwsefs7u,3n1fsuefl9d7iez8usw7os1e4lnd4s,daoAKQWc,2020-0188,2021-10-31,02:30:30,03:46:47,NA,incomplete,false,true,NA,NA,3,8,NA,brown,n_s_047.jpg,NA,NA,NA,NA,NA,pleasant,unpleasant,NA,NA,NA,NA,NA,left,1582,true,NA,NA,NA,NA,NA,NA,NA,NA
daoAKQWc,39kv3a5d2bk8g62f2ek1xjbwsefs7u,3n1fsuefl9d7iez8usw7os1e4lnd4s,daoAKQWc,2020-0188,2021-10-31,02:30:30,03:46:47,NA,incomplete,false,true,NA,NA,3,9,NA,brown,n_s_011.jpg,NA,NA,NA,NA,NA,unpleasant,pleasant,NA,NA,NA,NA,NA,right,1349,true,NA,NA,NA,NA,NA,NA,NA,NA
daoAKQWc,39kv3a5d2bk8g62f2ek1xjbwsefs7u,3n1fsuefl9d7iez8usw7os1e4lnd4s,daoAKQWc,2020-0188,2021-10-31,02:30:30,03:46:47,NA,incomplete,false,true,NA,NA,3,10,NA,brown,n_l_043.jpg,NA,NA,NA,NA,NA,pleasant,unpleasant,NA,NA,NA,NA,NA,left,1427,true,NA,NA,NA,NA,NA,NA,NA,NA
daoAKQWc,39kv3a5d2bk8g62f2ek1xjbwsefs7u,3n1fsuefl9d7iez8usw7os1e4lnd4s,daoAKQWc,2020-0188,2021-10-31,02:30:30,03:46:47,NA,incomplete,false,true,NA,NA,3,11,NA,brown,m_l_058.jpg,NA,NA,NA,NA,NA,unpleasant,pleasant,NA,NA,NA,NA,NA,left,1868,true,NA,NA,NA,NA,NA,NA,NA,NA
daoAKQWc,39kv3a5d2bk8g62f2ek1xjbwsefs7u,3n1fsuefl9d7iez8usw7os1e4lnd4s,daoAKQWc,2020-0188,2021-10-31,02:30:30,03:46:47,NA,incomplete,false,true,NA,NA,3,12,NA,red,m_l_031.jpg,NA,NA,NA,NA,NA,pleasant,unpleasant,NA,NA,NA,NA,NA,left,2268,true,NA,NA,NA,NA,NA,NA,NA,NA
daoAKQWc,39kv3a5d2bk8g62f2ek1xjbwsefs7u,3n1fsuefl9d7iez8usw7os1e4lnd4s,daoAKQWc,2020-0188,2021-10-31,02:30:30,03:46:47,NA,incomplete,false,true,NA,NA,3,13,NA,red,n_s_032.jpg,NA,NA,NA,NA,NA,unpleasant,pleasant,NA,NA,NA,NA,NA,right,1419,true,NA,NA,NA,NA,NA,NA,NA,NA
daoAKQWc,39kv3a5d2bk8g62f2ek1xjbwsefs7u,3n1fsuefl9d7iez8usw7os1e4lnd4s,daoAKQWc,2020-0188,2021-10-31,02:30:30,03:46:47,NA,incomplete,false,true,NA,NA,3,14,NA,red,m_l_106.jpg,NA,NA,NA,NA,NA,unpleasant,pleasant,NA,NA,NA,NA,NA,right,2131,true,NA,NA,NA,NA,NA,NA,NA,NA
daoAKQWc,39kv3a5d2bk8g62f2ek1xjbwsefs7u,3n1fsuefl9d7iez8usw7os1e4lnd4s,daoAKQWc,2020-0188,2021-10-31,02:30:30,03:46:47,NA,incomplete,false,true,NA,NA,3,15,NA,red,n_l_047.jpg,NA,NA,NA,NA,NA,unpleasant,pleasant,NA,NA,NA,NA,NA,right,1352,true,NA,NA,NA,NA,NA,NA,NA,NA
daoAKQWc,39kv3a5d2bk8g62f2ek1xjbwsefs7u,3n1fsuefl9d7iez8usw7os1e4lnd4s,daoAKQWc,2020-0188,2021-10-31,02:30:30,03:46:47,NA,incomplete,false,true,NA,NA,3,16,NA,red,n_s_081.jpg,NA,NA,NA,NA,NA,unpleasant,pleasant,NA,NA,NA,NA,NA,right,1367,true,NA,NA,NA,NA,NA,NA,NA,NA
daoAKQWc,39kv3a5d2bk8g62f2ek1xjbwsefs7u,3n1fsuefl9d7iez8usw7os1e4lnd4s,daoAKQWc,2020-0188,2021-10-31,02:30:30,03:46:47,NA,incomplete,false,true,NA,NA,3,17,NA,red,n_l_044.jpg,NA,NA,NA,NA,NA,pleasant,unpleasant,NA,NA,NA,NA,NA,left,1766,true,NA,NA,NA,NA,NA,NA,NA,NA
daoAKQWc,39kv3a5d2bk8g62f2ek1xjbwsefs7u,3n1fsuefl9d7iez8usw7os1e4lnd4s,daoAKQWc,2020-0188,2021-10-31,02:30:30,03:46:47,NA,incomplete,false,true,NA,NA,3,18,NA,black,m_s_037.jpg,NA,NA,NA,NA,NA,pleasant,unpleasant,NA,NA,NA,NA,NA,right,1616,true,NA,NA,NA,NA,NA,NA,NA,NA
daoAKQWc,39kv3a5d2bk8g62f2ek1xjbwsefs7u,3n1fsuefl9d7iez8usw7os1e4lnd4s,daoAKQWc,2020-0188,2021-10-31,02:30:30,03:46:47,NA,incomplete,false,true,NA,NA,3,19,NA,black,m_l_047.jpg,NA,NA,NA,NA,NA,pleasant,unpleasant,NA,NA,NA,NA,NA,right,1378,true,NA,NA,NA,NA,NA,NA,NA,NA
daoAKQWc,39kv3a5d2bk8g62f2ek1xjbwsefs7u,3n1fsuefl9d7iez8usw7os1e4lnd4s,daoAKQWc,2020-0188,2021-10-31,02:30:30,03:46:47,NA,incomplete,false,true,NA,NA,3,20,NA,black,m_l_033.jpg,NA,NA,NA,NA,NA,unpleasant,pleasant,NA,NA,NA,NA,NA,left,1459,true,NA,NA,NA,NA,NA,NA,NA,NA
daoAKQWc,39kv3a5d2bk8g62f2ek1xjbwsefs7u,3n1fsuefl9d7iez8usw7os1e4lnd4s,daoAKQWc,2020-0188,2021-10-31,02:30:30,03:46:47,NA,incomplete,false,true,NA,NA,3,21,NA,black,n_l_076.jpg,NA,NA,NA,NA,NA,unpleasant,pleasant,NA,NA,NA,NA,NA,right,2102,true,NA,NA,NA,NA,NA,NA,NA,NA
daoAKQWc,39kv3a5d2bk8g62f2ek1xjbwsefs7u,3n1fsuefl9d7iez8usw7os1e4lnd4s,daoAKQWc,2020-0188,2021-10-31,02:30:30,03:46:47,NA,incomplete,false,true,NA,NA,3,22,NA,black,m_s_100.jpg,NA,NA,NA,NA,NA,pleasant,unpleasant,NA,NA,NA,NA,NA,right,1692,true,NA,NA,NA,NA,NA,NA,NA,NA
daoAKQWc,39kv3a5d2bk8g62f2ek1xjbwsefs7u,3n1fsuefl9d7iez8usw7os1e4lnd4s,daoAKQWc,2020-0188,2021-10-31,02:30:30,03:46:47,NA,incomplete,false,true,NA,NA,3,23,NA,black,m_l_025.jpg,NA,NA,NA,NA,NA,unpleasant,pleasant,NA,NA,NA,NA,NA,left,1369,true,NA,NA,NA,NA,NA,NA,NA,NA
daoAKQWc,39kv3a5d2bk8g62f2ek1xjbwsefs7u,3n1fsuefl9d7iez8usw7os1e4lnd4s,daoAKQWc,2020-0188,2021-10-31,02:30:30,03:46:47,NA,incomplete,false,true,NA,NA,3,24,NA,gray,n_s_056.jpg,NA,NA,NA,NA,NA,unpleasant,pleasant,NA,NA,NA,NA,NA,left,1578,true,NA,NA,NA,NA,NA,NA,NA,NA
daoAKQWc,39kv3a5d2bk8g62f2ek1xjbwsefs7u,3n1fsuefl9d7iez8usw7os1e4lnd4s,daoAKQWc,2020-0188,2021-10-31,02:30:30,03:46:47,NA,incomplete,false,true,NA,NA,3,25,NA,gray,n_l_035.jpg,NA,NA,NA,NA,NA,unpleasant,pleasant,NA,NA,NA,NA,NA,right,1966,true,NA,NA,NA,NA,NA,NA,NA,NA
daoAKQWc,39kv3a5d2bk8g62f2ek1xjbwsefs7u,3n1fsuefl9d7iez8usw7os1e4lnd4s,daoAKQWc,2020-0188,2021-10-31,02:30:30,03:46:47,NA,incomplete,false,true,NA,NA,3,26,NA,gray,n_s_053.jpg,NA,NA,NA,NA,NA,unpleasant,pleasant,NA,NA,NA,NA,NA,left,1776,true,NA,NA,NA,NA,NA,NA,NA,NA
daoAKQWc,39kv3a5d2bk8g62f2ek1xjbwsefs7u,3n1fsuefl9d7iez8usw7os1e4lnd4s,daoAKQWc,2020-0188,2021-10-31,02:30:30,03:46:47,NA,incomplete,false,true,NA,NA,3,27,NA,gray,n_s_009.jpg,NA,NA,NA,NA,NA,pleasant,unpleasant,NA,NA,NA,NA,NA,right,1158,true,NA,NA,NA,NA,NA,NA,NA,NA
daoAKQWc,39kv3a5d2bk8g62f2ek1xjbwsefs7u,3n1fsuefl9d7iez8usw7os1e4lnd4s,daoAKQWc,2020-0188,2021-10-31,02:30:30,03:46:47,NA,incomplete,false,true,NA,NA,3,28,NA,gray,m_l_113.jpg,NA,NA,NA,NA,NA,unpleasant,pleasant,NA,NA,NA,NA,NA,left,1886,true,NA,NA,NA,NA,NA,NA,NA,NA
daoAKQWc,39kv3a5d2bk8g62f2ek1xjbwsefs7u,3n1fsuefl9d7iez8usw7os1e4lnd4s,daoAKQWc,2020-0188,2021-10-31,02:30:30,03:46:47,NA,incomplete,false,true,NA,NA,3,29,NA,gray,m_l_061.jpg,NA,NA,NA,NA,NA,unpleasant,pleasant,NA,NA,NA,NA,NA,left,1465,true,NA,NA,NA,NA,NA,NA,NA,NA
daoAKQWc,39kv3a5d2bk8g62f2ek1xjbwsefs7u,3n1fsuefl9d7iez8usw7os1e4lnd4s,daoAKQWc,2020-0188,2021-10-31,02:30:30,03:46:47,NA,incomplete,false,true,NA,NA,3,30,NA,white,m_l_096.jpg,NA,NA,NA,NA,NA,pleasant,unpleasant,NA,NA,NA,NA,NA,right,1854,true,NA,NA,NA,NA,NA,NA,NA,NA
daoAKQWc,39kv3a5d2bk8g62f2ek1xjbwsefs7u,3n1fsuefl9d7iez8usw7os1e4lnd4s,daoAKQWc,2020-0188,2021-10-31,02:30:30,03:46:47,NA,incomplete,false,true,NA,NA,3,31,NA,white,n_l_083.jpg,NA,NA,NA,NA,NA,unpleasant,pleasant,NA,NA,NA,NA,NA,right,1827,true,NA,NA,NA,NA,NA,NA,NA,NA
daoAKQWc,39kv3a5d2bk8g62f2ek1xjbwsefs7u,3n1fsuefl9d7iez8usw7os1e4lnd4s,daoAKQWc,2020-0188,2021-10-31,02:30:30,03:46:47,NA,incomplete,false,true,NA,NA,3,32,NA,white,n_l_048.jpg,NA,NA,NA,NA,NA,pleasant,unpleasant,NA,NA,NA,NA,NA,left,1618,true,NA,NA,NA,NA,NA,NA,NA,NA
daoAKQWc,39kv3a5d2bk8g62f2ek1xjbwsefs7u,3n1fsuefl9d7iez8usw7os1e4lnd4s,daoAKQWc,2020-0188,2021-10-31,02:30:30,03:46:47,NA,incomplete,false,true,NA,NA,3,33,NA,white,n_s_070.jpg,NA,NA,NA,NA,NA,pleasant,unpleasant,NA,NA,NA,NA,NA,right,1761,true,NA,NA,NA,NA,NA,NA,NA,NA
daoAKQWc,39kv3a5d2bk8g62f2ek1xjbwsefs7u,3n1fsuefl9d7iez8usw7os1e4lnd4s,daoAKQWc,2020-0188,2021-10-31,02:30:30,03:46:47,NA,incomplete,false,true,NA,NA,3,34,NA,white,m_s_078.jpg,NA,NA,NA,NA,NA,pleasant,unpleasant,NA,NA,NA,NA,NA,left,1879,true,NA,NA,NA,NA,NA,NA,NA,NA
daoAKQWc,39kv3a5d2bk8g62f2ek1xjbwsefs7u,3n1fsuefl9d7iez8usw7os1e4lnd4s,daoAKQWc,2020-0188,2021-10-31,02:30:30,03:46:47,NA,incomplete,false,true,NA,NA,3,35,NA,white,m_s_067.jpg,NA,NA,NA,NA,NA,pleasant,unpleasant,NA,NA,NA,NA,NA,right,1314,true,NA,NA,NA,NA,NA,NA,NA,NA
daoAKQWc,39kv3a5d2bk8g62f2ek1xjbwsefs7u,3n1fsuefl9d7iez8usw7os1e4lnd4s,daoAKQWc,2020-0188,2021-10-31,02:30:30,03:46:47,NA,incomplete,false,NA,NA,true,3,0,NA,NA,NA,right,n_s_032.jpg,brown,red,NA,NA,NA,NA,NA,NA,NA,NA,NA,NaN,NA,1907,right,1,NA,NA,NA,NA,NA
daoAKQWc,39kv3a5d2bk8g62f2ek1xjbwsefs7u,3n1fsuefl9d7iez8usw7os1e4lnd4s,daoAKQWc,2020-0188,2021-10-31,02:30:30,03:46:47,NA,incomplete,false,NA,NA,true,3,1,NA,NA,NA,left,m_l_058.jpg,brown,blue,NA,NA,NA,NA,NA,NA,NA,NA,NA,NaN,NA,1684,left,1,NA,NA,NA,NA,NA
daoAKQWc,39kv3a5d2bk8g62f2ek1xjbwsefs7u,3n1fsuefl9d7iez8usw7os1e4lnd4s,daoAKQWc,2020-0188,2021-10-31,02:30:30,03:46:47,NA,incomplete,false,NA,NA,true,3,2,NA,NA,NA,right,m_l_106.jpg,black,red,NA,NA,NA,NA,NA,NA,NA,NA,NA,NaN,NA,1633,right,1,NA,NA,NA,NA,NA
daoAKQWc,39kv3a5d2bk8g62f2ek1xjbwsefs7u,3n1fsuefl9d7iez8usw7os1e4lnd4s,daoAKQWc,2020-0188,2021-10-31,02:30:30,03:46:47,NA,incomplete,false,NA,NA,true,3,3,NA,NA,NA,left,n_s_053.jpg,gray,black,NA,NA,NA,NA,NA,NA,NA,NA,NA,NaN,NA,2523,left,1,NA,NA,NA,NA,NA
daoAKQWc,39kv3a5d2bk8g62f2ek1xjbwsefs7u,3n1fsuefl9d7iez8usw7os1e4lnd4s,daoAKQWc,2020-0188,2021-10-31,02:30:30,03:46:47,NA,incomplete,false,NA,NA,true,3,4,NA,NA,NA,right,m_s_100.jpg,gray,black,NA,NA,NA,NA,NA,NA,NA,NA,NA,NaN,NA,1253,right,1,NA,NA,NA,NA,NA
daoAKQWc,39kv3a5d2bk8g62f2ek1xjbwsefs7u,3n1fsuefl9d7iez8usw7os1e4lnd4s,daoAKQWc,2020-0188,2021-10-31,02:30:30,03:46:47,NA,incomplete,false,NA,NA,true,3,5,NA,NA,NA,right,m_s_067.jpg,gray,white,NA,NA,NA,NA,NA,NA,NA,NA,NA,NaN,NA,1406,right,1,NA,NA,NA,NA,NA
daoAKQWc,39kv3a5d2bk8g62f2ek1xjbwsefs7u,3n1fsuefl9d7iez8usw7os1e4lnd4s,daoAKQWc,2020-0188,2021-10-31,02:30:30,03:46:47,NA,incomplete,false,NA,NA,true,3,6,NA,NA,NA,left,m_l_025.jpg,black,gray,NA,NA,NA,NA,NA,NA,NA,NA,NA,NaN,NA,1880,left,1,NA,NA,NA,NA,NA
daoAKQWc,39kv3a5d2bk8g62f2ek1xjbwsefs7u,3n1fsuefl9d7iez8usw7os1e4lnd4s,daoAKQWc,2020-0188,2021-10-31,02:30:30,03:46:47,NA,incomplete,false,NA,NA,true,3,7,NA,NA,NA,right,n_s_035.jpg,brown,blue,NA,NA,NA,NA,NA,NA,NA,NA,NA,NaN,NA,1801,right,1,NA,NA,NA,NA,NA
daoAKQWc,39kv3a5d2bk8g62f2ek1xjbwsefs7u,3n1fsuefl9d7iez8usw7os1e4lnd4s,daoAKQWc,2020-0188,2021-10-31,02:30:30,03:46:47,NA,incomplete,false,NA,NA,true,3,8,NA,NA,NA,left,n_l_043.jpg,brown,blue,NA,NA,NA,NA,NA,NA,NA,NA,NA,NaN,NA,1727,left,1,NA,NA,NA,NA,NA
daoAKQWc,39kv3a5d2bk8g62f2ek1xjbwsefs7u,3n1fsuefl9d7iez8usw7os1e4lnd4s,daoAKQWc,2020-0188,2021-10-31,02:30:30,03:46:47,NA,incomplete,false,NA,NA,true,3,9,NA,NA,NA,right,m_l_047.jpg,gray,black,NA,NA,NA,NA,NA,NA,NA,NA,NA,NaN,NA,1501,right,1,NA,NA,NA,NA,NA
daoAKQWc,39kv3a5d2bk8g62f2ek1xjbwsefs7u,3n1fsuefl9d7iez8usw7os1e4lnd4s,daoAKQWc,2020-0188,2021-10-31,02:30:30,03:46:47,NA,incomplete,false,NA,NA,true,3,10,NA,NA,NA,right,n_l_083.jpg,gray,white,NA,NA,NA,NA,NA,NA,NA,NA,NA,NaN,NA,1638,right,1,NA,NA,NA,NA,NA
daoAKQWc,39kv3a5d2bk8g62f2ek1xjbwsefs7u,3n1fsuefl9d7iez8usw7os1e4lnd4s,daoAKQWc,2020-0188,2021-10-31,02:30:30,03:46:47,NA,incomplete,false,NA,NA,true,3,11,NA,NA,NA,right,n_s_041.jpg,brown,blue,NA,NA,NA,NA,NA,NA,NA,NA,NA,NaN,NA,1549,right,1,NA,NA,NA,NA,NA
daoAKQWc,39kv3a5d2bk8g62f2ek1xjbwsefs7u,3n1fsuefl9d7iez8usw7os1e4lnd4s,daoAKQWc,2020-0188,2021-10-31,02:30:30,03:46:47,NA,incomplete,false,NA,NA,true,3,12,NA,NA,NA,right,n_l_035.jpg,white,gray,NA,NA,NA,NA,NA,NA,NA,NA,NA,NaN,NA,2637,right,1,NA,NA,NA,NA,NA
daoAKQWc,39kv3a5d2bk8g62f2ek1xjbwsefs7u,3n1fsuefl9d7iez8usw7os1e4lnd4s,daoAKQWc,2020-0188,2021-10-31,02:30:30,03:46:47,NA,incomplete,false,NA,NA,true,3,13,NA,NA,NA,left,m_l_113.jpg,gray,white,NA,NA,NA,NA,NA,NA,NA,NA,NA,NaN,NA,1855,left,1,NA,NA,NA,NA,NA
daoAKQWc,39kv3a5d2bk8g62f2ek1xjbwsefs7u,3n1fsuefl9d7iez8usw7os1e4lnd4s,daoAKQWc,2020-0188,2021-10-31,02:30:30,03:46:47,NA,incomplete,false,NA,NA,true,3,14,NA,NA,NA,left,n_s_047.jpg,brown,blue,NA,NA,NA,NA,NA,NA,NA,NA,NA,NaN,NA,3662,left,1,NA,NA,NA,NA,NA
daoAKQWc,39kv3a5d2bk8g62f2ek1xjbwsefs7u,3n1fsuefl9d7iez8usw7os1e4lnd4s,daoAKQWc,2020-0188,2021-10-31,02:30:30,03:46:47,NA,incomplete,false,NA,NA,true,3,15,NA,NA,NA,left,m_l_033.jpg,black,red,NA,NA,NA,NA,NA,NA,NA,NA,NA,NaN,NA,2118,left,1,NA,NA,NA,NA,NA
daoAKQWc,39kv3a5d2bk8g62f2ek1xjbwsefs7u,3n1fsuefl9d7iez8usw7os1e4lnd4s,daoAKQWc,2020-0188,2021-10-31,02:30:30,03:46:47,NA,incomplete,false,NA,NA,true,3,16,NA,NA,NA,right,n_l_044.jpg,black,red,NA,NA,NA,NA,NA,NA,NA,NA,NA,NaN,NA,1521,right,1,NA,NA,NA,NA,NA
daoAKQWc,39kv3a5d2bk8g62f2ek1xjbwsefs7u,3n1fsuefl9d7iez8usw7os1e4lnd4s,daoAKQWc,2020-0188,2021-10-31,02:30:30,03:46:47,NA,incomplete,false,NA,NA,true,3,17,NA,NA,NA,left,n_l_048.jpg,white,gray,NA,NA,NA,NA,NA,NA,NA,NA,NA,NaN,NA,2643,left,1,NA,NA,NA,NA,NA
daoAKQWc,39kv3a5d2bk8g62f2ek1xjbwsefs7u,3n1fsuefl9d7iez8usw7os1e4lnd4s,daoAKQWc,2020-0188,2021-10-31,02:30:30,03:46:47,NA,incomplete,false,NA,NA,true,3,18,NA,NA,NA,left,n_s_081.jpg,red,brown,NA,NA,NA,NA,NA,NA,NA,NA,NA,NaN,NA,2457,left,1,NA,NA,NA,NA,NA
daoAKQWc,39kv3a5d2bk8g62f2ek1xjbwsefs7u,3n1fsuefl9d7iez8usw7os1e4lnd4s,daoAKQWc,2020-0188,2021-10-31,02:30:30,03:46:47,NA,incomplete,false,NA,NA,true,3,19,NA,NA,NA,right,m_l_061.jpg,black,gray,NA,NA,NA,NA,NA,NA,NA,NA,NA,NaN,NA,1682,right,1,NA,NA,NA,NA,NA
daoAKQWc,39kv3a5d2bk8g62f2ek1xjbwsefs7u,3n1fsuefl9d7iez8usw7os1e4lnd4s,daoAKQWc,2020-0188,2021-10-31,02:30:30,03:46:47,NA,incomplete,false,NA,NA,true,3,20,NA,NA,NA,right,m_s_080.jpg,brown,blue,NA,NA,NA,NA,NA,NA,NA,NA,NA,NaN,NA,1317,right,1,NA,NA,NA,NA,NA
daoAKQWc,39kv3a5d2bk8g62f2ek1xjbwsefs7u,3n1fsuefl9d7iez8usw7os1e4lnd4s,daoAKQWc,2020-0188,2021-10-31,02:30:30,03:46:47,NA,incomplete,false,NA,NA,true,3,21,NA,NA,NA,right,n_s_101.jpg,red,brown,NA,NA,NA,NA,NA,NA,NA,NA,NA,NaN,NA,1963,right,1,NA,NA,NA,NA,NA
daoAKQWc,39kv3a5d2bk8g62f2ek1xjbwsefs7u,3n1fsuefl9d7iez8usw7os1e4lnd4s,daoAKQWc,2020-0188,2021-10-31,02:30:30,03:46:47,NA,incomplete,false,NA,true,NA,3,0,NA,NA,NA,right,NA,NA,NA,absent,NA,NA,m_l_025.jpg,black,m_l_047.jpg,black,within,NA,NaN,NA,NA,NA,NA,right,3417,1,0,1655
daoAKQWc,39kv3a5d2bk8g62f2ek1xjbwsefs7u,3n1fsuefl9d7iez8usw7os1e4lnd4s,daoAKQWc,2020-0188,2021-10-31,02:30:30,03:46:47,NA,incomplete,false,NA,true,NA,3,1,NA,NA,NA,right,NA,NA,NA,absent,NA,NA,m_s_080.jpg,blue,n_s_041.jpg,blue,within,NA,NaN,NA,NA,NA,NA,right,2275,1,1,1307
daoAKQWc,39kv3a5d2bk8g62f2ek1xjbwsefs7u,3n1fsuefl9d7iez8usw7os1e4lnd4s,daoAKQWc,2020-0188,2021-10-31,02:30:30,03:46:47,NA,incomplete,false,NA,true,NA,3,2,NA,NA,NA,right,NA,NA,NA,absent,NA,NA,n_s_053.jpg,gray,m_s_100.jpg,black,between,NA,NaN,NA,NA,NA,NA,right,7627,1,2,2215
daoAKQWc,39kv3a5d2bk8g62f2ek1xjbwsefs7u,3n1fsuefl9d7iez8usw7os1e4lnd4s,daoAKQWc,2020-0188,2021-10-31,02:30:30,03:46:47,NA,incomplete,false,NA,true,NA,3,3,NA,NA,NA,right,NA,NA,NA,absent,NA,NA,m_s_067.jpg,white,n_l_083.jpg,white,within,NA,NaN,NA,NA,NA,NA,right,2319,1,1,1689
daoAKQWc,39kv3a5d2bk8g62f2ek1xjbwsefs7u,3n1fsuefl9d7iez8usw7os1e4lnd4s,daoAKQWc,2020-0188,2021-10-31,02:30:30,03:46:47,NA,incomplete,false,NA,true,NA,3,4,NA,NA,NA,right,NA,NA,NA,absent,NA,NA,m_l_106.jpg,red,n_l_043.jpg,brown,between,NA,NaN,NA,NA,NA,NA,right,3985,1,2,3087
daoAKQWc,39kv3a5d2bk8g62f2ek1xjbwsefs7u,3n1fsuefl9d7iez8usw7os1e4lnd4s,daoAKQWc,2020-0188,2021-10-31,02:30:30,03:46:47,NA,incomplete,false,NA,true,NA,3,5,NA,NA,NA,right,NA,NA,NA,absent,NA,NA,n_l_048.jpg,white,m_l_113.jpg,gray,between,NA,NaN,NA,NA,NA,NA,right,8312,1,2,1834
daoAKQWc,39kv3a5d2bk8g62f2ek1xjbwsefs7u,3n1fsuefl9d7iez8usw7os1e4lnd4s,daoAKQWc,2020-0188,2021-10-31,02:30:30,03:46:47,NA,incomplete,false,NA,true,NA,3,6,NA,NA,NA,right,NA,NA,NA,absent,NA,NA,n_s_047.jpg,brown,n_s_035.jpg,blue,between,NA,NaN,NA,NA,NA,NA,right,3830,1,2,1695
daoAKQWc,39kv3a5d2bk8g62f2ek1xjbwsefs7u,3n1fsuefl9d7iez8usw7os1e4lnd4s,daoAKQWc,2020-0188,2021-10-31,02:30:30,03:46:47,NA,incomplete,false,NA,true,NA,3,7,NA,NA,NA,left,NA,NA,NA,absent,NA,NA,n_l_035.jpg,gray,m_l_061.jpg,gray,within,NA,NaN,NA,NA,NA,NA,left,3021,1,1,2059
daoAKQWc,39kv3a5d2bk8g62f2ek1xjbwsefs7u,3n1fsuefl9d7iez8usw7os1e4lnd4s,daoAKQWc,2020-0188,2021-10-31,02:30:30,03:46:47,NA,incomplete,false,NA,true,NA,3,8,NA,NA,NA,left,NA,NA,NA,absent,NA,NA,n_s_032.jpg,red,n_l_044.jpg,red,within,NA,NaN,NA,NA,NA,NA,left,3074,1,1,1886
daoAKQWc,39kv3a5d2bk8g62f2ek1xjbwsefs7u,3n1fsuefl9d7iez8usw7os1e4lnd4s,daoAKQWc,2020-0188,2021-10-31,02:30:30,03:46:47,NA,incomplete,false,NA,true,NA,3,9,NA,NA,NA,left,NA,NA,NA,absent,NA,NA,n_s_101.jpg,brown,m_l_058.jpg,brown,within,NA,NaN,NA,NA,NA,NA,left,2430,1,1,1743
daoAKQWc,39kv3a5d2bk8g62f2ek1xjbwsefs7u,3n1fsuefl9d7iez8usw7os1e4lnd4s,daoAKQWc,2020-0188,2021-10-31,02:30:30,03:46:47,NA,incomplete,false,NA,true,NA,3,10,NA,NA,NA,right,NA,NA,NA,absent,NA,NA,m_l_033.jpg,black,n_s_081.jpg,red,between,NA,NaN,NA,NA,NA,NA,right,7296,1,2,1488
daoAKQWc,39kv3a5d2bk8g62f2ek1xjbwsefs7u,3n1fsuefl9d7iez8usw7os1e4lnd4s,daoAKQWc,2020-0188,2021-10-31,02:30:30,03:46:47,NA,incomplete,false,true,NA,NA,4,0,NA,blue,m_s_072.jpg,NA,NA,NA,NA,NA,pleasant,unpleasant,NA,NA,NA,NA,NA,left,1609,true,NA,NA,NA,NA,NA,NA,NA,NA
daoAKQWc,39kv3a5d2bk8g62f2ek1xjbwsefs7u,3n1fsuefl9d7iez8usw7os1e4lnd4s,daoAKQWc,2020-0188,2021-10-31,02:30:30,03:46:47,NA,incomplete,false,true,NA,NA,4,1,NA,blue,n_l_021.jpg,NA,NA,NA,NA,NA,unpleasant,pleasant,NA,NA,NA,NA,NA,right,1167,true,NA,NA,NA,NA,NA,NA,NA,NA
daoAKQWc,39kv3a5d2bk8g62f2ek1xjbwsefs7u,3n1fsuefl9d7iez8usw7os1e4lnd4s,daoAKQWc,2020-0188,2021-10-31,02:30:30,03:46:47,NA,incomplete,false,true,NA,NA,4,2,NA,blue,m_s_038.jpg,NA,NA,NA,NA,NA,unpleasant,pleasant,NA,NA,NA,NA,NA,right,1290,true,NA,NA,NA,NA,NA,NA,NA,NA
daoAKQWc,39kv3a5d2bk8g62f2ek1xjbwsefs7u,3n1fsuefl9d7iez8usw7os1e4lnd4s,daoAKQWc,2020-0188,2021-10-31,02:30:30,03:46:47,NA,incomplete,false,true,NA,NA,4,3,NA,blue,m_l_052.jpg,NA,NA,NA,NA,NA,unpleasant,pleasant,NA,NA,NA,NA,NA,right,1475,true,NA,NA,NA,NA,NA,NA,NA,NA
daoAKQWc,39kv3a5d2bk8g62f2ek1xjbwsefs7u,3n1fsuefl9d7iez8usw7os1e4lnd4s,daoAKQWc,2020-0188,2021-10-31,02:30:30,03:46:47,NA,incomplete,false,true,NA,NA,4,4,NA,blue,m_s_062.jpg,NA,NA,NA,NA,NA,unpleasant,pleasant,NA,NA,NA,NA,NA,right,1193,true,NA,NA,NA,NA,NA,NA,NA,NA
daoAKQWc,39kv3a5d2bk8g62f2ek1xjbwsefs7u,3n1fsuefl9d7iez8usw7os1e4lnd4s,daoAKQWc,2020-0188,2021-10-31,02:30:30,03:46:47,NA,incomplete,false,true,NA,NA,4,5,NA,blue,n_s_100.jpg,NA,NA,NA,NA,NA,pleasant,unpleasant,NA,NA,NA,NA,NA,left,1100,true,NA,NA,NA,NA,NA,NA,NA,NA
daoAKQWc,39kv3a5d2bk8g62f2ek1xjbwsefs7u,3n1fsuefl9d7iez8usw7os1e4lnd4s,daoAKQWc,2020-0188,2021-10-31,02:30:30,03:46:47,NA,incomplete,false,true,NA,NA,4,6,NA,green,n_s_017.jpg,NA,NA,NA,NA,NA,pleasant,unpleasant,NA,NA,NA,NA,NA,left,1407,true,NA,NA,NA,NA,NA,NA,NA,NA
daoAKQWc,39kv3a5d2bk8g62f2ek1xjbwsefs7u,3n1fsuefl9d7iez8usw7os1e4lnd4s,daoAKQWc,2020-0188,2021-10-31,02:30:30,03:46:47,NA,incomplete,false,true,NA,NA,4,7,NA,green,m_s_059.jpg,NA,NA,NA,NA,NA,pleasant,unpleasant,NA,NA,NA,NA,NA,left,1226,true,NA,NA,NA,NA,NA,NA,NA,NA
daoAKQWc,39kv3a5d2bk8g62f2ek1xjbwsefs7u,3n1fsuefl9d7iez8usw7os1e4lnd4s,daoAKQWc,2020-0188,2021-10-31,02:30:30,03:46:47,NA,incomplete,false,true,NA,NA,4,8,NA,green,n_s_069.jpg,NA,NA,NA,NA,NA,unpleasant,pleasant,NA,NA,NA,NA,NA,right,1377,true,NA,NA,NA,NA,NA,NA,NA,NA
daoAKQWc,39kv3a5d2bk8g62f2ek1xjbwsefs7u,3n1fsuefl9d7iez8usw7os1e4lnd4s,daoAKQWc,2020-0188,2021-10-31,02:30:30,03:46:47,NA,incomplete,false,true,NA,NA,4,9,NA,green,n_l_069.jpg,NA,NA,NA,NA,NA,pleasant,unpleasant,NA,NA,NA,NA,NA,left,1231,true,NA,NA,NA,NA,NA,NA,NA,NA
daoAKQWc,39kv3a5d2bk8g62f2ek1xjbwsefs7u,3n1fsuefl9d7iez8usw7os1e4lnd4s,daoAKQWc,2020-0188,2021-10-31,02:30:30,03:46:47,NA,incomplete,false,true,NA,NA,4,10,NA,green,m_s_088.jpg,NA,NA,NA,NA,NA,unpleasant,pleasant,NA,NA,NA,NA,NA,right,1303,true,NA,NA,NA,NA,NA,NA,NA,NA
daoAKQWc,39kv3a5d2bk8g62f2ek1xjbwsefs7u,3n1fsuefl9d7iez8usw7os1e4lnd4s,daoAKQWc,2020-0188,2021-10-31,02:30:30,03:46:47,NA,incomplete,false,true,NA,NA,4,11,NA,green,n_s_025.jpg,NA,NA,NA,NA,NA,pleasant,unpleasant,NA,NA,NA,NA,NA,left,1485,true,NA,NA,NA,NA,NA,NA,NA,NA
daoAKQWc,39kv3a5d2bk8g62f2ek1xjbwsefs7u,3n1fsuefl9d7iez8usw7os1e4lnd4s,daoAKQWc,2020-0188,2021-10-31,02:30:30,03:46:47,NA,incomplete,false,true,NA,NA,4,12,NA,white,m_l_011.jpg,NA,NA,NA,NA,NA,unpleasant,pleasant,NA,NA,NA,NA,NA,right,1493,true,NA,NA,NA,NA,NA,NA,NA,NA
daoAKQWc,39kv3a5d2bk8g62f2ek1xjbwsefs7u,3n1fsuefl9d7iez8usw7os1e4lnd4s,daoAKQWc,2020-0188,2021-10-31,02:30:30,03:46:47,NA,incomplete,false,true,NA,NA,4,13,NA,white,m_l_043.jpg,NA,NA,NA,NA,NA,unpleasant,pleasant,NA,NA,NA,NA,NA,right,2209,true,NA,NA,NA,NA,NA,NA,NA,NA
daoAKQWc,39kv3a5d2bk8g62f2ek1xjbwsefs7u,3n1fsuefl9d7iez8usw7os1e4lnd4s,daoAKQWc,2020-0188,2021-10-31,02:30:30,03:46:47,NA,incomplete,false,true,NA,NA,4,14,NA,white,m_s_049.jpg,NA,NA,NA,NA,NA,pleasant,unpleasant,NA,NA,NA,NA,NA,left,1490,true,NA,NA,NA,NA,NA,NA,NA,NA
daoAKQWc,39kv3a5d2bk8g62f2ek1xjbwsefs7u,3n1fsuefl9d7iez8usw7os1e4lnd4s,daoAKQWc,2020-0188,2021-10-31,02:30:30,03:46:47,NA,incomplete,false,true,NA,NA,4,15,NA,white,m_s_008.jpg,NA,NA,NA,NA,NA,unpleasant,pleasant,NA,NA,NA,NA,NA,right,1763,true,NA,NA,NA,NA,NA,NA,NA,NA
daoAKQWc,39kv3a5d2bk8g62f2ek1xjbwsefs7u,3n1fsuefl9d7iez8usw7os1e4lnd4s,daoAKQWc,2020-0188,2021-10-31,02:30:30,03:46:47,NA,incomplete,false,true,NA,NA,4,16,NA,white,m_l_085.jpg,NA,NA,NA,NA,NA,unpleasant,pleasant,NA,NA,NA,NA,NA,right,1526,true,NA,NA,NA,NA,NA,NA,NA,NA
daoAKQWc,39kv3a5d2bk8g62f2ek1xjbwsefs7u,3n1fsuefl9d7iez8usw7os1e4lnd4s,daoAKQWc,2020-0188,2021-10-31,02:30:30,03:46:47,NA,incomplete,false,true,NA,NA,4,17,NA,white,n_s_077.jpg,NA,NA,NA,NA,NA,pleasant,unpleasant,NA,NA,NA,NA,NA,left,1620,true,NA,NA,NA,NA,NA,NA,NA,NA
daoAKQWc,39kv3a5d2bk8g62f2ek1xjbwsefs7u,3n1fsuefl9d7iez8usw7os1e4lnd4s,daoAKQWc,2020-0188,2021-10-31,02:30:30,03:46:47,NA,incomplete,false,true,NA,NA,4,18,NA,purple,m_l_030.jpg,NA,NA,NA,NA,NA,unpleasant,pleasant,NA,NA,NA,NA,NA,right,1049,true,NA,NA,NA,NA,NA,NA,NA,NA
daoAKQWc,39kv3a5d2bk8g62f2ek1xjbwsefs7u,3n1fsuefl9d7iez8usw7os1e4lnd4s,daoAKQWc,2020-0188,2021-10-31,02:30:30,03:46:47,NA,incomplete,false,true,NA,NA,4,19,NA,purple,m_s_109.jpg,NA,NA,NA,NA,NA,pleasant,unpleasant,NA,NA,NA,NA,NA,right,1502,true,NA,NA,NA,NA,NA,NA,NA,NA
daoAKQWc,39kv3a5d2bk8g62f2ek1xjbwsefs7u,3n1fsuefl9d7iez8usw7os1e4lnd4s,daoAKQWc,2020-0188,2021-10-31,02:30:30,03:46:47,NA,incomplete,false,true,NA,NA,4,20,NA,purple,m_l_021.jpg,NA,NA,NA,NA,NA,pleasant,unpleasant,NA,NA,NA,NA,NA,left,1208,true,NA,NA,NA,NA,NA,NA,NA,NA
daoAKQWc,39kv3a5d2bk8g62f2ek1xjbwsefs7u,3n1fsuefl9d7iez8usw7os1e4lnd4s,daoAKQWc,2020-0188,2021-10-31,02:30:30,03:46:47,NA,incomplete,false,true,NA,NA,4,21,NA,purple,m_s_003.jpg,NA,NA,NA,NA,NA,pleasant,unpleasant,NA,NA,NA,NA,NA,left,1724,true,NA,NA,NA,NA,NA,NA,NA,NA
daoAKQWc,39kv3a5d2bk8g62f2ek1xjbwsefs7u,3n1fsuefl9d7iez8usw7os1e4lnd4s,daoAKQWc,2020-0188,2021-10-31,02:30:30,03:46:47,NA,incomplete,false,true,NA,NA,4,22,NA,purple,m_s_064.jpg,NA,NA,NA,NA,NA,unpleasant,pleasant,NA,NA,NA,NA,NA,right,1469,true,NA,NA,NA,NA,NA,NA,NA,NA
daoAKQWc,39kv3a5d2bk8g62f2ek1xjbwsefs7u,3n1fsuefl9d7iez8usw7os1e4lnd4s,daoAKQWc,2020-0188,2021-10-31,02:30:30,03:46:47,NA,incomplete,false,true,NA,NA,4,23,NA,purple,n_l_089.jpg,NA,NA,NA,NA,NA,unpleasant,pleasant,NA,NA,NA,NA,NA,right,2314,true,NA,NA,NA,NA,NA,NA,NA,NA
daoAKQWc,39kv3a5d2bk8g62f2ek1xjbwsefs7u,3n1fsuefl9d7iez8usw7os1e4lnd4s,daoAKQWc,2020-0188,2021-10-31,02:30:30,03:46:47,NA,incomplete,false,true,NA,NA,4,24,NA,black,n_s_029.jpg,NA,NA,NA,NA,NA,pleasant,unpleasant,NA,NA,NA,NA,NA,right,2394,true,NA,NA,NA,NA,NA,NA,NA,NA
daoAKQWc,39kv3a5d2bk8g62f2ek1xjbwsefs7u,3n1fsuefl9d7iez8usw7os1e4lnd4s,daoAKQWc,2020-0188,2021-10-31,02:30:30,03:46:47,NA,incomplete,false,true,NA,NA,4,25,NA,black,m_l_082.jpg,NA,NA,NA,NA,NA,unpleasant,pleasant,NA,NA,NA,NA,NA,left,2168,true,NA,NA,NA,NA,NA,NA,NA,NA
daoAKQWc,39kv3a5d2bk8g62f2ek1xjbwsefs7u,3n1fsuefl9d7iez8usw7os1e4lnd4s,daoAKQWc,2020-0188,2021-10-31,02:30:30,03:46:47,NA,incomplete,false,true,NA,NA,4,26,NA,black,n_l_033.jpg,NA,NA,NA,NA,NA,pleasant,unpleasant,NA,NA,NA,NA,NA,left,1427,true,NA,NA,NA,NA,NA,NA,NA,NA
daoAKQWc,39kv3a5d2bk8g62f2ek1xjbwsefs7u,3n1fsuefl9d7iez8usw7os1e4lnd4s,daoAKQWc,2020-0188,2021-10-31,02:30:30,03:46:47,NA,incomplete,false,true,NA,NA,4,27,NA,black,m_s_024.jpg,NA,NA,NA,NA,NA,pleasant,unpleasant,NA,NA,NA,NA,NA,right,1608,true,NA,NA,NA,NA,NA,NA,NA,NA
daoAKQWc,39kv3a5d2bk8g62f2ek1xjbwsefs7u,3n1fsuefl9d7iez8usw7os1e4lnd4s,daoAKQWc,2020-0188,2021-10-31,02:30:30,03:46:47,NA,incomplete,false,true,NA,NA,4,28,NA,black,n_l_032.jpg,NA,NA,NA,NA,NA,unpleasant,pleasant,NA,NA,NA,NA,NA,right,1246,true,NA,NA,NA,NA,NA,NA,NA,NA
daoAKQWc,39kv3a5d2bk8g62f2ek1xjbwsefs7u,3n1fsuefl9d7iez8usw7os1e4lnd4s,daoAKQWc,2020-0188,2021-10-31,02:30:30,03:46:47,NA,incomplete,false,true,NA,NA,4,29,NA,black,m_s_083.jpg,NA,NA,NA,NA,NA,pleasant,unpleasant,NA,NA,NA,NA,NA,right,1860,true,NA,NA,NA,NA,NA,NA,NA,NA
daoAKQWc,39kv3a5d2bk8g62f2ek1xjbwsefs7u,3n1fsuefl9d7iez8usw7os1e4lnd4s,daoAKQWc,2020-0188,2021-10-31,02:30:30,03:46:47,NA,incomplete,false,true,NA,NA,4,30,NA,red,m_l_057.jpg,NA,NA,NA,NA,NA,pleasant,unpleasant,NA,NA,NA,NA,NA,left,1621,true,NA,NA,NA,NA,NA,NA,NA,NA
daoAKQWc,39kv3a5d2bk8g62f2ek1xjbwsefs7u,3n1fsuefl9d7iez8usw7os1e4lnd4s,daoAKQWc,2020-0188,2021-10-31,02:30:30,03:46:47,NA,incomplete,false,true,NA,NA,4,31,NA,red,m_s_070.jpg,NA,NA,NA,NA,NA,unpleasant,pleasant,NA,NA,NA,NA,NA,right,1643,true,NA,NA,NA,NA,NA,NA,NA,NA
daoAKQWc,39kv3a5d2bk8g62f2ek1xjbwsefs7u,3n1fsuefl9d7iez8usw7os1e4lnd4s,daoAKQWc,2020-0188,2021-10-31,02:30:30,03:46:47,NA,incomplete,false,true,NA,NA,4,32,NA,red,n_l_024.jpg,NA,NA,NA,NA,NA,pleasant,unpleasant,NA,NA,NA,NA,NA,left,1681,true,NA,NA,NA,NA,NA,NA,NA,NA
daoAKQWc,39kv3a5d2bk8g62f2ek1xjbwsefs7u,3n1fsuefl9d7iez8usw7os1e4lnd4s,daoAKQWc,2020-0188,2021-10-31,02:30:30,03:46:47,NA,incomplete,false,true,NA,NA,4,33,NA,red,m_l_002.jpg,NA,NA,NA,NA,NA,unpleasant,pleasant,NA,NA,NA,NA,NA,right,1188,true,NA,NA,NA,NA,NA,NA,NA,NA
daoAKQWc,39kv3a5d2bk8g62f2ek1xjbwsefs7u,3n1fsuefl9d7iez8usw7os1e4lnd4s,daoAKQWc,2020-0188,2021-10-31,02:30:30,03:46:47,NA,incomplete,false,true,NA,NA,4,34,NA,red,m_s_046.jpg,NA,NA,NA,NA,NA,unpleasant,pleasant,NA,NA,NA,NA,NA,right,983,true,NA,NA,NA,NA,NA,NA,NA,NA
daoAKQWc,39kv3a5d2bk8g62f2ek1xjbwsefs7u,3n1fsuefl9d7iez8usw7os1e4lnd4s,daoAKQWc,2020-0188,2021-10-31,02:30:30,03:46:47,NA,incomplete,false,true,NA,NA,4,35,NA,red,n_s_058.jpg,NA,NA,NA,NA,NA,pleasant,unpleasant,NA,NA,NA,NA,NA,right,1796,true,NA,NA,NA,NA,NA,NA,NA,NA
daoAKQWc,39kv3a5d2bk8g62f2ek1xjbwsefs7u,3n1fsuefl9d7iez8usw7os1e4lnd4s,daoAKQWc,2020-0188,2021-10-31,02:30:30,03:46:47,NA,incomplete,false,NA,NA,true,4,0,NA,NA,NA,right,m_l_085.jpg,green,white,NA,NA,NA,NA,NA,NA,NA,NA,NA,NaN,NA,3248,right,1,NA,NA,NA,NA,NA
daoAKQWc,39kv3a5d2bk8g62f2ek1xjbwsefs7u,3n1fsuefl9d7iez8usw7os1e4lnd4s,daoAKQWc,2020-0188,2021-10-31,02:30:30,03:46:47,NA,incomplete,false,NA,NA,true,4,1,NA,NA,NA,right,n_l_032.jpg,purple,black,NA,NA,NA,NA,NA,NA,NA,NA,NA,NaN,NA,1684,right,1,NA,NA,NA,NA,NA
daoAKQWc,39kv3a5d2bk8g62f2ek1xjbwsefs7u,3n1fsuefl9d7iez8usw7os1e4lnd4s,daoAKQWc,2020-0188,2021-10-31,02:30:30,03:46:47,NA,incomplete,false,NA,NA,true,4,2,NA,NA,NA,left,m_s_049.jpg,white,green,NA,NA,NA,NA,NA,NA,NA,NA,NA,NaN,NA,1899,left,1,NA,NA,NA,NA,NA
daoAKQWc,39kv3a5d2bk8g62f2ek1xjbwsefs7u,3n1fsuefl9d7iez8usw7os1e4lnd4s,daoAKQWc,2020-0188,2021-10-31,02:30:30,03:46:47,NA,incomplete,false,NA,NA,true,4,3,NA,NA,NA,left,n_s_058.jpg,red,black,NA,NA,NA,NA,NA,NA,NA,NA,NA,NaN,NA,1937,left,1,NA,NA,NA,NA,NA
daoAKQWc,39kv3a5d2bk8g62f2ek1xjbwsefs7u,3n1fsuefl9d7iez8usw7os1e4lnd4s,daoAKQWc,2020-0188,2021-10-31,02:30:30,03:46:47,NA,incomplete,false,NA,NA,true,4,4,NA,NA,NA,right,n_s_100.jpg,green,blue,NA,NA,NA,NA,NA,NA,NA,NA,NA,NaN,NA,1422,right,1,NA,NA,NA,NA,NA
daoAKQWc,39kv3a5d2bk8g62f2ek1xjbwsefs7u,3n1fsuefl9d7iez8usw7os1e4lnd4s,daoAKQWc,2020-0188,2021-10-31,02:30:30,03:46:47,NA,incomplete,false,NA,NA,true,4,5,NA,NA,NA,right,m_s_083.jpg,purple,black,NA,NA,NA,NA,NA,NA,NA,NA,NA,NaN,NA,1736,right,1,NA,NA,NA,NA,NA
daoAKQWc,39kv3a5d2bk8g62f2ek1xjbwsefs7u,3n1fsuefl9d7iez8usw7os1e4lnd4s,daoAKQWc,2020-0188,2021-10-31,02:30:30,03:46:47,NA,incomplete,false,NA,NA,true,4,6,NA,NA,NA,left,m_s_059.jpg,green,white,NA,NA,NA,NA,NA,NA,NA,NA,NA,NaN,NA,1777,left,1,NA,NA,NA,NA,NA
daoAKQWc,39kv3a5d2bk8g62f2ek1xjbwsefs7u,3n1fsuefl9d7iez8usw7os1e4lnd4s,daoAKQWc,2020-0188,2021-10-31,02:30:30,03:46:47,NA,incomplete,false,NA,NA,true,4,7,NA,NA,NA,left,m_l_043.jpg,white,green,NA,NA,NA,NA,NA,NA,NA,NA,NA,NaN,NA,1983,left,1,NA,NA,NA,NA,NA
daoAKQWc,39kv3a5d2bk8g62f2ek1xjbwsefs7u,3n1fsuefl9d7iez8usw7os1e4lnd4s,daoAKQWc,2020-0188,2021-10-31,02:30:30,03:46:47,NA,incomplete,false,NA,NA,true,4,8,NA,NA,NA,left,n_s_077.jpg,white,purple,NA,NA,NA,NA,NA,NA,NA,NA,NA,NaN,NA,1783,left,1,NA,NA,NA,NA,NA
daoAKQWc,39kv3a5d2bk8g62f2ek1xjbwsefs7u,3n1fsuefl9d7iez8usw7os1e4lnd4s,daoAKQWc,2020-0188,2021-10-31,02:30:30,03:46:47,NA,incomplete,false,NA,NA,true,4,9,NA,NA,NA,left,m_s_062.jpg,blue,green,NA,NA,NA,NA,NA,NA,NA,NA,NA,NaN,NA,1993,left,1,NA,NA,NA,NA,NA
daoAKQWc,39kv3a5d2bk8g62f2ek1xjbwsefs7u,3n1fsuefl9d7iez8usw7os1e4lnd4s,daoAKQWc,2020-0188,2021-10-31,02:30:30,03:46:47,NA,incomplete,false,NA,NA,true,4,10,NA,NA,NA,left,m_s_088.jpg,green,blue,NA,NA,NA,NA,NA,NA,NA,NA,NA,NaN,NA,2099,left,1,NA,NA,NA,NA,NA
daoAKQWc,39kv3a5d2bk8g62f2ek1xjbwsefs7u,3n1fsuefl9d7iez8usw7os1e4lnd4s,daoAKQWc,2020-0188,2021-10-31,02:30:30,03:46:47,NA,incomplete,false,NA,NA,true,4,11,NA,NA,NA,left,n_s_025.jpg,green,white,NA,NA,NA,NA,NA,NA,NA,NA,NA,NaN,NA,1915,left,1,NA,NA,NA,NA,NA
daoAKQWc,39kv3a5d2bk8g62f2ek1xjbwsefs7u,3n1fsuefl9d7iez8usw7os1e4lnd4s,daoAKQWc,2020-0188,2021-10-31,02:30:30,03:46:47,NA,incomplete,false,NA,NA,true,4,12,NA,NA,NA,left,m_s_109.jpg,purple,black,NA,NA,NA,NA,NA,NA,NA,NA,NA,NaN,NA,1969,left,1,NA,NA,NA,NA,NA
daoAKQWc,39kv3a5d2bk8g62f2ek1xjbwsefs7u,3n1fsuefl9d7iez8usw7os1e4lnd4s,daoAKQWc,2020-0188,2021-10-31,02:30:30,03:46:47,NA,incomplete,false,NA,NA,true,4,13,NA,NA,NA,right,n_s_069.jpg,blue,green,NA,NA,NA,NA,NA,NA,NA,NA,NA,NaN,NA,2003,right,1,NA,NA,NA,NA,NA
daoAKQWc,39kv3a5d2bk8g62f2ek1xjbwsefs7u,3n1fsuefl9d7iez8usw7os1e4lnd4s,daoAKQWc,2020-0188,2021-10-31,02:30:30,03:46:47,NA,incomplete,false,NA,NA,true,4,14,NA,NA,NA,right,n_l_033.jpg,purple,black,NA,NA,NA,NA,NA,NA,NA,NA,NA,NaN,NA,1601,right,1,NA,NA,NA,NA,NA
daoAKQWc,39kv3a5d2bk8g62f2ek1xjbwsefs7u,3n1fsuefl9d7iez8usw7os1e4lnd4s,daoAKQWc,2020-0188,2021-10-31,02:30:30,03:46:47,NA,incomplete,false,NA,NA,true,4,15,NA,NA,NA,left,n_l_024.jpg,red,black,NA,NA,NA,NA,NA,NA,NA,NA,NA,NaN,NA,1952,left,1,NA,NA,NA,NA,NA
daoAKQWc,39kv3a5d2bk8g62f2ek1xjbwsefs7u,3n1fsuefl9d7iez8usw7os1e4lnd4s,daoAKQWc,2020-0188,2021-10-31,02:30:30,03:46:47,NA,incomplete,false,NA,NA,true,4,16,NA,NA,NA,right,n_l_089.jpg,white,purple,NA,NA,NA,NA,NA,NA,NA,NA,NA,NaN,NA,1471,right,1,NA,NA,NA,NA,NA
daoAKQWc,39kv3a5d2bk8g62f2ek1xjbwsefs7u,3n1fsuefl9d7iez8usw7os1e4lnd4s,daoAKQWc,2020-0188,2021-10-31,02:30:30,03:46:47,NA,incomplete,false,NA,NA,true,4,17,NA,NA,NA,left,m_s_070.jpg,red,black,NA,NA,NA,NA,NA,NA,NA,NA,NA,NaN,NA,1648,left,1,NA,NA,NA,NA,NA
daoAKQWc,39kv3a5d2bk8g62f2ek1xjbwsefs7u,3n1fsuefl9d7iez8usw7os1e4lnd4s,daoAKQWc,2020-0188,2021-10-31,02:30:30,03:46:47,NA,incomplete,false,NA,NA,true,4,18,NA,NA,NA,left,n_l_021.jpg,blue,green,NA,NA,NA,NA,NA,NA,NA,NA,NA,NaN,NA,1665,left,1,NA,NA,NA,NA,NA
daoAKQWc,39kv3a5d2bk8g62f2ek1xjbwsefs7u,3n1fsuefl9d7iez8usw7os1e4lnd4s,daoAKQWc,2020-0188,2021-10-31,02:30:30,03:46:47,NA,incomplete,false,NA,NA,true,4,19,NA,NA,NA,left,m_s_064.jpg,purple,black,NA,NA,NA,NA,NA,NA,NA,NA,NA,NaN,NA,1953,left,1,NA,NA,NA,NA,NA
daoAKQWc,39kv3a5d2bk8g62f2ek1xjbwsefs7u,3n1fsuefl9d7iez8usw7os1e4lnd4s,daoAKQWc,2020-0188,2021-10-31,02:30:30,03:46:47,NA,incomplete,false,NA,NA,true,4,20,NA,NA,NA,right,m_l_021.jpg,white,purple,NA,NA,NA,NA,NA,NA,NA,NA,NA,NaN,NA,1528,right,1,NA,NA,NA,NA,NA
daoAKQWc,39kv3a5d2bk8g62f2ek1xjbwsefs7u,3n1fsuefl9d7iez8usw7os1e4lnd4s,daoAKQWc,2020-0188,2021-10-31,02:30:30,03:46:47,NA,incomplete,false,NA,NA,true,4,21,NA,NA,NA,right,m_l_082.jpg,red,black,NA,NA,NA,NA,NA,NA,NA,NA,NA,NaN,NA,1397,right,1,NA,NA,NA,NA,NA
daoAKQWc,39kv3a5d2bk8g62f2ek1xjbwsefs7u,3n1fsuefl9d7iez8usw7os1e4lnd4s,daoAKQWc,2020-0188,2021-10-31,02:30:30,03:46:47,NA,incomplete,false,NA,true,NA,4,0,NA,NA,NA,right,NA,NA,NA,absent,NA,NA,n_s_100.jpg,blue,n_l_021.jpg,blue,within,NA,NaN,NA,NA,NA,NA,right,1951,1,1,1858
daoAKQWc,39kv3a5d2bk8g62f2ek1xjbwsefs7u,3n1fsuefl9d7iez8usw7os1e4lnd4s,daoAKQWc,2020-0188,2021-10-31,02:30:30,03:46:47,NA,incomplete,false,NA,true,NA,4,1,NA,NA,NA,right,NA,NA,NA,absent,NA,NA,n_s_069.jpg,green,m_s_062.jpg,blue,between,NA,NaN,NA,NA,NA,NA,right,3582,1,2,2638
daoAKQWc,39kv3a5d2bk8g62f2ek1xjbwsefs7u,3n1fsuefl9d7iez8usw7os1e4lnd4s,daoAKQWc,2020-0188,2021-10-31,02:30:30,03:46:47,NA,incomplete,false,NA,true,NA,4,2,NA,NA,NA,right,NA,NA,NA,absent,NA,NA,n_l_033.jpg,black,m_s_064.jpg,purple,between,NA,NaN,NA,NA,NA,NA,right,2577,1,2,1689
daoAKQWc,39kv3a5d2bk8g62f2ek1xjbwsefs7u,3n1fsuefl9d7iez8usw7os1e4lnd4s,daoAKQWc,2020-0188,2021-10-31,02:30:30,03:46:47,NA,incomplete,false,NA,true,NA,4,3,NA,NA,NA,right,NA,NA,NA,absent,NA,NA,n_l_024.jpg,red,n_l_032.jpg,black,between,NA,NaN,NA,NA,NA,NA,right,2424,1,2,1944
daoAKQWc,39kv3a5d2bk8g62f2ek1xjbwsefs7u,3n1fsuefl9d7iez8usw7os1e4lnd4s,daoAKQWc,2020-0188,2021-10-31,02:30:30,03:46:47,NA,incomplete,false,NA,true,NA,4,4,NA,NA,NA,right,NA,NA,NA,absent,NA,NA,n_l_089.jpg,purple,m_s_109.jpg,purple,within,NA,NaN,NA,NA,NA,NA,right,3792,1,1,1995
daoAKQWc,39kv3a5d2bk8g62f2ek1xjbwsefs7u,3n1fsuefl9d7iez8usw7os1e4lnd4s,daoAKQWc,2020-0188,2021-10-31,02:30:30,03:46:47,NA,incomplete,false,NA,true,NA,4,5,NA,NA,NA,left,NA,NA,NA,absent,NA,NA,m_l_085.jpg,white,m_l_021.jpg,purple,between,NA,NaN,NA,NA,NA,NA,left,6713,1,2,1737
daoAKQWc,39kv3a5d2bk8g62f2ek1xjbwsefs7u,3n1fsuefl9d7iez8usw7os1e4lnd4s,daoAKQWc,2020-0188,2021-10-31,02:30:30,03:46:47,NA,incomplete,false,NA,true,NA,4,6,NA,NA,NA,right,NA,NA,NA,absent,NA,NA,m_s_083.jpg,black,m_l_082.jpg,black,within,NA,NaN,NA,NA,NA,NA,right,3870,1,1,1944
daoAKQWc,39kv3a5d2bk8g62f2ek1xjbwsefs7u,3n1fsuefl9d7iez8usw7os1e4lnd4s,daoAKQWc,2020-0188,2021-10-31,02:30:30,03:46:47,NA,incomplete,false,NA,true,NA,4,7,NA,NA,NA,left,NA,NA,NA,absent,NA,NA,m_s_059.jpg,green,n_s_025.jpg,green,within,NA,NaN,NA,NA,NA,NA,left,3065,1,1,2330
daoAKQWc,39kv3a5d2bk8g62f2ek1xjbwsefs7u,3n1fsuefl9d7iez8usw7os1e4lnd4s,daoAKQWc,2020-0188,2021-10-31,02:30:30,03:46:47,NA,incomplete,false,NA,true,NA,4,8,NA,NA,NA,left,NA,NA,NA,absent,NA,NA,m_s_088.jpg,green,m_s_049.jpg,white,between,NA,NaN,NA,NA,NA,NA,left,4749,1,2,1708
daoAKQWc,39kv3a5d2bk8g62f2ek1xjbwsefs7u,3n1fsuefl9d7iez8usw7os1e4lnd4s,daoAKQWc,2020-0188,2021-10-31,02:30:30,03:46:47,NA,incomplete,false,NA,true,NA,4,9,NA,NA,NA,right,NA,NA,NA,absent,NA,NA,n_s_077.jpg,white,m_l_043.jpg,white,within,NA,NaN,NA,NA,NA,NA,right,5420,1,1,2247
daoAKQWc,39kv3a5d2bk8g62f2ek1xjbwsefs7u,3n1fsuefl9d7iez8usw7os1e4lnd4s,daoAKQWc,2020-0188,2021-10-31,02:30:30,03:46:47,NA,incomplete,false,NA,true,NA,4,10,NA,NA,NA,left,NA,NA,NA,absent,NA,NA,m_s_070.jpg,red,n_s_058.jpg,red,within,NA,NaN,NA,NA,NA,NA,left,3655,1,1,1739
daoAKQWc,39kv3a5d2bk8g62f2ek1xjbwsefs7u,3n1fsuefl9d7iez8usw7os1e4lnd4s,daoAKQWc,2020-0188,2021-10-31,02:30:30,03:46:47,NA,incomplete,false,true,NA,NA,5,0,NA,purple,m_s_052.jpg,NA,NA,NA,NA,NA,unpleasant,pleasant,NA,NA,NA,NA,NA,right,1735,true,NA,NA,NA,NA,NA,NA,NA,NA
daoAKQWc,39kv3a5d2bk8g62f2ek1xjbwsefs7u,3n1fsuefl9d7iez8usw7os1e4lnd4s,daoAKQWc,2020-0188,2021-10-31,02:30:30,03:46:47,NA,incomplete,false,true,NA,NA,5,1,NA,purple,m_l_094.jpg,NA,NA,NA,NA,NA,pleasant,unpleasant,NA,NA,NA,NA,NA,left,1417,true,NA,NA,NA,NA,NA,NA,NA,NA
daoAKQWc,39kv3a5d2bk8g62f2ek1xjbwsefs7u,3n1fsuefl9d7iez8usw7os1e4lnd4s,daoAKQWc,2020-0188,2021-10-31,02:30:30,03:46:47,NA,incomplete,false,true,NA,NA,5,2,NA,purple,n_s_078.jpg,NA,NA,NA,NA,NA,unpleasant,pleasant,NA,NA,NA,NA,NA,right,1446,true,NA,NA,NA,NA,NA,NA,NA,NA
daoAKQWc,39kv3a5d2bk8g62f2ek1xjbwsefs7u,3n1fsuefl9d7iez8usw7os1e4lnd4s,daoAKQWc,2020-0188,2021-10-31,02:30:30,03:46:47,NA,incomplete,false,true,NA,NA,5,3,NA,purple,m_l_048.jpg,NA,NA,NA,NA,NA,unpleasant,pleasant,NA,NA,NA,NA,NA,right,1270,true,NA,NA,NA,NA,NA,NA,NA,NA
daoAKQWc,39kv3a5d2bk8g62f2ek1xjbwsefs7u,3n1fsuefl9d7iez8usw7os1e4lnd4s,daoAKQWc,2020-0188,2021-10-31,02:30:30,03:46:47,NA,incomplete,false,true,NA,NA,5,4,NA,purple,n_s_080.jpg,NA,NA,NA,NA,NA,unpleasant,pleasant,NA,NA,NA,NA,NA,right,1292,true,NA,NA,NA,NA,NA,NA,NA,NA
daoAKQWc,39kv3a5d2bk8g62f2ek1xjbwsefs7u,3n1fsuefl9d7iez8usw7os1e4lnd4s,daoAKQWc,2020-0188,2021-10-31,02:30:30,03:46:47,NA,incomplete,false,true,NA,NA,5,5,NA,purple,n_l_030.jpg,NA,NA,NA,NA,NA,unpleasant,pleasant,NA,NA,NA,NA,NA,right,1221,true,NA,NA,NA,NA,NA,NA,NA,NA
daoAKQWc,39kv3a5d2bk8g62f2ek1xjbwsefs7u,3n1fsuefl9d7iez8usw7os1e4lnd4s,daoAKQWc,2020-0188,2021-10-31,02:30:30,03:46:47,NA,incomplete,false,true,NA,NA,5,6,NA,black,m_s_050.jpg,NA,NA,NA,NA,NA,pleasant,unpleasant,NA,NA,NA,NA,NA,left,1276,true,NA,NA,NA,NA,NA,NA,NA,NA
daoAKQWc,39kv3a5d2bk8g62f2ek1xjbwsefs7u,3n1fsuefl9d7iez8usw7os1e4lnd4s,daoAKQWc,2020-0188,2021-10-31,02:30:30,03:46:47,NA,incomplete,false,true,NA,NA,5,7,NA,black,n_l_082.jpg,NA,NA,NA,NA,NA,unpleasant,pleasant,NA,NA,NA,NA,NA,right,1469,true,NA,NA,NA,NA,NA,NA,NA,NA
daoAKQWc,39kv3a5d2bk8g62f2ek1xjbwsefs7u,3n1fsuefl9d7iez8usw7os1e4lnd4s,daoAKQWc,2020-0188,2021-10-31,02:30:30,03:46:47,NA,incomplete,false,true,NA,NA,5,8,NA,black,m_s_053.jpg,NA,NA,NA,NA,NA,pleasant,unpleasant,NA,NA,NA,NA,NA,right,1546,true,NA,NA,NA,NA,NA,NA,NA,NA
daoAKQWc,39kv3a5d2bk8g62f2ek1xjbwsefs7u,3n1fsuefl9d7iez8usw7os1e4lnd4s,daoAKQWc,2020-0188,2021-10-31,02:30:30,03:46:47,NA,incomplete,false,true,NA,NA,5,9,NA,black,n_l_056.jpg,NA,NA,NA,NA,NA,pleasant,unpleasant,NA,NA,NA,NA,NA,left,1228,true,NA,NA,NA,NA,NA,NA,NA,NA
daoAKQWc,39kv3a5d2bk8g62f2ek1xjbwsefs7u,3n1fsuefl9d7iez8usw7os1e4lnd4s,daoAKQWc,2020-0188,2021-10-31,02:30:30,03:46:47,NA,incomplete,false,true,NA,NA,5,10,NA,black,m_s_032.jpg,NA,NA,NA,NA,NA,unpleasant,pleasant,NA,NA,NA,NA,NA,left,1923,true,NA,NA,NA,NA,NA,NA,NA,NA
daoAKQWc,39kv3a5d2bk8g62f2ek1xjbwsefs7u,3n1fsuefl9d7iez8usw7os1e4lnd4s,daoAKQWc,2020-0188,2021-10-31,02:30:30,03:46:47,NA,incomplete,false,true,NA,NA,5,11,NA,black,m_l_077.jpg,NA,NA,NA,NA,NA,pleasant,unpleasant,NA,NA,NA,NA,NA,right,2780,true,NA,NA,NA,NA,NA,NA,NA,NA
daoAKQWc,39kv3a5d2bk8g62f2ek1xjbwsefs7u,3n1fsuefl9d7iez8usw7os1e4lnd4s,daoAKQWc,2020-0188,2021-10-31,02:30:30,03:46:47,NA,incomplete,false,true,NA,NA,5,12,NA,white,n_l_058.jpg,NA,NA,NA,NA,NA,unpleasant,pleasant,NA,NA,NA,NA,NA,right,2532,true,NA,NA,NA,NA,NA,NA,NA,NA
daoAKQWc,39kv3a5d2bk8g62f2ek1xjbwsefs7u,3n1fsuefl9d7iez8usw7os1e4lnd4s,daoAKQWc,2020-0188,2021-10-31,02:30:30,03:46:47,NA,incomplete,false,true,NA,NA,5,13,NA,white,n_s_072.jpg,NA,NA,NA,NA,NA,unpleasant,pleasant,NA,NA,NA,NA,NA,left,1732,true,NA,NA,NA,NA,NA,NA,NA,NA
daoAKQWc,39kv3a5d2bk8g62f2ek1xjbwsefs7u,3n1fsuefl9d7iez8usw7os1e4lnd4s,daoAKQWc,2020-0188,2021-10-31,02:30:30,03:46:47,NA,incomplete,false,true,NA,NA,5,14,NA,white,n_s_024.jpg,NA,NA,NA,NA,NA,unpleasant,pleasant,NA,NA,NA,NA,NA,right,2408,true,NA,NA,NA,NA,NA,NA,NA,NA
daoAKQWc,39kv3a5d2bk8g62f2ek1xjbwsefs7u,3n1fsuefl9d7iez8usw7os1e4lnd4s,daoAKQWc,2020-0188,2021-10-31,02:30:30,03:46:47,NA,incomplete,false,true,NA,NA,5,15,NA,white,n_s_066.jpg,NA,NA,NA,NA,NA,unpleasant,pleasant,NA,NA,NA,NA,NA,right,1486,true,NA,NA,NA,NA,NA,NA,NA,NA
daoAKQWc,39kv3a5d2bk8g62f2ek1xjbwsefs7u,3n1fsuefl9d7iez8usw7os1e4lnd4s,daoAKQWc,2020-0188,2021-10-31,02:30:30,03:46:47,NA,incomplete,false,true,NA,NA,5,16,NA,white,m_l_013.jpg,NA,NA,NA,NA,NA,pleasant,unpleasant,NA,NA,NA,NA,NA,left,1780,true,NA,NA,NA,NA,NA,NA,NA,NA
daoAKQWc,39kv3a5d2bk8g62f2ek1xjbwsefs7u,3n1fsuefl9d7iez8usw7os1e4lnd4s,daoAKQWc,2020-0188,2021-10-31,02:30:30,03:46:47,NA,incomplete,false,true,NA,NA,5,17,NA,white,n_s_073.jpg,NA,NA,NA,NA,NA,pleasant,unpleasant,NA,NA,NA,NA,NA,right,1358,true,NA,NA,NA,NA,NA,NA,NA,NA
daoAKQWc,39kv3a5d2bk8g62f2ek1xjbwsefs7u,3n1fsuefl9d7iez8usw7os1e4lnd4s,daoAKQWc,2020-0188,2021-10-31,02:30:30,03:46:47,NA,incomplete,false,true,NA,NA,5,18,NA,red,n_l_022.jpg,NA,NA,NA,NA,NA,unpleasant,pleasant,NA,NA,NA,NA,NA,right,1632,true,NA,NA,NA,NA,NA,NA,NA,NA
daoAKQWc,39kv3a5d2bk8g62f2ek1xjbwsefs7u,3n1fsuefl9d7iez8usw7os1e4lnd4s,daoAKQWc,2020-0188,2021-10-31,02:30:30,03:46:47,NA,incomplete,false,true,NA,NA,5,19,NA,red,n_s_105.jpg,NA,NA,NA,NA,NA,unpleasant,pleasant,NA,NA,NA,NA,NA,right,1291,true,NA,NA,NA,NA,NA,NA,NA,NA
daoAKQWc,39kv3a5d2bk8g62f2ek1xjbwsefs7u,3n1fsuefl9d7iez8usw7os1e4lnd4s,daoAKQWc,2020-0188,2021-10-31,02:30:30,03:46:47,NA,incomplete,false,true,NA,NA,5,20,NA,red,n_s_044.jpg,NA,NA,NA,NA,NA,pleasant,unpleasant,NA,NA,NA,NA,NA,left,1219,true,NA,NA,NA,NA,NA,NA,NA,NA
daoAKQWc,39kv3a5d2bk8g62f2ek1xjbwsefs7u,3n1fsuefl9d7iez8usw7os1e4lnd4s,daoAKQWc,2020-0188,2021-10-31,02:30:30,03:46:47,NA,incomplete,false,true,NA,NA,5,21,NA,red,n_s_111.jpg,NA,NA,NA,NA,NA,unpleasant,pleasant,NA,NA,NA,NA,NA,right,1409,true,NA,NA,NA,NA,NA,NA,NA,NA
daoAKQWc,39kv3a5d2bk8g62f2ek1xjbwsefs7u,3n1fsuefl9d7iez8usw7os1e4lnd4s,daoAKQWc,2020-0188,2021-10-31,02:30:30,03:46:47,NA,incomplete,false,true,NA,NA,5,22,NA,red,n_l_074.jpg,NA,NA,NA,NA,NA,pleasant,unpleasant,NA,NA,NA,NA,NA,left,2044,true,NA,NA,NA,NA,NA,NA,NA,NA
daoAKQWc,39kv3a5d2bk8g62f2ek1xjbwsefs7u,3n1fsuefl9d7iez8usw7os1e4lnd4s,daoAKQWc,2020-0188,2021-10-31,02:30:30,03:46:47,NA,incomplete,false,true,NA,NA,5,23,NA,red,m_s_025.jpg,NA,NA,NA,NA,NA,pleasant,unpleasant,NA,NA,NA,NA,NA,left,1516,true,NA,NA,NA,NA,NA,NA,NA,NA
daoAKQWc,39kv3a5d2bk8g62f2ek1xjbwsefs7u,3n1fsuefl9d7iez8usw7os1e4lnd4s,daoAKQWc,2020-0188,2021-10-31,02:30:30,03:46:47,NA,incomplete,false,true,NA,NA,5,24,NA,yellow,m_s_051.jpg,NA,NA,NA,NA,NA,unpleasant,pleasant,NA,NA,NA,NA,NA,right,1640,true,NA,NA,NA,NA,NA,NA,NA,NA
daoAKQWc,39kv3a5d2bk8g62f2ek1xjbwsefs7u,3n1fsuefl9d7iez8usw7os1e4lnd4s,daoAKQWc,2020-0188,2021-10-31,02:30:30,03:46:47,NA,incomplete,false,true,NA,NA,5,25,NA,yellow,n_s_083.jpg,NA,NA,NA,NA,NA,pleasant,unpleasant,NA,NA,NA,NA,NA,left,1318,true,NA,NA,NA,NA,NA,NA,NA,NA
daoAKQWc,39kv3a5d2bk8g62f2ek1xjbwsefs7u,3n1fsuefl9d7iez8usw7os1e4lnd4s,daoAKQWc,2020-0188,2021-10-31,02:30:30,03:46:47,NA,incomplete,false,true,NA,NA,5,26,NA,yellow,n_s_016.jpg,NA,NA,NA,NA,NA,pleasant,unpleasant,NA,NA,NA,NA,NA,left,1977,true,NA,NA,NA,NA,NA,NA,NA,NA
daoAKQWc,39kv3a5d2bk8g62f2ek1xjbwsefs7u,3n1fsuefl9d7iez8usw7os1e4lnd4s,daoAKQWc,2020-0188,2021-10-31,02:30:30,03:46:47,NA,incomplete,false,true,NA,NA,5,27,NA,yellow,n_s_038.jpg,NA,NA,NA,NA,NA,unpleasant,pleasant,NA,NA,NA,NA,NA,right,1500,true,NA,NA,NA,NA,NA,NA,NA,NA
daoAKQWc,39kv3a5d2bk8g62f2ek1xjbwsefs7u,3n1fsuefl9d7iez8usw7os1e4lnd4s,daoAKQWc,2020-0188,2021-10-31,02:30:30,03:46:47,NA,incomplete,false,true,NA,NA,5,28,NA,yellow,n_l_104.jpg,NA,NA,NA,NA,NA,unpleasant,pleasant,NA,NA,NA,NA,NA,right,1311,true,NA,NA,NA,NA,NA,NA,NA,NA
daoAKQWc,39kv3a5d2bk8g62f2ek1xjbwsefs7u,3n1fsuefl9d7iez8usw7os1e4lnd4s,daoAKQWc,2020-0188,2021-10-31,02:30:30,03:46:47,NA,incomplete,false,true,NA,NA,5,29,NA,yellow,m_s_082.jpg,NA,NA,NA,NA,NA,unpleasant,pleasant,NA,NA,NA,NA,NA,right,1249,true,NA,NA,NA,NA,NA,NA,NA,NA
daoAKQWc,39kv3a5d2bk8g62f2ek1xjbwsefs7u,3n1fsuefl9d7iez8usw7os1e4lnd4s,daoAKQWc,2020-0188,2021-10-31,02:30:30,03:46:47,NA,incomplete,false,true,NA,NA,5,30,NA,orange,n_s_061.jpg,NA,NA,NA,NA,NA,pleasant,unpleasant,NA,NA,NA,NA,NA,right,2014,true,NA,NA,NA,NA,NA,NA,NA,NA
daoAKQWc,39kv3a5d2bk8g62f2ek1xjbwsefs7u,3n1fsuefl9d7iez8usw7os1e4lnd4s,daoAKQWc,2020-0188,2021-10-31,02:30:30,03:46:47,NA,incomplete,false,true,NA,NA,5,31,NA,orange,n_s_085.jpg,NA,NA,NA,NA,NA,unpleasant,pleasant,NA,NA,NA,NA,NA,left,2034,true,NA,NA,NA,NA,NA,NA,NA,NA
daoAKQWc,39kv3a5d2bk8g62f2ek1xjbwsefs7u,3n1fsuefl9d7iez8usw7os1e4lnd4s,daoAKQWc,2020-0188,2021-10-31,02:30:30,03:46:47,NA,incomplete,false,true,NA,NA,5,32,NA,orange,n_s_114.jpg,NA,NA,NA,NA,NA,unpleasant,pleasant,NA,NA,NA,NA,NA,left,1345,true,NA,NA,NA,NA,NA,NA,NA,NA
