workerId,hitId,assignmentId,subject,studyid,exp_date,exp_start,exp_end,time_start,time_end,practice,encoding,memory,association,block,trial,event_order,event,stim,answer,object,left_context,right_context,context_type,label_left,label_right,left_image,left_event,right_image,right_event,condition,response,response_time,response_acc,association_response_time,association_response,association_acc,order_response,order_response_time,order_acc,distance_response,distance_response_time
oXsRPEfI,3087lxlj7ptluqx9bvztb5iuvan0fr,3n8oevh1fv32q40f3lpwdkjiprhooz,oXsRPEfI,2020-0188,2021-10-31,13:47:14,15:04:19,NA,incomplete,true,true,NA,NA,0,0,NA,yellow,m_l_062.jpg,NA,NA,NA,NA,NA,pleasant,unpleasant,NA,NA,NA,NA,NA,left,937.5,true,NA,NA,NA,NA,NA,NA,NA,NA
oXsRPEfI,3087lxlj7ptluqx9bvztb5iuvan0fr,3n8oevh1fv32q40f3lpwdkjiprhooz,oXsRPEfI,2020-0188,2021-10-31,13:47:14,15:04:19,NA,incomplete,true,true,NA,NA,0,1,NA,yellow,m_l_032.jpg,NA,NA,NA,NA,NA,pleasant,unpleasant,NA,NA,NA,NA,NA,left,1216.29999998212,true,NA,NA,NA,NA,NA,NA,NA,NA
oXsRPEfI,3087lxlj7ptluqx9bvztb5iuvan0fr,3n8oevh1fv32q40f3lpwdkjiprhooz,oXsRPEfI,2020-0188,2021-10-31,13:47:14,15:04:19,NA,incomplete,true,true,NA,NA,0,2,NA,yellow,m_s_117.jpg,NA,NA,NA,NA,NA,pleasant,unpleasant,NA,NA,NA,NA,NA,right,1141,true,NA,NA,NA,NA,NA,NA,NA,NA
oXsRPEfI,3087lxlj7ptluqx9bvztb5iuvan0fr,3n8oevh1fv32q40f3lpwdkjiprhooz,oXsRPEfI,2020-0188,2021-10-31,13:47:14,15:04:19,NA,incomplete,true,true,NA,NA,0,3,NA,yellow,m_s_085.jpg,NA,NA,NA,NA,NA,unpleasant,pleasant,NA,NA,NA,NA,NA,right,837,true,NA,NA,NA,NA,NA,NA,NA,NA
oXsRPEfI,3087lxlj7ptluqx9bvztb5iuvan0fr,3n8oevh1fv32q40f3lpwdkjiprhooz,oXsRPEfI,2020-0188,2021-10-31,13:47:14,15:04:19,NA,incomplete,true,true,NA,NA,0,4,NA,yellow,n_s_048.jpg,NA,NA,NA,NA,NA,unpleasant,pleasant,NA,NA,NA,NA,NA,right,977,true,NA,NA,NA,NA,NA,NA,NA,NA
oXsRPEfI,3087lxlj7ptluqx9bvztb5iuvan0fr,3n8oevh1fv32q40f3lpwdkjiprhooz,oXsRPEfI,2020-0188,2021-10-31,13:47:14,15:04:19,NA,incomplete,true,true,NA,NA,0,5,NA,yellow,m_l_087.jpg,NA,NA,NA,NA,NA,unpleasant,pleasant,NA,NA,NA,NA,NA,right,862.5,true,NA,NA,NA,NA,NA,NA,NA,NA
oXsRPEfI,3087lxlj7ptluqx9bvztb5iuvan0fr,3n8oevh1fv32q40f3lpwdkjiprhooz,oXsRPEfI,2020-0188,2021-10-31,13:47:14,15:04:19,NA,incomplete,true,true,NA,NA,0,6,NA,black,n_s_013.jpg,NA,NA,NA,NA,NA,unpleasant,pleasant,NA,NA,NA,NA,NA,right,1155.19999998808,true,NA,NA,NA,NA,NA,NA,NA,NA
oXsRPEfI,3087lxlj7ptluqx9bvztb5iuvan0fr,3n8oevh1fv32q40f3lpwdkjiprhooz,oXsRPEfI,2020-0188,2021-10-31,13:47:14,15:04:19,NA,incomplete,true,true,NA,NA,0,7,NA,black,m_l_047.jpg,NA,NA,NA,NA,NA,unpleasant,pleasant,NA,NA,NA,NA,NA,right,972,true,NA,NA,NA,NA,NA,NA,NA,NA
oXsRPEfI,3087lxlj7ptluqx9bvztb5iuvan0fr,3n8oevh1fv32q40f3lpwdkjiprhooz,oXsRPEfI,2020-0188,2021-10-31,13:47:14,15:04:19,NA,incomplete,true,true,NA,NA,0,8,NA,black,n_l_051.jpg,NA,NA,NA,NA,NA,unpleasant,pleasant,NA,NA,NA,NA,NA,right,1262.70000001788,true,NA,NA,NA,NA,NA,NA,NA,NA
oXsRPEfI,3087lxlj7ptluqx9bvztb5iuvan0fr,3n8oevh1fv32q40f3lpwdkjiprhooz,oXsRPEfI,2020-0188,2021-10-31,13:47:14,15:04:19,NA,incomplete,true,true,NA,NA,0,9,NA,black,n_s_076.jpg,NA,NA,NA,NA,NA,pleasant,unpleasant,NA,NA,NA,NA,NA,right,1340.40000000596,true,NA,NA,NA,NA,NA,NA,NA,NA
oXsRPEfI,3087lxlj7ptluqx9bvztb5iuvan0fr,3n8oevh1fv32q40f3lpwdkjiprhooz,oXsRPEfI,2020-0188,2021-10-31,13:47:14,15:04:19,NA,incomplete,true,true,NA,NA,0,10,NA,black,m_s_046.jpg,NA,NA,NA,NA,NA,pleasant,unpleasant,NA,NA,NA,NA,NA,left,862.40000000596,true,NA,NA,NA,NA,NA,NA,NA,NA
oXsRPEfI,3087lxlj7ptluqx9bvztb5iuvan0fr,3n8oevh1fv32q40f3lpwdkjiprhooz,oXsRPEfI,2020-0188,2021-10-31,13:47:14,15:04:19,NA,incomplete,true,true,NA,NA,0,11,NA,black,n_s_056.jpg,NA,NA,NA,NA,NA,pleasant,unpleasant,NA,NA,NA,NA,NA,left,1107.40000000596,true,NA,NA,NA,NA,NA,NA,NA,NA
oXsRPEfI,3087lxlj7ptluqx9bvztb5iuvan0fr,3n8oevh1fv32q40f3lpwdkjiprhooz,oXsRPEfI,2020-0188,2021-10-31,13:47:14,15:04:19,NA,incomplete,true,true,NA,NA,0,12,NA,orange,n_l_020.jpg,NA,NA,NA,NA,NA,unpleasant,pleasant,NA,NA,NA,NA,NA,right,967.199999988079,true,NA,NA,NA,NA,NA,NA,NA,NA
oXsRPEfI,3087lxlj7ptluqx9bvztb5iuvan0fr,3n8oevh1fv32q40f3lpwdkjiprhooz,oXsRPEfI,2020-0188,2021-10-31,13:47:14,15:04:19,NA,incomplete,true,true,NA,NA,0,13,NA,orange,m_s_101.jpg,NA,NA,NA,NA,NA,unpleasant,pleasant,NA,NA,NA,NA,NA,left,1488.89999997616,true,NA,NA,NA,NA,NA,NA,NA,NA
oXsRPEfI,3087lxlj7ptluqx9bvztb5iuvan0fr,3n8oevh1fv32q40f3lpwdkjiprhooz,oXsRPEfI,2020-0188,2021-10-31,13:47:14,15:04:19,NA,incomplete,true,true,NA,NA,0,14,NA,orange,n_l_092.jpg,NA,NA,NA,NA,NA,unpleasant,pleasant,NA,NA,NA,NA,NA,right,961.299999982119,true,NA,NA,NA,NA,NA,NA,NA,NA
oXsRPEfI,3087lxlj7ptluqx9bvztb5iuvan0fr,3n8oevh1fv32q40f3lpwdkjiprhooz,oXsRPEfI,2020-0188,2021-10-31,13:47:14,15:04:19,NA,incomplete,true,true,NA,NA,0,15,NA,orange,m_l_001.jpg,NA,NA,NA,NA,NA,unpleasant,pleasant,NA,NA,NA,NA,NA,left,1476.30000001192,true,NA,NA,NA,NA,NA,NA,NA,NA
oXsRPEfI,3087lxlj7ptluqx9bvztb5iuvan0fr,3n8oevh1fv32q40f3lpwdkjiprhooz,oXsRPEfI,2020-0188,2021-10-31,13:47:14,15:04:19,NA,incomplete,true,true,NA,NA,0,16,NA,orange,m_s_084.jpg,NA,NA,NA,NA,NA,pleasant,unpleasant,NA,NA,NA,NA,NA,left,1042.79999998212,true,NA,NA,NA,NA,NA,NA,NA,NA
oXsRPEfI,3087lxlj7ptluqx9bvztb5iuvan0fr,3n8oevh1fv32q40f3lpwdkjiprhooz,oXsRPEfI,2020-0188,2021-10-31,13:47:14,15:04:19,NA,incomplete,true,true,NA,NA,0,17,NA,orange,n_l_096.jpg,NA,NA,NA,NA,NA,pleasant,unpleasant,NA,NA,NA,NA,NA,left,1118.90000000596,true,NA,NA,NA,NA,NA,NA,NA,NA
oXsRPEfI,3087lxlj7ptluqx9bvztb5iuvan0fr,3n8oevh1fv32q40f3lpwdkjiprhooz,oXsRPEfI,2020-0188,2021-10-31,13:47:14,15:04:19,NA,incomplete,true,true,NA,NA,0,18,NA,brown,m_s_041.jpg,NA,NA,NA,NA,NA,pleasant,unpleasant,NA,NA,NA,NA,NA,left,1173.69999998808,true,NA,NA,NA,NA,NA,NA,NA,NA
oXsRPEfI,3087lxlj7ptluqx9bvztb5iuvan0fr,3n8oevh1fv32q40f3lpwdkjiprhooz,oXsRPEfI,2020-0188,2021-10-31,13:47:14,15:04:19,NA,incomplete,true,true,NA,NA,0,19,NA,brown,m_s_108.jpg,NA,NA,NA,NA,NA,pleasant,unpleasant,NA,NA,NA,NA,NA,left,1629.80000001192,true,NA,NA,NA,NA,NA,NA,NA,NA
oXsRPEfI,3087lxlj7ptluqx9bvztb5iuvan0fr,3n8oevh1fv32q40f3lpwdkjiprhooz,oXsRPEfI,2020-0188,2021-10-31,13:47:14,15:04:19,NA,incomplete,true,true,NA,NA,0,20,NA,brown,n_l_014.jpg,NA,NA,NA,NA,NA,pleasant,unpleasant,NA,NA,NA,NA,NA,left,1033.40000000596,true,NA,NA,NA,NA,NA,NA,NA,NA
oXsRPEfI,3087lxlj7ptluqx9bvztb5iuvan0fr,3n8oevh1fv32q40f3lpwdkjiprhooz,oXsRPEfI,2020-0188,2021-10-31,13:47:14,15:04:19,NA,incomplete,true,true,NA,NA,0,21,NA,brown,m_s_079.jpg,NA,NA,NA,NA,NA,pleasant,unpleasant,NA,NA,NA,NA,NA,left,933.800000011921,true,NA,NA,NA,NA,NA,NA,NA,NA
oXsRPEfI,3087lxlj7ptluqx9bvztb5iuvan0fr,3n8oevh1fv32q40f3lpwdkjiprhooz,oXsRPEfI,2020-0188,2021-10-31,13:47:14,15:04:19,NA,incomplete,true,true,NA,NA,0,22,NA,brown,n_l_004.jpg,NA,NA,NA,NA,NA,pleasant,unpleasant,NA,NA,NA,NA,NA,left,950.09999999404,true,NA,NA,NA,NA,NA,NA,NA,NA
oXsRPEfI,3087lxlj7ptluqx9bvztb5iuvan0fr,3n8oevh1fv32q40f3lpwdkjiprhooz,oXsRPEfI,2020-0188,2021-10-31,13:47:14,15:04:19,NA,incomplete,true,true,NA,NA,0,23,NA,brown,m_l_030.jpg,NA,NA,NA,NA,NA,unpleasant,pleasant,NA,NA,NA,NA,NA,right,1457.30000001192,true,NA,NA,NA,NA,NA,NA,NA,NA
oXsRPEfI,3087lxlj7ptluqx9bvztb5iuvan0fr,3n8oevh1fv32q40f3lpwdkjiprhooz,oXsRPEfI,2020-0188,2021-10-31,13:47:14,15:04:19,NA,incomplete,true,true,NA,NA,0,24,NA,green,n_s_002.jpg,NA,NA,NA,NA,NA,unpleasant,pleasant,NA,NA,NA,NA,NA,right,850.899999976158,true,NA,NA,NA,NA,NA,NA,NA,NA
oXsRPEfI,3087lxlj7ptluqx9bvztb5iuvan0fr,3n8oevh1fv32q40f3lpwdkjiprhooz,oXsRPEfI,2020-0188,2021-10-31,13:47:14,15:04:19,NA,incomplete,true,true,NA,NA,0,25,NA,green,n_l_023.jpg,NA,NA,NA,NA,NA,pleasant,unpleasant,NA,NA,NA,NA,NA,left,855.199999988079,true,NA,NA,NA,NA,NA,NA,NA,NA
oXsRPEfI,3087lxlj7ptluqx9bvztb5iuvan0fr,3n8oevh1fv32q40f3lpwdkjiprhooz,oXsRPEfI,2020-0188,2021-10-31,13:47:14,15:04:19,NA,incomplete,true,true,NA,NA,0,26,NA,green,m_s_077.jpg,NA,NA,NA,NA,NA,unpleasant,pleasant,NA,NA,NA,NA,NA,left,920.800000011921,true,NA,NA,NA,NA,NA,NA,NA,NA
oXsRPEfI,3087lxlj7ptluqx9bvztb5iuvan0fr,3n8oevh1fv32q40f3lpwdkjiprhooz,oXsRPEfI,2020-0188,2021-10-31,13:47:14,15:04:19,NA,incomplete,true,true,NA,NA,0,27,NA,green,n_l_016.jpg,NA,NA,NA,NA,NA,unpleasant,pleasant,NA,NA,NA,NA,NA,right,811.199999988079,true,NA,NA,NA,NA,NA,NA,NA,NA
oXsRPEfI,3087lxlj7ptluqx9bvztb5iuvan0fr,3n8oevh1fv32q40f3lpwdkjiprhooz,oXsRPEfI,2020-0188,2021-10-31,13:47:14,15:04:19,NA,incomplete,true,true,NA,NA,0,28,NA,green,m_l_035.jpg,NA,NA,NA,NA,NA,unpleasant,pleasant,NA,NA,NA,NA,NA,left,1570.09999999404,true,NA,NA,NA,NA,NA,NA,NA,NA
oXsRPEfI,3087lxlj7ptluqx9bvztb5iuvan0fr,3n8oevh1fv32q40f3lpwdkjiprhooz,oXsRPEfI,2020-0188,2021-10-31,13:47:14,15:04:19,NA,incomplete,true,true,NA,NA,0,29,NA,green,n_l_102.jpg,NA,NA,NA,NA,NA,pleasant,unpleasant,NA,NA,NA,NA,NA,left,1008.5,true,NA,NA,NA,NA,NA,NA,NA,NA
oXsRPEfI,3087lxlj7ptluqx9bvztb5iuvan0fr,3n8oevh1fv32q40f3lpwdkjiprhooz,oXsRPEfI,2020-0188,2021-10-31,13:47:14,15:04:19,NA,incomplete,true,true,NA,NA,0,30,NA,blue,n_l_018.jpg,NA,NA,NA,NA,NA,unpleasant,pleasant,NA,NA,NA,NA,NA,right,750.700000017881,true,NA,NA,NA,NA,NA,NA,NA,NA
oXsRPEfI,3087lxlj7ptluqx9bvztb5iuvan0fr,3n8oevh1fv32q40f3lpwdkjiprhooz,oXsRPEfI,2020-0188,2021-10-31,13:47:14,15:04:19,NA,incomplete,true,true,NA,NA,0,31,NA,blue,n_l_009.jpg,NA,NA,NA,NA,NA,pleasant,unpleasant,NA,NA,NA,NA,NA,left,779.799999982119,true,NA,NA,NA,NA,NA,NA,NA,NA
oXsRPEfI,3087lxlj7ptluqx9bvztb5iuvan0fr,3n8oevh1fv32q40f3lpwdkjiprhooz,oXsRPEfI,2020-0188,2021-10-31,13:47:14,15:04:19,NA,incomplete,true,true,NA,NA,0,32,NA,blue,m_l_059.jpg,NA,NA,NA,NA,NA,pleasant,unpleasant,NA,NA,NA,NA,NA,left,867.699999988079,true,NA,NA,NA,NA,NA,NA,NA,NA
oXsRPEfI,3087lxlj7ptluqx9bvztb5iuvan0fr,3n8oevh1fv32q40f3lpwdkjiprhooz,oXsRPEfI,2020-0188,2021-10-31,13:47:14,15:04:19,NA,incomplete,true,true,NA,NA,0,33,NA,blue,n_l_042.jpg,NA,NA,NA,NA,NA,pleasant,unpleasant,NA,NA,NA,NA,NA,left,855.40000000596,true,NA,NA,NA,NA,NA,NA,NA,NA
oXsRPEfI,3087lxlj7ptluqx9bvztb5iuvan0fr,3n8oevh1fv32q40f3lpwdkjiprhooz,oXsRPEfI,2020-0188,2021-10-31,13:47:14,15:04:19,NA,incomplete,true,true,NA,NA,0,34,NA,blue,n_l_111.jpg,NA,NA,NA,NA,NA,pleasant,unpleasant,NA,NA,NA,NA,NA,right,1363.5,true,NA,NA,NA,NA,NA,NA,NA,NA
oXsRPEfI,3087lxlj7ptluqx9bvztb5iuvan0fr,3n8oevh1fv32q40f3lpwdkjiprhooz,oXsRPEfI,2020-0188,2021-10-31,13:47:14,15:04:19,NA,incomplete,true,true,NA,NA,0,35,NA,blue,n_s_009.jpg,NA,NA,NA,NA,NA,unpleasant,pleasant,NA,NA,NA,NA,NA,right,1042.59999999404,true,NA,NA,NA,NA,NA,NA,NA,NA
oXsRPEfI,3087lxlj7ptluqx9bvztb5iuvan0fr,3n8oevh1fv32q40f3lpwdkjiprhooz,oXsRPEfI,2020-0188,2021-10-31,13:47:14,15:04:19,NA,incomplete,true,NA,NA,true,0,0,NA,NA,NA,left,n_l_051.jpg,black,yellow,NA,NA,NA,NA,NA,NA,NA,NA,NA,NaN,NA,8703.300000011921,right,0,NA,NA,NA,NA,NA
oXsRPEfI,3087lxlj7ptluqx9bvztb5iuvan0fr,3n8oevh1fv32q40f3lpwdkjiprhooz,oXsRPEfI,2020-0188,2021-10-31,13:47:14,15:04:19,NA,incomplete,true,NA,NA,true,0,1,NA,NA,NA,right,n_l_092.jpg,black,orange,NA,NA,NA,NA,NA,NA,NA,NA,NA,NaN,NA,2482.2000000178814,right,1,NA,NA,NA,NA,NA
oXsRPEfI,3087lxlj7ptluqx9bvztb5iuvan0fr,3n8oevh1fv32q40f3lpwdkjiprhooz,oXsRPEfI,2020-0188,2021-10-31,13:47:14,15:04:19,NA,incomplete,true,NA,NA,true,0,2,NA,NA,NA,right,n_l_014.jpg,green,brown,NA,NA,NA,NA,NA,NA,NA,NA,NA,NaN,NA,3101.0999999940395,right,1,NA,NA,NA,NA,NA
oXsRPEfI,3087lxlj7ptluqx9bvztb5iuvan0fr,3n8oevh1fv32q40f3lpwdkjiprhooz,oXsRPEfI,2020-0188,2021-10-31,13:47:14,15:04:19,NA,incomplete,true,NA,NA,true,0,3,NA,NA,NA,right,n_l_004.jpg,orange,brown,NA,NA,NA,NA,NA,NA,NA,NA,NA,NaN,NA,1415.199999988079,right,1,NA,NA,NA,NA,NA
oXsRPEfI,3087lxlj7ptluqx9bvztb5iuvan0fr,3n8oevh1fv32q40f3lpwdkjiprhooz,oXsRPEfI,2020-0188,2021-10-31,13:47:14,15:04:19,NA,incomplete,true,NA,NA,true,0,4,NA,NA,NA,left,n_s_056.jpg,black,yellow,NA,NA,NA,NA,NA,NA,NA,NA,NA,NaN,NA,1090.9000000059605,left,1,NA,NA,NA,NA,NA
oXsRPEfI,3087lxlj7ptluqx9bvztb5iuvan0fr,3n8oevh1fv32q40f3lpwdkjiprhooz,oXsRPEfI,2020-0188,2021-10-31,13:47:14,15:04:19,NA,incomplete,true,NA,NA,true,0,5,NA,NA,NA,left,m_s_108.jpg,brown,green,NA,NA,NA,NA,NA,NA,NA,NA,NA,NaN,NA,2502.800000011921,right,0,NA,NA,NA,NA,NA
oXsRPEfI,3087lxlj7ptluqx9bvztb5iuvan0fr,3n8oevh1fv32q40f3lpwdkjiprhooz,oXsRPEfI,2020-0188,2021-10-31,13:47:14,15:04:19,NA,incomplete,true,NA,NA,true,0,6,NA,NA,NA,left,m_l_059.jpg,blue,green,NA,NA,NA,NA,NA,NA,NA,NA,NA,NaN,NA,1049,left,1,NA,NA,NA,NA,NA
oXsRPEfI,3087lxlj7ptluqx9bvztb5iuvan0fr,3n8oevh1fv32q40f3lpwdkjiprhooz,oXsRPEfI,2020-0188,2021-10-31,13:47:14,15:04:19,NA,incomplete,true,NA,NA,true,0,7,NA,NA,NA,right,m_l_035.jpg,brown,green,NA,NA,NA,NA,NA,NA,NA,NA,NA,NaN,NA,2285.699999988079,right,1,NA,NA,NA,NA,NA
oXsRPEfI,3087lxlj7ptluqx9bvztb5iuvan0fr,3n8oevh1fv32q40f3lpwdkjiprhooz,oXsRPEfI,2020-0188,2021-10-31,13:47:14,15:04:19,NA,incomplete,true,NA,NA,true,0,8,NA,NA,NA,left,m_l_087.jpg,yellow,black,NA,NA,NA,NA,NA,NA,NA,NA,NA,NaN,NA,2070.7000000178814,left,1,NA,NA,NA,NA,NA
oXsRPEfI,3087lxlj7ptluqx9bvztb5iuvan0fr,3n8oevh1fv32q40f3lpwdkjiprhooz,oXsRPEfI,2020-0188,2021-10-31,13:47:14,15:04:19,NA,incomplete,true,NA,NA,true,0,9,NA,NA,NA,right,m_l_030.jpg,green,brown,NA,NA,NA,NA,NA,NA,NA,NA,NA,NaN,NA,1148.199999988079,left,0,NA,NA,NA,NA,NA
oXsRPEfI,3087lxlj7ptluqx9bvztb5iuvan0fr,3n8oevh1fv32q40f3lpwdkjiprhooz,oXsRPEfI,2020-0188,2021-10-31,13:47:14,15:04:19,NA,incomplete,true,NA,NA,true,0,10,NA,NA,NA,left,n_l_096.jpg,orange,brown,NA,NA,NA,NA,NA,NA,NA,NA,NA,NaN,NA,1333.5999999940395,left,1,NA,NA,NA,NA,NA
oXsRPEfI,3087lxlj7ptluqx9bvztb5iuvan0fr,3n8oevh1fv32q40f3lpwdkjiprhooz,oXsRPEfI,2020-0188,2021-10-31,13:47:14,15:04:19,NA,incomplete,true,NA,NA,true,0,11,NA,NA,NA,right,m_l_032.jpg,black,yellow,NA,NA,NA,NA,NA,NA,NA,NA,NA,NaN,NA,3817,right,1,NA,NA,NA,NA,NA
oXsRPEfI,3087lxlj7ptluqx9bvztb5iuvan0fr,3n8oevh1fv32q40f3lpwdkjiprhooz,oXsRPEfI,2020-0188,2021-10-31,13:47:14,15:04:19,NA,incomplete,true,NA,NA,true,0,12,NA,NA,NA,right,m_s_101.jpg,black,orange,NA,NA,NA,NA,NA,NA,NA,NA,NA,NaN,NA,3454.5,right,1,NA,NA,NA,NA,NA
oXsRPEfI,3087lxlj7ptluqx9bvztb5iuvan0fr,3n8oevh1fv32q40f3lpwdkjiprhooz,oXsRPEfI,2020-0188,2021-10-31,13:47:14,15:04:19,NA,incomplete,true,NA,NA,true,0,13,NA,NA,NA,left,n_l_023.jpg,green,brown,NA,NA,NA,NA,NA,NA,NA,NA,NA,NaN,NA,1863.7000000178814,left,1,NA,NA,NA,NA,NA
oXsRPEfI,3087lxlj7ptluqx9bvztb5iuvan0fr,3n8oevh1fv32q40f3lpwdkjiprhooz,oXsRPEfI,2020-0188,2021-10-31,13:47:14,15:04:19,NA,incomplete,true,NA,NA,true,0,14,NA,NA,NA,right,m_s_046.jpg,orange,black,NA,NA,NA,NA,NA,NA,NA,NA,NA,NaN,NA,1883.4000000059605,right,1,NA,NA,NA,NA,NA
oXsRPEfI,3087lxlj7ptluqx9bvztb5iuvan0fr,3n8oevh1fv32q40f3lpwdkjiprhooz,oXsRPEfI,2020-0188,2021-10-31,13:47:14,15:04:19,NA,incomplete,true,NA,NA,true,0,15,NA,NA,NA,left,n_s_048.jpg,yellow,black,NA,NA,NA,NA,NA,NA,NA,NA,NA,NaN,NA,1404.0999999940395,left,1,NA,NA,NA,NA,NA
oXsRPEfI,3087lxlj7ptluqx9bvztb5iuvan0fr,3n8oevh1fv32q40f3lpwdkjiprhooz,oXsRPEfI,2020-0188,2021-10-31,13:47:14,15:04:19,NA,incomplete,true,NA,NA,true,0,16,NA,NA,NA,left,n_l_102.jpg,green,blue,NA,NA,NA,NA,NA,NA,NA,NA,NA,NaN,NA,1973,left,1,NA,NA,NA,NA,NA
oXsRPEfI,3087lxlj7ptluqx9bvztb5iuvan0fr,3n8oevh1fv32q40f3lpwdkjiprhooz,oXsRPEfI,2020-0188,2021-10-31,13:47:14,15:04:19,NA,incomplete,true,NA,NA,true,0,17,NA,NA,NA,left,m_s_084.jpg,orange,black,NA,NA,NA,NA,NA,NA,NA,NA,NA,NaN,NA,1382.5999999940395,right,0,NA,NA,NA,NA,NA
oXsRPEfI,3087lxlj7ptluqx9bvztb5iuvan0fr,3n8oevh1fv32q40f3lpwdkjiprhooz,oXsRPEfI,2020-0188,2021-10-31,13:47:14,15:04:19,NA,incomplete,true,NA,NA,true,0,18,NA,NA,NA,right,n_s_009.jpg,green,blue,NA,NA,NA,NA,NA,NA,NA,NA,NA,NaN,NA,2756.800000011921,right,1,NA,NA,NA,NA,NA
oXsRPEfI,3087lxlj7ptluqx9bvztb5iuvan0fr,3n8oevh1fv32q40f3lpwdkjiprhooz,oXsRPEfI,2020-0188,2021-10-31,13:47:14,15:04:19,NA,incomplete,true,NA,NA,true,0,19,NA,NA,NA,right,m_s_077.jpg,brown,green,NA,NA,NA,NA,NA,NA,NA,NA,NA,NaN,NA,2306.7999999821186,left,0,NA,NA,NA,NA,NA
oXsRPEfI,3087lxlj7ptluqx9bvztb5iuvan0fr,3n8oevh1fv32q40f3lpwdkjiprhooz,oXsRPEfI,2020-0188,2021-10-31,13:47:14,15:04:19,NA,incomplete,true,NA,NA,true,0,20,NA,NA,NA,left,n_l_009.jpg,blue,green,NA,NA,NA,NA,NA,NA,NA,NA,NA,NaN,NA,1226,left,1,NA,NA,NA,NA,NA
oXsRPEfI,3087lxlj7ptluqx9bvztb5iuvan0fr,3n8oevh1fv32q40f3lpwdkjiprhooz,oXsRPEfI,2020-0188,2021-10-31,13:47:14,15:04:19,NA,incomplete,true,NA,NA,true,0,21,NA,NA,NA,left,m_l_047.jpg,black,yellow,NA,NA,NA,NA,NA,NA,NA,NA,NA,NaN,NA,1078.199999988079,left,1,NA,NA,NA,NA,NA
oXsRPEfI,3087lxlj7ptluqx9bvztb5iuvan0fr,3n8oevh1fv32q40f3lpwdkjiprhooz,oXsRPEfI,2020-0188,2021-10-31,13:47:14,15:04:19,NA,incomplete,true,NA,true,NA,0,0,NA,NA,NA,left,NA,NA,NA,present,NA,NA,m_l_032.jpg,yellow,m_l_087.jpg,yellow,within,NA,NaN,NA,NA,NA,NA,left,3552.2000000178814,1,1,5092.800000011921
oXsRPEfI,3087lxlj7ptluqx9bvztb5iuvan0fr,3n8oevh1fv32q40f3lpwdkjiprhooz,oXsRPEfI,2020-0188,2021-10-31,13:47:14,15:04:19,NA,incomplete,true,NA,true,NA,0,1,NA,NA,NA,left,NA,NA,NA,present,NA,NA,m_l_035.jpg,green,m_l_059.jpg,blue,between,NA,NaN,NA,NA,NA,NA,right,2656.7000000178814,0,2,2403.800000011921
oXsRPEfI,3087lxlj7ptluqx9bvztb5iuvan0fr,3n8oevh1fv32q40f3lpwdkjiprhooz,oXsRPEfI,2020-0188,2021-10-31,13:47:14,15:04:19,NA,incomplete,true,NA,true,NA,0,2,NA,NA,NA,left,NA,NA,NA,present,NA,NA,n_l_023.jpg,green,n_l_102.jpg,green,within,NA,NaN,NA,NA,NA,NA,left,3022.4000000059605,1,2,2218.699999988079
oXsRPEfI,3087lxlj7ptluqx9bvztb5iuvan0fr,3n8oevh1fv32q40f3lpwdkjiprhooz,oXsRPEfI,2020-0188,2021-10-31,13:47:14,15:04:19,NA,incomplete,true,NA,true,NA,0,3,NA,NA,NA,left,NA,NA,NA,present,NA,NA,n_l_009.jpg,blue,n_s_009.jpg,blue,within,NA,NaN,NA,NA,NA,NA,left,2561,1,1,3140.199999988079
oXsRPEfI,3087lxlj7ptluqx9bvztb5iuvan0fr,3n8oevh1fv32q40f3lpwdkjiprhooz,oXsRPEfI,2020-0188,2021-10-31,13:47:14,15:04:19,NA,incomplete,true,NA,true,NA,0,4,NA,NA,NA,left,NA,NA,NA,present,NA,NA,m_s_108.jpg,brown,m_l_030.jpg,brown,within,NA,NaN,NA,NA,NA,NA,right,2246.7000000178814,0,2,3130
oXsRPEfI,3087lxlj7ptluqx9bvztb5iuvan0fr,3n8oevh1fv32q40f3lpwdkjiprhooz,oXsRPEfI,2020-0188,2021-10-31,13:47:14,15:04:19,NA,incomplete,true,NA,true,NA,0,5,NA,NA,NA,right,NA,NA,NA,present,NA,NA,n_s_056.jpg,black,m_l_047.jpg,black,within,NA,NaN,NA,NA,NA,NA,right,3737.4000000059605,1,0,2001.8999999761581
oXsRPEfI,3087lxlj7ptluqx9bvztb5iuvan0fr,3n8oevh1fv32q40f3lpwdkjiprhooz,oXsRPEfI,2020-0188,2021-10-31,13:47:14,15:04:19,NA,incomplete,true,NA,true,NA,0,6,NA,NA,NA,left,NA,NA,NA,present,NA,NA,n_s_048.jpg,yellow,n_l_051.jpg,black,between,NA,NaN,NA,NA,NA,NA,left,2973.699999988079,1,1,2296.5999999940395
oXsRPEfI,3087lxlj7ptluqx9bvztb5iuvan0fr,3n8oevh1fv32q40f3lpwdkjiprhooz,oXsRPEfI,2020-0188,2021-10-31,13:47:14,15:04:19,NA,incomplete,true,NA,true,NA,0,7,NA,NA,NA,left,NA,NA,NA,present,NA,NA,m_s_046.jpg,black,n_l_092.jpg,orange,between,NA,NaN,NA,NA,NA,NA,left,3071,1,2,2639.5
oXsRPEfI,3087lxlj7ptluqx9bvztb5iuvan0fr,3n8oevh1fv32q40f3lpwdkjiprhooz,oXsRPEfI,2020-0188,2021-10-31,13:47:14,15:04:19,NA,incomplete,true,NA,true,NA,0,8,NA,NA,NA,left,NA,NA,NA,present,NA,NA,n_l_004.jpg,brown,m_s_077.jpg,green,between,NA,NaN,NA,NA,NA,NA,right,2188,0,2,2050.899999976158
oXsRPEfI,3087lxlj7ptluqx9bvztb5iuvan0fr,3n8oevh1fv32q40f3lpwdkjiprhooz,oXsRPEfI,2020-0188,2021-10-31,13:47:14,15:04:19,NA,incomplete,true,NA,true,NA,0,9,NA,NA,NA,left,NA,NA,NA,present,NA,NA,m_s_084.jpg,orange,n_l_014.jpg,brown,between,NA,NaN,NA,NA,NA,NA,left,2059.7999999821186,1,2,2699.199999988079
oXsRPEfI,3087lxlj7ptluqx9bvztb5iuvan0fr,3n8oevh1fv32q40f3lpwdkjiprhooz,oXsRPEfI,2020-0188,2021-10-31,13:47:14,15:04:19,NA,incomplete,true,NA,true,NA,0,10,NA,NA,NA,right,NA,NA,NA,present,NA,NA,n_l_096.jpg,orange,m_s_101.jpg,orange,within,NA,NaN,NA,NA,NA,NA,left,3827.0999999940395,0,2,1274.5999999940395
oXsRPEfI,3087lxlj7ptluqx9bvztb5iuvan0fr,3n8oevh1fv32q40f3lpwdkjiprhooz,oXsRPEfI,2020-0188,2021-10-31,13:47:14,15:04:19,NA,incomplete,false,true,NA,NA,1,0,NA,orange,m_l_075.jpg,NA,NA,NA,NA,NA,unpleasant,pleasant,NA,NA,NA,NA,NA,right,1768.59999999404,true,NA,NA,NA,NA,NA,NA,NA,NA
oXsRPEfI,3087lxlj7ptluqx9bvztb5iuvan0fr,3n8oevh1fv32q40f3lpwdkjiprhooz,oXsRPEfI,2020-0188,2021-10-31,13:47:14,15:04:19,NA,incomplete,false,true,NA,NA,1,1,NA,orange,m_l_002.jpg,NA,NA,NA,NA,NA,unpleasant,pleasant,NA,NA,NA,NA,NA,right,1512.30000001192,true,NA,NA,NA,NA,NA,NA,NA,NA
oXsRPEfI,3087lxlj7ptluqx9bvztb5iuvan0fr,3n8oevh1fv32q40f3lpwdkjiprhooz,oXsRPEfI,2020-0188,2021-10-31,13:47:14,15:04:19,NA,incomplete,false,true,NA,NA,1,2,NA,orange,n_l_050.jpg,NA,NA,NA,NA,NA,unpleasant,pleasant,NA,NA,NA,NA,NA,right,1301.19999998808,true,NA,NA,NA,NA,NA,NA,NA,NA
oXsRPEfI,3087lxlj7ptluqx9bvztb5iuvan0fr,3n8oevh1fv32q40f3lpwdkjiprhooz,oXsRPEfI,2020-0188,2021-10-31,13:47:14,15:04:19,NA,incomplete,false,true,NA,NA,1,3,NA,orange,m_l_079.jpg,NA,NA,NA,NA,NA,unpleasant,pleasant,NA,NA,NA,NA,NA,left,1194.90000000596,true,NA,NA,NA,NA,NA,NA,NA,NA
oXsRPEfI,3087lxlj7ptluqx9bvztb5iuvan0fr,3n8oevh1fv32q40f3lpwdkjiprhooz,oXsRPEfI,2020-0188,2021-10-31,13:47:14,15:04:19,NA,incomplete,false,true,NA,NA,1,4,NA,orange,n_s_054.jpg,NA,NA,NA,NA,NA,unpleasant,pleasant,NA,NA,NA,NA,NA,right,1200.80000001192,true,NA,NA,NA,NA,NA,NA,NA,NA
oXsRPEfI,3087lxlj7ptluqx9bvztb5iuvan0fr,3n8oevh1fv32q40f3lpwdkjiprhooz,oXsRPEfI,2020-0188,2021-10-31,13:47:14,15:04:19,NA,incomplete,false,true,NA,NA,1,5,NA,orange,n_l_083.jpg,NA,NA,NA,NA,NA,unpleasant,pleasant,NA,NA,NA,NA,NA,right,1170.59999999404,true,NA,NA,NA,NA,NA,NA,NA,NA
oXsRPEfI,3087lxlj7ptluqx9bvztb5iuvan0fr,3n8oevh1fv32q40f3lpwdkjiprhooz,oXsRPEfI,2020-0188,2021-10-31,13:47:14,15:04:19,NA,incomplete,false,true,NA,NA,1,6,NA,yellow,m_l_039.jpg,NA,NA,NA,NA,NA,unpleasant,pleasant,NA,NA,NA,NA,NA,right,1345.5,true,NA,NA,NA,NA,NA,NA,NA,NA
oXsRPEfI,3087lxlj7ptluqx9bvztb5iuvan0fr,3n8oevh1fv32q40f3lpwdkjiprhooz,oXsRPEfI,2020-0188,2021-10-31,13:47:14,15:04:19,NA,incomplete,false,true,NA,NA,1,7,NA,yellow,m_s_070.jpg,NA,NA,NA,NA,NA,unpleasant,pleasant,NA,NA,NA,NA,NA,left,1438.29999998212,true,NA,NA,NA,NA,NA,NA,NA,NA
oXsRPEfI,3087lxlj7ptluqx9bvztb5iuvan0fr,3n8oevh1fv32q40f3lpwdkjiprhooz,oXsRPEfI,2020-0188,2021-10-31,13:47:14,15:04:19,NA,incomplete,false,true,NA,NA,1,8,NA,yellow,n_l_019.jpg,NA,NA,NA,NA,NA,pleasant,unpleasant,NA,NA,NA,NA,NA,left,1361.29999998212,true,NA,NA,NA,NA,NA,NA,NA,NA
oXsRPEfI,3087lxlj7ptluqx9bvztb5iuvan0fr,3n8oevh1fv32q40f3lpwdkjiprhooz,oXsRPEfI,2020-0188,2021-10-31,13:47:14,15:04:19,NA,incomplete,false,true,NA,NA,1,9,NA,yellow,m_s_086.jpg,NA,NA,NA,NA,NA,pleasant,unpleasant,NA,NA,NA,NA,NA,right,1458.70000001788,true,NA,NA,NA,NA,NA,NA,NA,NA
oXsRPEfI,3087lxlj7ptluqx9bvztb5iuvan0fr,3n8oevh1fv32q40f3lpwdkjiprhooz,oXsRPEfI,2020-0188,2021-10-31,13:47:14,15:04:19,NA,incomplete,false,true,NA,NA,1,10,NA,yellow,m_s_062.jpg,NA,NA,NA,NA,NA,unpleasant,pleasant,NA,NA,NA,NA,NA,right,775.5,true,NA,NA,NA,NA,NA,NA,NA,NA
oXsRPEfI,3087lxlj7ptluqx9bvztb5iuvan0fr,3n8oevh1fv32q40f3lpwdkjiprhooz,oXsRPEfI,2020-0188,2021-10-31,13:47:14,15:04:19,NA,incomplete,false,true,NA,NA,1,11,NA,yellow,m_l_053.jpg,NA,NA,NA,NA,NA,pleasant,unpleasant,NA,NA,NA,NA,NA,left,972.699999988079,true,NA,NA,NA,NA,NA,NA,NA,NA
oXsRPEfI,3087lxlj7ptluqx9bvztb5iuvan0fr,3n8oevh1fv32q40f3lpwdkjiprhooz,oXsRPEfI,2020-0188,2021-10-31,13:47:14,15:04:19,NA,incomplete,false,true,NA,NA,1,12,NA,white,m_l_089.jpg,NA,NA,NA,NA,NA,unpleasant,pleasant,NA,NA,NA,NA,NA,right,1080.59999999404,true,NA,NA,NA,NA,NA,NA,NA,NA
oXsRPEfI,3087lxlj7ptluqx9bvztb5iuvan0fr,3n8oevh1fv32q40f3lpwdkjiprhooz,oXsRPEfI,2020-0188,2021-10-31,13:47:14,15:04:19,NA,incomplete,false,true,NA,NA,1,13,NA,white,n_l_033.jpg,NA,NA,NA,NA,NA,pleasant,unpleasant,NA,NA,NA,NA,NA,right,1112.40000000596,true,NA,NA,NA,NA,NA,NA,NA,NA
oXsRPEfI,3087lxlj7ptluqx9bvztb5iuvan0fr,3n8oevh1fv32q40f3lpwdkjiprhooz,oXsRPEfI,2020-0188,2021-10-31,13:47:14,15:04:19,NA,incomplete,false,true,NA,NA,1,14,NA,white,n_l_060.jpg,NA,NA,NA,NA,NA,unpleasant,pleasant,NA,NA,NA,NA,NA,right,899.899999976158,true,NA,NA,NA,NA,NA,NA,NA,NA
oXsRPEfI,3087lxlj7ptluqx9bvztb5iuvan0fr,3n8oevh1fv32q40f3lpwdkjiprhooz,oXsRPEfI,2020-0188,2021-10-31,13:47:14,15:04:19,NA,incomplete,false,true,NA,NA,1,15,NA,white,n_l_015.jpg,NA,NA,NA,NA,NA,unpleasant,pleasant,NA,NA,NA,NA,NA,right,880.90000000596,true,NA,NA,NA,NA,NA,NA,NA,NA
oXsRPEfI,3087lxlj7ptluqx9bvztb5iuvan0fr,3n8oevh1fv32q40f3lpwdkjiprhooz,oXsRPEfI,2020-0188,2021-10-31,13:47:14,15:04:19,NA,incomplete,false,true,NA,NA,1,16,NA,white,n_l_080.jpg,NA,NA,NA,NA,NA,unpleasant,pleasant,NA,NA,NA,NA,NA,right,1072.39999997616,true,NA,NA,NA,NA,NA,NA,NA,NA
oXsRPEfI,3087lxlj7ptluqx9bvztb5iuvan0fr,3n8oevh1fv32q40f3lpwdkjiprhooz,oXsRPEfI,2020-0188,2021-10-31,13:47:14,15:04:19,NA,incomplete,false,true,NA,NA,1,17,NA,white,m_l_102.jpg,NA,NA,NA,NA,NA,pleasant,unpleasant,NA,NA,NA,NA,NA,left,1484.59999999404,true,NA,NA,NA,NA,NA,NA,NA,NA
oXsRPEfI,3087lxlj7ptluqx9bvztb5iuvan0fr,3n8oevh1fv32q40f3lpwdkjiprhooz,oXsRPEfI,2020-0188,2021-10-31,13:47:14,15:04:19,NA,incomplete,false,true,NA,NA,1,18,NA,gray,m_s_035.jpg,NA,NA,NA,NA,NA,unpleasant,pleasant,NA,NA,NA,NA,NA,right,920.300000011921,true,NA,NA,NA,NA,NA,NA,NA,NA
oXsRPEfI,3087lxlj7ptluqx9bvztb5iuvan0fr,3n8oevh1fv32q40f3lpwdkjiprhooz,oXsRPEfI,2020-0188,2021-10-31,13:47:14,15:04:19,NA,incomplete,false,true,NA,NA,1,19,NA,gray,m_l_019.jpg,NA,NA,NA,NA,NA,unpleasant,pleasant,NA,NA,NA,NA,NA,right,1434.30000001192,true,NA,NA,NA,NA,NA,NA,NA,NA
oXsRPEfI,3087lxlj7ptluqx9bvztb5iuvan0fr,3n8oevh1fv32q40f3lpwdkjiprhooz,oXsRPEfI,2020-0188,2021-10-31,13:47:14,15:04:19,NA,incomplete,false,true,NA,NA,1,20,NA,gray,n_s_022.jpg,NA,NA,NA,NA,NA,unpleasant,pleasant,NA,NA,NA,NA,NA,right,1421,true,NA,NA,NA,NA,NA,NA,NA,NA
oXsRPEfI,3087lxlj7ptluqx9bvztb5iuvan0fr,3n8oevh1fv32q40f3lpwdkjiprhooz,oXsRPEfI,2020-0188,2021-10-31,13:47:14,15:04:19,NA,incomplete,false,true,NA,NA,1,21,NA,gray,n_l_116.jpg,NA,NA,NA,NA,NA,unpleasant,pleasant,NA,NA,NA,NA,NA,right,1508.40000000596,true,NA,NA,NA,NA,NA,NA,NA,NA
oXsRPEfI,3087lxlj7ptluqx9bvztb5iuvan0fr,3n8oevh1fv32q40f3lpwdkjiprhooz,oXsRPEfI,2020-0188,2021-10-31,13:47:14,15:04:19,NA,incomplete,false,true,NA,NA,1,22,NA,gray,n_s_015.jpg,NA,NA,NA,NA,NA,unpleasant,pleasant,NA,NA,NA,NA,NA,right,731.199999988079,true,NA,NA,NA,NA,NA,NA,NA,NA
oXsRPEfI,3087lxlj7ptluqx9bvztb5iuvan0fr,3n8oevh1fv32q40f3lpwdkjiprhooz,oXsRPEfI,2020-0188,2021-10-31,13:47:14,15:04:19,NA,incomplete,false,true,NA,NA,1,23,NA,gray,m_l_023.jpg,NA,NA,NA,NA,NA,pleasant,unpleasant,NA,NA,NA,NA,NA,left,1350.90000000596,true,NA,NA,NA,NA,NA,NA,NA,NA
oXsRPEfI,3087lxlj7ptluqx9bvztb5iuvan0fr,3n8oevh1fv32q40f3lpwdkjiprhooz,oXsRPEfI,2020-0188,2021-10-31,13:47:14,15:04:19,NA,incomplete,false,true,NA,NA,1,24,NA,red,n_l_025.jpg,NA,NA,NA,NA,NA,unpleasant,pleasant,NA,NA,NA,NA,NA,right,985.199999988079,true,NA,NA,NA,NA,NA,NA,NA,NA
oXsRPEfI,3087lxlj7ptluqx9bvztb5iuvan0fr,3n8oevh1fv32q40f3lpwdkjiprhooz,oXsRPEfI,2020-0188,2021-10-31,13:47:14,15:04:19,NA,incomplete,false,true,NA,NA,1,25,NA,red,n_s_107.jpg,NA,NA,NA,NA,NA,pleasant,unpleasant,NA,NA,NA,NA,NA,left,1516.09999999404,true,NA,NA,NA,NA,NA,NA,NA,NA
oXsRPEfI,3087lxlj7ptluqx9bvztb5iuvan0fr,3n8oevh1fv32q40f3lpwdkjiprhooz,oXsRPEfI,2020-0188,2021-10-31,13:47:14,15:04:19,NA,incomplete,false,true,NA,NA,1,26,NA,red,n_s_073.jpg,NA,NA,NA,NA,NA,pleasant,unpleasant,NA,NA,NA,NA,NA,right,1319.09999999404,true,NA,NA,NA,NA,NA,NA,NA,NA
oXsRPEfI,3087lxlj7ptluqx9bvztb5iuvan0fr,3n8oevh1fv32q40f3lpwdkjiprhooz,oXsRPEfI,2020-0188,2021-10-31,13:47:14,15:04:19,NA,incomplete,false,true,NA,NA,1,27,NA,red,m_s_020.jpg,NA,NA,NA,NA,NA,unpleasant,pleasant,NA,NA,NA,NA,NA,right,944.199999988079,true,NA,NA,NA,NA,NA,NA,NA,NA
oXsRPEfI,3087lxlj7ptluqx9bvztb5iuvan0fr,3n8oevh1fv32q40f3lpwdkjiprhooz,oXsRPEfI,2020-0188,2021-10-31,13:47:14,15:04:19,NA,incomplete,false,true,NA,NA,1,28,NA,red,m_l_055.jpg,NA,NA,NA,NA,NA,unpleasant,pleasant,NA,NA,NA,NA,NA,right,1560.70000001788,true,NA,NA,NA,NA,NA,NA,NA,NA
oXsRPEfI,3087lxlj7ptluqx9bvztb5iuvan0fr,3n8oevh1fv32q40f3lpwdkjiprhooz,oXsRPEfI,2020-0188,2021-10-31,13:47:14,15:04:19,NA,incomplete,false,true,NA,NA,1,29,NA,red,n_l_041.jpg,NA,NA,NA,NA,NA,pleasant,unpleasant,NA,NA,NA,NA,NA,right,1816.40000000596,true,NA,NA,NA,NA,NA,NA,NA,NA
oXsRPEfI,3087lxlj7ptluqx9bvztb5iuvan0fr,3n8oevh1fv32q40f3lpwdkjiprhooz,oXsRPEfI,2020-0188,2021-10-31,13:47:14,15:04:19,NA,incomplete,false,true,NA,NA,1,30,NA,purple,n_l_059.jpg,NA,NA,NA,NA,NA,unpleasant,pleasant,NA,NA,NA,NA,NA,right,1214,true,NA,NA,NA,NA,NA,NA,NA,NA
oXsRPEfI,3087lxlj7ptluqx9bvztb5iuvan0fr,3n8oevh1fv32q40f3lpwdkjiprhooz,oXsRPEfI,2020-0188,2021-10-31,13:47:14,15:04:19,NA,incomplete,false,true,NA,NA,1,31,NA,purple,m_s_098.jpg,NA,NA,NA,NA,NA,pleasant,unpleasant,NA,NA,NA,NA,NA,left,1517.59999999404,true,NA,NA,NA,NA,NA,NA,NA,NA
oXsRPEfI,3087lxlj7ptluqx9bvztb5iuvan0fr,3n8oevh1fv32q40f3lpwdkjiprhooz,oXsRPEfI,2020-0188,2021-10-31,13:47:14,15:04:19,NA,incomplete,false,true,NA,NA,1,32,NA,purple,m_l_084.jpg,NA,NA,NA,NA,NA,unpleasant,pleasant,NA,NA,NA,NA,NA,right,970.800000011921,true,NA,NA,NA,NA,NA,NA,NA,NA
oXsRPEfI,3087lxlj7ptluqx9bvztb5iuvan0fr,3n8oevh1fv32q40f3lpwdkjiprhooz,oXsRPEfI,2020-0188,2021-10-31,13:47:14,15:04:19,NA,incomplete,false,true,NA,NA,1,33,NA,purple,n_l_098.jpg,NA,NA,NA,NA,NA,pleasant,unpleasant,NA,NA,NA,NA,NA,left,933.5,true,NA,NA,NA,NA,NA,NA,NA,NA
oXsRPEfI,3087lxlj7ptluqx9bvztb5iuvan0fr,3n8oevh1fv32q40f3lpwdkjiprhooz,oXsRPEfI,2020-0188,2021-10-31,13:47:14,15:04:19,NA,incomplete,false,true,NA,NA,1,34,NA,purple,n_s_106.jpg,NA,NA,NA,NA,NA,unpleasant,pleasant,NA,NA,NA,NA,NA,right,1676.69999998808,true,NA,NA,NA,NA,NA,NA,NA,NA
oXsRPEfI,3087lxlj7ptluqx9bvztb5iuvan0fr,3n8oevh1fv32q40f3lpwdkjiprhooz,oXsRPEfI,2020-0188,2021-10-31,13:47:14,15:04:19,NA,incomplete,false,true,NA,NA,1,35,NA,purple,m_s_061.jpg,NA,NA,NA,NA,NA,pleasant,unpleasant,NA,NA,NA,NA,NA,right,862.399999976158,true,NA,NA,NA,NA,NA,NA,NA,NA
oXsRPEfI,3087lxlj7ptluqx9bvztb5iuvan0fr,3n8oevh1fv32q40f3lpwdkjiprhooz,oXsRPEfI,2020-0188,2021-10-31,13:47:14,15:04:19,NA,incomplete,false,NA,NA,true,1,0,NA,NA,NA,left,m_l_084.jpg,purple,red,NA,NA,NA,NA,NA,NA,NA,NA,NA,NaN,NA,4003.0999999940395,left,1,NA,NA,NA,NA,NA
oXsRPEfI,3087lxlj7ptluqx9bvztb5iuvan0fr,3n8oevh1fv32q40f3lpwdkjiprhooz,oXsRPEfI,2020-0188,2021-10-31,13:47:14,15:04:19,NA,incomplete,false,NA,NA,true,1,1,NA,NA,NA,left,m_s_061.jpg,purple,red,NA,NA,NA,NA,NA,NA,NA,NA,NA,NaN,NA,2081.2999999821186,left,1,NA,NA,NA,NA,NA
oXsRPEfI,3087lxlj7ptluqx9bvztb5iuvan0fr,3n8oevh1fv32q40f3lpwdkjiprhooz,oXsRPEfI,2020-0188,2021-10-31,13:47:14,15:04:19,NA,incomplete,false,NA,NA,true,1,2,NA,NA,NA,left,m_s_098.jpg,purple,red,NA,NA,NA,NA,NA,NA,NA,NA,NA,NaN,NA,1237.5999999940395,left,1,NA,NA,NA,NA,NA
oXsRPEfI,3087lxlj7ptluqx9bvztb5iuvan0fr,3n8oevh1fv32q40f3lpwdkjiprhooz,oXsRPEfI,2020-0188,2021-10-31,13:47:14,15:04:19,NA,incomplete,false,NA,NA,true,1,3,NA,NA,NA,right,m_l_019.jpg,red,gray,NA,NA,NA,NA,NA,NA,NA,NA,NA,NaN,NA,1600.5999999940395,right,1,NA,NA,NA,NA,NA
oXsRPEfI,3087lxlj7ptluqx9bvztb5iuvan0fr,3n8oevh1fv32q40f3lpwdkjiprhooz,oXsRPEfI,2020-0188,2021-10-31,13:47:14,15:04:19,NA,incomplete,false,NA,NA,true,1,4,NA,NA,NA,left,n_s_015.jpg,gray,red,NA,NA,NA,NA,NA,NA,NA,NA,NA,NaN,NA,1648.9000000059605,left,1,NA,NA,NA,NA,NA
oXsRPEfI,3087lxlj7ptluqx9bvztb5iuvan0fr,3n8oevh1fv32q40f3lpwdkjiprhooz,oXsRPEfI,2020-0188,2021-10-31,13:47:14,15:04:19,NA,incomplete,false,NA,NA,true,1,5,NA,NA,NA,left,n_s_054.jpg,orange,yellow,NA,NA,NA,NA,NA,NA,NA,NA,NA,NaN,NA,2874.199999988079,left,1,NA,NA,NA,NA,NA
oXsRPEfI,3087lxlj7ptluqx9bvztb5iuvan0fr,3n8oevh1fv32q40f3lpwdkjiprhooz,oXsRPEfI,2020-0188,2021-10-31,13:47:14,15:04:19,NA,incomplete,false,NA,NA,true,1,6,NA,NA,NA,right,m_l_002.jpg,yellow,orange,NA,NA,NA,NA,NA,NA,NA,NA,NA,NaN,NA,1718.4000000059605,right,1,NA,NA,NA,NA,NA
oXsRPEfI,3087lxlj7ptluqx9bvztb5iuvan0fr,3n8oevh1fv32q40f3lpwdkjiprhooz,oXsRPEfI,2020-0188,2021-10-31,13:47:14,15:04:19,NA,incomplete,false,NA,NA,true,1,7,NA,NA,NA,right,m_l_055.jpg,purple,red,NA,NA,NA,NA,NA,NA,NA,NA,NA,NaN,NA,1315.4000000059605,right,1,NA,NA,NA,NA,NA
oXsRPEfI,3087lxlj7ptluqx9bvztb5iuvan0fr,3n8oevh1fv32q40f3lpwdkjiprhooz,oXsRPEfI,2020-0188,2021-10-31,13:47:14,15:04:19,NA,incomplete,false,NA,NA,true,1,8,NA,NA,NA,left,n_l_080.jpg,white,yellow,NA,NA,NA,NA,NA,NA,NA,NA,NA,NaN,NA,1461.4000000059605,left,1,NA,NA,NA,NA,NA
oXsRPEfI,3087lxlj7ptluqx9bvztb5iuvan0fr,3n8oevh1fv32q40f3lpwdkjiprhooz,oXsRPEfI,2020-0188,2021-10-31,13:47:14,15:04:19,NA,incomplete,false,NA,NA,true,1,9,NA,NA,NA,left,n_l_019.jpg,yellow,white,NA,NA,NA,NA,NA,NA,NA,NA,NA,NaN,NA,1098.0999999940395,left,1,NA,NA,NA,NA,NA
oXsRPEfI,3087lxlj7ptluqx9bvztb5iuvan0fr,3n8oevh1fv32q40f3lpwdkjiprhooz,oXsRPEfI,2020-0188,2021-10-31,13:47:14,15:04:19,NA,incomplete,false,NA,NA,true,1,10,NA,NA,NA,left,n_l_041.jpg,red,gray,NA,NA,NA,NA,NA,NA,NA,NA,NA,NaN,NA,1068.2999999821186,left,1,NA,NA,NA,NA,NA
oXsRPEfI,3087lxlj7ptluqx9bvztb5iuvan0fr,3n8oevh1fv32q40f3lpwdkjiprhooz,oXsRPEfI,2020-0188,2021-10-31,13:47:14,15:04:19,NA,incomplete,false,NA,NA,true,1,11,NA,NA,NA,left,n_s_073.jpg,red,gray,NA,NA,NA,NA,NA,NA,NA,NA,NA,NaN,NA,1609.300000011921,left,1,NA,NA,NA,NA,NA
oXsRPEfI,3087lxlj7ptluqx9bvztb5iuvan0fr,3n8oevh1fv32q40f3lpwdkjiprhooz,oXsRPEfI,2020-0188,2021-10-31,13:47:14,15:04:19,NA,incomplete,false,NA,NA,true,1,12,NA,NA,NA,left,m_s_062.jpg,yellow,orange,NA,NA,NA,NA,NA,NA,NA,NA,NA,NaN,NA,1227.4000000059605,left,1,NA,NA,NA,NA,NA
oXsRPEfI,3087lxlj7ptluqx9bvztb5iuvan0fr,3n8oevh1fv32q40f3lpwdkjiprhooz,oXsRPEfI,2020-0188,2021-10-31,13:47:14,15:04:19,NA,incomplete,false,NA,NA,true,1,13,NA,NA,NA,right,n_l_033.jpg,gray,white,NA,NA,NA,NA,NA,NA,NA,NA,NA,NaN,NA,2286.800000011921,right,1,NA,NA,NA,NA,NA
oXsRPEfI,3087lxlj7ptluqx9bvztb5iuvan0fr,3n8oevh1fv32q40f3lpwdkjiprhooz,oXsRPEfI,2020-0188,2021-10-31,13:47:14,15:04:19,NA,incomplete,false,NA,NA,true,1,14,NA,NA,NA,right,m_l_102.jpg,yellow,white,NA,NA,NA,NA,NA,NA,NA,NA,NA,NaN,NA,1352.800000011921,right,1,NA,NA,NA,NA,NA
oXsRPEfI,3087lxlj7ptluqx9bvztb5iuvan0fr,3n8oevh1fv32q40f3lpwdkjiprhooz,oXsRPEfI,2020-0188,2021-10-31,13:47:14,15:04:19,NA,incomplete,false,NA,NA,true,1,15,NA,NA,NA,right,m_l_053.jpg,orange,yellow,NA,NA,NA,NA,NA,NA,NA,NA,NA,NaN,NA,2032,left,0,NA,NA,NA,NA,NA
oXsRPEfI,3087lxlj7ptluqx9bvztb5iuvan0fr,3n8oevh1fv32q40f3lpwdkjiprhooz,oXsRPEfI,2020-0188,2021-10-31,13:47:14,15:04:19,NA,incomplete,false,NA,NA,true,1,16,NA,NA,NA,right,n_l_060.jpg,gray,white,NA,NA,NA,NA,NA,NA,NA,NA,NA,NaN,NA,2413.9000000059605,left,0,NA,NA,NA,NA,NA
oXsRPEfI,3087lxlj7ptluqx9bvztb5iuvan0fr,3n8oevh1fv32q40f3lpwdkjiprhooz,oXsRPEfI,2020-0188,2021-10-31,13:47:14,15:04:19,NA,incomplete,false,NA,NA,true,1,17,NA,NA,NA,left,m_s_070.jpg,yellow,orange,NA,NA,NA,NA,NA,NA,NA,NA,NA,NaN,NA,2315.699999988079,right,0,NA,NA,NA,NA,NA
oXsRPEfI,3087lxlj7ptluqx9bvztb5iuvan0fr,3n8oevh1fv32q40f3lpwdkjiprhooz,oXsRPEfI,2020-0188,2021-10-31,13:47:14,15:04:19,NA,incomplete,false,NA,NA,true,1,18,NA,NA,NA,left,n_l_083.jpg,orange,yellow,NA,NA,NA,NA,NA,NA,NA,NA,NA,NaN,NA,1167.9000000059605,left,1,NA,NA,NA,NA,NA
oXsRPEfI,3087lxlj7ptluqx9bvztb5iuvan0fr,3n8oevh1fv32q40f3lpwdkjiprhooz,oXsRPEfI,2020-0188,2021-10-31,13:47:14,15:04:19,NA,incomplete,false,NA,NA,true,1,19,NA,NA,NA,left,n_s_022.jpg,gray,white,NA,NA,NA,NA,NA,NA,NA,NA,NA,NaN,NA,1305.2999999821186,left,1,NA,NA,NA,NA,NA
oXsRPEfI,3087lxlj7ptluqx9bvztb5iuvan0fr,3n8oevh1fv32q40f3lpwdkjiprhooz,oXsRPEfI,2020-0188,2021-10-31,13:47:14,15:04:19,NA,incomplete,false,NA,NA,true,1,20,NA,NA,NA,right,m_l_023.jpg,white,gray,NA,NA,NA,NA,NA,NA,NA,NA,NA,NaN,NA,1649.4000000059605,right,1,NA,NA,NA,NA,NA
oXsRPEfI,3087lxlj7ptluqx9bvztb5iuvan0fr,3n8oevh1fv32q40f3lpwdkjiprhooz,oXsRPEfI,2020-0188,2021-10-31,13:47:14,15:04:19,NA,incomplete,false,NA,NA,true,1,21,NA,NA,NA,right,n_s_107.jpg,purple,red,NA,NA,NA,NA,NA,NA,NA,NA,NA,NaN,NA,2521.800000011921,left,0,NA,NA,NA,NA,NA
oXsRPEfI,3087lxlj7ptluqx9bvztb5iuvan0fr,3n8oevh1fv32q40f3lpwdkjiprhooz,oXsRPEfI,2020-0188,2021-10-31,13:47:14,15:04:19,NA,incomplete,false,NA,true,NA,1,0,NA,NA,NA,right,NA,NA,NA,present,NA,NA,n_l_041.jpg,red,n_s_107.jpg,red,within,NA,NaN,NA,NA,NA,NA,right,5895.799999982119,1,1,1794.300000011921
oXsRPEfI,3087lxlj7ptluqx9bvztb5iuvan0fr,3n8oevh1fv32q40f3lpwdkjiprhooz,oXsRPEfI,2020-0188,2021-10-31,13:47:14,15:04:19,NA,incomplete,false,NA,true,NA,1,1,NA,NA,NA,left,NA,NA,NA,present,NA,NA,n_l_033.jpg,white,m_l_102.jpg,white,within,NA,NaN,NA,NA,NA,NA,left,3236.4000000059605,1,1,3187.600000023842
oXsRPEfI,3087lxlj7ptluqx9bvztb5iuvan0fr,3n8oevh1fv32q40f3lpwdkjiprhooz,oXsRPEfI,2020-0188,2021-10-31,13:47:14,15:04:19,NA,incomplete,false,NA,true,NA,1,2,NA,NA,NA,right,NA,NA,NA,present,NA,NA,m_s_061.jpg,purple,m_s_098.jpg,purple,within,NA,NaN,NA,NA,NA,NA,right,2756.4000000059605,1,2,3915.5999999940395
oXsRPEfI,3087lxlj7ptluqx9bvztb5iuvan0fr,3n8oevh1fv32q40f3lpwdkjiprhooz,oXsRPEfI,2020-0188,2021-10-31,13:47:14,15:04:19,NA,incomplete,false,NA,true,NA,1,3,NA,NA,NA,left,NA,NA,NA,present,NA,NA,m_l_019.jpg,gray,m_l_023.jpg,gray,within,NA,NaN,NA,NA,NA,NA,right,2000.5999999940395,0,1,1206.0999999940395
oXsRPEfI,3087lxlj7ptluqx9bvztb5iuvan0fr,3n8oevh1fv32q40f3lpwdkjiprhooz,oXsRPEfI,2020-0188,2021-10-31,13:47:14,15:04:19,NA,incomplete,false,NA,true,NA,1,4,NA,NA,NA,left,NA,NA,NA,present,NA,NA,m_l_002.jpg,orange,n_l_083.jpg,orange,within,NA,NaN,NA,NA,NA,NA,right,2422,0,2,2217.5
oXsRPEfI,3087lxlj7ptluqx9bvztb5iuvan0fr,3n8oevh1fv32q40f3lpwdkjiprhooz,oXsRPEfI,2020-0188,2021-10-31,13:47:14,15:04:19,NA,incomplete,false,NA,true,NA,1,5,NA,NA,NA,right,NA,NA,NA,present,NA,NA,n_l_019.jpg,yellow,n_s_054.jpg,orange,between,NA,NaN,NA,NA,NA,NA,left,3678.9000000059605,0,3,1609.0999999940395
oXsRPEfI,3087lxlj7ptluqx9bvztb5iuvan0fr,3n8oevh1fv32q40f3lpwdkjiprhooz,oXsRPEfI,2020-0188,2021-10-31,13:47:14,15:04:19,NA,incomplete,false,NA,true,NA,1,6,NA,NA,NA,left,NA,NA,NA,present,NA,NA,m_l_055.jpg,red,m_l_084.jpg,purple,between,NA,NaN,NA,NA,NA,NA,left,2579.5,1,1,1118.5999999940395
oXsRPEfI,3087lxlj7ptluqx9bvztb5iuvan0fr,3n8oevh1fv32q40f3lpwdkjiprhooz,oXsRPEfI,2020-0188,2021-10-31,13:47:14,15:04:19,NA,incomplete,false,NA,true,NA,1,7,NA,NA,NA,right,NA,NA,NA,present,NA,NA,n_s_073.jpg,red,n_s_015.jpg,gray,between,NA,NaN,NA,NA,NA,NA,left,2757,0,0,803.0999999940395
oXsRPEfI,3087lxlj7ptluqx9bvztb5iuvan0fr,3n8oevh1fv32q40f3lpwdkjiprhooz,oXsRPEfI,2020-0188,2021-10-31,13:47:14,15:04:19,NA,incomplete,false,NA,true,NA,1,8,NA,NA,NA,left,NA,NA,NA,present,NA,NA,m_s_070.jpg,yellow,m_l_053.jpg,yellow,within,NA,NaN,NA,NA,NA,NA,left,1687.2000000178814,1,2,3337.0999999940395
oXsRPEfI,3087lxlj7ptluqx9bvztb5iuvan0fr,3n8oevh1fv32q40f3lpwdkjiprhooz,oXsRPEfI,2020-0188,2021-10-31,13:47:14,15:04:19,NA,incomplete,false,NA,true,NA,1,9,NA,NA,NA,left,NA,NA,NA,present,NA,NA,m_s_062.jpg,yellow,n_l_060.jpg,white,between,NA,NaN,NA,NA,NA,NA,left,3669.2000000178814,1,1,764.3000000119209
oXsRPEfI,3087lxlj7ptluqx9bvztb5iuvan0fr,3n8oevh1fv32q40f3lpwdkjiprhooz,oXsRPEfI,2020-0188,2021-10-31,13:47:14,15:04:19,NA,incomplete,false,NA,true,NA,1,10,NA,NA,NA,left,NA,NA,NA,present,NA,NA,n_l_080.jpg,white,n_s_022.jpg,gray,between,NA,NaN,NA,NA,NA,NA,left,2482.2000000178814,1,1,853.0999999940395
oXsRPEfI,3087lxlj7ptluqx9bvztb5iuvan0fr,3n8oevh1fv32q40f3lpwdkjiprhooz,oXsRPEfI,2020-0188,2021-10-31,13:47:14,15:04:19,NA,incomplete,false,true,NA,NA,2,0,NA,orange,n_l_095.jpg,NA,NA,NA,NA,NA,unpleasant,pleasant,NA,NA,NA,NA,NA,right,2024.90000000596,true,NA,NA,NA,NA,NA,NA,NA,NA
oXsRPEfI,3087lxlj7ptluqx9bvztb5iuvan0fr,3n8oevh1fv32q40f3lpwdkjiprhooz,oXsRPEfI,2020-0188,2021-10-31,13:47:14,15:04:19,NA,incomplete,false,true,NA,NA,2,1,NA,orange,m_l_027.jpg,NA,NA,NA,NA,NA,unpleasant,pleasant,NA,NA,NA,NA,NA,right,1423.09999999404,true,NA,NA,NA,NA,NA,NA,NA,NA
oXsRPEfI,3087lxlj7ptluqx9bvztb5iuvan0fr,3n8oevh1fv32q40f3lpwdkjiprhooz,oXsRPEfI,2020-0188,2021-10-31,13:47:14,15:04:19,NA,incomplete,false,true,NA,NA,2,2,NA,orange,n_s_037.jpg,NA,NA,NA,NA,NA,unpleasant,pleasant,NA,NA,NA,NA,NA,right,1025.5,true,NA,NA,NA,NA,NA,NA,NA,NA
oXsRPEfI,3087lxlj7ptluqx9bvztb5iuvan0fr,3n8oevh1fv32q40f3lpwdkjiprhooz,oXsRPEfI,2020-0188,2021-10-31,13:47:14,15:04:19,NA,incomplete,false,true,NA,NA,2,3,NA,orange,n_s_036.jpg,NA,NA,NA,NA,NA,pleasant,unpleasant,NA,NA,NA,NA,NA,left,982.300000011921,true,NA,NA,NA,NA,NA,NA,NA,NA
oXsRPEfI,3087lxlj7ptluqx9bvztb5iuvan0fr,3n8oevh1fv32q40f3lpwdkjiprhooz,oXsRPEfI,2020-0188,2021-10-31,13:47:14,15:04:19,NA,incomplete,false,true,NA,NA,2,4,NA,orange,m_s_104.jpg,NA,NA,NA,NA,NA,unpleasant,pleasant,NA,NA,NA,NA,NA,right,856.199999988079,true,NA,NA,NA,NA,NA,NA,NA,NA
oXsRPEfI,3087lxlj7ptluqx9bvztb5iuvan0fr,3n8oevh1fv32q40f3lpwdkjiprhooz,oXsRPEfI,2020-0188,2021-10-31,13:47:14,15:04:19,NA,incomplete,false,true,NA,NA,2,5,NA,orange,n_l_021.jpg,NA,NA,NA,NA,NA,unpleasant,pleasant,NA,NA,NA,NA,NA,right,826.899999976158,true,NA,NA,NA,NA,NA,NA,NA,NA
oXsRPEfI,3087lxlj7ptluqx9bvztb5iuvan0fr,3n8oevh1fv32q40f3lpwdkjiprhooz,oXsRPEfI,2020-0188,2021-10-31,13:47:14,15:04:19,NA,incomplete,false,true,NA,NA,2,6,NA,brown,n_s_069.jpg,NA,NA,NA,NA,NA,unpleasant,pleasant,NA,NA,NA,NA,NA,right,880,true,NA,NA,NA,NA,NA,NA,NA,NA
oXsRPEfI,3087lxlj7ptluqx9bvztb5iuvan0fr,3n8oevh1fv32q40f3lpwdkjiprhooz,oXsRPEfI,2020-0188,2021-10-31,13:47:14,15:04:19,NA,incomplete,false,true,NA,NA,2,7,NA,brown,n_s_051.jpg,NA,NA,NA,NA,NA,unpleasant,pleasant,NA,NA,NA,NA,NA,right,814.300000011921,true,NA,NA,NA,NA,NA,NA,NA,NA
oXsRPEfI,3087lxlj7ptluqx9bvztb5iuvan0fr,3n8oevh1fv32q40f3lpwdkjiprhooz,oXsRPEfI,2020-0188,2021-10-31,13:47:14,15:04:19,NA,incomplete,false,true,NA,NA,2,8,NA,brown,n_l_075.jpg,NA,NA,NA,NA,NA,pleasant,unpleasant,NA,NA,NA,NA,NA,right,1347.5,true,NA,NA,NA,NA,NA,NA,NA,NA
oXsRPEfI,3087lxlj7ptluqx9bvztb5iuvan0fr,3n8oevh1fv32q40f3lpwdkjiprhooz,oXsRPEfI,2020-0188,2021-10-31,13:47:14,15:04:19,NA,incomplete,false,true,NA,NA,2,9,NA,brown,n_l_094.jpg,NA,NA,NA,NA,NA,pleasant,unpleasant,NA,NA,NA,NA,NA,left,887.90000000596,true,NA,NA,NA,NA,NA,NA,NA,NA
oXsRPEfI,3087lxlj7ptluqx9bvztb5iuvan0fr,3n8oevh1fv32q40f3lpwdkjiprhooz,oXsRPEfI,2020-0188,2021-10-31,13:47:14,15:04:19,NA,incomplete,false,true,NA,NA,2,10,NA,brown,n_s_032.jpg,NA,NA,NA,NA,NA,pleasant,unpleasant,NA,NA,NA,NA,NA,left,882.200000017881,true,NA,NA,NA,NA,NA,NA,NA,NA
oXsRPEfI,3087lxlj7ptluqx9bvztb5iuvan0fr,3n8oevh1fv32q40f3lpwdkjiprhooz,oXsRPEfI,2020-0188,2021-10-31,13:47:14,15:04:19,NA,incomplete,false,true,NA,NA,2,11,NA,brown,n_s_019.jpg,NA,NA,NA,NA,NA,unpleasant,pleasant,NA,NA,NA,NA,NA,left,1339.29999998212,true,NA,NA,NA,NA,NA,NA,NA,NA
oXsRPEfI,3087lxlj7ptluqx9bvztb5iuvan0fr,3n8oevh1fv32q40f3lpwdkjiprhooz,oXsRPEfI,2020-0188,2021-10-31,13:47:14,15:04:19,NA,incomplete,false,true,NA,NA,2,12,NA,green,n_s_089.jpg,NA,NA,NA,NA,NA,pleasant,unpleasant,NA,NA,NA,NA,NA,left,1147,true,NA,NA,NA,NA,NA,NA,NA,NA
oXsRPEfI,3087lxlj7ptluqx9bvztb5iuvan0fr,3n8oevh1fv32q40f3lpwdkjiprhooz,oXsRPEfI,2020-0188,2021-10-31,13:47:14,15:04:19,NA,incomplete,false,true,NA,NA,2,13,NA,green,m_l_067.jpg,NA,NA,NA,NA,NA,unpleasant,pleasant,NA,NA,NA,NA,NA,right,910.09999999404,true,NA,NA,NA,NA,NA,NA,NA,NA
oXsRPEfI,3087lxlj7ptluqx9bvztb5iuvan0fr,3n8oevh1fv32q40f3lpwdkjiprhooz,oXsRPEfI,2020-0188,2021-10-31,13:47:14,15:04:19,NA,incomplete,false,true,NA,NA,2,14,NA,green,m_s_109.jpg,NA,NA,NA,NA,NA,unpleasant,pleasant,NA,NA,NA,NA,NA,right,885.799999982119,true,NA,NA,NA,NA,NA,NA,NA,NA
oXsRPEfI,3087lxlj7ptluqx9bvztb5iuvan0fr,3n8oevh1fv32q40f3lpwdkjiprhooz,oXsRPEfI,2020-0188,2021-10-31,13:47:14,15:04:19,NA,incomplete,false,true,NA,NA,2,15,NA,green,n_l_093.jpg,NA,NA,NA,NA,NA,unpleasant,pleasant,NA,NA,NA,NA,NA,left,1425.09999999404,true,NA,NA,NA,NA,NA,NA,NA,NA
oXsRPEfI,3087lxlj7ptluqx9bvztb5iuvan0fr,3n8oevh1fv32q40f3lpwdkjiprhooz,oXsRPEfI,2020-0188,2021-10-31,13:47:14,15:04:19,NA,incomplete,false,true,NA,NA,2,16,NA,green,n_s_031.jpg,NA,NA,NA,NA,NA,unpleasant,pleasant,NA,NA,NA,NA,NA,right,908.09999999404,true,NA,NA,NA,NA,NA,NA,NA,NA
oXsRPEfI,3087lxlj7ptluqx9bvztb5iuvan0fr,3n8oevh1fv32q40f3lpwdkjiprhooz,oXsRPEfI,2020-0188,2021-10-31,13:47:14,15:04:19,NA,incomplete,false,true,NA,NA,2,17,NA,green,n_s_018.jpg,NA,NA,NA,NA,NA,pleasant,unpleasant,NA,NA,NA,NA,NA,left,3273.40000000596,true,NA,NA,NA,NA,NA,NA,NA,NA
oXsRPEfI,3087lxlj7ptluqx9bvztb5iuvan0fr,3n8oevh1fv32q40f3lpwdkjiprhooz,oXsRPEfI,2020-0188,2021-10-31,13:47:14,15:04:19,NA,incomplete,false,true,NA,NA,2,18,NA,gray,m_l_112.jpg,NA,NA,NA,NA,NA,unpleasant,pleasant,NA,NA,NA,NA,NA,right,1352.59999999404,true,NA,NA,NA,NA,NA,NA,NA,NA
oXsRPEfI,3087lxlj7ptluqx9bvztb5iuvan0fr,3n8oevh1fv32q40f3lpwdkjiprhooz,oXsRPEfI,2020-0188,2021-10-31,13:47:14,15:04:19,NA,incomplete,false,true,NA,NA,2,19,NA,gray,m_l_113.jpg,NA,NA,NA,NA,NA,unpleasant,pleasant,NA,NA,NA,NA,NA,right,909.5,true,NA,NA,NA,NA,NA,NA,NA,NA
oXsRPEfI,3087lxlj7ptluqx9bvztb5iuvan0fr,3n8oevh1fv32q40f3lpwdkjiprhooz,oXsRPEfI,2020-0188,2021-10-31,13:47:14,15:04:19,NA,incomplete,false,true,NA,NA,2,20,NA,gray,m_s_060.jpg,NA,NA,NA,NA,NA,pleasant,unpleasant,NA,NA,NA,NA,NA,left,861.300000011921,true,NA,NA,NA,NA,NA,NA,NA,NA
oXsRPEfI,3087lxlj7ptluqx9bvztb5iuvan0fr,3n8oevh1fv32q40f3lpwdkjiprhooz,oXsRPEfI,2020-0188,2021-10-31,13:47:14,15:04:19,NA,incomplete,false,true,NA,NA,2,21,NA,gray,n_l_114.jpg,NA,NA,NA,NA,NA,pleasant,unpleasant,NA,NA,NA,NA,NA,left,1183.60000002384,true,NA,NA,NA,NA,NA,NA,NA,NA
oXsRPEfI,3087lxlj7ptluqx9bvztb5iuvan0fr,3n8oevh1fv32q40f3lpwdkjiprhooz,oXsRPEfI,2020-0188,2021-10-31,13:47:14,15:04:19,NA,incomplete,false,true,NA,NA,2,22,NA,gray,n_s_011.jpg,NA,NA,NA,NA,NA,pleasant,unpleasant,NA,NA,NA,NA,NA,left,973.299999982119,true,NA,NA,NA,NA,NA,NA,NA,NA
oXsRPEfI,3087lxlj7ptluqx9bvztb5iuvan0fr,3n8oevh1fv32q40f3lpwdkjiprhooz,oXsRPEfI,2020-0188,2021-10-31,13:47:14,15:04:19,NA,incomplete,false,true,NA,NA,2,23,NA,gray,n_l_103.jpg,NA,NA,NA,NA,NA,pleasant,unpleasant,NA,NA,NA,NA,NA,left,732,true,NA,NA,NA,NA,NA,NA,NA,NA
oXsRPEfI,3087lxlj7ptluqx9bvztb5iuvan0fr,3n8oevh1fv32q40f3lpwdkjiprhooz,oXsRPEfI,2020-0188,2021-10-31,13:47:14,15:04:19,NA,incomplete,false,true,NA,NA,2,24,NA,black,m_s_047.jpg,NA,NA,NA,NA,NA,unpleasant,pleasant,NA,NA,NA,NA,NA,right,1120.30000001192,true,NA,NA,NA,NA,NA,NA,NA,NA
oXsRPEfI,3087lxlj7ptluqx9bvztb5iuvan0fr,3n8oevh1fv32q40f3lpwdkjiprhooz,oXsRPEfI,2020-0188,2021-10-31,13:47:14,15:04:19,NA,incomplete,false,true,NA,NA,2,25,NA,black,m_l_043.jpg,NA,NA,NA,NA,NA,pleasant,unpleasant,NA,NA,NA,NA,NA,left,805.40000000596,true,NA,NA,NA,NA,NA,NA,NA,NA
oXsRPEfI,3087lxlj7ptluqx9bvztb5iuvan0fr,3n8oevh1fv32q40f3lpwdkjiprhooz,oXsRPEfI,2020-0188,2021-10-31,13:47:14,15:04:19,NA,incomplete,false,true,NA,NA,2,26,NA,black,n_s_108.jpg,NA,NA,NA,NA,NA,pleasant,unpleasant,NA,NA,NA,NA,NA,right,1008,true,NA,NA,NA,NA,NA,NA,NA,NA
oXsRPEfI,3087lxlj7ptluqx9bvztb5iuvan0fr,3n8oevh1fv32q40f3lpwdkjiprhooz,oXsRPEfI,2020-0188,2021-10-31,13:47:14,15:04:19,NA,incomplete,false,true,NA,NA,2,27,NA,black,m_s_106.jpg,NA,NA,NA,NA,NA,pleasant,unpleasant,NA,NA,NA,NA,NA,left,844.90000000596,true,NA,NA,NA,NA,NA,NA,NA,NA
oXsRPEfI,3087lxlj7ptluqx9bvztb5iuvan0fr,3n8oevh1fv32q40f3lpwdkjiprhooz,oXsRPEfI,2020-0188,2021-10-31,13:47:14,15:04:19,NA,incomplete,false,true,NA,NA,2,28,NA,black,m_s_071.jpg,NA,NA,NA,NA,NA,unpleasant,pleasant,NA,NA,NA,NA,NA,right,1303.39999997616,true,NA,NA,NA,NA,NA,NA,NA,NA
oXsRPEfI,3087lxlj7ptluqx9bvztb5iuvan0fr,3n8oevh1fv32q40f3lpwdkjiprhooz,oXsRPEfI,2020-0188,2021-10-31,13:47:14,15:04:19,NA,incomplete,false,true,NA,NA,2,29,NA,black,n_s_055.jpg,NA,NA,NA,NA,NA,unpleasant,pleasant,NA,NA,NA,NA,NA,left,1092,true,NA,NA,NA,NA,NA,NA,NA,NA
oXsRPEfI,3087lxlj7ptluqx9bvztb5iuvan0fr,3n8oevh1fv32q40f3lpwdkjiprhooz,oXsRPEfI,2020-0188,2021-10-31,13:47:14,15:04:19,NA,incomplete,false,true,NA,NA,2,30,NA,white,m_l_024.jpg,NA,NA,NA,NA,NA,unpleasant,pleasant,NA,NA,NA,NA,NA,right,999.699999988079,true,NA,NA,NA,NA,NA,NA,NA,NA
oXsRPEfI,3087lxlj7ptluqx9bvztb5iuvan0fr,3n8oevh1fv32q40f3lpwdkjiprhooz,oXsRPEfI,2020-0188,2021-10-31,13:47:14,15:04:19,NA,incomplete,false,true,NA,NA,2,31,NA,white,m_s_097.jpg,NA,NA,NA,NA,NA,pleasant,unpleasant,NA,NA,NA,NA,NA,right,1217.40000000596,true,NA,NA,NA,NA,NA,NA,NA,NA
oXsRPEfI,3087lxlj7ptluqx9bvztb5iuvan0fr,3n8oevh1fv32q40f3lpwdkjiprhooz,oXsRPEfI,2020-0188,2021-10-31,13:47:14,15:04:19,NA,incomplete,false,true,NA,NA,2,32,NA,white,m_s_021.jpg,NA,NA,NA,NA,NA,pleasant,unpleasant,NA,NA,NA,NA,NA,left,821.90000000596,true,NA,NA,NA,NA,NA,NA,NA,NA
oXsRPEfI,3087lxlj7ptluqx9bvztb5iuvan0fr,3n8oevh1fv32q40f3lpwdkjiprhooz,oXsRPEfI,2020-0188,2021-10-31,13:47:14,15:04:19,NA,incomplete,false,true,NA,NA,2,33,NA,white,n_l_049.jpg,NA,NA,NA,NA,NA,pleasant,unpleasant,NA,NA,NA,NA,NA,left,732.800000011921,true,NA,NA,NA,NA,NA,NA,NA,NA
oXsRPEfI,3087lxlj7ptluqx9bvztb5iuvan0fr,3n8oevh1fv32q40f3lpwdkjiprhooz,oXsRPEfI,2020-0188,2021-10-31,13:47:14,15:04:19,NA,incomplete,false,true,NA,NA,2,34,NA,white,m_s_040.jpg,NA,NA,NA,NA,NA,pleasant,unpleasant,NA,NA,NA,NA,NA,left,855.40000000596,true,NA,NA,NA,NA,NA,NA,NA,NA
oXsRPEfI,3087lxlj7ptluqx9bvztb5iuvan0fr,3n8oevh1fv32q40f3lpwdkjiprhooz,oXsRPEfI,2020-0188,2021-10-31,13:47:14,15:04:19,NA,incomplete,false,true,NA,NA,2,35,NA,white,n_l_063.jpg,NA,NA,NA,NA,NA,pleasant,unpleasant,NA,NA,NA,NA,NA,left,778.5,true,NA,NA,NA,NA,NA,NA,NA,NA
oXsRPEfI,3087lxlj7ptluqx9bvztb5iuvan0fr,3n8oevh1fv32q40f3lpwdkjiprhooz,oXsRPEfI,2020-0188,2021-10-31,13:47:14,15:04:19,NA,incomplete,false,NA,NA,true,2,0,NA,NA,NA,right,n_s_055.jpg,white,black,NA,NA,NA,NA,NA,NA,NA,NA,NA,NaN,NA,6249.600000023842,right,1,NA,NA,NA,NA,NA
oXsRPEfI,3087lxlj7ptluqx9bvztb5iuvan0fr,3n8oevh1fv32q40f3lpwdkjiprhooz,oXsRPEfI,2020-0188,2021-10-31,13:47:14,15:04:19,NA,incomplete,false,NA,NA,true,2,1,NA,NA,NA,right,m_l_067.jpg,gray,green,NA,NA,NA,NA,NA,NA,NA,NA,NA,NaN,NA,1080.2999999821186,right,1,NA,NA,NA,NA,NA
oXsRPEfI,3087lxlj7ptluqx9bvztb5iuvan0fr,3n8oevh1fv32q40f3lpwdkjiprhooz,oXsRPEfI,2020-0188,2021-10-31,13:47:14,15:04:19,NA,incomplete,false,NA,NA,true,2,2,NA,NA,NA,right,n_l_103.jpg,black,gray,NA,NA,NA,NA,NA,NA,NA,NA,NA,NaN,NA,2502.9000000059605,right,1,NA,NA,NA,NA,NA
oXsRPEfI,3087lxlj7ptluqx9bvztb5iuvan0fr,3n8oevh1fv32q40f3lpwdkjiprhooz,oXsRPEfI,2020-0188,2021-10-31,13:47:14,15:04:19,NA,incomplete,false,NA,NA,true,2,3,NA,NA,NA,right,n_s_031.jpg,brown,green,NA,NA,NA,NA,NA,NA,NA,NA,NA,NaN,NA,1461.699999988079,right,1,NA,NA,NA,NA,NA
oXsRPEfI,3087lxlj7ptluqx9bvztb5iuvan0fr,3n8oevh1fv32q40f3lpwdkjiprhooz,oXsRPEfI,2020-0188,2021-10-31,13:47:14,15:04:19,NA,incomplete,false,NA,NA,true,2,4,NA,NA,NA,right,m_s_060.jpg,black,gray,NA,NA,NA,NA,NA,NA,NA,NA,NA,NaN,NA,2040.5999999940395,left,0,NA,NA,NA,NA,NA
oXsRPEfI,3087lxlj7ptluqx9bvztb5iuvan0fr,3n8oevh1fv32q40f3lpwdkjiprhooz,oXsRPEfI,2020-0188,2021-10-31,13:47:14,15:04:19,NA,incomplete,false,NA,NA,true,2,5,NA,NA,NA,left,n_s_018.jpg,green,brown,NA,NA,NA,NA,NA,NA,NA,NA,NA,NaN,NA,1060,left,1,NA,NA,NA,NA,NA
oXsRPEfI,3087lxlj7ptluqx9bvztb5iuvan0fr,3n8oevh1fv32q40f3lpwdkjiprhooz,oXsRPEfI,2020-0188,2021-10-31,13:47:14,15:04:19,NA,incomplete,false,NA,NA,true,2,6,NA,NA,NA,right,n_l_075.jpg,green,brown,NA,NA,NA,NA,NA,NA,NA,NA,NA,NaN,NA,2039.3999999761581,right,1,NA,NA,NA,NA,NA
oXsRPEfI,3087lxlj7ptluqx9bvztb5iuvan0fr,3n8oevh1fv32q40f3lpwdkjiprhooz,oXsRPEfI,2020-0188,2021-10-31,13:47:14,15:04:19,NA,incomplete,false,NA,NA,true,2,7,NA,NA,NA,left,m_s_021.jpg,white,black,NA,NA,NA,NA,NA,NA,NA,NA,NA,NaN,NA,1325.300000011921,left,1,NA,NA,NA,NA,NA
oXsRPEfI,3087lxlj7ptluqx9bvztb5iuvan0fr,3n8oevh1fv32q40f3lpwdkjiprhooz,oXsRPEfI,2020-0188,2021-10-31,13:47:14,15:04:19,NA,incomplete,false,NA,NA,true,2,8,NA,NA,NA,right,m_s_071.jpg,gray,black,NA,NA,NA,NA,NA,NA,NA,NA,NA,NaN,NA,2108.4000000059605,right,1,NA,NA,NA,NA,NA
oXsRPEfI,3087lxlj7ptluqx9bvztb5iuvan0fr,3n8oevh1fv32q40f3lpwdkjiprhooz,oXsRPEfI,2020-0188,2021-10-31,13:47:14,15:04:19,NA,incomplete,false,NA,NA,true,2,9,NA,NA,NA,left,n_s_108.jpg,black,white,NA,NA,NA,NA,NA,NA,NA,NA,NA,NaN,NA,1628.4000000059605,right,0,NA,NA,NA,NA,NA
oXsRPEfI,3087lxlj7ptluqx9bvztb5iuvan0fr,3n8oevh1fv32q40f3lpwdkjiprhooz,oXsRPEfI,2020-0188,2021-10-31,13:47:14,15:04:19,NA,incomplete,false,NA,NA,true,2,10,NA,NA,NA,right,n_l_063.jpg,black,white,NA,NA,NA,NA,NA,NA,NA,NA,NA,NaN,NA,1126.9000000059605,right,1,NA,NA,NA,NA,NA
oXsRPEfI,3087lxlj7ptluqx9bvztb5iuvan0fr,3n8oevh1fv32q40f3lpwdkjiprhooz,oXsRPEfI,2020-0188,2021-10-31,13:47:14,15:04:19,NA,incomplete,false,NA,NA,true,2,11,NA,NA,NA,right,n_l_021.jpg,brown,orange,NA,NA,NA,NA,NA,NA,NA,NA,NA,NaN,NA,1558.3999999761581,right,1,NA,NA,NA,NA,NA
oXsRPEfI,3087lxlj7ptluqx9bvztb5iuvan0fr,3n8oevh1fv32q40f3lpwdkjiprhooz,oXsRPEfI,2020-0188,2021-10-31,13:47:14,15:04:19,NA,incomplete,false,NA,NA,true,2,12,NA,NA,NA,left,m_s_109.jpg,green,brown,NA,NA,NA,NA,NA,NA,NA,NA,NA,NaN,NA,1040.7999999821186,left,1,NA,NA,NA,NA,NA
oXsRPEfI,3087lxlj7ptluqx9bvztb5iuvan0fr,3n8oevh1fv32q40f3lpwdkjiprhooz,oXsRPEfI,2020-0188,2021-10-31,13:47:14,15:04:19,NA,incomplete,false,NA,NA,true,2,13,NA,NA,NA,right,m_s_097.jpg,black,white,NA,NA,NA,NA,NA,NA,NA,NA,NA,NaN,NA,1323.4000000059605,right,1,NA,NA,NA,NA,NA
oXsRPEfI,3087lxlj7ptluqx9bvztb5iuvan0fr,3n8oevh1fv32q40f3lpwdkjiprhooz,oXsRPEfI,2020-0188,2021-10-31,13:47:14,15:04:19,NA,incomplete,false,NA,NA,true,2,14,NA,NA,NA,right,n_s_011.jpg,green,gray,NA,NA,NA,NA,NA,NA,NA,NA,NA,NaN,NA,1629.5999999940395,left,0,NA,NA,NA,NA,NA
oXsRPEfI,3087lxlj7ptluqx9bvztb5iuvan0fr,3n8oevh1fv32q40f3lpwdkjiprhooz,oXsRPEfI,2020-0188,2021-10-31,13:47:14,15:04:19,NA,incomplete,false,NA,NA,true,2,15,NA,NA,NA,right,m_l_113.jpg,black,gray,NA,NA,NA,NA,NA,NA,NA,NA,NA,NaN,NA,2522.4000000059605,left,0,NA,NA,NA,NA,NA
oXsRPEfI,3087lxlj7ptluqx9bvztb5iuvan0fr,3n8oevh1fv32q40f3lpwdkjiprhooz,oXsRPEfI,2020-0188,2021-10-31,13:47:14,15:04:19,NA,incomplete,false,NA,NA,true,2,16,NA,NA,NA,right,m_s_104.jpg,brown,orange,NA,NA,NA,NA,NA,NA,NA,NA,NA,NaN,NA,1207.2999999821186,right,1,NA,NA,NA,NA,NA
oXsRPEfI,3087lxlj7ptluqx9bvztb5iuvan0fr,3n8oevh1fv32q40f3lpwdkjiprhooz,oXsRPEfI,2020-0188,2021-10-31,13:47:14,15:04:19,NA,incomplete,false,NA,NA,true,2,17,NA,NA,NA,left,n_s_019.jpg,brown,orange,NA,NA,NA,NA,NA,NA,NA,NA,NA,NaN,NA,1354.800000011921,left,1,NA,NA,NA,NA,NA
oXsRPEfI,3087lxlj7ptluqx9bvztb5iuvan0fr,3n8oevh1fv32q40f3lpwdkjiprhooz,oXsRPEfI,2020-0188,2021-10-31,13:47:14,15:04:19,NA,incomplete,false,NA,NA,true,2,18,NA,NA,NA,left,m_l_043.jpg,black,gray,NA,NA,NA,NA,NA,NA,NA,NA,NA,NaN,NA,1010.1999999880791,left,1,NA,NA,NA,NA,NA
oXsRPEfI,3087lxlj7ptluqx9bvztb5iuvan0fr,3n8oevh1fv32q40f3lpwdkjiprhooz,oXsRPEfI,2020-0188,2021-10-31,13:47:14,15:04:19,NA,incomplete,false,NA,NA,true,2,19,NA,NA,NA,right,m_l_027.jpg,brown,orange,NA,NA,NA,NA,NA,NA,NA,NA,NA,NaN,NA,1383.3999999761581,right,1,NA,NA,NA,NA,NA
oXsRPEfI,3087lxlj7ptluqx9bvztb5iuvan0fr,3n8oevh1fv32q40f3lpwdkjiprhooz,oXsRPEfI,2020-0188,2021-10-31,13:47:14,15:04:19,NA,incomplete,false,NA,NA,true,2,20,NA,NA,NA,right,n_s_051.jpg,orange,brown,NA,NA,NA,NA,NA,NA,NA,NA,NA,NaN,NA,1187.0999999940395,left,0,NA,NA,NA,NA,NA
oXsRPEfI,3087lxlj7ptluqx9bvztb5iuvan0fr,3n8oevh1fv32q40f3lpwdkjiprhooz,oXsRPEfI,2020-0188,2021-10-31,13:47:14,15:04:19,NA,incomplete,false,NA,NA,true,2,21,NA,NA,NA,left,n_s_032.jpg,brown,orange,NA,NA,NA,NA,NA,NA,NA,NA,NA,NaN,NA,1196.5999999940395,right,0,NA,NA,NA,NA,NA
oXsRPEfI,3087lxlj7ptluqx9bvztb5iuvan0fr,3n8oevh1fv32q40f3lpwdkjiprhooz,oXsRPEfI,2020-0188,2021-10-31,13:47:14,15:04:19,NA,incomplete,false,NA,true,NA,2,0,NA,NA,NA,left,NA,NA,NA,present,NA,NA,n_s_011.jpg,gray,n_s_108.jpg,black,between,NA,NaN,NA,NA,NA,NA,left,3117.800000011921,1,1,1755.9000000059605
oXsRPEfI,3087lxlj7ptluqx9bvztb5iuvan0fr,3n8oevh1fv32q40f3lpwdkjiprhooz,oXsRPEfI,2020-0188,2021-10-31,13:47:14,15:04:19,NA,incomplete,false,NA,true,NA,2,1,NA,NA,NA,right,NA,NA,NA,present,NA,NA,n_l_103.jpg,gray,m_l_113.jpg,gray,within,NA,NaN,NA,NA,NA,NA,left,3325.5999999940395,0,2,1460.699999988079
oXsRPEfI,3087lxlj7ptluqx9bvztb5iuvan0fr,3n8oevh1fv32q40f3lpwdkjiprhooz,oXsRPEfI,2020-0188,2021-10-31,13:47:14,15:04:19,NA,incomplete,false,NA,true,NA,2,2,NA,NA,NA,left,NA,NA,NA,present,NA,NA,m_s_104.jpg,orange,n_l_075.jpg,brown,between,NA,NaN,NA,NA,NA,NA,left,1716.0999999940395,1,1,1882.699999988079
oXsRPEfI,3087lxlj7ptluqx9bvztb5iuvan0fr,3n8oevh1fv32q40f3lpwdkjiprhooz,oXsRPEfI,2020-0188,2021-10-31,13:47:14,15:04:19,NA,incomplete,false,NA,true,NA,2,3,NA,NA,NA,right,NA,NA,NA,present,NA,NA,n_s_055.jpg,black,m_l_043.jpg,black,within,NA,NaN,NA,NA,NA,NA,left,3326,0,0,1255.0999999940395
oXsRPEfI,3087lxlj7ptluqx9bvztb5iuvan0fr,3n8oevh1fv32q40f3lpwdkjiprhooz,oXsRPEfI,2020-0188,2021-10-31,13:47:14,15:04:19,NA,incomplete,false,NA,true,NA,2,4,NA,NA,NA,left,NA,NA,NA,present,NA,NA,n_s_051.jpg,brown,n_s_019.jpg,brown,within,NA,NaN,NA,NA,NA,NA,right,2147.5999999940395,0,1,803.9000000059605
oXsRPEfI,3087lxlj7ptluqx9bvztb5iuvan0fr,3n8oevh1fv32q40f3lpwdkjiprhooz,oXsRPEfI,2020-0188,2021-10-31,13:47:14,15:04:19,NA,incomplete,false,NA,true,NA,2,5,NA,NA,NA,right,NA,NA,NA,present,NA,NA,m_s_109.jpg,green,n_s_032.jpg,brown,between,NA,NaN,NA,NA,NA,NA,left,1539.5999999940395,0,1,3472.7000000178814
oXsRPEfI,3087lxlj7ptluqx9bvztb5iuvan0fr,3n8oevh1fv32q40f3lpwdkjiprhooz,oXsRPEfI,2020-0188,2021-10-31,13:47:14,15:04:19,NA,incomplete,false,NA,true,NA,2,6,NA,NA,NA,right,NA,NA,NA,present,NA,NA,m_s_021.jpg,white,m_s_071.jpg,black,between,NA,NaN,NA,NA,NA,NA,right,7594,1,2,1903.800000011921
oXsRPEfI,3087lxlj7ptluqx9bvztb5iuvan0fr,3n8oevh1fv32q40f3lpwdkjiprhooz,oXsRPEfI,2020-0188,2021-10-31,13:47:14,15:04:19,NA,incomplete,false,NA,true,NA,2,7,NA,NA,NA,left,NA,NA,NA,present,NA,NA,m_l_067.jpg,green,n_s_018.jpg,green,within,NA,NaN,NA,NA,NA,NA,left,6857.600000023842,1,0,695.8000000119209
oXsRPEfI,3087lxlj7ptluqx9bvztb5iuvan0fr,3n8oevh1fv32q40f3lpwdkjiprhooz,oXsRPEfI,2020-0188,2021-10-31,13:47:14,15:04:19,NA,incomplete,false,NA,true,NA,2,8,NA,NA,NA,right,NA,NA,NA,present,NA,NA,m_s_060.jpg,gray,n_s_031.jpg,green,between,NA,NaN,NA,NA,NA,NA,right,1666.9000000059605,1,2,1305.800000011921
oXsRPEfI,3087lxlj7ptluqx9bvztb5iuvan0fr,3n8oevh1fv32q40f3lpwdkjiprhooz,oXsRPEfI,2020-0188,2021-10-31,13:47:14,15:04:19,NA,incomplete,false,NA,true,NA,2,9,NA,NA,NA,left,NA,NA,NA,present,NA,NA,m_l_027.jpg,orange,n_l_021.jpg,orange,within,NA,NaN,NA,NA,NA,NA,left,2059.2000000178814,1,0,1245.4000000059605
oXsRPEfI,3087lxlj7ptluqx9bvztb5iuvan0fr,3n8oevh1fv32q40f3lpwdkjiprhooz,oXsRPEfI,2020-0188,2021-10-31,13:47:14,15:04:19,NA,incomplete,false,NA,true,NA,2,10,NA,NA,NA,right,NA,NA,NA,present,NA,NA,n_l_063.jpg,white,m_s_097.jpg,white,within,NA,NaN,NA,NA,NA,NA,right,2324.2999999821186,1,0,2845.199999988079
oXsRPEfI,3087lxlj7ptluqx9bvztb5iuvan0fr,3n8oevh1fv32q40f3lpwdkjiprhooz,oXsRPEfI,2020-0188,2021-10-31,13:47:14,15:04:19,NA,incomplete,false,true,NA,NA,3,0,NA,black,m_s_107.jpg,NA,NA,NA,NA,NA,unpleasant,pleasant,NA,NA,NA,NA,NA,right,1392.90000000596,true,NA,NA,NA,NA,NA,NA,NA,NA
oXsRPEfI,3087lxlj7ptluqx9bvztb5iuvan0fr,3n8oevh1fv32q40f3lpwdkjiprhooz,oXsRPEfI,2020-0188,2021-10-31,13:47:14,15:04:19,NA,incomplete,false,true,NA,NA,3,1,NA,black,m_s_009.jpg,NA,NA,NA,NA,NA,unpleasant,pleasant,NA,NA,NA,NA,NA,right,1437.40000000596,true,NA,NA,NA,NA,NA,NA,NA,NA
oXsRPEfI,3087lxlj7ptluqx9bvztb5iuvan0fr,3n8oevh1fv32q40f3lpwdkjiprhooz,oXsRPEfI,2020-0188,2021-10-31,13:47:14,15:04:19,NA,incomplete,false,true,NA,NA,3,2,NA,black,m_s_111.jpg,NA,NA,NA,NA,NA,pleasant,unpleasant,NA,NA,NA,NA,NA,left,1378.09999999404,true,NA,NA,NA,NA,NA,NA,NA,NA
oXsRPEfI,3087lxlj7ptluqx9bvztb5iuvan0fr,3n8oevh1fv32q40f3lpwdkjiprhooz,oXsRPEfI,2020-0188,2021-10-31,13:47:14,15:04:19,NA,incomplete,false,true,NA,NA,3,3,NA,black,m_s_023.jpg,NA,NA,NA,NA,NA,unpleasant,pleasant,NA,NA,NA,NA,NA,right,907.899999976158,true,NA,NA,NA,NA,NA,NA,NA,NA
oXsRPEfI,3087lxlj7ptluqx9bvztb5iuvan0fr,3n8oevh1fv32q40f3lpwdkjiprhooz,oXsRPEfI,2020-0188,2021-10-31,13:47:14,15:04:19,NA,incomplete,false,true,NA,NA,3,4,NA,black,m_l_006.jpg,NA,NA,NA,NA,NA,unpleasant,pleasant,NA,NA,NA,NA,NA,right,950.100000023842,true,NA,NA,NA,NA,NA,NA,NA,NA
oXsRPEfI,3087lxlj7ptluqx9bvztb5iuvan0fr,3n8oevh1fv32q40f3lpwdkjiprhooz,oXsRPEfI,2020-0188,2021-10-31,13:47:14,15:04:19,NA,incomplete,false,true,NA,NA,3,5,NA,black,m_s_042.jpg,NA,NA,NA,NA,NA,pleasant,unpleasant,NA,NA,NA,NA,NA,left,1003,true,NA,NA,NA,NA,NA,NA,NA,NA
oXsRPEfI,3087lxlj7ptluqx9bvztb5iuvan0fr,3n8oevh1fv32q40f3lpwdkjiprhooz,oXsRPEfI,2020-0188,2021-10-31,13:47:14,15:04:19,NA,incomplete,false,true,NA,NA,3,6,NA,red,n_s_001.jpg,NA,NA,NA,NA,NA,pleasant,unpleasant,NA,NA,NA,NA,NA,left,1151.79999998212,true,NA,NA,NA,NA,NA,NA,NA,NA
oXsRPEfI,3087lxlj7ptluqx9bvztb5iuvan0fr,3n8oevh1fv32q40f3lpwdkjiprhooz,oXsRPEfI,2020-0188,2021-10-31,13:47:14,15:04:19,NA,incomplete,false,true,NA,NA,3,7,NA,red,n_s_082.jpg,NA,NA,NA,NA,NA,pleasant,unpleasant,NA,NA,NA,NA,NA,left,971.300000011921,true,NA,NA,NA,NA,NA,NA,NA,NA
oXsRPEfI,3087lxlj7ptluqx9bvztb5iuvan0fr,3n8oevh1fv32q40f3lpwdkjiprhooz,oXsRPEfI,2020-0188,2021-10-31,13:47:14,15:04:19,NA,incomplete,false,true,NA,NA,3,8,NA,red,n_s_114.jpg,NA,NA,NA,NA,NA,unpleasant,pleasant,NA,NA,NA,NA,NA,left,1318.59999999404,true,NA,NA,NA,NA,NA,NA,NA,NA
oXsRPEfI,3087lxlj7ptluqx9bvztb5iuvan0fr,3n8oevh1fv32q40f3lpwdkjiprhooz,oXsRPEfI,2020-0188,2021-10-31,13:47:14,15:04:19,NA,incomplete,false,true,NA,NA,3,9,NA,red,n_s_066.jpg,NA,NA,NA,NA,NA,unpleasant,pleasant,NA,NA,NA,NA,NA,right,930.300000011921,true,NA,NA,NA,NA,NA,NA,NA,NA
oXsRPEfI,3087lxlj7ptluqx9bvztb5iuvan0fr,3n8oevh1fv32q40f3lpwdkjiprhooz,oXsRPEfI,2020-0188,2021-10-31,13:47:14,15:04:19,NA,incomplete,false,true,NA,NA,3,10,NA,red,n_l_105.jpg,NA,NA,NA,NA,NA,unpleasant,pleasant,NA,NA,NA,NA,NA,right,893.899999976158,true,NA,NA,NA,NA,NA,NA,NA,NA
oXsRPEfI,3087lxlj7ptluqx9bvztb5iuvan0fr,3n8oevh1fv32q40f3lpwdkjiprhooz,oXsRPEfI,2020-0188,2021-10-31,13:47:14,15:04:19,NA,incomplete,false,true,NA,NA,3,11,NA,red,n_s_097.jpg,NA,NA,NA,NA,NA,unpleasant,pleasant,NA,NA,NA,NA,NA,right,976.59999999404,true,NA,NA,NA,NA,NA,NA,NA,NA
oXsRPEfI,3087lxlj7ptluqx9bvztb5iuvan0fr,3n8oevh1fv32q40f3lpwdkjiprhooz,oXsRPEfI,2020-0188,2021-10-31,13:47:14,15:04:19,NA,incomplete,false,true,NA,NA,3,12,NA,white,m_s_049.jpg,NA,NA,NA,NA,NA,unpleasant,pleasant,NA,NA,NA,NA,NA,right,1111.09999999404,true,NA,NA,NA,NA,NA,NA,NA,NA
oXsRPEfI,3087lxlj7ptluqx9bvztb5iuvan0fr,3n8oevh1fv32q40f3lpwdkjiprhooz,oXsRPEfI,2020-0188,2021-10-31,13:47:14,15:04:19,NA,incomplete,false,true,NA,NA,3,13,NA,white,m_l_029.jpg,NA,NA,NA,NA,NA,pleasant,unpleasant,NA,NA,NA,NA,NA,left,1505.60000002384,true,NA,NA,NA,NA,NA,NA,NA,NA
oXsRPEfI,3087lxlj7ptluqx9bvztb5iuvan0fr,3n8oevh1fv32q40f3lpwdkjiprhooz,oXsRPEfI,2020-0188,2021-10-31,13:47:14,15:04:19,NA,incomplete,false,true,NA,NA,3,14,NA,white,m_l_057.jpg,NA,NA,NA,NA,NA,pleasant,unpleasant,NA,NA,NA,NA,NA,left,1399.20000001788,true,NA,NA,NA,NA,NA,NA,NA,NA
oXsRPEfI,3087lxlj7ptluqx9bvztb5iuvan0fr,3n8oevh1fv32q40f3lpwdkjiprhooz,oXsRPEfI,2020-0188,2021-10-31,13:47:14,15:04:19,NA,incomplete,false,true,NA,NA,3,15,NA,white,n_s_111.jpg,NA,NA,NA,NA,NA,unpleasant,pleasant,NA,NA,NA,NA,NA,right,802.800000011921,true,NA,NA,NA,NA,NA,NA,NA,NA
oXsRPEfI,3087lxlj7ptluqx9bvztb5iuvan0fr,3n8oevh1fv32q40f3lpwdkjiprhooz,oXsRPEfI,2020-0188,2021-10-31,13:47:14,15:04:19,NA,incomplete,false,true,NA,NA,3,16,NA,white,m_s_029.jpg,NA,NA,NA,NA,NA,unpleasant,pleasant,NA,NA,NA,NA,NA,right,1250,true,NA,NA,NA,NA,NA,NA,NA,NA
oXsRPEfI,3087lxlj7ptluqx9bvztb5iuvan0fr,3n8oevh1fv32q40f3lpwdkjiprhooz,oXsRPEfI,2020-0188,2021-10-31,13:47:14,15:04:19,NA,incomplete,false,true,NA,NA,3,17,NA,white,m_s_081.jpg,NA,NA,NA,NA,NA,pleasant,unpleasant,NA,NA,NA,NA,NA,left,853.699999988079,true,NA,NA,NA,NA,NA,NA,NA,NA
oXsRPEfI,3087lxlj7ptluqx9bvztb5iuvan0fr,3n8oevh1fv32q40f3lpwdkjiprhooz,oXsRPEfI,2020-0188,2021-10-31,13:47:14,15:04:19,NA,incomplete,false,true,NA,NA,3,18,NA,green,m_s_031.jpg,NA,NA,NA,NA,NA,unpleasant,pleasant,NA,NA,NA,NA,NA,right,1147.69999998808,true,NA,NA,NA,NA,NA,NA,NA,NA
oXsRPEfI,3087lxlj7ptluqx9bvztb5iuvan0fr,3n8oevh1fv32q40f3lpwdkjiprhooz,oXsRPEfI,2020-0188,2021-10-31,13:47:14,15:04:19,NA,incomplete,false,true,NA,NA,3,19,NA,green,m_l_056.jpg,NA,NA,NA,NA,NA,pleasant,unpleasant,NA,NA,NA,NA,NA,left,1098.09999999404,true,NA,NA,NA,NA,NA,NA,NA,NA
oXsRPEfI,3087lxlj7ptluqx9bvztb5iuvan0fr,3n8oevh1fv32q40f3lpwdkjiprhooz,oXsRPEfI,2020-0188,2021-10-31,13:47:14,15:04:19,NA,incomplete,false,true,NA,NA,3,20,NA,green,m_l_050.jpg,NA,NA,NA,NA,NA,pleasant,unpleasant,NA,NA,NA,NA,NA,left,810.09999999404,true,NA,NA,NA,NA,NA,NA,NA,NA
oXsRPEfI,3087lxlj7ptluqx9bvztb5iuvan0fr,3n8oevh1fv32q40f3lpwdkjiprhooz,oXsRPEfI,2020-0188,2021-10-31,13:47:14,15:04:19,NA,incomplete,false,true,NA,NA,3,21,NA,green,n_s_075.jpg,NA,NA,NA,NA,NA,unpleasant,pleasant,NA,NA,NA,NA,NA,left,1310.29999998212,true,NA,NA,NA,NA,NA,NA,NA,NA
oXsRPEfI,3087lxlj7ptluqx9bvztb5iuvan0fr,3n8oevh1fv32q40f3lpwdkjiprhooz,oXsRPEfI,2020-0188,2021-10-31,13:47:14,15:04:19,NA,incomplete,false,true,NA,NA,3,22,NA,green,n_l_073.jpg,NA,NA,NA,NA,NA,unpleasant,pleasant,NA,NA,NA,NA,NA,right,1442.79999998212,true,NA,NA,NA,NA,NA,NA,NA,NA
oXsRPEfI,3087lxlj7ptluqx9bvztb5iuvan0fr,3n8oevh1fv32q40f3lpwdkjiprhooz,oXsRPEfI,2020-0188,2021-10-31,13:47:14,15:04:19,NA,incomplete,false,true,NA,NA,3,23,NA,green,n_s_046.jpg,NA,NA,NA,NA,NA,unpleasant,pleasant,NA,NA,NA,NA,NA,left,999.800000011921,true,NA,NA,NA,NA,NA,NA,NA,NA
oXsRPEfI,3087lxlj7ptluqx9bvztb5iuvan0fr,3n8oevh1fv32q40f3lpwdkjiprhooz,oXsRPEfI,2020-0188,2021-10-31,13:47:14,15:04:19,NA,incomplete,false,true,NA,NA,3,24,NA,yellow,m_s_116.jpg,NA,NA,NA,NA,NA,unpleasant,pleasant,NA,NA,NA,NA,NA,right,1134.09999999404,true,NA,NA,NA,NA,NA,NA,NA,NA
oXsRPEfI,3087lxlj7ptluqx9bvztb5iuvan0fr,3n8oevh1fv32q40f3lpwdkjiprhooz,oXsRPEfI,2020-0188,2021-10-31,13:47:14,15:04:19,NA,incomplete,false,true,NA,NA,3,25,NA,yellow,m_s_001.jpg,NA,NA,NA,NA,NA,unpleasant,pleasant,NA,NA,NA,NA,NA,left,1324.30000001192,true,NA,NA,NA,NA,NA,NA,NA,NA
oXsRPEfI,3087lxlj7ptluqx9bvztb5iuvan0fr,3n8oevh1fv32q40f3lpwdkjiprhooz,oXsRPEfI,2020-0188,2021-10-31,13:47:14,15:04:19,NA,incomplete,false,true,NA,NA,3,26,NA,yellow,m_l_048.jpg,NA,NA,NA,NA,NA,unpleasant,pleasant,NA,NA,NA,NA,NA,right,1351.90000000596,true,NA,NA,NA,NA,NA,NA,NA,NA
oXsRPEfI,3087lxlj7ptluqx9bvztb5iuvan0fr,3n8oevh1fv32q40f3lpwdkjiprhooz,oXsRPEfI,2020-0188,2021-10-31,13:47:14,15:04:19,NA,incomplete,false,true,NA,NA,3,27,NA,yellow,m_l_021.jpg,NA,NA,NA,NA,NA,unpleasant,pleasant,NA,NA,NA,NA,NA,right,799.299999982119,true,NA,NA,NA,NA,NA,NA,NA,NA
oXsRPEfI,3087lxlj7ptluqx9bvztb5iuvan0fr,3n8oevh1fv32q40f3lpwdkjiprhooz,oXsRPEfI,2020-0188,2021-10-31,13:47:14,15:04:19,NA,incomplete,false,true,NA,NA,3,28,NA,yellow,n_l_053.jpg,NA,NA,NA,NA,NA,pleasant,unpleasant,NA,NA,NA,NA,NA,left,782.699999988079,true,NA,NA,NA,NA,NA,NA,NA,NA
oXsRPEfI,3087lxlj7ptluqx9bvztb5iuvan0fr,3n8oevh1fv32q40f3lpwdkjiprhooz,oXsRPEfI,2020-0188,2021-10-31,13:47:14,15:04:19,NA,incomplete,false,true,NA,NA,3,29,NA,yellow,n_s_042.jpg,NA,NA,NA,NA,NA,unpleasant,pleasant,NA,NA,NA,NA,NA,left,1346.90000000596,true,NA,NA,NA,NA,NA,NA,NA,NA
oXsRPEfI,3087lxlj7ptluqx9bvztb5iuvan0fr,3n8oevh1fv32q40f3lpwdkjiprhooz,oXsRPEfI,2020-0188,2021-10-31,13:47:14,15:04:19,NA,incomplete,false,true,NA,NA,3,30,NA,blue,m_s_028.jpg,NA,NA,NA,NA,NA,pleasant,unpleasant,NA,NA,NA,NA,NA,left,918.90000000596,true,NA,NA,NA,NA,NA,NA,NA,NA
oXsRPEfI,3087lxlj7ptluqx9bvztb5iuvan0fr,3n8oevh1fv32q40f3lpwdkjiprhooz,oXsRPEfI,2020-0188,2021-10-31,13:47:14,15:04:19,NA,incomplete,false,true,NA,NA,3,31,NA,blue,n_s_088.jpg,NA,NA,NA,NA,NA,pleasant,unpleasant,NA,NA,NA,NA,NA,left,993.59999999404,true,NA,NA,NA,NA,NA,NA,NA,NA
oXsRPEfI,3087lxlj7ptluqx9bvztb5iuvan0fr,3n8oevh1fv32q40f3lpwdkjiprhooz,oXsRPEfI,2020-0188,2021-10-31,13:47:14,15:04:19,NA,incomplete,false,true,NA,NA,3,32,NA,blue,n_l_038.jpg,NA,NA,NA,NA,NA,unpleasant,pleasant,NA,NA,NA,NA,NA,right,849.59999999404,true,NA,NA,NA,NA,NA,NA,NA,NA
oXsRPEfI,3087lxlj7ptluqx9bvztb5iuvan0fr,3n8oevh1fv32q40f3lpwdkjiprhooz,oXsRPEfI,2020-0188,2021-10-31,13:47:14,15:04:19,NA,incomplete,false,true,NA,NA,3,33,NA,blue,n_l_106.jpg,NA,NA,NA,NA,NA,unpleasant,pleasant,NA,NA,NA,NA,NA,right,888.200000017881,true,NA,NA,NA,NA,NA,NA,NA,NA
oXsRPEfI,3087lxlj7ptluqx9bvztb5iuvan0fr,3n8oevh1fv32q40f3lpwdkjiprhooz,oXsRPEfI,2020-0188,2021-10-31,13:47:14,15:04:19,NA,incomplete,false,true,NA,NA,3,34,NA,blue,n_l_002.jpg,NA,NA,NA,NA,NA,pleasant,unpleasant,NA,NA,NA,NA,NA,left,841.59999999404,true,NA,NA,NA,NA,NA,NA,NA,NA
oXsRPEfI,3087lxlj7ptluqx9bvztb5iuvan0fr,3n8oevh1fv32q40f3lpwdkjiprhooz,oXsRPEfI,2020-0188,2021-10-31,13:47:14,15:04:19,NA,incomplete,false,true,NA,NA,3,35,NA,blue,m_s_022.jpg,NA,NA,NA,NA,NA,unpleasant,pleasant,NA,NA,NA,NA,NA,right,847.800000011921,true,NA,NA,NA,NA,NA,NA,NA,NA
oXsRPEfI,3087lxlj7ptluqx9bvztb5iuvan0fr,3n8oevh1fv32q40f3lpwdkjiprhooz,oXsRPEfI,2020-0188,2021-10-31,13:47:14,15:04:19,NA,incomplete,false,NA,NA,true,3,0,NA,NA,NA,right,m_s_042.jpg,red,black,NA,NA,NA,NA,NA,NA,NA,NA,NA,NaN,NA,3472.0999999940395,right,1,NA,NA,NA,NA,NA
oXsRPEfI,3087lxlj7ptluqx9bvztb5iuvan0fr,3n8oevh1fv32q40f3lpwdkjiprhooz,oXsRPEfI,2020-0188,2021-10-31,13:47:14,15:04:19,NA,incomplete,false,NA,NA,true,3,1,NA,NA,NA,right,n_l_038.jpg,yellow,blue,NA,NA,NA,NA,NA,NA,NA,NA,NA,NaN,NA,1177.8999999761581,right,1,NA,NA,NA,NA,NA
oXsRPEfI,3087lxlj7ptluqx9bvztb5iuvan0fr,3n8oevh1fv32q40f3lpwdkjiprhooz,oXsRPEfI,2020-0188,2021-10-31,13:47:14,15:04:19,NA,incomplete,false,NA,NA,true,3,2,NA,NA,NA,left,n_s_097.jpg,red,white,NA,NA,NA,NA,NA,NA,NA,NA,NA,NaN,NA,1198,left,1,NA,NA,NA,NA,NA
oXsRPEfI,3087lxlj7ptluqx9bvztb5iuvan0fr,3n8oevh1fv32q40f3lpwdkjiprhooz,oXsRPEfI,2020-0188,2021-10-31,13:47:14,15:04:19,NA,incomplete,false,NA,NA,true,3,3,NA,NA,NA,right,m_s_022.jpg,yellow,blue,NA,NA,NA,NA,NA,NA,NA,NA,NA,NaN,NA,1413.300000011921,right,1,NA,NA,NA,NA,NA
oXsRPEfI,3087lxlj7ptluqx9bvztb5iuvan0fr,3n8oevh1fv32q40f3lpwdkjiprhooz,oXsRPEfI,2020-0188,2021-10-31,13:47:14,15:04:19,NA,incomplete,false,NA,NA,true,3,4,NA,NA,NA,left,m_s_081.jpg,white,green,NA,NA,NA,NA,NA,NA,NA,NA,NA,NaN,NA,1893.5999999940395,left,1,NA,NA,NA,NA,NA
oXsRPEfI,3087lxlj7ptluqx9bvztb5iuvan0fr,3n8oevh1fv32q40f3lpwdkjiprhooz,oXsRPEfI,2020-0188,2021-10-31,13:47:14,15:04:19,NA,incomplete,false,NA,NA,true,3,5,NA,NA,NA,left,n_l_053.jpg,yellow,green,NA,NA,NA,NA,NA,NA,NA,NA,NA,NaN,NA,1021.0999999940395,left,1,NA,NA,NA,NA,NA
oXsRPEfI,3087lxlj7ptluqx9bvztb5iuvan0fr,3n8oevh1fv32q40f3lpwdkjiprhooz,oXsRPEfI,2020-0188,2021-10-31,13:47:14,15:04:19,NA,incomplete,false,NA,NA,true,3,6,NA,NA,NA,right,m_s_009.jpg,red,black,NA,NA,NA,NA,NA,NA,NA,NA,NA,NaN,NA,4867.200000017881,right,1,NA,NA,NA,NA,NA
oXsRPEfI,3087lxlj7ptluqx9bvztb5iuvan0fr,3n8oevh1fv32q40f3lpwdkjiprhooz,oXsRPEfI,2020-0188,2021-10-31,13:47:14,15:04:19,NA,incomplete,false,NA,NA,true,3,7,NA,NA,NA,left,n_s_046.jpg,green,yellow,NA,NA,NA,NA,NA,NA,NA,NA,NA,NaN,NA,1276.0999999940395,left,1,NA,NA,NA,NA,NA
oXsRPEfI,3087lxlj7ptluqx9bvztb5iuvan0fr,3n8oevh1fv32q40f3lpwdkjiprhooz,oXsRPEfI,2020-0188,2021-10-31,13:47:14,15:04:19,NA,incomplete,false,NA,NA,true,3,8,NA,NA,NA,right,n_s_042.jpg,green,yellow,NA,NA,NA,NA,NA,NA,NA,NA,NA,NaN,NA,1815.7000000178814,left,0,NA,NA,NA,NA,NA
oXsRPEfI,3087lxlj7ptluqx9bvztb5iuvan0fr,3n8oevh1fv32q40f3lpwdkjiprhooz,oXsRPEfI,2020-0188,2021-10-31,13:47:14,15:04:19,NA,incomplete,false,NA,NA,true,3,9,NA,NA,NA,left,n_s_114.jpg,red,black,NA,NA,NA,NA,NA,NA,NA,NA,NA,NaN,NA,2481.300000011921,right,0,NA,NA,NA,NA,NA
oXsRPEfI,3087lxlj7ptluqx9bvztb5iuvan0fr,3n8oevh1fv32q40f3lpwdkjiprhooz,oXsRPEfI,2020-0188,2021-10-31,13:47:14,15:04:19,NA,incomplete,false,NA,NA,true,3,10,NA,NA,NA,right,m_l_056.jpg,white,green,NA,NA,NA,NA,NA,NA,NA,NA,NA,NaN,NA,19074.5,left,0,NA,NA,NA,NA,NA
oXsRPEfI,3087lxlj7ptluqx9bvztb5iuvan0fr,3n8oevh1fv32q40f3lpwdkjiprhooz,oXsRPEfI,2020-0188,2021-10-31,13:47:14,15:04:19,NA,incomplete,false,NA,NA,true,3,11,NA,NA,NA,left,m_s_029.jpg,white,red,NA,NA,NA,NA,NA,NA,NA,NA,NA,NaN,NA,1580.2000000178814,left,1,NA,NA,NA,NA,NA
oXsRPEfI,3087lxlj7ptluqx9bvztb5iuvan0fr,3n8oevh1fv32q40f3lpwdkjiprhooz,oXsRPEfI,2020-0188,2021-10-31,13:47:14,15:04:19,NA,incomplete,false,NA,NA,true,3,12,NA,NA,NA,right,m_l_057.jpg,green,white,NA,NA,NA,NA,NA,NA,NA,NA,NA,NaN,NA,4092.899999976158,right,1,NA,NA,NA,NA,NA
oXsRPEfI,3087lxlj7ptluqx9bvztb5iuvan0fr,3n8oevh1fv32q40f3lpwdkjiprhooz,oXsRPEfI,2020-0188,2021-10-31,13:47:14,15:04:19,NA,incomplete,false,NA,NA,true,3,13,NA,NA,NA,right,n_s_088.jpg,yellow,blue,NA,NA,NA,NA,NA,NA,NA,NA,NA,NaN,NA,3531.5,left,0,NA,NA,NA,NA,NA
oXsRPEfI,3087lxlj7ptluqx9bvztb5iuvan0fr,3n8oevh1fv32q40f3lpwdkjiprhooz,oXsRPEfI,2020-0188,2021-10-31,13:47:14,15:04:19,NA,incomplete,false,NA,NA,true,3,14,NA,NA,NA,left,m_l_050.jpg,green,yellow,NA,NA,NA,NA,NA,NA,NA,NA,NA,NaN,NA,1992,right,0,NA,NA,NA,NA,NA
oXsRPEfI,3087lxlj7ptluqx9bvztb5iuvan0fr,3n8oevh1fv32q40f3lpwdkjiprhooz,oXsRPEfI,2020-0188,2021-10-31,13:47:14,15:04:19,NA,incomplete,false,NA,NA,true,3,15,NA,NA,NA,left,m_l_048.jpg,yellow,green,NA,NA,NA,NA,NA,NA,NA,NA,NA,NaN,NA,1030.0999999940395,right,0,NA,NA,NA,NA,NA
oXsRPEfI,3087lxlj7ptluqx9bvztb5iuvan0fr,3n8oevh1fv32q40f3lpwdkjiprhooz,oXsRPEfI,2020-0188,2021-10-31,13:47:14,15:04:19,NA,incomplete,false,NA,NA,true,3,16,NA,NA,NA,left,m_l_006.jpg,black,red,NA,NA,NA,NA,NA,NA,NA,NA,NA,NaN,NA,1314.699999988079,left,1,NA,NA,NA,NA,NA
oXsRPEfI,3087lxlj7ptluqx9bvztb5iuvan0fr,3n8oevh1fv32q40f3lpwdkjiprhooz,oXsRPEfI,2020-0188,2021-10-31,13:47:14,15:04:19,NA,incomplete,false,NA,NA,true,3,17,NA,NA,NA,left,n_s_082.jpg,red,black,NA,NA,NA,NA,NA,NA,NA,NA,NA,NaN,NA,1059.6000000238419,right,0,NA,NA,NA,NA,NA
oXsRPEfI,3087lxlj7ptluqx9bvztb5iuvan0fr,3n8oevh1fv32q40f3lpwdkjiprhooz,oXsRPEfI,2020-0188,2021-10-31,13:47:14,15:04:19,NA,incomplete,false,NA,NA,true,3,18,NA,NA,NA,left,m_l_029.jpg,white,red,NA,NA,NA,NA,NA,NA,NA,NA,NA,NaN,NA,1431.9000000059605,left,1,NA,NA,NA,NA,NA
oXsRPEfI,3087lxlj7ptluqx9bvztb5iuvan0fr,3n8oevh1fv32q40f3lpwdkjiprhooz,oXsRPEfI,2020-0188,2021-10-31,13:47:14,15:04:19,NA,incomplete,false,NA,NA,true,3,19,NA,NA,NA,left,n_l_105.jpg,red,white,NA,NA,NA,NA,NA,NA,NA,NA,NA,NaN,NA,1402.800000011921,left,1,NA,NA,NA,NA,NA
oXsRPEfI,3087lxlj7ptluqx9bvztb5iuvan0fr,3n8oevh1fv32q40f3lpwdkjiprhooz,oXsRPEfI,2020-0188,2021-10-31,13:47:14,15:04:19,NA,incomplete,false,NA,NA,true,3,20,NA,NA,NA,left,m_s_001.jpg,yellow,blue,NA,NA,NA,NA,NA,NA,NA,NA,NA,NaN,NA,1588.0999999940395,left,1,NA,NA,NA,NA,NA
oXsRPEfI,3087lxlj7ptluqx9bvztb5iuvan0fr,3n8oevh1fv32q40f3lpwdkjiprhooz,oXsRPEfI,2020-0188,2021-10-31,13:47:14,15:04:19,NA,incomplete,false,NA,NA,true,3,21,NA,NA,NA,left,n_l_073.jpg,green,white,NA,NA,NA,NA,NA,NA,NA,NA,NA,NaN,NA,2618.4000000059605,left,1,NA,NA,NA,NA,NA
oXsRPEfI,3087lxlj7ptluqx9bvztb5iuvan0fr,3n8oevh1fv32q40f3lpwdkjiprhooz,oXsRPEfI,2020-0188,2021-10-31,13:47:14,15:04:19,NA,incomplete,false,NA,true,NA,3,0,NA,NA,NA,right,NA,NA,NA,present,NA,NA,m_l_048.jpg,yellow,n_l_073.jpg,green,between,NA,NaN,NA,NA,NA,NA,right,7826.199999988079,1,2,2127.0999999940395
oXsRPEfI,3087lxlj7ptluqx9bvztb5iuvan0fr,3n8oevh1fv32q40f3lpwdkjiprhooz,oXsRPEfI,2020-0188,2021-10-31,13:47:14,15:04:19,NA,incomplete,false,NA,true,NA,3,1,NA,NA,NA,left,NA,NA,NA,present,NA,NA,m_s_029.jpg,white,m_l_050.jpg,green,between,NA,NaN,NA,NA,NA,NA,right,4972.4000000059605,0,1,1431.2000000178814
oXsRPEfI,3087lxlj7ptluqx9bvztb5iuvan0fr,3n8oevh1fv32q40f3lpwdkjiprhooz,oXsRPEfI,2020-0188,2021-10-31,13:47:14,15:04:19,NA,incomplete,false,NA,true,NA,3,2,NA,NA,NA,right,NA,NA,NA,present,NA,NA,n_l_038.jpg,blue,n_l_053.jpg,yellow,between,NA,NaN,NA,NA,NA,NA,right,13037.09999999404,1,1,1795.199999988079
oXsRPEfI,3087lxlj7ptluqx9bvztb5iuvan0fr,3n8oevh1fv32q40f3lpwdkjiprhooz,oXsRPEfI,2020-0188,2021-10-31,13:47:14,15:04:19,NA,incomplete,false,NA,true,NA,3,3,NA,NA,NA,left,NA,NA,NA,present,NA,NA,m_l_029.jpg,white,m_s_081.jpg,white,within,NA,NaN,NA,NA,NA,NA,left,4346,1,0,1439.0999999940395
oXsRPEfI,3087lxlj7ptluqx9bvztb5iuvan0fr,3n8oevh1fv32q40f3lpwdkjiprhooz,oXsRPEfI,2020-0188,2021-10-31,13:47:14,15:04:19,NA,incomplete,false,NA,true,NA,3,4,NA,NA,NA,left,NA,NA,NA,present,NA,NA,m_s_009.jpg,black,m_s_042.jpg,black,within,NA,NaN,NA,NA,NA,NA,right,3786.300000011921,0,0,1274.5999999940395
oXsRPEfI,3087lxlj7ptluqx9bvztb5iuvan0fr,3n8oevh1fv32q40f3lpwdkjiprhooz,oXsRPEfI,2020-0188,2021-10-31,13:47:14,15:04:19,NA,incomplete,false,NA,true,NA,3,5,NA,NA,NA,right,NA,NA,NA,present,NA,NA,m_l_057.jpg,white,n_l_105.jpg,red,between,NA,NaN,NA,NA,NA,NA,right,5728.800000011921,1,2,1479.5999999940395
oXsRPEfI,3087lxlj7ptluqx9bvztb5iuvan0fr,3n8oevh1fv32q40f3lpwdkjiprhooz,oXsRPEfI,2020-0188,2021-10-31,13:47:14,15:04:19,NA,incomplete,false,NA,true,NA,3,6,NA,NA,NA,left,NA,NA,NA,present,NA,NA,m_l_006.jpg,black,n_s_114.jpg,red,between,NA,NaN,NA,NA,NA,NA,left,3482.300000011921,1,1,4757.5
oXsRPEfI,3087lxlj7ptluqx9bvztb5iuvan0fr,3n8oevh1fv32q40f3lpwdkjiprhooz,oXsRPEfI,2020-0188,2021-10-31,13:47:14,15:04:19,NA,incomplete,false,NA,true,NA,3,7,NA,NA,NA,right,NA,NA,NA,present,NA,NA,n_s_097.jpg,red,n_s_082.jpg,red,within,NA,NaN,NA,NA,NA,NA,left,1530.4000000059605,0,0,1048.2999999821186
oXsRPEfI,3087lxlj7ptluqx9bvztb5iuvan0fr,3n8oevh1fv32q40f3lpwdkjiprhooz,oXsRPEfI,2020-0188,2021-10-31,13:47:14,15:04:19,NA,incomplete,false,NA,true,NA,3,8,NA,NA,NA,left,NA,NA,NA,present,NA,NA,m_l_056.jpg,green,n_s_046.jpg,green,within,NA,NaN,NA,NA,NA,NA,right,4120,0,0,815
oXsRPEfI,3087lxlj7ptluqx9bvztb5iuvan0fr,3n8oevh1fv32q40f3lpwdkjiprhooz,oXsRPEfI,2020-0188,2021-10-31,13:47:14,15:04:19,NA,incomplete,false,NA,true,NA,3,9,NA,NA,NA,left,NA,NA,NA,present,NA,NA,m_s_001.jpg,yellow,n_s_042.jpg,yellow,within,NA,NaN,NA,NA,NA,NA,right,4640.200000017881,0,0,1236.0999999940395
oXsRPEfI,3087lxlj7ptluqx9bvztb5iuvan0fr,3n8oevh1fv32q40f3lpwdkjiprhooz,oXsRPEfI,2020-0188,2021-10-31,13:47:14,15:04:19,NA,incomplete,false,NA,true,NA,3,10,NA,NA,NA,right,NA,NA,NA,present,NA,NA,m_s_022.jpg,blue,n_s_088.jpg,blue,within,NA,NaN,NA,NA,NA,NA,left,3962.9000000059605,0,0,872.8000000119209
oXsRPEfI,3087lxlj7ptluqx9bvztb5iuvan0fr,3n8oevh1fv32q40f3lpwdkjiprhooz,oXsRPEfI,2020-0188,2021-10-31,13:47:14,15:04:19,NA,incomplete,false,true,NA,NA,4,0,NA,gray,m_l_114.jpg,NA,NA,NA,NA,NA,unpleasant,pleasant,NA,NA,NA,NA,NA,right,1599.80000001192,true,NA,NA,NA,NA,NA,NA,NA,NA
oXsRPEfI,3087lxlj7ptluqx9bvztb5iuvan0fr,3n8oevh1fv32q40f3lpwdkjiprhooz,oXsRPEfI,2020-0188,2021-10-31,13:47:14,15:04:19,NA,incomplete,false,true,NA,NA,4,1,NA,gray,n_s_115.jpg,NA,NA,NA,NA,NA,unpleasant,pleasant,NA,NA,NA,NA,NA,right,1585.69999998808,true,NA,NA,NA,NA,NA,NA,NA,NA
oXsRPEfI,3087lxlj7ptluqx9bvztb5iuvan0fr,3n8oevh1fv32q40f3lpwdkjiprhooz,oXsRPEfI,2020-0188,2021-10-31,13:47:14,15:04:19,NA,incomplete,false,true,NA,NA,4,2,NA,gray,n_l_028.jpg,NA,NA,NA,NA,NA,pleasant,unpleasant,NA,NA,NA,NA,NA,right,1866.5,true,NA,NA,NA,NA,NA,NA,NA,NA
oXsRPEfI,3087lxlj7ptluqx9bvztb5iuvan0fr,3n8oevh1fv32q40f3lpwdkjiprhooz,oXsRPEfI,2020-0188,2021-10-31,13:47:14,15:04:19,NA,incomplete,false,true,NA,NA,4,3,NA,gray,m_s_067.jpg,NA,NA,NA,NA,NA,unpleasant,pleasant,NA,NA,NA,NA,NA,right,806.699999988079,true,NA,NA,NA,NA,NA,NA,NA,NA
oXsRPEfI,3087lxlj7ptluqx9bvztb5iuvan0fr,3n8oevh1fv32q40f3lpwdkjiprhooz,oXsRPEfI,2020-0188,2021-10-31,13:47:14,15:04:19,NA,incomplete,false,true,NA,NA,4,4,NA,gray,m_l_092.jpg,NA,NA,NA,NA,NA,pleasant,unpleasant,NA,NA,NA,NA,NA,right,1514.5,true,NA,NA,NA,NA,NA,NA,NA,NA
oXsRPEfI,3087lxlj7ptluqx9bvztb5iuvan0fr,3n8oevh1fv32q40f3lpwdkjiprhooz,oXsRPEfI,2020-0188,2021-10-31,13:47:14,15:04:19,NA,incomplete,false,true,NA,NA,4,5,NA,gray,m_l_014.jpg,NA,NA,NA,NA,NA,unpleasant,pleasant,NA,NA,NA,NA,NA,right,1518.59999999404,true,NA,NA,NA,NA,NA,NA,NA,NA
oXsRPEfI,3087lxlj7ptluqx9bvztb5iuvan0fr,3n8oevh1fv32q40f3lpwdkjiprhooz,oXsRPEfI,2020-0188,2021-10-31,13:47:14,15:04:19,NA,incomplete,false,true,NA,NA,4,6,NA,green,m_l_010.jpg,NA,NA,NA,NA,NA,unpleasant,pleasant,NA,NA,NA,NA,NA,right,1405.5,true,NA,NA,NA,NA,NA,NA,NA,NA
oXsRPEfI,3087lxlj7ptluqx9bvztb5iuvan0fr,3n8oevh1fv32q40f3lpwdkjiprhooz,oXsRPEfI,2020-0188,2021-10-31,13:47:14,15:04:19,NA,incomplete,false,true,NA,NA,4,7,NA,green,m_s_033.jpg,NA,NA,NA,NA,NA,unpleasant,pleasant,NA,NA,NA,NA,NA,right,2463,true,NA,NA,NA,NA,NA,NA,NA,NA
oXsRPEfI,3087lxlj7ptluqx9bvztb5iuvan0fr,3n8oevh1fv32q40f3lpwdkjiprhooz,oXsRPEfI,2020-0188,2021-10-31,13:47:14,15:04:19,NA,incomplete,false,true,NA,NA,4,8,NA,green,n_s_014.jpg,NA,NA,NA,NA,NA,unpleasant,pleasant,NA,NA,NA,NA,NA,left,994.90000000596,true,NA,NA,NA,NA,NA,NA,NA,NA
oXsRPEfI,3087lxlj7ptluqx9bvztb5iuvan0fr,3n8oevh1fv32q40f3lpwdkjiprhooz,oXsRPEfI,2020-0188,2021-10-31,13:47:14,15:04:19,NA,incomplete,false,true,NA,NA,4,9,NA,green,m_l_106.jpg,NA,NA,NA,NA,NA,unpleasant,pleasant,NA,NA,NA,NA,NA,left,1220.29999998212,true,NA,NA,NA,NA,NA,NA,NA,NA
oXsRPEfI,3087lxlj7ptluqx9bvztb5iuvan0fr,3n8oevh1fv32q40f3lpwdkjiprhooz,oXsRPEfI,2020-0188,2021-10-31,13:47:14,15:04:19,NA,incomplete,false,true,NA,NA,4,10,NA,green,n_s_021.jpg,NA,NA,NA,NA,NA,unpleasant,pleasant,NA,NA,NA,NA,NA,right,999.699999988079,true,NA,NA,NA,NA,NA,NA,NA,NA
oXsRPEfI,3087lxlj7ptluqx9bvztb5iuvan0fr,3n8oevh1fv32q40f3lpwdkjiprhooz,oXsRPEfI,2020-0188,2021-10-31,13:47:14,15:04:19,NA,incomplete,false,true,NA,NA,4,11,NA,green,m_s_091.jpg,NA,NA,NA,NA,NA,pleasant,unpleasant,NA,NA,NA,NA,NA,right,1492.5,true,NA,NA,NA,NA,NA,NA,NA,NA
oXsRPEfI,3087lxlj7ptluqx9bvztb5iuvan0fr,3n8oevh1fv32q40f3lpwdkjiprhooz,oXsRPEfI,2020-0188,2021-10-31,13:47:14,15:04:19,NA,incomplete,false,true,NA,NA,4,12,NA,orange,n_l_110.jpg,NA,NA,NA,NA,NA,unpleasant,pleasant,NA,NA,NA,NA,NA,right,1704.20000001788,true,NA,NA,NA,NA,NA,NA,NA,NA
oXsRPEfI,3087lxlj7ptluqx9bvztb5iuvan0fr,3n8oevh1fv32q40f3lpwdkjiprhooz,oXsRPEfI,2020-0188,2021-10-31,13:47:14,15:04:19,NA,incomplete,false,true,NA,NA,4,13,NA,orange,n_s_105.jpg,NA,NA,NA,NA,NA,pleasant,unpleasant,NA,NA,NA,NA,NA,right,1887,true,NA,NA,NA,NA,NA,NA,NA,NA
oXsRPEfI,3087lxlj7ptluqx9bvztb5iuvan0fr,3n8oevh1fv32q40f3lpwdkjiprhooz,oXsRPEfI,2020-0188,2021-10-31,13:47:14,15:04:19,NA,incomplete,false,true,NA,NA,4,14,NA,orange,n_l_087.jpg,NA,NA,NA,NA,NA,unpleasant,pleasant,NA,NA,NA,NA,NA,right,1725.70000001788,true,NA,NA,NA,NA,NA,NA,NA,NA
oXsRPEfI,3087lxlj7ptluqx9bvztb5iuvan0fr,3n8oevh1fv32q40f3lpwdkjiprhooz,oXsRPEfI,2020-0188,2021-10-31,13:47:14,15:04:19,NA,incomplete,false,true,NA,NA,4,15,NA,orange,m_l_094.jpg,NA,NA,NA,NA,NA,pleasant,unpleasant,NA,NA,NA,NA,NA,right,1363.59999999404,true,NA,NA,NA,NA,NA,NA,NA,NA
oXsRPEfI,3087lxlj7ptluqx9bvztb5iuvan0fr,3n8oevh1fv32q40f3lpwdkjiprhooz,oXsRPEfI,2020-0188,2021-10-31,13:47:14,15:04:19,NA,incomplete,false,true,NA,NA,4,16,NA,orange,m_l_080.jpg,NA,NA,NA,NA,NA,pleasant,unpleasant,NA,NA,NA,NA,NA,left,1326.90000000596,true,NA,NA,NA,NA,NA,NA,NA,NA
oXsRPEfI,3087lxlj7ptluqx9bvztb5iuvan0fr,3n8oevh1fv32q40f3lpwdkjiprhooz,oXsRPEfI,2020-0188,2021-10-31,13:47:14,15:04:19,NA,incomplete,false,true,NA,NA,4,17,NA,orange,n_l_040.jpg,NA,NA,NA,NA,NA,pleasant,unpleasant,NA,NA,NA,NA,NA,right,1146.5,true,NA,NA,NA,NA,NA,NA,NA,NA
oXsRPEfI,3087lxlj7ptluqx9bvztb5iuvan0fr,3n8oevh1fv32q40f3lpwdkjiprhooz,oXsRPEfI,2020-0188,2021-10-31,13:47:14,15:04:19,NA,incomplete,false,true,NA,NA,4,18,NA,purple,n_s_024.jpg,NA,NA,NA,NA,NA,unpleasant,pleasant,NA,NA,NA,NA,NA,right,956.200000017881,true,NA,NA,NA,NA,NA,NA,NA,NA
oXsRPEfI,3087lxlj7ptluqx9bvztb5iuvan0fr,3n8oevh1fv32q40f3lpwdkjiprhooz,oXsRPEfI,2020-0188,2021-10-31,13:47:14,15:04:19,NA,incomplete,false,true,NA,NA,4,19,NA,purple,m_l_093.jpg,NA,NA,NA,NA,NA,pleasant,unpleasant,NA,NA,NA,NA,NA,right,1390.29999998212,true,NA,NA,NA,NA,NA,NA,NA,NA
oXsRPEfI,3087lxlj7ptluqx9bvztb5iuvan0fr,3n8oevh1fv32q40f3lpwdkjiprhooz,oXsRPEfI,2020-0188,2021-10-31,13:47:14,15:04:19,NA,incomplete,false,true,NA,NA,4,20,NA,purple,m_l_045.jpg,NA,NA,NA,NA,NA,pleasant,unpleasant,NA,NA,NA,NA,NA,right,1462.30000001192,true,NA,NA,NA,NA,NA,NA,NA,NA
oXsRPEfI,3087lxlj7ptluqx9bvztb5iuvan0fr,3n8oevh1fv32q40f3lpwdkjiprhooz,oXsRPEfI,2020-0188,2021-10-31,13:47:14,15:04:19,NA,incomplete,false,true,NA,NA,4,21,NA,purple,m_l_117.jpg,NA,NA,NA,NA,NA,pleasant,unpleasant,NA,NA,NA,NA,NA,left,1382.90000000596,true,NA,NA,NA,NA,NA,NA,NA,NA
oXsRPEfI,3087lxlj7ptluqx9bvztb5iuvan0fr,3n8oevh1fv32q40f3lpwdkjiprhooz,oXsRPEfI,2020-0188,2021-10-31,13:47:14,15:04:19,NA,incomplete,false,true,NA,NA,4,22,NA,purple,n_l_017.jpg,NA,NA,NA,NA,NA,pleasant,unpleasant,NA,NA,NA,NA,NA,left,2048.40000000596,true,NA,NA,NA,NA,NA,NA,NA,NA
oXsRPEfI,3087lxlj7ptluqx9bvztb5iuvan0fr,3n8oevh1fv32q40f3lpwdkjiprhooz,oXsRPEfI,2020-0188,2021-10-31,13:47:14,15:04:19,NA,incomplete,false,true,NA,NA,4,23,NA,purple,m_l_007.jpg,NA,NA,NA,NA,NA,pleasant,unpleasant,NA,NA,NA,NA,NA,left,978.700000017881,true,NA,NA,NA,NA,NA,NA,NA,NA
oXsRPEfI,3087lxlj7ptluqx9bvztb5iuvan0fr,3n8oevh1fv32q40f3lpwdkjiprhooz,oXsRPEfI,2020-0188,2021-10-31,13:47:14,15:04:19,NA,incomplete,false,true,NA,NA,4,24,NA,yellow,m_l_051.jpg,NA,NA,NA,NA,NA,unpleasant,pleasant,NA,NA,NA,NA,NA,left,1553.09999999404,true,NA,NA,NA,NA,NA,NA,NA,NA
oXsRPEfI,3087lxlj7ptluqx9bvztb5iuvan0fr,3n8oevh1fv32q40f3lpwdkjiprhooz,oXsRPEfI,2020-0188,2021-10-31,13:47:14,15:04:19,NA,incomplete,false,true,NA,NA,4,25,NA,yellow,m_s_026.jpg,NA,NA,NA,NA,NA,unpleasant,pleasant,NA,NA,NA,NA,NA,left,1649.90000000596,true,NA,NA,NA,NA,NA,NA,NA,NA
oXsRPEfI,3087lxlj7ptluqx9bvztb5iuvan0fr,3n8oevh1fv32q40f3lpwdkjiprhooz,oXsRPEfI,2020-0188,2021-10-31,13:47:14,15:04:19,NA,incomplete,false,true,NA,NA,4,26,NA,yellow,n_s_053.jpg,NA,NA,NA,NA,NA,unpleasant,pleasant,NA,NA,NA,NA,NA,left,1177.40000000596,true,NA,NA,NA,NA,NA,NA,NA,NA
oXsRPEfI,3087lxlj7ptluqx9bvztb5iuvan0fr,3n8oevh1fv32q40f3lpwdkjiprhooz,oXsRPEfI,2020-0188,2021-10-31,13:47:14,15:04:19,NA,incomplete,false,true,NA,NA,4,27,NA,yellow,m_s_080.jpg,NA,NA,NA,NA,NA,unpleasant,pleasant,NA,NA,NA,NA,NA,right,1790.09999999404,true,NA,NA,NA,NA,NA,NA,NA,NA
oXsRPEfI,3087lxlj7ptluqx9bvztb5iuvan0fr,3n8oevh1fv32q40f3lpwdkjiprhooz,oXsRPEfI,2020-0188,2021-10-31,13:47:14,15:04:19,NA,incomplete,false,true,NA,NA,4,28,NA,yellow,n_l_112.jpg,NA,NA,NA,NA,NA,pleasant,unpleasant,NA,NA,NA,NA,NA,left,986.200000017881,true,NA,NA,NA,NA,NA,NA,NA,NA
oXsRPEfI,3087lxlj7ptluqx9bvztb5iuvan0fr,3n8oevh1fv32q40f3lpwdkjiprhooz,oXsRPEfI,2020-0188,2021-10-31,13:47:14,15:04:19,NA,incomplete,false,true,NA,NA,4,29,NA,yellow,m_s_096.jpg,NA,NA,NA,NA,NA,pleasant,unpleasant,NA,NA,NA,NA,NA,left,1033.09999999404,true,NA,NA,NA,NA,NA,NA,NA,NA
oXsRPEfI,3087lxlj7ptluqx9bvztb5iuvan0fr,3n8oevh1fv32q40f3lpwdkjiprhooz,oXsRPEfI,2020-0188,2021-10-31,13:47:14,15:04:19,NA,incomplete,false,true,NA,NA,4,30,NA,brown,m_l_012.jpg,NA,NA,NA,NA,NA,pleasant,unpleasant,NA,NA,NA,NA,NA,left,1208.30000001192,true,NA,NA,NA,NA,NA,NA,NA,NA
oXsRPEfI,3087lxlj7ptluqx9bvztb5iuvan0fr,3n8oevh1fv32q40f3lpwdkjiprhooz,oXsRPEfI,2020-0188,2021-10-31,13:47:14,15:04:19,NA,incomplete,false,true,NA,NA,4,31,NA,brown,n_s_113.jpg,NA,NA,NA,NA,NA,pleasant,unpleasant,NA,NA,NA,NA,NA,left,932.200000017881,true,NA,NA,NA,NA,NA,NA,NA,NA
oXsRPEfI,3087lxlj7ptluqx9bvztb5iuvan0fr,3n8oevh1fv32q40f3lpwdkjiprhooz,oXsRPEfI,2020-0188,2021-10-31,13:47:14,15:04:19,NA,incomplete,false,true,NA,NA,4,32,NA,brown,m_l_068.jpg,NA,NA,NA,NA,NA,pleasant,unpleasant,NA,NA,NA,NA,NA,left,828.699999988079,true,NA,NA,NA,NA,NA,NA,NA,NA
oXsRPEfI,3087lxlj7ptluqx9bvztb5iuvan0fr,3n8oevh1fv32q40f3lpwdkjiprhooz,oXsRPEfI,2020-0188,2021-10-31,13:47:14,15:04:19,NA,incomplete,false,true,NA,NA,4,33,NA,brown,m_s_069.jpg,NA,NA,NA,NA,NA,pleasant,unpleasant,NA,NA,NA,NA,NA,left,955.700000017881,true,NA,NA,NA,NA,NA,NA,NA,NA
oXsRPEfI,3087lxlj7ptluqx9bvztb5iuvan0fr,3n8oevh1fv32q40f3lpwdkjiprhooz,oXsRPEfI,2020-0188,2021-10-31,13:47:14,15:04:19,NA,incomplete,false,true,NA,NA,4,34,NA,brown,n_s_052.jpg,NA,NA,NA,NA,NA,unpleasant,pleasant,NA,NA,NA,NA,NA,left,1126.5,true,NA,NA,NA,NA,NA,NA,NA,NA
oXsRPEfI,3087lxlj7ptluqx9bvztb5iuvan0fr,3n8oevh1fv32q40f3lpwdkjiprhooz,oXsRPEfI,2020-0188,2021-10-31,13:47:14,15:04:19,NA,incomplete,false,true,NA,NA,4,35,NA,brown,n_s_104.jpg,NA,NA,NA,NA,NA,unpleasant,pleasant,NA,NA,NA,NA,NA,right,1239.29999998212,true,NA,NA,NA,NA,NA,NA,NA,NA
oXsRPEfI,3087lxlj7ptluqx9bvztb5iuvan0fr,3n8oevh1fv32q40f3lpwdkjiprhooz,oXsRPEfI,2020-0188,2021-10-31,13:47:14,15:04:19,NA,incomplete,false,NA,NA,true,4,0,NA,NA,NA,right,m_s_033.jpg,gray,green,NA,NA,NA,NA,NA,NA,NA,NA,NA,NaN,NA,8319.59999999404,left,0,NA,NA,NA,NA,NA
oXsRPEfI,3087lxlj7ptluqx9bvztb5iuvan0fr,3n8oevh1fv32q40f3lpwdkjiprhooz,oXsRPEfI,2020-0188,2021-10-31,13:47:14,15:04:19,NA,incomplete,false,NA,NA,true,4,1,NA,NA,NA,left,m_l_093.jpg,purple,yellow,NA,NA,NA,NA,NA,NA,NA,NA,NA,NaN,NA,6484.699999988079,left,1,NA,NA,NA,NA,NA
oXsRPEfI,3087lxlj7ptluqx9bvztb5iuvan0fr,3n8oevh1fv32q40f3lpwdkjiprhooz,oXsRPEfI,2020-0188,2021-10-31,13:47:14,15:04:19,NA,incomplete,false,NA,NA,true,4,2,NA,NA,NA,right,m_l_092.jpg,green,gray,NA,NA,NA,NA,NA,NA,NA,NA,NA,NaN,NA,1696.699999988079,right,1,NA,NA,NA,NA,NA
oXsRPEfI,3087lxlj7ptluqx9bvztb5iuvan0fr,3n8oevh1fv32q40f3lpwdkjiprhooz,oXsRPEfI,2020-0188,2021-10-31,13:47:14,15:04:19,NA,incomplete,false,NA,NA,true,4,3,NA,NA,NA,right,n_s_113.jpg,yellow,brown,NA,NA,NA,NA,NA,NA,NA,NA,NA,NaN,NA,1992.6000000238419,left,0,NA,NA,NA,NA,NA
oXsRPEfI,3087lxlj7ptluqx9bvztb5iuvan0fr,3n8oevh1fv32q40f3lpwdkjiprhooz,oXsRPEfI,2020-0188,2021-10-31,13:47:14,15:04:19,NA,incomplete,false,NA,NA,true,4,4,NA,NA,NA,right,m_l_080.jpg,green,orange,NA,NA,NA,NA,NA,NA,NA,NA,NA,NaN,NA,3122,left,0,NA,NA,NA,NA,NA
oXsRPEfI,3087lxlj7ptluqx9bvztb5iuvan0fr,3n8oevh1fv32q40f3lpwdkjiprhooz,oXsRPEfI,2020-0188,2021-10-31,13:47:14,15:04:19,NA,incomplete,false,NA,NA,true,4,5,NA,NA,NA,right,m_s_091.jpg,orange,green,NA,NA,NA,NA,NA,NA,NA,NA,NA,NaN,NA,1726.0999999940395,right,1,NA,NA,NA,NA,NA
oXsRPEfI,3087lxlj7ptluqx9bvztb5iuvan0fr,3n8oevh1fv32q40f3lpwdkjiprhooz,oXsRPEfI,2020-0188,2021-10-31,13:47:14,15:04:19,NA,incomplete,false,NA,NA,true,4,6,NA,NA,NA,right,m_s_026.jpg,brown,yellow,NA,NA,NA,NA,NA,NA,NA,NA,NA,NaN,NA,1205.9000000059605,right,1,NA,NA,NA,NA,NA
oXsRPEfI,3087lxlj7ptluqx9bvztb5iuvan0fr,3n8oevh1fv32q40f3lpwdkjiprhooz,oXsRPEfI,2020-0188,2021-10-31,13:47:14,15:04:19,NA,incomplete,false,NA,NA,true,4,7,NA,NA,NA,left,n_l_112.jpg,yellow,brown,NA,NA,NA,NA,NA,NA,NA,NA,NA,NaN,NA,1049.4000000059605,left,1,NA,NA,NA,NA,NA
oXsRPEfI,3087lxlj7ptluqx9bvztb5iuvan0fr,3n8oevh1fv32q40f3lpwdkjiprhooz,oXsRPEfI,2020-0188,2021-10-31,13:47:14,15:04:19,NA,incomplete,false,NA,NA,true,4,8,NA,NA,NA,left,m_l_068.jpg,brown,yellow,NA,NA,NA,NA,NA,NA,NA,NA,NA,NaN,NA,1039.9000000059605,left,1,NA,NA,NA,NA,NA
oXsRPEfI,3087lxlj7ptluqx9bvztb5iuvan0fr,3n8oevh1fv32q40f3lpwdkjiprhooz,oXsRPEfI,2020-0188,2021-10-31,13:47:14,15:04:19,NA,incomplete,false,NA,NA,true,4,9,NA,NA,NA,left,n_s_105.jpg,orange,green,NA,NA,NA,NA,NA,NA,NA,NA,NA,NaN,NA,1853.2999999821186,right,0,NA,NA,NA,NA,NA
oXsRPEfI,3087lxlj7ptluqx9bvztb5iuvan0fr,3n8oevh1fv32q40f3lpwdkjiprhooz,oXsRPEfI,2020-0188,2021-10-31,13:47:14,15:04:19,NA,incomplete,false,NA,NA,true,4,10,NA,NA,NA,left,m_l_007.jpg,purple,yellow,NA,NA,NA,NA,NA,NA,NA,NA,NA,NaN,NA,1179.300000011921,left,1,NA,NA,NA,NA,NA
oXsRPEfI,3087lxlj7ptluqx9bvztb5iuvan0fr,3n8oevh1fv32q40f3lpwdkjiprhooz,oXsRPEfI,2020-0188,2021-10-31,13:47:14,15:04:19,NA,incomplete,false,NA,NA,true,4,11,NA,NA,NA,right,m_l_045.jpg,yellow,purple,NA,NA,NA,NA,NA,NA,NA,NA,NA,NaN,NA,5633.5,right,1,NA,NA,NA,NA,NA
oXsRPEfI,3087lxlj7ptluqx9bvztb5iuvan0fr,3n8oevh1fv32q40f3lpwdkjiprhooz,oXsRPEfI,2020-0188,2021-10-31,13:47:14,15:04:19,NA,incomplete,false,NA,NA,true,4,12,NA,NA,NA,left,n_l_040.jpg,orange,green,NA,NA,NA,NA,NA,NA,NA,NA,NA,NaN,NA,1755.5999999940395,right,0,NA,NA,NA,NA,NA
oXsRPEfI,3087lxlj7ptluqx9bvztb5iuvan0fr,3n8oevh1fv32q40f3lpwdkjiprhooz,oXsRPEfI,2020-0188,2021-10-31,13:47:14,15:04:19,NA,incomplete,false,NA,NA,true,4,13,NA,NA,NA,right,n_s_021.jpg,gray,green,NA,NA,NA,NA,NA,NA,NA,NA,NA,NaN,NA,1373.7000000178814,right,1,NA,NA,NA,NA,NA
oXsRPEfI,3087lxlj7ptluqx9bvztb5iuvan0fr,3n8oevh1fv32q40f3lpwdkjiprhooz,oXsRPEfI,2020-0188,2021-10-31,13:47:14,15:04:19,NA,incomplete,false,NA,NA,true,4,14,NA,NA,NA,right,n_l_087.jpg,green,orange,NA,NA,NA,NA,NA,NA,NA,NA,NA,NaN,NA,1784.9000000059605,right,1,NA,NA,NA,NA,NA
oXsRPEfI,3087lxlj7ptluqx9bvztb5iuvan0fr,3n8oevh1fv32q40f3lpwdkjiprhooz,oXsRPEfI,2020-0188,2021-10-31,13:47:14,15:04:19,NA,incomplete,false,NA,NA,true,4,15,NA,NA,NA,left,n_l_017.jpg,purple,yellow,NA,NA,NA,NA,NA,NA,NA,NA,NA,NaN,NA,1029.4000000059605,left,1,NA,NA,NA,NA,NA
oXsRPEfI,3087lxlj7ptluqx9bvztb5iuvan0fr,3n8oevh1fv32q40f3lpwdkjiprhooz,oXsRPEfI,2020-0188,2021-10-31,13:47:14,15:04:19,NA,incomplete,false,NA,NA,true,4,16,NA,NA,NA,right,n_s_115.jpg,green,gray,NA,NA,NA,NA,NA,NA,NA,NA,NA,NaN,NA,1726.699999988079,right,1,NA,NA,NA,NA,NA
oXsRPEfI,3087lxlj7ptluqx9bvztb5iuvan0fr,3n8oevh1fv32q40f3lpwdkjiprhooz,oXsRPEfI,2020-0188,2021-10-31,13:47:14,15:04:19,NA,incomplete,false,NA,NA,true,4,17,NA,NA,NA,right,n_s_104.jpg,yellow,brown,NA,NA,NA,NA,NA,NA,NA,NA,NA,NaN,NA,1737.8999999761581,left,0,NA,NA,NA,NA,NA
oXsRPEfI,3087lxlj7ptluqx9bvztb5iuvan0fr,3n8oevh1fv32q40f3lpwdkjiprhooz,oXsRPEfI,2020-0188,2021-10-31,13:47:14,15:04:19,NA,incomplete,false,NA,NA,true,4,18,NA,NA,NA,right,n_s_014.jpg,orange,green,NA,NA,NA,NA,NA,NA,NA,NA,NA,NaN,NA,1932.3999999761581,right,1,NA,NA,NA,NA,NA
oXsRPEfI,3087lxlj7ptluqx9bvztb5iuvan0fr,3n8oevh1fv32q40f3lpwdkjiprhooz,oXsRPEfI,2020-0188,2021-10-31,13:47:14,15:04:19,NA,incomplete,false,NA,NA,true,4,19,NA,NA,NA,left,m_l_014.jpg,gray,green,NA,NA,NA,NA,NA,NA,NA,NA,NA,NaN,NA,990.0999999940395,left,1,NA,NA,NA,NA,NA
oXsRPEfI,3087lxlj7ptluqx9bvztb5iuvan0fr,3n8oevh1fv32q40f3lpwdkjiprhooz,oXsRPEfI,2020-0188,2021-10-31,13:47:14,15:04:19,NA,incomplete,false,NA,NA,true,4,20,NA,NA,NA,left,m_s_096.jpg,yellow,purple,NA,NA,NA,NA,NA,NA,NA,NA,NA,NaN,NA,1403.5,right,0,NA,NA,NA,NA,NA
oXsRPEfI,3087lxlj7ptluqx9bvztb5iuvan0fr,3n8oevh1fv32q40f3lpwdkjiprhooz,oXsRPEfI,2020-0188,2021-10-31,13:47:14,15:04:19,NA,incomplete,false,NA,NA,true,4,21,NA,NA,NA,right,n_s_053.jpg,purple,yellow,NA,NA,NA,NA,NA,NA,NA,NA,NA,NaN,NA,1088.2999999821186,left,0,NA,NA,NA,NA,NA
oXsRPEfI,3087lxlj7ptluqx9bvztb5iuvan0fr,3n8oevh1fv32q40f3lpwdkjiprhooz,oXsRPEfI,2020-0188,2021-10-31,13:47:14,15:04:19,NA,incomplete,false,NA,true,NA,4,0,NA,NA,NA,left,NA,NA,NA,present,NA,NA,m_l_092.jpg,gray,n_s_014.jpg,green,between,NA,NaN,NA,NA,NA,NA,left,4650.5,1,1,3728
oXsRPEfI,3087lxlj7ptluqx9bvztb5iuvan0fr,3n8oevh1fv32q40f3lpwdkjiprhooz,oXsRPEfI,2020-0188,2021-10-31,13:47:14,15:04:19,NA,incomplete,false,NA,true,NA,4,1,NA,NA,NA,left,NA,NA,NA,present,NA,NA,m_s_033.jpg,green,m_s_091.jpg,green,within,NA,NaN,NA,NA,NA,NA,right,3837.2999999821186,0,0,1285.5999999940395
oXsRPEfI,3087lxlj7ptluqx9bvztb5iuvan0fr,3n8oevh1fv32q40f3lpwdkjiprhooz,oXsRPEfI,2020-0188,2021-10-31,13:47:14,15:04:19,NA,incomplete,false,NA,true,NA,4,2,NA,NA,NA,right,NA,NA,NA,present,NA,NA,n_l_087.jpg,orange,n_s_021.jpg,green,between,NA,NaN,NA,NA,NA,NA,right,2757.800000011921,1,1,3002.800000011921
oXsRPEfI,3087lxlj7ptluqx9bvztb5iuvan0fr,3n8oevh1fv32q40f3lpwdkjiprhooz,oXsRPEfI,2020-0188,2021-10-31,13:47:14,15:04:19,NA,incomplete,false,NA,true,NA,4,3,NA,NA,NA,left,NA,NA,NA,present,NA,NA,n_s_113.jpg,brown,n_s_104.jpg,brown,within,NA,NaN,NA,NA,NA,NA,right,3580.4000000059605,0,0,2758.7999999821186
oXsRPEfI,3087lxlj7ptluqx9bvztb5iuvan0fr,3n8oevh1fv32q40f3lpwdkjiprhooz,oXsRPEfI,2020-0188,2021-10-31,13:47:14,15:04:19,NA,incomplete,false,NA,true,NA,4,4,NA,NA,NA,right,NA,NA,NA,present,NA,NA,m_l_014.jpg,gray,n_s_115.jpg,gray,within,NA,NaN,NA,NA,NA,NA,left,1894.5999999940395,0,0,958.4000000059605
oXsRPEfI,3087lxlj7ptluqx9bvztb5iuvan0fr,3n8oevh1fv32q40f3lpwdkjiprhooz,oXsRPEfI,2020-0188,2021-10-31,13:47:14,15:04:19,NA,incomplete,false,NA,true,NA,4,5,NA,NA,NA,right,NA,NA,NA,present,NA,NA,m_l_045.jpg,purple,m_l_080.jpg,orange,between,NA,NaN,NA,NA,NA,NA,right,4090.800000011921,1,1,3590.800000011921
oXsRPEfI,3087lxlj7ptluqx9bvztb5iuvan0fr,3n8oevh1fv32q40f3lpwdkjiprhooz,oXsRPEfI,2020-0188,2021-10-31,13:47:14,15:04:19,NA,incomplete,false,NA,true,NA,4,6,NA,NA,NA,left,NA,NA,NA,present,NA,NA,m_s_026.jpg,yellow,m_s_096.jpg,yellow,within,NA,NaN,NA,NA,NA,NA,left,1862.5,1,0,735.8000000119209
oXsRPEfI,3087lxlj7ptluqx9bvztb5iuvan0fr,3n8oevh1fv32q40f3lpwdkjiprhooz,oXsRPEfI,2020-0188,2021-10-31,13:47:14,15:04:19,NA,incomplete,false,NA,true,NA,4,7,NA,NA,NA,right,NA,NA,NA,present,NA,NA,n_l_040.jpg,orange,n_s_105.jpg,orange,within,NA,NaN,NA,NA,NA,NA,right,3825.2999999821186,1,0,1000.9000000059605
oXsRPEfI,3087lxlj7ptluqx9bvztb5iuvan0fr,3n8oevh1fv32q40f3lpwdkjiprhooz,oXsRPEfI,2020-0188,2021-10-31,13:47:14,15:04:19,NA,incomplete,false,NA,true,NA,4,8,NA,NA,NA,right,NA,NA,NA,present,NA,NA,m_l_007.jpg,purple,m_l_093.jpg,purple,within,NA,NaN,NA,NA,NA,NA,right,1980.9000000059605,1,0,764.1000000238419
oXsRPEfI,3087lxlj7ptluqx9bvztb5iuvan0fr,3n8oevh1fv32q40f3lpwdkjiprhooz,oXsRPEfI,2020-0188,2021-10-31,13:47:14,15:04:19,NA,incomplete,false,NA,true,NA,4,9,NA,NA,NA,left,NA,NA,NA,present,NA,NA,n_l_112.jpg,yellow,m_l_068.jpg,brown,between,NA,NaN,NA,NA,NA,NA,left,4621.5,1,1,1383.800000011921
oXsRPEfI,3087lxlj7ptluqx9bvztb5iuvan0fr,3n8oevh1fv32q40f3lpwdkjiprhooz,oXsRPEfI,2020-0188,2021-10-31,13:47:14,15:04:19,NA,incomplete,false,NA,true,NA,4,10,NA,NA,NA,left,NA,NA,NA,present,NA,NA,n_l_017.jpg,purple,n_s_053.jpg,yellow,between,NA,NaN,NA,NA,NA,NA,left,3286.5,1,1,1304.5
oXsRPEfI,3087lxlj7ptluqx9bvztb5iuvan0fr,3n8oevh1fv32q40f3lpwdkjiprhooz,oXsRPEfI,2020-0188,2021-10-31,13:47:14,15:04:19,NA,incomplete,false,true,NA,NA,5,0,NA,white,n_l_062.jpg,NA,NA,NA,NA,NA,pleasant,unpleasant,NA,NA,NA,NA,NA,left,1672,true,NA,NA,NA,NA,NA,NA,NA,NA
oXsRPEfI,3087lxlj7ptluqx9bvztb5iuvan0fr,3n8oevh1fv32q40f3lpwdkjiprhooz,oXsRPEfI,2020-0188,2021-10-31,13:47:14,15:04:19,NA,incomplete,false,true,NA,NA,5,1,NA,white,m_s_008.jpg,NA,NA,NA,NA,NA,unpleasant,pleasant,NA,NA,NA,NA,NA,left,1732.19999998808,true,NA,NA,NA,NA,NA,NA,NA,NA
oXsRPEfI,3087lxlj7ptluqx9bvztb5iuvan0fr,3n8oevh1fv32q40f3lpwdkjiprhooz,oXsRPEfI,2020-0188,2021-10-31,13:47:14,15:04:19,NA,incomplete,false,true,NA,NA,5,2,NA,white,m_l_025.jpg,NA,NA,NA,NA,NA,pleasant,unpleasant,NA,NA,NA,NA,NA,left,857.5,true,NA,NA,NA,NA,NA,NA,NA,NA
oXsRPEfI,3087lxlj7ptluqx9bvztb5iuvan0fr,3n8oevh1fv32q40f3lpwdkjiprhooz,oXsRPEfI,2020-0188,2021-10-31,13:47:14,15:04:19,NA,incomplete,false,true,NA,NA,5,3,NA,white,n_l_010.jpg,NA,NA,NA,NA,NA,pleasant,unpleasant,NA,NA,NA,NA,NA,left,1279.09999999404,true,NA,NA,NA,NA,NA,NA,NA,NA
oXsRPEfI,3087lxlj7ptluqx9bvztb5iuvan0fr,3n8oevh1fv32q40f3lpwdkjiprhooz,oXsRPEfI,2020-0188,2021-10-31,13:47:14,15:04:19,NA,incomplete,false,true,NA,NA,5,4,NA,white,m_s_017.jpg,NA,NA,NA,NA,NA,pleasant,unpleasant,NA,NA,NA,NA,NA,right,1605.80000001192,true,NA,NA,NA,NA,NA,NA,NA,NA
oXsRPEfI,3087lxlj7ptluqx9bvztb5iuvan0fr,3n8oevh1fv32q40f3lpwdkjiprhooz,oXsRPEfI,2020-0188,2021-10-31,13:47:14,15:04:19,NA,incomplete,false,true,NA,NA,5,5,NA,white,m_l_096.jpg,NA,NA,NA,NA,NA,pleasant,unpleasant,NA,NA,NA,NA,NA,left,1434.40000000596,true,NA,NA,NA,NA,NA,NA,NA,NA
oXsRPEfI,3087lxlj7ptluqx9bvztb5iuvan0fr,3n8oevh1fv32q40f3lpwdkjiprhooz,oXsRPEfI,2020-0188,2021-10-31,13:47:14,15:04:19,NA,incomplete,false,true,NA,NA,5,6,NA,black,n_l_058.jpg,NA,NA,NA,NA,NA,pleasant,unpleasant,NA,NA,NA,NA,NA,left,997.5,true,NA,NA,NA,NA,NA,NA,NA,NA
oXsRPEfI,3087lxlj7ptluqx9bvztb5iuvan0fr,3n8oevh1fv32q40f3lpwdkjiprhooz,oXsRPEfI,2020-0188,2021-10-31,13:47:14,15:04:19,NA,incomplete,false,true,NA,NA,5,7,NA,black,m_l_028.jpg,NA,NA,NA,NA,NA,pleasant,unpleasant,NA,NA,NA,NA,NA,left,862.299999982119,true,NA,NA,NA,NA,NA,NA,NA,NA
oXsRPEfI,3087lxlj7ptluqx9bvztb5iuvan0fr,3n8oevh1fv32q40f3lpwdkjiprhooz,oXsRPEfI,2020-0188,2021-10-31,13:47:14,15:04:19,NA,incomplete,false,true,NA,NA,5,8,NA,black,m_l_011.jpg,NA,NA,NA,NA,NA,unpleasant,pleasant,NA,NA,NA,NA,NA,left,907.59999999404,true,NA,NA,NA,NA,NA,NA,NA,NA
oXsRPEfI,3087lxlj7ptluqx9bvztb5iuvan0fr,3n8oevh1fv32q40f3lpwdkjiprhooz,oXsRPEfI,2020-0188,2021-10-31,13:47:14,15:04:19,NA,incomplete,false,true,NA,NA,5,9,NA,black,m_l_041.jpg,NA,NA,NA,NA,NA,unpleasant,pleasant,NA,NA,NA,NA,NA,right,1300.09999999404,true,NA,NA,NA,NA,NA,NA,NA,NA
oXsRPEfI,3087lxlj7ptluqx9bvztb5iuvan0fr,3n8oevh1fv32q40f3lpwdkjiprhooz,oXsRPEfI,2020-0188,2021-10-31,13:47:14,15:04:19,NA,incomplete,false,true,NA,NA,5,10,NA,black,n_s_008.jpg,NA,NA,NA,NA,NA,unpleasant,pleasant,NA,NA,NA,NA,NA,left,960.59999999404,true,NA,NA,NA,NA,NA,NA,NA,NA
oXsRPEfI,3087lxlj7ptluqx9bvztb5iuvan0fr,3n8oevh1fv32q40f3lpwdkjiprhooz,oXsRPEfI,2020-0188,2021-10-31,13:47:14,15:04:19,NA,incomplete,false,true,NA,NA,5,11,NA,black,m_l_101.jpg,NA,NA,NA,NA,NA,pleasant,unpleasant,NA,NA,NA,NA,NA,left,867.300000011921,true,NA,NA,NA,NA,NA,NA,NA,NA
oXsRPEfI,3087lxlj7ptluqx9bvztb5iuvan0fr,3n8oevh1fv32q40f3lpwdkjiprhooz,oXsRPEfI,2020-0188,2021-10-31,13:47:14,15:04:19,NA,incomplete,false,true,NA,NA,5,12,NA,red,n_s_086.jpg,NA,NA,NA,NA,NA,unpleasant,pleasant,NA,NA,NA,NA,NA,left,880.09999999404,true,NA,NA,NA,NA,NA,NA,NA,NA
oXsRPEfI,3087lxlj7ptluqx9bvztb5iuvan0fr,3n8oevh1fv32q40f3lpwdkjiprhooz,oXsRPEfI,2020-0188,2021-10-31,13:47:14,15:04:19,NA,incomplete,false,true,NA,NA,5,13,NA,red,n_l_022.jpg,NA,NA,NA,NA,NA,pleasant,unpleasant,NA,NA,NA,NA,NA,left,1328.39999997616,true,NA,NA,NA,NA,NA,NA,NA,NA
oXsRPEfI,3087lxlj7ptluqx9bvztb5iuvan0fr,3n8oevh1fv32q40f3lpwdkjiprhooz,oXsRPEfI,2020-0188,2021-10-31,13:47:14,15:04:19,NA,incomplete,false,true,NA,NA,5,14,NA,red,n_s_072.jpg,NA,NA,NA,NA,NA,pleasant,unpleasant,NA,NA,NA,NA,NA,right,1570.5,true,NA,NA,NA,NA,NA,NA,NA,NA
oXsRPEfI,3087lxlj7ptluqx9bvztb5iuvan0fr,3n8oevh1fv32q40f3lpwdkjiprhooz,oXsRPEfI,2020-0188,2021-10-31,13:47:14,15:04:19,NA,incomplete,false,true,NA,NA,5,15,NA,red,m_s_083.jpg,NA,NA,NA,NA,NA,unpleasant,pleasant,NA,NA,NA,NA,NA,right,1182.5,true,NA,NA,NA,NA,NA,NA,NA,NA
