workerId,hitId,assignmentId,subject,studyid,exp_date,exp_start,exp_end,time_start,time_end,practice,encoding,memory,association,block,trial,event_order,event,stim,answer,object,left_context,right_context,context_type,label_left,label_right,left_image,left_event,right_image,right_event,condition,response,response_time,response_acc,association_response_time,association_response,association_acc,order_response,order_response_time,order_acc,distance_response,distance_response_time
TZpCjSAn,375vsr8fwzmfz1886kcfytzzg59zr5,3nql1cs15vl9a2deakk8a3bszsoyvt,TZpCjSAn,2020-0188,2021-10-30,15:09:04,16:53:19,NA,incomplete,true,true,NA,NA,0,0,NA,white,n_s_064.jpg,NA,NA,NA,NA,NA,pleasant,unpleasant,NA,NA,NA,NA,NA,left,2618.29999995232,true,NA,NA,NA,NA,NA,NA,NA,NA
TZpCjSAn,375vsr8fwzmfz1886kcfytzzg59zr5,3nql1cs15vl9a2deakk8a3bszsoyvt,TZpCjSAn,2020-0188,2021-10-30,15:09:04,16:53:19,NA,incomplete,true,true,NA,NA,0,1,NA,white,n_s_077.jpg,NA,NA,NA,NA,NA,pleasant,unpleasant,NA,NA,NA,NA,NA,left,1567.20000004768,true,NA,NA,NA,NA,NA,NA,NA,NA
TZpCjSAn,375vsr8fwzmfz1886kcfytzzg59zr5,3nql1cs15vl9a2deakk8a3bszsoyvt,TZpCjSAn,2020-0188,2021-10-30,15:09:04,16:53:19,NA,incomplete,true,true,NA,NA,0,2,NA,white,n_s_071.jpg,NA,NA,NA,NA,NA,unpleasant,pleasant,NA,NA,NA,NA,NA,right,1580.59999990463,true,NA,NA,NA,NA,NA,NA,NA,NA
TZpCjSAn,375vsr8fwzmfz1886kcfytzzg59zr5,3nql1cs15vl9a2deakk8a3bszsoyvt,TZpCjSAn,2020-0188,2021-10-30,15:09:04,16:53:19,NA,incomplete,true,true,NA,NA,0,3,NA,white,m_s_114.jpg,NA,NA,NA,NA,NA,pleasant,unpleasant,NA,NA,NA,NA,NA,right,1466.10000002384,true,NA,NA,NA,NA,NA,NA,NA,NA
TZpCjSAn,375vsr8fwzmfz1886kcfytzzg59zr5,3nql1cs15vl9a2deakk8a3bszsoyvt,TZpCjSAn,2020-0188,2021-10-30,15:09:04,16:53:19,NA,incomplete,true,true,NA,NA,0,4,NA,white,n_s_051.jpg,NA,NA,NA,NA,NA,unpleasant,pleasant,NA,NA,NA,NA,NA,right,1703.79999995232,true,NA,NA,NA,NA,NA,NA,NA,NA
TZpCjSAn,375vsr8fwzmfz1886kcfytzzg59zr5,3nql1cs15vl9a2deakk8a3bszsoyvt,TZpCjSAn,2020-0188,2021-10-30,15:09:04,16:53:19,NA,incomplete,true,true,NA,NA,0,5,NA,white,m_l_007.jpg,NA,NA,NA,NA,NA,unpleasant,pleasant,NA,NA,NA,NA,NA,right,2149.09999990463,true,NA,NA,NA,NA,NA,NA,NA,NA
TZpCjSAn,375vsr8fwzmfz1886kcfytzzg59zr5,3nql1cs15vl9a2deakk8a3bszsoyvt,TZpCjSAn,2020-0188,2021-10-30,15:09:04,16:53:19,NA,incomplete,true,true,NA,NA,0,6,NA,yellow,n_l_086.jpg,NA,NA,NA,NA,NA,unpleasant,pleasant,NA,NA,NA,NA,NA,right,2058.70000004768,true,NA,NA,NA,NA,NA,NA,NA,NA
TZpCjSAn,375vsr8fwzmfz1886kcfytzzg59zr5,3nql1cs15vl9a2deakk8a3bszsoyvt,TZpCjSAn,2020-0188,2021-10-30,15:09:04,16:53:19,NA,incomplete,true,true,NA,NA,0,7,NA,yellow,n_s_098.jpg,NA,NA,NA,NA,NA,unpleasant,pleasant,NA,NA,NA,NA,NA,right,1600.39999997616,true,NA,NA,NA,NA,NA,NA,NA,NA
TZpCjSAn,375vsr8fwzmfz1886kcfytzzg59zr5,3nql1cs15vl9a2deakk8a3bszsoyvt,TZpCjSAn,2020-0188,2021-10-30,15:09:04,16:53:19,NA,incomplete,true,true,NA,NA,0,8,NA,yellow,n_s_015.jpg,NA,NA,NA,NA,NA,pleasant,unpleasant,NA,NA,NA,NA,NA,left,1533.89999997616,true,NA,NA,NA,NA,NA,NA,NA,NA
TZpCjSAn,375vsr8fwzmfz1886kcfytzzg59zr5,3nql1cs15vl9a2deakk8a3bszsoyvt,TZpCjSAn,2020-0188,2021-10-30,15:09:04,16:53:19,NA,incomplete,true,true,NA,NA,0,9,NA,yellow,n_l_080.jpg,NA,NA,NA,NA,NA,unpleasant,pleasant,NA,NA,NA,NA,NA,right,1138.69999992847,true,NA,NA,NA,NA,NA,NA,NA,NA
TZpCjSAn,375vsr8fwzmfz1886kcfytzzg59zr5,3nql1cs15vl9a2deakk8a3bszsoyvt,TZpCjSAn,2020-0188,2021-10-30,15:09:04,16:53:19,NA,incomplete,true,true,NA,NA,0,10,NA,yellow,n_s_039.jpg,NA,NA,NA,NA,NA,unpleasant,pleasant,NA,NA,NA,NA,NA,right,1487.5,true,NA,NA,NA,NA,NA,NA,NA,NA
TZpCjSAn,375vsr8fwzmfz1886kcfytzzg59zr5,3nql1cs15vl9a2deakk8a3bszsoyvt,TZpCjSAn,2020-0188,2021-10-30,15:09:04,16:53:19,NA,incomplete,true,true,NA,NA,0,11,NA,yellow,m_s_071.jpg,NA,NA,NA,NA,NA,pleasant,unpleasant,NA,NA,NA,NA,NA,left,1588.69999992847,true,NA,NA,NA,NA,NA,NA,NA,NA
TZpCjSAn,375vsr8fwzmfz1886kcfytzzg59zr5,3nql1cs15vl9a2deakk8a3bszsoyvt,TZpCjSAn,2020-0188,2021-10-30,15:09:04,16:53:19,NA,incomplete,true,true,NA,NA,0,12,NA,gray,n_l_002.jpg,NA,NA,NA,NA,NA,unpleasant,pleasant,NA,NA,NA,NA,NA,right,2097.89999997616,true,NA,NA,NA,NA,NA,NA,NA,NA
TZpCjSAn,375vsr8fwzmfz1886kcfytzzg59zr5,3nql1cs15vl9a2deakk8a3bszsoyvt,TZpCjSAn,2020-0188,2021-10-30,15:09:04,16:53:19,NA,incomplete,true,true,NA,NA,0,13,NA,gray,n_s_081.jpg,NA,NA,NA,NA,NA,pleasant,unpleasant,NA,NA,NA,NA,NA,none,0,false,NA,NA,NA,NA,NA,NA,NA,NA
TZpCjSAn,375vsr8fwzmfz1886kcfytzzg59zr5,3nql1cs15vl9a2deakk8a3bszsoyvt,TZpCjSAn,2020-0188,2021-10-30,15:09:04,16:53:19,NA,incomplete,true,true,NA,NA,0,14,NA,gray,n_s_046.jpg,NA,NA,NA,NA,NA,unpleasant,pleasant,NA,NA,NA,NA,NA,left,884.699999928474,true,NA,NA,NA,NA,NA,NA,NA,NA
TZpCjSAn,375vsr8fwzmfz1886kcfytzzg59zr5,3nql1cs15vl9a2deakk8a3bszsoyvt,TZpCjSAn,2020-0188,2021-10-30,15:09:04,16:53:19,NA,incomplete,true,true,NA,NA,0,15,NA,gray,m_l_048.jpg,NA,NA,NA,NA,NA,unpleasant,pleasant,NA,NA,NA,NA,NA,right,1449.29999995232,true,NA,NA,NA,NA,NA,NA,NA,NA
TZpCjSAn,375vsr8fwzmfz1886kcfytzzg59zr5,3nql1cs15vl9a2deakk8a3bszsoyvt,TZpCjSAn,2020-0188,2021-10-30,15:09:04,16:53:19,NA,incomplete,true,true,NA,NA,0,16,NA,gray,n_s_050.jpg,NA,NA,NA,NA,NA,pleasant,unpleasant,NA,NA,NA,NA,NA,left,1487.5,true,NA,NA,NA,NA,NA,NA,NA,NA
TZpCjSAn,375vsr8fwzmfz1886kcfytzzg59zr5,3nql1cs15vl9a2deakk8a3bszsoyvt,TZpCjSAn,2020-0188,2021-10-30,15:09:04,16:53:19,NA,incomplete,true,true,NA,NA,0,17,NA,gray,m_s_002.jpg,NA,NA,NA,NA,NA,unpleasant,pleasant,NA,NA,NA,NA,NA,left,1564.20000004768,true,NA,NA,NA,NA,NA,NA,NA,NA
TZpCjSAn,375vsr8fwzmfz1886kcfytzzg59zr5,3nql1cs15vl9a2deakk8a3bszsoyvt,TZpCjSAn,2020-0188,2021-10-30,15:09:04,16:53:19,NA,incomplete,true,true,NA,NA,0,18,NA,purple,m_s_050.jpg,NA,NA,NA,NA,NA,unpleasant,pleasant,NA,NA,NA,NA,NA,right,1745.89999997616,true,NA,NA,NA,NA,NA,NA,NA,NA
TZpCjSAn,375vsr8fwzmfz1886kcfytzzg59zr5,3nql1cs15vl9a2deakk8a3bszsoyvt,TZpCjSAn,2020-0188,2021-10-30,15:09:04,16:53:19,NA,incomplete,true,true,NA,NA,0,19,NA,purple,n_l_077.jpg,NA,NA,NA,NA,NA,unpleasant,pleasant,NA,NA,NA,NA,NA,left,1943.90000009537,true,NA,NA,NA,NA,NA,NA,NA,NA
TZpCjSAn,375vsr8fwzmfz1886kcfytzzg59zr5,3nql1cs15vl9a2deakk8a3bszsoyvt,TZpCjSAn,2020-0188,2021-10-30,15:09:04,16:53:19,NA,incomplete,true,true,NA,NA,0,20,NA,purple,n_s_037.jpg,NA,NA,NA,NA,NA,pleasant,unpleasant,NA,NA,NA,NA,NA,right,1189.5,true,NA,NA,NA,NA,NA,NA,NA,NA
TZpCjSAn,375vsr8fwzmfz1886kcfytzzg59zr5,3nql1cs15vl9a2deakk8a3bszsoyvt,TZpCjSAn,2020-0188,2021-10-30,15:09:04,16:53:19,NA,incomplete,true,true,NA,NA,0,21,NA,purple,m_s_042.jpg,NA,NA,NA,NA,NA,unpleasant,pleasant,NA,NA,NA,NA,NA,right,2618.39999997616,true,NA,NA,NA,NA,NA,NA,NA,NA
TZpCjSAn,375vsr8fwzmfz1886kcfytzzg59zr5,3nql1cs15vl9a2deakk8a3bszsoyvt,TZpCjSAn,2020-0188,2021-10-30,15:09:04,16:53:19,NA,incomplete,true,true,NA,NA,0,22,NA,purple,n_l_053.jpg,NA,NA,NA,NA,NA,pleasant,unpleasant,NA,NA,NA,NA,NA,left,3271.60000002384,true,NA,NA,NA,NA,NA,NA,NA,NA
TZpCjSAn,375vsr8fwzmfz1886kcfytzzg59zr5,3nql1cs15vl9a2deakk8a3bszsoyvt,TZpCjSAn,2020-0188,2021-10-30,15:09:04,16:53:19,NA,incomplete,true,true,NA,NA,0,23,NA,purple,n_l_057.jpg,NA,NA,NA,NA,NA,pleasant,unpleasant,NA,NA,NA,NA,NA,left,2404.60000002384,true,NA,NA,NA,NA,NA,NA,NA,NA
TZpCjSAn,375vsr8fwzmfz1886kcfytzzg59zr5,3nql1cs15vl9a2deakk8a3bszsoyvt,TZpCjSAn,2020-0188,2021-10-30,15:09:04,16:53:19,NA,incomplete,true,true,NA,NA,0,24,NA,red,n_s_002.jpg,NA,NA,NA,NA,NA,unpleasant,pleasant,NA,NA,NA,NA,NA,right,1170,true,NA,NA,NA,NA,NA,NA,NA,NA
TZpCjSAn,375vsr8fwzmfz1886kcfytzzg59zr5,3nql1cs15vl9a2deakk8a3bszsoyvt,TZpCjSAn,2020-0188,2021-10-30,15:09:04,16:53:19,NA,incomplete,true,true,NA,NA,0,25,NA,red,n_l_006.jpg,NA,NA,NA,NA,NA,pleasant,unpleasant,NA,NA,NA,NA,NA,left,1174.70000004768,true,NA,NA,NA,NA,NA,NA,NA,NA
TZpCjSAn,375vsr8fwzmfz1886kcfytzzg59zr5,3nql1cs15vl9a2deakk8a3bszsoyvt,TZpCjSAn,2020-0188,2021-10-30,15:09:04,16:53:19,NA,incomplete,true,true,NA,NA,0,26,NA,red,n_l_007.jpg,NA,NA,NA,NA,NA,unpleasant,pleasant,NA,NA,NA,NA,NA,right,1019.80000007153,true,NA,NA,NA,NA,NA,NA,NA,NA
TZpCjSAn,375vsr8fwzmfz1886kcfytzzg59zr5,3nql1cs15vl9a2deakk8a3bszsoyvt,TZpCjSAn,2020-0188,2021-10-30,15:09:04,16:53:19,NA,incomplete,true,true,NA,NA,0,27,NA,red,m_s_097.jpg,NA,NA,NA,NA,NA,unpleasant,pleasant,NA,NA,NA,NA,NA,none,0,false,NA,NA,NA,NA,NA,NA,NA,NA
TZpCjSAn,375vsr8fwzmfz1886kcfytzzg59zr5,3nql1cs15vl9a2deakk8a3bszsoyvt,TZpCjSAn,2020-0188,2021-10-30,15:09:04,16:53:19,NA,incomplete,true,true,NA,NA,0,28,NA,red,n_s_041.jpg,NA,NA,NA,NA,NA,unpleasant,pleasant,NA,NA,NA,NA,NA,left,2294,true,NA,NA,NA,NA,NA,NA,NA,NA
TZpCjSAn,375vsr8fwzmfz1886kcfytzzg59zr5,3nql1cs15vl9a2deakk8a3bszsoyvt,TZpCjSAn,2020-0188,2021-10-30,15:09:04,16:53:19,NA,incomplete,true,true,NA,NA,0,29,NA,red,m_s_112.jpg,NA,NA,NA,NA,NA,pleasant,unpleasant,NA,NA,NA,NA,NA,left,1395.60000002384,true,NA,NA,NA,NA,NA,NA,NA,NA
TZpCjSAn,375vsr8fwzmfz1886kcfytzzg59zr5,3nql1cs15vl9a2deakk8a3bszsoyvt,TZpCjSAn,2020-0188,2021-10-30,15:09:04,16:53:19,NA,incomplete,true,true,NA,NA,0,30,NA,black,n_l_046.jpg,NA,NA,NA,NA,NA,pleasant,unpleasant,NA,NA,NA,NA,NA,left,3329.39999997616,true,NA,NA,NA,NA,NA,NA,NA,NA
TZpCjSAn,375vsr8fwzmfz1886kcfytzzg59zr5,3nql1cs15vl9a2deakk8a3bszsoyvt,TZpCjSAn,2020-0188,2021-10-30,15:09:04,16:53:19,NA,incomplete,true,true,NA,NA,0,31,NA,black,m_s_029.jpg,NA,NA,NA,NA,NA,unpleasant,pleasant,NA,NA,NA,NA,NA,right,1927.29999995232,true,NA,NA,NA,NA,NA,NA,NA,NA
TZpCjSAn,375vsr8fwzmfz1886kcfytzzg59zr5,3nql1cs15vl9a2deakk8a3bszsoyvt,TZpCjSAn,2020-0188,2021-10-30,15:09:04,16:53:19,NA,incomplete,true,true,NA,NA,0,32,NA,black,m_s_024.jpg,NA,NA,NA,NA,NA,pleasant,unpleasant,NA,NA,NA,NA,NA,left,1044.80000007153,true,NA,NA,NA,NA,NA,NA,NA,NA
TZpCjSAn,375vsr8fwzmfz1886kcfytzzg59zr5,3nql1cs15vl9a2deakk8a3bszsoyvt,TZpCjSAn,2020-0188,2021-10-30,15:09:04,16:53:19,NA,incomplete,true,true,NA,NA,0,33,NA,black,n_l_030.jpg,NA,NA,NA,NA,NA,unpleasant,pleasant,NA,NA,NA,NA,NA,left,1474.60000002384,true,NA,NA,NA,NA,NA,NA,NA,NA
TZpCjSAn,375vsr8fwzmfz1886kcfytzzg59zr5,3nql1cs15vl9a2deakk8a3bszsoyvt,TZpCjSAn,2020-0188,2021-10-30,15:09:04,16:53:19,NA,incomplete,true,true,NA,NA,0,34,NA,black,m_l_012.jpg,NA,NA,NA,NA,NA,unpleasant,pleasant,NA,NA,NA,NA,NA,left,2079.89999997616,true,NA,NA,NA,NA,NA,NA,NA,NA
TZpCjSAn,375vsr8fwzmfz1886kcfytzzg59zr5,3nql1cs15vl9a2deakk8a3bszsoyvt,TZpCjSAn,2020-0188,2021-10-30,15:09:04,16:53:19,NA,incomplete,true,true,NA,NA,0,35,NA,black,m_s_066.jpg,NA,NA,NA,NA,NA,pleasant,unpleasant,NA,NA,NA,NA,NA,left,1269.40000009537,true,NA,NA,NA,NA,NA,NA,NA,NA
TZpCjSAn,375vsr8fwzmfz1886kcfytzzg59zr5,3nql1cs15vl9a2deakk8a3bszsoyvt,TZpCjSAn,2020-0188,2021-10-30,15:09:04,16:53:19,NA,incomplete,true,NA,NA,true,0,0,NA,NA,NA,right,m_s_066.jpg,red,black,NA,NA,NA,NA,NA,NA,NA,NA,NA,NaN,NA,3854.5,right,1,NA,NA,NA,NA,NA
TZpCjSAn,375vsr8fwzmfz1886kcfytzzg59zr5,3nql1cs15vl9a2deakk8a3bszsoyvt,TZpCjSAn,2020-0188,2021-10-30,15:09:04,16:53:19,NA,incomplete,true,NA,NA,true,0,1,NA,NA,NA,right,m_s_112.jpg,black,red,NA,NA,NA,NA,NA,NA,NA,NA,NA,NaN,NA,2558.7000000476837,left,0,NA,NA,NA,NA,NA
TZpCjSAn,375vsr8fwzmfz1886kcfytzzg59zr5,3nql1cs15vl9a2deakk8a3bszsoyvt,TZpCjSAn,2020-0188,2021-10-30,15:09:04,16:53:19,NA,incomplete,true,NA,NA,true,0,2,NA,NA,NA,right,m_s_024.jpg,red,black,NA,NA,NA,NA,NA,NA,NA,NA,NA,NaN,NA,2143,left,0,NA,NA,NA,NA,NA
TZpCjSAn,375vsr8fwzmfz1886kcfytzzg59zr5,3nql1cs15vl9a2deakk8a3bszsoyvt,TZpCjSAn,2020-0188,2021-10-30,15:09:04,16:53:19,NA,incomplete,true,NA,NA,true,0,3,NA,NA,NA,left,n_s_098.jpg,yellow,white,NA,NA,NA,NA,NA,NA,NA,NA,NA,NaN,NA,1447.1000000238419,left,1,NA,NA,NA,NA,NA
TZpCjSAn,375vsr8fwzmfz1886kcfytzzg59zr5,3nql1cs15vl9a2deakk8a3bszsoyvt,TZpCjSAn,2020-0188,2021-10-30,15:09:04,16:53:19,NA,incomplete,true,NA,NA,true,0,4,NA,NA,NA,right,n_s_037.jpg,gray,purple,NA,NA,NA,NA,NA,NA,NA,NA,NA,NaN,NA,2079.3000000715256,left,0,NA,NA,NA,NA,NA
TZpCjSAn,375vsr8fwzmfz1886kcfytzzg59zr5,3nql1cs15vl9a2deakk8a3bszsoyvt,TZpCjSAn,2020-0188,2021-10-30,15:09:04,16:53:19,NA,incomplete,true,NA,NA,true,0,5,NA,NA,NA,left,n_l_006.jpg,red,black,NA,NA,NA,NA,NA,NA,NA,NA,NA,NaN,NA,3575.2000000476837,left,1,NA,NA,NA,NA,NA
TZpCjSAn,375vsr8fwzmfz1886kcfytzzg59zr5,3nql1cs15vl9a2deakk8a3bszsoyvt,TZpCjSAn,2020-0188,2021-10-30,15:09:04,16:53:19,NA,incomplete,true,NA,NA,true,0,6,NA,NA,NA,right,n_l_077.jpg,red,purple,NA,NA,NA,NA,NA,NA,NA,NA,NA,NaN,NA,3967.4000000953674,right,1,NA,NA,NA,NA,NA
TZpCjSAn,375vsr8fwzmfz1886kcfytzzg59zr5,3nql1cs15vl9a2deakk8a3bszsoyvt,TZpCjSAn,2020-0188,2021-10-30,15:09:04,16:53:19,NA,incomplete,true,NA,NA,true,0,7,NA,NA,NA,left,n_s_081.jpg,gray,yellow,NA,NA,NA,NA,NA,NA,NA,NA,NA,NaN,NA,6767,right,0,NA,NA,NA,NA,NA
TZpCjSAn,375vsr8fwzmfz1886kcfytzzg59zr5,3nql1cs15vl9a2deakk8a3bszsoyvt,TZpCjSAn,2020-0188,2021-10-30,15:09:04,16:53:19,NA,incomplete,true,NA,NA,true,0,8,NA,NA,NA,left,m_l_007.jpg,white,yellow,NA,NA,NA,NA,NA,NA,NA,NA,NA,NaN,NA,2231.399999976158,right,0,NA,NA,NA,NA,NA
TZpCjSAn,375vsr8fwzmfz1886kcfytzzg59zr5,3nql1cs15vl9a2deakk8a3bszsoyvt,TZpCjSAn,2020-0188,2021-10-30,15:09:04,16:53:19,NA,incomplete,true,NA,NA,true,0,9,NA,NA,NA,left,n_s_039.jpg,yellow,white,NA,NA,NA,NA,NA,NA,NA,NA,NA,NaN,NA,5079.200000047684,left,1,NA,NA,NA,NA,NA
TZpCjSAn,375vsr8fwzmfz1886kcfytzzg59zr5,3nql1cs15vl9a2deakk8a3bszsoyvt,TZpCjSAn,2020-0188,2021-10-30,15:09:04,16:53:19,NA,incomplete,true,NA,NA,true,0,10,NA,NA,NA,right,n_s_015.jpg,gray,yellow,NA,NA,NA,NA,NA,NA,NA,NA,NA,NaN,NA,1663.2000000476837,right,1,NA,NA,NA,NA,NA
TZpCjSAn,375vsr8fwzmfz1886kcfytzzg59zr5,3nql1cs15vl9a2deakk8a3bszsoyvt,TZpCjSAn,2020-0188,2021-10-30,15:09:04,16:53:19,NA,incomplete,true,NA,NA,true,0,11,NA,NA,NA,right,n_s_051.jpg,yellow,white,NA,NA,NA,NA,NA,NA,NA,NA,NA,NaN,NA,1711.4000000953674,right,1,NA,NA,NA,NA,NA
TZpCjSAn,375vsr8fwzmfz1886kcfytzzg59zr5,3nql1cs15vl9a2deakk8a3bszsoyvt,TZpCjSAn,2020-0188,2021-10-30,15:09:04,16:53:19,NA,incomplete,true,NA,NA,true,0,12,NA,NA,NA,right,n_s_041.jpg,black,red,NA,NA,NA,NA,NA,NA,NA,NA,NA,NaN,NA,2303,right,1,NA,NA,NA,NA,NA
TZpCjSAn,375vsr8fwzmfz1886kcfytzzg59zr5,3nql1cs15vl9a2deakk8a3bszsoyvt,TZpCjSAn,2020-0188,2021-10-30,15:09:04,16:53:19,NA,incomplete,true,NA,NA,true,0,13,NA,NA,NA,right,n_l_007.jpg,purple,red,NA,NA,NA,NA,NA,NA,NA,NA,NA,NaN,NA,1934.7000000476837,left,0,NA,NA,NA,NA,NA
TZpCjSAn,375vsr8fwzmfz1886kcfytzzg59zr5,3nql1cs15vl9a2deakk8a3bszsoyvt,TZpCjSAn,2020-0188,2021-10-30,15:09:04,16:53:19,NA,incomplete,true,NA,NA,true,0,14,NA,NA,NA,left,n_s_046.jpg,gray,purple,NA,NA,NA,NA,NA,NA,NA,NA,NA,NaN,NA,4023.2000000476837,right,0,NA,NA,NA,NA,NA
TZpCjSAn,375vsr8fwzmfz1886kcfytzzg59zr5,3nql1cs15vl9a2deakk8a3bszsoyvt,TZpCjSAn,2020-0188,2021-10-30,15:09:04,16:53:19,NA,incomplete,true,NA,NA,true,0,15,NA,NA,NA,right,m_s_029.jpg,red,black,NA,NA,NA,NA,NA,NA,NA,NA,NA,NaN,NA,2543.3000000715256,right,1,NA,NA,NA,NA,NA
TZpCjSAn,375vsr8fwzmfz1886kcfytzzg59zr5,3nql1cs15vl9a2deakk8a3bszsoyvt,TZpCjSAn,2020-0188,2021-10-30,15:09:04,16:53:19,NA,incomplete,true,NA,NA,true,0,16,NA,NA,NA,left,n_s_050.jpg,gray,purple,NA,NA,NA,NA,NA,NA,NA,NA,NA,NaN,NA,2671.3000000715256,left,1,NA,NA,NA,NA,NA
TZpCjSAn,375vsr8fwzmfz1886kcfytzzg59zr5,3nql1cs15vl9a2deakk8a3bszsoyvt,TZpCjSAn,2020-0188,2021-10-30,15:09:04,16:53:19,NA,incomplete,true,NA,NA,true,0,17,NA,NA,NA,right,n_l_053.jpg,red,purple,NA,NA,NA,NA,NA,NA,NA,NA,NA,NaN,NA,1583.2000000476837,right,1,NA,NA,NA,NA,NA
TZpCjSAn,375vsr8fwzmfz1886kcfytzzg59zr5,3nql1cs15vl9a2deakk8a3bszsoyvt,TZpCjSAn,2020-0188,2021-10-30,15:09:04,16:53:19,NA,incomplete,true,NA,NA,true,0,18,NA,NA,NA,right,n_s_077.jpg,yellow,white,NA,NA,NA,NA,NA,NA,NA,NA,NA,NaN,NA,1527.5,left,0,NA,NA,NA,NA,NA
TZpCjSAn,375vsr8fwzmfz1886kcfytzzg59zr5,3nql1cs15vl9a2deakk8a3bszsoyvt,TZpCjSAn,2020-0188,2021-10-30,15:09:04,16:53:19,NA,incomplete,true,NA,NA,true,0,19,NA,NA,NA,right,m_s_071.jpg,white,yellow,NA,NA,NA,NA,NA,NA,NA,NA,NA,NaN,NA,1919.4000000953674,left,0,NA,NA,NA,NA,NA
TZpCjSAn,375vsr8fwzmfz1886kcfytzzg59zr5,3nql1cs15vl9a2deakk8a3bszsoyvt,TZpCjSAn,2020-0188,2021-10-30,15:09:04,16:53:19,NA,incomplete,true,NA,NA,true,0,20,NA,NA,NA,right,m_s_002.jpg,yellow,gray,NA,NA,NA,NA,NA,NA,NA,NA,NA,NaN,NA,2622.8000000715256,right,1,NA,NA,NA,NA,NA
TZpCjSAn,375vsr8fwzmfz1886kcfytzzg59zr5,3nql1cs15vl9a2deakk8a3bszsoyvt,TZpCjSAn,2020-0188,2021-10-30,15:09:04,16:53:19,NA,incomplete,true,NA,NA,true,0,21,NA,NA,NA,right,n_l_057.jpg,red,purple,NA,NA,NA,NA,NA,NA,NA,NA,NA,NaN,NA,1862.8000000715256,right,1,NA,NA,NA,NA,NA
TZpCjSAn,375vsr8fwzmfz1886kcfytzzg59zr5,3nql1cs15vl9a2deakk8a3bszsoyvt,TZpCjSAn,2020-0188,2021-10-30,15:09:04,16:53:19,NA,incomplete,true,NA,true,NA,0,0,NA,NA,NA,left,NA,NA,NA,absent,NA,NA,n_s_039.jpg,yellow,n_s_046.jpg,gray,between,NA,NaN,NA,NA,NA,NA,left,3591.2999999523163,1,1,7119.700000047684
TZpCjSAn,375vsr8fwzmfz1886kcfytzzg59zr5,3nql1cs15vl9a2deakk8a3bszsoyvt,TZpCjSAn,2020-0188,2021-10-30,15:09:04,16:53:19,NA,incomplete,true,NA,true,NA,0,1,NA,NA,NA,left,NA,NA,NA,absent,NA,NA,n_s_041.jpg,red,m_s_024.jpg,black,between,NA,NaN,NA,NA,NA,NA,left,3695.4000000953674,1,1,4303.300000071526
TZpCjSAn,375vsr8fwzmfz1886kcfytzzg59zr5,3nql1cs15vl9a2deakk8a3bszsoyvt,TZpCjSAn,2020-0188,2021-10-30,15:09:04,16:53:19,NA,incomplete,true,NA,true,NA,0,2,NA,NA,NA,right,NA,NA,NA,absent,NA,NA,n_l_007.jpg,red,n_l_053.jpg,purple,between,NA,NaN,NA,NA,NA,NA,left,2687.3000000715256,0,2,998.5
TZpCjSAn,375vsr8fwzmfz1886kcfytzzg59zr5,3nql1cs15vl9a2deakk8a3bszsoyvt,TZpCjSAn,2020-0188,2021-10-30,15:09:04,16:53:19,NA,incomplete,true,NA,true,NA,0,3,NA,NA,NA,right,NA,NA,NA,absent,NA,NA,n_s_037.jpg,purple,n_s_050.jpg,gray,between,NA,NaN,NA,NA,NA,NA,left,4175.200000047684,0,0,1447.3000000715256
TZpCjSAn,375vsr8fwzmfz1886kcfytzzg59zr5,3nql1cs15vl9a2deakk8a3bszsoyvt,TZpCjSAn,2020-0188,2021-10-30,15:09:04,16:53:19,NA,incomplete,true,NA,true,NA,0,4,NA,NA,NA,right,NA,NA,NA,absent,NA,NA,m_s_002.jpg,gray,n_s_081.jpg,gray,within,NA,NaN,NA,NA,NA,NA,right,2727.399999976158,1,1,1151.4000000953674
TZpCjSAn,375vsr8fwzmfz1886kcfytzzg59zr5,3nql1cs15vl9a2deakk8a3bszsoyvt,TZpCjSAn,2020-0188,2021-10-30,15:09:04,16:53:19,NA,incomplete,true,NA,true,NA,0,5,NA,NA,NA,left,NA,NA,NA,absent,NA,NA,n_s_077.jpg,white,m_l_007.jpg,white,within,NA,NaN,NA,NA,NA,NA,left,2551.4000000953674,1,1,2191
TZpCjSAn,375vsr8fwzmfz1886kcfytzzg59zr5,3nql1cs15vl9a2deakk8a3bszsoyvt,TZpCjSAn,2020-0188,2021-10-30,15:09:04,16:53:19,NA,incomplete,true,NA,true,NA,0,6,NA,NA,NA,left,NA,NA,NA,absent,NA,NA,n_s_098.jpg,yellow,m_s_071.jpg,yellow,within,NA,NaN,NA,NA,NA,NA,left,8983.100000023842,1,1,2695.2999999523163
TZpCjSAn,375vsr8fwzmfz1886kcfytzzg59zr5,3nql1cs15vl9a2deakk8a3bszsoyvt,TZpCjSAn,2020-0188,2021-10-30,15:09:04,16:53:19,NA,incomplete,true,NA,true,NA,0,7,NA,NA,NA,left,NA,NA,NA,absent,NA,NA,m_s_029.jpg,black,m_s_066.jpg,black,within,NA,NaN,NA,NA,NA,NA,right,3783.2000000476837,0,2,1303.1000000238419
TZpCjSAn,375vsr8fwzmfz1886kcfytzzg59zr5,3nql1cs15vl9a2deakk8a3bszsoyvt,TZpCjSAn,2020-0188,2021-10-30,15:09:04,16:53:19,NA,incomplete,true,NA,true,NA,0,8,NA,NA,NA,right,NA,NA,NA,absent,NA,NA,m_s_112.jpg,red,n_l_006.jpg,red,within,NA,NaN,NA,NA,NA,NA,right,3271.3000000715256,1,1,3311.600000023842
TZpCjSAn,375vsr8fwzmfz1886kcfytzzg59zr5,3nql1cs15vl9a2deakk8a3bszsoyvt,TZpCjSAn,2020-0188,2021-10-30,15:09:04,16:53:19,NA,incomplete,true,NA,true,NA,0,9,NA,NA,NA,right,NA,NA,NA,absent,NA,NA,n_l_057.jpg,purple,n_l_077.jpg,purple,within,NA,NaN,NA,NA,NA,NA,left,2703.100000023842,0,1,1687.5
TZpCjSAn,375vsr8fwzmfz1886kcfytzzg59zr5,3nql1cs15vl9a2deakk8a3bszsoyvt,TZpCjSAn,2020-0188,2021-10-30,15:09:04,16:53:19,NA,incomplete,true,NA,true,NA,0,10,NA,NA,NA,right,NA,NA,NA,absent,NA,NA,n_s_015.jpg,yellow,n_s_051.jpg,white,between,NA,NaN,NA,NA,NA,NA,left,1183.3000000715256,0,1,2455.2000000476837
TZpCjSAn,375vsr8fwzmfz1886kcfytzzg59zr5,3nql1cs15vl9a2deakk8a3bszsoyvt,TZpCjSAn,2020-0188,2021-10-30,15:09:04,16:53:19,NA,incomplete,false,true,NA,NA,1,0,NA,green,n_s_004.jpg,NA,NA,NA,NA,NA,unpleasant,pleasant,NA,NA,NA,NA,NA,none,0,false,NA,NA,NA,NA,NA,NA,NA,NA
TZpCjSAn,375vsr8fwzmfz1886kcfytzzg59zr5,3nql1cs15vl9a2deakk8a3bszsoyvt,TZpCjSAn,2020-0188,2021-10-30,15:09:04,16:53:19,NA,incomplete,false,true,NA,NA,1,1,NA,green,m_l_113.jpg,NA,NA,NA,NA,NA,unpleasant,pleasant,NA,NA,NA,NA,NA,right,2643.80000007153,true,NA,NA,NA,NA,NA,NA,NA,NA
TZpCjSAn,375vsr8fwzmfz1886kcfytzzg59zr5,3nql1cs15vl9a2deakk8a3bszsoyvt,TZpCjSAn,2020-0188,2021-10-30,15:09:04,16:53:19,NA,incomplete,false,true,NA,NA,1,2,NA,green,n_s_063.jpg,NA,NA,NA,NA,NA,pleasant,unpleasant,NA,NA,NA,NA,NA,left,1921.60000002384,true,NA,NA,NA,NA,NA,NA,NA,NA
TZpCjSAn,375vsr8fwzmfz1886kcfytzzg59zr5,3nql1cs15vl9a2deakk8a3bszsoyvt,TZpCjSAn,2020-0188,2021-10-30,15:09:04,16:53:19,NA,incomplete,false,true,NA,NA,1,3,NA,green,n_l_111.jpg,NA,NA,NA,NA,NA,pleasant,unpleasant,NA,NA,NA,NA,NA,left,1470.39999997616,true,NA,NA,NA,NA,NA,NA,NA,NA
TZpCjSAn,375vsr8fwzmfz1886kcfytzzg59zr5,3nql1cs15vl9a2deakk8a3bszsoyvt,TZpCjSAn,2020-0188,2021-10-30,15:09:04,16:53:19,NA,incomplete,false,true,NA,NA,1,4,NA,green,n_s_062.jpg,NA,NA,NA,NA,NA,unpleasant,pleasant,NA,NA,NA,NA,NA,right,1299.69999992847,true,NA,NA,NA,NA,NA,NA,NA,NA
TZpCjSAn,375vsr8fwzmfz1886kcfytzzg59zr5,3nql1cs15vl9a2deakk8a3bszsoyvt,TZpCjSAn,2020-0188,2021-10-30,15:09:04,16:53:19,NA,incomplete,false,true,NA,NA,1,5,NA,green,m_l_084.jpg,NA,NA,NA,NA,NA,pleasant,unpleasant,NA,NA,NA,NA,NA,left,1473.39999997616,true,NA,NA,NA,NA,NA,NA,NA,NA
TZpCjSAn,375vsr8fwzmfz1886kcfytzzg59zr5,3nql1cs15vl9a2deakk8a3bszsoyvt,TZpCjSAn,2020-0188,2021-10-30,15:09:04,16:53:19,NA,incomplete,false,true,NA,NA,1,6,NA,yellow,n_l_001.jpg,NA,NA,NA,NA,NA,pleasant,unpleasant,NA,NA,NA,NA,NA,left,1526.20000004768,true,NA,NA,NA,NA,NA,NA,NA,NA
TZpCjSAn,375vsr8fwzmfz1886kcfytzzg59zr5,3nql1cs15vl9a2deakk8a3bszsoyvt,TZpCjSAn,2020-0188,2021-10-30,15:09:04,16:53:19,NA,incomplete,false,true,NA,NA,1,7,NA,yellow,m_s_016.jpg,NA,NA,NA,NA,NA,pleasant,unpleasant,NA,NA,NA,NA,NA,left,1484.10000002384,true,NA,NA,NA,NA,NA,NA,NA,NA
TZpCjSAn,375vsr8fwzmfz1886kcfytzzg59zr5,3nql1cs15vl9a2deakk8a3bszsoyvt,TZpCjSAn,2020-0188,2021-10-30,15:09:04,16:53:19,NA,incomplete,false,true,NA,NA,1,8,NA,yellow,m_s_023.jpg,NA,NA,NA,NA,NA,pleasant,unpleasant,NA,NA,NA,NA,NA,left,1153.39999997616,true,NA,NA,NA,NA,NA,NA,NA,NA
TZpCjSAn,375vsr8fwzmfz1886kcfytzzg59zr5,3nql1cs15vl9a2deakk8a3bszsoyvt,TZpCjSAn,2020-0188,2021-10-30,15:09:04,16:53:19,NA,incomplete,false,true,NA,NA,1,9,NA,yellow,n_s_107.jpg,NA,NA,NA,NA,NA,unpleasant,pleasant,NA,NA,NA,NA,NA,right,1494.30000007153,true,NA,NA,NA,NA,NA,NA,NA,NA
TZpCjSAn,375vsr8fwzmfz1886kcfytzzg59zr5,3nql1cs15vl9a2deakk8a3bszsoyvt,TZpCjSAn,2020-0188,2021-10-30,15:09:04,16:53:19,NA,incomplete,false,true,NA,NA,1,10,NA,yellow,m_l_101.jpg,NA,NA,NA,NA,NA,unpleasant,pleasant,NA,NA,NA,NA,NA,right,1916,true,NA,NA,NA,NA,NA,NA,NA,NA
TZpCjSAn,375vsr8fwzmfz1886kcfytzzg59zr5,3nql1cs15vl9a2deakk8a3bszsoyvt,TZpCjSAn,2020-0188,2021-10-30,15:09:04,16:53:19,NA,incomplete,false,true,NA,NA,1,11,NA,yellow,m_l_038.jpg,NA,NA,NA,NA,NA,unpleasant,pleasant,NA,NA,NA,NA,NA,right,1705.79999995232,true,NA,NA,NA,NA,NA,NA,NA,NA
TZpCjSAn,375vsr8fwzmfz1886kcfytzzg59zr5,3nql1cs15vl9a2deakk8a3bszsoyvt,TZpCjSAn,2020-0188,2021-10-30,15:09:04,16:53:19,NA,incomplete,false,true,NA,NA,1,12,NA,white,n_l_029.jpg,NA,NA,NA,NA,NA,unpleasant,pleasant,NA,NA,NA,NA,NA,right,1942.70000004768,true,NA,NA,NA,NA,NA,NA,NA,NA
TZpCjSAn,375vsr8fwzmfz1886kcfytzzg59zr5,3nql1cs15vl9a2deakk8a3bszsoyvt,TZpCjSAn,2020-0188,2021-10-30,15:09:04,16:53:19,NA,incomplete,false,true,NA,NA,1,13,NA,white,n_l_063.jpg,NA,NA,NA,NA,NA,pleasant,unpleasant,NA,NA,NA,NA,NA,left,1644.40000009537,true,NA,NA,NA,NA,NA,NA,NA,NA
TZpCjSAn,375vsr8fwzmfz1886kcfytzzg59zr5,3nql1cs15vl9a2deakk8a3bszsoyvt,TZpCjSAn,2020-0188,2021-10-30,15:09:04,16:53:19,NA,incomplete,false,true,NA,NA,1,14,NA,white,n_s_075.jpg,NA,NA,NA,NA,NA,unpleasant,pleasant,NA,NA,NA,NA,NA,left,3178.29999995232,true,NA,NA,NA,NA,NA,NA,NA,NA
TZpCjSAn,375vsr8fwzmfz1886kcfytzzg59zr5,3nql1cs15vl9a2deakk8a3bszsoyvt,TZpCjSAn,2020-0188,2021-10-30,15:09:04,16:53:19,NA,incomplete,false,true,NA,NA,1,15,NA,white,m_l_081.jpg,NA,NA,NA,NA,NA,pleasant,unpleasant,NA,NA,NA,NA,NA,left,2559.89999997616,true,NA,NA,NA,NA,NA,NA,NA,NA
TZpCjSAn,375vsr8fwzmfz1886kcfytzzg59zr5,3nql1cs15vl9a2deakk8a3bszsoyvt,TZpCjSAn,2020-0188,2021-10-30,15:09:04,16:53:19,NA,incomplete,false,true,NA,NA,1,16,NA,white,m_s_074.jpg,NA,NA,NA,NA,NA,pleasant,unpleasant,NA,NA,NA,NA,NA,left,1533.60000002384,true,NA,NA,NA,NA,NA,NA,NA,NA
TZpCjSAn,375vsr8fwzmfz1886kcfytzzg59zr5,3nql1cs15vl9a2deakk8a3bszsoyvt,TZpCjSAn,2020-0188,2021-10-30,15:09:04,16:53:19,NA,incomplete,false,true,NA,NA,1,17,NA,white,m_s_058.jpg,NA,NA,NA,NA,NA,pleasant,unpleasant,NA,NA,NA,NA,NA,none,0,false,NA,NA,NA,NA,NA,NA,NA,NA
TZpCjSAn,375vsr8fwzmfz1886kcfytzzg59zr5,3nql1cs15vl9a2deakk8a3bszsoyvt,TZpCjSAn,2020-0188,2021-10-30,15:09:04,16:53:19,NA,incomplete,false,true,NA,NA,1,18,NA,orange,n_l_054.jpg,NA,NA,NA,NA,NA,pleasant,unpleasant,NA,NA,NA,NA,NA,left,1215.70000004768,true,NA,NA,NA,NA,NA,NA,NA,NA
TZpCjSAn,375vsr8fwzmfz1886kcfytzzg59zr5,3nql1cs15vl9a2deakk8a3bszsoyvt,TZpCjSAn,2020-0188,2021-10-30,15:09:04,16:53:19,NA,incomplete,false,true,NA,NA,1,19,NA,orange,n_s_078.jpg,NA,NA,NA,NA,NA,pleasant,unpleasant,NA,NA,NA,NA,NA,left,2893.5,true,NA,NA,NA,NA,NA,NA,NA,NA
TZpCjSAn,375vsr8fwzmfz1886kcfytzzg59zr5,3nql1cs15vl9a2deakk8a3bszsoyvt,TZpCjSAn,2020-0188,2021-10-30,15:09:04,16:53:19,NA,incomplete,false,true,NA,NA,1,20,NA,orange,m_l_055.jpg,NA,NA,NA,NA,NA,pleasant,unpleasant,NA,NA,NA,NA,NA,none,0,false,NA,NA,NA,NA,NA,NA,NA,NA
TZpCjSAn,375vsr8fwzmfz1886kcfytzzg59zr5,3nql1cs15vl9a2deakk8a3bszsoyvt,TZpCjSAn,2020-0188,2021-10-30,15:09:04,16:53:19,NA,incomplete,false,true,NA,NA,1,21,NA,orange,m_l_093.jpg,NA,NA,NA,NA,NA,pleasant,unpleasant,NA,NA,NA,NA,NA,none,0,false,NA,NA,NA,NA,NA,NA,NA,NA
TZpCjSAn,375vsr8fwzmfz1886kcfytzzg59zr5,3nql1cs15vl9a2deakk8a3bszsoyvt,TZpCjSAn,2020-0188,2021-10-30,15:09:04,16:53:19,NA,incomplete,false,true,NA,NA,1,22,NA,orange,n_s_097.jpg,NA,NA,NA,NA,NA,pleasant,unpleasant,NA,NA,NA,NA,NA,left,1557.30000007153,true,NA,NA,NA,NA,NA,NA,NA,NA
TZpCjSAn,375vsr8fwzmfz1886kcfytzzg59zr5,3nql1cs15vl9a2deakk8a3bszsoyvt,TZpCjSAn,2020-0188,2021-10-30,15:09:04,16:53:19,NA,incomplete,false,true,NA,NA,1,23,NA,orange,m_s_092.jpg,NA,NA,NA,NA,NA,unpleasant,pleasant,NA,NA,NA,NA,NA,right,2418.59999990463,true,NA,NA,NA,NA,NA,NA,NA,NA
TZpCjSAn,375vsr8fwzmfz1886kcfytzzg59zr5,3nql1cs15vl9a2deakk8a3bszsoyvt,TZpCjSAn,2020-0188,2021-10-30,15:09:04,16:53:19,NA,incomplete,false,true,NA,NA,1,24,NA,black,m_l_097.jpg,NA,NA,NA,NA,NA,pleasant,unpleasant,NA,NA,NA,NA,NA,left,1751.39999997616,true,NA,NA,NA,NA,NA,NA,NA,NA
TZpCjSAn,375vsr8fwzmfz1886kcfytzzg59zr5,3nql1cs15vl9a2deakk8a3bszsoyvt,TZpCjSAn,2020-0188,2021-10-30,15:09:04,16:53:19,NA,incomplete,false,true,NA,NA,1,25,NA,black,m_s_019.jpg,NA,NA,NA,NA,NA,unpleasant,pleasant,NA,NA,NA,NA,NA,right,1332.5,true,NA,NA,NA,NA,NA,NA,NA,NA
TZpCjSAn,375vsr8fwzmfz1886kcfytzzg59zr5,3nql1cs15vl9a2deakk8a3bszsoyvt,TZpCjSAn,2020-0188,2021-10-30,15:09:04,16:53:19,NA,incomplete,false,true,NA,NA,1,26,NA,black,n_l_024.jpg,NA,NA,NA,NA,NA,unpleasant,pleasant,NA,NA,NA,NA,NA,right,1210.39999997616,true,NA,NA,NA,NA,NA,NA,NA,NA
TZpCjSAn,375vsr8fwzmfz1886kcfytzzg59zr5,3nql1cs15vl9a2deakk8a3bszsoyvt,TZpCjSAn,2020-0188,2021-10-30,15:09:04,16:53:19,NA,incomplete,false,true,NA,NA,1,27,NA,black,n_s_017.jpg,NA,NA,NA,NA,NA,pleasant,unpleasant,NA,NA,NA,NA,NA,none,0,false,NA,NA,NA,NA,NA,NA,NA,NA
TZpCjSAn,375vsr8fwzmfz1886kcfytzzg59zr5,3nql1cs15vl9a2deakk8a3bszsoyvt,TZpCjSAn,2020-0188,2021-10-30,15:09:04,16:53:19,NA,incomplete,false,true,NA,NA,1,28,NA,black,n_l_055.jpg,NA,NA,NA,NA,NA,unpleasant,pleasant,NA,NA,NA,NA,NA,right,1700.89999997616,true,NA,NA,NA,NA,NA,NA,NA,NA
TZpCjSAn,375vsr8fwzmfz1886kcfytzzg59zr5,3nql1cs15vl9a2deakk8a3bszsoyvt,TZpCjSAn,2020-0188,2021-10-30,15:09:04,16:53:19,NA,incomplete,false,true,NA,NA,1,29,NA,black,n_s_045.jpg,NA,NA,NA,NA,NA,unpleasant,pleasant,NA,NA,NA,NA,NA,right,1002.39999997616,true,NA,NA,NA,NA,NA,NA,NA,NA
TZpCjSAn,375vsr8fwzmfz1886kcfytzzg59zr5,3nql1cs15vl9a2deakk8a3bszsoyvt,TZpCjSAn,2020-0188,2021-10-30,15:09:04,16:53:19,NA,incomplete,false,true,NA,NA,1,30,NA,red,n_s_014.jpg,NA,NA,NA,NA,NA,pleasant,unpleasant,NA,NA,NA,NA,NA,left,1383.20000004768,true,NA,NA,NA,NA,NA,NA,NA,NA
TZpCjSAn,375vsr8fwzmfz1886kcfytzzg59zr5,3nql1cs15vl9a2deakk8a3bszsoyvt,TZpCjSAn,2020-0188,2021-10-30,15:09:04,16:53:19,NA,incomplete,false,true,NA,NA,1,31,NA,red,n_s_027.jpg,NA,NA,NA,NA,NA,unpleasant,pleasant,NA,NA,NA,NA,NA,left,1580.70000004768,true,NA,NA,NA,NA,NA,NA,NA,NA
TZpCjSAn,375vsr8fwzmfz1886kcfytzzg59zr5,3nql1cs15vl9a2deakk8a3bszsoyvt,TZpCjSAn,2020-0188,2021-10-30,15:09:04,16:53:19,NA,incomplete,false,true,NA,NA,1,32,NA,red,n_l_052.jpg,NA,NA,NA,NA,NA,pleasant,unpleasant,NA,NA,NA,NA,NA,left,3386.79999995232,true,NA,NA,NA,NA,NA,NA,NA,NA
TZpCjSAn,375vsr8fwzmfz1886kcfytzzg59zr5,3nql1cs15vl9a2deakk8a3bszsoyvt,TZpCjSAn,2020-0188,2021-10-30,15:09:04,16:53:19,NA,incomplete,false,true,NA,NA,1,33,NA,red,m_l_087.jpg,NA,NA,NA,NA,NA,unpleasant,pleasant,NA,NA,NA,NA,NA,right,2879.80000007153,true,NA,NA,NA,NA,NA,NA,NA,NA
TZpCjSAn,375vsr8fwzmfz1886kcfytzzg59zr5,3nql1cs15vl9a2deakk8a3bszsoyvt,TZpCjSAn,2020-0188,2021-10-30,15:09:04,16:53:19,NA,incomplete,false,true,NA,NA,1,34,NA,red,n_l_083.jpg,NA,NA,NA,NA,NA,unpleasant,pleasant,NA,NA,NA,NA,NA,right,1069.39999997616,true,NA,NA,NA,NA,NA,NA,NA,NA
TZpCjSAn,375vsr8fwzmfz1886kcfytzzg59zr5,3nql1cs15vl9a2deakk8a3bszsoyvt,TZpCjSAn,2020-0188,2021-10-30,15:09:04,16:53:19,NA,incomplete,false,true,NA,NA,1,35,NA,red,n_l_038.jpg,NA,NA,NA,NA,NA,pleasant,unpleasant,NA,NA,NA,NA,NA,none,0,false,NA,NA,NA,NA,NA,NA,NA,NA
TZpCjSAn,375vsr8fwzmfz1886kcfytzzg59zr5,3nql1cs15vl9a2deakk8a3bszsoyvt,TZpCjSAn,2020-0188,2021-10-30,15:09:04,16:53:19,NA,incomplete,false,NA,NA,true,1,0,NA,NA,NA,left,m_l_113.jpg,green,yellow,NA,NA,NA,NA,NA,NA,NA,NA,NA,NaN,NA,3254.9000000953674,right,0,NA,NA,NA,NA,NA
TZpCjSAn,375vsr8fwzmfz1886kcfytzzg59zr5,3nql1cs15vl9a2deakk8a3bszsoyvt,TZpCjSAn,2020-0188,2021-10-30,15:09:04,16:53:19,NA,incomplete,false,NA,NA,true,1,1,NA,NA,NA,left,m_s_092.jpg,orange,black,NA,NA,NA,NA,NA,NA,NA,NA,NA,NaN,NA,3639.399999976158,right,0,NA,NA,NA,NA,NA
TZpCjSAn,375vsr8fwzmfz1886kcfytzzg59zr5,3nql1cs15vl9a2deakk8a3bszsoyvt,TZpCjSAn,2020-0188,2021-10-30,15:09:04,16:53:19,NA,incomplete,false,NA,NA,true,1,2,NA,NA,NA,right,n_l_052.jpg,black,red,NA,NA,NA,NA,NA,NA,NA,NA,NA,NaN,NA,3567.0999999046326,left,0,NA,NA,NA,NA,NA
TZpCjSAn,375vsr8fwzmfz1886kcfytzzg59zr5,3nql1cs15vl9a2deakk8a3bszsoyvt,TZpCjSAn,2020-0188,2021-10-30,15:09:04,16:53:19,NA,incomplete,false,NA,NA,true,1,3,NA,NA,NA,right,n_l_024.jpg,orange,black,NA,NA,NA,NA,NA,NA,NA,NA,NA,NaN,NA,2894.9000000953674,right,1,NA,NA,NA,NA,NA
TZpCjSAn,375vsr8fwzmfz1886kcfytzzg59zr5,3nql1cs15vl9a2deakk8a3bszsoyvt,TZpCjSAn,2020-0188,2021-10-30,15:09:04,16:53:19,NA,incomplete,false,NA,NA,true,1,4,NA,NA,NA,right,m_s_058.jpg,yellow,white,NA,NA,NA,NA,NA,NA,NA,NA,NA,NaN,NA,1175.1000000238419,right,1,NA,NA,NA,NA,NA
TZpCjSAn,375vsr8fwzmfz1886kcfytzzg59zr5,3nql1cs15vl9a2deakk8a3bszsoyvt,TZpCjSAn,2020-0188,2021-10-30,15:09:04,16:53:19,NA,incomplete,false,NA,NA,true,1,5,NA,NA,NA,left,n_s_045.jpg,black,orange,NA,NA,NA,NA,NA,NA,NA,NA,NA,NaN,NA,1710.9000000953674,left,1,NA,NA,NA,NA,NA
TZpCjSAn,375vsr8fwzmfz1886kcfytzzg59zr5,3nql1cs15vl9a2deakk8a3bszsoyvt,TZpCjSAn,2020-0188,2021-10-30,15:09:04,16:53:19,NA,incomplete,false,NA,NA,true,1,6,NA,NA,NA,right,m_s_074.jpg,yellow,white,NA,NA,NA,NA,NA,NA,NA,NA,NA,NaN,NA,1654.8999999761581,left,0,NA,NA,NA,NA,NA
TZpCjSAn,375vsr8fwzmfz1886kcfytzzg59zr5,3nql1cs15vl9a2deakk8a3bszsoyvt,TZpCjSAn,2020-0188,2021-10-30,15:09:04,16:53:19,NA,incomplete,false,NA,NA,true,1,7,NA,NA,NA,right,m_l_084.jpg,yellow,green,NA,NA,NA,NA,NA,NA,NA,NA,NA,NaN,NA,1935.1000000238419,left,0,NA,NA,NA,NA,NA
TZpCjSAn,375vsr8fwzmfz1886kcfytzzg59zr5,3nql1cs15vl9a2deakk8a3bszsoyvt,TZpCjSAn,2020-0188,2021-10-30,15:09:04,16:53:19,NA,incomplete,false,NA,NA,true,1,8,NA,NA,NA,left,n_l_038.jpg,red,black,NA,NA,NA,NA,NA,NA,NA,NA,NA,NaN,NA,1943.1000000238419,right,0,NA,NA,NA,NA,NA
TZpCjSAn,375vsr8fwzmfz1886kcfytzzg59zr5,3nql1cs15vl9a2deakk8a3bszsoyvt,TZpCjSAn,2020-0188,2021-10-30,15:09:04,16:53:19,NA,incomplete,false,NA,NA,true,1,9,NA,NA,NA,right,n_l_055.jpg,red,black,NA,NA,NA,NA,NA,NA,NA,NA,NA,NaN,NA,1479.1000000238419,right,1,NA,NA,NA,NA,NA
TZpCjSAn,375vsr8fwzmfz1886kcfytzzg59zr5,3nql1cs15vl9a2deakk8a3bszsoyvt,TZpCjSAn,2020-0188,2021-10-30,15:09:04,16:53:19,NA,incomplete,false,NA,NA,true,1,10,NA,NA,NA,right,m_l_055.jpg,black,orange,NA,NA,NA,NA,NA,NA,NA,NA,NA,NaN,NA,1791.3000000715256,left,0,NA,NA,NA,NA,NA
TZpCjSAn,375vsr8fwzmfz1886kcfytzzg59zr5,3nql1cs15vl9a2deakk8a3bszsoyvt,TZpCjSAn,2020-0188,2021-10-30,15:09:04,16:53:19,NA,incomplete,false,NA,NA,true,1,11,NA,NA,NA,right,m_s_019.jpg,red,black,NA,NA,NA,NA,NA,NA,NA,NA,NA,NaN,NA,1590.8999999761581,right,1,NA,NA,NA,NA,NA
TZpCjSAn,375vsr8fwzmfz1886kcfytzzg59zr5,3nql1cs15vl9a2deakk8a3bszsoyvt,TZpCjSAn,2020-0188,2021-10-30,15:09:04,16:53:19,NA,incomplete,false,NA,NA,true,1,12,NA,NA,NA,left,m_l_101.jpg,yellow,white,NA,NA,NA,NA,NA,NA,NA,NA,NA,NaN,NA,2559.100000023842,right,0,NA,NA,NA,NA,NA
TZpCjSAn,375vsr8fwzmfz1886kcfytzzg59zr5,3nql1cs15vl9a2deakk8a3bszsoyvt,TZpCjSAn,2020-0188,2021-10-30,15:09:04,16:53:19,NA,incomplete,false,NA,NA,true,1,13,NA,NA,NA,right,n_s_075.jpg,orange,white,NA,NA,NA,NA,NA,NA,NA,NA,NA,NaN,NA,7287.099999904633,right,1,NA,NA,NA,NA,NA
TZpCjSAn,375vsr8fwzmfz1886kcfytzzg59zr5,3nql1cs15vl9a2deakk8a3bszsoyvt,TZpCjSAn,2020-0188,2021-10-30,15:09:04,16:53:19,NA,incomplete,false,NA,NA,true,1,14,NA,NA,NA,right,m_s_023.jpg,green,yellow,NA,NA,NA,NA,NA,NA,NA,NA,NA,NaN,NA,1823.3000000715256,right,1,NA,NA,NA,NA,NA
TZpCjSAn,375vsr8fwzmfz1886kcfytzzg59zr5,3nql1cs15vl9a2deakk8a3bszsoyvt,TZpCjSAn,2020-0188,2021-10-30,15:09:04,16:53:19,NA,incomplete,false,NA,NA,true,1,15,NA,NA,NA,left,n_s_097.jpg,orange,black,NA,NA,NA,NA,NA,NA,NA,NA,NA,NaN,NA,2391.3000000715256,right,0,NA,NA,NA,NA,NA
TZpCjSAn,375vsr8fwzmfz1886kcfytzzg59zr5,3nql1cs15vl9a2deakk8a3bszsoyvt,TZpCjSAn,2020-0188,2021-10-30,15:09:04,16:53:19,NA,incomplete,false,NA,NA,true,1,16,NA,NA,NA,right,n_s_027.jpg,black,red,NA,NA,NA,NA,NA,NA,NA,NA,NA,NaN,NA,2319.3000000715256,left,0,NA,NA,NA,NA,NA
TZpCjSAn,375vsr8fwzmfz1886kcfytzzg59zr5,3nql1cs15vl9a2deakk8a3bszsoyvt,TZpCjSAn,2020-0188,2021-10-30,15:09:04,16:53:19,NA,incomplete,false,NA,NA,true,1,17,NA,NA,NA,right,n_s_078.jpg,white,orange,NA,NA,NA,NA,NA,NA,NA,NA,NA,NaN,NA,2111.100000023842,right,1,NA,NA,NA,NA,NA
TZpCjSAn,375vsr8fwzmfz1886kcfytzzg59zr5,3nql1cs15vl9a2deakk8a3bszsoyvt,TZpCjSAn,2020-0188,2021-10-30,15:09:04,16:53:19,NA,incomplete,false,NA,NA,true,1,18,NA,NA,NA,right,m_s_016.jpg,green,yellow,NA,NA,NA,NA,NA,NA,NA,NA,NA,NaN,NA,1727.4000000953674,right,1,NA,NA,NA,NA,NA
TZpCjSAn,375vsr8fwzmfz1886kcfytzzg59zr5,3nql1cs15vl9a2deakk8a3bszsoyvt,TZpCjSAn,2020-0188,2021-10-30,15:09:04,16:53:19,NA,incomplete,false,NA,NA,true,1,19,NA,NA,NA,left,m_l_038.jpg,yellow,white,NA,NA,NA,NA,NA,NA,NA,NA,NA,NaN,NA,1783.7999999523163,right,0,NA,NA,NA,NA,NA
TZpCjSAn,375vsr8fwzmfz1886kcfytzzg59zr5,3nql1cs15vl9a2deakk8a3bszsoyvt,TZpCjSAn,2020-0188,2021-10-30,15:09:04,16:53:19,NA,incomplete,false,NA,NA,true,1,20,NA,NA,NA,right,n_l_063.jpg,yellow,white,NA,NA,NA,NA,NA,NA,NA,NA,NA,NaN,NA,1887.4000000953674,right,1,NA,NA,NA,NA,NA
TZpCjSAn,375vsr8fwzmfz1886kcfytzzg59zr5,3nql1cs15vl9a2deakk8a3bszsoyvt,TZpCjSAn,2020-0188,2021-10-30,15:09:04,16:53:19,NA,incomplete,false,NA,NA,true,1,21,NA,NA,NA,right,n_s_062.jpg,yellow,green,NA,NA,NA,NA,NA,NA,NA,NA,NA,NaN,NA,2095,left,0,NA,NA,NA,NA,NA
TZpCjSAn,375vsr8fwzmfz1886kcfytzzg59zr5,3nql1cs15vl9a2deakk8a3bszsoyvt,TZpCjSAn,2020-0188,2021-10-30,15:09:04,16:53:19,NA,incomplete,false,NA,true,NA,1,0,NA,NA,NA,left,NA,NA,NA,absent,NA,NA,m_l_101.jpg,yellow,n_s_075.jpg,white,between,NA,NaN,NA,NA,NA,NA,left,2447.2000000476837,1,1,2991.3000000715256
TZpCjSAn,375vsr8fwzmfz1886kcfytzzg59zr5,3nql1cs15vl9a2deakk8a3bszsoyvt,TZpCjSAn,2020-0188,2021-10-30,15:09:04,16:53:19,NA,incomplete,false,NA,true,NA,1,1,NA,NA,NA,left,NA,NA,NA,absent,NA,NA,n_s_078.jpg,orange,m_s_092.jpg,orange,within,NA,NaN,NA,NA,NA,NA,left,2223.0999999046326,1,2,2223.4000000953674
TZpCjSAn,375vsr8fwzmfz1886kcfytzzg59zr5,3nql1cs15vl9a2deakk8a3bszsoyvt,TZpCjSAn,2020-0188,2021-10-30,15:09:04,16:53:19,NA,incomplete,false,NA,true,NA,1,2,NA,NA,NA,left,NA,NA,NA,absent,NA,NA,n_l_055.jpg,black,n_l_052.jpg,red,between,NA,NaN,NA,NA,NA,NA,left,1791.1000000238419,1,2,3095.399999976158
TZpCjSAn,375vsr8fwzmfz1886kcfytzzg59zr5,3nql1cs15vl9a2deakk8a3bszsoyvt,TZpCjSAn,2020-0188,2021-10-30,15:09:04,16:53:19,NA,incomplete,false,NA,true,NA,1,3,NA,NA,NA,left,NA,NA,NA,absent,NA,NA,n_l_063.jpg,white,m_s_058.jpg,white,within,NA,NaN,NA,NA,NA,NA,right,2927.100000023842,0,1,2543.100000023842
TZpCjSAn,375vsr8fwzmfz1886kcfytzzg59zr5,3nql1cs15vl9a2deakk8a3bszsoyvt,TZpCjSAn,2020-0188,2021-10-30,15:09:04,16:53:19,NA,incomplete,false,NA,true,NA,1,4,NA,NA,NA,right,NA,NA,NA,absent,NA,NA,n_s_045.jpg,black,m_s_019.jpg,black,within,NA,NaN,NA,NA,NA,NA,right,2942.5,1,2,2374.7000000476837
TZpCjSAn,375vsr8fwzmfz1886kcfytzzg59zr5,3nql1cs15vl9a2deakk8a3bszsoyvt,TZpCjSAn,2020-0188,2021-10-30,15:09:04,16:53:19,NA,incomplete,false,NA,true,NA,1,5,NA,NA,NA,left,NA,NA,NA,absent,NA,NA,n_s_097.jpg,orange,n_l_024.jpg,black,between,NA,NaN,NA,NA,NA,NA,right,3767.399999976158,0,1,775.0999999046326
TZpCjSAn,375vsr8fwzmfz1886kcfytzzg59zr5,3nql1cs15vl9a2deakk8a3bszsoyvt,TZpCjSAn,2020-0188,2021-10-30,15:09:04,16:53:19,NA,incomplete,false,NA,true,NA,1,6,NA,NA,NA,left,NA,NA,NA,absent,NA,NA,m_s_016.jpg,yellow,m_l_038.jpg,yellow,within,NA,NaN,NA,NA,NA,NA,right,6063.300000071526,0,0,1479.3000000715256
TZpCjSAn,375vsr8fwzmfz1886kcfytzzg59zr5,3nql1cs15vl9a2deakk8a3bszsoyvt,TZpCjSAn,2020-0188,2021-10-30,15:09:04,16:53:19,NA,incomplete,false,NA,true,NA,1,7,NA,NA,NA,right,NA,NA,NA,absent,NA,NA,m_l_055.jpg,orange,m_s_074.jpg,white,between,NA,NaN,NA,NA,NA,NA,right,2535,1,2,2119.399999976158
TZpCjSAn,375vsr8fwzmfz1886kcfytzzg59zr5,3nql1cs15vl9a2deakk8a3bszsoyvt,TZpCjSAn,2020-0188,2021-10-30,15:09:04,16:53:19,NA,incomplete,false,NA,true,NA,1,8,NA,NA,NA,right,NA,NA,NA,absent,NA,NA,n_l_038.jpg,red,n_s_027.jpg,red,within,NA,NaN,NA,NA,NA,NA,right,2591.2000000476837,1,1,1415.1000000238419
TZpCjSAn,375vsr8fwzmfz1886kcfytzzg59zr5,3nql1cs15vl9a2deakk8a3bszsoyvt,TZpCjSAn,2020-0188,2021-10-30,15:09:04,16:53:19,NA,incomplete,false,NA,true,NA,1,9,NA,NA,NA,left,NA,NA,NA,absent,NA,NA,n_s_062.jpg,green,m_s_023.jpg,yellow,between,NA,NaN,NA,NA,NA,NA,left,2055.2000000476837,1,1,1463.3000000715256
TZpCjSAn,375vsr8fwzmfz1886kcfytzzg59zr5,3nql1cs15vl9a2deakk8a3bszsoyvt,TZpCjSAn,2020-0188,2021-10-30,15:09:04,16:53:19,NA,incomplete,false,NA,true,NA,1,10,NA,NA,NA,left,NA,NA,NA,absent,NA,NA,m_l_113.jpg,green,m_l_084.jpg,green,within,NA,NaN,NA,NA,NA,NA,left,1799.3000000715256,1,1,1591.3000000715256
TZpCjSAn,375vsr8fwzmfz1886kcfytzzg59zr5,3nql1cs15vl9a2deakk8a3bszsoyvt,TZpCjSAn,2020-0188,2021-10-30,15:09:04,16:53:19,NA,incomplete,false,true,NA,NA,2,0,NA,blue,m_s_051.jpg,NA,NA,NA,NA,NA,pleasant,unpleasant,NA,NA,NA,NA,NA,none,0,false,NA,NA,NA,NA,NA,NA,NA,NA
TZpCjSAn,375vsr8fwzmfz1886kcfytzzg59zr5,3nql1cs15vl9a2deakk8a3bszsoyvt,TZpCjSAn,2020-0188,2021-10-30,15:09:04,16:53:19,NA,incomplete,false,true,NA,NA,2,1,NA,blue,m_s_037.jpg,NA,NA,NA,NA,NA,unpleasant,pleasant,NA,NA,NA,NA,NA,none,0,false,NA,NA,NA,NA,NA,NA,NA,NA
TZpCjSAn,375vsr8fwzmfz1886kcfytzzg59zr5,3nql1cs15vl9a2deakk8a3bszsoyvt,TZpCjSAn,2020-0188,2021-10-30,15:09:04,16:53:19,NA,incomplete,false,true,NA,NA,2,2,NA,blue,n_l_042.jpg,NA,NA,NA,NA,NA,pleasant,unpleasant,NA,NA,NA,NA,NA,none,0,false,NA,NA,NA,NA,NA,NA,NA,NA
TZpCjSAn,375vsr8fwzmfz1886kcfytzzg59zr5,3nql1cs15vl9a2deakk8a3bszsoyvt,TZpCjSAn,2020-0188,2021-10-30,15:09:04,16:53:19,NA,incomplete,false,true,NA,NA,2,3,NA,blue,n_l_004.jpg,NA,NA,NA,NA,NA,pleasant,unpleasant,NA,NA,NA,NA,NA,none,0,false,NA,NA,NA,NA,NA,NA,NA,NA
TZpCjSAn,375vsr8fwzmfz1886kcfytzzg59zr5,3nql1cs15vl9a2deakk8a3bszsoyvt,TZpCjSAn,2020-0188,2021-10-30,15:09:04,16:53:19,NA,incomplete,false,true,NA,NA,2,4,NA,blue,n_s_043.jpg,NA,NA,NA,NA,NA,unpleasant,pleasant,NA,NA,NA,NA,NA,none,0,false,NA,NA,NA,NA,NA,NA,NA,NA
TZpCjSAn,375vsr8fwzmfz1886kcfytzzg59zr5,3nql1cs15vl9a2deakk8a3bszsoyvt,TZpCjSAn,2020-0188,2021-10-30,15:09:04,16:53:19,NA,incomplete,false,true,NA,NA,2,5,NA,blue,m_s_043.jpg,NA,NA,NA,NA,NA,pleasant,unpleasant,NA,NA,NA,NA,NA,none,0,false,NA,NA,NA,NA,NA,NA,NA,NA
TZpCjSAn,375vsr8fwzmfz1886kcfytzzg59zr5,3nql1cs15vl9a2deakk8a3bszsoyvt,TZpCjSAn,2020-0188,2021-10-30,15:09:04,16:53:19,NA,incomplete,false,true,NA,NA,2,6,NA,white,n_s_021.jpg,NA,NA,NA,NA,NA,unpleasant,pleasant,NA,NA,NA,NA,NA,none,0,false,NA,NA,NA,NA,NA,NA,NA,NA
TZpCjSAn,375vsr8fwzmfz1886kcfytzzg59zr5,3nql1cs15vl9a2deakk8a3bszsoyvt,TZpCjSAn,2020-0188,2021-10-30,15:09:04,16:53:19,NA,incomplete,false,true,NA,NA,2,7,NA,white,m_s_106.jpg,NA,NA,NA,NA,NA,pleasant,unpleasant,NA,NA,NA,NA,NA,none,0,false,NA,NA,NA,NA,NA,NA,NA,NA
TZpCjSAn,375vsr8fwzmfz1886kcfytzzg59zr5,3nql1cs15vl9a2deakk8a3bszsoyvt,TZpCjSAn,2020-0188,2021-10-30,15:09:04,16:53:19,NA,incomplete,false,true,NA,NA,2,8,NA,white,n_l_106.jpg,NA,NA,NA,NA,NA,unpleasant,pleasant,NA,NA,NA,NA,NA,none,0,false,NA,NA,NA,NA,NA,NA,NA,NA
TZpCjSAn,375vsr8fwzmfz1886kcfytzzg59zr5,3nql1cs15vl9a2deakk8a3bszsoyvt,TZpCjSAn,2020-0188,2021-10-30,15:09:04,16:53:19,NA,incomplete,false,true,NA,NA,2,9,NA,white,n_l_079.jpg,NA,NA,NA,NA,NA,pleasant,unpleasant,NA,NA,NA,NA,NA,none,0,false,NA,NA,NA,NA,NA,NA,NA,NA
TZpCjSAn,375vsr8fwzmfz1886kcfytzzg59zr5,3nql1cs15vl9a2deakk8a3bszsoyvt,TZpCjSAn,2020-0188,2021-10-30,15:09:04,16:53:19,NA,incomplete,false,true,NA,NA,2,10,NA,white,m_s_040.jpg,NA,NA,NA,NA,NA,unpleasant,pleasant,NA,NA,NA,NA,NA,none,0,false,NA,NA,NA,NA,NA,NA,NA,NA
TZpCjSAn,375vsr8fwzmfz1886kcfytzzg59zr5,3nql1cs15vl9a2deakk8a3bszsoyvt,TZpCjSAn,2020-0188,2021-10-30,15:09:04,16:53:19,NA,incomplete,false,true,NA,NA,2,11,NA,white,n_l_117.jpg,NA,NA,NA,NA,NA,pleasant,unpleasant,NA,NA,NA,NA,NA,none,0,false,NA,NA,NA,NA,NA,NA,NA,NA
TZpCjSAn,375vsr8fwzmfz1886kcfytzzg59zr5,3nql1cs15vl9a2deakk8a3bszsoyvt,TZpCjSAn,2020-0188,2021-10-30,15:09:04,16:53:19,NA,incomplete,false,true,NA,NA,2,12,NA,brown,n_l_093.jpg,NA,NA,NA,NA,NA,pleasant,unpleasant,NA,NA,NA,NA,NA,none,0,false,NA,NA,NA,NA,NA,NA,NA,NA
TZpCjSAn,375vsr8fwzmfz1886kcfytzzg59zr5,3nql1cs15vl9a2deakk8a3bszsoyvt,TZpCjSAn,2020-0188,2021-10-30,15:09:04,16:53:19,NA,incomplete,false,true,NA,NA,2,13,NA,brown,m_l_042.jpg,NA,NA,NA,NA,NA,unpleasant,pleasant,NA,NA,NA,NA,NA,none,0,false,NA,NA,NA,NA,NA,NA,NA,NA
TZpCjSAn,375vsr8fwzmfz1886kcfytzzg59zr5,3nql1cs15vl9a2deakk8a3bszsoyvt,TZpCjSAn,2020-0188,2021-10-30,15:09:04,16:53:19,NA,incomplete,false,true,NA,NA,2,14,NA,brown,n_l_003.jpg,NA,NA,NA,NA,NA,pleasant,unpleasant,NA,NA,NA,NA,NA,none,0,false,NA,NA,NA,NA,NA,NA,NA,NA
TZpCjSAn,375vsr8fwzmfz1886kcfytzzg59zr5,3nql1cs15vl9a2deakk8a3bszsoyvt,TZpCjSAn,2020-0188,2021-10-30,15:09:04,16:53:19,NA,incomplete,false,true,NA,NA,2,15,NA,brown,m_l_028.jpg,NA,NA,NA,NA,NA,pleasant,unpleasant,NA,NA,NA,NA,NA,none,0,false,NA,NA,NA,NA,NA,NA,NA,NA
TZpCjSAn,375vsr8fwzmfz1886kcfytzzg59zr5,3nql1cs15vl9a2deakk8a3bszsoyvt,TZpCjSAn,2020-0188,2021-10-30,15:09:04,16:53:19,NA,incomplete,false,true,NA,NA,2,16,NA,brown,m_s_086.jpg,NA,NA,NA,NA,NA,pleasant,unpleasant,NA,NA,NA,NA,NA,none,0,false,NA,NA,NA,NA,NA,NA,NA,NA
TZpCjSAn,375vsr8fwzmfz1886kcfytzzg59zr5,3nql1cs15vl9a2deakk8a3bszsoyvt,TZpCjSAn,2020-0188,2021-10-30,15:09:04,16:53:19,NA,incomplete,false,true,NA,NA,2,17,NA,brown,n_s_088.jpg,NA,NA,NA,NA,NA,unpleasant,pleasant,NA,NA,NA,NA,NA,none,0,false,NA,NA,NA,NA,NA,NA,NA,NA
TZpCjSAn,375vsr8fwzmfz1886kcfytzzg59zr5,3nql1cs15vl9a2deakk8a3bszsoyvt,TZpCjSAn,2020-0188,2021-10-30,15:09:04,16:53:19,NA,incomplete,false,true,NA,NA,2,18,NA,purple,m_s_049.jpg,NA,NA,NA,NA,NA,unpleasant,pleasant,NA,NA,NA,NA,NA,right,3267.60000002384,true,NA,NA,NA,NA,NA,NA,NA,NA
TZpCjSAn,375vsr8fwzmfz1886kcfytzzg59zr5,3nql1cs15vl9a2deakk8a3bszsoyvt,TZpCjSAn,2020-0188,2021-10-30,15:09:04,16:53:19,NA,incomplete,false,true,NA,NA,2,19,NA,purple,n_s_008.jpg,NA,NA,NA,NA,NA,unpleasant,pleasant,NA,NA,NA,NA,NA,right,1224.60000002384,true,NA,NA,NA,NA,NA,NA,NA,NA
TZpCjSAn,375vsr8fwzmfz1886kcfytzzg59zr5,3nql1cs15vl9a2deakk8a3bszsoyvt,TZpCjSAn,2020-0188,2021-10-30,15:09:04,16:53:19,NA,incomplete,false,true,NA,NA,2,20,NA,purple,n_l_061.jpg,NA,NA,NA,NA,NA,pleasant,unpleasant,NA,NA,NA,NA,NA,left,1013.70000004768,true,NA,NA,NA,NA,NA,NA,NA,NA
TZpCjSAn,375vsr8fwzmfz1886kcfytzzg59zr5,3nql1cs15vl9a2deakk8a3bszsoyvt,TZpCjSAn,2020-0188,2021-10-30,15:09:04,16:53:19,NA,incomplete,false,true,NA,NA,2,21,NA,purple,m_s_053.jpg,NA,NA,NA,NA,NA,unpleasant,pleasant,NA,NA,NA,NA,NA,right,1516.10000002384,true,NA,NA,NA,NA,NA,NA,NA,NA
TZpCjSAn,375vsr8fwzmfz1886kcfytzzg59zr5,3nql1cs15vl9a2deakk8a3bszsoyvt,TZpCjSAn,2020-0188,2021-10-30,15:09:04,16:53:19,NA,incomplete,false,true,NA,NA,2,22,NA,purple,m_l_082.jpg,NA,NA,NA,NA,NA,unpleasant,pleasant,NA,NA,NA,NA,NA,right,1121.20000004768,true,NA,NA,NA,NA,NA,NA,NA,NA
TZpCjSAn,375vsr8fwzmfz1886kcfytzzg59zr5,3nql1cs15vl9a2deakk8a3bszsoyvt,TZpCjSAn,2020-0188,2021-10-30,15:09:04,16:53:19,NA,incomplete,false,true,NA,NA,2,23,NA,purple,n_s_080.jpg,NA,NA,NA,NA,NA,unpleasant,pleasant,NA,NA,NA,NA,NA,left,934.300000071526,true,NA,NA,NA,NA,NA,NA,NA,NA
TZpCjSAn,375vsr8fwzmfz1886kcfytzzg59zr5,3nql1cs15vl9a2deakk8a3bszsoyvt,TZpCjSAn,2020-0188,2021-10-30,15:09:04,16:53:19,NA,incomplete,false,true,NA,NA,2,24,NA,green,m_l_039.jpg,NA,NA,NA,NA,NA,unpleasant,pleasant,NA,NA,NA,NA,NA,right,2835.5,true,NA,NA,NA,NA,NA,NA,NA,NA
TZpCjSAn,375vsr8fwzmfz1886kcfytzzg59zr5,3nql1cs15vl9a2deakk8a3bszsoyvt,TZpCjSAn,2020-0188,2021-10-30,15:09:04,16:53:19,NA,incomplete,false,true,NA,NA,2,25,NA,green,m_s_041.jpg,NA,NA,NA,NA,NA,pleasant,unpleasant,NA,NA,NA,NA,NA,left,1536.40000009537,true,NA,NA,NA,NA,NA,NA,NA,NA
TZpCjSAn,375vsr8fwzmfz1886kcfytzzg59zr5,3nql1cs15vl9a2deakk8a3bszsoyvt,TZpCjSAn,2020-0188,2021-10-30,15:09:04,16:53:19,NA,incomplete,false,true,NA,NA,2,26,NA,green,n_s_034.jpg,NA,NA,NA,NA,NA,pleasant,unpleasant,NA,NA,NA,NA,NA,left,997.399999976158,true,NA,NA,NA,NA,NA,NA,NA,NA
TZpCjSAn,375vsr8fwzmfz1886kcfytzzg59zr5,3nql1cs15vl9a2deakk8a3bszsoyvt,TZpCjSAn,2020-0188,2021-10-30,15:09:04,16:53:19,NA,incomplete,false,true,NA,NA,2,27,NA,green,m_s_046.jpg,NA,NA,NA,NA,NA,pleasant,unpleasant,NA,NA,NA,NA,NA,left,3227.5,true,NA,NA,NA,NA,NA,NA,NA,NA
TZpCjSAn,375vsr8fwzmfz1886kcfytzzg59zr5,3nql1cs15vl9a2deakk8a3bszsoyvt,TZpCjSAn,2020-0188,2021-10-30,15:09:04,16:53:19,NA,incomplete,false,true,NA,NA,2,28,NA,green,n_s_096.jpg,NA,NA,NA,NA,NA,pleasant,unpleasant,NA,NA,NA,NA,NA,left,929,true,NA,NA,NA,NA,NA,NA,NA,NA
TZpCjSAn,375vsr8fwzmfz1886kcfytzzg59zr5,3nql1cs15vl9a2deakk8a3bszsoyvt,TZpCjSAn,2020-0188,2021-10-30,15:09:04,16:53:19,NA,incomplete,false,true,NA,NA,2,29,NA,green,n_l_104.jpg,NA,NA,NA,NA,NA,unpleasant,pleasant,NA,NA,NA,NA,NA,right,1894.70000004768,true,NA,NA,NA,NA,NA,NA,NA,NA
TZpCjSAn,375vsr8fwzmfz1886kcfytzzg59zr5,3nql1cs15vl9a2deakk8a3bszsoyvt,TZpCjSAn,2020-0188,2021-10-30,15:09:04,16:53:19,NA,incomplete,false,true,NA,NA,2,30,NA,black,n_l_036.jpg,NA,NA,NA,NA,NA,unpleasant,pleasant,NA,NA,NA,NA,NA,right,1836.5,true,NA,NA,NA,NA,NA,NA,NA,NA
TZpCjSAn,375vsr8fwzmfz1886kcfytzzg59zr5,3nql1cs15vl9a2deakk8a3bszsoyvt,TZpCjSAn,2020-0188,2021-10-30,15:09:04,16:53:19,NA,incomplete,false,true,NA,NA,2,31,NA,black,m_l_013.jpg,NA,NA,NA,NA,NA,pleasant,unpleasant,NA,NA,NA,NA,NA,left,2121.59999990463,true,NA,NA,NA,NA,NA,NA,NA,NA
TZpCjSAn,375vsr8fwzmfz1886kcfytzzg59zr5,3nql1cs15vl9a2deakk8a3bszsoyvt,TZpCjSAn,2020-0188,2021-10-30,15:09:04,16:53:19,NA,incomplete,false,true,NA,NA,2,32,NA,black,m_l_017.jpg,NA,NA,NA,NA,NA,unpleasant,pleasant,NA,NA,NA,NA,NA,right,1014.39999997616,true,NA,NA,NA,NA,NA,NA,NA,NA
TZpCjSAn,375vsr8fwzmfz1886kcfytzzg59zr5,3nql1cs15vl9a2deakk8a3bszsoyvt,TZpCjSAn,2020-0188,2021-10-30,15:09:04,16:53:19,NA,incomplete,false,true,NA,NA,2,33,NA,black,n_l_069.jpg,NA,NA,NA,NA,NA,pleasant,unpleasant,NA,NA,NA,NA,NA,left,924,true,NA,NA,NA,NA,NA,NA,NA,NA
TZpCjSAn,375vsr8fwzmfz1886kcfytzzg59zr5,3nql1cs15vl9a2deakk8a3bszsoyvt,TZpCjSAn,2020-0188,2021-10-30,15:09:04,16:53:19,NA,incomplete,false,true,NA,NA,2,34,NA,black,m_s_064.jpg,NA,NA,NA,NA,NA,pleasant,unpleasant,NA,NA,NA,NA,NA,left,1249.30000007153,true,NA,NA,NA,NA,NA,NA,NA,NA
TZpCjSAn,375vsr8fwzmfz1886kcfytzzg59zr5,3nql1cs15vl9a2deakk8a3bszsoyvt,TZpCjSAn,2020-0188,2021-10-30,15:09:04,16:53:19,NA,incomplete,false,true,NA,NA,2,35,NA,black,m_s_009.jpg,NA,NA,NA,NA,NA,pleasant,unpleasant,NA,NA,NA,NA,NA,left,1119.10000002384,true,NA,NA,NA,NA,NA,NA,NA,NA
TZpCjSAn,375vsr8fwzmfz1886kcfytzzg59zr5,3nql1cs15vl9a2deakk8a3bszsoyvt,TZpCjSAn,2020-0188,2021-10-30,15:09:04,16:53:19,NA,incomplete,false,NA,NA,true,2,0,NA,NA,NA,right,m_s_043.jpg,white,blue,NA,NA,NA,NA,NA,NA,NA,NA,NA,NaN,NA,1839.0999999046326,right,1,NA,NA,NA,NA,NA
TZpCjSAn,375vsr8fwzmfz1886kcfytzzg59zr5,3nql1cs15vl9a2deakk8a3bszsoyvt,TZpCjSAn,2020-0188,2021-10-30,15:09:04,16:53:19,NA,incomplete,false,NA,NA,true,2,1,NA,NA,NA,right,m_s_041.jpg,black,green,NA,NA,NA,NA,NA,NA,NA,NA,NA,NaN,NA,1647.1000000238419,left,0,NA,NA,NA,NA,NA
TZpCjSAn,375vsr8fwzmfz1886kcfytzzg59zr5,3nql1cs15vl9a2deakk8a3bszsoyvt,TZpCjSAn,2020-0188,2021-10-30,15:09:04,16:53:19,NA,incomplete,false,NA,NA,true,2,2,NA,NA,NA,left,n_s_088.jpg,brown,white,NA,NA,NA,NA,NA,NA,NA,NA,NA,NaN,NA,1175.2999999523163,left,1,NA,NA,NA,NA,NA
TZpCjSAn,375vsr8fwzmfz1886kcfytzzg59zr5,3nql1cs15vl9a2deakk8a3bszsoyvt,TZpCjSAn,2020-0188,2021-10-30,15:09:04,16:53:19,NA,incomplete,false,NA,NA,true,2,3,NA,NA,NA,left,n_l_106.jpg,white,blue,NA,NA,NA,NA,NA,NA,NA,NA,NA,NaN,NA,1863.6000000238419,left,1,NA,NA,NA,NA,NA
TZpCjSAn,375vsr8fwzmfz1886kcfytzzg59zr5,3nql1cs15vl9a2deakk8a3bszsoyvt,TZpCjSAn,2020-0188,2021-10-30,15:09:04,16:53:19,NA,incomplete,false,NA,NA,true,2,4,NA,NA,NA,left,n_s_080.jpg,purple,green,NA,NA,NA,NA,NA,NA,NA,NA,NA,NaN,NA,2775.2999999523163,left,1,NA,NA,NA,NA,NA
TZpCjSAn,375vsr8fwzmfz1886kcfytzzg59zr5,3nql1cs15vl9a2deakk8a3bszsoyvt,TZpCjSAn,2020-0188,2021-10-30,15:09:04,16:53:19,NA,incomplete,false,NA,NA,true,2,5,NA,NA,NA,left,n_l_003.jpg,brown,white,NA,NA,NA,NA,NA,NA,NA,NA,NA,NaN,NA,3279.6999999284744,right,0,NA,NA,NA,NA,NA
TZpCjSAn,375vsr8fwzmfz1886kcfytzzg59zr5,3nql1cs15vl9a2deakk8a3bszsoyvt,TZpCjSAn,2020-0188,2021-10-30,15:09:04,16:53:19,NA,incomplete,false,NA,NA,true,2,6,NA,NA,NA,right,n_l_104.jpg,black,green,NA,NA,NA,NA,NA,NA,NA,NA,NA,NaN,NA,4279.300000071526,left,0,NA,NA,NA,NA,NA
TZpCjSAn,375vsr8fwzmfz1886kcfytzzg59zr5,3nql1cs15vl9a2deakk8a3bszsoyvt,TZpCjSAn,2020-0188,2021-10-30,15:09:04,16:53:19,NA,incomplete,false,NA,NA,true,2,7,NA,NA,NA,right,m_s_040.jpg,blue,white,NA,NA,NA,NA,NA,NA,NA,NA,NA,NaN,NA,14119.300000071526,right,1,NA,NA,NA,NA,NA
TZpCjSAn,375vsr8fwzmfz1886kcfytzzg59zr5,3nql1cs15vl9a2deakk8a3bszsoyvt,TZpCjSAn,2020-0188,2021-10-30,15:09:04,16:53:19,NA,incomplete,false,NA,NA,true,2,8,NA,NA,NA,right,m_s_086.jpg,white,brown,NA,NA,NA,NA,NA,NA,NA,NA,NA,NaN,NA,4231.399999976158,right,1,NA,NA,NA,NA,NA
TZpCjSAn,375vsr8fwzmfz1886kcfytzzg59zr5,3nql1cs15vl9a2deakk8a3bszsoyvt,TZpCjSAn,2020-0188,2021-10-30,15:09:04,16:53:19,NA,incomplete,false,NA,NA,true,2,9,NA,NA,NA,left,m_l_082.jpg,purple,green,NA,NA,NA,NA,NA,NA,NA,NA,NA,NaN,NA,3399.3000000715256,left,1,NA,NA,NA,NA,NA
TZpCjSAn,375vsr8fwzmfz1886kcfytzzg59zr5,3nql1cs15vl9a2deakk8a3bszsoyvt,TZpCjSAn,2020-0188,2021-10-30,15:09:04,16:53:19,NA,incomplete,false,NA,NA,true,2,10,NA,NA,NA,right,n_s_008.jpg,green,purple,NA,NA,NA,NA,NA,NA,NA,NA,NA,NaN,NA,1374.7000000476837,right,1,NA,NA,NA,NA,NA
TZpCjSAn,375vsr8fwzmfz1886kcfytzzg59zr5,3nql1cs15vl9a2deakk8a3bszsoyvt,TZpCjSAn,2020-0188,2021-10-30,15:09:04,16:53:19,NA,incomplete,false,NA,NA,true,2,11,NA,NA,NA,left,n_s_096.jpg,green,purple,NA,NA,NA,NA,NA,NA,NA,NA,NA,NaN,NA,1015,right,0,NA,NA,NA,NA,NA
TZpCjSAn,375vsr8fwzmfz1886kcfytzzg59zr5,3nql1cs15vl9a2deakk8a3bszsoyvt,TZpCjSAn,2020-0188,2021-10-30,15:09:04,16:53:19,NA,incomplete,false,NA,NA,true,2,12,NA,NA,NA,right,m_l_042.jpg,purple,brown,NA,NA,NA,NA,NA,NA,NA,NA,NA,NaN,NA,2614.8000000715256,left,0,NA,NA,NA,NA,NA
TZpCjSAn,375vsr8fwzmfz1886kcfytzzg59zr5,3nql1cs15vl9a2deakk8a3bszsoyvt,TZpCjSAn,2020-0188,2021-10-30,15:09:04,16:53:19,NA,incomplete,false,NA,NA,true,2,13,NA,NA,NA,right,n_s_034.jpg,black,green,NA,NA,NA,NA,NA,NA,NA,NA,NA,NaN,NA,1695,left,0,NA,NA,NA,NA,NA
TZpCjSAn,375vsr8fwzmfz1886kcfytzzg59zr5,3nql1cs15vl9a2deakk8a3bszsoyvt,TZpCjSAn,2020-0188,2021-10-30,15:09:04,16:53:19,NA,incomplete,false,NA,NA,true,2,14,NA,NA,NA,right,m_l_013.jpg,green,black,NA,NA,NA,NA,NA,NA,NA,NA,NA,NaN,NA,2159,right,1,NA,NA,NA,NA,NA
TZpCjSAn,375vsr8fwzmfz1886kcfytzzg59zr5,3nql1cs15vl9a2deakk8a3bszsoyvt,TZpCjSAn,2020-0188,2021-10-30,15:09:04,16:53:19,NA,incomplete,false,NA,NA,true,2,15,NA,NA,NA,right,m_l_017.jpg,green,black,NA,NA,NA,NA,NA,NA,NA,NA,NA,NaN,NA,1391.2000000476837,right,1,NA,NA,NA,NA,NA
TZpCjSAn,375vsr8fwzmfz1886kcfytzzg59zr5,3nql1cs15vl9a2deakk8a3bszsoyvt,TZpCjSAn,2020-0188,2021-10-30,15:09:04,16:53:19,NA,incomplete,false,NA,NA,true,2,16,NA,NA,NA,right,m_s_037.jpg,white,blue,NA,NA,NA,NA,NA,NA,NA,NA,NA,NaN,NA,2447.1999999284744,right,1,NA,NA,NA,NA,NA
TZpCjSAn,375vsr8fwzmfz1886kcfytzzg59zr5,3nql1cs15vl9a2deakk8a3bszsoyvt,TZpCjSAn,2020-0188,2021-10-30,15:09:04,16:53:19,NA,incomplete,false,NA,NA,true,2,17,NA,NA,NA,left,n_l_061.jpg,purple,brown,NA,NA,NA,NA,NA,NA,NA,NA,NA,NaN,NA,1511.6000000238419,right,0,NA,NA,NA,NA,NA
TZpCjSAn,375vsr8fwzmfz1886kcfytzzg59zr5,3nql1cs15vl9a2deakk8a3bszsoyvt,TZpCjSAn,2020-0188,2021-10-30,15:09:04,16:53:19,NA,incomplete,false,NA,NA,true,2,18,NA,NA,NA,left,n_l_117.jpg,white,blue,NA,NA,NA,NA,NA,NA,NA,NA,NA,NaN,NA,1214.8000000715256,right,0,NA,NA,NA,NA,NA
TZpCjSAn,375vsr8fwzmfz1886kcfytzzg59zr5,3nql1cs15vl9a2deakk8a3bszsoyvt,TZpCjSAn,2020-0188,2021-10-30,15:09:04,16:53:19,NA,incomplete,false,NA,NA,true,2,19,NA,NA,NA,left,n_s_043.jpg,blue,white,NA,NA,NA,NA,NA,NA,NA,NA,NA,NaN,NA,1391.3999999761581,left,1,NA,NA,NA,NA,NA
TZpCjSAn,375vsr8fwzmfz1886kcfytzzg59zr5,3nql1cs15vl9a2deakk8a3bszsoyvt,TZpCjSAn,2020-0188,2021-10-30,15:09:04,16:53:19,NA,incomplete,false,NA,NA,true,2,20,NA,NA,NA,right,m_s_106.jpg,blue,white,NA,NA,NA,NA,NA,NA,NA,NA,NA,NaN,NA,13038.800000071526,left,0,NA,NA,NA,NA,NA
TZpCjSAn,375vsr8fwzmfz1886kcfytzzg59zr5,3nql1cs15vl9a2deakk8a3bszsoyvt,TZpCjSAn,2020-0188,2021-10-30,15:09:04,16:53:19,NA,incomplete,false,NA,NA,true,2,21,NA,NA,NA,right,m_s_009.jpg,green,black,NA,NA,NA,NA,NA,NA,NA,NA,NA,NaN,NA,4671,left,0,NA,NA,NA,NA,NA
TZpCjSAn,375vsr8fwzmfz1886kcfytzzg59zr5,3nql1cs15vl9a2deakk8a3bszsoyvt,TZpCjSAn,2020-0188,2021-10-30,15:09:04,16:53:19,NA,incomplete,false,NA,true,NA,2,0,NA,NA,NA,right,NA,NA,NA,absent,NA,NA,m_s_009.jpg,black,m_l_013.jpg,black,within,NA,NaN,NA,NA,NA,NA,right,6726.200000047684,1,1,1566.3000000715256
TZpCjSAn,375vsr8fwzmfz1886kcfytzzg59zr5,3nql1cs15vl9a2deakk8a3bszsoyvt,TZpCjSAn,2020-0188,2021-10-30,15:09:04,16:53:19,NA,incomplete,false,NA,true,NA,2,1,NA,NA,NA,right,NA,NA,NA,absent,NA,NA,m_s_043.jpg,blue,m_s_037.jpg,blue,within,NA,NaN,NA,NA,NA,NA,left,1430.6000000238419,0,2,782.7000000476837
TZpCjSAn,375vsr8fwzmfz1886kcfytzzg59zr5,3nql1cs15vl9a2deakk8a3bszsoyvt,TZpCjSAn,2020-0188,2021-10-30,15:09:04,16:53:19,NA,incomplete,false,NA,true,NA,2,2,NA,NA,NA,left,NA,NA,NA,absent,NA,NA,m_s_106.jpg,white,n_l_117.jpg,white,within,NA,NaN,NA,NA,NA,NA,left,1717.5999999046326,1,1,790.6000000238419
TZpCjSAn,375vsr8fwzmfz1886kcfytzzg59zr5,3nql1cs15vl9a2deakk8a3bszsoyvt,TZpCjSAn,2020-0188,2021-10-30,15:09:04,16:53:19,NA,incomplete,false,NA,true,NA,2,3,NA,NA,NA,right,NA,NA,NA,absent,NA,NA,n_l_104.jpg,green,m_s_041.jpg,green,within,NA,NaN,NA,NA,NA,NA,right,3999,1,1,2855.2000000476837
TZpCjSAn,375vsr8fwzmfz1886kcfytzzg59zr5,3nql1cs15vl9a2deakk8a3bszsoyvt,TZpCjSAn,2020-0188,2021-10-30,15:09:04,16:53:19,NA,incomplete,false,NA,true,NA,2,4,NA,NA,NA,right,NA,NA,NA,absent,NA,NA,n_s_080.jpg,purple,n_s_008.jpg,purple,within,NA,NaN,NA,NA,NA,NA,right,5599,1,2,2535.399999976158
TZpCjSAn,375vsr8fwzmfz1886kcfytzzg59zr5,3nql1cs15vl9a2deakk8a3bszsoyvt,TZpCjSAn,2020-0188,2021-10-30,15:09:04,16:53:19,NA,incomplete,false,NA,true,NA,2,5,NA,NA,NA,left,NA,NA,NA,absent,NA,NA,n_s_096.jpg,green,m_l_017.jpg,black,between,NA,NaN,NA,NA,NA,NA,left,3111.1999999284744,1,1,1847.2000000476837
TZpCjSAn,375vsr8fwzmfz1886kcfytzzg59zr5,3nql1cs15vl9a2deakk8a3bszsoyvt,TZpCjSAn,2020-0188,2021-10-30,15:09:04,16:53:19,NA,incomplete,false,NA,true,NA,2,6,NA,NA,NA,left,NA,NA,NA,absent,NA,NA,m_l_082.jpg,purple,n_s_034.jpg,green,between,NA,NaN,NA,NA,NA,NA,left,3111.3000000715256,1,1,1607.0999999046326
TZpCjSAn,375vsr8fwzmfz1886kcfytzzg59zr5,3nql1cs15vl9a2deakk8a3bszsoyvt,TZpCjSAn,2020-0188,2021-10-30,15:09:04,16:53:19,NA,incomplete,false,NA,true,NA,2,7,NA,NA,NA,right,NA,NA,NA,absent,NA,NA,n_l_106.jpg,white,n_s_043.jpg,blue,between,NA,NaN,NA,NA,NA,NA,right,3143.100000023842,1,1,2511.2000000476837
TZpCjSAn,375vsr8fwzmfz1886kcfytzzg59zr5,3nql1cs15vl9a2deakk8a3bszsoyvt,TZpCjSAn,2020-0188,2021-10-30,15:09:04,16:53:19,NA,incomplete,false,NA,true,NA,2,8,NA,NA,NA,left,NA,NA,NA,absent,NA,NA,m_l_042.jpg,brown,n_s_088.jpg,brown,within,NA,NaN,NA,NA,NA,NA,right,1535.6000000238419,0,0,2711.4000000953674
TZpCjSAn,375vsr8fwzmfz1886kcfytzzg59zr5,3nql1cs15vl9a2deakk8a3bszsoyvt,TZpCjSAn,2020-0188,2021-10-30,15:09:04,16:53:19,NA,incomplete,false,NA,true,NA,2,9,NA,NA,NA,left,NA,NA,NA,absent,NA,NA,m_s_040.jpg,white,n_l_003.jpg,brown,between,NA,NaN,NA,NA,NA,NA,left,3758.9000000953674,1,1,1487
TZpCjSAn,375vsr8fwzmfz1886kcfytzzg59zr5,3nql1cs15vl9a2deakk8a3bszsoyvt,TZpCjSAn,2020-0188,2021-10-30,15:09:04,16:53:19,NA,incomplete,false,NA,true,NA,2,10,NA,NA,NA,left,NA,NA,NA,absent,NA,NA,m_s_086.jpg,brown,n_l_061.jpg,purple,between,NA,NaN,NA,NA,NA,NA,left,12519.199999928474,1,0,21319
TZpCjSAn,375vsr8fwzmfz1886kcfytzzg59zr5,3nql1cs15vl9a2deakk8a3bszsoyvt,TZpCjSAn,2020-0188,2021-10-30,15:09:04,16:53:19,NA,incomplete,false,true,NA,NA,3,0,NA,black,m_l_083.jpg,NA,NA,NA,NA,NA,pleasant,unpleasant,NA,NA,NA,NA,NA,left,2254.60000002384,true,NA,NA,NA,NA,NA,NA,NA,NA
TZpCjSAn,375vsr8fwzmfz1886kcfytzzg59zr5,3nql1cs15vl9a2deakk8a3bszsoyvt,TZpCjSAn,2020-0188,2021-10-30,15:09:04,16:53:19,NA,incomplete,false,true,NA,NA,3,1,NA,black,n_l_021.jpg,NA,NA,NA,NA,NA,unpleasant,pleasant,NA,NA,NA,NA,NA,right,875.400000095367,true,NA,NA,NA,NA,NA,NA,NA,NA
TZpCjSAn,375vsr8fwzmfz1886kcfytzzg59zr5,3nql1cs15vl9a2deakk8a3bszsoyvt,TZpCjSAn,2020-0188,2021-10-30,15:09:04,16:53:19,NA,incomplete,false,true,NA,NA,3,2,NA,black,n_l_043.jpg,NA,NA,NA,NA,NA,pleasant,unpleasant,NA,NA,NA,NA,NA,left,840.799999952316,true,NA,NA,NA,NA,NA,NA,NA,NA
TZpCjSAn,375vsr8fwzmfz1886kcfytzzg59zr5,3nql1cs15vl9a2deakk8a3bszsoyvt,TZpCjSAn,2020-0188,2021-10-30,15:09:04,16:53:19,NA,incomplete,false,true,NA,NA,3,3,NA,black,m_s_111.jpg,NA,NA,NA,NA,NA,pleasant,unpleasant,NA,NA,NA,NA,NA,left,1629.60000002384,true,NA,NA,NA,NA,NA,NA,NA,NA
TZpCjSAn,375vsr8fwzmfz1886kcfytzzg59zr5,3nql1cs15vl9a2deakk8a3bszsoyvt,TZpCjSAn,2020-0188,2021-10-30,15:09:04,16:53:19,NA,incomplete,false,true,NA,NA,3,4,NA,black,m_s_017.jpg,NA,NA,NA,NA,NA,pleasant,unpleasant,NA,NA,NA,NA,NA,left,1579.29999995232,true,NA,NA,NA,NA,NA,NA,NA,NA
TZpCjSAn,375vsr8fwzmfz1886kcfytzzg59zr5,3nql1cs15vl9a2deakk8a3bszsoyvt,TZpCjSAn,2020-0188,2021-10-30,15:09:04,16:53:19,NA,incomplete,false,true,NA,NA,3,5,NA,black,m_l_077.jpg,NA,NA,NA,NA,NA,pleasant,unpleasant,NA,NA,NA,NA,NA,left,2089.09999990463,true,NA,NA,NA,NA,NA,NA,NA,NA
TZpCjSAn,375vsr8fwzmfz1886kcfytzzg59zr5,3nql1cs15vl9a2deakk8a3bszsoyvt,TZpCjSAn,2020-0188,2021-10-30,15:09:04,16:53:19,NA,incomplete,false,true,NA,NA,3,6,NA,blue,n_l_081.jpg,NA,NA,NA,NA,NA,pleasant,unpleasant,NA,NA,NA,NA,NA,left,1310,true,NA,NA,NA,NA,NA,NA,NA,NA
TZpCjSAn,375vsr8fwzmfz1886kcfytzzg59zr5,3nql1cs15vl9a2deakk8a3bszsoyvt,TZpCjSAn,2020-0188,2021-10-30,15:09:04,16:53:19,NA,incomplete,false,true,NA,NA,3,7,NA,blue,m_l_003.jpg,NA,NA,NA,NA,NA,pleasant,unpleasant,NA,NA,NA,NA,NA,left,971.700000047684,true,NA,NA,NA,NA,NA,NA,NA,NA
TZpCjSAn,375vsr8fwzmfz1886kcfytzzg59zr5,3nql1cs15vl9a2deakk8a3bszsoyvt,TZpCjSAn,2020-0188,2021-10-30,15:09:04,16:53:19,NA,incomplete,false,true,NA,NA,3,8,NA,blue,m_s_108.jpg,NA,NA,NA,NA,NA,unpleasant,pleasant,NA,NA,NA,NA,NA,right,1568.89999997616,true,NA,NA,NA,NA,NA,NA,NA,NA
TZpCjSAn,375vsr8fwzmfz1886kcfytzzg59zr5,3nql1cs15vl9a2deakk8a3bszsoyvt,TZpCjSAn,2020-0188,2021-10-30,15:09:04,16:53:19,NA,incomplete,false,true,NA,NA,3,9,NA,blue,m_s_096.jpg,NA,NA,NA,NA,NA,unpleasant,pleasant,NA,NA,NA,NA,NA,right,1573.80000007153,true,NA,NA,NA,NA,NA,NA,NA,NA
TZpCjSAn,375vsr8fwzmfz1886kcfytzzg59zr5,3nql1cs15vl9a2deakk8a3bszsoyvt,TZpCjSAn,2020-0188,2021-10-30,15:09:04,16:53:19,NA,incomplete,false,true,NA,NA,3,10,NA,blue,m_l_090.jpg,NA,NA,NA,NA,NA,pleasant,unpleasant,NA,NA,NA,NA,NA,left,1483,true,NA,NA,NA,NA,NA,NA,NA,NA
TZpCjSAn,375vsr8fwzmfz1886kcfytzzg59zr5,3nql1cs15vl9a2deakk8a3bszsoyvt,TZpCjSAn,2020-0188,2021-10-30,15:09:04,16:53:19,NA,incomplete,false,true,NA,NA,3,11,NA,blue,n_s_028.jpg,NA,NA,NA,NA,NA,unpleasant,pleasant,NA,NA,NA,NA,NA,right,1536.89999997616,true,NA,NA,NA,NA,NA,NA,NA,NA
TZpCjSAn,375vsr8fwzmfz1886kcfytzzg59zr5,3nql1cs15vl9a2deakk8a3bszsoyvt,TZpCjSAn,2020-0188,2021-10-30,15:09:04,16:53:19,NA,incomplete,false,true,NA,NA,3,12,NA,white,n_l_078.jpg,NA,NA,NA,NA,NA,unpleasant,pleasant,NA,NA,NA,NA,NA,right,2270,true,NA,NA,NA,NA,NA,NA,NA,NA
TZpCjSAn,375vsr8fwzmfz1886kcfytzzg59zr5,3nql1cs15vl9a2deakk8a3bszsoyvt,TZpCjSAn,2020-0188,2021-10-30,15:09:04,16:53:19,NA,incomplete,false,true,NA,NA,3,13,NA,white,n_s_029.jpg,NA,NA,NA,NA,NA,pleasant,unpleasant,NA,NA,NA,NA,NA,right,2883.10000002384,true,NA,NA,NA,NA,NA,NA,NA,NA
TZpCjSAn,375vsr8fwzmfz1886kcfytzzg59zr5,3nql1cs15vl9a2deakk8a3bszsoyvt,TZpCjSAn,2020-0188,2021-10-30,15:09:04,16:53:19,NA,incomplete,false,true,NA,NA,3,14,NA,white,m_l_065.jpg,NA,NA,NA,NA,NA,pleasant,unpleasant,NA,NA,NA,NA,NA,left,1080.30000007153,true,NA,NA,NA,NA,NA,NA,NA,NA
TZpCjSAn,375vsr8fwzmfz1886kcfytzzg59zr5,3nql1cs15vl9a2deakk8a3bszsoyvt,TZpCjSAn,2020-0188,2021-10-30,15:09:04,16:53:19,NA,incomplete,false,true,NA,NA,3,15,NA,white,m_s_115.jpg,NA,NA,NA,NA,NA,unpleasant,pleasant,NA,NA,NA,NA,NA,right,1957.79999995232,true,NA,NA,NA,NA,NA,NA,NA,NA
TZpCjSAn,375vsr8fwzmfz1886kcfytzzg59zr5,3nql1cs15vl9a2deakk8a3bszsoyvt,TZpCjSAn,2020-0188,2021-10-30,15:09:04,16:53:19,NA,incomplete,false,true,NA,NA,3,16,NA,white,n_s_035.jpg,NA,NA,NA,NA,NA,unpleasant,pleasant,NA,NA,NA,NA,NA,right,1914.79999995232,true,NA,NA,NA,NA,NA,NA,NA,NA
TZpCjSAn,375vsr8fwzmfz1886kcfytzzg59zr5,3nql1cs15vl9a2deakk8a3bszsoyvt,TZpCjSAn,2020-0188,2021-10-30,15:09:04,16:53:19,NA,incomplete,false,true,NA,NA,3,17,NA,white,m_l_070.jpg,NA,NA,NA,NA,NA,unpleasant,pleasant,NA,NA,NA,NA,NA,none,0,false,NA,NA,NA,NA,NA,NA,NA,NA
TZpCjSAn,375vsr8fwzmfz1886kcfytzzg59zr5,3nql1cs15vl9a2deakk8a3bszsoyvt,TZpCjSAn,2020-0188,2021-10-30,15:09:04,16:53:19,NA,incomplete,false,true,NA,NA,3,18,NA,orange,m_l_085.jpg,NA,NA,NA,NA,NA,unpleasant,pleasant,NA,NA,NA,NA,NA,right,1765.5,true,NA,NA,NA,NA,NA,NA,NA,NA
TZpCjSAn,375vsr8fwzmfz1886kcfytzzg59zr5,3nql1cs15vl9a2deakk8a3bszsoyvt,TZpCjSAn,2020-0188,2021-10-30,15:09:04,16:53:19,NA,incomplete,false,true,NA,NA,3,19,NA,orange,m_s_057.jpg,NA,NA,NA,NA,NA,unpleasant,pleasant,NA,NA,NA,NA,NA,right,2179.5,true,NA,NA,NA,NA,NA,NA,NA,NA
TZpCjSAn,375vsr8fwzmfz1886kcfytzzg59zr5,3nql1cs15vl9a2deakk8a3bszsoyvt,TZpCjSAn,2020-0188,2021-10-30,15:09:04,16:53:19,NA,incomplete,false,true,NA,NA,3,20,NA,orange,m_s_076.jpg,NA,NA,NA,NA,NA,unpleasant,pleasant,NA,NA,NA,NA,NA,right,1648.70000004768,true,NA,NA,NA,NA,NA,NA,NA,NA
TZpCjSAn,375vsr8fwzmfz1886kcfytzzg59zr5,3nql1cs15vl9a2deakk8a3bszsoyvt,TZpCjSAn,2020-0188,2021-10-30,15:09:04,16:53:19,NA,incomplete,false,true,NA,NA,3,21,NA,orange,m_l_088.jpg,NA,NA,NA,NA,NA,pleasant,unpleasant,NA,NA,NA,NA,NA,left,2494.79999995232,true,NA,NA,NA,NA,NA,NA,NA,NA
TZpCjSAn,375vsr8fwzmfz1886kcfytzzg59zr5,3nql1cs15vl9a2deakk8a3bszsoyvt,TZpCjSAn,2020-0188,2021-10-30,15:09:04,16:53:19,NA,incomplete,false,true,NA,NA,3,22,NA,orange,m_s_110.jpg,NA,NA,NA,NA,NA,unpleasant,pleasant,NA,NA,NA,NA,NA,right,2572.5,true,NA,NA,NA,NA,NA,NA,NA,NA
TZpCjSAn,375vsr8fwzmfz1886kcfytzzg59zr5,3nql1cs15vl9a2deakk8a3bszsoyvt,TZpCjSAn,2020-0188,2021-10-30,15:09:04,16:53:19,NA,incomplete,false,true,NA,NA,3,23,NA,orange,m_s_075.jpg,NA,NA,NA,NA,NA,unpleasant,pleasant,NA,NA,NA,NA,NA,right,1929.40000009537,true,NA,NA,NA,NA,NA,NA,NA,NA
TZpCjSAn,375vsr8fwzmfz1886kcfytzzg59zr5,3nql1cs15vl9a2deakk8a3bszsoyvt,TZpCjSAn,2020-0188,2021-10-30,15:09:04,16:53:19,NA,incomplete,false,true,NA,NA,3,24,NA,yellow,n_s_065.jpg,NA,NA,NA,NA,NA,pleasant,unpleasant,NA,NA,NA,NA,NA,right,1551,true,NA,NA,NA,NA,NA,NA,NA,NA
TZpCjSAn,375vsr8fwzmfz1886kcfytzzg59zr5,3nql1cs15vl9a2deakk8a3bszsoyvt,TZpCjSAn,2020-0188,2021-10-30,15:09:04,16:53:19,NA,incomplete,false,true,NA,NA,3,25,NA,yellow,n_l_050.jpg,NA,NA,NA,NA,NA,pleasant,unpleasant,NA,NA,NA,NA,NA,left,2292.5,true,NA,NA,NA,NA,NA,NA,NA,NA
TZpCjSAn,375vsr8fwzmfz1886kcfytzzg59zr5,3nql1cs15vl9a2deakk8a3bszsoyvt,TZpCjSAn,2020-0188,2021-10-30,15:09:04,16:53:19,NA,incomplete,false,true,NA,NA,3,26,NA,yellow,n_s_044.jpg,NA,NA,NA,NA,NA,unpleasant,pleasant,NA,NA,NA,NA,NA,right,1465.70000004768,true,NA,NA,NA,NA,NA,NA,NA,NA
TZpCjSAn,375vsr8fwzmfz1886kcfytzzg59zr5,3nql1cs15vl9a2deakk8a3bszsoyvt,TZpCjSAn,2020-0188,2021-10-30,15:09:04,16:53:19,NA,incomplete,false,true,NA,NA,3,27,NA,yellow,m_l_029.jpg,NA,NA,NA,NA,NA,pleasant,unpleasant,NA,NA,NA,NA,NA,left,1271.60000002384,true,NA,NA,NA,NA,NA,NA,NA,NA
TZpCjSAn,375vsr8fwzmfz1886kcfytzzg59zr5,3nql1cs15vl9a2deakk8a3bszsoyvt,TZpCjSAn,2020-0188,2021-10-30,15:09:04,16:53:19,NA,incomplete,false,true,NA,NA,3,28,NA,yellow,m_l_054.jpg,NA,NA,NA,NA,NA,unpleasant,pleasant,NA,NA,NA,NA,NA,none,0,false,NA,NA,NA,NA,NA,NA,NA,NA
TZpCjSAn,375vsr8fwzmfz1886kcfytzzg59zr5,3nql1cs15vl9a2deakk8a3bszsoyvt,TZpCjSAn,2020-0188,2021-10-30,15:09:04,16:53:19,NA,incomplete,false,true,NA,NA,3,29,NA,yellow,m_s_100.jpg,NA,NA,NA,NA,NA,unpleasant,pleasant,NA,NA,NA,NA,NA,right,2009.90000009537,true,NA,NA,NA,NA,NA,NA,NA,NA
TZpCjSAn,375vsr8fwzmfz1886kcfytzzg59zr5,3nql1cs15vl9a2deakk8a3bszsoyvt,TZpCjSAn,2020-0188,2021-10-30,15:09:04,16:53:19,NA,incomplete,false,true,NA,NA,3,30,NA,green,n_s_076.jpg,NA,NA,NA,NA,NA,pleasant,unpleasant,NA,NA,NA,NA,NA,left,2767.40000009537,true,NA,NA,NA,NA,NA,NA,NA,NA
TZpCjSAn,375vsr8fwzmfz1886kcfytzzg59zr5,3nql1cs15vl9a2deakk8a3bszsoyvt,TZpCjSAn,2020-0188,2021-10-30,15:09:04,16:53:19,NA,incomplete,false,true,NA,NA,3,31,NA,green,n_l_023.jpg,NA,NA,NA,NA,NA,unpleasant,pleasant,NA,NA,NA,NA,NA,none,0,false,NA,NA,NA,NA,NA,NA,NA,NA
TZpCjSAn,375vsr8fwzmfz1886kcfytzzg59zr5,3nql1cs15vl9a2deakk8a3bszsoyvt,TZpCjSAn,2020-0188,2021-10-30,15:09:04,16:53:19,NA,incomplete,false,true,NA,NA,3,32,NA,green,m_l_011.jpg,NA,NA,NA,NA,NA,unpleasant,pleasant,NA,NA,NA,NA,NA,right,2442.19999992847,true,NA,NA,NA,NA,NA,NA,NA,NA
TZpCjSAn,375vsr8fwzmfz1886kcfytzzg59zr5,3nql1cs15vl9a2deakk8a3bszsoyvt,TZpCjSAn,2020-0188,2021-10-30,15:09:04,16:53:19,NA,incomplete,false,true,NA,NA,3,33,NA,green,m_l_075.jpg,NA,NA,NA,NA,NA,unpleasant,pleasant,NA,NA,NA,NA,NA,none,0,false,NA,NA,NA,NA,NA,NA,NA,NA
TZpCjSAn,375vsr8fwzmfz1886kcfytzzg59zr5,3nql1cs15vl9a2deakk8a3bszsoyvt,TZpCjSAn,2020-0188,2021-10-30,15:09:04,16:53:19,NA,incomplete,false,true,NA,NA,3,34,NA,green,n_s_082.jpg,NA,NA,NA,NA,NA,pleasant,unpleasant,NA,NA,NA,NA,NA,none,0,false,NA,NA,NA,NA,NA,NA,NA,NA
TZpCjSAn,375vsr8fwzmfz1886kcfytzzg59zr5,3nql1cs15vl9a2deakk8a3bszsoyvt,TZpCjSAn,2020-0188,2021-10-30,15:09:04,16:53:19,NA,incomplete,false,true,NA,NA,3,35,NA,green,n_l_100.jpg,NA,NA,NA,NA,NA,pleasant,unpleasant,NA,NA,NA,NA,NA,left,745.5,true,NA,NA,NA,NA,NA,NA,NA,NA
TZpCjSAn,375vsr8fwzmfz1886kcfytzzg59zr5,3nql1cs15vl9a2deakk8a3bszsoyvt,TZpCjSAn,2020-0188,2021-10-30,15:09:04,16:53:19,NA,incomplete,false,NA,NA,true,3,0,NA,NA,NA,right,n_s_035.jpg,blue,white,NA,NA,NA,NA,NA,NA,NA,NA,NA,NaN,NA,2151.1999999284744,right,1,NA,NA,NA,NA,NA
TZpCjSAn,375vsr8fwzmfz1886kcfytzzg59zr5,3nql1cs15vl9a2deakk8a3bszsoyvt,TZpCjSAn,2020-0188,2021-10-30,15:09:04,16:53:19,NA,incomplete,false,NA,NA,true,3,1,NA,NA,NA,left,n_l_023.jpg,green,yellow,NA,NA,NA,NA,NA,NA,NA,NA,NA,NaN,NA,2095.399999976158,right,0,NA,NA,NA,NA,NA
TZpCjSAn,375vsr8fwzmfz1886kcfytzzg59zr5,3nql1cs15vl9a2deakk8a3bszsoyvt,TZpCjSAn,2020-0188,2021-10-30,15:09:04,16:53:19,NA,incomplete,false,NA,NA,true,3,2,NA,NA,NA,left,n_s_029.jpg,white,orange,NA,NA,NA,NA,NA,NA,NA,NA,NA,NaN,NA,1631.5,right,0,NA,NA,NA,NA,NA
TZpCjSAn,375vsr8fwzmfz1886kcfytzzg59zr5,3nql1cs15vl9a2deakk8a3bszsoyvt,TZpCjSAn,2020-0188,2021-10-30,15:09:04,16:53:19,NA,incomplete,false,NA,NA,true,3,3,NA,NA,NA,left,m_l_003.jpg,blue,white,NA,NA,NA,NA,NA,NA,NA,NA,NA,NaN,NA,1711,left,1,NA,NA,NA,NA,NA
TZpCjSAn,375vsr8fwzmfz1886kcfytzzg59zr5,3nql1cs15vl9a2deakk8a3bszsoyvt,TZpCjSAn,2020-0188,2021-10-30,15:09:04,16:53:19,NA,incomplete,false,NA,NA,true,3,4,NA,NA,NA,left,m_s_108.jpg,blue,black,NA,NA,NA,NA,NA,NA,NA,NA,NA,NaN,NA,1671.2000000476837,right,0,NA,NA,NA,NA,NA
TZpCjSAn,375vsr8fwzmfz1886kcfytzzg59zr5,3nql1cs15vl9a2deakk8a3bszsoyvt,TZpCjSAn,2020-0188,2021-10-30,15:09:04,16:53:19,NA,incomplete,false,NA,NA,true,3,5,NA,NA,NA,left,m_l_077.jpg,black,blue,NA,NA,NA,NA,NA,NA,NA,NA,NA,NaN,NA,2399.600000023842,right,0,NA,NA,NA,NA,NA
TZpCjSAn,375vsr8fwzmfz1886kcfytzzg59zr5,3nql1cs15vl9a2deakk8a3bszsoyvt,TZpCjSAn,2020-0188,2021-10-30,15:09:04,16:53:19,NA,incomplete,false,NA,NA,true,3,6,NA,NA,NA,right,m_s_075.jpg,yellow,orange,NA,NA,NA,NA,NA,NA,NA,NA,NA,NaN,NA,1247.2000000476837,right,1,NA,NA,NA,NA,NA
TZpCjSAn,375vsr8fwzmfz1886kcfytzzg59zr5,3nql1cs15vl9a2deakk8a3bszsoyvt,TZpCjSAn,2020-0188,2021-10-30,15:09:04,16:53:19,NA,incomplete,false,NA,NA,true,3,7,NA,NA,NA,left,m_l_011.jpg,green,yellow,NA,NA,NA,NA,NA,NA,NA,NA,NA,NaN,NA,1062.5,right,0,NA,NA,NA,NA,NA
TZpCjSAn,375vsr8fwzmfz1886kcfytzzg59zr5,3nql1cs15vl9a2deakk8a3bszsoyvt,TZpCjSAn,2020-0188,2021-10-30,15:09:04,16:53:19,NA,incomplete,false,NA,NA,true,3,8,NA,NA,NA,right,m_s_100.jpg,green,yellow,NA,NA,NA,NA,NA,NA,NA,NA,NA,NaN,NA,1238.8000000715256,right,1,NA,NA,NA,NA,NA
TZpCjSAn,375vsr8fwzmfz1886kcfytzzg59zr5,3nql1cs15vl9a2deakk8a3bszsoyvt,TZpCjSAn,2020-0188,2021-10-30,15:09:04,16:53:19,NA,incomplete,false,NA,NA,true,3,9,NA,NA,NA,right,n_l_050.jpg,orange,yellow,NA,NA,NA,NA,NA,NA,NA,NA,NA,NaN,NA,1414.5,right,1,NA,NA,NA,NA,NA
TZpCjSAn,375vsr8fwzmfz1886kcfytzzg59zr5,3nql1cs15vl9a2deakk8a3bszsoyvt,TZpCjSAn,2020-0188,2021-10-30,15:09:04,16:53:19,NA,incomplete,false,NA,NA,true,3,10,NA,NA,NA,left,m_s_076.jpg,orange,white,NA,NA,NA,NA,NA,NA,NA,NA,NA,NaN,NA,1671.0999999046326,left,1,NA,NA,NA,NA,NA
TZpCjSAn,375vsr8fwzmfz1886kcfytzzg59zr5,3nql1cs15vl9a2deakk8a3bszsoyvt,TZpCjSAn,2020-0188,2021-10-30,15:09:04,16:53:19,NA,incomplete,false,NA,NA,true,3,11,NA,NA,NA,left,n_l_021.jpg,black,blue,NA,NA,NA,NA,NA,NA,NA,NA,NA,NaN,NA,2287,right,0,NA,NA,NA,NA,NA
TZpCjSAn,375vsr8fwzmfz1886kcfytzzg59zr5,3nql1cs15vl9a2deakk8a3bszsoyvt,TZpCjSAn,2020-0188,2021-10-30,15:09:04,16:53:19,NA,incomplete,false,NA,NA,true,3,12,NA,NA,NA,left,n_l_100.jpg,green,yellow,NA,NA,NA,NA,NA,NA,NA,NA,NA,NaN,NA,1391.0999999046326,right,0,NA,NA,NA,NA,NA
TZpCjSAn,375vsr8fwzmfz1886kcfytzzg59zr5,3nql1cs15vl9a2deakk8a3bszsoyvt,TZpCjSAn,2020-0188,2021-10-30,15:09:04,16:53:19,NA,incomplete,false,NA,NA,true,3,13,NA,NA,NA,left,m_l_065.jpg,white,blue,NA,NA,NA,NA,NA,NA,NA,NA,NA,NaN,NA,1694.7000000476837,right,0,NA,NA,NA,NA,NA
TZpCjSAn,375vsr8fwzmfz1886kcfytzzg59zr5,3nql1cs15vl9a2deakk8a3bszsoyvt,TZpCjSAn,2020-0188,2021-10-30,15:09:04,16:53:19,NA,incomplete,false,NA,NA,true,3,14,NA,NA,NA,left,m_l_070.jpg,white,orange,NA,NA,NA,NA,NA,NA,NA,NA,NA,NaN,NA,1607.5,right,0,NA,NA,NA,NA,NA
TZpCjSAn,375vsr8fwzmfz1886kcfytzzg59zr5,3nql1cs15vl9a2deakk8a3bszsoyvt,TZpCjSAn,2020-0188,2021-10-30,15:09:04,16:53:19,NA,incomplete,false,NA,NA,true,3,15,NA,NA,NA,left,n_s_028.jpg,blue,white,NA,NA,NA,NA,NA,NA,NA,NA,NA,NaN,NA,1358.9000000953674,right,0,NA,NA,NA,NA,NA
TZpCjSAn,375vsr8fwzmfz1886kcfytzzg59zr5,3nql1cs15vl9a2deakk8a3bszsoyvt,TZpCjSAn,2020-0188,2021-10-30,15:09:04,16:53:19,NA,incomplete,false,NA,NA,true,3,16,NA,NA,NA,left,m_s_057.jpg,orange,white,NA,NA,NA,NA,NA,NA,NA,NA,NA,NaN,NA,1487.2999999523163,left,1,NA,NA,NA,NA,NA
TZpCjSAn,375vsr8fwzmfz1886kcfytzzg59zr5,3nql1cs15vl9a2deakk8a3bszsoyvt,TZpCjSAn,2020-0188,2021-10-30,15:09:04,16:53:19,NA,incomplete,false,NA,NA,true,3,17,NA,NA,NA,left,n_s_044.jpg,yellow,orange,NA,NA,NA,NA,NA,NA,NA,NA,NA,NaN,NA,1383.3999999761581,left,1,NA,NA,NA,NA,NA
TZpCjSAn,375vsr8fwzmfz1886kcfytzzg59zr5,3nql1cs15vl9a2deakk8a3bszsoyvt,TZpCjSAn,2020-0188,2021-10-30,15:09:04,16:53:19,NA,incomplete,false,NA,NA,true,3,18,NA,NA,NA,right,m_s_017.jpg,blue,black,NA,NA,NA,NA,NA,NA,NA,NA,NA,NaN,NA,1390.9000000953674,right,1,NA,NA,NA,NA,NA
TZpCjSAn,375vsr8fwzmfz1886kcfytzzg59zr5,3nql1cs15vl9a2deakk8a3bszsoyvt,TZpCjSAn,2020-0188,2021-10-30,15:09:04,16:53:19,NA,incomplete,false,NA,NA,true,3,19,NA,NA,NA,left,m_l_054.jpg,yellow,orange,NA,NA,NA,NA,NA,NA,NA,NA,NA,NaN,NA,1383.3999999761581,right,0,NA,NA,NA,NA,NA
TZpCjSAn,375vsr8fwzmfz1886kcfytzzg59zr5,3nql1cs15vl9a2deakk8a3bszsoyvt,TZpCjSAn,2020-0188,2021-10-30,15:09:04,16:53:19,NA,incomplete,false,NA,NA,true,3,20,NA,NA,NA,left,m_s_110.jpg,orange,yellow,NA,NA,NA,NA,NA,NA,NA,NA,NA,NaN,NA,1526.1999999284744,right,0,NA,NA,NA,NA,NA
TZpCjSAn,375vsr8fwzmfz1886kcfytzzg59zr5,3nql1cs15vl9a2deakk8a3bszsoyvt,TZpCjSAn,2020-0188,2021-10-30,15:09:04,16:53:19,NA,incomplete,false,NA,NA,true,3,21,NA,NA,NA,right,m_l_090.jpg,white,blue,NA,NA,NA,NA,NA,NA,NA,NA,NA,NaN,NA,871.1000000238419,right,1,NA,NA,NA,NA,NA
TZpCjSAn,375vsr8fwzmfz1886kcfytzzg59zr5,3nql1cs15vl9a2deakk8a3bszsoyvt,TZpCjSAn,2020-0188,2021-10-30,15:09:04,16:53:19,NA,incomplete,false,NA,true,NA,3,0,NA,NA,NA,left,NA,NA,NA,absent,NA,NA,n_l_050.jpg,yellow,m_s_100.jpg,yellow,within,NA,NaN,NA,NA,NA,NA,left,3141.100000023842,1,2,2470.1999999284744
TZpCjSAn,375vsr8fwzmfz1886kcfytzzg59zr5,3nql1cs15vl9a2deakk8a3bszsoyvt,TZpCjSAn,2020-0188,2021-10-30,15:09:04,16:53:19,NA,incomplete,false,NA,true,NA,3,1,NA,NA,NA,left,NA,NA,NA,absent,NA,NA,m_l_054.jpg,yellow,m_l_011.jpg,green,between,NA,NaN,NA,NA,NA,NA,left,1519.2999999523163,1,1,1143.5
TZpCjSAn,375vsr8fwzmfz1886kcfytzzg59zr5,3nql1cs15vl9a2deakk8a3bszsoyvt,TZpCjSAn,2020-0188,2021-10-30,15:09:04,16:53:19,NA,incomplete,false,NA,true,NA,3,2,NA,NA,NA,right,NA,NA,NA,absent,NA,NA,n_l_100.jpg,green,n_l_023.jpg,green,within,NA,NaN,NA,NA,NA,NA,right,1791.3000000715256,1,2,2295.1999999284744
TZpCjSAn,375vsr8fwzmfz1886kcfytzzg59zr5,3nql1cs15vl9a2deakk8a3bszsoyvt,TZpCjSAn,2020-0188,2021-10-30,15:09:04,16:53:19,NA,incomplete,false,NA,true,NA,3,3,NA,NA,NA,right,NA,NA,NA,absent,NA,NA,m_l_077.jpg,black,n_l_021.jpg,black,within,NA,NaN,NA,NA,NA,NA,right,2543.1999999284744,1,1,1350.6999999284744
TZpCjSAn,375vsr8fwzmfz1886kcfytzzg59zr5,3nql1cs15vl9a2deakk8a3bszsoyvt,TZpCjSAn,2020-0188,2021-10-30,15:09:04,16:53:19,NA,incomplete,false,NA,true,NA,3,4,NA,NA,NA,left,NA,NA,NA,absent,NA,NA,n_s_029.jpg,white,m_l_070.jpg,white,within,NA,NaN,NA,NA,NA,NA,left,2159,1,2,1711.5
TZpCjSAn,375vsr8fwzmfz1886kcfytzzg59zr5,3nql1cs15vl9a2deakk8a3bszsoyvt,TZpCjSAn,2020-0188,2021-10-30,15:09:04,16:53:19,NA,incomplete,false,NA,true,NA,3,5,NA,NA,NA,right,NA,NA,NA,absent,NA,NA,n_s_028.jpg,blue,m_l_003.jpg,blue,within,NA,NaN,NA,NA,NA,NA,left,1647.3999999761581,0,1,1447.4000000953674
TZpCjSAn,375vsr8fwzmfz1886kcfytzzg59zr5,3nql1cs15vl9a2deakk8a3bszsoyvt,TZpCjSAn,2020-0188,2021-10-30,15:09:04,16:53:19,NA,incomplete,false,NA,true,NA,3,6,NA,NA,NA,right,NA,NA,NA,absent,NA,NA,m_s_076.jpg,orange,n_s_035.jpg,white,between,NA,NaN,NA,NA,NA,NA,left,2159,0,2,1023.3999999761581
TZpCjSAn,375vsr8fwzmfz1886kcfytzzg59zr5,3nql1cs15vl9a2deakk8a3bszsoyvt,TZpCjSAn,2020-0188,2021-10-30,15:09:04,16:53:19,NA,incomplete,false,NA,true,NA,3,7,NA,NA,NA,left,NA,NA,NA,absent,NA,NA,m_s_017.jpg,black,m_s_108.jpg,blue,between,NA,NaN,NA,NA,NA,NA,left,13343,1,1,9191.599999904633
TZpCjSAn,375vsr8fwzmfz1886kcfytzzg59zr5,3nql1cs15vl9a2deakk8a3bszsoyvt,TZpCjSAn,2020-0188,2021-10-30,15:09:04,16:53:19,NA,incomplete,false,NA,true,NA,3,8,NA,NA,NA,right,NA,NA,NA,absent,NA,NA,m_l_065.jpg,white,m_l_090.jpg,blue,between,NA,NaN,NA,NA,NA,NA,left,11335.400000095367,0,1,2007.3999999761581
TZpCjSAn,375vsr8fwzmfz1886kcfytzzg59zr5,3nql1cs15vl9a2deakk8a3bszsoyvt,TZpCjSAn,2020-0188,2021-10-30,15:09:04,16:53:19,NA,incomplete,false,NA,true,NA,3,9,NA,NA,NA,left,NA,NA,NA,absent,NA,NA,m_s_057.jpg,orange,m_s_075.jpg,orange,within,NA,NaN,NA,NA,NA,NA,left,18383.300000071526,1,1,1631.1000000238419
TZpCjSAn,375vsr8fwzmfz1886kcfytzzg59zr5,3nql1cs15vl9a2deakk8a3bszsoyvt,TZpCjSAn,2020-0188,2021-10-30,15:09:04,16:53:19,NA,incomplete,false,NA,true,NA,3,10,NA,NA,NA,left,NA,NA,NA,absent,NA,NA,m_s_110.jpg,orange,n_s_044.jpg,yellow,between,NA,NaN,NA,NA,NA,NA,left,2471.100000023842,1,2,3199.5
TZpCjSAn,375vsr8fwzmfz1886kcfytzzg59zr5,3nql1cs15vl9a2deakk8a3bszsoyvt,TZpCjSAn,2020-0188,2021-10-30,15:09:04,16:53:19,NA,incomplete,false,true,NA,NA,4,0,NA,yellow,n_l_016.jpg,NA,NA,NA,NA,NA,unpleasant,pleasant,NA,NA,NA,NA,NA,right,2533.69999992847,true,NA,NA,NA,NA,NA,NA,NA,NA
TZpCjSAn,375vsr8fwzmfz1886kcfytzzg59zr5,3nql1cs15vl9a2deakk8a3bszsoyvt,TZpCjSAn,2020-0188,2021-10-30,15:09:04,16:53:19,NA,incomplete,false,true,NA,NA,4,1,NA,yellow,m_s_021.jpg,NA,NA,NA,NA,NA,unpleasant,pleasant,NA,NA,NA,NA,NA,right,2547.20000004768,true,NA,NA,NA,NA,NA,NA,NA,NA
TZpCjSAn,375vsr8fwzmfz1886kcfytzzg59zr5,3nql1cs15vl9a2deakk8a3bszsoyvt,TZpCjSAn,2020-0188,2021-10-30,15:09:04,16:53:19,NA,incomplete,false,true,NA,NA,4,2,NA,yellow,m_l_009.jpg,NA,NA,NA,NA,NA,unpleasant,pleasant,NA,NA,NA,NA,NA,right,1272.69999992847,true,NA,NA,NA,NA,NA,NA,NA,NA
TZpCjSAn,375vsr8fwzmfz1886kcfytzzg59zr5,3nql1cs15vl9a2deakk8a3bszsoyvt,TZpCjSAn,2020-0188,2021-10-30,15:09:04,16:53:19,NA,incomplete,false,true,NA,NA,4,3,NA,yellow,n_l_034.jpg,NA,NA,NA,NA,NA,unpleasant,pleasant,NA,NA,NA,NA,NA,right,1846.10000002384,true,NA,NA,NA,NA,NA,NA,NA,NA
TZpCjSAn,375vsr8fwzmfz1886kcfytzzg59zr5,3nql1cs15vl9a2deakk8a3bszsoyvt,TZpCjSAn,2020-0188,2021-10-30,15:09:04,16:53:19,NA,incomplete,false,true,NA,NA,4,4,NA,yellow,n_s_033.jpg,NA,NA,NA,NA,NA,unpleasant,pleasant,NA,NA,NA,NA,NA,right,1011.30000007153,true,NA,NA,NA,NA,NA,NA,NA,NA
TZpCjSAn,375vsr8fwzmfz1886kcfytzzg59zr5,3nql1cs15vl9a2deakk8a3bszsoyvt,TZpCjSAn,2020-0188,2021-10-30,15:09:04,16:53:19,NA,incomplete,false,true,NA,NA,4,5,NA,yellow,m_s_102.jpg,NA,NA,NA,NA,NA,pleasant,unpleasant,NA,NA,NA,NA,NA,left,2265.39999997616,true,NA,NA,NA,NA,NA,NA,NA,NA
TZpCjSAn,375vsr8fwzmfz1886kcfytzzg59zr5,3nql1cs15vl9a2deakk8a3bszsoyvt,TZpCjSAn,2020-0188,2021-10-30,15:09:04,16:53:19,NA,incomplete,false,true,NA,NA,4,6,NA,white,m_l_033.jpg,NA,NA,NA,NA,NA,pleasant,unpleasant,NA,NA,NA,NA,NA,left,1495.20000004768,true,NA,NA,NA,NA,NA,NA,NA,NA
TZpCjSAn,375vsr8fwzmfz1886kcfytzzg59zr5,3nql1cs15vl9a2deakk8a3bszsoyvt,TZpCjSAn,2020-0188,2021-10-30,15:09:04,16:53:19,NA,incomplete,false,true,NA,NA,4,7,NA,white,n_l_045.jpg,NA,NA,NA,NA,NA,pleasant,unpleasant,NA,NA,NA,NA,NA,left,2580.79999995232,true,NA,NA,NA,NA,NA,NA,NA,NA
TZpCjSAn,375vsr8fwzmfz1886kcfytzzg59zr5,3nql1cs15vl9a2deakk8a3bszsoyvt,TZpCjSAn,2020-0188,2021-10-30,15:09:04,16:53:19,NA,incomplete,false,true,NA,NA,4,8,NA,white,n_l_041.jpg,NA,NA,NA,NA,NA,unpleasant,pleasant,NA,NA,NA,NA,NA,right,1546.39999997616,true,NA,NA,NA,NA,NA,NA,NA,NA
TZpCjSAn,375vsr8fwzmfz1886kcfytzzg59zr5,3nql1cs15vl9a2deakk8a3bszsoyvt,TZpCjSAn,2020-0188,2021-10-30,15:09:04,16:53:19,NA,incomplete,false,true,NA,NA,4,9,NA,white,m_l_001.jpg,NA,NA,NA,NA,NA,pleasant,unpleasant,NA,NA,NA,NA,NA,right,2256.20000004768,true,NA,NA,NA,NA,NA,NA,NA,NA
TZpCjSAn,375vsr8fwzmfz1886kcfytzzg59zr5,3nql1cs15vl9a2deakk8a3bszsoyvt,TZpCjSAn,2020-0188,2021-10-30,15:09:04,16:53:19,NA,incomplete,false,true,NA,NA,4,10,NA,white,n_s_087.jpg,NA,NA,NA,NA,NA,unpleasant,pleasant,NA,NA,NA,NA,NA,none,0,false,NA,NA,NA,NA,NA,NA,NA,NA
TZpCjSAn,375vsr8fwzmfz1886kcfytzzg59zr5,3nql1cs15vl9a2deakk8a3bszsoyvt,TZpCjSAn,2020-0188,2021-10-30,15:09:04,16:53:19,NA,incomplete,false,true,NA,NA,4,11,NA,white,m_s_011.jpg,NA,NA,NA,NA,NA,unpleasant,pleasant,NA,NA,NA,NA,NA,none,0,false,NA,NA,NA,NA,NA,NA,NA,NA
TZpCjSAn,375vsr8fwzmfz1886kcfytzzg59zr5,3nql1cs15vl9a2deakk8a3bszsoyvt,TZpCjSAn,2020-0188,2021-10-30,15:09:04,16:53:19,NA,incomplete,false,true,NA,NA,4,12,NA,blue,m_s_030.jpg,NA,NA,NA,NA,NA,pleasant,unpleasant,NA,NA,NA,NA,NA,left,1591.20000004768,true,NA,NA,NA,NA,NA,NA,NA,NA
TZpCjSAn,375vsr8fwzmfz1886kcfytzzg59zr5,3nql1cs15vl9a2deakk8a3bszsoyvt,TZpCjSAn,2020-0188,2021-10-30,15:09:04,16:53:19,NA,incomplete,false,true,NA,NA,4,13,NA,blue,m_l_073.jpg,NA,NA,NA,NA,NA,pleasant,unpleasant,NA,NA,NA,NA,NA,none,0,false,NA,NA,NA,NA,NA,NA,NA,NA
TZpCjSAn,375vsr8fwzmfz1886kcfytzzg59zr5,3nql1cs15vl9a2deakk8a3bszsoyvt,TZpCjSAn,2020-0188,2021-10-30,15:09:04,16:53:19,NA,incomplete,false,true,NA,NA,4,14,NA,blue,m_l_069.jpg,NA,NA,NA,NA,NA,unpleasant,pleasant,NA,NA,NA,NA,NA,right,1505.70000004768,true,NA,NA,NA,NA,NA,NA,NA,NA
TZpCjSAn,375vsr8fwzmfz1886kcfytzzg59zr5,3nql1cs15vl9a2deakk8a3bszsoyvt,TZpCjSAn,2020-0188,2021-10-30,15:09:04,16:53:19,NA,incomplete,false,true,NA,NA,4,15,NA,blue,m_s_077.jpg,NA,NA,NA,NA,NA,unpleasant,pleasant,NA,NA,NA,NA,NA,right,3206.39999997616,true,NA,NA,NA,NA,NA,NA,NA,NA
TZpCjSAn,375vsr8fwzmfz1886kcfytzzg59zr5,3nql1cs15vl9a2deakk8a3bszsoyvt,TZpCjSAn,2020-0188,2021-10-30,15:09:04,16:53:19,NA,incomplete,false,true,NA,NA,4,16,NA,blue,m_s_091.jpg,NA,NA,NA,NA,NA,pleasant,unpleasant,NA,NA,NA,NA,NA,left,1747.5,true,NA,NA,NA,NA,NA,NA,NA,NA
TZpCjSAn,375vsr8fwzmfz1886kcfytzzg59zr5,3nql1cs15vl9a2deakk8a3bszsoyvt,TZpCjSAn,2020-0188,2021-10-30,15:09:04,16:53:19,NA,incomplete,false,true,NA,NA,4,17,NA,blue,m_l_099.jpg,NA,NA,NA,NA,NA,unpleasant,pleasant,NA,NA,NA,NA,NA,right,1665.29999995232,true,NA,NA,NA,NA,NA,NA,NA,NA
TZpCjSAn,375vsr8fwzmfz1886kcfytzzg59zr5,3nql1cs15vl9a2deakk8a3bszsoyvt,TZpCjSAn,2020-0188,2021-10-30,15:09:04,16:53:19,NA,incomplete,false,true,NA,NA,4,18,NA,orange,m_s_061.jpg,NA,NA,NA,NA,NA,pleasant,unpleasant,NA,NA,NA,NA,NA,left,1310.89999997616,true,NA,NA,NA,NA,NA,NA,NA,NA
TZpCjSAn,375vsr8fwzmfz1886kcfytzzg59zr5,3nql1cs15vl9a2deakk8a3bszsoyvt,TZpCjSAn,2020-0188,2021-10-30,15:09:04,16:53:19,NA,incomplete,false,true,NA,NA,4,19,NA,orange,n_l_099.jpg,NA,NA,NA,NA,NA,unpleasant,pleasant,NA,NA,NA,NA,NA,right,2268.79999995232,true,NA,NA,NA,NA,NA,NA,NA,NA
TZpCjSAn,375vsr8fwzmfz1886kcfytzzg59zr5,3nql1cs15vl9a2deakk8a3bszsoyvt,TZpCjSAn,2020-0188,2021-10-30,15:09:04,16:53:19,NA,incomplete,false,true,NA,NA,4,20,NA,orange,n_s_022.jpg,NA,NA,NA,NA,NA,unpleasant,pleasant,NA,NA,NA,NA,NA,right,1234.10000002384,true,NA,NA,NA,NA,NA,NA,NA,NA
TZpCjSAn,375vsr8fwzmfz1886kcfytzzg59zr5,3nql1cs15vl9a2deakk8a3bszsoyvt,TZpCjSAn,2020-0188,2021-10-30,15:09:04,16:53:19,NA,incomplete,false,true,NA,NA,4,21,NA,orange,n_s_054.jpg,NA,NA,NA,NA,NA,pleasant,unpleasant,NA,NA,NA,NA,NA,left,1798.79999995232,true,NA,NA,NA,NA,NA,NA,NA,NA
TZpCjSAn,375vsr8fwzmfz1886kcfytzzg59zr5,3nql1cs15vl9a2deakk8a3bszsoyvt,TZpCjSAn,2020-0188,2021-10-30,15:09:04,16:53:19,NA,incomplete,false,true,NA,NA,4,22,NA,orange,n_l_068.jpg,NA,NA,NA,NA,NA,pleasant,unpleasant,NA,NA,NA,NA,NA,left,980.600000023842,true,NA,NA,NA,NA,NA,NA,NA,NA
TZpCjSAn,375vsr8fwzmfz1886kcfytzzg59zr5,3nql1cs15vl9a2deakk8a3bszsoyvt,TZpCjSAn,2020-0188,2021-10-30,15:09:04,16:53:19,NA,incomplete,false,true,NA,NA,4,23,NA,orange,m_s_094.jpg,NA,NA,NA,NA,NA,pleasant,unpleasant,NA,NA,NA,NA,NA,left,1210.5,true,NA,NA,NA,NA,NA,NA,NA,NA
TZpCjSAn,375vsr8fwzmfz1886kcfytzzg59zr5,3nql1cs15vl9a2deakk8a3bszsoyvt,TZpCjSAn,2020-0188,2021-10-30,15:09:04,16:53:19,NA,incomplete,false,true,NA,NA,4,24,NA,black,m_s_093.jpg,NA,NA,NA,NA,NA,pleasant,unpleasant,NA,NA,NA,NA,NA,left,1384.10000002384,true,NA,NA,NA,NA,NA,NA,NA,NA
TZpCjSAn,375vsr8fwzmfz1886kcfytzzg59zr5,3nql1cs15vl9a2deakk8a3bszsoyvt,TZpCjSAn,2020-0188,2021-10-30,15:09:04,16:53:19,NA,incomplete,false,true,NA,NA,4,25,NA,black,n_s_069.jpg,NA,NA,NA,NA,NA,pleasant,unpleasant,NA,NA,NA,NA,NA,left,1021.10000002384,true,NA,NA,NA,NA,NA,NA,NA,NA
TZpCjSAn,375vsr8fwzmfz1886kcfytzzg59zr5,3nql1cs15vl9a2deakk8a3bszsoyvt,TZpCjSAn,2020-0188,2021-10-30,15:09:04,16:53:19,NA,incomplete,false,true,NA,NA,4,26,NA,black,m_s_082.jpg,NA,NA,NA,NA,NA,pleasant,unpleasant,NA,NA,NA,NA,NA,left,874.399999976158,true,NA,NA,NA,NA,NA,NA,NA,NA
TZpCjSAn,375vsr8fwzmfz1886kcfytzzg59zr5,3nql1cs15vl9a2deakk8a3bszsoyvt,TZpCjSAn,2020-0188,2021-10-30,15:09:04,16:53:19,NA,incomplete,false,true,NA,NA,4,27,NA,black,n_l_074.jpg,NA,NA,NA,NA,NA,pleasant,unpleasant,NA,NA,NA,NA,NA,left,1231.19999992847,true,NA,NA,NA,NA,NA,NA,NA,NA
TZpCjSAn,375vsr8fwzmfz1886kcfytzzg59zr5,3nql1cs15vl9a2deakk8a3bszsoyvt,TZpCjSAn,2020-0188,2021-10-30,15:09:04,16:53:19,NA,incomplete,false,true,NA,NA,4,28,NA,black,n_l_113.jpg,NA,NA,NA,NA,NA,unpleasant,pleasant,NA,NA,NA,NA,NA,right,1981.10000002384,true,NA,NA,NA,NA,NA,NA,NA,NA
TZpCjSAn,375vsr8fwzmfz1886kcfytzzg59zr5,3nql1cs15vl9a2deakk8a3bszsoyvt,TZpCjSAn,2020-0188,2021-10-30,15:09:04,16:53:19,NA,incomplete,false,true,NA,NA,4,29,NA,black,m_s_033.jpg,NA,NA,NA,NA,NA,unpleasant,pleasant,NA,NA,NA,NA,NA,right,1402.5,true,NA,NA,NA,NA,NA,NA,NA,NA
TZpCjSAn,375vsr8fwzmfz1886kcfytzzg59zr5,3nql1cs15vl9a2deakk8a3bszsoyvt,TZpCjSAn,2020-0188,2021-10-30,15:09:04,16:53:19,NA,incomplete,false,true,NA,NA,4,30,NA,green,n_l_075.jpg,NA,NA,NA,NA,NA,unpleasant,pleasant,NA,NA,NA,NA,NA,right,1207.79999995232,true,NA,NA,NA,NA,NA,NA,NA,NA
TZpCjSAn,375vsr8fwzmfz1886kcfytzzg59zr5,3nql1cs15vl9a2deakk8a3bszsoyvt,TZpCjSAn,2020-0188,2021-10-30,15:09:04,16:53:19,NA,incomplete,false,true,NA,NA,4,31,NA,green,n_l_073.jpg,NA,NA,NA,NA,NA,unpleasant,pleasant,NA,NA,NA,NA,NA,right,980.799999952316,true,NA,NA,NA,NA,NA,NA,NA,NA
TZpCjSAn,375vsr8fwzmfz1886kcfytzzg59zr5,3nql1cs15vl9a2deakk8a3bszsoyvt,TZpCjSAn,2020-0188,2021-10-30,15:09:04,16:53:19,NA,incomplete,false,true,NA,NA,4,32,NA,green,n_l_112.jpg,NA,NA,NA,NA,NA,pleasant,unpleasant,NA,NA,NA,NA,NA,left,834.600000023842,true,NA,NA,NA,NA,NA,NA,NA,NA
TZpCjSAn,375vsr8fwzmfz1886kcfytzzg59zr5,3nql1cs15vl9a2deakk8a3bszsoyvt,TZpCjSAn,2020-0188,2021-10-30,15:09:04,16:53:19,NA,incomplete,false,true,NA,NA,4,33,NA,green,n_l_062.jpg,NA,NA,NA,NA,NA,pleasant,unpleasant,NA,NA,NA,NA,NA,left,1199.70000004768,true,NA,NA,NA,NA,NA,NA,NA,NA
TZpCjSAn,375vsr8fwzmfz1886kcfytzzg59zr5,3nql1cs15vl9a2deakk8a3bszsoyvt,TZpCjSAn,2020-0188,2021-10-30,15:09:04,16:53:19,NA,incomplete,false,true,NA,NA,4,34,NA,green,m_l_018.jpg,NA,NA,NA,NA,NA,unpleasant,pleasant,NA,NA,NA,NA,NA,right,1117.5,true,NA,NA,NA,NA,NA,NA,NA,NA
TZpCjSAn,375vsr8fwzmfz1886kcfytzzg59zr5,3nql1cs15vl9a2deakk8a3bszsoyvt,TZpCjSAn,2020-0188,2021-10-30,15:09:04,16:53:19,NA,incomplete,false,true,NA,NA,4,35,NA,green,n_s_091.jpg,NA,NA,NA,NA,NA,pleasant,unpleasant,NA,NA,NA,NA,NA,left,1178.29999995232,true,NA,NA,NA,NA,NA,NA,NA,NA
TZpCjSAn,375vsr8fwzmfz1886kcfytzzg59zr5,3nql1cs15vl9a2deakk8a3bszsoyvt,TZpCjSAn,2020-0188,2021-10-30,15:09:04,16:53:19,NA,incomplete,false,NA,NA,true,4,0,NA,NA,NA,left,n_l_113.jpg,black,green,NA,NA,NA,NA,NA,NA,NA,NA,NA,NaN,NA,2071.1999999284744,right,0,NA,NA,NA,NA,NA
TZpCjSAn,375vsr8fwzmfz1886kcfytzzg59zr5,3nql1cs15vl9a2deakk8a3bszsoyvt,TZpCjSAn,2020-0188,2021-10-30,15:09:04,16:53:19,NA,incomplete,false,NA,NA,true,4,1,NA,NA,NA,right,n_l_099.jpg,black,orange,NA,NA,NA,NA,NA,NA,NA,NA,NA,NaN,NA,1255,right,1,NA,NA,NA,NA,NA
TZpCjSAn,375vsr8fwzmfz1886kcfytzzg59zr5,3nql1cs15vl9a2deakk8a3bszsoyvt,TZpCjSAn,2020-0188,2021-10-30,15:09:04,16:53:19,NA,incomplete,false,NA,NA,true,4,2,NA,NA,NA,left,n_l_041.jpg,white,yellow,NA,NA,NA,NA,NA,NA,NA,NA,NA,NaN,NA,1479.1999999284744,right,0,NA,NA,NA,NA,NA
TZpCjSAn,375vsr8fwzmfz1886kcfytzzg59zr5,3nql1cs15vl9a2deakk8a3bszsoyvt,TZpCjSAn,2020-0188,2021-10-30,15:09:04,16:53:19,NA,incomplete,false,NA,NA,true,4,3,NA,NA,NA,left,m_s_011.jpg,white,yellow,NA,NA,NA,NA,NA,NA,NA,NA,NA,NaN,NA,2679.2999999523163,right,0,NA,NA,NA,NA,NA
TZpCjSAn,375vsr8fwzmfz1886kcfytzzg59zr5,3nql1cs15vl9a2deakk8a3bszsoyvt,TZpCjSAn,2020-0188,2021-10-30,15:09:04,16:53:19,NA,incomplete,false,NA,NA,true,4,4,NA,NA,NA,right,m_s_021.jpg,white,yellow,NA,NA,NA,NA,NA,NA,NA,NA,NA,NaN,NA,1647.1999999284744,right,1,NA,NA,NA,NA,NA
TZpCjSAn,375vsr8fwzmfz1886kcfytzzg59zr5,3nql1cs15vl9a2deakk8a3bszsoyvt,TZpCjSAn,2020-0188,2021-10-30,15:09:04,16:53:19,NA,incomplete,false,NA,NA,true,4,5,NA,NA,NA,right,n_s_087.jpg,blue,white,NA,NA,NA,NA,NA,NA,NA,NA,NA,NaN,NA,1327.2999999523163,left,0,NA,NA,NA,NA,NA
TZpCjSAn,375vsr8fwzmfz1886kcfytzzg59zr5,3nql1cs15vl9a2deakk8a3bszsoyvt,TZpCjSAn,2020-0188,2021-10-30,15:09:04,16:53:19,NA,incomplete,false,NA,NA,true,4,6,NA,NA,NA,right,n_l_068.jpg,blue,orange,NA,NA,NA,NA,NA,NA,NA,NA,NA,NaN,NA,1391.2999999523163,left,0,NA,NA,NA,NA,NA
TZpCjSAn,375vsr8fwzmfz1886kcfytzzg59zr5,3nql1cs15vl9a2deakk8a3bszsoyvt,TZpCjSAn,2020-0188,2021-10-30,15:09:04,16:53:19,NA,incomplete,false,NA,NA,true,4,7,NA,NA,NA,right,n_s_033.jpg,white,yellow,NA,NA,NA,NA,NA,NA,NA,NA,NA,NaN,NA,1886.7999999523163,right,1,NA,NA,NA,NA,NA
TZpCjSAn,375vsr8fwzmfz1886kcfytzzg59zr5,3nql1cs15vl9a2deakk8a3bszsoyvt,TZpCjSAn,2020-0188,2021-10-30,15:09:04,16:53:19,NA,incomplete,false,NA,NA,true,4,8,NA,NA,NA,left,m_s_094.jpg,orange,black,NA,NA,NA,NA,NA,NA,NA,NA,NA,NaN,NA,1711.3999999761581,right,0,NA,NA,NA,NA,NA
TZpCjSAn,375vsr8fwzmfz1886kcfytzzg59zr5,3nql1cs15vl9a2deakk8a3bszsoyvt,TZpCjSAn,2020-0188,2021-10-30,15:09:04,16:53:19,NA,incomplete,false,NA,NA,true,4,9,NA,NA,NA,left,m_l_069.jpg,blue,orange,NA,NA,NA,NA,NA,NA,NA,NA,NA,NaN,NA,3255.1999999284744,right,0,NA,NA,NA,NA,NA
TZpCjSAn,375vsr8fwzmfz1886kcfytzzg59zr5,3nql1cs15vl9a2deakk8a3bszsoyvt,TZpCjSAn,2020-0188,2021-10-30,15:09:04,16:53:19,NA,incomplete,false,NA,NA,true,4,10,NA,NA,NA,left,m_l_099.jpg,blue,orange,NA,NA,NA,NA,NA,NA,NA,NA,NA,NaN,NA,1503.1000000238419,right,0,NA,NA,NA,NA,NA
TZpCjSAn,375vsr8fwzmfz1886kcfytzzg59zr5,3nql1cs15vl9a2deakk8a3bszsoyvt,TZpCjSAn,2020-0188,2021-10-30,15:09:04,16:53:19,NA,incomplete,false,NA,NA,true,4,11,NA,NA,NA,left,m_l_073.jpg,blue,white,NA,NA,NA,NA,NA,NA,NA,NA,NA,NaN,NA,1527.2999999523163,left,1,NA,NA,NA,NA,NA
TZpCjSAn,375vsr8fwzmfz1886kcfytzzg59zr5,3nql1cs15vl9a2deakk8a3bszsoyvt,TZpCjSAn,2020-0188,2021-10-30,15:09:04,16:53:19,NA,incomplete,false,NA,NA,true,4,12,NA,NA,NA,right,n_l_045.jpg,yellow,white,NA,NA,NA,NA,NA,NA,NA,NA,NA,NaN,NA,1719.2999999523163,left,0,NA,NA,NA,NA,NA
TZpCjSAn,375vsr8fwzmfz1886kcfytzzg59zr5,3nql1cs15vl9a2deakk8a3bszsoyvt,TZpCjSAn,2020-0188,2021-10-30,15:09:04,16:53:19,NA,incomplete,false,NA,NA,true,4,13,NA,NA,NA,left,m_s_033.jpg,black,green,NA,NA,NA,NA,NA,NA,NA,NA,NA,NaN,NA,1415,right,0,NA,NA,NA,NA,NA
TZpCjSAn,375vsr8fwzmfz1886kcfytzzg59zr5,3nql1cs15vl9a2deakk8a3bszsoyvt,TZpCjSAn,2020-0188,2021-10-30,15:09:04,16:53:19,NA,incomplete,false,NA,NA,true,4,14,NA,NA,NA,left,m_s_102.jpg,yellow,white,NA,NA,NA,NA,NA,NA,NA,NA,NA,NaN,NA,1614.8999999761581,left,1,NA,NA,NA,NA,NA
TZpCjSAn,375vsr8fwzmfz1886kcfytzzg59zr5,3nql1cs15vl9a2deakk8a3bszsoyvt,TZpCjSAn,2020-0188,2021-10-30,15:09:04,16:53:19,NA,incomplete,false,NA,NA,true,4,15,NA,NA,NA,right,m_s_091.jpg,white,blue,NA,NA,NA,NA,NA,NA,NA,NA,NA,NaN,NA,2135.5,right,1,NA,NA,NA,NA,NA
TZpCjSAn,375vsr8fwzmfz1886kcfytzzg59zr5,3nql1cs15vl9a2deakk8a3bszsoyvt,TZpCjSAn,2020-0188,2021-10-30,15:09:04,16:53:19,NA,incomplete,false,NA,NA,true,4,16,NA,NA,NA,right,n_l_073.jpg,black,green,NA,NA,NA,NA,NA,NA,NA,NA,NA,NaN,NA,1391.3999999761581,right,1,NA,NA,NA,NA,NA
TZpCjSAn,375vsr8fwzmfz1886kcfytzzg59zr5,3nql1cs15vl9a2deakk8a3bszsoyvt,TZpCjSAn,2020-0188,2021-10-30,15:09:04,16:53:19,NA,incomplete,false,NA,NA,true,4,17,NA,NA,NA,left,n_s_022.jpg,orange,black,NA,NA,NA,NA,NA,NA,NA,NA,NA,NaN,NA,2966.899999976158,left,1,NA,NA,NA,NA,NA
TZpCjSAn,375vsr8fwzmfz1886kcfytzzg59zr5,3nql1cs15vl9a2deakk8a3bszsoyvt,TZpCjSAn,2020-0188,2021-10-30,15:09:04,16:53:19,NA,incomplete,false,NA,NA,true,4,18,NA,NA,NA,left,n_l_112.jpg,green,black,NA,NA,NA,NA,NA,NA,NA,NA,NA,NaN,NA,3542.9000000953674,left,1,NA,NA,NA,NA,NA
TZpCjSAn,375vsr8fwzmfz1886kcfytzzg59zr5,3nql1cs15vl9a2deakk8a3bszsoyvt,TZpCjSAn,2020-0188,2021-10-30,15:09:04,16:53:19,NA,incomplete,false,NA,NA,true,4,19,NA,NA,NA,right,n_s_069.jpg,orange,black,NA,NA,NA,NA,NA,NA,NA,NA,NA,NaN,NA,5518.899999976158,left,0,NA,NA,NA,NA,NA
TZpCjSAn,375vsr8fwzmfz1886kcfytzzg59zr5,3nql1cs15vl9a2deakk8a3bszsoyvt,TZpCjSAn,2020-0188,2021-10-30,15:09:04,16:53:19,NA,incomplete,false,NA,NA,true,4,20,NA,NA,NA,left,n_s_091.jpg,green,black,NA,NA,NA,NA,NA,NA,NA,NA,NA,NaN,NA,1823.2999999523163,left,1,NA,NA,NA,NA,NA
TZpCjSAn,375vsr8fwzmfz1886kcfytzzg59zr5,3nql1cs15vl9a2deakk8a3bszsoyvt,TZpCjSAn,2020-0188,2021-10-30,15:09:04,16:53:19,NA,incomplete,false,NA,NA,true,4,21,NA,NA,NA,right,m_s_082.jpg,green,black,NA,NA,NA,NA,NA,NA,NA,NA,NA,NaN,NA,1975.3999999761581,right,1,NA,NA,NA,NA,NA
TZpCjSAn,375vsr8fwzmfz1886kcfytzzg59zr5,3nql1cs15vl9a2deakk8a3bszsoyvt,TZpCjSAn,2020-0188,2021-10-30,15:09:04,16:53:19,NA,incomplete,false,NA,true,NA,4,0,NA,NA,NA,right,NA,NA,NA,absent,NA,NA,m_s_094.jpg,orange,n_l_099.jpg,orange,within,NA,NaN,NA,NA,NA,NA,right,1382.1999999284744,1,2,2444.399999976158
TZpCjSAn,375vsr8fwzmfz1886kcfytzzg59zr5,3nql1cs15vl9a2deakk8a3bszsoyvt,TZpCjSAn,2020-0188,2021-10-30,15:09:04,16:53:19,NA,incomplete,false,NA,true,NA,4,1,NA,NA,NA,left,NA,NA,NA,absent,NA,NA,m_l_073.jpg,blue,m_l_099.jpg,blue,within,NA,NaN,NA,NA,NA,NA,right,3695.399999976158,0,2,2510.600000023842
TZpCjSAn,375vsr8fwzmfz1886kcfytzzg59zr5,3nql1cs15vl9a2deakk8a3bszsoyvt,TZpCjSAn,2020-0188,2021-10-30,15:09:04,16:53:19,NA,incomplete,false,NA,true,NA,4,2,NA,NA,NA,left,NA,NA,NA,absent,NA,NA,n_l_045.jpg,white,m_s_011.jpg,white,within,NA,NaN,NA,NA,NA,NA,left,2831.1999999284744,1,1,1823.1000000238419
TZpCjSAn,375vsr8fwzmfz1886kcfytzzg59zr5,3nql1cs15vl9a2deakk8a3bszsoyvt,TZpCjSAn,2020-0188,2021-10-30,15:09:04,16:53:19,NA,incomplete,false,NA,true,NA,4,3,NA,NA,NA,right,NA,NA,NA,absent,NA,NA,n_l_112.jpg,green,n_l_113.jpg,black,between,NA,NaN,NA,NA,NA,NA,right,1415.3999999761581,1,2,1807.5
TZpCjSAn,375vsr8fwzmfz1886kcfytzzg59zr5,3nql1cs15vl9a2deakk8a3bszsoyvt,TZpCjSAn,2020-0188,2021-10-30,15:09:04,16:53:19,NA,incomplete,false,NA,true,NA,4,4,NA,NA,NA,left,NA,NA,NA,absent,NA,NA,n_l_073.jpg,green,n_s_091.jpg,green,within,NA,NaN,NA,NA,NA,NA,right,1951.2999999523163,0,1,1463.3999999761581
TZpCjSAn,375vsr8fwzmfz1886kcfytzzg59zr5,3nql1cs15vl9a2deakk8a3bszsoyvt,TZpCjSAn,2020-0188,2021-10-30,15:09:04,16:53:19,NA,incomplete,false,NA,true,NA,4,5,NA,NA,NA,right,NA,NA,NA,absent,NA,NA,m_s_033.jpg,black,n_s_069.jpg,black,within,NA,NaN,NA,NA,NA,NA,left,1727.2999999523163,0,2,1495.5
TZpCjSAn,375vsr8fwzmfz1886kcfytzzg59zr5,3nql1cs15vl9a2deakk8a3bszsoyvt,TZpCjSAn,2020-0188,2021-10-30,15:09:04,16:53:19,NA,incomplete,false,NA,true,NA,4,6,NA,NA,NA,left,NA,NA,NA,absent,NA,NA,n_s_033.jpg,yellow,n_l_041.jpg,white,between,NA,NaN,NA,NA,NA,NA,right,1319.1000000238419,0,1,1519.0999999046326
TZpCjSAn,375vsr8fwzmfz1886kcfytzzg59zr5,3nql1cs15vl9a2deakk8a3bszsoyvt,TZpCjSAn,2020-0188,2021-10-30,15:09:04,16:53:19,NA,incomplete,false,NA,true,NA,4,7,NA,NA,NA,right,NA,NA,NA,absent,NA,NA,n_s_022.jpg,orange,m_s_091.jpg,blue,between,NA,NaN,NA,NA,NA,NA,left,2847,0,1,1303.2999999523163
TZpCjSAn,375vsr8fwzmfz1886kcfytzzg59zr5,3nql1cs15vl9a2deakk8a3bszsoyvt,TZpCjSAn,2020-0188,2021-10-30,15:09:04,16:53:19,NA,incomplete,false,NA,true,NA,4,8,NA,NA,NA,right,NA,NA,NA,absent,NA,NA,m_l_069.jpg,blue,n_s_087.jpg,white,between,NA,NaN,NA,NA,NA,NA,right,1423.6000000238419,1,1,2007.6000000238419
TZpCjSAn,375vsr8fwzmfz1886kcfytzzg59zr5,3nql1cs15vl9a2deakk8a3bszsoyvt,TZpCjSAn,2020-0188,2021-10-30,15:09:04,16:53:19,NA,incomplete,false,NA,true,NA,4,9,NA,NA,NA,right,NA,NA,NA,absent,NA,NA,m_s_102.jpg,yellow,m_s_021.jpg,yellow,within,NA,NaN,NA,NA,NA,NA,right,1343.2999999523163,1,1,2327.5
TZpCjSAn,375vsr8fwzmfz1886kcfytzzg59zr5,3nql1cs15vl9a2deakk8a3bszsoyvt,TZpCjSAn,2020-0188,2021-10-30,15:09:04,16:53:19,NA,incomplete,false,NA,true,NA,4,10,NA,NA,NA,left,NA,NA,NA,absent,NA,NA,n_l_068.jpg,orange,m_s_082.jpg,black,between,NA,NaN,NA,NA,NA,NA,right,1055.2999999523163,0,1,1751.3999999761581
TZpCjSAn,375vsr8fwzmfz1886kcfytzzg59zr5,3nql1cs15vl9a2deakk8a3bszsoyvt,TZpCjSAn,2020-0188,2021-10-30,15:09:04,16:53:19,NA,incomplete,false,true,NA,NA,5,0,NA,blue,m_s_060.jpg,NA,NA,NA,NA,NA,unpleasant,pleasant,NA,NA,NA,NA,NA,left,2017.19999992847,true,NA,NA,NA,NA,NA,NA,NA,NA
TZpCjSAn,375vsr8fwzmfz1886kcfytzzg59zr5,3nql1cs15vl9a2deakk8a3bszsoyvt,TZpCjSAn,2020-0188,2021-10-30,15:09:04,16:53:19,NA,incomplete,false,true,NA,NA,5,1,NA,blue,n_s_042.jpg,NA,NA,NA,NA,NA,unpleasant,pleasant,NA,NA,NA,NA,NA,left,1846.29999995232,true,NA,NA,NA,NA,NA,NA,NA,NA
TZpCjSAn,375vsr8fwzmfz1886kcfytzzg59zr5,3nql1cs15vl9a2deakk8a3bszsoyvt,TZpCjSAn,2020-0188,2021-10-30,15:09:04,16:53:19,NA,incomplete,false,true,NA,NA,5,2,NA,blue,n_s_102.jpg,NA,NA,NA,NA,NA,pleasant,unpleasant,NA,NA,NA,NA,NA,left,2836.10000002384,true,NA,NA,NA,NA,NA,NA,NA,NA
TZpCjSAn,375vsr8fwzmfz1886kcfytzzg59zr5,3nql1cs15vl9a2deakk8a3bszsoyvt,TZpCjSAn,2020-0188,2021-10-30,15:09:04,16:53:19,NA,incomplete,false,true,NA,NA,5,3,NA,blue,m_s_089.jpg,NA,NA,NA,NA,NA,unpleasant,pleasant,NA,NA,NA,NA,NA,right,3177.10000002384,true,NA,NA,NA,NA,NA,NA,NA,NA
TZpCjSAn,375vsr8fwzmfz1886kcfytzzg59zr5,3nql1cs15vl9a2deakk8a3bszsoyvt,TZpCjSAn,2020-0188,2021-10-30,15:09:04,16:53:19,NA,incomplete,false,true,NA,NA,5,4,NA,blue,m_s_010.jpg,NA,NA,NA,NA,NA,pleasant,unpleasant,NA,NA,NA,NA,NA,left,3478.59999990463,true,NA,NA,NA,NA,NA,NA,NA,NA
TZpCjSAn,375vsr8fwzmfz1886kcfytzzg59zr5,3nql1cs15vl9a2deakk8a3bszsoyvt,TZpCjSAn,2020-0188,2021-10-30,15:09:04,16:53:19,NA,incomplete,false,true,NA,NA,5,5,NA,blue,n_l_107.jpg,NA,NA,NA,NA,NA,unpleasant,pleasant,NA,NA,NA,NA,NA,none,0,false,NA,NA,NA,NA,NA,NA,NA,NA
TZpCjSAn,375vsr8fwzmfz1886kcfytzzg59zr5,3nql1cs15vl9a2deakk8a3bszsoyvt,TZpCjSAn,2020-0188,2021-10-30,15:09:04,16:53:19,NA,incomplete,false,true,NA,NA,5,6,NA,brown,n_l_094.jpg,NA,NA,NA,NA,NA,unpleasant,pleasant,NA,NA,NA,NA,NA,right,1137.5,true,NA,NA,NA,NA,NA,NA,NA,NA
TZpCjSAn,375vsr8fwzmfz1886kcfytzzg59zr5,3nql1cs15vl9a2deakk8a3bszsoyvt,TZpCjSAn,2020-0188,2021-10-30,15:09:04,16:53:19,NA,incomplete,false,true,NA,NA,5,7,NA,brown,n_l_033.jpg,NA,NA,NA,NA,NA,pleasant,unpleasant,NA,NA,NA,NA,NA,left,2190.39999997616,true,NA,NA,NA,NA,NA,NA,NA,NA
TZpCjSAn,375vsr8fwzmfz1886kcfytzzg59zr5,3nql1cs15vl9a2deakk8a3bszsoyvt,TZpCjSAn,2020-0188,2021-10-30,15:09:04,16:53:19,NA,incomplete,false,true,NA,NA,5,8,NA,brown,m_l_059.jpg,NA,NA,NA,NA,NA,pleasant,unpleasant,NA,NA,NA,NA,NA,right,2707.89999997616,true,NA,NA,NA,NA,NA,NA,NA,NA
TZpCjSAn,375vsr8fwzmfz1886kcfytzzg59zr5,3nql1cs15vl9a2deakk8a3bszsoyvt,TZpCjSAn,2020-0188,2021-10-30,15:09:04,16:53:19,NA,incomplete,false,true,NA,NA,5,9,NA,brown,m_l_106.jpg,NA,NA,NA,NA,NA,unpleasant,pleasant,NA,NA,NA,NA,NA,right,1248.40000009537,true,NA,NA,NA,NA,NA,NA,NA,NA
TZpCjSAn,375vsr8fwzmfz1886kcfytzzg59zr5,3nql1cs15vl9a2deakk8a3bszsoyvt,TZpCjSAn,2020-0188,2021-10-30,15:09:04,16:53:19,NA,incomplete,false,true,NA,NA,5,10,NA,brown,m_l_094.jpg,NA,NA,NA,NA,NA,pleasant,unpleasant,NA,NA,NA,NA,NA,left,942.299999952316,true,NA,NA,NA,NA,NA,NA,NA,NA
TZpCjSAn,375vsr8fwzmfz1886kcfytzzg59zr5,3nql1cs15vl9a2deakk8a3bszsoyvt,TZpCjSAn,2020-0188,2021-10-30,15:09:04,16:53:19,NA,incomplete,false,true,NA,NA,5,11,NA,brown,n_s_019.jpg,NA,NA,NA,NA,NA,pleasant,unpleasant,NA,NA,NA,NA,NA,left,2004.39999997616,true,NA,NA,NA,NA,NA,NA,NA,NA
TZpCjSAn,375vsr8fwzmfz1886kcfytzzg59zr5,3nql1cs15vl9a2deakk8a3bszsoyvt,TZpCjSAn,2020-0188,2021-10-30,15:09:04,16:53:19,NA,incomplete,false,true,NA,NA,5,12,NA,yellow,m_l_043.jpg,NA,NA,NA,NA,NA,pleasant,unpleasant,NA,NA,NA,NA,NA,left,1033.29999995232,true,NA,NA,NA,NA,NA,NA,NA,NA
TZpCjSAn,375vsr8fwzmfz1886kcfytzzg59zr5,3nql1cs15vl9a2deakk8a3bszsoyvt,TZpCjSAn,2020-0188,2021-10-30,15:09:04,16:53:19,NA,incomplete,false,true,NA,NA,5,13,NA,yellow,n_l_019.jpg,NA,NA,NA,NA,NA,unpleasant,pleasant,NA,NA,NA,NA,NA,right,1623,true,NA,NA,NA,NA,NA,NA,NA,NA
TZpCjSAn,375vsr8fwzmfz1886kcfytzzg59zr5,3nql1cs15vl9a2deakk8a3bszsoyvt,TZpCjSAn,2020-0188,2021-10-30,15:09:04,16:53:19,NA,incomplete,false,true,NA,NA,5,14,NA,yellow,m_l_031.jpg,NA,NA,NA,NA,NA,pleasant,unpleasant,NA,NA,NA,NA,NA,left,1028.10000002384,true,NA,NA,NA,NA,NA,NA,NA,NA
TZpCjSAn,375vsr8fwzmfz1886kcfytzzg59zr5,3nql1cs15vl9a2deakk8a3bszsoyvt,TZpCjSAn,2020-0188,2021-10-30,15:09:04,16:53:19,NA,incomplete,false,true,NA,NA,5,15,NA,yellow,n_s_005.jpg,NA,NA,NA,NA,NA,pleasant,unpleasant,NA,NA,NA,NA,NA,left,1185.5,true,NA,NA,NA,NA,NA,NA,NA,NA
TZpCjSAn,375vsr8fwzmfz1886kcfytzzg59zr5,3nql1cs15vl9a2deakk8a3bszsoyvt,TZpCjSAn,2020-0188,2021-10-30,15:09:04,16:53:19,NA,incomplete,false,true,NA,NA,5,16,NA,yellow,m_l_056.jpg,NA,NA,NA,NA,NA,unpleasant,pleasant,NA,NA,NA,NA,NA,right,1174.69999992847,true,NA,NA,NA,NA,NA,NA,NA,NA
