workerId,hitId,assignmentId,subject,studyid,exp_date,exp_start,exp_end,time_start,time_end,practice,encoding,memory,association,block,trial,event_order,event,stim,answer,object,left_context,right_context,context_type,label_left,label_right,left_image,left_event,right_image,right_event,condition,response,response_time,response_acc,association_response_time,association_response,association_acc,order_response,order_response_time,order_acc,distance_response,distance_response_time
sWeNyrz4,3087lxlj7ptluqx9bvztb5iuvan0fr,3ob0cao74l24s1iu5v34v2kjremyhe,sWeNyrz4,2020-0188,2021-10-31,08:02:38,10:31:19,NA,incomplete,true,true,NA,NA,0,0,NA,white,m_s_089.jpg,NA,NA,NA,NA,NA,unpleasant,pleasant,NA,NA,NA,NA,NA,left,1835,true,NA,NA,NA,NA,NA,NA,NA,NA
sWeNyrz4,3087lxlj7ptluqx9bvztb5iuvan0fr,3ob0cao74l24s1iu5v34v2kjremyhe,sWeNyrz4,2020-0188,2021-10-31,08:02:38,10:31:19,NA,incomplete,true,true,NA,NA,0,1,NA,white,m_s_064.jpg,NA,NA,NA,NA,NA,unpleasant,pleasant,NA,NA,NA,NA,NA,left,1424,true,NA,NA,NA,NA,NA,NA,NA,NA
sWeNyrz4,3087lxlj7ptluqx9bvztb5iuvan0fr,3ob0cao74l24s1iu5v34v2kjremyhe,sWeNyrz4,2020-0188,2021-10-31,08:02:38,10:31:19,NA,incomplete,true,true,NA,NA,0,2,NA,white,m_l_015.jpg,NA,NA,NA,NA,NA,unpleasant,pleasant,NA,NA,NA,NA,NA,right,1252,true,NA,NA,NA,NA,NA,NA,NA,NA
sWeNyrz4,3087lxlj7ptluqx9bvztb5iuvan0fr,3ob0cao74l24s1iu5v34v2kjremyhe,sWeNyrz4,2020-0188,2021-10-31,08:02:38,10:31:19,NA,incomplete,true,true,NA,NA,0,3,NA,white,n_l_012.jpg,NA,NA,NA,NA,NA,pleasant,unpleasant,NA,NA,NA,NA,NA,left,2165,true,NA,NA,NA,NA,NA,NA,NA,NA
sWeNyrz4,3087lxlj7ptluqx9bvztb5iuvan0fr,3ob0cao74l24s1iu5v34v2kjremyhe,sWeNyrz4,2020-0188,2021-10-31,08:02:38,10:31:19,NA,incomplete,true,true,NA,NA,0,4,NA,white,m_s_040.jpg,NA,NA,NA,NA,NA,pleasant,unpleasant,NA,NA,NA,NA,NA,right,2227,true,NA,NA,NA,NA,NA,NA,NA,NA
sWeNyrz4,3087lxlj7ptluqx9bvztb5iuvan0fr,3ob0cao74l24s1iu5v34v2kjremyhe,sWeNyrz4,2020-0188,2021-10-31,08:02:38,10:31:19,NA,incomplete,true,true,NA,NA,0,5,NA,white,n_s_081.jpg,NA,NA,NA,NA,NA,pleasant,unpleasant,NA,NA,NA,NA,NA,right,1309,true,NA,NA,NA,NA,NA,NA,NA,NA
sWeNyrz4,3087lxlj7ptluqx9bvztb5iuvan0fr,3ob0cao74l24s1iu5v34v2kjremyhe,sWeNyrz4,2020-0188,2021-10-31,08:02:38,10:31:19,NA,incomplete,true,true,NA,NA,0,6,NA,yellow,m_l_023.jpg,NA,NA,NA,NA,NA,pleasant,unpleasant,NA,NA,NA,NA,NA,right,1585,true,NA,NA,NA,NA,NA,NA,NA,NA
sWeNyrz4,3087lxlj7ptluqx9bvztb5iuvan0fr,3ob0cao74l24s1iu5v34v2kjremyhe,sWeNyrz4,2020-0188,2021-10-31,08:02:38,10:31:19,NA,incomplete,true,true,NA,NA,0,7,NA,yellow,n_l_042.jpg,NA,NA,NA,NA,NA,pleasant,unpleasant,NA,NA,NA,NA,NA,left,1911,true,NA,NA,NA,NA,NA,NA,NA,NA
sWeNyrz4,3087lxlj7ptluqx9bvztb5iuvan0fr,3ob0cao74l24s1iu5v34v2kjremyhe,sWeNyrz4,2020-0188,2021-10-31,08:02:38,10:31:19,NA,incomplete,true,true,NA,NA,0,8,NA,yellow,m_s_008.jpg,NA,NA,NA,NA,NA,unpleasant,pleasant,NA,NA,NA,NA,NA,left,2105,true,NA,NA,NA,NA,NA,NA,NA,NA
sWeNyrz4,3087lxlj7ptluqx9bvztb5iuvan0fr,3ob0cao74l24s1iu5v34v2kjremyhe,sWeNyrz4,2020-0188,2021-10-31,08:02:38,10:31:19,NA,incomplete,true,true,NA,NA,0,9,NA,yellow,m_l_108.jpg,NA,NA,NA,NA,NA,unpleasant,pleasant,NA,NA,NA,NA,NA,left,1064,true,NA,NA,NA,NA,NA,NA,NA,NA
sWeNyrz4,3087lxlj7ptluqx9bvztb5iuvan0fr,3ob0cao74l24s1iu5v34v2kjremyhe,sWeNyrz4,2020-0188,2021-10-31,08:02:38,10:31:19,NA,incomplete,true,true,NA,NA,0,10,NA,yellow,n_s_045.jpg,NA,NA,NA,NA,NA,pleasant,unpleasant,NA,NA,NA,NA,NA,left,1544,true,NA,NA,NA,NA,NA,NA,NA,NA
sWeNyrz4,3087lxlj7ptluqx9bvztb5iuvan0fr,3ob0cao74l24s1iu5v34v2kjremyhe,sWeNyrz4,2020-0188,2021-10-31,08:02:38,10:31:19,NA,incomplete,true,true,NA,NA,0,11,NA,yellow,n_l_067.jpg,NA,NA,NA,NA,NA,pleasant,unpleasant,NA,NA,NA,NA,NA,left,1383,true,NA,NA,NA,NA,NA,NA,NA,NA
sWeNyrz4,3087lxlj7ptluqx9bvztb5iuvan0fr,3ob0cao74l24s1iu5v34v2kjremyhe,sWeNyrz4,2020-0188,2021-10-31,08:02:38,10:31:19,NA,incomplete,true,true,NA,NA,0,12,NA,brown,m_l_045.jpg,NA,NA,NA,NA,NA,pleasant,unpleasant,NA,NA,NA,NA,NA,right,1152,true,NA,NA,NA,NA,NA,NA,NA,NA
sWeNyrz4,3087lxlj7ptluqx9bvztb5iuvan0fr,3ob0cao74l24s1iu5v34v2kjremyhe,sWeNyrz4,2020-0188,2021-10-31,08:02:38,10:31:19,NA,incomplete,true,true,NA,NA,0,13,NA,brown,n_l_113.jpg,NA,NA,NA,NA,NA,pleasant,unpleasant,NA,NA,NA,NA,NA,right,1121,true,NA,NA,NA,NA,NA,NA,NA,NA
sWeNyrz4,3087lxlj7ptluqx9bvztb5iuvan0fr,3ob0cao74l24s1iu5v34v2kjremyhe,sWeNyrz4,2020-0188,2021-10-31,08:02:38,10:31:19,NA,incomplete,true,true,NA,NA,0,14,NA,brown,n_l_068.jpg,NA,NA,NA,NA,NA,pleasant,unpleasant,NA,NA,NA,NA,NA,left,1077,true,NA,NA,NA,NA,NA,NA,NA,NA
sWeNyrz4,3087lxlj7ptluqx9bvztb5iuvan0fr,3ob0cao74l24s1iu5v34v2kjremyhe,sWeNyrz4,2020-0188,2021-10-31,08:02:38,10:31:19,NA,incomplete,true,true,NA,NA,0,15,NA,brown,m_l_019.jpg,NA,NA,NA,NA,NA,unpleasant,pleasant,NA,NA,NA,NA,NA,right,1042,true,NA,NA,NA,NA,NA,NA,NA,NA
sWeNyrz4,3087lxlj7ptluqx9bvztb5iuvan0fr,3ob0cao74l24s1iu5v34v2kjremyhe,sWeNyrz4,2020-0188,2021-10-31,08:02:38,10:31:19,NA,incomplete,true,true,NA,NA,0,16,NA,brown,m_s_054.jpg,NA,NA,NA,NA,NA,unpleasant,pleasant,NA,NA,NA,NA,NA,left,1175,true,NA,NA,NA,NA,NA,NA,NA,NA
sWeNyrz4,3087lxlj7ptluqx9bvztb5iuvan0fr,3ob0cao74l24s1iu5v34v2kjremyhe,sWeNyrz4,2020-0188,2021-10-31,08:02:38,10:31:19,NA,incomplete,true,true,NA,NA,0,17,NA,brown,n_l_055.jpg,NA,NA,NA,NA,NA,unpleasant,pleasant,NA,NA,NA,NA,NA,left,2148,true,NA,NA,NA,NA,NA,NA,NA,NA
sWeNyrz4,3087lxlj7ptluqx9bvztb5iuvan0fr,3ob0cao74l24s1iu5v34v2kjremyhe,sWeNyrz4,2020-0188,2021-10-31,08:02:38,10:31:19,NA,incomplete,true,true,NA,NA,0,18,NA,purple,m_s_044.jpg,NA,NA,NA,NA,NA,unpleasant,pleasant,NA,NA,NA,NA,NA,right,1717,true,NA,NA,NA,NA,NA,NA,NA,NA
sWeNyrz4,3087lxlj7ptluqx9bvztb5iuvan0fr,3ob0cao74l24s1iu5v34v2kjremyhe,sWeNyrz4,2020-0188,2021-10-31,08:02:38,10:31:19,NA,incomplete,true,true,NA,NA,0,19,NA,purple,n_s_008.jpg,NA,NA,NA,NA,NA,unpleasant,pleasant,NA,NA,NA,NA,NA,right,1517,true,NA,NA,NA,NA,NA,NA,NA,NA
sWeNyrz4,3087lxlj7ptluqx9bvztb5iuvan0fr,3ob0cao74l24s1iu5v34v2kjremyhe,sWeNyrz4,2020-0188,2021-10-31,08:02:38,10:31:19,NA,incomplete,true,true,NA,NA,0,20,NA,purple,n_s_046.jpg,NA,NA,NA,NA,NA,unpleasant,pleasant,NA,NA,NA,NA,NA,left,1425,true,NA,NA,NA,NA,NA,NA,NA,NA
sWeNyrz4,3087lxlj7ptluqx9bvztb5iuvan0fr,3ob0cao74l24s1iu5v34v2kjremyhe,sWeNyrz4,2020-0188,2021-10-31,08:02:38,10:31:19,NA,incomplete,true,true,NA,NA,0,21,NA,purple,m_s_066.jpg,NA,NA,NA,NA,NA,unpleasant,pleasant,NA,NA,NA,NA,NA,left,1378,true,NA,NA,NA,NA,NA,NA,NA,NA
sWeNyrz4,3087lxlj7ptluqx9bvztb5iuvan0fr,3ob0cao74l24s1iu5v34v2kjremyhe,sWeNyrz4,2020-0188,2021-10-31,08:02:38,10:31:19,NA,incomplete,true,true,NA,NA,0,22,NA,purple,n_l_057.jpg,NA,NA,NA,NA,NA,pleasant,unpleasant,NA,NA,NA,NA,NA,left,2578,true,NA,NA,NA,NA,NA,NA,NA,NA
sWeNyrz4,3087lxlj7ptluqx9bvztb5iuvan0fr,3ob0cao74l24s1iu5v34v2kjremyhe,sWeNyrz4,2020-0188,2021-10-31,08:02:38,10:31:19,NA,incomplete,true,true,NA,NA,0,23,NA,purple,m_s_022.jpg,NA,NA,NA,NA,NA,pleasant,unpleasant,NA,NA,NA,NA,NA,right,1637,true,NA,NA,NA,NA,NA,NA,NA,NA
sWeNyrz4,3087lxlj7ptluqx9bvztb5iuvan0fr,3ob0cao74l24s1iu5v34v2kjremyhe,sWeNyrz4,2020-0188,2021-10-31,08:02:38,10:31:19,NA,incomplete,true,true,NA,NA,0,24,NA,green,n_s_088.jpg,NA,NA,NA,NA,NA,pleasant,unpleasant,NA,NA,NA,NA,NA,left,1147,true,NA,NA,NA,NA,NA,NA,NA,NA
sWeNyrz4,3087lxlj7ptluqx9bvztb5iuvan0fr,3ob0cao74l24s1iu5v34v2kjremyhe,sWeNyrz4,2020-0188,2021-10-31,08:02:38,10:31:19,NA,incomplete,true,true,NA,NA,0,25,NA,green,n_l_045.jpg,NA,NA,NA,NA,NA,pleasant,unpleasant,NA,NA,NA,NA,NA,right,1107,true,NA,NA,NA,NA,NA,NA,NA,NA
sWeNyrz4,3087lxlj7ptluqx9bvztb5iuvan0fr,3ob0cao74l24s1iu5v34v2kjremyhe,sWeNyrz4,2020-0188,2021-10-31,08:02:38,10:31:19,NA,incomplete,true,true,NA,NA,0,26,NA,green,n_s_047.jpg,NA,NA,NA,NA,NA,unpleasant,pleasant,NA,NA,NA,NA,NA,right,1751,true,NA,NA,NA,NA,NA,NA,NA,NA
sWeNyrz4,3087lxlj7ptluqx9bvztb5iuvan0fr,3ob0cao74l24s1iu5v34v2kjremyhe,sWeNyrz4,2020-0188,2021-10-31,08:02:38,10:31:19,NA,incomplete,true,true,NA,NA,0,27,NA,green,n_l_038.jpg,NA,NA,NA,NA,NA,pleasant,unpleasant,NA,NA,NA,NA,NA,right,2354,true,NA,NA,NA,NA,NA,NA,NA,NA
sWeNyrz4,3087lxlj7ptluqx9bvztb5iuvan0fr,3ob0cao74l24s1iu5v34v2kjremyhe,sWeNyrz4,2020-0188,2021-10-31,08:02:38,10:31:19,NA,incomplete,true,true,NA,NA,0,28,NA,green,m_l_018.jpg,NA,NA,NA,NA,NA,unpleasant,pleasant,NA,NA,NA,NA,NA,left,1366,true,NA,NA,NA,NA,NA,NA,NA,NA
sWeNyrz4,3087lxlj7ptluqx9bvztb5iuvan0fr,3ob0cao74l24s1iu5v34v2kjremyhe,sWeNyrz4,2020-0188,2021-10-31,08:02:38,10:31:19,NA,incomplete,true,true,NA,NA,0,29,NA,green,m_s_035.jpg,NA,NA,NA,NA,NA,unpleasant,pleasant,NA,NA,NA,NA,NA,right,1475,true,NA,NA,NA,NA,NA,NA,NA,NA
sWeNyrz4,3087lxlj7ptluqx9bvztb5iuvan0fr,3ob0cao74l24s1iu5v34v2kjremyhe,sWeNyrz4,2020-0188,2021-10-31,08:02:38,10:31:19,NA,incomplete,true,true,NA,NA,0,30,NA,red,m_l_078.jpg,NA,NA,NA,NA,NA,unpleasant,pleasant,NA,NA,NA,NA,NA,left,3259,true,NA,NA,NA,NA,NA,NA,NA,NA
sWeNyrz4,3087lxlj7ptluqx9bvztb5iuvan0fr,3ob0cao74l24s1iu5v34v2kjremyhe,sWeNyrz4,2020-0188,2021-10-31,08:02:38,10:31:19,NA,incomplete,true,true,NA,NA,0,31,NA,red,n_s_073.jpg,NA,NA,NA,NA,NA,unpleasant,pleasant,NA,NA,NA,NA,NA,left,1060,true,NA,NA,NA,NA,NA,NA,NA,NA
sWeNyrz4,3087lxlj7ptluqx9bvztb5iuvan0fr,3ob0cao74l24s1iu5v34v2kjremyhe,sWeNyrz4,2020-0188,2021-10-31,08:02:38,10:31:19,NA,incomplete,true,true,NA,NA,0,32,NA,red,m_l_063.jpg,NA,NA,NA,NA,NA,unpleasant,pleasant,NA,NA,NA,NA,NA,right,1367,true,NA,NA,NA,NA,NA,NA,NA,NA
sWeNyrz4,3087lxlj7ptluqx9bvztb5iuvan0fr,3ob0cao74l24s1iu5v34v2kjremyhe,sWeNyrz4,2020-0188,2021-10-31,08:02:38,10:31:19,NA,incomplete,true,true,NA,NA,0,33,NA,red,m_l_007.jpg,NA,NA,NA,NA,NA,pleasant,unpleasant,NA,NA,NA,NA,NA,left,2018,true,NA,NA,NA,NA,NA,NA,NA,NA
sWeNyrz4,3087lxlj7ptluqx9bvztb5iuvan0fr,3ob0cao74l24s1iu5v34v2kjremyhe,sWeNyrz4,2020-0188,2021-10-31,08:02:38,10:31:19,NA,incomplete,true,true,NA,NA,0,34,NA,red,m_s_109.jpg,NA,NA,NA,NA,NA,unpleasant,pleasant,NA,NA,NA,NA,NA,right,1477,true,NA,NA,NA,NA,NA,NA,NA,NA
sWeNyrz4,3087lxlj7ptluqx9bvztb5iuvan0fr,3ob0cao74l24s1iu5v34v2kjremyhe,sWeNyrz4,2020-0188,2021-10-31,08:02:38,10:31:19,NA,incomplete,true,true,NA,NA,0,35,NA,red,n_s_077.jpg,NA,NA,NA,NA,NA,unpleasant,pleasant,NA,NA,NA,NA,NA,left,1082,true,NA,NA,NA,NA,NA,NA,NA,NA
sWeNyrz4,3087lxlj7ptluqx9bvztb5iuvan0fr,3ob0cao74l24s1iu5v34v2kjremyhe,sWeNyrz4,2020-0188,2021-10-31,08:02:38,10:31:19,NA,incomplete,true,NA,NA,true,0,0,NA,NA,NA,left,m_s_040.jpg,white,yellow,NA,NA,NA,NA,NA,NA,NA,NA,NA,NaN,NA,4039,left,1,NA,NA,NA,NA,NA
sWeNyrz4,3087lxlj7ptluqx9bvztb5iuvan0fr,3ob0cao74l24s1iu5v34v2kjremyhe,sWeNyrz4,2020-0188,2021-10-31,08:02:38,10:31:19,NA,incomplete,true,NA,NA,true,0,1,NA,NA,NA,left,n_s_073.jpg,red,green,NA,NA,NA,NA,NA,NA,NA,NA,NA,NaN,NA,5435,left,1,NA,NA,NA,NA,NA
sWeNyrz4,3087lxlj7ptluqx9bvztb5iuvan0fr,3ob0cao74l24s1iu5v34v2kjremyhe,sWeNyrz4,2020-0188,2021-10-31,08:02:38,10:31:19,NA,incomplete,true,NA,NA,true,0,2,NA,NA,NA,left,n_s_081.jpg,white,yellow,NA,NA,NA,NA,NA,NA,NA,NA,NA,NaN,NA,3166,left,1,NA,NA,NA,NA,NA
sWeNyrz4,3087lxlj7ptluqx9bvztb5iuvan0fr,3ob0cao74l24s1iu5v34v2kjremyhe,sWeNyrz4,2020-0188,2021-10-31,08:02:38,10:31:19,NA,incomplete,true,NA,NA,true,0,3,NA,NA,NA,right,n_s_046.jpg,green,purple,NA,NA,NA,NA,NA,NA,NA,NA,NA,NaN,NA,3728,right,1,NA,NA,NA,NA,NA
sWeNyrz4,3087lxlj7ptluqx9bvztb5iuvan0fr,3ob0cao74l24s1iu5v34v2kjremyhe,sWeNyrz4,2020-0188,2021-10-31,08:02:38,10:31:19,NA,incomplete,true,NA,NA,true,0,4,NA,NA,NA,left,n_l_045.jpg,green,purple,NA,NA,NA,NA,NA,NA,NA,NA,NA,NaN,NA,3877,right,0,NA,NA,NA,NA,NA
sWeNyrz4,3087lxlj7ptluqx9bvztb5iuvan0fr,3ob0cao74l24s1iu5v34v2kjremyhe,sWeNyrz4,2020-0188,2021-10-31,08:02:38,10:31:19,NA,incomplete,true,NA,NA,true,0,5,NA,NA,NA,right,m_s_022.jpg,green,purple,NA,NA,NA,NA,NA,NA,NA,NA,NA,NaN,NA,3160,left,0,NA,NA,NA,NA,NA
sWeNyrz4,3087lxlj7ptluqx9bvztb5iuvan0fr,3ob0cao74l24s1iu5v34v2kjremyhe,sWeNyrz4,2020-0188,2021-10-31,08:02:38,10:31:19,NA,incomplete,true,NA,NA,true,0,6,NA,NA,NA,right,n_s_077.jpg,green,red,NA,NA,NA,NA,NA,NA,NA,NA,NA,NaN,NA,2966,right,1,NA,NA,NA,NA,NA
sWeNyrz4,3087lxlj7ptluqx9bvztb5iuvan0fr,3ob0cao74l24s1iu5v34v2kjremyhe,sWeNyrz4,2020-0188,2021-10-31,08:02:38,10:31:19,NA,incomplete,true,NA,NA,true,0,7,NA,NA,NA,right,m_l_063.jpg,green,red,NA,NA,NA,NA,NA,NA,NA,NA,NA,NaN,NA,6062,left,0,NA,NA,NA,NA,NA
sWeNyrz4,3087lxlj7ptluqx9bvztb5iuvan0fr,3ob0cao74l24s1iu5v34v2kjremyhe,sWeNyrz4,2020-0188,2021-10-31,08:02:38,10:31:19,NA,incomplete,true,NA,NA,true,0,8,NA,NA,NA,left,m_s_054.jpg,brown,yellow,NA,NA,NA,NA,NA,NA,NA,NA,NA,NaN,NA,4187,left,1,NA,NA,NA,NA,NA
sWeNyrz4,3087lxlj7ptluqx9bvztb5iuvan0fr,3ob0cao74l24s1iu5v34v2kjremyhe,sWeNyrz4,2020-0188,2021-10-31,08:02:38,10:31:19,NA,incomplete,true,NA,NA,true,0,9,NA,NA,NA,left,m_s_064.jpg,white,yellow,NA,NA,NA,NA,NA,NA,NA,NA,NA,NaN,NA,4973,left,1,NA,NA,NA,NA,NA
sWeNyrz4,3087lxlj7ptluqx9bvztb5iuvan0fr,3ob0cao74l24s1iu5v34v2kjremyhe,sWeNyrz4,2020-0188,2021-10-31,08:02:38,10:31:19,NA,incomplete,true,NA,NA,true,0,10,NA,NA,NA,right,n_l_055.jpg,yellow,brown,NA,NA,NA,NA,NA,NA,NA,NA,NA,NaN,NA,7013,right,1,NA,NA,NA,NA,NA
sWeNyrz4,3087lxlj7ptluqx9bvztb5iuvan0fr,3ob0cao74l24s1iu5v34v2kjremyhe,sWeNyrz4,2020-0188,2021-10-31,08:02:38,10:31:19,NA,incomplete,true,NA,NA,true,0,11,NA,NA,NA,right,n_l_068.jpg,yellow,brown,NA,NA,NA,NA,NA,NA,NA,NA,NA,NaN,NA,10070,right,1,NA,NA,NA,NA,NA
sWeNyrz4,3087lxlj7ptluqx9bvztb5iuvan0fr,3ob0cao74l24s1iu5v34v2kjremyhe,sWeNyrz4,2020-0188,2021-10-31,08:02:38,10:31:19,NA,incomplete,true,NA,NA,true,0,12,NA,NA,NA,left,m_l_018.jpg,green,red,NA,NA,NA,NA,NA,NA,NA,NA,NA,NaN,NA,4989,left,1,NA,NA,NA,NA,NA
sWeNyrz4,3087lxlj7ptluqx9bvztb5iuvan0fr,3ob0cao74l24s1iu5v34v2kjremyhe,sWeNyrz4,2020-0188,2021-10-31,08:02:38,10:31:19,NA,incomplete,true,NA,NA,true,0,13,NA,NA,NA,left,n_l_113.jpg,brown,purple,NA,NA,NA,NA,NA,NA,NA,NA,NA,NaN,NA,4574,left,1,NA,NA,NA,NA,NA
sWeNyrz4,3087lxlj7ptluqx9bvztb5iuvan0fr,3ob0cao74l24s1iu5v34v2kjremyhe,sWeNyrz4,2020-0188,2021-10-31,08:02:38,10:31:19,NA,incomplete,true,NA,NA,true,0,14,NA,NA,NA,left,m_s_035.jpg,green,purple,NA,NA,NA,NA,NA,NA,NA,NA,NA,NaN,NA,3210,left,1,NA,NA,NA,NA,NA
sWeNyrz4,3087lxlj7ptluqx9bvztb5iuvan0fr,3ob0cao74l24s1iu5v34v2kjremyhe,sWeNyrz4,2020-0188,2021-10-31,08:02:38,10:31:19,NA,incomplete,true,NA,NA,true,0,15,NA,NA,NA,left,n_s_008.jpg,purple,brown,NA,NA,NA,NA,NA,NA,NA,NA,NA,NaN,NA,5236,right,0,NA,NA,NA,NA,NA
sWeNyrz4,3087lxlj7ptluqx9bvztb5iuvan0fr,3ob0cao74l24s1iu5v34v2kjremyhe,sWeNyrz4,2020-0188,2021-10-31,08:02:38,10:31:19,NA,incomplete,true,NA,NA,true,0,16,NA,NA,NA,left,n_s_045.jpg,yellow,white,NA,NA,NA,NA,NA,NA,NA,NA,NA,NaN,NA,2549,left,1,NA,NA,NA,NA,NA
sWeNyrz4,3087lxlj7ptluqx9bvztb5iuvan0fr,3ob0cao74l24s1iu5v34v2kjremyhe,sWeNyrz4,2020-0188,2021-10-31,08:02:38,10:31:19,NA,incomplete,true,NA,NA,true,0,17,NA,NA,NA,right,n_l_067.jpg,brown,yellow,NA,NA,NA,NA,NA,NA,NA,NA,NA,NaN,NA,4421,right,1,NA,NA,NA,NA,NA
sWeNyrz4,3087lxlj7ptluqx9bvztb5iuvan0fr,3ob0cao74l24s1iu5v34v2kjremyhe,sWeNyrz4,2020-0188,2021-10-31,08:02:38,10:31:19,NA,incomplete,true,NA,NA,true,0,18,NA,NA,NA,left,m_s_008.jpg,yellow,brown,NA,NA,NA,NA,NA,NA,NA,NA,NA,NaN,NA,5112,right,0,NA,NA,NA,NA,NA
sWeNyrz4,3087lxlj7ptluqx9bvztb5iuvan0fr,3ob0cao74l24s1iu5v34v2kjremyhe,sWeNyrz4,2020-0188,2021-10-31,08:02:38,10:31:19,NA,incomplete,true,NA,NA,true,0,19,NA,NA,NA,right,n_l_057.jpg,green,purple,NA,NA,NA,NA,NA,NA,NA,NA,NA,NaN,NA,6285,right,1,NA,NA,NA,NA,NA
sWeNyrz4,3087lxlj7ptluqx9bvztb5iuvan0fr,3ob0cao74l24s1iu5v34v2kjremyhe,sWeNyrz4,2020-0188,2021-10-31,08:02:38,10:31:19,NA,incomplete,true,NA,NA,true,0,20,NA,NA,NA,right,n_s_047.jpg,purple,green,NA,NA,NA,NA,NA,NA,NA,NA,NA,NaN,NA,3063,left,0,NA,NA,NA,NA,NA
sWeNyrz4,3087lxlj7ptluqx9bvztb5iuvan0fr,3ob0cao74l24s1iu5v34v2kjremyhe,sWeNyrz4,2020-0188,2021-10-31,08:02:38,10:31:19,NA,incomplete,true,NA,NA,true,0,21,NA,NA,NA,left,n_l_042.jpg,yellow,white,NA,NA,NA,NA,NA,NA,NA,NA,NA,NaN,NA,3667,left,1,NA,NA,NA,NA,NA
sWeNyrz4,3087lxlj7ptluqx9bvztb5iuvan0fr,3ob0cao74l24s1iu5v34v2kjremyhe,sWeNyrz4,2020-0188,2021-10-31,08:02:38,10:31:19,NA,incomplete,true,NA,true,NA,0,0,NA,NA,NA,right,NA,NA,NA,present,NA,NA,n_l_068.jpg,brown,n_s_045.jpg,yellow,between,NA,NaN,NA,NA,NA,NA,right,3543,1,0,2670
sWeNyrz4,3087lxlj7ptluqx9bvztb5iuvan0fr,3ob0cao74l24s1iu5v34v2kjremyhe,sWeNyrz4,2020-0188,2021-10-31,08:02:38,10:31:19,NA,incomplete,true,NA,true,NA,0,1,NA,NA,NA,right,NA,NA,NA,present,NA,NA,n_s_046.jpg,purple,m_s_054.jpg,brown,between,NA,NaN,NA,NA,NA,NA,right,7507,1,1,10126
sWeNyrz4,3087lxlj7ptluqx9bvztb5iuvan0fr,3ob0cao74l24s1iu5v34v2kjremyhe,sWeNyrz4,2020-0188,2021-10-31,08:02:38,10:31:19,NA,incomplete,true,NA,true,NA,0,2,NA,NA,NA,right,NA,NA,NA,present,NA,NA,m_s_008.jpg,yellow,m_s_040.jpg,white,between,NA,NaN,NA,NA,NA,NA,right,3062,1,2,1866
sWeNyrz4,3087lxlj7ptluqx9bvztb5iuvan0fr,3ob0cao74l24s1iu5v34v2kjremyhe,sWeNyrz4,2020-0188,2021-10-31,08:02:38,10:31:19,NA,incomplete,true,NA,true,NA,0,3,NA,NA,NA,left,NA,NA,NA,present,NA,NA,n_l_057.jpg,purple,n_s_047.jpg,green,between,NA,NaN,NA,NA,NA,NA,left,10166,1,2,6464
sWeNyrz4,3087lxlj7ptluqx9bvztb5iuvan0fr,3ob0cao74l24s1iu5v34v2kjremyhe,sWeNyrz4,2020-0188,2021-10-31,08:02:38,10:31:19,NA,incomplete,true,NA,true,NA,0,4,NA,NA,NA,left,NA,NA,NA,present,NA,NA,m_l_018.jpg,green,m_l_063.jpg,red,between,NA,NaN,NA,NA,NA,NA,left,12063,1,1,16093
sWeNyrz4,3087lxlj7ptluqx9bvztb5iuvan0fr,3ob0cao74l24s1iu5v34v2kjremyhe,sWeNyrz4,2020-0188,2021-10-31,08:02:38,10:31:19,NA,incomplete,true,NA,true,NA,0,5,NA,NA,NA,right,NA,NA,NA,present,NA,NA,n_s_077.jpg,red,n_s_073.jpg,red,within,NA,NaN,NA,NA,NA,NA,right,6297,1,0,2824
sWeNyrz4,3087lxlj7ptluqx9bvztb5iuvan0fr,3ob0cao74l24s1iu5v34v2kjremyhe,sWeNyrz4,2020-0188,2021-10-31,08:02:38,10:31:19,NA,incomplete,true,NA,true,NA,0,6,NA,NA,NA,right,NA,NA,NA,present,NA,NA,n_s_081.jpg,white,m_s_064.jpg,white,within,NA,NaN,NA,NA,NA,NA,right,4861,1,0,2770
sWeNyrz4,3087lxlj7ptluqx9bvztb5iuvan0fr,3ob0cao74l24s1iu5v34v2kjremyhe,sWeNyrz4,2020-0188,2021-10-31,08:02:38,10:31:19,NA,incomplete,true,NA,true,NA,0,7,NA,NA,NA,right,NA,NA,NA,present,NA,NA,n_l_055.jpg,brown,n_l_113.jpg,brown,within,NA,NaN,NA,NA,NA,NA,right,3498,1,0,2147
sWeNyrz4,3087lxlj7ptluqx9bvztb5iuvan0fr,3ob0cao74l24s1iu5v34v2kjremyhe,sWeNyrz4,2020-0188,2021-10-31,08:02:38,10:31:19,NA,incomplete,true,NA,true,NA,0,8,NA,NA,NA,right,NA,NA,NA,present,NA,NA,m_s_035.jpg,green,n_l_045.jpg,green,within,NA,NaN,NA,NA,NA,NA,right,3800,1,0,2072
sWeNyrz4,3087lxlj7ptluqx9bvztb5iuvan0fr,3ob0cao74l24s1iu5v34v2kjremyhe,sWeNyrz4,2020-0188,2021-10-31,08:02:38,10:31:19,NA,incomplete,true,NA,true,NA,0,9,NA,NA,NA,left,NA,NA,NA,present,NA,NA,n_l_042.jpg,yellow,n_l_067.jpg,yellow,within,NA,NaN,NA,NA,NA,NA,left,6500,1,0,2069
sWeNyrz4,3087lxlj7ptluqx9bvztb5iuvan0fr,3ob0cao74l24s1iu5v34v2kjremyhe,sWeNyrz4,2020-0188,2021-10-31,08:02:38,10:31:19,NA,incomplete,true,NA,true,NA,0,10,NA,NA,NA,left,NA,NA,NA,present,NA,NA,n_s_008.jpg,purple,m_s_022.jpg,purple,within,NA,NaN,NA,NA,NA,NA,left,15951,1,0,1980
sWeNyrz4,3087lxlj7ptluqx9bvztb5iuvan0fr,3ob0cao74l24s1iu5v34v2kjremyhe,sWeNyrz4,2020-0188,2021-10-31,08:02:38,10:31:19,NA,incomplete,false,true,NA,NA,1,0,NA,green,m_s_081.jpg,NA,NA,NA,NA,NA,unpleasant,pleasant,NA,NA,NA,NA,NA,right,2225,true,NA,NA,NA,NA,NA,NA,NA,NA
sWeNyrz4,3087lxlj7ptluqx9bvztb5iuvan0fr,3ob0cao74l24s1iu5v34v2kjremyhe,sWeNyrz4,2020-0188,2021-10-31,08:02:38,10:31:19,NA,incomplete,false,true,NA,NA,1,1,NA,green,m_l_089.jpg,NA,NA,NA,NA,NA,pleasant,unpleasant,NA,NA,NA,NA,NA,right,1841,true,NA,NA,NA,NA,NA,NA,NA,NA
sWeNyrz4,3087lxlj7ptluqx9bvztb5iuvan0fr,3ob0cao74l24s1iu5v34v2kjremyhe,sWeNyrz4,2020-0188,2021-10-31,08:02:38,10:31:19,NA,incomplete,false,true,NA,NA,1,2,NA,green,m_l_113.jpg,NA,NA,NA,NA,NA,pleasant,unpleasant,NA,NA,NA,NA,NA,right,1601,true,NA,NA,NA,NA,NA,NA,NA,NA
sWeNyrz4,3087lxlj7ptluqx9bvztb5iuvan0fr,3ob0cao74l24s1iu5v34v2kjremyhe,sWeNyrz4,2020-0188,2021-10-31,08:02:38,10:31:19,NA,incomplete,false,true,NA,NA,1,3,NA,green,n_l_073.jpg,NA,NA,NA,NA,NA,pleasant,unpleasant,NA,NA,NA,NA,NA,left,1727,true,NA,NA,NA,NA,NA,NA,NA,NA
sWeNyrz4,3087lxlj7ptluqx9bvztb5iuvan0fr,3ob0cao74l24s1iu5v34v2kjremyhe,sWeNyrz4,2020-0188,2021-10-31,08:02:38,10:31:19,NA,incomplete,false,true,NA,NA,1,4,NA,green,m_s_105.jpg,NA,NA,NA,NA,NA,unpleasant,pleasant,NA,NA,NA,NA,NA,right,1982,true,NA,NA,NA,NA,NA,NA,NA,NA
sWeNyrz4,3087lxlj7ptluqx9bvztb5iuvan0fr,3ob0cao74l24s1iu5v34v2kjremyhe,sWeNyrz4,2020-0188,2021-10-31,08:02:38,10:31:19,NA,incomplete,false,true,NA,NA,1,5,NA,green,n_s_026.jpg,NA,NA,NA,NA,NA,pleasant,unpleasant,NA,NA,NA,NA,NA,right,1527,true,NA,NA,NA,NA,NA,NA,NA,NA
sWeNyrz4,3087lxlj7ptluqx9bvztb5iuvan0fr,3ob0cao74l24s1iu5v34v2kjremyhe,sWeNyrz4,2020-0188,2021-10-31,08:02:38,10:31:19,NA,incomplete,false,true,NA,NA,1,6,NA,red,n_l_074.jpg,NA,NA,NA,NA,NA,unpleasant,pleasant,NA,NA,NA,NA,NA,left,2293,true,NA,NA,NA,NA,NA,NA,NA,NA
sWeNyrz4,3087lxlj7ptluqx9bvztb5iuvan0fr,3ob0cao74l24s1iu5v34v2kjremyhe,sWeNyrz4,2020-0188,2021-10-31,08:02:38,10:31:19,NA,incomplete,false,true,NA,NA,1,7,NA,red,m_l_047.jpg,NA,NA,NA,NA,NA,unpleasant,pleasant,NA,NA,NA,NA,NA,right,3030,true,NA,NA,NA,NA,NA,NA,NA,NA
sWeNyrz4,3087lxlj7ptluqx9bvztb5iuvan0fr,3ob0cao74l24s1iu5v34v2kjremyhe,sWeNyrz4,2020-0188,2021-10-31,08:02:38,10:31:19,NA,incomplete,false,true,NA,NA,1,8,NA,red,n_s_102.jpg,NA,NA,NA,NA,NA,unpleasant,pleasant,NA,NA,NA,NA,NA,right,1346,true,NA,NA,NA,NA,NA,NA,NA,NA
sWeNyrz4,3087lxlj7ptluqx9bvztb5iuvan0fr,3ob0cao74l24s1iu5v34v2kjremyhe,sWeNyrz4,2020-0188,2021-10-31,08:02:38,10:31:19,NA,incomplete,false,true,NA,NA,1,9,NA,red,m_s_071.jpg,NA,NA,NA,NA,NA,unpleasant,pleasant,NA,NA,NA,NA,NA,left,1748,true,NA,NA,NA,NA,NA,NA,NA,NA
sWeNyrz4,3087lxlj7ptluqx9bvztb5iuvan0fr,3ob0cao74l24s1iu5v34v2kjremyhe,sWeNyrz4,2020-0188,2021-10-31,08:02:38,10:31:19,NA,incomplete,false,true,NA,NA,1,10,NA,red,m_l_082.jpg,NA,NA,NA,NA,NA,pleasant,unpleasant,NA,NA,NA,NA,NA,right,1916,true,NA,NA,NA,NA,NA,NA,NA,NA
sWeNyrz4,3087lxlj7ptluqx9bvztb5iuvan0fr,3ob0cao74l24s1iu5v34v2kjremyhe,sWeNyrz4,2020-0188,2021-10-31,08:02:38,10:31:19,NA,incomplete,false,true,NA,NA,1,11,NA,red,n_l_009.jpg,NA,NA,NA,NA,NA,unpleasant,pleasant,NA,NA,NA,NA,NA,right,2008,true,NA,NA,NA,NA,NA,NA,NA,NA
sWeNyrz4,3087lxlj7ptluqx9bvztb5iuvan0fr,3ob0cao74l24s1iu5v34v2kjremyhe,sWeNyrz4,2020-0188,2021-10-31,08:02:38,10:31:19,NA,incomplete,false,true,NA,NA,1,12,NA,yellow,m_s_114.jpg,NA,NA,NA,NA,NA,unpleasant,pleasant,NA,NA,NA,NA,NA,right,1849,true,NA,NA,NA,NA,NA,NA,NA,NA
sWeNyrz4,3087lxlj7ptluqx9bvztb5iuvan0fr,3ob0cao74l24s1iu5v34v2kjremyhe,sWeNyrz4,2020-0188,2021-10-31,08:02:38,10:31:19,NA,incomplete,false,true,NA,NA,1,13,NA,yellow,m_l_100.jpg,NA,NA,NA,NA,NA,pleasant,unpleasant,NA,NA,NA,NA,NA,right,1566,true,NA,NA,NA,NA,NA,NA,NA,NA
sWeNyrz4,3087lxlj7ptluqx9bvztb5iuvan0fr,3ob0cao74l24s1iu5v34v2kjremyhe,sWeNyrz4,2020-0188,2021-10-31,08:02:38,10:31:19,NA,incomplete,false,true,NA,NA,1,14,NA,yellow,m_l_114.jpg,NA,NA,NA,NA,NA,pleasant,unpleasant,NA,NA,NA,NA,NA,right,1542,true,NA,NA,NA,NA,NA,NA,NA,NA
sWeNyrz4,3087lxlj7ptluqx9bvztb5iuvan0fr,3ob0cao74l24s1iu5v34v2kjremyhe,sWeNyrz4,2020-0188,2021-10-31,08:02:38,10:31:19,NA,incomplete,false,true,NA,NA,1,15,NA,yellow,m_s_102.jpg,NA,NA,NA,NA,NA,pleasant,unpleasant,NA,NA,NA,NA,NA,right,2430,true,NA,NA,NA,NA,NA,NA,NA,NA
sWeNyrz4,3087lxlj7ptluqx9bvztb5iuvan0fr,3ob0cao74l24s1iu5v34v2kjremyhe,sWeNyrz4,2020-0188,2021-10-31,08:02:38,10:31:19,NA,incomplete,false,true,NA,NA,1,16,NA,yellow,m_s_093.jpg,NA,NA,NA,NA,NA,unpleasant,pleasant,NA,NA,NA,NA,NA,right,2288,true,NA,NA,NA,NA,NA,NA,NA,NA
sWeNyrz4,3087lxlj7ptluqx9bvztb5iuvan0fr,3ob0cao74l24s1iu5v34v2kjremyhe,sWeNyrz4,2020-0188,2021-10-31,08:02:38,10:31:19,NA,incomplete,false,true,NA,NA,1,17,NA,yellow,m_s_018.jpg,NA,NA,NA,NA,NA,unpleasant,pleasant,NA,NA,NA,NA,NA,left,1569,true,NA,NA,NA,NA,NA,NA,NA,NA
sWeNyrz4,3087lxlj7ptluqx9bvztb5iuvan0fr,3ob0cao74l24s1iu5v34v2kjremyhe,sWeNyrz4,2020-0188,2021-10-31,08:02:38,10:31:19,NA,incomplete,false,true,NA,NA,1,18,NA,orange,m_l_090.jpg,NA,NA,NA,NA,NA,pleasant,unpleasant,NA,NA,NA,NA,NA,right,1775,true,NA,NA,NA,NA,NA,NA,NA,NA
sWeNyrz4,3087lxlj7ptluqx9bvztb5iuvan0fr,3ob0cao74l24s1iu5v34v2kjremyhe,sWeNyrz4,2020-0188,2021-10-31,08:02:38,10:31:19,NA,incomplete,false,true,NA,NA,1,19,NA,orange,n_l_005.jpg,NA,NA,NA,NA,NA,pleasant,unpleasant,NA,NA,NA,NA,NA,left,1366,true,NA,NA,NA,NA,NA,NA,NA,NA
sWeNyrz4,3087lxlj7ptluqx9bvztb5iuvan0fr,3ob0cao74l24s1iu5v34v2kjremyhe,sWeNyrz4,2020-0188,2021-10-31,08:02:38,10:31:19,NA,incomplete,false,true,NA,NA,1,20,NA,orange,n_s_112.jpg,NA,NA,NA,NA,NA,pleasant,unpleasant,NA,NA,NA,NA,NA,left,1651,true,NA,NA,NA,NA,NA,NA,NA,NA
sWeNyrz4,3087lxlj7ptluqx9bvztb5iuvan0fr,3ob0cao74l24s1iu5v34v2kjremyhe,sWeNyrz4,2020-0188,2021-10-31,08:02:38,10:31:19,NA,incomplete,false,true,NA,NA,1,21,NA,orange,n_l_014.jpg,NA,NA,NA,NA,NA,pleasant,unpleasant,NA,NA,NA,NA,NA,right,1434,true,NA,NA,NA,NA,NA,NA,NA,NA
sWeNyrz4,3087lxlj7ptluqx9bvztb5iuvan0fr,3ob0cao74l24s1iu5v34v2kjremyhe,sWeNyrz4,2020-0188,2021-10-31,08:02:38,10:31:19,NA,incomplete,false,true,NA,NA,1,22,NA,orange,m_s_069.jpg,NA,NA,NA,NA,NA,pleasant,unpleasant,NA,NA,NA,NA,NA,left,1628,true,NA,NA,NA,NA,NA,NA,NA,NA
sWeNyrz4,3087lxlj7ptluqx9bvztb5iuvan0fr,3ob0cao74l24s1iu5v34v2kjremyhe,sWeNyrz4,2020-0188,2021-10-31,08:02:38,10:31:19,NA,incomplete,false,true,NA,NA,1,23,NA,orange,m_s_029.jpg,NA,NA,NA,NA,NA,pleasant,unpleasant,NA,NA,NA,NA,NA,right,1902,true,NA,NA,NA,NA,NA,NA,NA,NA
sWeNyrz4,3087lxlj7ptluqx9bvztb5iuvan0fr,3ob0cao74l24s1iu5v34v2kjremyhe,sWeNyrz4,2020-0188,2021-10-31,08:02:38,10:31:19,NA,incomplete,false,true,NA,NA,1,24,NA,gray,m_s_015.jpg,NA,NA,NA,NA,NA,unpleasant,pleasant,NA,NA,NA,NA,NA,left,2038,true,NA,NA,NA,NA,NA,NA,NA,NA
sWeNyrz4,3087lxlj7ptluqx9bvztb5iuvan0fr,3ob0cao74l24s1iu5v34v2kjremyhe,sWeNyrz4,2020-0188,2021-10-31,08:02:38,10:31:19,NA,incomplete,false,true,NA,NA,1,25,NA,gray,m_s_036.jpg,NA,NA,NA,NA,NA,unpleasant,pleasant,NA,NA,NA,NA,NA,left,1212,true,NA,NA,NA,NA,NA,NA,NA,NA
sWeNyrz4,3087lxlj7ptluqx9bvztb5iuvan0fr,3ob0cao74l24s1iu5v34v2kjremyhe,sWeNyrz4,2020-0188,2021-10-31,08:02:38,10:31:19,NA,incomplete,false,true,NA,NA,1,26,NA,gray,m_s_053.jpg,NA,NA,NA,NA,NA,pleasant,unpleasant,NA,NA,NA,NA,NA,left,2175,true,NA,NA,NA,NA,NA,NA,NA,NA
sWeNyrz4,3087lxlj7ptluqx9bvztb5iuvan0fr,3ob0cao74l24s1iu5v34v2kjremyhe,sWeNyrz4,2020-0188,2021-10-31,08:02:38,10:31:19,NA,incomplete,false,true,NA,NA,1,27,NA,gray,n_l_062.jpg,NA,NA,NA,NA,NA,pleasant,unpleasant,NA,NA,NA,NA,NA,right,1512,true,NA,NA,NA,NA,NA,NA,NA,NA
sWeNyrz4,3087lxlj7ptluqx9bvztb5iuvan0fr,3ob0cao74l24s1iu5v34v2kjremyhe,sWeNyrz4,2020-0188,2021-10-31,08:02:38,10:31:19,NA,incomplete,false,true,NA,NA,1,28,NA,gray,m_l_032.jpg,NA,NA,NA,NA,NA,unpleasant,pleasant,NA,NA,NA,NA,NA,left,1673,true,NA,NA,NA,NA,NA,NA,NA,NA
sWeNyrz4,3087lxlj7ptluqx9bvztb5iuvan0fr,3ob0cao74l24s1iu5v34v2kjremyhe,sWeNyrz4,2020-0188,2021-10-31,08:02:38,10:31:19,NA,incomplete,false,true,NA,NA,1,29,NA,gray,n_l_112.jpg,NA,NA,NA,NA,NA,pleasant,unpleasant,NA,NA,NA,NA,NA,left,1577,true,NA,NA,NA,NA,NA,NA,NA,NA
sWeNyrz4,3087lxlj7ptluqx9bvztb5iuvan0fr,3ob0cao74l24s1iu5v34v2kjremyhe,sWeNyrz4,2020-0188,2021-10-31,08:02:38,10:31:19,NA,incomplete,false,true,NA,NA,1,30,NA,purple,n_l_003.jpg,NA,NA,NA,NA,NA,pleasant,unpleasant,NA,NA,NA,NA,NA,left,1731,true,NA,NA,NA,NA,NA,NA,NA,NA
sWeNyrz4,3087lxlj7ptluqx9bvztb5iuvan0fr,3ob0cao74l24s1iu5v34v2kjremyhe,sWeNyrz4,2020-0188,2021-10-31,08:02:38,10:31:19,NA,incomplete,false,true,NA,NA,1,31,NA,purple,m_l_101.jpg,NA,NA,NA,NA,NA,pleasant,unpleasant,NA,NA,NA,NA,NA,left,1870,true,NA,NA,NA,NA,NA,NA,NA,NA
sWeNyrz4,3087lxlj7ptluqx9bvztb5iuvan0fr,3ob0cao74l24s1iu5v34v2kjremyhe,sWeNyrz4,2020-0188,2021-10-31,08:02:38,10:31:19,NA,incomplete,false,true,NA,NA,1,32,NA,purple,n_l_089.jpg,NA,NA,NA,NA,NA,pleasant,unpleasant,NA,NA,NA,NA,NA,left,1458,true,NA,NA,NA,NA,NA,NA,NA,NA
sWeNyrz4,3087lxlj7ptluqx9bvztb5iuvan0fr,3ob0cao74l24s1iu5v34v2kjremyhe,sWeNyrz4,2020-0188,2021-10-31,08:02:38,10:31:19,NA,incomplete,false,true,NA,NA,1,33,NA,purple,m_l_056.jpg,NA,NA,NA,NA,NA,pleasant,unpleasant,NA,NA,NA,NA,NA,right,1800,true,NA,NA,NA,NA,NA,NA,NA,NA
sWeNyrz4,3087lxlj7ptluqx9bvztb5iuvan0fr,3ob0cao74l24s1iu5v34v2kjremyhe,sWeNyrz4,2020-0188,2021-10-31,08:02:38,10:31:19,NA,incomplete,false,true,NA,NA,1,34,NA,purple,m_s_031.jpg,NA,NA,NA,NA,NA,pleasant,unpleasant,NA,NA,NA,NA,NA,left,1728,true,NA,NA,NA,NA,NA,NA,NA,NA
sWeNyrz4,3087lxlj7ptluqx9bvztb5iuvan0fr,3ob0cao74l24s1iu5v34v2kjremyhe,sWeNyrz4,2020-0188,2021-10-31,08:02:38,10:31:19,NA,incomplete,false,true,NA,NA,1,35,NA,purple,m_s_047.jpg,NA,NA,NA,NA,NA,unpleasant,pleasant,NA,NA,NA,NA,NA,right,2035,true,NA,NA,NA,NA,NA,NA,NA,NA
sWeNyrz4,3087lxlj7ptluqx9bvztb5iuvan0fr,3ob0cao74l24s1iu5v34v2kjremyhe,sWeNyrz4,2020-0188,2021-10-31,08:02:38,10:31:19,NA,incomplete,false,NA,NA,true,1,0,NA,NA,NA,right,m_l_100.jpg,orange,yellow,NA,NA,NA,NA,NA,NA,NA,NA,NA,NaN,NA,5703,left,0,NA,NA,NA,NA,NA
sWeNyrz4,3087lxlj7ptluqx9bvztb5iuvan0fr,3ob0cao74l24s1iu5v34v2kjremyhe,sWeNyrz4,2020-0188,2021-10-31,08:02:38,10:31:19,NA,incomplete,false,NA,NA,true,1,1,NA,NA,NA,right,m_l_047.jpg,yellow,red,NA,NA,NA,NA,NA,NA,NA,NA,NA,NaN,NA,18768,right,1,NA,NA,NA,NA,NA
sWeNyrz4,3087lxlj7ptluqx9bvztb5iuvan0fr,3ob0cao74l24s1iu5v34v2kjremyhe,sWeNyrz4,2020-0188,2021-10-31,08:02:38,10:31:19,NA,incomplete,false,NA,NA,true,1,2,NA,NA,NA,right,n_s_026.jpg,red,green,NA,NA,NA,NA,NA,NA,NA,NA,NA,NaN,NA,2749,left,0,NA,NA,NA,NA,NA
sWeNyrz4,3087lxlj7ptluqx9bvztb5iuvan0fr,3ob0cao74l24s1iu5v34v2kjremyhe,sWeNyrz4,2020-0188,2021-10-31,08:02:38,10:31:19,NA,incomplete,false,NA,NA,true,1,3,NA,NA,NA,left,n_l_089.jpg,purple,gray,NA,NA,NA,NA,NA,NA,NA,NA,NA,NaN,NA,7520,right,0,NA,NA,NA,NA,NA
sWeNyrz4,3087lxlj7ptluqx9bvztb5iuvan0fr,3ob0cao74l24s1iu5v34v2kjremyhe,sWeNyrz4,2020-0188,2021-10-31,08:02:38,10:31:19,NA,incomplete,false,NA,NA,true,1,4,NA,NA,NA,right,m_l_089.jpg,red,green,NA,NA,NA,NA,NA,NA,NA,NA,NA,NaN,NA,23924,right,1,NA,NA,NA,NA,NA
sWeNyrz4,3087lxlj7ptluqx9bvztb5iuvan0fr,3ob0cao74l24s1iu5v34v2kjremyhe,sWeNyrz4,2020-0188,2021-10-31,08:02:38,10:31:19,NA,incomplete,false,NA,NA,true,1,5,NA,NA,NA,left,m_s_018.jpg,yellow,orange,NA,NA,NA,NA,NA,NA,NA,NA,NA,NaN,NA,10203,left,1,NA,NA,NA,NA,NA
sWeNyrz4,3087lxlj7ptluqx9bvztb5iuvan0fr,3ob0cao74l24s1iu5v34v2kjremyhe,sWeNyrz4,2020-0188,2021-10-31,08:02:38,10:31:19,NA,incomplete,false,NA,NA,true,1,6,NA,NA,NA,right,n_l_009.jpg,yellow,red,NA,NA,NA,NA,NA,NA,NA,NA,NA,NaN,NA,20254,right,1,NA,NA,NA,NA,NA
sWeNyrz4,3087lxlj7ptluqx9bvztb5iuvan0fr,3ob0cao74l24s1iu5v34v2kjremyhe,sWeNyrz4,2020-0188,2021-10-31,08:02:38,10:31:19,NA,incomplete,false,NA,NA,true,1,7,NA,NA,NA,right,m_s_029.jpg,yellow,orange,NA,NA,NA,NA,NA,NA,NA,NA,NA,NaN,NA,3171,right,1,NA,NA,NA,NA,NA
sWeNyrz4,3087lxlj7ptluqx9bvztb5iuvan0fr,3ob0cao74l24s1iu5v34v2kjremyhe,sWeNyrz4,2020-0188,2021-10-31,08:02:38,10:31:19,NA,incomplete,false,NA,NA,true,1,8,NA,NA,NA,left,n_l_112.jpg,gray,orange,NA,NA,NA,NA,NA,NA,NA,NA,NA,NaN,NA,4449,left,1,NA,NA,NA,NA,NA
sWeNyrz4,3087lxlj7ptluqx9bvztb5iuvan0fr,3ob0cao74l24s1iu5v34v2kjremyhe,sWeNyrz4,2020-0188,2021-10-31,08:02:38,10:31:19,NA,incomplete,false,NA,NA,true,1,9,NA,NA,NA,right,m_l_114.jpg,red,yellow,NA,NA,NA,NA,NA,NA,NA,NA,NA,NaN,NA,4420,right,1,NA,NA,NA,NA,NA
sWeNyrz4,3087lxlj7ptluqx9bvztb5iuvan0fr,3ob0cao74l24s1iu5v34v2kjremyhe,sWeNyrz4,2020-0188,2021-10-31,08:02:38,10:31:19,NA,incomplete,false,NA,NA,true,1,10,NA,NA,NA,left,m_s_053.jpg,gray,orange,NA,NA,NA,NA,NA,NA,NA,NA,NA,NaN,NA,5358,left,1,NA,NA,NA,NA,NA
sWeNyrz4,3087lxlj7ptluqx9bvztb5iuvan0fr,3ob0cao74l24s1iu5v34v2kjremyhe,sWeNyrz4,2020-0188,2021-10-31,08:02:38,10:31:19,NA,incomplete,false,NA,NA,true,1,11,NA,NA,NA,left,m_s_069.jpg,orange,gray,NA,NA,NA,NA,NA,NA,NA,NA,NA,NaN,NA,6813,right,0,NA,NA,NA,NA,NA
sWeNyrz4,3087lxlj7ptluqx9bvztb5iuvan0fr,3ob0cao74l24s1iu5v34v2kjremyhe,sWeNyrz4,2020-0188,2021-10-31,08:02:38,10:31:19,NA,incomplete,false,NA,NA,true,1,12,NA,NA,NA,right,m_s_093.jpg,red,yellow,NA,NA,NA,NA,NA,NA,NA,NA,NA,NaN,NA,8490,right,1,NA,NA,NA,NA,NA
sWeNyrz4,3087lxlj7ptluqx9bvztb5iuvan0fr,3ob0cao74l24s1iu5v34v2kjremyhe,sWeNyrz4,2020-0188,2021-10-31,08:02:38,10:31:19,NA,incomplete,false,NA,NA,true,1,13,NA,NA,NA,left,n_s_102.jpg,red,green,NA,NA,NA,NA,NA,NA,NA,NA,NA,NaN,NA,15077,right,0,NA,NA,NA,NA,NA
sWeNyrz4,3087lxlj7ptluqx9bvztb5iuvan0fr,3ob0cao74l24s1iu5v34v2kjremyhe,sWeNyrz4,2020-0188,2021-10-31,08:02:38,10:31:19,NA,incomplete,false,NA,NA,true,1,14,NA,NA,NA,right,n_s_112.jpg,gray,orange,NA,NA,NA,NA,NA,NA,NA,NA,NA,NaN,NA,4800,right,1,NA,NA,NA,NA,NA
sWeNyrz4,3087lxlj7ptluqx9bvztb5iuvan0fr,3ob0cao74l24s1iu5v34v2kjremyhe,sWeNyrz4,2020-0188,2021-10-31,08:02:38,10:31:19,NA,incomplete,false,NA,NA,true,1,15,NA,NA,NA,right,m_l_082.jpg,yellow,red,NA,NA,NA,NA,NA,NA,NA,NA,NA,NaN,NA,4837,left,0,NA,NA,NA,NA,NA
sWeNyrz4,3087lxlj7ptluqx9bvztb5iuvan0fr,3ob0cao74l24s1iu5v34v2kjremyhe,sWeNyrz4,2020-0188,2021-10-31,08:02:38,10:31:19,NA,incomplete,false,NA,NA,true,1,16,NA,NA,NA,right,m_s_036.jpg,orange,gray,NA,NA,NA,NA,NA,NA,NA,NA,NA,NaN,NA,5201,left,0,NA,NA,NA,NA,NA
sWeNyrz4,3087lxlj7ptluqx9bvztb5iuvan0fr,3ob0cao74l24s1iu5v34v2kjremyhe,sWeNyrz4,2020-0188,2021-10-31,08:02:38,10:31:19,NA,incomplete,false,NA,NA,true,1,17,NA,NA,NA,right,m_l_032.jpg,purple,gray,NA,NA,NA,NA,NA,NA,NA,NA,NA,NaN,NA,3781,left,0,NA,NA,NA,NA,NA
sWeNyrz4,3087lxlj7ptluqx9bvztb5iuvan0fr,3ob0cao74l24s1iu5v34v2kjremyhe,sWeNyrz4,2020-0188,2021-10-31,08:02:38,10:31:19,NA,incomplete,false,NA,NA,true,1,18,NA,NA,NA,left,n_l_005.jpg,orange,yellow,NA,NA,NA,NA,NA,NA,NA,NA,NA,NaN,NA,7915,left,1,NA,NA,NA,NA,NA
sWeNyrz4,3087lxlj7ptluqx9bvztb5iuvan0fr,3ob0cao74l24s1iu5v34v2kjremyhe,sWeNyrz4,2020-0188,2021-10-31,08:02:38,10:31:19,NA,incomplete,false,NA,NA,true,1,19,NA,NA,NA,left,m_l_101.jpg,purple,gray,NA,NA,NA,NA,NA,NA,NA,NA,NA,NaN,NA,3866,left,1,NA,NA,NA,NA,NA
sWeNyrz4,3087lxlj7ptluqx9bvztb5iuvan0fr,3ob0cao74l24s1iu5v34v2kjremyhe,sWeNyrz4,2020-0188,2021-10-31,08:02:38,10:31:19,NA,incomplete,false,NA,NA,true,1,20,NA,NA,NA,right,m_s_105.jpg,red,green,NA,NA,NA,NA,NA,NA,NA,NA,NA,NaN,NA,4992,right,1,NA,NA,NA,NA,NA
sWeNyrz4,3087lxlj7ptluqx9bvztb5iuvan0fr,3ob0cao74l24s1iu5v34v2kjremyhe,sWeNyrz4,2020-0188,2021-10-31,08:02:38,10:31:19,NA,incomplete,false,NA,NA,true,1,21,NA,NA,NA,right,m_s_047.jpg,gray,purple,NA,NA,NA,NA,NA,NA,NA,NA,NA,NaN,NA,6139,left,0,NA,NA,NA,NA,NA
sWeNyrz4,3087lxlj7ptluqx9bvztb5iuvan0fr,3ob0cao74l24s1iu5v34v2kjremyhe,sWeNyrz4,2020-0188,2021-10-31,08:02:38,10:31:19,NA,incomplete,false,NA,true,NA,1,0,NA,NA,NA,right,NA,NA,NA,present,NA,NA,m_s_018.jpg,yellow,m_l_100.jpg,yellow,within,NA,NaN,NA,NA,NA,NA,left,9140,0,0,11825
sWeNyrz4,3087lxlj7ptluqx9bvztb5iuvan0fr,3ob0cao74l24s1iu5v34v2kjremyhe,sWeNyrz4,2020-0188,2021-10-31,08:02:38,10:31:19,NA,incomplete,false,NA,true,NA,1,1,NA,NA,NA,right,NA,NA,NA,present,NA,NA,n_s_112.jpg,orange,m_s_093.jpg,yellow,between,NA,NaN,NA,NA,NA,NA,right,9097,1,3,10011
sWeNyrz4,3087lxlj7ptluqx9bvztb5iuvan0fr,3ob0cao74l24s1iu5v34v2kjremyhe,sWeNyrz4,2020-0188,2021-10-31,08:02:38,10:31:19,NA,incomplete,false,NA,true,NA,1,2,NA,NA,NA,left,NA,NA,NA,present,NA,NA,m_s_036.jpg,gray,n_l_112.jpg,gray,within,NA,NaN,NA,NA,NA,NA,left,5918,1,0,4377
sWeNyrz4,3087lxlj7ptluqx9bvztb5iuvan0fr,3ob0cao74l24s1iu5v34v2kjremyhe,sWeNyrz4,2020-0188,2021-10-31,08:02:38,10:31:19,NA,incomplete,false,NA,true,NA,1,3,NA,NA,NA,left,NA,NA,NA,present,NA,NA,n_l_005.jpg,orange,m_s_029.jpg,orange,within,NA,NaN,NA,NA,NA,NA,right,6013,0,0,2426
sWeNyrz4,3087lxlj7ptluqx9bvztb5iuvan0fr,3ob0cao74l24s1iu5v34v2kjremyhe,sWeNyrz4,2020-0188,2021-10-31,08:02:38,10:31:19,NA,incomplete,false,NA,true,NA,1,4,NA,NA,NA,left,NA,NA,NA,present,NA,NA,m_s_069.jpg,orange,m_s_053.jpg,gray,between,NA,NaN,NA,NA,NA,NA,left,3862,1,1,4091
sWeNyrz4,3087lxlj7ptluqx9bvztb5iuvan0fr,3ob0cao74l24s1iu5v34v2kjremyhe,sWeNyrz4,2020-0188,2021-10-31,08:02:38,10:31:19,NA,incomplete,false,NA,true,NA,1,5,NA,NA,NA,right,NA,NA,NA,present,NA,NA,n_l_009.jpg,red,m_l_047.jpg,red,within,NA,NaN,NA,NA,NA,NA,right,6125,1,0,2281
sWeNyrz4,3087lxlj7ptluqx9bvztb5iuvan0fr,3ob0cao74l24s1iu5v34v2kjremyhe,sWeNyrz4,2020-0188,2021-10-31,08:02:38,10:31:19,NA,incomplete,false,NA,true,NA,1,6,NA,NA,NA,right,NA,NA,NA,present,NA,NA,m_s_047.jpg,purple,m_l_101.jpg,purple,within,NA,NaN,NA,NA,NA,NA,left,3968,0,0,2990
sWeNyrz4,3087lxlj7ptluqx9bvztb5iuvan0fr,3ob0cao74l24s1iu5v34v2kjremyhe,sWeNyrz4,2020-0188,2021-10-31,08:02:38,10:31:19,NA,incomplete,false,NA,true,NA,1,7,NA,NA,NA,left,NA,NA,NA,present,NA,NA,m_l_032.jpg,gray,n_l_089.jpg,purple,between,NA,NaN,NA,NA,NA,NA,left,6111,1,2,2062
sWeNyrz4,3087lxlj7ptluqx9bvztb5iuvan0fr,3ob0cao74l24s1iu5v34v2kjremyhe,sWeNyrz4,2020-0188,2021-10-31,08:02:38,10:31:19,NA,incomplete,false,NA,true,NA,1,8,NA,NA,NA,left,NA,NA,NA,present,NA,NA,m_l_082.jpg,red,m_l_114.jpg,yellow,between,NA,NaN,NA,NA,NA,NA,left,18229,1,3,2634
sWeNyrz4,3087lxlj7ptluqx9bvztb5iuvan0fr,3ob0cao74l24s1iu5v34v2kjremyhe,sWeNyrz4,2020-0188,2021-10-31,08:02:38,10:31:19,NA,incomplete,false,NA,true,NA,1,9,NA,NA,NA,left,NA,NA,NA,present,NA,NA,m_l_089.jpg,green,n_s_026.jpg,green,within,NA,NaN,NA,NA,NA,NA,right,10125,0,0,1979
sWeNyrz4,3087lxlj7ptluqx9bvztb5iuvan0fr,3ob0cao74l24s1iu5v34v2kjremyhe,sWeNyrz4,2020-0188,2021-10-31,08:02:38,10:31:19,NA,incomplete,false,NA,true,NA,1,10,NA,NA,NA,right,NA,NA,NA,present,NA,NA,n_s_102.jpg,red,m_s_105.jpg,green,between,NA,NaN,NA,NA,NA,NA,right,24161,1,1,2572
sWeNyrz4,3087lxlj7ptluqx9bvztb5iuvan0fr,3ob0cao74l24s1iu5v34v2kjremyhe,sWeNyrz4,2020-0188,2021-10-31,08:02:38,10:31:19,NA,incomplete,false,true,NA,NA,2,0,NA,green,m_l_103.jpg,NA,NA,NA,NA,NA,unpleasant,pleasant,NA,NA,NA,NA,NA,right,1984,true,NA,NA,NA,NA,NA,NA,NA,NA
sWeNyrz4,3087lxlj7ptluqx9bvztb5iuvan0fr,3ob0cao74l24s1iu5v34v2kjremyhe,sWeNyrz4,2020-0188,2021-10-31,08:02:38,10:31:19,NA,incomplete,false,true,NA,NA,2,1,NA,green,n_s_090.jpg,NA,NA,NA,NA,NA,pleasant,unpleasant,NA,NA,NA,NA,NA,left,1863,true,NA,NA,NA,NA,NA,NA,NA,NA
sWeNyrz4,3087lxlj7ptluqx9bvztb5iuvan0fr,3ob0cao74l24s1iu5v34v2kjremyhe,sWeNyrz4,2020-0188,2021-10-31,08:02:38,10:31:19,NA,incomplete,false,true,NA,NA,2,2,NA,green,n_s_070.jpg,NA,NA,NA,NA,NA,unpleasant,pleasant,NA,NA,NA,NA,NA,right,1894,true,NA,NA,NA,NA,NA,NA,NA,NA
sWeNyrz4,3087lxlj7ptluqx9bvztb5iuvan0fr,3ob0cao74l24s1iu5v34v2kjremyhe,sWeNyrz4,2020-0188,2021-10-31,08:02:38,10:31:19,NA,incomplete,false,true,NA,NA,2,3,NA,green,n_s_021.jpg,NA,NA,NA,NA,NA,unpleasant,pleasant,NA,NA,NA,NA,NA,right,1322,true,NA,NA,NA,NA,NA,NA,NA,NA
sWeNyrz4,3087lxlj7ptluqx9bvztb5iuvan0fr,3ob0cao74l24s1iu5v34v2kjremyhe,sWeNyrz4,2020-0188,2021-10-31,08:02:38,10:31:19,NA,incomplete,false,true,NA,NA,2,4,NA,green,m_l_115.jpg,NA,NA,NA,NA,NA,pleasant,unpleasant,NA,NA,NA,NA,NA,left,1768,true,NA,NA,NA,NA,NA,NA,NA,NA
sWeNyrz4,3087lxlj7ptluqx9bvztb5iuvan0fr,3ob0cao74l24s1iu5v34v2kjremyhe,sWeNyrz4,2020-0188,2021-10-31,08:02:38,10:31:19,NA,incomplete,false,true,NA,NA,2,5,NA,green,n_l_108.jpg,NA,NA,NA,NA,NA,pleasant,unpleasant,NA,NA,NA,NA,NA,left,1772,true,NA,NA,NA,NA,NA,NA,NA,NA
sWeNyrz4,3087lxlj7ptluqx9bvztb5iuvan0fr,3ob0cao74l24s1iu5v34v2kjremyhe,sWeNyrz4,2020-0188,2021-10-31,08:02:38,10:31:19,NA,incomplete,false,true,NA,NA,2,6,NA,blue,m_l_036.jpg,NA,NA,NA,NA,NA,unpleasant,pleasant,NA,NA,NA,NA,NA,left,2328,true,NA,NA,NA,NA,NA,NA,NA,NA
sWeNyrz4,3087lxlj7ptluqx9bvztb5iuvan0fr,3ob0cao74l24s1iu5v34v2kjremyhe,sWeNyrz4,2020-0188,2021-10-31,08:02:38,10:31:19,NA,incomplete,false,true,NA,NA,2,7,NA,blue,n_s_017.jpg,NA,NA,NA,NA,NA,unpleasant,pleasant,NA,NA,NA,NA,NA,left,2398,true,NA,NA,NA,NA,NA,NA,NA,NA
sWeNyrz4,3087lxlj7ptluqx9bvztb5iuvan0fr,3ob0cao74l24s1iu5v34v2kjremyhe,sWeNyrz4,2020-0188,2021-10-31,08:02:38,10:31:19,NA,incomplete,false,true,NA,NA,2,8,NA,blue,n_l_060.jpg,NA,NA,NA,NA,NA,unpleasant,pleasant,NA,NA,NA,NA,NA,right,1612,true,NA,NA,NA,NA,NA,NA,NA,NA
sWeNyrz4,3087lxlj7ptluqx9bvztb5iuvan0fr,3ob0cao74l24s1iu5v34v2kjremyhe,sWeNyrz4,2020-0188,2021-10-31,08:02:38,10:31:19,NA,incomplete,false,true,NA,NA,2,9,NA,blue,n_l_049.jpg,NA,NA,NA,NA,NA,pleasant,unpleasant,NA,NA,NA,NA,NA,left,1685,true,NA,NA,NA,NA,NA,NA,NA,NA
sWeNyrz4,3087lxlj7ptluqx9bvztb5iuvan0fr,3ob0cao74l24s1iu5v34v2kjremyhe,sWeNyrz4,2020-0188,2021-10-31,08:02:38,10:31:19,NA,incomplete,false,true,NA,NA,2,10,NA,blue,n_s_061.jpg,NA,NA,NA,NA,NA,pleasant,unpleasant,NA,NA,NA,NA,NA,right,2807,true,NA,NA,NA,NA,NA,NA,NA,NA
sWeNyrz4,3087lxlj7ptluqx9bvztb5iuvan0fr,3ob0cao74l24s1iu5v34v2kjremyhe,sWeNyrz4,2020-0188,2021-10-31,08:02:38,10:31:19,NA,incomplete,false,true,NA,NA,2,11,NA,blue,n_l_034.jpg,NA,NA,NA,NA,NA,pleasant,unpleasant,NA,NA,NA,NA,NA,right,1875,true,NA,NA,NA,NA,NA,NA,NA,NA
sWeNyrz4,3087lxlj7ptluqx9bvztb5iuvan0fr,3ob0cao74l24s1iu5v34v2kjremyhe,sWeNyrz4,2020-0188,2021-10-31,08:02:38,10:31:19,NA,incomplete,false,true,NA,NA,2,12,NA,yellow,m_s_077.jpg,NA,NA,NA,NA,NA,unpleasant,pleasant,NA,NA,NA,NA,NA,left,2312,true,NA,NA,NA,NA,NA,NA,NA,NA
sWeNyrz4,3087lxlj7ptluqx9bvztb5iuvan0fr,3ob0cao74l24s1iu5v34v2kjremyhe,sWeNyrz4,2020-0188,2021-10-31,08:02:38,10:31:19,NA,incomplete,false,true,NA,NA,2,13,NA,yellow,m_l_092.jpg,NA,NA,NA,NA,NA,pleasant,unpleasant,NA,NA,NA,NA,NA,right,2356,true,NA,NA,NA,NA,NA,NA,NA,NA
sWeNyrz4,3087lxlj7ptluqx9bvztb5iuvan0fr,3ob0cao74l24s1iu5v34v2kjremyhe,sWeNyrz4,2020-0188,2021-10-31,08:02:38,10:31:19,NA,incomplete,false,true,NA,NA,2,14,NA,yellow,n_s_093.jpg,NA,NA,NA,NA,NA,pleasant,unpleasant,NA,NA,NA,NA,NA,right,1803,true,NA,NA,NA,NA,NA,NA,NA,NA
sWeNyrz4,3087lxlj7ptluqx9bvztb5iuvan0fr,3ob0cao74l24s1iu5v34v2kjremyhe,sWeNyrz4,2020-0188,2021-10-31,08:02:38,10:31:19,NA,incomplete,false,true,NA,NA,2,15,NA,yellow,n_s_059.jpg,NA,NA,NA,NA,NA,unpleasant,pleasant,NA,NA,NA,NA,NA,right,3065,true,NA,NA,NA,NA,NA,NA,NA,NA
sWeNyrz4,3087lxlj7ptluqx9bvztb5iuvan0fr,3ob0cao74l24s1iu5v34v2kjremyhe,sWeNyrz4,2020-0188,2021-10-31,08:02:38,10:31:19,NA,incomplete,false,true,NA,NA,2,16,NA,yellow,n_s_028.jpg,NA,NA,NA,NA,NA,pleasant,unpleasant,NA,NA,NA,NA,NA,left,1655,true,NA,NA,NA,NA,NA,NA,NA,NA
sWeNyrz4,3087lxlj7ptluqx9bvztb5iuvan0fr,3ob0cao74l24s1iu5v34v2kjremyhe,sWeNyrz4,2020-0188,2021-10-31,08:02:38,10:31:19,NA,incomplete,false,true,NA,NA,2,17,NA,yellow,m_s_056.jpg,NA,NA,NA,NA,NA,unpleasant,pleasant,NA,NA,NA,NA,NA,right,2654,true,NA,NA,NA,NA,NA,NA,NA,NA
sWeNyrz4,3087lxlj7ptluqx9bvztb5iuvan0fr,3ob0cao74l24s1iu5v34v2kjremyhe,sWeNyrz4,2020-0188,2021-10-31,08:02:38,10:31:19,NA,incomplete,false,true,NA,NA,2,18,NA,white,m_l_085.jpg,NA,NA,NA,NA,NA,unpleasant,pleasant,NA,NA,NA,NA,NA,left,2347,true,NA,NA,NA,NA,NA,NA,NA,NA
sWeNyrz4,3087lxlj7ptluqx9bvztb5iuvan0fr,3ob0cao74l24s1iu5v34v2kjremyhe,sWeNyrz4,2020-0188,2021-10-31,08:02:38,10:31:19,NA,incomplete,false,true,NA,NA,2,19,NA,white,n_l_100.jpg,NA,NA,NA,NA,NA,pleasant,unpleasant,NA,NA,NA,NA,NA,left,2714,true,NA,NA,NA,NA,NA,NA,NA,NA
sWeNyrz4,3087lxlj7ptluqx9bvztb5iuvan0fr,3ob0cao74l24s1iu5v34v2kjremyhe,sWeNyrz4,2020-0188,2021-10-31,08:02:38,10:31:19,NA,incomplete,false,true,NA,NA,2,20,NA,white,m_s_090.jpg,NA,NA,NA,NA,NA,pleasant,unpleasant,NA,NA,NA,NA,NA,right,2480,true,NA,NA,NA,NA,NA,NA,NA,NA
sWeNyrz4,3087lxlj7ptluqx9bvztb5iuvan0fr,3ob0cao74l24s1iu5v34v2kjremyhe,sWeNyrz4,2020-0188,2021-10-31,08:02:38,10:31:19,NA,incomplete,false,true,NA,NA,2,21,NA,white,n_s_012.jpg,NA,NA,NA,NA,NA,unpleasant,pleasant,NA,NA,NA,NA,NA,right,1586,true,NA,NA,NA,NA,NA,NA,NA,NA
sWeNyrz4,3087lxlj7ptluqx9bvztb5iuvan0fr,3ob0cao74l24s1iu5v34v2kjremyhe,sWeNyrz4,2020-0188,2021-10-31,08:02:38,10:31:19,NA,incomplete,false,true,NA,NA,2,22,NA,white,m_s_023.jpg,NA,NA,NA,NA,NA,pleasant,unpleasant,NA,NA,NA,NA,NA,right,2001,true,NA,NA,NA,NA,NA,NA,NA,NA
sWeNyrz4,3087lxlj7ptluqx9bvztb5iuvan0fr,3ob0cao74l24s1iu5v34v2kjremyhe,sWeNyrz4,2020-0188,2021-10-31,08:02:38,10:31:19,NA,incomplete,false,true,NA,NA,2,23,NA,white,n_l_022.jpg,NA,NA,NA,NA,NA,pleasant,unpleasant,NA,NA,NA,NA,NA,left,1524,true,NA,NA,NA,NA,NA,NA,NA,NA
sWeNyrz4,3087lxlj7ptluqx9bvztb5iuvan0fr,3ob0cao74l24s1iu5v34v2kjremyhe,sWeNyrz4,2020-0188,2021-10-31,08:02:38,10:31:19,NA,incomplete,false,true,NA,NA,2,24,NA,orange,n_s_085.jpg,NA,NA,NA,NA,NA,pleasant,unpleasant,NA,NA,NA,NA,NA,right,2384,true,NA,NA,NA,NA,NA,NA,NA,NA
sWeNyrz4,3087lxlj7ptluqx9bvztb5iuvan0fr,3ob0cao74l24s1iu5v34v2kjremyhe,sWeNyrz4,2020-0188,2021-10-31,08:02:38,10:31:19,NA,incomplete,false,true,NA,NA,2,25,NA,orange,n_s_011.jpg,NA,NA,NA,NA,NA,unpleasant,pleasant,NA,NA,NA,NA,NA,right,1815,true,NA,NA,NA,NA,NA,NA,NA,NA
sWeNyrz4,3087lxlj7ptluqx9bvztb5iuvan0fr,3ob0cao74l24s1iu5v34v2kjremyhe,sWeNyrz4,2020-0188,2021-10-31,08:02:38,10:31:19,NA,incomplete,false,true,NA,NA,2,26,NA,orange,n_l_036.jpg,NA,NA,NA,NA,NA,unpleasant,pleasant,NA,NA,NA,NA,NA,right,2698,true,NA,NA,NA,NA,NA,NA,NA,NA
sWeNyrz4,3087lxlj7ptluqx9bvztb5iuvan0fr,3ob0cao74l24s1iu5v34v2kjremyhe,sWeNyrz4,2020-0188,2021-10-31,08:02:38,10:31:19,NA,incomplete,false,true,NA,NA,2,27,NA,orange,n_l_109.jpg,NA,NA,NA,NA,NA,pleasant,unpleasant,NA,NA,NA,NA,NA,right,1743,true,NA,NA,NA,NA,NA,NA,NA,NA
sWeNyrz4,3087lxlj7ptluqx9bvztb5iuvan0fr,3ob0cao74l24s1iu5v34v2kjremyhe,sWeNyrz4,2020-0188,2021-10-31,08:02:38,10:31:19,NA,incomplete,false,true,NA,NA,2,28,NA,orange,m_l_037.jpg,NA,NA,NA,NA,NA,unpleasant,pleasant,NA,NA,NA,NA,NA,right,1903,true,NA,NA,NA,NA,NA,NA,NA,NA
sWeNyrz4,3087lxlj7ptluqx9bvztb5iuvan0fr,3ob0cao74l24s1iu5v34v2kjremyhe,sWeNyrz4,2020-0188,2021-10-31,08:02:38,10:31:19,NA,incomplete,false,true,NA,NA,2,29,NA,orange,m_s_049.jpg,NA,NA,NA,NA,NA,pleasant,unpleasant,NA,NA,NA,NA,NA,left,1541,true,NA,NA,NA,NA,NA,NA,NA,NA
sWeNyrz4,3087lxlj7ptluqx9bvztb5iuvan0fr,3ob0cao74l24s1iu5v34v2kjremyhe,sWeNyrz4,2020-0188,2021-10-31,08:02:38,10:31:19,NA,incomplete,false,true,NA,NA,2,30,NA,purple,n_s_099.jpg,NA,NA,NA,NA,NA,unpleasant,pleasant,NA,NA,NA,NA,NA,right,2375,true,NA,NA,NA,NA,NA,NA,NA,NA
sWeNyrz4,3087lxlj7ptluqx9bvztb5iuvan0fr,3ob0cao74l24s1iu5v34v2kjremyhe,sWeNyrz4,2020-0188,2021-10-31,08:02:38,10:31:19,NA,incomplete,false,true,NA,NA,2,31,NA,purple,n_l_043.jpg,NA,NA,NA,NA,NA,pleasant,unpleasant,NA,NA,NA,NA,NA,right,2092,true,NA,NA,NA,NA,NA,NA,NA,NA
sWeNyrz4,3087lxlj7ptluqx9bvztb5iuvan0fr,3ob0cao74l24s1iu5v34v2kjremyhe,sWeNyrz4,2020-0188,2021-10-31,08:02:38,10:31:19,NA,incomplete,false,true,NA,NA,2,32,NA,purple,m_s_006.jpg,NA,NA,NA,NA,NA,pleasant,unpleasant,NA,NA,NA,NA,NA,right,1592,true,NA,NA,NA,NA,NA,NA,NA,NA
sWeNyrz4,3087lxlj7ptluqx9bvztb5iuvan0fr,3ob0cao74l24s1iu5v34v2kjremyhe,sWeNyrz4,2020-0188,2021-10-31,08:02:38,10:31:19,NA,incomplete,false,true,NA,NA,2,33,NA,purple,m_s_113.jpg,NA,NA,NA,NA,NA,pleasant,unpleasant,NA,NA,NA,NA,NA,left,1980,true,NA,NA,NA,NA,NA,NA,NA,NA
sWeNyrz4,3087lxlj7ptluqx9bvztb5iuvan0fr,3ob0cao74l24s1iu5v34v2kjremyhe,sWeNyrz4,2020-0188,2021-10-31,08:02:38,10:31:19,NA,incomplete,false,true,NA,NA,2,34,NA,purple,m_l_038.jpg,NA,NA,NA,NA,NA,unpleasant,pleasant,NA,NA,NA,NA,NA,left,1599,true,NA,NA,NA,NA,NA,NA,NA,NA
sWeNyrz4,3087lxlj7ptluqx9bvztb5iuvan0fr,3ob0cao74l24s1iu5v34v2kjremyhe,sWeNyrz4,2020-0188,2021-10-31,08:02:38,10:31:19,NA,incomplete,false,true,NA,NA,2,35,NA,purple,m_s_083.jpg,NA,NA,NA,NA,NA,unpleasant,pleasant,NA,NA,NA,NA,NA,right,1385,true,NA,NA,NA,NA,NA,NA,NA,NA
sWeNyrz4,3087lxlj7ptluqx9bvztb5iuvan0fr,3ob0cao74l24s1iu5v34v2kjremyhe,sWeNyrz4,2020-0188,2021-10-31,08:02:38,10:31:19,NA,incomplete,false,NA,NA,true,2,0,NA,NA,NA,left,m_s_049.jpg,orange,purple,NA,NA,NA,NA,NA,NA,NA,NA,NA,NaN,NA,3945,left,1,NA,NA,NA,NA,NA
sWeNyrz4,3087lxlj7ptluqx9bvztb5iuvan0fr,3ob0cao74l24s1iu5v34v2kjremyhe,sWeNyrz4,2020-0188,2021-10-31,08:02:38,10:31:19,NA,incomplete,false,NA,NA,true,2,1,NA,NA,NA,right,m_s_023.jpg,orange,white,NA,NA,NA,NA,NA,NA,NA,NA,NA,NaN,NA,7844,right,1,NA,NA,NA,NA,NA
sWeNyrz4,3087lxlj7ptluqx9bvztb5iuvan0fr,3ob0cao74l24s1iu5v34v2kjremyhe,sWeNyrz4,2020-0188,2021-10-31,08:02:38,10:31:19,NA,incomplete,false,NA,NA,true,2,2,NA,NA,NA,left,m_s_083.jpg,purple,orange,NA,NA,NA,NA,NA,NA,NA,NA,NA,NaN,NA,17536,right,0,NA,NA,NA,NA,NA
sWeNyrz4,3087lxlj7ptluqx9bvztb5iuvan0fr,3ob0cao74l24s1iu5v34v2kjremyhe,sWeNyrz4,2020-0188,2021-10-31,08:02:38,10:31:19,NA,incomplete,false,NA,NA,true,2,3,NA,NA,NA,left,n_s_061.jpg,blue,green,NA,NA,NA,NA,NA,NA,NA,NA,NA,NaN,NA,4288,left,1,NA,NA,NA,NA,NA
sWeNyrz4,3087lxlj7ptluqx9bvztb5iuvan0fr,3ob0cao74l24s1iu5v34v2kjremyhe,sWeNyrz4,2020-0188,2021-10-31,08:02:38,10:31:19,NA,incomplete,false,NA,NA,true,2,4,NA,NA,NA,right,n_l_036.jpg,purple,orange,NA,NA,NA,NA,NA,NA,NA,NA,NA,NaN,NA,6428,right,1,NA,NA,NA,NA,NA
sWeNyrz4,3087lxlj7ptluqx9bvztb5iuvan0fr,3ob0cao74l24s1iu5v34v2kjremyhe,sWeNyrz4,2020-0188,2021-10-31,08:02:38,10:31:19,NA,incomplete,false,NA,NA,true,2,5,NA,NA,NA,left,n_l_060.jpg,blue,yellow,NA,NA,NA,NA,NA,NA,NA,NA,NA,NaN,NA,4296,left,1,NA,NA,NA,NA,NA
sWeNyrz4,3087lxlj7ptluqx9bvztb5iuvan0fr,3ob0cao74l24s1iu5v34v2kjremyhe,sWeNyrz4,2020-0188,2021-10-31,08:02:38,10:31:19,NA,incomplete,false,NA,NA,true,2,6,NA,NA,NA,right,n_s_028.jpg,blue,yellow,NA,NA,NA,NA,NA,NA,NA,NA,NA,NaN,NA,3032,right,1,NA,NA,NA,NA,NA
sWeNyrz4,3087lxlj7ptluqx9bvztb5iuvan0fr,3ob0cao74l24s1iu5v34v2kjremyhe,sWeNyrz4,2020-0188,2021-10-31,08:02:38,10:31:19,NA,incomplete,false,NA,NA,true,2,7,NA,NA,NA,right,n_l_108.jpg,blue,green,NA,NA,NA,NA,NA,NA,NA,NA,NA,NaN,NA,3530,left,0,NA,NA,NA,NA,NA
sWeNyrz4,3087lxlj7ptluqx9bvztb5iuvan0fr,3ob0cao74l24s1iu5v34v2kjremyhe,sWeNyrz4,2020-0188,2021-10-31,08:02:38,10:31:19,NA,incomplete,false,NA,NA,true,2,8,NA,NA,NA,left,m_l_092.jpg,yellow,blue,NA,NA,NA,NA,NA,NA,NA,NA,NA,NaN,NA,3221,left,1,NA,NA,NA,NA,NA
sWeNyrz4,3087lxlj7ptluqx9bvztb5iuvan0fr,3ob0cao74l24s1iu5v34v2kjremyhe,sWeNyrz4,2020-0188,2021-10-31,08:02:38,10:31:19,NA,incomplete,false,NA,NA,true,2,9,NA,NA,NA,right,m_s_006.jpg,orange,purple,NA,NA,NA,NA,NA,NA,NA,NA,NA,NaN,NA,18249,right,1,NA,NA,NA,NA,NA
sWeNyrz4,3087lxlj7ptluqx9bvztb5iuvan0fr,3ob0cao74l24s1iu5v34v2kjremyhe,sWeNyrz4,2020-0188,2021-10-31,08:02:38,10:31:19,NA,incomplete,false,NA,NA,true,2,10,NA,NA,NA,right,n_l_022.jpg,yellow,white,NA,NA,NA,NA,NA,NA,NA,NA,NA,NaN,NA,2714,right,1,NA,NA,NA,NA,NA
sWeNyrz4,3087lxlj7ptluqx9bvztb5iuvan0fr,3ob0cao74l24s1iu5v34v2kjremyhe,sWeNyrz4,2020-0188,2021-10-31,08:02:38,10:31:19,NA,incomplete,false,NA,NA,true,2,11,NA,NA,NA,right,n_l_034.jpg,green,blue,NA,NA,NA,NA,NA,NA,NA,NA,NA,NaN,NA,4749,right,1,NA,NA,NA,NA,NA
sWeNyrz4,3087lxlj7ptluqx9bvztb5iuvan0fr,3ob0cao74l24s1iu5v34v2kjremyhe,sWeNyrz4,2020-0188,2021-10-31,08:02:38,10:31:19,NA,incomplete,false,NA,NA,true,2,12,NA,NA,NA,left,m_l_115.jpg,green,blue,NA,NA,NA,NA,NA,NA,NA,NA,NA,NaN,NA,5215,left,1,NA,NA,NA,NA,NA
sWeNyrz4,3087lxlj7ptluqx9bvztb5iuvan0fr,3ob0cao74l24s1iu5v34v2kjremyhe,sWeNyrz4,2020-0188,2021-10-31,08:02:38,10:31:19,NA,incomplete,false,NA,NA,true,2,13,NA,NA,NA,right,m_s_090.jpg,orange,white,NA,NA,NA,NA,NA,NA,NA,NA,NA,NaN,NA,4256,left,0,NA,NA,NA,NA,NA
sWeNyrz4,3087lxlj7ptluqx9bvztb5iuvan0fr,3ob0cao74l24s1iu5v34v2kjremyhe,sWeNyrz4,2020-0188,2021-10-31,08:02:38,10:31:19,NA,incomplete,false,NA,NA,true,2,14,NA,NA,NA,left,m_s_056.jpg,yellow,blue,NA,NA,NA,NA,NA,NA,NA,NA,NA,NaN,NA,4390,left,1,NA,NA,NA,NA,NA
sWeNyrz4,3087lxlj7ptluqx9bvztb5iuvan0fr,3ob0cao74l24s1iu5v34v2kjremyhe,sWeNyrz4,2020-0188,2021-10-31,08:02:38,10:31:19,NA,incomplete,false,NA,NA,true,2,15,NA,NA,NA,left,n_s_090.jpg,green,blue,NA,NA,NA,NA,NA,NA,NA,NA,NA,NaN,NA,3326,left,1,NA,NA,NA,NA,NA
sWeNyrz4,3087lxlj7ptluqx9bvztb5iuvan0fr,3ob0cao74l24s1iu5v34v2kjremyhe,sWeNyrz4,2020-0188,2021-10-31,08:02:38,10:31:19,NA,incomplete,false,NA,NA,true,2,16,NA,NA,NA,left,n_s_011.jpg,orange,white,NA,NA,NA,NA,NA,NA,NA,NA,NA,NaN,NA,7372,left,1,NA,NA,NA,NA,NA
sWeNyrz4,3087lxlj7ptluqx9bvztb5iuvan0fr,3ob0cao74l24s1iu5v34v2kjremyhe,sWeNyrz4,2020-0188,2021-10-31,08:02:38,10:31:19,NA,incomplete,false,NA,NA,true,2,17,NA,NA,NA,left,m_l_037.jpg,orange,white,NA,NA,NA,NA,NA,NA,NA,NA,NA,NaN,NA,5296,left,1,NA,NA,NA,NA,NA
sWeNyrz4,3087lxlj7ptluqx9bvztb5iuvan0fr,3ob0cao74l24s1iu5v34v2kjremyhe,sWeNyrz4,2020-0188,2021-10-31,08:02:38,10:31:19,NA,incomplete,false,NA,NA,true,2,18,NA,NA,NA,right,n_l_043.jpg,orange,purple,NA,NA,NA,NA,NA,NA,NA,NA,NA,NaN,NA,11834,left,0,NA,NA,NA,NA,NA
sWeNyrz4,3087lxlj7ptluqx9bvztb5iuvan0fr,3ob0cao74l24s1iu5v34v2kjremyhe,sWeNyrz4,2020-0188,2021-10-31,08:02:38,10:31:19,NA,incomplete,false,NA,NA,true,2,19,NA,NA,NA,right,n_l_100.jpg,orange,white,NA,NA,NA,NA,NA,NA,NA,NA,NA,NaN,NA,4660,left,0,NA,NA,NA,NA,NA
sWeNyrz4,3087lxlj7ptluqx9bvztb5iuvan0fr,3ob0cao74l24s1iu5v34v2kjremyhe,sWeNyrz4,2020-0188,2021-10-31,08:02:38,10:31:19,NA,incomplete,false,NA,NA,true,2,20,NA,NA,NA,left,n_s_093.jpg,yellow,blue,NA,NA,NA,NA,NA,NA,NA,NA,NA,NaN,NA,4463,left,1,NA,NA,NA,NA,NA
sWeNyrz4,3087lxlj7ptluqx9bvztb5iuvan0fr,3ob0cao74l24s1iu5v34v2kjremyhe,sWeNyrz4,2020-0188,2021-10-31,08:02:38,10:31:19,NA,incomplete,false,NA,NA,true,2,21,NA,NA,NA,left,n_s_017.jpg,blue,yellow,NA,NA,NA,NA,NA,NA,NA,NA,NA,NaN,NA,3568,right,0,NA,NA,NA,NA,NA
sWeNyrz4,3087lxlj7ptluqx9bvztb5iuvan0fr,3ob0cao74l24s1iu5v34v2kjremyhe,sWeNyrz4,2020-0188,2021-10-31,08:02:38,10:31:19,NA,incomplete,false,NA,true,NA,2,0,NA,NA,NA,right,NA,NA,NA,present,NA,NA,n_l_108.jpg,green,n_s_090.jpg,green,within,NA,NaN,NA,NA,NA,NA,right,8976,1,0,5135
sWeNyrz4,3087lxlj7ptluqx9bvztb5iuvan0fr,3ob0cao74l24s1iu5v34v2kjremyhe,sWeNyrz4,2020-0188,2021-10-31,08:02:38,10:31:19,NA,incomplete,false,NA,true,NA,2,1,NA,NA,NA,left,NA,NA,NA,present,NA,NA,m_s_023.jpg,white,n_l_036.jpg,orange,between,NA,NaN,NA,NA,NA,NA,left,5541,1,3,9484
sWeNyrz4,3087lxlj7ptluqx9bvztb5iuvan0fr,3ob0cao74l24s1iu5v34v2kjremyhe,sWeNyrz4,2020-0188,2021-10-31,08:02:38,10:31:19,NA,incomplete,false,NA,true,NA,2,2,NA,NA,NA,left,NA,NA,NA,present,NA,NA,m_l_037.jpg,orange,m_s_006.jpg,purple,between,NA,NaN,NA,NA,NA,NA,left,5801,1,2,2683
sWeNyrz4,3087lxlj7ptluqx9bvztb5iuvan0fr,3ob0cao74l24s1iu5v34v2kjremyhe,sWeNyrz4,2020-0188,2021-10-31,08:02:38,10:31:19,NA,incomplete,false,NA,true,NA,2,3,NA,NA,NA,left,NA,NA,NA,present,NA,NA,n_l_100.jpg,white,n_l_022.jpg,white,within,NA,NaN,NA,NA,NA,NA,right,4896,0,0,2291
sWeNyrz4,3087lxlj7ptluqx9bvztb5iuvan0fr,3ob0cao74l24s1iu5v34v2kjremyhe,sWeNyrz4,2020-0188,2021-10-31,08:02:38,10:31:19,NA,incomplete,false,NA,true,NA,2,4,NA,NA,NA,right,NA,NA,NA,present,NA,NA,n_s_093.jpg,yellow,n_s_061.jpg,blue,between,NA,NaN,NA,NA,NA,NA,right,5358,1,3,2090
sWeNyrz4,3087lxlj7ptluqx9bvztb5iuvan0fr,3ob0cao74l24s1iu5v34v2kjremyhe,sWeNyrz4,2020-0188,2021-10-31,08:02:38,10:31:19,NA,incomplete,false,NA,true,NA,2,5,NA,NA,NA,right,NA,NA,NA,present,NA,NA,m_s_083.jpg,purple,n_l_043.jpg,purple,within,NA,NaN,NA,NA,NA,NA,right,20251,1,0,2901
sWeNyrz4,3087lxlj7ptluqx9bvztb5iuvan0fr,3ob0cao74l24s1iu5v34v2kjremyhe,sWeNyrz4,2020-0188,2021-10-31,08:02:38,10:31:19,NA,incomplete,false,NA,true,NA,2,6,NA,NA,NA,left,NA,NA,NA,present,NA,NA,n_s_028.jpg,yellow,m_s_090.jpg,white,between,NA,NaN,NA,NA,NA,NA,left,3952,1,3,6109
sWeNyrz4,3087lxlj7ptluqx9bvztb5iuvan0fr,3ob0cao74l24s1iu5v34v2kjremyhe,sWeNyrz4,2020-0188,2021-10-31,08:02:38,10:31:19,NA,incomplete,false,NA,true,NA,2,7,NA,NA,NA,left,NA,NA,NA,present,NA,NA,n_s_011.jpg,orange,m_s_049.jpg,orange,within,NA,NaN,NA,NA,NA,NA,left,5706,1,0,6317
sWeNyrz4,3087lxlj7ptluqx9bvztb5iuvan0fr,3ob0cao74l24s1iu5v34v2kjremyhe,sWeNyrz4,2020-0188,2021-10-31,08:02:38,10:31:19,NA,incomplete,false,NA,true,NA,2,8,NA,NA,NA,right,NA,NA,NA,present,NA,NA,n_l_060.jpg,blue,m_l_115.jpg,green,between,NA,NaN,NA,NA,NA,NA,right,4754,1,2,2239
sWeNyrz4,3087lxlj7ptluqx9bvztb5iuvan0fr,3ob0cao74l24s1iu5v34v2kjremyhe,sWeNyrz4,2020-0188,2021-10-31,08:02:38,10:31:19,NA,incomplete,false,NA,true,NA,2,9,NA,NA,NA,right,NA,NA,NA,present,NA,NA,n_l_034.jpg,blue,n_s_017.jpg,blue,within,NA,NaN,NA,NA,NA,NA,left,7618,0,0,2431
sWeNyrz4,3087lxlj7ptluqx9bvztb5iuvan0fr,3ob0cao74l24s1iu5v34v2kjremyhe,sWeNyrz4,2020-0188,2021-10-31,08:02:38,10:31:19,NA,incomplete,false,NA,true,NA,2,10,NA,NA,NA,left,NA,NA,NA,present,NA,NA,m_l_092.jpg,yellow,m_s_056.jpg,yellow,within,NA,NaN,NA,NA,NA,NA,right,27008,0,0,2354
sWeNyrz4,3087lxlj7ptluqx9bvztb5iuvan0fr,3ob0cao74l24s1iu5v34v2kjremyhe,sWeNyrz4,2020-0188,2021-10-31,08:02:38,10:31:19,NA,incomplete,false,true,NA,NA,3,0,NA,yellow,m_l_016.jpg,NA,NA,NA,NA,NA,pleasant,unpleasant,NA,NA,NA,NA,NA,left,1901,true,NA,NA,NA,NA,NA,NA,NA,NA
sWeNyrz4,3087lxlj7ptluqx9bvztb5iuvan0fr,3ob0cao74l24s1iu5v34v2kjremyhe,sWeNyrz4,2020-0188,2021-10-31,08:02:38,10:31:19,NA,incomplete,false,true,NA,NA,3,1,NA,yellow,m_l_073.jpg,NA,NA,NA,NA,NA,unpleasant,pleasant,NA,NA,NA,NA,NA,left,2536,true,NA,NA,NA,NA,NA,NA,NA,NA
sWeNyrz4,3087lxlj7ptluqx9bvztb5iuvan0fr,3ob0cao74l24s1iu5v34v2kjremyhe,sWeNyrz4,2020-0188,2021-10-31,08:02:38,10:31:19,NA,incomplete,false,true,NA,NA,3,2,NA,yellow,m_s_108.jpg,NA,NA,NA,NA,NA,unpleasant,pleasant,NA,NA,NA,NA,NA,left,2208,true,NA,NA,NA,NA,NA,NA,NA,NA
sWeNyrz4,3087lxlj7ptluqx9bvztb5iuvan0fr,3ob0cao74l24s1iu5v34v2kjremyhe,sWeNyrz4,2020-0188,2021-10-31,08:02:38,10:31:19,NA,incomplete,false,true,NA,NA,3,3,NA,yellow,n_l_046.jpg,NA,NA,NA,NA,NA,pleasant,unpleasant,NA,NA,NA,NA,NA,left,2627,true,NA,NA,NA,NA,NA,NA,NA,NA
sWeNyrz4,3087lxlj7ptluqx9bvztb5iuvan0fr,3ob0cao74l24s1iu5v34v2kjremyhe,sWeNyrz4,2020-0188,2021-10-31,08:02:38,10:31:19,NA,incomplete,false,true,NA,NA,3,4,NA,yellow,n_s_039.jpg,NA,NA,NA,NA,NA,unpleasant,pleasant,NA,NA,NA,NA,NA,right,1847,true,NA,NA,NA,NA,NA,NA,NA,NA
sWeNyrz4,3087lxlj7ptluqx9bvztb5iuvan0fr,3ob0cao74l24s1iu5v34v2kjremyhe,sWeNyrz4,2020-0188,2021-10-31,08:02:38,10:31:19,NA,incomplete,false,true,NA,NA,3,5,NA,yellow,m_l_095.jpg,NA,NA,NA,NA,NA,unpleasant,pleasant,NA,NA,NA,NA,NA,left,1587,true,NA,NA,NA,NA,NA,NA,NA,NA
sWeNyrz4,3087lxlj7ptluqx9bvztb5iuvan0fr,3ob0cao74l24s1iu5v34v2kjremyhe,sWeNyrz4,2020-0188,2021-10-31,08:02:38,10:31:19,NA,incomplete,false,true,NA,NA,3,6,NA,brown,n_l_018.jpg,NA,NA,NA,NA,NA,unpleasant,pleasant,NA,NA,NA,NA,NA,right,2265,true,NA,NA,NA,NA,NA,NA,NA,NA
sWeNyrz4,3087lxlj7ptluqx9bvztb5iuvan0fr,3ob0cao74l24s1iu5v34v2kjremyhe,sWeNyrz4,2020-0188,2021-10-31,08:02:38,10:31:19,NA,incomplete,false,true,NA,NA,3,7,NA,brown,n_s_024.jpg,NA,NA,NA,NA,NA,pleasant,unpleasant,NA,NA,NA,NA,NA,left,2281,true,NA,NA,NA,NA,NA,NA,NA,NA
sWeNyrz4,3087lxlj7ptluqx9bvztb5iuvan0fr,3ob0cao74l24s1iu5v34v2kjremyhe,sWeNyrz4,2020-0188,2021-10-31,08:02:38,10:31:19,NA,incomplete,false,true,NA,NA,3,8,NA,brown,n_s_056.jpg,NA,NA,NA,NA,NA,pleasant,unpleasant,NA,NA,NA,NA,NA,left,1353,true,NA,NA,NA,NA,NA,NA,NA,NA
sWeNyrz4,3087lxlj7ptluqx9bvztb5iuvan0fr,3ob0cao74l24s1iu5v34v2kjremyhe,sWeNyrz4,2020-0188,2021-10-31,08:02:38,10:31:19,NA,incomplete,false,true,NA,NA,3,9,NA,brown,m_s_112.jpg,NA,NA,NA,NA,NA,unpleasant,pleasant,NA,NA,NA,NA,NA,right,1664,true,NA,NA,NA,NA,NA,NA,NA,NA
sWeNyrz4,3087lxlj7ptluqx9bvztb5iuvan0fr,3ob0cao74l24s1iu5v34v2kjremyhe,sWeNyrz4,2020-0188,2021-10-31,08:02:38,10:31:19,NA,incomplete,false,true,NA,NA,3,10,NA,brown,m_l_061.jpg,NA,NA,NA,NA,NA,unpleasant,pleasant,NA,NA,NA,NA,NA,left,1924,true,NA,NA,NA,NA,NA,NA,NA,NA
sWeNyrz4,3087lxlj7ptluqx9bvztb5iuvan0fr,3ob0cao74l24s1iu5v34v2kjremyhe,sWeNyrz4,2020-0188,2021-10-31,08:02:38,10:31:19,NA,incomplete,false,true,NA,NA,3,11,NA,brown,n_s_114.jpg,NA,NA,NA,NA,NA,pleasant,unpleasant,NA,NA,NA,NA,NA,right,2537,true,NA,NA,NA,NA,NA,NA,NA,NA
sWeNyrz4,3087lxlj7ptluqx9bvztb5iuvan0fr,3ob0cao74l24s1iu5v34v2kjremyhe,sWeNyrz4,2020-0188,2021-10-31,08:02:38,10:31:19,NA,incomplete,false,true,NA,NA,3,12,NA,white,m_l_084.jpg,NA,NA,NA,NA,NA,pleasant,unpleasant,NA,NA,NA,NA,NA,right,2954,true,NA,NA,NA,NA,NA,NA,NA,NA
sWeNyrz4,3087lxlj7ptluqx9bvztb5iuvan0fr,3ob0cao74l24s1iu5v34v2kjremyhe,sWeNyrz4,2020-0188,2021-10-31,08:02:38,10:31:19,NA,incomplete,false,true,NA,NA,3,13,NA,white,m_l_050.jpg,NA,NA,NA,NA,NA,unpleasant,pleasant,NA,NA,NA,NA,NA,right,1761,true,NA,NA,NA,NA,NA,NA,NA,NA
sWeNyrz4,3087lxlj7ptluqx9bvztb5iuvan0fr,3ob0cao74l24s1iu5v34v2kjremyhe,sWeNyrz4,2020-0188,2021-10-31,08:02:38,10:31:19,NA,incomplete,false,true,NA,NA,3,14,NA,white,n_s_054.jpg,NA,NA,NA,NA,NA,pleasant,unpleasant,NA,NA,NA,NA,NA,right,2718,true,NA,NA,NA,NA,NA,NA,NA,NA
sWeNyrz4,3087lxlj7ptluqx9bvztb5iuvan0fr,3ob0cao74l24s1iu5v34v2kjremyhe,sWeNyrz4,2020-0188,2021-10-31,08:02:38,10:31:19,NA,incomplete,false,true,NA,NA,3,15,NA,white,m_s_092.jpg,NA,NA,NA,NA,NA,pleasant,unpleasant,NA,NA,NA,NA,NA,right,1902,true,NA,NA,NA,NA,NA,NA,NA,NA
sWeNyrz4,3087lxlj7ptluqx9bvztb5iuvan0fr,3ob0cao74l24s1iu5v34v2kjremyhe,sWeNyrz4,2020-0188,2021-10-31,08:02:38,10:31:19,NA,incomplete,false,true,NA,NA,3,16,NA,white,n_l_080.jpg,NA,NA,NA,NA,NA,pleasant,unpleasant,NA,NA,NA,NA,NA,left,1490,true,NA,NA,NA,NA,NA,NA,NA,NA
sWeNyrz4,3087lxlj7ptluqx9bvztb5iuvan0fr,3ob0cao74l24s1iu5v34v2kjremyhe,sWeNyrz4,2020-0188,2021-10-31,08:02:38,10:31:19,NA,incomplete,false,true,NA,NA,3,17,NA,white,m_s_117.jpg,NA,NA,NA,NA,NA,unpleasant,pleasant,NA,NA,NA,NA,NA,right,1982,true,NA,NA,NA,NA,NA,NA,NA,NA
sWeNyrz4,3087lxlj7ptluqx9bvztb5iuvan0fr,3ob0cao74l24s1iu5v34v2kjremyhe,sWeNyrz4,2020-0188,2021-10-31,08:02:38,10:31:19,NA,incomplete,false,true,NA,NA,3,18,NA,red,n_s_078.jpg,NA,NA,NA,NA,NA,unpleasant,pleasant,NA,NA,NA,NA,NA,left,1636,true,NA,NA,NA,NA,NA,NA,NA,NA
sWeNyrz4,3087lxlj7ptluqx9bvztb5iuvan0fr,3ob0cao74l24s1iu5v34v2kjremyhe,sWeNyrz4,2020-0188,2021-10-31,08:02:38,10:31:19,NA,incomplete,false,true,NA,NA,3,19,NA,red,n_s_072.jpg,NA,NA,NA,NA,NA,unpleasant,pleasant,NA,NA,NA,NA,NA,left,1822,true,NA,NA,NA,NA,NA,NA,NA,NA
sWeNyrz4,3087lxlj7ptluqx9bvztb5iuvan0fr,3ob0cao74l24s1iu5v34v2kjremyhe,sWeNyrz4,2020-0188,2021-10-31,08:02:38,10:31:19,NA,incomplete,false,true,NA,NA,3,20,NA,red,m_s_082.jpg,NA,NA,NA,NA,NA,pleasant,unpleasant,NA,NA,NA,NA,NA,left,1718,true,NA,NA,NA,NA,NA,NA,NA,NA
sWeNyrz4,3087lxlj7ptluqx9bvztb5iuvan0fr,3ob0cao74l24s1iu5v34v2kjremyhe,sWeNyrz4,2020-0188,2021-10-31,08:02:38,10:31:19,NA,incomplete,false,true,NA,NA,3,21,NA,red,m_s_086.jpg,NA,NA,NA,NA,NA,unpleasant,pleasant,NA,NA,NA,NA,NA,left,1672,true,NA,NA,NA,NA,NA,NA,NA,NA
sWeNyrz4,3087lxlj7ptluqx9bvztb5iuvan0fr,3ob0cao74l24s1iu5v34v2kjremyhe,sWeNyrz4,2020-0188,2021-10-31,08:02:38,10:31:19,NA,incomplete,false,true,NA,NA,3,22,NA,red,n_l_025.jpg,NA,NA,NA,NA,NA,unpleasant,pleasant,NA,NA,NA,NA,NA,left,1228,true,NA,NA,NA,NA,NA,NA,NA,NA
sWeNyrz4,3087lxlj7ptluqx9bvztb5iuvan0fr,3ob0cao74l24s1iu5v34v2kjremyhe,sWeNyrz4,2020-0188,2021-10-31,08:02:38,10:31:19,NA,incomplete,false,true,NA,NA,3,23,NA,red,m_l_044.jpg,NA,NA,NA,NA,NA,pleasant,unpleasant,NA,NA,NA,NA,NA,left,1989,true,NA,NA,NA,NA,NA,NA,NA,NA
sWeNyrz4,3087lxlj7ptluqx9bvztb5iuvan0fr,3ob0cao74l24s1iu5v34v2kjremyhe,sWeNyrz4,2020-0188,2021-10-31,08:02:38,10:31:19,NA,incomplete,false,true,NA,NA,3,24,NA,blue,m_l_017.jpg,NA,NA,NA,NA,NA,unpleasant,pleasant,NA,NA,NA,NA,NA,right,2230,true,NA,NA,NA,NA,NA,NA,NA,NA
sWeNyrz4,3087lxlj7ptluqx9bvztb5iuvan0fr,3ob0cao74l24s1iu5v34v2kjremyhe,sWeNyrz4,2020-0188,2021-10-31,08:02:38,10:31:19,NA,incomplete,false,true,NA,NA,3,25,NA,blue,n_l_027.jpg,NA,NA,NA,NA,NA,pleasant,unpleasant,NA,NA,NA,NA,NA,left,1401,true,NA,NA,NA,NA,NA,NA,NA,NA
sWeNyrz4,3087lxlj7ptluqx9bvztb5iuvan0fr,3ob0cao74l24s1iu5v34v2kjremyhe,sWeNyrz4,2020-0188,2021-10-31,08:02:38,10:31:19,NA,incomplete,false,true,NA,NA,3,26,NA,blue,m_s_094.jpg,NA,NA,NA,NA,NA,unpleasant,pleasant,NA,NA,NA,NA,NA,left,1775,true,NA,NA,NA,NA,NA,NA,NA,NA
sWeNyrz4,3087lxlj7ptluqx9bvztb5iuvan0fr,3ob0cao74l24s1iu5v34v2kjremyhe,sWeNyrz4,2020-0188,2021-10-31,08:02:38,10:31:19,NA,incomplete,false,true,NA,NA,3,27,NA,blue,n_l_017.jpg,NA,NA,NA,NA,NA,unpleasant,pleasant,NA,NA,NA,NA,NA,left,1393,true,NA,NA,NA,NA,NA,NA,NA,NA
sWeNyrz4,3087lxlj7ptluqx9bvztb5iuvan0fr,3ob0cao74l24s1iu5v34v2kjremyhe,sWeNyrz4,2020-0188,2021-10-31,08:02:38,10:31:19,NA,incomplete,false,true,NA,NA,3,28,NA,blue,m_s_041.jpg,NA,NA,NA,NA,NA,pleasant,unpleasant,NA,NA,NA,NA,NA,left,3220,true,NA,NA,NA,NA,NA,NA,NA,NA
sWeNyrz4,3087lxlj7ptluqx9bvztb5iuvan0fr,3ob0cao74l24s1iu5v34v2kjremyhe,sWeNyrz4,2020-0188,2021-10-31,08:02:38,10:31:19,NA,incomplete,false,true,NA,NA,3,29,NA,blue,n_s_064.jpg,NA,NA,NA,NA,NA,unpleasant,pleasant,NA,NA,NA,NA,NA,right,1794,true,NA,NA,NA,NA,NA,NA,NA,NA
sWeNyrz4,3087lxlj7ptluqx9bvztb5iuvan0fr,3ob0cao74l24s1iu5v34v2kjremyhe,sWeNyrz4,2020-0188,2021-10-31,08:02:38,10:31:19,NA,incomplete,false,true,NA,NA,3,30,NA,gray,m_l_076.jpg,NA,NA,NA,NA,NA,unpleasant,pleasant,NA,NA,NA,NA,NA,right,1499,true,NA,NA,NA,NA,NA,NA,NA,NA
sWeNyrz4,3087lxlj7ptluqx9bvztb5iuvan0fr,3ob0cao74l24s1iu5v34v2kjremyhe,sWeNyrz4,2020-0188,2021-10-31,08:02:38,10:31:19,NA,incomplete,false,true,NA,NA,3,31,NA,gray,m_l_107.jpg,NA,NA,NA,NA,NA,unpleasant,pleasant,NA,NA,NA,NA,NA,left,2281,true,NA,NA,NA,NA,NA,NA,NA,NA
sWeNyrz4,3087lxlj7ptluqx9bvztb5iuvan0fr,3ob0cao74l24s1iu5v34v2kjremyhe,sWeNyrz4,2020-0188,2021-10-31,08:02:38,10:31:19,NA,incomplete,false,true,NA,NA,3,32,NA,gray,m_l_069.jpg,NA,NA,NA,NA,NA,unpleasant,pleasant,NA,NA,NA,NA,NA,left,1436,true,NA,NA,NA,NA,NA,NA,NA,NA
sWeNyrz4,3087lxlj7ptluqx9bvztb5iuvan0fr,3ob0cao74l24s1iu5v34v2kjremyhe,sWeNyrz4,2020-0188,2021-10-31,08:02:38,10:31:19,NA,incomplete,false,true,NA,NA,3,33,NA,gray,m_l_042.jpg,NA,NA,NA,NA,NA,unpleasant,pleasant,NA,NA,NA,NA,NA,left,1662,true,NA,NA,NA,NA,NA,NA,NA,NA
sWeNyrz4,3087lxlj7ptluqx9bvztb5iuvan0fr,3ob0cao74l24s1iu5v34v2kjremyhe,sWeNyrz4,2020-0188,2021-10-31,08:02:38,10:31:19,NA,incomplete,false,true,NA,NA,3,34,NA,gray,m_s_061.jpg,NA,NA,NA,NA,NA,unpleasant,pleasant,NA,NA,NA,NA,NA,left,1887,true,NA,NA,NA,NA,NA,NA,NA,NA
sWeNyrz4,3087lxlj7ptluqx9bvztb5iuvan0fr,3ob0cao74l24s1iu5v34v2kjremyhe,sWeNyrz4,2020-0188,2021-10-31,08:02:38,10:31:19,NA,incomplete,false,true,NA,NA,3,35,NA,gray,m_s_039.jpg,NA,NA,NA,NA,NA,unpleasant,pleasant,NA,NA,NA,NA,NA,right,2569,true,NA,NA,NA,NA,NA,NA,NA,NA
sWeNyrz4,3087lxlj7ptluqx9bvztb5iuvan0fr,3ob0cao74l24s1iu5v34v2kjremyhe,sWeNyrz4,2020-0188,2021-10-31,08:02:38,10:31:19,NA,incomplete,false,NA,NA,true,3,0,NA,NA,NA,left,n_s_072.jpg,red,white,NA,NA,NA,NA,NA,NA,NA,NA,NA,NaN,NA,14681,right,0,NA,NA,NA,NA,NA
sWeNyrz4,3087lxlj7ptluqx9bvztb5iuvan0fr,3ob0cao74l24s1iu5v34v2kjremyhe,sWeNyrz4,2020-0188,2021-10-31,08:02:38,10:31:19,NA,incomplete,false,NA,NA,true,3,1,NA,NA,NA,left,m_s_041.jpg,blue,red,NA,NA,NA,NA,NA,NA,NA,NA,NA,NaN,NA,2778,left,1,NA,NA,NA,NA,NA
sWeNyrz4,3087lxlj7ptluqx9bvztb5iuvan0fr,3ob0cao74l24s1iu5v34v2kjremyhe,sWeNyrz4,2020-0188,2021-10-31,08:02:38,10:31:19,NA,incomplete,false,NA,NA,true,3,2,NA,NA,NA,left,m_s_094.jpg,blue,red,NA,NA,NA,NA,NA,NA,NA,NA,NA,NaN,NA,3069,left,1,NA,NA,NA,NA,NA
sWeNyrz4,3087lxlj7ptluqx9bvztb5iuvan0fr,3ob0cao74l24s1iu5v34v2kjremyhe,sWeNyrz4,2020-0188,2021-10-31,08:02:38,10:31:19,NA,incomplete,false,NA,NA,true,3,3,NA,NA,NA,left,m_l_050.jpg,white,red,NA,NA,NA,NA,NA,NA,NA,NA,NA,NaN,NA,2803,left,1,NA,NA,NA,NA,NA
sWeNyrz4,3087lxlj7ptluqx9bvztb5iuvan0fr,3ob0cao74l24s1iu5v34v2kjremyhe,sWeNyrz4,2020-0188,2021-10-31,08:02:38,10:31:19,NA,incomplete,false,NA,NA,true,3,4,NA,NA,NA,right,n_l_027.jpg,red,blue,NA,NA,NA,NA,NA,NA,NA,NA,NA,NaN,NA,2310,right,1,NA,NA,NA,NA,NA
sWeNyrz4,3087lxlj7ptluqx9bvztb5iuvan0fr,3ob0cao74l24s1iu5v34v2kjremyhe,sWeNyrz4,2020-0188,2021-10-31,08:02:38,10:31:19,NA,incomplete,false,NA,NA,true,3,5,NA,NA,NA,left,m_l_073.jpg,yellow,brown,NA,NA,NA,NA,NA,NA,NA,NA,NA,NaN,NA,5182,right,0,NA,NA,NA,NA,NA
sWeNyrz4,3087lxlj7ptluqx9bvztb5iuvan0fr,3ob0cao74l24s1iu5v34v2kjremyhe,sWeNyrz4,2020-0188,2021-10-31,08:02:38,10:31:19,NA,incomplete,false,NA,NA,true,3,6,NA,NA,NA,left,n_l_080.jpg,white,red,NA,NA,NA,NA,NA,NA,NA,NA,NA,NaN,NA,2255,left,1,NA,NA,NA,NA,NA
sWeNyrz4,3087lxlj7ptluqx9bvztb5iuvan0fr,3ob0cao74l24s1iu5v34v2kjremyhe,sWeNyrz4,2020-0188,2021-10-31,08:02:38,10:31:19,NA,incomplete,false,NA,NA,true,3,7,NA,NA,NA,left,m_l_095.jpg,yellow,brown,NA,NA,NA,NA,NA,NA,NA,NA,NA,NaN,NA,13753,left,1,NA,NA,NA,NA,NA
sWeNyrz4,3087lxlj7ptluqx9bvztb5iuvan0fr,3ob0cao74l24s1iu5v34v2kjremyhe,sWeNyrz4,2020-0188,2021-10-31,08:02:38,10:31:19,NA,incomplete,false,NA,NA,true,3,8,NA,NA,NA,right,n_s_064.jpg,gray,blue,NA,NA,NA,NA,NA,NA,NA,NA,NA,NaN,NA,2952,right,1,NA,NA,NA,NA,NA
sWeNyrz4,3087lxlj7ptluqx9bvztb5iuvan0fr,3ob0cao74l24s1iu5v34v2kjremyhe,sWeNyrz4,2020-0188,2021-10-31,08:02:38,10:31:19,NA,incomplete,false,NA,NA,true,3,9,NA,NA,NA,right,n_s_039.jpg,brown,yellow,NA,NA,NA,NA,NA,NA,NA,NA,NA,NaN,NA,10261,left,0,NA,NA,NA,NA,NA
sWeNyrz4,3087lxlj7ptluqx9bvztb5iuvan0fr,3ob0cao74l24s1iu5v34v2kjremyhe,sWeNyrz4,2020-0188,2021-10-31,08:02:38,10:31:19,NA,incomplete,false,NA,NA,true,3,10,NA,NA,NA,left,n_s_056.jpg,brown,yellow,NA,NA,NA,NA,NA,NA,NA,NA,NA,NaN,NA,2874,left,1,NA,NA,NA,NA,NA
sWeNyrz4,3087lxlj7ptluqx9bvztb5iuvan0fr,3ob0cao74l24s1iu5v34v2kjremyhe,sWeNyrz4,2020-0188,2021-10-31,08:02:38,10:31:19,NA,incomplete,false,NA,NA,true,3,11,NA,NA,NA,right,m_l_069.jpg,blue,gray,NA,NA,NA,NA,NA,NA,NA,NA,NA,NaN,NA,2180,right,1,NA,NA,NA,NA,NA
sWeNyrz4,3087lxlj7ptluqx9bvztb5iuvan0fr,3ob0cao74l24s1iu5v34v2kjremyhe,sWeNyrz4,2020-0188,2021-10-31,08:02:38,10:31:19,NA,incomplete,false,NA,NA,true,3,12,NA,NA,NA,right,m_s_117.jpg,red,white,NA,NA,NA,NA,NA,NA,NA,NA,NA,NaN,NA,2340,right,1,NA,NA,NA,NA,NA
sWeNyrz4,3087lxlj7ptluqx9bvztb5iuvan0fr,3ob0cao74l24s1iu5v34v2kjremyhe,sWeNyrz4,2020-0188,2021-10-31,08:02:38,10:31:19,NA,incomplete,false,NA,NA,true,3,13,NA,NA,NA,left,m_s_039.jpg,gray,blue,NA,NA,NA,NA,NA,NA,NA,NA,NA,NaN,NA,3319,left,1,NA,NA,NA,NA,NA
sWeNyrz4,3087lxlj7ptluqx9bvztb5iuvan0fr,3ob0cao74l24s1iu5v34v2kjremyhe,sWeNyrz4,2020-0188,2021-10-31,08:02:38,10:31:19,NA,incomplete,false,NA,NA,true,3,14,NA,NA,NA,left,m_l_061.jpg,brown,yellow,NA,NA,NA,NA,NA,NA,NA,NA,NA,NaN,NA,4233,left,1,NA,NA,NA,NA,NA
sWeNyrz4,3087lxlj7ptluqx9bvztb5iuvan0fr,3ob0cao74l24s1iu5v34v2kjremyhe,sWeNyrz4,2020-0188,2021-10-31,08:02:38,10:31:19,NA,incomplete,false,NA,NA,true,3,15,NA,NA,NA,right,m_l_044.jpg,blue,red,NA,NA,NA,NA,NA,NA,NA,NA,NA,NaN,NA,5748,right,1,NA,NA,NA,NA,NA
sWeNyrz4,3087lxlj7ptluqx9bvztb5iuvan0fr,3ob0cao74l24s1iu5v34v2kjremyhe,sWeNyrz4,2020-0188,2021-10-31,08:02:38,10:31:19,NA,incomplete,false,NA,NA,true,3,16,NA,NA,NA,left,n_s_114.jpg,brown,white,NA,NA,NA,NA,NA,NA,NA,NA,NA,NaN,NA,3160,right,0,NA,NA,NA,NA,NA
sWeNyrz4,3087lxlj7ptluqx9bvztb5iuvan0fr,3ob0cao74l24s1iu5v34v2kjremyhe,sWeNyrz4,2020-0188,2021-10-31,08:02:38,10:31:19,NA,incomplete,false,NA,NA,true,3,17,NA,NA,NA,left,m_s_082.jpg,red,white,NA,NA,NA,NA,NA,NA,NA,NA,NA,NaN,NA,2349,left,1,NA,NA,NA,NA,NA
sWeNyrz4,3087lxlj7ptluqx9bvztb5iuvan0fr,3ob0cao74l24s1iu5v34v2kjremyhe,sWeNyrz4,2020-0188,2021-10-31,08:02:38,10:31:19,NA,incomplete,false,NA,NA,true,3,18,NA,NA,NA,left,m_l_107.jpg,gray,blue,NA,NA,NA,NA,NA,NA,NA,NA,NA,NaN,NA,2543,left,1,NA,NA,NA,NA,NA
sWeNyrz4,3087lxlj7ptluqx9bvztb5iuvan0fr,3ob0cao74l24s1iu5v34v2kjremyhe,sWeNyrz4,2020-0188,2021-10-31,08:02:38,10:31:19,NA,incomplete,false,NA,NA,true,3,19,NA,NA,NA,right,n_s_024.jpg,white,brown,NA,NA,NA,NA,NA,NA,NA,NA,NA,NaN,NA,4331,left,0,NA,NA,NA,NA,NA
sWeNyrz4,3087lxlj7ptluqx9bvztb5iuvan0fr,3ob0cao74l24s1iu5v34v2kjremyhe,sWeNyrz4,2020-0188,2021-10-31,08:02:38,10:31:19,NA,incomplete,false,NA,NA,true,3,20,NA,NA,NA,right,n_s_054.jpg,red,white,NA,NA,NA,NA,NA,NA,NA,NA,NA,NaN,NA,6946,left,0,NA,NA,NA,NA,NA
sWeNyrz4,3087lxlj7ptluqx9bvztb5iuvan0fr,3ob0cao74l24s1iu5v34v2kjremyhe,sWeNyrz4,2020-0188,2021-10-31,08:02:38,10:31:19,NA,incomplete,false,NA,NA,true,3,21,NA,NA,NA,right,n_l_025.jpg,white,red,NA,NA,NA,NA,NA,NA,NA,NA,NA,NaN,NA,5760,right,1,NA,NA,NA,NA,NA
sWeNyrz4,3087lxlj7ptluqx9bvztb5iuvan0fr,3ob0cao74l24s1iu5v34v2kjremyhe,sWeNyrz4,2020-0188,2021-10-31,08:02:38,10:31:19,NA,incomplete,false,NA,true,NA,3,0,NA,NA,NA,right,NA,NA,NA,present,NA,NA,m_l_095.jpg,yellow,m_l_073.jpg,yellow,within,NA,NaN,NA,NA,NA,NA,right,19609,1,0,2516
sWeNyrz4,3087lxlj7ptluqx9bvztb5iuvan0fr,3ob0cao74l24s1iu5v34v2kjremyhe,sWeNyrz4,2020-0188,2021-10-31,08:02:38,10:31:19,NA,incomplete,false,NA,true,NA,3,1,NA,NA,NA,right,NA,NA,NA,present,NA,NA,m_s_039.jpg,gray,m_l_107.jpg,gray,within,NA,NaN,NA,NA,NA,NA,left,12535,0,0,2102
sWeNyrz4,3087lxlj7ptluqx9bvztb5iuvan0fr,3ob0cao74l24s1iu5v34v2kjremyhe,sWeNyrz4,2020-0188,2021-10-31,08:02:38,10:31:19,NA,incomplete,false,NA,true,NA,3,2,NA,NA,NA,left,NA,NA,NA,present,NA,NA,n_l_080.jpg,white,m_s_082.jpg,red,between,NA,NaN,NA,NA,NA,NA,right,29669,0,2,11380
sWeNyrz4,3087lxlj7ptluqx9bvztb5iuvan0fr,3ob0cao74l24s1iu5v34v2kjremyhe,sWeNyrz4,2020-0188,2021-10-31,08:02:38,10:31:19,NA,incomplete,false,NA,true,NA,3,3,NA,NA,NA,left,NA,NA,NA,present,NA,NA,m_l_061.jpg,brown,n_s_054.jpg,white,between,NA,NaN,NA,NA,NA,NA,left,8075,1,3,4210
sWeNyrz4,3087lxlj7ptluqx9bvztb5iuvan0fr,3ob0cao74l24s1iu5v34v2kjremyhe,sWeNyrz4,2020-0188,2021-10-31,08:02:38,10:31:19,NA,incomplete,false,NA,true,NA,3,4,NA,NA,NA,left,NA,NA,NA,present,NA,NA,n_s_039.jpg,yellow,n_s_056.jpg,brown,between,NA,NaN,NA,NA,NA,NA,left,4806,1,2,7793
sWeNyrz4,3087lxlj7ptluqx9bvztb5iuvan0fr,3ob0cao74l24s1iu5v34v2kjremyhe,sWeNyrz4,2020-0188,2021-10-31,08:02:38,10:31:19,NA,incomplete,false,NA,true,NA,3,5,NA,NA,NA,right,NA,NA,NA,present,NA,NA,m_s_117.jpg,white,m_l_050.jpg,white,within,NA,NaN,NA,NA,NA,NA,right,4175,1,0,4044
sWeNyrz4,3087lxlj7ptluqx9bvztb5iuvan0fr,3ob0cao74l24s1iu5v34v2kjremyhe,sWeNyrz4,2020-0188,2021-10-31,08:02:38,10:31:19,NA,incomplete,false,NA,true,NA,3,6,NA,NA,NA,right,NA,NA,NA,present,NA,NA,m_s_094.jpg,blue,n_l_025.jpg,red,between,NA,NaN,NA,NA,NA,NA,right,8511,1,3,6439
sWeNyrz4,3087lxlj7ptluqx9bvztb5iuvan0fr,3ob0cao74l24s1iu5v34v2kjremyhe,sWeNyrz4,2020-0188,2021-10-31,08:02:38,10:31:19,NA,incomplete,false,NA,true,NA,3,7,NA,NA,NA,right,NA,NA,NA,present,NA,NA,m_l_044.jpg,red,n_s_072.jpg,red,within,NA,NaN,NA,NA,NA,NA,right,5606,1,0,2084
sWeNyrz4,3087lxlj7ptluqx9bvztb5iuvan0fr,3ob0cao74l24s1iu5v34v2kjremyhe,sWeNyrz4,2020-0188,2021-10-31,08:02:38,10:31:19,NA,incomplete,false,NA,true,NA,3,8,NA,NA,NA,left,NA,NA,NA,present,NA,NA,m_s_041.jpg,blue,m_l_069.jpg,gray,between,NA,NaN,NA,NA,NA,NA,left,10219,1,2,1727
sWeNyrz4,3087lxlj7ptluqx9bvztb5iuvan0fr,3ob0cao74l24s1iu5v34v2kjremyhe,sWeNyrz4,2020-0188,2021-10-31,08:02:38,10:31:19,NA,incomplete,false,NA,true,NA,3,9,NA,NA,NA,right,NA,NA,NA,present,NA,NA,n_s_114.jpg,brown,n_s_024.jpg,brown,within,NA,NaN,NA,NA,NA,NA,right,6345,1,0,1674
sWeNyrz4,3087lxlj7ptluqx9bvztb5iuvan0fr,3ob0cao74l24s1iu5v34v2kjremyhe,sWeNyrz4,2020-0188,2021-10-31,08:02:38,10:31:19,NA,incomplete,false,NA,true,NA,3,10,NA,NA,NA,left,NA,NA,NA,present,NA,NA,n_l_027.jpg,blue,n_s_064.jpg,blue,within,NA,NaN,NA,NA,NA,NA,left,3419,1,0,2384
sWeNyrz4,3087lxlj7ptluqx9bvztb5iuvan0fr,3ob0cao74l24s1iu5v34v2kjremyhe,sWeNyrz4,2020-0188,2021-10-31,08:02:38,10:31:19,NA,incomplete,false,true,NA,NA,4,0,NA,gray,m_s_085.jpg,NA,NA,NA,NA,NA,pleasant,unpleasant,NA,NA,NA,NA,NA,right,2022,true,NA,NA,NA,NA,NA,NA,NA,NA
sWeNyrz4,3087lxlj7ptluqx9bvztb5iuvan0fr,3ob0cao74l24s1iu5v34v2kjremyhe,sWeNyrz4,2020-0188,2021-10-31,08:02:38,10:31:19,NA,incomplete,false,true,NA,NA,4,1,NA,gray,m_l_104.jpg,NA,NA,NA,NA,NA,pleasant,unpleasant,NA,NA,NA,NA,NA,right,1046,true,NA,NA,NA,NA,NA,NA,NA,NA
sWeNyrz4,3087lxlj7ptluqx9bvztb5iuvan0fr,3ob0cao74l24s1iu5v34v2kjremyhe,sWeNyrz4,2020-0188,2021-10-31,08:02:38,10:31:19,NA,incomplete,false,true,NA,NA,4,2,NA,gray,n_s_053.jpg,NA,NA,NA,NA,NA,pleasant,unpleasant,NA,NA,NA,NA,NA,right,2231,true,NA,NA,NA,NA,NA,NA,NA,NA
sWeNyrz4,3087lxlj7ptluqx9bvztb5iuvan0fr,3ob0cao74l24s1iu5v34v2kjremyhe,sWeNyrz4,2020-0188,2021-10-31,08:02:38,10:31:19,NA,incomplete,false,true,NA,NA,4,3,NA,gray,n_s_015.jpg,NA,NA,NA,NA,NA,unpleasant,pleasant,NA,NA,NA,NA,NA,right,1896,true,NA,NA,NA,NA,NA,NA,NA,NA
sWeNyrz4,3087lxlj7ptluqx9bvztb5iuvan0fr,3ob0cao74l24s1iu5v34v2kjremyhe,sWeNyrz4,2020-0188,2021-10-31,08:02:38,10:31:19,NA,incomplete,false,true,NA,NA,4,4,NA,gray,n_l_059.jpg,NA,NA,NA,NA,NA,pleasant,unpleasant,NA,NA,NA,NA,NA,right,1822,true,NA,NA,NA,NA,NA,NA,NA,NA
sWeNyrz4,3087lxlj7ptluqx9bvztb5iuvan0fr,3ob0cao74l24s1iu5v34v2kjremyhe,sWeNyrz4,2020-0188,2021-10-31,08:02:38,10:31:19,NA,incomplete,false,true,NA,NA,4,5,NA,gray,m_l_033.jpg,NA,NA,NA,NA,NA,unpleasant,pleasant,NA,NA,NA,NA,NA,right,2008,true,NA,NA,NA,NA,NA,NA,NA,NA
sWeNyrz4,3087lxlj7ptluqx9bvztb5iuvan0fr,3ob0cao74l24s1iu5v34v2kjremyhe,sWeNyrz4,2020-0188,2021-10-31,08:02:38,10:31:19,NA,incomplete,false,true,NA,NA,4,6,NA,black,m_s_103.jpg,NA,NA,NA,NA,NA,unpleasant,pleasant,NA,NA,NA,NA,NA,right,2332,true,NA,NA,NA,NA,NA,NA,NA,NA
sWeNyrz4,3087lxlj7ptluqx9bvztb5iuvan0fr,3ob0cao74l24s1iu5v34v2kjremyhe,sWeNyrz4,2020-0188,2021-10-31,08:02:38,10:31:19,NA,incomplete,false,true,NA,NA,4,7,NA,black,n_l_070.jpg,NA,NA,NA,NA,NA,unpleasant,pleasant,NA,NA,NA,NA,NA,right,1237,true,NA,NA,NA,NA,NA,NA,NA,NA
sWeNyrz4,3087lxlj7ptluqx9bvztb5iuvan0fr,3ob0cao74l24s1iu5v34v2kjremyhe,sWeNyrz4,2020-0188,2021-10-31,08:02:38,10:31:19,NA,incomplete,false,true,NA,NA,4,8,NA,black,m_s_050.jpg,NA,NA,NA,NA,NA,unpleasant,pleasant,NA,NA,NA,NA,NA,left,1926,true,NA,NA,NA,NA,NA,NA,NA,NA
sWeNyrz4,3087lxlj7ptluqx9bvztb5iuvan0fr,3ob0cao74l24s1iu5v34v2kjremyhe,sWeNyrz4,2020-0188,2021-10-31,08:02:38,10:31:19,NA,incomplete,false,true,NA,NA,4,9,NA,black,m_s_060.jpg,NA,NA,NA,NA,NA,unpleasant,pleasant,NA,NA,NA,NA,NA,left,1683,true,NA,NA,NA,NA,NA,NA,NA,NA
sWeNyrz4,3087lxlj7ptluqx9bvztb5iuvan0fr,3ob0cao74l24s1iu5v34v2kjremyhe,sWeNyrz4,2020-0188,2021-10-31,08:02:38,10:31:19,NA,incomplete,false,true,NA,NA,4,10,NA,black,n_l_106.jpg,NA,NA,NA,NA,NA,unpleasant,pleasant,NA,NA,NA,NA,NA,left,2402,true,NA,NA,NA,NA,NA,NA,NA,NA
sWeNyrz4,3087lxlj7ptluqx9bvztb5iuvan0fr,3ob0cao74l24s1iu5v34v2kjremyhe,sWeNyrz4,2020-0188,2021-10-31,08:02:38,10:31:19,NA,incomplete,false,true,NA,NA,4,11,NA,black,n_l_066.jpg,NA,NA,NA,NA,NA,pleasant,unpleasant,NA,NA,NA,NA,NA,right,2031,true,NA,NA,NA,NA,NA,NA,NA,NA
sWeNyrz4,3087lxlj7ptluqx9bvztb5iuvan0fr,3ob0cao74l24s1iu5v34v2kjremyhe,sWeNyrz4,2020-0188,2021-10-31,08:02:38,10:31:19,NA,incomplete,false,true,NA,NA,4,12,NA,red,n_l_028.jpg,NA,NA,NA,NA,NA,pleasant,unpleasant,NA,NA,NA,NA,NA,left,1838,true,NA,NA,NA,NA,NA,NA,NA,NA
sWeNyrz4,3087lxlj7ptluqx9bvztb5iuvan0fr,3ob0cao74l24s1iu5v34v2kjremyhe,sWeNyrz4,2020-0188,2021-10-31,08:02:38,10:31:19,NA,incomplete,false,true,NA,NA,4,13,NA,red,n_l_087.jpg,NA,NA,NA,NA,NA,pleasant,unpleasant,NA,NA,NA,NA,NA,right,2480,true,NA,NA,NA,NA,NA,NA,NA,NA
sWeNyrz4,3087lxlj7ptluqx9bvztb5iuvan0fr,3ob0cao74l24s1iu5v34v2kjremyhe,sWeNyrz4,2020-0188,2021-10-31,08:02:38,10:31:19,NA,incomplete,false,true,NA,NA,4,14,NA,red,n_s_086.jpg,NA,NA,NA,NA,NA,pleasant,unpleasant,NA,NA,NA,NA,NA,right,1526,true,NA,NA,NA,NA,NA,NA,NA,NA
sWeNyrz4,3087lxlj7ptluqx9bvztb5iuvan0fr,3ob0cao74l24s1iu5v34v2kjremyhe,sWeNyrz4,2020-0188,2021-10-31,08:02:38,10:31:19,NA,incomplete,false,true,NA,NA,4,15,NA,red,m_s_011.jpg,NA,NA,NA,NA,NA,pleasant,unpleasant,NA,NA,NA,NA,NA,right,2400,true,NA,NA,NA,NA,NA,NA,NA,NA
sWeNyrz4,3087lxlj7ptluqx9bvztb5iuvan0fr,3ob0cao74l24s1iu5v34v2kjremyhe,sWeNyrz4,2020-0188,2021-10-31,08:02:38,10:31:19,NA,incomplete,false,true,NA,NA,4,16,NA,red,m_s_017.jpg,NA,NA,NA,NA,NA,pleasant,unpleasant,NA,NA,NA,NA,NA,right,1345,true,NA,NA,NA,NA,NA,NA,NA,NA
sWeNyrz4,3087lxlj7ptluqx9bvztb5iuvan0fr,3ob0cao74l24s1iu5v34v2kjremyhe,sWeNyrz4,2020-0188,2021-10-31,08:02:38,10:31:19,NA,incomplete,false,true,NA,NA,4,17,NA,red,n_l_103.jpg,NA,NA,NA,NA,NA,unpleasant,pleasant,NA,NA,NA,NA,NA,left,2081,true,NA,NA,NA,NA,NA,NA,NA,NA
sWeNyrz4,3087lxlj7ptluqx9bvztb5iuvan0fr,3ob0cao74l24s1iu5v34v2kjremyhe,sWeNyrz4,2020-0188,2021-10-31,08:02:38,10:31:19,NA,incomplete,false,true,NA,NA,4,18,NA,green,n_s_055.jpg,NA,NA,NA,NA,NA,pleasant,unpleasant,NA,NA,NA,NA,NA,none,0,false,NA,NA,NA,NA,NA,NA,NA,NA
sWeNyrz4,3087lxlj7ptluqx9bvztb5iuvan0fr,3ob0cao74l24s1iu5v34v2kjremyhe,sWeNyrz4,2020-0188,2021-10-31,08:02:38,10:31:19,NA,incomplete,false,true,NA,NA,4,19,NA,green,n_l_102.jpg,NA,NA,NA,NA,NA,unpleasant,pleasant,NA,NA,NA,NA,NA,right,2430,true,NA,NA,NA,NA,NA,NA,NA,NA
sWeNyrz4,3087lxlj7ptluqx9bvztb5iuvan0fr,3ob0cao74l24s1iu5v34v2kjremyhe,sWeNyrz4,2020-0188,2021-10-31,08:02:38,10:31:19,NA,incomplete,false,true,NA,NA,4,20,NA,green,m_l_054.jpg,NA,NA,NA,NA,NA,pleasant,unpleasant,NA,NA,NA,NA,NA,right,1666,true,NA,NA,NA,NA,NA,NA,NA,NA
sWeNyrz4,3087lxlj7ptluqx9bvztb5iuvan0fr,3ob0cao74l24s1iu5v34v2kjremyhe,sWeNyrz4,2020-0188,2021-10-31,08:02:38,10:31:19,NA,incomplete,false,true,NA,NA,4,21,NA,green,n_s_005.jpg,NA,NA,NA,NA,NA,pleasant,unpleasant,NA,NA,NA,NA,NA,left,2150,true,NA,NA,NA,NA,NA,NA,NA,NA
sWeNyrz4,3087lxlj7ptluqx9bvztb5iuvan0fr,3ob0cao74l24s1iu5v34v2kjremyhe,sWeNyrz4,2020-0188,2021-10-31,08:02:38,10:31:19,NA,incomplete,false,true,NA,NA,4,22,NA,green,m_l_116.jpg,NA,NA,NA,NA,NA,pleasant,unpleasant,NA,NA,NA,NA,NA,right,1655,true,NA,NA,NA,NA,NA,NA,NA,NA
sWeNyrz4,3087lxlj7ptluqx9bvztb5iuvan0fr,3ob0cao74l24s1iu5v34v2kjremyhe,sWeNyrz4,2020-0188,2021-10-31,08:02:38,10:31:19,NA,incomplete,false,true,NA,NA,4,23,NA,green,m_l_052.jpg,NA,NA,NA,NA,NA,pleasant,unpleasant,NA,NA,NA,NA,NA,right,1268,true,NA,NA,NA,NA,NA,NA,NA,NA
sWeNyrz4,3087lxlj7ptluqx9bvztb5iuvan0fr,3ob0cao74l24s1iu5v34v2kjremyhe,sWeNyrz4,2020-0188,2021-10-31,08:02:38,10:31:19,NA,incomplete,false,true,NA,NA,4,24,NA,purple,n_s_082.jpg,NA,NA,NA,NA,NA,pleasant,unpleasant,NA,NA,NA,NA,NA,right,1590,true,NA,NA,NA,NA,NA,NA,NA,NA
sWeNyrz4,3087lxlj7ptluqx9bvztb5iuvan0fr,3ob0cao74l24s1iu5v34v2kjremyhe,sWeNyrz4,2020-0188,2021-10-31,08:02:38,10:31:19,NA,incomplete,false,true,NA,NA,4,25,NA,purple,n_l_035.jpg,NA,NA,NA,NA,NA,unpleasant,pleasant,NA,NA,NA,NA,NA,right,1474,true,NA,NA,NA,NA,NA,NA,NA,NA
sWeNyrz4,3087lxlj7ptluqx9bvztb5iuvan0fr,3ob0cao74l24s1iu5v34v2kjremyhe,sWeNyrz4,2020-0188,2021-10-31,08:02:38,10:31:19,NA,incomplete,false,true,NA,NA,4,26,NA,purple,m_s_016.jpg,NA,NA,NA,NA,NA,pleasant,unpleasant,NA,NA,NA,NA,NA,right,1560,true,NA,NA,NA,NA,NA,NA,NA,NA
sWeNyrz4,3087lxlj7ptluqx9bvztb5iuvan0fr,3ob0cao74l24s1iu5v34v2kjremyhe,sWeNyrz4,2020-0188,2021-10-31,08:02:38,10:31:19,NA,incomplete,false,true,NA,NA,4,27,NA,purple,n_l_015.jpg,NA,NA,NA,NA,NA,pleasant,unpleasant,NA,NA,NA,NA,NA,right,1186,true,NA,NA,NA,NA,NA,NA,NA,NA
sWeNyrz4,3087lxlj7ptluqx9bvztb5iuvan0fr,3ob0cao74l24s1iu5v34v2kjremyhe,sWeNyrz4,2020-0188,2021-10-31,08:02:38,10:31:19,NA,incomplete,false,true,NA,NA,4,28,NA,purple,m_s_042.jpg,NA,NA,NA,NA,NA,pleasant,unpleasant,NA,NA,NA,NA,NA,right,1802,true,NA,NA,NA,NA,NA,NA,NA,NA
sWeNyrz4,3087lxlj7ptluqx9bvztb5iuvan0fr,3ob0cao74l24s1iu5v34v2kjremyhe,sWeNyrz4,2020-0188,2021-10-31,08:02:38,10:31:19,NA,incomplete,false,true,NA,NA,4,29,NA,purple,n_l_052.jpg,NA,NA,NA,NA,NA,pleasant,unpleasant,NA,NA,NA,NA,NA,left,2981,true,NA,NA,NA,NA,NA,NA,NA,NA
sWeNyrz4,3087lxlj7ptluqx9bvztb5iuvan0fr,3ob0cao74l24s1iu5v34v2kjremyhe,sWeNyrz4,2020-0188,2021-10-31,08:02:38,10:31:19,NA,incomplete,false,true,NA,NA,4,30,NA,yellow,m_l_013.jpg,NA,NA,NA,NA,NA,unpleasant,pleasant,NA,NA,NA,NA,NA,left,2652,true,NA,NA,NA,NA,NA,NA,NA,NA
sWeNyrz4,3087lxlj7ptluqx9bvztb5iuvan0fr,3ob0cao74l24s1iu5v34v2kjremyhe,sWeNyrz4,2020-0188,2021-10-31,08:02:38,10:31:19,NA,incomplete,false,true,NA,NA,4,31,NA,yellow,n_s_033.jpg,NA,NA,NA,NA,NA,unpleasant,pleasant,NA,NA,NA,NA,NA,right,1430,true,NA,NA,NA,NA,NA,NA,NA,NA
sWeNyrz4,3087lxlj7ptluqx9bvztb5iuvan0fr,3ob0cao74l24s1iu5v34v2kjremyhe,sWeNyrz4,2020-0188,2021-10-31,08:02:38,10:31:19,NA,incomplete,false,true,NA,NA,4,32,NA,yellow,m_l_096.jpg,NA,NA,NA,NA,NA,unpleasant,pleasant,NA,NA,NA,NA,NA,left,1260,true,NA,NA,NA,NA,NA,NA,NA,NA
sWeNyrz4,3087lxlj7ptluqx9bvztb5iuvan0fr,3ob0cao74l24s1iu5v34v2kjremyhe,sWeNyrz4,2020-0188,2021-10-31,08:02:38,10:31:19,NA,incomplete,false,true,NA,NA,4,33,NA,yellow,m_l_105.jpg,NA,NA,NA,NA,NA,unpleasant,pleasant,NA,NA,NA,NA,NA,left,2121,true,NA,NA,NA,NA,NA,NA,NA,NA
sWeNyrz4,3087lxlj7ptluqx9bvztb5iuvan0fr,3ob0cao74l24s1iu5v34v2kjremyhe,sWeNyrz4,2020-0188,2021-10-31,08:02:38,10:31:19,NA,incomplete,false,true,NA,NA,4,34,NA,yellow,m_s_055.jpg,NA,NA,NA,NA,NA,pleasant,unpleasant,NA,NA,NA,NA,NA,right,2046,true,NA,NA,NA,NA,NA,NA,NA,NA
sWeNyrz4,3087lxlj7ptluqx9bvztb5iuvan0fr,3ob0cao74l24s1iu5v34v2kjremyhe,sWeNyrz4,2020-0188,2021-10-31,08:02:38,10:31:19,NA,incomplete,false,true,NA,NA,4,35,NA,yellow,m_l_057.jpg,NA,NA,NA,NA,NA,pleasant,unpleasant,NA,NA,NA,NA,NA,right,1383,true,NA,NA,NA,NA,NA,NA,NA,NA
sWeNyrz4,3087lxlj7ptluqx9bvztb5iuvan0fr,3ob0cao74l24s1iu5v34v2kjremyhe,sWeNyrz4,2020-0188,2021-10-31,08:02:38,10:31:19,NA,incomplete,false,NA,NA,true,4,0,NA,NA,NA,left,m_s_042.jpg,purple,yellow,NA,NA,NA,NA,NA,NA,NA,NA,NA,NaN,NA,4258,left,1,NA,NA,NA,NA,NA
sWeNyrz4,3087lxlj7ptluqx9bvztb5iuvan0fr,3ob0cao74l24s1iu5v34v2kjremyhe,sWeNyrz4,2020-0188,2021-10-31,08:02:38,10:31:19,NA,incomplete,false,NA,NA,true,4,1,NA,NA,NA,right,m_s_050.jpg,red,black,NA,NA,NA,NA,NA,NA,NA,NA,NA,NaN,NA,2688,right,1,NA,NA,NA,NA,NA
sWeNyrz4,3087lxlj7ptluqx9bvztb5iuvan0fr,3ob0cao74l24s1iu5v34v2kjremyhe,sWeNyrz4,2020-0188,2021-10-31,08:02:38,10:31:19,NA,incomplete,false,NA,NA,true,4,2,NA,NA,NA,right,n_s_033.jpg,purple,yellow,NA,NA,NA,NA,NA,NA,NA,NA,NA,NaN,NA,3485,left,0,NA,NA,NA,NA,NA
sWeNyrz4,3087lxlj7ptluqx9bvztb5iuvan0fr,3ob0cao74l24s1iu5v34v2kjremyhe,sWeNyrz4,2020-0188,2021-10-31,08:02:38,10:31:19,NA,incomplete,false,NA,NA,true,4,3,NA,NA,NA,right,n_l_035.jpg,green,purple,NA,NA,NA,NA,NA,NA,NA,NA,NA,NaN,NA,5945,right,1,NA,NA,NA,NA,NA
sWeNyrz4,3087lxlj7ptluqx9bvztb5iuvan0fr,3ob0cao74l24s1iu5v34v2kjremyhe,sWeNyrz4,2020-0188,2021-10-31,08:02:38,10:31:19,NA,incomplete,false,NA,NA,true,4,4,NA,NA,NA,left,m_l_104.jpg,gray,black,NA,NA,NA,NA,NA,NA,NA,NA,NA,NaN,NA,3020,left,1,NA,NA,NA,NA,NA
sWeNyrz4,3087lxlj7ptluqx9bvztb5iuvan0fr,3ob0cao74l24s1iu5v34v2kjremyhe,sWeNyrz4,2020-0188,2021-10-31,08:02:38,10:31:19,NA,incomplete,false,NA,NA,true,4,5,NA,NA,NA,right,n_l_066.jpg,red,black,NA,NA,NA,NA,NA,NA,NA,NA,NA,NaN,NA,2520,right,1,NA,NA,NA,NA,NA
sWeNyrz4,3087lxlj7ptluqx9bvztb5iuvan0fr,3ob0cao74l24s1iu5v34v2kjremyhe,sWeNyrz4,2020-0188,2021-10-31,08:02:38,10:31:19,NA,incomplete,false,NA,NA,true,4,6,NA,NA,NA,left,m_s_017.jpg,red,green,NA,NA,NA,NA,NA,NA,NA,NA,NA,NaN,NA,4429,right,0,NA,NA,NA,NA,NA
sWeNyrz4,3087lxlj7ptluqx9bvztb5iuvan0fr,3ob0cao74l24s1iu5v34v2kjremyhe,sWeNyrz4,2020-0188,2021-10-31,08:02:38,10:31:19,NA,incomplete,false,NA,NA,true,4,7,NA,NA,NA,right,m_l_033.jpg,black,gray,NA,NA,NA,NA,NA,NA,NA,NA,NA,NaN,NA,3497,right,1,NA,NA,NA,NA,NA
sWeNyrz4,3087lxlj7ptluqx9bvztb5iuvan0fr,3ob0cao74l24s1iu5v34v2kjremyhe,sWeNyrz4,2020-0188,2021-10-31,08:02:38,10:31:19,NA,incomplete,false,NA,NA,true,4,8,NA,NA,NA,right,n_l_103.jpg,black,red,NA,NA,NA,NA,NA,NA,NA,NA,NA,NaN,NA,2929,left,0,NA,NA,NA,NA,NA
sWeNyrz4,3087lxlj7ptluqx9bvztb5iuvan0fr,3ob0cao74l24s1iu5v34v2kjremyhe,sWeNyrz4,2020-0188,2021-10-31,08:02:38,10:31:19,NA,incomplete,false,NA,NA,true,4,9,NA,NA,NA,right,n_l_052.jpg,green,purple,NA,NA,NA,NA,NA,NA,NA,NA,NA,NaN,NA,9079,right,1,NA,NA,NA,NA,NA
sWeNyrz4,3087lxlj7ptluqx9bvztb5iuvan0fr,3ob0cao74l24s1iu5v34v2kjremyhe,sWeNyrz4,2020-0188,2021-10-31,08:02:38,10:31:19,NA,incomplete,false,NA,NA,true,4,10,NA,NA,NA,left,m_l_116.jpg,green,purple,NA,NA,NA,NA,NA,NA,NA,NA,NA,NaN,NA,6166,left,1,NA,NA,NA,NA,NA
sWeNyrz4,3087lxlj7ptluqx9bvztb5iuvan0fr,3ob0cao74l24s1iu5v34v2kjremyhe,sWeNyrz4,2020-0188,2021-10-31,08:02:38,10:31:19,NA,incomplete,false,NA,NA,true,4,11,NA,NA,NA,left,n_s_086.jpg,red,green,NA,NA,NA,NA,NA,NA,NA,NA,NA,NaN,NA,9063,left,1,NA,NA,NA,NA,NA
sWeNyrz4,3087lxlj7ptluqx9bvztb5iuvan0fr,3ob0cao74l24s1iu5v34v2kjremyhe,sWeNyrz4,2020-0188,2021-10-31,08:02:38,10:31:19,NA,incomplete,false,NA,NA,true,4,12,NA,NA,NA,right,n_l_059.jpg,black,gray,NA,NA,NA,NA,NA,NA,NA,NA,NA,NaN,NA,3377,left,0,NA,NA,NA,NA,NA
sWeNyrz4,3087lxlj7ptluqx9bvztb5iuvan0fr,3ob0cao74l24s1iu5v34v2kjremyhe,sWeNyrz4,2020-0188,2021-10-31,08:02:38,10:31:19,NA,incomplete,false,NA,NA,true,4,13,NA,NA,NA,right,m_l_096.jpg,purple,yellow,NA,NA,NA,NA,NA,NA,NA,NA,NA,NaN,NA,19998,left,0,NA,NA,NA,NA,NA
sWeNyrz4,3087lxlj7ptluqx9bvztb5iuvan0fr,3ob0cao74l24s1iu5v34v2kjremyhe,sWeNyrz4,2020-0188,2021-10-31,08:02:38,10:31:19,NA,incomplete,false,NA,NA,true,4,14,NA,NA,NA,left,n_l_087.jpg,red,green,NA,NA,NA,NA,NA,NA,NA,NA,NA,NaN,NA,21894,right,0,NA,NA,NA,NA,NA
sWeNyrz4,3087lxlj7ptluqx9bvztb5iuvan0fr,3ob0cao74l24s1iu5v34v2kjremyhe,sWeNyrz4,2020-0188,2021-10-31,08:02:38,10:31:19,NA,incomplete,false,NA,NA,true,4,15,NA,NA,NA,right,m_l_057.jpg,purple,yellow,NA,NA,NA,NA,NA,NA,NA,NA,NA,NaN,NA,8344,left,0,NA,NA,NA,NA,NA
sWeNyrz4,3087lxlj7ptluqx9bvztb5iuvan0fr,3ob0cao74l24s1iu5v34v2kjremyhe,sWeNyrz4,2020-0188,2021-10-31,08:02:38,10:31:19,NA,incomplete,false,NA,NA,true,4,16,NA,NA,NA,left,n_l_102.jpg,green,purple,NA,NA,NA,NA,NA,NA,NA,NA,NA,NaN,NA,2551,right,0,NA,NA,NA,NA,NA
sWeNyrz4,3087lxlj7ptluqx9bvztb5iuvan0fr,3ob0cao74l24s1iu5v34v2kjremyhe,sWeNyrz4,2020-0188,2021-10-31,08:02:38,10:31:19,NA,incomplete,false,NA,NA,true,4,17,NA,NA,NA,left,n_l_106.jpg,black,gray,NA,NA,NA,NA,NA,NA,NA,NA,NA,NaN,NA,3089,left,1,NA,NA,NA,NA,NA
sWeNyrz4,3087lxlj7ptluqx9bvztb5iuvan0fr,3ob0cao74l24s1iu5v34v2kjremyhe,sWeNyrz4,2020-0188,2021-10-31,08:02:38,10:31:19,NA,incomplete,false,NA,NA,true,4,18,NA,NA,NA,left,m_s_016.jpg,purple,green,NA,NA,NA,NA,NA,NA,NA,NA,NA,NaN,NA,14489,left,1,NA,NA,NA,NA,NA
sWeNyrz4,3087lxlj7ptluqx9bvztb5iuvan0fr,3ob0cao74l24s1iu5v34v2kjremyhe,sWeNyrz4,2020-0188,2021-10-31,08:02:38,10:31:19,NA,incomplete,false,NA,NA,true,4,19,NA,NA,NA,left,m_l_052.jpg,green,red,NA,NA,NA,NA,NA,NA,NA,NA,NA,NaN,NA,3097,left,1,NA,NA,NA,NA,NA
sWeNyrz4,3087lxlj7ptluqx9bvztb5iuvan0fr,3ob0cao74l24s1iu5v34v2kjremyhe,sWeNyrz4,2020-0188,2021-10-31,08:02:38,10:31:19,NA,incomplete,false,NA,NA,true,4,20,NA,NA,NA,right,m_l_054.jpg,red,green,NA,NA,NA,NA,NA,NA,NA,NA,NA,NaN,NA,8659,right,1,NA,NA,NA,NA,NA
sWeNyrz4,3087lxlj7ptluqx9bvztb5iuvan0fr,3ob0cao74l24s1iu5v34v2kjremyhe,sWeNyrz4,2020-0188,2021-10-31,08:02:38,10:31:19,NA,incomplete,false,NA,NA,true,4,21,NA,NA,NA,right,n_l_070.jpg,gray,black,NA,NA,NA,NA,NA,NA,NA,NA,NA,NaN,NA,3539,left,0,NA,NA,NA,NA,NA
sWeNyrz4,3087lxlj7ptluqx9bvztb5iuvan0fr,3ob0cao74l24s1iu5v34v2kjremyhe,sWeNyrz4,2020-0188,2021-10-31,08:02:38,10:31:19,NA,incomplete,false,NA,true,NA,4,0,NA,NA,NA,right,NA,NA,NA,present,NA,NA,n_l_103.jpg,red,n_l_087.jpg,red,within,NA,NaN,NA,NA,NA,NA,left,9488,0,0,2481
sWeNyrz4,3087lxlj7ptluqx9bvztb5iuvan0fr,3ob0cao74l24s1iu5v34v2kjremyhe,sWeNyrz4,2020-0188,2021-10-31,08:02:38,10:31:19,NA,incomplete,false,NA,true,NA,4,1,NA,NA,NA,right,NA,NA,NA,present,NA,NA,m_l_096.jpg,yellow,m_s_042.jpg,purple,between,NA,NaN,NA,NA,NA,NA,right,6737,1,1,5275
sWeNyrz4,3087lxlj7ptluqx9bvztb5iuvan0fr,3ob0cao74l24s1iu5v34v2kjremyhe,sWeNyrz4,2020-0188,2021-10-31,08:02:38,10:31:19,NA,incomplete,false,NA,true,NA,4,2,NA,NA,NA,left,NA,NA,NA,present,NA,NA,n_s_033.jpg,yellow,m_l_057.jpg,yellow,within,NA,NaN,NA,NA,NA,NA,left,4750,1,0,2066
sWeNyrz4,3087lxlj7ptluqx9bvztb5iuvan0fr,3ob0cao74l24s1iu5v34v2kjremyhe,sWeNyrz4,2020-0188,2021-10-31,08:02:38,10:31:19,NA,incomplete,false,NA,true,NA,4,3,NA,NA,NA,left,NA,NA,NA,present,NA,NA,m_s_017.jpg,red,m_l_054.jpg,green,between,NA,NaN,NA,NA,NA,NA,left,4248,1,2,7648
sWeNyrz4,3087lxlj7ptluqx9bvztb5iuvan0fr,3ob0cao74l24s1iu5v34v2kjremyhe,sWeNyrz4,2020-0188,2021-10-31,08:02:38,10:31:19,NA,incomplete,false,NA,true,NA,4,4,NA,NA,NA,right,NA,NA,NA,present,NA,NA,m_s_050.jpg,black,n_l_059.jpg,gray,between,NA,NaN,NA,NA,NA,NA,right,4974,1,1,2690
sWeNyrz4,3087lxlj7ptluqx9bvztb5iuvan0fr,3ob0cao74l24s1iu5v34v2kjremyhe,sWeNyrz4,2020-0188,2021-10-31,08:02:38,10:31:19,NA,incomplete,false,NA,true,NA,4,5,NA,NA,NA,right,NA,NA,NA,present,NA,NA,m_s_016.jpg,purple,m_l_116.jpg,green,between,NA,NaN,NA,NA,NA,NA,right,6541,1,2,28654
sWeNyrz4,3087lxlj7ptluqx9bvztb5iuvan0fr,3ob0cao74l24s1iu5v34v2kjremyhe,sWeNyrz4,2020-0188,2021-10-31,08:02:38,10:31:19,NA,incomplete,false,NA,true,NA,4,6,NA,NA,NA,right,NA,NA,NA,present,NA,NA,n_l_052.jpg,purple,n_l_035.jpg,purple,within,NA,NaN,NA,NA,NA,NA,right,6289,1,0,1959
sWeNyrz4,3087lxlj7ptluqx9bvztb5iuvan0fr,3ob0cao74l24s1iu5v34v2kjremyhe,sWeNyrz4,2020-0188,2021-10-31,08:02:38,10:31:19,NA,incomplete,false,NA,true,NA,4,7,NA,NA,NA,left,NA,NA,NA,present,NA,NA,n_l_102.jpg,green,m_l_052.jpg,green,within,NA,NaN,NA,NA,NA,NA,right,6133,0,0,2202
sWeNyrz4,3087lxlj7ptluqx9bvztb5iuvan0fr,3ob0cao74l24s1iu5v34v2kjremyhe,sWeNyrz4,2020-0188,2021-10-31,08:02:38,10:31:19,NA,incomplete,false,NA,true,NA,4,8,NA,NA,NA,left,NA,NA,NA,present,NA,NA,n_l_070.jpg,black,n_l_066.jpg,black,within,NA,NaN,NA,NA,NA,NA,right,4434,0,0,2100
sWeNyrz4,3087lxlj7ptluqx9bvztb5iuvan0fr,3ob0cao74l24s1iu5v34v2kjremyhe,sWeNyrz4,2020-0188,2021-10-31,08:02:38,10:31:19,NA,incomplete,false,NA,true,NA,4,9,NA,NA,NA,right,NA,NA,NA,present,NA,NA,m_l_033.jpg,gray,m_l_104.jpg,gray,within,NA,NaN,NA,NA,NA,NA,right,10368,1,0,1746
sWeNyrz4,3087lxlj7ptluqx9bvztb5iuvan0fr,3ob0cao74l24s1iu5v34v2kjremyhe,sWeNyrz4,2020-0188,2021-10-31,08:02:38,10:31:19,NA,incomplete,false,NA,true,NA,4,10,NA,NA,NA,left,NA,NA,NA,present,NA,NA,n_l_106.jpg,black,n_s_086.jpg,red,between,NA,NaN,NA,NA,NA,NA,left,5283,1,2,1570
sWeNyrz4,3087lxlj7ptluqx9bvztb5iuvan0fr,3ob0cao74l24s1iu5v34v2kjremyhe,sWeNyrz4,2020-0188,2021-10-31,08:02:38,10:31:19,NA,incomplete,false,true,NA,NA,5,0,NA,green,m_s_099.jpg,NA,NA,NA,NA,NA,unpleasant,pleasant,NA,NA,NA,NA,NA,left,2066,true,NA,NA,NA,NA,NA,NA,NA,NA
sWeNyrz4,3087lxlj7ptluqx9bvztb5iuvan0fr,3ob0cao74l24s1iu5v34v2kjremyhe,sWeNyrz4,2020-0188,2021-10-31,08:02:38,10:31:19,NA,incomplete,false,true,NA,NA,5,1,NA,green,m_s_095.jpg,NA,NA,NA,NA,NA,pleasant,unpleasant,NA,NA,NA,NA,NA,right,2517,true,NA,NA,NA,NA,NA,NA,NA,NA
sWeNyrz4,3087lxlj7ptluqx9bvztb5iuvan0fr,3ob0cao74l24s1iu5v34v2kjremyhe,sWeNyrz4,2020-0188,2021-10-31,08:02:38,10:31:19,NA,incomplete,false,true,NA,NA,5,2,NA,green,m_l_011.jpg,NA,NA,NA,NA,NA,unpleasant,pleasant,NA,NA,NA,NA,NA,left,2029,true,NA,NA,NA,NA,NA,NA,NA,NA
sWeNyrz4,3087lxlj7ptluqx9bvztb5iuvan0fr,3ob0cao74l24s1iu5v34v2kjremyhe,sWeNyrz4,2020-0188,2021-10-31,08:02:38,10:31:19,NA,incomplete,false,true,NA,NA,5,3,NA,green,m_l_065.jpg,NA,NA,NA,NA,NA,unpleasant,pleasant,NA,NA,NA,NA,NA,right,1811,true,NA,NA,NA,NA,NA,NA,NA,NA
sWeNyrz4,3087lxlj7ptluqx9bvztb5iuvan0fr,3ob0cao74l24s1iu5v34v2kjremyhe,sWeNyrz4,2020-0188,2021-10-31,08:02:38,10:31:19,NA,incomplete,false,true,NA,NA,5,4,NA,green,m_l_087.jpg,NA,NA,NA,NA,NA,pleasant,unpleasant,NA,NA,NA,NA,NA,right,2887,true,NA,NA,NA,NA,NA,NA,NA,NA
sWeNyrz4,3087lxlj7ptluqx9bvztb5iuvan0fr,3ob0cao74l24s1iu5v34v2kjremyhe,sWeNyrz4,2020-0188,2021-10-31,08:02:38,10:31:19,NA,incomplete,false,true,NA,NA,5,5,NA,green,m_s_106.jpg,NA,NA,NA,NA,NA,pleasant,unpleasant,NA,NA,NA,NA,NA,left,1790,true,NA,NA,NA,NA,NA,NA,NA,NA
sWeNyrz4,3087lxlj7ptluqx9bvztb5iuvan0fr,3ob0cao74l24s1iu5v34v2kjremyhe,sWeNyrz4,2020-0188,2021-10-31,08:02:38,10:31:19,NA,incomplete,false,true,NA,NA,5,6,NA,yellow,n_s_001.jpg,NA,NA,NA,NA,NA,unpleasant,pleasant,NA,NA,NA,NA,NA,left,1751,true,NA,NA,NA,NA,NA,NA,NA,NA
sWeNyrz4,3087lxlj7ptluqx9bvztb5iuvan0fr,3ob0cao74l24s1iu5v34v2kjremyhe,sWeNyrz4,2020-0188,2021-10-31,08:02:38,10:31:19,NA,incomplete,false,true,NA,NA,5,7,NA,yellow,n_s_071.jpg,NA,NA,NA,NA,NA,unpleasant,pleasant,NA,NA,NA,NA,NA,right,1951,true,NA,NA,NA,NA,NA,NA,NA,NA
sWeNyrz4,3087lxlj7ptluqx9bvztb5iuvan0fr,3ob0cao74l24s1iu5v34v2kjremyhe,sWeNyrz4,2020-0188,2021-10-31,08:02:38,10:31:19,NA,incomplete,false,true,NA,NA,5,8,NA,yellow,n_l_079.jpg,NA,NA,NA,NA,NA,pleasant,unpleasant,NA,NA,NA,NA,NA,left,1919,true,NA,NA,NA,NA,NA,NA,NA,NA
sWeNyrz4,3087lxlj7ptluqx9bvztb5iuvan0fr,3ob0cao74l24s1iu5v34v2kjremyhe,sWeNyrz4,2020-0188,2021-10-31,08:02:38,10:31:19,NA,incomplete,false,true,NA,NA,5,9,NA,yellow,n_s_110.jpg,NA,NA,NA,NA,NA,unpleasant,pleasant,NA,NA,NA,NA,NA,left,2481,true,NA,NA,NA,NA,NA,NA,NA,NA
sWeNyrz4,3087lxlj7ptluqx9bvztb5iuvan0fr,3ob0cao74l24s1iu5v34v2kjremyhe,sWeNyrz4,2020-0188,2021-10-31,08:02:38,10:31:19,NA,incomplete,false,true,NA,NA,5,10,NA,yellow,m_s_033.jpg,NA,NA,NA,NA,NA,pleasant,unpleasant,NA,NA,NA,NA,NA,left,2513,true,NA,NA,NA,NA,NA,NA,NA,NA
sWeNyrz4,3087lxlj7ptluqx9bvztb5iuvan0fr,3ob0cao74l24s1iu5v34v2kjremyhe,sWeNyrz4,2020-0188,2021-10-31,08:02:38,10:31:19,NA,incomplete,false,true,NA,NA,5,11,NA,yellow,m_l_066.jpg,NA,NA,NA,NA,NA,pleasant,unpleasant,NA,NA,NA,NA,NA,right,1776,true,NA,NA,NA,NA,NA,NA,NA,NA
sWeNyrz4,3087lxlj7ptluqx9bvztb5iuvan0fr,3ob0cao74l24s1iu5v34v2kjremyhe,sWeNyrz4,2020-0188,2021-10-31,08:02:38,10:31:19,NA,incomplete,false,true,NA,NA,5,12,NA,blue,m_l_068.jpg,NA,NA,NA,NA,NA,pleasant,unpleasant,NA,NA,NA,NA,NA,left,2389,true,NA,NA,NA,NA,NA,NA,NA,NA
sWeNyrz4,3087lxlj7ptluqx9bvztb5iuvan0fr,3ob0cao74l24s1iu5v34v2kjremyhe,sWeNyrz4,2020-0188,2021-10-31,08:02:38,10:31:19,NA,incomplete,false,true,NA,NA,5,13,NA,blue,n_l_072.jpg,NA,NA,NA,NA,NA,pleasant,unpleasant,NA,NA,NA,NA,NA,right,1560,true,NA,NA,NA,NA,NA,NA,NA,NA
sWeNyrz4,3087lxlj7ptluqx9bvztb5iuvan0fr,3ob0cao74l24s1iu5v34v2kjremyhe,sWeNyrz4,2020-0188,2021-10-31,08:02:38,10:31:19,NA,incomplete,false,true,NA,NA,5,14,NA,blue,m_l_102.jpg,NA,NA,NA,NA,NA,unpleasant,pleasant,NA,NA,NA,NA,NA,right,2074,true,NA,NA,NA,NA,NA,NA,NA,NA
sWeNyrz4,3087lxlj7ptluqx9bvztb5iuvan0fr,3ob0cao74l24s1iu5v34v2kjremyhe,sWeNyrz4,2020-0188,2021-10-31,08:02:38,10:31:19,NA,incomplete,false,true,NA,NA,5,15,NA,blue,n_s_089.jpg,NA,NA,NA,NA,NA,unpleasant,pleasant,NA,NA,NA,NA,NA,right,2268,true,NA,NA,NA,NA,NA,NA,NA,NA
sWeNyrz4,3087lxlj7ptluqx9bvztb5iuvan0fr,3ob0cao74l24s1iu5v34v2kjremyhe,sWeNyrz4,2020-0188,2021-10-31,08:02:38,10:31:19,NA,incomplete,false,true,NA,NA,5,16,NA,blue,m_s_027.jpg,NA,NA,NA,NA,NA,unpleasant,pleasant,NA,NA,NA,NA,NA,left,1692,true,NA,NA,NA,NA,NA,NA,NA,NA
sWeNyrz4,3087lxlj7ptluqx9bvztb5iuvan0fr,3ob0cao74l24s1iu5v34v2kjremyhe,sWeNyrz4,2020-0188,2021-10-31,08:02:38,10:31:19,NA,incomplete,false,true,NA,NA,5,17,NA,blue,n_l_016.jpg,NA,NA,NA,NA,NA,pleasant,unpleasant,NA,NA,NA,NA,NA,right,1637,true,NA,NA,NA,NA,NA,NA,NA,NA
sWeNyrz4,3087lxlj7ptluqx9bvztb5iuvan0fr,3ob0cao74l24s1iu5v34v2kjremyhe,sWeNyrz4,2020-0188,2021-10-31,08:02:38,10:31:19,NA,incomplete,false,true,NA,NA,5,18,NA,orange,m_l_051.jpg,NA,NA,NA,NA,NA,pleasant,unpleasant,NA,NA,NA,NA,NA,left,1921,true,NA,NA,NA,NA,NA,NA,NA,NA
sWeNyrz4,3087lxlj7ptluqx9bvztb5iuvan0fr,3ob0cao74l24s1iu5v34v2kjremyhe,sWeNyrz4,2020-0188,2021-10-31,08:02:38,10:31:19,NA,incomplete,false,true,NA,NA,5,19,NA,orange,n_l_044.jpg,NA,NA,NA,NA,NA,unpleasant,pleasant,NA,NA,NA,NA,NA,right,1490,true,NA,NA,NA,NA,NA,NA,NA,NA
sWeNyrz4,3087lxlj7ptluqx9bvztb5iuvan0fr,3ob0cao74l24s1iu5v34v2kjremyhe,sWeNyrz4,2020-0188,2021-10-31,08:02:38,10:31:19,NA,incomplete,false,true,NA,NA,5,20,NA,orange,m_l_039.jpg,NA,NA,NA,NA,NA,pleasant,unpleasant,NA,NA,NA,NA,NA,right,2237,true,NA,NA,NA,NA,NA,NA,NA,NA
sWeNyrz4,3087lxlj7ptluqx9bvztb5iuvan0fr,3ob0cao74l24s1iu5v34v2kjremyhe,sWeNyrz4,2020-0188,2021-10-31,08:02:38,10:31:19,NA,incomplete,false,true,NA,NA,5,21,NA,orange,n_l_033.jpg,NA,NA,NA,NA,NA,unpleasant,pleasant,NA,NA,NA,NA,NA,left,1726,true,NA,NA,NA,NA,NA,NA,NA,NA
sWeNyrz4,3087lxlj7ptluqx9bvztb5iuvan0fr,3ob0cao74l24s1iu5v34v2kjremyhe,sWeNyrz4,2020-0188,2021-10-31,08:02:38,10:31:19,NA,incomplete,false,true,NA,NA,5,22,NA,orange,n_l_019.jpg,NA,NA,NA,NA,NA,pleasant,unpleasant,NA,NA,NA,NA,NA,right,2755,true,NA,NA,NA,NA,NA,NA,NA,NA
sWeNyrz4,3087lxlj7ptluqx9bvztb5iuvan0fr,3ob0cao74l24s1iu5v34v2kjremyhe,sWeNyrz4,2020-0188,2021-10-31,08:02:38,10:31:19,NA,incomplete,false,true,NA,NA,5,23,NA,orange,m_s_043.jpg,NA,NA,NA,NA,NA,unpleasant,pleasant,NA,NA,NA,NA,NA,left,1609,true,NA,NA,NA,NA,NA,NA,NA,NA
sWeNyrz4,3087lxlj7ptluqx9bvztb5iuvan0fr,3ob0cao74l24s1iu5v34v2kjremyhe,sWeNyrz4,2020-0188,2021-10-31,08:02:38,10:31:19,NA,incomplete,false,true,NA,NA,5,24,NA,red,m_s_067.jpg,NA,NA,NA,NA,NA,pleasant,unpleasant,NA,NA,NA,NA,NA,none,0,false,NA,NA,NA,NA,NA,NA,NA,NA
sWeNyrz4,3087lxlj7ptluqx9bvztb5iuvan0fr,3ob0cao74l24s1iu5v34v2kjremyhe,sWeNyrz4,2020-0188,2021-10-31,08:02:38,10:31:19,NA,incomplete,false,true,NA,NA,5,25,NA,red,m_s_014.jpg,NA,NA,NA,NA,NA,pleasant,unpleasant,NA,NA,NA,NA,NA,right,1393,true,NA,NA,NA,NA,NA,NA,NA,NA
sWeNyrz4,3087lxlj7ptluqx9bvztb5iuvan0fr,3ob0cao74l24s1iu5v34v2kjremyhe,sWeNyrz4,2020-0188,2021-10-31,08:02:38,10:31:19,NA,incomplete,false,true,NA,NA,5,26,NA,red,n_l_002.jpg,NA,NA,NA,NA,NA,unpleasant,pleasant,NA,NA,NA,NA,NA,right,1602,true,NA,NA,NA,NA,NA,NA,NA,NA
sWeNyrz4,3087lxlj7ptluqx9bvztb5iuvan0fr,3ob0cao74l24s1iu5v34v2kjremyhe,sWeNyrz4,2020-0188,2021-10-31,08:02:38,10:31:19,NA,incomplete,false,true,NA,NA,5,27,NA,red,m_l_098.jpg,NA,NA,NA,NA,NA,pleasant,unpleasant,NA,NA,NA,NA,NA,right,1591,true,NA,NA,NA,NA,NA,NA,NA,NA
sWeNyrz4,3087lxlj7ptluqx9bvztb5iuvan0fr,3ob0cao74l24s1iu5v34v2kjremyhe,sWeNyrz4,2020-0188,2021-10-31,08:02:38,10:31:19,NA,incomplete,false,true,NA,NA,5,28,NA,red,m_l_075.jpg,NA,NA,NA,NA,NA,unpleasant,pleasant,NA,NA,NA,NA,NA,right,1754,true,NA,NA,NA,NA,NA,NA,NA,NA
sWeNyrz4,3087lxlj7ptluqx9bvztb5iuvan0fr,3ob0cao74l24s1iu5v34v2kjremyhe,sWeNyrz4,2020-0188,2021-10-31,08:02:38,10:31:19,NA,incomplete,false,true,NA,NA,5,29,NA,red,m_l_035.jpg,NA,NA,NA,NA,NA,unpleasant,pleasant,NA,NA,NA,NA,NA,right,2688,true,NA,NA,NA,NA,NA,NA,NA,NA
sWeNyrz4,3087lxlj7ptluqx9bvztb5iuvan0fr,3ob0cao74l24s1iu5v34v2kjremyhe,sWeNyrz4,2020-0188,2021-10-31,08:02:38,10:31:19,NA,incomplete,false,true,NA,NA,5,30,NA,black,m_s_046.jpg,NA,NA,NA,NA,NA,pleasant,unpleasant,NA,NA,NA,NA,NA,none,0,false,NA,NA,NA,NA,NA,NA,NA,NA
sWeNyrz4,3087lxlj7ptluqx9bvztb5iuvan0fr,3ob0cao74l24s1iu5v34v2kjremyhe,sWeNyrz4,2020-0188,2021-10-31,08:02:38,10:31:19,NA,incomplete,false,true,NA,NA,5,31,NA,black,m_s_100.jpg,NA,NA,NA,NA,NA,pleasant,unpleasant,NA,NA,NA,NA,NA,left,1967,true,NA,NA,NA,NA,NA,NA,NA,NA
sWeNyrz4,3087lxlj7ptluqx9bvztb5iuvan0fr,3ob0cao74l24s1iu5v34v2kjremyhe,sWeNyrz4,2020-0188,2021-10-31,08:02:38,10:31:19,NA,incomplete,false,true,NA,NA,5,32,NA,black,n_s_032.jpg,NA,NA,NA,NA,NA,pleasant,unpleasant,NA,NA,NA,NA,NA,left,2542,true,NA,NA,NA,NA,NA,NA,NA,NA
