workerId,hitId,assignmentId,subject,studyid,exp_date,exp_start,exp_end,time_start,time_end,practice,encoding,memory,association,block,trial,event_order,event,stim,answer,object,left_context,right_context,context_type,label_left,label_right,left_image,left_event,right_image,right_event,condition,response,response_time,response_acc,association_response_time,association_response,association_acc,order_response,order_response_time,order_acc,distance_response,distance_response_time
75diWNKE,3fk4g712o0duz4m7qhicsa7sfszsso,3p1l2b7ad52ukjxiqt94l3foulwlox,75diWNKE,2020-0188,2021-10-31,07:58:03,09:24:54,NA,incomplete,true,true,NA,NA,0,0,NA,red,m_l_011.jpg,NA,NA,NA,NA,NA,unpleasant,pleasant,NA,NA,NA,NA,NA,right,1957,true,NA,NA,NA,NA,NA,NA,NA,NA
75diWNKE,3fk4g712o0duz4m7qhicsa7sfszsso,3p1l2b7ad52ukjxiqt94l3foulwlox,75diWNKE,2020-0188,2021-10-31,07:58:03,09:24:54,NA,incomplete,true,true,NA,NA,0,1,NA,red,n_s_060.jpg,NA,NA,NA,NA,NA,unpleasant,pleasant,NA,NA,NA,NA,NA,left,3106,true,NA,NA,NA,NA,NA,NA,NA,NA
75diWNKE,3fk4g712o0duz4m7qhicsa7sfszsso,3p1l2b7ad52ukjxiqt94l3foulwlox,75diWNKE,2020-0188,2021-10-31,07:58:03,09:24:54,NA,incomplete,true,true,NA,NA,0,2,NA,red,n_s_001.jpg,NA,NA,NA,NA,NA,pleasant,unpleasant,NA,NA,NA,NA,NA,left,2318,true,NA,NA,NA,NA,NA,NA,NA,NA
75diWNKE,3fk4g712o0duz4m7qhicsa7sfszsso,3p1l2b7ad52ukjxiqt94l3foulwlox,75diWNKE,2020-0188,2021-10-31,07:58:03,09:24:54,NA,incomplete,true,true,NA,NA,0,3,NA,red,n_s_031.jpg,NA,NA,NA,NA,NA,pleasant,unpleasant,NA,NA,NA,NA,NA,right,2370,true,NA,NA,NA,NA,NA,NA,NA,NA
75diWNKE,3fk4g712o0duz4m7qhicsa7sfszsso,3p1l2b7ad52ukjxiqt94l3foulwlox,75diWNKE,2020-0188,2021-10-31,07:58:03,09:24:54,NA,incomplete,true,true,NA,NA,0,4,NA,red,n_l_111.jpg,NA,NA,NA,NA,NA,unpleasant,pleasant,NA,NA,NA,NA,NA,right,3406,true,NA,NA,NA,NA,NA,NA,NA,NA
75diWNKE,3fk4g712o0duz4m7qhicsa7sfszsso,3p1l2b7ad52ukjxiqt94l3foulwlox,75diWNKE,2020-0188,2021-10-31,07:58:03,09:24:54,NA,incomplete,true,true,NA,NA,0,5,NA,red,m_s_005.jpg,NA,NA,NA,NA,NA,pleasant,unpleasant,NA,NA,NA,NA,NA,right,1969,true,NA,NA,NA,NA,NA,NA,NA,NA
75diWNKE,3fk4g712o0duz4m7qhicsa7sfszsso,3p1l2b7ad52ukjxiqt94l3foulwlox,75diWNKE,2020-0188,2021-10-31,07:58:03,09:24:54,NA,incomplete,true,true,NA,NA,0,6,NA,white,m_s_062.jpg,NA,NA,NA,NA,NA,pleasant,unpleasant,NA,NA,NA,NA,NA,left,2334,true,NA,NA,NA,NA,NA,NA,NA,NA
75diWNKE,3fk4g712o0duz4m7qhicsa7sfszsso,3p1l2b7ad52ukjxiqt94l3foulwlox,75diWNKE,2020-0188,2021-10-31,07:58:03,09:24:54,NA,incomplete,true,true,NA,NA,0,7,NA,white,m_s_046.jpg,NA,NA,NA,NA,NA,unpleasant,pleasant,NA,NA,NA,NA,NA,left,2818,true,NA,NA,NA,NA,NA,NA,NA,NA
75diWNKE,3fk4g712o0duz4m7qhicsa7sfszsso,3p1l2b7ad52ukjxiqt94l3foulwlox,75diWNKE,2020-0188,2021-10-31,07:58:03,09:24:54,NA,incomplete,true,true,NA,NA,0,8,NA,white,n_l_104.jpg,NA,NA,NA,NA,NA,unpleasant,pleasant,NA,NA,NA,NA,NA,right,2518,true,NA,NA,NA,NA,NA,NA,NA,NA
75diWNKE,3fk4g712o0duz4m7qhicsa7sfszsso,3p1l2b7ad52ukjxiqt94l3foulwlox,75diWNKE,2020-0188,2021-10-31,07:58:03,09:24:54,NA,incomplete,true,true,NA,NA,0,9,NA,white,m_s_023.jpg,NA,NA,NA,NA,NA,unpleasant,pleasant,NA,NA,NA,NA,NA,right,1586,true,NA,NA,NA,NA,NA,NA,NA,NA
75diWNKE,3fk4g712o0duz4m7qhicsa7sfszsso,3p1l2b7ad52ukjxiqt94l3foulwlox,75diWNKE,2020-0188,2021-10-31,07:58:03,09:24:54,NA,incomplete,true,true,NA,NA,0,10,NA,white,n_l_018.jpg,NA,NA,NA,NA,NA,unpleasant,pleasant,NA,NA,NA,NA,NA,right,1965,true,NA,NA,NA,NA,NA,NA,NA,NA
75diWNKE,3fk4g712o0duz4m7qhicsa7sfszsso,3p1l2b7ad52ukjxiqt94l3foulwlox,75diWNKE,2020-0188,2021-10-31,07:58:03,09:24:54,NA,incomplete,true,true,NA,NA,0,11,NA,white,n_s_097.jpg,NA,NA,NA,NA,NA,pleasant,unpleasant,NA,NA,NA,NA,NA,left,2499,true,NA,NA,NA,NA,NA,NA,NA,NA
75diWNKE,3fk4g712o0duz4m7qhicsa7sfszsso,3p1l2b7ad52ukjxiqt94l3foulwlox,75diWNKE,2020-0188,2021-10-31,07:58:03,09:24:54,NA,incomplete,true,true,NA,NA,0,12,NA,gray,m_l_088.jpg,NA,NA,NA,NA,NA,pleasant,unpleasant,NA,NA,NA,NA,NA,left,1902,true,NA,NA,NA,NA,NA,NA,NA,NA
75diWNKE,3fk4g712o0duz4m7qhicsa7sfszsso,3p1l2b7ad52ukjxiqt94l3foulwlox,75diWNKE,2020-0188,2021-10-31,07:58:03,09:24:54,NA,incomplete,true,true,NA,NA,0,13,NA,gray,m_l_016.jpg,NA,NA,NA,NA,NA,pleasant,unpleasant,NA,NA,NA,NA,NA,left,1891,true,NA,NA,NA,NA,NA,NA,NA,NA
75diWNKE,3fk4g712o0duz4m7qhicsa7sfszsso,3p1l2b7ad52ukjxiqt94l3foulwlox,75diWNKE,2020-0188,2021-10-31,07:58:03,09:24:54,NA,incomplete,true,true,NA,NA,0,14,NA,gray,m_s_102.jpg,NA,NA,NA,NA,NA,pleasant,unpleasant,NA,NA,NA,NA,NA,right,2775,true,NA,NA,NA,NA,NA,NA,NA,NA
75diWNKE,3fk4g712o0duz4m7qhicsa7sfszsso,3p1l2b7ad52ukjxiqt94l3foulwlox,75diWNKE,2020-0188,2021-10-31,07:58:03,09:24:54,NA,incomplete,true,true,NA,NA,0,15,NA,gray,n_l_113.jpg,NA,NA,NA,NA,NA,pleasant,unpleasant,NA,NA,NA,NA,NA,right,2258,true,NA,NA,NA,NA,NA,NA,NA,NA
75diWNKE,3fk4g712o0duz4m7qhicsa7sfszsso,3p1l2b7ad52ukjxiqt94l3foulwlox,75diWNKE,2020-0188,2021-10-31,07:58:03,09:24:54,NA,incomplete,true,true,NA,NA,0,16,NA,gray,m_s_033.jpg,NA,NA,NA,NA,NA,unpleasant,pleasant,NA,NA,NA,NA,NA,left,3308,true,NA,NA,NA,NA,NA,NA,NA,NA
75diWNKE,3fk4g712o0duz4m7qhicsa7sfszsso,3p1l2b7ad52ukjxiqt94l3foulwlox,75diWNKE,2020-0188,2021-10-31,07:58:03,09:24:54,NA,incomplete,true,true,NA,NA,0,17,NA,gray,n_s_034.jpg,NA,NA,NA,NA,NA,pleasant,unpleasant,NA,NA,NA,NA,NA,left,1995,true,NA,NA,NA,NA,NA,NA,NA,NA
75diWNKE,3fk4g712o0duz4m7qhicsa7sfszsso,3p1l2b7ad52ukjxiqt94l3foulwlox,75diWNKE,2020-0188,2021-10-31,07:58:03,09:24:54,NA,incomplete,true,true,NA,NA,0,18,NA,purple,m_s_096.jpg,NA,NA,NA,NA,NA,pleasant,unpleasant,NA,NA,NA,NA,NA,right,1894,true,NA,NA,NA,NA,NA,NA,NA,NA
75diWNKE,3fk4g712o0duz4m7qhicsa7sfszsso,3p1l2b7ad52ukjxiqt94l3foulwlox,75diWNKE,2020-0188,2021-10-31,07:58:03,09:24:54,NA,incomplete,true,true,NA,NA,0,19,NA,purple,m_l_091.jpg,NA,NA,NA,NA,NA,unpleasant,pleasant,NA,NA,NA,NA,NA,right,1666,true,NA,NA,NA,NA,NA,NA,NA,NA
75diWNKE,3fk4g712o0duz4m7qhicsa7sfszsso,3p1l2b7ad52ukjxiqt94l3foulwlox,75diWNKE,2020-0188,2021-10-31,07:58:03,09:24:54,NA,incomplete,true,true,NA,NA,0,20,NA,purple,n_l_017.jpg,NA,NA,NA,NA,NA,pleasant,unpleasant,NA,NA,NA,NA,NA,left,3254,true,NA,NA,NA,NA,NA,NA,NA,NA
75diWNKE,3fk4g712o0duz4m7qhicsa7sfszsso,3p1l2b7ad52ukjxiqt94l3foulwlox,75diWNKE,2020-0188,2021-10-31,07:58:03,09:24:54,NA,incomplete,true,true,NA,NA,0,21,NA,purple,m_s_097.jpg,NA,NA,NA,NA,NA,unpleasant,pleasant,NA,NA,NA,NA,NA,left,1412,true,NA,NA,NA,NA,NA,NA,NA,NA
75diWNKE,3fk4g712o0duz4m7qhicsa7sfszsso,3p1l2b7ad52ukjxiqt94l3foulwlox,75diWNKE,2020-0188,2021-10-31,07:58:03,09:24:54,NA,incomplete,true,true,NA,NA,0,22,NA,purple,n_s_023.jpg,NA,NA,NA,NA,NA,unpleasant,pleasant,NA,NA,NA,NA,NA,right,1214,true,NA,NA,NA,NA,NA,NA,NA,NA
75diWNKE,3fk4g712o0duz4m7qhicsa7sfszsso,3p1l2b7ad52ukjxiqt94l3foulwlox,75diWNKE,2020-0188,2021-10-31,07:58:03,09:24:54,NA,incomplete,true,true,NA,NA,0,23,NA,purple,m_l_041.jpg,NA,NA,NA,NA,NA,unpleasant,pleasant,NA,NA,NA,NA,NA,right,1219,true,NA,NA,NA,NA,NA,NA,NA,NA
75diWNKE,3fk4g712o0duz4m7qhicsa7sfszsso,3p1l2b7ad52ukjxiqt94l3foulwlox,75diWNKE,2020-0188,2021-10-31,07:58:03,09:24:54,NA,incomplete,true,true,NA,NA,0,24,NA,yellow,m_l_083.jpg,NA,NA,NA,NA,NA,unpleasant,pleasant,NA,NA,NA,NA,NA,right,1327,true,NA,NA,NA,NA,NA,NA,NA,NA
75diWNKE,3fk4g712o0duz4m7qhicsa7sfszsso,3p1l2b7ad52ukjxiqt94l3foulwlox,75diWNKE,2020-0188,2021-10-31,07:58:03,09:24:54,NA,incomplete,true,true,NA,NA,0,25,NA,yellow,n_l_025.jpg,NA,NA,NA,NA,NA,unpleasant,pleasant,NA,NA,NA,NA,NA,right,1828,true,NA,NA,NA,NA,NA,NA,NA,NA
75diWNKE,3fk4g712o0duz4m7qhicsa7sfszsso,3p1l2b7ad52ukjxiqt94l3foulwlox,75diWNKE,2020-0188,2021-10-31,07:58:03,09:24:54,NA,incomplete,true,true,NA,NA,0,26,NA,yellow,n_l_106.jpg,NA,NA,NA,NA,NA,pleasant,unpleasant,NA,NA,NA,NA,NA,right,1248,true,NA,NA,NA,NA,NA,NA,NA,NA
75diWNKE,3fk4g712o0duz4m7qhicsa7sfszsso,3p1l2b7ad52ukjxiqt94l3foulwlox,75diWNKE,2020-0188,2021-10-31,07:58:03,09:24:54,NA,incomplete,true,true,NA,NA,0,27,NA,yellow,m_s_011.jpg,NA,NA,NA,NA,NA,unpleasant,pleasant,NA,NA,NA,NA,NA,right,3157,true,NA,NA,NA,NA,NA,NA,NA,NA
75diWNKE,3fk4g712o0duz4m7qhicsa7sfszsso,3p1l2b7ad52ukjxiqt94l3foulwlox,75diWNKE,2020-0188,2021-10-31,07:58:03,09:24:54,NA,incomplete,true,true,NA,NA,0,28,NA,yellow,n_s_092.jpg,NA,NA,NA,NA,NA,unpleasant,pleasant,NA,NA,NA,NA,NA,right,1402,true,NA,NA,NA,NA,NA,NA,NA,NA
75diWNKE,3fk4g712o0duz4m7qhicsa7sfszsso,3p1l2b7ad52ukjxiqt94l3foulwlox,75diWNKE,2020-0188,2021-10-31,07:58:03,09:24:54,NA,incomplete,true,true,NA,NA,0,29,NA,yellow,m_l_114.jpg,NA,NA,NA,NA,NA,unpleasant,pleasant,NA,NA,NA,NA,NA,right,1220,true,NA,NA,NA,NA,NA,NA,NA,NA
75diWNKE,3fk4g712o0duz4m7qhicsa7sfszsso,3p1l2b7ad52ukjxiqt94l3foulwlox,75diWNKE,2020-0188,2021-10-31,07:58:03,09:24:54,NA,incomplete,true,true,NA,NA,0,30,NA,green,m_l_084.jpg,NA,NA,NA,NA,NA,pleasant,unpleasant,NA,NA,NA,NA,NA,right,1344,true,NA,NA,NA,NA,NA,NA,NA,NA
75diWNKE,3fk4g712o0duz4m7qhicsa7sfszsso,3p1l2b7ad52ukjxiqt94l3foulwlox,75diWNKE,2020-0188,2021-10-31,07:58:03,09:24:54,NA,incomplete,true,true,NA,NA,0,31,NA,green,m_s_115.jpg,NA,NA,NA,NA,NA,pleasant,unpleasant,NA,NA,NA,NA,NA,right,2021,true,NA,NA,NA,NA,NA,NA,NA,NA
75diWNKE,3fk4g712o0duz4m7qhicsa7sfszsso,3p1l2b7ad52ukjxiqt94l3foulwlox,75diWNKE,2020-0188,2021-10-31,07:58:03,09:24:54,NA,incomplete,true,true,NA,NA,0,32,NA,green,m_s_057.jpg,NA,NA,NA,NA,NA,pleasant,unpleasant,NA,NA,NA,NA,NA,left,2105,true,NA,NA,NA,NA,NA,NA,NA,NA
75diWNKE,3fk4g712o0duz4m7qhicsa7sfszsso,3p1l2b7ad52ukjxiqt94l3foulwlox,75diWNKE,2020-0188,2021-10-31,07:58:03,09:24:54,NA,incomplete,true,true,NA,NA,0,33,NA,green,m_l_044.jpg,NA,NA,NA,NA,NA,pleasant,unpleasant,NA,NA,NA,NA,NA,left,1916,true,NA,NA,NA,NA,NA,NA,NA,NA
75diWNKE,3fk4g712o0duz4m7qhicsa7sfszsso,3p1l2b7ad52ukjxiqt94l3foulwlox,75diWNKE,2020-0188,2021-10-31,07:58:03,09:24:54,NA,incomplete,true,true,NA,NA,0,34,NA,green,n_l_031.jpg,NA,NA,NA,NA,NA,unpleasant,pleasant,NA,NA,NA,NA,NA,right,1361,true,NA,NA,NA,NA,NA,NA,NA,NA
75diWNKE,3fk4g712o0duz4m7qhicsa7sfszsso,3p1l2b7ad52ukjxiqt94l3foulwlox,75diWNKE,2020-0188,2021-10-31,07:58:03,09:24:54,NA,incomplete,true,true,NA,NA,0,35,NA,green,n_s_057.jpg,NA,NA,NA,NA,NA,unpleasant,pleasant,NA,NA,NA,NA,NA,left,1565,true,NA,NA,NA,NA,NA,NA,NA,NA
75diWNKE,3fk4g712o0duz4m7qhicsa7sfszsso,3p1l2b7ad52ukjxiqt94l3foulwlox,75diWNKE,2020-0188,2021-10-31,07:58:03,09:24:54,NA,incomplete,true,NA,NA,true,0,0,NA,NA,NA,left,n_s_023.jpg,purple,yellow,NA,NA,NA,NA,NA,NA,NA,NA,NA,NaN,NA,5879,left,1,NA,NA,NA,NA,NA
75diWNKE,3fk4g712o0duz4m7qhicsa7sfszsso,3p1l2b7ad52ukjxiqt94l3foulwlox,75diWNKE,2020-0188,2021-10-31,07:58:03,09:24:54,NA,incomplete,true,NA,NA,true,0,1,NA,NA,NA,right,n_s_057.jpg,yellow,green,NA,NA,NA,NA,NA,NA,NA,NA,NA,NaN,NA,7346,right,1,NA,NA,NA,NA,NA
75diWNKE,3fk4g712o0duz4m7qhicsa7sfszsso,3p1l2b7ad52ukjxiqt94l3foulwlox,75diWNKE,2020-0188,2021-10-31,07:58:03,09:24:54,NA,incomplete,true,NA,NA,true,0,2,NA,NA,NA,left,n_s_034.jpg,gray,purple,NA,NA,NA,NA,NA,NA,NA,NA,NA,NaN,NA,2911,right,0,NA,NA,NA,NA,NA
75diWNKE,3fk4g712o0duz4m7qhicsa7sfszsso,3p1l2b7ad52ukjxiqt94l3foulwlox,75diWNKE,2020-0188,2021-10-31,07:58:03,09:24:54,NA,incomplete,true,NA,NA,true,0,3,NA,NA,NA,right,m_l_091.jpg,gray,purple,NA,NA,NA,NA,NA,NA,NA,NA,NA,NaN,NA,2844,right,1,NA,NA,NA,NA,NA
75diWNKE,3fk4g712o0duz4m7qhicsa7sfszsso,3p1l2b7ad52ukjxiqt94l3foulwlox,75diWNKE,2020-0188,2021-10-31,07:58:03,09:24:54,NA,incomplete,true,NA,NA,true,0,4,NA,NA,NA,right,m_s_102.jpg,purple,gray,NA,NA,NA,NA,NA,NA,NA,NA,NA,NaN,NA,4288,left,0,NA,NA,NA,NA,NA
75diWNKE,3fk4g712o0duz4m7qhicsa7sfszsso,3p1l2b7ad52ukjxiqt94l3foulwlox,75diWNKE,2020-0188,2021-10-31,07:58:03,09:24:54,NA,incomplete,true,NA,NA,true,0,5,NA,NA,NA,right,m_s_057.jpg,yellow,green,NA,NA,NA,NA,NA,NA,NA,NA,NA,NaN,NA,4184,left,0,NA,NA,NA,NA,NA
75diWNKE,3fk4g712o0duz4m7qhicsa7sfszsso,3p1l2b7ad52ukjxiqt94l3foulwlox,75diWNKE,2020-0188,2021-10-31,07:58:03,09:24:54,NA,incomplete,true,NA,NA,true,0,6,NA,NA,NA,right,m_s_033.jpg,purple,gray,NA,NA,NA,NA,NA,NA,NA,NA,NA,NaN,NA,4458,right,1,NA,NA,NA,NA,NA
75diWNKE,3fk4g712o0duz4m7qhicsa7sfszsso,3p1l2b7ad52ukjxiqt94l3foulwlox,75diWNKE,2020-0188,2021-10-31,07:58:03,09:24:54,NA,incomplete,true,NA,NA,true,0,7,NA,NA,NA,left,m_s_046.jpg,white,red,NA,NA,NA,NA,NA,NA,NA,NA,NA,NaN,NA,2999,left,1,NA,NA,NA,NA,NA
75diWNKE,3fk4g712o0duz4m7qhicsa7sfszsso,3p1l2b7ad52ukjxiqt94l3foulwlox,75diWNKE,2020-0188,2021-10-31,07:58:03,09:24:54,NA,incomplete,true,NA,NA,true,0,8,NA,NA,NA,right,n_l_104.jpg,gray,white,NA,NA,NA,NA,NA,NA,NA,NA,NA,NaN,NA,2398,left,0,NA,NA,NA,NA,NA
75diWNKE,3fk4g712o0duz4m7qhicsa7sfszsso,3p1l2b7ad52ukjxiqt94l3foulwlox,75diWNKE,2020-0188,2021-10-31,07:58:03,09:24:54,NA,incomplete,true,NA,NA,true,0,9,NA,NA,NA,left,n_l_017.jpg,purple,yellow,NA,NA,NA,NA,NA,NA,NA,NA,NA,NaN,NA,3713,left,1,NA,NA,NA,NA,NA
75diWNKE,3fk4g712o0duz4m7qhicsa7sfszsso,3p1l2b7ad52ukjxiqt94l3foulwlox,75diWNKE,2020-0188,2021-10-31,07:58:03,09:24:54,NA,incomplete,true,NA,NA,true,0,10,NA,NA,NA,left,n_l_018.jpg,white,gray,NA,NA,NA,NA,NA,NA,NA,NA,NA,NaN,NA,4704,left,1,NA,NA,NA,NA,NA
75diWNKE,3fk4g712o0duz4m7qhicsa7sfszsso,3p1l2b7ad52ukjxiqt94l3foulwlox,75diWNKE,2020-0188,2021-10-31,07:58:03,09:24:54,NA,incomplete,true,NA,NA,true,0,11,NA,NA,NA,right,n_l_025.jpg,purple,yellow,NA,NA,NA,NA,NA,NA,NA,NA,NA,NaN,NA,5545,right,1,NA,NA,NA,NA,NA
75diWNKE,3fk4g712o0duz4m7qhicsa7sfszsso,3p1l2b7ad52ukjxiqt94l3foulwlox,75diWNKE,2020-0188,2021-10-31,07:58:03,09:24:54,NA,incomplete,true,NA,NA,true,0,12,NA,NA,NA,left,m_l_016.jpg,gray,white,NA,NA,NA,NA,NA,NA,NA,NA,NA,NaN,NA,3504,right,0,NA,NA,NA,NA,NA
75diWNKE,3fk4g712o0duz4m7qhicsa7sfszsso,3p1l2b7ad52ukjxiqt94l3foulwlox,75diWNKE,2020-0188,2021-10-31,07:58:03,09:24:54,NA,incomplete,true,NA,NA,true,0,13,NA,NA,NA,right,n_l_106.jpg,purple,yellow,NA,NA,NA,NA,NA,NA,NA,NA,NA,NaN,NA,2967,right,1,NA,NA,NA,NA,NA
75diWNKE,3fk4g712o0duz4m7qhicsa7sfszsso,3p1l2b7ad52ukjxiqt94l3foulwlox,75diWNKE,2020-0188,2021-10-31,07:58:03,09:24:54,NA,incomplete,true,NA,NA,true,0,14,NA,NA,NA,left,m_s_005.jpg,red,white,NA,NA,NA,NA,NA,NA,NA,NA,NA,NaN,NA,3315,left,1,NA,NA,NA,NA,NA
75diWNKE,3fk4g712o0duz4m7qhicsa7sfszsso,3p1l2b7ad52ukjxiqt94l3foulwlox,75diWNKE,2020-0188,2021-10-31,07:58:03,09:24:54,NA,incomplete,true,NA,NA,true,0,15,NA,NA,NA,left,m_l_041.jpg,purple,yellow,NA,NA,NA,NA,NA,NA,NA,NA,NA,NaN,NA,5383,left,1,NA,NA,NA,NA,NA
75diWNKE,3fk4g712o0duz4m7qhicsa7sfszsso,3p1l2b7ad52ukjxiqt94l3foulwlox,75diWNKE,2020-0188,2021-10-31,07:58:03,09:24:54,NA,incomplete,true,NA,NA,true,0,16,NA,NA,NA,left,m_s_115.jpg,green,yellow,NA,NA,NA,NA,NA,NA,NA,NA,NA,NaN,NA,9901,right,0,NA,NA,NA,NA,NA
75diWNKE,3fk4g712o0duz4m7qhicsa7sfszsso,3p1l2b7ad52ukjxiqt94l3foulwlox,75diWNKE,2020-0188,2021-10-31,07:58:03,09:24:54,NA,incomplete,true,NA,NA,true,0,17,NA,NA,NA,right,n_s_092.jpg,purple,yellow,NA,NA,NA,NA,NA,NA,NA,NA,NA,NaN,NA,5071,right,1,NA,NA,NA,NA,NA
75diWNKE,3fk4g712o0duz4m7qhicsa7sfszsso,3p1l2b7ad52ukjxiqt94l3foulwlox,75diWNKE,2020-0188,2021-10-31,07:58:03,09:24:54,NA,incomplete,true,NA,NA,true,0,18,NA,NA,NA,left,m_l_114.jpg,yellow,purple,NA,NA,NA,NA,NA,NA,NA,NA,NA,NaN,NA,4853,right,0,NA,NA,NA,NA,NA
75diWNKE,3fk4g712o0duz4m7qhicsa7sfszsso,3p1l2b7ad52ukjxiqt94l3foulwlox,75diWNKE,2020-0188,2021-10-31,07:58:03,09:24:54,NA,incomplete,true,NA,NA,true,0,19,NA,NA,NA,left,n_s_097.jpg,white,red,NA,NA,NA,NA,NA,NA,NA,NA,NA,NaN,NA,6033,right,0,NA,NA,NA,NA,NA
75diWNKE,3fk4g712o0duz4m7qhicsa7sfszsso,3p1l2b7ad52ukjxiqt94l3foulwlox,75diWNKE,2020-0188,2021-10-31,07:58:03,09:24:54,NA,incomplete,true,NA,NA,true,0,20,NA,NA,NA,right,n_s_060.jpg,white,red,NA,NA,NA,NA,NA,NA,NA,NA,NA,NaN,NA,3143,left,0,NA,NA,NA,NA,NA
75diWNKE,3fk4g712o0duz4m7qhicsa7sfszsso,3p1l2b7ad52ukjxiqt94l3foulwlox,75diWNKE,2020-0188,2021-10-31,07:58:03,09:24:54,NA,incomplete,true,NA,NA,true,0,21,NA,NA,NA,left,n_l_111.jpg,red,white,NA,NA,NA,NA,NA,NA,NA,NA,NA,NaN,NA,2507,right,0,NA,NA,NA,NA,NA
75diWNKE,3fk4g712o0duz4m7qhicsa7sfszsso,3p1l2b7ad52ukjxiqt94l3foulwlox,75diWNKE,2020-0188,2021-10-31,07:58:03,09:24:54,NA,incomplete,true,NA,true,NA,0,0,NA,NA,NA,right,NA,NA,NA,absent,NA,NA,m_l_114.jpg,yellow,n_l_025.jpg,yellow,within,NA,NaN,NA,NA,NA,NA,left,17932,0,1,4000
75diWNKE,3fk4g712o0duz4m7qhicsa7sfszsso,3p1l2b7ad52ukjxiqt94l3foulwlox,75diWNKE,2020-0188,2021-10-31,07:58:03,09:24:54,NA,incomplete,true,NA,true,NA,0,1,NA,NA,NA,right,NA,NA,NA,absent,NA,NA,n_s_097.jpg,white,m_s_046.jpg,white,within,NA,NaN,NA,NA,NA,NA,right,5489,1,0,12309
75diWNKE,3fk4g712o0duz4m7qhicsa7sfszsso,3p1l2b7ad52ukjxiqt94l3foulwlox,75diWNKE,2020-0188,2021-10-31,07:58:03,09:24:54,NA,incomplete,true,NA,true,NA,0,2,NA,NA,NA,left,NA,NA,NA,absent,NA,NA,n_l_018.jpg,white,m_s_102.jpg,gray,between,NA,NaN,NA,NA,NA,NA,left,6841,1,3,3719
75diWNKE,3fk4g712o0duz4m7qhicsa7sfszsso,3p1l2b7ad52ukjxiqt94l3foulwlox,75diWNKE,2020-0188,2021-10-31,07:58:03,09:24:54,NA,incomplete,true,NA,true,NA,0,3,NA,NA,NA,left,NA,NA,NA,absent,NA,NA,n_s_060.jpg,red,m_s_005.jpg,red,within,NA,NaN,NA,NA,NA,NA,left,7239,1,1,1403
75diWNKE,3fk4g712o0duz4m7qhicsa7sfszsso,3p1l2b7ad52ukjxiqt94l3foulwlox,75diWNKE,2020-0188,2021-10-31,07:58:03,09:24:54,NA,incomplete,true,NA,true,NA,0,4,NA,NA,NA,left,NA,NA,NA,absent,NA,NA,m_s_115.jpg,green,n_s_057.jpg,green,within,NA,NaN,NA,NA,NA,NA,left,5880,1,0,13205
75diWNKE,3fk4g712o0duz4m7qhicsa7sfszsso,3p1l2b7ad52ukjxiqt94l3foulwlox,75diWNKE,2020-0188,2021-10-31,07:58:03,09:24:54,NA,incomplete,true,NA,true,NA,0,5,NA,NA,NA,left,NA,NA,NA,absent,NA,NA,n_l_111.jpg,red,n_l_104.jpg,white,between,NA,NaN,NA,NA,NA,NA,left,8653,1,0,1585
75diWNKE,3fk4g712o0duz4m7qhicsa7sfszsso,3p1l2b7ad52ukjxiqt94l3foulwlox,75diWNKE,2020-0188,2021-10-31,07:58:03,09:24:54,NA,incomplete,true,NA,true,NA,0,6,NA,NA,NA,right,NA,NA,NA,absent,NA,NA,n_s_034.jpg,gray,m_l_016.jpg,gray,within,NA,NaN,NA,NA,NA,NA,right,3922,1,1,1763
75diWNKE,3fk4g712o0duz4m7qhicsa7sfszsso,3p1l2b7ad52ukjxiqt94l3foulwlox,75diWNKE,2020-0188,2021-10-31,07:58:03,09:24:54,NA,incomplete,true,NA,true,NA,0,7,NA,NA,NA,right,NA,NA,NA,absent,NA,NA,n_l_106.jpg,yellow,n_s_023.jpg,purple,between,NA,NaN,NA,NA,NA,NA,left,4957,0,0,1327
75diWNKE,3fk4g712o0duz4m7qhicsa7sfszsso,3p1l2b7ad52ukjxiqt94l3foulwlox,75diWNKE,2020-0188,2021-10-31,07:58:03,09:24:54,NA,incomplete,true,NA,true,NA,0,8,NA,NA,NA,right,NA,NA,NA,absent,NA,NA,m_s_057.jpg,green,n_s_092.jpg,yellow,between,NA,NaN,NA,NA,NA,NA,right,5779,1,0,1974
75diWNKE,3fk4g712o0duz4m7qhicsa7sfszsso,3p1l2b7ad52ukjxiqt94l3foulwlox,75diWNKE,2020-0188,2021-10-31,07:58:03,09:24:54,NA,incomplete,true,NA,true,NA,0,9,NA,NA,NA,right,NA,NA,NA,absent,NA,NA,n_l_017.jpg,purple,m_s_033.jpg,gray,between,NA,NaN,NA,NA,NA,NA,left,5032,0,0,1326
75diWNKE,3fk4g712o0duz4m7qhicsa7sfszsso,3p1l2b7ad52ukjxiqt94l3foulwlox,75diWNKE,2020-0188,2021-10-31,07:58:03,09:24:54,NA,incomplete,true,NA,true,NA,0,10,NA,NA,NA,right,NA,NA,NA,absent,NA,NA,m_l_041.jpg,purple,m_l_091.jpg,purple,within,NA,NaN,NA,NA,NA,NA,right,4653,1,1,2375
75diWNKE,3fk4g712o0duz4m7qhicsa7sfszsso,3p1l2b7ad52ukjxiqt94l3foulwlox,75diWNKE,2020-0188,2021-10-31,07:58:03,09:24:54,NA,incomplete,false,true,NA,NA,1,0,NA,white,m_l_017.jpg,NA,NA,NA,NA,NA,unpleasant,pleasant,NA,NA,NA,NA,NA,right,2299,true,NA,NA,NA,NA,NA,NA,NA,NA
75diWNKE,3fk4g712o0duz4m7qhicsa7sfszsso,3p1l2b7ad52ukjxiqt94l3foulwlox,75diWNKE,2020-0188,2021-10-31,07:58:03,09:24:54,NA,incomplete,false,true,NA,NA,1,1,NA,white,n_s_054.jpg,NA,NA,NA,NA,NA,pleasant,unpleasant,NA,NA,NA,NA,NA,right,2976,true,NA,NA,NA,NA,NA,NA,NA,NA
75diWNKE,3fk4g712o0duz4m7qhicsa7sfszsso,3p1l2b7ad52ukjxiqt94l3foulwlox,75diWNKE,2020-0188,2021-10-31,07:58:03,09:24:54,NA,incomplete,false,true,NA,NA,1,2,NA,white,m_s_021.jpg,NA,NA,NA,NA,NA,pleasant,unpleasant,NA,NA,NA,NA,NA,left,1605,true,NA,NA,NA,NA,NA,NA,NA,NA
75diWNKE,3fk4g712o0duz4m7qhicsa7sfszsso,3p1l2b7ad52ukjxiqt94l3foulwlox,75diWNKE,2020-0188,2021-10-31,07:58:03,09:24:54,NA,incomplete,false,true,NA,NA,1,3,NA,white,m_s_073.jpg,NA,NA,NA,NA,NA,pleasant,unpleasant,NA,NA,NA,NA,NA,left,2104,true,NA,NA,NA,NA,NA,NA,NA,NA
75diWNKE,3fk4g712o0duz4m7qhicsa7sfszsso,3p1l2b7ad52ukjxiqt94l3foulwlox,75diWNKE,2020-0188,2021-10-31,07:58:03,09:24:54,NA,incomplete,false,true,NA,NA,1,4,NA,white,n_l_065.jpg,NA,NA,NA,NA,NA,pleasant,unpleasant,NA,NA,NA,NA,NA,left,2012,true,NA,NA,NA,NA,NA,NA,NA,NA
75diWNKE,3fk4g712o0duz4m7qhicsa7sfszsso,3p1l2b7ad52ukjxiqt94l3foulwlox,75diWNKE,2020-0188,2021-10-31,07:58:03,09:24:54,NA,incomplete,false,true,NA,NA,1,5,NA,white,n_l_076.jpg,NA,NA,NA,NA,NA,unpleasant,pleasant,NA,NA,NA,NA,NA,left,2009,true,NA,NA,NA,NA,NA,NA,NA,NA
75diWNKE,3fk4g712o0duz4m7qhicsa7sfszsso,3p1l2b7ad52ukjxiqt94l3foulwlox,75diWNKE,2020-0188,2021-10-31,07:58:03,09:24:54,NA,incomplete,false,true,NA,NA,1,6,NA,blue,n_s_095.jpg,NA,NA,NA,NA,NA,unpleasant,pleasant,NA,NA,NA,NA,NA,right,1573,true,NA,NA,NA,NA,NA,NA,NA,NA
75diWNKE,3fk4g712o0duz4m7qhicsa7sfszsso,3p1l2b7ad52ukjxiqt94l3foulwlox,75diWNKE,2020-0188,2021-10-31,07:58:03,09:24:54,NA,incomplete,false,true,NA,NA,1,7,NA,blue,m_l_070.jpg,NA,NA,NA,NA,NA,unpleasant,pleasant,NA,NA,NA,NA,NA,left,2065,true,NA,NA,NA,NA,NA,NA,NA,NA
75diWNKE,3fk4g712o0duz4m7qhicsa7sfszsso,3p1l2b7ad52ukjxiqt94l3foulwlox,75diWNKE,2020-0188,2021-10-31,07:58:03,09:24:54,NA,incomplete,false,true,NA,NA,1,8,NA,blue,n_l_024.jpg,NA,NA,NA,NA,NA,pleasant,unpleasant,NA,NA,NA,NA,NA,left,1749,true,NA,NA,NA,NA,NA,NA,NA,NA
75diWNKE,3fk4g712o0duz4m7qhicsa7sfszsso,3p1l2b7ad52ukjxiqt94l3foulwlox,75diWNKE,2020-0188,2021-10-31,07:58:03,09:24:54,NA,incomplete,false,true,NA,NA,1,9,NA,blue,m_s_084.jpg,NA,NA,NA,NA,NA,unpleasant,pleasant,NA,NA,NA,NA,NA,right,1778,true,NA,NA,NA,NA,NA,NA,NA,NA
75diWNKE,3fk4g712o0duz4m7qhicsa7sfszsso,3p1l2b7ad52ukjxiqt94l3foulwlox,75diWNKE,2020-0188,2021-10-31,07:58:03,09:24:54,NA,incomplete,false,true,NA,NA,1,10,NA,blue,m_l_081.jpg,NA,NA,NA,NA,NA,unpleasant,pleasant,NA,NA,NA,NA,NA,right,1879,true,NA,NA,NA,NA,NA,NA,NA,NA
75diWNKE,3fk4g712o0duz4m7qhicsa7sfszsso,3p1l2b7ad52ukjxiqt94l3foulwlox,75diWNKE,2020-0188,2021-10-31,07:58:03,09:24:54,NA,incomplete,false,true,NA,NA,1,11,NA,blue,m_l_098.jpg,NA,NA,NA,NA,NA,pleasant,unpleasant,NA,NA,NA,NA,NA,right,3331,true,NA,NA,NA,NA,NA,NA,NA,NA
75diWNKE,3fk4g712o0duz4m7qhicsa7sfszsso,3p1l2b7ad52ukjxiqt94l3foulwlox,75diWNKE,2020-0188,2021-10-31,07:58:03,09:24:54,NA,incomplete,false,true,NA,NA,1,12,NA,yellow,n_l_010.jpg,NA,NA,NA,NA,NA,pleasant,unpleasant,NA,NA,NA,NA,NA,left,1336,true,NA,NA,NA,NA,NA,NA,NA,NA
75diWNKE,3fk4g712o0duz4m7qhicsa7sfszsso,3p1l2b7ad52ukjxiqt94l3foulwlox,75diWNKE,2020-0188,2021-10-31,07:58:03,09:24:54,NA,incomplete,false,true,NA,NA,1,13,NA,yellow,n_s_020.jpg,NA,NA,NA,NA,NA,pleasant,unpleasant,NA,NA,NA,NA,NA,left,1996,true,NA,NA,NA,NA,NA,NA,NA,NA
75diWNKE,3fk4g712o0duz4m7qhicsa7sfszsso,3p1l2b7ad52ukjxiqt94l3foulwlox,75diWNKE,2020-0188,2021-10-31,07:58:03,09:24:54,NA,incomplete,false,true,NA,NA,1,14,NA,yellow,m_l_107.jpg,NA,NA,NA,NA,NA,unpleasant,pleasant,NA,NA,NA,NA,NA,right,1088,true,NA,NA,NA,NA,NA,NA,NA,NA
75diWNKE,3fk4g712o0duz4m7qhicsa7sfszsso,3p1l2b7ad52ukjxiqt94l3foulwlox,75diWNKE,2020-0188,2021-10-31,07:58:03,09:24:54,NA,incomplete,false,true,NA,NA,1,15,NA,yellow,m_s_063.jpg,NA,NA,NA,NA,NA,unpleasant,pleasant,NA,NA,NA,NA,NA,left,2780,true,NA,NA,NA,NA,NA,NA,NA,NA
75diWNKE,3fk4g712o0duz4m7qhicsa7sfszsso,3p1l2b7ad52ukjxiqt94l3foulwlox,75diWNKE,2020-0188,2021-10-31,07:58:03,09:24:54,NA,incomplete,false,true,NA,NA,1,16,NA,yellow,m_s_019.jpg,NA,NA,NA,NA,NA,unpleasant,pleasant,NA,NA,NA,NA,NA,right,1224,true,NA,NA,NA,NA,NA,NA,NA,NA
75diWNKE,3fk4g712o0duz4m7qhicsa7sfszsso,3p1l2b7ad52ukjxiqt94l3foulwlox,75diWNKE,2020-0188,2021-10-31,07:58:03,09:24:54,NA,incomplete,false,true,NA,NA,1,17,NA,yellow,n_l_083.jpg,NA,NA,NA,NA,NA,pleasant,unpleasant,NA,NA,NA,NA,NA,left,2220,true,NA,NA,NA,NA,NA,NA,NA,NA
75diWNKE,3fk4g712o0duz4m7qhicsa7sfszsso,3p1l2b7ad52ukjxiqt94l3foulwlox,75diWNKE,2020-0188,2021-10-31,07:58:03,09:24:54,NA,incomplete,false,true,NA,NA,1,18,NA,black,m_s_116.jpg,NA,NA,NA,NA,NA,pleasant,unpleasant,NA,NA,NA,NA,NA,right,1968,true,NA,NA,NA,NA,NA,NA,NA,NA
75diWNKE,3fk4g712o0duz4m7qhicsa7sfszsso,3p1l2b7ad52ukjxiqt94l3foulwlox,75diWNKE,2020-0188,2021-10-31,07:58:03,09:24:54,NA,incomplete,false,true,NA,NA,1,19,NA,black,m_l_057.jpg,NA,NA,NA,NA,NA,unpleasant,pleasant,NA,NA,NA,NA,NA,left,1644,true,NA,NA,NA,NA,NA,NA,NA,NA
75diWNKE,3fk4g712o0duz4m7qhicsa7sfszsso,3p1l2b7ad52ukjxiqt94l3foulwlox,75diWNKE,2020-0188,2021-10-31,07:58:03,09:24:54,NA,incomplete,false,true,NA,NA,1,20,NA,black,m_l_004.jpg,NA,NA,NA,NA,NA,pleasant,unpleasant,NA,NA,NA,NA,NA,right,2592,true,NA,NA,NA,NA,NA,NA,NA,NA
75diWNKE,3fk4g712o0duz4m7qhicsa7sfszsso,3p1l2b7ad52ukjxiqt94l3foulwlox,75diWNKE,2020-0188,2021-10-31,07:58:03,09:24:54,NA,incomplete,false,true,NA,NA,1,21,NA,black,m_l_073.jpg,NA,NA,NA,NA,NA,unpleasant,pleasant,NA,NA,NA,NA,NA,left,2309,true,NA,NA,NA,NA,NA,NA,NA,NA
75diWNKE,3fk4g712o0duz4m7qhicsa7sfszsso,3p1l2b7ad52ukjxiqt94l3foulwlox,75diWNKE,2020-0188,2021-10-31,07:58:03,09:24:54,NA,incomplete,false,true,NA,NA,1,22,NA,black,m_l_115.jpg,NA,NA,NA,NA,NA,unpleasant,pleasant,NA,NA,NA,NA,NA,right,3074,true,NA,NA,NA,NA,NA,NA,NA,NA
75diWNKE,3fk4g712o0duz4m7qhicsa7sfszsso,3p1l2b7ad52ukjxiqt94l3foulwlox,75diWNKE,2020-0188,2021-10-31,07:58:03,09:24:54,NA,incomplete,false,true,NA,NA,1,23,NA,black,m_s_104.jpg,NA,NA,NA,NA,NA,unpleasant,pleasant,NA,NA,NA,NA,NA,left,2830,true,NA,NA,NA,NA,NA,NA,NA,NA
75diWNKE,3fk4g712o0duz4m7qhicsa7sfszsso,3p1l2b7ad52ukjxiqt94l3foulwlox,75diWNKE,2020-0188,2021-10-31,07:58:03,09:24:54,NA,incomplete,false,true,NA,NA,1,24,NA,green,m_l_102.jpg,NA,NA,NA,NA,NA,pleasant,unpleasant,NA,NA,NA,NA,NA,left,3091,true,NA,NA,NA,NA,NA,NA,NA,NA
75diWNKE,3fk4g712o0duz4m7qhicsa7sfszsso,3p1l2b7ad52ukjxiqt94l3foulwlox,75diWNKE,2020-0188,2021-10-31,07:58:03,09:24:54,NA,incomplete,false,true,NA,NA,1,25,NA,green,m_s_038.jpg,NA,NA,NA,NA,NA,pleasant,unpleasant,NA,NA,NA,NA,NA,left,2790,true,NA,NA,NA,NA,NA,NA,NA,NA
75diWNKE,3fk4g712o0duz4m7qhicsa7sfszsso,3p1l2b7ad52ukjxiqt94l3foulwlox,75diWNKE,2020-0188,2021-10-31,07:58:03,09:24:54,NA,incomplete,false,true,NA,NA,1,26,NA,green,n_s_024.jpg,NA,NA,NA,NA,NA,pleasant,unpleasant,NA,NA,NA,NA,NA,left,2298,true,NA,NA,NA,NA,NA,NA,NA,NA
75diWNKE,3fk4g712o0duz4m7qhicsa7sfszsso,3p1l2b7ad52ukjxiqt94l3foulwlox,75diWNKE,2020-0188,2021-10-31,07:58:03,09:24:54,NA,incomplete,false,true,NA,NA,1,27,NA,green,n_s_059.jpg,NA,NA,NA,NA,NA,pleasant,unpleasant,NA,NA,NA,NA,NA,left,1623,true,NA,NA,NA,NA,NA,NA,NA,NA
75diWNKE,3fk4g712o0duz4m7qhicsa7sfszsso,3p1l2b7ad52ukjxiqt94l3foulwlox,75diWNKE,2020-0188,2021-10-31,07:58:03,09:24:54,NA,incomplete,false,true,NA,NA,1,28,NA,green,m_s_079.jpg,NA,NA,NA,NA,NA,pleasant,unpleasant,NA,NA,NA,NA,NA,left,2834,true,NA,NA,NA,NA,NA,NA,NA,NA
75diWNKE,3fk4g712o0duz4m7qhicsa7sfszsso,3p1l2b7ad52ukjxiqt94l3foulwlox,75diWNKE,2020-0188,2021-10-31,07:58:03,09:24:54,NA,incomplete,false,true,NA,NA,1,29,NA,green,m_l_071.jpg,NA,NA,NA,NA,NA,unpleasant,pleasant,NA,NA,NA,NA,NA,right,1774,true,NA,NA,NA,NA,NA,NA,NA,NA
75diWNKE,3fk4g712o0duz4m7qhicsa7sfszsso,3p1l2b7ad52ukjxiqt94l3foulwlox,75diWNKE,2020-0188,2021-10-31,07:58:03,09:24:54,NA,incomplete,false,true,NA,NA,1,30,NA,brown,n_l_005.jpg,NA,NA,NA,NA,NA,pleasant,unpleasant,NA,NA,NA,NA,NA,left,2698,true,NA,NA,NA,NA,NA,NA,NA,NA
75diWNKE,3fk4g712o0duz4m7qhicsa7sfszsso,3p1l2b7ad52ukjxiqt94l3foulwlox,75diWNKE,2020-0188,2021-10-31,07:58:03,09:24:54,NA,incomplete,false,true,NA,NA,1,31,NA,brown,m_l_052.jpg,NA,NA,NA,NA,NA,pleasant,unpleasant,NA,NA,NA,NA,NA,right,2279,true,NA,NA,NA,NA,NA,NA,NA,NA
75diWNKE,3fk4g712o0duz4m7qhicsa7sfszsso,3p1l2b7ad52ukjxiqt94l3foulwlox,75diWNKE,2020-0188,2021-10-31,07:58:03,09:24:54,NA,incomplete,false,true,NA,NA,1,32,NA,brown,n_l_040.jpg,NA,NA,NA,NA,NA,unpleasant,pleasant,NA,NA,NA,NA,NA,right,1714,true,NA,NA,NA,NA,NA,NA,NA,NA
75diWNKE,3fk4g712o0duz4m7qhicsa7sfszsso,3p1l2b7ad52ukjxiqt94l3foulwlox,75diWNKE,2020-0188,2021-10-31,07:58:03,09:24:54,NA,incomplete,false,true,NA,NA,1,33,NA,brown,n_l_002.jpg,NA,NA,NA,NA,NA,unpleasant,pleasant,NA,NA,NA,NA,NA,right,2152,true,NA,NA,NA,NA,NA,NA,NA,NA
75diWNKE,3fk4g712o0duz4m7qhicsa7sfszsso,3p1l2b7ad52ukjxiqt94l3foulwlox,75diWNKE,2020-0188,2021-10-31,07:58:03,09:24:54,NA,incomplete,false,true,NA,NA,1,34,NA,brown,n_l_114.jpg,NA,NA,NA,NA,NA,pleasant,unpleasant,NA,NA,NA,NA,NA,left,3044,true,NA,NA,NA,NA,NA,NA,NA,NA
75diWNKE,3fk4g712o0duz4m7qhicsa7sfszsso,3p1l2b7ad52ukjxiqt94l3foulwlox,75diWNKE,2020-0188,2021-10-31,07:58:03,09:24:54,NA,incomplete,false,true,NA,NA,1,35,NA,brown,n_s_053.jpg,NA,NA,NA,NA,NA,pleasant,unpleasant,NA,NA,NA,NA,NA,right,2665,true,NA,NA,NA,NA,NA,NA,NA,NA
75diWNKE,3fk4g712o0duz4m7qhicsa7sfszsso,3p1l2b7ad52ukjxiqt94l3foulwlox,75diWNKE,2020-0188,2021-10-31,07:58:03,09:24:54,NA,incomplete,false,NA,NA,true,1,0,NA,NA,NA,right,n_s_054.jpg,blue,white,NA,NA,NA,NA,NA,NA,NA,NA,NA,NaN,NA,3229,right,1,NA,NA,NA,NA,NA
75diWNKE,3fk4g712o0duz4m7qhicsa7sfszsso,3p1l2b7ad52ukjxiqt94l3foulwlox,75diWNKE,2020-0188,2021-10-31,07:58:03,09:24:54,NA,incomplete,false,NA,NA,true,1,1,NA,NA,NA,right,m_l_081.jpg,yellow,blue,NA,NA,NA,NA,NA,NA,NA,NA,NA,NaN,NA,8296,right,1,NA,NA,NA,NA,NA
75diWNKE,3fk4g712o0duz4m7qhicsa7sfszsso,3p1l2b7ad52ukjxiqt94l3foulwlox,75diWNKE,2020-0188,2021-10-31,07:58:03,09:24:54,NA,incomplete,false,NA,NA,true,1,2,NA,NA,NA,left,n_l_065.jpg,white,blue,NA,NA,NA,NA,NA,NA,NA,NA,NA,NaN,NA,2089,left,1,NA,NA,NA,NA,NA
75diWNKE,3fk4g712o0duz4m7qhicsa7sfszsso,3p1l2b7ad52ukjxiqt94l3foulwlox,75diWNKE,2020-0188,2021-10-31,07:58:03,09:24:54,NA,incomplete,false,NA,NA,true,1,3,NA,NA,NA,left,m_l_115.jpg,black,green,NA,NA,NA,NA,NA,NA,NA,NA,NA,NaN,NA,3269,right,0,NA,NA,NA,NA,NA
75diWNKE,3fk4g712o0duz4m7qhicsa7sfszsso,3p1l2b7ad52ukjxiqt94l3foulwlox,75diWNKE,2020-0188,2021-10-31,07:58:03,09:24:54,NA,incomplete,false,NA,NA,true,1,4,NA,NA,NA,left,m_l_070.jpg,blue,white,NA,NA,NA,NA,NA,NA,NA,NA,NA,NaN,NA,2335,right,0,NA,NA,NA,NA,NA
75diWNKE,3fk4g712o0duz4m7qhicsa7sfszsso,3p1l2b7ad52ukjxiqt94l3foulwlox,75diWNKE,2020-0188,2021-10-31,07:58:03,09:24:54,NA,incomplete,false,NA,NA,true,1,5,NA,NA,NA,right,m_l_052.jpg,green,brown,NA,NA,NA,NA,NA,NA,NA,NA,NA,NaN,NA,2136,right,1,NA,NA,NA,NA,NA
75diWNKE,3fk4g712o0duz4m7qhicsa7sfszsso,3p1l2b7ad52ukjxiqt94l3foulwlox,75diWNKE,2020-0188,2021-10-31,07:58:03,09:24:54,NA,incomplete,false,NA,NA,true,1,6,NA,NA,NA,right,n_s_053.jpg,green,brown,NA,NA,NA,NA,NA,NA,NA,NA,NA,NaN,NA,5659,right,1,NA,NA,NA,NA,NA
75diWNKE,3fk4g712o0duz4m7qhicsa7sfszsso,3p1l2b7ad52ukjxiqt94l3foulwlox,75diWNKE,2020-0188,2021-10-31,07:58:03,09:24:54,NA,incomplete,false,NA,NA,true,1,7,NA,NA,NA,left,m_l_107.jpg,yellow,blue,NA,NA,NA,NA,NA,NA,NA,NA,NA,NaN,NA,3050,right,0,NA,NA,NA,NA,NA
75diWNKE,3fk4g712o0duz4m7qhicsa7sfszsso,3p1l2b7ad52ukjxiqt94l3foulwlox,75diWNKE,2020-0188,2021-10-31,07:58:03,09:24:54,NA,incomplete,false,NA,NA,true,1,8,NA,NA,NA,left,m_l_098.jpg,blue,white,NA,NA,NA,NA,NA,NA,NA,NA,NA,NaN,NA,2392,right,0,NA,NA,NA,NA,NA
75diWNKE,3fk4g712o0duz4m7qhicsa7sfszsso,3p1l2b7ad52ukjxiqt94l3foulwlox,75diWNKE,2020-0188,2021-10-31,07:58:03,09:24:54,NA,incomplete,false,NA,NA,true,1,9,NA,NA,NA,right,m_s_038.jpg,black,green,NA,NA,NA,NA,NA,NA,NA,NA,NA,NaN,NA,2686,right,1,NA,NA,NA,NA,NA
75diWNKE,3fk4g712o0duz4m7qhicsa7sfszsso,3p1l2b7ad52ukjxiqt94l3foulwlox,75diWNKE,2020-0188,2021-10-31,07:58:03,09:24:54,NA,incomplete,false,NA,NA,true,1,10,NA,NA,NA,left,n_s_020.jpg,yellow,blue,NA,NA,NA,NA,NA,NA,NA,NA,NA,NaN,NA,4084,left,1,NA,NA,NA,NA,NA
75diWNKE,3fk4g712o0duz4m7qhicsa7sfszsso,3p1l2b7ad52ukjxiqt94l3foulwlox,75diWNKE,2020-0188,2021-10-31,07:58:03,09:24:54,NA,incomplete,false,NA,NA,true,1,11,NA,NA,NA,left,m_s_019.jpg,yellow,black,NA,NA,NA,NA,NA,NA,NA,NA,NA,NaN,NA,5047,right,0,NA,NA,NA,NA,NA
75diWNKE,3fk4g712o0duz4m7qhicsa7sfszsso,3p1l2b7ad52ukjxiqt94l3foulwlox,75diWNKE,2020-0188,2021-10-31,07:58:03,09:24:54,NA,incomplete,false,NA,NA,true,1,12,NA,NA,NA,right,m_s_079.jpg,brown,green,NA,NA,NA,NA,NA,NA,NA,NA,NA,NaN,NA,4845,left,0,NA,NA,NA,NA,NA
75diWNKE,3fk4g712o0duz4m7qhicsa7sfszsso,3p1l2b7ad52ukjxiqt94l3foulwlox,75diWNKE,2020-0188,2021-10-31,07:58:03,09:24:54,NA,incomplete,false,NA,NA,true,1,13,NA,NA,NA,right,m_l_057.jpg,yellow,black,NA,NA,NA,NA,NA,NA,NA,NA,NA,NaN,NA,4874,right,1,NA,NA,NA,NA,NA
75diWNKE,3fk4g712o0duz4m7qhicsa7sfszsso,3p1l2b7ad52ukjxiqt94l3foulwlox,75diWNKE,2020-0188,2021-10-31,07:58:03,09:24:54,NA,incomplete,false,NA,NA,true,1,14,NA,NA,NA,right,m_l_004.jpg,green,black,NA,NA,NA,NA,NA,NA,NA,NA,NA,NaN,NA,3019,right,1,NA,NA,NA,NA,NA
75diWNKE,3fk4g712o0duz4m7qhicsa7sfszsso,3p1l2b7ad52ukjxiqt94l3foulwlox,75diWNKE,2020-0188,2021-10-31,07:58:03,09:24:54,NA,incomplete,false,NA,NA,true,1,15,NA,NA,NA,left,n_l_024.jpg,blue,yellow,NA,NA,NA,NA,NA,NA,NA,NA,NA,NaN,NA,4900,left,1,NA,NA,NA,NA,NA
75diWNKE,3fk4g712o0duz4m7qhicsa7sfszsso,3p1l2b7ad52ukjxiqt94l3foulwlox,75diWNKE,2020-0188,2021-10-31,07:58:03,09:24:54,NA,incomplete,false,NA,NA,true,1,16,NA,NA,NA,right,n_s_024.jpg,black,green,NA,NA,NA,NA,NA,NA,NA,NA,NA,NaN,NA,2792,right,1,NA,NA,NA,NA,NA
75diWNKE,3fk4g712o0duz4m7qhicsa7sfszsso,3p1l2b7ad52ukjxiqt94l3foulwlox,75diWNKE,2020-0188,2021-10-31,07:58:03,09:24:54,NA,incomplete,false,NA,NA,true,1,17,NA,NA,NA,left,n_l_083.jpg,yellow,black,NA,NA,NA,NA,NA,NA,NA,NA,NA,NaN,NA,4790,right,0,NA,NA,NA,NA,NA
75diWNKE,3fk4g712o0duz4m7qhicsa7sfszsso,3p1l2b7ad52ukjxiqt94l3foulwlox,75diWNKE,2020-0188,2021-10-31,07:58:03,09:24:54,NA,incomplete,false,NA,NA,true,1,18,NA,NA,NA,right,n_l_040.jpg,green,brown,NA,NA,NA,NA,NA,NA,NA,NA,NA,NaN,NA,2057,right,1,NA,NA,NA,NA,NA
75diWNKE,3fk4g712o0duz4m7qhicsa7sfszsso,3p1l2b7ad52ukjxiqt94l3foulwlox,75diWNKE,2020-0188,2021-10-31,07:58:03,09:24:54,NA,incomplete,false,NA,NA,true,1,19,NA,NA,NA,right,m_s_104.jpg,yellow,black,NA,NA,NA,NA,NA,NA,NA,NA,NA,NaN,NA,5581,left,0,NA,NA,NA,NA,NA
75diWNKE,3fk4g712o0duz4m7qhicsa7sfszsso,3p1l2b7ad52ukjxiqt94l3foulwlox,75diWNKE,2020-0188,2021-10-31,07:58:03,09:24:54,NA,incomplete,false,NA,NA,true,1,20,NA,NA,NA,right,m_l_071.jpg,black,green,NA,NA,NA,NA,NA,NA,NA,NA,NA,NaN,NA,3819,left,0,NA,NA,NA,NA,NA
75diWNKE,3fk4g712o0duz4m7qhicsa7sfszsso,3p1l2b7ad52ukjxiqt94l3foulwlox,75diWNKE,2020-0188,2021-10-31,07:58:03,09:24:54,NA,incomplete,false,NA,NA,true,1,21,NA,NA,NA,left,n_l_076.jpg,white,blue,NA,NA,NA,NA,NA,NA,NA,NA,NA,NaN,NA,2126,left,1,NA,NA,NA,NA,NA
75diWNKE,3fk4g712o0duz4m7qhicsa7sfszsso,3p1l2b7ad52ukjxiqt94l3foulwlox,75diWNKE,2020-0188,2021-10-31,07:58:03,09:24:54,NA,incomplete,false,NA,true,NA,1,0,NA,NA,NA,left,NA,NA,NA,absent,NA,NA,n_s_020.jpg,yellow,n_l_083.jpg,yellow,within,NA,NaN,NA,NA,NA,NA,right,4729,0,2,3712
75diWNKE,3fk4g712o0duz4m7qhicsa7sfszsso,3p1l2b7ad52ukjxiqt94l3foulwlox,75diWNKE,2020-0188,2021-10-31,07:58:03,09:24:54,NA,incomplete,false,NA,true,NA,1,1,NA,NA,NA,right,NA,NA,NA,absent,NA,NA,m_s_104.jpg,black,m_l_057.jpg,black,within,NA,NaN,NA,NA,NA,NA,right,5163,1,0,6188
75diWNKE,3fk4g712o0duz4m7qhicsa7sfszsso,3p1l2b7ad52ukjxiqt94l3foulwlox,75diWNKE,2020-0188,2021-10-31,07:58:03,09:24:54,NA,incomplete,false,NA,true,NA,1,2,NA,NA,NA,left,NA,NA,NA,absent,NA,NA,m_s_038.jpg,green,m_l_071.jpg,green,within,NA,NaN,NA,NA,NA,NA,left,4232,1,0,1243
75diWNKE,3fk4g712o0duz4m7qhicsa7sfszsso,3p1l2b7ad52ukjxiqt94l3foulwlox,75diWNKE,2020-0188,2021-10-31,07:58:03,09:24:54,NA,incomplete,false,NA,true,NA,1,3,NA,NA,NA,left,NA,NA,NA,absent,NA,NA,m_s_019.jpg,yellow,m_l_004.jpg,black,between,NA,NaN,NA,NA,NA,NA,left,5265,1,1,1988
75diWNKE,3fk4g712o0duz4m7qhicsa7sfszsso,3p1l2b7ad52ukjxiqt94l3foulwlox,75diWNKE,2020-0188,2021-10-31,07:58:03,09:24:54,NA,incomplete,false,NA,true,NA,1,4,NA,NA,NA,left,NA,NA,NA,absent,NA,NA,m_l_115.jpg,black,n_s_024.jpg,green,between,NA,NaN,NA,NA,NA,NA,right,4441,0,1,10276
75diWNKE,3fk4g712o0duz4m7qhicsa7sfszsso,3p1l2b7ad52ukjxiqt94l3foulwlox,75diWNKE,2020-0188,2021-10-31,07:58:03,09:24:54,NA,incomplete,false,NA,true,NA,1,5,NA,NA,NA,left,NA,NA,NA,absent,NA,NA,n_l_065.jpg,white,n_l_024.jpg,blue,between,NA,NaN,NA,NA,NA,NA,right,6738,0,1,3541
75diWNKE,3fk4g712o0duz4m7qhicsa7sfszsso,3p1l2b7ad52ukjxiqt94l3foulwlox,75diWNKE,2020-0188,2021-10-31,07:58:03,09:24:54,NA,incomplete,false,NA,true,NA,1,6,NA,NA,NA,right,NA,NA,NA,absent,NA,NA,m_l_098.jpg,blue,m_l_070.jpg,blue,within,NA,NaN,NA,NA,NA,NA,right,6246,1,0,1895
75diWNKE,3fk4g712o0duz4m7qhicsa7sfszsso,3p1l2b7ad52ukjxiqt94l3foulwlox,75diWNKE,2020-0188,2021-10-31,07:58:03,09:24:54,NA,incomplete,false,NA,true,NA,1,7,NA,NA,NA,right,NA,NA,NA,absent,NA,NA,m_l_107.jpg,yellow,m_l_081.jpg,blue,between,NA,NaN,NA,NA,NA,NA,right,2819,1,1,2780
75diWNKE,3fk4g712o0duz4m7qhicsa7sfszsso,3p1l2b7ad52ukjxiqt94l3foulwlox,75diWNKE,2020-0188,2021-10-31,07:58:03,09:24:54,NA,incomplete,false,NA,true,NA,1,8,NA,NA,NA,left,NA,NA,NA,absent,NA,NA,m_s_079.jpg,green,n_l_040.jpg,brown,between,NA,NaN,NA,NA,NA,NA,left,7237,1,1,2501
75diWNKE,3fk4g712o0duz4m7qhicsa7sfszsso,3p1l2b7ad52ukjxiqt94l3foulwlox,75diWNKE,2020-0188,2021-10-31,07:58:03,09:24:54,NA,incomplete,false,NA,true,NA,1,9,NA,NA,NA,left,NA,NA,NA,absent,NA,NA,m_l_052.jpg,brown,n_s_053.jpg,brown,within,NA,NaN,NA,NA,NA,NA,left,3617,1,0,2020
75diWNKE,3fk4g712o0duz4m7qhicsa7sfszsso,3p1l2b7ad52ukjxiqt94l3foulwlox,75diWNKE,2020-0188,2021-10-31,07:58:03,09:24:54,NA,incomplete,false,NA,true,NA,1,10,NA,NA,NA,left,NA,NA,NA,absent,NA,NA,n_s_054.jpg,white,n_l_076.jpg,white,within,NA,NaN,NA,NA,NA,NA,left,5466,1,0,1189
75diWNKE,3fk4g712o0duz4m7qhicsa7sfszsso,3p1l2b7ad52ukjxiqt94l3foulwlox,75diWNKE,2020-0188,2021-10-31,07:58:03,09:24:54,NA,incomplete,false,true,NA,NA,2,0,NA,orange,n_l_095.jpg,NA,NA,NA,NA,NA,unpleasant,pleasant,NA,NA,NA,NA,NA,right,2477,true,NA,NA,NA,NA,NA,NA,NA,NA
75diWNKE,3fk4g712o0duz4m7qhicsa7sfszsso,3p1l2b7ad52ukjxiqt94l3foulwlox,75diWNKE,2020-0188,2021-10-31,07:58:03,09:24:54,NA,incomplete,false,true,NA,NA,2,1,NA,orange,m_l_078.jpg,NA,NA,NA,NA,NA,unpleasant,pleasant,NA,NA,NA,NA,NA,left,1618,true,NA,NA,NA,NA,NA,NA,NA,NA
75diWNKE,3fk4g712o0duz4m7qhicsa7sfszsso,3p1l2b7ad52ukjxiqt94l3foulwlox,75diWNKE,2020-0188,2021-10-31,07:58:03,09:24:54,NA,incomplete,false,true,NA,NA,2,2,NA,orange,m_s_109.jpg,NA,NA,NA,NA,NA,pleasant,unpleasant,NA,NA,NA,NA,NA,left,1637,true,NA,NA,NA,NA,NA,NA,NA,NA
75diWNKE,3fk4g712o0duz4m7qhicsa7sfszsso,3p1l2b7ad52ukjxiqt94l3foulwlox,75diWNKE,2020-0188,2021-10-31,07:58:03,09:24:54,NA,incomplete,false,true,NA,NA,2,3,NA,orange,n_l_046.jpg,NA,NA,NA,NA,NA,pleasant,unpleasant,NA,NA,NA,NA,NA,left,2394,true,NA,NA,NA,NA,NA,NA,NA,NA
75diWNKE,3fk4g712o0duz4m7qhicsa7sfszsso,3p1l2b7ad52ukjxiqt94l3foulwlox,75diWNKE,2020-0188,2021-10-31,07:58:03,09:24:54,NA,incomplete,false,true,NA,NA,2,4,NA,orange,n_s_104.jpg,NA,NA,NA,NA,NA,pleasant,unpleasant,NA,NA,NA,NA,NA,left,1374,true,NA,NA,NA,NA,NA,NA,NA,NA
75diWNKE,3fk4g712o0duz4m7qhicsa7sfszsso,3p1l2b7ad52ukjxiqt94l3foulwlox,75diWNKE,2020-0188,2021-10-31,07:58:03,09:24:54,NA,incomplete,false,true,NA,NA,2,5,NA,orange,n_s_079.jpg,NA,NA,NA,NA,NA,pleasant,unpleasant,NA,NA,NA,NA,NA,left,2187,true,NA,NA,NA,NA,NA,NA,NA,NA
75diWNKE,3fk4g712o0duz4m7qhicsa7sfszsso,3p1l2b7ad52ukjxiqt94l3foulwlox,75diWNKE,2020-0188,2021-10-31,07:58:03,09:24:54,NA,incomplete,false,true,NA,NA,2,6,NA,gray,n_l_047.jpg,NA,NA,NA,NA,NA,pleasant,unpleasant,NA,NA,NA,NA,NA,left,1319,true,NA,NA,NA,NA,NA,NA,NA,NA
75diWNKE,3fk4g712o0duz4m7qhicsa7sfszsso,3p1l2b7ad52ukjxiqt94l3foulwlox,75diWNKE,2020-0188,2021-10-31,07:58:03,09:24:54,NA,incomplete,false,true,NA,NA,2,7,NA,gray,n_l_087.jpg,NA,NA,NA,NA,NA,pleasant,unpleasant,NA,NA,NA,NA,NA,left,1394,true,NA,NA,NA,NA,NA,NA,NA,NA
75diWNKE,3fk4g712o0duz4m7qhicsa7sfszsso,3p1l2b7ad52ukjxiqt94l3foulwlox,75diWNKE,2020-0188,2021-10-31,07:58:03,09:24:54,NA,incomplete,false,true,NA,NA,2,8,NA,gray,n_l_062.jpg,NA,NA,NA,NA,NA,pleasant,unpleasant,NA,NA,NA,NA,NA,left,1655,true,NA,NA,NA,NA,NA,NA,NA,NA
75diWNKE,3fk4g712o0duz4m7qhicsa7sfszsso,3p1l2b7ad52ukjxiqt94l3foulwlox,75diWNKE,2020-0188,2021-10-31,07:58:03,09:24:54,NA,incomplete,false,true,NA,NA,2,9,NA,gray,n_s_082.jpg,NA,NA,NA,NA,NA,unpleasant,pleasant,NA,NA,NA,NA,NA,left,3082,true,NA,NA,NA,NA,NA,NA,NA,NA
75diWNKE,3fk4g712o0duz4m7qhicsa7sfszsso,3p1l2b7ad52ukjxiqt94l3foulwlox,75diWNKE,2020-0188,2021-10-31,07:58:03,09:24:54,NA,incomplete,false,true,NA,NA,2,10,NA,gray,n_l_091.jpg,NA,NA,NA,NA,NA,pleasant,unpleasant,NA,NA,NA,NA,NA,left,2336,true,NA,NA,NA,NA,NA,NA,NA,NA
75diWNKE,3fk4g712o0duz4m7qhicsa7sfszsso,3p1l2b7ad52ukjxiqt94l3foulwlox,75diWNKE,2020-0188,2021-10-31,07:58:03,09:24:54,NA,incomplete,false,true,NA,NA,2,11,NA,gray,n_l_035.jpg,NA,NA,NA,NA,NA,unpleasant,pleasant,NA,NA,NA,NA,NA,right,3099,true,NA,NA,NA,NA,NA,NA,NA,NA
75diWNKE,3fk4g712o0duz4m7qhicsa7sfszsso,3p1l2b7ad52ukjxiqt94l3foulwlox,75diWNKE,2020-0188,2021-10-31,07:58:03,09:24:54,NA,incomplete,false,true,NA,NA,2,12,NA,blue,n_s_048.jpg,NA,NA,NA,NA,NA,unpleasant,pleasant,NA,NA,NA,NA,NA,right,1880,true,NA,NA,NA,NA,NA,NA,NA,NA
75diWNKE,3fk4g712o0duz4m7qhicsa7sfszsso,3p1l2b7ad52ukjxiqt94l3foulwlox,75diWNKE,2020-0188,2021-10-31,07:58:03,09:24:54,NA,incomplete,false,true,NA,NA,2,13,NA,blue,m_l_040.jpg,NA,NA,NA,NA,NA,unpleasant,pleasant,NA,NA,NA,NA,NA,right,1596,true,NA,NA,NA,NA,NA,NA,NA,NA
75diWNKE,3fk4g712o0duz4m7qhicsa7sfszsso,3p1l2b7ad52ukjxiqt94l3foulwlox,75diWNKE,2020-0188,2021-10-31,07:58:03,09:24:54,NA,incomplete,false,true,NA,NA,2,14,NA,blue,m_s_105.jpg,NA,NA,NA,NA,NA,unpleasant,pleasant,NA,NA,NA,NA,NA,right,1768,true,NA,NA,NA,NA,NA,NA,NA,NA
75diWNKE,3fk4g712o0duz4m7qhicsa7sfszsso,3p1l2b7ad52ukjxiqt94l3foulwlox,75diWNKE,2020-0188,2021-10-31,07:58:03,09:24:54,NA,incomplete,false,true,NA,NA,2,15,NA,blue,n_s_022.jpg,NA,NA,NA,NA,NA,pleasant,unpleasant,NA,NA,NA,NA,NA,left,1860,true,NA,NA,NA,NA,NA,NA,NA,NA
75diWNKE,3fk4g712o0duz4m7qhicsa7sfszsso,3p1l2b7ad52ukjxiqt94l3foulwlox,75diWNKE,2020-0188,2021-10-31,07:58:03,09:24:54,NA,incomplete,false,true,NA,NA,2,16,NA,blue,m_l_007.jpg,NA,NA,NA,NA,NA,unpleasant,pleasant,NA,NA,NA,NA,NA,right,1881,true,NA,NA,NA,NA,NA,NA,NA,NA
75diWNKE,3fk4g712o0duz4m7qhicsa7sfszsso,3p1l2b7ad52ukjxiqt94l3foulwlox,75diWNKE,2020-0188,2021-10-31,07:58:03,09:24:54,NA,incomplete,false,true,NA,NA,2,17,NA,blue,n_l_012.jpg,NA,NA,NA,NA,NA,pleasant,unpleasant,NA,NA,NA,NA,NA,left,1686,true,NA,NA,NA,NA,NA,NA,NA,NA
75diWNKE,3fk4g712o0duz4m7qhicsa7sfszsso,3p1l2b7ad52ukjxiqt94l3foulwlox,75diWNKE,2020-0188,2021-10-31,07:58:03,09:24:54,NA,incomplete,false,true,NA,NA,2,18,NA,red,n_l_021.jpg,NA,NA,NA,NA,NA,unpleasant,pleasant,NA,NA,NA,NA,NA,right,1610,true,NA,NA,NA,NA,NA,NA,NA,NA
75diWNKE,3fk4g712o0duz4m7qhicsa7sfszsso,3p1l2b7ad52ukjxiqt94l3foulwlox,75diWNKE,2020-0188,2021-10-31,07:58:03,09:24:54,NA,incomplete,false,true,NA,NA,2,19,NA,red,n_s_038.jpg,NA,NA,NA,NA,NA,unpleasant,pleasant,NA,NA,NA,NA,NA,left,2046,true,NA,NA,NA,NA,NA,NA,NA,NA
75diWNKE,3fk4g712o0duz4m7qhicsa7sfszsso,3p1l2b7ad52ukjxiqt94l3foulwlox,75diWNKE,2020-0188,2021-10-31,07:58:03,09:24:54,NA,incomplete,false,true,NA,NA,2,20,NA,red,n_l_107.jpg,NA,NA,NA,NA,NA,pleasant,unpleasant,NA,NA,NA,NA,NA,left,2739,true,NA,NA,NA,NA,NA,NA,NA,NA
75diWNKE,3fk4g712o0duz4m7qhicsa7sfszsso,3p1l2b7ad52ukjxiqt94l3foulwlox,75diWNKE,2020-0188,2021-10-31,07:58:03,09:24:54,NA,incomplete,false,true,NA,NA,2,21,NA,red,n_s_109.jpg,NA,NA,NA,NA,NA,unpleasant,pleasant,NA,NA,NA,NA,NA,right,3086,true,NA,NA,NA,NA,NA,NA,NA,NA
75diWNKE,3fk4g712o0duz4m7qhicsa7sfszsso,3p1l2b7ad52ukjxiqt94l3foulwlox,75diWNKE,2020-0188,2021-10-31,07:58:03,09:24:54,NA,incomplete,false,true,NA,NA,2,22,NA,red,n_l_115.jpg,NA,NA,NA,NA,NA,pleasant,unpleasant,NA,NA,NA,NA,NA,left,1809,true,NA,NA,NA,NA,NA,NA,NA,NA
75diWNKE,3fk4g712o0duz4m7qhicsa7sfszsso,3p1l2b7ad52ukjxiqt94l3foulwlox,75diWNKE,2020-0188,2021-10-31,07:58:03,09:24:54,NA,incomplete,false,true,NA,NA,2,23,NA,red,n_s_008.jpg,NA,NA,NA,NA,NA,unpleasant,pleasant,NA,NA,NA,NA,NA,left,2551,true,NA,NA,NA,NA,NA,NA,NA,NA
75diWNKE,3fk4g712o0duz4m7qhicsa7sfszsso,3p1l2b7ad52ukjxiqt94l3foulwlox,75diWNKE,2020-0188,2021-10-31,07:58:03,09:24:54,NA,incomplete,false,true,NA,NA,2,24,NA,brown,n_l_015.jpg,NA,NA,NA,NA,NA,unpleasant,pleasant,NA,NA,NA,NA,NA,right,1474,true,NA,NA,NA,NA,NA,NA,NA,NA
75diWNKE,3fk4g712o0duz4m7qhicsa7sfszsso,3p1l2b7ad52ukjxiqt94l3foulwlox,75diWNKE,2020-0188,2021-10-31,07:58:03,09:24:54,NA,incomplete,false,true,NA,NA,2,25,NA,brown,m_l_009.jpg,NA,NA,NA,NA,NA,unpleasant,pleasant,NA,NA,NA,NA,NA,right,1487,true,NA,NA,NA,NA,NA,NA,NA,NA
75diWNKE,3fk4g712o0duz4m7qhicsa7sfszsso,3p1l2b7ad52ukjxiqt94l3foulwlox,75diWNKE,2020-0188,2021-10-31,07:58:03,09:24:54,NA,incomplete,false,true,NA,NA,2,26,NA,brown,m_s_068.jpg,NA,NA,NA,NA,NA,pleasant,unpleasant,NA,NA,NA,NA,NA,left,1754,true,NA,NA,NA,NA,NA,NA,NA,NA
75diWNKE,3fk4g712o0duz4m7qhicsa7sfszsso,3p1l2b7ad52ukjxiqt94l3foulwlox,75diWNKE,2020-0188,2021-10-31,07:58:03,09:24:54,NA,incomplete,false,true,NA,NA,2,27,NA,brown,n_l_109.jpg,NA,NA,NA,NA,NA,pleasant,unpleasant,NA,NA,NA,NA,NA,left,1782,true,NA,NA,NA,NA,NA,NA,NA,NA
75diWNKE,3fk4g712o0duz4m7qhicsa7sfszsso,3p1l2b7ad52ukjxiqt94l3foulwlox,75diWNKE,2020-0188,2021-10-31,07:58:03,09:24:54,NA,incomplete,false,true,NA,NA,2,28,NA,brown,m_l_024.jpg,NA,NA,NA,NA,NA,unpleasant,pleasant,NA,NA,NA,NA,NA,right,2075,true,NA,NA,NA,NA,NA,NA,NA,NA
75diWNKE,3fk4g712o0duz4m7qhicsa7sfszsso,3p1l2b7ad52ukjxiqt94l3foulwlox,75diWNKE,2020-0188,2021-10-31,07:58:03,09:24:54,NA,incomplete,false,true,NA,NA,2,29,NA,brown,n_l_084.jpg,NA,NA,NA,NA,NA,unpleasant,pleasant,NA,NA,NA,NA,NA,right,2191,true,NA,NA,NA,NA,NA,NA,NA,NA
75diWNKE,3fk4g712o0duz4m7qhicsa7sfszsso,3p1l2b7ad52ukjxiqt94l3foulwlox,75diWNKE,2020-0188,2021-10-31,07:58:03,09:24:54,NA,incomplete,false,true,NA,NA,2,30,NA,white,m_s_006.jpg,NA,NA,NA,NA,NA,pleasant,unpleasant,NA,NA,NA,NA,NA,left,1922,true,NA,NA,NA,NA,NA,NA,NA,NA
75diWNKE,3fk4g712o0duz4m7qhicsa7sfszsso,3p1l2b7ad52ukjxiqt94l3foulwlox,75diWNKE,2020-0188,2021-10-31,07:58:03,09:24:54,NA,incomplete,false,true,NA,NA,2,31,NA,white,m_l_101.jpg,NA,NA,NA,NA,NA,pleasant,unpleasant,NA,NA,NA,NA,NA,left,2175,true,NA,NA,NA,NA,NA,NA,NA,NA
75diWNKE,3fk4g712o0duz4m7qhicsa7sfszsso,3p1l2b7ad52ukjxiqt94l3foulwlox,75diWNKE,2020-0188,2021-10-31,07:58:03,09:24:54,NA,incomplete,false,true,NA,NA,2,32,NA,white,m_s_067.jpg,NA,NA,NA,NA,NA,unpleasant,pleasant,NA,NA,NA,NA,NA,right,1708,true,NA,NA,NA,NA,NA,NA,NA,NA
75diWNKE,3fk4g712o0duz4m7qhicsa7sfszsso,3p1l2b7ad52ukjxiqt94l3foulwlox,75diWNKE,2020-0188,2021-10-31,07:58:03,09:24:54,NA,incomplete,false,true,NA,NA,2,33,NA,white,n_l_117.jpg,NA,NA,NA,NA,NA,unpleasant,pleasant,NA,NA,NA,NA,NA,right,2015,true,NA,NA,NA,NA,NA,NA,NA,NA
75diWNKE,3fk4g712o0duz4m7qhicsa7sfszsso,3p1l2b7ad52ukjxiqt94l3foulwlox,75diWNKE,2020-0188,2021-10-31,07:58:03,09:24:54,NA,incomplete,false,true,NA,NA,2,34,NA,white,m_s_042.jpg,NA,NA,NA,NA,NA,unpleasant,pleasant,NA,NA,NA,NA,NA,right,1797,true,NA,NA,NA,NA,NA,NA,NA,NA
75diWNKE,3fk4g712o0duz4m7qhicsa7sfszsso,3p1l2b7ad52ukjxiqt94l3foulwlox,75diWNKE,2020-0188,2021-10-31,07:58:03,09:24:54,NA,incomplete,false,true,NA,NA,2,35,NA,white,n_l_016.jpg,NA,NA,NA,NA,NA,pleasant,unpleasant,NA,NA,NA,NA,NA,left,1633,true,NA,NA,NA,NA,NA,NA,NA,NA
75diWNKE,3fk4g712o0duz4m7qhicsa7sfszsso,3p1l2b7ad52ukjxiqt94l3foulwlox,75diWNKE,2020-0188,2021-10-31,07:58:03,09:24:54,NA,incomplete,false,NA,NA,true,2,0,NA,NA,NA,left,m_s_067.jpg,white,brown,NA,NA,NA,NA,NA,NA,NA,NA,NA,NaN,NA,4204,left,1,NA,NA,NA,NA,NA
75diWNKE,3fk4g712o0duz4m7qhicsa7sfszsso,3p1l2b7ad52ukjxiqt94l3foulwlox,75diWNKE,2020-0188,2021-10-31,07:58:03,09:24:54,NA,incomplete,false,NA,NA,true,2,1,NA,NA,NA,left,n_l_084.jpg,brown,red,NA,NA,NA,NA,NA,NA,NA,NA,NA,NaN,NA,2808,left,1,NA,NA,NA,NA,NA
75diWNKE,3fk4g712o0duz4m7qhicsa7sfszsso,3p1l2b7ad52ukjxiqt94l3foulwlox,75diWNKE,2020-0188,2021-10-31,07:58:03,09:24:54,NA,incomplete,false,NA,NA,true,2,2,NA,NA,NA,left,m_s_068.jpg,brown,white,NA,NA,NA,NA,NA,NA,NA,NA,NA,NaN,NA,3919,left,1,NA,NA,NA,NA,NA
75diWNKE,3fk4g712o0duz4m7qhicsa7sfszsso,3p1l2b7ad52ukjxiqt94l3foulwlox,75diWNKE,2020-0188,2021-10-31,07:58:03,09:24:54,NA,incomplete,false,NA,NA,true,2,3,NA,NA,NA,right,n_l_087.jpg,orange,gray,NA,NA,NA,NA,NA,NA,NA,NA,NA,NaN,NA,2809,right,1,NA,NA,NA,NA,NA
75diWNKE,3fk4g712o0duz4m7qhicsa7sfszsso,3p1l2b7ad52ukjxiqt94l3foulwlox,75diWNKE,2020-0188,2021-10-31,07:58:03,09:24:54,NA,incomplete,false,NA,NA,true,2,4,NA,NA,NA,right,n_s_079.jpg,gray,orange,NA,NA,NA,NA,NA,NA,NA,NA,NA,NaN,NA,3701,left,0,NA,NA,NA,NA,NA
75diWNKE,3fk4g712o0duz4m7qhicsa7sfszsso,3p1l2b7ad52ukjxiqt94l3foulwlox,75diWNKE,2020-0188,2021-10-31,07:58:03,09:24:54,NA,incomplete,false,NA,NA,true,2,5,NA,NA,NA,right,n_s_038.jpg,blue,red,NA,NA,NA,NA,NA,NA,NA,NA,NA,NaN,NA,3887,right,1,NA,NA,NA,NA,NA
75diWNKE,3fk4g712o0duz4m7qhicsa7sfszsso,3p1l2b7ad52ukjxiqt94l3foulwlox,75diWNKE,2020-0188,2021-10-31,07:58:03,09:24:54,NA,incomplete,false,NA,NA,true,2,6,NA,NA,NA,right,m_l_078.jpg,gray,orange,NA,NA,NA,NA,NA,NA,NA,NA,NA,NaN,NA,2421,left,0,NA,NA,NA,NA,NA
75diWNKE,3fk4g712o0duz4m7qhicsa7sfszsso,3p1l2b7ad52ukjxiqt94l3foulwlox,75diWNKE,2020-0188,2021-10-31,07:58:03,09:24:54,NA,incomplete,false,NA,NA,true,2,7,NA,NA,NA,right,n_s_104.jpg,gray,orange,NA,NA,NA,NA,NA,NA,NA,NA,NA,NaN,NA,2499,left,0,NA,NA,NA,NA,NA
75diWNKE,3fk4g712o0duz4m7qhicsa7sfszsso,3p1l2b7ad52ukjxiqt94l3foulwlox,75diWNKE,2020-0188,2021-10-31,07:58:03,09:24:54,NA,incomplete,false,NA,NA,true,2,8,NA,NA,NA,left,n_l_107.jpg,red,brown,NA,NA,NA,NA,NA,NA,NA,NA,NA,NaN,NA,3856,right,0,NA,NA,NA,NA,NA
75diWNKE,3fk4g712o0duz4m7qhicsa7sfszsso,3p1l2b7ad52ukjxiqt94l3foulwlox,75diWNKE,2020-0188,2021-10-31,07:58:03,09:24:54,NA,incomplete,false,NA,NA,true,2,9,NA,NA,NA,left,n_l_091.jpg,gray,blue,NA,NA,NA,NA,NA,NA,NA,NA,NA,NaN,NA,3872,right,0,NA,NA,NA,NA,NA
75diWNKE,3fk4g712o0duz4m7qhicsa7sfszsso,3p1l2b7ad52ukjxiqt94l3foulwlox,75diWNKE,2020-0188,2021-10-31,07:58:03,09:24:54,NA,incomplete,false,NA,NA,true,2,10,NA,NA,NA,right,n_l_012.jpg,red,blue,NA,NA,NA,NA,NA,NA,NA,NA,NA,NaN,NA,4781,right,1,NA,NA,NA,NA,NA
75diWNKE,3fk4g712o0duz4m7qhicsa7sfszsso,3p1l2b7ad52ukjxiqt94l3foulwlox,75diWNKE,2020-0188,2021-10-31,07:58:03,09:24:54,NA,incomplete,false,NA,NA,true,2,11,NA,NA,NA,left,m_l_007.jpg,blue,red,NA,NA,NA,NA,NA,NA,NA,NA,NA,NaN,NA,2469,right,0,NA,NA,NA,NA,NA
75diWNKE,3fk4g712o0duz4m7qhicsa7sfszsso,3p1l2b7ad52ukjxiqt94l3foulwlox,75diWNKE,2020-0188,2021-10-31,07:58:03,09:24:54,NA,incomplete,false,NA,NA,true,2,12,NA,NA,NA,right,m_l_101.jpg,brown,white,NA,NA,NA,NA,NA,NA,NA,NA,NA,NaN,NA,2072,right,1,NA,NA,NA,NA,NA
75diWNKE,3fk4g712o0duz4m7qhicsa7sfszsso,3p1l2b7ad52ukjxiqt94l3foulwlox,75diWNKE,2020-0188,2021-10-31,07:58:03,09:24:54,NA,incomplete,false,NA,NA,true,2,13,NA,NA,NA,left,m_s_105.jpg,blue,gray,NA,NA,NA,NA,NA,NA,NA,NA,NA,NaN,NA,5510,left,1,NA,NA,NA,NA,NA
75diWNKE,3fk4g712o0duz4m7qhicsa7sfszsso,3p1l2b7ad52ukjxiqt94l3foulwlox,75diWNKE,2020-0188,2021-10-31,07:58:03,09:24:54,NA,incomplete,false,NA,NA,true,2,14,NA,NA,NA,right,n_s_008.jpg,blue,red,NA,NA,NA,NA,NA,NA,NA,NA,NA,NaN,NA,4509,right,1,NA,NA,NA,NA,NA
75diWNKE,3fk4g712o0duz4m7qhicsa7sfszsso,3p1l2b7ad52ukjxiqt94l3foulwlox,75diWNKE,2020-0188,2021-10-31,07:58:03,09:24:54,NA,incomplete,false,NA,NA,true,2,15,NA,NA,NA,left,n_l_062.jpg,gray,orange,NA,NA,NA,NA,NA,NA,NA,NA,NA,NaN,NA,3653,right,0,NA,NA,NA,NA,NA
75diWNKE,3fk4g712o0duz4m7qhicsa7sfszsso,3p1l2b7ad52ukjxiqt94l3foulwlox,75diWNKE,2020-0188,2021-10-31,07:58:03,09:24:54,NA,incomplete,false,NA,NA,true,2,16,NA,NA,NA,right,m_l_009.jpg,white,brown,NA,NA,NA,NA,NA,NA,NA,NA,NA,NaN,NA,1888,right,1,NA,NA,NA,NA,NA
75diWNKE,3fk4g712o0duz4m7qhicsa7sfszsso,3p1l2b7ad52ukjxiqt94l3foulwlox,75diWNKE,2020-0188,2021-10-31,07:58:03,09:24:54,NA,incomplete,false,NA,NA,true,2,17,NA,NA,NA,right,n_l_035.jpg,blue,gray,NA,NA,NA,NA,NA,NA,NA,NA,NA,NaN,NA,2400,right,1,NA,NA,NA,NA,NA
75diWNKE,3fk4g712o0duz4m7qhicsa7sfszsso,3p1l2b7ad52ukjxiqt94l3foulwlox,75diWNKE,2020-0188,2021-10-31,07:58:03,09:24:54,NA,incomplete,false,NA,NA,true,2,18,NA,NA,NA,right,m_l_040.jpg,red,blue,NA,NA,NA,NA,NA,NA,NA,NA,NA,NaN,NA,4377,right,1,NA,NA,NA,NA,NA
75diWNKE,3fk4g712o0duz4m7qhicsa7sfszsso,3p1l2b7ad52ukjxiqt94l3foulwlox,75diWNKE,2020-0188,2021-10-31,07:58:03,09:24:54,NA,incomplete,false,NA,NA,true,2,19,NA,NA,NA,right,n_l_115.jpg,brown,red,NA,NA,NA,NA,NA,NA,NA,NA,NA,NaN,NA,3143,left,0,NA,NA,NA,NA,NA
75diWNKE,3fk4g712o0duz4m7qhicsa7sfszsso,3p1l2b7ad52ukjxiqt94l3foulwlox,75diWNKE,2020-0188,2021-10-31,07:58:03,09:24:54,NA,incomplete,false,NA,NA,true,2,20,NA,NA,NA,right,m_l_024.jpg,red,brown,NA,NA,NA,NA,NA,NA,NA,NA,NA,NaN,NA,2639,right,1,NA,NA,NA,NA,NA
75diWNKE,3fk4g712o0duz4m7qhicsa7sfszsso,3p1l2b7ad52ukjxiqt94l3foulwlox,75diWNKE,2020-0188,2021-10-31,07:58:03,09:24:54,NA,incomplete,false,NA,NA,true,2,21,NA,NA,NA,right,n_l_016.jpg,brown,white,NA,NA,NA,NA,NA,NA,NA,NA,NA,NaN,NA,4826,left,0,NA,NA,NA,NA,NA
75diWNKE,3fk4g712o0duz4m7qhicsa7sfszsso,3p1l2b7ad52ukjxiqt94l3foulwlox,75diWNKE,2020-0188,2021-10-31,07:58:03,09:24:54,NA,incomplete,false,NA,true,NA,2,0,NA,NA,NA,left,NA,NA,NA,absent,NA,NA,n_l_087.jpg,gray,n_l_035.jpg,gray,within,NA,NaN,NA,NA,NA,NA,left,3276,1,2,9127
75diWNKE,3fk4g712o0duz4m7qhicsa7sfszsso,3p1l2b7ad52ukjxiqt94l3foulwlox,75diWNKE,2020-0188,2021-10-31,07:58:03,09:24:54,NA,incomplete,false,NA,true,NA,2,1,NA,NA,NA,right,NA,NA,NA,absent,NA,NA,n_l_084.jpg,brown,m_l_009.jpg,brown,within,NA,NaN,NA,NA,NA,NA,right,8547,1,0,1980
75diWNKE,3fk4g712o0duz4m7qhicsa7sfszsso,3p1l2b7ad52ukjxiqt94l3foulwlox,75diWNKE,2020-0188,2021-10-31,07:58:03,09:24:54,NA,incomplete,false,NA,true,NA,2,2,NA,NA,NA,right,NA,NA,NA,absent,NA,NA,n_l_107.jpg,red,m_l_007.jpg,blue,between,NA,NaN,NA,NA,NA,NA,right,3711,1,1,1697
75diWNKE,3fk4g712o0duz4m7qhicsa7sfszsso,3p1l2b7ad52ukjxiqt94l3foulwlox,75diWNKE,2020-0188,2021-10-31,07:58:03,09:24:54,NA,incomplete,false,NA,true,NA,2,3,NA,NA,NA,left,NA,NA,NA,absent,NA,NA,n_s_038.jpg,red,n_s_008.jpg,red,within,NA,NaN,NA,NA,NA,NA,right,8035,0,1,2157
75diWNKE,3fk4g712o0duz4m7qhicsa7sfszsso,3p1l2b7ad52ukjxiqt94l3foulwlox,75diWNKE,2020-0188,2021-10-31,07:58:03,09:24:54,NA,incomplete,false,NA,true,NA,2,4,NA,NA,NA,right,NA,NA,NA,absent,NA,NA,n_l_012.jpg,blue,m_l_040.jpg,blue,within,NA,NaN,NA,NA,NA,NA,right,6263,1,2,1187
75diWNKE,3fk4g712o0duz4m7qhicsa7sfszsso,3p1l2b7ad52ukjxiqt94l3foulwlox,75diWNKE,2020-0188,2021-10-31,07:58:03,09:24:54,NA,incomplete,false,NA,true,NA,2,5,NA,NA,NA,right,NA,NA,NA,absent,NA,NA,m_s_068.jpg,brown,n_l_115.jpg,red,between,NA,NaN,NA,NA,NA,NA,left,7365,0,1,1335
75diWNKE,3fk4g712o0duz4m7qhicsa7sfszsso,3p1l2b7ad52ukjxiqt94l3foulwlox,75diWNKE,2020-0188,2021-10-31,07:58:03,09:24:54,NA,incomplete,false,NA,true,NA,2,6,NA,NA,NA,right,NA,NA,NA,absent,NA,NA,m_s_105.jpg,blue,n_l_091.jpg,gray,between,NA,NaN,NA,NA,NA,NA,left,5993,0,0,1163
75diWNKE,3fk4g712o0duz4m7qhicsa7sfszsso,3p1l2b7ad52ukjxiqt94l3foulwlox,75diWNKE,2020-0188,2021-10-31,07:58:03,09:24:54,NA,incomplete,false,NA,true,NA,2,7,NA,NA,NA,left,NA,NA,NA,absent,NA,NA,n_s_104.jpg,orange,n_l_062.jpg,gray,between,NA,NaN,NA,NA,NA,NA,left,2701,1,2,1421
75diWNKE,3fk4g712o0duz4m7qhicsa7sfszsso,3p1l2b7ad52ukjxiqt94l3foulwlox,75diWNKE,2020-0188,2021-10-31,07:58:03,09:24:54,NA,incomplete,false,NA,true,NA,2,8,NA,NA,NA,right,NA,NA,NA,absent,NA,NA,m_s_067.jpg,white,m_l_024.jpg,brown,between,NA,NaN,NA,NA,NA,NA,left,4897,0,0,1217
75diWNKE,3fk4g712o0duz4m7qhicsa7sfszsso,3p1l2b7ad52ukjxiqt94l3foulwlox,75diWNKE,2020-0188,2021-10-31,07:58:03,09:24:54,NA,incomplete,false,NA,true,NA,2,9,NA,NA,NA,left,NA,NA,NA,absent,NA,NA,m_l_078.jpg,orange,n_s_079.jpg,orange,within,NA,NaN,NA,NA,NA,NA,left,4072,1,1,7172
75diWNKE,3fk4g712o0duz4m7qhicsa7sfszsso,3p1l2b7ad52ukjxiqt94l3foulwlox,75diWNKE,2020-0188,2021-10-31,07:58:03,09:24:54,NA,incomplete,false,NA,true,NA,2,10,NA,NA,NA,left,NA,NA,NA,absent,NA,NA,m_l_101.jpg,white,n_l_016.jpg,white,within,NA,NaN,NA,NA,NA,NA,left,3695,1,3,1294
75diWNKE,3fk4g712o0duz4m7qhicsa7sfszsso,3p1l2b7ad52ukjxiqt94l3foulwlox,75diWNKE,2020-0188,2021-10-31,07:58:03,09:24:54,NA,incomplete,false,true,NA,NA,3,0,NA,red,m_l_003.jpg,NA,NA,NA,NA,NA,unpleasant,pleasant,NA,NA,NA,NA,NA,right,3327,true,NA,NA,NA,NA,NA,NA,NA,NA
75diWNKE,3fk4g712o0duz4m7qhicsa7sfszsso,3p1l2b7ad52ukjxiqt94l3foulwlox,75diWNKE,2020-0188,2021-10-31,07:58:03,09:24:54,NA,incomplete,false,true,NA,NA,3,1,NA,red,n_s_080.jpg,NA,NA,NA,NA,NA,pleasant,unpleasant,NA,NA,NA,NA,NA,right,2644,true,NA,NA,NA,NA,NA,NA,NA,NA
75diWNKE,3fk4g712o0duz4m7qhicsa7sfszsso,3p1l2b7ad52ukjxiqt94l3foulwlox,75diWNKE,2020-0188,2021-10-31,07:58:03,09:24:54,NA,incomplete,false,true,NA,NA,3,2,NA,red,n_s_044.jpg,NA,NA,NA,NA,NA,pleasant,unpleasant,NA,NA,NA,NA,NA,left,1529,true,NA,NA,NA,NA,NA,NA,NA,NA
75diWNKE,3fk4g712o0duz4m7qhicsa7sfszsso,3p1l2b7ad52ukjxiqt94l3foulwlox,75diWNKE,2020-0188,2021-10-31,07:58:03,09:24:54,NA,incomplete,false,true,NA,NA,3,3,NA,red,m_l_097.jpg,NA,NA,NA,NA,NA,pleasant,unpleasant,NA,NA,NA,NA,NA,left,1662,true,NA,NA,NA,NA,NA,NA,NA,NA
75diWNKE,3fk4g712o0duz4m7qhicsa7sfszsso,3p1l2b7ad52ukjxiqt94l3foulwlox,75diWNKE,2020-0188,2021-10-31,07:58:03,09:24:54,NA,incomplete,false,true,NA,NA,3,4,NA,red,m_l_012.jpg,NA,NA,NA,NA,NA,unpleasant,pleasant,NA,NA,NA,NA,NA,none,0,false,NA,NA,NA,NA,NA,NA,NA,NA
75diWNKE,3fk4g712o0duz4m7qhicsa7sfszsso,3p1l2b7ad52ukjxiqt94l3foulwlox,75diWNKE,2020-0188,2021-10-31,07:58:03,09:24:54,NA,incomplete,false,true,NA,NA,3,5,NA,red,n_s_096.jpg,NA,NA,NA,NA,NA,pleasant,unpleasant,NA,NA,NA,NA,NA,left,1541,true,NA,NA,NA,NA,NA,NA,NA,NA
75diWNKE,3fk4g712o0duz4m7qhicsa7sfszsso,3p1l2b7ad52ukjxiqt94l3foulwlox,75diWNKE,2020-0188,2021-10-31,07:58:03,09:24:54,NA,incomplete,false,true,NA,NA,3,6,NA,yellow,n_s_116.jpg,NA,NA,NA,NA,NA,pleasant,unpleasant,NA,NA,NA,NA,NA,right,1977,true,NA,NA,NA,NA,NA,NA,NA,NA
75diWNKE,3fk4g712o0duz4m7qhicsa7sfszsso,3p1l2b7ad52ukjxiqt94l3foulwlox,75diWNKE,2020-0188,2021-10-31,07:58:03,09:24:54,NA,incomplete,false,true,NA,NA,3,7,NA,yellow,n_s_030.jpg,NA,NA,NA,NA,NA,pleasant,unpleasant,NA,NA,NA,NA,NA,left,1742,true,NA,NA,NA,NA,NA,NA,NA,NA
75diWNKE,3fk4g712o0duz4m7qhicsa7sfszsso,3p1l2b7ad52ukjxiqt94l3foulwlox,75diWNKE,2020-0188,2021-10-31,07:58:03,09:24:54,NA,incomplete,false,true,NA,NA,3,8,NA,yellow,n_s_032.jpg,NA,NA,NA,NA,NA,pleasant,unpleasant,NA,NA,NA,NA,NA,left,1330,true,NA,NA,NA,NA,NA,NA,NA,NA
75diWNKE,3fk4g712o0duz4m7qhicsa7sfszsso,3p1l2b7ad52ukjxiqt94l3foulwlox,75diWNKE,2020-0188,2021-10-31,07:58:03,09:24:54,NA,incomplete,false,true,NA,NA,3,9,NA,yellow,m_l_108.jpg,NA,NA,NA,NA,NA,unpleasant,pleasant,NA,NA,NA,NA,NA,left,1742,true,NA,NA,NA,NA,NA,NA,NA,NA
75diWNKE,3fk4g712o0duz4m7qhicsa7sfszsso,3p1l2b7ad52ukjxiqt94l3foulwlox,75diWNKE,2020-0188,2021-10-31,07:58:03,09:24:54,NA,incomplete,false,true,NA,NA,3,10,NA,yellow,m_s_051.jpg,NA,NA,NA,NA,NA,pleasant,unpleasant,NA,NA,NA,NA,NA,left,2627,true,NA,NA,NA,NA,NA,NA,NA,NA
75diWNKE,3fk4g712o0duz4m7qhicsa7sfszsso,3p1l2b7ad52ukjxiqt94l3foulwlox,75diWNKE,2020-0188,2021-10-31,07:58:03,09:24:54,NA,incomplete,false,true,NA,NA,3,11,NA,yellow,m_l_037.jpg,NA,NA,NA,NA,NA,pleasant,unpleasant,NA,NA,NA,NA,NA,left,1799,true,NA,NA,NA,NA,NA,NA,NA,NA
75diWNKE,3fk4g712o0duz4m7qhicsa7sfszsso,3p1l2b7ad52ukjxiqt94l3foulwlox,75diWNKE,2020-0188,2021-10-31,07:58:03,09:24:54,NA,incomplete,false,true,NA,NA,3,12,NA,gray,n_l_102.jpg,NA,NA,NA,NA,NA,unpleasant,pleasant,NA,NA,NA,NA,NA,right,1572,true,NA,NA,NA,NA,NA,NA,NA,NA
75diWNKE,3fk4g712o0duz4m7qhicsa7sfszsso,3p1l2b7ad52ukjxiqt94l3foulwlox,75diWNKE,2020-0188,2021-10-31,07:58:03,09:24:54,NA,incomplete,false,true,NA,NA,3,13,NA,gray,n_s_036.jpg,NA,NA,NA,NA,NA,unpleasant,pleasant,NA,NA,NA,NA,NA,right,2857,true,NA,NA,NA,NA,NA,NA,NA,NA
75diWNKE,3fk4g712o0duz4m7qhicsa7sfszsso,3p1l2b7ad52ukjxiqt94l3foulwlox,75diWNKE,2020-0188,2021-10-31,07:58:03,09:24:54,NA,incomplete,false,true,NA,NA,3,14,NA,gray,m_s_003.jpg,NA,NA,NA,NA,NA,unpleasant,pleasant,NA,NA,NA,NA,NA,left,2173,true,NA,NA,NA,NA,NA,NA,NA,NA
75diWNKE,3fk4g712o0duz4m7qhicsa7sfszsso,3p1l2b7ad52ukjxiqt94l3foulwlox,75diWNKE,2020-0188,2021-10-31,07:58:03,09:24:54,NA,incomplete,false,true,NA,NA,3,15,NA,gray,m_l_015.jpg,NA,NA,NA,NA,NA,pleasant,unpleasant,NA,NA,NA,NA,NA,left,1911,true,NA,NA,NA,NA,NA,NA,NA,NA
75diWNKE,3fk4g712o0duz4m7qhicsa7sfszsso,3p1l2b7ad52ukjxiqt94l3foulwlox,75diWNKE,2020-0188,2021-10-31,07:58:03,09:24:54,NA,incomplete,false,true,NA,NA,3,16,NA,gray,m_l_106.jpg,NA,NA,NA,NA,NA,unpleasant,pleasant,NA,NA,NA,NA,NA,right,1493,true,NA,NA,NA,NA,NA,NA,NA,NA
75diWNKE,3fk4g712o0duz4m7qhicsa7sfszsso,3p1l2b7ad52ukjxiqt94l3foulwlox,75diWNKE,2020-0188,2021-10-31,07:58:03,09:24:54,NA,incomplete,false,true,NA,NA,3,17,NA,gray,m_l_059.jpg,NA,NA,NA,NA,NA,unpleasant,pleasant,NA,NA,NA,NA,NA,left,1498,true,NA,NA,NA,NA,NA,NA,NA,NA
75diWNKE,3fk4g712o0duz4m7qhicsa7sfszsso,3p1l2b7ad52ukjxiqt94l3foulwlox,75diWNKE,2020-0188,2021-10-31,07:58:03,09:24:54,NA,incomplete,false,true,NA,NA,3,18,NA,purple,n_s_042.jpg,NA,NA,NA,NA,NA,pleasant,unpleasant,NA,NA,NA,NA,NA,left,1782,true,NA,NA,NA,NA,NA,NA,NA,NA
75diWNKE,3fk4g712o0duz4m7qhicsa7sfszsso,3p1l2b7ad52ukjxiqt94l3foulwlox,75diWNKE,2020-0188,2021-10-31,07:58:03,09:24:54,NA,incomplete,false,true,NA,NA,3,19,NA,purple,n_l_043.jpg,NA,NA,NA,NA,NA,pleasant,unpleasant,NA,NA,NA,NA,NA,left,3002,true,NA,NA,NA,NA,NA,NA,NA,NA
75diWNKE,3fk4g712o0duz4m7qhicsa7sfszsso,3p1l2b7ad52ukjxiqt94l3foulwlox,75diWNKE,2020-0188,2021-10-31,07:58:03,09:24:54,NA,incomplete,false,true,NA,NA,3,20,NA,purple,m_s_041.jpg,NA,NA,NA,NA,NA,unpleasant,pleasant,NA,NA,NA,NA,NA,right,1815,true,NA,NA,NA,NA,NA,NA,NA,NA
75diWNKE,3fk4g712o0duz4m7qhicsa7sfszsso,3p1l2b7ad52ukjxiqt94l3foulwlox,75diWNKE,2020-0188,2021-10-31,07:58:03,09:24:54,NA,incomplete,false,true,NA,NA,3,21,NA,purple,n_s_028.jpg,NA,NA,NA,NA,NA,pleasant,unpleasant,NA,NA,NA,NA,NA,left,1866,true,NA,NA,NA,NA,NA,NA,NA,NA
75diWNKE,3fk4g712o0duz4m7qhicsa7sfszsso,3p1l2b7ad52ukjxiqt94l3foulwlox,75diWNKE,2020-0188,2021-10-31,07:58:03,09:24:54,NA,incomplete,false,true,NA,NA,3,22,NA,purple,m_s_010.jpg,NA,NA,NA,NA,NA,pleasant,unpleasant,NA,NA,NA,NA,NA,left,2190,true,NA,NA,NA,NA,NA,NA,NA,NA
75diWNKE,3fk4g712o0duz4m7qhicsa7sfszsso,3p1l2b7ad52ukjxiqt94l3foulwlox,75diWNKE,2020-0188,2021-10-31,07:58:03,09:24:54,NA,incomplete,false,true,NA,NA,3,23,NA,purple,m_s_077.jpg,NA,NA,NA,NA,NA,pleasant,unpleasant,NA,NA,NA,NA,NA,right,2755,true,NA,NA,NA,NA,NA,NA,NA,NA
75diWNKE,3fk4g712o0duz4m7qhicsa7sfszsso,3p1l2b7ad52ukjxiqt94l3foulwlox,75diWNKE,2020-0188,2021-10-31,07:58:03,09:24:54,NA,incomplete,false,true,NA,NA,3,24,NA,green,m_s_002.jpg,NA,NA,NA,NA,NA,pleasant,unpleasant,NA,NA,NA,NA,NA,left,2327,true,NA,NA,NA,NA,NA,NA,NA,NA
75diWNKE,3fk4g712o0duz4m7qhicsa7sfszsso,3p1l2b7ad52ukjxiqt94l3foulwlox,75diWNKE,2020-0188,2021-10-31,07:58:03,09:24:54,NA,incomplete,false,true,NA,NA,3,25,NA,green,m_l_035.jpg,NA,NA,NA,NA,NA,unpleasant,pleasant,NA,NA,NA,NA,NA,right,2051,true,NA,NA,NA,NA,NA,NA,NA,NA
75diWNKE,3fk4g712o0duz4m7qhicsa7sfszsso,3p1l2b7ad52ukjxiqt94l3foulwlox,75diWNKE,2020-0188,2021-10-31,07:58:03,09:24:54,NA,incomplete,false,true,NA,NA,3,26,NA,green,m_s_113.jpg,NA,NA,NA,NA,NA,pleasant,unpleasant,NA,NA,NA,NA,NA,right,2527,true,NA,NA,NA,NA,NA,NA,NA,NA
75diWNKE,3fk4g712o0duz4m7qhicsa7sfszsso,3p1l2b7ad52ukjxiqt94l3foulwlox,75diWNKE,2020-0188,2021-10-31,07:58:03,09:24:54,NA,incomplete,false,true,NA,NA,3,27,NA,green,n_s_025.jpg,NA,NA,NA,NA,NA,unpleasant,pleasant,NA,NA,NA,NA,NA,left,1644,true,NA,NA,NA,NA,NA,NA,NA,NA
75diWNKE,3fk4g712o0duz4m7qhicsa7sfszsso,3p1l2b7ad52ukjxiqt94l3foulwlox,75diWNKE,2020-0188,2021-10-31,07:58:03,09:24:54,NA,incomplete,false,true,NA,NA,3,28,NA,green,n_l_086.jpg,NA,NA,NA,NA,NA,pleasant,unpleasant,NA,NA,NA,NA,NA,right,1769,true,NA,NA,NA,NA,NA,NA,NA,NA
75diWNKE,3fk4g712o0duz4m7qhicsa7sfszsso,3p1l2b7ad52ukjxiqt94l3foulwlox,75diWNKE,2020-0188,2021-10-31,07:58:03,09:24:54,NA,incomplete,false,true,NA,NA,3,29,NA,green,n_s_083.jpg,NA,NA,NA,NA,NA,pleasant,unpleasant,NA,NA,NA,NA,NA,left,1571,true,NA,NA,NA,NA,NA,NA,NA,NA
75diWNKE,3fk4g712o0duz4m7qhicsa7sfszsso,3p1l2b7ad52ukjxiqt94l3foulwlox,75diWNKE,2020-0188,2021-10-31,07:58:03,09:24:54,NA,incomplete,false,true,NA,NA,3,30,NA,blue,n_s_039.jpg,NA,NA,NA,NA,NA,pleasant,unpleasant,NA,NA,NA,NA,NA,left,2951,true,NA,NA,NA,NA,NA,NA,NA,NA
75diWNKE,3fk4g712o0duz4m7qhicsa7sfszsso,3p1l2b7ad52ukjxiqt94l3foulwlox,75diWNKE,2020-0188,2021-10-31,07:58:03,09:24:54,NA,incomplete,false,true,NA,NA,3,31,NA,blue,n_l_007.jpg,NA,NA,NA,NA,NA,unpleasant,pleasant,NA,NA,NA,NA,NA,right,1548,true,NA,NA,NA,NA,NA,NA,NA,NA
75diWNKE,3fk4g712o0duz4m7qhicsa7sfszsso,3p1l2b7ad52ukjxiqt94l3foulwlox,75diWNKE,2020-0188,2021-10-31,07:58:03,09:24:54,NA,incomplete,false,true,NA,NA,3,32,NA,blue,m_s_081.jpg,NA,NA,NA,NA,NA,unpleasant,pleasant,NA,NA,NA,NA,NA,right,2528,true,NA,NA,NA,NA,NA,NA,NA,NA
75diWNKE,3fk4g712o0duz4m7qhicsa7sfszsso,3p1l2b7ad52ukjxiqt94l3foulwlox,75diWNKE,2020-0188,2021-10-31,07:58:03,09:24:54,NA,incomplete,false,true,NA,NA,3,33,NA,blue,n_l_074.jpg,NA,NA,NA,NA,NA,pleasant,unpleasant,NA,NA,NA,NA,NA,left,2221,true,NA,NA,NA,NA,NA,NA,NA,NA
75diWNKE,3fk4g712o0duz4m7qhicsa7sfszsso,3p1l2b7ad52ukjxiqt94l3foulwlox,75diWNKE,2020-0188,2021-10-31,07:58:03,09:24:54,NA,incomplete,false,true,NA,NA,3,34,NA,blue,n_l_030.jpg,NA,NA,NA,NA,NA,unpleasant,pleasant,NA,NA,NA,NA,NA,right,1759,true,NA,NA,NA,NA,NA,NA,NA,NA
75diWNKE,3fk4g712o0duz4m7qhicsa7sfszsso,3p1l2b7ad52ukjxiqt94l3foulwlox,75diWNKE,2020-0188,2021-10-31,07:58:03,09:24:54,NA,incomplete,false,true,NA,NA,3,35,NA,blue,m_s_039.jpg,NA,NA,NA,NA,NA,unpleasant,pleasant,NA,NA,NA,NA,NA,right,2525,true,NA,NA,NA,NA,NA,NA,NA,NA
75diWNKE,3fk4g712o0duz4m7qhicsa7sfszsso,3p1l2b7ad52ukjxiqt94l3foulwlox,75diWNKE,2020-0188,2021-10-31,07:58:03,09:24:54,NA,incomplete,false,NA,NA,true,3,0,NA,NA,NA,left,n_l_043.jpg,purple,gray,NA,NA,NA,NA,NA,NA,NA,NA,NA,NaN,NA,2981,right,0,NA,NA,NA,NA,NA
75diWNKE,3fk4g712o0duz4m7qhicsa7sfszsso,3p1l2b7ad52ukjxiqt94l3foulwlox,75diWNKE,2020-0188,2021-10-31,07:58:03,09:24:54,NA,incomplete,false,NA,NA,true,3,1,NA,NA,NA,right,m_l_059.jpg,yellow,gray,NA,NA,NA,NA,NA,NA,NA,NA,NA,NaN,NA,4904,right,1,NA,NA,NA,NA,NA
75diWNKE,3fk4g712o0duz4m7qhicsa7sfszsso,3p1l2b7ad52ukjxiqt94l3foulwlox,75diWNKE,2020-0188,2021-10-31,07:58:03,09:24:54,NA,incomplete,false,NA,NA,true,3,2,NA,NA,NA,left,m_l_106.jpg,gray,purple,NA,NA,NA,NA,NA,NA,NA,NA,NA,NaN,NA,2025,left,1,NA,NA,NA,NA,NA
75diWNKE,3fk4g712o0duz4m7qhicsa7sfszsso,3p1l2b7ad52ukjxiqt94l3foulwlox,75diWNKE,2020-0188,2021-10-31,07:58:03,09:24:54,NA,incomplete,false,NA,NA,true,3,3,NA,NA,NA,right,n_s_083.jpg,purple,green,NA,NA,NA,NA,NA,NA,NA,NA,NA,NaN,NA,6085,left,0,NA,NA,NA,NA,NA
75diWNKE,3fk4g712o0duz4m7qhicsa7sfszsso,3p1l2b7ad52ukjxiqt94l3foulwlox,75diWNKE,2020-0188,2021-10-31,07:58:03,09:24:54,NA,incomplete,false,NA,NA,true,3,4,NA,NA,NA,right,m_s_113.jpg,purple,green,NA,NA,NA,NA,NA,NA,NA,NA,NA,NaN,NA,2934,left,0,NA,NA,NA,NA,NA
75diWNKE,3fk4g712o0duz4m7qhicsa7sfszsso,3p1l2b7ad52ukjxiqt94l3foulwlox,75diWNKE,2020-0188,2021-10-31,07:58:03,09:24:54,NA,incomplete,false,NA,NA,true,3,5,NA,NA,NA,left,n_s_096.jpg,red,yellow,NA,NA,NA,NA,NA,NA,NA,NA,NA,NaN,NA,5067,right,0,NA,NA,NA,NA,NA
75diWNKE,3fk4g712o0duz4m7qhicsa7sfszsso,3p1l2b7ad52ukjxiqt94l3foulwlox,75diWNKE,2020-0188,2021-10-31,07:58:03,09:24:54,NA,incomplete,false,NA,NA,true,3,6,NA,NA,NA,right,m_s_081.jpg,green,blue,NA,NA,NA,NA,NA,NA,NA,NA,NA,NaN,NA,4205,left,0,NA,NA,NA,NA,NA
75diWNKE,3fk4g712o0duz4m7qhicsa7sfszsso,3p1l2b7ad52ukjxiqt94l3foulwlox,75diWNKE,2020-0188,2021-10-31,07:58:03,09:24:54,NA,incomplete,false,NA,NA,true,3,7,NA,NA,NA,right,m_s_077.jpg,green,purple,NA,NA,NA,NA,NA,NA,NA,NA,NA,NaN,NA,4027,right,1,NA,NA,NA,NA,NA
75diWNKE,3fk4g712o0duz4m7qhicsa7sfszsso,3p1l2b7ad52ukjxiqt94l3foulwlox,75diWNKE,2020-0188,2021-10-31,07:58:03,09:24:54,NA,incomplete,false,NA,NA,true,3,8,NA,NA,NA,left,m_s_003.jpg,gray,purple,NA,NA,NA,NA,NA,NA,NA,NA,NA,NaN,NA,2178,left,1,NA,NA,NA,NA,NA
75diWNKE,3fk4g712o0duz4m7qhicsa7sfszsso,3p1l2b7ad52ukjxiqt94l3foulwlox,75diWNKE,2020-0188,2021-10-31,07:58:03,09:24:54,NA,incomplete,false,NA,NA,true,3,9,NA,NA,NA,right,m_l_037.jpg,gray,yellow,NA,NA,NA,NA,NA,NA,NA,NA,NA,NaN,NA,2023,left,0,NA,NA,NA,NA,NA
75diWNKE,3fk4g712o0duz4m7qhicsa7sfszsso,3p1l2b7ad52ukjxiqt94l3foulwlox,75diWNKE,2020-0188,2021-10-31,07:58:03,09:24:54,NA,incomplete,false,NA,NA,true,3,10,NA,NA,NA,left,n_s_080.jpg,red,yellow,NA,NA,NA,NA,NA,NA,NA,NA,NA,NaN,NA,2856,left,1,NA,NA,NA,NA,NA
75diWNKE,3fk4g712o0duz4m7qhicsa7sfszsso,3p1l2b7ad52ukjxiqt94l3foulwlox,75diWNKE,2020-0188,2021-10-31,07:58:03,09:24:54,NA,incomplete,false,NA,NA,true,3,11,NA,NA,NA,left,n_s_036.jpg,gray,purple,NA,NA,NA,NA,NA,NA,NA,NA,NA,NaN,NA,2985,left,1,NA,NA,NA,NA,NA
75diWNKE,3fk4g712o0duz4m7qhicsa7sfszsso,3p1l2b7ad52ukjxiqt94l3foulwlox,75diWNKE,2020-0188,2021-10-31,07:58:03,09:24:54,NA,incomplete,false,NA,NA,true,3,12,NA,NA,NA,left,m_s_010.jpg,purple,gray,NA,NA,NA,NA,NA,NA,NA,NA,NA,NaN,NA,3157,right,0,NA,NA,NA,NA,NA
75diWNKE,3fk4g712o0duz4m7qhicsa7sfszsso,3p1l2b7ad52ukjxiqt94l3foulwlox,75diWNKE,2020-0188,2021-10-31,07:58:03,09:24:54,NA,incomplete,false,NA,NA,true,3,13,NA,NA,NA,right,n_s_032.jpg,gray,yellow,NA,NA,NA,NA,NA,NA,NA,NA,NA,NaN,NA,4547,right,1,NA,NA,NA,NA,NA
75diWNKE,3fk4g712o0duz4m7qhicsa7sfszsso,3p1l2b7ad52ukjxiqt94l3foulwlox,75diWNKE,2020-0188,2021-10-31,07:58:03,09:24:54,NA,incomplete,false,NA,NA,true,3,14,NA,NA,NA,left,m_l_012.jpg,red,yellow,NA,NA,NA,NA,NA,NA,NA,NA,NA,NaN,NA,2769,right,0,NA,NA,NA,NA,NA
75diWNKE,3fk4g712o0duz4m7qhicsa7sfszsso,3p1l2b7ad52ukjxiqt94l3foulwlox,75diWNKE,2020-0188,2021-10-31,07:58:03,09:24:54,NA,incomplete,false,NA,NA,true,3,15,NA,NA,NA,right,m_s_039.jpg,green,blue,NA,NA,NA,NA,NA,NA,NA,NA,NA,NaN,NA,4857,left,0,NA,NA,NA,NA,NA
75diWNKE,3fk4g712o0duz4m7qhicsa7sfszsso,3p1l2b7ad52ukjxiqt94l3foulwlox,75diWNKE,2020-0188,2021-10-31,07:58:03,09:24:54,NA,incomplete,false,NA,NA,true,3,16,NA,NA,NA,left,m_s_041.jpg,purple,green,NA,NA,NA,NA,NA,NA,NA,NA,NA,NaN,NA,2279,right,0,NA,NA,NA,NA,NA
75diWNKE,3fk4g712o0duz4m7qhicsa7sfszsso,3p1l2b7ad52ukjxiqt94l3foulwlox,75diWNKE,2020-0188,2021-10-31,07:58:03,09:24:54,NA,incomplete,false,NA,NA,true,3,17,NA,NA,NA,right,n_l_007.jpg,green,blue,NA,NA,NA,NA,NA,NA,NA,NA,NA,NaN,NA,4230,left,0,NA,NA,NA,NA,NA
75diWNKE,3fk4g712o0duz4m7qhicsa7sfszsso,3p1l2b7ad52ukjxiqt94l3foulwlox,75diWNKE,2020-0188,2021-10-31,07:58:03,09:24:54,NA,incomplete,false,NA,NA,true,3,18,NA,NA,NA,left,m_l_035.jpg,green,blue,NA,NA,NA,NA,NA,NA,NA,NA,NA,NaN,NA,2140,right,0,NA,NA,NA,NA,NA
75diWNKE,3fk4g712o0duz4m7qhicsa7sfszsso,3p1l2b7ad52ukjxiqt94l3foulwlox,75diWNKE,2020-0188,2021-10-31,07:58:03,09:24:54,NA,incomplete,false,NA,NA,true,3,19,NA,NA,NA,right,n_s_030.jpg,gray,yellow,NA,NA,NA,NA,NA,NA,NA,NA,NA,NaN,NA,4461,right,1,NA,NA,NA,NA,NA
75diWNKE,3fk4g712o0duz4m7qhicsa7sfszsso,3p1l2b7ad52ukjxiqt94l3foulwlox,75diWNKE,2020-0188,2021-10-31,07:58:03,09:24:54,NA,incomplete,false,NA,NA,true,3,20,NA,NA,NA,left,n_l_086.jpg,green,blue,NA,NA,NA,NA,NA,NA,NA,NA,NA,NaN,NA,4514,right,0,NA,NA,NA,NA,NA
75diWNKE,3fk4g712o0duz4m7qhicsa7sfszsso,3p1l2b7ad52ukjxiqt94l3foulwlox,75diWNKE,2020-0188,2021-10-31,07:58:03,09:24:54,NA,incomplete,false,NA,NA,true,3,21,NA,NA,NA,right,m_s_051.jpg,red,yellow,NA,NA,NA,NA,NA,NA,NA,NA,NA,NaN,NA,2761,left,0,NA,NA,NA,NA,NA
75diWNKE,3fk4g712o0duz4m7qhicsa7sfszsso,3p1l2b7ad52ukjxiqt94l3foulwlox,75diWNKE,2020-0188,2021-10-31,07:58:03,09:24:54,NA,incomplete,false,NA,true,NA,3,0,NA,NA,NA,left,NA,NA,NA,absent,NA,NA,n_l_043.jpg,purple,m_s_077.jpg,purple,within,NA,NaN,NA,NA,NA,NA,left,3631,1,2,3975
75diWNKE,3fk4g712o0duz4m7qhicsa7sfszsso,3p1l2b7ad52ukjxiqt94l3foulwlox,75diWNKE,2020-0188,2021-10-31,07:58:03,09:24:54,NA,incomplete,false,NA,true,NA,3,1,NA,NA,NA,left,NA,NA,NA,absent,NA,NA,m_s_010.jpg,purple,m_s_113.jpg,green,between,NA,NaN,NA,NA,NA,NA,right,10560,0,0,1944
75diWNKE,3fk4g712o0duz4m7qhicsa7sfszsso,3p1l2b7ad52ukjxiqt94l3foulwlox,75diWNKE,2020-0188,2021-10-31,07:58:03,09:24:54,NA,incomplete,false,NA,true,NA,3,2,NA,NA,NA,left,NA,NA,NA,absent,NA,NA,m_l_106.jpg,gray,m_s_041.jpg,purple,between,NA,NaN,NA,NA,NA,NA,left,4345,1,0,1389
75diWNKE,3fk4g712o0duz4m7qhicsa7sfszsso,3p1l2b7ad52ukjxiqt94l3foulwlox,75diWNKE,2020-0188,2021-10-31,07:58:03,09:24:54,NA,incomplete,false,NA,true,NA,3,3,NA,NA,NA,right,NA,NA,NA,absent,NA,NA,m_l_037.jpg,yellow,n_s_030.jpg,yellow,within,NA,NaN,NA,NA,NA,NA,right,5565,1,1,1288
75diWNKE,3fk4g712o0duz4m7qhicsa7sfszsso,3p1l2b7ad52ukjxiqt94l3foulwlox,75diWNKE,2020-0188,2021-10-31,07:58:03,09:24:54,NA,incomplete,false,NA,true,NA,3,4,NA,NA,NA,right,NA,NA,NA,absent,NA,NA,n_s_096.jpg,red,n_s_080.jpg,red,within,NA,NaN,NA,NA,NA,NA,right,2507,1,0,3197
75diWNKE,3fk4g712o0duz4m7qhicsa7sfszsso,3p1l2b7ad52ukjxiqt94l3foulwlox,75diWNKE,2020-0188,2021-10-31,07:58:03,09:24:54,NA,incomplete,false,NA,true,NA,3,5,NA,NA,NA,right,NA,NA,NA,absent,NA,NA,n_s_083.jpg,green,m_l_035.jpg,green,within,NA,NaN,NA,NA,NA,NA,left,26143,0,1,1279
75diWNKE,3fk4g712o0duz4m7qhicsa7sfszsso,3p1l2b7ad52ukjxiqt94l3foulwlox,75diWNKE,2020-0188,2021-10-31,07:58:03,09:24:54,NA,incomplete,false,NA,true,NA,3,6,NA,NA,NA,left,NA,NA,NA,absent,NA,NA,n_l_086.jpg,green,m_s_081.jpg,blue,between,NA,NaN,NA,NA,NA,NA,right,6875,0,0,2544
75diWNKE,3fk4g712o0duz4m7qhicsa7sfszsso,3p1l2b7ad52ukjxiqt94l3foulwlox,75diWNKE,2020-0188,2021-10-31,07:58:03,09:24:54,NA,incomplete,false,NA,true,NA,3,7,NA,NA,NA,left,NA,NA,NA,absent,NA,NA,m_s_051.jpg,yellow,m_s_003.jpg,gray,between,NA,NaN,NA,NA,NA,NA,left,3523,1,3,1846
75diWNKE,3fk4g712o0duz4m7qhicsa7sfszsso,3p1l2b7ad52ukjxiqt94l3foulwlox,75diWNKE,2020-0188,2021-10-31,07:58:03,09:24:54,NA,incomplete,false,NA,true,NA,3,8,NA,NA,NA,left,NA,NA,NA,absent,NA,NA,m_l_012.jpg,red,n_s_032.jpg,yellow,between,NA,NaN,NA,NA,NA,NA,right,4725,0,2,1402
75diWNKE,3fk4g712o0duz4m7qhicsa7sfszsso,3p1l2b7ad52ukjxiqt94l3foulwlox,75diWNKE,2020-0188,2021-10-31,07:58:03,09:24:54,NA,incomplete,false,NA,true,NA,3,9,NA,NA,NA,left,NA,NA,NA,absent,NA,NA,n_l_007.jpg,blue,m_s_039.jpg,blue,within,NA,NaN,NA,NA,NA,NA,left,2660,1,1,1466
75diWNKE,3fk4g712o0duz4m7qhicsa7sfszsso,3p1l2b7ad52ukjxiqt94l3foulwlox,75diWNKE,2020-0188,2021-10-31,07:58:03,09:24:54,NA,incomplete,false,NA,true,NA,3,10,NA,NA,NA,left,NA,NA,NA,absent,NA,NA,n_s_036.jpg,gray,m_l_059.jpg,gray,within,NA,NaN,NA,NA,NA,NA,left,4688,1,3,1327
75diWNKE,3fk4g712o0duz4m7qhicsa7sfszsso,3p1l2b7ad52ukjxiqt94l3foulwlox,75diWNKE,2020-0188,2021-10-31,07:58:03,09:24:54,NA,incomplete,false,true,NA,NA,4,0,NA,purple,n_s_099.jpg,NA,NA,NA,NA,NA,pleasant,unpleasant,NA,NA,NA,NA,NA,none,0,false,NA,NA,NA,NA,NA,NA,NA,NA
75diWNKE,3fk4g712o0duz4m7qhicsa7sfszsso,3p1l2b7ad52ukjxiqt94l3foulwlox,75diWNKE,2020-0188,2021-10-31,07:58:03,09:24:54,NA,incomplete,false,true,NA,NA,4,1,NA,purple,n_s_101.jpg,NA,NA,NA,NA,NA,unpleasant,pleasant,NA,NA,NA,NA,NA,none,0,false,NA,NA,NA,NA,NA,NA,NA,NA
75diWNKE,3fk4g712o0duz4m7qhicsa7sfszsso,3p1l2b7ad52ukjxiqt94l3foulwlox,75diWNKE,2020-0188,2021-10-31,07:58:03,09:24:54,NA,incomplete,false,true,NA,NA,4,2,NA,purple,n_s_012.jpg,NA,NA,NA,NA,NA,pleasant,unpleasant,NA,NA,NA,NA,NA,none,0,false,NA,NA,NA,NA,NA,NA,NA,NA
75diWNKE,3fk4g712o0duz4m7qhicsa7sfszsso,3p1l2b7ad52ukjxiqt94l3foulwlox,75diWNKE,2020-0188,2021-10-31,07:58:03,09:24:54,NA,incomplete,false,true,NA,NA,4,3,NA,purple,n_l_032.jpg,NA,NA,NA,NA,NA,unpleasant,pleasant,NA,NA,NA,NA,NA,right,1571,true,NA,NA,NA,NA,NA,NA,NA,NA
75diWNKE,3fk4g712o0duz4m7qhicsa7sfszsso,3p1l2b7ad52ukjxiqt94l3foulwlox,75diWNKE,2020-0188,2021-10-31,07:58:03,09:24:54,NA,incomplete,false,true,NA,NA,4,4,NA,purple,n_l_079.jpg,NA,NA,NA,NA,NA,unpleasant,pleasant,NA,NA,NA,NA,NA,right,2752,true,NA,NA,NA,NA,NA,NA,NA,NA
75diWNKE,3fk4g712o0duz4m7qhicsa7sfszsso,3p1l2b7ad52ukjxiqt94l3foulwlox,75diWNKE,2020-0188,2021-10-31,07:58:03,09:24:54,NA,incomplete,false,true,NA,NA,4,5,NA,purple,n_l_055.jpg,NA,NA,NA,NA,NA,pleasant,unpleasant,NA,NA,NA,NA,NA,left,2556,true,NA,NA,NA,NA,NA,NA,NA,NA
75diWNKE,3fk4g712o0duz4m7qhicsa7sfszsso,3p1l2b7ad52ukjxiqt94l3foulwlox,75diWNKE,2020-0188,2021-10-31,07:58:03,09:24:54,NA,incomplete,false,true,NA,NA,4,6,NA,gray,n_s_063.jpg,NA,NA,NA,NA,NA,pleasant,unpleasant,NA,NA,NA,NA,NA,left,2248,true,NA,NA,NA,NA,NA,NA,NA,NA
75diWNKE,3fk4g712o0duz4m7qhicsa7sfszsso,3p1l2b7ad52ukjxiqt94l3foulwlox,75diWNKE,2020-0188,2021-10-31,07:58:03,09:24:54,NA,incomplete,false,true,NA,NA,4,7,NA,gray,m_s_044.jpg,NA,NA,NA,NA,NA,pleasant,unpleasant,NA,NA,NA,NA,NA,left,2467,true,NA,NA,NA,NA,NA,NA,NA,NA
75diWNKE,3fk4g712o0duz4m7qhicsa7sfszsso,3p1l2b7ad52ukjxiqt94l3foulwlox,75diWNKE,2020-0188,2021-10-31,07:58:03,09:24:54,NA,incomplete,false,true,NA,NA,4,8,NA,gray,n_s_006.jpg,NA,NA,NA,NA,NA,unpleasant,pleasant,NA,NA,NA,NA,NA,right,2704,true,NA,NA,NA,NA,NA,NA,NA,NA
75diWNKE,3fk4g712o0duz4m7qhicsa7sfszsso,3p1l2b7ad52ukjxiqt94l3foulwlox,75diWNKE,2020-0188,2021-10-31,07:58:03,09:24:54,NA,incomplete,false,true,NA,NA,4,9,NA,gray,n_l_061.jpg,NA,NA,NA,NA,NA,pleasant,unpleasant,NA,NA,NA,NA,NA,left,1355,true,NA,NA,NA,NA,NA,NA,NA,NA
75diWNKE,3fk4g712o0duz4m7qhicsa7sfszsso,3p1l2b7ad52ukjxiqt94l3foulwlox,75diWNKE,2020-0188,2021-10-31,07:58:03,09:24:54,NA,incomplete,false,true,NA,NA,4,10,NA,gray,m_l_082.jpg,NA,NA,NA,NA,NA,unpleasant,pleasant,NA,NA,NA,NA,NA,left,1855,true,NA,NA,NA,NA,NA,NA,NA,NA
75diWNKE,3fk4g712o0duz4m7qhicsa7sfszsso,3p1l2b7ad52ukjxiqt94l3foulwlox,75diWNKE,2020-0188,2021-10-31,07:58:03,09:24:54,NA,incomplete,false,true,NA,NA,4,11,NA,gray,m_l_054.jpg,NA,NA,NA,NA,NA,pleasant,unpleasant,NA,NA,NA,NA,NA,right,3051,true,NA,NA,NA,NA,NA,NA,NA,NA
75diWNKE,3fk4g712o0duz4m7qhicsa7sfszsso,3p1l2b7ad52ukjxiqt94l3foulwlox,75diWNKE,2020-0188,2021-10-31,07:58:03,09:24:54,NA,incomplete,false,true,NA,NA,4,12,NA,white,m_l_075.jpg,NA,NA,NA,NA,NA,pleasant,unpleasant,NA,NA,NA,NA,NA,left,1503,true,NA,NA,NA,NA,NA,NA,NA,NA
75diWNKE,3fk4g712o0duz4m7qhicsa7sfszsso,3p1l2b7ad52ukjxiqt94l3foulwlox,75diWNKE,2020-0188,2021-10-31,07:58:03,09:24:54,NA,incomplete,false,true,NA,NA,4,13,NA,white,n_s_005.jpg,NA,NA,NA,NA,NA,pleasant,unpleasant,NA,NA,NA,NA,NA,left,1882,true,NA,NA,NA,NA,NA,NA,NA,NA
75diWNKE,3fk4g712o0duz4m7qhicsa7sfszsso,3p1l2b7ad52ukjxiqt94l3foulwlox,75diWNKE,2020-0188,2021-10-31,07:58:03,09:24:54,NA,incomplete,false,true,NA,NA,4,14,NA,white,n_s_061.jpg,NA,NA,NA,NA,NA,pleasant,unpleasant,NA,NA,NA,NA,NA,left,2553,true,NA,NA,NA,NA,NA,NA,NA,NA
75diWNKE,3fk4g712o0duz4m7qhicsa7sfszsso,3p1l2b7ad52ukjxiqt94l3foulwlox,75diWNKE,2020-0188,2021-10-31,07:58:03,09:24:54,NA,incomplete,false,true,NA,NA,4,15,NA,white,m_l_025.jpg,NA,NA,NA,NA,NA,unpleasant,pleasant,NA,NA,NA,NA,NA,right,1523,true,NA,NA,NA,NA,NA,NA,NA,NA
75diWNKE,3fk4g712o0duz4m7qhicsa7sfszsso,3p1l2b7ad52ukjxiqt94l3foulwlox,75diWNKE,2020-0188,2021-10-31,07:58:03,09:24:54,NA,incomplete,false,true,NA,NA,4,16,NA,white,n_s_107.jpg,NA,NA,NA,NA,NA,pleasant,unpleasant,NA,NA,NA,NA,NA,left,2112,true,NA,NA,NA,NA,NA,NA,NA,NA
75diWNKE,3fk4g712o0duz4m7qhicsa7sfszsso,3p1l2b7ad52ukjxiqt94l3foulwlox,75diWNKE,2020-0188,2021-10-31,07:58:03,09:24:54,NA,incomplete,false,true,NA,NA,4,17,NA,white,n_s_103.jpg,NA,NA,NA,NA,NA,unpleasant,pleasant,NA,NA,NA,NA,NA,right,1797,true,NA,NA,NA,NA,NA,NA,NA,NA
75diWNKE,3fk4g712o0duz4m7qhicsa7sfszsso,3p1l2b7ad52ukjxiqt94l3foulwlox,75diWNKE,2020-0188,2021-10-31,07:58:03,09:24:54,NA,incomplete,false,true,NA,NA,4,18,NA,green,m_s_013.jpg,NA,NA,NA,NA,NA,pleasant,unpleasant,NA,NA,NA,NA,NA,left,3321,true,NA,NA,NA,NA,NA,NA,NA,NA
75diWNKE,3fk4g712o0duz4m7qhicsa7sfszsso,3p1l2b7ad52ukjxiqt94l3foulwlox,75diWNKE,2020-0188,2021-10-31,07:58:03,09:24:54,NA,incomplete,false,true,NA,NA,4,19,NA,green,m_l_065.jpg,NA,NA,NA,NA,NA,pleasant,unpleasant,NA,NA,NA,NA,NA,left,1813,true,NA,NA,NA,NA,NA,NA,NA,NA
75diWNKE,3fk4g712o0duz4m7qhicsa7sfszsso,3p1l2b7ad52ukjxiqt94l3foulwlox,75diWNKE,2020-0188,2021-10-31,07:58:03,09:24:54,NA,incomplete,false,true,NA,NA,4,20,NA,green,m_s_111.jpg,NA,NA,NA,NA,NA,unpleasant,pleasant,NA,NA,NA,NA,NA,right,1672,true,NA,NA,NA,NA,NA,NA,NA,NA
75diWNKE,3fk4g712o0duz4m7qhicsa7sfszsso,3p1l2b7ad52ukjxiqt94l3foulwlox,75diWNKE,2020-0188,2021-10-31,07:58:03,09:24:54,NA,incomplete,false,true,NA,NA,4,21,NA,green,n_l_089.jpg,NA,NA,NA,NA,NA,unpleasant,pleasant,NA,NA,NA,NA,NA,right,1613,true,NA,NA,NA,NA,NA,NA,NA,NA
75diWNKE,3fk4g712o0duz4m7qhicsa7sfszsso,3p1l2b7ad52ukjxiqt94l3foulwlox,75diWNKE,2020-0188,2021-10-31,07:58:03,09:24:54,NA,incomplete,false,true,NA,NA,4,22,NA,green,n_l_013.jpg,NA,NA,NA,NA,NA,unpleasant,pleasant,NA,NA,NA,NA,NA,right,2449,true,NA,NA,NA,NA,NA,NA,NA,NA
75diWNKE,3fk4g712o0duz4m7qhicsa7sfszsso,3p1l2b7ad52ukjxiqt94l3foulwlox,75diWNKE,2020-0188,2021-10-31,07:58:03,09:24:54,NA,incomplete,false,true,NA,NA,4,23,NA,green,m_l_099.jpg,NA,NA,NA,NA,NA,pleasant,unpleasant,NA,NA,NA,NA,NA,right,1917,true,NA,NA,NA,NA,NA,NA,NA,NA
75diWNKE,3fk4g712o0duz4m7qhicsa7sfszsso,3p1l2b7ad52ukjxiqt94l3foulwlox,75diWNKE,2020-0188,2021-10-31,07:58:03,09:24:54,NA,incomplete,false,true,NA,NA,4,24,NA,blue,n_l_004.jpg,NA,NA,NA,NA,NA,unpleasant,pleasant,NA,NA,NA,NA,NA,right,2874,true,NA,NA,NA,NA,NA,NA,NA,NA
75diWNKE,3fk4g712o0duz4m7qhicsa7sfszsso,3p1l2b7ad52ukjxiqt94l3foulwlox,75diWNKE,2020-0188,2021-10-31,07:58:03,09:24:54,NA,incomplete,false,true,NA,NA,4,25,NA,blue,m_s_024.jpg,NA,NA,NA,NA,NA,unpleasant,pleasant,NA,NA,NA,NA,NA,right,2095,true,NA,NA,NA,NA,NA,NA,NA,NA
75diWNKE,3fk4g712o0duz4m7qhicsa7sfszsso,3p1l2b7ad52ukjxiqt94l3foulwlox,75diWNKE,2020-0188,2021-10-31,07:58:03,09:24:54,NA,incomplete,false,true,NA,NA,4,26,NA,blue,m_s_101.jpg,NA,NA,NA,NA,NA,unpleasant,pleasant,NA,NA,NA,NA,NA,right,3146,true,NA,NA,NA,NA,NA,NA,NA,NA
75diWNKE,3fk4g712o0duz4m7qhicsa7sfszsso,3p1l2b7ad52ukjxiqt94l3foulwlox,75diWNKE,2020-0188,2021-10-31,07:58:03,09:24:54,NA,incomplete,false,true,NA,NA,4,27,NA,blue,m_s_054.jpg,NA,NA,NA,NA,NA,unpleasant,pleasant,NA,NA,NA,NA,NA,left,1270,true,NA,NA,NA,NA,NA,NA,NA,NA
75diWNKE,3fk4g712o0duz4m7qhicsa7sfszsso,3p1l2b7ad52ukjxiqt94l3foulwlox,75diWNKE,2020-0188,2021-10-31,07:58:03,09:24:54,NA,incomplete,false,true,NA,NA,4,28,NA,blue,m_s_012.jpg,NA,NA,NA,NA,NA,unpleasant,pleasant,NA,NA,NA,NA,NA,right,2346,true,NA,NA,NA,NA,NA,NA,NA,NA
75diWNKE,3fk4g712o0duz4m7qhicsa7sfszsso,3p1l2b7ad52ukjxiqt94l3foulwlox,75diWNKE,2020-0188,2021-10-31,07:58:03,09:24:54,NA,incomplete,false,true,NA,NA,4,29,NA,blue,m_s_049.jpg,NA,NA,NA,NA,NA,pleasant,unpleasant,NA,NA,NA,NA,NA,right,1671,true,NA,NA,NA,NA,NA,NA,NA,NA
75diWNKE,3fk4g712o0duz4m7qhicsa7sfszsso,3p1l2b7ad52ukjxiqt94l3foulwlox,75diWNKE,2020-0188,2021-10-31,07:58:03,09:24:54,NA,incomplete,false,true,NA,NA,4,30,NA,black,m_l_060.jpg,NA,NA,NA,NA,NA,pleasant,unpleasant,NA,NA,NA,NA,NA,left,2282,true,NA,NA,NA,NA,NA,NA,NA,NA
75diWNKE,3fk4g712o0duz4m7qhicsa7sfszsso,3p1l2b7ad52ukjxiqt94l3foulwlox,75diWNKE,2020-0188,2021-10-31,07:58:03,09:24:54,NA,incomplete,false,true,NA,NA,4,31,NA,black,n_s_087.jpg,NA,NA,NA,NA,NA,unpleasant,pleasant,NA,NA,NA,NA,NA,right,2087,true,NA,NA,NA,NA,NA,NA,NA,NA
75diWNKE,3fk4g712o0duz4m7qhicsa7sfszsso,3p1l2b7ad52ukjxiqt94l3foulwlox,75diWNKE,2020-0188,2021-10-31,07:58:03,09:24:54,NA,incomplete,false,true,NA,NA,4,32,NA,black,m_s_092.jpg,NA,NA,NA,NA,NA,pleasant,unpleasant,NA,NA,NA,NA,NA,left,2075,true,NA,NA,NA,NA,NA,NA,NA,NA
75diWNKE,3fk4g712o0duz4m7qhicsa7sfszsso,3p1l2b7ad52ukjxiqt94l3foulwlox,75diWNKE,2020-0188,2021-10-31,07:58:03,09:24:54,NA,incomplete,false,true,NA,NA,4,33,NA,black,n_l_006.jpg,NA,NA,NA,NA,NA,pleasant,unpleasant,NA,NA,NA,NA,NA,left,1969,true,NA,NA,NA,NA,NA,NA,NA,NA
75diWNKE,3fk4g712o0duz4m7qhicsa7sfszsso,3p1l2b7ad52ukjxiqt94l3foulwlox,75diWNKE,2020-0188,2021-10-31,07:58:03,09:24:54,NA,incomplete,false,true,NA,NA,4,34,NA,black,m_l_031.jpg,NA,NA,NA,NA,NA,pleasant,unpleasant,NA,NA,NA,NA,NA,right,1371,true,NA,NA,NA,NA,NA,NA,NA,NA
75diWNKE,3fk4g712o0duz4m7qhicsa7sfszsso,3p1l2b7ad52ukjxiqt94l3foulwlox,75diWNKE,2020-0188,2021-10-31,07:58:03,09:24:54,NA,incomplete,false,true,NA,NA,4,35,NA,black,m_s_099.jpg,NA,NA,NA,NA,NA,pleasant,unpleasant,NA,NA,NA,NA,NA,left,1727,true,NA,NA,NA,NA,NA,NA,NA,NA
75diWNKE,3fk4g712o0duz4m7qhicsa7sfszsso,3p1l2b7ad52ukjxiqt94l3foulwlox,75diWNKE,2020-0188,2021-10-31,07:58:03,09:24:54,NA,incomplete,false,NA,NA,true,4,0,NA,NA,NA,right,m_l_099.jpg,white,green,NA,NA,NA,NA,NA,NA,NA,NA,NA,NaN,NA,3251,left,0,NA,NA,NA,NA,NA
75diWNKE,3fk4g712o0duz4m7qhicsa7sfszsso,3p1l2b7ad52ukjxiqt94l3foulwlox,75diWNKE,2020-0188,2021-10-31,07:58:03,09:24:54,NA,incomplete,false,NA,NA,true,4,1,NA,NA,NA,left,m_l_082.jpg,gray,white,NA,NA,NA,NA,NA,NA,NA,NA,NA,NaN,NA,2001,right,0,NA,NA,NA,NA,NA
75diWNKE,3fk4g712o0duz4m7qhicsa7sfszsso,3p1l2b7ad52ukjxiqt94l3foulwlox,75diWNKE,2020-0188,2021-10-31,07:58:03,09:24:54,NA,incomplete,false,NA,NA,true,4,2,NA,NA,NA,left,n_l_079.jpg,purple,gray,NA,NA,NA,NA,NA,NA,NA,NA,NA,NaN,NA,3002,left,1,NA,NA,NA,NA,NA
75diWNKE,3fk4g712o0duz4m7qhicsa7sfszsso,3p1l2b7ad52ukjxiqt94l3foulwlox,75diWNKE,2020-0188,2021-10-31,07:58:03,09:24:54,NA,incomplete,false,NA,NA,true,4,3,NA,NA,NA,right,n_s_006.jpg,purple,gray,NA,NA,NA,NA,NA,NA,NA,NA,NA,NaN,NA,2902,right,1,NA,NA,NA,NA,NA
75diWNKE,3fk4g712o0duz4m7qhicsa7sfszsso,3p1l2b7ad52ukjxiqt94l3foulwlox,75diWNKE,2020-0188,2021-10-31,07:58:03,09:24:54,NA,incomplete,false,NA,NA,true,4,4,NA,NA,NA,left,n_l_013.jpg,green,white,NA,NA,NA,NA,NA,NA,NA,NA,NA,NaN,NA,2639,left,1,NA,NA,NA,NA,NA
75diWNKE,3fk4g712o0duz4m7qhicsa7sfszsso,3p1l2b7ad52ukjxiqt94l3foulwlox,75diWNKE,2020-0188,2021-10-31,07:58:03,09:24:54,NA,incomplete,false,NA,NA,true,4,5,NA,NA,NA,right,n_s_101.jpg,gray,purple,NA,NA,NA,NA,NA,NA,NA,NA,NA,NaN,NA,2895,right,1,NA,NA,NA,NA,NA
75diWNKE,3fk4g712o0duz4m7qhicsa7sfszsso,3p1l2b7ad52ukjxiqt94l3foulwlox,75diWNKE,2020-0188,2021-10-31,07:58:03,09:24:54,NA,incomplete,false,NA,NA,true,4,6,NA,NA,NA,right,m_s_049.jpg,green,blue,NA,NA,NA,NA,NA,NA,NA,NA,NA,NaN,NA,2127,right,1,NA,NA,NA,NA,NA
75diWNKE,3fk4g712o0duz4m7qhicsa7sfszsso,3p1l2b7ad52ukjxiqt94l3foulwlox,75diWNKE,2020-0188,2021-10-31,07:58:03,09:24:54,NA,incomplete,false,NA,NA,true,4,7,NA,NA,NA,left,n_s_107.jpg,white,gray,NA,NA,NA,NA,NA,NA,NA,NA,NA,NaN,NA,3274,left,1,NA,NA,NA,NA,NA
75diWNKE,3fk4g712o0duz4m7qhicsa7sfszsso,3p1l2b7ad52ukjxiqt94l3foulwlox,75diWNKE,2020-0188,2021-10-31,07:58:03,09:24:54,NA,incomplete,false,NA,NA,true,4,8,NA,NA,NA,right,m_s_044.jpg,purple,gray,NA,NA,NA,NA,NA,NA,NA,NA,NA,NaN,NA,3058,right,1,NA,NA,NA,NA,NA
75diWNKE,3fk4g712o0duz4m7qhicsa7sfszsso,3p1l2b7ad52ukjxiqt94l3foulwlox,75diWNKE,2020-0188,2021-10-31,07:58:03,09:24:54,NA,incomplete,false,NA,NA,true,4,9,NA,NA,NA,left,m_s_099.jpg,black,blue,NA,NA,NA,NA,NA,NA,NA,NA,NA,NaN,NA,2461,right,0,NA,NA,NA,NA,NA
75diWNKE,3fk4g712o0duz4m7qhicsa7sfszsso,3p1l2b7ad52ukjxiqt94l3foulwlox,75diWNKE,2020-0188,2021-10-31,07:58:03,09:24:54,NA,incomplete,false,NA,NA,true,4,10,NA,NA,NA,left,n_s_061.jpg,white,gray,NA,NA,NA,NA,NA,NA,NA,NA,NA,NaN,NA,2624,right,0,NA,NA,NA,NA,NA
75diWNKE,3fk4g712o0duz4m7qhicsa7sfszsso,3p1l2b7ad52ukjxiqt94l3foulwlox,75diWNKE,2020-0188,2021-10-31,07:58:03,09:24:54,NA,incomplete,false,NA,NA,true,4,11,NA,NA,NA,left,m_s_092.jpg,black,blue,NA,NA,NA,NA,NA,NA,NA,NA,NA,NaN,NA,3959,left,1,NA,NA,NA,NA,NA
75diWNKE,3fk4g712o0duz4m7qhicsa7sfszsso,3p1l2b7ad52ukjxiqt94l3foulwlox,75diWNKE,2020-0188,2021-10-31,07:58:03,09:24:54,NA,incomplete,false,NA,NA,true,4,12,NA,NA,NA,left,m_l_054.jpg,gray,purple,NA,NA,NA,NA,NA,NA,NA,NA,NA,NaN,NA,1918,left,1,NA,NA,NA,NA,NA
75diWNKE,3fk4g712o0duz4m7qhicsa7sfszsso,3p1l2b7ad52ukjxiqt94l3foulwlox,75diWNKE,2020-0188,2021-10-31,07:58:03,09:24:54,NA,incomplete,false,NA,NA,true,4,13,NA,NA,NA,left,m_s_111.jpg,green,blue,NA,NA,NA,NA,NA,NA,NA,NA,NA,NaN,NA,6311,left,1,NA,NA,NA,NA,NA
75diWNKE,3fk4g712o0duz4m7qhicsa7sfszsso,3p1l2b7ad52ukjxiqt94l3foulwlox,75diWNKE,2020-0188,2021-10-31,07:58:03,09:24:54,NA,incomplete,false,NA,NA,true,4,14,NA,NA,NA,right,m_s_012.jpg,black,blue,NA,NA,NA,NA,NA,NA,NA,NA,NA,NaN,NA,2460,right,1,NA,NA,NA,NA,NA
75diWNKE,3fk4g712o0duz4m7qhicsa7sfszsso,3p1l2b7ad52ukjxiqt94l3foulwlox,75diWNKE,2020-0188,2021-10-31,07:58:03,09:24:54,NA,incomplete,false,NA,NA,true,4,15,NA,NA,NA,left,n_l_055.jpg,purple,gray,NA,NA,NA,NA,NA,NA,NA,NA,NA,NaN,NA,3702,left,1,NA,NA,NA,NA,NA
75diWNKE,3fk4g712o0duz4m7qhicsa7sfszsso,3p1l2b7ad52ukjxiqt94l3foulwlox,75diWNKE,2020-0188,2021-10-31,07:58:03,09:24:54,NA,incomplete,false,NA,NA,true,4,16,NA,NA,NA,left,m_s_024.jpg,blue,black,NA,NA,NA,NA,NA,NA,NA,NA,NA,NaN,NA,2904,left,1,NA,NA,NA,NA,NA
75diWNKE,3fk4g712o0duz4m7qhicsa7sfszsso,3p1l2b7ad52ukjxiqt94l3foulwlox,75diWNKE,2020-0188,2021-10-31,07:58:03,09:24:54,NA,incomplete,false,NA,NA,true,4,17,NA,NA,NA,left,n_s_087.jpg,black,blue,NA,NA,NA,NA,NA,NA,NA,NA,NA,NaN,NA,2491,right,0,NA,NA,NA,NA,NA
75diWNKE,3fk4g712o0duz4m7qhicsa7sfszsso,3p1l2b7ad52ukjxiqt94l3foulwlox,75diWNKE,2020-0188,2021-10-31,07:58:03,09:24:54,NA,incomplete,false,NA,NA,true,4,18,NA,NA,NA,left,n_s_103.jpg,white,green,NA,NA,NA,NA,NA,NA,NA,NA,NA,NaN,NA,3716,right,0,NA,NA,NA,NA,NA
75diWNKE,3fk4g712o0duz4m7qhicsa7sfszsso,3p1l2b7ad52ukjxiqt94l3foulwlox,75diWNKE,2020-0188,2021-10-31,07:58:03,09:24:54,NA,incomplete,false,NA,NA,true,4,19,NA,NA,NA,right,m_s_101.jpg,black,blue,NA,NA,NA,NA,NA,NA,NA,NA,NA,NaN,NA,2335,right,1,NA,NA,NA,NA,NA
75diWNKE,3fk4g712o0duz4m7qhicsa7sfszsso,3p1l2b7ad52ukjxiqt94l3foulwlox,75diWNKE,2020-0188,2021-10-31,07:58:03,09:24:54,NA,incomplete,false,NA,NA,true,4,20,NA,NA,NA,left,n_s_005.jpg,white,green,NA,NA,NA,NA,NA,NA,NA,NA,NA,NaN,NA,2933,left,1,NA,NA,NA,NA,NA
75diWNKE,3fk4g712o0duz4m7qhicsa7sfszsso,3p1l2b7ad52ukjxiqt94l3foulwlox,75diWNKE,2020-0188,2021-10-31,07:58:03,09:24:54,NA,incomplete,false,NA,NA,true,4,21,NA,NA,NA,left,m_l_065.jpg,green,blue,NA,NA,NA,NA,NA,NA,NA,NA,NA,NaN,NA,2970,right,0,NA,NA,NA,NA,NA
75diWNKE,3fk4g712o0duz4m7qhicsa7sfszsso,3p1l2b7ad52ukjxiqt94l3foulwlox,75diWNKE,2020-0188,2021-10-31,07:58:03,09:24:54,NA,incomplete,false,NA,true,NA,4,0,NA,NA,NA,left,NA,NA,NA,absent,NA,NA,n_s_107.jpg,white,m_s_111.jpg,green,between,NA,NaN,NA,NA,NA,NA,right,8924,0,2,3081
75diWNKE,3fk4g712o0duz4m7qhicsa7sfszsso,3p1l2b7ad52ukjxiqt94l3foulwlox,75diWNKE,2020-0188,2021-10-31,07:58:03,09:24:54,NA,incomplete,false,NA,true,NA,4,1,NA,NA,NA,left,NA,NA,NA,absent,NA,NA,m_s_024.jpg,blue,m_s_049.jpg,blue,within,NA,NaN,NA,NA,NA,NA,left,6286,1,0,1669
75diWNKE,3fk4g712o0duz4m7qhicsa7sfszsso,3p1l2b7ad52ukjxiqt94l3foulwlox,75diWNKE,2020-0188,2021-10-31,07:58:03,09:24:54,NA,incomplete,false,NA,true,NA,4,2,NA,NA,NA,right,NA,NA,NA,absent,NA,NA,m_s_099.jpg,black,n_s_087.jpg,black,within,NA,NaN,NA,NA,NA,NA,left,7170,0,0,1068
75diWNKE,3fk4g712o0duz4m7qhicsa7sfszsso,3p1l2b7ad52ukjxiqt94l3foulwlox,75diWNKE,2020-0188,2021-10-31,07:58:03,09:24:54,NA,incomplete,false,NA,true,NA,4,3,NA,NA,NA,right,NA,NA,NA,absent,NA,NA,n_s_006.jpg,gray,n_l_079.jpg,purple,between,NA,NaN,NA,NA,NA,NA,right,6271,1,3,1559
75diWNKE,3fk4g712o0duz4m7qhicsa7sfszsso,3p1l2b7ad52ukjxiqt94l3foulwlox,75diWNKE,2020-0188,2021-10-31,07:58:03,09:24:54,NA,incomplete,false,NA,true,NA,4,4,NA,NA,NA,left,NA,NA,NA,absent,NA,NA,n_s_101.jpg,purple,n_l_055.jpg,purple,within,NA,NaN,NA,NA,NA,NA,right,7197,0,0,2326
75diWNKE,3fk4g712o0duz4m7qhicsa7sfszsso,3p1l2b7ad52ukjxiqt94l3foulwlox,75diWNKE,2020-0188,2021-10-31,07:58:03,09:24:54,NA,incomplete,false,NA,true,NA,4,5,NA,NA,NA,right,NA,NA,NA,absent,NA,NA,n_s_103.jpg,white,n_s_005.jpg,white,within,NA,NaN,NA,NA,NA,NA,left,5845,0,1,1607
75diWNKE,3fk4g712o0duz4m7qhicsa7sfszsso,3p1l2b7ad52ukjxiqt94l3foulwlox,75diWNKE,2020-0188,2021-10-31,07:58:03,09:24:54,NA,incomplete,false,NA,true,NA,4,6,NA,NA,NA,right,NA,NA,NA,absent,NA,NA,m_s_101.jpg,blue,n_l_013.jpg,green,between,NA,NaN,NA,NA,NA,NA,right,6233,1,3,1581
75diWNKE,3fk4g712o0duz4m7qhicsa7sfszsso,3p1l2b7ad52ukjxiqt94l3foulwlox,75diWNKE,2020-0188,2021-10-31,07:58:03,09:24:54,NA,incomplete,false,NA,true,NA,4,7,NA,NA,NA,right,NA,NA,NA,absent,NA,NA,m_l_054.jpg,gray,m_s_044.jpg,gray,within,NA,NaN,NA,NA,NA,NA,right,3081,1,2,2941
75diWNKE,3fk4g712o0duz4m7qhicsa7sfszsso,3p1l2b7ad52ukjxiqt94l3foulwlox,75diWNKE,2020-0188,2021-10-31,07:58:03,09:24:54,NA,incomplete,false,NA,true,NA,4,8,NA,NA,NA,left,NA,NA,NA,absent,NA,NA,m_l_065.jpg,green,m_l_099.jpg,green,within,NA,NaN,NA,NA,NA,NA,left,5970,1,1,1162
75diWNKE,3fk4g712o0duz4m7qhicsa7sfszsso,3p1l2b7ad52ukjxiqt94l3foulwlox,75diWNKE,2020-0188,2021-10-31,07:58:03,09:24:54,NA,incomplete,false,NA,true,NA,4,9,NA,NA,NA,right,NA,NA,NA,absent,NA,NA,n_s_061.jpg,white,m_l_082.jpg,gray,between,NA,NaN,NA,NA,NA,NA,right,4214,1,1,1404
75diWNKE,3fk4g712o0duz4m7qhicsa7sfszsso,3p1l2b7ad52ukjxiqt94l3foulwlox,75diWNKE,2020-0188,2021-10-31,07:58:03,09:24:54,NA,incomplete,false,NA,true,NA,4,10,NA,NA,NA,left,NA,NA,NA,absent,NA,NA,m_s_012.jpg,blue,m_s_092.jpg,black,between,NA,NaN,NA,NA,NA,NA,right,7073,0,0,1171
75diWNKE,3fk4g712o0duz4m7qhicsa7sfszsso,3p1l2b7ad52ukjxiqt94l3foulwlox,75diWNKE,2020-0188,2021-10-31,07:58:03,09:24:54,NA,incomplete,false,true,NA,NA,5,0,NA,red,m_l_034.jpg,NA,NA,NA,NA,NA,unpleasant,pleasant,NA,NA,NA,NA,NA,none,0,false,NA,NA,NA,NA,NA,NA,NA,NA
75diWNKE,3fk4g712o0duz4m7qhicsa7sfszsso,3p1l2b7ad52ukjxiqt94l3foulwlox,75diWNKE,2020-0188,2021-10-31,07:58:03,09:24:54,NA,incomplete,false,true,NA,NA,5,1,NA,red,n_l_081.jpg,NA,NA,NA,NA,NA,pleasant,unpleasant,NA,NA,NA,NA,NA,left,3443,true,NA,NA,NA,NA,NA,NA,NA,NA
75diWNKE,3fk4g712o0duz4m7qhicsa7sfszsso,3p1l2b7ad52ukjxiqt94l3foulwlox,75diWNKE,2020-0188,2021-10-31,07:58:03,09:24:54,NA,incomplete,false,true,NA,NA,5,2,NA,red,n_l_038.jpg,NA,NA,NA,NA,NA,pleasant,unpleasant,NA,NA,NA,NA,NA,left,2327,true,NA,NA,NA,NA,NA,NA,NA,NA
75diWNKE,3fk4g712o0duz4m7qhicsa7sfszsso,3p1l2b7ad52ukjxiqt94l3foulwlox,75diWNKE,2020-0188,2021-10-31,07:58:03,09:24:54,NA,incomplete,false,true,NA,NA,5,3,NA,red,m_s_100.jpg,NA,NA,NA,NA,NA,pleasant,unpleasant,NA,NA,NA,NA,NA,left,2252,true,NA,NA,NA,NA,NA,NA,NA,NA
75diWNKE,3fk4g712o0duz4m7qhicsa7sfszsso,3p1l2b7ad52ukjxiqt94l3foulwlox,75diWNKE,2020-0188,2021-10-31,07:58:03,09:24:54,NA,incomplete,false,true,NA,NA,5,4,NA,red,n_l_050.jpg,NA,NA,NA,NA,NA,pleasant,unpleasant,NA,NA,NA,NA,NA,left,1408,true,NA,NA,NA,NA,NA,NA,NA,NA
75diWNKE,3fk4g712o0duz4m7qhicsa7sfszsso,3p1l2b7ad52ukjxiqt94l3foulwlox,75diWNKE,2020-0188,2021-10-31,07:58:03,09:24:54,NA,incomplete,false,true,NA,NA,5,5,NA,red,n_s_040.jpg,NA,NA,NA,NA,NA,unpleasant,pleasant,NA,NA,NA,NA,NA,left,2612,true,NA,NA,NA,NA,NA,NA,NA,NA
75diWNKE,3fk4g712o0duz4m7qhicsa7sfszsso,3p1l2b7ad52ukjxiqt94l3foulwlox,75diWNKE,2020-0188,2021-10-31,07:58:03,09:24:54,NA,incomplete,false,true,NA,NA,5,6,NA,orange,m_s_086.jpg,NA,NA,NA,NA,NA,unpleasant,pleasant,NA,NA,NA,NA,NA,right,2697,true,NA,NA,NA,NA,NA,NA,NA,NA
75diWNKE,3fk4g712o0duz4m7qhicsa7sfszsso,3p1l2b7ad52ukjxiqt94l3foulwlox,75diWNKE,2020-0188,2021-10-31,07:58:03,09:24:54,NA,incomplete,false,true,NA,NA,5,7,NA,orange,m_s_058.jpg,NA,NA,NA,NA,NA,unpleasant,pleasant,NA,NA,NA,NA,NA,right,1852,true,NA,NA,NA,NA,NA,NA,NA,NA
75diWNKE,3fk4g712o0duz4m7qhicsa7sfszsso,3p1l2b7ad52ukjxiqt94l3foulwlox,75diWNKE,2020-0188,2021-10-31,07:58:03,09:24:54,NA,incomplete,false,true,NA,NA,5,8,NA,orange,m_l_021.jpg,NA,NA,NA,NA,NA,pleasant,unpleasant,NA,NA,NA,NA,NA,right,2432,true,NA,NA,NA,NA,NA,NA,NA,NA
75diWNKE,3fk4g712o0duz4m7qhicsa7sfszsso,3p1l2b7ad52ukjxiqt94l3foulwlox,75diWNKE,2020-0188,2021-10-31,07:58:03,09:24:54,NA,incomplete,false,true,NA,NA,5,9,NA,orange,m_l_089.jpg,NA,NA,NA,NA,NA,unpleasant,pleasant,NA,NA,NA,NA,NA,right,1813,true,NA,NA,NA,NA,NA,NA,NA,NA
75diWNKE,3fk4g712o0duz4m7qhicsa7sfszsso,3p1l2b7ad52ukjxiqt94l3foulwlox,75diWNKE,2020-0188,2021-10-31,07:58:03,09:24:54,NA,incomplete,false,true,NA,NA,5,10,NA,orange,n_l_028.jpg,NA,NA,NA,NA,NA,unpleasant,pleasant,NA,NA,NA,NA,NA,right,1721,true,NA,NA,NA,NA,NA,NA,NA,NA
75diWNKE,3fk4g712o0duz4m7qhicsa7sfszsso,3p1l2b7ad52ukjxiqt94l3foulwlox,75diWNKE,2020-0188,2021-10-31,07:58:03,09:24:54,NA,incomplete,false,true,NA,NA,5,11,NA,orange,n_s_088.jpg,NA,NA,NA,NA,NA,pleasant,unpleasant,NA,NA,NA,NA,NA,left,1692,true,NA,NA,NA,NA,NA,NA,NA,NA
75diWNKE,3fk4g712o0duz4m7qhicsa7sfszsso,3p1l2b7ad52ukjxiqt94l3foulwlox,75diWNKE,2020-0188,2021-10-31,07:58:03,09:24:54,NA,incomplete,false,true,NA,NA,5,12,NA,black,n_l_099.jpg,NA,NA,NA,NA,NA,unpleasant,pleasant,NA,NA,NA,NA,NA,left,1953,true,NA,NA,NA,NA,NA,NA,NA,NA
75diWNKE,3fk4g712o0duz4m7qhicsa7sfszsso,3p1l2b7ad52ukjxiqt94l3foulwlox,75diWNKE,2020-0188,2021-10-31,07:58:03,09:24:54,NA,incomplete,false,true,NA,NA,5,13,NA,black,n_s_071.jpg,NA,NA,NA,NA,NA,unpleasant,pleasant,NA,NA,NA,NA,NA,right,2486,true,NA,NA,NA,NA,NA,NA,NA,NA
75diWNKE,3fk4g712o0duz4m7qhicsa7sfszsso,3p1l2b7ad52ukjxiqt94l3foulwlox,75diWNKE,2020-0188,2021-10-31,07:58:03,09:24:54,NA,incomplete,false,true,NA,NA,5,14,NA,black,n_s_015.jpg,NA,NA,NA,NA,NA,unpleasant,pleasant,NA,NA,NA,NA,NA,right,1809,true,NA,NA,NA,NA,NA,NA,NA,NA
75diWNKE,3fk4g712o0duz4m7qhicsa7sfszsso,3p1l2b7ad52ukjxiqt94l3foulwlox,75diWNKE,2020-0188,2021-10-31,07:58:03,09:24:54,NA,incomplete,false,true,NA,NA,5,15,NA,black,n_l_098.jpg,NA,NA,NA,NA,NA,pleasant,unpleasant,NA,NA,NA,NA,NA,left,2053,true,NA,NA,NA,NA,NA,NA,NA,NA
75diWNKE,3fk4g712o0duz4m7qhicsa7sfszsso,3p1l2b7ad52ukjxiqt94l3foulwlox,75diWNKE,2020-0188,2021-10-31,07:58:03,09:24:54,NA,incomplete,false,true,NA,NA,5,16,NA,black,n_l_008.jpg,NA,NA,NA,NA,NA,unpleasant,pleasant,NA,NA,NA,NA,NA,right,1851,true,NA,NA,NA,NA,NA,NA,NA,NA
75diWNKE,3fk4g712o0duz4m7qhicsa7sfszsso,3p1l2b7ad52ukjxiqt94l3foulwlox,75diWNKE,2020-0188,2021-10-31,07:58:03,09:24:54,NA,incomplete,false,true,NA,NA,5,17,NA,black,m_l_013.jpg,NA,NA,NA,NA,NA,pleasant,unpleasant,NA,NA,NA,NA,NA,left,2046,true,NA,NA,NA,NA,NA,NA,NA,NA
75diWNKE,3fk4g712o0duz4m7qhicsa7sfszsso,3p1l2b7ad52ukjxiqt94l3foulwlox,75diWNKE,2020-0188,2021-10-31,07:58:03,09:24:54,NA,incomplete,false,true,NA,NA,5,18,NA,gray,n_l_068.jpg,NA,NA,NA,NA,NA,pleasant,unpleasant,NA,NA,NA,NA,NA,left,2931,true,NA,NA,NA,NA,NA,NA,NA,NA
75diWNKE,3fk4g712o0duz4m7qhicsa7sfszsso,3p1l2b7ad52ukjxiqt94l3foulwlox,75diWNKE,2020-0188,2021-10-31,07:58:03,09:24:54,NA,incomplete,false,true,NA,NA,5,19,NA,gray,n_l_023.jpg,NA,NA,NA,NA,NA,unpleasant,pleasant,NA,NA,NA,NA,NA,right,2222,true,NA,NA,NA,NA,NA,NA,NA,NA
75diWNKE,3fk4g712o0duz4m7qhicsa7sfszsso,3p1l2b7ad52ukjxiqt94l3foulwlox,75diWNKE,2020-0188,2021-10-31,07:58:03,09:24:54,NA,incomplete,false,true,NA,NA,5,20,NA,gray,n_l_078.jpg,NA,NA,NA,NA,NA,unpleasant,pleasant,NA,NA,NA,NA,NA,right,1491,true,NA,NA,NA,NA,NA,NA,NA,NA
75diWNKE,3fk4g712o0duz4m7qhicsa7sfszsso,3p1l2b7ad52ukjxiqt94l3foulwlox,75diWNKE,2020-0188,2021-10-31,07:58:03,09:24:54,NA,incomplete,false,true,NA,NA,5,21,NA,gray,m_s_080.jpg,NA,NA,NA,NA,NA,pleasant,unpleasant,NA,NA,NA,NA,NA,left,2150,true,NA,NA,NA,NA,NA,NA,NA,NA
75diWNKE,3fk4g712o0duz4m7qhicsa7sfszsso,3p1l2b7ad52ukjxiqt94l3foulwlox,75diWNKE,2020-0188,2021-10-31,07:58:03,09:24:54,NA,incomplete,false,true,NA,NA,5,22,NA,gray,m_l_093.jpg,NA,NA,NA,NA,NA,pleasant,unpleasant,NA,NA,NA,NA,NA,left,2242,true,NA,NA,NA,NA,NA,NA,NA,NA
75diWNKE,3fk4g712o0duz4m7qhicsa7sfszsso,3p1l2b7ad52ukjxiqt94l3foulwlox,75diWNKE,2020-0188,2021-10-31,07:58:03,09:24:54,NA,incomplete,false,true,NA,NA,5,23,NA,gray,n_s_114.jpg,NA,NA,NA,NA,NA,unpleasant,pleasant,NA,NA,NA,NA,NA,left,1399,true,NA,NA,NA,NA,NA,NA,NA,NA
75diWNKE,3fk4g712o0duz4m7qhicsa7sfszsso,3p1l2b7ad52ukjxiqt94l3foulwlox,75diWNKE,2020-0188,2021-10-31,07:58:03,09:24:54,NA,incomplete,false,true,NA,NA,5,24,NA,blue,n_s_009.jpg,NA,NA,NA,NA,NA,pleasant,unpleasant,NA,NA,NA,NA,NA,left,1644,true,NA,NA,NA,NA,NA,NA,NA,NA
75diWNKE,3fk4g712o0duz4m7qhicsa7sfszsso,3p1l2b7ad52ukjxiqt94l3foulwlox,75diWNKE,2020-0188,2021-10-31,07:58:03,09:24:54,NA,incomplete,false,true,NA,NA,5,25,NA,blue,m_l_029.jpg,NA,NA,NA,NA,NA,unpleasant,pleasant,NA,NA,NA,NA,NA,right,1713,true,NA,NA,NA,NA,NA,NA,NA,NA
75diWNKE,3fk4g712o0duz4m7qhicsa7sfszsso,3p1l2b7ad52ukjxiqt94l3foulwlox,75diWNKE,2020-0188,2021-10-31,07:58:03,09:24:54,NA,incomplete,false,true,NA,NA,5,26,NA,blue,n_s_052.jpg,NA,NA,NA,NA,NA,unpleasant,pleasant,NA,NA,NA,NA,NA,right,1436,true,NA,NA,NA,NA,NA,NA,NA,NA
75diWNKE,3fk4g712o0duz4m7qhicsa7sfszsso,3p1l2b7ad52ukjxiqt94l3foulwlox,75diWNKE,2020-0188,2021-10-31,07:58:03,09:24:54,NA,incomplete,false,true,NA,NA,5,27,NA,blue,m_s_056.jpg,NA,NA,NA,NA,NA,pleasant,unpleasant,NA,NA,NA,NA,NA,left,2128,true,NA,NA,NA,NA,NA,NA,NA,NA
75diWNKE,3fk4g712o0duz4m7qhicsa7sfszsso,3p1l2b7ad52ukjxiqt94l3foulwlox,75diWNKE,2020-0188,2021-10-31,07:58:03,09:24:54,NA,incomplete,false,true,NA,NA,5,28,NA,blue,m_l_001.jpg,NA,NA,NA,NA,NA,pleasant,unpleasant,NA,NA,NA,NA,NA,right,1580,true,NA,NA,NA,NA,NA,NA,NA,NA
75diWNKE,3fk4g712o0duz4m7qhicsa7sfszsso,3p1l2b7ad52ukjxiqt94l3foulwlox,75diWNKE,2020-0188,2021-10-31,07:58:03,09:24:54,NA,incomplete,false,true,NA,NA,5,29,NA,blue,m_l_002.jpg,NA,NA,NA,NA,NA,pleasant,unpleasant,NA,NA,NA,NA,NA,left,1848,true,NA,NA,NA,NA,NA,NA,NA,NA
75diWNKE,3fk4g712o0duz4m7qhicsa7sfszsso,3p1l2b7ad52ukjxiqt94l3foulwlox,75diWNKE,2020-0188,2021-10-31,07:58:03,09:24:54,NA,incomplete,false,true,NA,NA,5,30,NA,white,n_s_108.jpg,NA,NA,NA,NA,NA,pleasant,unpleasant,NA,NA,NA,NA,NA,right,2606,true,NA,NA,NA,NA,NA,NA,NA,NA
75diWNKE,3fk4g712o0duz4m7qhicsa7sfszsso,3p1l2b7ad52ukjxiqt94l3foulwlox,75diWNKE,2020-0188,2021-10-31,07:58:03,09:24:54,NA,incomplete,false,true,NA,NA,5,31,NA,white,m_s_112.jpg,NA,NA,NA,NA,NA,pleasant,unpleasant,NA,NA,NA,NA,NA,right,2946,true,NA,NA,NA,NA,NA,NA,NA,NA
75diWNKE,3fk4g712o0duz4m7qhicsa7sfszsso,3p1l2b7ad52ukjxiqt94l3foulwlox,75diWNKE,2020-0188,2021-10-31,07:58:03,09:24:54,NA,incomplete,false,true,NA,NA,5,32,NA,white,m_s_053.jpg,NA,NA,NA,NA,NA,pleasant,unpleasant,NA,NA,NA,NA,NA,left,2807,true,NA,NA,NA,NA,NA,NA,NA,NA
