workerId,hitId,assignmentId,subject,studyid,exp_date,exp_start,exp_end,time_start,time_end,practice,encoding,memory,association,block,trial,event_order,event,stim,answer,object,left_context,right_context,context_type,label_left,label_right,left_image,left_event,right_image,right_event,condition,response,response_time,response_acc,association_response_time,association_response,association_acc,order_response,order_response_time,order_acc,distance_response,distance_response_time
vaQXaiDl,3z33ic0jd3zsmh7cb6nqm2m9m84v9l,3p59jyt76px4wpgic4dy0hm2nunt25,vaQXaiDl,2020-0188,2021-10-31,08:52:25,10:37:24,NA,incomplete,true,true,NA,NA,0,0,NA,orange,m_l_001.jpg,NA,NA,NA,NA,NA,pleasant,unpleasant,NA,NA,NA,NA,NA,none,0,false,NA,NA,NA,NA,NA,NA,NA,NA
vaQXaiDl,3z33ic0jd3zsmh7cb6nqm2m9m84v9l,3p59jyt76px4wpgic4dy0hm2nunt25,vaQXaiDl,2020-0188,2021-10-31,08:52:25,10:37:24,NA,incomplete,true,true,NA,NA,0,1,NA,orange,m_s_056.jpg,NA,NA,NA,NA,NA,unpleasant,pleasant,NA,NA,NA,NA,NA,none,0,false,NA,NA,NA,NA,NA,NA,NA,NA
vaQXaiDl,3z33ic0jd3zsmh7cb6nqm2m9m84v9l,3p59jyt76px4wpgic4dy0hm2nunt25,vaQXaiDl,2020-0188,2021-10-31,08:52:25,10:37:24,NA,incomplete,true,true,NA,NA,0,2,NA,orange,m_l_101.jpg,NA,NA,NA,NA,NA,unpleasant,pleasant,NA,NA,NA,NA,NA,left,2134,true,NA,NA,NA,NA,NA,NA,NA,NA
vaQXaiDl,3z33ic0jd3zsmh7cb6nqm2m9m84v9l,3p59jyt76px4wpgic4dy0hm2nunt25,vaQXaiDl,2020-0188,2021-10-31,08:52:25,10:37:24,NA,incomplete,true,true,NA,NA,0,3,NA,orange,m_s_115.jpg,NA,NA,NA,NA,NA,pleasant,unpleasant,NA,NA,NA,NA,NA,left,1751,true,NA,NA,NA,NA,NA,NA,NA,NA
vaQXaiDl,3z33ic0jd3zsmh7cb6nqm2m9m84v9l,3p59jyt76px4wpgic4dy0hm2nunt25,vaQXaiDl,2020-0188,2021-10-31,08:52:25,10:37:24,NA,incomplete,true,true,NA,NA,0,4,NA,orange,m_s_081.jpg,NA,NA,NA,NA,NA,pleasant,unpleasant,NA,NA,NA,NA,NA,right,893,true,NA,NA,NA,NA,NA,NA,NA,NA
vaQXaiDl,3z33ic0jd3zsmh7cb6nqm2m9m84v9l,3p59jyt76px4wpgic4dy0hm2nunt25,vaQXaiDl,2020-0188,2021-10-31,08:52:25,10:37:24,NA,incomplete,true,true,NA,NA,0,5,NA,orange,n_s_085.jpg,NA,NA,NA,NA,NA,pleasant,unpleasant,NA,NA,NA,NA,NA,left,2604,true,NA,NA,NA,NA,NA,NA,NA,NA
vaQXaiDl,3z33ic0jd3zsmh7cb6nqm2m9m84v9l,3p59jyt76px4wpgic4dy0hm2nunt25,vaQXaiDl,2020-0188,2021-10-31,08:52:25,10:37:24,NA,incomplete,true,true,NA,NA,0,6,NA,red,m_s_022.jpg,NA,NA,NA,NA,NA,pleasant,unpleasant,NA,NA,NA,NA,NA,right,1751,true,NA,NA,NA,NA,NA,NA,NA,NA
vaQXaiDl,3z33ic0jd3zsmh7cb6nqm2m9m84v9l,3p59jyt76px4wpgic4dy0hm2nunt25,vaQXaiDl,2020-0188,2021-10-31,08:52:25,10:37:24,NA,incomplete,true,true,NA,NA,0,7,NA,red,n_s_090.jpg,NA,NA,NA,NA,NA,unpleasant,pleasant,NA,NA,NA,NA,NA,right,1485,true,NA,NA,NA,NA,NA,NA,NA,NA
vaQXaiDl,3z33ic0jd3zsmh7cb6nqm2m9m84v9l,3p59jyt76px4wpgic4dy0hm2nunt25,vaQXaiDl,2020-0188,2021-10-31,08:52:25,10:37:24,NA,incomplete,true,true,NA,NA,0,8,NA,red,m_l_029.jpg,NA,NA,NA,NA,NA,pleasant,unpleasant,NA,NA,NA,NA,NA,left,1778,true,NA,NA,NA,NA,NA,NA,NA,NA
vaQXaiDl,3z33ic0jd3zsmh7cb6nqm2m9m84v9l,3p59jyt76px4wpgic4dy0hm2nunt25,vaQXaiDl,2020-0188,2021-10-31,08:52:25,10:37:24,NA,incomplete,true,true,NA,NA,0,9,NA,red,n_s_053.jpg,NA,NA,NA,NA,NA,pleasant,unpleasant,NA,NA,NA,NA,NA,left,2417,true,NA,NA,NA,NA,NA,NA,NA,NA
vaQXaiDl,3z33ic0jd3zsmh7cb6nqm2m9m84v9l,3p59jyt76px4wpgic4dy0hm2nunt25,vaQXaiDl,2020-0188,2021-10-31,08:52:25,10:37:24,NA,incomplete,true,true,NA,NA,0,10,NA,red,n_l_024.jpg,NA,NA,NA,NA,NA,pleasant,unpleasant,NA,NA,NA,NA,NA,left,1847,true,NA,NA,NA,NA,NA,NA,NA,NA
vaQXaiDl,3z33ic0jd3zsmh7cb6nqm2m9m84v9l,3p59jyt76px4wpgic4dy0hm2nunt25,vaQXaiDl,2020-0188,2021-10-31,08:52:25,10:37:24,NA,incomplete,true,true,NA,NA,0,11,NA,red,n_s_101.jpg,NA,NA,NA,NA,NA,unpleasant,pleasant,NA,NA,NA,NA,NA,left,2075,true,NA,NA,NA,NA,NA,NA,NA,NA
vaQXaiDl,3z33ic0jd3zsmh7cb6nqm2m9m84v9l,3p59jyt76px4wpgic4dy0hm2nunt25,vaQXaiDl,2020-0188,2021-10-31,08:52:25,10:37:24,NA,incomplete,true,true,NA,NA,0,12,NA,brown,n_s_115.jpg,NA,NA,NA,NA,NA,unpleasant,pleasant,NA,NA,NA,NA,NA,right,1953,true,NA,NA,NA,NA,NA,NA,NA,NA
vaQXaiDl,3z33ic0jd3zsmh7cb6nqm2m9m84v9l,3p59jyt76px4wpgic4dy0hm2nunt25,vaQXaiDl,2020-0188,2021-10-31,08:52:25,10:37:24,NA,incomplete,true,true,NA,NA,0,13,NA,brown,m_l_105.jpg,NA,NA,NA,NA,NA,pleasant,unpleasant,NA,NA,NA,NA,NA,right,2002,true,NA,NA,NA,NA,NA,NA,NA,NA
vaQXaiDl,3z33ic0jd3zsmh7cb6nqm2m9m84v9l,3p59jyt76px4wpgic4dy0hm2nunt25,vaQXaiDl,2020-0188,2021-10-31,08:52:25,10:37:24,NA,incomplete,true,true,NA,NA,0,14,NA,brown,n_s_082.jpg,NA,NA,NA,NA,NA,pleasant,unpleasant,NA,NA,NA,NA,NA,left,1364,true,NA,NA,NA,NA,NA,NA,NA,NA
vaQXaiDl,3z33ic0jd3zsmh7cb6nqm2m9m84v9l,3p59jyt76px4wpgic4dy0hm2nunt25,vaQXaiDl,2020-0188,2021-10-31,08:52:25,10:37:24,NA,incomplete,true,true,NA,NA,0,15,NA,brown,n_l_043.jpg,NA,NA,NA,NA,NA,unpleasant,pleasant,NA,NA,NA,NA,NA,right,1651,true,NA,NA,NA,NA,NA,NA,NA,NA
vaQXaiDl,3z33ic0jd3zsmh7cb6nqm2m9m84v9l,3p59jyt76px4wpgic4dy0hm2nunt25,vaQXaiDl,2020-0188,2021-10-31,08:52:25,10:37:24,NA,incomplete,true,true,NA,NA,0,16,NA,brown,m_l_106.jpg,NA,NA,NA,NA,NA,pleasant,unpleasant,NA,NA,NA,NA,NA,left,2195,true,NA,NA,NA,NA,NA,NA,NA,NA
vaQXaiDl,3z33ic0jd3zsmh7cb6nqm2m9m84v9l,3p59jyt76px4wpgic4dy0hm2nunt25,vaQXaiDl,2020-0188,2021-10-31,08:52:25,10:37:24,NA,incomplete,true,true,NA,NA,0,17,NA,brown,m_l_047.jpg,NA,NA,NA,NA,NA,pleasant,unpleasant,NA,NA,NA,NA,NA,left,2128,true,NA,NA,NA,NA,NA,NA,NA,NA
vaQXaiDl,3z33ic0jd3zsmh7cb6nqm2m9m84v9l,3p59jyt76px4wpgic4dy0hm2nunt25,vaQXaiDl,2020-0188,2021-10-31,08:52:25,10:37:24,NA,incomplete,true,true,NA,NA,0,18,NA,gray,m_l_069.jpg,NA,NA,NA,NA,NA,unpleasant,pleasant,NA,NA,NA,NA,NA,right,2646,true,NA,NA,NA,NA,NA,NA,NA,NA
vaQXaiDl,3z33ic0jd3zsmh7cb6nqm2m9m84v9l,3p59jyt76px4wpgic4dy0hm2nunt25,vaQXaiDl,2020-0188,2021-10-31,08:52:25,10:37:24,NA,incomplete,true,true,NA,NA,0,19,NA,gray,m_l_046.jpg,NA,NA,NA,NA,NA,pleasant,unpleasant,NA,NA,NA,NA,NA,right,1187,true,NA,NA,NA,NA,NA,NA,NA,NA
vaQXaiDl,3z33ic0jd3zsmh7cb6nqm2m9m84v9l,3p59jyt76px4wpgic4dy0hm2nunt25,vaQXaiDl,2020-0188,2021-10-31,08:52:25,10:37:24,NA,incomplete,true,true,NA,NA,0,20,NA,gray,n_l_016.jpg,NA,NA,NA,NA,NA,pleasant,unpleasant,NA,NA,NA,NA,NA,left,1625,true,NA,NA,NA,NA,NA,NA,NA,NA
vaQXaiDl,3z33ic0jd3zsmh7cb6nqm2m9m84v9l,3p59jyt76px4wpgic4dy0hm2nunt25,vaQXaiDl,2020-0188,2021-10-31,08:52:25,10:37:24,NA,incomplete,true,true,NA,NA,0,21,NA,gray,m_s_048.jpg,NA,NA,NA,NA,NA,pleasant,unpleasant,NA,NA,NA,NA,NA,right,1442,true,NA,NA,NA,NA,NA,NA,NA,NA
vaQXaiDl,3z33ic0jd3zsmh7cb6nqm2m9m84v9l,3p59jyt76px4wpgic4dy0hm2nunt25,vaQXaiDl,2020-0188,2021-10-31,08:52:25,10:37:24,NA,incomplete,true,true,NA,NA,0,22,NA,gray,n_s_106.jpg,NA,NA,NA,NA,NA,pleasant,unpleasant,NA,NA,NA,NA,NA,left,2733,true,NA,NA,NA,NA,NA,NA,NA,NA
vaQXaiDl,3z33ic0jd3zsmh7cb6nqm2m9m84v9l,3p59jyt76px4wpgic4dy0hm2nunt25,vaQXaiDl,2020-0188,2021-10-31,08:52:25,10:37:24,NA,incomplete,true,true,NA,NA,0,23,NA,gray,m_l_007.jpg,NA,NA,NA,NA,NA,pleasant,unpleasant,NA,NA,NA,NA,NA,left,1980,true,NA,NA,NA,NA,NA,NA,NA,NA
vaQXaiDl,3z33ic0jd3zsmh7cb6nqm2m9m84v9l,3p59jyt76px4wpgic4dy0hm2nunt25,vaQXaiDl,2020-0188,2021-10-31,08:52:25,10:37:24,NA,incomplete,true,true,NA,NA,0,24,NA,blue,n_s_057.jpg,NA,NA,NA,NA,NA,pleasant,unpleasant,NA,NA,NA,NA,NA,right,2149,true,NA,NA,NA,NA,NA,NA,NA,NA
vaQXaiDl,3z33ic0jd3zsmh7cb6nqm2m9m84v9l,3p59jyt76px4wpgic4dy0hm2nunt25,vaQXaiDl,2020-0188,2021-10-31,08:52:25,10:37:24,NA,incomplete,true,true,NA,NA,0,25,NA,blue,n_s_094.jpg,NA,NA,NA,NA,NA,unpleasant,pleasant,NA,NA,NA,NA,NA,right,2243,true,NA,NA,NA,NA,NA,NA,NA,NA
vaQXaiDl,3z33ic0jd3zsmh7cb6nqm2m9m84v9l,3p59jyt76px4wpgic4dy0hm2nunt25,vaQXaiDl,2020-0188,2021-10-31,08:52:25,10:37:24,NA,incomplete,true,true,NA,NA,0,26,NA,blue,m_l_045.jpg,NA,NA,NA,NA,NA,pleasant,unpleasant,NA,NA,NA,NA,NA,left,1664,true,NA,NA,NA,NA,NA,NA,NA,NA
vaQXaiDl,3z33ic0jd3zsmh7cb6nqm2m9m84v9l,3p59jyt76px4wpgic4dy0hm2nunt25,vaQXaiDl,2020-0188,2021-10-31,08:52:25,10:37:24,NA,incomplete,true,true,NA,NA,0,27,NA,blue,n_s_002.jpg,NA,NA,NA,NA,NA,unpleasant,pleasant,NA,NA,NA,NA,NA,right,1599,true,NA,NA,NA,NA,NA,NA,NA,NA
vaQXaiDl,3z33ic0jd3zsmh7cb6nqm2m9m84v9l,3p59jyt76px4wpgic4dy0hm2nunt25,vaQXaiDl,2020-0188,2021-10-31,08:52:25,10:37:24,NA,incomplete,true,true,NA,NA,0,28,NA,blue,n_l_061.jpg,NA,NA,NA,NA,NA,pleasant,unpleasant,NA,NA,NA,NA,NA,left,2249,true,NA,NA,NA,NA,NA,NA,NA,NA
vaQXaiDl,3z33ic0jd3zsmh7cb6nqm2m9m84v9l,3p59jyt76px4wpgic4dy0hm2nunt25,vaQXaiDl,2020-0188,2021-10-31,08:52:25,10:37:24,NA,incomplete,true,true,NA,NA,0,29,NA,blue,n_l_002.jpg,NA,NA,NA,NA,NA,pleasant,unpleasant,NA,NA,NA,NA,NA,left,1832,true,NA,NA,NA,NA,NA,NA,NA,NA
vaQXaiDl,3z33ic0jd3zsmh7cb6nqm2m9m84v9l,3p59jyt76px4wpgic4dy0hm2nunt25,vaQXaiDl,2020-0188,2021-10-31,08:52:25,10:37:24,NA,incomplete,true,true,NA,NA,0,30,NA,green,n_l_116.jpg,NA,NA,NA,NA,NA,unpleasant,pleasant,NA,NA,NA,NA,NA,right,1732,true,NA,NA,NA,NA,NA,NA,NA,NA
vaQXaiDl,3z33ic0jd3zsmh7cb6nqm2m9m84v9l,3p59jyt76px4wpgic4dy0hm2nunt25,vaQXaiDl,2020-0188,2021-10-31,08:52:25,10:37:24,NA,incomplete,true,true,NA,NA,0,31,NA,green,m_s_021.jpg,NA,NA,NA,NA,NA,pleasant,unpleasant,NA,NA,NA,NA,NA,left,2294,true,NA,NA,NA,NA,NA,NA,NA,NA
vaQXaiDl,3z33ic0jd3zsmh7cb6nqm2m9m84v9l,3p59jyt76px4wpgic4dy0hm2nunt25,vaQXaiDl,2020-0188,2021-10-31,08:52:25,10:37:24,NA,incomplete,true,true,NA,NA,0,32,NA,green,n_s_019.jpg,NA,NA,NA,NA,NA,unpleasant,pleasant,NA,NA,NA,NA,NA,right,1889,true,NA,NA,NA,NA,NA,NA,NA,NA
vaQXaiDl,3z33ic0jd3zsmh7cb6nqm2m9m84v9l,3p59jyt76px4wpgic4dy0hm2nunt25,vaQXaiDl,2020-0188,2021-10-31,08:52:25,10:37:24,NA,incomplete,true,true,NA,NA,0,33,NA,green,m_l_092.jpg,NA,NA,NA,NA,NA,unpleasant,pleasant,NA,NA,NA,NA,NA,right,2153,true,NA,NA,NA,NA,NA,NA,NA,NA
vaQXaiDl,3z33ic0jd3zsmh7cb6nqm2m9m84v9l,3p59jyt76px4wpgic4dy0hm2nunt25,vaQXaiDl,2020-0188,2021-10-31,08:52:25,10:37:24,NA,incomplete,true,true,NA,NA,0,34,NA,green,m_s_104.jpg,NA,NA,NA,NA,NA,unpleasant,pleasant,NA,NA,NA,NA,NA,right,1937,true,NA,NA,NA,NA,NA,NA,NA,NA
vaQXaiDl,3z33ic0jd3zsmh7cb6nqm2m9m84v9l,3p59jyt76px4wpgic4dy0hm2nunt25,vaQXaiDl,2020-0188,2021-10-31,08:52:25,10:37:24,NA,incomplete,true,true,NA,NA,0,35,NA,green,n_l_022.jpg,NA,NA,NA,NA,NA,pleasant,unpleasant,NA,NA,NA,NA,NA,left,2261,true,NA,NA,NA,NA,NA,NA,NA,NA
vaQXaiDl,3z33ic0jd3zsmh7cb6nqm2m9m84v9l,3p59jyt76px4wpgic4dy0hm2nunt25,vaQXaiDl,2020-0188,2021-10-31,08:52:25,10:37:24,NA,incomplete,true,NA,NA,true,0,0,NA,NA,NA,right,n_l_002.jpg,green,blue,NA,NA,NA,NA,NA,NA,NA,NA,NA,NaN,NA,3799,right,1,NA,NA,NA,NA,NA
vaQXaiDl,3z33ic0jd3zsmh7cb6nqm2m9m84v9l,3p59jyt76px4wpgic4dy0hm2nunt25,vaQXaiDl,2020-0188,2021-10-31,08:52:25,10:37:24,NA,incomplete,true,NA,NA,true,0,1,NA,NA,NA,right,n_s_094.jpg,gray,blue,NA,NA,NA,NA,NA,NA,NA,NA,NA,NaN,NA,3338,right,1,NA,NA,NA,NA,NA
vaQXaiDl,3z33ic0jd3zsmh7cb6nqm2m9m84v9l,3p59jyt76px4wpgic4dy0hm2nunt25,vaQXaiDl,2020-0188,2021-10-31,08:52:25,10:37:24,NA,incomplete,true,NA,NA,true,0,2,NA,NA,NA,left,m_l_045.jpg,blue,green,NA,NA,NA,NA,NA,NA,NA,NA,NA,NaN,NA,4082,left,1,NA,NA,NA,NA,NA
vaQXaiDl,3z33ic0jd3zsmh7cb6nqm2m9m84v9l,3p59jyt76px4wpgic4dy0hm2nunt25,vaQXaiDl,2020-0188,2021-10-31,08:52:25,10:37:24,NA,incomplete,true,NA,NA,true,0,3,NA,NA,NA,left,n_l_022.jpg,green,blue,NA,NA,NA,NA,NA,NA,NA,NA,NA,NaN,NA,3800,left,1,NA,NA,NA,NA,NA
vaQXaiDl,3z33ic0jd3zsmh7cb6nqm2m9m84v9l,3p59jyt76px4wpgic4dy0hm2nunt25,vaQXaiDl,2020-0188,2021-10-31,08:52:25,10:37:24,NA,incomplete,true,NA,NA,true,0,4,NA,NA,NA,right,n_l_061.jpg,green,blue,NA,NA,NA,NA,NA,NA,NA,NA,NA,NaN,NA,3991,right,1,NA,NA,NA,NA,NA
vaQXaiDl,3z33ic0jd3zsmh7cb6nqm2m9m84v9l,3p59jyt76px4wpgic4dy0hm2nunt25,vaQXaiDl,2020-0188,2021-10-31,08:52:25,10:37:24,NA,incomplete,true,NA,NA,true,0,5,NA,NA,NA,right,n_s_090.jpg,orange,red,NA,NA,NA,NA,NA,NA,NA,NA,NA,NaN,NA,3122,right,1,NA,NA,NA,NA,NA
vaQXaiDl,3z33ic0jd3zsmh7cb6nqm2m9m84v9l,3p59jyt76px4wpgic4dy0hm2nunt25,vaQXaiDl,2020-0188,2021-10-31,08:52:25,10:37:24,NA,incomplete,true,NA,NA,true,0,6,NA,NA,NA,left,n_s_019.jpg,green,blue,NA,NA,NA,NA,NA,NA,NA,NA,NA,NaN,NA,2208,left,1,NA,NA,NA,NA,NA
vaQXaiDl,3z33ic0jd3zsmh7cb6nqm2m9m84v9l,3p59jyt76px4wpgic4dy0hm2nunt25,vaQXaiDl,2020-0188,2021-10-31,08:52:25,10:37:24,NA,incomplete,true,NA,NA,true,0,7,NA,NA,NA,right,n_s_101.jpg,brown,red,NA,NA,NA,NA,NA,NA,NA,NA,NA,NaN,NA,2388,right,1,NA,NA,NA,NA,NA
vaQXaiDl,3z33ic0jd3zsmh7cb6nqm2m9m84v9l,3p59jyt76px4wpgic4dy0hm2nunt25,vaQXaiDl,2020-0188,2021-10-31,08:52:25,10:37:24,NA,incomplete,true,NA,NA,true,0,8,NA,NA,NA,left,n_s_085.jpg,orange,red,NA,NA,NA,NA,NA,NA,NA,NA,NA,NaN,NA,3743,left,1,NA,NA,NA,NA,NA
vaQXaiDl,3z33ic0jd3zsmh7cb6nqm2m9m84v9l,3p59jyt76px4wpgic4dy0hm2nunt25,vaQXaiDl,2020-0188,2021-10-31,08:52:25,10:37:24,NA,incomplete,true,NA,NA,true,0,9,NA,NA,NA,right,n_l_016.jpg,brown,gray,NA,NA,NA,NA,NA,NA,NA,NA,NA,NaN,NA,8794,right,1,NA,NA,NA,NA,NA
vaQXaiDl,3z33ic0jd3zsmh7cb6nqm2m9m84v9l,3p59jyt76px4wpgic4dy0hm2nunt25,vaQXaiDl,2020-0188,2021-10-31,08:52:25,10:37:24,NA,incomplete,true,NA,NA,true,0,10,NA,NA,NA,right,m_l_106.jpg,gray,brown,NA,NA,NA,NA,NA,NA,NA,NA,NA,NaN,NA,28038,right,1,NA,NA,NA,NA,NA
vaQXaiDl,3z33ic0jd3zsmh7cb6nqm2m9m84v9l,3p59jyt76px4wpgic4dy0hm2nunt25,vaQXaiDl,2020-0188,2021-10-31,08:52:25,10:37:24,NA,incomplete,true,NA,NA,true,0,11,NA,NA,NA,right,m_s_056.jpg,red,orange,NA,NA,NA,NA,NA,NA,NA,NA,NA,NaN,NA,2478,left,0,NA,NA,NA,NA,NA
vaQXaiDl,3z33ic0jd3zsmh7cb6nqm2m9m84v9l,3p59jyt76px4wpgic4dy0hm2nunt25,vaQXaiDl,2020-0188,2021-10-31,08:52:25,10:37:24,NA,incomplete,true,NA,NA,true,0,12,NA,NA,NA,left,m_l_046.jpg,gray,blue,NA,NA,NA,NA,NA,NA,NA,NA,NA,NaN,NA,4434,left,1,NA,NA,NA,NA,NA
vaQXaiDl,3z33ic0jd3zsmh7cb6nqm2m9m84v9l,3p59jyt76px4wpgic4dy0hm2nunt25,vaQXaiDl,2020-0188,2021-10-31,08:52:25,10:37:24,NA,incomplete,true,NA,NA,true,0,13,NA,NA,NA,left,m_s_021.jpg,green,blue,NA,NA,NA,NA,NA,NA,NA,NA,NA,NaN,NA,2058,left,1,NA,NA,NA,NA,NA
vaQXaiDl,3z33ic0jd3zsmh7cb6nqm2m9m84v9l,3p59jyt76px4wpgic4dy0hm2nunt25,vaQXaiDl,2020-0188,2021-10-31,08:52:25,10:37:24,NA,incomplete,true,NA,NA,true,0,14,NA,NA,NA,left,m_l_029.jpg,red,orange,NA,NA,NA,NA,NA,NA,NA,NA,NA,NaN,NA,4830,left,1,NA,NA,NA,NA,NA
vaQXaiDl,3z33ic0jd3zsmh7cb6nqm2m9m84v9l,3p59jyt76px4wpgic4dy0hm2nunt25,vaQXaiDl,2020-0188,2021-10-31,08:52:25,10:37:24,NA,incomplete,true,NA,NA,true,0,15,NA,NA,NA,left,n_l_024.jpg,red,orange,NA,NA,NA,NA,NA,NA,NA,NA,NA,NaN,NA,2425,left,1,NA,NA,NA,NA,NA
vaQXaiDl,3z33ic0jd3zsmh7cb6nqm2m9m84v9l,3p59jyt76px4wpgic4dy0hm2nunt25,vaQXaiDl,2020-0188,2021-10-31,08:52:25,10:37:24,NA,incomplete,true,NA,NA,true,0,16,NA,NA,NA,right,m_s_081.jpg,red,orange,NA,NA,NA,NA,NA,NA,NA,NA,NA,NaN,NA,2728,left,0,NA,NA,NA,NA,NA
vaQXaiDl,3z33ic0jd3zsmh7cb6nqm2m9m84v9l,3p59jyt76px4wpgic4dy0hm2nunt25,vaQXaiDl,2020-0188,2021-10-31,08:52:25,10:37:24,NA,incomplete,true,NA,NA,true,0,17,NA,NA,NA,left,n_s_106.jpg,gray,blue,NA,NA,NA,NA,NA,NA,NA,NA,NA,NaN,NA,5220,left,1,NA,NA,NA,NA,NA
vaQXaiDl,3z33ic0jd3zsmh7cb6nqm2m9m84v9l,3p59jyt76px4wpgic4dy0hm2nunt25,vaQXaiDl,2020-0188,2021-10-31,08:52:25,10:37:24,NA,incomplete,true,NA,NA,true,0,18,NA,NA,NA,left,n_s_082.jpg,brown,red,NA,NA,NA,NA,NA,NA,NA,NA,NA,NaN,NA,2828,left,1,NA,NA,NA,NA,NA
vaQXaiDl,3z33ic0jd3zsmh7cb6nqm2m9m84v9l,3p59jyt76px4wpgic4dy0hm2nunt25,vaQXaiDl,2020-0188,2021-10-31,08:52:25,10:37:24,NA,incomplete,true,NA,NA,true,0,19,NA,NA,NA,right,m_l_007.jpg,brown,gray,NA,NA,NA,NA,NA,NA,NA,NA,NA,NaN,NA,2492,right,1,NA,NA,NA,NA,NA
vaQXaiDl,3z33ic0jd3zsmh7cb6nqm2m9m84v9l,3p59jyt76px4wpgic4dy0hm2nunt25,vaQXaiDl,2020-0188,2021-10-31,08:52:25,10:37:24,NA,incomplete,true,NA,NA,true,0,20,NA,NA,NA,left,m_l_105.jpg,brown,red,NA,NA,NA,NA,NA,NA,NA,NA,NA,NaN,NA,3500,right,0,NA,NA,NA,NA,NA
vaQXaiDl,3z33ic0jd3zsmh7cb6nqm2m9m84v9l,3p59jyt76px4wpgic4dy0hm2nunt25,vaQXaiDl,2020-0188,2021-10-31,08:52:25,10:37:24,NA,incomplete,true,NA,NA,true,0,21,NA,NA,NA,right,m_l_047.jpg,red,brown,NA,NA,NA,NA,NA,NA,NA,NA,NA,NaN,NA,3235,right,1,NA,NA,NA,NA,NA
vaQXaiDl,3z33ic0jd3zsmh7cb6nqm2m9m84v9l,3p59jyt76px4wpgic4dy0hm2nunt25,vaQXaiDl,2020-0188,2021-10-31,08:52:25,10:37:24,NA,incomplete,true,NA,true,NA,0,0,NA,NA,NA,left,NA,NA,NA,absent,NA,NA,m_s_081.jpg,orange,m_l_029.jpg,red,between,NA,NaN,NA,NA,NA,NA,right,4659,0,1,3854
vaQXaiDl,3z33ic0jd3zsmh7cb6nqm2m9m84v9l,3p59jyt76px4wpgic4dy0hm2nunt25,vaQXaiDl,2020-0188,2021-10-31,08:52:25,10:37:24,NA,incomplete,true,NA,true,NA,0,1,NA,NA,NA,right,NA,NA,NA,absent,NA,NA,n_s_019.jpg,green,n_l_061.jpg,blue,between,NA,NaN,NA,NA,NA,NA,right,7353,1,1,2429
vaQXaiDl,3z33ic0jd3zsmh7cb6nqm2m9m84v9l,3p59jyt76px4wpgic4dy0hm2nunt25,vaQXaiDl,2020-0188,2021-10-31,08:52:25,10:37:24,NA,incomplete,true,NA,true,NA,0,2,NA,NA,NA,right,NA,NA,NA,absent,NA,NA,m_l_007.jpg,gray,m_l_046.jpg,gray,within,NA,NaN,NA,NA,NA,NA,right,6617,1,1,2263
vaQXaiDl,3z33ic0jd3zsmh7cb6nqm2m9m84v9l,3p59jyt76px4wpgic4dy0hm2nunt25,vaQXaiDl,2020-0188,2021-10-31,08:52:25,10:37:24,NA,incomplete,true,NA,true,NA,0,3,NA,NA,NA,right,NA,NA,NA,absent,NA,NA,n_l_016.jpg,gray,m_l_106.jpg,brown,between,NA,NaN,NA,NA,NA,NA,right,3301,1,1,2379
vaQXaiDl,3z33ic0jd3zsmh7cb6nqm2m9m84v9l,3p59jyt76px4wpgic4dy0hm2nunt25,vaQXaiDl,2020-0188,2021-10-31,08:52:25,10:37:24,NA,incomplete,true,NA,true,NA,0,4,NA,NA,NA,left,NA,NA,NA,absent,NA,NA,m_s_021.jpg,green,n_l_022.jpg,green,within,NA,NaN,NA,NA,NA,NA,left,3428,1,0,1644
vaQXaiDl,3z33ic0jd3zsmh7cb6nqm2m9m84v9l,3p59jyt76px4wpgic4dy0hm2nunt25,vaQXaiDl,2020-0188,2021-10-31,08:52:25,10:37:24,NA,incomplete,true,NA,true,NA,0,5,NA,NA,NA,left,NA,NA,NA,absent,NA,NA,m_s_056.jpg,orange,n_s_085.jpg,orange,within,NA,NaN,NA,NA,NA,NA,left,2358,1,0,2520
vaQXaiDl,3z33ic0jd3zsmh7cb6nqm2m9m84v9l,3p59jyt76px4wpgic4dy0hm2nunt25,vaQXaiDl,2020-0188,2021-10-31,08:52:25,10:37:24,NA,incomplete,true,NA,true,NA,0,6,NA,NA,NA,right,NA,NA,NA,absent,NA,NA,m_l_045.jpg,blue,n_s_106.jpg,gray,between,NA,NaN,NA,NA,NA,NA,left,2159,0,0,1549
vaQXaiDl,3z33ic0jd3zsmh7cb6nqm2m9m84v9l,3p59jyt76px4wpgic4dy0hm2nunt25,vaQXaiDl,2020-0188,2021-10-31,08:52:25,10:37:24,NA,incomplete,true,NA,true,NA,0,7,NA,NA,NA,right,NA,NA,NA,absent,NA,NA,n_s_101.jpg,red,n_s_090.jpg,red,within,NA,NaN,NA,NA,NA,NA,right,4527,1,0,1592
vaQXaiDl,3z33ic0jd3zsmh7cb6nqm2m9m84v9l,3p59jyt76px4wpgic4dy0hm2nunt25,vaQXaiDl,2020-0188,2021-10-31,08:52:25,10:37:24,NA,incomplete,true,NA,true,NA,0,8,NA,NA,NA,right,NA,NA,NA,absent,NA,NA,n_l_002.jpg,blue,n_s_094.jpg,blue,within,NA,NaN,NA,NA,NA,NA,left,2296,0,0,1589
vaQXaiDl,3z33ic0jd3zsmh7cb6nqm2m9m84v9l,3p59jyt76px4wpgic4dy0hm2nunt25,vaQXaiDl,2020-0188,2021-10-31,08:52:25,10:37:24,NA,incomplete,true,NA,true,NA,0,9,NA,NA,NA,right,NA,NA,NA,absent,NA,NA,m_l_047.jpg,brown,m_l_105.jpg,brown,within,NA,NaN,NA,NA,NA,NA,left,9619,0,0,2384
vaQXaiDl,3z33ic0jd3zsmh7cb6nqm2m9m84v9l,3p59jyt76px4wpgic4dy0hm2nunt25,vaQXaiDl,2020-0188,2021-10-31,08:52:25,10:37:24,NA,incomplete,true,NA,true,NA,0,10,NA,NA,NA,left,NA,NA,NA,absent,NA,NA,n_l_024.jpg,red,n_s_082.jpg,brown,between,NA,NaN,NA,NA,NA,NA,right,3514,0,0,2255
vaQXaiDl,3z33ic0jd3zsmh7cb6nqm2m9m84v9l,3p59jyt76px4wpgic4dy0hm2nunt25,vaQXaiDl,2020-0188,2021-10-31,08:52:25,10:37:24,NA,incomplete,false,true,NA,NA,1,0,NA,brown,n_s_036.jpg,NA,NA,NA,NA,NA,unpleasant,pleasant,NA,NA,NA,NA,NA,left,2511,true,NA,NA,NA,NA,NA,NA,NA,NA
vaQXaiDl,3z33ic0jd3zsmh7cb6nqm2m9m84v9l,3p59jyt76px4wpgic4dy0hm2nunt25,vaQXaiDl,2020-0188,2021-10-31,08:52:25,10:37:24,NA,incomplete,false,true,NA,NA,1,1,NA,brown,n_l_035.jpg,NA,NA,NA,NA,NA,pleasant,unpleasant,NA,NA,NA,NA,NA,left,2222,true,NA,NA,NA,NA,NA,NA,NA,NA
vaQXaiDl,3z33ic0jd3zsmh7cb6nqm2m9m84v9l,3p59jyt76px4wpgic4dy0hm2nunt25,vaQXaiDl,2020-0188,2021-10-31,08:52:25,10:37:24,NA,incomplete,false,true,NA,NA,1,2,NA,brown,n_l_023.jpg,NA,NA,NA,NA,NA,unpleasant,pleasant,NA,NA,NA,NA,NA,right,2265,true,NA,NA,NA,NA,NA,NA,NA,NA
vaQXaiDl,3z33ic0jd3zsmh7cb6nqm2m9m84v9l,3p59jyt76px4wpgic4dy0hm2nunt25,vaQXaiDl,2020-0188,2021-10-31,08:52:25,10:37:24,NA,incomplete,false,true,NA,NA,1,3,NA,brown,n_s_047.jpg,NA,NA,NA,NA,NA,unpleasant,pleasant,NA,NA,NA,NA,NA,right,1543,true,NA,NA,NA,NA,NA,NA,NA,NA
vaQXaiDl,3z33ic0jd3zsmh7cb6nqm2m9m84v9l,3p59jyt76px4wpgic4dy0hm2nunt25,vaQXaiDl,2020-0188,2021-10-31,08:52:25,10:37:24,NA,incomplete,false,true,NA,NA,1,4,NA,brown,m_s_099.jpg,NA,NA,NA,NA,NA,unpleasant,pleasant,NA,NA,NA,NA,NA,right,2412,true,NA,NA,NA,NA,NA,NA,NA,NA
vaQXaiDl,3z33ic0jd3zsmh7cb6nqm2m9m84v9l,3p59jyt76px4wpgic4dy0hm2nunt25,vaQXaiDl,2020-0188,2021-10-31,08:52:25,10:37:24,NA,incomplete,false,true,NA,NA,1,5,NA,brown,m_s_073.jpg,NA,NA,NA,NA,NA,pleasant,unpleasant,NA,NA,NA,NA,NA,right,2994,true,NA,NA,NA,NA,NA,NA,NA,NA
vaQXaiDl,3z33ic0jd3zsmh7cb6nqm2m9m84v9l,3p59jyt76px4wpgic4dy0hm2nunt25,vaQXaiDl,2020-0188,2021-10-31,08:52:25,10:37:24,NA,incomplete,false,true,NA,NA,1,6,NA,red,n_s_095.jpg,NA,NA,NA,NA,NA,pleasant,unpleasant,NA,NA,NA,NA,NA,none,0,false,NA,NA,NA,NA,NA,NA,NA,NA
vaQXaiDl,3z33ic0jd3zsmh7cb6nqm2m9m84v9l,3p59jyt76px4wpgic4dy0hm2nunt25,vaQXaiDl,2020-0188,2021-10-31,08:52:25,10:37:24,NA,incomplete,false,true,NA,NA,1,7,NA,red,n_s_109.jpg,NA,NA,NA,NA,NA,pleasant,unpleasant,NA,NA,NA,NA,NA,right,1736,true,NA,NA,NA,NA,NA,NA,NA,NA
vaQXaiDl,3z33ic0jd3zsmh7cb6nqm2m9m84v9l,3p59jyt76px4wpgic4dy0hm2nunt25,vaQXaiDl,2020-0188,2021-10-31,08:52:25,10:37:24,NA,incomplete,false,true,NA,NA,1,8,NA,red,m_s_080.jpg,NA,NA,NA,NA,NA,pleasant,unpleasant,NA,NA,NA,NA,NA,left,1515,true,NA,NA,NA,NA,NA,NA,NA,NA
vaQXaiDl,3z33ic0jd3zsmh7cb6nqm2m9m84v9l,3p59jyt76px4wpgic4dy0hm2nunt25,vaQXaiDl,2020-0188,2021-10-31,08:52:25,10:37:24,NA,incomplete,false,true,NA,NA,1,9,NA,red,m_s_018.jpg,NA,NA,NA,NA,NA,unpleasant,pleasant,NA,NA,NA,NA,NA,right,1853,true,NA,NA,NA,NA,NA,NA,NA,NA
vaQXaiDl,3z33ic0jd3zsmh7cb6nqm2m9m84v9l,3p59jyt76px4wpgic4dy0hm2nunt25,vaQXaiDl,2020-0188,2021-10-31,08:52:25,10:37:24,NA,incomplete,false,true,NA,NA,1,10,NA,red,n_l_040.jpg,NA,NA,NA,NA,NA,unpleasant,pleasant,NA,NA,NA,NA,NA,right,2901,true,NA,NA,NA,NA,NA,NA,NA,NA
vaQXaiDl,3z33ic0jd3zsmh7cb6nqm2m9m84v9l,3p59jyt76px4wpgic4dy0hm2nunt25,vaQXaiDl,2020-0188,2021-10-31,08:52:25,10:37:24,NA,incomplete,false,true,NA,NA,1,11,NA,red,n_s_087.jpg,NA,NA,NA,NA,NA,unpleasant,pleasant,NA,NA,NA,NA,NA,right,1976,true,NA,NA,NA,NA,NA,NA,NA,NA
vaQXaiDl,3z33ic0jd3zsmh7cb6nqm2m9m84v9l,3p59jyt76px4wpgic4dy0hm2nunt25,vaQXaiDl,2020-0188,2021-10-31,08:52:25,10:37:24,NA,incomplete,false,true,NA,NA,1,12,NA,blue,m_l_022.jpg,NA,NA,NA,NA,NA,unpleasant,pleasant,NA,NA,NA,NA,NA,right,2546,true,NA,NA,NA,NA,NA,NA,NA,NA
vaQXaiDl,3z33ic0jd3zsmh7cb6nqm2m9m84v9l,3p59jyt76px4wpgic4dy0hm2nunt25,vaQXaiDl,2020-0188,2021-10-31,08:52:25,10:37:24,NA,incomplete,false,true,NA,NA,1,13,NA,blue,n_s_088.jpg,NA,NA,NA,NA,NA,unpleasant,pleasant,NA,NA,NA,NA,NA,right,2741,true,NA,NA,NA,NA,NA,NA,NA,NA
vaQXaiDl,3z33ic0jd3zsmh7cb6nqm2m9m84v9l,3p59jyt76px4wpgic4dy0hm2nunt25,vaQXaiDl,2020-0188,2021-10-31,08:52:25,10:37:24,NA,incomplete,false,true,NA,NA,1,14,NA,blue,n_s_076.jpg,NA,NA,NA,NA,NA,pleasant,unpleasant,NA,NA,NA,NA,NA,left,2294,true,NA,NA,NA,NA,NA,NA,NA,NA
vaQXaiDl,3z33ic0jd3zsmh7cb6nqm2m9m84v9l,3p59jyt76px4wpgic4dy0hm2nunt25,vaQXaiDl,2020-0188,2021-10-31,08:52:25,10:37:24,NA,incomplete,false,true,NA,NA,1,15,NA,blue,n_s_105.jpg,NA,NA,NA,NA,NA,pleasant,unpleasant,NA,NA,NA,NA,NA,left,1357,true,NA,NA,NA,NA,NA,NA,NA,NA
vaQXaiDl,3z33ic0jd3zsmh7cb6nqm2m9m84v9l,3p59jyt76px4wpgic4dy0hm2nunt25,vaQXaiDl,2020-0188,2021-10-31,08:52:25,10:37:24,NA,incomplete,false,true,NA,NA,1,16,NA,blue,n_l_074.jpg,NA,NA,NA,NA,NA,pleasant,unpleasant,NA,NA,NA,NA,NA,left,2564,true,NA,NA,NA,NA,NA,NA,NA,NA
vaQXaiDl,3z33ic0jd3zsmh7cb6nqm2m9m84v9l,3p59jyt76px4wpgic4dy0hm2nunt25,vaQXaiDl,2020-0188,2021-10-31,08:52:25,10:37:24,NA,incomplete,false,true,NA,NA,1,17,NA,blue,n_l_057.jpg,NA,NA,NA,NA,NA,unpleasant,pleasant,NA,NA,NA,NA,NA,none,0,false,NA,NA,NA,NA,NA,NA,NA,NA
vaQXaiDl,3z33ic0jd3zsmh7cb6nqm2m9m84v9l,3p59jyt76px4wpgic4dy0hm2nunt25,vaQXaiDl,2020-0188,2021-10-31,08:52:25,10:37:24,NA,incomplete,false,true,NA,NA,1,18,NA,black,n_l_031.jpg,NA,NA,NA,NA,NA,unpleasant,pleasant,NA,NA,NA,NA,NA,right,2503,true,NA,NA,NA,NA,NA,NA,NA,NA
vaQXaiDl,3z33ic0jd3zsmh7cb6nqm2m9m84v9l,3p59jyt76px4wpgic4dy0hm2nunt25,vaQXaiDl,2020-0188,2021-10-31,08:52:25,10:37:24,NA,incomplete,false,true,NA,NA,1,19,NA,black,m_s_065.jpg,NA,NA,NA,NA,NA,pleasant,unpleasant,NA,NA,NA,NA,NA,left,2501,true,NA,NA,NA,NA,NA,NA,NA,NA
vaQXaiDl,3z33ic0jd3zsmh7cb6nqm2m9m84v9l,3p59jyt76px4wpgic4dy0hm2nunt25,vaQXaiDl,2020-0188,2021-10-31,08:52:25,10:37:24,NA,incomplete,false,true,NA,NA,1,20,NA,black,n_l_003.jpg,NA,NA,NA,NA,NA,pleasant,unpleasant,NA,NA,NA,NA,NA,left,2066,true,NA,NA,NA,NA,NA,NA,NA,NA
vaQXaiDl,3z33ic0jd3zsmh7cb6nqm2m9m84v9l,3p59jyt76px4wpgic4dy0hm2nunt25,vaQXaiDl,2020-0188,2021-10-31,08:52:25,10:37:24,NA,incomplete,false,true,NA,NA,1,21,NA,black,n_s_045.jpg,NA,NA,NA,NA,NA,pleasant,unpleasant,NA,NA,NA,NA,NA,left,1439,true,NA,NA,NA,NA,NA,NA,NA,NA
vaQXaiDl,3z33ic0jd3zsmh7cb6nqm2m9m84v9l,3p59jyt76px4wpgic4dy0hm2nunt25,vaQXaiDl,2020-0188,2021-10-31,08:52:25,10:37:24,NA,incomplete,false,true,NA,NA,1,22,NA,black,m_s_003.jpg,NA,NA,NA,NA,NA,pleasant,unpleasant,NA,NA,NA,NA,NA,left,1781,true,NA,NA,NA,NA,NA,NA,NA,NA
vaQXaiDl,3z33ic0jd3zsmh7cb6nqm2m9m84v9l,3p59jyt76px4wpgic4dy0hm2nunt25,vaQXaiDl,2020-0188,2021-10-31,08:52:25,10:37:24,NA,incomplete,false,true,NA,NA,1,23,NA,black,n_s_054.jpg,NA,NA,NA,NA,NA,pleasant,unpleasant,NA,NA,NA,NA,NA,left,1774,true,NA,NA,NA,NA,NA,NA,NA,NA
vaQXaiDl,3z33ic0jd3zsmh7cb6nqm2m9m84v9l,3p59jyt76px4wpgic4dy0hm2nunt25,vaQXaiDl,2020-0188,2021-10-31,08:52:25,10:37:24,NA,incomplete,false,true,NA,NA,1,24,NA,green,n_l_006.jpg,NA,NA,NA,NA,NA,pleasant,unpleasant,NA,NA,NA,NA,NA,left,1346,true,NA,NA,NA,NA,NA,NA,NA,NA
vaQXaiDl,3z33ic0jd3zsmh7cb6nqm2m9m84v9l,3p59jyt76px4wpgic4dy0hm2nunt25,vaQXaiDl,2020-0188,2021-10-31,08:52:25,10:37:24,NA,incomplete,false,true,NA,NA,1,25,NA,green,n_l_056.jpg,NA,NA,NA,NA,NA,unpleasant,pleasant,NA,NA,NA,NA,NA,right,2128,true,NA,NA,NA,NA,NA,NA,NA,NA
vaQXaiDl,3z33ic0jd3zsmh7cb6nqm2m9m84v9l,3p59jyt76px4wpgic4dy0hm2nunt25,vaQXaiDl,2020-0188,2021-10-31,08:52:25,10:37:24,NA,incomplete,false,true,NA,NA,1,26,NA,green,n_s_059.jpg,NA,NA,NA,NA,NA,unpleasant,pleasant,NA,NA,NA,NA,NA,left,1263,true,NA,NA,NA,NA,NA,NA,NA,NA
vaQXaiDl,3z33ic0jd3zsmh7cb6nqm2m9m84v9l,3p59jyt76px4wpgic4dy0hm2nunt25,vaQXaiDl,2020-0188,2021-10-31,08:52:25,10:37:24,NA,incomplete,false,true,NA,NA,1,27,NA,green,m_s_102.jpg,NA,NA,NA,NA,NA,pleasant,unpleasant,NA,NA,NA,NA,NA,right,1886,true,NA,NA,NA,NA,NA,NA,NA,NA
vaQXaiDl,3z33ic0jd3zsmh7cb6nqm2m9m84v9l,3p59jyt76px4wpgic4dy0hm2nunt25,vaQXaiDl,2020-0188,2021-10-31,08:52:25,10:37:24,NA,incomplete,false,true,NA,NA,1,28,NA,green,n_l_101.jpg,NA,NA,NA,NA,NA,pleasant,unpleasant,NA,NA,NA,NA,NA,left,2509,true,NA,NA,NA,NA,NA,NA,NA,NA
vaQXaiDl,3z33ic0jd3zsmh7cb6nqm2m9m84v9l,3p59jyt76px4wpgic4dy0hm2nunt25,vaQXaiDl,2020-0188,2021-10-31,08:52:25,10:37:24,NA,incomplete,false,true,NA,NA,1,29,NA,green,m_s_061.jpg,NA,NA,NA,NA,NA,pleasant,unpleasant,NA,NA,NA,NA,NA,left,1387,true,NA,NA,NA,NA,NA,NA,NA,NA
vaQXaiDl,3z33ic0jd3zsmh7cb6nqm2m9m84v9l,3p59jyt76px4wpgic4dy0hm2nunt25,vaQXaiDl,2020-0188,2021-10-31,08:52:25,10:37:24,NA,incomplete,false,true,NA,NA,1,30,NA,white,m_l_050.jpg,NA,NA,NA,NA,NA,unpleasant,pleasant,NA,NA,NA,NA,NA,right,1753,true,NA,NA,NA,NA,NA,NA,NA,NA
vaQXaiDl,3z33ic0jd3zsmh7cb6nqm2m9m84v9l,3p59jyt76px4wpgic4dy0hm2nunt25,vaQXaiDl,2020-0188,2021-10-31,08:52:25,10:37:24,NA,incomplete,false,true,NA,NA,1,31,NA,white,n_l_103.jpg,NA,NA,NA,NA,NA,unpleasant,pleasant,NA,NA,NA,NA,NA,right,1831,true,NA,NA,NA,NA,NA,NA,NA,NA
vaQXaiDl,3z33ic0jd3zsmh7cb6nqm2m9m84v9l,3p59jyt76px4wpgic4dy0hm2nunt25,vaQXaiDl,2020-0188,2021-10-31,08:52:25,10:37:24,NA,incomplete,false,true,NA,NA,1,32,NA,white,m_l_037.jpg,NA,NA,NA,NA,NA,unpleasant,pleasant,NA,NA,NA,NA,NA,right,2049,true,NA,NA,NA,NA,NA,NA,NA,NA
vaQXaiDl,3z33ic0jd3zsmh7cb6nqm2m9m84v9l,3p59jyt76px4wpgic4dy0hm2nunt25,vaQXaiDl,2020-0188,2021-10-31,08:52:25,10:37:24,NA,incomplete,false,true,NA,NA,1,33,NA,white,n_s_113.jpg,NA,NA,NA,NA,NA,unpleasant,pleasant,NA,NA,NA,NA,NA,right,1482,true,NA,NA,NA,NA,NA,NA,NA,NA
vaQXaiDl,3z33ic0jd3zsmh7cb6nqm2m9m84v9l,3p59jyt76px4wpgic4dy0hm2nunt25,vaQXaiDl,2020-0188,2021-10-31,08:52:25,10:37:24,NA,incomplete,false,true,NA,NA,1,34,NA,white,m_s_050.jpg,NA,NA,NA,NA,NA,unpleasant,pleasant,NA,NA,NA,NA,NA,right,1795,true,NA,NA,NA,NA,NA,NA,NA,NA
vaQXaiDl,3z33ic0jd3zsmh7cb6nqm2m9m84v9l,3p59jyt76px4wpgic4dy0hm2nunt25,vaQXaiDl,2020-0188,2021-10-31,08:52:25,10:37:24,NA,incomplete,false,true,NA,NA,1,35,NA,white,n_s_063.jpg,NA,NA,NA,NA,NA,unpleasant,pleasant,NA,NA,NA,NA,NA,right,1698,true,NA,NA,NA,NA,NA,NA,NA,NA
vaQXaiDl,3z33ic0jd3zsmh7cb6nqm2m9m84v9l,3p59jyt76px4wpgic4dy0hm2nunt25,vaQXaiDl,2020-0188,2021-10-31,08:52:25,10:37:24,NA,incomplete,false,NA,NA,true,1,0,NA,NA,NA,right,n_s_063.jpg,green,white,NA,NA,NA,NA,NA,NA,NA,NA,NA,NaN,NA,4415,left,0,NA,NA,NA,NA,NA
vaQXaiDl,3z33ic0jd3zsmh7cb6nqm2m9m84v9l,3p59jyt76px4wpgic4dy0hm2nunt25,vaQXaiDl,2020-0188,2021-10-31,08:52:25,10:37:24,NA,incomplete,false,NA,NA,true,1,1,NA,NA,NA,right,n_s_076.jpg,red,blue,NA,NA,NA,NA,NA,NA,NA,NA,NA,NaN,NA,6142,right,1,NA,NA,NA,NA,NA
vaQXaiDl,3z33ic0jd3zsmh7cb6nqm2m9m84v9l,3p59jyt76px4wpgic4dy0hm2nunt25,vaQXaiDl,2020-0188,2021-10-31,08:52:25,10:37:24,NA,incomplete,false,NA,NA,true,1,2,NA,NA,NA,left,n_l_074.jpg,blue,black,NA,NA,NA,NA,NA,NA,NA,NA,NA,NaN,NA,2689,right,0,NA,NA,NA,NA,NA
vaQXaiDl,3z33ic0jd3zsmh7cb6nqm2m9m84v9l,3p59jyt76px4wpgic4dy0hm2nunt25,vaQXaiDl,2020-0188,2021-10-31,08:52:25,10:37:24,NA,incomplete,false,NA,NA,true,1,3,NA,NA,NA,left,n_s_088.jpg,blue,black,NA,NA,NA,NA,NA,NA,NA,NA,NA,NaN,NA,3748,right,0,NA,NA,NA,NA,NA
vaQXaiDl,3z33ic0jd3zsmh7cb6nqm2m9m84v9l,3p59jyt76px4wpgic4dy0hm2nunt25,vaQXaiDl,2020-0188,2021-10-31,08:52:25,10:37:24,NA,incomplete,false,NA,NA,true,1,4,NA,NA,NA,right,m_s_080.jpg,blue,red,NA,NA,NA,NA,NA,NA,NA,NA,NA,NaN,NA,2973,left,0,NA,NA,NA,NA,NA
vaQXaiDl,3z33ic0jd3zsmh7cb6nqm2m9m84v9l,3p59jyt76px4wpgic4dy0hm2nunt25,vaQXaiDl,2020-0188,2021-10-31,08:52:25,10:37:24,NA,incomplete,false,NA,NA,true,1,5,NA,NA,NA,left,m_s_073.jpg,brown,red,NA,NA,NA,NA,NA,NA,NA,NA,NA,NaN,NA,2504,right,0,NA,NA,NA,NA,NA
vaQXaiDl,3z33ic0jd3zsmh7cb6nqm2m9m84v9l,3p59jyt76px4wpgic4dy0hm2nunt25,vaQXaiDl,2020-0188,2021-10-31,08:52:25,10:37:24,NA,incomplete,false,NA,NA,true,1,6,NA,NA,NA,right,m_s_099.jpg,red,brown,NA,NA,NA,NA,NA,NA,NA,NA,NA,NaN,NA,2420,right,1,NA,NA,NA,NA,NA
vaQXaiDl,3z33ic0jd3zsmh7cb6nqm2m9m84v9l,3p59jyt76px4wpgic4dy0hm2nunt25,vaQXaiDl,2020-0188,2021-10-31,08:52:25,10:37:24,NA,incomplete,false,NA,NA,true,1,7,NA,NA,NA,left,n_s_054.jpg,black,blue,NA,NA,NA,NA,NA,NA,NA,NA,NA,NaN,NA,5679,left,1,NA,NA,NA,NA,NA
vaQXaiDl,3z33ic0jd3zsmh7cb6nqm2m9m84v9l,3p59jyt76px4wpgic4dy0hm2nunt25,vaQXaiDl,2020-0188,2021-10-31,08:52:25,10:37:24,NA,incomplete,false,NA,NA,true,1,8,NA,NA,NA,right,n_l_057.jpg,red,blue,NA,NA,NA,NA,NA,NA,NA,NA,NA,NaN,NA,3665,left,0,NA,NA,NA,NA,NA
vaQXaiDl,3z33ic0jd3zsmh7cb6nqm2m9m84v9l,3p59jyt76px4wpgic4dy0hm2nunt25,vaQXaiDl,2020-0188,2021-10-31,08:52:25,10:37:24,NA,incomplete,false,NA,NA,true,1,9,NA,NA,NA,right,n_l_003.jpg,green,black,NA,NA,NA,NA,NA,NA,NA,NA,NA,NaN,NA,2099,right,1,NA,NA,NA,NA,NA
vaQXaiDl,3z33ic0jd3zsmh7cb6nqm2m9m84v9l,3p59jyt76px4wpgic4dy0hm2nunt25,vaQXaiDl,2020-0188,2021-10-31,08:52:25,10:37:24,NA,incomplete,false,NA,NA,true,1,10,NA,NA,NA,right,m_s_065.jpg,blue,black,NA,NA,NA,NA,NA,NA,NA,NA,NA,NaN,NA,2058,left,0,NA,NA,NA,NA,NA
vaQXaiDl,3z33ic0jd3zsmh7cb6nqm2m9m84v9l,3p59jyt76px4wpgic4dy0hm2nunt25,vaQXaiDl,2020-0188,2021-10-31,08:52:25,10:37:24,NA,incomplete,false,NA,NA,true,1,11,NA,NA,NA,left,n_l_101.jpg,green,black,NA,NA,NA,NA,NA,NA,NA,NA,NA,NaN,NA,2068,left,1,NA,NA,NA,NA,NA
vaQXaiDl,3z33ic0jd3zsmh7cb6nqm2m9m84v9l,3p59jyt76px4wpgic4dy0hm2nunt25,vaQXaiDl,2020-0188,2021-10-31,08:52:25,10:37:24,NA,incomplete,false,NA,NA,true,1,12,NA,NA,NA,right,n_l_035.jpg,red,brown,NA,NA,NA,NA,NA,NA,NA,NA,NA,NaN,NA,2325,right,1,NA,NA,NA,NA,NA
vaQXaiDl,3z33ic0jd3zsmh7cb6nqm2m9m84v9l,3p59jyt76px4wpgic4dy0hm2nunt25,vaQXaiDl,2020-0188,2021-10-31,08:52:25,10:37:24,NA,incomplete,false,NA,NA,true,1,13,NA,NA,NA,right,n_s_059.jpg,black,green,NA,NA,NA,NA,NA,NA,NA,NA,NA,NaN,NA,4690,right,1,NA,NA,NA,NA,NA
vaQXaiDl,3z33ic0jd3zsmh7cb6nqm2m9m84v9l,3p59jyt76px4wpgic4dy0hm2nunt25,vaQXaiDl,2020-0188,2021-10-31,08:52:25,10:37:24,NA,incomplete,false,NA,NA,true,1,14,NA,NA,NA,left,n_l_056.jpg,green,black,NA,NA,NA,NA,NA,NA,NA,NA,NA,NaN,NA,2440,left,1,NA,NA,NA,NA,NA
vaQXaiDl,3z33ic0jd3zsmh7cb6nqm2m9m84v9l,3p59jyt76px4wpgic4dy0hm2nunt25,vaQXaiDl,2020-0188,2021-10-31,08:52:25,10:37:24,NA,incomplete,false,NA,NA,true,1,15,NA,NA,NA,right,n_l_103.jpg,green,white,NA,NA,NA,NA,NA,NA,NA,NA,NA,NaN,NA,2489,right,1,NA,NA,NA,NA,NA
vaQXaiDl,3z33ic0jd3zsmh7cb6nqm2m9m84v9l,3p59jyt76px4wpgic4dy0hm2nunt25,vaQXaiDl,2020-0188,2021-10-31,08:52:25,10:37:24,NA,incomplete,false,NA,NA,true,1,16,NA,NA,NA,left,n_s_087.jpg,red,blue,NA,NA,NA,NA,NA,NA,NA,NA,NA,NaN,NA,4694,left,1,NA,NA,NA,NA,NA
vaQXaiDl,3z33ic0jd3zsmh7cb6nqm2m9m84v9l,3p59jyt76px4wpgic4dy0hm2nunt25,vaQXaiDl,2020-0188,2021-10-31,08:52:25,10:37:24,NA,incomplete,false,NA,NA,true,1,17,NA,NA,NA,left,n_s_109.jpg,red,blue,NA,NA,NA,NA,NA,NA,NA,NA,NA,NaN,NA,2273,right,0,NA,NA,NA,NA,NA
vaQXaiDl,3z33ic0jd3zsmh7cb6nqm2m9m84v9l,3p59jyt76px4wpgic4dy0hm2nunt25,vaQXaiDl,2020-0188,2021-10-31,08:52:25,10:37:24,NA,incomplete,false,NA,NA,true,1,18,NA,NA,NA,left,n_l_040.jpg,red,blue,NA,NA,NA,NA,NA,NA,NA,NA,NA,NaN,NA,4228,right,0,NA,NA,NA,NA,NA
vaQXaiDl,3z33ic0jd3zsmh7cb6nqm2m9m84v9l,3p59jyt76px4wpgic4dy0hm2nunt25,vaQXaiDl,2020-0188,2021-10-31,08:52:25,10:37:24,NA,incomplete,false,NA,NA,true,1,19,NA,NA,NA,left,m_s_003.jpg,black,green,NA,NA,NA,NA,NA,NA,NA,NA,NA,NaN,NA,2601,left,1,NA,NA,NA,NA,NA
vaQXaiDl,3z33ic0jd3zsmh7cb6nqm2m9m84v9l,3p59jyt76px4wpgic4dy0hm2nunt25,vaQXaiDl,2020-0188,2021-10-31,08:52:25,10:37:24,NA,incomplete,false,NA,NA,true,1,20,NA,NA,NA,right,m_l_037.jpg,green,white,NA,NA,NA,NA,NA,NA,NA,NA,NA,NaN,NA,2356,right,1,NA,NA,NA,NA,NA
vaQXaiDl,3z33ic0jd3zsmh7cb6nqm2m9m84v9l,3p59jyt76px4wpgic4dy0hm2nunt25,vaQXaiDl,2020-0188,2021-10-31,08:52:25,10:37:24,NA,incomplete,false,NA,NA,true,1,21,NA,NA,NA,left,m_s_061.jpg,green,black,NA,NA,NA,NA,NA,NA,NA,NA,NA,NaN,NA,2185,right,0,NA,NA,NA,NA,NA
vaQXaiDl,3z33ic0jd3zsmh7cb6nqm2m9m84v9l,3p59jyt76px4wpgic4dy0hm2nunt25,vaQXaiDl,2020-0188,2021-10-31,08:52:25,10:37:24,NA,incomplete,false,NA,true,NA,1,0,NA,NA,NA,right,NA,NA,NA,absent,NA,NA,n_s_076.jpg,blue,n_l_040.jpg,red,between,NA,NaN,NA,NA,NA,NA,right,15824,1,0,2329
vaQXaiDl,3z33ic0jd3zsmh7cb6nqm2m9m84v9l,3p59jyt76px4wpgic4dy0hm2nunt25,vaQXaiDl,2020-0188,2021-10-31,08:52:25,10:37:24,NA,incomplete,false,NA,true,NA,1,1,NA,NA,NA,left,NA,NA,NA,absent,NA,NA,n_s_109.jpg,red,n_s_087.jpg,red,within,NA,NaN,NA,NA,NA,NA,right,40507,0,0,2028
vaQXaiDl,3z33ic0jd3zsmh7cb6nqm2m9m84v9l,3p59jyt76px4wpgic4dy0hm2nunt25,vaQXaiDl,2020-0188,2021-10-31,08:52:25,10:37:24,NA,incomplete,false,NA,true,NA,1,2,NA,NA,NA,left,NA,NA,NA,absent,NA,NA,m_s_065.jpg,black,n_s_054.jpg,black,within,NA,NaN,NA,NA,NA,NA,left,27198,1,0,1979
vaQXaiDl,3z33ic0jd3zsmh7cb6nqm2m9m84v9l,3p59jyt76px4wpgic4dy0hm2nunt25,vaQXaiDl,2020-0188,2021-10-31,08:52:25,10:37:24,NA,incomplete,false,NA,true,NA,1,3,NA,NA,NA,left,NA,NA,NA,absent,NA,NA,m_s_003.jpg,black,n_s_059.jpg,green,between,NA,NaN,NA,NA,NA,NA,right,22789,0,2,7679
vaQXaiDl,3z33ic0jd3zsmh7cb6nqm2m9m84v9l,3p59jyt76px4wpgic4dy0hm2nunt25,vaQXaiDl,2020-0188,2021-10-31,08:52:25,10:37:24,NA,incomplete,false,NA,true,NA,1,4,NA,NA,NA,right,NA,NA,NA,absent,NA,NA,m_s_061.jpg,green,n_l_056.jpg,green,within,NA,NaN,NA,NA,NA,NA,right,2894,1,2,1254
vaQXaiDl,3z33ic0jd3zsmh7cb6nqm2m9m84v9l,3p59jyt76px4wpgic4dy0hm2nunt25,vaQXaiDl,2020-0188,2021-10-31,08:52:25,10:37:24,NA,incomplete,false,NA,true,NA,1,5,NA,NA,NA,left,NA,NA,NA,absent,NA,NA,n_l_074.jpg,blue,n_l_003.jpg,black,between,NA,NaN,NA,NA,NA,NA,left,3113,1,1,2291
vaQXaiDl,3z33ic0jd3zsmh7cb6nqm2m9m84v9l,3p59jyt76px4wpgic4dy0hm2nunt25,vaQXaiDl,2020-0188,2021-10-31,08:52:25,10:37:24,NA,incomplete,false,NA,true,NA,1,6,NA,NA,NA,right,NA,NA,NA,absent,NA,NA,m_s_073.jpg,brown,n_l_035.jpg,brown,within,NA,NaN,NA,NA,NA,NA,right,2617,1,1,1129
vaQXaiDl,3z33ic0jd3zsmh7cb6nqm2m9m84v9l,3p59jyt76px4wpgic4dy0hm2nunt25,vaQXaiDl,2020-0188,2021-10-31,08:52:25,10:37:24,NA,incomplete,false,NA,true,NA,1,7,NA,NA,NA,left,NA,NA,NA,absent,NA,NA,n_l_101.jpg,green,m_l_037.jpg,white,between,NA,NaN,NA,NA,NA,NA,left,4329,1,1,1728
vaQXaiDl,3z33ic0jd3zsmh7cb6nqm2m9m84v9l,3p59jyt76px4wpgic4dy0hm2nunt25,vaQXaiDl,2020-0188,2021-10-31,08:52:25,10:37:24,NA,incomplete,false,NA,true,NA,1,8,NA,NA,NA,right,NA,NA,NA,absent,NA,NA,n_s_063.jpg,white,n_l_103.jpg,white,within,NA,NaN,NA,NA,NA,NA,right,4519,1,1,2289
vaQXaiDl,3z33ic0jd3zsmh7cb6nqm2m9m84v9l,3p59jyt76px4wpgic4dy0hm2nunt25,vaQXaiDl,2020-0188,2021-10-31,08:52:25,10:37:24,NA,incomplete,false,NA,true,NA,1,9,NA,NA,NA,right,NA,NA,NA,absent,NA,NA,m_s_080.jpg,red,m_s_099.jpg,brown,between,NA,NaN,NA,NA,NA,NA,left,12267,0,2,2229
vaQXaiDl,3z33ic0jd3zsmh7cb6nqm2m9m84v9l,3p59jyt76px4wpgic4dy0hm2nunt25,vaQXaiDl,2020-0188,2021-10-31,08:52:25,10:37:24,NA,incomplete,false,NA,true,NA,1,10,NA,NA,NA,right,NA,NA,NA,absent,NA,NA,n_l_057.jpg,blue,n_s_088.jpg,blue,within,NA,NaN,NA,NA,NA,NA,left,3429,0,1,3449
vaQXaiDl,3z33ic0jd3zsmh7cb6nqm2m9m84v9l,3p59jyt76px4wpgic4dy0hm2nunt25,vaQXaiDl,2020-0188,2021-10-31,08:52:25,10:37:24,NA,incomplete,false,true,NA,NA,2,0,NA,brown,n_l_048.jpg,NA,NA,NA,NA,NA,unpleasant,pleasant,NA,NA,NA,NA,NA,left,1898,true,NA,NA,NA,NA,NA,NA,NA,NA
vaQXaiDl,3z33ic0jd3zsmh7cb6nqm2m9m84v9l,3p59jyt76px4wpgic4dy0hm2nunt25,vaQXaiDl,2020-0188,2021-10-31,08:52:25,10:37:24,NA,incomplete,false,true,NA,NA,2,1,NA,brown,n_l_012.jpg,NA,NA,NA,NA,NA,pleasant,unpleasant,NA,NA,NA,NA,NA,right,1803,true,NA,NA,NA,NA,NA,NA,NA,NA
vaQXaiDl,3z33ic0jd3zsmh7cb6nqm2m9m84v9l,3p59jyt76px4wpgic4dy0hm2nunt25,vaQXaiDl,2020-0188,2021-10-31,08:52:25,10:37:24,NA,incomplete,false,true,NA,NA,2,2,NA,brown,n_l_094.jpg,NA,NA,NA,NA,NA,unpleasant,pleasant,NA,NA,NA,NA,NA,right,2671,true,NA,NA,NA,NA,NA,NA,NA,NA
vaQXaiDl,3z33ic0jd3zsmh7cb6nqm2m9m84v9l,3p59jyt76px4wpgic4dy0hm2nunt25,vaQXaiDl,2020-0188,2021-10-31,08:52:25,10:37:24,NA,incomplete,false,true,NA,NA,2,3,NA,brown,n_l_029.jpg,NA,NA,NA,NA,NA,unpleasant,pleasant,NA,NA,NA,NA,NA,right,2778,true,NA,NA,NA,NA,NA,NA,NA,NA
vaQXaiDl,3z33ic0jd3zsmh7cb6nqm2m9m84v9l,3p59jyt76px4wpgic4dy0hm2nunt25,vaQXaiDl,2020-0188,2021-10-31,08:52:25,10:37:24,NA,incomplete,false,true,NA,NA,2,4,NA,brown,m_s_083.jpg,NA,NA,NA,NA,NA,pleasant,unpleasant,NA,NA,NA,NA,NA,left,2117,true,NA,NA,NA,NA,NA,NA,NA,NA
vaQXaiDl,3z33ic0jd3zsmh7cb6nqm2m9m84v9l,3p59jyt76px4wpgic4dy0hm2nunt25,vaQXaiDl,2020-0188,2021-10-31,08:52:25,10:37:24,NA,incomplete,false,true,NA,NA,2,5,NA,brown,m_s_059.jpg,NA,NA,NA,NA,NA,unpleasant,pleasant,NA,NA,NA,NA,NA,right,1976,true,NA,NA,NA,NA,NA,NA,NA,NA
vaQXaiDl,3z33ic0jd3zsmh7cb6nqm2m9m84v9l,3p59jyt76px4wpgic4dy0hm2nunt25,vaQXaiDl,2020-0188,2021-10-31,08:52:25,10:37:24,NA,incomplete,false,true,NA,NA,2,6,NA,yellow,n_l_015.jpg,NA,NA,NA,NA,NA,pleasant,unpleasant,NA,NA,NA,NA,NA,left,3152,true,NA,NA,NA,NA,NA,NA,NA,NA
vaQXaiDl,3z33ic0jd3zsmh7cb6nqm2m9m84v9l,3p59jyt76px4wpgic4dy0hm2nunt25,vaQXaiDl,2020-0188,2021-10-31,08:52:25,10:37:24,NA,incomplete,false,true,NA,NA,2,7,NA,yellow,n_l_068.jpg,NA,NA,NA,NA,NA,pleasant,unpleasant,NA,NA,NA,NA,NA,left,2057,true,NA,NA,NA,NA,NA,NA,NA,NA
vaQXaiDl,3z33ic0jd3zsmh7cb6nqm2m9m84v9l,3p59jyt76px4wpgic4dy0hm2nunt25,vaQXaiDl,2020-0188,2021-10-31,08:52:25,10:37:24,NA,incomplete,false,true,NA,NA,2,8,NA,yellow,m_s_093.jpg,NA,NA,NA,NA,NA,pleasant,unpleasant,NA,NA,NA,NA,NA,right,2102,true,NA,NA,NA,NA,NA,NA,NA,NA
vaQXaiDl,3z33ic0jd3zsmh7cb6nqm2m9m84v9l,3p59jyt76px4wpgic4dy0hm2nunt25,vaQXaiDl,2020-0188,2021-10-31,08:52:25,10:37:24,NA,incomplete,false,true,NA,NA,2,9,NA,yellow,n_s_104.jpg,NA,NA,NA,NA,NA,unpleasant,pleasant,NA,NA,NA,NA,NA,right,1505,true,NA,NA,NA,NA,NA,NA,NA,NA
vaQXaiDl,3z33ic0jd3zsmh7cb6nqm2m9m84v9l,3p59jyt76px4wpgic4dy0hm2nunt25,vaQXaiDl,2020-0188,2021-10-31,08:52:25,10:37:24,NA,incomplete,false,true,NA,NA,2,10,NA,yellow,n_s_032.jpg,NA,NA,NA,NA,NA,unpleasant,pleasant,NA,NA,NA,NA,NA,left,2710,true,NA,NA,NA,NA,NA,NA,NA,NA
vaQXaiDl,3z33ic0jd3zsmh7cb6nqm2m9m84v9l,3p59jyt76px4wpgic4dy0hm2nunt25,vaQXaiDl,2020-0188,2021-10-31,08:52:25,10:37:24,NA,incomplete,false,true,NA,NA,2,11,NA,yellow,m_s_043.jpg,NA,NA,NA,NA,NA,unpleasant,pleasant,NA,NA,NA,NA,NA,left,1858,true,NA,NA,NA,NA,NA,NA,NA,NA
vaQXaiDl,3z33ic0jd3zsmh7cb6nqm2m9m84v9l,3p59jyt76px4wpgic4dy0hm2nunt25,vaQXaiDl,2020-0188,2021-10-31,08:52:25,10:37:24,NA,incomplete,false,true,NA,NA,2,12,NA,white,n_l_030.jpg,NA,NA,NA,NA,NA,pleasant,unpleasant,NA,NA,NA,NA,NA,right,2683,true,NA,NA,NA,NA,NA,NA,NA,NA
vaQXaiDl,3z33ic0jd3zsmh7cb6nqm2m9m84v9l,3p59jyt76px4wpgic4dy0hm2nunt25,vaQXaiDl,2020-0188,2021-10-31,08:52:25,10:37:24,NA,incomplete,false,true,NA,NA,2,13,NA,white,m_s_001.jpg,NA,NA,NA,NA,NA,unpleasant,pleasant,NA,NA,NA,NA,NA,right,1740,true,NA,NA,NA,NA,NA,NA,NA,NA
vaQXaiDl,3z33ic0jd3zsmh7cb6nqm2m9m84v9l,3p59jyt76px4wpgic4dy0hm2nunt25,vaQXaiDl,2020-0188,2021-10-31,08:52:25,10:37:24,NA,incomplete,false,true,NA,NA,2,14,NA,white,m_l_096.jpg,NA,NA,NA,NA,NA,pleasant,unpleasant,NA,NA,NA,NA,NA,left,3344,true,NA,NA,NA,NA,NA,NA,NA,NA
vaQXaiDl,3z33ic0jd3zsmh7cb6nqm2m9m84v9l,3p59jyt76px4wpgic4dy0hm2nunt25,vaQXaiDl,2020-0188,2021-10-31,08:52:25,10:37:24,NA,incomplete,false,true,NA,NA,2,15,NA,white,n_l_017.jpg,NA,NA,NA,NA,NA,unpleasant,pleasant,NA,NA,NA,NA,NA,left,2516,true,NA,NA,NA,NA,NA,NA,NA,NA
vaQXaiDl,3z33ic0jd3zsmh7cb6nqm2m9m84v9l,3p59jyt76px4wpgic4dy0hm2nunt25,vaQXaiDl,2020-0188,2021-10-31,08:52:25,10:37:24,NA,incomplete,false,true,NA,NA,2,16,NA,white,m_s_101.jpg,NA,NA,NA,NA,NA,unpleasant,pleasant,NA,NA,NA,NA,NA,right,2493,true,NA,NA,NA,NA,NA,NA,NA,NA
vaQXaiDl,3z33ic0jd3zsmh7cb6nqm2m9m84v9l,3p59jyt76px4wpgic4dy0hm2nunt25,vaQXaiDl,2020-0188,2021-10-31,08:52:25,10:37:24,NA,incomplete,false,true,NA,NA,2,17,NA,white,n_s_028.jpg,NA,NA,NA,NA,NA,unpleasant,pleasant,NA,NA,NA,NA,NA,right,1690,true,NA,NA,NA,NA,NA,NA,NA,NA
vaQXaiDl,3z33ic0jd3zsmh7cb6nqm2m9m84v9l,3p59jyt76px4wpgic4dy0hm2nunt25,vaQXaiDl,2020-0188,2021-10-31,08:52:25,10:37:24,NA,incomplete,false,true,NA,NA,2,18,NA,green,m_s_098.jpg,NA,NA,NA,NA,NA,pleasant,unpleasant,NA,NA,NA,NA,NA,left,2859,true,NA,NA,NA,NA,NA,NA,NA,NA
vaQXaiDl,3z33ic0jd3zsmh7cb6nqm2m9m84v9l,3p59jyt76px4wpgic4dy0hm2nunt25,vaQXaiDl,2020-0188,2021-10-31,08:52:25,10:37:24,NA,incomplete,false,true,NA,NA,2,19,NA,green,n_l_044.jpg,NA,NA,NA,NA,NA,pleasant,unpleasant,NA,NA,NA,NA,NA,left,2050,true,NA,NA,NA,NA,NA,NA,NA,NA
vaQXaiDl,3z33ic0jd3zsmh7cb6nqm2m9m84v9l,3p59jyt76px4wpgic4dy0hm2nunt25,vaQXaiDl,2020-0188,2021-10-31,08:52:25,10:37:24,NA,incomplete,false,true,NA,NA,2,20,NA,green,n_l_055.jpg,NA,NA,NA,NA,NA,unpleasant,pleasant,NA,NA,NA,NA,NA,right,3242,true,NA,NA,NA,NA,NA,NA,NA,NA
vaQXaiDl,3z33ic0jd3zsmh7cb6nqm2m9m84v9l,3p59jyt76px4wpgic4dy0hm2nunt25,vaQXaiDl,2020-0188,2021-10-31,08:52:25,10:37:24,NA,incomplete,false,true,NA,NA,2,21,NA,green,m_s_086.jpg,NA,NA,NA,NA,NA,unpleasant,pleasant,NA,NA,NA,NA,NA,right,2430,true,NA,NA,NA,NA,NA,NA,NA,NA
vaQXaiDl,3z33ic0jd3zsmh7cb6nqm2m9m84v9l,3p59jyt76px4wpgic4dy0hm2nunt25,vaQXaiDl,2020-0188,2021-10-31,08:52:25,10:37:24,NA,incomplete,false,true,NA,NA,2,22,NA,green,m_l_051.jpg,NA,NA,NA,NA,NA,unpleasant,pleasant,NA,NA,NA,NA,NA,right,2557,true,NA,NA,NA,NA,NA,NA,NA,NA
vaQXaiDl,3z33ic0jd3zsmh7cb6nqm2m9m84v9l,3p59jyt76px4wpgic4dy0hm2nunt25,vaQXaiDl,2020-0188,2021-10-31,08:52:25,10:37:24,NA,incomplete,false,true,NA,NA,2,23,NA,green,n_l_005.jpg,NA,NA,NA,NA,NA,pleasant,unpleasant,NA,NA,NA,NA,NA,left,2262,true,NA,NA,NA,NA,NA,NA,NA,NA
vaQXaiDl,3z33ic0jd3zsmh7cb6nqm2m9m84v9l,3p59jyt76px4wpgic4dy0hm2nunt25,vaQXaiDl,2020-0188,2021-10-31,08:52:25,10:37:24,NA,incomplete,false,true,NA,NA,2,24,NA,purple,n_l_014.jpg,NA,NA,NA,NA,NA,unpleasant,pleasant,NA,NA,NA,NA,NA,right,2112,true,NA,NA,NA,NA,NA,NA,NA,NA
vaQXaiDl,3z33ic0jd3zsmh7cb6nqm2m9m84v9l,3p59jyt76px4wpgic4dy0hm2nunt25,vaQXaiDl,2020-0188,2021-10-31,08:52:25,10:37:24,NA,incomplete,false,true,NA,NA,2,25,NA,purple,m_s_108.jpg,NA,NA,NA,NA,NA,pleasant,unpleasant,NA,NA,NA,NA,NA,left,3079,true,NA,NA,NA,NA,NA,NA,NA,NA
vaQXaiDl,3z33ic0jd3zsmh7cb6nqm2m9m84v9l,3p59jyt76px4wpgic4dy0hm2nunt25,vaQXaiDl,2020-0188,2021-10-31,08:52:25,10:37:24,NA,incomplete,false,true,NA,NA,2,26,NA,purple,m_l_025.jpg,NA,NA,NA,NA,NA,unpleasant,pleasant,NA,NA,NA,NA,NA,right,1731,true,NA,NA,NA,NA,NA,NA,NA,NA
vaQXaiDl,3z33ic0jd3zsmh7cb6nqm2m9m84v9l,3p59jyt76px4wpgic4dy0hm2nunt25,vaQXaiDl,2020-0188,2021-10-31,08:52:25,10:37:24,NA,incomplete,false,true,NA,NA,2,27,NA,purple,m_l_079.jpg,NA,NA,NA,NA,NA,pleasant,unpleasant,NA,NA,NA,NA,NA,left,2540,true,NA,NA,NA,NA,NA,NA,NA,NA
vaQXaiDl,3z33ic0jd3zsmh7cb6nqm2m9m84v9l,3p59jyt76px4wpgic4dy0hm2nunt25,vaQXaiDl,2020-0188,2021-10-31,08:52:25,10:37:24,NA,incomplete,false,true,NA,NA,2,28,NA,purple,n_s_110.jpg,NA,NA,NA,NA,NA,pleasant,unpleasant,NA,NA,NA,NA,NA,right,2166,true,NA,NA,NA,NA,NA,NA,NA,NA
vaQXaiDl,3z33ic0jd3zsmh7cb6nqm2m9m84v9l,3p59jyt76px4wpgic4dy0hm2nunt25,vaQXaiDl,2020-0188,2021-10-31,08:52:25,10:37:24,NA,incomplete,false,true,NA,NA,2,29,NA,purple,m_s_089.jpg,NA,NA,NA,NA,NA,pleasant,unpleasant,NA,NA,NA,NA,NA,left,2674,true,NA,NA,NA,NA,NA,NA,NA,NA
vaQXaiDl,3z33ic0jd3zsmh7cb6nqm2m9m84v9l,3p59jyt76px4wpgic4dy0hm2nunt25,vaQXaiDl,2020-0188,2021-10-31,08:52:25,10:37:24,NA,incomplete,false,true,NA,NA,2,30,NA,red,n_s_098.jpg,NA,NA,NA,NA,NA,unpleasant,pleasant,NA,NA,NA,NA,NA,left,2693,true,NA,NA,NA,NA,NA,NA,NA,NA
vaQXaiDl,3z33ic0jd3zsmh7cb6nqm2m9m84v9l,3p59jyt76px4wpgic4dy0hm2nunt25,vaQXaiDl,2020-0188,2021-10-31,08:52:25,10:37:24,NA,incomplete,false,true,NA,NA,2,31,NA,red,n_s_041.jpg,NA,NA,NA,NA,NA,pleasant,unpleasant,NA,NA,NA,NA,NA,right,3174,true,NA,NA,NA,NA,NA,NA,NA,NA
vaQXaiDl,3z33ic0jd3zsmh7cb6nqm2m9m84v9l,3p59jyt76px4wpgic4dy0hm2nunt25,vaQXaiDl,2020-0188,2021-10-31,08:52:25,10:37:24,NA,incomplete,false,true,NA,NA,2,32,NA,red,n_l_109.jpg,NA,NA,NA,NA,NA,pleasant,unpleasant,NA,NA,NA,NA,NA,right,2039,true,NA,NA,NA,NA,NA,NA,NA,NA
vaQXaiDl,3z33ic0jd3zsmh7cb6nqm2m9m84v9l,3p59jyt76px4wpgic4dy0hm2nunt25,vaQXaiDl,2020-0188,2021-10-31,08:52:25,10:37:24,NA,incomplete,false,true,NA,NA,2,33,NA,red,m_l_006.jpg,NA,NA,NA,NA,NA,pleasant,unpleasant,NA,NA,NA,NA,NA,right,2747,true,NA,NA,NA,NA,NA,NA,NA,NA
vaQXaiDl,3z33ic0jd3zsmh7cb6nqm2m9m84v9l,3p59jyt76px4wpgic4dy0hm2nunt25,vaQXaiDl,2020-0188,2021-10-31,08:52:25,10:37:24,NA,incomplete,false,true,NA,NA,2,34,NA,red,m_s_106.jpg,NA,NA,NA,NA,NA,unpleasant,pleasant,NA,NA,NA,NA,NA,right,2615,true,NA,NA,NA,NA,NA,NA,NA,NA
vaQXaiDl,3z33ic0jd3zsmh7cb6nqm2m9m84v9l,3p59jyt76px4wpgic4dy0hm2nunt25,vaQXaiDl,2020-0188,2021-10-31,08:52:25,10:37:24,NA,incomplete,false,true,NA,NA,2,35,NA,red,n_l_053.jpg,NA,NA,NA,NA,NA,unpleasant,pleasant,NA,NA,NA,NA,NA,left,1806,true,NA,NA,NA,NA,NA,NA,NA,NA
vaQXaiDl,3z33ic0jd3zsmh7cb6nqm2m9m84v9l,3p59jyt76px4wpgic4dy0hm2nunt25,vaQXaiDl,2020-0188,2021-10-31,08:52:25,10:37:24,NA,incomplete,false,NA,NA,true,2,0,NA,NA,NA,right,m_s_083.jpg,yellow,brown,NA,NA,NA,NA,NA,NA,NA,NA,NA,NaN,NA,4713,right,1,NA,NA,NA,NA,NA
vaQXaiDl,3z33ic0jd3zsmh7cb6nqm2m9m84v9l,3p59jyt76px4wpgic4dy0hm2nunt25,vaQXaiDl,2020-0188,2021-10-31,08:52:25,10:37:24,NA,incomplete,false,NA,NA,true,2,1,NA,NA,NA,left,n_l_055.jpg,green,white,NA,NA,NA,NA,NA,NA,NA,NA,NA,NaN,NA,2412,left,1,NA,NA,NA,NA,NA
vaQXaiDl,3z33ic0jd3zsmh7cb6nqm2m9m84v9l,3p59jyt76px4wpgic4dy0hm2nunt25,vaQXaiDl,2020-0188,2021-10-31,08:52:25,10:37:24,NA,incomplete,false,NA,NA,true,2,2,NA,NA,NA,right,n_l_053.jpg,purple,red,NA,NA,NA,NA,NA,NA,NA,NA,NA,NaN,NA,2498,right,1,NA,NA,NA,NA,NA
vaQXaiDl,3z33ic0jd3zsmh7cb6nqm2m9m84v9l,3p59jyt76px4wpgic4dy0hm2nunt25,vaQXaiDl,2020-0188,2021-10-31,08:52:25,10:37:24,NA,incomplete,false,NA,NA,true,2,3,NA,NA,NA,left,n_l_109.jpg,red,purple,NA,NA,NA,NA,NA,NA,NA,NA,NA,NaN,NA,3158,right,0,NA,NA,NA,NA,NA
vaQXaiDl,3z33ic0jd3zsmh7cb6nqm2m9m84v9l,3p59jyt76px4wpgic4dy0hm2nunt25,vaQXaiDl,2020-0188,2021-10-31,08:52:25,10:37:24,NA,incomplete,false,NA,NA,true,2,4,NA,NA,NA,left,m_l_025.jpg,purple,green,NA,NA,NA,NA,NA,NA,NA,NA,NA,NaN,NA,4338,left,1,NA,NA,NA,NA,NA
vaQXaiDl,3z33ic0jd3zsmh7cb6nqm2m9m84v9l,3p59jyt76px4wpgic4dy0hm2nunt25,vaQXaiDl,2020-0188,2021-10-31,08:52:25,10:37:24,NA,incomplete,false,NA,NA,true,2,5,NA,NA,NA,right,m_s_093.jpg,brown,yellow,NA,NA,NA,NA,NA,NA,NA,NA,NA,NaN,NA,4894,right,1,NA,NA,NA,NA,NA
vaQXaiDl,3z33ic0jd3zsmh7cb6nqm2m9m84v9l,3p59jyt76px4wpgic4dy0hm2nunt25,vaQXaiDl,2020-0188,2021-10-31,08:52:25,10:37:24,NA,incomplete,false,NA,NA,true,2,6,NA,NA,NA,left,n_l_005.jpg,green,purple,NA,NA,NA,NA,NA,NA,NA,NA,NA,NaN,NA,6224,right,0,NA,NA,NA,NA,NA
vaQXaiDl,3z33ic0jd3zsmh7cb6nqm2m9m84v9l,3p59jyt76px4wpgic4dy0hm2nunt25,vaQXaiDl,2020-0188,2021-10-31,08:52:25,10:37:24,NA,incomplete,false,NA,NA,true,2,7,NA,NA,NA,left,m_l_096.jpg,white,green,NA,NA,NA,NA,NA,NA,NA,NA,NA,NaN,NA,2714,left,1,NA,NA,NA,NA,NA
vaQXaiDl,3z33ic0jd3zsmh7cb6nqm2m9m84v9l,3p59jyt76px4wpgic4dy0hm2nunt25,vaQXaiDl,2020-0188,2021-10-31,08:52:25,10:37:24,NA,incomplete,false,NA,NA,true,2,8,NA,NA,NA,right,m_s_101.jpg,green,white,NA,NA,NA,NA,NA,NA,NA,NA,NA,NaN,NA,2609,left,0,NA,NA,NA,NA,NA
vaQXaiDl,3z33ic0jd3zsmh7cb6nqm2m9m84v9l,3p59jyt76px4wpgic4dy0hm2nunt25,vaQXaiDl,2020-0188,2021-10-31,08:52:25,10:37:24,NA,incomplete,false,NA,NA,true,2,9,NA,NA,NA,left,n_s_110.jpg,purple,red,NA,NA,NA,NA,NA,NA,NA,NA,NA,NaN,NA,2654,right,0,NA,NA,NA,NA,NA
vaQXaiDl,3z33ic0jd3zsmh7cb6nqm2m9m84v9l,3p59jyt76px4wpgic4dy0hm2nunt25,vaQXaiDl,2020-0188,2021-10-31,08:52:25,10:37:24,NA,incomplete,false,NA,NA,true,2,10,NA,NA,NA,right,m_s_108.jpg,red,purple,NA,NA,NA,NA,NA,NA,NA,NA,NA,NaN,NA,5149,right,1,NA,NA,NA,NA,NA
vaQXaiDl,3z33ic0jd3zsmh7cb6nqm2m9m84v9l,3p59jyt76px4wpgic4dy0hm2nunt25,vaQXaiDl,2020-0188,2021-10-31,08:52:25,10:37:24,NA,incomplete,false,NA,NA,true,2,11,NA,NA,NA,right,m_s_059.jpg,yellow,brown,NA,NA,NA,NA,NA,NA,NA,NA,NA,NaN,NA,4139,right,1,NA,NA,NA,NA,NA
vaQXaiDl,3z33ic0jd3zsmh7cb6nqm2m9m84v9l,3p59jyt76px4wpgic4dy0hm2nunt25,vaQXaiDl,2020-0188,2021-10-31,08:52:25,10:37:24,NA,incomplete,false,NA,NA,true,2,12,NA,NA,NA,left,n_l_068.jpg,yellow,brown,NA,NA,NA,NA,NA,NA,NA,NA,NA,NaN,NA,3288,right,0,NA,NA,NA,NA,NA
vaQXaiDl,3z33ic0jd3zsmh7cb6nqm2m9m84v9l,3p59jyt76px4wpgic4dy0hm2nunt25,vaQXaiDl,2020-0188,2021-10-31,08:52:25,10:37:24,NA,incomplete,false,NA,NA,true,2,13,NA,NA,NA,left,n_l_044.jpg,green,white,NA,NA,NA,NA,NA,NA,NA,NA,NA,NaN,NA,2813,left,1,NA,NA,NA,NA,NA
vaQXaiDl,3z33ic0jd3zsmh7cb6nqm2m9m84v9l,3p59jyt76px4wpgic4dy0hm2nunt25,vaQXaiDl,2020-0188,2021-10-31,08:52:25,10:37:24,NA,incomplete,false,NA,NA,true,2,14,NA,NA,NA,left,m_s_043.jpg,yellow,white,NA,NA,NA,NA,NA,NA,NA,NA,NA,NaN,NA,3242,left,1,NA,NA,NA,NA,NA
vaQXaiDl,3z33ic0jd3zsmh7cb6nqm2m9m84v9l,3p59jyt76px4wpgic4dy0hm2nunt25,vaQXaiDl,2020-0188,2021-10-31,08:52:25,10:37:24,NA,incomplete,false,NA,NA,true,2,15,NA,NA,NA,left,n_l_012.jpg,brown,yellow,NA,NA,NA,NA,NA,NA,NA,NA,NA,NaN,NA,2622,left,1,NA,NA,NA,NA,NA
vaQXaiDl,3z33ic0jd3zsmh7cb6nqm2m9m84v9l,3p59jyt76px4wpgic4dy0hm2nunt25,vaQXaiDl,2020-0188,2021-10-31,08:52:25,10:37:24,NA,incomplete,false,NA,NA,true,2,16,NA,NA,NA,left,m_l_051.jpg,green,purple,NA,NA,NA,NA,NA,NA,NA,NA,NA,NaN,NA,4293,left,1,NA,NA,NA,NA,NA
vaQXaiDl,3z33ic0jd3zsmh7cb6nqm2m9m84v9l,3p59jyt76px4wpgic4dy0hm2nunt25,vaQXaiDl,2020-0188,2021-10-31,08:52:25,10:37:24,NA,incomplete,false,NA,NA,true,2,17,NA,NA,NA,right,m_s_001.jpg,green,white,NA,NA,NA,NA,NA,NA,NA,NA,NA,NaN,NA,2299,right,1,NA,NA,NA,NA,NA
vaQXaiDl,3z33ic0jd3zsmh7cb6nqm2m9m84v9l,3p59jyt76px4wpgic4dy0hm2nunt25,vaQXaiDl,2020-0188,2021-10-31,08:52:25,10:37:24,NA,incomplete,false,NA,NA,true,2,18,NA,NA,NA,left,n_s_041.jpg,red,purple,NA,NA,NA,NA,NA,NA,NA,NA,NA,NaN,NA,2517,left,1,NA,NA,NA,NA,NA
vaQXaiDl,3z33ic0jd3zsmh7cb6nqm2m9m84v9l,3p59jyt76px4wpgic4dy0hm2nunt25,vaQXaiDl,2020-0188,2021-10-31,08:52:25,10:37:24,NA,incomplete,false,NA,NA,true,2,19,NA,NA,NA,left,m_s_089.jpg,purple,green,NA,NA,NA,NA,NA,NA,NA,NA,NA,NaN,NA,2836,right,0,NA,NA,NA,NA,NA
vaQXaiDl,3z33ic0jd3zsmh7cb6nqm2m9m84v9l,3p59jyt76px4wpgic4dy0hm2nunt25,vaQXaiDl,2020-0188,2021-10-31,08:52:25,10:37:24,NA,incomplete,false,NA,NA,true,2,20,NA,NA,NA,right,n_s_032.jpg,brown,yellow,NA,NA,NA,NA,NA,NA,NA,NA,NA,NaN,NA,3360,right,1,NA,NA,NA,NA,NA
vaQXaiDl,3z33ic0jd3zsmh7cb6nqm2m9m84v9l,3p59jyt76px4wpgic4dy0hm2nunt25,vaQXaiDl,2020-0188,2021-10-31,08:52:25,10:37:24,NA,incomplete,false,NA,NA,true,2,21,NA,NA,NA,left,n_s_028.jpg,white,yellow,NA,NA,NA,NA,NA,NA,NA,NA,NA,NaN,NA,2610,left,1,NA,NA,NA,NA,NA
vaQXaiDl,3z33ic0jd3zsmh7cb6nqm2m9m84v9l,3p59jyt76px4wpgic4dy0hm2nunt25,vaQXaiDl,2020-0188,2021-10-31,08:52:25,10:37:24,NA,incomplete,false,NA,true,NA,2,0,NA,NA,NA,right,NA,NA,NA,absent,NA,NA,n_l_055.jpg,green,m_s_101.jpg,white,between,NA,NaN,NA,NA,NA,NA,left,6778,0,1,2588
vaQXaiDl,3z33ic0jd3zsmh7cb6nqm2m9m84v9l,3p59jyt76px4wpgic4dy0hm2nunt25,vaQXaiDl,2020-0188,2021-10-31,08:52:25,10:37:24,NA,incomplete,false,NA,true,NA,2,1,NA,NA,NA,right,NA,NA,NA,absent,NA,NA,m_s_059.jpg,brown,n_l_012.jpg,brown,within,NA,NaN,NA,NA,NA,NA,right,7637,1,1,2597
vaQXaiDl,3z33ic0jd3zsmh7cb6nqm2m9m84v9l,3p59jyt76px4wpgic4dy0hm2nunt25,vaQXaiDl,2020-0188,2021-10-31,08:52:25,10:37:24,NA,incomplete,false,NA,true,NA,2,2,NA,NA,NA,right,NA,NA,NA,absent,NA,NA,n_s_028.jpg,white,m_s_001.jpg,white,within,NA,NaN,NA,NA,NA,NA,right,3838,1,1,1965
vaQXaiDl,3z33ic0jd3zsmh7cb6nqm2m9m84v9l,3p59jyt76px4wpgic4dy0hm2nunt25,vaQXaiDl,2020-0188,2021-10-31,08:52:25,10:37:24,NA,incomplete,false,NA,true,NA,2,3,NA,NA,NA,right,NA,NA,NA,absent,NA,NA,m_l_025.jpg,purple,m_l_051.jpg,green,between,NA,NaN,NA,NA,NA,NA,right,3149,1,1,3589
vaQXaiDl,3z33ic0jd3zsmh7cb6nqm2m9m84v9l,3p59jyt76px4wpgic4dy0hm2nunt25,vaQXaiDl,2020-0188,2021-10-31,08:52:25,10:37:24,NA,incomplete,false,NA,true,NA,2,4,NA,NA,NA,left,NA,NA,NA,absent,NA,NA,m_s_083.jpg,brown,m_s_093.jpg,yellow,between,NA,NaN,NA,NA,NA,NA,left,3189,1,2,1819
vaQXaiDl,3z33ic0jd3zsmh7cb6nqm2m9m84v9l,3p59jyt76px4wpgic4dy0hm2nunt25,vaQXaiDl,2020-0188,2021-10-31,08:52:25,10:37:24,NA,incomplete,false,NA,true,NA,2,5,NA,NA,NA,left,NA,NA,NA,absent,NA,NA,n_s_032.jpg,yellow,m_l_096.jpg,white,between,NA,NaN,NA,NA,NA,NA,right,5528,0,1,1894
vaQXaiDl,3z33ic0jd3zsmh7cb6nqm2m9m84v9l,3p59jyt76px4wpgic4dy0hm2nunt25,vaQXaiDl,2020-0188,2021-10-31,08:52:25,10:37:24,NA,incomplete,false,NA,true,NA,2,6,NA,NA,NA,left,NA,NA,NA,absent,NA,NA,n_s_110.jpg,purple,n_l_109.jpg,red,between,NA,NaN,NA,NA,NA,NA,left,6104,1,0,1989
vaQXaiDl,3z33ic0jd3zsmh7cb6nqm2m9m84v9l,3p59jyt76px4wpgic4dy0hm2nunt25,vaQXaiDl,2020-0188,2021-10-31,08:52:25,10:37:24,NA,incomplete,false,NA,true,NA,2,7,NA,NA,NA,left,NA,NA,NA,absent,NA,NA,n_l_044.jpg,green,n_l_005.jpg,green,within,NA,NaN,NA,NA,NA,NA,right,4663,0,1,1704
vaQXaiDl,3z33ic0jd3zsmh7cb6nqm2m9m84v9l,3p59jyt76px4wpgic4dy0hm2nunt25,vaQXaiDl,2020-0188,2021-10-31,08:52:25,10:37:24,NA,incomplete,false,NA,true,NA,2,8,NA,NA,NA,right,NA,NA,NA,absent,NA,NA,m_s_043.jpg,yellow,n_l_068.jpg,yellow,within,NA,NaN,NA,NA,NA,NA,left,3234,0,2,1739
vaQXaiDl,3z33ic0jd3zsmh7cb6nqm2m9m84v9l,3p59jyt76px4wpgic4dy0hm2nunt25,vaQXaiDl,2020-0188,2021-10-31,08:52:25,10:37:24,NA,incomplete,false,NA,true,NA,2,9,NA,NA,NA,right,NA,NA,NA,absent,NA,NA,n_l_053.jpg,red,n_s_041.jpg,red,within,NA,NaN,NA,NA,NA,NA,right,4269,1,1,2104
vaQXaiDl,3z33ic0jd3zsmh7cb6nqm2m9m84v9l,3p59jyt76px4wpgic4dy0hm2nunt25,vaQXaiDl,2020-0188,2021-10-31,08:52:25,10:37:24,NA,incomplete,false,NA,true,NA,2,10,NA,NA,NA,right,NA,NA,NA,absent,NA,NA,m_s_089.jpg,purple,m_s_108.jpg,purple,within,NA,NaN,NA,NA,NA,NA,left,2968,0,1,1932
vaQXaiDl,3z33ic0jd3zsmh7cb6nqm2m9m84v9l,3p59jyt76px4wpgic4dy0hm2nunt25,vaQXaiDl,2020-0188,2021-10-31,08:52:25,10:37:24,NA,incomplete,false,true,NA,NA,3,0,NA,gray,m_l_066.jpg,NA,NA,NA,NA,NA,unpleasant,pleasant,NA,NA,NA,NA,NA,right,3258,true,NA,NA,NA,NA,NA,NA,NA,NA
vaQXaiDl,3z33ic0jd3zsmh7cb6nqm2m9m84v9l,3p59jyt76px4wpgic4dy0hm2nunt25,vaQXaiDl,2020-0188,2021-10-31,08:52:25,10:37:24,NA,incomplete,false,true,NA,NA,3,1,NA,gray,m_l_059.jpg,NA,NA,NA,NA,NA,unpleasant,pleasant,NA,NA,NA,NA,NA,right,2235,true,NA,NA,NA,NA,NA,NA,NA,NA
vaQXaiDl,3z33ic0jd3zsmh7cb6nqm2m9m84v9l,3p59jyt76px4wpgic4dy0hm2nunt25,vaQXaiDl,2020-0188,2021-10-31,08:52:25,10:37:24,NA,incomplete,false,true,NA,NA,3,2,NA,gray,n_s_099.jpg,NA,NA,NA,NA,NA,unpleasant,pleasant,NA,NA,NA,NA,NA,left,2054,true,NA,NA,NA,NA,NA,NA,NA,NA
vaQXaiDl,3z33ic0jd3zsmh7cb6nqm2m9m84v9l,3p59jyt76px4wpgic4dy0hm2nunt25,vaQXaiDl,2020-0188,2021-10-31,08:52:25,10:37:24,NA,incomplete,false,true,NA,NA,3,3,NA,gray,n_l_087.jpg,NA,NA,NA,NA,NA,pleasant,unpleasant,NA,NA,NA,NA,NA,left,2132,true,NA,NA,NA,NA,NA,NA,NA,NA
vaQXaiDl,3z33ic0jd3zsmh7cb6nqm2m9m84v9l,3p59jyt76px4wpgic4dy0hm2nunt25,vaQXaiDl,2020-0188,2021-10-31,08:52:25,10:37:24,NA,incomplete,false,true,NA,NA,3,4,NA,gray,n_s_009.jpg,NA,NA,NA,NA,NA,pleasant,unpleasant,NA,NA,NA,NA,NA,left,1416,true,NA,NA,NA,NA,NA,NA,NA,NA
vaQXaiDl,3z33ic0jd3zsmh7cb6nqm2m9m84v9l,3p59jyt76px4wpgic4dy0hm2nunt25,vaQXaiDl,2020-0188,2021-10-31,08:52:25,10:37:24,NA,incomplete,false,true,NA,NA,3,5,NA,gray,n_s_103.jpg,NA,NA,NA,NA,NA,pleasant,unpleasant,NA,NA,NA,NA,NA,left,2002,true,NA,NA,NA,NA,NA,NA,NA,NA
vaQXaiDl,3z33ic0jd3zsmh7cb6nqm2m9m84v9l,3p59jyt76px4wpgic4dy0hm2nunt25,vaQXaiDl,2020-0188,2021-10-31,08:52:25,10:37:24,NA,incomplete,false,true,NA,NA,3,6,NA,green,m_l_063.jpg,NA,NA,NA,NA,NA,unpleasant,pleasant,NA,NA,NA,NA,NA,right,1933,true,NA,NA,NA,NA,NA,NA,NA,NA
vaQXaiDl,3z33ic0jd3zsmh7cb6nqm2m9m84v9l,3p59jyt76px4wpgic4dy0hm2nunt25,vaQXaiDl,2020-0188,2021-10-31,08:52:25,10:37:24,NA,incomplete,false,true,NA,NA,3,7,NA,green,m_l_033.jpg,NA,NA,NA,NA,NA,unpleasant,pleasant,NA,NA,NA,NA,NA,none,0,false,NA,NA,NA,NA,NA,NA,NA,NA
vaQXaiDl,3z33ic0jd3zsmh7cb6nqm2m9m84v9l,3p59jyt76px4wpgic4dy0hm2nunt25,vaQXaiDl,2020-0188,2021-10-31,08:52:25,10:37:24,NA,incomplete,false,true,NA,NA,3,8,NA,green,n_l_084.jpg,NA,NA,NA,NA,NA,pleasant,unpleasant,NA,NA,NA,NA,NA,right,2324,true,NA,NA,NA,NA,NA,NA,NA,NA
vaQXaiDl,3z33ic0jd3zsmh7cb6nqm2m9m84v9l,3p59jyt76px4wpgic4dy0hm2nunt25,vaQXaiDl,2020-0188,2021-10-31,08:52:25,10:37:24,NA,incomplete,false,true,NA,NA,3,9,NA,green,m_l_062.jpg,NA,NA,NA,NA,NA,pleasant,unpleasant,NA,NA,NA,NA,NA,left,3261,true,NA,NA,NA,NA,NA,NA,NA,NA
vaQXaiDl,3z33ic0jd3zsmh7cb6nqm2m9m84v9l,3p59jyt76px4wpgic4dy0hm2nunt25,vaQXaiDl,2020-0188,2021-10-31,08:52:25,10:37:24,NA,incomplete,false,true,NA,NA,3,10,NA,green,n_l_033.jpg,NA,NA,NA,NA,NA,unpleasant,pleasant,NA,NA,NA,NA,NA,right,2244,true,NA,NA,NA,NA,NA,NA,NA,NA
vaQXaiDl,3z33ic0jd3zsmh7cb6nqm2m9m84v9l,3p59jyt76px4wpgic4dy0hm2nunt25,vaQXaiDl,2020-0188,2021-10-31,08:52:25,10:37:24,NA,incomplete,false,true,NA,NA,3,11,NA,green,m_l_027.jpg,NA,NA,NA,NA,NA,unpleasant,pleasant,NA,NA,NA,NA,NA,left,3314,true,NA,NA,NA,NA,NA,NA,NA,NA
vaQXaiDl,3z33ic0jd3zsmh7cb6nqm2m9m84v9l,3p59jyt76px4wpgic4dy0hm2nunt25,vaQXaiDl,2020-0188,2021-10-31,08:52:25,10:37:24,NA,incomplete,false,true,NA,NA,3,12,NA,yellow,n_s_055.jpg,NA,NA,NA,NA,NA,pleasant,unpleasant,NA,NA,NA,NA,NA,left,1988,true,NA,NA,NA,NA,NA,NA,NA,NA
vaQXaiDl,3z33ic0jd3zsmh7cb6nqm2m9m84v9l,3p59jyt76px4wpgic4dy0hm2nunt25,vaQXaiDl,2020-0188,2021-10-31,08:52:25,10:37:24,NA,incomplete,false,true,NA,NA,3,13,NA,yellow,m_l_113.jpg,NA,NA,NA,NA,NA,pleasant,unpleasant,NA,NA,NA,NA,NA,left,3424,true,NA,NA,NA,NA,NA,NA,NA,NA
vaQXaiDl,3z33ic0jd3zsmh7cb6nqm2m9m84v9l,3p59jyt76px4wpgic4dy0hm2nunt25,vaQXaiDl,2020-0188,2021-10-31,08:52:25,10:37:24,NA,incomplete,false,true,NA,NA,3,14,NA,yellow,n_s_040.jpg,NA,NA,NA,NA,NA,unpleasant,pleasant,NA,NA,NA,NA,NA,left,1766,true,NA,NA,NA,NA,NA,NA,NA,NA
vaQXaiDl,3z33ic0jd3zsmh7cb6nqm2m9m84v9l,3p59jyt76px4wpgic4dy0hm2nunt25,vaQXaiDl,2020-0188,2021-10-31,08:52:25,10:37:24,NA,incomplete,false,true,NA,NA,3,15,NA,yellow,m_s_092.jpg,NA,NA,NA,NA,NA,unpleasant,pleasant,NA,NA,NA,NA,NA,right,1615,true,NA,NA,NA,NA,NA,NA,NA,NA
vaQXaiDl,3z33ic0jd3zsmh7cb6nqm2m9m84v9l,3p59jyt76px4wpgic4dy0hm2nunt25,vaQXaiDl,2020-0188,2021-10-31,08:52:25,10:37:24,NA,incomplete,false,true,NA,NA,3,16,NA,yellow,n_s_072.jpg,NA,NA,NA,NA,NA,pleasant,unpleasant,NA,NA,NA,NA,NA,left,2942,true,NA,NA,NA,NA,NA,NA,NA,NA
vaQXaiDl,3z33ic0jd3zsmh7cb6nqm2m9m84v9l,3p59jyt76px4wpgic4dy0hm2nunt25,vaQXaiDl,2020-0188,2021-10-31,08:52:25,10:37:24,NA,incomplete,false,true,NA,NA,3,17,NA,yellow,n_s_077.jpg,NA,NA,NA,NA,NA,unpleasant,pleasant,NA,NA,NA,NA,NA,right,2213,true,NA,NA,NA,NA,NA,NA,NA,NA
vaQXaiDl,3z33ic0jd3zsmh7cb6nqm2m9m84v9l,3p59jyt76px4wpgic4dy0hm2nunt25,vaQXaiDl,2020-0188,2021-10-31,08:52:25,10:37:24,NA,incomplete,false,true,NA,NA,3,18,NA,red,n_l_064.jpg,NA,NA,NA,NA,NA,unpleasant,pleasant,NA,NA,NA,NA,NA,left,2371,true,NA,NA,NA,NA,NA,NA,NA,NA
vaQXaiDl,3z33ic0jd3zsmh7cb6nqm2m9m84v9l,3p59jyt76px4wpgic4dy0hm2nunt25,vaQXaiDl,2020-0188,2021-10-31,08:52:25,10:37:24,NA,incomplete,false,true,NA,NA,3,19,NA,red,n_l_098.jpg,NA,NA,NA,NA,NA,pleasant,unpleasant,NA,NA,NA,NA,NA,left,2114,true,NA,NA,NA,NA,NA,NA,NA,NA
vaQXaiDl,3z33ic0jd3zsmh7cb6nqm2m9m84v9l,3p59jyt76px4wpgic4dy0hm2nunt25,vaQXaiDl,2020-0188,2021-10-31,08:52:25,10:37:24,NA,incomplete,false,true,NA,NA,3,20,NA,red,m_s_085.jpg,NA,NA,NA,NA,NA,unpleasant,pleasant,NA,NA,NA,NA,NA,left,2674,true,NA,NA,NA,NA,NA,NA,NA,NA
vaQXaiDl,3z33ic0jd3zsmh7cb6nqm2m9m84v9l,3p59jyt76px4wpgic4dy0hm2nunt25,vaQXaiDl,2020-0188,2021-10-31,08:52:25,10:37:24,NA,incomplete,false,true,NA,NA,3,21,NA,red,m_l_036.jpg,NA,NA,NA,NA,NA,unpleasant,pleasant,NA,NA,NA,NA,NA,left,2273,true,NA,NA,NA,NA,NA,NA,NA,NA
vaQXaiDl,3z33ic0jd3zsmh7cb6nqm2m9m84v9l,3p59jyt76px4wpgic4dy0hm2nunt25,vaQXaiDl,2020-0188,2021-10-31,08:52:25,10:37:24,NA,incomplete,false,true,NA,NA,3,22,NA,red,m_s_029.jpg,NA,NA,NA,NA,NA,unpleasant,pleasant,NA,NA,NA,NA,NA,right,1921,true,NA,NA,NA,NA,NA,NA,NA,NA
vaQXaiDl,3z33ic0jd3zsmh7cb6nqm2m9m84v9l,3p59jyt76px4wpgic4dy0hm2nunt25,vaQXaiDl,2020-0188,2021-10-31,08:52:25,10:37:24,NA,incomplete,false,true,NA,NA,3,23,NA,red,m_l_039.jpg,NA,NA,NA,NA,NA,unpleasant,pleasant,NA,NA,NA,NA,NA,right,1724,true,NA,NA,NA,NA,NA,NA,NA,NA
vaQXaiDl,3z33ic0jd3zsmh7cb6nqm2m9m84v9l,3p59jyt76px4wpgic4dy0hm2nunt25,vaQXaiDl,2020-0188,2021-10-31,08:52:25,10:37:24,NA,incomplete,false,true,NA,NA,3,24,NA,blue,n_l_066.jpg,NA,NA,NA,NA,NA,pleasant,unpleasant,NA,NA,NA,NA,NA,left,2972,true,NA,NA,NA,NA,NA,NA,NA,NA
vaQXaiDl,3z33ic0jd3zsmh7cb6nqm2m9m84v9l,3p59jyt76px4wpgic4dy0hm2nunt25,vaQXaiDl,2020-0188,2021-10-31,08:52:25,10:37:24,NA,incomplete,false,true,NA,NA,3,25,NA,blue,n_l_115.jpg,NA,NA,NA,NA,NA,unpleasant,pleasant,NA,NA,NA,NA,NA,right,2161,true,NA,NA,NA,NA,NA,NA,NA,NA
vaQXaiDl,3z33ic0jd3zsmh7cb6nqm2m9m84v9l,3p59jyt76px4wpgic4dy0hm2nunt25,vaQXaiDl,2020-0188,2021-10-31,08:52:25,10:37:24,NA,incomplete,false,true,NA,NA,3,26,NA,blue,n_s_068.jpg,NA,NA,NA,NA,NA,unpleasant,pleasant,NA,NA,NA,NA,NA,left,1968,true,NA,NA,NA,NA,NA,NA,NA,NA
vaQXaiDl,3z33ic0jd3zsmh7cb6nqm2m9m84v9l,3p59jyt76px4wpgic4dy0hm2nunt25,vaQXaiDl,2020-0188,2021-10-31,08:52:25,10:37:24,NA,incomplete,false,true,NA,NA,3,27,NA,blue,n_s_005.jpg,NA,NA,NA,NA,NA,unpleasant,pleasant,NA,NA,NA,NA,NA,right,1853,true,NA,NA,NA,NA,NA,NA,NA,NA
vaQXaiDl,3z33ic0jd3zsmh7cb6nqm2m9m84v9l,3p59jyt76px4wpgic4dy0hm2nunt25,vaQXaiDl,2020-0188,2021-10-31,08:52:25,10:37:24,NA,incomplete,false,true,NA,NA,3,28,NA,blue,m_s_052.jpg,NA,NA,NA,NA,NA,unpleasant,pleasant,NA,NA,NA,NA,NA,right,1466,true,NA,NA,NA,NA,NA,NA,NA,NA
vaQXaiDl,3z33ic0jd3zsmh7cb6nqm2m9m84v9l,3p59jyt76px4wpgic4dy0hm2nunt25,vaQXaiDl,2020-0188,2021-10-31,08:52:25,10:37:24,NA,incomplete,false,true,NA,NA,3,29,NA,blue,m_l_028.jpg,NA,NA,NA,NA,NA,pleasant,unpleasant,NA,NA,NA,NA,NA,left,1737,true,NA,NA,NA,NA,NA,NA,NA,NA
vaQXaiDl,3z33ic0jd3zsmh7cb6nqm2m9m84v9l,3p59jyt76px4wpgic4dy0hm2nunt25,vaQXaiDl,2020-0188,2021-10-31,08:52:25,10:37:24,NA,incomplete,false,true,NA,NA,3,30,NA,purple,m_l_085.jpg,NA,NA,NA,NA,NA,pleasant,unpleasant,NA,NA,NA,NA,NA,right,1753,true,NA,NA,NA,NA,NA,NA,NA,NA
vaQXaiDl,3z33ic0jd3zsmh7cb6nqm2m9m84v9l,3p59jyt76px4wpgic4dy0hm2nunt25,vaQXaiDl,2020-0188,2021-10-31,08:52:25,10:37:24,NA,incomplete,false,true,NA,NA,3,31,NA,purple,n_s_084.jpg,NA,NA,NA,NA,NA,pleasant,unpleasant,NA,NA,NA,NA,NA,left,1624,true,NA,NA,NA,NA,NA,NA,NA,NA
vaQXaiDl,3z33ic0jd3zsmh7cb6nqm2m9m84v9l,3p59jyt76px4wpgic4dy0hm2nunt25,vaQXaiDl,2020-0188,2021-10-31,08:52:25,10:37:24,NA,incomplete,false,true,NA,NA,3,32,NA,purple,n_l_065.jpg,NA,NA,NA,NA,NA,pleasant,unpleasant,NA,NA,NA,NA,NA,right,2864,true,NA,NA,NA,NA,NA,NA,NA,NA
vaQXaiDl,3z33ic0jd3zsmh7cb6nqm2m9m84v9l,3p59jyt76px4wpgic4dy0hm2nunt25,vaQXaiDl,2020-0188,2021-10-31,08:52:25,10:37:24,NA,incomplete,false,true,NA,NA,3,33,NA,purple,m_s_012.jpg,NA,NA,NA,NA,NA,unpleasant,pleasant,NA,NA,NA,NA,NA,right,2184,true,NA,NA,NA,NA,NA,NA,NA,NA
vaQXaiDl,3z33ic0jd3zsmh7cb6nqm2m9m84v9l,3p59jyt76px4wpgic4dy0hm2nunt25,vaQXaiDl,2020-0188,2021-10-31,08:52:25,10:37:24,NA,incomplete,false,true,NA,NA,3,34,NA,purple,n_s_022.jpg,NA,NA,NA,NA,NA,unpleasant,pleasant,NA,NA,NA,NA,NA,right,2705,true,NA,NA,NA,NA,NA,NA,NA,NA
vaQXaiDl,3z33ic0jd3zsmh7cb6nqm2m9m84v9l,3p59jyt76px4wpgic4dy0hm2nunt25,vaQXaiDl,2020-0188,2021-10-31,08:52:25,10:37:24,NA,incomplete,false,true,NA,NA,3,35,NA,purple,n_l_045.jpg,NA,NA,NA,NA,NA,pleasant,unpleasant,NA,NA,NA,NA,NA,none,0,false,NA,NA,NA,NA,NA,NA,NA,NA
vaQXaiDl,3z33ic0jd3zsmh7cb6nqm2m9m84v9l,3p59jyt76px4wpgic4dy0hm2nunt25,vaQXaiDl,2020-0188,2021-10-31,08:52:25,10:37:24,NA,incomplete,false,NA,NA,true,3,0,NA,NA,NA,left,n_l_065.jpg,purple,blue,NA,NA,NA,NA,NA,NA,NA,NA,NA,NaN,NA,6073,left,1,NA,NA,NA,NA,NA
vaQXaiDl,3z33ic0jd3zsmh7cb6nqm2m9m84v9l,3p59jyt76px4wpgic4dy0hm2nunt25,vaQXaiDl,2020-0188,2021-10-31,08:52:25,10:37:24,NA,incomplete,false,NA,NA,true,3,1,NA,NA,NA,left,m_l_059.jpg,gray,green,NA,NA,NA,NA,NA,NA,NA,NA,NA,NaN,NA,2889,right,0,NA,NA,NA,NA,NA
vaQXaiDl,3z33ic0jd3zsmh7cb6nqm2m9m84v9l,3p59jyt76px4wpgic4dy0hm2nunt25,vaQXaiDl,2020-0188,2021-10-31,08:52:25,10:37:24,NA,incomplete,false,NA,NA,true,3,2,NA,NA,NA,right,n_s_009.jpg,green,gray,NA,NA,NA,NA,NA,NA,NA,NA,NA,NaN,NA,2905,left,0,NA,NA,NA,NA,NA
vaQXaiDl,3z33ic0jd3zsmh7cb6nqm2m9m84v9l,3p59jyt76px4wpgic4dy0hm2nunt25,vaQXaiDl,2020-0188,2021-10-31,08:52:25,10:37:24,NA,incomplete,false,NA,NA,true,3,3,NA,NA,NA,left,n_s_040.jpg,yellow,red,NA,NA,NA,NA,NA,NA,NA,NA,NA,NaN,NA,3975,left,1,NA,NA,NA,NA,NA
vaQXaiDl,3z33ic0jd3zsmh7cb6nqm2m9m84v9l,3p59jyt76px4wpgic4dy0hm2nunt25,vaQXaiDl,2020-0188,2021-10-31,08:52:25,10:37:24,NA,incomplete,false,NA,NA,true,3,4,NA,NA,NA,left,n_s_084.jpg,purple,blue,NA,NA,NA,NA,NA,NA,NA,NA,NA,NaN,NA,2970,left,1,NA,NA,NA,NA,NA
vaQXaiDl,3z33ic0jd3zsmh7cb6nqm2m9m84v9l,3p59jyt76px4wpgic4dy0hm2nunt25,vaQXaiDl,2020-0188,2021-10-31,08:52:25,10:37:24,NA,incomplete,false,NA,NA,true,3,5,NA,NA,NA,left,m_s_029.jpg,red,yellow,NA,NA,NA,NA,NA,NA,NA,NA,NA,NaN,NA,4703,left,1,NA,NA,NA,NA,NA
vaQXaiDl,3z33ic0jd3zsmh7cb6nqm2m9m84v9l,3p59jyt76px4wpgic4dy0hm2nunt25,vaQXaiDl,2020-0188,2021-10-31,08:52:25,10:37:24,NA,incomplete,false,NA,NA,true,3,6,NA,NA,NA,right,m_l_028.jpg,red,blue,NA,NA,NA,NA,NA,NA,NA,NA,NA,NaN,NA,2469,right,1,NA,NA,NA,NA,NA
vaQXaiDl,3z33ic0jd3zsmh7cb6nqm2m9m84v9l,3p59jyt76px4wpgic4dy0hm2nunt25,vaQXaiDl,2020-0188,2021-10-31,08:52:25,10:37:24,NA,incomplete,false,NA,NA,true,3,7,NA,NA,NA,left,n_s_072.jpg,yellow,green,NA,NA,NA,NA,NA,NA,NA,NA,NA,NaN,NA,5508,right,0,NA,NA,NA,NA,NA
vaQXaiDl,3z33ic0jd3zsmh7cb6nqm2m9m84v9l,3p59jyt76px4wpgic4dy0hm2nunt25,vaQXaiDl,2020-0188,2021-10-31,08:52:25,10:37:24,NA,incomplete,false,NA,NA,true,3,8,NA,NA,NA,right,m_l_039.jpg,blue,red,NA,NA,NA,NA,NA,NA,NA,NA,NA,NaN,NA,3387,left,0,NA,NA,NA,NA,NA
vaQXaiDl,3z33ic0jd3zsmh7cb6nqm2m9m84v9l,3p59jyt76px4wpgic4dy0hm2nunt25,vaQXaiDl,2020-0188,2021-10-31,08:52:25,10:37:24,NA,incomplete,false,NA,NA,true,3,9,NA,NA,NA,left,n_l_084.jpg,green,yellow,NA,NA,NA,NA,NA,NA,NA,NA,NA,NaN,NA,2609,right,0,NA,NA,NA,NA,NA
vaQXaiDl,3z33ic0jd3zsmh7cb6nqm2m9m84v9l,3p59jyt76px4wpgic4dy0hm2nunt25,vaQXaiDl,2020-0188,2021-10-31,08:52:25,10:37:24,NA,incomplete,false,NA,NA,true,3,10,NA,NA,NA,left,n_s_068.jpg,blue,purple,NA,NA,NA,NA,NA,NA,NA,NA,NA,NaN,NA,1999,left,1,NA,NA,NA,NA,NA
vaQXaiDl,3z33ic0jd3zsmh7cb6nqm2m9m84v9l,3p59jyt76px4wpgic4dy0hm2nunt25,vaQXaiDl,2020-0188,2021-10-31,08:52:25,10:37:24,NA,incomplete,false,NA,NA,true,3,11,NA,NA,NA,left,n_l_098.jpg,red,yellow,NA,NA,NA,NA,NA,NA,NA,NA,NA,NaN,NA,3184,left,1,NA,NA,NA,NA,NA
vaQXaiDl,3z33ic0jd3zsmh7cb6nqm2m9m84v9l,3p59jyt76px4wpgic4dy0hm2nunt25,vaQXaiDl,2020-0188,2021-10-31,08:52:25,10:37:24,NA,incomplete,false,NA,NA,true,3,12,NA,NA,NA,left,m_s_052.jpg,blue,purple,NA,NA,NA,NA,NA,NA,NA,NA,NA,NaN,NA,2383,right,0,NA,NA,NA,NA,NA
vaQXaiDl,3z33ic0jd3zsmh7cb6nqm2m9m84v9l,3p59jyt76px4wpgic4dy0hm2nunt25,vaQXaiDl,2020-0188,2021-10-31,08:52:25,10:37:24,NA,incomplete,false,NA,NA,true,3,13,NA,NA,NA,left,n_l_033.jpg,green,yellow,NA,NA,NA,NA,NA,NA,NA,NA,NA,NaN,NA,2018,left,1,NA,NA,NA,NA,NA
vaQXaiDl,3z33ic0jd3zsmh7cb6nqm2m9m84v9l,3p59jyt76px4wpgic4dy0hm2nunt25,vaQXaiDl,2020-0188,2021-10-31,08:52:25,10:37:24,NA,incomplete,false,NA,NA,true,3,14,NA,NA,NA,left,m_l_113.jpg,yellow,red,NA,NA,NA,NA,NA,NA,NA,NA,NA,NaN,NA,3092,right,0,NA,NA,NA,NA,NA
vaQXaiDl,3z33ic0jd3zsmh7cb6nqm2m9m84v9l,3p59jyt76px4wpgic4dy0hm2nunt25,vaQXaiDl,2020-0188,2021-10-31,08:52:25,10:37:24,NA,incomplete,false,NA,NA,true,3,15,NA,NA,NA,right,m_l_027.jpg,gray,green,NA,NA,NA,NA,NA,NA,NA,NA,NA,NaN,NA,3264,left,0,NA,NA,NA,NA,NA
vaQXaiDl,3z33ic0jd3zsmh7cb6nqm2m9m84v9l,3p59jyt76px4wpgic4dy0hm2nunt25,vaQXaiDl,2020-0188,2021-10-31,08:52:25,10:37:24,NA,incomplete,false,NA,NA,true,3,16,NA,NA,NA,left,m_l_033.jpg,green,gray,NA,NA,NA,NA,NA,NA,NA,NA,NA,NaN,NA,2051,right,0,NA,NA,NA,NA,NA
vaQXaiDl,3z33ic0jd3zsmh7cb6nqm2m9m84v9l,3p59jyt76px4wpgic4dy0hm2nunt25,vaQXaiDl,2020-0188,2021-10-31,08:52:25,10:37:24,NA,incomplete,false,NA,NA,true,3,17,NA,NA,NA,left,n_s_103.jpg,gray,green,NA,NA,NA,NA,NA,NA,NA,NA,NA,NaN,NA,3011,left,1,NA,NA,NA,NA,NA
vaQXaiDl,3z33ic0jd3zsmh7cb6nqm2m9m84v9l,3p59jyt76px4wpgic4dy0hm2nunt25,vaQXaiDl,2020-0188,2021-10-31,08:52:25,10:37:24,NA,incomplete,false,NA,NA,true,3,18,NA,NA,NA,right,n_l_045.jpg,blue,purple,NA,NA,NA,NA,NA,NA,NA,NA,NA,NaN,NA,3332,right,1,NA,NA,NA,NA,NA
vaQXaiDl,3z33ic0jd3zsmh7cb6nqm2m9m84v9l,3p59jyt76px4wpgic4dy0hm2nunt25,vaQXaiDl,2020-0188,2021-10-31,08:52:25,10:37:24,NA,incomplete,false,NA,NA,true,3,19,NA,NA,NA,right,m_s_085.jpg,yellow,red,NA,NA,NA,NA,NA,NA,NA,NA,NA,NaN,NA,2680,right,1,NA,NA,NA,NA,NA
vaQXaiDl,3z33ic0jd3zsmh7cb6nqm2m9m84v9l,3p59jyt76px4wpgic4dy0hm2nunt25,vaQXaiDl,2020-0188,2021-10-31,08:52:25,10:37:24,NA,incomplete,false,NA,NA,true,3,20,NA,NA,NA,left,n_l_115.jpg,blue,red,NA,NA,NA,NA,NA,NA,NA,NA,NA,NaN,NA,2820,left,1,NA,NA,NA,NA,NA
vaQXaiDl,3z33ic0jd3zsmh7cb6nqm2m9m84v9l,3p59jyt76px4wpgic4dy0hm2nunt25,vaQXaiDl,2020-0188,2021-10-31,08:52:25,10:37:24,NA,incomplete,false,NA,NA,true,3,21,NA,NA,NA,left,n_s_077.jpg,yellow,red,NA,NA,NA,NA,NA,NA,NA,NA,NA,NaN,NA,3394,left,1,NA,NA,NA,NA,NA
vaQXaiDl,3z33ic0jd3zsmh7cb6nqm2m9m84v9l,3p59jyt76px4wpgic4dy0hm2nunt25,vaQXaiDl,2020-0188,2021-10-31,08:52:25,10:37:24,NA,incomplete,false,NA,true,NA,3,0,NA,NA,NA,right,NA,NA,NA,absent,NA,NA,n_s_103.jpg,gray,m_l_059.jpg,gray,within,NA,NaN,NA,NA,NA,NA,right,3839,1,2,2858
vaQXaiDl,3z33ic0jd3zsmh7cb6nqm2m9m84v9l,3p59jyt76px4wpgic4dy0hm2nunt25,vaQXaiDl,2020-0188,2021-10-31,08:52:25,10:37:24,NA,incomplete,false,NA,true,NA,3,1,NA,NA,NA,left,NA,NA,NA,absent,NA,NA,m_s_052.jpg,blue,n_l_065.jpg,purple,between,NA,NaN,NA,NA,NA,NA,left,2829,1,2,2677
vaQXaiDl,3z33ic0jd3zsmh7cb6nqm2m9m84v9l,3p59jyt76px4wpgic4dy0hm2nunt25,vaQXaiDl,2020-0188,2021-10-31,08:52:25,10:37:24,NA,incomplete,false,NA,true,NA,3,2,NA,NA,NA,left,NA,NA,NA,absent,NA,NA,n_l_033.jpg,green,n_s_040.jpg,yellow,between,NA,NaN,NA,NA,NA,NA,left,3656,1,1,2073
vaQXaiDl,3z33ic0jd3zsmh7cb6nqm2m9m84v9l,3p59jyt76px4wpgic4dy0hm2nunt25,vaQXaiDl,2020-0188,2021-10-31,08:52:25,10:37:24,NA,incomplete,false,NA,true,NA,3,3,NA,NA,NA,right,NA,NA,NA,absent,NA,NA,m_l_039.jpg,red,n_l_098.jpg,red,within,NA,NaN,NA,NA,NA,NA,left,2807,0,1,2004
vaQXaiDl,3z33ic0jd3zsmh7cb6nqm2m9m84v9l,3p59jyt76px4wpgic4dy0hm2nunt25,vaQXaiDl,2020-0188,2021-10-31,08:52:25,10:37:24,NA,incomplete,false,NA,true,NA,3,4,NA,NA,NA,left,NA,NA,NA,absent,NA,NA,n_s_009.jpg,gray,n_l_084.jpg,green,between,NA,NaN,NA,NA,NA,NA,right,3933,0,1,2194
vaQXaiDl,3z33ic0jd3zsmh7cb6nqm2m9m84v9l,3p59jyt76px4wpgic4dy0hm2nunt25,vaQXaiDl,2020-0188,2021-10-31,08:52:25,10:37:24,NA,incomplete,false,NA,true,NA,3,5,NA,NA,NA,left,NA,NA,NA,absent,NA,NA,m_l_113.jpg,yellow,n_s_077.jpg,yellow,within,NA,NaN,NA,NA,NA,NA,right,4149,0,1,2183
vaQXaiDl,3z33ic0jd3zsmh7cb6nqm2m9m84v9l,3p59jyt76px4wpgic4dy0hm2nunt25,vaQXaiDl,2020-0188,2021-10-31,08:52:25,10:37:24,NA,incomplete,false,NA,true,NA,3,6,NA,NA,NA,left,NA,NA,NA,absent,NA,NA,m_l_033.jpg,green,m_l_027.jpg,green,within,NA,NaN,NA,NA,NA,NA,left,4807,1,1,2074
vaQXaiDl,3z33ic0jd3zsmh7cb6nqm2m9m84v9l,3p59jyt76px4wpgic4dy0hm2nunt25,vaQXaiDl,2020-0188,2021-10-31,08:52:25,10:37:24,NA,incomplete,false,NA,true,NA,3,7,NA,NA,NA,right,NA,NA,NA,absent,NA,NA,m_s_085.jpg,red,n_s_072.jpg,yellow,between,NA,NaN,NA,NA,NA,NA,right,4653,1,1,1459
vaQXaiDl,3z33ic0jd3zsmh7cb6nqm2m9m84v9l,3p59jyt76px4wpgic4dy0hm2nunt25,vaQXaiDl,2020-0188,2021-10-31,08:52:25,10:37:24,NA,incomplete,false,NA,true,NA,3,8,NA,NA,NA,right,NA,NA,NA,absent,NA,NA,n_l_045.jpg,purple,n_s_084.jpg,purple,within,NA,NaN,NA,NA,NA,NA,right,4019,1,2,2261
vaQXaiDl,3z33ic0jd3zsmh7cb6nqm2m9m84v9l,3p59jyt76px4wpgic4dy0hm2nunt25,vaQXaiDl,2020-0188,2021-10-31,08:52:25,10:37:24,NA,incomplete,false,NA,true,NA,3,9,NA,NA,NA,right,NA,NA,NA,absent,NA,NA,m_l_028.jpg,blue,n_l_115.jpg,blue,within,NA,NaN,NA,NA,NA,NA,left,5194,0,1,2685
vaQXaiDl,3z33ic0jd3zsmh7cb6nqm2m9m84v9l,3p59jyt76px4wpgic4dy0hm2nunt25,vaQXaiDl,2020-0188,2021-10-31,08:52:25,10:37:24,NA,incomplete,false,NA,true,NA,3,10,NA,NA,NA,left,NA,NA,NA,absent,NA,NA,m_s_029.jpg,red,n_s_068.jpg,blue,between,NA,NaN,NA,NA,NA,NA,right,3168,0,1,1545
vaQXaiDl,3z33ic0jd3zsmh7cb6nqm2m9m84v9l,3p59jyt76px4wpgic4dy0hm2nunt25,vaQXaiDl,2020-0188,2021-10-31,08:52:25,10:37:24,NA,incomplete,false,true,NA,NA,4,0,NA,white,n_l_011.jpg,NA,NA,NA,NA,NA,pleasant,unpleasant,NA,NA,NA,NA,NA,left,2403,true,NA,NA,NA,NA,NA,NA,NA,NA
vaQXaiDl,3z33ic0jd3zsmh7cb6nqm2m9m84v9l,3p59jyt76px4wpgic4dy0hm2nunt25,vaQXaiDl,2020-0188,2021-10-31,08:52:25,10:37:24,NA,incomplete,false,true,NA,NA,4,1,NA,white,n_l_092.jpg,NA,NA,NA,NA,NA,unpleasant,pleasant,NA,NA,NA,NA,NA,left,2174,true,NA,NA,NA,NA,NA,NA,NA,NA
vaQXaiDl,3z33ic0jd3zsmh7cb6nqm2m9m84v9l,3p59jyt76px4wpgic4dy0hm2nunt25,vaQXaiDl,2020-0188,2021-10-31,08:52:25,10:37:24,NA,incomplete,false,true,NA,NA,4,2,NA,white,m_l_052.jpg,NA,NA,NA,NA,NA,pleasant,unpleasant,NA,NA,NA,NA,NA,none,0,false,NA,NA,NA,NA,NA,NA,NA,NA
vaQXaiDl,3z33ic0jd3zsmh7cb6nqm2m9m84v9l,3p59jyt76px4wpgic4dy0hm2nunt25,vaQXaiDl,2020-0188,2021-10-31,08:52:25,10:37:24,NA,incomplete,false,true,NA,NA,4,3,NA,white,n_s_052.jpg,NA,NA,NA,NA,NA,pleasant,unpleasant,NA,NA,NA,NA,NA,left,1719,true,NA,NA,NA,NA,NA,NA,NA,NA
vaQXaiDl,3z33ic0jd3zsmh7cb6nqm2m9m84v9l,3p59jyt76px4wpgic4dy0hm2nunt25,vaQXaiDl,2020-0188,2021-10-31,08:52:25,10:37:24,NA,incomplete,false,true,NA,NA,4,4,NA,white,n_s_096.jpg,NA,NA,NA,NA,NA,pleasant,unpleasant,NA,NA,NA,NA,NA,left,2845,true,NA,NA,NA,NA,NA,NA,NA,NA
vaQXaiDl,3z33ic0jd3zsmh7cb6nqm2m9m84v9l,3p59jyt76px4wpgic4dy0hm2nunt25,vaQXaiDl,2020-0188,2021-10-31,08:52:25,10:37:24,NA,incomplete,false,true,NA,NA,4,5,NA,white,n_s_102.jpg,NA,NA,NA,NA,NA,unpleasant,pleasant,NA,NA,NA,NA,NA,right,2083,true,NA,NA,NA,NA,NA,NA,NA,NA
vaQXaiDl,3z33ic0jd3zsmh7cb6nqm2m9m84v9l,3p59jyt76px4wpgic4dy0hm2nunt25,vaQXaiDl,2020-0188,2021-10-31,08:52:25,10:37:24,NA,incomplete,false,true,NA,NA,4,6,NA,brown,n_s_016.jpg,NA,NA,NA,NA,NA,unpleasant,pleasant,NA,NA,NA,NA,NA,right,2020,true,NA,NA,NA,NA,NA,NA,NA,NA
vaQXaiDl,3z33ic0jd3zsmh7cb6nqm2m9m84v9l,3p59jyt76px4wpgic4dy0hm2nunt25,vaQXaiDl,2020-0188,2021-10-31,08:52:25,10:37:24,NA,incomplete,false,true,NA,NA,4,7,NA,brown,n_s_025.jpg,NA,NA,NA,NA,NA,unpleasant,pleasant,NA,NA,NA,NA,NA,left,2451,true,NA,NA,NA,NA,NA,NA,NA,NA
vaQXaiDl,3z33ic0jd3zsmh7cb6nqm2m9m84v9l,3p59jyt76px4wpgic4dy0hm2nunt25,vaQXaiDl,2020-0188,2021-10-31,08:52:25,10:37:24,NA,incomplete,false,true,NA,NA,4,8,NA,brown,n_l_075.jpg,NA,NA,NA,NA,NA,unpleasant,pleasant,NA,NA,NA,NA,NA,left,2269,true,NA,NA,NA,NA,NA,NA,NA,NA
vaQXaiDl,3z33ic0jd3zsmh7cb6nqm2m9m84v9l,3p59jyt76px4wpgic4dy0hm2nunt25,vaQXaiDl,2020-0188,2021-10-31,08:52:25,10:37:24,NA,incomplete,false,true,NA,NA,4,9,NA,brown,m_l_082.jpg,NA,NA,NA,NA,NA,pleasant,unpleasant,NA,NA,NA,NA,NA,left,1781,true,NA,NA,NA,NA,NA,NA,NA,NA
vaQXaiDl,3z33ic0jd3zsmh7cb6nqm2m9m84v9l,3p59jyt76px4wpgic4dy0hm2nunt25,vaQXaiDl,2020-0188,2021-10-31,08:52:25,10:37:24,NA,incomplete,false,true,NA,NA,4,10,NA,brown,m_s_114.jpg,NA,NA,NA,NA,NA,pleasant,unpleasant,NA,NA,NA,NA,NA,left,2521,true,NA,NA,NA,NA,NA,NA,NA,NA
vaQXaiDl,3z33ic0jd3zsmh7cb6nqm2m9m84v9l,3p59jyt76px4wpgic4dy0hm2nunt25,vaQXaiDl,2020-0188,2021-10-31,08:52:25,10:37:24,NA,incomplete,false,true,NA,NA,4,11,NA,brown,m_l_035.jpg,NA,NA,NA,NA,NA,pleasant,unpleasant,NA,NA,NA,NA,NA,left,2984,true,NA,NA,NA,NA,NA,NA,NA,NA
vaQXaiDl,3z33ic0jd3zsmh7cb6nqm2m9m84v9l,3p59jyt76px4wpgic4dy0hm2nunt25,vaQXaiDl,2020-0188,2021-10-31,08:52:25,10:37:24,NA,incomplete,false,true,NA,NA,4,12,NA,black,n_s_089.jpg,NA,NA,NA,NA,NA,unpleasant,pleasant,NA,NA,NA,NA,NA,left,2022,true,NA,NA,NA,NA,NA,NA,NA,NA
vaQXaiDl,3z33ic0jd3zsmh7cb6nqm2m9m84v9l,3p59jyt76px4wpgic4dy0hm2nunt25,vaQXaiDl,2020-0188,2021-10-31,08:52:25,10:37:24,NA,incomplete,false,true,NA,NA,4,13,NA,black,m_s_054.jpg,NA,NA,NA,NA,NA,unpleasant,pleasant,NA,NA,NA,NA,NA,left,1399,true,NA,NA,NA,NA,NA,NA,NA,NA
vaQXaiDl,3z33ic0jd3zsmh7cb6nqm2m9m84v9l,3p59jyt76px4wpgic4dy0hm2nunt25,vaQXaiDl,2020-0188,2021-10-31,08:52:25,10:37:24,NA,incomplete,false,true,NA,NA,4,14,NA,black,m_s_014.jpg,NA,NA,NA,NA,NA,unpleasant,pleasant,NA,NA,NA,NA,NA,right,2569,true,NA,NA,NA,NA,NA,NA,NA,NA
vaQXaiDl,3z33ic0jd3zsmh7cb6nqm2m9m84v9l,3p59jyt76px4wpgic4dy0hm2nunt25,vaQXaiDl,2020-0188,2021-10-31,08:52:25,10:37:24,NA,incomplete,false,true,NA,NA,4,15,NA,black,m_s_037.jpg,NA,NA,NA,NA,NA,unpleasant,pleasant,NA,NA,NA,NA,NA,right,2433,true,NA,NA,NA,NA,NA,NA,NA,NA
vaQXaiDl,3z33ic0jd3zsmh7cb6nqm2m9m84v9l,3p59jyt76px4wpgic4dy0hm2nunt25,vaQXaiDl,2020-0188,2021-10-31,08:52:25,10:37:24,NA,incomplete,false,true,NA,NA,4,16,NA,black,n_s_078.jpg,NA,NA,NA,NA,NA,pleasant,unpleasant,NA,NA,NA,NA,NA,left,3056,true,NA,NA,NA,NA,NA,NA,NA,NA
vaQXaiDl,3z33ic0jd3zsmh7cb6nqm2m9m84v9l,3p59jyt76px4wpgic4dy0hm2nunt25,vaQXaiDl,2020-0188,2021-10-31,08:52:25,10:37:24,NA,incomplete,false,true,NA,NA,4,17,NA,black,n_s_065.jpg,NA,NA,NA,NA,NA,pleasant,unpleasant,NA,NA,NA,NA,NA,right,2176,true,NA,NA,NA,NA,NA,NA,NA,NA
vaQXaiDl,3z33ic0jd3zsmh7cb6nqm2m9m84v9l,3p59jyt76px4wpgic4dy0hm2nunt25,vaQXaiDl,2020-0188,2021-10-31,08:52:25,10:37:24,NA,incomplete,false,true,NA,NA,4,18,NA,orange,n_s_007.jpg,NA,NA,NA,NA,NA,pleasant,unpleasant,NA,NA,NA,NA,NA,right,1799,true,NA,NA,NA,NA,NA,NA,NA,NA
vaQXaiDl,3z33ic0jd3zsmh7cb6nqm2m9m84v9l,3p59jyt76px4wpgic4dy0hm2nunt25,vaQXaiDl,2020-0188,2021-10-31,08:52:25,10:37:24,NA,incomplete,false,true,NA,NA,4,19,NA,orange,n_l_037.jpg,NA,NA,NA,NA,NA,unpleasant,pleasant,NA,NA,NA,NA,NA,left,3167,true,NA,NA,NA,NA,NA,NA,NA,NA
vaQXaiDl,3z33ic0jd3zsmh7cb6nqm2m9m84v9l,3p59jyt76px4wpgic4dy0hm2nunt25,vaQXaiDl,2020-0188,2021-10-31,08:52:25,10:37:24,NA,incomplete,false,true,NA,NA,4,20,NA,orange,n_l_111.jpg,NA,NA,NA,NA,NA,pleasant,unpleasant,NA,NA,NA,NA,NA,left,3182,true,NA,NA,NA,NA,NA,NA,NA,NA
vaQXaiDl,3z33ic0jd3zsmh7cb6nqm2m9m84v9l,3p59jyt76px4wpgic4dy0hm2nunt25,vaQXaiDl,2020-0188,2021-10-31,08:52:25,10:37:24,NA,incomplete,false,true,NA,NA,4,21,NA,orange,m_s_074.jpg,NA,NA,NA,NA,NA,pleasant,unpleasant,NA,NA,NA,NA,NA,right,2706,true,NA,NA,NA,NA,NA,NA,NA,NA
vaQXaiDl,3z33ic0jd3zsmh7cb6nqm2m9m84v9l,3p59jyt76px4wpgic4dy0hm2nunt25,vaQXaiDl,2020-0188,2021-10-31,08:52:25,10:37:24,NA,incomplete,false,true,NA,NA,4,22,NA,orange,n_l_060.jpg,NA,NA,NA,NA,NA,unpleasant,pleasant,NA,NA,NA,NA,NA,right,1844,true,NA,NA,NA,NA,NA,NA,NA,NA
vaQXaiDl,3z33ic0jd3zsmh7cb6nqm2m9m84v9l,3p59jyt76px4wpgic4dy0hm2nunt25,vaQXaiDl,2020-0188,2021-10-31,08:52:25,10:37:24,NA,incomplete,false,true,NA,NA,4,23,NA,orange,m_s_036.jpg,NA,NA,NA,NA,NA,pleasant,unpleasant,NA,NA,NA,NA,NA,none,0,false,NA,NA,NA,NA,NA,NA,NA,NA
vaQXaiDl,3z33ic0jd3zsmh7cb6nqm2m9m84v9l,3p59jyt76px4wpgic4dy0hm2nunt25,vaQXaiDl,2020-0188,2021-10-31,08:52:25,10:37:24,NA,incomplete,false,true,NA,NA,4,24,NA,red,m_s_075.jpg,NA,NA,NA,NA,NA,pleasant,unpleasant,NA,NA,NA,NA,NA,left,1797,true,NA,NA,NA,NA,NA,NA,NA,NA
vaQXaiDl,3z33ic0jd3zsmh7cb6nqm2m9m84v9l,3p59jyt76px4wpgic4dy0hm2nunt25,vaQXaiDl,2020-0188,2021-10-31,08:52:25,10:37:24,NA,incomplete,false,true,NA,NA,4,25,NA,red,n_l_069.jpg,NA,NA,NA,NA,NA,pleasant,unpleasant,NA,NA,NA,NA,NA,left,3008,true,NA,NA,NA,NA,NA,NA,NA,NA
vaQXaiDl,3z33ic0jd3zsmh7cb6nqm2m9m84v9l,3p59jyt76px4wpgic4dy0hm2nunt25,vaQXaiDl,2020-0188,2021-10-31,08:52:25,10:37:24,NA,incomplete,false,true,NA,NA,4,26,NA,red,m_s_045.jpg,NA,NA,NA,NA,NA,pleasant,unpleasant,NA,NA,NA,NA,NA,left,2046,true,NA,NA,NA,NA,NA,NA,NA,NA
vaQXaiDl,3z33ic0jd3zsmh7cb6nqm2m9m84v9l,3p59jyt76px4wpgic4dy0hm2nunt25,vaQXaiDl,2020-0188,2021-10-31,08:52:25,10:37:24,NA,incomplete,false,true,NA,NA,4,27,NA,red,n_s_011.jpg,NA,NA,NA,NA,NA,pleasant,unpleasant,NA,NA,NA,NA,NA,left,1474,true,NA,NA,NA,NA,NA,NA,NA,NA
vaQXaiDl,3z33ic0jd3zsmh7cb6nqm2m9m84v9l,3p59jyt76px4wpgic4dy0hm2nunt25,vaQXaiDl,2020-0188,2021-10-31,08:52:25,10:37:24,NA,incomplete,false,true,NA,NA,4,28,NA,red,m_s_027.jpg,NA,NA,NA,NA,NA,unpleasant,pleasant,NA,NA,NA,NA,NA,right,2435,true,NA,NA,NA,NA,NA,NA,NA,NA
vaQXaiDl,3z33ic0jd3zsmh7cb6nqm2m9m84v9l,3p59jyt76px4wpgic4dy0hm2nunt25,vaQXaiDl,2020-0188,2021-10-31,08:52:25,10:37:24,NA,incomplete,false,true,NA,NA,4,29,NA,red,m_l_056.jpg,NA,NA,NA,NA,NA,pleasant,unpleasant,NA,NA,NA,NA,NA,left,1927,true,NA,NA,NA,NA,NA,NA,NA,NA
vaQXaiDl,3z33ic0jd3zsmh7cb6nqm2m9m84v9l,3p59jyt76px4wpgic4dy0hm2nunt25,vaQXaiDl,2020-0188,2021-10-31,08:52:25,10:37:24,NA,incomplete,false,true,NA,NA,4,30,NA,gray,n_s_001.jpg,NA,NA,NA,NA,NA,unpleasant,pleasant,NA,NA,NA,NA,NA,right,2176,true,NA,NA,NA,NA,NA,NA,NA,NA
vaQXaiDl,3z33ic0jd3zsmh7cb6nqm2m9m84v9l,3p59jyt76px4wpgic4dy0hm2nunt25,vaQXaiDl,2020-0188,2021-10-31,08:52:25,10:37:24,NA,incomplete,false,true,NA,NA,4,31,NA,gray,m_l_010.jpg,NA,NA,NA,NA,NA,unpleasant,pleasant,NA,NA,NA,NA,NA,right,2170,true,NA,NA,NA,NA,NA,NA,NA,NA
vaQXaiDl,3z33ic0jd3zsmh7cb6nqm2m9m84v9l,3p59jyt76px4wpgic4dy0hm2nunt25,vaQXaiDl,2020-0188,2021-10-31,08:52:25,10:37:24,NA,incomplete,false,true,NA,NA,4,32,NA,gray,m_l_102.jpg,NA,NA,NA,NA,NA,pleasant,unpleasant,NA,NA,NA,NA,NA,left,2270,true,NA,NA,NA,NA,NA,NA,NA,NA
vaQXaiDl,3z33ic0jd3zsmh7cb6nqm2m9m84v9l,3p59jyt76px4wpgic4dy0hm2nunt25,vaQXaiDl,2020-0188,2021-10-31,08:52:25,10:37:24,NA,incomplete,false,true,NA,NA,4,33,NA,gray,m_s_046.jpg,NA,NA,NA,NA,NA,unpleasant,pleasant,NA,NA,NA,NA,NA,right,1957,true,NA,NA,NA,NA,NA,NA,NA,NA
vaQXaiDl,3z33ic0jd3zsmh7cb6nqm2m9m84v9l,3p59jyt76px4wpgic4dy0hm2nunt25,vaQXaiDl,2020-0188,2021-10-31,08:52:25,10:37:24,NA,incomplete,false,true,NA,NA,4,34,NA,gray,m_l_064.jpg,NA,NA,NA,NA,NA,unpleasant,pleasant,NA,NA,NA,NA,NA,right,2531,true,NA,NA,NA,NA,NA,NA,NA,NA
vaQXaiDl,3z33ic0jd3zsmh7cb6nqm2m9m84v9l,3p59jyt76px4wpgic4dy0hm2nunt25,vaQXaiDl,2020-0188,2021-10-31,08:52:25,10:37:24,NA,incomplete,false,true,NA,NA,4,35,NA,gray,m_s_032.jpg,NA,NA,NA,NA,NA,unpleasant,pleasant,NA,NA,NA,NA,NA,right,2301,true,NA,NA,NA,NA,NA,NA,NA,NA
vaQXaiDl,3z33ic0jd3zsmh7cb6nqm2m9m84v9l,3p59jyt76px4wpgic4dy0hm2nunt25,vaQXaiDl,2020-0188,2021-10-31,08:52:25,10:37:24,NA,incomplete,false,NA,NA,true,4,0,NA,NA,NA,left,m_l_102.jpg,gray,red,NA,NA,NA,NA,NA,NA,NA,NA,NA,NaN,NA,5378,left,1,NA,NA,NA,NA,NA
vaQXaiDl,3z33ic0jd3zsmh7cb6nqm2m9m84v9l,3p59jyt76px4wpgic4dy0hm2nunt25,vaQXaiDl,2020-0188,2021-10-31,08:52:25,10:37:24,NA,incomplete,false,NA,NA,true,4,1,NA,NA,NA,right,n_l_060.jpg,black,orange,NA,NA,NA,NA,NA,NA,NA,NA,NA,NaN,NA,4551,right,1,NA,NA,NA,NA,NA
vaQXaiDl,3z33ic0jd3zsmh7cb6nqm2m9m84v9l,3p59jyt76px4wpgic4dy0hm2nunt25,vaQXaiDl,2020-0188,2021-10-31,08:52:25,10:37:24,NA,incomplete,false,NA,NA,true,4,2,NA,NA,NA,right,m_s_032.jpg,red,gray,NA,NA,NA,NA,NA,NA,NA,NA,NA,NaN,NA,2389,right,1,NA,NA,NA,NA,NA
vaQXaiDl,3z33ic0jd3zsmh7cb6nqm2m9m84v9l,3p59jyt76px4wpgic4dy0hm2nunt25,vaQXaiDl,2020-0188,2021-10-31,08:52:25,10:37:24,NA,incomplete,false,NA,NA,true,4,3,NA,NA,NA,right,m_l_010.jpg,red,gray,NA,NA,NA,NA,NA,NA,NA,NA,NA,NaN,NA,3850,right,1,NA,NA,NA,NA,NA
vaQXaiDl,3z33ic0jd3zsmh7cb6nqm2m9m84v9l,3p59jyt76px4wpgic4dy0hm2nunt25,vaQXaiDl,2020-0188,2021-10-31,08:52:25,10:37:24,NA,incomplete,false,NA,NA,true,4,4,NA,NA,NA,right,n_s_025.jpg,black,brown,NA,NA,NA,NA,NA,NA,NA,NA,NA,NaN,NA,3730,right,1,NA,NA,NA,NA,NA
vaQXaiDl,3z33ic0jd3zsmh7cb6nqm2m9m84v9l,3p59jyt76px4wpgic4dy0hm2nunt25,vaQXaiDl,2020-0188,2021-10-31,08:52:25,10:37:24,NA,incomplete,false,NA,NA,true,4,5,NA,NA,NA,right,n_l_069.jpg,orange,red,NA,NA,NA,NA,NA,NA,NA,NA,NA,NaN,NA,3635,left,0,NA,NA,NA,NA,NA
vaQXaiDl,3z33ic0jd3zsmh7cb6nqm2m9m84v9l,3p59jyt76px4wpgic4dy0hm2nunt25,vaQXaiDl,2020-0188,2021-10-31,08:52:25,10:37:24,NA,incomplete,false,NA,NA,true,4,6,NA,NA,NA,right,n_s_065.jpg,orange,black,NA,NA,NA,NA,NA,NA,NA,NA,NA,NaN,NA,2899,left,0,NA,NA,NA,NA,NA
vaQXaiDl,3z33ic0jd3zsmh7cb6nqm2m9m84v9l,3p59jyt76px4wpgic4dy0hm2nunt25,vaQXaiDl,2020-0188,2021-10-31,08:52:25,10:37:24,NA,incomplete,false,NA,NA,true,4,7,NA,NA,NA,left,m_s_036.jpg,orange,red,NA,NA,NA,NA,NA,NA,NA,NA,NA,NaN,NA,2478,left,1,NA,NA,NA,NA,NA
vaQXaiDl,3z33ic0jd3zsmh7cb6nqm2m9m84v9l,3p59jyt76px4wpgic4dy0hm2nunt25,vaQXaiDl,2020-0188,2021-10-31,08:52:25,10:37:24,NA,incomplete,false,NA,NA,true,4,8,NA,NA,NA,right,m_s_045.jpg,orange,red,NA,NA,NA,NA,NA,NA,NA,NA,NA,NaN,NA,4514,right,1,NA,NA,NA,NA,NA
vaQXaiDl,3z33ic0jd3zsmh7cb6nqm2m9m84v9l,3p59jyt76px4wpgic4dy0hm2nunt25,vaQXaiDl,2020-0188,2021-10-31,08:52:25,10:37:24,NA,incomplete,false,NA,NA,true,4,9,NA,NA,NA,right,n_s_096.jpg,brown,white,NA,NA,NA,NA,NA,NA,NA,NA,NA,NaN,NA,3189,right,1,NA,NA,NA,NA,NA
vaQXaiDl,3z33ic0jd3zsmh7cb6nqm2m9m84v9l,3p59jyt76px4wpgic4dy0hm2nunt25,vaQXaiDl,2020-0188,2021-10-31,08:52:25,10:37:24,NA,incomplete,false,NA,NA,true,4,10,NA,NA,NA,left,n_l_092.jpg,white,brown,NA,NA,NA,NA,NA,NA,NA,NA,NA,NaN,NA,2105,left,1,NA,NA,NA,NA,NA
vaQXaiDl,3z33ic0jd3zsmh7cb6nqm2m9m84v9l,3p59jyt76px4wpgic4dy0hm2nunt25,vaQXaiDl,2020-0188,2021-10-31,08:52:25,10:37:24,NA,incomplete,false,NA,NA,true,4,11,NA,NA,NA,right,n_l_111.jpg,red,orange,NA,NA,NA,NA,NA,NA,NA,NA,NA,NaN,NA,3429,right,1,NA,NA,NA,NA,NA
vaQXaiDl,3z33ic0jd3zsmh7cb6nqm2m9m84v9l,3p59jyt76px4wpgic4dy0hm2nunt25,vaQXaiDl,2020-0188,2021-10-31,08:52:25,10:37:24,NA,incomplete,false,NA,NA,true,4,12,NA,NA,NA,left,n_s_078.jpg,black,brown,NA,NA,NA,NA,NA,NA,NA,NA,NA,NaN,NA,2754,left,1,NA,NA,NA,NA,NA
vaQXaiDl,3z33ic0jd3zsmh7cb6nqm2m9m84v9l,3p59jyt76px4wpgic4dy0hm2nunt25,vaQXaiDl,2020-0188,2021-10-31,08:52:25,10:37:24,NA,incomplete,false,NA,NA,true,4,13,NA,NA,NA,left,n_s_102.jpg,white,brown,NA,NA,NA,NA,NA,NA,NA,NA,NA,NaN,NA,6416,right,0,NA,NA,NA,NA,NA
vaQXaiDl,3z33ic0jd3zsmh7cb6nqm2m9m84v9l,3p59jyt76px4wpgic4dy0hm2nunt25,vaQXaiDl,2020-0188,2021-10-31,08:52:25,10:37:24,NA,incomplete,false,NA,NA,true,4,14,NA,NA,NA,left,m_l_035.jpg,brown,white,NA,NA,NA,NA,NA,NA,NA,NA,NA,NaN,NA,2729,right,0,NA,NA,NA,NA,NA
vaQXaiDl,3z33ic0jd3zsmh7cb6nqm2m9m84v9l,3p59jyt76px4wpgic4dy0hm2nunt25,vaQXaiDl,2020-0188,2021-10-31,08:52:25,10:37:24,NA,incomplete,false,NA,NA,true,4,15,NA,NA,NA,left,m_s_114.jpg,brown,black,NA,NA,NA,NA,NA,NA,NA,NA,NA,NaN,NA,3673,left,1,NA,NA,NA,NA,NA
vaQXaiDl,3z33ic0jd3zsmh7cb6nqm2m9m84v9l,3p59jyt76px4wpgic4dy0hm2nunt25,vaQXaiDl,2020-0188,2021-10-31,08:52:25,10:37:24,NA,incomplete,false,NA,NA,true,4,16,NA,NA,NA,left,m_l_056.jpg,red,orange,NA,NA,NA,NA,NA,NA,NA,NA,NA,NaN,NA,2427,right,0,NA,NA,NA,NA,NA
vaQXaiDl,3z33ic0jd3zsmh7cb6nqm2m9m84v9l,3p59jyt76px4wpgic4dy0hm2nunt25,vaQXaiDl,2020-0188,2021-10-31,08:52:25,10:37:24,NA,incomplete,false,NA,NA,true,4,17,NA,NA,NA,right,m_s_014.jpg,orange,black,NA,NA,NA,NA,NA,NA,NA,NA,NA,NaN,NA,2164,left,0,NA,NA,NA,NA,NA
vaQXaiDl,3z33ic0jd3zsmh7cb6nqm2m9m84v9l,3p59jyt76px4wpgic4dy0hm2nunt25,vaQXaiDl,2020-0188,2021-10-31,08:52:25,10:37:24,NA,incomplete,false,NA,NA,true,4,18,NA,NA,NA,right,n_l_075.jpg,black,brown,NA,NA,NA,NA,NA,NA,NA,NA,NA,NaN,NA,2759,left,0,NA,NA,NA,NA,NA
vaQXaiDl,3z33ic0jd3zsmh7cb6nqm2m9m84v9l,3p59jyt76px4wpgic4dy0hm2nunt25,vaQXaiDl,2020-0188,2021-10-31,08:52:25,10:37:24,NA,incomplete,false,NA,NA,true,4,19,NA,NA,NA,left,m_s_027.jpg,red,orange,NA,NA,NA,NA,NA,NA,NA,NA,NA,NaN,NA,2223,right,0,NA,NA,NA,NA,NA
vaQXaiDl,3z33ic0jd3zsmh7cb6nqm2m9m84v9l,3p59jyt76px4wpgic4dy0hm2nunt25,vaQXaiDl,2020-0188,2021-10-31,08:52:25,10:37:24,NA,incomplete,false,NA,NA,true,4,20,NA,NA,NA,left,m_s_054.jpg,black,orange,NA,NA,NA,NA,NA,NA,NA,NA,NA,NaN,NA,4824,left,1,NA,NA,NA,NA,NA
vaQXaiDl,3z33ic0jd3zsmh7cb6nqm2m9m84v9l,3p59jyt76px4wpgic4dy0hm2nunt25,vaQXaiDl,2020-0188,2021-10-31,08:52:25,10:37:24,NA,incomplete,false,NA,NA,true,4,21,NA,NA,NA,left,n_l_037.jpg,orange,black,NA,NA,NA,NA,NA,NA,NA,NA,NA,NaN,NA,2998,left,1,NA,NA,NA,NA,NA
vaQXaiDl,3z33ic0jd3zsmh7cb6nqm2m9m84v9l,3p59jyt76px4wpgic4dy0hm2nunt25,vaQXaiDl,2020-0188,2021-10-31,08:52:25,10:37:24,NA,incomplete,false,NA,true,NA,4,0,NA,NA,NA,left,NA,NA,NA,absent,NA,NA,n_s_096.jpg,white,n_l_075.jpg,brown,between,NA,NaN,NA,NA,NA,NA,left,3603,1,1,2525
vaQXaiDl,3z33ic0jd3zsmh7cb6nqm2m9m84v9l,3p59jyt76px4wpgic4dy0hm2nunt25,vaQXaiDl,2020-0188,2021-10-31,08:52:25,10:37:24,NA,incomplete,false,NA,true,NA,4,1,NA,NA,NA,left,NA,NA,NA,absent,NA,NA,n_l_092.jpg,white,n_s_102.jpg,white,within,NA,NaN,NA,NA,NA,NA,left,2811,1,2,2797
vaQXaiDl,3z33ic0jd3zsmh7cb6nqm2m9m84v9l,3p59jyt76px4wpgic4dy0hm2nunt25,vaQXaiDl,2020-0188,2021-10-31,08:52:25,10:37:24,NA,incomplete,false,NA,true,NA,4,2,NA,NA,NA,right,NA,NA,NA,absent,NA,NA,m_s_045.jpg,red,n_l_060.jpg,orange,between,NA,NaN,NA,NA,NA,NA,right,8757,1,1,1461
vaQXaiDl,3z33ic0jd3zsmh7cb6nqm2m9m84v9l,3p59jyt76px4wpgic4dy0hm2nunt25,vaQXaiDl,2020-0188,2021-10-31,08:52:25,10:37:24,NA,incomplete,false,NA,true,NA,4,3,NA,NA,NA,left,NA,NA,NA,absent,NA,NA,n_s_025.jpg,brown,m_l_035.jpg,brown,within,NA,NaN,NA,NA,NA,NA,right,3556,0,1,1668
vaQXaiDl,3z33ic0jd3zsmh7cb6nqm2m9m84v9l,3p59jyt76px4wpgic4dy0hm2nunt25,vaQXaiDl,2020-0188,2021-10-31,08:52:25,10:37:24,NA,incomplete,false,NA,true,NA,4,4,NA,NA,NA,right,NA,NA,NA,absent,NA,NA,m_l_056.jpg,red,n_l_069.jpg,red,within,NA,NaN,NA,NA,NA,NA,right,4089,1,2,2995
vaQXaiDl,3z33ic0jd3zsmh7cb6nqm2m9m84v9l,3p59jyt76px4wpgic4dy0hm2nunt25,vaQXaiDl,2020-0188,2021-10-31,08:52:25,10:37:24,NA,incomplete,false,NA,true,NA,4,5,NA,NA,NA,left,NA,NA,NA,absent,NA,NA,m_s_027.jpg,red,m_l_102.jpg,gray,between,NA,NaN,NA,NA,NA,NA,left,3667,1,1,2149
vaQXaiDl,3z33ic0jd3zsmh7cb6nqm2m9m84v9l,3p59jyt76px4wpgic4dy0hm2nunt25,vaQXaiDl,2020-0188,2021-10-31,08:52:25,10:37:24,NA,incomplete,false,NA,true,NA,4,6,NA,NA,NA,left,NA,NA,NA,absent,NA,NA,m_s_114.jpg,brown,m_s_014.jpg,black,between,NA,NaN,NA,NA,NA,NA,left,3154,1,2,2229
vaQXaiDl,3z33ic0jd3zsmh7cb6nqm2m9m84v9l,3p59jyt76px4wpgic4dy0hm2nunt25,vaQXaiDl,2020-0188,2021-10-31,08:52:25,10:37:24,NA,incomplete,false,NA,true,NA,4,7,NA,NA,NA,left,NA,NA,NA,absent,NA,NA,n_s_078.jpg,black,n_l_111.jpg,orange,between,NA,NaN,NA,NA,NA,NA,left,3487,1,1,1891
vaQXaiDl,3z33ic0jd3zsmh7cb6nqm2m9m84v9l,3p59jyt76px4wpgic4dy0hm2nunt25,vaQXaiDl,2020-0188,2021-10-31,08:52:25,10:37:24,NA,incomplete,false,NA,true,NA,4,8,NA,NA,NA,right,NA,NA,NA,absent,NA,NA,m_s_032.jpg,gray,m_l_010.jpg,gray,within,NA,NaN,NA,NA,NA,NA,right,3823,1,2,2519
vaQXaiDl,3z33ic0jd3zsmh7cb6nqm2m9m84v9l,3p59jyt76px4wpgic4dy0hm2nunt25,vaQXaiDl,2020-0188,2021-10-31,08:52:25,10:37:24,NA,incomplete,false,NA,true,NA,4,9,NA,NA,NA,left,NA,NA,NA,absent,NA,NA,n_l_037.jpg,orange,m_s_036.jpg,orange,within,NA,NaN,NA,NA,NA,NA,left,3370,1,1,1613
vaQXaiDl,3z33ic0jd3zsmh7cb6nqm2m9m84v9l,3p59jyt76px4wpgic4dy0hm2nunt25,vaQXaiDl,2020-0188,2021-10-31,08:52:25,10:37:24,NA,incomplete,false,NA,true,NA,4,10,NA,NA,NA,right,NA,NA,NA,absent,NA,NA,n_s_065.jpg,black,m_s_054.jpg,black,within,NA,NaN,NA,NA,NA,NA,right,2968,1,1,1931
vaQXaiDl,3z33ic0jd3zsmh7cb6nqm2m9m84v9l,3p59jyt76px4wpgic4dy0hm2nunt25,vaQXaiDl,2020-0188,2021-10-31,08:52:25,10:37:24,NA,incomplete,false,true,NA,NA,5,0,NA,gray,m_l_060.jpg,NA,NA,NA,NA,NA,unpleasant,pleasant,NA,NA,NA,NA,NA,right,1537,true,NA,NA,NA,NA,NA,NA,NA,NA
vaQXaiDl,3z33ic0jd3zsmh7cb6nqm2m9m84v9l,3p59jyt76px4wpgic4dy0hm2nunt25,vaQXaiDl,2020-0188,2021-10-31,08:52:25,10:37:24,NA,incomplete,false,true,NA,NA,5,1,NA,gray,m_s_116.jpg,NA,NA,NA,NA,NA,unpleasant,pleasant,NA,NA,NA,NA,NA,left,2972,true,NA,NA,NA,NA,NA,NA,NA,NA
vaQXaiDl,3z33ic0jd3zsmh7cb6nqm2m9m84v9l,3p59jyt76px4wpgic4dy0hm2nunt25,vaQXaiDl,2020-0188,2021-10-31,08:52:25,10:37:24,NA,incomplete,false,true,NA,NA,5,2,NA,gray,n_l_072.jpg,NA,NA,NA,NA,NA,pleasant,unpleasant,NA,NA,NA,NA,NA,right,2010,true,NA,NA,NA,NA,NA,NA,NA,NA
vaQXaiDl,3z33ic0jd3zsmh7cb6nqm2m9m84v9l,3p59jyt76px4wpgic4dy0hm2nunt25,vaQXaiDl,2020-0188,2021-10-31,08:52:25,10:37:24,NA,incomplete,false,true,NA,NA,5,3,NA,gray,m_s_006.jpg,NA,NA,NA,NA,NA,unpleasant,pleasant,NA,NA,NA,NA,NA,left,2987,true,NA,NA,NA,NA,NA,NA,NA,NA
vaQXaiDl,3z33ic0jd3zsmh7cb6nqm2m9m84v9l,3p59jyt76px4wpgic4dy0hm2nunt25,vaQXaiDl,2020-0188,2021-10-31,08:52:25,10:37:24,NA,incomplete,false,true,NA,NA,5,4,NA,gray,n_l_106.jpg,NA,NA,NA,NA,NA,pleasant,unpleasant,NA,NA,NA,NA,NA,right,1938,true,NA,NA,NA,NA,NA,NA,NA,NA
vaQXaiDl,3z33ic0jd3zsmh7cb6nqm2m9m84v9l,3p59jyt76px4wpgic4dy0hm2nunt25,vaQXaiDl,2020-0188,2021-10-31,08:52:25,10:37:24,NA,incomplete,false,true,NA,NA,5,5,NA,gray,m_l_090.jpg,NA,NA,NA,NA,NA,unpleasant,pleasant,NA,NA,NA,NA,NA,right,2538,true,NA,NA,NA,NA,NA,NA,NA,NA
vaQXaiDl,3z33ic0jd3zsmh7cb6nqm2m9m84v9l,3p59jyt76px4wpgic4dy0hm2nunt25,vaQXaiDl,2020-0188,2021-10-31,08:52:25,10:37:24,NA,incomplete,false,true,NA,NA,5,6,NA,green,m_l_091.jpg,NA,NA,NA,NA,NA,pleasant,unpleasant,NA,NA,NA,NA,NA,none,0,false,NA,NA,NA,NA,NA,NA,NA,NA
vaQXaiDl,3z33ic0jd3zsmh7cb6nqm2m9m84v9l,3p59jyt76px4wpgic4dy0hm2nunt25,vaQXaiDl,2020-0188,2021-10-31,08:52:25,10:37:24,NA,incomplete,false,true,NA,NA,5,7,NA,green,m_l_080.jpg,NA,NA,NA,NA,NA,unpleasant,pleasant,NA,NA,NA,NA,NA,right,2148,true,NA,NA,NA,NA,NA,NA,NA,NA
vaQXaiDl,3z33ic0jd3zsmh7cb6nqm2m9m84v9l,3p59jyt76px4wpgic4dy0hm2nunt25,vaQXaiDl,2020-0188,2021-10-31,08:52:25,10:37:24,NA,incomplete,false,true,NA,NA,5,8,NA,green,m_l_013.jpg,NA,NA,NA,NA,NA,unpleasant,pleasant,NA,NA,NA,NA,NA,right,2472,true,NA,NA,NA,NA,NA,NA,NA,NA
vaQXaiDl,3z33ic0jd3zsmh7cb6nqm2m9m84v9l,3p59jyt76px4wpgic4dy0hm2nunt25,vaQXaiDl,2020-0188,2021-10-31,08:52:25,10:37:24,NA,incomplete,false,true,NA,NA,5,9,NA,green,n_s_091.jpg,NA,NA,NA,NA,NA,pleasant,unpleasant,NA,NA,NA,NA,NA,right,2046,true,NA,NA,NA,NA,NA,NA,NA,NA
vaQXaiDl,3z33ic0jd3zsmh7cb6nqm2m9m84v9l,3p59jyt76px4wpgic4dy0hm2nunt25,vaQXaiDl,2020-0188,2021-10-31,08:52:25,10:37:24,NA,incomplete,false,true,NA,NA,5,10,NA,green,n_s_093.jpg,NA,NA,NA,NA,NA,unpleasant,pleasant,NA,NA,NA,NA,NA,left,2325,true,NA,NA,NA,NA,NA,NA,NA,NA
vaQXaiDl,3z33ic0jd3zsmh7cb6nqm2m9m84v9l,3p59jyt76px4wpgic4dy0hm2nunt25,vaQXaiDl,2020-0188,2021-10-31,08:52:25,10:37:24,NA,incomplete,false,true,NA,NA,5,11,NA,green,m_s_044.jpg,NA,NA,NA,NA,NA,pleasant,unpleasant,NA,NA,NA,NA,NA,right,1898,true,NA,NA,NA,NA,NA,NA,NA,NA
vaQXaiDl,3z33ic0jd3zsmh7cb6nqm2m9m84v9l,3p59jyt76px4wpgic4dy0hm2nunt25,vaQXaiDl,2020-0188,2021-10-31,08:52:25,10:37:24,NA,incomplete,false,true,NA,NA,5,12,NA,brown,n_s_004.jpg,NA,NA,NA,NA,NA,pleasant,unpleasant,NA,NA,NA,NA,NA,right,2097,true,NA,NA,NA,NA,NA,NA,NA,NA
vaQXaiDl,3z33ic0jd3zsmh7cb6nqm2m9m84v9l,3p59jyt76px4wpgic4dy0hm2nunt25,vaQXaiDl,2020-0188,2021-10-31,08:52:25,10:37:24,NA,incomplete,false,true,NA,NA,5,13,NA,brown,m_s_077.jpg,NA,NA,NA,NA,NA,unpleasant,pleasant,NA,NA,NA,NA,NA,right,2527,true,NA,NA,NA,NA,NA,NA,NA,NA
vaQXaiDl,3z33ic0jd3zsmh7cb6nqm2m9m84v9l,3p59jyt76px4wpgic4dy0hm2nunt25,vaQXaiDl,2020-0188,2021-10-31,08:52:25,10:37:24,NA,incomplete,false,true,NA,NA,5,14,NA,brown,m_s_113.jpg,NA,NA,NA,NA,NA,unpleasant,pleasant,NA,NA,NA,NA,NA,left,2308,true,NA,NA,NA,NA,NA,NA,NA,NA
vaQXaiDl,3z33ic0jd3zsmh7cb6nqm2m9m84v9l,3p59jyt76px4wpgic4dy0hm2nunt25,vaQXaiDl,2020-0188,2021-10-31,08:52:25,10:37:24,NA,incomplete,false,true,NA,NA,5,15,NA,brown,n_s_080.jpg,NA,NA,NA,NA,NA,pleasant,unpleasant,NA,NA,NA,NA,NA,right,1817,true,NA,NA,NA,NA,NA,NA,NA,NA
vaQXaiDl,3z33ic0jd3zsmh7cb6nqm2m9m84v9l,3p59jyt76px4wpgic4dy0hm2nunt25,vaQXaiDl,2020-0188,2021-10-31,08:52:25,10:37:24,NA,incomplete,false,true,NA,NA,5,16,NA,brown,m_s_107.jpg,NA,NA,NA,NA,NA,pleasant,unpleasant,NA,NA,NA,NA,NA,right,2856,true,NA,NA,NA,NA,NA,NA,NA,NA
vaQXaiDl,3z33ic0jd3zsmh7cb6nqm2m9m84v9l,3p59jyt76px4wpgic4dy0hm2nunt25,vaQXaiDl,2020-0188,2021-10-31,08:52:25,10:37:24,NA,incomplete,false,true,NA,NA,5,17,NA,brown,m_s_082.jpg,NA,NA,NA,NA,NA,pleasant,unpleasant,NA,NA,NA,NA,NA,left,2076,true,NA,NA,NA,NA,NA,NA,NA,NA
vaQXaiDl,3z33ic0jd3zsmh7cb6nqm2m9m84v9l,3p59jyt76px4wpgic4dy0hm2nunt25,vaQXaiDl,2020-0188,2021-10-31,08:52:25,10:37:24,NA,incomplete,false,true,NA,NA,5,18,NA,orange,m_l_068.jpg,NA,NA,NA,NA,NA,pleasant,unpleasant,NA,NA,NA,NA,NA,left,3353,true,NA,NA,NA,NA,NA,NA,NA,NA
vaQXaiDl,3z33ic0jd3zsmh7cb6nqm2m9m84v9l,3p59jyt76px4wpgic4dy0hm2nunt25,vaQXaiDl,2020-0188,2021-10-31,08:52:25,10:37:24,NA,incomplete,false,true,NA,NA,5,19,NA,orange,m_l_020.jpg,NA,NA,NA,NA,NA,pleasant,unpleasant,NA,NA,NA,NA,NA,none,0,false,NA,NA,NA,NA,NA,NA,NA,NA
vaQXaiDl,3z33ic0jd3zsmh7cb6nqm2m9m84v9l,3p59jyt76px4wpgic4dy0hm2nunt25,vaQXaiDl,2020-0188,2021-10-31,08:52:25,10:37:24,NA,incomplete,false,true,NA,NA,5,20,NA,orange,n_l_008.jpg,NA,NA,NA,NA,NA,unpleasant,pleasant,NA,NA,NA,NA,NA,right,3463,true,NA,NA,NA,NA,NA,NA,NA,NA
vaQXaiDl,3z33ic0jd3zsmh7cb6nqm2m9m84v9l,3p59jyt76px4wpgic4dy0hm2nunt25,vaQXaiDl,2020-0188,2021-10-31,08:52:25,10:37:24,NA,incomplete,false,true,NA,NA,5,21,NA,orange,n_l_102.jpg,NA,NA,NA,NA,NA,unpleasant,pleasant,NA,NA,NA,NA,NA,none,0,false,NA,NA,NA,NA,NA,NA,NA,NA
vaQXaiDl,3z33ic0jd3zsmh7cb6nqm2m9m84v9l,3p59jyt76px4wpgic4dy0hm2nunt25,vaQXaiDl,2020-0188,2021-10-31,08:52:25,10:37:24,NA,incomplete,false,true,NA,NA,5,22,NA,orange,m_s_109.jpg,NA,NA,NA,NA,NA,pleasant,unpleasant,NA,NA,NA,NA,NA,left,2910,true,NA,NA,NA,NA,NA,NA,NA,NA
vaQXaiDl,3z33ic0jd3zsmh7cb6nqm2m9m84v9l,3p59jyt76px4wpgic4dy0hm2nunt25,vaQXaiDl,2020-0188,2021-10-31,08:52:25,10:37:24,NA,incomplete,false,true,NA,NA,5,23,NA,orange,n_s_075.jpg,NA,NA,NA,NA,NA,unpleasant,pleasant,NA,NA,NA,NA,NA,left,3196,true,NA,NA,NA,NA,NA,NA,NA,NA
vaQXaiDl,3z33ic0jd3zsmh7cb6nqm2m9m84v9l,3p59jyt76px4wpgic4dy0hm2nunt25,vaQXaiDl,2020-0188,2021-10-31,08:52:25,10:37:24,NA,incomplete,false,true,NA,NA,5,24,NA,red,n_s_013.jpg,NA,NA,NA,NA,NA,pleasant,unpleasant,NA,NA,NA,NA,NA,left,3261,true,NA,NA,NA,NA,NA,NA,NA,NA
vaQXaiDl,3z33ic0jd3zsmh7cb6nqm2m9m84v9l,3p59jyt76px4wpgic4dy0hm2nunt25,vaQXaiDl,2020-0188,2021-10-31,08:52:25,10:37:24,NA,incomplete,false,true,NA,NA,5,25,NA,red,n_l_026.jpg,NA,NA,NA,NA,NA,unpleasant,pleasant,NA,NA,NA,NA,NA,none,0,false,NA,NA,NA,NA,NA,NA,NA,NA
vaQXaiDl,3z33ic0jd3zsmh7cb6nqm2m9m84v9l,3p59jyt76px4wpgic4dy0hm2nunt25,vaQXaiDl,2020-0188,2021-10-31,08:52:25,10:37:24,NA,incomplete,false,true,NA,NA,5,26,NA,red,m_l_008.jpg,NA,NA,NA,NA,NA,pleasant,unpleasant,NA,NA,NA,NA,NA,left,2026,true,NA,NA,NA,NA,NA,NA,NA,NA
vaQXaiDl,3z33ic0jd3zsmh7cb6nqm2m9m84v9l,3p59jyt76px4wpgic4dy0hm2nunt25,vaQXaiDl,2020-0188,2021-10-31,08:52:25,10:37:24,NA,incomplete,false,true,NA,NA,5,27,NA,red,m_s_035.jpg,NA,NA,NA,NA,NA,pleasant,unpleasant,NA,NA,NA,NA,NA,none,0,false,NA,NA,NA,NA,NA,NA,NA,NA
vaQXaiDl,3z33ic0jd3zsmh7cb6nqm2m9m84v9l,3p59jyt76px4wpgic4dy0hm2nunt25,vaQXaiDl,2020-0188,2021-10-31,08:52:25,10:37:24,NA,incomplete,false,true,NA,NA,5,28,NA,red,n_s_038.jpg,NA,NA,NA,NA,NA,pleasant,unpleasant,NA,NA,NA,NA,NA,left,2261,true,NA,NA,NA,NA,NA,NA,NA,NA
vaQXaiDl,3z33ic0jd3zsmh7cb6nqm2m9m84v9l,3p59jyt76px4wpgic4dy0hm2nunt25,vaQXaiDl,2020-0188,2021-10-31,08:52:25,10:37:24,NA,incomplete,false,true,NA,NA,5,29,NA,red,n_l_063.jpg,NA,NA,NA,NA,NA,pleasant,unpleasant,NA,NA,NA,NA,NA,right,3148,true,NA,NA,NA,NA,NA,NA,NA,NA
vaQXaiDl,3z33ic0jd3zsmh7cb6nqm2m9m84v9l,3p59jyt76px4wpgic4dy0hm2nunt25,vaQXaiDl,2020-0188,2021-10-31,08:52:25,10:37:24,NA,incomplete,false,true,NA,NA,5,30,NA,white,m_s_058.jpg,NA,NA,NA,NA,NA,pleasant,unpleasant,NA,NA,NA,NA,NA,left,2904,true,NA,NA,NA,NA,NA,NA,NA,NA
vaQXaiDl,3z33ic0jd3zsmh7cb6nqm2m9m84v9l,3p59jyt76px4wpgic4dy0hm2nunt25,vaQXaiDl,2020-0188,2021-10-31,08:52:25,10:37:24,NA,incomplete,false,true,NA,NA,5,31,NA,white,n_l_114.jpg,NA,NA,NA,NA,NA,unpleasant,pleasant,NA,NA,NA,NA,NA,left,3167,true,NA,NA,NA,NA,NA,NA,NA,NA
vaQXaiDl,3z33ic0jd3zsmh7cb6nqm2m9m84v9l,3p59jyt76px4wpgic4dy0hm2nunt25,vaQXaiDl,2020-0188,2021-10-31,08:52:25,10:37:24,NA,incomplete,false,true,NA,NA,5,32,NA,white,n_l_073.jpg,NA,NA,NA,NA,NA,pleasant,unpleasant,NA,NA,NA,NA,NA,left,3456,true,NA,NA,NA,NA,NA,NA,NA,NA
vaQXaiDl,3z33ic0jd3zsmh7cb6nqm2m9m84v9l,3p59jyt76px4wpgic4dy0hm2nunt25,vaQXaiDl,2020-0188,2021-10-31,08:52:25,10:37:24,NA,incomplete,false,true,NA,NA,5,33,NA,white,n_s_097.jpg,NA,NA,NA,NA,NA,pleasant,unpleasant,NA,NA,NA,NA,NA,left,2904,true,NA,NA,NA,NA,NA,NA,NA,NA
