workerId,hitId,assignmentId,subject,studyid,exp_date,exp_start,exp_end,time_start,time_end,practice,encoding,memory,association,block,trial,event_order,event,stim,answer,object,left_context,right_context,context_type,label_left,label_right,left_image,left_event,right_image,right_event,condition,response,response_time,response_acc,association_response_time,association_response,association_acc,order_response,order_response_time,order_acc,distance_response,distance_response_time
yrckTq5O,3fk4g712o0duz4m7qhicsa7sfszsso,3ph3vy7djpamuhnowgrnac38dzzwz6,yrckTq5O,2020-0188,2021-11-01,02:55:03,04:25:22,NA,incomplete,true,true,NA,NA,0,0,NA,black,m_s_018.jpg,NA,NA,NA,NA,NA,pleasant,unpleasant,NA,NA,NA,NA,NA,left,1888.69999999995,true,NA,NA,NA,NA,NA,NA,NA,NA
yrckTq5O,3fk4g712o0duz4m7qhicsa7sfszsso,3ph3vy7djpamuhnowgrnac38dzzwz6,yrckTq5O,2020-0188,2021-11-01,02:55:03,04:25:22,NA,incomplete,true,true,NA,NA,0,1,NA,black,m_l_040.jpg,NA,NA,NA,NA,NA,pleasant,unpleasant,NA,NA,NA,NA,NA,left,861.59999999986,true,NA,NA,NA,NA,NA,NA,NA,NA
yrckTq5O,3fk4g712o0duz4m7qhicsa7sfszsso,3ph3vy7djpamuhnowgrnac38dzzwz6,yrckTq5O,2020-0188,2021-11-01,02:55:03,04:25:22,NA,incomplete,true,true,NA,NA,0,2,NA,black,m_l_083.jpg,NA,NA,NA,NA,NA,unpleasant,pleasant,NA,NA,NA,NA,NA,right,1114.80000000005,true,NA,NA,NA,NA,NA,NA,NA,NA
yrckTq5O,3fk4g712o0duz4m7qhicsa7sfszsso,3ph3vy7djpamuhnowgrnac38dzzwz6,yrckTq5O,2020-0188,2021-11-01,02:55:03,04:25:22,NA,incomplete,true,true,NA,NA,0,3,NA,black,m_s_106.jpg,NA,NA,NA,NA,NA,unpleasant,pleasant,NA,NA,NA,NA,NA,right,1191.39999999991,true,NA,NA,NA,NA,NA,NA,NA,NA
yrckTq5O,3fk4g712o0duz4m7qhicsa7sfszsso,3ph3vy7djpamuhnowgrnac38dzzwz6,yrckTq5O,2020-0188,2021-11-01,02:55:03,04:25:22,NA,incomplete,true,true,NA,NA,0,4,NA,black,m_s_117.jpg,NA,NA,NA,NA,NA,pleasant,unpleasant,NA,NA,NA,NA,NA,left,1163.5,true,NA,NA,NA,NA,NA,NA,NA,NA
yrckTq5O,3fk4g712o0duz4m7qhicsa7sfszsso,3ph3vy7djpamuhnowgrnac38dzzwz6,yrckTq5O,2020-0188,2021-11-01,02:55:03,04:25:22,NA,incomplete,true,true,NA,NA,0,5,NA,black,m_l_115.jpg,NA,NA,NA,NA,NA,pleasant,unpleasant,NA,NA,NA,NA,NA,left,888,true,NA,NA,NA,NA,NA,NA,NA,NA
yrckTq5O,3fk4g712o0duz4m7qhicsa7sfszsso,3ph3vy7djpamuhnowgrnac38dzzwz6,yrckTq5O,2020-0188,2021-11-01,02:55:03,04:25:22,NA,incomplete,true,true,NA,NA,0,6,NA,orange,m_s_074.jpg,NA,NA,NA,NA,NA,pleasant,unpleasant,NA,NA,NA,NA,NA,left,1284,true,NA,NA,NA,NA,NA,NA,NA,NA
yrckTq5O,3fk4g712o0duz4m7qhicsa7sfszsso,3ph3vy7djpamuhnowgrnac38dzzwz6,yrckTq5O,2020-0188,2021-11-01,02:55:03,04:25:22,NA,incomplete,true,true,NA,NA,0,7,NA,orange,n_s_082.jpg,NA,NA,NA,NA,NA,unpleasant,pleasant,NA,NA,NA,NA,NA,right,783.90000000014,true,NA,NA,NA,NA,NA,NA,NA,NA
yrckTq5O,3fk4g712o0duz4m7qhicsa7sfszsso,3ph3vy7djpamuhnowgrnac38dzzwz6,yrckTq5O,2020-0188,2021-11-01,02:55:03,04:25:22,NA,incomplete,true,true,NA,NA,0,8,NA,orange,m_l_005.jpg,NA,NA,NA,NA,NA,pleasant,unpleasant,NA,NA,NA,NA,NA,left,1180.10000000009,true,NA,NA,NA,NA,NA,NA,NA,NA
yrckTq5O,3fk4g712o0duz4m7qhicsa7sfszsso,3ph3vy7djpamuhnowgrnac38dzzwz6,yrckTq5O,2020-0188,2021-11-01,02:55:03,04:25:22,NA,incomplete,true,true,NA,NA,0,9,NA,orange,m_s_092.jpg,NA,NA,NA,NA,NA,unpleasant,pleasant,NA,NA,NA,NA,NA,right,880.5,true,NA,NA,NA,NA,NA,NA,NA,NA
yrckTq5O,3fk4g712o0duz4m7qhicsa7sfszsso,3ph3vy7djpamuhnowgrnac38dzzwz6,yrckTq5O,2020-0188,2021-11-01,02:55:03,04:25:22,NA,incomplete,true,true,NA,NA,0,10,NA,orange,m_s_084.jpg,NA,NA,NA,NA,NA,pleasant,unpleasant,NA,NA,NA,NA,NA,left,1021.20000000019,true,NA,NA,NA,NA,NA,NA,NA,NA
yrckTq5O,3fk4g712o0duz4m7qhicsa7sfszsso,3ph3vy7djpamuhnowgrnac38dzzwz6,yrckTq5O,2020-0188,2021-11-01,02:55:03,04:25:22,NA,incomplete,true,true,NA,NA,0,11,NA,orange,m_l_108.jpg,NA,NA,NA,NA,NA,unpleasant,pleasant,NA,NA,NA,NA,NA,right,977.5,true,NA,NA,NA,NA,NA,NA,NA,NA
yrckTq5O,3fk4g712o0duz4m7qhicsa7sfszsso,3ph3vy7djpamuhnowgrnac38dzzwz6,yrckTq5O,2020-0188,2021-11-01,02:55:03,04:25:22,NA,incomplete,true,true,NA,NA,0,12,NA,brown,n_s_008.jpg,NA,NA,NA,NA,NA,pleasant,unpleasant,NA,NA,NA,NA,NA,left,1069.19999999995,true,NA,NA,NA,NA,NA,NA,NA,NA
yrckTq5O,3fk4g712o0duz4m7qhicsa7sfszsso,3ph3vy7djpamuhnowgrnac38dzzwz6,yrckTq5O,2020-0188,2021-11-01,02:55:03,04:25:22,NA,incomplete,true,true,NA,NA,0,13,NA,brown,m_l_105.jpg,NA,NA,NA,NA,NA,unpleasant,pleasant,NA,NA,NA,NA,NA,right,1112.40000000014,true,NA,NA,NA,NA,NA,NA,NA,NA
yrckTq5O,3fk4g712o0duz4m7qhicsa7sfszsso,3ph3vy7djpamuhnowgrnac38dzzwz6,yrckTq5O,2020-0188,2021-11-01,02:55:03,04:25:22,NA,incomplete,true,true,NA,NA,0,14,NA,brown,n_s_098.jpg,NA,NA,NA,NA,NA,unpleasant,pleasant,NA,NA,NA,NA,NA,left,1118.79999999981,true,NA,NA,NA,NA,NA,NA,NA,NA
yrckTq5O,3fk4g712o0duz4m7qhicsa7sfszsso,3ph3vy7djpamuhnowgrnac38dzzwz6,yrckTq5O,2020-0188,2021-11-01,02:55:03,04:25:22,NA,incomplete,true,true,NA,NA,0,15,NA,brown,m_l_061.jpg,NA,NA,NA,NA,NA,unpleasant,pleasant,NA,NA,NA,NA,NA,right,1498.70000000019,true,NA,NA,NA,NA,NA,NA,NA,NA
yrckTq5O,3fk4g712o0duz4m7qhicsa7sfszsso,3ph3vy7djpamuhnowgrnac38dzzwz6,yrckTq5O,2020-0188,2021-11-01,02:55:03,04:25:22,NA,incomplete,true,true,NA,NA,0,16,NA,brown,n_l_069.jpg,NA,NA,NA,NA,NA,pleasant,unpleasant,NA,NA,NA,NA,NA,right,1503.19999999995,true,NA,NA,NA,NA,NA,NA,NA,NA
yrckTq5O,3fk4g712o0duz4m7qhicsa7sfszsso,3ph3vy7djpamuhnowgrnac38dzzwz6,yrckTq5O,2020-0188,2021-11-01,02:55:03,04:25:22,NA,incomplete,true,true,NA,NA,0,17,NA,brown,n_s_063.jpg,NA,NA,NA,NA,NA,unpleasant,pleasant,NA,NA,NA,NA,NA,right,1091.20000000019,true,NA,NA,NA,NA,NA,NA,NA,NA
yrckTq5O,3fk4g712o0duz4m7qhicsa7sfszsso,3ph3vy7djpamuhnowgrnac38dzzwz6,yrckTq5O,2020-0188,2021-11-01,02:55:03,04:25:22,NA,incomplete,true,true,NA,NA,0,18,NA,purple,n_l_063.jpg,NA,NA,NA,NA,NA,pleasant,unpleasant,NA,NA,NA,NA,NA,left,1103.10000000009,true,NA,NA,NA,NA,NA,NA,NA,NA
yrckTq5O,3fk4g712o0duz4m7qhicsa7sfszsso,3ph3vy7djpamuhnowgrnac38dzzwz6,yrckTq5O,2020-0188,2021-11-01,02:55:03,04:25:22,NA,incomplete,true,true,NA,NA,0,19,NA,purple,n_s_066.jpg,NA,NA,NA,NA,NA,pleasant,unpleasant,NA,NA,NA,NA,NA,left,931.90000000014,true,NA,NA,NA,NA,NA,NA,NA,NA
yrckTq5O,3fk4g712o0duz4m7qhicsa7sfszsso,3ph3vy7djpamuhnowgrnac38dzzwz6,yrckTq5O,2020-0188,2021-11-01,02:55:03,04:25:22,NA,incomplete,true,true,NA,NA,0,20,NA,purple,n_s_108.jpg,NA,NA,NA,NA,NA,unpleasant,pleasant,NA,NA,NA,NA,NA,left,1152,true,NA,NA,NA,NA,NA,NA,NA,NA
yrckTq5O,3fk4g712o0duz4m7qhicsa7sfszsso,3ph3vy7djpamuhnowgrnac38dzzwz6,yrckTq5O,2020-0188,2021-11-01,02:55:03,04:25:22,NA,incomplete,true,true,NA,NA,0,21,NA,purple,m_s_112.jpg,NA,NA,NA,NA,NA,pleasant,unpleasant,NA,NA,NA,NA,NA,left,1258.90000000014,true,NA,NA,NA,NA,NA,NA,NA,NA
yrckTq5O,3fk4g712o0duz4m7qhicsa7sfszsso,3ph3vy7djpamuhnowgrnac38dzzwz6,yrckTq5O,2020-0188,2021-11-01,02:55:03,04:25:22,NA,incomplete,true,true,NA,NA,0,22,NA,purple,n_s_038.jpg,NA,NA,NA,NA,NA,pleasant,unpleasant,NA,NA,NA,NA,NA,left,936.600000000093,true,NA,NA,NA,NA,NA,NA,NA,NA
yrckTq5O,3fk4g712o0duz4m7qhicsa7sfszsso,3ph3vy7djpamuhnowgrnac38dzzwz6,yrckTq5O,2020-0188,2021-11-01,02:55:03,04:25:22,NA,incomplete,true,true,NA,NA,0,23,NA,purple,n_s_061.jpg,NA,NA,NA,NA,NA,unpleasant,pleasant,NA,NA,NA,NA,NA,right,1596.69999999995,true,NA,NA,NA,NA,NA,NA,NA,NA
yrckTq5O,3fk4g712o0duz4m7qhicsa7sfszsso,3ph3vy7djpamuhnowgrnac38dzzwz6,yrckTq5O,2020-0188,2021-11-01,02:55:03,04:25:22,NA,incomplete,true,true,NA,NA,0,24,NA,red,n_s_051.jpg,NA,NA,NA,NA,NA,pleasant,unpleasant,NA,NA,NA,NA,NA,left,1153.30000000005,true,NA,NA,NA,NA,NA,NA,NA,NA
yrckTq5O,3fk4g712o0duz4m7qhicsa7sfszsso,3ph3vy7djpamuhnowgrnac38dzzwz6,yrckTq5O,2020-0188,2021-11-01,02:55:03,04:25:22,NA,incomplete,true,true,NA,NA,0,25,NA,red,n_s_031.jpg,NA,NA,NA,NA,NA,pleasant,unpleasant,NA,NA,NA,NA,NA,left,1781.30000000005,true,NA,NA,NA,NA,NA,NA,NA,NA
yrckTq5O,3fk4g712o0duz4m7qhicsa7sfszsso,3ph3vy7djpamuhnowgrnac38dzzwz6,yrckTq5O,2020-0188,2021-11-01,02:55:03,04:25:22,NA,incomplete,true,true,NA,NA,0,26,NA,red,n_s_100.jpg,NA,NA,NA,NA,NA,unpleasant,pleasant,NA,NA,NA,NA,NA,right,1202.30000000005,true,NA,NA,NA,NA,NA,NA,NA,NA
yrckTq5O,3fk4g712o0duz4m7qhicsa7sfszsso,3ph3vy7djpamuhnowgrnac38dzzwz6,yrckTq5O,2020-0188,2021-11-01,02:55:03,04:25:22,NA,incomplete,true,true,NA,NA,0,27,NA,red,n_l_114.jpg,NA,NA,NA,NA,NA,pleasant,unpleasant,NA,NA,NA,NA,NA,left,1453.59999999986,true,NA,NA,NA,NA,NA,NA,NA,NA
yrckTq5O,3fk4g712o0duz4m7qhicsa7sfszsso,3ph3vy7djpamuhnowgrnac38dzzwz6,yrckTq5O,2020-0188,2021-11-01,02:55:03,04:25:22,NA,incomplete,true,true,NA,NA,0,28,NA,red,m_l_110.jpg,NA,NA,NA,NA,NA,unpleasant,pleasant,NA,NA,NA,NA,NA,right,993.800000000047,true,NA,NA,NA,NA,NA,NA,NA,NA
yrckTq5O,3fk4g712o0duz4m7qhicsa7sfszsso,3ph3vy7djpamuhnowgrnac38dzzwz6,yrckTq5O,2020-0188,2021-11-01,02:55:03,04:25:22,NA,incomplete,true,true,NA,NA,0,29,NA,red,m_l_018.jpg,NA,NA,NA,NA,NA,pleasant,unpleasant,NA,NA,NA,NA,NA,left,1934.80000000005,true,NA,NA,NA,NA,NA,NA,NA,NA
yrckTq5O,3fk4g712o0duz4m7qhicsa7sfszsso,3ph3vy7djpamuhnowgrnac38dzzwz6,yrckTq5O,2020-0188,2021-11-01,02:55:03,04:25:22,NA,incomplete,true,true,NA,NA,0,30,NA,yellow,n_l_066.jpg,NA,NA,NA,NA,NA,unpleasant,pleasant,NA,NA,NA,NA,NA,right,1466.5,true,NA,NA,NA,NA,NA,NA,NA,NA
yrckTq5O,3fk4g712o0duz4m7qhicsa7sfszsso,3ph3vy7djpamuhnowgrnac38dzzwz6,yrckTq5O,2020-0188,2021-11-01,02:55:03,04:25:22,NA,incomplete,true,true,NA,NA,0,31,NA,yellow,n_s_017.jpg,NA,NA,NA,NA,NA,unpleasant,pleasant,NA,NA,NA,NA,NA,left,1151,true,NA,NA,NA,NA,NA,NA,NA,NA
yrckTq5O,3fk4g712o0duz4m7qhicsa7sfszsso,3ph3vy7djpamuhnowgrnac38dzzwz6,yrckTq5O,2020-0188,2021-11-01,02:55:03,04:25:22,NA,incomplete,true,true,NA,NA,0,32,NA,yellow,n_s_058.jpg,NA,NA,NA,NA,NA,unpleasant,pleasant,NA,NA,NA,NA,NA,right,1403.20000000019,true,NA,NA,NA,NA,NA,NA,NA,NA
yrckTq5O,3fk4g712o0duz4m7qhicsa7sfszsso,3ph3vy7djpamuhnowgrnac38dzzwz6,yrckTq5O,2020-0188,2021-11-01,02:55:03,04:25:22,NA,incomplete,true,true,NA,NA,0,33,NA,yellow,n_s_117.jpg,NA,NA,NA,NA,NA,pleasant,unpleasant,NA,NA,NA,NA,NA,left,2071,true,NA,NA,NA,NA,NA,NA,NA,NA
yrckTq5O,3fk4g712o0duz4m7qhicsa7sfszsso,3ph3vy7djpamuhnowgrnac38dzzwz6,yrckTq5O,2020-0188,2021-11-01,02:55:03,04:25:22,NA,incomplete,true,true,NA,NA,0,34,NA,yellow,n_s_064.jpg,NA,NA,NA,NA,NA,unpleasant,pleasant,NA,NA,NA,NA,NA,right,1947.10000000009,true,NA,NA,NA,NA,NA,NA,NA,NA
yrckTq5O,3fk4g712o0duz4m7qhicsa7sfszsso,3ph3vy7djpamuhnowgrnac38dzzwz6,yrckTq5O,2020-0188,2021-11-01,02:55:03,04:25:22,NA,incomplete,true,true,NA,NA,0,35,NA,yellow,n_s_065.jpg,NA,NA,NA,NA,NA,unpleasant,pleasant,NA,NA,NA,NA,NA,right,1527.80000000005,true,NA,NA,NA,NA,NA,NA,NA,NA
yrckTq5O,3fk4g712o0duz4m7qhicsa7sfszsso,3ph3vy7djpamuhnowgrnac38dzzwz6,yrckTq5O,2020-0188,2021-11-01,02:55:03,04:25:22,NA,incomplete,true,NA,NA,true,0,0,NA,NA,NA,right,n_s_031.jpg,yellow,red,NA,NA,NA,NA,NA,NA,NA,NA,NA,NaN,NA,2062,right,1,NA,NA,NA,NA,NA
yrckTq5O,3fk4g712o0duz4m7qhicsa7sfszsso,3ph3vy7djpamuhnowgrnac38dzzwz6,yrckTq5O,2020-0188,2021-11-01,02:55:03,04:25:22,NA,incomplete,true,NA,NA,true,0,1,NA,NA,NA,right,n_s_082.jpg,black,orange,NA,NA,NA,NA,NA,NA,NA,NA,NA,NaN,NA,5479.299999999814,left,0,NA,NA,NA,NA,NA
yrckTq5O,3fk4g712o0duz4m7qhicsa7sfszsso,3ph3vy7djpamuhnowgrnac38dzzwz6,yrckTq5O,2020-0188,2021-11-01,02:55:03,04:25:22,NA,incomplete,true,NA,NA,true,0,2,NA,NA,NA,left,m_l_108.jpg,orange,black,NA,NA,NA,NA,NA,NA,NA,NA,NA,NaN,NA,1743.6000000000931,left,1,NA,NA,NA,NA,NA
yrckTq5O,3fk4g712o0duz4m7qhicsa7sfszsso,3ph3vy7djpamuhnowgrnac38dzzwz6,yrckTq5O,2020-0188,2021-11-01,02:55:03,04:25:22,NA,incomplete,true,NA,NA,true,0,3,NA,NA,NA,right,m_l_040.jpg,orange,black,NA,NA,NA,NA,NA,NA,NA,NA,NA,NaN,NA,6631,left,0,NA,NA,NA,NA,NA
yrckTq5O,3fk4g712o0duz4m7qhicsa7sfszsso,3ph3vy7djpamuhnowgrnac38dzzwz6,yrckTq5O,2020-0188,2021-11-01,02:55:03,04:25:22,NA,incomplete,true,NA,NA,true,0,4,NA,NA,NA,left,n_s_108.jpg,purple,red,NA,NA,NA,NA,NA,NA,NA,NA,NA,NaN,NA,2375,left,1,NA,NA,NA,NA,NA
yrckTq5O,3fk4g712o0duz4m7qhicsa7sfszsso,3ph3vy7djpamuhnowgrnac38dzzwz6,yrckTq5O,2020-0188,2021-11-01,02:55:03,04:25:22,NA,incomplete,true,NA,NA,true,0,5,NA,NA,NA,left,n_s_058.jpg,yellow,red,NA,NA,NA,NA,NA,NA,NA,NA,NA,NaN,NA,1727.1000000000931,left,1,NA,NA,NA,NA,NA
yrckTq5O,3fk4g712o0duz4m7qhicsa7sfszsso,3ph3vy7djpamuhnowgrnac38dzzwz6,yrckTq5O,2020-0188,2021-11-01,02:55:03,04:25:22,NA,incomplete,true,NA,NA,true,0,6,NA,NA,NA,left,m_l_018.jpg,red,yellow,NA,NA,NA,NA,NA,NA,NA,NA,NA,NaN,NA,2471.0999999996275,left,1,NA,NA,NA,NA,NA
yrckTq5O,3fk4g712o0duz4m7qhicsa7sfszsso,3ph3vy7djpamuhnowgrnac38dzzwz6,yrckTq5O,2020-0188,2021-11-01,02:55:03,04:25:22,NA,incomplete,true,NA,NA,true,0,7,NA,NA,NA,left,n_s_061.jpg,purple,brown,NA,NA,NA,NA,NA,NA,NA,NA,NA,NaN,NA,1639.2000000001863,right,0,NA,NA,NA,NA,NA
yrckTq5O,3fk4g712o0duz4m7qhicsa7sfszsso,3ph3vy7djpamuhnowgrnac38dzzwz6,yrckTq5O,2020-0188,2021-11-01,02:55:03,04:25:22,NA,incomplete,true,NA,NA,true,0,8,NA,NA,NA,left,n_s_038.jpg,purple,red,NA,NA,NA,NA,NA,NA,NA,NA,NA,NaN,NA,2727.2999999998137,right,0,NA,NA,NA,NA,NA
yrckTq5O,3fk4g712o0duz4m7qhicsa7sfszsso,3ph3vy7djpamuhnowgrnac38dzzwz6,yrckTq5O,2020-0188,2021-11-01,02:55:03,04:25:22,NA,incomplete,true,NA,NA,true,0,9,NA,NA,NA,right,n_s_017.jpg,red,yellow,NA,NA,NA,NA,NA,NA,NA,NA,NA,NaN,NA,1695,left,0,NA,NA,NA,NA,NA
yrckTq5O,3fk4g712o0duz4m7qhicsa7sfszsso,3ph3vy7djpamuhnowgrnac38dzzwz6,yrckTq5O,2020-0188,2021-11-01,02:55:03,04:25:22,NA,incomplete,true,NA,NA,true,0,10,NA,NA,NA,left,n_s_065.jpg,yellow,red,NA,NA,NA,NA,NA,NA,NA,NA,NA,NaN,NA,1519.3999999999069,left,1,NA,NA,NA,NA,NA
yrckTq5O,3fk4g712o0duz4m7qhicsa7sfszsso,3ph3vy7djpamuhnowgrnac38dzzwz6,yrckTq5O,2020-0188,2021-11-01,02:55:03,04:25:22,NA,incomplete,true,NA,NA,true,0,11,NA,NA,NA,right,m_s_117.jpg,orange,black,NA,NA,NA,NA,NA,NA,NA,NA,NA,NaN,NA,5407.299999999814,right,1,NA,NA,NA,NA,NA
yrckTq5O,3fk4g712o0duz4m7qhicsa7sfszsso,3ph3vy7djpamuhnowgrnac38dzzwz6,yrckTq5O,2020-0188,2021-11-01,02:55:03,04:25:22,NA,incomplete,true,NA,NA,true,0,12,NA,NA,NA,left,n_s_066.jpg,purple,red,NA,NA,NA,NA,NA,NA,NA,NA,NA,NaN,NA,2502.5,right,0,NA,NA,NA,NA,NA
yrckTq5O,3fk4g712o0duz4m7qhicsa7sfszsso,3ph3vy7djpamuhnowgrnac38dzzwz6,yrckTq5O,2020-0188,2021-11-01,02:55:03,04:25:22,NA,incomplete,true,NA,NA,true,0,13,NA,NA,NA,left,m_l_115.jpg,black,orange,NA,NA,NA,NA,NA,NA,NA,NA,NA,NaN,NA,2095.3000000002794,left,1,NA,NA,NA,NA,NA
yrckTq5O,3fk4g712o0duz4m7qhicsa7sfszsso,3ph3vy7djpamuhnowgrnac38dzzwz6,yrckTq5O,2020-0188,2021-11-01,02:55:03,04:25:22,NA,incomplete,true,NA,NA,true,0,14,NA,NA,NA,right,n_s_098.jpg,orange,brown,NA,NA,NA,NA,NA,NA,NA,NA,NA,NaN,NA,2871.2999999998137,left,0,NA,NA,NA,NA,NA
yrckTq5O,3fk4g712o0duz4m7qhicsa7sfszsso,3ph3vy7djpamuhnowgrnac38dzzwz6,yrckTq5O,2020-0188,2021-11-01,02:55:03,04:25:22,NA,incomplete,true,NA,NA,true,0,15,NA,NA,NA,right,m_l_110.jpg,purple,red,NA,NA,NA,NA,NA,NA,NA,NA,NA,NaN,NA,2175.2999999998137,left,0,NA,NA,NA,NA,NA
yrckTq5O,3fk4g712o0duz4m7qhicsa7sfszsso,3ph3vy7djpamuhnowgrnac38dzzwz6,yrckTq5O,2020-0188,2021-11-01,02:55:03,04:25:22,NA,incomplete,true,NA,NA,true,0,16,NA,NA,NA,right,m_l_005.jpg,black,orange,NA,NA,NA,NA,NA,NA,NA,NA,NA,NaN,NA,1671.1999999997206,left,0,NA,NA,NA,NA,NA
yrckTq5O,3fk4g712o0duz4m7qhicsa7sfszsso,3ph3vy7djpamuhnowgrnac38dzzwz6,yrckTq5O,2020-0188,2021-11-01,02:55:03,04:25:22,NA,incomplete,true,NA,NA,true,0,17,NA,NA,NA,right,n_s_100.jpg,yellow,red,NA,NA,NA,NA,NA,NA,NA,NA,NA,NaN,NA,2351.2000000001863,left,0,NA,NA,NA,NA,NA
yrckTq5O,3fk4g712o0duz4m7qhicsa7sfszsso,3ph3vy7djpamuhnowgrnac38dzzwz6,yrckTq5O,2020-0188,2021-11-01,02:55:03,04:25:22,NA,incomplete,true,NA,NA,true,0,18,NA,NA,NA,left,m_l_105.jpg,brown,orange,NA,NA,NA,NA,NA,NA,NA,NA,NA,NaN,NA,1735.3999999999069,left,1,NA,NA,NA,NA,NA
yrckTq5O,3fk4g712o0duz4m7qhicsa7sfszsso,3ph3vy7djpamuhnowgrnac38dzzwz6,yrckTq5O,2020-0188,2021-11-01,02:55:03,04:25:22,NA,incomplete,true,NA,NA,true,0,19,NA,NA,NA,left,m_s_084.jpg,orange,black,NA,NA,NA,NA,NA,NA,NA,NA,NA,NaN,NA,2854.600000000093,left,1,NA,NA,NA,NA,NA
yrckTq5O,3fk4g712o0duz4m7qhicsa7sfszsso,3ph3vy7djpamuhnowgrnac38dzzwz6,yrckTq5O,2020-0188,2021-11-01,02:55:03,04:25:22,NA,incomplete,true,NA,NA,true,0,20,NA,NA,NA,right,n_s_063.jpg,orange,brown,NA,NA,NA,NA,NA,NA,NA,NA,NA,NaN,NA,3039.2999999998137,right,1,NA,NA,NA,NA,NA
yrckTq5O,3fk4g712o0duz4m7qhicsa7sfszsso,3ph3vy7djpamuhnowgrnac38dzzwz6,yrckTq5O,2020-0188,2021-11-01,02:55:03,04:25:22,NA,incomplete,true,NA,NA,true,0,21,NA,NA,NA,right,n_l_069.jpg,orange,brown,NA,NA,NA,NA,NA,NA,NA,NA,NA,NaN,NA,4231.299999999814,right,1,NA,NA,NA,NA,NA
yrckTq5O,3fk4g712o0duz4m7qhicsa7sfszsso,3ph3vy7djpamuhnowgrnac38dzzwz6,yrckTq5O,2020-0188,2021-11-01,02:55:03,04:25:22,NA,incomplete,true,NA,true,NA,0,0,NA,NA,NA,right,NA,NA,NA,present,NA,NA,n_s_061.jpg,purple,n_s_066.jpg,purple,within,NA,NaN,NA,NA,NA,NA,right,3951,1,2,2854.899999999907
yrckTq5O,3fk4g712o0duz4m7qhicsa7sfszsso,3ph3vy7djpamuhnowgrnac38dzzwz6,yrckTq5O,2020-0188,2021-11-01,02:55:03,04:25:22,NA,incomplete,true,NA,true,NA,0,1,NA,NA,NA,left,NA,NA,NA,present,NA,NA,m_l_105.jpg,brown,n_s_063.jpg,brown,within,NA,NaN,NA,NA,NA,NA,left,5143.300000000047,1,1,1647.2000000001863
yrckTq5O,3fk4g712o0duz4m7qhicsa7sfszsso,3ph3vy7djpamuhnowgrnac38dzzwz6,yrckTq5O,2020-0188,2021-11-01,02:55:03,04:25:22,NA,incomplete,true,NA,true,NA,0,2,NA,NA,NA,left,NA,NA,NA,present,NA,NA,n_s_082.jpg,orange,m_l_108.jpg,orange,within,NA,NaN,NA,NA,NA,NA,left,9286.600000000093,1,1,3239.3000000000466
yrckTq5O,3fk4g712o0duz4m7qhicsa7sfszsso,3ph3vy7djpamuhnowgrnac38dzzwz6,yrckTq5O,2020-0188,2021-11-01,02:55:03,04:25:22,NA,incomplete,true,NA,true,NA,0,3,NA,NA,NA,right,NA,NA,NA,present,NA,NA,n_s_058.jpg,yellow,m_l_110.jpg,red,between,NA,NaN,NA,NA,NA,NA,right,4679.299999999814,1,3,2783.2000000001863
yrckTq5O,3fk4g712o0duz4m7qhicsa7sfszsso,3ph3vy7djpamuhnowgrnac38dzzwz6,yrckTq5O,2020-0188,2021-11-01,02:55:03,04:25:22,NA,incomplete,true,NA,true,NA,0,4,NA,NA,NA,right,NA,NA,NA,present,NA,NA,m_l_018.jpg,red,n_s_031.jpg,red,within,NA,NaN,NA,NA,NA,NA,right,1935.2000000001863,1,1,1367.2000000001863
yrckTq5O,3fk4g712o0duz4m7qhicsa7sfszsso,3ph3vy7djpamuhnowgrnac38dzzwz6,yrckTq5O,2020-0188,2021-11-01,02:55:03,04:25:22,NA,incomplete,true,NA,true,NA,0,5,NA,NA,NA,left,NA,NA,NA,present,NA,NA,n_s_038.jpg,purple,n_s_100.jpg,red,between,NA,NaN,NA,NA,NA,NA,left,5239.0999999996275,1,2,1943.2999999998137
yrckTq5O,3fk4g712o0duz4m7qhicsa7sfszsso,3ph3vy7djpamuhnowgrnac38dzzwz6,yrckTq5O,2020-0188,2021-11-01,02:55:03,04:25:22,NA,incomplete,true,NA,true,NA,0,6,NA,NA,NA,right,NA,NA,NA,present,NA,NA,m_l_005.jpg,orange,m_s_117.jpg,black,between,NA,NaN,NA,NA,NA,NA,right,5319.200000000186,1,2,2119.399999999907
yrckTq5O,3fk4g712o0duz4m7qhicsa7sfszsso,3ph3vy7djpamuhnowgrnac38dzzwz6,yrckTq5O,2020-0188,2021-11-01,02:55:03,04:25:22,NA,incomplete,true,NA,true,NA,0,7,NA,NA,NA,left,NA,NA,NA,present,NA,NA,m_l_040.jpg,black,m_l_115.jpg,black,within,NA,NaN,NA,NA,NA,NA,left,3527.2999999998137,1,2,1238.8999999999069
yrckTq5O,3fk4g712o0duz4m7qhicsa7sfszsso,3ph3vy7djpamuhnowgrnac38dzzwz6,yrckTq5O,2020-0188,2021-11-01,02:55:03,04:25:22,NA,incomplete,true,NA,true,NA,0,8,NA,NA,NA,right,NA,NA,NA,present,NA,NA,n_s_098.jpg,brown,m_s_084.jpg,orange,between,NA,NaN,NA,NA,NA,NA,right,2527.5,1,3,1815.8999999999069
yrckTq5O,3fk4g712o0duz4m7qhicsa7sfszsso,3ph3vy7djpamuhnowgrnac38dzzwz6,yrckTq5O,2020-0188,2021-11-01,02:55:03,04:25:22,NA,incomplete,true,NA,true,NA,0,9,NA,NA,NA,left,NA,NA,NA,present,NA,NA,n_l_069.jpg,brown,n_s_108.jpg,purple,between,NA,NaN,NA,NA,NA,NA,left,3175.5,1,2,2231
yrckTq5O,3fk4g712o0duz4m7qhicsa7sfszsso,3ph3vy7djpamuhnowgrnac38dzzwz6,yrckTq5O,2020-0188,2021-11-01,02:55:03,04:25:22,NA,incomplete,true,NA,true,NA,0,10,NA,NA,NA,right,NA,NA,NA,present,NA,NA,n_s_065.jpg,yellow,n_s_017.jpg,yellow,within,NA,NaN,NA,NA,NA,NA,right,4862.899999999907,1,0,3199.100000000093
yrckTq5O,3fk4g712o0duz4m7qhicsa7sfszsso,3ph3vy7djpamuhnowgrnac38dzzwz6,yrckTq5O,2020-0188,2021-11-01,02:55:03,04:25:22,NA,incomplete,false,true,NA,NA,1,0,NA,white,n_s_095.jpg,NA,NA,NA,NA,NA,pleasant,unpleasant,NA,NA,NA,NA,NA,left,1441.19999999972,true,NA,NA,NA,NA,NA,NA,NA,NA
yrckTq5O,3fk4g712o0duz4m7qhicsa7sfszsso,3ph3vy7djpamuhnowgrnac38dzzwz6,yrckTq5O,2020-0188,2021-11-01,02:55:03,04:25:22,NA,incomplete,false,true,NA,NA,1,1,NA,white,m_s_039.jpg,NA,NA,NA,NA,NA,unpleasant,pleasant,NA,NA,NA,NA,NA,right,835.899999999907,true,NA,NA,NA,NA,NA,NA,NA,NA
yrckTq5O,3fk4g712o0duz4m7qhicsa7sfszsso,3ph3vy7djpamuhnowgrnac38dzzwz6,yrckTq5O,2020-0188,2021-11-01,02:55:03,04:25:22,NA,incomplete,false,true,NA,NA,1,2,NA,white,n_l_031.jpg,NA,NA,NA,NA,NA,pleasant,unpleasant,NA,NA,NA,NA,NA,left,889.5,true,NA,NA,NA,NA,NA,NA,NA,NA
yrckTq5O,3fk4g712o0duz4m7qhicsa7sfszsso,3ph3vy7djpamuhnowgrnac38dzzwz6,yrckTq5O,2020-0188,2021-11-01,02:55:03,04:25:22,NA,incomplete,false,true,NA,NA,1,3,NA,white,n_l_011.jpg,NA,NA,NA,NA,NA,unpleasant,pleasant,NA,NA,NA,NA,NA,right,1461.39999999991,true,NA,NA,NA,NA,NA,NA,NA,NA
yrckTq5O,3fk4g712o0duz4m7qhicsa7sfszsso,3ph3vy7djpamuhnowgrnac38dzzwz6,yrckTq5O,2020-0188,2021-11-01,02:55:03,04:25:22,NA,incomplete,false,true,NA,NA,1,4,NA,white,n_s_086.jpg,NA,NA,NA,NA,NA,pleasant,unpleasant,NA,NA,NA,NA,NA,left,1337.89999999991,true,NA,NA,NA,NA,NA,NA,NA,NA
yrckTq5O,3fk4g712o0duz4m7qhicsa7sfszsso,3ph3vy7djpamuhnowgrnac38dzzwz6,yrckTq5O,2020-0188,2021-11-01,02:55:03,04:25:22,NA,incomplete,false,true,NA,NA,1,5,NA,white,n_s_079.jpg,NA,NA,NA,NA,NA,unpleasant,pleasant,NA,NA,NA,NA,NA,right,1502.20000000019,true,NA,NA,NA,NA,NA,NA,NA,NA
yrckTq5O,3fk4g712o0duz4m7qhicsa7sfszsso,3ph3vy7djpamuhnowgrnac38dzzwz6,yrckTq5O,2020-0188,2021-11-01,02:55:03,04:25:22,NA,incomplete,false,true,NA,NA,1,6,NA,yellow,m_l_003.jpg,NA,NA,NA,NA,NA,pleasant,unpleasant,NA,NA,NA,NA,NA,left,1105.89999999991,true,NA,NA,NA,NA,NA,NA,NA,NA
yrckTq5O,3fk4g712o0duz4m7qhicsa7sfszsso,3ph3vy7djpamuhnowgrnac38dzzwz6,yrckTq5O,2020-0188,2021-11-01,02:55:03,04:25:22,NA,incomplete,false,true,NA,NA,1,7,NA,yellow,m_l_106.jpg,NA,NA,NA,NA,NA,pleasant,unpleasant,NA,NA,NA,NA,NA,left,766.100000000093,true,NA,NA,NA,NA,NA,NA,NA,NA
yrckTq5O,3fk4g712o0duz4m7qhicsa7sfszsso,3ph3vy7djpamuhnowgrnac38dzzwz6,yrckTq5O,2020-0188,2021-11-01,02:55:03,04:25:22,NA,incomplete,false,true,NA,NA,1,8,NA,yellow,m_s_011.jpg,NA,NA,NA,NA,NA,pleasant,unpleasant,NA,NA,NA,NA,NA,left,1419,true,NA,NA,NA,NA,NA,NA,NA,NA
yrckTq5O,3fk4g712o0duz4m7qhicsa7sfszsso,3ph3vy7djpamuhnowgrnac38dzzwz6,yrckTq5O,2020-0188,2021-11-01,02:55:03,04:25:22,NA,incomplete,false,true,NA,NA,1,9,NA,yellow,n_s_048.jpg,NA,NA,NA,NA,NA,unpleasant,pleasant,NA,NA,NA,NA,NA,right,814.399999999907,true,NA,NA,NA,NA,NA,NA,NA,NA
yrckTq5O,3fk4g712o0duz4m7qhicsa7sfszsso,3ph3vy7djpamuhnowgrnac38dzzwz6,yrckTq5O,2020-0188,2021-11-01,02:55:03,04:25:22,NA,incomplete,false,true,NA,NA,1,10,NA,yellow,m_l_041.jpg,NA,NA,NA,NA,NA,unpleasant,pleasant,NA,NA,NA,NA,NA,right,899,true,NA,NA,NA,NA,NA,NA,NA,NA
yrckTq5O,3fk4g712o0duz4m7qhicsa7sfszsso,3ph3vy7djpamuhnowgrnac38dzzwz6,yrckTq5O,2020-0188,2021-11-01,02:55:03,04:25:22,NA,incomplete,false,true,NA,NA,1,11,NA,yellow,n_l_004.jpg,NA,NA,NA,NA,NA,pleasant,unpleasant,NA,NA,NA,NA,NA,left,680,true,NA,NA,NA,NA,NA,NA,NA,NA
yrckTq5O,3fk4g712o0duz4m7qhicsa7sfszsso,3ph3vy7djpamuhnowgrnac38dzzwz6,yrckTq5O,2020-0188,2021-11-01,02:55:03,04:25:22,NA,incomplete,false,true,NA,NA,1,12,NA,red,n_s_075.jpg,NA,NA,NA,NA,NA,pleasant,unpleasant,NA,NA,NA,NA,NA,right,1004.69999999972,true,NA,NA,NA,NA,NA,NA,NA,NA
yrckTq5O,3fk4g712o0duz4m7qhicsa7sfszsso,3ph3vy7djpamuhnowgrnac38dzzwz6,yrckTq5O,2020-0188,2021-11-01,02:55:03,04:25:22,NA,incomplete,false,true,NA,NA,1,13,NA,red,m_l_116.jpg,NA,NA,NA,NA,NA,pleasant,unpleasant,NA,NA,NA,NA,NA,left,1048.60000000009,true,NA,NA,NA,NA,NA,NA,NA,NA
yrckTq5O,3fk4g712o0duz4m7qhicsa7sfszsso,3ph3vy7djpamuhnowgrnac38dzzwz6,yrckTq5O,2020-0188,2021-11-01,02:55:03,04:25:22,NA,incomplete,false,true,NA,NA,1,14,NA,red,n_l_098.jpg,NA,NA,NA,NA,NA,unpleasant,pleasant,NA,NA,NA,NA,NA,right,1757.60000000009,true,NA,NA,NA,NA,NA,NA,NA,NA
yrckTq5O,3fk4g712o0duz4m7qhicsa7sfszsso,3ph3vy7djpamuhnowgrnac38dzzwz6,yrckTq5O,2020-0188,2021-11-01,02:55:03,04:25:22,NA,incomplete,false,true,NA,NA,1,15,NA,red,m_l_021.jpg,NA,NA,NA,NA,NA,unpleasant,pleasant,NA,NA,NA,NA,NA,right,1161.29999999981,true,NA,NA,NA,NA,NA,NA,NA,NA
yrckTq5O,3fk4g712o0duz4m7qhicsa7sfszsso,3ph3vy7djpamuhnowgrnac38dzzwz6,yrckTq5O,2020-0188,2021-11-01,02:55:03,04:25:22,NA,incomplete,false,true,NA,NA,1,16,NA,red,n_s_029.jpg,NA,NA,NA,NA,NA,unpleasant,pleasant,NA,NA,NA,NA,NA,right,1037.89999999991,true,NA,NA,NA,NA,NA,NA,NA,NA
yrckTq5O,3fk4g712o0duz4m7qhicsa7sfszsso,3ph3vy7djpamuhnowgrnac38dzzwz6,yrckTq5O,2020-0188,2021-11-01,02:55:03,04:25:22,NA,incomplete,false,true,NA,NA,1,17,NA,red,m_s_098.jpg,NA,NA,NA,NA,NA,pleasant,unpleasant,NA,NA,NA,NA,NA,left,986.100000000093,true,NA,NA,NA,NA,NA,NA,NA,NA
yrckTq5O,3fk4g712o0duz4m7qhicsa7sfszsso,3ph3vy7djpamuhnowgrnac38dzzwz6,yrckTq5O,2020-0188,2021-11-01,02:55:03,04:25:22,NA,incomplete,false,true,NA,NA,1,18,NA,blue,m_s_082.jpg,NA,NA,NA,NA,NA,unpleasant,pleasant,NA,NA,NA,NA,NA,right,845.799999999814,true,NA,NA,NA,NA,NA,NA,NA,NA
yrckTq5O,3fk4g712o0duz4m7qhicsa7sfszsso,3ph3vy7djpamuhnowgrnac38dzzwz6,yrckTq5O,2020-0188,2021-11-01,02:55:03,04:25:22,NA,incomplete,false,true,NA,NA,1,19,NA,blue,n_l_053.jpg,NA,NA,NA,NA,NA,unpleasant,pleasant,NA,NA,NA,NA,NA,left,1554.59999999963,true,NA,NA,NA,NA,NA,NA,NA,NA
yrckTq5O,3fk4g712o0duz4m7qhicsa7sfszsso,3ph3vy7djpamuhnowgrnac38dzzwz6,yrckTq5O,2020-0188,2021-11-01,02:55:03,04:25:22,NA,incomplete,false,true,NA,NA,1,20,NA,blue,m_s_059.jpg,NA,NA,NA,NA,NA,pleasant,unpleasant,NA,NA,NA,NA,NA,left,1038.69999999972,true,NA,NA,NA,NA,NA,NA,NA,NA
yrckTq5O,3fk4g712o0duz4m7qhicsa7sfszsso,3ph3vy7djpamuhnowgrnac38dzzwz6,yrckTq5O,2020-0188,2021-11-01,02:55:03,04:25:22,NA,incomplete,false,true,NA,NA,1,21,NA,blue,n_s_076.jpg,NA,NA,NA,NA,NA,unpleasant,pleasant,NA,NA,NA,NA,NA,right,1466.79999999981,true,NA,NA,NA,NA,NA,NA,NA,NA
yrckTq5O,3fk4g712o0duz4m7qhicsa7sfszsso,3ph3vy7djpamuhnowgrnac38dzzwz6,yrckTq5O,2020-0188,2021-11-01,02:55:03,04:25:22,NA,incomplete,false,true,NA,NA,1,22,NA,blue,m_l_011.jpg,NA,NA,NA,NA,NA,unpleasant,pleasant,NA,NA,NA,NA,NA,right,927,true,NA,NA,NA,NA,NA,NA,NA,NA
yrckTq5O,3fk4g712o0duz4m7qhicsa7sfszsso,3ph3vy7djpamuhnowgrnac38dzzwz6,yrckTq5O,2020-0188,2021-11-01,02:55:03,04:25:22,NA,incomplete,false,true,NA,NA,1,23,NA,blue,m_l_081.jpg,NA,NA,NA,NA,NA,pleasant,unpleasant,NA,NA,NA,NA,NA,left,708,true,NA,NA,NA,NA,NA,NA,NA,NA
yrckTq5O,3fk4g712o0duz4m7qhicsa7sfszsso,3ph3vy7djpamuhnowgrnac38dzzwz6,yrckTq5O,2020-0188,2021-11-01,02:55:03,04:25:22,NA,incomplete,false,true,NA,NA,1,24,NA,purple,n_l_095.jpg,NA,NA,NA,NA,NA,unpleasant,pleasant,NA,NA,NA,NA,NA,right,783.899999999907,true,NA,NA,NA,NA,NA,NA,NA,NA
yrckTq5O,3fk4g712o0duz4m7qhicsa7sfszsso,3ph3vy7djpamuhnowgrnac38dzzwz6,yrckTq5O,2020-0188,2021-11-01,02:55:03,04:25:22,NA,incomplete,false,true,NA,NA,1,25,NA,purple,n_s_005.jpg,NA,NA,NA,NA,NA,pleasant,unpleasant,NA,NA,NA,NA,NA,left,731.600000000093,true,NA,NA,NA,NA,NA,NA,NA,NA
yrckTq5O,3fk4g712o0duz4m7qhicsa7sfszsso,3ph3vy7djpamuhnowgrnac38dzzwz6,yrckTq5O,2020-0188,2021-11-01,02:55:03,04:25:22,NA,incomplete,false,true,NA,NA,1,26,NA,purple,m_s_024.jpg,NA,NA,NA,NA,NA,pleasant,unpleasant,NA,NA,NA,NA,NA,left,688.799999999814,true,NA,NA,NA,NA,NA,NA,NA,NA
yrckTq5O,3fk4g712o0duz4m7qhicsa7sfszsso,3ph3vy7djpamuhnowgrnac38dzzwz6,yrckTq5O,2020-0188,2021-11-01,02:55:03,04:25:22,NA,incomplete,false,true,NA,NA,1,27,NA,purple,m_s_063.jpg,NA,NA,NA,NA,NA,pleasant,unpleasant,NA,NA,NA,NA,NA,left,732.5,true,NA,NA,NA,NA,NA,NA,NA,NA
yrckTq5O,3fk4g712o0duz4m7qhicsa7sfszsso,3ph3vy7djpamuhnowgrnac38dzzwz6,yrckTq5O,2020-0188,2021-11-01,02:55:03,04:25:22,NA,incomplete,false,true,NA,NA,1,28,NA,purple,n_l_006.jpg,NA,NA,NA,NA,NA,unpleasant,pleasant,NA,NA,NA,NA,NA,right,849.299999999814,true,NA,NA,NA,NA,NA,NA,NA,NA
yrckTq5O,3fk4g712o0duz4m7qhicsa7sfszsso,3ph3vy7djpamuhnowgrnac38dzzwz6,yrckTq5O,2020-0188,2021-11-01,02:55:03,04:25:22,NA,incomplete,false,true,NA,NA,1,29,NA,purple,m_s_003.jpg,NA,NA,NA,NA,NA,pleasant,unpleasant,NA,NA,NA,NA,NA,left,1510.10000000009,true,NA,NA,NA,NA,NA,NA,NA,NA
yrckTq5O,3fk4g712o0duz4m7qhicsa7sfszsso,3ph3vy7djpamuhnowgrnac38dzzwz6,yrckTq5O,2020-0188,2021-11-01,02:55:03,04:25:22,NA,incomplete,false,true,NA,NA,1,30,NA,green,n_l_108.jpg,NA,NA,NA,NA,NA,unpleasant,pleasant,NA,NA,NA,NA,NA,right,1266.79999999981,true,NA,NA,NA,NA,NA,NA,NA,NA
yrckTq5O,3fk4g712o0duz4m7qhicsa7sfszsso,3ph3vy7djpamuhnowgrnac38dzzwz6,yrckTq5O,2020-0188,2021-11-01,02:55:03,04:25:22,NA,incomplete,false,true,NA,NA,1,31,NA,green,n_l_013.jpg,NA,NA,NA,NA,NA,pleasant,unpleasant,NA,NA,NA,NA,NA,left,703.399999999907,true,NA,NA,NA,NA,NA,NA,NA,NA
yrckTq5O,3fk4g712o0duz4m7qhicsa7sfszsso,3ph3vy7djpamuhnowgrnac38dzzwz6,yrckTq5O,2020-0188,2021-11-01,02:55:03,04:25:22,NA,incomplete,false,true,NA,NA,1,32,NA,green,m_s_025.jpg,NA,NA,NA,NA,NA,unpleasant,pleasant,NA,NA,NA,NA,NA,left,995.300000000279,true,NA,NA,NA,NA,NA,NA,NA,NA
yrckTq5O,3fk4g712o0duz4m7qhicsa7sfszsso,3ph3vy7djpamuhnowgrnac38dzzwz6,yrckTq5O,2020-0188,2021-11-01,02:55:03,04:25:22,NA,incomplete,false,true,NA,NA,1,33,NA,green,n_l_039.jpg,NA,NA,NA,NA,NA,pleasant,unpleasant,NA,NA,NA,NA,NA,left,815.800000000279,true,NA,NA,NA,NA,NA,NA,NA,NA
yrckTq5O,3fk4g712o0duz4m7qhicsa7sfszsso,3ph3vy7djpamuhnowgrnac38dzzwz6,yrckTq5O,2020-0188,2021-11-01,02:55:03,04:25:22,NA,incomplete,false,true,NA,NA,1,34,NA,green,n_l_020.jpg,NA,NA,NA,NA,NA,pleasant,unpleasant,NA,NA,NA,NA,NA,left,788.699999999721,true,NA,NA,NA,NA,NA,NA,NA,NA
yrckTq5O,3fk4g712o0duz4m7qhicsa7sfszsso,3ph3vy7djpamuhnowgrnac38dzzwz6,yrckTq5O,2020-0188,2021-11-01,02:55:03,04:25:22,NA,incomplete,false,true,NA,NA,1,35,NA,green,n_l_064.jpg,NA,NA,NA,NA,NA,unpleasant,pleasant,NA,NA,NA,NA,NA,right,1024.69999999972,true,NA,NA,NA,NA,NA,NA,NA,NA
yrckTq5O,3fk4g712o0duz4m7qhicsa7sfszsso,3ph3vy7djpamuhnowgrnac38dzzwz6,yrckTq5O,2020-0188,2021-11-01,02:55:03,04:25:22,NA,incomplete,false,NA,NA,true,1,0,NA,NA,NA,right,n_l_013.jpg,purple,green,NA,NA,NA,NA,NA,NA,NA,NA,NA,NaN,NA,5071.300000000279,right,1,NA,NA,NA,NA,NA
yrckTq5O,3fk4g712o0duz4m7qhicsa7sfszsso,3ph3vy7djpamuhnowgrnac38dzzwz6,yrckTq5O,2020-0188,2021-11-01,02:55:03,04:25:22,NA,incomplete,false,NA,NA,true,1,1,NA,NA,NA,right,m_l_081.jpg,purple,blue,NA,NA,NA,NA,NA,NA,NA,NA,NA,NaN,NA,3039.3000000002794,right,1,NA,NA,NA,NA,NA
yrckTq5O,3fk4g712o0duz4m7qhicsa7sfszsso,3ph3vy7djpamuhnowgrnac38dzzwz6,yrckTq5O,2020-0188,2021-11-01,02:55:03,04:25:22,NA,incomplete,false,NA,NA,true,1,2,NA,NA,NA,right,n_l_006.jpg,green,purple,NA,NA,NA,NA,NA,NA,NA,NA,NA,NaN,NA,4326.700000000186,right,1,NA,NA,NA,NA,NA
yrckTq5O,3fk4g712o0duz4m7qhicsa7sfszsso,3ph3vy7djpamuhnowgrnac38dzzwz6,yrckTq5O,2020-0188,2021-11-01,02:55:03,04:25:22,NA,incomplete,false,NA,NA,true,1,3,NA,NA,NA,left,n_s_005.jpg,purple,blue,NA,NA,NA,NA,NA,NA,NA,NA,NA,NaN,NA,3135.3000000002794,left,1,NA,NA,NA,NA,NA
yrckTq5O,3fk4g712o0duz4m7qhicsa7sfszsso,3ph3vy7djpamuhnowgrnac38dzzwz6,yrckTq5O,2020-0188,2021-11-01,02:55:03,04:25:22,NA,incomplete,false,NA,NA,true,1,4,NA,NA,NA,right,n_s_079.jpg,yellow,white,NA,NA,NA,NA,NA,NA,NA,NA,NA,NaN,NA,4303.200000000186,right,1,NA,NA,NA,NA,NA
yrckTq5O,3fk4g712o0duz4m7qhicsa7sfszsso,3ph3vy7djpamuhnowgrnac38dzzwz6,yrckTq5O,2020-0188,2021-11-01,02:55:03,04:25:22,NA,incomplete,false,NA,NA,true,1,5,NA,NA,NA,left,m_s_003.jpg,purple,green,NA,NA,NA,NA,NA,NA,NA,NA,NA,NaN,NA,6007.200000000186,left,1,NA,NA,NA,NA,NA
yrckTq5O,3fk4g712o0duz4m7qhicsa7sfszsso,3ph3vy7djpamuhnowgrnac38dzzwz6,yrckTq5O,2020-0188,2021-11-01,02:55:03,04:25:22,NA,incomplete,false,NA,NA,true,1,6,NA,NA,NA,left,n_l_004.jpg,yellow,white,NA,NA,NA,NA,NA,NA,NA,NA,NA,NaN,NA,4303.200000000186,left,1,NA,NA,NA,NA,NA
yrckTq5O,3fk4g712o0duz4m7qhicsa7sfszsso,3ph3vy7djpamuhnowgrnac38dzzwz6,yrckTq5O,2020-0188,2021-11-01,02:55:03,04:25:22,NA,incomplete,false,NA,NA,true,1,7,NA,NA,NA,left,m_s_011.jpg,yellow,red,NA,NA,NA,NA,NA,NA,NA,NA,NA,NaN,NA,1575.5,right,0,NA,NA,NA,NA,NA
yrckTq5O,3fk4g712o0duz4m7qhicsa7sfszsso,3ph3vy7djpamuhnowgrnac38dzzwz6,yrckTq5O,2020-0188,2021-11-01,02:55:03,04:25:22,NA,incomplete,false,NA,NA,true,1,8,NA,NA,NA,left,n_l_098.jpg,red,blue,NA,NA,NA,NA,NA,NA,NA,NA,NA,NaN,NA,1039.3999999999069,left,1,NA,NA,NA,NA,NA
yrckTq5O,3fk4g712o0duz4m7qhicsa7sfszsso,3ph3vy7djpamuhnowgrnac38dzzwz6,yrckTq5O,2020-0188,2021-11-01,02:55:03,04:25:22,NA,incomplete,false,NA,NA,true,1,9,NA,NA,NA,right,m_l_041.jpg,red,yellow,NA,NA,NA,NA,NA,NA,NA,NA,NA,NaN,NA,1031.2000000001863,right,1,NA,NA,NA,NA,NA
yrckTq5O,3fk4g712o0duz4m7qhicsa7sfszsso,3ph3vy7djpamuhnowgrnac38dzzwz6,yrckTq5O,2020-0188,2021-11-01,02:55:03,04:25:22,NA,incomplete,false,NA,NA,true,1,10,NA,NA,NA,left,n_l_064.jpg,green,purple,NA,NA,NA,NA,NA,NA,NA,NA,NA,NaN,NA,1759.3000000002794,right,0,NA,NA,NA,NA,NA
yrckTq5O,3fk4g712o0duz4m7qhicsa7sfszsso,3ph3vy7djpamuhnowgrnac38dzzwz6,yrckTq5O,2020-0188,2021-11-01,02:55:03,04:25:22,NA,incomplete,false,NA,NA,true,1,11,NA,NA,NA,left,m_l_011.jpg,blue,red,NA,NA,NA,NA,NA,NA,NA,NA,NA,NaN,NA,5215.200000000186,left,1,NA,NA,NA,NA,NA
yrckTq5O,3fk4g712o0duz4m7qhicsa7sfszsso,3ph3vy7djpamuhnowgrnac38dzzwz6,yrckTq5O,2020-0188,2021-11-01,02:55:03,04:25:22,NA,incomplete,false,NA,NA,true,1,12,NA,NA,NA,right,m_s_025.jpg,purple,green,NA,NA,NA,NA,NA,NA,NA,NA,NA,NaN,NA,1879.3999999999069,right,1,NA,NA,NA,NA,NA
yrckTq5O,3fk4g712o0duz4m7qhicsa7sfszsso,3ph3vy7djpamuhnowgrnac38dzzwz6,yrckTq5O,2020-0188,2021-11-01,02:55:03,04:25:22,NA,incomplete,false,NA,NA,true,1,13,NA,NA,NA,right,m_s_024.jpg,green,purple,NA,NA,NA,NA,NA,NA,NA,NA,NA,NaN,NA,5679.4000000003725,right,1,NA,NA,NA,NA,NA
yrckTq5O,3fk4g712o0duz4m7qhicsa7sfszsso,3ph3vy7djpamuhnowgrnac38dzzwz6,yrckTq5O,2020-0188,2021-11-01,02:55:03,04:25:22,NA,incomplete,false,NA,NA,true,1,14,NA,NA,NA,right,m_s_098.jpg,blue,red,NA,NA,NA,NA,NA,NA,NA,NA,NA,NaN,NA,6263.299999999814,right,1,NA,NA,NA,NA,NA
yrckTq5O,3fk4g712o0duz4m7qhicsa7sfszsso,3ph3vy7djpamuhnowgrnac38dzzwz6,yrckTq5O,2020-0188,2021-11-01,02:55:03,04:25:22,NA,incomplete,false,NA,NA,true,1,15,NA,NA,NA,left,n_l_053.jpg,blue,red,NA,NA,NA,NA,NA,NA,NA,NA,NA,NaN,NA,1839.3999999999069,right,0,NA,NA,NA,NA,NA
yrckTq5O,3fk4g712o0duz4m7qhicsa7sfszsso,3ph3vy7djpamuhnowgrnac38dzzwz6,yrckTq5O,2020-0188,2021-11-01,02:55:03,04:25:22,NA,incomplete,false,NA,NA,true,1,16,NA,NA,NA,left,n_s_029.jpg,red,yellow,NA,NA,NA,NA,NA,NA,NA,NA,NA,NaN,NA,8375.600000000093,left,1,NA,NA,NA,NA,NA
yrckTq5O,3fk4g712o0duz4m7qhicsa7sfszsso,3ph3vy7djpamuhnowgrnac38dzzwz6,yrckTq5O,2020-0188,2021-11-01,02:55:03,04:25:22,NA,incomplete,false,NA,NA,true,1,17,NA,NA,NA,left,m_s_039.jpg,white,yellow,NA,NA,NA,NA,NA,NA,NA,NA,NA,NaN,NA,4407.799999999814,left,1,NA,NA,NA,NA,NA
yrckTq5O,3fk4g712o0duz4m7qhicsa7sfszsso,3ph3vy7djpamuhnowgrnac38dzzwz6,yrckTq5O,2020-0188,2021-11-01,02:55:03,04:25:22,NA,incomplete,false,NA,NA,true,1,18,NA,NA,NA,left,m_s_059.jpg,blue,purple,NA,NA,NA,NA,NA,NA,NA,NA,NA,NaN,NA,1279.1000000000931,right,0,NA,NA,NA,NA,NA
yrckTq5O,3fk4g712o0duz4m7qhicsa7sfszsso,3ph3vy7djpamuhnowgrnac38dzzwz6,yrckTq5O,2020-0188,2021-11-01,02:55:03,04:25:22,NA,incomplete,false,NA,NA,true,1,19,NA,NA,NA,left,m_l_106.jpg,yellow,white,NA,NA,NA,NA,NA,NA,NA,NA,NA,NaN,NA,5863.200000000186,left,1,NA,NA,NA,NA,NA
yrckTq5O,3fk4g712o0duz4m7qhicsa7sfszsso,3ph3vy7djpamuhnowgrnac38dzzwz6,yrckTq5O,2020-0188,2021-11-01,02:55:03,04:25:22,NA,incomplete,false,NA,NA,true,1,20,NA,NA,NA,left,m_l_116.jpg,red,blue,NA,NA,NA,NA,NA,NA,NA,NA,NA,NaN,NA,1031.5,right,0,NA,NA,NA,NA,NA
yrckTq5O,3fk4g712o0duz4m7qhicsa7sfszsso,3ph3vy7djpamuhnowgrnac38dzzwz6,yrckTq5O,2020-0188,2021-11-01,02:55:03,04:25:22,NA,incomplete,false,NA,NA,true,1,21,NA,NA,NA,right,n_s_086.jpg,yellow,white,NA,NA,NA,NA,NA,NA,NA,NA,NA,NaN,NA,5919,right,1,NA,NA,NA,NA,NA
yrckTq5O,3fk4g712o0duz4m7qhicsa7sfszsso,3ph3vy7djpamuhnowgrnac38dzzwz6,yrckTq5O,2020-0188,2021-11-01,02:55:03,04:25:22,NA,incomplete,false,NA,true,NA,1,0,NA,NA,NA,left,NA,NA,NA,present,NA,NA,n_s_086.jpg,white,m_s_011.jpg,yellow,between,NA,NaN,NA,NA,NA,NA,right,12423.200000000186,0,1,3367.1999999997206
yrckTq5O,3fk4g712o0duz4m7qhicsa7sfszsso,3ph3vy7djpamuhnowgrnac38dzzwz6,yrckTq5O,2020-0188,2021-11-01,02:55:03,04:25:22,NA,incomplete,false,NA,true,NA,1,1,NA,NA,NA,right,NA,NA,NA,present,NA,NA,m_s_098.jpg,red,m_l_116.jpg,red,within,NA,NaN,NA,NA,NA,NA,right,16703.099999999627,1,1,2359.100000000093
yrckTq5O,3fk4g712o0duz4m7qhicsa7sfszsso,3ph3vy7djpamuhnowgrnac38dzzwz6,yrckTq5O,2020-0188,2021-11-01,02:55:03,04:25:22,NA,incomplete,false,NA,true,NA,1,2,NA,NA,NA,right,NA,NA,NA,present,NA,NA,n_s_079.jpg,white,m_s_039.jpg,white,within,NA,NaN,NA,NA,NA,NA,right,7134.600000000093,1,1,1862.6000000000931
yrckTq5O,3fk4g712o0duz4m7qhicsa7sfszsso,3ph3vy7djpamuhnowgrnac38dzzwz6,yrckTq5O,2020-0188,2021-11-01,02:55:03,04:25:22,NA,incomplete,false,NA,true,NA,1,3,NA,NA,NA,left,NA,NA,NA,present,NA,NA,n_l_013.jpg,green,n_l_064.jpg,green,within,NA,NaN,NA,NA,NA,NA,left,9207.299999999814,1,1,1022.9000000003725
yrckTq5O,3fk4g712o0duz4m7qhicsa7sfszsso,3ph3vy7djpamuhnowgrnac38dzzwz6,yrckTq5O,2020-0188,2021-11-01,02:55:03,04:25:22,NA,incomplete,false,NA,true,NA,1,4,NA,NA,NA,left,NA,NA,NA,present,NA,NA,n_l_006.jpg,purple,m_s_025.jpg,green,between,NA,NaN,NA,NA,NA,NA,left,4967,1,2,2519.399999999907
yrckTq5O,3fk4g712o0duz4m7qhicsa7sfszsso,3ph3vy7djpamuhnowgrnac38dzzwz6,yrckTq5O,2020-0188,2021-11-01,02:55:03,04:25:22,NA,incomplete,false,NA,true,NA,1,5,NA,NA,NA,left,NA,NA,NA,present,NA,NA,n_s_029.jpg,red,m_s_059.jpg,blue,between,NA,NaN,NA,NA,NA,NA,left,3406.600000000093,1,1,1079.2000000001863
yrckTq5O,3fk4g712o0duz4m7qhicsa7sfszsso,3ph3vy7djpamuhnowgrnac38dzzwz6,yrckTq5O,2020-0188,2021-11-01,02:55:03,04:25:22,NA,incomplete,false,NA,true,NA,1,6,NA,NA,NA,left,NA,NA,NA,present,NA,NA,n_s_005.jpg,purple,m_s_003.jpg,purple,within,NA,NaN,NA,NA,NA,NA,left,6791.200000000186,1,1,2335.2000000001863
yrckTq5O,3fk4g712o0duz4m7qhicsa7sfszsso,3ph3vy7djpamuhnowgrnac38dzzwz6,yrckTq5O,2020-0188,2021-11-01,02:55:03,04:25:22,NA,incomplete,false,NA,true,NA,1,7,NA,NA,NA,left,NA,NA,NA,present,NA,NA,m_l_106.jpg,yellow,n_l_004.jpg,yellow,within,NA,NaN,NA,NA,NA,NA,left,5439.300000000279,1,1,1439.2000000001863
yrckTq5O,3fk4g712o0duz4m7qhicsa7sfszsso,3ph3vy7djpamuhnowgrnac38dzzwz6,yrckTq5O,2020-0188,2021-11-01,02:55:03,04:25:22,NA,incomplete,false,NA,true,NA,1,8,NA,NA,NA,right,NA,NA,NA,present,NA,NA,m_l_081.jpg,blue,n_l_053.jpg,blue,within,NA,NaN,NA,NA,NA,NA,right,7887.699999999721,1,1,3439.2999999998137
yrckTq5O,3fk4g712o0duz4m7qhicsa7sfszsso,3ph3vy7djpamuhnowgrnac38dzzwz6,yrckTq5O,2020-0188,2021-11-01,02:55:03,04:25:22,NA,incomplete,false,NA,true,NA,1,9,NA,NA,NA,right,NA,NA,NA,present,NA,NA,n_l_098.jpg,red,m_l_041.jpg,yellow,between,NA,NaN,NA,NA,NA,NA,right,3679.399999999907,1,3,1175.5
yrckTq5O,3fk4g712o0duz4m7qhicsa7sfszsso,3ph3vy7djpamuhnowgrnac38dzzwz6,yrckTq5O,2020-0188,2021-11-01,02:55:03,04:25:22,NA,incomplete,false,NA,true,NA,1,10,NA,NA,NA,right,NA,NA,NA,present,NA,NA,m_s_024.jpg,purple,m_l_011.jpg,blue,between,NA,NaN,NA,NA,NA,NA,right,6023.399999999907,1,2,6343.100000000093
yrckTq5O,3fk4g712o0duz4m7qhicsa7sfszsso,3ph3vy7djpamuhnowgrnac38dzzwz6,yrckTq5O,2020-0188,2021-11-01,02:55:03,04:25:22,NA,incomplete,false,true,NA,NA,2,0,NA,yellow,m_l_034.jpg,NA,NA,NA,NA,NA,pleasant,unpleasant,NA,NA,NA,NA,NA,left,1344.79999999981,true,NA,NA,NA,NA,NA,NA,NA,NA
yrckTq5O,3fk4g712o0duz4m7qhicsa7sfszsso,3ph3vy7djpamuhnowgrnac38dzzwz6,yrckTq5O,2020-0188,2021-11-01,02:55:03,04:25:22,NA,incomplete,false,true,NA,NA,2,1,NA,yellow,m_l_027.jpg,NA,NA,NA,NA,NA,unpleasant,pleasant,NA,NA,NA,NA,NA,right,1365.5,true,NA,NA,NA,NA,NA,NA,NA,NA
yrckTq5O,3fk4g712o0duz4m7qhicsa7sfszsso,3ph3vy7djpamuhnowgrnac38dzzwz6,yrckTq5O,2020-0188,2021-11-01,02:55:03,04:25:22,NA,incomplete,false,true,NA,NA,2,2,NA,yellow,m_s_008.jpg,NA,NA,NA,NA,NA,unpleasant,pleasant,NA,NA,NA,NA,NA,right,2074.20000000019,true,NA,NA,NA,NA,NA,NA,NA,NA
yrckTq5O,3fk4g712o0duz4m7qhicsa7sfszsso,3ph3vy7djpamuhnowgrnac38dzzwz6,yrckTq5O,2020-0188,2021-11-01,02:55:03,04:25:22,NA,incomplete,false,true,NA,NA,2,3,NA,yellow,n_s_077.jpg,NA,NA,NA,NA,NA,pleasant,unpleasant,NA,NA,NA,NA,NA,left,1350.5,true,NA,NA,NA,NA,NA,NA,NA,NA
yrckTq5O,3fk4g712o0duz4m7qhicsa7sfszsso,3ph3vy7djpamuhnowgrnac38dzzwz6,yrckTq5O,2020-0188,2021-11-01,02:55:03,04:25:22,NA,incomplete,false,true,NA,NA,2,4,NA,yellow,m_l_052.jpg,NA,NA,NA,NA,NA,pleasant,unpleasant,NA,NA,NA,NA,NA,left,626.100000000093,true,NA,NA,NA,NA,NA,NA,NA,NA
yrckTq5O,3fk4g712o0duz4m7qhicsa7sfszsso,3ph3vy7djpamuhnowgrnac38dzzwz6,yrckTq5O,2020-0188,2021-11-01,02:55:03,04:25:22,NA,incomplete,false,true,NA,NA,2,5,NA,yellow,n_l_080.jpg,NA,NA,NA,NA,NA,pleasant,unpleasant,NA,NA,NA,NA,NA,left,1406.89999999991,true,NA,NA,NA,NA,NA,NA,NA,NA
yrckTq5O,3fk4g712o0duz4m7qhicsa7sfszsso,3ph3vy7djpamuhnowgrnac38dzzwz6,yrckTq5O,2020-0188,2021-11-01,02:55:03,04:25:22,NA,incomplete,false,true,NA,NA,2,6,NA,purple,m_l_038.jpg,NA,NA,NA,NA,NA,unpleasant,pleasant,NA,NA,NA,NA,NA,right,2690.79999999981,true,NA,NA,NA,NA,NA,NA,NA,NA
yrckTq5O,3fk4g712o0duz4m7qhicsa7sfszsso,3ph3vy7djpamuhnowgrnac38dzzwz6,yrckTq5O,2020-0188,2021-11-01,02:55:03,04:25:22,NA,incomplete,false,true,NA,NA,2,7,NA,purple,n_l_012.jpg,NA,NA,NA,NA,NA,unpleasant,pleasant,NA,NA,NA,NA,NA,right,1022.69999999972,true,NA,NA,NA,NA,NA,NA,NA,NA
yrckTq5O,3fk4g712o0duz4m7qhicsa7sfszsso,3ph3vy7djpamuhnowgrnac38dzzwz6,yrckTq5O,2020-0188,2021-11-01,02:55:03,04:25:22,NA,incomplete,false,true,NA,NA,2,8,NA,purple,n_s_012.jpg,NA,NA,NA,NA,NA,unpleasant,pleasant,NA,NA,NA,NA,NA,right,1314.69999999972,true,NA,NA,NA,NA,NA,NA,NA,NA
yrckTq5O,3fk4g712o0duz4m7qhicsa7sfszsso,3ph3vy7djpamuhnowgrnac38dzzwz6,yrckTq5O,2020-0188,2021-11-01,02:55:03,04:25:22,NA,incomplete,false,true,NA,NA,2,9,NA,purple,n_l_023.jpg,NA,NA,NA,NA,NA,unpleasant,pleasant,NA,NA,NA,NA,NA,right,735.299999999814,true,NA,NA,NA,NA,NA,NA,NA,NA
yrckTq5O,3fk4g712o0duz4m7qhicsa7sfszsso,3ph3vy7djpamuhnowgrnac38dzzwz6,yrckTq5O,2020-0188,2021-11-01,02:55:03,04:25:22,NA,incomplete,false,true,NA,NA,2,10,NA,purple,n_l_103.jpg,NA,NA,NA,NA,NA,unpleasant,pleasant,NA,NA,NA,NA,NA,right,835.700000000186,true,NA,NA,NA,NA,NA,NA,NA,NA
yrckTq5O,3fk4g712o0duz4m7qhicsa7sfszsso,3ph3vy7djpamuhnowgrnac38dzzwz6,yrckTq5O,2020-0188,2021-11-01,02:55:03,04:25:22,NA,incomplete,false,true,NA,NA,2,11,NA,purple,m_s_115.jpg,NA,NA,NA,NA,NA,unpleasant,pleasant,NA,NA,NA,NA,NA,right,1007.5,true,NA,NA,NA,NA,NA,NA,NA,NA
yrckTq5O,3fk4g712o0duz4m7qhicsa7sfszsso,3ph3vy7djpamuhnowgrnac38dzzwz6,yrckTq5O,2020-0188,2021-11-01,02:55:03,04:25:22,NA,incomplete,false,true,NA,NA,2,12,NA,red,n_s_092.jpg,NA,NA,NA,NA,NA,unpleasant,pleasant,NA,NA,NA,NA,NA,right,523.399999999907,true,NA,NA,NA,NA,NA,NA,NA,NA
yrckTq5O,3fk4g712o0duz4m7qhicsa7sfszsso,3ph3vy7djpamuhnowgrnac38dzzwz6,yrckTq5O,2020-0188,2021-11-01,02:55:03,04:25:22,NA,incomplete,false,true,NA,NA,2,13,NA,red,n_s_036.jpg,NA,NA,NA,NA,NA,pleasant,unpleasant,NA,NA,NA,NA,NA,left,2863.59999999963,true,NA,NA,NA,NA,NA,NA,NA,NA
yrckTq5O,3fk4g712o0duz4m7qhicsa7sfszsso,3ph3vy7djpamuhnowgrnac38dzzwz6,yrckTq5O,2020-0188,2021-11-01,02:55:03,04:25:22,NA,incomplete,false,true,NA,NA,2,14,NA,red,m_s_055.jpg,NA,NA,NA,NA,NA,pleasant,unpleasant,NA,NA,NA,NA,NA,left,2932.10000000009,true,NA,NA,NA,NA,NA,NA,NA,NA
yrckTq5O,3fk4g712o0duz4m7qhicsa7sfszsso,3ph3vy7djpamuhnowgrnac38dzzwz6,yrckTq5O,2020-0188,2021-11-01,02:55:03,04:25:22,NA,incomplete,false,true,NA,NA,2,15,NA,red,m_l_109.jpg,NA,NA,NA,NA,NA,unpleasant,pleasant,NA,NA,NA,NA,NA,none,0,false,NA,NA,NA,NA,NA,NA,NA,NA
yrckTq5O,3fk4g712o0duz4m7qhicsa7sfszsso,3ph3vy7djpamuhnowgrnac38dzzwz6,yrckTq5O,2020-0188,2021-11-01,02:55:03,04:25:22,NA,incomplete,false,true,NA,NA,2,16,NA,red,m_l_029.jpg,NA,NA,NA,NA,NA,unpleasant,pleasant,NA,NA,NA,NA,NA,right,708.799999999814,true,NA,NA,NA,NA,NA,NA,NA,NA
yrckTq5O,3fk4g712o0duz4m7qhicsa7sfszsso,3ph3vy7djpamuhnowgrnac38dzzwz6,yrckTq5O,2020-0188,2021-11-01,02:55:03,04:25:22,NA,incomplete,false,true,NA,NA,2,17,NA,red,m_s_053.jpg,NA,NA,NA,NA,NA,pleasant,unpleasant,NA,NA,NA,NA,NA,left,1609.5,true,NA,NA,NA,NA,NA,NA,NA,NA
yrckTq5O,3fk4g712o0duz4m7qhicsa7sfszsso,3ph3vy7djpamuhnowgrnac38dzzwz6,yrckTq5O,2020-0188,2021-11-01,02:55:03,04:25:22,NA,incomplete,false,true,NA,NA,2,18,NA,blue,n_s_103.jpg,NA,NA,NA,NA,NA,pleasant,unpleasant,NA,NA,NA,NA,NA,left,893.799999999814,true,NA,NA,NA,NA,NA,NA,NA,NA
yrckTq5O,3fk4g712o0duz4m7qhicsa7sfszsso,3ph3vy7djpamuhnowgrnac38dzzwz6,yrckTq5O,2020-0188,2021-11-01,02:55:03,04:25:22,NA,incomplete,false,true,NA,NA,2,19,NA,blue,n_s_080.jpg,NA,NA,NA,NA,NA,unpleasant,pleasant,NA,NA,NA,NA,NA,none,0,false,NA,NA,NA,NA,NA,NA,NA,NA
yrckTq5O,3fk4g712o0duz4m7qhicsa7sfszsso,3ph3vy7djpamuhnowgrnac38dzzwz6,yrckTq5O,2020-0188,2021-11-01,02:55:03,04:25:22,NA,incomplete,false,true,NA,NA,2,20,NA,blue,m_l_032.jpg,NA,NA,NA,NA,NA,unpleasant,pleasant,NA,NA,NA,NA,NA,right,1838.70000000019,true,NA,NA,NA,NA,NA,NA,NA,NA
yrckTq5O,3fk4g712o0duz4m7qhicsa7sfszsso,3ph3vy7djpamuhnowgrnac38dzzwz6,yrckTq5O,2020-0188,2021-11-01,02:55:03,04:25:22,NA,incomplete,false,true,NA,NA,2,21,NA,blue,n_s_044.jpg,NA,NA,NA,NA,NA,unpleasant,pleasant,NA,NA,NA,NA,NA,right,1338.69999999972,true,NA,NA,NA,NA,NA,NA,NA,NA
yrckTq5O,3fk4g712o0duz4m7qhicsa7sfszsso,3ph3vy7djpamuhnowgrnac38dzzwz6,yrckTq5O,2020-0188,2021-11-01,02:55:03,04:25:22,NA,incomplete,false,true,NA,NA,2,22,NA,blue,n_s_037.jpg,NA,NA,NA,NA,NA,pleasant,unpleasant,NA,NA,NA,NA,NA,left,1478.69999999972,true,NA,NA,NA,NA,NA,NA,NA,NA
yrckTq5O,3fk4g712o0duz4m7qhicsa7sfszsso,3ph3vy7djpamuhnowgrnac38dzzwz6,yrckTq5O,2020-0188,2021-11-01,02:55:03,04:25:22,NA,incomplete,false,true,NA,NA,2,23,NA,blue,n_l_029.jpg,NA,NA,NA,NA,NA,pleasant,unpleasant,NA,NA,NA,NA,NA,left,1003.39999999991,true,NA,NA,NA,NA,NA,NA,NA,NA
yrckTq5O,3fk4g712o0duz4m7qhicsa7sfszsso,3ph3vy7djpamuhnowgrnac38dzzwz6,yrckTq5O,2020-0188,2021-11-01,02:55:03,04:25:22,NA,incomplete,false,true,NA,NA,2,24,NA,gray,m_s_038.jpg,NA,NA,NA,NA,NA,pleasant,unpleasant,NA,NA,NA,NA,NA,left,1327.09999999963,true,NA,NA,NA,NA,NA,NA,NA,NA
yrckTq5O,3fk4g712o0duz4m7qhicsa7sfszsso,3ph3vy7djpamuhnowgrnac38dzzwz6,yrckTq5O,2020-0188,2021-11-01,02:55:03,04:25:22,NA,incomplete,false,true,NA,NA,2,25,NA,gray,n_l_113.jpg,NA,NA,NA,NA,NA,unpleasant,pleasant,NA,NA,NA,NA,NA,right,2380.10000000009,true,NA,NA,NA,NA,NA,NA,NA,NA
yrckTq5O,3fk4g712o0duz4m7qhicsa7sfszsso,3ph3vy7djpamuhnowgrnac38dzzwz6,yrckTq5O,2020-0188,2021-11-01,02:55:03,04:25:22,NA,incomplete,false,true,NA,NA,2,26,NA,gray,m_s_077.jpg,NA,NA,NA,NA,NA,unpleasant,pleasant,NA,NA,NA,NA,NA,right,912.600000000093,true,NA,NA,NA,NA,NA,NA,NA,NA
yrckTq5O,3fk4g712o0duz4m7qhicsa7sfszsso,3ph3vy7djpamuhnowgrnac38dzzwz6,yrckTq5O,2020-0188,2021-11-01,02:55:03,04:25:22,NA,incomplete,false,true,NA,NA,2,27,NA,gray,n_s_083.jpg,NA,NA,NA,NA,NA,unpleasant,pleasant,NA,NA,NA,NA,NA,right,1053.29999999981,true,NA,NA,NA,NA,NA,NA,NA,NA
yrckTq5O,3fk4g712o0duz4m7qhicsa7sfszsso,3ph3vy7djpamuhnowgrnac38dzzwz6,yrckTq5O,2020-0188,2021-11-01,02:55:03,04:25:22,NA,incomplete,false,true,NA,NA,2,28,NA,gray,m_s_052.jpg,NA,NA,NA,NA,NA,unpleasant,pleasant,NA,NA,NA,NA,NA,right,1001.39999999991,true,NA,NA,NA,NA,NA,NA,NA,NA
yrckTq5O,3fk4g712o0duz4m7qhicsa7sfszsso,3ph3vy7djpamuhnowgrnac38dzzwz6,yrckTq5O,2020-0188,2021-11-01,02:55:03,04:25:22,NA,incomplete,false,true,NA,NA,2,29,NA,gray,m_l_094.jpg,NA,NA,NA,NA,NA,unpleasant,pleasant,NA,NA,NA,NA,NA,right,813.600000000093,true,NA,NA,NA,NA,NA,NA,NA,NA
yrckTq5O,3fk4g712o0duz4m7qhicsa7sfszsso,3ph3vy7djpamuhnowgrnac38dzzwz6,yrckTq5O,2020-0188,2021-11-01,02:55:03,04:25:22,NA,incomplete,false,true,NA,NA,2,30,NA,white,n_l_026.jpg,NA,NA,NA,NA,NA,unpleasant,pleasant,NA,NA,NA,NA,NA,right,762,true,NA,NA,NA,NA,NA,NA,NA,NA
yrckTq5O,3fk4g712o0duz4m7qhicsa7sfszsso,3ph3vy7djpamuhnowgrnac38dzzwz6,yrckTq5O,2020-0188,2021-11-01,02:55:03,04:25:22,NA,incomplete,false,true,NA,NA,2,31,NA,white,m_s_081.jpg,NA,NA,NA,NA,NA,unpleasant,pleasant,NA,NA,NA,NA,NA,right,727.199999999721,true,NA,NA,NA,NA,NA,NA,NA,NA
yrckTq5O,3fk4g712o0duz4m7qhicsa7sfszsso,3ph3vy7djpamuhnowgrnac38dzzwz6,yrckTq5O,2020-0188,2021-11-01,02:55:03,04:25:22,NA,incomplete,false,true,NA,NA,2,32,NA,white,n_s_025.jpg,NA,NA,NA,NA,NA,unpleasant,pleasant,NA,NA,NA,NA,NA,right,931.399999999907,true,NA,NA,NA,NA,NA,NA,NA,NA
yrckTq5O,3fk4g712o0duz4m7qhicsa7sfszsso,3ph3vy7djpamuhnowgrnac38dzzwz6,yrckTq5O,2020-0188,2021-11-01,02:55:03,04:25:22,NA,incomplete,false,true,NA,NA,2,33,NA,white,m_s_040.jpg,NA,NA,NA,NA,NA,pleasant,unpleasant,NA,NA,NA,NA,NA,left,760.100000000093,true,NA,NA,NA,NA,NA,NA,NA,NA
yrckTq5O,3fk4g712o0duz4m7qhicsa7sfszsso,3ph3vy7djpamuhnowgrnac38dzzwz6,yrckTq5O,2020-0188,2021-11-01,02:55:03,04:25:22,NA,incomplete,false,true,NA,NA,2,34,NA,white,n_l_008.jpg,NA,NA,NA,NA,NA,pleasant,unpleasant,NA,NA,NA,NA,NA,left,780.5,true,NA,NA,NA,NA,NA,NA,NA,NA
yrckTq5O,3fk4g712o0duz4m7qhicsa7sfszsso,3ph3vy7djpamuhnowgrnac38dzzwz6,yrckTq5O,2020-0188,2021-11-01,02:55:03,04:25:22,NA,incomplete,false,true,NA,NA,2,35,NA,white,m_l_056.jpg,NA,NA,NA,NA,NA,unpleasant,pleasant,NA,NA,NA,NA,NA,right,753.5,true,NA,NA,NA,NA,NA,NA,NA,NA
yrckTq5O,3fk4g712o0duz4m7qhicsa7sfszsso,3ph3vy7djpamuhnowgrnac38dzzwz6,yrckTq5O,2020-0188,2021-11-01,02:55:03,04:25:22,NA,incomplete,false,NA,NA,true,2,0,NA,NA,NA,left,n_s_036.jpg,red,purple,NA,NA,NA,NA,NA,NA,NA,NA,NA,NaN,NA,16687.399999999907,left,1,NA,NA,NA,NA,NA
yrckTq5O,3fk4g712o0duz4m7qhicsa7sfszsso,3ph3vy7djpamuhnowgrnac38dzzwz6,yrckTq5O,2020-0188,2021-11-01,02:55:03,04:25:22,NA,incomplete,false,NA,NA,true,2,1,NA,NA,NA,left,n_s_037.jpg,blue,gray,NA,NA,NA,NA,NA,NA,NA,NA,NA,NaN,NA,3591.399999999907,left,1,NA,NA,NA,NA,NA
yrckTq5O,3fk4g712o0duz4m7qhicsa7sfszsso,3ph3vy7djpamuhnowgrnac38dzzwz6,yrckTq5O,2020-0188,2021-11-01,02:55:03,04:25:22,NA,incomplete,false,NA,NA,true,2,2,NA,NA,NA,right,m_l_032.jpg,red,blue,NA,NA,NA,NA,NA,NA,NA,NA,NA,NaN,NA,8039.100000000093,right,1,NA,NA,NA,NA,NA
yrckTq5O,3fk4g712o0duz4m7qhicsa7sfszsso,3ph3vy7djpamuhnowgrnac38dzzwz6,yrckTq5O,2020-0188,2021-11-01,02:55:03,04:25:22,NA,incomplete,false,NA,NA,true,2,3,NA,NA,NA,left,n_l_080.jpg,yellow,purple,NA,NA,NA,NA,NA,NA,NA,NA,NA,NaN,NA,3959.399999999907,left,1,NA,NA,NA,NA,NA
yrckTq5O,3fk4g712o0duz4m7qhicsa7sfszsso,3ph3vy7djpamuhnowgrnac38dzzwz6,yrckTq5O,2020-0188,2021-11-01,02:55:03,04:25:22,NA,incomplete,false,NA,NA,true,2,4,NA,NA,NA,right,m_s_055.jpg,purple,red,NA,NA,NA,NA,NA,NA,NA,NA,NA,NaN,NA,8719.5,right,1,NA,NA,NA,NA,NA
yrckTq5O,3fk4g712o0duz4m7qhicsa7sfszsso,3ph3vy7djpamuhnowgrnac38dzzwz6,yrckTq5O,2020-0188,2021-11-01,02:55:03,04:25:22,NA,incomplete,false,NA,NA,true,2,5,NA,NA,NA,right,m_l_027.jpg,purple,yellow,NA,NA,NA,NA,NA,NA,NA,NA,NA,NaN,NA,5823.299999999814,right,1,NA,NA,NA,NA,NA
yrckTq5O,3fk4g712o0duz4m7qhicsa7sfszsso,3ph3vy7djpamuhnowgrnac38dzzwz6,yrckTq5O,2020-0188,2021-11-01,02:55:03,04:25:22,NA,incomplete,false,NA,NA,true,2,6,NA,NA,NA,right,m_s_053.jpg,purple,red,NA,NA,NA,NA,NA,NA,NA,NA,NA,NaN,NA,18623.399999999907,right,1,NA,NA,NA,NA,NA
yrckTq5O,3fk4g712o0duz4m7qhicsa7sfszsso,3ph3vy7djpamuhnowgrnac38dzzwz6,yrckTq5O,2020-0188,2021-11-01,02:55:03,04:25:22,NA,incomplete,false,NA,NA,true,2,7,NA,NA,NA,left,n_l_012.jpg,purple,red,NA,NA,NA,NA,NA,NA,NA,NA,NA,NaN,NA,8431.299999999814,left,1,NA,NA,NA,NA,NA
yrckTq5O,3fk4g712o0duz4m7qhicsa7sfszsso,3ph3vy7djpamuhnowgrnac38dzzwz6,yrckTq5O,2020-0188,2021-11-01,02:55:03,04:25:22,NA,incomplete,false,NA,NA,true,2,8,NA,NA,NA,left,n_l_029.jpg,blue,gray,NA,NA,NA,NA,NA,NA,NA,NA,NA,NaN,NA,10575.600000000093,right,0,NA,NA,NA,NA,NA
yrckTq5O,3fk4g712o0duz4m7qhicsa7sfszsso,3ph3vy7djpamuhnowgrnac38dzzwz6,yrckTq5O,2020-0188,2021-11-01,02:55:03,04:25:22,NA,incomplete,false,NA,NA,true,2,9,NA,NA,NA,left,m_l_029.jpg,red,purple,NA,NA,NA,NA,NA,NA,NA,NA,NA,NaN,NA,1511.7999999998137,left,1,NA,NA,NA,NA,NA
yrckTq5O,3fk4g712o0duz4m7qhicsa7sfszsso,3ph3vy7djpamuhnowgrnac38dzzwz6,yrckTq5O,2020-0188,2021-11-01,02:55:03,04:25:22,NA,incomplete,false,NA,NA,true,2,10,NA,NA,NA,left,n_l_103.jpg,purple,red,NA,NA,NA,NA,NA,NA,NA,NA,NA,NaN,NA,3559,left,1,NA,NA,NA,NA,NA
yrckTq5O,3fk4g712o0duz4m7qhicsa7sfszsso,3ph3vy7djpamuhnowgrnac38dzzwz6,yrckTq5O,2020-0188,2021-11-01,02:55:03,04:25:22,NA,incomplete,false,NA,NA,true,2,11,NA,NA,NA,right,n_s_012.jpg,yellow,purple,NA,NA,NA,NA,NA,NA,NA,NA,NA,NaN,NA,7263.199999999721,right,1,NA,NA,NA,NA,NA
yrckTq5O,3fk4g712o0duz4m7qhicsa7sfszsso,3ph3vy7djpamuhnowgrnac38dzzwz6,yrckTq5O,2020-0188,2021-11-01,02:55:03,04:25:22,NA,incomplete,false,NA,NA,true,2,12,NA,NA,NA,right,m_s_077.jpg,blue,gray,NA,NA,NA,NA,NA,NA,NA,NA,NA,NaN,NA,3879.2999999998137,right,1,NA,NA,NA,NA,NA
yrckTq5O,3fk4g712o0duz4m7qhicsa7sfszsso,3ph3vy7djpamuhnowgrnac38dzzwz6,yrckTq5O,2020-0188,2021-11-01,02:55:03,04:25:22,NA,incomplete,false,NA,NA,true,2,13,NA,NA,NA,left,m_l_052.jpg,yellow,purple,NA,NA,NA,NA,NA,NA,NA,NA,NA,NaN,NA,4023.399999999907,right,0,NA,NA,NA,NA,NA
yrckTq5O,3fk4g712o0duz4m7qhicsa7sfszsso,3ph3vy7djpamuhnowgrnac38dzzwz6,yrckTq5O,2020-0188,2021-11-01,02:55:03,04:25:22,NA,incomplete,false,NA,NA,true,2,14,NA,NA,NA,right,n_s_080.jpg,gray,blue,NA,NA,NA,NA,NA,NA,NA,NA,NA,NaN,NA,6607.299999999814,right,1,NA,NA,NA,NA,NA
yrckTq5O,3fk4g712o0duz4m7qhicsa7sfszsso,3ph3vy7djpamuhnowgrnac38dzzwz6,yrckTq5O,2020-0188,2021-11-01,02:55:03,04:25:22,NA,incomplete,false,NA,NA,true,2,15,NA,NA,NA,right,m_s_115.jpg,red,purple,NA,NA,NA,NA,NA,NA,NA,NA,NA,NaN,NA,5871.199999999721,left,0,NA,NA,NA,NA,NA
yrckTq5O,3fk4g712o0duz4m7qhicsa7sfszsso,3ph3vy7djpamuhnowgrnac38dzzwz6,yrckTq5O,2020-0188,2021-11-01,02:55:03,04:25:22,NA,incomplete,false,NA,NA,true,2,16,NA,NA,NA,left,m_s_081.jpg,white,gray,NA,NA,NA,NA,NA,NA,NA,NA,NA,NaN,NA,2903.2999999998137,left,1,NA,NA,NA,NA,NA
yrckTq5O,3fk4g712o0duz4m7qhicsa7sfszsso,3ph3vy7djpamuhnowgrnac38dzzwz6,yrckTq5O,2020-0188,2021-11-01,02:55:03,04:25:22,NA,incomplete,false,NA,NA,true,2,17,NA,NA,NA,left,n_s_025.jpg,white,gray,NA,NA,NA,NA,NA,NA,NA,NA,NA,NaN,NA,3639.399999999907,left,1,NA,NA,NA,NA,NA
yrckTq5O,3fk4g712o0duz4m7qhicsa7sfszsso,3ph3vy7djpamuhnowgrnac38dzzwz6,yrckTq5O,2020-0188,2021-11-01,02:55:03,04:25:22,NA,incomplete,false,NA,NA,true,2,18,NA,NA,NA,right,m_l_094.jpg,white,gray,NA,NA,NA,NA,NA,NA,NA,NA,NA,NaN,NA,8103.200000000186,right,1,NA,NA,NA,NA,NA
yrckTq5O,3fk4g712o0duz4m7qhicsa7sfszsso,3ph3vy7djpamuhnowgrnac38dzzwz6,yrckTq5O,2020-0188,2021-11-01,02:55:03,04:25:22,NA,incomplete,false,NA,NA,true,2,19,NA,NA,NA,left,m_s_052.jpg,gray,white,NA,NA,NA,NA,NA,NA,NA,NA,NA,NaN,NA,5791.600000000093,left,1,NA,NA,NA,NA,NA
yrckTq5O,3fk4g712o0duz4m7qhicsa7sfszsso,3ph3vy7djpamuhnowgrnac38dzzwz6,yrckTq5O,2020-0188,2021-11-01,02:55:03,04:25:22,NA,incomplete,false,NA,NA,true,2,20,NA,NA,NA,right,m_l_056.jpg,gray,white,NA,NA,NA,NA,NA,NA,NA,NA,NA,NaN,NA,3887.2000000001863,right,1,NA,NA,NA,NA,NA
yrckTq5O,3fk4g712o0duz4m7qhicsa7sfszsso,3ph3vy7djpamuhnowgrnac38dzzwz6,yrckTq5O,2020-0188,2021-11-01,02:55:03,04:25:22,NA,incomplete,false,NA,NA,true,2,21,NA,NA,NA,right,n_l_113.jpg,blue,gray,NA,NA,NA,NA,NA,NA,NA,NA,NA,NaN,NA,5911.200000000186,right,1,NA,NA,NA,NA,NA
yrckTq5O,3fk4g712o0duz4m7qhicsa7sfszsso,3ph3vy7djpamuhnowgrnac38dzzwz6,yrckTq5O,2020-0188,2021-11-01,02:55:03,04:25:22,NA,incomplete,false,NA,true,NA,2,0,NA,NA,NA,left,NA,NA,NA,present,NA,NA,n_l_103.jpg,purple,m_s_055.jpg,red,between,NA,NaN,NA,NA,NA,NA,left,2760,1,2,2551
yrckTq5O,3fk4g712o0duz4m7qhicsa7sfszsso,3ph3vy7djpamuhnowgrnac38dzzwz6,yrckTq5O,2020-0188,2021-11-01,02:55:03,04:25:22,NA,incomplete,false,NA,true,NA,2,1,NA,NA,NA,left,NA,NA,NA,present,NA,NA,n_s_036.jpg,red,m_s_053.jpg,red,within,NA,NaN,NA,NA,NA,NA,right,4047.6999999997206,0,1,1784
yrckTq5O,3fk4g712o0duz4m7qhicsa7sfszsso,3ph3vy7djpamuhnowgrnac38dzzwz6,yrckTq5O,2020-0188,2021-11-01,02:55:03,04:25:22,NA,incomplete,false,NA,true,NA,2,2,NA,NA,NA,left,NA,NA,NA,present,NA,NA,n_l_113.jpg,gray,m_l_094.jpg,gray,within,NA,NaN,NA,NA,NA,NA,left,2502.6999999997206,1,2,2455
yrckTq5O,3fk4g712o0duz4m7qhicsa7sfszsso,3ph3vy7djpamuhnowgrnac38dzzwz6,yrckTq5O,2020-0188,2021-11-01,02:55:03,04:25:22,NA,incomplete,false,NA,true,NA,2,3,NA,NA,NA,left,NA,NA,NA,present,NA,NA,m_l_052.jpg,yellow,n_s_012.jpg,purple,between,NA,NaN,NA,NA,NA,NA,left,1574.6999999997206,1,3,967.1000000000931
yrckTq5O,3fk4g712o0duz4m7qhicsa7sfszsso,3ph3vy7djpamuhnowgrnac38dzzwz6,yrckTq5O,2020-0188,2021-11-01,02:55:03,04:25:22,NA,incomplete,false,NA,true,NA,2,4,NA,NA,NA,right,NA,NA,NA,present,NA,NA,m_l_032.jpg,blue,m_l_029.jpg,red,between,NA,NaN,NA,NA,NA,NA,right,1455,1,3,2455.2000000001863
yrckTq5O,3fk4g712o0duz4m7qhicsa7sfszsso,3ph3vy7djpamuhnowgrnac38dzzwz6,yrckTq5O,2020-0188,2021-11-01,02:55:03,04:25:22,NA,incomplete,false,NA,true,NA,2,5,NA,NA,NA,left,NA,NA,NA,present,NA,NA,n_s_080.jpg,blue,n_l_029.jpg,blue,within,NA,NaN,NA,NA,NA,NA,left,1791.2999999998137,1,3,1167
yrckTq5O,3fk4g712o0duz4m7qhicsa7sfszsso,3ph3vy7djpamuhnowgrnac38dzzwz6,yrckTq5O,2020-0188,2021-11-01,02:55:03,04:25:22,NA,incomplete,false,NA,true,NA,2,6,NA,NA,NA,right,NA,NA,NA,present,NA,NA,m_s_077.jpg,gray,n_s_037.jpg,blue,between,NA,NaN,NA,NA,NA,NA,right,5967.399999999907,1,1,1335.1999999997206
yrckTq5O,3fk4g712o0duz4m7qhicsa7sfszsso,3ph3vy7djpamuhnowgrnac38dzzwz6,yrckTq5O,2020-0188,2021-11-01,02:55:03,04:25:22,NA,incomplete,false,NA,true,NA,2,7,NA,NA,NA,right,NA,NA,NA,present,NA,NA,n_l_080.jpg,yellow,m_l_027.jpg,yellow,within,NA,NaN,NA,NA,NA,NA,left,2455.5,0,0,2479.399999999907
yrckTq5O,3fk4g712o0duz4m7qhicsa7sfszsso,3ph3vy7djpamuhnowgrnac38dzzwz6,yrckTq5O,2020-0188,2021-11-01,02:55:03,04:25:22,NA,incomplete,false,NA,true,NA,2,8,NA,NA,NA,left,NA,NA,NA,present,NA,NA,n_l_012.jpg,purple,m_s_115.jpg,purple,within,NA,NaN,NA,NA,NA,NA,left,2983.2999999998137,1,0,2078.7999999998137
yrckTq5O,3fk4g712o0duz4m7qhicsa7sfszsso,3ph3vy7djpamuhnowgrnac38dzzwz6,yrckTq5O,2020-0188,2021-11-01,02:55:03,04:25:22,NA,incomplete,false,NA,true,NA,2,9,NA,NA,NA,right,NA,NA,NA,present,NA,NA,m_l_056.jpg,white,m_s_081.jpg,white,within,NA,NaN,NA,NA,NA,NA,right,2247.600000000093,1,0,2151.2999999998137
yrckTq5O,3fk4g712o0duz4m7qhicsa7sfszsso,3ph3vy7djpamuhnowgrnac38dzzwz6,yrckTq5O,2020-0188,2021-11-01,02:55:03,04:25:22,NA,incomplete,false,NA,true,NA,2,10,NA,NA,NA,left,NA,NA,NA,present,NA,NA,m_s_052.jpg,gray,n_s_025.jpg,white,between,NA,NaN,NA,NA,NA,NA,left,3399.5,1,3,2623.1999999997206
yrckTq5O,3fk4g712o0duz4m7qhicsa7sfszsso,3ph3vy7djpamuhnowgrnac38dzzwz6,yrckTq5O,2020-0188,2021-11-01,02:55:03,04:25:22,NA,incomplete,false,true,NA,NA,3,0,NA,red,n_s_042.jpg,NA,NA,NA,NA,NA,unpleasant,pleasant,NA,NA,NA,NA,NA,right,2082.69999999972,true,NA,NA,NA,NA,NA,NA,NA,NA
yrckTq5O,3fk4g712o0duz4m7qhicsa7sfszsso,3ph3vy7djpamuhnowgrnac38dzzwz6,yrckTq5O,2020-0188,2021-11-01,02:55:03,04:25:22,NA,incomplete,false,true,NA,NA,3,1,NA,red,n_l_086.jpg,NA,NA,NA,NA,NA,unpleasant,pleasant,NA,NA,NA,NA,NA,left,958.900000000373,true,NA,NA,NA,NA,NA,NA,NA,NA
yrckTq5O,3fk4g712o0duz4m7qhicsa7sfszsso,3ph3vy7djpamuhnowgrnac38dzzwz6,yrckTq5O,2020-0188,2021-11-01,02:55:03,04:25:22,NA,incomplete,false,true,NA,NA,3,2,NA,red,n_l_068.jpg,NA,NA,NA,NA,NA,pleasant,unpleasant,NA,NA,NA,NA,NA,left,979.799999999814,true,NA,NA,NA,NA,NA,NA,NA,NA
yrckTq5O,3fk4g712o0duz4m7qhicsa7sfszsso,3ph3vy7djpamuhnowgrnac38dzzwz6,yrckTq5O,2020-0188,2021-11-01,02:55:03,04:25:22,NA,incomplete,false,true,NA,NA,3,3,NA,red,m_s_111.jpg,NA,NA,NA,NA,NA,pleasant,unpleasant,NA,NA,NA,NA,NA,left,1640.19999999972,true,NA,NA,NA,NA,NA,NA,NA,NA
yrckTq5O,3fk4g712o0duz4m7qhicsa7sfszsso,3ph3vy7djpamuhnowgrnac38dzzwz6,yrckTq5O,2020-0188,2021-11-01,02:55:03,04:25:22,NA,incomplete,false,true,NA,NA,3,4,NA,red,m_l_058.jpg,NA,NA,NA,NA,NA,pleasant,unpleasant,NA,NA,NA,NA,NA,left,995.900000000373,true,NA,NA,NA,NA,NA,NA,NA,NA
yrckTq5O,3fk4g712o0duz4m7qhicsa7sfszsso,3ph3vy7djpamuhnowgrnac38dzzwz6,yrckTq5O,2020-0188,2021-11-01,02:55:03,04:25:22,NA,incomplete,false,true,NA,NA,3,5,NA,red,m_l_025.jpg,NA,NA,NA,NA,NA,pleasant,unpleasant,NA,NA,NA,NA,NA,left,721.200000000186,true,NA,NA,NA,NA,NA,NA,NA,NA
yrckTq5O,3fk4g712o0duz4m7qhicsa7sfszsso,3ph3vy7djpamuhnowgrnac38dzzwz6,yrckTq5O,2020-0188,2021-11-01,02:55:03,04:25:22,NA,incomplete,false,true,NA,NA,3,6,NA,gray,m_l_089.jpg,NA,NA,NA,NA,NA,unpleasant,pleasant,NA,NA,NA,NA,NA,right,1133,true,NA,NA,NA,NA,NA,NA,NA,NA
yrckTq5O,3fk4g712o0duz4m7qhicsa7sfszsso,3ph3vy7djpamuhnowgrnac38dzzwz6,yrckTq5O,2020-0188,2021-11-01,02:55:03,04:25:22,NA,incomplete,false,true,NA,NA,3,7,NA,gray,m_l_075.jpg,NA,NA,NA,NA,NA,pleasant,unpleasant,NA,NA,NA,NA,NA,left,953.599999999627,true,NA,NA,NA,NA,NA,NA,NA,NA
yrckTq5O,3fk4g712o0duz4m7qhicsa7sfszsso,3ph3vy7djpamuhnowgrnac38dzzwz6,yrckTq5O,2020-0188,2021-11-01,02:55:03,04:25:22,NA,incomplete,false,true,NA,NA,3,8,NA,gray,m_s_093.jpg,NA,NA,NA,NA,NA,unpleasant,pleasant,NA,NA,NA,NA,NA,right,845.799999999814,true,NA,NA,NA,NA,NA,NA,NA,NA
yrckTq5O,3fk4g712o0duz4m7qhicsa7sfszsso,3ph3vy7djpamuhnowgrnac38dzzwz6,yrckTq5O,2020-0188,2021-11-01,02:55:03,04:25:22,NA,incomplete,false,true,NA,NA,3,9,NA,gray,m_s_085.jpg,NA,NA,NA,NA,NA,unpleasant,pleasant,NA,NA,NA,NA,NA,right,1554,true,NA,NA,NA,NA,NA,NA,NA,NA
yrckTq5O,3fk4g712o0duz4m7qhicsa7sfszsso,3ph3vy7djpamuhnowgrnac38dzzwz6,yrckTq5O,2020-0188,2021-11-01,02:55:03,04:25:22,NA,incomplete,false,true,NA,NA,3,10,NA,gray,n_l_016.jpg,NA,NA,NA,NA,NA,pleasant,unpleasant,NA,NA,NA,NA,NA,left,1478.10000000056,true,NA,NA,NA,NA,NA,NA,NA,NA
yrckTq5O,3fk4g712o0duz4m7qhicsa7sfszsso,3ph3vy7djpamuhnowgrnac38dzzwz6,yrckTq5O,2020-0188,2021-11-01,02:55:03,04:25:22,NA,incomplete,false,true,NA,NA,3,11,NA,gray,n_l_107.jpg,NA,NA,NA,NA,NA,unpleasant,pleasant,NA,NA,NA,NA,NA,right,1010.80000000075,true,NA,NA,NA,NA,NA,NA,NA,NA
yrckTq5O,3fk4g712o0duz4m7qhicsa7sfszsso,3ph3vy7djpamuhnowgrnac38dzzwz6,yrckTq5O,2020-0188,2021-11-01,02:55:03,04:25:22,NA,incomplete,false,true,NA,NA,3,12,NA,green,m_l_082.jpg,NA,NA,NA,NA,NA,pleasant,unpleasant,NA,NA,NA,NA,NA,left,735.299999999814,true,NA,NA,NA,NA,NA,NA,NA,NA
yrckTq5O,3fk4g712o0duz4m7qhicsa7sfszsso,3ph3vy7djpamuhnowgrnac38dzzwz6,yrckTq5O,2020-0188,2021-11-01,02:55:03,04:25:22,NA,incomplete,false,true,NA,NA,3,13,NA,green,m_s_013.jpg,NA,NA,NA,NA,NA,pleasant,unpleasant,NA,NA,NA,NA,NA,left,883.699999999255,true,NA,NA,NA,NA,NA,NA,NA,NA
yrckTq5O,3fk4g712o0duz4m7qhicsa7sfszsso,3ph3vy7djpamuhnowgrnac38dzzwz6,yrckTq5O,2020-0188,2021-11-01,02:55:03,04:25:22,NA,incomplete,false,true,NA,NA,3,14,NA,green,m_l_071.jpg,NA,NA,NA,NA,NA,pleasant,unpleasant,NA,NA,NA,NA,NA,left,927.699999999255,true,NA,NA,NA,NA,NA,NA,NA,NA
yrckTq5O,3fk4g712o0duz4m7qhicsa7sfszsso,3ph3vy7djpamuhnowgrnac38dzzwz6,yrckTq5O,2020-0188,2021-11-01,02:55:03,04:25:22,NA,incomplete,false,true,NA,NA,3,15,NA,green,m_l_073.jpg,NA,NA,NA,NA,NA,pleasant,unpleasant,NA,NA,NA,NA,NA,left,1044,true,NA,NA,NA,NA,NA,NA,NA,NA
yrckTq5O,3fk4g712o0duz4m7qhicsa7sfszsso,3ph3vy7djpamuhnowgrnac38dzzwz6,yrckTq5O,2020-0188,2021-11-01,02:55:03,04:25:22,NA,incomplete,false,true,NA,NA,3,16,NA,green,m_s_034.jpg,NA,NA,NA,NA,NA,unpleasant,pleasant,NA,NA,NA,NA,NA,right,1312.59999999963,true,NA,NA,NA,NA,NA,NA,NA,NA
yrckTq5O,3fk4g712o0duz4m7qhicsa7sfszsso,3ph3vy7djpamuhnowgrnac38dzzwz6,yrckTq5O,2020-0188,2021-11-01,02:55:03,04:25:22,NA,incomplete,false,true,NA,NA,3,17,NA,green,m_l_049.jpg,NA,NA,NA,NA,NA,unpleasant,pleasant,NA,NA,NA,NA,NA,right,1101.59999999963,true,NA,NA,NA,NA,NA,NA,NA,NA
yrckTq5O,3fk4g712o0duz4m7qhicsa7sfszsso,3ph3vy7djpamuhnowgrnac38dzzwz6,yrckTq5O,2020-0188,2021-11-01,02:55:03,04:25:22,NA,incomplete,false,true,NA,NA,3,18,NA,black,n_s_011.jpg,NA,NA,NA,NA,NA,unpleasant,pleasant,NA,NA,NA,NA,NA,right,993.299999999814,true,NA,NA,NA,NA,NA,NA,NA,NA
yrckTq5O,3fk4g712o0duz4m7qhicsa7sfszsso,3ph3vy7djpamuhnowgrnac38dzzwz6,yrckTq5O,2020-0188,2021-11-01,02:55:03,04:25:22,NA,incomplete,false,true,NA,NA,3,19,NA,black,n_l_088.jpg,NA,NA,NA,NA,NA,unpleasant,pleasant,NA,NA,NA,NA,NA,right,1006.10000000056,true,NA,NA,NA,NA,NA,NA,NA,NA
yrckTq5O,3fk4g712o0duz4m7qhicsa7sfszsso,3ph3vy7djpamuhnowgrnac38dzzwz6,yrckTq5O,2020-0188,2021-11-01,02:55:03,04:25:22,NA,incomplete,false,true,NA,NA,3,20,NA,black,m_l_102.jpg,NA,NA,NA,NA,NA,unpleasant,pleasant,NA,NA,NA,NA,NA,right,706.299999999814,true,NA,NA,NA,NA,NA,NA,NA,NA
yrckTq5O,3fk4g712o0duz4m7qhicsa7sfszsso,3ph3vy7djpamuhnowgrnac38dzzwz6,yrckTq5O,2020-0188,2021-11-01,02:55:03,04:25:22,NA,incomplete,false,true,NA,NA,3,21,NA,black,m_l_006.jpg,NA,NA,NA,NA,NA,unpleasant,pleasant,NA,NA,NA,NA,NA,right,702,true,NA,NA,NA,NA,NA,NA,NA,NA
yrckTq5O,3fk4g712o0duz4m7qhicsa7sfszsso,3ph3vy7djpamuhnowgrnac38dzzwz6,yrckTq5O,2020-0188,2021-11-01,02:55:03,04:25:22,NA,incomplete,false,true,NA,NA,3,22,NA,black,m_s_087.jpg,NA,NA,NA,NA,NA,pleasant,unpleasant,NA,NA,NA,NA,NA,left,1034.10000000056,true,NA,NA,NA,NA,NA,NA,NA,NA
yrckTq5O,3fk4g712o0duz4m7qhicsa7sfszsso,3ph3vy7djpamuhnowgrnac38dzzwz6,yrckTq5O,2020-0188,2021-11-01,02:55:03,04:25:22,NA,incomplete,false,true,NA,NA,3,23,NA,black,n_s_096.jpg,NA,NA,NA,NA,NA,pleasant,unpleasant,NA,NA,NA,NA,NA,left,1190.29999999981,true,NA,NA,NA,NA,NA,NA,NA,NA
yrckTq5O,3fk4g712o0duz4m7qhicsa7sfszsso,3ph3vy7djpamuhnowgrnac38dzzwz6,yrckTq5O,2020-0188,2021-11-01,02:55:03,04:25:22,NA,incomplete,false,true,NA,NA,3,24,NA,white,m_s_035.jpg,NA,NA,NA,NA,NA,unpleasant,pleasant,NA,NA,NA,NA,NA,right,1754.10000000056,true,NA,NA,NA,NA,NA,NA,NA,NA
yrckTq5O,3fk4g712o0duz4m7qhicsa7sfszsso,3ph3vy7djpamuhnowgrnac38dzzwz6,yrckTq5O,2020-0188,2021-11-01,02:55:03,04:25:22,NA,incomplete,false,true,NA,NA,3,25,NA,white,n_l_072.jpg,NA,NA,NA,NA,NA,unpleasant,pleasant,NA,NA,NA,NA,NA,right,2093.89999999944,true,NA,NA,NA,NA,NA,NA,NA,NA
yrckTq5O,3fk4g712o0duz4m7qhicsa7sfszsso,3ph3vy7djpamuhnowgrnac38dzzwz6,yrckTq5O,2020-0188,2021-11-01,02:55:03,04:25:22,NA,incomplete,false,true,NA,NA,3,26,NA,white,m_s_109.jpg,NA,NA,NA,NA,NA,pleasant,unpleasant,NA,NA,NA,NA,NA,left,2195.09999999963,true,NA,NA,NA,NA,NA,NA,NA,NA
yrckTq5O,3fk4g712o0duz4m7qhicsa7sfszsso,3ph3vy7djpamuhnowgrnac38dzzwz6,yrckTq5O,2020-0188,2021-11-01,02:55:03,04:25:22,NA,incomplete,false,true,NA,NA,3,27,NA,white,m_l_072.jpg,NA,NA,NA,NA,NA,pleasant,unpleasant,NA,NA,NA,NA,NA,left,1519.40000000037,true,NA,NA,NA,NA,NA,NA,NA,NA
yrckTq5O,3fk4g712o0duz4m7qhicsa7sfszsso,3ph3vy7djpamuhnowgrnac38dzzwz6,yrckTq5O,2020-0188,2021-11-01,02:55:03,04:25:22,NA,incomplete,false,true,NA,NA,3,28,NA,white,m_l_111.jpg,NA,NA,NA,NA,NA,pleasant,unpleasant,NA,NA,NA,NA,NA,left,1499.29999999981,true,NA,NA,NA,NA,NA,NA,NA,NA
yrckTq5O,3fk4g712o0duz4m7qhicsa7sfszsso,3ph3vy7djpamuhnowgrnac38dzzwz6,yrckTq5O,2020-0188,2021-11-01,02:55:03,04:25:22,NA,incomplete,false,true,NA,NA,3,29,NA,white,n_s_067.jpg,NA,NA,NA,NA,NA,pleasant,unpleasant,NA,NA,NA,NA,NA,left,688.200000000186,true,NA,NA,NA,NA,NA,NA,NA,NA
yrckTq5O,3fk4g712o0duz4m7qhicsa7sfszsso,3ph3vy7djpamuhnowgrnac38dzzwz6,yrckTq5O,2020-0188,2021-11-01,02:55:03,04:25:22,NA,incomplete,false,true,NA,NA,3,30,NA,purple,n_l_090.jpg,NA,NA,NA,NA,NA,pleasant,unpleasant,NA,NA,NA,NA,NA,left,724,true,NA,NA,NA,NA,NA,NA,NA,NA
yrckTq5O,3fk4g712o0duz4m7qhicsa7sfszsso,3ph3vy7djpamuhnowgrnac38dzzwz6,yrckTq5O,2020-0188,2021-11-01,02:55:03,04:25:22,NA,incomplete,false,true,NA,NA,3,31,NA,purple,n_s_113.jpg,NA,NA,NA,NA,NA,unpleasant,pleasant,NA,NA,NA,NA,NA,right,1480.09999999963,true,NA,NA,NA,NA,NA,NA,NA,NA
yrckTq5O,3fk4g712o0duz4m7qhicsa7sfszsso,3ph3vy7djpamuhnowgrnac38dzzwz6,yrckTq5O,2020-0188,2021-11-01,02:55:03,04:25:22,NA,incomplete,false,true,NA,NA,3,32,NA,purple,m_s_100.jpg,NA,NA,NA,NA,NA,unpleasant,pleasant,NA,NA,NA,NA,NA,right,724.900000000373,true,NA,NA,NA,NA,NA,NA,NA,NA
yrckTq5O,3fk4g712o0duz4m7qhicsa7sfszsso,3ph3vy7djpamuhnowgrnac38dzzwz6,yrckTq5O,2020-0188,2021-11-01,02:55:03,04:25:22,NA,incomplete,false,true,NA,NA,3,33,NA,purple,m_s_078.jpg,NA,NA,NA,NA,NA,unpleasant,pleasant,NA,NA,NA,NA,NA,right,912.900000000373,true,NA,NA,NA,NA,NA,NA,NA,NA
yrckTq5O,3fk4g712o0duz4m7qhicsa7sfszsso,3ph3vy7djpamuhnowgrnac38dzzwz6,yrckTq5O,2020-0188,2021-11-01,02:55:03,04:25:22,NA,incomplete,false,true,NA,NA,3,34,NA,purple,n_l_044.jpg,NA,NA,NA,NA,NA,pleasant,unpleasant,NA,NA,NA,NA,NA,left,1645.09999999963,true,NA,NA,NA,NA,NA,NA,NA,NA
yrckTq5O,3fk4g712o0duz4m7qhicsa7sfszsso,3ph3vy7djpamuhnowgrnac38dzzwz6,yrckTq5O,2020-0188,2021-11-01,02:55:03,04:25:22,NA,incomplete,false,true,NA,NA,3,35,NA,purple,m_s_007.jpg,NA,NA,NA,NA,NA,pleasant,unpleasant,NA,NA,NA,NA,NA,left,1610.20000000019,true,NA,NA,NA,NA,NA,NA,NA,NA
yrckTq5O,3fk4g712o0duz4m7qhicsa7sfszsso,3ph3vy7djpamuhnowgrnac38dzzwz6,yrckTq5O,2020-0188,2021-11-01,02:55:03,04:25:22,NA,incomplete,false,NA,NA,true,3,0,NA,NA,NA,left,n_l_072.jpg,white,black,NA,NA,NA,NA,NA,NA,NA,NA,NA,NaN,NA,4879,left,1,NA,NA,NA,NA,NA
yrckTq5O,3fk4g712o0duz4m7qhicsa7sfszsso,3ph3vy7djpamuhnowgrnac38dzzwz6,yrckTq5O,2020-0188,2021-11-01,02:55:03,04:25:22,NA,incomplete,false,NA,NA,true,3,1,NA,NA,NA,left,n_l_086.jpg,red,gray,NA,NA,NA,NA,NA,NA,NA,NA,NA,NaN,NA,3895.5999999996275,left,1,NA,NA,NA,NA,NA
yrckTq5O,3fk4g712o0duz4m7qhicsa7sfszsso,3ph3vy7djpamuhnowgrnac38dzzwz6,yrckTq5O,2020-0188,2021-11-01,02:55:03,04:25:22,NA,incomplete,false,NA,NA,true,3,2,NA,NA,NA,right,m_s_007.jpg,white,purple,NA,NA,NA,NA,NA,NA,NA,NA,NA,NaN,NA,6719.0999999996275,right,1,NA,NA,NA,NA,NA
yrckTq5O,3fk4g712o0duz4m7qhicsa7sfszsso,3ph3vy7djpamuhnowgrnac38dzzwz6,yrckTq5O,2020-0188,2021-11-01,02:55:03,04:25:22,NA,incomplete,false,NA,NA,true,3,3,NA,NA,NA,right,m_l_058.jpg,gray,red,NA,NA,NA,NA,NA,NA,NA,NA,NA,NaN,NA,7510.899999999441,left,0,NA,NA,NA,NA,NA
yrckTq5O,3fk4g712o0duz4m7qhicsa7sfszsso,3ph3vy7djpamuhnowgrnac38dzzwz6,yrckTq5O,2020-0188,2021-11-01,02:55:03,04:25:22,NA,incomplete,false,NA,NA,true,3,4,NA,NA,NA,right,m_s_013.jpg,gray,green,NA,NA,NA,NA,NA,NA,NA,NA,NA,NaN,NA,16063.299999999814,right,1,NA,NA,NA,NA,NA
yrckTq5O,3fk4g712o0duz4m7qhicsa7sfszsso,3ph3vy7djpamuhnowgrnac38dzzwz6,yrckTq5O,2020-0188,2021-11-01,02:55:03,04:25:22,NA,incomplete,false,NA,NA,true,3,5,NA,NA,NA,left,n_l_016.jpg,gray,green,NA,NA,NA,NA,NA,NA,NA,NA,NA,NaN,NA,3343.5,left,1,NA,NA,NA,NA,NA
yrckTq5O,3fk4g712o0duz4m7qhicsa7sfszsso,3ph3vy7djpamuhnowgrnac38dzzwz6,yrckTq5O,2020-0188,2021-11-01,02:55:03,04:25:22,NA,incomplete,false,NA,NA,true,3,6,NA,NA,NA,left,n_l_107.jpg,gray,red,NA,NA,NA,NA,NA,NA,NA,NA,NA,NaN,NA,3479,left,1,NA,NA,NA,NA,NA
yrckTq5O,3fk4g712o0duz4m7qhicsa7sfszsso,3ph3vy7djpamuhnowgrnac38dzzwz6,yrckTq5O,2020-0188,2021-11-01,02:55:03,04:25:22,NA,incomplete,false,NA,NA,true,3,7,NA,NA,NA,left,m_l_071.jpg,green,gray,NA,NA,NA,NA,NA,NA,NA,NA,NA,NaN,NA,3015.0999999996275,left,1,NA,NA,NA,NA,NA
yrckTq5O,3fk4g712o0duz4m7qhicsa7sfszsso,3ph3vy7djpamuhnowgrnac38dzzwz6,yrckTq5O,2020-0188,2021-11-01,02:55:03,04:25:22,NA,incomplete,false,NA,NA,true,3,8,NA,NA,NA,left,n_l_088.jpg,black,white,NA,NA,NA,NA,NA,NA,NA,NA,NA,NaN,NA,1815.4000000003725,right,0,NA,NA,NA,NA,NA
yrckTq5O,3fk4g712o0duz4m7qhicsa7sfszsso,3ph3vy7djpamuhnowgrnac38dzzwz6,yrckTq5O,2020-0188,2021-11-01,02:55:03,04:25:22,NA,incomplete,false,NA,NA,true,3,9,NA,NA,NA,left,m_l_111.jpg,white,black,NA,NA,NA,NA,NA,NA,NA,NA,NA,NaN,NA,1463.0999999996275,right,0,NA,NA,NA,NA,NA
yrckTq5O,3fk4g712o0duz4m7qhicsa7sfszsso,3ph3vy7djpamuhnowgrnac38dzzwz6,yrckTq5O,2020-0188,2021-11-01,02:55:03,04:25:22,NA,incomplete,false,NA,NA,true,3,10,NA,NA,NA,right,m_s_100.jpg,white,purple,NA,NA,NA,NA,NA,NA,NA,NA,NA,NaN,NA,1367.2999999998137,left,0,NA,NA,NA,NA,NA
yrckTq5O,3fk4g712o0duz4m7qhicsa7sfszsso,3ph3vy7djpamuhnowgrnac38dzzwz6,yrckTq5O,2020-0188,2021-11-01,02:55:03,04:25:22,NA,incomplete,false,NA,NA,true,3,11,NA,NA,NA,right,m_l_049.jpg,black,green,NA,NA,NA,NA,NA,NA,NA,NA,NA,NaN,NA,1135.4000000003725,right,1,NA,NA,NA,NA,NA
yrckTq5O,3fk4g712o0duz4m7qhicsa7sfszsso,3ph3vy7djpamuhnowgrnac38dzzwz6,yrckTq5O,2020-0188,2021-11-01,02:55:03,04:25:22,NA,incomplete,false,NA,NA,true,3,12,NA,NA,NA,right,m_l_025.jpg,gray,red,NA,NA,NA,NA,NA,NA,NA,NA,NA,NaN,NA,6670.9000000003725,right,1,NA,NA,NA,NA,NA
yrckTq5O,3fk4g712o0duz4m7qhicsa7sfszsso,3ph3vy7djpamuhnowgrnac38dzzwz6,yrckTq5O,2020-0188,2021-11-01,02:55:03,04:25:22,NA,incomplete,false,NA,NA,true,3,13,NA,NA,NA,right,n_s_113.jpg,white,purple,NA,NA,NA,NA,NA,NA,NA,NA,NA,NaN,NA,6951.200000000186,right,1,NA,NA,NA,NA,NA
yrckTq5O,3fk4g712o0duz4m7qhicsa7sfszsso,3ph3vy7djpamuhnowgrnac38dzzwz6,yrckTq5O,2020-0188,2021-11-01,02:55:03,04:25:22,NA,incomplete,false,NA,NA,true,3,14,NA,NA,NA,right,m_l_075.jpg,red,gray,NA,NA,NA,NA,NA,NA,NA,NA,NA,NaN,NA,7663,right,1,NA,NA,NA,NA,NA
yrckTq5O,3fk4g712o0duz4m7qhicsa7sfszsso,3ph3vy7djpamuhnowgrnac38dzzwz6,yrckTq5O,2020-0188,2021-11-01,02:55:03,04:25:22,NA,incomplete,false,NA,NA,true,3,15,NA,NA,NA,right,m_s_093.jpg,green,gray,NA,NA,NA,NA,NA,NA,NA,NA,NA,NaN,NA,3207.699999999255,right,1,NA,NA,NA,NA,NA
yrckTq5O,3fk4g712o0duz4m7qhicsa7sfszsso,3ph3vy7djpamuhnowgrnac38dzzwz6,yrckTq5O,2020-0188,2021-11-01,02:55:03,04:25:22,NA,incomplete,false,NA,NA,true,3,16,NA,NA,NA,right,m_l_102.jpg,white,black,NA,NA,NA,NA,NA,NA,NA,NA,NA,NaN,NA,1295.0999999996275,right,1,NA,NA,NA,NA,NA
yrckTq5O,3fk4g712o0duz4m7qhicsa7sfszsso,3ph3vy7djpamuhnowgrnac38dzzwz6,yrckTq5O,2020-0188,2021-11-01,02:55:03,04:25:22,NA,incomplete,false,NA,NA,true,3,17,NA,NA,NA,left,m_s_109.jpg,white,black,NA,NA,NA,NA,NA,NA,NA,NA,NA,NaN,NA,6023.299999999814,left,1,NA,NA,NA,NA,NA
yrckTq5O,3fk4g712o0duz4m7qhicsa7sfszsso,3ph3vy7djpamuhnowgrnac38dzzwz6,yrckTq5O,2020-0188,2021-11-01,02:55:03,04:25:22,NA,incomplete,false,NA,NA,true,3,18,NA,NA,NA,left,m_s_087.jpg,black,white,NA,NA,NA,NA,NA,NA,NA,NA,NA,NaN,NA,73839.60000000056,right,0,NA,NA,NA,NA,NA
yrckTq5O,3fk4g712o0duz4m7qhicsa7sfszsso,3ph3vy7djpamuhnowgrnac38dzzwz6,yrckTq5O,2020-0188,2021-11-01,02:55:03,04:25:22,NA,incomplete,false,NA,NA,true,3,19,NA,NA,NA,left,n_s_067.jpg,white,purple,NA,NA,NA,NA,NA,NA,NA,NA,NA,NaN,NA,8072.0999999996275,left,1,NA,NA,NA,NA,NA
yrckTq5O,3fk4g712o0duz4m7qhicsa7sfszsso,3ph3vy7djpamuhnowgrnac38dzzwz6,yrckTq5O,2020-0188,2021-11-01,02:55:03,04:25:22,NA,incomplete,false,NA,NA,true,3,20,NA,NA,NA,right,n_s_096.jpg,white,black,NA,NA,NA,NA,NA,NA,NA,NA,NA,NaN,NA,5559.200000000186,right,1,NA,NA,NA,NA,NA
yrckTq5O,3fk4g712o0duz4m7qhicsa7sfszsso,3ph3vy7djpamuhnowgrnac38dzzwz6,yrckTq5O,2020-0188,2021-11-01,02:55:03,04:25:22,NA,incomplete,false,NA,NA,true,3,21,NA,NA,NA,left,m_s_034.jpg,green,gray,NA,NA,NA,NA,NA,NA,NA,NA,NA,NaN,NA,1183.0999999996275,right,0,NA,NA,NA,NA,NA
yrckTq5O,3fk4g712o0duz4m7qhicsa7sfszsso,3ph3vy7djpamuhnowgrnac38dzzwz6,yrckTq5O,2020-0188,2021-11-01,02:55:03,04:25:22,NA,incomplete,false,NA,true,NA,3,0,NA,NA,NA,left,NA,NA,NA,present,NA,NA,m_s_034.jpg,green,m_l_102.jpg,black,between,NA,NaN,NA,NA,NA,NA,left,6407.300000000745,1,2,3807.100000000559
yrckTq5O,3fk4g712o0duz4m7qhicsa7sfszsso,3ph3vy7djpamuhnowgrnac38dzzwz6,yrckTq5O,2020-0188,2021-11-01,02:55:03,04:25:22,NA,incomplete,false,NA,true,NA,3,1,NA,NA,NA,left,NA,NA,NA,present,NA,NA,n_l_086.jpg,red,m_l_025.jpg,red,within,NA,NaN,NA,NA,NA,NA,left,6790.899999999441,1,1,10550.900000000373
yrckTq5O,3fk4g712o0duz4m7qhicsa7sfszsso,3ph3vy7djpamuhnowgrnac38dzzwz6,yrckTq5O,2020-0188,2021-11-01,02:55:03,04:25:22,NA,incomplete,false,NA,true,NA,3,2,NA,NA,NA,right,NA,NA,NA,present,NA,NA,m_l_071.jpg,green,n_l_016.jpg,gray,between,NA,NaN,NA,NA,NA,NA,right,6927.0999999996275,1,2,8231
yrckTq5O,3fk4g712o0duz4m7qhicsa7sfszsso,3ph3vy7djpamuhnowgrnac38dzzwz6,yrckTq5O,2020-0188,2021-11-01,02:55:03,04:25:22,NA,incomplete,false,NA,true,NA,3,3,NA,NA,NA,right,NA,NA,NA,present,NA,NA,m_s_100.jpg,purple,m_l_111.jpg,white,between,NA,NaN,NA,NA,NA,NA,right,13879.299999999814,1,1,1583.7000000001863
yrckTq5O,3fk4g712o0duz4m7qhicsa7sfszsso,3ph3vy7djpamuhnowgrnac38dzzwz6,yrckTq5O,2020-0188,2021-11-01,02:55:03,04:25:22,NA,incomplete,false,NA,true,NA,3,4,NA,NA,NA,right,NA,NA,NA,present,NA,NA,m_s_093.jpg,gray,m_l_058.jpg,red,between,NA,NaN,NA,NA,NA,NA,right,13742.799999999814,1,2,1311
yrckTq5O,3fk4g712o0duz4m7qhicsa7sfszsso,3ph3vy7djpamuhnowgrnac38dzzwz6,yrckTq5O,2020-0188,2021-11-01,02:55:03,04:25:22,NA,incomplete,false,NA,true,NA,3,5,NA,NA,NA,right,NA,NA,NA,present,NA,NA,n_s_096.jpg,black,n_l_088.jpg,black,within,NA,NaN,NA,NA,NA,NA,right,11967.099999999627,1,1,4175.0999999996275
yrckTq5O,3fk4g712o0duz4m7qhicsa7sfszsso,3ph3vy7djpamuhnowgrnac38dzzwz6,yrckTq5O,2020-0188,2021-11-01,02:55:03,04:25:22,NA,incomplete,false,NA,true,NA,3,6,NA,NA,NA,left,NA,NA,NA,present,NA,NA,m_s_013.jpg,green,m_l_049.jpg,green,within,NA,NaN,NA,NA,NA,NA,left,4703.399999999441,1,1,1352
yrckTq5O,3fk4g712o0duz4m7qhicsa7sfszsso,3ph3vy7djpamuhnowgrnac38dzzwz6,yrckTq5O,2020-0188,2021-11-01,02:55:03,04:25:22,NA,incomplete,false,NA,true,NA,3,7,NA,NA,NA,left,NA,NA,NA,present,NA,NA,n_l_072.jpg,white,n_s_067.jpg,white,within,NA,NaN,NA,NA,NA,NA,left,15575.299999999814,1,1,1231.1000000005588
yrckTq5O,3fk4g712o0duz4m7qhicsa7sfszsso,3ph3vy7djpamuhnowgrnac38dzzwz6,yrckTq5O,2020-0188,2021-11-01,02:55:03,04:25:22,NA,incomplete,false,NA,true,NA,3,8,NA,NA,NA,left,NA,NA,NA,present,NA,NA,m_s_087.jpg,black,m_s_109.jpg,white,between,NA,NaN,NA,NA,NA,NA,left,4447.5999999996275,1,2,2319.4000000003725
yrckTq5O,3fk4g712o0duz4m7qhicsa7sfszsso,3ph3vy7djpamuhnowgrnac38dzzwz6,yrckTq5O,2020-0188,2021-11-01,02:55:03,04:25:22,NA,incomplete,false,NA,true,NA,3,9,NA,NA,NA,left,NA,NA,NA,present,NA,NA,m_l_075.jpg,gray,n_l_107.jpg,gray,within,NA,NaN,NA,NA,NA,NA,left,14615.199999999255,1,0,2302.600000000559
yrckTq5O,3fk4g712o0duz4m7qhicsa7sfszsso,3ph3vy7djpamuhnowgrnac38dzzwz6,yrckTq5O,2020-0188,2021-11-01,02:55:03,04:25:22,NA,incomplete,false,NA,true,NA,3,10,NA,NA,NA,right,NA,NA,NA,present,NA,NA,m_s_007.jpg,purple,n_s_113.jpg,purple,within,NA,NaN,NA,NA,NA,NA,right,6151.299999999814,1,1,1711.2999999998137
yrckTq5O,3fk4g712o0duz4m7qhicsa7sfszsso,3ph3vy7djpamuhnowgrnac38dzzwz6,yrckTq5O,2020-0188,2021-11-01,02:55:03,04:25:22,NA,incomplete,false,true,NA,NA,4,0,NA,purple,m_s_005.jpg,NA,NA,NA,NA,NA,unpleasant,pleasant,NA,NA,NA,NA,NA,right,2304.5,true,NA,NA,NA,NA,NA,NA,NA,NA
yrckTq5O,3fk4g712o0duz4m7qhicsa7sfszsso,3ph3vy7djpamuhnowgrnac38dzzwz6,yrckTq5O,2020-0188,2021-11-01,02:55:03,04:25:22,NA,incomplete,false,true,NA,NA,4,1,NA,purple,m_l_033.jpg,NA,NA,NA,NA,NA,pleasant,unpleasant,NA,NA,NA,NA,NA,left,2220.70000000019,true,NA,NA,NA,NA,NA,NA,NA,NA
yrckTq5O,3fk4g712o0duz4m7qhicsa7sfszsso,3ph3vy7djpamuhnowgrnac38dzzwz6,yrckTq5O,2020-0188,2021-11-01,02:55:03,04:25:22,NA,incomplete,false,true,NA,NA,4,2,NA,purple,m_s_103.jpg,NA,NA,NA,NA,NA,pleasant,unpleasant,NA,NA,NA,NA,NA,left,2376.90000000037,true,NA,NA,NA,NA,NA,NA,NA,NA
yrckTq5O,3fk4g712o0duz4m7qhicsa7sfszsso,3ph3vy7djpamuhnowgrnac38dzzwz6,yrckTq5O,2020-0188,2021-11-01,02:55:03,04:25:22,NA,incomplete,false,true,NA,NA,4,3,NA,purple,n_s_021.jpg,NA,NA,NA,NA,NA,unpleasant,pleasant,NA,NA,NA,NA,NA,right,1741.30000000075,true,NA,NA,NA,NA,NA,NA,NA,NA
yrckTq5O,3fk4g712o0duz4m7qhicsa7sfszsso,3ph3vy7djpamuhnowgrnac38dzzwz6,yrckTq5O,2020-0188,2021-11-01,02:55:03,04:25:22,NA,incomplete,false,true,NA,NA,4,4,NA,purple,m_l_001.jpg,NA,NA,NA,NA,NA,unpleasant,pleasant,NA,NA,NA,NA,NA,right,801.400000000373,true,NA,NA,NA,NA,NA,NA,NA,NA
yrckTq5O,3fk4g712o0duz4m7qhicsa7sfszsso,3ph3vy7djpamuhnowgrnac38dzzwz6,yrckTq5O,2020-0188,2021-11-01,02:55:03,04:25:22,NA,incomplete,false,true,NA,NA,4,5,NA,purple,n_s_093.jpg,NA,NA,NA,NA,NA,unpleasant,pleasant,NA,NA,NA,NA,NA,right,709.599999999627,true,NA,NA,NA,NA,NA,NA,NA,NA
yrckTq5O,3fk4g712o0duz4m7qhicsa7sfszsso,3ph3vy7djpamuhnowgrnac38dzzwz6,yrckTq5O,2020-0188,2021-11-01,02:55:03,04:25:22,NA,incomplete,false,true,NA,NA,4,6,NA,yellow,m_s_017.jpg,NA,NA,NA,NA,NA,unpleasant,pleasant,NA,NA,NA,NA,NA,right,850.099999999627,true,NA,NA,NA,NA,NA,NA,NA,NA
yrckTq5O,3fk4g712o0duz4m7qhicsa7sfszsso,3ph3vy7djpamuhnowgrnac38dzzwz6,yrckTq5O,2020-0188,2021-11-01,02:55:03,04:25:22,NA,incomplete,false,true,NA,NA,4,7,NA,yellow,m_l_046.jpg,NA,NA,NA,NA,NA,pleasant,unpleasant,NA,NA,NA,NA,NA,left,1911,true,NA,NA,NA,NA,NA,NA,NA,NA
yrckTq5O,3fk4g712o0duz4m7qhicsa7sfszsso,3ph3vy7djpamuhnowgrnac38dzzwz6,yrckTq5O,2020-0188,2021-11-01,02:55:03,04:25:22,NA,incomplete,false,true,NA,NA,4,8,NA,yellow,m_l_016.jpg,NA,NA,NA,NA,NA,unpleasant,pleasant,NA,NA,NA,NA,NA,right,675.300000000745,true,NA,NA,NA,NA,NA,NA,NA,NA
yrckTq5O,3fk4g712o0duz4m7qhicsa7sfszsso,3ph3vy7djpamuhnowgrnac38dzzwz6,yrckTq5O,2020-0188,2021-11-01,02:55:03,04:25:22,NA,incomplete,false,true,NA,NA,4,9,NA,yellow,m_s_110.jpg,NA,NA,NA,NA,NA,unpleasant,pleasant,NA,NA,NA,NA,NA,right,696.099999999627,true,NA,NA,NA,NA,NA,NA,NA,NA
yrckTq5O,3fk4g712o0duz4m7qhicsa7sfszsso,3ph3vy7djpamuhnowgrnac38dzzwz6,yrckTq5O,2020-0188,2021-11-01,02:55:03,04:25:22,NA,incomplete,false,true,NA,NA,4,10,NA,yellow,n_l_074.jpg,NA,NA,NA,NA,NA,unpleasant,pleasant,NA,NA,NA,NA,NA,right,844.899999999441,true,NA,NA,NA,NA,NA,NA,NA,NA
yrckTq5O,3fk4g712o0duz4m7qhicsa7sfszsso,3ph3vy7djpamuhnowgrnac38dzzwz6,yrckTq5O,2020-0188,2021-11-01,02:55:03,04:25:22,NA,incomplete,false,true,NA,NA,4,11,NA,yellow,n_l_089.jpg,NA,NA,NA,NA,NA,unpleasant,pleasant,NA,NA,NA,NA,NA,right,913.300000000745,true,NA,NA,NA,NA,NA,NA,NA,NA
yrckTq5O,3fk4g712o0duz4m7qhicsa7sfszsso,3ph3vy7djpamuhnowgrnac38dzzwz6,yrckTq5O,2020-0188,2021-11-01,02:55:03,04:25:22,NA,incomplete,false,true,NA,NA,4,12,NA,white,m_s_097.jpg,NA,NA,NA,NA,NA,pleasant,unpleasant,NA,NA,NA,NA,NA,left,1726.19999999925,true,NA,NA,NA,NA,NA,NA,NA,NA
yrckTq5O,3fk4g712o0duz4m7qhicsa7sfszsso,3ph3vy7djpamuhnowgrnac38dzzwz6,yrckTq5O,2020-0188,2021-11-01,02:55:03,04:25:22,NA,incomplete,false,true,NA,NA,4,13,NA,white,m_s_012.jpg,NA,NA,NA,NA,NA,pleasant,unpleasant,NA,NA,NA,NA,NA,left,2138.79999999981,true,NA,NA,NA,NA,NA,NA,NA,NA
yrckTq5O,3fk4g712o0duz4m7qhicsa7sfszsso,3ph3vy7djpamuhnowgrnac38dzzwz6,yrckTq5O,2020-0188,2021-11-01,02:55:03,04:25:22,NA,incomplete,false,true,NA,NA,4,14,NA,white,m_s_075.jpg,NA,NA,NA,NA,NA,unpleasant,pleasant,NA,NA,NA,NA,NA,left,1950.60000000056,true,NA,NA,NA,NA,NA,NA,NA,NA
yrckTq5O,3fk4g712o0duz4m7qhicsa7sfszsso,3ph3vy7djpamuhnowgrnac38dzzwz6,yrckTq5O,2020-0188,2021-11-01,02:55:03,04:25:22,NA,incomplete,false,true,NA,NA,4,15,NA,white,m_s_028.jpg,NA,NA,NA,NA,NA,pleasant,unpleasant,NA,NA,NA,NA,NA,left,2650.79999999981,true,NA,NA,NA,NA,NA,NA,NA,NA
yrckTq5O,3fk4g712o0duz4m7qhicsa7sfszsso,3ph3vy7djpamuhnowgrnac38dzzwz6,yrckTq5O,2020-0188,2021-11-01,02:55:03,04:25:22,NA,incomplete,false,true,NA,NA,4,16,NA,white,n_s_088.jpg,NA,NA,NA,NA,NA,unpleasant,pleasant,NA,NA,NA,NA,NA,right,2478.89999999944,true,NA,NA,NA,NA,NA,NA,NA,NA
yrckTq5O,3fk4g712o0duz4m7qhicsa7sfszsso,3ph3vy7djpamuhnowgrnac38dzzwz6,yrckTq5O,2020-0188,2021-11-01,02:55:03,04:25:22,NA,incomplete,false,true,NA,NA,4,17,NA,white,n_s_002.jpg,NA,NA,NA,NA,NA,unpleasant,pleasant,NA,NA,NA,NA,NA,right,691.700000000186,true,NA,NA,NA,NA,NA,NA,NA,NA
yrckTq5O,3fk4g712o0duz4m7qhicsa7sfszsso,3ph3vy7djpamuhnowgrnac38dzzwz6,yrckTq5O,2020-0188,2021-11-01,02:55:03,04:25:22,NA,incomplete,false,true,NA,NA,4,18,NA,black,n_s_055.jpg,NA,NA,NA,NA,NA,pleasant,unpleasant,NA,NA,NA,NA,NA,left,1727.90000000037,true,NA,NA,NA,NA,NA,NA,NA,NA
yrckTq5O,3fk4g712o0duz4m7qhicsa7sfszsso,3ph3vy7djpamuhnowgrnac38dzzwz6,yrckTq5O,2020-0188,2021-11-01,02:55:03,04:25:22,NA,incomplete,false,true,NA,NA,4,19,NA,black,m_s_107.jpg,NA,NA,NA,NA,NA,pleasant,unpleasant,NA,NA,NA,NA,NA,left,1860.59999999963,true,NA,NA,NA,NA,NA,NA,NA,NA
yrckTq5O,3fk4g712o0duz4m7qhicsa7sfszsso,3ph3vy7djpamuhnowgrnac38dzzwz6,yrckTq5O,2020-0188,2021-11-01,02:55:03,04:25:22,NA,incomplete,false,true,NA,NA,4,20,NA,black,m_l_095.jpg,NA,NA,NA,NA,NA,unpleasant,pleasant,NA,NA,NA,NA,NA,right,1625.29999999981,true,NA,NA,NA,NA,NA,NA,NA,NA
yrckTq5O,3fk4g712o0duz4m7qhicsa7sfszsso,3ph3vy7djpamuhnowgrnac38dzzwz6,yrckTq5O,2020-0188,2021-11-01,02:55:03,04:25:22,NA,incomplete,false,true,NA,NA,4,21,NA,black,n_s_071.jpg,NA,NA,NA,NA,NA,pleasant,unpleasant,NA,NA,NA,NA,NA,left,1685.80000000075,true,NA,NA,NA,NA,NA,NA,NA,NA
yrckTq5O,3fk4g712o0duz4m7qhicsa7sfszsso,3ph3vy7djpamuhnowgrnac38dzzwz6,yrckTq5O,2020-0188,2021-11-01,02:55:03,04:25:22,NA,incomplete,false,true,NA,NA,4,22,NA,black,n_l_019.jpg,NA,NA,NA,NA,NA,pleasant,unpleasant,NA,NA,NA,NA,NA,right,1858,true,NA,NA,NA,NA,NA,NA,NA,NA
yrckTq5O,3fk4g712o0duz4m7qhicsa7sfszsso,3ph3vy7djpamuhnowgrnac38dzzwz6,yrckTq5O,2020-0188,2021-11-01,02:55:03,04:25:22,NA,incomplete,false,true,NA,NA,4,23,NA,black,n_s_034.jpg,NA,NA,NA,NA,NA,unpleasant,pleasant,NA,NA,NA,NA,NA,right,1813.90000000037,true,NA,NA,NA,NA,NA,NA,NA,NA
yrckTq5O,3fk4g712o0duz4m7qhicsa7sfszsso,3ph3vy7djpamuhnowgrnac38dzzwz6,yrckTq5O,2020-0188,2021-11-01,02:55:03,04:25:22,NA,incomplete,false,true,NA,NA,4,24,NA,blue,n_s_054.jpg,NA,NA,NA,NA,NA,unpleasant,pleasant,NA,NA,NA,NA,NA,right,1522.70000000019,true,NA,NA,NA,NA,NA,NA,NA,NA
yrckTq5O,3fk4g712o0duz4m7qhicsa7sfszsso,3ph3vy7djpamuhnowgrnac38dzzwz6,yrckTq5O,2020-0188,2021-11-01,02:55:03,04:25:22,NA,incomplete,false,true,NA,NA,4,25,NA,blue,m_l_090.jpg,NA,NA,NA,NA,NA,unpleasant,pleasant,NA,NA,NA,NA,NA,right,1494.69999999925,true,NA,NA,NA,NA,NA,NA,NA,NA
yrckTq5O,3fk4g712o0duz4m7qhicsa7sfszsso,3ph3vy7djpamuhnowgrnac38dzzwz6,yrckTq5O,2020-0188,2021-11-01,02:55:03,04:25:22,NA,incomplete,false,true,NA,NA,4,26,NA,blue,n_l_083.jpg,NA,NA,NA,NA,NA,pleasant,unpleasant,NA,NA,NA,NA,NA,right,1827.29999999981,true,NA,NA,NA,NA,NA,NA,NA,NA
yrckTq5O,3fk4g712o0duz4m7qhicsa7sfszsso,3ph3vy7djpamuhnowgrnac38dzzwz6,yrckTq5O,2020-0188,2021-11-01,02:55:03,04:25:22,NA,incomplete,false,true,NA,NA,4,27,NA,blue,m_s_068.jpg,NA,NA,NA,NA,NA,pleasant,unpleasant,NA,NA,NA,NA,NA,left,1776.5,true,NA,NA,NA,NA,NA,NA,NA,NA
yrckTq5O,3fk4g712o0duz4m7qhicsa7sfszsso,3ph3vy7djpamuhnowgrnac38dzzwz6,yrckTq5O,2020-0188,2021-11-01,02:55:03,04:25:22,NA,incomplete,false,true,NA,NA,4,28,NA,blue,m_l_107.jpg,NA,NA,NA,NA,NA,unpleasant,pleasant,NA,NA,NA,NA,NA,right,1556.90000000037,true,NA,NA,NA,NA,NA,NA,NA,NA
yrckTq5O,3fk4g712o0duz4m7qhicsa7sfszsso,3ph3vy7djpamuhnowgrnac38dzzwz6,yrckTq5O,2020-0188,2021-11-01,02:55:03,04:25:22,NA,incomplete,false,true,NA,NA,4,29,NA,blue,n_s_024.jpg,NA,NA,NA,NA,NA,pleasant,unpleasant,NA,NA,NA,NA,NA,left,1600.70000000019,true,NA,NA,NA,NA,NA,NA,NA,NA
yrckTq5O,3fk4g712o0duz4m7qhicsa7sfszsso,3ph3vy7djpamuhnowgrnac38dzzwz6,yrckTq5O,2020-0188,2021-11-01,02:55:03,04:25:22,NA,incomplete,false,true,NA,NA,4,30,NA,green,m_l_051.jpg,NA,NA,NA,NA,NA,unpleasant,pleasant,NA,NA,NA,NA,NA,right,1484.59999999963,true,NA,NA,NA,NA,NA,NA,NA,NA
yrckTq5O,3fk4g712o0duz4m7qhicsa7sfszsso,3ph3vy7djpamuhnowgrnac38dzzwz6,yrckTq5O,2020-0188,2021-11-01,02:55:03,04:25:22,NA,incomplete,false,true,NA,NA,4,31,NA,green,n_s_056.jpg,NA,NA,NA,NA,NA,pleasant,unpleasant,NA,NA,NA,NA,NA,left,1888.69999999925,true,NA,NA,NA,NA,NA,NA,NA,NA
yrckTq5O,3fk4g712o0duz4m7qhicsa7sfszsso,3ph3vy7djpamuhnowgrnac38dzzwz6,yrckTq5O,2020-0188,2021-11-01,02:55:03,04:25:22,NA,incomplete,false,true,NA,NA,4,32,NA,green,n_s_109.jpg,NA,NA,NA,NA,NA,pleasant,unpleasant,NA,NA,NA,NA,NA,left,1796.60000000056,true,NA,NA,NA,NA,NA,NA,NA,NA
yrckTq5O,3fk4g712o0duz4m7qhicsa7sfszsso,3ph3vy7djpamuhnowgrnac38dzzwz6,yrckTq5O,2020-0188,2021-11-01,02:55:03,04:25:22,NA,incomplete,false,true,NA,NA,4,33,NA,green,n_s_116.jpg,NA,NA,NA,NA,NA,unpleasant,pleasant,NA,NA,NA,NA,NA,left,1961.29999999981,true,NA,NA,NA,NA,NA,NA,NA,NA
yrckTq5O,3fk4g712o0duz4m7qhicsa7sfszsso,3ph3vy7djpamuhnowgrnac38dzzwz6,yrckTq5O,2020-0188,2021-11-01,02:55:03,04:25:22,NA,incomplete,false,true,NA,NA,4,34,NA,green,n_l_092.jpg,NA,NA,NA,NA,NA,pleasant,unpleasant,NA,NA,NA,NA,NA,right,2118.29999999981,true,NA,NA,NA,NA,NA,NA,NA,NA
yrckTq5O,3fk4g712o0duz4m7qhicsa7sfszsso,3ph3vy7djpamuhnowgrnac38dzzwz6,yrckTq5O,2020-0188,2021-11-01,02:55:03,04:25:22,NA,incomplete,false,true,NA,NA,4,35,NA,green,n_l_025.jpg,NA,NA,NA,NA,NA,unpleasant,pleasant,NA,NA,NA,NA,NA,right,1809.90000000037,true,NA,NA,NA,NA,NA,NA,NA,NA
yrckTq5O,3fk4g712o0duz4m7qhicsa7sfszsso,3ph3vy7djpamuhnowgrnac38dzzwz6,yrckTq5O,2020-0188,2021-11-01,02:55:03,04:25:22,NA,incomplete,false,NA,NA,true,4,0,NA,NA,NA,right,m_l_107.jpg,black,blue,NA,NA,NA,NA,NA,NA,NA,NA,NA,NaN,NA,5735.300000000745,right,1,NA,NA,NA,NA,NA
yrckTq5O,3fk4g712o0duz4m7qhicsa7sfszsso,3ph3vy7djpamuhnowgrnac38dzzwz6,yrckTq5O,2020-0188,2021-11-01,02:55:03,04:25:22,NA,incomplete,false,NA,NA,true,4,1,NA,NA,NA,left,m_l_095.jpg,black,white,NA,NA,NA,NA,NA,NA,NA,NA,NA,NaN,NA,911.3000000007451,right,0,NA,NA,NA,NA,NA
yrckTq5O,3fk4g712o0duz4m7qhicsa7sfszsso,3ph3vy7djpamuhnowgrnac38dzzwz6,yrckTq5O,2020-0188,2021-11-01,02:55:03,04:25:22,NA,incomplete,false,NA,NA,true,4,2,NA,NA,NA,left,m_l_016.jpg,yellow,purple,NA,NA,NA,NA,NA,NA,NA,NA,NA,NaN,NA,7302.799999999814,left,1,NA,NA,NA,NA,NA
yrckTq5O,3fk4g712o0duz4m7qhicsa7sfszsso,3ph3vy7djpamuhnowgrnac38dzzwz6,yrckTq5O,2020-0188,2021-11-01,02:55:03,04:25:22,NA,incomplete,false,NA,NA,true,4,3,NA,NA,NA,right,n_s_024.jpg,green,blue,NA,NA,NA,NA,NA,NA,NA,NA,NA,NaN,NA,1855.5999999996275,right,1,NA,NA,NA,NA,NA
yrckTq5O,3fk4g712o0duz4m7qhicsa7sfszsso,3ph3vy7djpamuhnowgrnac38dzzwz6,yrckTq5O,2020-0188,2021-11-01,02:55:03,04:25:22,NA,incomplete,false,NA,NA,true,4,4,NA,NA,NA,right,n_l_019.jpg,blue,black,NA,NA,NA,NA,NA,NA,NA,NA,NA,NaN,NA,5887.4000000003725,right,1,NA,NA,NA,NA,NA
yrckTq5O,3fk4g712o0duz4m7qhicsa7sfszsso,3ph3vy7djpamuhnowgrnac38dzzwz6,yrckTq5O,2020-0188,2021-11-01,02:55:03,04:25:22,NA,incomplete,false,NA,NA,true,4,5,NA,NA,NA,left,m_l_046.jpg,yellow,purple,NA,NA,NA,NA,NA,NA,NA,NA,NA,NaN,NA,4879.4000000003725,left,1,NA,NA,NA,NA,NA
yrckTq5O,3fk4g712o0duz4m7qhicsa7sfszsso,3ph3vy7djpamuhnowgrnac38dzzwz6,yrckTq5O,2020-0188,2021-11-01,02:55:03,04:25:22,NA,incomplete,false,NA,NA,true,4,6,NA,NA,NA,right,m_l_033.jpg,yellow,purple,NA,NA,NA,NA,NA,NA,NA,NA,NA,NaN,NA,3535.2999999998137,right,1,NA,NA,NA,NA,NA
yrckTq5O,3fk4g712o0duz4m7qhicsa7sfszsso,3ph3vy7djpamuhnowgrnac38dzzwz6,yrckTq5O,2020-0188,2021-11-01,02:55:03,04:25:22,NA,incomplete,false,NA,NA,true,4,7,NA,NA,NA,right,m_l_001.jpg,yellow,purple,NA,NA,NA,NA,NA,NA,NA,NA,NA,NaN,NA,7191.299999999814,right,1,NA,NA,NA,NA,NA
yrckTq5O,3fk4g712o0duz4m7qhicsa7sfszsso,3ph3vy7djpamuhnowgrnac38dzzwz6,yrckTq5O,2020-0188,2021-11-01,02:55:03,04:25:22,NA,incomplete,false,NA,NA,true,4,8,NA,NA,NA,right,m_s_012.jpg,black,white,NA,NA,NA,NA,NA,NA,NA,NA,NA,NaN,NA,1071.5,right,1,NA,NA,NA,NA,NA
yrckTq5O,3fk4g712o0duz4m7qhicsa7sfszsso,3ph3vy7djpamuhnowgrnac38dzzwz6,yrckTq5O,2020-0188,2021-11-01,02:55:03,04:25:22,NA,incomplete,false,NA,NA,true,4,9,NA,NA,NA,left,n_s_002.jpg,white,black,NA,NA,NA,NA,NA,NA,NA,NA,NA,NaN,NA,4135.5,left,1,NA,NA,NA,NA,NA
yrckTq5O,3fk4g712o0duz4m7qhicsa7sfszsso,3ph3vy7djpamuhnowgrnac38dzzwz6,yrckTq5O,2020-0188,2021-11-01,02:55:03,04:25:22,NA,incomplete,false,NA,NA,true,4,10,NA,NA,NA,left,m_s_075.jpg,white,yellow,NA,NA,NA,NA,NA,NA,NA,NA,NA,NaN,NA,3911.2999999998137,left,1,NA,NA,NA,NA,NA
yrckTq5O,3fk4g712o0duz4m7qhicsa7sfszsso,3ph3vy7djpamuhnowgrnac38dzzwz6,yrckTq5O,2020-0188,2021-11-01,02:55:03,04:25:22,NA,incomplete,false,NA,NA,true,4,11,NA,NA,NA,left,n_s_093.jpg,purple,yellow,NA,NA,NA,NA,NA,NA,NA,NA,NA,NaN,NA,1423.4000000003725,right,0,NA,NA,NA,NA,NA
yrckTq5O,3fk4g712o0duz4m7qhicsa7sfszsso,3ph3vy7djpamuhnowgrnac38dzzwz6,yrckTq5O,2020-0188,2021-11-01,02:55:03,04:25:22,NA,incomplete,false,NA,NA,true,4,12,NA,NA,NA,right,n_s_088.jpg,yellow,white,NA,NA,NA,NA,NA,NA,NA,NA,NA,NaN,NA,4031,right,1,NA,NA,NA,NA,NA
yrckTq5O,3fk4g712o0duz4m7qhicsa7sfszsso,3ph3vy7djpamuhnowgrnac38dzzwz6,yrckTq5O,2020-0188,2021-11-01,02:55:03,04:25:22,NA,incomplete,false,NA,NA,true,4,13,NA,NA,NA,left,n_s_056.jpg,green,blue,NA,NA,NA,NA,NA,NA,NA,NA,NA,NaN,NA,13463.299999999814,left,1,NA,NA,NA,NA,NA
yrckTq5O,3fk4g712o0duz4m7qhicsa7sfszsso,3ph3vy7djpamuhnowgrnac38dzzwz6,yrckTq5O,2020-0188,2021-11-01,02:55:03,04:25:22,NA,incomplete,false,NA,NA,true,4,14,NA,NA,NA,left,m_l_090.jpg,blue,green,NA,NA,NA,NA,NA,NA,NA,NA,NA,NaN,NA,5903.4000000003725,left,1,NA,NA,NA,NA,NA
yrckTq5O,3fk4g712o0duz4m7qhicsa7sfszsso,3ph3vy7djpamuhnowgrnac38dzzwz6,yrckTq5O,2020-0188,2021-11-01,02:55:03,04:25:22,NA,incomplete,false,NA,NA,true,4,15,NA,NA,NA,right,n_s_034.jpg,blue,black,NA,NA,NA,NA,NA,NA,NA,NA,NA,NaN,NA,871.1999999992549,right,1,NA,NA,NA,NA,NA
yrckTq5O,3fk4g712o0duz4m7qhicsa7sfszsso,3ph3vy7djpamuhnowgrnac38dzzwz6,yrckTq5O,2020-0188,2021-11-01,02:55:03,04:25:22,NA,incomplete,false,NA,NA,true,4,16,NA,NA,NA,left,n_l_025.jpg,green,blue,NA,NA,NA,NA,NA,NA,NA,NA,NA,NaN,NA,1447.3999999994412,left,1,NA,NA,NA,NA,NA
yrckTq5O,3fk4g712o0duz4m7qhicsa7sfszsso,3ph3vy7djpamuhnowgrnac38dzzwz6,yrckTq5O,2020-0188,2021-11-01,02:55:03,04:25:22,NA,incomplete,false,NA,NA,true,4,17,NA,NA,NA,right,n_l_074.jpg,purple,yellow,NA,NA,NA,NA,NA,NA,NA,NA,NA,NaN,NA,3159.4000000003725,right,1,NA,NA,NA,NA,NA
yrckTq5O,3fk4g712o0duz4m7qhicsa7sfszsso,3ph3vy7djpamuhnowgrnac38dzzwz6,yrckTq5O,2020-0188,2021-11-01,02:55:03,04:25:22,NA,incomplete,false,NA,NA,true,4,18,NA,NA,NA,left,n_l_083.jpg,blue,green,NA,NA,NA,NA,NA,NA,NA,NA,NA,NaN,NA,3391.399999999441,right,0,NA,NA,NA,NA,NA
yrckTq5O,3fk4g712o0duz4m7qhicsa7sfszsso,3ph3vy7djpamuhnowgrnac38dzzwz6,yrckTq5O,2020-0188,2021-11-01,02:55:03,04:25:22,NA,incomplete,false,NA,NA,true,4,19,NA,NA,NA,left,n_l_089.jpg,yellow,purple,NA,NA,NA,NA,NA,NA,NA,NA,NA,NaN,NA,4023,left,1,NA,NA,NA,NA,NA
yrckTq5O,3fk4g712o0duz4m7qhicsa7sfszsso,3ph3vy7djpamuhnowgrnac38dzzwz6,yrckTq5O,2020-0188,2021-11-01,02:55:03,04:25:22,NA,incomplete,false,NA,NA,true,4,20,NA,NA,NA,left,n_s_109.jpg,green,blue,NA,NA,NA,NA,NA,NA,NA,NA,NA,NaN,NA,2415.5,right,0,NA,NA,NA,NA,NA
yrckTq5O,3fk4g712o0duz4m7qhicsa7sfszsso,3ph3vy7djpamuhnowgrnac38dzzwz6,yrckTq5O,2020-0188,2021-11-01,02:55:03,04:25:22,NA,incomplete,false,NA,NA,true,4,21,NA,NA,NA,left,m_s_107.jpg,black,blue,NA,NA,NA,NA,NA,NA,NA,NA,NA,NaN,NA,1159.8999999994412,right,0,NA,NA,NA,NA,NA
yrckTq5O,3fk4g712o0duz4m7qhicsa7sfszsso,3ph3vy7djpamuhnowgrnac38dzzwz6,yrckTq5O,2020-0188,2021-11-01,02:55:03,04:25:22,NA,incomplete,false,NA,true,NA,4,0,NA,NA,NA,left,NA,NA,NA,present,NA,NA,n_l_074.jpg,yellow,m_s_075.jpg,white,between,NA,NaN,NA,NA,NA,NA,left,5718,1,2,2150.9000000003725
yrckTq5O,3fk4g712o0duz4m7qhicsa7sfszsso,3ph3vy7djpamuhnowgrnac38dzzwz6,yrckTq5O,2020-0188,2021-11-01,02:55:03,04:25:22,NA,incomplete,false,NA,true,NA,4,1,NA,NA,NA,right,NA,NA,NA,present,NA,NA,m_l_095.jpg,black,n_s_088.jpg,white,between,NA,NaN,NA,NA,NA,NA,right,3455,1,2,2167.2000000001863
yrckTq5O,3fk4g712o0duz4m7qhicsa7sfszsso,3ph3vy7djpamuhnowgrnac38dzzwz6,yrckTq5O,2020-0188,2021-11-01,02:55:03,04:25:22,NA,incomplete,false,NA,true,NA,4,2,NA,NA,NA,left,NA,NA,NA,present,NA,NA,n_s_056.jpg,green,n_l_025.jpg,green,within,NA,NaN,NA,NA,NA,NA,left,7574.9000000003725,1,0,1495
yrckTq5O,3fk4g712o0duz4m7qhicsa7sfszsso,3ph3vy7djpamuhnowgrnac38dzzwz6,yrckTq5O,2020-0188,2021-11-01,02:55:03,04:25:22,NA,incomplete,false,NA,true,NA,4,3,NA,NA,NA,left,NA,NA,NA,present,NA,NA,m_l_107.jpg,blue,n_s_109.jpg,green,between,NA,NaN,NA,NA,NA,NA,left,3007.2000000001863,1,2,2399.2000000001863
yrckTq5O,3fk4g712o0duz4m7qhicsa7sfszsso,3ph3vy7djpamuhnowgrnac38dzzwz6,yrckTq5O,2020-0188,2021-11-01,02:55:03,04:25:22,NA,incomplete,false,NA,true,NA,4,4,NA,NA,NA,right,NA,NA,NA,present,NA,NA,n_s_002.jpg,white,m_s_012.jpg,white,within,NA,NaN,NA,NA,NA,NA,right,6102.799999999814,1,0,1630.9000000003725
yrckTq5O,3fk4g712o0duz4m7qhicsa7sfszsso,3ph3vy7djpamuhnowgrnac38dzzwz6,yrckTq5O,2020-0188,2021-11-01,02:55:03,04:25:22,NA,incomplete,false,NA,true,NA,4,5,NA,NA,NA,left,NA,NA,NA,present,NA,NA,m_l_090.jpg,blue,n_s_024.jpg,blue,within,NA,NaN,NA,NA,NA,NA,left,6719.300000000745,1,0,1135.5999999996275
yrckTq5O,3fk4g712o0duz4m7qhicsa7sfszsso,3ph3vy7djpamuhnowgrnac38dzzwz6,yrckTq5O,2020-0188,2021-11-01,02:55:03,04:25:22,NA,incomplete,false,NA,true,NA,4,6,NA,NA,NA,right,NA,NA,NA,present,NA,NA,n_l_089.jpg,yellow,m_l_046.jpg,yellow,within,NA,NaN,NA,NA,NA,NA,right,4311.200000000186,1,1,2687.399999999441
yrckTq5O,3fk4g712o0duz4m7qhicsa7sfszsso,3ph3vy7djpamuhnowgrnac38dzzwz6,yrckTq5O,2020-0188,2021-11-01,02:55:03,04:25:22,NA,incomplete,false,NA,true,NA,4,7,NA,NA,NA,left,NA,NA,NA,present,NA,NA,m_l_033.jpg,purple,n_s_093.jpg,purple,within,NA,NaN,NA,NA,NA,NA,left,4351.5999999996275,1,1,1503.300000000745
yrckTq5O,3fk4g712o0duz4m7qhicsa7sfszsso,3ph3vy7djpamuhnowgrnac38dzzwz6,yrckTq5O,2020-0188,2021-11-01,02:55:03,04:25:22,NA,incomplete,false,NA,true,NA,4,8,NA,NA,NA,left,NA,NA,NA,present,NA,NA,m_l_001.jpg,purple,m_l_016.jpg,yellow,between,NA,NaN,NA,NA,NA,NA,left,2863.2000000001863,1,2,1791.3999999994412
yrckTq5O,3fk4g712o0duz4m7qhicsa7sfszsso,3ph3vy7djpamuhnowgrnac38dzzwz6,yrckTq5O,2020-0188,2021-11-01,02:55:03,04:25:22,NA,incomplete,false,NA,true,NA,4,9,NA,NA,NA,right,NA,NA,NA,present,NA,NA,n_l_083.jpg,blue,n_l_019.jpg,black,between,NA,NaN,NA,NA,NA,NA,right,6207.200000000186,1,3,1199.300000000745
yrckTq5O,3fk4g712o0duz4m7qhicsa7sfszsso,3ph3vy7djpamuhnowgrnac38dzzwz6,yrckTq5O,2020-0188,2021-11-01,02:55:03,04:25:22,NA,incomplete,false,NA,true,NA,4,10,NA,NA,NA,right,NA,NA,NA,present,NA,NA,n_s_034.jpg,black,m_s_107.jpg,black,within,NA,NaN,NA,NA,NA,NA,right,6703.0999999996275,1,1,1254.9000000003725
yrckTq5O,3fk4g712o0duz4m7qhicsa7sfszsso,3ph3vy7djpamuhnowgrnac38dzzwz6,yrckTq5O,2020-0188,2021-11-01,02:55:03,04:25:22,NA,incomplete,false,true,NA,NA,5,0,NA,white,m_l_060.jpg,NA,NA,NA,NA,NA,pleasant,unpleasant,NA,NA,NA,NA,NA,left,2250.70000000019,true,NA,NA,NA,NA,NA,NA,NA,NA
yrckTq5O,3fk4g712o0duz4m7qhicsa7sfszsso,3ph3vy7djpamuhnowgrnac38dzzwz6,yrckTq5O,2020-0188,2021-11-01,02:55:03,04:25:22,NA,incomplete,false,true,NA,NA,5,1,NA,white,n_s_010.jpg,NA,NA,NA,NA,NA,pleasant,unpleasant,NA,NA,NA,NA,NA,left,2318.59999999963,true,NA,NA,NA,NA,NA,NA,NA,NA
yrckTq5O,3fk4g712o0duz4m7qhicsa7sfszsso,3ph3vy7djpamuhnowgrnac38dzzwz6,yrckTq5O,2020-0188,2021-11-01,02:55:03,04:25:22,NA,incomplete,false,true,NA,NA,5,2,NA,white,n_l_051.jpg,NA,NA,NA,NA,NA,unpleasant,pleasant,NA,NA,NA,NA,NA,right,1083.59999999963,true,NA,NA,NA,NA,NA,NA,NA,NA
yrckTq5O,3fk4g712o0duz4m7qhicsa7sfszsso,3ph3vy7djpamuhnowgrnac38dzzwz6,yrckTq5O,2020-0188,2021-11-01,02:55:03,04:25:22,NA,incomplete,false,true,NA,NA,5,3,NA,white,n_s_074.jpg,NA,NA,NA,NA,NA,pleasant,unpleasant,NA,NA,NA,NA,NA,left,2095.79999999981,true,NA,NA,NA,NA,NA,NA,NA,NA
yrckTq5O,3fk4g712o0duz4m7qhicsa7sfszsso,3ph3vy7djpamuhnowgrnac38dzzwz6,yrckTq5O,2020-0188,2021-11-01,02:55:03,04:25:22,NA,incomplete,false,true,NA,NA,5,4,NA,white,m_s_033.jpg,NA,NA,NA,NA,NA,pleasant,unpleasant,NA,NA,NA,NA,NA,left,2172.70000000019,true,NA,NA,NA,NA,NA,NA,NA,NA
yrckTq5O,3fk4g712o0duz4m7qhicsa7sfszsso,3ph3vy7djpamuhnowgrnac38dzzwz6,yrckTq5O,2020-0188,2021-11-01,02:55:03,04:25:22,NA,incomplete,false,true,NA,NA,5,5,NA,white,m_s_027.jpg,NA,NA,NA,NA,NA,pleasant,unpleasant,NA,NA,NA,NA,NA,left,1072.19999999925,true,NA,NA,NA,NA,NA,NA,NA,NA
yrckTq5O,3fk4g712o0duz4m7qhicsa7sfszsso,3ph3vy7djpamuhnowgrnac38dzzwz6,yrckTq5O,2020-0188,2021-11-01,02:55:03,04:25:22,NA,incomplete,false,true,NA,NA,5,6,NA,red,n_l_060.jpg,NA,NA,NA,NA,NA,pleasant,unpleasant,NA,NA,NA,NA,NA,left,1388.10000000056,true,NA,NA,NA,NA,NA,NA,NA,NA
yrckTq5O,3fk4g712o0duz4m7qhicsa7sfszsso,3ph3vy7djpamuhnowgrnac38dzzwz6,yrckTq5O,2020-0188,2021-11-01,02:55:03,04:25:22,NA,incomplete,false,true,NA,NA,5,7,NA,red,n_s_070.jpg,NA,NA,NA,NA,NA,pleasant,unpleasant,NA,NA,NA,NA,NA,left,872.400000000373,true,NA,NA,NA,NA,NA,NA,NA,NA
yrckTq5O,3fk4g712o0duz4m7qhicsa7sfszsso,3ph3vy7djpamuhnowgrnac38dzzwz6,yrckTq5O,2020-0188,2021-11-01,02:55:03,04:25:22,NA,incomplete,false,true,NA,NA,5,8,NA,red,n_l_112.jpg,NA,NA,NA,NA,NA,pleasant,unpleasant,NA,NA,NA,NA,NA,left,940,true,NA,NA,NA,NA,NA,NA,NA,NA
yrckTq5O,3fk4g712o0duz4m7qhicsa7sfszsso,3ph3vy7djpamuhnowgrnac38dzzwz6,yrckTq5O,2020-0188,2021-11-01,02:55:03,04:25:22,NA,incomplete,false,true,NA,NA,5,9,NA,red,m_l_044.jpg,NA,NA,NA,NA,NA,pleasant,unpleasant,NA,NA,NA,NA,NA,left,935.600000000559,true,NA,NA,NA,NA,NA,NA,NA,NA
yrckTq5O,3fk4g712o0duz4m7qhicsa7sfszsso,3ph3vy7djpamuhnowgrnac38dzzwz6,yrckTq5O,2020-0188,2021-11-01,02:55:03,04:25:22,NA,incomplete,false,true,NA,NA,5,10,NA,red,n_l_032.jpg,NA,NA,NA,NA,NA,unpleasant,pleasant,NA,NA,NA,NA,NA,right,1724.40000000037,true,NA,NA,NA,NA,NA,NA,NA,NA
yrckTq5O,3fk4g712o0duz4m7qhicsa7sfszsso,3ph3vy7djpamuhnowgrnac38dzzwz6,yrckTq5O,2020-0188,2021-11-01,02:55:03,04:25:22,NA,incomplete,false,true,NA,NA,5,11,NA,red,m_l_078.jpg,NA,NA,NA,NA,NA,unpleasant,pleasant,NA,NA,NA,NA,NA,right,1736.09999999963,true,NA,NA,NA,NA,NA,NA,NA,NA
yrckTq5O,3fk4g712o0duz4m7qhicsa7sfszsso,3ph3vy7djpamuhnowgrnac38dzzwz6,yrckTq5O,2020-0188,2021-11-01,02:55:03,04:25:22,NA,incomplete,false,true,NA,NA,5,12,NA,green,n_s_045.jpg,NA,NA,NA,NA,NA,unpleasant,pleasant,NA,NA,NA,NA,NA,right,1684.20000000019,true,NA,NA,NA,NA,NA,NA,NA,NA
yrckTq5O,3fk4g712o0duz4m7qhicsa7sfszsso,3ph3vy7djpamuhnowgrnac38dzzwz6,yrckTq5O,2020-0188,2021-11-01,02:55:03,04:25:22,NA,incomplete,false,true,NA,NA,5,13,NA,green,m_l_079.jpg,NA,NA,NA,NA,NA,unpleasant,pleasant,NA,NA,NA,NA,NA,right,1136.40000000037,true,NA,NA,NA,NA,NA,NA,NA,NA
yrckTq5O,3fk4g712o0duz4m7qhicsa7sfszsso,3ph3vy7djpamuhnowgrnac38dzzwz6,yrckTq5O,2020-0188,2021-11-01,02:55:03,04:25:22,NA,incomplete,false,true,NA,NA,5,14,NA,green,n_s_023.jpg,NA,NA,NA,NA,NA,unpleasant,pleasant,NA,NA,NA,NA,NA,right,1268.29999999981,true,NA,NA,NA,NA,NA,NA,NA,NA
yrckTq5O,3fk4g712o0duz4m7qhicsa7sfszsso,3ph3vy7djpamuhnowgrnac38dzzwz6,yrckTq5O,2020-0188,2021-11-01,02:55:03,04:25:22,NA,incomplete,false,true,NA,NA,5,15,NA,green,n_l_018.jpg,NA,NA,NA,NA,NA,unpleasant,pleasant,NA,NA,NA,NA,NA,right,1048.19999999925,true,NA,NA,NA,NA,NA,NA,NA,NA
