workerId,hitId,assignmentId,subject,studyid,exp_date,exp_start,exp_end,time_start,time_end,practice,encoding,memory,association,block,trial,event_order,event,stim,answer,object,left_context,right_context,context_type,label_left,label_right,left_image,left_event,right_image,right_event,condition,response,response_time,response_acc,association_response_time,association_response,association_acc,order_response,order_response_time,order_acc,distance_response,distance_response_time
wHnzKB9J,3bakuke4akpi45n0y93n6zfn3q3r1f,3ps7w85z83ffw91hxdsda4ugtzv9t9,wHnzKB9J,2020-0188,2021-10-31,06:52:23,08:52:47,NA,incomplete,true,true,NA,NA,0,0,NA,green,n_s_077.jpg,NA,NA,NA,NA,NA,unpleasant,pleasant,NA,NA,NA,NA,NA,left,1783.89999997616,true,NA,NA,NA,NA,NA,NA,NA,NA
wHnzKB9J,3bakuke4akpi45n0y93n6zfn3q3r1f,3ps7w85z83ffw91hxdsda4ugtzv9t9,wHnzKB9J,2020-0188,2021-10-31,06:52:23,08:52:47,NA,incomplete,true,true,NA,NA,0,1,NA,green,n_l_114.jpg,NA,NA,NA,NA,NA,pleasant,unpleasant,NA,NA,NA,NA,NA,right,2521.39999997616,true,NA,NA,NA,NA,NA,NA,NA,NA
wHnzKB9J,3bakuke4akpi45n0y93n6zfn3q3r1f,3ps7w85z83ffw91hxdsda4ugtzv9t9,wHnzKB9J,2020-0188,2021-10-31,06:52:23,08:52:47,NA,incomplete,true,true,NA,NA,0,2,NA,green,n_l_065.jpg,NA,NA,NA,NA,NA,pleasant,unpleasant,NA,NA,NA,NA,NA,right,1572.69999992847,true,NA,NA,NA,NA,NA,NA,NA,NA
wHnzKB9J,3bakuke4akpi45n0y93n6zfn3q3r1f,3ps7w85z83ffw91hxdsda4ugtzv9t9,wHnzKB9J,2020-0188,2021-10-31,06:52:23,08:52:47,NA,incomplete,true,true,NA,NA,0,3,NA,green,n_l_085.jpg,NA,NA,NA,NA,NA,pleasant,unpleasant,NA,NA,NA,NA,NA,right,2068.30000007153,true,NA,NA,NA,NA,NA,NA,NA,NA
wHnzKB9J,3bakuke4akpi45n0y93n6zfn3q3r1f,3ps7w85z83ffw91hxdsda4ugtzv9t9,wHnzKB9J,2020-0188,2021-10-31,06:52:23,08:52:47,NA,incomplete,true,true,NA,NA,0,4,NA,green,m_l_014.jpg,NA,NA,NA,NA,NA,pleasant,unpleasant,NA,NA,NA,NA,NA,left,1755.10000002384,true,NA,NA,NA,NA,NA,NA,NA,NA
wHnzKB9J,3bakuke4akpi45n0y93n6zfn3q3r1f,3ps7w85z83ffw91hxdsda4ugtzv9t9,wHnzKB9J,2020-0188,2021-10-31,06:52:23,08:52:47,NA,incomplete,true,true,NA,NA,0,5,NA,green,n_l_062.jpg,NA,NA,NA,NA,NA,unpleasant,pleasant,NA,NA,NA,NA,NA,right,2600.30000007153,true,NA,NA,NA,NA,NA,NA,NA,NA
wHnzKB9J,3bakuke4akpi45n0y93n6zfn3q3r1f,3ps7w85z83ffw91hxdsda4ugtzv9t9,wHnzKB9J,2020-0188,2021-10-31,06:52:23,08:52:47,NA,incomplete,true,true,NA,NA,0,6,NA,brown,m_l_110.jpg,NA,NA,NA,NA,NA,unpleasant,pleasant,NA,NA,NA,NA,NA,right,1737.5,true,NA,NA,NA,NA,NA,NA,NA,NA
wHnzKB9J,3bakuke4akpi45n0y93n6zfn3q3r1f,3ps7w85z83ffw91hxdsda4ugtzv9t9,wHnzKB9J,2020-0188,2021-10-31,06:52:23,08:52:47,NA,incomplete,true,true,NA,NA,0,7,NA,brown,n_s_080.jpg,NA,NA,NA,NA,NA,unpleasant,pleasant,NA,NA,NA,NA,NA,right,1398.30000007153,true,NA,NA,NA,NA,NA,NA,NA,NA
wHnzKB9J,3bakuke4akpi45n0y93n6zfn3q3r1f,3ps7w85z83ffw91hxdsda4ugtzv9t9,wHnzKB9J,2020-0188,2021-10-31,06:52:23,08:52:47,NA,incomplete,true,true,NA,NA,0,8,NA,brown,m_l_062.jpg,NA,NA,NA,NA,NA,unpleasant,pleasant,NA,NA,NA,NA,NA,left,1611.29999995232,true,NA,NA,NA,NA,NA,NA,NA,NA
wHnzKB9J,3bakuke4akpi45n0y93n6zfn3q3r1f,3ps7w85z83ffw91hxdsda4ugtzv9t9,wHnzKB9J,2020-0188,2021-10-31,06:52:23,08:52:47,NA,incomplete,true,true,NA,NA,0,9,NA,brown,m_s_091.jpg,NA,NA,NA,NA,NA,unpleasant,pleasant,NA,NA,NA,NA,NA,right,1334.29999995232,true,NA,NA,NA,NA,NA,NA,NA,NA
wHnzKB9J,3bakuke4akpi45n0y93n6zfn3q3r1f,3ps7w85z83ffw91hxdsda4ugtzv9t9,wHnzKB9J,2020-0188,2021-10-31,06:52:23,08:52:47,NA,incomplete,true,true,NA,NA,0,10,NA,brown,m_l_087.jpg,NA,NA,NA,NA,NA,unpleasant,pleasant,NA,NA,NA,NA,NA,left,1429.70000004768,true,NA,NA,NA,NA,NA,NA,NA,NA
wHnzKB9J,3bakuke4akpi45n0y93n6zfn3q3r1f,3ps7w85z83ffw91hxdsda4ugtzv9t9,wHnzKB9J,2020-0188,2021-10-31,06:52:23,08:52:47,NA,incomplete,true,true,NA,NA,0,11,NA,brown,n_l_073.jpg,NA,NA,NA,NA,NA,unpleasant,pleasant,NA,NA,NA,NA,NA,right,1466.89999997616,true,NA,NA,NA,NA,NA,NA,NA,NA
wHnzKB9J,3bakuke4akpi45n0y93n6zfn3q3r1f,3ps7w85z83ffw91hxdsda4ugtzv9t9,wHnzKB9J,2020-0188,2021-10-31,06:52:23,08:52:47,NA,incomplete,true,true,NA,NA,0,12,NA,orange,m_l_037.jpg,NA,NA,NA,NA,NA,unpleasant,pleasant,NA,NA,NA,NA,NA,right,1194.90000009537,true,NA,NA,NA,NA,NA,NA,NA,NA
wHnzKB9J,3bakuke4akpi45n0y93n6zfn3q3r1f,3ps7w85z83ffw91hxdsda4ugtzv9t9,wHnzKB9J,2020-0188,2021-10-31,06:52:23,08:52:47,NA,incomplete,true,true,NA,NA,0,13,NA,orange,n_s_091.jpg,NA,NA,NA,NA,NA,pleasant,unpleasant,NA,NA,NA,NA,NA,right,1368.29999995232,true,NA,NA,NA,NA,NA,NA,NA,NA
wHnzKB9J,3bakuke4akpi45n0y93n6zfn3q3r1f,3ps7w85z83ffw91hxdsda4ugtzv9t9,wHnzKB9J,2020-0188,2021-10-31,06:52:23,08:52:47,NA,incomplete,true,true,NA,NA,0,14,NA,orange,n_s_074.jpg,NA,NA,NA,NA,NA,unpleasant,pleasant,NA,NA,NA,NA,NA,right,1795.60000002384,true,NA,NA,NA,NA,NA,NA,NA,NA
wHnzKB9J,3bakuke4akpi45n0y93n6zfn3q3r1f,3ps7w85z83ffw91hxdsda4ugtzv9t9,wHnzKB9J,2020-0188,2021-10-31,06:52:23,08:52:47,NA,incomplete,true,true,NA,NA,0,15,NA,orange,n_l_087.jpg,NA,NA,NA,NA,NA,unpleasant,pleasant,NA,NA,NA,NA,NA,left,2037.10000002384,true,NA,NA,NA,NA,NA,NA,NA,NA
wHnzKB9J,3bakuke4akpi45n0y93n6zfn3q3r1f,3ps7w85z83ffw91hxdsda4ugtzv9t9,wHnzKB9J,2020-0188,2021-10-31,06:52:23,08:52:47,NA,incomplete,true,true,NA,NA,0,16,NA,orange,n_l_102.jpg,NA,NA,NA,NA,NA,unpleasant,pleasant,NA,NA,NA,NA,NA,left,1977.69999992847,true,NA,NA,NA,NA,NA,NA,NA,NA
wHnzKB9J,3bakuke4akpi45n0y93n6zfn3q3r1f,3ps7w85z83ffw91hxdsda4ugtzv9t9,wHnzKB9J,2020-0188,2021-10-31,06:52:23,08:52:47,NA,incomplete,true,true,NA,NA,0,17,NA,orange,n_l_035.jpg,NA,NA,NA,NA,NA,unpleasant,pleasant,NA,NA,NA,NA,NA,right,1141,true,NA,NA,NA,NA,NA,NA,NA,NA
wHnzKB9J,3bakuke4akpi45n0y93n6zfn3q3r1f,3ps7w85z83ffw91hxdsda4ugtzv9t9,wHnzKB9J,2020-0188,2021-10-31,06:52:23,08:52:47,NA,incomplete,true,true,NA,NA,0,18,NA,yellow,n_l_110.jpg,NA,NA,NA,NA,NA,unpleasant,pleasant,NA,NA,NA,NA,NA,right,2119.10000002384,true,NA,NA,NA,NA,NA,NA,NA,NA
wHnzKB9J,3bakuke4akpi45n0y93n6zfn3q3r1f,3ps7w85z83ffw91hxdsda4ugtzv9t9,wHnzKB9J,2020-0188,2021-10-31,06:52:23,08:52:47,NA,incomplete,true,true,NA,NA,0,19,NA,yellow,n_s_056.jpg,NA,NA,NA,NA,NA,pleasant,unpleasant,NA,NA,NA,NA,NA,left,1324.89999997616,true,NA,NA,NA,NA,NA,NA,NA,NA
wHnzKB9J,3bakuke4akpi45n0y93n6zfn3q3r1f,3ps7w85z83ffw91hxdsda4ugtzv9t9,wHnzKB9J,2020-0188,2021-10-31,06:52:23,08:52:47,NA,incomplete,true,true,NA,NA,0,20,NA,yellow,n_l_051.jpg,NA,NA,NA,NA,NA,pleasant,unpleasant,NA,NA,NA,NA,NA,left,2043.70000004768,true,NA,NA,NA,NA,NA,NA,NA,NA
wHnzKB9J,3bakuke4akpi45n0y93n6zfn3q3r1f,3ps7w85z83ffw91hxdsda4ugtzv9t9,wHnzKB9J,2020-0188,2021-10-31,06:52:23,08:52:47,NA,incomplete,true,true,NA,NA,0,21,NA,yellow,m_l_045.jpg,NA,NA,NA,NA,NA,pleasant,unpleasant,NA,NA,NA,NA,NA,left,1810.5,true,NA,NA,NA,NA,NA,NA,NA,NA
wHnzKB9J,3bakuke4akpi45n0y93n6zfn3q3r1f,3ps7w85z83ffw91hxdsda4ugtzv9t9,wHnzKB9J,2020-0188,2021-10-31,06:52:23,08:52:47,NA,incomplete,true,true,NA,NA,0,22,NA,yellow,m_l_083.jpg,NA,NA,NA,NA,NA,pleasant,unpleasant,NA,NA,NA,NA,NA,right,1212.70000004768,true,NA,NA,NA,NA,NA,NA,NA,NA
wHnzKB9J,3bakuke4akpi45n0y93n6zfn3q3r1f,3ps7w85z83ffw91hxdsda4ugtzv9t9,wHnzKB9J,2020-0188,2021-10-31,06:52:23,08:52:47,NA,incomplete,true,true,NA,NA,0,23,NA,yellow,n_l_093.jpg,NA,NA,NA,NA,NA,pleasant,unpleasant,NA,NA,NA,NA,NA,left,1928.20000004768,true,NA,NA,NA,NA,NA,NA,NA,NA
wHnzKB9J,3bakuke4akpi45n0y93n6zfn3q3r1f,3ps7w85z83ffw91hxdsda4ugtzv9t9,wHnzKB9J,2020-0188,2021-10-31,06:52:23,08:52:47,NA,incomplete,true,true,NA,NA,0,24,NA,blue,m_l_009.jpg,NA,NA,NA,NA,NA,unpleasant,pleasant,NA,NA,NA,NA,NA,left,2455.70000004768,true,NA,NA,NA,NA,NA,NA,NA,NA
wHnzKB9J,3bakuke4akpi45n0y93n6zfn3q3r1f,3ps7w85z83ffw91hxdsda4ugtzv9t9,wHnzKB9J,2020-0188,2021-10-31,06:52:23,08:52:47,NA,incomplete,true,true,NA,NA,0,25,NA,blue,m_s_011.jpg,NA,NA,NA,NA,NA,unpleasant,pleasant,NA,NA,NA,NA,NA,left,1777.19999992847,true,NA,NA,NA,NA,NA,NA,NA,NA
wHnzKB9J,3bakuke4akpi45n0y93n6zfn3q3r1f,3ps7w85z83ffw91hxdsda4ugtzv9t9,wHnzKB9J,2020-0188,2021-10-31,06:52:23,08:52:47,NA,incomplete,true,true,NA,NA,0,26,NA,blue,n_s_009.jpg,NA,NA,NA,NA,NA,unpleasant,pleasant,NA,NA,NA,NA,NA,left,1592.30000007153,true,NA,NA,NA,NA,NA,NA,NA,NA
wHnzKB9J,3bakuke4akpi45n0y93n6zfn3q3r1f,3ps7w85z83ffw91hxdsda4ugtzv9t9,wHnzKB9J,2020-0188,2021-10-31,06:52:23,08:52:47,NA,incomplete,true,true,NA,NA,0,27,NA,blue,n_s_101.jpg,NA,NA,NA,NA,NA,unpleasant,pleasant,NA,NA,NA,NA,NA,right,1340.69999992847,true,NA,NA,NA,NA,NA,NA,NA,NA
wHnzKB9J,3bakuke4akpi45n0y93n6zfn3q3r1f,3ps7w85z83ffw91hxdsda4ugtzv9t9,wHnzKB9J,2020-0188,2021-10-31,06:52:23,08:52:47,NA,incomplete,true,true,NA,NA,0,28,NA,blue,m_s_084.jpg,NA,NA,NA,NA,NA,pleasant,unpleasant,NA,NA,NA,NA,NA,right,2016.89999997616,true,NA,NA,NA,NA,NA,NA,NA,NA
wHnzKB9J,3bakuke4akpi45n0y93n6zfn3q3r1f,3ps7w85z83ffw91hxdsda4ugtzv9t9,wHnzKB9J,2020-0188,2021-10-31,06:52:23,08:52:47,NA,incomplete,true,true,NA,NA,0,29,NA,blue,n_l_040.jpg,NA,NA,NA,NA,NA,pleasant,unpleasant,NA,NA,NA,NA,NA,left,1381.60000002384,true,NA,NA,NA,NA,NA,NA,NA,NA
wHnzKB9J,3bakuke4akpi45n0y93n6zfn3q3r1f,3ps7w85z83ffw91hxdsda4ugtzv9t9,wHnzKB9J,2020-0188,2021-10-31,06:52:23,08:52:47,NA,incomplete,true,true,NA,NA,0,30,NA,black,n_l_092.jpg,NA,NA,NA,NA,NA,pleasant,unpleasant,NA,NA,NA,NA,NA,left,1532.89999997616,true,NA,NA,NA,NA,NA,NA,NA,NA
wHnzKB9J,3bakuke4akpi45n0y93n6zfn3q3r1f,3ps7w85z83ffw91hxdsda4ugtzv9t9,wHnzKB9J,2020-0188,2021-10-31,06:52:23,08:52:47,NA,incomplete,true,true,NA,NA,0,31,NA,black,m_l_056.jpg,NA,NA,NA,NA,NA,unpleasant,pleasant,NA,NA,NA,NA,NA,left,1429.10000002384,true,NA,NA,NA,NA,NA,NA,NA,NA
wHnzKB9J,3bakuke4akpi45n0y93n6zfn3q3r1f,3ps7w85z83ffw91hxdsda4ugtzv9t9,wHnzKB9J,2020-0188,2021-10-31,06:52:23,08:52:47,NA,incomplete,true,true,NA,NA,0,32,NA,black,m_s_108.jpg,NA,NA,NA,NA,NA,pleasant,unpleasant,NA,NA,NA,NA,NA,right,2869.59999990463,true,NA,NA,NA,NA,NA,NA,NA,NA
wHnzKB9J,3bakuke4akpi45n0y93n6zfn3q3r1f,3ps7w85z83ffw91hxdsda4ugtzv9t9,wHnzKB9J,2020-0188,2021-10-31,06:52:23,08:52:47,NA,incomplete,true,true,NA,NA,0,33,NA,black,m_l_063.jpg,NA,NA,NA,NA,NA,pleasant,unpleasant,NA,NA,NA,NA,NA,left,1611.70000004768,true,NA,NA,NA,NA,NA,NA,NA,NA
wHnzKB9J,3bakuke4akpi45n0y93n6zfn3q3r1f,3ps7w85z83ffw91hxdsda4ugtzv9t9,wHnzKB9J,2020-0188,2021-10-31,06:52:23,08:52:47,NA,incomplete,true,true,NA,NA,0,34,NA,black,m_l_005.jpg,NA,NA,NA,NA,NA,pleasant,unpleasant,NA,NA,NA,NA,NA,left,1472,true,NA,NA,NA,NA,NA,NA,NA,NA
wHnzKB9J,3bakuke4akpi45n0y93n6zfn3q3r1f,3ps7w85z83ffw91hxdsda4ugtzv9t9,wHnzKB9J,2020-0188,2021-10-31,06:52:23,08:52:47,NA,incomplete,true,true,NA,NA,0,35,NA,black,n_l_070.jpg,NA,NA,NA,NA,NA,unpleasant,pleasant,NA,NA,NA,NA,NA,right,2119.29999995232,true,NA,NA,NA,NA,NA,NA,NA,NA
wHnzKB9J,3bakuke4akpi45n0y93n6zfn3q3r1f,3ps7w85z83ffw91hxdsda4ugtzv9t9,wHnzKB9J,2020-0188,2021-10-31,06:52:23,08:52:47,NA,incomplete,true,NA,NA,true,0,0,NA,NA,NA,left,n_s_074.jpg,orange,yellow,NA,NA,NA,NA,NA,NA,NA,NA,NA,NaN,NA,4961.100000023842,right,0,NA,NA,NA,NA,NA
wHnzKB9J,3bakuke4akpi45n0y93n6zfn3q3r1f,3ps7w85z83ffw91hxdsda4ugtzv9t9,wHnzKB9J,2020-0188,2021-10-31,06:52:23,08:52:47,NA,incomplete,true,NA,NA,true,0,1,NA,NA,NA,left,m_s_084.jpg,blue,yellow,NA,NA,NA,NA,NA,NA,NA,NA,NA,NaN,NA,6501.800000071526,left,1,NA,NA,NA,NA,NA
wHnzKB9J,3bakuke4akpi45n0y93n6zfn3q3r1f,3ps7w85z83ffw91hxdsda4ugtzv9t9,wHnzKB9J,2020-0188,2021-10-31,06:52:23,08:52:47,NA,incomplete,true,NA,NA,true,0,2,NA,NA,NA,left,m_l_014.jpg,green,brown,NA,NA,NA,NA,NA,NA,NA,NA,NA,NaN,NA,4511.399999976158,left,1,NA,NA,NA,NA,NA
wHnzKB9J,3bakuke4akpi45n0y93n6zfn3q3r1f,3ps7w85z83ffw91hxdsda4ugtzv9t9,wHnzKB9J,2020-0188,2021-10-31,06:52:23,08:52:47,NA,incomplete,true,NA,NA,true,0,3,NA,NA,NA,right,n_s_056.jpg,orange,yellow,NA,NA,NA,NA,NA,NA,NA,NA,NA,NaN,NA,4445.899999976158,right,1,NA,NA,NA,NA,NA
wHnzKB9J,3bakuke4akpi45n0y93n6zfn3q3r1f,3ps7w85z83ffw91hxdsda4ugtzv9t9,wHnzKB9J,2020-0188,2021-10-31,06:52:23,08:52:47,NA,incomplete,true,NA,NA,true,0,4,NA,NA,NA,right,m_s_011.jpg,black,blue,NA,NA,NA,NA,NA,NA,NA,NA,NA,NaN,NA,11039.399999976158,right,1,NA,NA,NA,NA,NA
wHnzKB9J,3bakuke4akpi45n0y93n6zfn3q3r1f,3ps7w85z83ffw91hxdsda4ugtzv9t9,wHnzKB9J,2020-0188,2021-10-31,06:52:23,08:52:47,NA,incomplete,true,NA,NA,true,0,5,NA,NA,NA,left,n_s_080.jpg,brown,green,NA,NA,NA,NA,NA,NA,NA,NA,NA,NaN,NA,3702.899999976158,left,1,NA,NA,NA,NA,NA
wHnzKB9J,3bakuke4akpi45n0y93n6zfn3q3r1f,3ps7w85z83ffw91hxdsda4ugtzv9t9,wHnzKB9J,2020-0188,2021-10-31,06:52:23,08:52:47,NA,incomplete,true,NA,NA,true,0,6,NA,NA,NA,right,n_l_114.jpg,brown,green,NA,NA,NA,NA,NA,NA,NA,NA,NA,NaN,NA,5907.399999976158,right,1,NA,NA,NA,NA,NA
wHnzKB9J,3bakuke4akpi45n0y93n6zfn3q3r1f,3ps7w85z83ffw91hxdsda4ugtzv9t9,wHnzKB9J,2020-0188,2021-10-31,06:52:23,08:52:47,NA,incomplete,true,NA,NA,true,0,7,NA,NA,NA,left,n_l_062.jpg,green,brown,NA,NA,NA,NA,NA,NA,NA,NA,NA,NaN,NA,4301.5,left,1,NA,NA,NA,NA,NA
wHnzKB9J,3bakuke4akpi45n0y93n6zfn3q3r1f,3ps7w85z83ffw91hxdsda4ugtzv9t9,wHnzKB9J,2020-0188,2021-10-31,06:52:23,08:52:47,NA,incomplete,true,NA,NA,true,0,8,NA,NA,NA,right,n_l_035.jpg,yellow,orange,NA,NA,NA,NA,NA,NA,NA,NA,NA,NaN,NA,5833.5,left,0,NA,NA,NA,NA,NA
wHnzKB9J,3bakuke4akpi45n0y93n6zfn3q3r1f,3ps7w85z83ffw91hxdsda4ugtzv9t9,wHnzKB9J,2020-0188,2021-10-31,06:52:23,08:52:47,NA,incomplete,true,NA,NA,true,0,9,NA,NA,NA,left,n_l_051.jpg,yellow,blue,NA,NA,NA,NA,NA,NA,NA,NA,NA,NaN,NA,5416.300000071526,left,1,NA,NA,NA,NA,NA
wHnzKB9J,3bakuke4akpi45n0y93n6zfn3q3r1f,3ps7w85z83ffw91hxdsda4ugtzv9t9,wHnzKB9J,2020-0188,2021-10-31,06:52:23,08:52:47,NA,incomplete,true,NA,NA,true,0,10,NA,NA,NA,left,m_s_108.jpg,black,blue,NA,NA,NA,NA,NA,NA,NA,NA,NA,NaN,NA,2938,left,1,NA,NA,NA,NA,NA
wHnzKB9J,3bakuke4akpi45n0y93n6zfn3q3r1f,3ps7w85z83ffw91hxdsda4ugtzv9t9,wHnzKB9J,2020-0188,2021-10-31,06:52:23,08:52:47,NA,incomplete,true,NA,NA,true,0,11,NA,NA,NA,left,m_l_062.jpg,brown,orange,NA,NA,NA,NA,NA,NA,NA,NA,NA,NaN,NA,6867.699999928474,left,1,NA,NA,NA,NA,NA
wHnzKB9J,3bakuke4akpi45n0y93n6zfn3q3r1f,3ps7w85z83ffw91hxdsda4ugtzv9t9,wHnzKB9J,2020-0188,2021-10-31,06:52:23,08:52:47,NA,incomplete,true,NA,NA,true,0,12,NA,NA,NA,left,n_l_040.jpg,blue,yellow,NA,NA,NA,NA,NA,NA,NA,NA,NA,NaN,NA,6337.899999976158,left,1,NA,NA,NA,NA,NA
wHnzKB9J,3bakuke4akpi45n0y93n6zfn3q3r1f,3ps7w85z83ffw91hxdsda4ugtzv9t9,wHnzKB9J,2020-0188,2021-10-31,06:52:23,08:52:47,NA,incomplete,true,NA,NA,true,0,13,NA,NA,NA,left,m_l_087.jpg,brown,green,NA,NA,NA,NA,NA,NA,NA,NA,NA,NaN,NA,3174,left,1,NA,NA,NA,NA,NA
wHnzKB9J,3bakuke4akpi45n0y93n6zfn3q3r1f,3ps7w85z83ffw91hxdsda4ugtzv9t9,wHnzKB9J,2020-0188,2021-10-31,06:52:23,08:52:47,NA,incomplete,true,NA,NA,true,0,14,NA,NA,NA,left,m_l_083.jpg,yellow,orange,NA,NA,NA,NA,NA,NA,NA,NA,NA,NaN,NA,4702.699999928474,left,1,NA,NA,NA,NA,NA
wHnzKB9J,3bakuke4akpi45n0y93n6zfn3q3r1f,3ps7w85z83ffw91hxdsda4ugtzv9t9,wHnzKB9J,2020-0188,2021-10-31,06:52:23,08:52:47,NA,incomplete,true,NA,NA,true,0,15,NA,NA,NA,left,m_l_056.jpg,black,blue,NA,NA,NA,NA,NA,NA,NA,NA,NA,NaN,NA,3814.2000000476837,left,1,NA,NA,NA,NA,NA
wHnzKB9J,3bakuke4akpi45n0y93n6zfn3q3r1f,3ps7w85z83ffw91hxdsda4ugtzv9t9,wHnzKB9J,2020-0188,2021-10-31,06:52:23,08:52:47,NA,incomplete,true,NA,NA,true,0,16,NA,NA,NA,right,n_s_091.jpg,yellow,orange,NA,NA,NA,NA,NA,NA,NA,NA,NA,NaN,NA,4650.5,left,0,NA,NA,NA,NA,NA
wHnzKB9J,3bakuke4akpi45n0y93n6zfn3q3r1f,3ps7w85z83ffw91hxdsda4ugtzv9t9,wHnzKB9J,2020-0188,2021-10-31,06:52:23,08:52:47,NA,incomplete,true,NA,NA,true,0,17,NA,NA,NA,left,n_l_073.jpg,brown,green,NA,NA,NA,NA,NA,NA,NA,NA,NA,NaN,NA,6644.200000047684,right,0,NA,NA,NA,NA,NA
wHnzKB9J,3bakuke4akpi45n0y93n6zfn3q3r1f,3ps7w85z83ffw91hxdsda4ugtzv9t9,wHnzKB9J,2020-0188,2021-10-31,06:52:23,08:52:47,NA,incomplete,true,NA,NA,true,0,18,NA,NA,NA,left,n_l_093.jpg,yellow,orange,NA,NA,NA,NA,NA,NA,NA,NA,NA,NaN,NA,7943.200000047684,right,0,NA,NA,NA,NA,NA
wHnzKB9J,3bakuke4akpi45n0y93n6zfn3q3r1f,3ps7w85z83ffw91hxdsda4ugtzv9t9,wHnzKB9J,2020-0188,2021-10-31,06:52:23,08:52:47,NA,incomplete,true,NA,NA,true,0,19,NA,NA,NA,left,n_l_102.jpg,orange,yellow,NA,NA,NA,NA,NA,NA,NA,NA,NA,NaN,NA,5782.5,left,1,NA,NA,NA,NA,NA
wHnzKB9J,3bakuke4akpi45n0y93n6zfn3q3r1f,3ps7w85z83ffw91hxdsda4ugtzv9t9,wHnzKB9J,2020-0188,2021-10-31,06:52:23,08:52:47,NA,incomplete,true,NA,NA,true,0,20,NA,NA,NA,right,n_l_070.jpg,blue,black,NA,NA,NA,NA,NA,NA,NA,NA,NA,NaN,NA,7664.200000047684,left,0,NA,NA,NA,NA,NA
wHnzKB9J,3bakuke4akpi45n0y93n6zfn3q3r1f,3ps7w85z83ffw91hxdsda4ugtzv9t9,wHnzKB9J,2020-0188,2021-10-31,06:52:23,08:52:47,NA,incomplete,true,NA,NA,true,0,21,NA,NA,NA,left,n_s_009.jpg,blue,yellow,NA,NA,NA,NA,NA,NA,NA,NA,NA,NaN,NA,6901.899999976158,right,0,NA,NA,NA,NA,NA
wHnzKB9J,3bakuke4akpi45n0y93n6zfn3q3r1f,3ps7w85z83ffw91hxdsda4ugtzv9t9,wHnzKB9J,2020-0188,2021-10-31,06:52:23,08:52:47,NA,incomplete,true,NA,true,NA,0,0,NA,NA,NA,left,NA,NA,NA,present,NA,NA,m_l_083.jpg,yellow,n_s_009.jpg,blue,between,NA,NaN,NA,NA,NA,NA,left,4650.899999976158,1,2,7650.199999928474
wHnzKB9J,3bakuke4akpi45n0y93n6zfn3q3r1f,3ps7w85z83ffw91hxdsda4ugtzv9t9,wHnzKB9J,2020-0188,2021-10-31,06:52:23,08:52:47,NA,incomplete,true,NA,true,NA,0,1,NA,NA,NA,right,NA,NA,NA,present,NA,NA,n_l_062.jpg,green,n_l_114.jpg,green,within,NA,NaN,NA,NA,NA,NA,left,6672.600000023842,0,1,2662.2999999523163
wHnzKB9J,3bakuke4akpi45n0y93n6zfn3q3r1f,3ps7w85z83ffw91hxdsda4ugtzv9t9,wHnzKB9J,2020-0188,2021-10-31,06:52:23,08:52:47,NA,incomplete,true,NA,true,NA,0,2,NA,NA,NA,left,NA,NA,NA,present,NA,NA,m_s_011.jpg,blue,n_l_040.jpg,blue,within,NA,NaN,NA,NA,NA,NA,right,9175.400000095367,0,0,4718
wHnzKB9J,3bakuke4akpi45n0y93n6zfn3q3r1f,3ps7w85z83ffw91hxdsda4ugtzv9t9,wHnzKB9J,2020-0188,2021-10-31,06:52:23,08:52:47,NA,incomplete,true,NA,true,NA,0,3,NA,NA,NA,left,NA,NA,NA,present,NA,NA,m_l_087.jpg,brown,n_s_074.jpg,orange,between,NA,NaN,NA,NA,NA,NA,left,7195.600000023842,1,1,3934.2999999523163
wHnzKB9J,3bakuke4akpi45n0y93n6zfn3q3r1f,3ps7w85z83ffw91hxdsda4ugtzv9t9,wHnzKB9J,2020-0188,2021-10-31,06:52:23,08:52:47,NA,incomplete,true,NA,true,NA,0,4,NA,NA,NA,right,NA,NA,NA,present,NA,NA,m_l_062.jpg,brown,m_l_014.jpg,green,between,NA,NaN,NA,NA,NA,NA,left,5003.399999976158,0,3,2490.2000000476837
wHnzKB9J,3bakuke4akpi45n0y93n6zfn3q3r1f,3ps7w85z83ffw91hxdsda4ugtzv9t9,wHnzKB9J,2020-0188,2021-10-31,06:52:23,08:52:47,NA,incomplete,true,NA,true,NA,0,5,NA,NA,NA,right,NA,NA,NA,present,NA,NA,n_l_070.jpg,black,m_l_056.jpg,black,within,NA,NaN,NA,NA,NA,NA,right,13146.799999952316,1,0,2755.2999999523163
wHnzKB9J,3bakuke4akpi45n0y93n6zfn3q3r1f,3ps7w85z83ffw91hxdsda4ugtzv9t9,wHnzKB9J,2020-0188,2021-10-31,06:52:23,08:52:47,NA,incomplete,true,NA,true,NA,0,6,NA,NA,NA,right,NA,NA,NA,present,NA,NA,n_l_035.jpg,orange,n_s_091.jpg,orange,within,NA,NaN,NA,NA,NA,NA,right,6452.600000023842,1,0,2423
wHnzKB9J,3bakuke4akpi45n0y93n6zfn3q3r1f,3ps7w85z83ffw91hxdsda4ugtzv9t9,wHnzKB9J,2020-0188,2021-10-31,06:52:23,08:52:47,NA,incomplete,true,NA,true,NA,0,7,NA,NA,NA,right,NA,NA,NA,present,NA,NA,n_l_051.jpg,yellow,n_l_102.jpg,orange,between,NA,NaN,NA,NA,NA,NA,right,12096,1,3,3412.7999999523163
wHnzKB9J,3bakuke4akpi45n0y93n6zfn3q3r1f,3ps7w85z83ffw91hxdsda4ugtzv9t9,wHnzKB9J,2020-0188,2021-10-31,06:52:23,08:52:47,NA,incomplete,true,NA,true,NA,0,8,NA,NA,NA,right,NA,NA,NA,present,NA,NA,n_l_073.jpg,brown,n_s_080.jpg,brown,within,NA,NaN,NA,NA,NA,NA,left,5138.300000071526,0,1,2634.9000000953674
wHnzKB9J,3bakuke4akpi45n0y93n6zfn3q3r1f,3ps7w85z83ffw91hxdsda4ugtzv9t9,wHnzKB9J,2020-0188,2021-10-31,06:52:23,08:52:47,NA,incomplete,true,NA,true,NA,0,9,NA,NA,NA,right,NA,NA,NA,present,NA,NA,m_s_108.jpg,black,m_s_084.jpg,blue,between,NA,NaN,NA,NA,NA,NA,right,4538.100000023842,1,2,8498.399999976158
wHnzKB9J,3bakuke4akpi45n0y93n6zfn3q3r1f,3ps7w85z83ffw91hxdsda4ugtzv9t9,wHnzKB9J,2020-0188,2021-10-31,06:52:23,08:52:47,NA,incomplete,true,NA,true,NA,0,10,NA,NA,NA,right,NA,NA,NA,present,NA,NA,n_l_093.jpg,yellow,n_s_056.jpg,yellow,within,NA,NaN,NA,NA,NA,NA,left,6413.100000023842,0,1,2401.899999976158
wHnzKB9J,3bakuke4akpi45n0y93n6zfn3q3r1f,3ps7w85z83ffw91hxdsda4ugtzv9t9,wHnzKB9J,2020-0188,2021-10-31,06:52:23,08:52:47,NA,incomplete,false,true,NA,NA,1,0,NA,blue,m_l_066.jpg,NA,NA,NA,NA,NA,pleasant,unpleasant,NA,NA,NA,NA,NA,left,1915.20000004768,true,NA,NA,NA,NA,NA,NA,NA,NA
wHnzKB9J,3bakuke4akpi45n0y93n6zfn3q3r1f,3ps7w85z83ffw91hxdsda4ugtzv9t9,wHnzKB9J,2020-0188,2021-10-31,06:52:23,08:52:47,NA,incomplete,false,true,NA,NA,1,1,NA,blue,m_s_090.jpg,NA,NA,NA,NA,NA,pleasant,unpleasant,NA,NA,NA,NA,NA,left,2235.69999992847,true,NA,NA,NA,NA,NA,NA,NA,NA
wHnzKB9J,3bakuke4akpi45n0y93n6zfn3q3r1f,3ps7w85z83ffw91hxdsda4ugtzv9t9,wHnzKB9J,2020-0188,2021-10-31,06:52:23,08:52:47,NA,incomplete,false,true,NA,NA,1,2,NA,blue,n_l_094.jpg,NA,NA,NA,NA,NA,unpleasant,pleasant,NA,NA,NA,NA,NA,right,2021.5,true,NA,NA,NA,NA,NA,NA,NA,NA
wHnzKB9J,3bakuke4akpi45n0y93n6zfn3q3r1f,3ps7w85z83ffw91hxdsda4ugtzv9t9,wHnzKB9J,2020-0188,2021-10-31,06:52:23,08:52:47,NA,incomplete,false,true,NA,NA,1,3,NA,blue,m_s_019.jpg,NA,NA,NA,NA,NA,pleasant,unpleasant,NA,NA,NA,NA,NA,right,2616.39999997616,true,NA,NA,NA,NA,NA,NA,NA,NA
wHnzKB9J,3bakuke4akpi45n0y93n6zfn3q3r1f,3ps7w85z83ffw91hxdsda4ugtzv9t9,wHnzKB9J,2020-0188,2021-10-31,06:52:23,08:52:47,NA,incomplete,false,true,NA,NA,1,4,NA,blue,m_l_054.jpg,NA,NA,NA,NA,NA,pleasant,unpleasant,NA,NA,NA,NA,NA,right,1540.30000007153,true,NA,NA,NA,NA,NA,NA,NA,NA
wHnzKB9J,3bakuke4akpi45n0y93n6zfn3q3r1f,3ps7w85z83ffw91hxdsda4ugtzv9t9,wHnzKB9J,2020-0188,2021-10-31,06:52:23,08:52:47,NA,incomplete,false,true,NA,NA,1,5,NA,blue,m_l_018.jpg,NA,NA,NA,NA,NA,pleasant,unpleasant,NA,NA,NA,NA,NA,left,2114.89999997616,true,NA,NA,NA,NA,NA,NA,NA,NA
wHnzKB9J,3bakuke4akpi45n0y93n6zfn3q3r1f,3ps7w85z83ffw91hxdsda4ugtzv9t9,wHnzKB9J,2020-0188,2021-10-31,06:52:23,08:52:47,NA,incomplete,false,true,NA,NA,1,6,NA,yellow,n_l_045.jpg,NA,NA,NA,NA,NA,unpleasant,pleasant,NA,NA,NA,NA,NA,right,2393.80000007153,true,NA,NA,NA,NA,NA,NA,NA,NA
wHnzKB9J,3bakuke4akpi45n0y93n6zfn3q3r1f,3ps7w85z83ffw91hxdsda4ugtzv9t9,wHnzKB9J,2020-0188,2021-10-31,06:52:23,08:52:47,NA,incomplete,false,true,NA,NA,1,7,NA,yellow,m_l_079.jpg,NA,NA,NA,NA,NA,pleasant,unpleasant,NA,NA,NA,NA,NA,right,1814.39999997616,true,NA,NA,NA,NA,NA,NA,NA,NA
wHnzKB9J,3bakuke4akpi45n0y93n6zfn3q3r1f,3ps7w85z83ffw91hxdsda4ugtzv9t9,wHnzKB9J,2020-0188,2021-10-31,06:52:23,08:52:47,NA,incomplete,false,true,NA,NA,1,8,NA,yellow,n_l_081.jpg,NA,NA,NA,NA,NA,pleasant,unpleasant,NA,NA,NA,NA,NA,left,1958.60000002384,true,NA,NA,NA,NA,NA,NA,NA,NA
wHnzKB9J,3bakuke4akpi45n0y93n6zfn3q3r1f,3ps7w85z83ffw91hxdsda4ugtzv9t9,wHnzKB9J,2020-0188,2021-10-31,06:52:23,08:52:47,NA,incomplete,false,true,NA,NA,1,9,NA,yellow,m_l_042.jpg,NA,NA,NA,NA,NA,pleasant,unpleasant,NA,NA,NA,NA,NA,right,2047.5,true,NA,NA,NA,NA,NA,NA,NA,NA
wHnzKB9J,3bakuke4akpi45n0y93n6zfn3q3r1f,3ps7w85z83ffw91hxdsda4ugtzv9t9,wHnzKB9J,2020-0188,2021-10-31,06:52:23,08:52:47,NA,incomplete,false,true,NA,NA,1,10,NA,yellow,m_s_015.jpg,NA,NA,NA,NA,NA,unpleasant,pleasant,NA,NA,NA,NA,NA,left,3183,true,NA,NA,NA,NA,NA,NA,NA,NA
wHnzKB9J,3bakuke4akpi45n0y93n6zfn3q3r1f,3ps7w85z83ffw91hxdsda4ugtzv9t9,wHnzKB9J,2020-0188,2021-10-31,06:52:23,08:52:47,NA,incomplete,false,true,NA,NA,1,11,NA,yellow,n_s_015.jpg,NA,NA,NA,NA,NA,pleasant,unpleasant,NA,NA,NA,NA,NA,right,1821.5,true,NA,NA,NA,NA,NA,NA,NA,NA
wHnzKB9J,3bakuke4akpi45n0y93n6zfn3q3r1f,3ps7w85z83ffw91hxdsda4ugtzv9t9,wHnzKB9J,2020-0188,2021-10-31,06:52:23,08:52:47,NA,incomplete,false,true,NA,NA,1,12,NA,white,n_l_113.jpg,NA,NA,NA,NA,NA,pleasant,unpleasant,NA,NA,NA,NA,NA,left,2411.5,true,NA,NA,NA,NA,NA,NA,NA,NA
wHnzKB9J,3bakuke4akpi45n0y93n6zfn3q3r1f,3ps7w85z83ffw91hxdsda4ugtzv9t9,wHnzKB9J,2020-0188,2021-10-31,06:52:23,08:52:47,NA,incomplete,false,true,NA,NA,1,13,NA,white,m_s_107.jpg,NA,NA,NA,NA,NA,pleasant,unpleasant,NA,NA,NA,NA,NA,left,1414.10000002384,true,NA,NA,NA,NA,NA,NA,NA,NA
wHnzKB9J,3bakuke4akpi45n0y93n6zfn3q3r1f,3ps7w85z83ffw91hxdsda4ugtzv9t9,wHnzKB9J,2020-0188,2021-10-31,06:52:23,08:52:47,NA,incomplete,false,true,NA,NA,1,14,NA,white,m_l_081.jpg,NA,NA,NA,NA,NA,unpleasant,pleasant,NA,NA,NA,NA,NA,left,1835.30000007153,true,NA,NA,NA,NA,NA,NA,NA,NA
wHnzKB9J,3bakuke4akpi45n0y93n6zfn3q3r1f,3ps7w85z83ffw91hxdsda4ugtzv9t9,wHnzKB9J,2020-0188,2021-10-31,06:52:23,08:52:47,NA,incomplete,false,true,NA,NA,1,15,NA,white,n_s_047.jpg,NA,NA,NA,NA,NA,unpleasant,pleasant,NA,NA,NA,NA,NA,right,1571.5,true,NA,NA,NA,NA,NA,NA,NA,NA
wHnzKB9J,3bakuke4akpi45n0y93n6zfn3q3r1f,3ps7w85z83ffw91hxdsda4ugtzv9t9,wHnzKB9J,2020-0188,2021-10-31,06:52:23,08:52:47,NA,incomplete,false,true,NA,NA,1,16,NA,white,m_l_046.jpg,NA,NA,NA,NA,NA,pleasant,unpleasant,NA,NA,NA,NA,NA,right,2148.89999997616,true,NA,NA,NA,NA,NA,NA,NA,NA
wHnzKB9J,3bakuke4akpi45n0y93n6zfn3q3r1f,3ps7w85z83ffw91hxdsda4ugtzv9t9,wHnzKB9J,2020-0188,2021-10-31,06:52:23,08:52:47,NA,incomplete,false,true,NA,NA,1,17,NA,white,m_s_074.jpg,NA,NA,NA,NA,NA,pleasant,unpleasant,NA,NA,NA,NA,NA,left,1811.30000007153,true,NA,NA,NA,NA,NA,NA,NA,NA
wHnzKB9J,3bakuke4akpi45n0y93n6zfn3q3r1f,3ps7w85z83ffw91hxdsda4ugtzv9t9,wHnzKB9J,2020-0188,2021-10-31,06:52:23,08:52:47,NA,incomplete,false,true,NA,NA,1,18,NA,orange,m_l_080.jpg,NA,NA,NA,NA,NA,unpleasant,pleasant,NA,NA,NA,NA,NA,left,1706.20000004768,true,NA,NA,NA,NA,NA,NA,NA,NA
wHnzKB9J,3bakuke4akpi45n0y93n6zfn3q3r1f,3ps7w85z83ffw91hxdsda4ugtzv9t9,wHnzKB9J,2020-0188,2021-10-31,06:52:23,08:52:47,NA,incomplete,false,true,NA,NA,1,19,NA,orange,m_l_027.jpg,NA,NA,NA,NA,NA,unpleasant,pleasant,NA,NA,NA,NA,NA,left,2687.60000002384,true,NA,NA,NA,NA,NA,NA,NA,NA
wHnzKB9J,3bakuke4akpi45n0y93n6zfn3q3r1f,3ps7w85z83ffw91hxdsda4ugtzv9t9,wHnzKB9J,2020-0188,2021-10-31,06:52:23,08:52:47,NA,incomplete,false,true,NA,NA,1,20,NA,orange,m_s_039.jpg,NA,NA,NA,NA,NA,pleasant,unpleasant,NA,NA,NA,NA,NA,left,2444.30000007153,true,NA,NA,NA,NA,NA,NA,NA,NA
wHnzKB9J,3bakuke4akpi45n0y93n6zfn3q3r1f,3ps7w85z83ffw91hxdsda4ugtzv9t9,wHnzKB9J,2020-0188,2021-10-31,06:52:23,08:52:47,NA,incomplete,false,true,NA,NA,1,21,NA,orange,n_s_007.jpg,NA,NA,NA,NA,NA,pleasant,unpleasant,NA,NA,NA,NA,NA,left,2765.30000007153,true,NA,NA,NA,NA,NA,NA,NA,NA
wHnzKB9J,3bakuke4akpi45n0y93n6zfn3q3r1f,3ps7w85z83ffw91hxdsda4ugtzv9t9,wHnzKB9J,2020-0188,2021-10-31,06:52:23,08:52:47,NA,incomplete,false,true,NA,NA,1,22,NA,orange,m_s_095.jpg,NA,NA,NA,NA,NA,pleasant,unpleasant,NA,NA,NA,NA,NA,left,2355.10000002384,true,NA,NA,NA,NA,NA,NA,NA,NA
wHnzKB9J,3bakuke4akpi45n0y93n6zfn3q3r1f,3ps7w85z83ffw91hxdsda4ugtzv9t9,wHnzKB9J,2020-0188,2021-10-31,06:52:23,08:52:47,NA,incomplete,false,true,NA,NA,1,23,NA,orange,n_s_011.jpg,NA,NA,NA,NA,NA,unpleasant,pleasant,NA,NA,NA,NA,NA,right,1825.10000002384,true,NA,NA,NA,NA,NA,NA,NA,NA
wHnzKB9J,3bakuke4akpi45n0y93n6zfn3q3r1f,3ps7w85z83ffw91hxdsda4ugtzv9t9,wHnzKB9J,2020-0188,2021-10-31,06:52:23,08:52:47,NA,incomplete,false,true,NA,NA,1,24,NA,purple,n_l_079.jpg,NA,NA,NA,NA,NA,unpleasant,pleasant,NA,NA,NA,NA,NA,right,1651,true,NA,NA,NA,NA,NA,NA,NA,NA
wHnzKB9J,3bakuke4akpi45n0y93n6zfn3q3r1f,3ps7w85z83ffw91hxdsda4ugtzv9t9,wHnzKB9J,2020-0188,2021-10-31,06:52:23,08:52:47,NA,incomplete,false,true,NA,NA,1,25,NA,purple,m_l_105.jpg,NA,NA,NA,NA,NA,pleasant,unpleasant,NA,NA,NA,NA,NA,right,1975.90000009537,true,NA,NA,NA,NA,NA,NA,NA,NA
wHnzKB9J,3bakuke4akpi45n0y93n6zfn3q3r1f,3ps7w85z83ffw91hxdsda4ugtzv9t9,wHnzKB9J,2020-0188,2021-10-31,06:52:23,08:52:47,NA,incomplete,false,true,NA,NA,1,26,NA,purple,m_s_083.jpg,NA,NA,NA,NA,NA,unpleasant,pleasant,NA,NA,NA,NA,NA,right,1920.89999997616,true,NA,NA,NA,NA,NA,NA,NA,NA
wHnzKB9J,3bakuke4akpi45n0y93n6zfn3q3r1f,3ps7w85z83ffw91hxdsda4ugtzv9t9,wHnzKB9J,2020-0188,2021-10-31,06:52:23,08:52:47,NA,incomplete,false,true,NA,NA,1,27,NA,purple,n_l_038.jpg,NA,NA,NA,NA,NA,pleasant,unpleasant,NA,NA,NA,NA,NA,left,1522,true,NA,NA,NA,NA,NA,NA,NA,NA
wHnzKB9J,3bakuke4akpi45n0y93n6zfn3q3r1f,3ps7w85z83ffw91hxdsda4ugtzv9t9,wHnzKB9J,2020-0188,2021-10-31,06:52:23,08:52:47,NA,incomplete,false,true,NA,NA,1,28,NA,purple,n_l_067.jpg,NA,NA,NA,NA,NA,pleasant,unpleasant,NA,NA,NA,NA,NA,right,1880.5,true,NA,NA,NA,NA,NA,NA,NA,NA
wHnzKB9J,3bakuke4akpi45n0y93n6zfn3q3r1f,3ps7w85z83ffw91hxdsda4ugtzv9t9,wHnzKB9J,2020-0188,2021-10-31,06:52:23,08:52:47,NA,incomplete,false,true,NA,NA,1,29,NA,purple,m_l_104.jpg,NA,NA,NA,NA,NA,unpleasant,pleasant,NA,NA,NA,NA,NA,right,1835.19999992847,true,NA,NA,NA,NA,NA,NA,NA,NA
wHnzKB9J,3bakuke4akpi45n0y93n6zfn3q3r1f,3ps7w85z83ffw91hxdsda4ugtzv9t9,wHnzKB9J,2020-0188,2021-10-31,06:52:23,08:52:47,NA,incomplete,false,true,NA,NA,1,30,NA,gray,m_l_102.jpg,NA,NA,NA,NA,NA,pleasant,unpleasant,NA,NA,NA,NA,NA,left,1576.80000007153,true,NA,NA,NA,NA,NA,NA,NA,NA
wHnzKB9J,3bakuke4akpi45n0y93n6zfn3q3r1f,3ps7w85z83ffw91hxdsda4ugtzv9t9,wHnzKB9J,2020-0188,2021-10-31,06:52:23,08:52:47,NA,incomplete,false,true,NA,NA,1,31,NA,gray,m_s_034.jpg,NA,NA,NA,NA,NA,unpleasant,pleasant,NA,NA,NA,NA,NA,left,1935.39999997616,true,NA,NA,NA,NA,NA,NA,NA,NA
wHnzKB9J,3bakuke4akpi45n0y93n6zfn3q3r1f,3ps7w85z83ffw91hxdsda4ugtzv9t9,wHnzKB9J,2020-0188,2021-10-31,06:52:23,08:52:47,NA,incomplete,false,true,NA,NA,1,32,NA,gray,m_l_071.jpg,NA,NA,NA,NA,NA,unpleasant,pleasant,NA,NA,NA,NA,NA,right,1431.69999992847,true,NA,NA,NA,NA,NA,NA,NA,NA
wHnzKB9J,3bakuke4akpi45n0y93n6zfn3q3r1f,3ps7w85z83ffw91hxdsda4ugtzv9t9,wHnzKB9J,2020-0188,2021-10-31,06:52:23,08:52:47,NA,incomplete,false,true,NA,NA,1,33,NA,gray,m_l_089.jpg,NA,NA,NA,NA,NA,pleasant,unpleasant,NA,NA,NA,NA,NA,left,2036.19999992847,true,NA,NA,NA,NA,NA,NA,NA,NA
wHnzKB9J,3bakuke4akpi45n0y93n6zfn3q3r1f,3ps7w85z83ffw91hxdsda4ugtzv9t9,wHnzKB9J,2020-0188,2021-10-31,06:52:23,08:52:47,NA,incomplete,false,true,NA,NA,1,34,NA,gray,m_l_116.jpg,NA,NA,NA,NA,NA,pleasant,unpleasant,NA,NA,NA,NA,NA,left,1890.10000002384,true,NA,NA,NA,NA,NA,NA,NA,NA
wHnzKB9J,3bakuke4akpi45n0y93n6zfn3q3r1f,3ps7w85z83ffw91hxdsda4ugtzv9t9,wHnzKB9J,2020-0188,2021-10-31,06:52:23,08:52:47,NA,incomplete,false,true,NA,NA,1,35,NA,gray,n_s_106.jpg,NA,NA,NA,NA,NA,unpleasant,pleasant,NA,NA,NA,NA,NA,right,1412.30000007153,true,NA,NA,NA,NA,NA,NA,NA,NA
wHnzKB9J,3bakuke4akpi45n0y93n6zfn3q3r1f,3ps7w85z83ffw91hxdsda4ugtzv9t9,wHnzKB9J,2020-0188,2021-10-31,06:52:23,08:52:47,NA,incomplete,false,NA,NA,true,1,0,NA,NA,NA,left,m_l_104.jpg,purple,gray,NA,NA,NA,NA,NA,NA,NA,NA,NA,NaN,NA,3962,left,1,NA,NA,NA,NA,NA
wHnzKB9J,3bakuke4akpi45n0y93n6zfn3q3r1f,3ps7w85z83ffw91hxdsda4ugtzv9t9,wHnzKB9J,2020-0188,2021-10-31,06:52:23,08:52:47,NA,incomplete,false,NA,NA,true,1,1,NA,NA,NA,right,m_s_107.jpg,yellow,white,NA,NA,NA,NA,NA,NA,NA,NA,NA,NaN,NA,4354.600000023842,left,0,NA,NA,NA,NA,NA
wHnzKB9J,3bakuke4akpi45n0y93n6zfn3q3r1f,3ps7w85z83ffw91hxdsda4ugtzv9t9,wHnzKB9J,2020-0188,2021-10-31,06:52:23,08:52:47,NA,incomplete,false,NA,NA,true,1,2,NA,NA,NA,left,m_l_018.jpg,blue,yellow,NA,NA,NA,NA,NA,NA,NA,NA,NA,NaN,NA,2773.2000000476837,left,1,NA,NA,NA,NA,NA
wHnzKB9J,3bakuke4akpi45n0y93n6zfn3q3r1f,3ps7w85z83ffw91hxdsda4ugtzv9t9,wHnzKB9J,2020-0188,2021-10-31,06:52:23,08:52:47,NA,incomplete,false,NA,NA,true,1,3,NA,NA,NA,left,n_l_067.jpg,purple,gray,NA,NA,NA,NA,NA,NA,NA,NA,NA,NaN,NA,4244.200000047684,left,1,NA,NA,NA,NA,NA
wHnzKB9J,3bakuke4akpi45n0y93n6zfn3q3r1f,3ps7w85z83ffw91hxdsda4ugtzv9t9,wHnzKB9J,2020-0188,2021-10-31,06:52:23,08:52:47,NA,incomplete,false,NA,NA,true,1,4,NA,NA,NA,left,n_s_106.jpg,gray,purple,NA,NA,NA,NA,NA,NA,NA,NA,NA,NaN,NA,2748.399999976158,left,1,NA,NA,NA,NA,NA
wHnzKB9J,3bakuke4akpi45n0y93n6zfn3q3r1f,3ps7w85z83ffw91hxdsda4ugtzv9t9,wHnzKB9J,2020-0188,2021-10-31,06:52:23,08:52:47,NA,incomplete,false,NA,NA,true,1,5,NA,NA,NA,left,m_l_027.jpg,orange,purple,NA,NA,NA,NA,NA,NA,NA,NA,NA,NaN,NA,3023.7000000476837,left,1,NA,NA,NA,NA,NA
wHnzKB9J,3bakuke4akpi45n0y93n6zfn3q3r1f,3ps7w85z83ffw91hxdsda4ugtzv9t9,wHnzKB9J,2020-0188,2021-10-31,06:52:23,08:52:47,NA,incomplete,false,NA,NA,true,1,6,NA,NA,NA,right,m_s_034.jpg,purple,gray,NA,NA,NA,NA,NA,NA,NA,NA,NA,NaN,NA,7867.299999952316,right,1,NA,NA,NA,NA,NA
wHnzKB9J,3bakuke4akpi45n0y93n6zfn3q3r1f,3ps7w85z83ffw91hxdsda4ugtzv9t9,wHnzKB9J,2020-0188,2021-10-31,06:52:23,08:52:47,NA,incomplete,false,NA,NA,true,1,7,NA,NA,NA,left,n_s_015.jpg,yellow,white,NA,NA,NA,NA,NA,NA,NA,NA,NA,NaN,NA,3959.0999999046326,left,1,NA,NA,NA,NA,NA
wHnzKB9J,3bakuke4akpi45n0y93n6zfn3q3r1f,3ps7w85z83ffw91hxdsda4ugtzv9t9,wHnzKB9J,2020-0188,2021-10-31,06:52:23,08:52:47,NA,incomplete,false,NA,NA,true,1,8,NA,NA,NA,left,m_l_081.jpg,white,yellow,NA,NA,NA,NA,NA,NA,NA,NA,NA,NaN,NA,3966.899999976158,left,1,NA,NA,NA,NA,NA
wHnzKB9J,3bakuke4akpi45n0y93n6zfn3q3r1f,3ps7w85z83ffw91hxdsda4ugtzv9t9,wHnzKB9J,2020-0188,2021-10-31,06:52:23,08:52:47,NA,incomplete,false,NA,NA,true,1,9,NA,NA,NA,right,m_l_105.jpg,orange,purple,NA,NA,NA,NA,NA,NA,NA,NA,NA,NaN,NA,5441.600000023842,left,0,NA,NA,NA,NA,NA
wHnzKB9J,3bakuke4akpi45n0y93n6zfn3q3r1f,3ps7w85z83ffw91hxdsda4ugtzv9t9,wHnzKB9J,2020-0188,2021-10-31,06:52:23,08:52:47,NA,incomplete,false,NA,NA,true,1,10,NA,NA,NA,right,n_s_011.jpg,white,orange,NA,NA,NA,NA,NA,NA,NA,NA,NA,NaN,NA,5941.600000023842,right,1,NA,NA,NA,NA,NA
wHnzKB9J,3bakuke4akpi45n0y93n6zfn3q3r1f,3ps7w85z83ffw91hxdsda4ugtzv9t9,wHnzKB9J,2020-0188,2021-10-31,06:52:23,08:52:47,NA,incomplete,false,NA,NA,true,1,11,NA,NA,NA,right,m_s_074.jpg,yellow,white,NA,NA,NA,NA,NA,NA,NA,NA,NA,NaN,NA,5267.100000023842,right,1,NA,NA,NA,NA,NA
wHnzKB9J,3bakuke4akpi45n0y93n6zfn3q3r1f,3ps7w85z83ffw91hxdsda4ugtzv9t9,wHnzKB9J,2020-0188,2021-10-31,06:52:23,08:52:47,NA,incomplete,false,NA,NA,true,1,12,NA,NA,NA,left,m_l_054.jpg,blue,yellow,NA,NA,NA,NA,NA,NA,NA,NA,NA,NaN,NA,5032,left,1,NA,NA,NA,NA,NA
wHnzKB9J,3bakuke4akpi45n0y93n6zfn3q3r1f,3ps7w85z83ffw91hxdsda4ugtzv9t9,wHnzKB9J,2020-0188,2021-10-31,06:52:23,08:52:47,NA,incomplete,false,NA,NA,true,1,13,NA,NA,NA,right,m_s_083.jpg,orange,purple,NA,NA,NA,NA,NA,NA,NA,NA,NA,NaN,NA,3944.399999976158,right,1,NA,NA,NA,NA,NA
wHnzKB9J,3bakuke4akpi45n0y93n6zfn3q3r1f,3ps7w85z83ffw91hxdsda4ugtzv9t9,wHnzKB9J,2020-0188,2021-10-31,06:52:23,08:52:47,NA,incomplete,false,NA,NA,true,1,14,NA,NA,NA,right,m_s_015.jpg,white,yellow,NA,NA,NA,NA,NA,NA,NA,NA,NA,NaN,NA,3426.1999999284744,right,1,NA,NA,NA,NA,NA
wHnzKB9J,3bakuke4akpi45n0y93n6zfn3q3r1f,3ps7w85z83ffw91hxdsda4ugtzv9t9,wHnzKB9J,2020-0188,2021-10-31,06:52:23,08:52:47,NA,incomplete,false,NA,NA,true,1,15,NA,NA,NA,right,m_l_046.jpg,yellow,white,NA,NA,NA,NA,NA,NA,NA,NA,NA,NaN,NA,4932.200000047684,right,1,NA,NA,NA,NA,NA
wHnzKB9J,3bakuke4akpi45n0y93n6zfn3q3r1f,3ps7w85z83ffw91hxdsda4ugtzv9t9,wHnzKB9J,2020-0188,2021-10-31,06:52:23,08:52:47,NA,incomplete,false,NA,NA,true,1,16,NA,NA,NA,right,m_s_090.jpg,yellow,blue,NA,NA,NA,NA,NA,NA,NA,NA,NA,NaN,NA,2417.3000000715256,right,1,NA,NA,NA,NA,NA
wHnzKB9J,3bakuke4akpi45n0y93n6zfn3q3r1f,3ps7w85z83ffw91hxdsda4ugtzv9t9,wHnzKB9J,2020-0188,2021-10-31,06:52:23,08:52:47,NA,incomplete,false,NA,NA,true,1,17,NA,NA,NA,right,m_l_071.jpg,purple,gray,NA,NA,NA,NA,NA,NA,NA,NA,NA,NaN,NA,4155.099999904633,right,1,NA,NA,NA,NA,NA
wHnzKB9J,3bakuke4akpi45n0y93n6zfn3q3r1f,3ps7w85z83ffw91hxdsda4ugtzv9t9,wHnzKB9J,2020-0188,2021-10-31,06:52:23,08:52:47,NA,incomplete,false,NA,NA,true,1,18,NA,NA,NA,right,m_s_095.jpg,white,orange,NA,NA,NA,NA,NA,NA,NA,NA,NA,NaN,NA,4179.299999952316,right,1,NA,NA,NA,NA,NA
wHnzKB9J,3bakuke4akpi45n0y93n6zfn3q3r1f,3ps7w85z83ffw91hxdsda4ugtzv9t9,wHnzKB9J,2020-0188,2021-10-31,06:52:23,08:52:47,NA,incomplete,false,NA,NA,true,1,19,NA,NA,NA,left,n_l_081.jpg,yellow,blue,NA,NA,NA,NA,NA,NA,NA,NA,NA,NaN,NA,3430.899999976158,right,0,NA,NA,NA,NA,NA
wHnzKB9J,3bakuke4akpi45n0y93n6zfn3q3r1f,3ps7w85z83ffw91hxdsda4ugtzv9t9,wHnzKB9J,2020-0188,2021-10-31,06:52:23,08:52:47,NA,incomplete,false,NA,NA,true,1,20,NA,NA,NA,left,m_l_079.jpg,yellow,blue,NA,NA,NA,NA,NA,NA,NA,NA,NA,NaN,NA,5780.900000095367,right,0,NA,NA,NA,NA,NA
wHnzKB9J,3bakuke4akpi45n0y93n6zfn3q3r1f,3ps7w85z83ffw91hxdsda4ugtzv9t9,wHnzKB9J,2020-0188,2021-10-31,06:52:23,08:52:47,NA,incomplete,false,NA,NA,true,1,21,NA,NA,NA,left,m_s_039.jpg,orange,white,NA,NA,NA,NA,NA,NA,NA,NA,NA,NaN,NA,4411.100000023842,right,0,NA,NA,NA,NA,NA
wHnzKB9J,3bakuke4akpi45n0y93n6zfn3q3r1f,3ps7w85z83ffw91hxdsda4ugtzv9t9,wHnzKB9J,2020-0188,2021-10-31,06:52:23,08:52:47,NA,incomplete,false,NA,true,NA,1,0,NA,NA,NA,left,NA,NA,NA,present,NA,NA,m_l_079.jpg,yellow,n_s_015.jpg,yellow,within,NA,NaN,NA,NA,NA,NA,left,4936.400000095367,1,0,7146.699999928474
wHnzKB9J,3bakuke4akpi45n0y93n6zfn3q3r1f,3ps7w85z83ffw91hxdsda4ugtzv9t9,wHnzKB9J,2020-0188,2021-10-31,06:52:23,08:52:47,NA,incomplete,false,NA,true,NA,1,1,NA,NA,NA,right,NA,NA,NA,present,NA,NA,n_l_081.jpg,yellow,m_l_054.jpg,blue,between,NA,NaN,NA,NA,NA,NA,right,5539.799999952316,1,2,2373.8000000715256
wHnzKB9J,3bakuke4akpi45n0y93n6zfn3q3r1f,3ps7w85z83ffw91hxdsda4ugtzv9t9,wHnzKB9J,2020-0188,2021-10-31,06:52:23,08:52:47,NA,incomplete,false,NA,true,NA,1,2,NA,NA,NA,left,NA,NA,NA,present,NA,NA,m_s_015.jpg,yellow,m_l_081.jpg,white,between,NA,NaN,NA,NA,NA,NA,left,6449.5,1,3,2434.7000000476837
wHnzKB9J,3bakuke4akpi45n0y93n6zfn3q3r1f,3ps7w85z83ffw91hxdsda4ugtzv9t9,wHnzKB9J,2020-0188,2021-10-31,06:52:23,08:52:47,NA,incomplete,false,NA,true,NA,1,3,NA,NA,NA,left,NA,NA,NA,present,NA,NA,m_s_090.jpg,blue,m_l_018.jpg,blue,within,NA,NaN,NA,NA,NA,NA,left,5441.899999976158,1,0,2579.5999999046326
wHnzKB9J,3bakuke4akpi45n0y93n6zfn3q3r1f,3ps7w85z83ffw91hxdsda4ugtzv9t9,wHnzKB9J,2020-0188,2021-10-31,06:52:23,08:52:47,NA,incomplete,false,NA,true,NA,1,4,NA,NA,NA,left,NA,NA,NA,present,NA,NA,m_s_034.jpg,gray,n_s_106.jpg,gray,within,NA,NaN,NA,NA,NA,NA,right,5945.200000047684,0,0,3427.0999999046326
wHnzKB9J,3bakuke4akpi45n0y93n6zfn3q3r1f,3ps7w85z83ffw91hxdsda4ugtzv9t9,wHnzKB9J,2020-0188,2021-10-31,06:52:23,08:52:47,NA,incomplete,false,NA,true,NA,1,5,NA,NA,NA,left,NA,NA,NA,present,NA,NA,n_l_067.jpg,purple,m_l_071.jpg,gray,between,NA,NaN,NA,NA,NA,NA,left,4341.700000047684,1,3,2038.1999999284744
wHnzKB9J,3bakuke4akpi45n0y93n6zfn3q3r1f,3ps7w85z83ffw91hxdsda4ugtzv9t9,wHnzKB9J,2020-0188,2021-10-31,06:52:23,08:52:47,NA,incomplete,false,NA,true,NA,1,6,NA,NA,NA,right,NA,NA,NA,present,NA,NA,m_l_104.jpg,purple,m_l_105.jpg,purple,within,NA,NaN,NA,NA,NA,NA,right,9150.199999928474,1,1,2242.7999999523163
wHnzKB9J,3bakuke4akpi45n0y93n6zfn3q3r1f,3ps7w85z83ffw91hxdsda4ugtzv9t9,wHnzKB9J,2020-0188,2021-10-31,06:52:23,08:52:47,NA,incomplete,false,NA,true,NA,1,7,NA,NA,NA,left,NA,NA,NA,present,NA,NA,m_l_027.jpg,orange,n_s_011.jpg,orange,within,NA,NaN,NA,NA,NA,NA,left,4487.100000023842,1,0,2552.399999976158
wHnzKB9J,3bakuke4akpi45n0y93n6zfn3q3r1f,3ps7w85z83ffw91hxdsda4ugtzv9t9,wHnzKB9J,2020-0188,2021-10-31,06:52:23,08:52:47,NA,incomplete,false,NA,true,NA,1,8,NA,NA,NA,left,NA,NA,NA,present,NA,NA,m_s_107.jpg,white,m_s_074.jpg,white,within,NA,NaN,NA,NA,NA,NA,right,5352.100000023842,0,0,3672.399999976158
wHnzKB9J,3bakuke4akpi45n0y93n6zfn3q3r1f,3ps7w85z83ffw91hxdsda4ugtzv9t9,wHnzKB9J,2020-0188,2021-10-31,06:52:23,08:52:47,NA,incomplete,false,NA,true,NA,1,9,NA,NA,NA,right,NA,NA,NA,present,NA,NA,m_s_039.jpg,orange,m_l_046.jpg,white,between,NA,NaN,NA,NA,NA,NA,left,4887.200000047684,0,3,2981.899999976158
wHnzKB9J,3bakuke4akpi45n0y93n6zfn3q3r1f,3ps7w85z83ffw91hxdsda4ugtzv9t9,wHnzKB9J,2020-0188,2021-10-31,06:52:23,08:52:47,NA,incomplete,false,NA,true,NA,1,10,NA,NA,NA,right,NA,NA,NA,present,NA,NA,m_s_083.jpg,purple,m_s_095.jpg,orange,between,NA,NaN,NA,NA,NA,NA,left,5779.899999976158,0,3,1969.8999999761581
wHnzKB9J,3bakuke4akpi45n0y93n6zfn3q3r1f,3ps7w85z83ffw91hxdsda4ugtzv9t9,wHnzKB9J,2020-0188,2021-10-31,06:52:23,08:52:47,NA,incomplete,false,true,NA,NA,2,0,NA,gray,m_s_087.jpg,NA,NA,NA,NA,NA,pleasant,unpleasant,NA,NA,NA,NA,NA,none,0,false,NA,NA,NA,NA,NA,NA,NA,NA
wHnzKB9J,3bakuke4akpi45n0y93n6zfn3q3r1f,3ps7w85z83ffw91hxdsda4ugtzv9t9,wHnzKB9J,2020-0188,2021-10-31,06:52:23,08:52:47,NA,incomplete,false,true,NA,NA,2,1,NA,gray,n_s_066.jpg,NA,NA,NA,NA,NA,pleasant,unpleasant,NA,NA,NA,NA,NA,left,2461,true,NA,NA,NA,NA,NA,NA,NA,NA
wHnzKB9J,3bakuke4akpi45n0y93n6zfn3q3r1f,3ps7w85z83ffw91hxdsda4ugtzv9t9,wHnzKB9J,2020-0188,2021-10-31,06:52:23,08:52:47,NA,incomplete,false,true,NA,NA,2,2,NA,gray,n_s_060.jpg,NA,NA,NA,NA,NA,pleasant,unpleasant,NA,NA,NA,NA,NA,left,2013.5,true,NA,NA,NA,NA,NA,NA,NA,NA
wHnzKB9J,3bakuke4akpi45n0y93n6zfn3q3r1f,3ps7w85z83ffw91hxdsda4ugtzv9t9,wHnzKB9J,2020-0188,2021-10-31,06:52:23,08:52:47,NA,incomplete,false,true,NA,NA,2,3,NA,gray,m_l_003.jpg,NA,NA,NA,NA,NA,unpleasant,pleasant,NA,NA,NA,NA,NA,left,3350.89999997616,true,NA,NA,NA,NA,NA,NA,NA,NA
wHnzKB9J,3bakuke4akpi45n0y93n6zfn3q3r1f,3ps7w85z83ffw91hxdsda4ugtzv9t9,wHnzKB9J,2020-0188,2021-10-31,06:52:23,08:52:47,NA,incomplete,false,true,NA,NA,2,4,NA,gray,n_s_065.jpg,NA,NA,NA,NA,NA,pleasant,unpleasant,NA,NA,NA,NA,NA,left,2741.29999995232,true,NA,NA,NA,NA,NA,NA,NA,NA
wHnzKB9J,3bakuke4akpi45n0y93n6zfn3q3r1f,3ps7w85z83ffw91hxdsda4ugtzv9t9,wHnzKB9J,2020-0188,2021-10-31,06:52:23,08:52:47,NA,incomplete,false,true,NA,NA,2,5,NA,gray,n_l_048.jpg,NA,NA,NA,NA,NA,pleasant,unpleasant,NA,NA,NA,NA,NA,left,2394.69999992847,true,NA,NA,NA,NA,NA,NA,NA,NA
wHnzKB9J,3bakuke4akpi45n0y93n6zfn3q3r1f,3ps7w85z83ffw91hxdsda4ugtzv9t9,wHnzKB9J,2020-0188,2021-10-31,06:52:23,08:52:47,NA,incomplete,false,true,NA,NA,2,6,NA,yellow,n_l_064.jpg,NA,NA,NA,NA,NA,unpleasant,pleasant,NA,NA,NA,NA,NA,left,2359.70000004768,true,NA,NA,NA,NA,NA,NA,NA,NA
wHnzKB9J,3bakuke4akpi45n0y93n6zfn3q3r1f,3ps7w85z83ffw91hxdsda4ugtzv9t9,wHnzKB9J,2020-0188,2021-10-31,06:52:23,08:52:47,NA,incomplete,false,true,NA,NA,2,7,NA,yellow,m_l_038.jpg,NA,NA,NA,NA,NA,unpleasant,pleasant,NA,NA,NA,NA,NA,left,1668.10000002384,true,NA,NA,NA,NA,NA,NA,NA,NA
wHnzKB9J,3bakuke4akpi45n0y93n6zfn3q3r1f,3ps7w85z83ffw91hxdsda4ugtzv9t9,wHnzKB9J,2020-0188,2021-10-31,06:52:23,08:52:47,NA,incomplete,false,true,NA,NA,2,8,NA,yellow,n_s_061.jpg,NA,NA,NA,NA,NA,pleasant,unpleasant,NA,NA,NA,NA,NA,left,1777.60000002384,true,NA,NA,NA,NA,NA,NA,NA,NA
wHnzKB9J,3bakuke4akpi45n0y93n6zfn3q3r1f,3ps7w85z83ffw91hxdsda4ugtzv9t9,wHnzKB9J,2020-0188,2021-10-31,06:52:23,08:52:47,NA,incomplete,false,true,NA,NA,2,9,NA,yellow,m_s_073.jpg,NA,NA,NA,NA,NA,pleasant,unpleasant,NA,NA,NA,NA,NA,right,2729.69999992847,true,NA,NA,NA,NA,NA,NA,NA,NA
wHnzKB9J,3bakuke4akpi45n0y93n6zfn3q3r1f,3ps7w85z83ffw91hxdsda4ugtzv9t9,wHnzKB9J,2020-0188,2021-10-31,06:52:23,08:52:47,NA,incomplete,false,true,NA,NA,2,10,NA,yellow,m_l_012.jpg,NA,NA,NA,NA,NA,pleasant,unpleasant,NA,NA,NA,NA,NA,right,1970.20000004768,true,NA,NA,NA,NA,NA,NA,NA,NA
wHnzKB9J,3bakuke4akpi45n0y93n6zfn3q3r1f,3ps7w85z83ffw91hxdsda4ugtzv9t9,wHnzKB9J,2020-0188,2021-10-31,06:52:23,08:52:47,NA,incomplete,false,true,NA,NA,2,11,NA,yellow,m_l_114.jpg,NA,NA,NA,NA,NA,pleasant,unpleasant,NA,NA,NA,NA,NA,right,2125.89999997616,true,NA,NA,NA,NA,NA,NA,NA,NA
wHnzKB9J,3bakuke4akpi45n0y93n6zfn3q3r1f,3ps7w85z83ffw91hxdsda4ugtzv9t9,wHnzKB9J,2020-0188,2021-10-31,06:52:23,08:52:47,NA,incomplete,false,true,NA,NA,2,12,NA,orange,n_l_029.jpg,NA,NA,NA,NA,NA,unpleasant,pleasant,NA,NA,NA,NA,NA,right,1995.60000002384,true,NA,NA,NA,NA,NA,NA,NA,NA
wHnzKB9J,3bakuke4akpi45n0y93n6zfn3q3r1f,3ps7w85z83ffw91hxdsda4ugtzv9t9,wHnzKB9J,2020-0188,2021-10-31,06:52:23,08:52:47,NA,incomplete,false,true,NA,NA,2,13,NA,orange,n_l_083.jpg,NA,NA,NA,NA,NA,unpleasant,pleasant,NA,NA,NA,NA,NA,right,1699.20000004768,true,NA,NA,NA,NA,NA,NA,NA,NA
wHnzKB9J,3bakuke4akpi45n0y93n6zfn3q3r1f,3ps7w85z83ffw91hxdsda4ugtzv9t9,wHnzKB9J,2020-0188,2021-10-31,06:52:23,08:52:47,NA,incomplete,false,true,NA,NA,2,14,NA,orange,n_l_055.jpg,NA,NA,NA,NA,NA,pleasant,unpleasant,NA,NA,NA,NA,NA,left,1919.60000002384,true,NA,NA,NA,NA,NA,NA,NA,NA
wHnzKB9J,3bakuke4akpi45n0y93n6zfn3q3r1f,3ps7w85z83ffw91hxdsda4ugtzv9t9,wHnzKB9J,2020-0188,2021-10-31,06:52:23,08:52:47,NA,incomplete,false,true,NA,NA,2,15,NA,orange,n_s_064.jpg,NA,NA,NA,NA,NA,pleasant,unpleasant,NA,NA,NA,NA,NA,left,1895.10000002384,true,NA,NA,NA,NA,NA,NA,NA,NA
wHnzKB9J,3bakuke4akpi45n0y93n6zfn3q3r1f,3ps7w85z83ffw91hxdsda4ugtzv9t9,wHnzKB9J,2020-0188,2021-10-31,06:52:23,08:52:47,NA,incomplete,false,true,NA,NA,2,16,NA,orange,m_s_043.jpg,NA,NA,NA,NA,NA,unpleasant,pleasant,NA,NA,NA,NA,NA,left,2030.19999992847,true,NA,NA,NA,NA,NA,NA,NA,NA
wHnzKB9J,3bakuke4akpi45n0y93n6zfn3q3r1f,3ps7w85z83ffw91hxdsda4ugtzv9t9,wHnzKB9J,2020-0188,2021-10-31,06:52:23,08:52:47,NA,incomplete,false,true,NA,NA,2,17,NA,orange,m_l_078.jpg,NA,NA,NA,NA,NA,unpleasant,pleasant,NA,NA,NA,NA,NA,left,1766.10000002384,true,NA,NA,NA,NA,NA,NA,NA,NA
wHnzKB9J,3bakuke4akpi45n0y93n6zfn3q3r1f,3ps7w85z83ffw91hxdsda4ugtzv9t9,wHnzKB9J,2020-0188,2021-10-31,06:52:23,08:52:47,NA,incomplete,false,true,NA,NA,2,18,NA,green,m_l_023.jpg,NA,NA,NA,NA,NA,pleasant,unpleasant,NA,NA,NA,NA,NA,right,1697.69999992847,true,NA,NA,NA,NA,NA,NA,NA,NA
wHnzKB9J,3bakuke4akpi45n0y93n6zfn3q3r1f,3ps7w85z83ffw91hxdsda4ugtzv9t9,wHnzKB9J,2020-0188,2021-10-31,06:52:23,08:52:47,NA,incomplete,false,true,NA,NA,2,19,NA,green,n_l_012.jpg,NA,NA,NA,NA,NA,pleasant,unpleasant,NA,NA,NA,NA,NA,right,1727.20000004768,true,NA,NA,NA,NA,NA,NA,NA,NA
wHnzKB9J,3bakuke4akpi45n0y93n6zfn3q3r1f,3ps7w85z83ffw91hxdsda4ugtzv9t9,wHnzKB9J,2020-0188,2021-10-31,06:52:23,08:52:47,NA,incomplete,false,true,NA,NA,2,20,NA,green,n_l_018.jpg,NA,NA,NA,NA,NA,pleasant,unpleasant,NA,NA,NA,NA,NA,left,1469.29999995232,true,NA,NA,NA,NA,NA,NA,NA,NA
wHnzKB9J,3bakuke4akpi45n0y93n6zfn3q3r1f,3ps7w85z83ffw91hxdsda4ugtzv9t9,wHnzKB9J,2020-0188,2021-10-31,06:52:23,08:52:47,NA,incomplete,false,true,NA,NA,2,21,NA,green,n_s_049.jpg,NA,NA,NA,NA,NA,pleasant,unpleasant,NA,NA,NA,NA,NA,left,2351.5,true,NA,NA,NA,NA,NA,NA,NA,NA
wHnzKB9J,3bakuke4akpi45n0y93n6zfn3q3r1f,3ps7w85z83ffw91hxdsda4ugtzv9t9,wHnzKB9J,2020-0188,2021-10-31,06:52:23,08:52:47,NA,incomplete,false,true,NA,NA,2,22,NA,green,n_s_017.jpg,NA,NA,NA,NA,NA,unpleasant,pleasant,NA,NA,NA,NA,NA,right,1354.69999992847,true,NA,NA,NA,NA,NA,NA,NA,NA
wHnzKB9J,3bakuke4akpi45n0y93n6zfn3q3r1f,3ps7w85z83ffw91hxdsda4ugtzv9t9,wHnzKB9J,2020-0188,2021-10-31,06:52:23,08:52:47,NA,incomplete,false,true,NA,NA,2,23,NA,green,m_s_094.jpg,NA,NA,NA,NA,NA,unpleasant,pleasant,NA,NA,NA,NA,NA,right,1918.39999997616,true,NA,NA,NA,NA,NA,NA,NA,NA
wHnzKB9J,3bakuke4akpi45n0y93n6zfn3q3r1f,3ps7w85z83ffw91hxdsda4ugtzv9t9,wHnzKB9J,2020-0188,2021-10-31,06:52:23,08:52:47,NA,incomplete,false,true,NA,NA,2,24,NA,purple,n_s_116.jpg,NA,NA,NA,NA,NA,unpleasant,pleasant,NA,NA,NA,NA,NA,left,1787,true,NA,NA,NA,NA,NA,NA,NA,NA
wHnzKB9J,3bakuke4akpi45n0y93n6zfn3q3r1f,3ps7w85z83ffw91hxdsda4ugtzv9t9,wHnzKB9J,2020-0188,2021-10-31,06:52:23,08:52:47,NA,incomplete,false,true,NA,NA,2,25,NA,purple,m_l_048.jpg,NA,NA,NA,NA,NA,unpleasant,pleasant,NA,NA,NA,NA,NA,left,1706.79999995232,true,NA,NA,NA,NA,NA,NA,NA,NA
wHnzKB9J,3bakuke4akpi45n0y93n6zfn3q3r1f,3ps7w85z83ffw91hxdsda4ugtzv9t9,wHnzKB9J,2020-0188,2021-10-31,06:52:23,08:52:47,NA,incomplete,false,true,NA,NA,2,26,NA,purple,m_s_036.jpg,NA,NA,NA,NA,NA,pleasant,unpleasant,NA,NA,NA,NA,NA,left,2277.89999997616,true,NA,NA,NA,NA,NA,NA,NA,NA
wHnzKB9J,3bakuke4akpi45n0y93n6zfn3q3r1f,3ps7w85z83ffw91hxdsda4ugtzv9t9,wHnzKB9J,2020-0188,2021-10-31,06:52:23,08:52:47,NA,incomplete,false,true,NA,NA,2,27,NA,purple,n_s_014.jpg,NA,NA,NA,NA,NA,pleasant,unpleasant,NA,NA,NA,NA,NA,left,2178.70000004768,true,NA,NA,NA,NA,NA,NA,NA,NA
wHnzKB9J,3bakuke4akpi45n0y93n6zfn3q3r1f,3ps7w85z83ffw91hxdsda4ugtzv9t9,wHnzKB9J,2020-0188,2021-10-31,06:52:23,08:52:47,NA,incomplete,false,true,NA,NA,2,28,NA,purple,m_l_015.jpg,NA,NA,NA,NA,NA,pleasant,unpleasant,NA,NA,NA,NA,NA,right,1574.5,true,NA,NA,NA,NA,NA,NA,NA,NA
wHnzKB9J,3bakuke4akpi45n0y93n6zfn3q3r1f,3ps7w85z83ffw91hxdsda4ugtzv9t9,wHnzKB9J,2020-0188,2021-10-31,06:52:23,08:52:47,NA,incomplete,false,true,NA,NA,2,29,NA,purple,m_s_007.jpg,NA,NA,NA,NA,NA,pleasant,unpleasant,NA,NA,NA,NA,NA,right,2192.10000002384,true,NA,NA,NA,NA,NA,NA,NA,NA
wHnzKB9J,3bakuke4akpi45n0y93n6zfn3q3r1f,3ps7w85z83ffw91hxdsda4ugtzv9t9,wHnzKB9J,2020-0188,2021-10-31,06:52:23,08:52:47,NA,incomplete,false,true,NA,NA,2,30,NA,red,m_l_082.jpg,NA,NA,NA,NA,NA,pleasant,unpleasant,NA,NA,NA,NA,NA,right,1949,true,NA,NA,NA,NA,NA,NA,NA,NA
wHnzKB9J,3bakuke4akpi45n0y93n6zfn3q3r1f,3ps7w85z83ffw91hxdsda4ugtzv9t9,wHnzKB9J,2020-0188,2021-10-31,06:52:23,08:52:47,NA,incomplete,false,true,NA,NA,2,31,NA,red,m_l_049.jpg,NA,NA,NA,NA,NA,unpleasant,pleasant,NA,NA,NA,NA,NA,left,1469.5,true,NA,NA,NA,NA,NA,NA,NA,NA
wHnzKB9J,3bakuke4akpi45n0y93n6zfn3q3r1f,3ps7w85z83ffw91hxdsda4ugtzv9t9,wHnzKB9J,2020-0188,2021-10-31,06:52:23,08:52:47,NA,incomplete,false,true,NA,NA,2,32,NA,red,n_s_093.jpg,NA,NA,NA,NA,NA,unpleasant,pleasant,NA,NA,NA,NA,NA,left,1590.79999995232,true,NA,NA,NA,NA,NA,NA,NA,NA
wHnzKB9J,3bakuke4akpi45n0y93n6zfn3q3r1f,3ps7w85z83ffw91hxdsda4ugtzv9t9,wHnzKB9J,2020-0188,2021-10-31,06:52:23,08:52:47,NA,incomplete,false,true,NA,NA,2,33,NA,red,n_l_019.jpg,NA,NA,NA,NA,NA,pleasant,unpleasant,NA,NA,NA,NA,NA,left,1996,true,NA,NA,NA,NA,NA,NA,NA,NA
wHnzKB9J,3bakuke4akpi45n0y93n6zfn3q3r1f,3ps7w85z83ffw91hxdsda4ugtzv9t9,wHnzKB9J,2020-0188,2021-10-31,06:52:23,08:52:47,NA,incomplete,false,true,NA,NA,2,34,NA,red,m_s_001.jpg,NA,NA,NA,NA,NA,unpleasant,pleasant,NA,NA,NA,NA,NA,left,1581.39999997616,true,NA,NA,NA,NA,NA,NA,NA,NA
wHnzKB9J,3bakuke4akpi45n0y93n6zfn3q3r1f,3ps7w85z83ffw91hxdsda4ugtzv9t9,wHnzKB9J,2020-0188,2021-10-31,06:52:23,08:52:47,NA,incomplete,false,true,NA,NA,2,35,NA,red,n_l_049.jpg,NA,NA,NA,NA,NA,pleasant,unpleasant,NA,NA,NA,NA,NA,left,1713.30000007153,true,NA,NA,NA,NA,NA,NA,NA,NA
wHnzKB9J,3bakuke4akpi45n0y93n6zfn3q3r1f,3ps7w85z83ffw91hxdsda4ugtzv9t9,wHnzKB9J,2020-0188,2021-10-31,06:52:23,08:52:47,NA,incomplete,false,NA,NA,true,2,0,NA,NA,NA,left,m_l_078.jpg,orange,green,NA,NA,NA,NA,NA,NA,NA,NA,NA,NaN,NA,3487.4000000953674,left,1,NA,NA,NA,NA,NA
wHnzKB9J,3bakuke4akpi45n0y93n6zfn3q3r1f,3ps7w85z83ffw91hxdsda4ugtzv9t9,wHnzKB9J,2020-0188,2021-10-31,06:52:23,08:52:47,NA,incomplete,false,NA,NA,true,2,1,NA,NA,NA,right,m_l_048.jpg,green,purple,NA,NA,NA,NA,NA,NA,NA,NA,NA,NaN,NA,4278.899999976158,left,0,NA,NA,NA,NA,NA
wHnzKB9J,3bakuke4akpi45n0y93n6zfn3q3r1f,3ps7w85z83ffw91hxdsda4ugtzv9t9,wHnzKB9J,2020-0188,2021-10-31,06:52:23,08:52:47,NA,incomplete,false,NA,NA,true,2,2,NA,NA,NA,right,m_s_094.jpg,purple,green,NA,NA,NA,NA,NA,NA,NA,NA,NA,NaN,NA,3658.899999976158,right,1,NA,NA,NA,NA,NA
wHnzKB9J,3bakuke4akpi45n0y93n6zfn3q3r1f,3ps7w85z83ffw91hxdsda4ugtzv9t9,wHnzKB9J,2020-0188,2021-10-31,06:52:23,08:52:47,NA,incomplete,false,NA,NA,true,2,3,NA,NA,NA,right,n_l_055.jpg,yellow,orange,NA,NA,NA,NA,NA,NA,NA,NA,NA,NaN,NA,3420.2999999523163,right,1,NA,NA,NA,NA,NA
wHnzKB9J,3bakuke4akpi45n0y93n6zfn3q3r1f,3ps7w85z83ffw91hxdsda4ugtzv9t9,wHnzKB9J,2020-0188,2021-10-31,06:52:23,08:52:47,NA,incomplete,false,NA,NA,true,2,4,NA,NA,NA,left,m_s_007.jpg,purple,green,NA,NA,NA,NA,NA,NA,NA,NA,NA,NaN,NA,6431.899999976158,left,1,NA,NA,NA,NA,NA
wHnzKB9J,3bakuke4akpi45n0y93n6zfn3q3r1f,3ps7w85z83ffw91hxdsda4ugtzv9t9,wHnzKB9J,2020-0188,2021-10-31,06:52:23,08:52:47,NA,incomplete,false,NA,NA,true,2,5,NA,NA,NA,left,m_l_049.jpg,red,purple,NA,NA,NA,NA,NA,NA,NA,NA,NA,NaN,NA,3042.100000023842,left,1,NA,NA,NA,NA,NA
wHnzKB9J,3bakuke4akpi45n0y93n6zfn3q3r1f,3ps7w85z83ffw91hxdsda4ugtzv9t9,wHnzKB9J,2020-0188,2021-10-31,06:52:23,08:52:47,NA,incomplete,false,NA,NA,true,2,6,NA,NA,NA,left,m_l_012.jpg,yellow,gray,NA,NA,NA,NA,NA,NA,NA,NA,NA,NaN,NA,2928.899999976158,left,1,NA,NA,NA,NA,NA
wHnzKB9J,3bakuke4akpi45n0y93n6zfn3q3r1f,3ps7w85z83ffw91hxdsda4ugtzv9t9,wHnzKB9J,2020-0188,2021-10-31,06:52:23,08:52:47,NA,incomplete,false,NA,NA,true,2,7,NA,NA,NA,left,n_s_066.jpg,gray,yellow,NA,NA,NA,NA,NA,NA,NA,NA,NA,NaN,NA,4299.100000023842,left,1,NA,NA,NA,NA,NA
wHnzKB9J,3bakuke4akpi45n0y93n6zfn3q3r1f,3ps7w85z83ffw91hxdsda4ugtzv9t9,wHnzKB9J,2020-0188,2021-10-31,06:52:23,08:52:47,NA,incomplete,false,NA,NA,true,2,8,NA,NA,NA,left,n_l_012.jpg,green,orange,NA,NA,NA,NA,NA,NA,NA,NA,NA,NaN,NA,6884.799999952316,left,1,NA,NA,NA,NA,NA
wHnzKB9J,3bakuke4akpi45n0y93n6zfn3q3r1f,3ps7w85z83ffw91hxdsda4ugtzv9t9,wHnzKB9J,2020-0188,2021-10-31,06:52:23,08:52:47,NA,incomplete,false,NA,NA,true,2,9,NA,NA,NA,left,n_l_083.jpg,orange,yellow,NA,NA,NA,NA,NA,NA,NA,NA,NA,NaN,NA,3783,left,1,NA,NA,NA,NA,NA
wHnzKB9J,3bakuke4akpi45n0y93n6zfn3q3r1f,3ps7w85z83ffw91hxdsda4ugtzv9t9,wHnzKB9J,2020-0188,2021-10-31,06:52:23,08:52:47,NA,incomplete,false,NA,NA,true,2,10,NA,NA,NA,right,n_s_061.jpg,orange,yellow,NA,NA,NA,NA,NA,NA,NA,NA,NA,NaN,NA,4006.5999999046326,right,1,NA,NA,NA,NA,NA
wHnzKB9J,3bakuke4akpi45n0y93n6zfn3q3r1f,3ps7w85z83ffw91hxdsda4ugtzv9t9,wHnzKB9J,2020-0188,2021-10-31,06:52:23,08:52:47,NA,incomplete,false,NA,NA,true,2,11,NA,NA,NA,left,n_s_017.jpg,green,orange,NA,NA,NA,NA,NA,NA,NA,NA,NA,NaN,NA,4540,left,1,NA,NA,NA,NA,NA
wHnzKB9J,3bakuke4akpi45n0y93n6zfn3q3r1f,3ps7w85z83ffw91hxdsda4ugtzv9t9,wHnzKB9J,2020-0188,2021-10-31,06:52:23,08:52:47,NA,incomplete,false,NA,NA,true,2,12,NA,NA,NA,left,n_l_049.jpg,red,purple,NA,NA,NA,NA,NA,NA,NA,NA,NA,NaN,NA,2574.399999976158,left,1,NA,NA,NA,NA,NA
wHnzKB9J,3bakuke4akpi45n0y93n6zfn3q3r1f,3ps7w85z83ffw91hxdsda4ugtzv9t9,wHnzKB9J,2020-0188,2021-10-31,06:52:23,08:52:47,NA,incomplete,false,NA,NA,true,2,13,NA,NA,NA,left,m_l_114.jpg,yellow,orange,NA,NA,NA,NA,NA,NA,NA,NA,NA,NaN,NA,2427.399999976158,left,1,NA,NA,NA,NA,NA
wHnzKB9J,3bakuke4akpi45n0y93n6zfn3q3r1f,3ps7w85z83ffw91hxdsda4ugtzv9t9,wHnzKB9J,2020-0188,2021-10-31,06:52:23,08:52:47,NA,incomplete,false,NA,NA,true,2,14,NA,NA,NA,left,m_l_038.jpg,yellow,orange,NA,NA,NA,NA,NA,NA,NA,NA,NA,NaN,NA,2895.3000000715256,left,1,NA,NA,NA,NA,NA
wHnzKB9J,3bakuke4akpi45n0y93n6zfn3q3r1f,3ps7w85z83ffw91hxdsda4ugtzv9t9,wHnzKB9J,2020-0188,2021-10-31,06:52:23,08:52:47,NA,incomplete,false,NA,NA,true,2,15,NA,NA,NA,right,n_s_065.jpg,yellow,gray,NA,NA,NA,NA,NA,NA,NA,NA,NA,NaN,NA,3004.2999999523163,right,1,NA,NA,NA,NA,NA
wHnzKB9J,3bakuke4akpi45n0y93n6zfn3q3r1f,3ps7w85z83ffw91hxdsda4ugtzv9t9,wHnzKB9J,2020-0188,2021-10-31,06:52:23,08:52:47,NA,incomplete,false,NA,NA,true,2,16,NA,NA,NA,right,n_l_048.jpg,yellow,gray,NA,NA,NA,NA,NA,NA,NA,NA,NA,NaN,NA,3636.7999999523163,left,0,NA,NA,NA,NA,NA
wHnzKB9J,3bakuke4akpi45n0y93n6zfn3q3r1f,3ps7w85z83ffw91hxdsda4ugtzv9t9,wHnzKB9J,2020-0188,2021-10-31,06:52:23,08:52:47,NA,incomplete,false,NA,NA,true,2,17,NA,NA,NA,right,m_l_015.jpg,red,purple,NA,NA,NA,NA,NA,NA,NA,NA,NA,NaN,NA,3433.1999999284744,right,1,NA,NA,NA,NA,NA
wHnzKB9J,3bakuke4akpi45n0y93n6zfn3q3r1f,3ps7w85z83ffw91hxdsda4ugtzv9t9,wHnzKB9J,2020-0188,2021-10-31,06:52:23,08:52:47,NA,incomplete,false,NA,NA,true,2,18,NA,NA,NA,right,m_s_036.jpg,green,purple,NA,NA,NA,NA,NA,NA,NA,NA,NA,NaN,NA,3872.2999999523163,left,0,NA,NA,NA,NA,NA
wHnzKB9J,3bakuke4akpi45n0y93n6zfn3q3r1f,3ps7w85z83ffw91hxdsda4ugtzv9t9,wHnzKB9J,2020-0188,2021-10-31,06:52:23,08:52:47,NA,incomplete,false,NA,NA,true,2,19,NA,NA,NA,left,m_s_043.jpg,orange,green,NA,NA,NA,NA,NA,NA,NA,NA,NA,NaN,NA,4483.099999904633,left,1,NA,NA,NA,NA,NA
wHnzKB9J,3bakuke4akpi45n0y93n6zfn3q3r1f,3ps7w85z83ffw91hxdsda4ugtzv9t9,wHnzKB9J,2020-0188,2021-10-31,06:52:23,08:52:47,NA,incomplete,false,NA,NA,true,2,20,NA,NA,NA,left,n_l_018.jpg,green,purple,NA,NA,NA,NA,NA,NA,NA,NA,NA,NaN,NA,3045.399999976158,left,1,NA,NA,NA,NA,NA
wHnzKB9J,3bakuke4akpi45n0y93n6zfn3q3r1f,3ps7w85z83ffw91hxdsda4ugtzv9t9,wHnzKB9J,2020-0188,2021-10-31,06:52:23,08:52:47,NA,incomplete,false,NA,NA,true,2,21,NA,NA,NA,left,n_s_093.jpg,red,purple,NA,NA,NA,NA,NA,NA,NA,NA,NA,NaN,NA,4791.700000047684,left,1,NA,NA,NA,NA,NA
wHnzKB9J,3bakuke4akpi45n0y93n6zfn3q3r1f,3ps7w85z83ffw91hxdsda4ugtzv9t9,wHnzKB9J,2020-0188,2021-10-31,06:52:23,08:52:47,NA,incomplete,false,NA,true,NA,2,0,NA,NA,NA,left,NA,NA,NA,present,NA,NA,m_l_012.jpg,yellow,n_l_055.jpg,orange,between,NA,NaN,NA,NA,NA,NA,left,4900.700000047684,1,2,2629.5
wHnzKB9J,3bakuke4akpi45n0y93n6zfn3q3r1f,3ps7w85z83ffw91hxdsda4ugtzv9t9,wHnzKB9J,2020-0188,2021-10-31,06:52:23,08:52:47,NA,incomplete,false,NA,true,NA,2,1,NA,NA,NA,right,NA,NA,NA,present,NA,NA,m_s_094.jpg,green,n_l_012.jpg,green,within,NA,NaN,NA,NA,NA,NA,left,4733.100000023842,0,1,2212
wHnzKB9J,3bakuke4akpi45n0y93n6zfn3q3r1f,3ps7w85z83ffw91hxdsda4ugtzv9t9,wHnzKB9J,2020-0188,2021-10-31,06:52:23,08:52:47,NA,incomplete,false,NA,true,NA,2,2,NA,NA,NA,left,NA,NA,NA,present,NA,NA,m_l_048.jpg,purple,m_s_007.jpg,purple,within,NA,NaN,NA,NA,NA,NA,left,3577.100000023842,1,1,2616.600000023842
wHnzKB9J,3bakuke4akpi45n0y93n6zfn3q3r1f,3ps7w85z83ffw91hxdsda4ugtzv9t9,wHnzKB9J,2020-0188,2021-10-31,06:52:23,08:52:47,NA,incomplete,false,NA,true,NA,2,3,NA,NA,NA,left,NA,NA,NA,present,NA,NA,n_l_083.jpg,orange,m_l_078.jpg,orange,within,NA,NaN,NA,NA,NA,NA,right,4719.800000071526,0,1,2292.600000023842
wHnzKB9J,3bakuke4akpi45n0y93n6zfn3q3r1f,3ps7w85z83ffw91hxdsda4ugtzv9t9,wHnzKB9J,2020-0188,2021-10-31,06:52:23,08:52:47,NA,incomplete,false,NA,true,NA,2,4,NA,NA,NA,left,NA,NA,NA,present,NA,NA,n_s_066.jpg,gray,n_l_048.jpg,gray,within,NA,NaN,NA,NA,NA,NA,right,10256.199999928474,0,1,2536.0999999046326
wHnzKB9J,3bakuke4akpi45n0y93n6zfn3q3r1f,3ps7w85z83ffw91hxdsda4ugtzv9t9,wHnzKB9J,2020-0188,2021-10-31,06:52:23,08:52:47,NA,incomplete,false,NA,true,NA,2,5,NA,NA,NA,right,NA,NA,NA,present,NA,NA,n_l_018.jpg,green,m_s_043.jpg,orange,between,NA,NaN,NA,NA,NA,NA,right,6152.299999952316,1,2,2115.5999999046326
wHnzKB9J,3bakuke4akpi45n0y93n6zfn3q3r1f,3ps7w85z83ffw91hxdsda4ugtzv9t9,wHnzKB9J,2020-0188,2021-10-31,06:52:23,08:52:47,NA,incomplete,false,NA,true,NA,2,6,NA,NA,NA,left,NA,NA,NA,present,NA,NA,n_s_017.jpg,green,m_s_036.jpg,purple,between,NA,NaN,NA,NA,NA,NA,right,4418.5,0,2,4140.299999952316
wHnzKB9J,3bakuke4akpi45n0y93n6zfn3q3r1f,3ps7w85z83ffw91hxdsda4ugtzv9t9,wHnzKB9J,2020-0188,2021-10-31,06:52:23,08:52:47,NA,incomplete,false,NA,true,NA,2,7,NA,NA,NA,right,NA,NA,NA,present,NA,NA,n_s_061.jpg,yellow,n_s_065.jpg,gray,between,NA,NaN,NA,NA,NA,NA,left,7564.5,0,2,3015
wHnzKB9J,3bakuke4akpi45n0y93n6zfn3q3r1f,3ps7w85z83ffw91hxdsda4ugtzv9t9,wHnzKB9J,2020-0188,2021-10-31,06:52:23,08:52:47,NA,incomplete,false,NA,true,NA,2,8,NA,NA,NA,right,NA,NA,NA,present,NA,NA,m_l_114.jpg,yellow,m_l_038.jpg,yellow,within,NA,NaN,NA,NA,NA,NA,right,9375,1,1,2029.6999999284744
wHnzKB9J,3bakuke4akpi45n0y93n6zfn3q3r1f,3ps7w85z83ffw91hxdsda4ugtzv9t9,wHnzKB9J,2020-0188,2021-10-31,06:52:23,08:52:47,NA,incomplete,false,NA,true,NA,2,9,NA,NA,NA,right,NA,NA,NA,present,NA,NA,n_l_049.jpg,red,m_l_049.jpg,red,within,NA,NaN,NA,NA,NA,NA,right,7119.600000023842,1,1,4099.899999976158
wHnzKB9J,3bakuke4akpi45n0y93n6zfn3q3r1f,3ps7w85z83ffw91hxdsda4ugtzv9t9,wHnzKB9J,2020-0188,2021-10-31,06:52:23,08:52:47,NA,incomplete,false,NA,true,NA,2,10,NA,NA,NA,left,NA,NA,NA,present,NA,NA,m_l_015.jpg,purple,n_s_093.jpg,red,between,NA,NaN,NA,NA,NA,NA,left,9916.600000023842,1,2,2649.100000023842
wHnzKB9J,3bakuke4akpi45n0y93n6zfn3q3r1f,3ps7w85z83ffw91hxdsda4ugtzv9t9,wHnzKB9J,2020-0188,2021-10-31,06:52:23,08:52:47,NA,incomplete,false,true,NA,NA,3,0,NA,orange,m_l_061.jpg,NA,NA,NA,NA,NA,unpleasant,pleasant,NA,NA,NA,NA,NA,none,0,false,NA,NA,NA,NA,NA,NA,NA,NA
wHnzKB9J,3bakuke4akpi45n0y93n6zfn3q3r1f,3ps7w85z83ffw91hxdsda4ugtzv9t9,wHnzKB9J,2020-0188,2021-10-31,06:52:23,08:52:47,NA,incomplete,false,true,NA,NA,3,1,NA,orange,m_l_065.jpg,NA,NA,NA,NA,NA,pleasant,unpleasant,NA,NA,NA,NA,NA,left,1909.89999997616,true,NA,NA,NA,NA,NA,NA,NA,NA
wHnzKB9J,3bakuke4akpi45n0y93n6zfn3q3r1f,3ps7w85z83ffw91hxdsda4ugtzv9t9,wHnzKB9J,2020-0188,2021-10-31,06:52:23,08:52:47,NA,incomplete,false,true,NA,NA,3,2,NA,orange,m_l_032.jpg,NA,NA,NA,NA,NA,pleasant,unpleasant,NA,NA,NA,NA,NA,left,1987.5,true,NA,NA,NA,NA,NA,NA,NA,NA
wHnzKB9J,3bakuke4akpi45n0y93n6zfn3q3r1f,3ps7w85z83ffw91hxdsda4ugtzv9t9,wHnzKB9J,2020-0188,2021-10-31,06:52:23,08:52:47,NA,incomplete,false,true,NA,NA,3,3,NA,orange,n_s_013.jpg,NA,NA,NA,NA,NA,unpleasant,pleasant,NA,NA,NA,NA,NA,left,2158.30000007153,true,NA,NA,NA,NA,NA,NA,NA,NA
wHnzKB9J,3bakuke4akpi45n0y93n6zfn3q3r1f,3ps7w85z83ffw91hxdsda4ugtzv9t9,wHnzKB9J,2020-0188,2021-10-31,06:52:23,08:52:47,NA,incomplete,false,true,NA,NA,3,4,NA,orange,n_l_106.jpg,NA,NA,NA,NA,NA,pleasant,unpleasant,NA,NA,NA,NA,NA,left,2145.39999997616,true,NA,NA,NA,NA,NA,NA,NA,NA
wHnzKB9J,3bakuke4akpi45n0y93n6zfn3q3r1f,3ps7w85z83ffw91hxdsda4ugtzv9t9,wHnzKB9J,2020-0188,2021-10-31,06:52:23,08:52:47,NA,incomplete,false,true,NA,NA,3,5,NA,orange,m_s_041.jpg,NA,NA,NA,NA,NA,pleasant,unpleasant,NA,NA,NA,NA,NA,left,1735.70000004768,true,NA,NA,NA,NA,NA,NA,NA,NA
wHnzKB9J,3bakuke4akpi45n0y93n6zfn3q3r1f,3ps7w85z83ffw91hxdsda4ugtzv9t9,wHnzKB9J,2020-0188,2021-10-31,06:52:23,08:52:47,NA,incomplete,false,true,NA,NA,3,6,NA,yellow,n_s_098.jpg,NA,NA,NA,NA,NA,pleasant,unpleasant,NA,NA,NA,NA,NA,right,2327.60000002384,true,NA,NA,NA,NA,NA,NA,NA,NA
wHnzKB9J,3bakuke4akpi45n0y93n6zfn3q3r1f,3ps7w85z83ffw91hxdsda4ugtzv9t9,wHnzKB9J,2020-0188,2021-10-31,06:52:23,08:52:47,NA,incomplete,false,true,NA,NA,3,7,NA,yellow,n_s_050.jpg,NA,NA,NA,NA,NA,pleasant,unpleasant,NA,NA,NA,NA,NA,right,1829.10000002384,true,NA,NA,NA,NA,NA,NA,NA,NA
wHnzKB9J,3bakuke4akpi45n0y93n6zfn3q3r1f,3ps7w85z83ffw91hxdsda4ugtzv9t9,wHnzKB9J,2020-0188,2021-10-31,06:52:23,08:52:47,NA,incomplete,false,true,NA,NA,3,8,NA,yellow,m_s_080.jpg,NA,NA,NA,NA,NA,unpleasant,pleasant,NA,NA,NA,NA,NA,right,1896.10000002384,true,NA,NA,NA,NA,NA,NA,NA,NA
wHnzKB9J,3bakuke4akpi45n0y93n6zfn3q3r1f,3ps7w85z83ffw91hxdsda4ugtzv9t9,wHnzKB9J,2020-0188,2021-10-31,06:52:23,08:52:47,NA,incomplete,false,true,NA,NA,3,9,NA,yellow,m_s_013.jpg,NA,NA,NA,NA,NA,unpleasant,pleasant,NA,NA,NA,NA,NA,right,1752.19999992847,true,NA,NA,NA,NA,NA,NA,NA,NA
wHnzKB9J,3bakuke4akpi45n0y93n6zfn3q3r1f,3ps7w85z83ffw91hxdsda4ugtzv9t9,wHnzKB9J,2020-0188,2021-10-31,06:52:23,08:52:47,NA,incomplete,false,true,NA,NA,3,10,NA,yellow,n_l_068.jpg,NA,NA,NA,NA,NA,unpleasant,pleasant,NA,NA,NA,NA,NA,right,1988.29999995232,true,NA,NA,NA,NA,NA,NA,NA,NA
wHnzKB9J,3bakuke4akpi45n0y93n6zfn3q3r1f,3ps7w85z83ffw91hxdsda4ugtzv9t9,wHnzKB9J,2020-0188,2021-10-31,06:52:23,08:52:47,NA,incomplete,false,true,NA,NA,3,11,NA,yellow,m_l_107.jpg,NA,NA,NA,NA,NA,unpleasant,pleasant,NA,NA,NA,NA,NA,left,1658.5,true,NA,NA,NA,NA,NA,NA,NA,NA
wHnzKB9J,3bakuke4akpi45n0y93n6zfn3q3r1f,3ps7w85z83ffw91hxdsda4ugtzv9t9,wHnzKB9J,2020-0188,2021-10-31,06:52:23,08:52:47,NA,incomplete,false,true,NA,NA,3,12,NA,purple,m_s_004.jpg,NA,NA,NA,NA,NA,unpleasant,pleasant,NA,NA,NA,NA,NA,right,1677.60000002384,true,NA,NA,NA,NA,NA,NA,NA,NA
wHnzKB9J,3bakuke4akpi45n0y93n6zfn3q3r1f,3ps7w85z83ffw91hxdsda4ugtzv9t9,wHnzKB9J,2020-0188,2021-10-31,06:52:23,08:52:47,NA,incomplete,false,true,NA,NA,3,13,NA,purple,m_l_086.jpg,NA,NA,NA,NA,NA,unpleasant,pleasant,NA,NA,NA,NA,NA,right,1688.5,true,NA,NA,NA,NA,NA,NA,NA,NA
wHnzKB9J,3bakuke4akpi45n0y93n6zfn3q3r1f,3ps7w85z83ffw91hxdsda4ugtzv9t9,wHnzKB9J,2020-0188,2021-10-31,06:52:23,08:52:47,NA,incomplete,false,true,NA,NA,3,14,NA,purple,n_s_039.jpg,NA,NA,NA,NA,NA,unpleasant,pleasant,NA,NA,NA,NA,NA,right,1192.39999997616,true,NA,NA,NA,NA,NA,NA,NA,NA
wHnzKB9J,3bakuke4akpi45n0y93n6zfn3q3r1f,3ps7w85z83ffw91hxdsda4ugtzv9t9,wHnzKB9J,2020-0188,2021-10-31,06:52:23,08:52:47,NA,incomplete,false,true,NA,NA,3,15,NA,purple,m_l_101.jpg,NA,NA,NA,NA,NA,unpleasant,pleasant,NA,NA,NA,NA,NA,right,1563.09999990463,true,NA,NA,NA,NA,NA,NA,NA,NA
wHnzKB9J,3bakuke4akpi45n0y93n6zfn3q3r1f,3ps7w85z83ffw91hxdsda4ugtzv9t9,wHnzKB9J,2020-0188,2021-10-31,06:52:23,08:52:47,NA,incomplete,false,true,NA,NA,3,16,NA,purple,m_s_086.jpg,NA,NA,NA,NA,NA,pleasant,unpleasant,NA,NA,NA,NA,NA,right,1809,true,NA,NA,NA,NA,NA,NA,NA,NA
wHnzKB9J,3bakuke4akpi45n0y93n6zfn3q3r1f,3ps7w85z83ffw91hxdsda4ugtzv9t9,wHnzKB9J,2020-0188,2021-10-31,06:52:23,08:52:47,NA,incomplete,false,true,NA,NA,3,17,NA,purple,m_l_099.jpg,NA,NA,NA,NA,NA,pleasant,unpleasant,NA,NA,NA,NA,NA,left,1648.70000004768,true,NA,NA,NA,NA,NA,NA,NA,NA
wHnzKB9J,3bakuke4akpi45n0y93n6zfn3q3r1f,3ps7w85z83ffw91hxdsda4ugtzv9t9,wHnzKB9J,2020-0188,2021-10-31,06:52:23,08:52:47,NA,incomplete,false,true,NA,NA,3,18,NA,black,n_l_076.jpg,NA,NA,NA,NA,NA,unpleasant,pleasant,NA,NA,NA,NA,NA,left,2075.09999990463,true,NA,NA,NA,NA,NA,NA,NA,NA
wHnzKB9J,3bakuke4akpi45n0y93n6zfn3q3r1f,3ps7w85z83ffw91hxdsda4ugtzv9t9,wHnzKB9J,2020-0188,2021-10-31,06:52:23,08:52:47,NA,incomplete,false,true,NA,NA,3,19,NA,black,n_s_083.jpg,NA,NA,NA,NA,NA,pleasant,unpleasant,NA,NA,NA,NA,NA,left,1307.39999997616,true,NA,NA,NA,NA,NA,NA,NA,NA
wHnzKB9J,3bakuke4akpi45n0y93n6zfn3q3r1f,3ps7w85z83ffw91hxdsda4ugtzv9t9,wHnzKB9J,2020-0188,2021-10-31,06:52:23,08:52:47,NA,incomplete,false,true,NA,NA,3,20,NA,black,n_s_045.jpg,NA,NA,NA,NA,NA,unpleasant,pleasant,NA,NA,NA,NA,NA,right,1794.60000002384,true,NA,NA,NA,NA,NA,NA,NA,NA
wHnzKB9J,3bakuke4akpi45n0y93n6zfn3q3r1f,3ps7w85z83ffw91hxdsda4ugtzv9t9,wHnzKB9J,2020-0188,2021-10-31,06:52:23,08:52:47,NA,incomplete,false,true,NA,NA,3,21,NA,black,n_l_117.jpg,NA,NA,NA,NA,NA,unpleasant,pleasant,NA,NA,NA,NA,NA,right,1505.59999990463,true,NA,NA,NA,NA,NA,NA,NA,NA
wHnzKB9J,3bakuke4akpi45n0y93n6zfn3q3r1f,3ps7w85z83ffw91hxdsda4ugtzv9t9,wHnzKB9J,2020-0188,2021-10-31,06:52:23,08:52:47,NA,incomplete,false,true,NA,NA,3,22,NA,black,m_l_034.jpg,NA,NA,NA,NA,NA,pleasant,unpleasant,NA,NA,NA,NA,NA,left,1952.30000007153,true,NA,NA,NA,NA,NA,NA,NA,NA
wHnzKB9J,3bakuke4akpi45n0y93n6zfn3q3r1f,3ps7w85z83ffw91hxdsda4ugtzv9t9,wHnzKB9J,2020-0188,2021-10-31,06:52:23,08:52:47,NA,incomplete,false,true,NA,NA,3,23,NA,black,m_l_112.jpg,NA,NA,NA,NA,NA,unpleasant,pleasant,NA,NA,NA,NA,NA,left,1514.20000004768,true,NA,NA,NA,NA,NA,NA,NA,NA
wHnzKB9J,3bakuke4akpi45n0y93n6zfn3q3r1f,3ps7w85z83ffw91hxdsda4ugtzv9t9,wHnzKB9J,2020-0188,2021-10-31,06:52:23,08:52:47,NA,incomplete,false,true,NA,NA,3,24,NA,white,m_s_020.jpg,NA,NA,NA,NA,NA,pleasant,unpleasant,NA,NA,NA,NA,NA,left,1642.79999995232,true,NA,NA,NA,NA,NA,NA,NA,NA
wHnzKB9J,3bakuke4akpi45n0y93n6zfn3q3r1f,3ps7w85z83ffw91hxdsda4ugtzv9t9,wHnzKB9J,2020-0188,2021-10-31,06:52:23,08:52:47,NA,incomplete,false,true,NA,NA,3,25,NA,white,n_l_058.jpg,NA,NA,NA,NA,NA,pleasant,unpleasant,NA,NA,NA,NA,NA,left,1403,true,NA,NA,NA,NA,NA,NA,NA,NA
wHnzKB9J,3bakuke4akpi45n0y93n6zfn3q3r1f,3ps7w85z83ffw91hxdsda4ugtzv9t9,wHnzKB9J,2020-0188,2021-10-31,06:52:23,08:52:47,NA,incomplete,false,true,NA,NA,3,26,NA,white,m_s_017.jpg,NA,NA,NA,NA,NA,unpleasant,pleasant,NA,NA,NA,NA,NA,right,1653.19999992847,true,NA,NA,NA,NA,NA,NA,NA,NA
wHnzKB9J,3bakuke4akpi45n0y93n6zfn3q3r1f,3ps7w85z83ffw91hxdsda4ugtzv9t9,wHnzKB9J,2020-0188,2021-10-31,06:52:23,08:52:47,NA,incomplete,false,true,NA,NA,3,27,NA,white,m_l_113.jpg,NA,NA,NA,NA,NA,unpleasant,pleasant,NA,NA,NA,NA,NA,right,1425,true,NA,NA,NA,NA,NA,NA,NA,NA
wHnzKB9J,3bakuke4akpi45n0y93n6zfn3q3r1f,3ps7w85z83ffw91hxdsda4ugtzv9t9,wHnzKB9J,2020-0188,2021-10-31,06:52:23,08:52:47,NA,incomplete,false,true,NA,NA,3,28,NA,white,m_s_082.jpg,NA,NA,NA,NA,NA,pleasant,unpleasant,NA,NA,NA,NA,NA,left,1594.5,true,NA,NA,NA,NA,NA,NA,NA,NA
wHnzKB9J,3bakuke4akpi45n0y93n6zfn3q3r1f,3ps7w85z83ffw91hxdsda4ugtzv9t9,wHnzKB9J,2020-0188,2021-10-31,06:52:23,08:52:47,NA,incomplete,false,true,NA,NA,3,29,NA,white,m_s_072.jpg,NA,NA,NA,NA,NA,pleasant,unpleasant,NA,NA,NA,NA,NA,left,1938.40000009537,true,NA,NA,NA,NA,NA,NA,NA,NA
wHnzKB9J,3bakuke4akpi45n0y93n6zfn3q3r1f,3ps7w85z83ffw91hxdsda4ugtzv9t9,wHnzKB9J,2020-0188,2021-10-31,06:52:23,08:52:47,NA,incomplete,false,true,NA,NA,3,30,NA,brown,m_s_027.jpg,NA,NA,NA,NA,NA,pleasant,unpleasant,NA,NA,NA,NA,NA,right,1307.60000002384,true,NA,NA,NA,NA,NA,NA,NA,NA
wHnzKB9J,3bakuke4akpi45n0y93n6zfn3q3r1f,3ps7w85z83ffw91hxdsda4ugtzv9t9,wHnzKB9J,2020-0188,2021-10-31,06:52:23,08:52:47,NA,incomplete,false,true,NA,NA,3,31,NA,brown,n_s_082.jpg,NA,NA,NA,NA,NA,unpleasant,pleasant,NA,NA,NA,NA,NA,right,1874.19999992847,true,NA,NA,NA,NA,NA,NA,NA,NA
wHnzKB9J,3bakuke4akpi45n0y93n6zfn3q3r1f,3ps7w85z83ffw91hxdsda4ugtzv9t9,wHnzKB9J,2020-0188,2021-10-31,06:52:23,08:52:47,NA,incomplete,false,true,NA,NA,3,32,NA,brown,m_s_051.jpg,NA,NA,NA,NA,NA,pleasant,unpleasant,NA,NA,NA,NA,NA,left,1696.89999997616,true,NA,NA,NA,NA,NA,NA,NA,NA
wHnzKB9J,3bakuke4akpi45n0y93n6zfn3q3r1f,3ps7w85z83ffw91hxdsda4ugtzv9t9,wHnzKB9J,2020-0188,2021-10-31,06:52:23,08:52:47,NA,incomplete,false,true,NA,NA,3,33,NA,brown,n_l_022.jpg,NA,NA,NA,NA,NA,pleasant,unpleasant,NA,NA,NA,NA,NA,left,1481,true,NA,NA,NA,NA,NA,NA,NA,NA
wHnzKB9J,3bakuke4akpi45n0y93n6zfn3q3r1f,3ps7w85z83ffw91hxdsda4ugtzv9t9,wHnzKB9J,2020-0188,2021-10-31,06:52:23,08:52:47,NA,incomplete,false,true,NA,NA,3,34,NA,brown,m_l_097.jpg,NA,NA,NA,NA,NA,pleasant,unpleasant,NA,NA,NA,NA,NA,left,1469.19999992847,true,NA,NA,NA,NA,NA,NA,NA,NA
wHnzKB9J,3bakuke4akpi45n0y93n6zfn3q3r1f,3ps7w85z83ffw91hxdsda4ugtzv9t9,wHnzKB9J,2020-0188,2021-10-31,06:52:23,08:52:47,NA,incomplete,false,true,NA,NA,3,35,NA,brown,n_l_039.jpg,NA,NA,NA,NA,NA,pleasant,unpleasant,NA,NA,NA,NA,NA,left,1944.20000004768,true,NA,NA,NA,NA,NA,NA,NA,NA
wHnzKB9J,3bakuke4akpi45n0y93n6zfn3q3r1f,3ps7w85z83ffw91hxdsda4ugtzv9t9,wHnzKB9J,2020-0188,2021-10-31,06:52:23,08:52:47,NA,incomplete,false,NA,NA,true,3,0,NA,NA,NA,left,m_l_065.jpg,orange,yellow,NA,NA,NA,NA,NA,NA,NA,NA,NA,NaN,NA,7198.399999976158,left,1,NA,NA,NA,NA,NA
wHnzKB9J,3bakuke4akpi45n0y93n6zfn3q3r1f,3ps7w85z83ffw91hxdsda4ugtzv9t9,wHnzKB9J,2020-0188,2021-10-31,06:52:23,08:52:47,NA,incomplete,false,NA,NA,true,3,1,NA,NA,NA,right,n_l_068.jpg,purple,yellow,NA,NA,NA,NA,NA,NA,NA,NA,NA,NaN,NA,4519.200000047684,right,1,NA,NA,NA,NA,NA
wHnzKB9J,3bakuke4akpi45n0y93n6zfn3q3r1f,3ps7w85z83ffw91hxdsda4ugtzv9t9,wHnzKB9J,2020-0188,2021-10-31,06:52:23,08:52:47,NA,incomplete,false,NA,NA,true,3,2,NA,NA,NA,left,n_s_050.jpg,yellow,orange,NA,NA,NA,NA,NA,NA,NA,NA,NA,NaN,NA,5136.799999952316,left,1,NA,NA,NA,NA,NA
wHnzKB9J,3bakuke4akpi45n0y93n6zfn3q3r1f,3ps7w85z83ffw91hxdsda4ugtzv9t9,wHnzKB9J,2020-0188,2021-10-31,06:52:23,08:52:47,NA,incomplete,false,NA,NA,true,3,3,NA,NA,NA,right,m_l_112.jpg,white,black,NA,NA,NA,NA,NA,NA,NA,NA,NA,NaN,NA,3996,right,1,NA,NA,NA,NA,NA
wHnzKB9J,3bakuke4akpi45n0y93n6zfn3q3r1f,3ps7w85z83ffw91hxdsda4ugtzv9t9,wHnzKB9J,2020-0188,2021-10-31,06:52:23,08:52:47,NA,incomplete,false,NA,NA,true,3,4,NA,NA,NA,right,m_l_086.jpg,yellow,purple,NA,NA,NA,NA,NA,NA,NA,NA,NA,NaN,NA,3376.399999976158,right,1,NA,NA,NA,NA,NA
wHnzKB9J,3bakuke4akpi45n0y93n6zfn3q3r1f,3ps7w85z83ffw91hxdsda4ugtzv9t9,wHnzKB9J,2020-0188,2021-10-31,06:52:23,08:52:47,NA,incomplete,false,NA,NA,true,3,5,NA,NA,NA,left,n_l_106.jpg,orange,yellow,NA,NA,NA,NA,NA,NA,NA,NA,NA,NaN,NA,7156.100000023842,left,1,NA,NA,NA,NA,NA
wHnzKB9J,3bakuke4akpi45n0y93n6zfn3q3r1f,3ps7w85z83ffw91hxdsda4ugtzv9t9,wHnzKB9J,2020-0188,2021-10-31,06:52:23,08:52:47,NA,incomplete,false,NA,NA,true,3,6,NA,NA,NA,left,m_s_080.jpg,yellow,purple,NA,NA,NA,NA,NA,NA,NA,NA,NA,NaN,NA,2833,left,1,NA,NA,NA,NA,NA
wHnzKB9J,3bakuke4akpi45n0y93n6zfn3q3r1f,3ps7w85z83ffw91hxdsda4ugtzv9t9,wHnzKB9J,2020-0188,2021-10-31,06:52:23,08:52:47,NA,incomplete,false,NA,NA,true,3,7,NA,NA,NA,right,m_s_041.jpg,yellow,orange,NA,NA,NA,NA,NA,NA,NA,NA,NA,NaN,NA,6389.800000071526,left,0,NA,NA,NA,NA,NA
wHnzKB9J,3bakuke4akpi45n0y93n6zfn3q3r1f,3ps7w85z83ffw91hxdsda4ugtzv9t9,wHnzKB9J,2020-0188,2021-10-31,06:52:23,08:52:47,NA,incomplete,false,NA,NA,true,3,8,NA,NA,NA,right,n_s_039.jpg,black,purple,NA,NA,NA,NA,NA,NA,NA,NA,NA,NaN,NA,7006.600000023842,right,1,NA,NA,NA,NA,NA
wHnzKB9J,3bakuke4akpi45n0y93n6zfn3q3r1f,3ps7w85z83ffw91hxdsda4ugtzv9t9,wHnzKB9J,2020-0188,2021-10-31,06:52:23,08:52:47,NA,incomplete,false,NA,NA,true,3,9,NA,NA,NA,left,m_l_107.jpg,yellow,purple,NA,NA,NA,NA,NA,NA,NA,NA,NA,NaN,NA,2933.100000023842,left,1,NA,NA,NA,NA,NA
wHnzKB9J,3bakuke4akpi45n0y93n6zfn3q3r1f,3ps7w85z83ffw91hxdsda4ugtzv9t9,wHnzKB9J,2020-0188,2021-10-31,06:52:23,08:52:47,NA,incomplete,false,NA,NA,true,3,10,NA,NA,NA,left,m_l_099.jpg,purple,black,NA,NA,NA,NA,NA,NA,NA,NA,NA,NaN,NA,5649.700000047684,left,1,NA,NA,NA,NA,NA
wHnzKB9J,3bakuke4akpi45n0y93n6zfn3q3r1f,3ps7w85z83ffw91hxdsda4ugtzv9t9,wHnzKB9J,2020-0188,2021-10-31,06:52:23,08:52:47,NA,incomplete,false,NA,NA,true,3,11,NA,NA,NA,right,m_s_051.jpg,white,brown,NA,NA,NA,NA,NA,NA,NA,NA,NA,NaN,NA,2387.1999999284744,right,1,NA,NA,NA,NA,NA
wHnzKB9J,3bakuke4akpi45n0y93n6zfn3q3r1f,3ps7w85z83ffw91hxdsda4ugtzv9t9,wHnzKB9J,2020-0188,2021-10-31,06:52:23,08:52:47,NA,incomplete,false,NA,NA,true,3,12,NA,NA,NA,left,n_l_058.jpg,white,black,NA,NA,NA,NA,NA,NA,NA,NA,NA,NaN,NA,7515.100000023842,right,0,NA,NA,NA,NA,NA
wHnzKB9J,3bakuke4akpi45n0y93n6zfn3q3r1f,3ps7w85z83ffw91hxdsda4ugtzv9t9,wHnzKB9J,2020-0188,2021-10-31,06:52:23,08:52:47,NA,incomplete,false,NA,NA,true,3,13,NA,NA,NA,right,n_s_082.jpg,white,brown,NA,NA,NA,NA,NA,NA,NA,NA,NA,NaN,NA,7947.899999976158,right,1,NA,NA,NA,NA,NA
wHnzKB9J,3bakuke4akpi45n0y93n6zfn3q3r1f,3ps7w85z83ffw91hxdsda4ugtzv9t9,wHnzKB9J,2020-0188,2021-10-31,06:52:23,08:52:47,NA,incomplete,false,NA,NA,true,3,14,NA,NA,NA,right,n_s_083.jpg,white,black,NA,NA,NA,NA,NA,NA,NA,NA,NA,NaN,NA,2604.899999976158,right,1,NA,NA,NA,NA,NA
wHnzKB9J,3bakuke4akpi45n0y93n6zfn3q3r1f,3ps7w85z83ffw91hxdsda4ugtzv9t9,wHnzKB9J,2020-0188,2021-10-31,06:52:23,08:52:47,NA,incomplete,false,NA,NA,true,3,15,NA,NA,NA,left,m_s_017.jpg,white,black,NA,NA,NA,NA,NA,NA,NA,NA,NA,NaN,NA,2976,left,1,NA,NA,NA,NA,NA
wHnzKB9J,3bakuke4akpi45n0y93n6zfn3q3r1f,3ps7w85z83ffw91hxdsda4ugtzv9t9,wHnzKB9J,2020-0188,2021-10-31,06:52:23,08:52:47,NA,incomplete,false,NA,NA,true,3,16,NA,NA,NA,right,n_s_045.jpg,white,black,NA,NA,NA,NA,NA,NA,NA,NA,NA,NaN,NA,2621.5999999046326,right,1,NA,NA,NA,NA,NA
wHnzKB9J,3bakuke4akpi45n0y93n6zfn3q3r1f,3ps7w85z83ffw91hxdsda4ugtzv9t9,wHnzKB9J,2020-0188,2021-10-31,06:52:23,08:52:47,NA,incomplete,false,NA,NA,true,3,17,NA,NA,NA,right,m_s_072.jpg,black,white,NA,NA,NA,NA,NA,NA,NA,NA,NA,NaN,NA,4980.200000047684,left,0,NA,NA,NA,NA,NA
wHnzKB9J,3bakuke4akpi45n0y93n6zfn3q3r1f,3ps7w85z83ffw91hxdsda4ugtzv9t9,wHnzKB9J,2020-0188,2021-10-31,06:52:23,08:52:47,NA,incomplete,false,NA,NA,true,3,18,NA,NA,NA,left,m_s_086.jpg,purple,yellow,NA,NA,NA,NA,NA,NA,NA,NA,NA,NaN,NA,17152.700000047684,right,0,NA,NA,NA,NA,NA
wHnzKB9J,3bakuke4akpi45n0y93n6zfn3q3r1f,3ps7w85z83ffw91hxdsda4ugtzv9t9,wHnzKB9J,2020-0188,2021-10-31,06:52:23,08:52:47,NA,incomplete,false,NA,NA,true,3,19,NA,NA,NA,right,m_s_082.jpg,brown,white,NA,NA,NA,NA,NA,NA,NA,NA,NA,NaN,NA,2870.2999999523163,right,1,NA,NA,NA,NA,NA
wHnzKB9J,3bakuke4akpi45n0y93n6zfn3q3r1f,3ps7w85z83ffw91hxdsda4ugtzv9t9,wHnzKB9J,2020-0188,2021-10-31,06:52:23,08:52:47,NA,incomplete,false,NA,NA,true,3,20,NA,NA,NA,right,m_l_034.jpg,purple,black,NA,NA,NA,NA,NA,NA,NA,NA,NA,NaN,NA,7279.199999928474,right,1,NA,NA,NA,NA,NA
wHnzKB9J,3bakuke4akpi45n0y93n6zfn3q3r1f,3ps7w85z83ffw91hxdsda4ugtzv9t9,wHnzKB9J,2020-0188,2021-10-31,06:52:23,08:52:47,NA,incomplete,false,NA,NA,true,3,21,NA,NA,NA,left,n_l_039.jpg,brown,white,NA,NA,NA,NA,NA,NA,NA,NA,NA,NaN,NA,12705.5,left,1,NA,NA,NA,NA,NA
wHnzKB9J,3bakuke4akpi45n0y93n6zfn3q3r1f,3ps7w85z83ffw91hxdsda4ugtzv9t9,wHnzKB9J,2020-0188,2021-10-31,06:52:23,08:52:47,NA,incomplete,false,NA,true,NA,3,0,NA,NA,NA,left,NA,NA,NA,present,NA,NA,n_l_058.jpg,white,m_s_072.jpg,white,within,NA,NaN,NA,NA,NA,NA,left,3619.600000023842,1,1,3887.399999976158
wHnzKB9J,3bakuke4akpi45n0y93n6zfn3q3r1f,3ps7w85z83ffw91hxdsda4ugtzv9t9,wHnzKB9J,2020-0188,2021-10-31,06:52:23,08:52:47,NA,incomplete,false,NA,true,NA,3,1,NA,NA,NA,left,NA,NA,NA,present,NA,NA,m_s_086.jpg,purple,n_s_045.jpg,black,between,NA,NaN,NA,NA,NA,NA,right,7154.700000047684,0,2,5682.200000047684
wHnzKB9J,3bakuke4akpi45n0y93n6zfn3q3r1f,3ps7w85z83ffw91hxdsda4ugtzv9t9,wHnzKB9J,2020-0188,2021-10-31,06:52:23,08:52:47,NA,incomplete,false,NA,true,NA,3,2,NA,NA,NA,left,NA,NA,NA,present,NA,NA,n_l_068.jpg,yellow,n_s_039.jpg,purple,between,NA,NaN,NA,NA,NA,NA,left,17387.200000047684,1,3,5269.300000071526
wHnzKB9J,3bakuke4akpi45n0y93n6zfn3q3r1f,3ps7w85z83ffw91hxdsda4ugtzv9t9,wHnzKB9J,2020-0188,2021-10-31,06:52:23,08:52:47,NA,incomplete,false,NA,true,NA,3,3,NA,NA,NA,left,NA,NA,NA,present,NA,NA,n_s_082.jpg,brown,n_l_039.jpg,brown,within,NA,NaN,NA,NA,NA,NA,left,4892,1,1,3561.0999999046326
wHnzKB9J,3bakuke4akpi45n0y93n6zfn3q3r1f,3ps7w85z83ffw91hxdsda4ugtzv9t9,wHnzKB9J,2020-0188,2021-10-31,06:52:23,08:52:47,NA,incomplete,false,NA,true,NA,3,4,NA,NA,NA,right,NA,NA,NA,present,NA,NA,m_l_112.jpg,black,n_s_083.jpg,black,within,NA,NaN,NA,NA,NA,NA,right,7130.700000047684,1,1,9220.899999976158
wHnzKB9J,3bakuke4akpi45n0y93n6zfn3q3r1f,3ps7w85z83ffw91hxdsda4ugtzv9t9,wHnzKB9J,2020-0188,2021-10-31,06:52:23,08:52:47,NA,incomplete,false,NA,true,NA,3,5,NA,NA,NA,left,NA,NA,NA,present,NA,NA,n_s_050.jpg,yellow,m_l_107.jpg,yellow,within,NA,NaN,NA,NA,NA,NA,left,9108.299999952316,1,1,2544.2000000476837
wHnzKB9J,3bakuke4akpi45n0y93n6zfn3q3r1f,3ps7w85z83ffw91hxdsda4ugtzv9t9,wHnzKB9J,2020-0188,2021-10-31,06:52:23,08:52:47,NA,incomplete,false,NA,true,NA,3,6,NA,NA,NA,left,NA,NA,NA,present,NA,NA,m_l_086.jpg,purple,m_l_099.jpg,purple,within,NA,NaN,NA,NA,NA,NA,left,6733,1,1,3610.7999999523163
wHnzKB9J,3bakuke4akpi45n0y93n6zfn3q3r1f,3ps7w85z83ffw91hxdsda4ugtzv9t9,wHnzKB9J,2020-0188,2021-10-31,06:52:23,08:52:47,NA,incomplete,false,NA,true,NA,3,7,NA,NA,NA,left,NA,NA,NA,present,NA,NA,n_l_106.jpg,orange,m_s_080.jpg,yellow,between,NA,NaN,NA,NA,NA,NA,left,12625.800000071526,1,2,2623.5
wHnzKB9J,3bakuke4akpi45n0y93n6zfn3q3r1f,3ps7w85z83ffw91hxdsda4ugtzv9t9,wHnzKB9J,2020-0188,2021-10-31,06:52:23,08:52:47,NA,incomplete,false,NA,true,NA,3,8,NA,NA,NA,right,NA,NA,NA,present,NA,NA,m_s_051.jpg,brown,m_s_082.jpg,white,between,NA,NaN,NA,NA,NA,NA,right,14358.900000095367,1,3,8990
wHnzKB9J,3bakuke4akpi45n0y93n6zfn3q3r1f,3ps7w85z83ffw91hxdsda4ugtzv9t9,wHnzKB9J,2020-0188,2021-10-31,06:52:23,08:52:47,NA,incomplete,false,NA,true,NA,3,9,NA,NA,NA,left,NA,NA,NA,present,NA,NA,m_l_065.jpg,orange,m_s_041.jpg,orange,within,NA,NaN,NA,NA,NA,NA,left,4412,1,1,9799.899999976158
wHnzKB9J,3bakuke4akpi45n0y93n6zfn3q3r1f,3ps7w85z83ffw91hxdsda4ugtzv9t9,wHnzKB9J,2020-0188,2021-10-31,06:52:23,08:52:47,NA,incomplete,false,NA,true,NA,3,10,NA,NA,NA,right,NA,NA,NA,present,NA,NA,m_s_017.jpg,white,m_l_034.jpg,black,between,NA,NaN,NA,NA,NA,NA,right,10062.200000047684,1,3,11596.300000071526
wHnzKB9J,3bakuke4akpi45n0y93n6zfn3q3r1f,3ps7w85z83ffw91hxdsda4ugtzv9t9,wHnzKB9J,2020-0188,2021-10-31,06:52:23,08:52:47,NA,incomplete,false,true,NA,NA,4,0,NA,red,n_s_097.jpg,NA,NA,NA,NA,NA,pleasant,unpleasant,NA,NA,NA,NA,NA,none,0,false,NA,NA,NA,NA,NA,NA,NA,NA
wHnzKB9J,3bakuke4akpi45n0y93n6zfn3q3r1f,3ps7w85z83ffw91hxdsda4ugtzv9t9,wHnzKB9J,2020-0188,2021-10-31,06:52:23,08:52:47,NA,incomplete,false,true,NA,NA,4,1,NA,red,m_l_053.jpg,NA,NA,NA,NA,NA,pleasant,unpleasant,NA,NA,NA,NA,NA,left,1479.10000002384,true,NA,NA,NA,NA,NA,NA,NA,NA
wHnzKB9J,3bakuke4akpi45n0y93n6zfn3q3r1f,3ps7w85z83ffw91hxdsda4ugtzv9t9,wHnzKB9J,2020-0188,2021-10-31,06:52:23,08:52:47,NA,incomplete,false,true,NA,NA,4,2,NA,red,n_l_023.jpg,NA,NA,NA,NA,NA,pleasant,unpleasant,NA,NA,NA,NA,NA,left,1279.5,true,NA,NA,NA,NA,NA,NA,NA,NA
wHnzKB9J,3bakuke4akpi45n0y93n6zfn3q3r1f,3ps7w85z83ffw91hxdsda4ugtzv9t9,wHnzKB9J,2020-0188,2021-10-31,06:52:23,08:52:47,NA,incomplete,false,true,NA,NA,4,3,NA,red,m_l_036.jpg,NA,NA,NA,NA,NA,pleasant,unpleasant,NA,NA,NA,NA,NA,right,1468.30000007153,true,NA,NA,NA,NA,NA,NA,NA,NA
wHnzKB9J,3bakuke4akpi45n0y93n6zfn3q3r1f,3ps7w85z83ffw91hxdsda4ugtzv9t9,wHnzKB9J,2020-0188,2021-10-31,06:52:23,08:52:47,NA,incomplete,false,true,NA,NA,4,4,NA,red,n_l_037.jpg,NA,NA,NA,NA,NA,pleasant,unpleasant,NA,NA,NA,NA,NA,left,1462.5,true,NA,NA,NA,NA,NA,NA,NA,NA
wHnzKB9J,3bakuke4akpi45n0y93n6zfn3q3r1f,3ps7w85z83ffw91hxdsda4ugtzv9t9,wHnzKB9J,2020-0188,2021-10-31,06:52:23,08:52:47,NA,incomplete,false,true,NA,NA,4,5,NA,red,m_s_059.jpg,NA,NA,NA,NA,NA,pleasant,unpleasant,NA,NA,NA,NA,NA,left,1858.19999992847,true,NA,NA,NA,NA,NA,NA,NA,NA
wHnzKB9J,3bakuke4akpi45n0y93n6zfn3q3r1f,3ps7w85z83ffw91hxdsda4ugtzv9t9,wHnzKB9J,2020-0188,2021-10-31,06:52:23,08:52:47,NA,incomplete,false,true,NA,NA,4,6,NA,blue,n_s_043.jpg,NA,NA,NA,NA,NA,unpleasant,pleasant,NA,NA,NA,NA,NA,right,2239.39999997616,true,NA,NA,NA,NA,NA,NA,NA,NA
wHnzKB9J,3bakuke4akpi45n0y93n6zfn3q3r1f,3ps7w85z83ffw91hxdsda4ugtzv9t9,wHnzKB9J,2020-0188,2021-10-31,06:52:23,08:52:47,NA,incomplete,false,true,NA,NA,4,7,NA,blue,n_l_109.jpg,NA,NA,NA,NA,NA,unpleasant,pleasant,NA,NA,NA,NA,NA,right,1264.30000007153,true,NA,NA,NA,NA,NA,NA,NA,NA
wHnzKB9J,3bakuke4akpi45n0y93n6zfn3q3r1f,3ps7w85z83ffw91hxdsda4ugtzv9t9,wHnzKB9J,2020-0188,2021-10-31,06:52:23,08:52:47,NA,incomplete,false,true,NA,NA,4,8,NA,blue,n_s_026.jpg,NA,NA,NA,NA,NA,pleasant,unpleasant,NA,NA,NA,NA,NA,left,1476,true,NA,NA,NA,NA,NA,NA,NA,NA
wHnzKB9J,3bakuke4akpi45n0y93n6zfn3q3r1f,3ps7w85z83ffw91hxdsda4ugtzv9t9,wHnzKB9J,2020-0188,2021-10-31,06:52:23,08:52:47,NA,incomplete,false,true,NA,NA,4,9,NA,blue,n_l_112.jpg,NA,NA,NA,NA,NA,unpleasant,pleasant,NA,NA,NA,NA,NA,right,1748.5,true,NA,NA,NA,NA,NA,NA,NA,NA
wHnzKB9J,3bakuke4akpi45n0y93n6zfn3q3r1f,3ps7w85z83ffw91hxdsda4ugtzv9t9,wHnzKB9J,2020-0188,2021-10-31,06:52:23,08:52:47,NA,incomplete,false,true,NA,NA,4,10,NA,blue,m_l_006.jpg,NA,NA,NA,NA,NA,pleasant,unpleasant,NA,NA,NA,NA,NA,left,1450.90000009537,true,NA,NA,NA,NA,NA,NA,NA,NA
wHnzKB9J,3bakuke4akpi45n0y93n6zfn3q3r1f,3ps7w85z83ffw91hxdsda4ugtzv9t9,wHnzKB9J,2020-0188,2021-10-31,06:52:23,08:52:47,NA,incomplete,false,true,NA,NA,4,11,NA,blue,n_s_090.jpg,NA,NA,NA,NA,NA,unpleasant,pleasant,NA,NA,NA,NA,NA,right,1474.89999997616,true,NA,NA,NA,NA,NA,NA,NA,NA
wHnzKB9J,3bakuke4akpi45n0y93n6zfn3q3r1f,3ps7w85z83ffw91hxdsda4ugtzv9t9,wHnzKB9J,2020-0188,2021-10-31,06:52:23,08:52:47,NA,incomplete,false,true,NA,NA,4,12,NA,green,m_l_008.jpg,NA,NA,NA,NA,NA,pleasant,unpleasant,NA,NA,NA,NA,NA,right,1806.20000004768,true,NA,NA,NA,NA,NA,NA,NA,NA
wHnzKB9J,3bakuke4akpi45n0y93n6zfn3q3r1f,3ps7w85z83ffw91hxdsda4ugtzv9t9,wHnzKB9J,2020-0188,2021-10-31,06:52:23,08:52:47,NA,incomplete,false,true,NA,NA,4,13,NA,green,m_s_063.jpg,NA,NA,NA,NA,NA,unpleasant,pleasant,NA,NA,NA,NA,NA,right,1852.20000004768,true,NA,NA,NA,NA,NA,NA,NA,NA
wHnzKB9J,3bakuke4akpi45n0y93n6zfn3q3r1f,3ps7w85z83ffw91hxdsda4ugtzv9t9,wHnzKB9J,2020-0188,2021-10-31,06:52:23,08:52:47,NA,incomplete,false,true,NA,NA,4,14,NA,green,n_l_032.jpg,NA,NA,NA,NA,NA,pleasant,unpleasant,NA,NA,NA,NA,NA,left,1758.69999992847,true,NA,NA,NA,NA,NA,NA,NA,NA
wHnzKB9J,3bakuke4akpi45n0y93n6zfn3q3r1f,3ps7w85z83ffw91hxdsda4ugtzv9t9,wHnzKB9J,2020-0188,2021-10-31,06:52:23,08:52:47,NA,incomplete,false,true,NA,NA,4,15,NA,green,m_l_060.jpg,NA,NA,NA,NA,NA,pleasant,unpleasant,NA,NA,NA,NA,NA,left,1830,true,NA,NA,NA,NA,NA,NA,NA,NA
wHnzKB9J,3bakuke4akpi45n0y93n6zfn3q3r1f,3ps7w85z83ffw91hxdsda4ugtzv9t9,wHnzKB9J,2020-0188,2021-10-31,06:52:23,08:52:47,NA,incomplete,false,true,NA,NA,4,16,NA,green,m_s_006.jpg,NA,NA,NA,NA,NA,unpleasant,pleasant,NA,NA,NA,NA,NA,right,1799.60000002384,true,NA,NA,NA,NA,NA,NA,NA,NA
wHnzKB9J,3bakuke4akpi45n0y93n6zfn3q3r1f,3ps7w85z83ffw91hxdsda4ugtzv9t9,wHnzKB9J,2020-0188,2021-10-31,06:52:23,08:52:47,NA,incomplete,false,true,NA,NA,4,17,NA,green,n_l_008.jpg,NA,NA,NA,NA,NA,pleasant,unpleasant,NA,NA,NA,NA,NA,left,1621,true,NA,NA,NA,NA,NA,NA,NA,NA
wHnzKB9J,3bakuke4akpi45n0y93n6zfn3q3r1f,3ps7w85z83ffw91hxdsda4ugtzv9t9,wHnzKB9J,2020-0188,2021-10-31,06:52:23,08:52:47,NA,incomplete,false,true,NA,NA,4,18,NA,yellow,n_l_066.jpg,NA,NA,NA,NA,NA,unpleasant,pleasant,NA,NA,NA,NA,NA,right,1714.80000007153,true,NA,NA,NA,NA,NA,NA,NA,NA
wHnzKB9J,3bakuke4akpi45n0y93n6zfn3q3r1f,3ps7w85z83ffw91hxdsda4ugtzv9t9,wHnzKB9J,2020-0188,2021-10-31,06:52:23,08:52:47,NA,incomplete,false,true,NA,NA,4,19,NA,yellow,m_s_014.jpg,NA,NA,NA,NA,NA,unpleasant,pleasant,NA,NA,NA,NA,NA,right,1855,true,NA,NA,NA,NA,NA,NA,NA,NA
wHnzKB9J,3bakuke4akpi45n0y93n6zfn3q3r1f,3ps7w85z83ffw91hxdsda4ugtzv9t9,wHnzKB9J,2020-0188,2021-10-31,06:52:23,08:52:47,NA,incomplete,false,true,NA,NA,4,20,NA,yellow,m_l_013.jpg,NA,NA,NA,NA,NA,unpleasant,pleasant,NA,NA,NA,NA,NA,right,1805.80000007153,true,NA,NA,NA,NA,NA,NA,NA,NA
wHnzKB9J,3bakuke4akpi45n0y93n6zfn3q3r1f,3ps7w85z83ffw91hxdsda4ugtzv9t9,wHnzKB9J,2020-0188,2021-10-31,06:52:23,08:52:47,NA,incomplete,false,true,NA,NA,4,21,NA,yellow,m_l_077.jpg,NA,NA,NA,NA,NA,unpleasant,pleasant,NA,NA,NA,NA,NA,left,1867.80000007153,true,NA,NA,NA,NA,NA,NA,NA,NA
wHnzKB9J,3bakuke4akpi45n0y93n6zfn3q3r1f,3ps7w85z83ffw91hxdsda4ugtzv9t9,wHnzKB9J,2020-0188,2021-10-31,06:52:23,08:52:47,NA,incomplete,false,true,NA,NA,4,22,NA,yellow,m_s_068.jpg,NA,NA,NA,NA,NA,unpleasant,pleasant,NA,NA,NA,NA,NA,right,2032,true,NA,NA,NA,NA,NA,NA,NA,NA
wHnzKB9J,3bakuke4akpi45n0y93n6zfn3q3r1f,3ps7w85z83ffw91hxdsda4ugtzv9t9,wHnzKB9J,2020-0188,2021-10-31,06:52:23,08:52:47,NA,incomplete,false,true,NA,NA,4,23,NA,yellow,m_l_091.jpg,NA,NA,NA,NA,NA,pleasant,unpleasant,NA,NA,NA,NA,NA,left,2028.39999997616,true,NA,NA,NA,NA,NA,NA,NA,NA
wHnzKB9J,3bakuke4akpi45n0y93n6zfn3q3r1f,3ps7w85z83ffw91hxdsda4ugtzv9t9,wHnzKB9J,2020-0188,2021-10-31,06:52:23,08:52:47,NA,incomplete,false,true,NA,NA,4,24,NA,orange,m_s_093.jpg,NA,NA,NA,NA,NA,pleasant,unpleasant,NA,NA,NA,NA,NA,left,1308.20000004768,true,NA,NA,NA,NA,NA,NA,NA,NA
wHnzKB9J,3bakuke4akpi45n0y93n6zfn3q3r1f,3ps7w85z83ffw91hxdsda4ugtzv9t9,wHnzKB9J,2020-0188,2021-10-31,06:52:23,08:52:47,NA,incomplete,false,true,NA,NA,4,25,NA,orange,m_s_003.jpg,NA,NA,NA,NA,NA,unpleasant,pleasant,NA,NA,NA,NA,NA,left,1655.39999997616,true,NA,NA,NA,NA,NA,NA,NA,NA
wHnzKB9J,3bakuke4akpi45n0y93n6zfn3q3r1f,3ps7w85z83ffw91hxdsda4ugtzv9t9,wHnzKB9J,2020-0188,2021-10-31,06:52:23,08:52:47,NA,incomplete,false,true,NA,NA,4,26,NA,orange,m_s_081.jpg,NA,NA,NA,NA,NA,pleasant,unpleasant,NA,NA,NA,NA,NA,left,1766.09999990463,true,NA,NA,NA,NA,NA,NA,NA,NA
wHnzKB9J,3bakuke4akpi45n0y93n6zfn3q3r1f,3ps7w85z83ffw91hxdsda4ugtzv9t9,wHnzKB9J,2020-0188,2021-10-31,06:52:23,08:52:47,NA,incomplete,false,true,NA,NA,4,27,NA,orange,m_s_045.jpg,NA,NA,NA,NA,NA,unpleasant,pleasant,NA,NA,NA,NA,NA,left,1932.29999995232,true,NA,NA,NA,NA,NA,NA,NA,NA
wHnzKB9J,3bakuke4akpi45n0y93n6zfn3q3r1f,3ps7w85z83ffw91hxdsda4ugtzv9t9,wHnzKB9J,2020-0188,2021-10-31,06:52:23,08:52:47,NA,incomplete,false,true,NA,NA,4,28,NA,orange,m_s_064.jpg,NA,NA,NA,NA,NA,pleasant,unpleasant,NA,NA,NA,NA,NA,left,1989.29999995232,true,NA,NA,NA,NA,NA,NA,NA,NA
wHnzKB9J,3bakuke4akpi45n0y93n6zfn3q3r1f,3ps7w85z83ffw91hxdsda4ugtzv9t9,wHnzKB9J,2020-0188,2021-10-31,06:52:23,08:52:47,NA,incomplete,false,true,NA,NA,4,29,NA,orange,m_s_078.jpg,NA,NA,NA,NA,NA,pleasant,unpleasant,NA,NA,NA,NA,NA,left,1799.59999990463,true,NA,NA,NA,NA,NA,NA,NA,NA
wHnzKB9J,3bakuke4akpi45n0y93n6zfn3q3r1f,3ps7w85z83ffw91hxdsda4ugtzv9t9,wHnzKB9J,2020-0188,2021-10-31,06:52:23,08:52:47,NA,incomplete,false,true,NA,NA,4,30,NA,purple,n_s_032.jpg,NA,NA,NA,NA,NA,unpleasant,pleasant,NA,NA,NA,NA,NA,right,1908.5,true,NA,NA,NA,NA,NA,NA,NA,NA
wHnzKB9J,3bakuke4akpi45n0y93n6zfn3q3r1f,3ps7w85z83ffw91hxdsda4ugtzv9t9,wHnzKB9J,2020-0188,2021-10-31,06:52:23,08:52:47,NA,incomplete,false,true,NA,NA,4,31,NA,purple,n_s_027.jpg,NA,NA,NA,NA,NA,unpleasant,pleasant,NA,NA,NA,NA,NA,right,1505.5,true,NA,NA,NA,NA,NA,NA,NA,NA
wHnzKB9J,3bakuke4akpi45n0y93n6zfn3q3r1f,3ps7w85z83ffw91hxdsda4ugtzv9t9,wHnzKB9J,2020-0188,2021-10-31,06:52:23,08:52:47,NA,incomplete,false,true,NA,NA,4,32,NA,purple,m_l_095.jpg,NA,NA,NA,NA,NA,unpleasant,pleasant,NA,NA,NA,NA,NA,left,1491.70000004768,true,NA,NA,NA,NA,NA,NA,NA,NA
wHnzKB9J,3bakuke4akpi45n0y93n6zfn3q3r1f,3ps7w85z83ffw91hxdsda4ugtzv9t9,wHnzKB9J,2020-0188,2021-10-31,06:52:23,08:52:47,NA,incomplete,false,true,NA,NA,4,33,NA,purple,m_l_025.jpg,NA,NA,NA,NA,NA,pleasant,unpleasant,NA,NA,NA,NA,NA,right,1318.10000002384,true,NA,NA,NA,NA,NA,NA,NA,NA
wHnzKB9J,3bakuke4akpi45n0y93n6zfn3q3r1f,3ps7w85z83ffw91hxdsda4ugtzv9t9,wHnzKB9J,2020-0188,2021-10-31,06:52:23,08:52:47,NA,incomplete,false,true,NA,NA,4,34,NA,purple,m_l_092.jpg,NA,NA,NA,NA,NA,unpleasant,pleasant,NA,NA,NA,NA,NA,right,1329.39999997616,true,NA,NA,NA,NA,NA,NA,NA,NA
wHnzKB9J,3bakuke4akpi45n0y93n6zfn3q3r1f,3ps7w85z83ffw91hxdsda4ugtzv9t9,wHnzKB9J,2020-0188,2021-10-31,06:52:23,08:52:47,NA,incomplete,false,true,NA,NA,4,35,NA,purple,m_s_035.jpg,NA,NA,NA,NA,NA,pleasant,unpleasant,NA,NA,NA,NA,NA,left,1612.20000004768,true,NA,NA,NA,NA,NA,NA,NA,NA
wHnzKB9J,3bakuke4akpi45n0y93n6zfn3q3r1f,3ps7w85z83ffw91hxdsda4ugtzv9t9,wHnzKB9J,2020-0188,2021-10-31,06:52:23,08:52:47,NA,incomplete,false,NA,NA,true,4,0,NA,NA,NA,right,n_s_090.jpg,green,blue,NA,NA,NA,NA,NA,NA,NA,NA,NA,NaN,NA,8005.800000071526,right,1,NA,NA,NA,NA,NA
wHnzKB9J,3bakuke4akpi45n0y93n6zfn3q3r1f,3ps7w85z83ffw91hxdsda4ugtzv9t9,wHnzKB9J,2020-0188,2021-10-31,06:52:23,08:52:47,NA,incomplete,false,NA,NA,true,4,1,NA,NA,NA,left,m_s_035.jpg,purple,orange,NA,NA,NA,NA,NA,NA,NA,NA,NA,NaN,NA,8338.599999904633,left,1,NA,NA,NA,NA,NA
wHnzKB9J,3bakuke4akpi45n0y93n6zfn3q3r1f,3ps7w85z83ffw91hxdsda4ugtzv9t9,wHnzKB9J,2020-0188,2021-10-31,06:52:23,08:52:47,NA,incomplete,false,NA,NA,true,4,2,NA,NA,NA,right,m_s_078.jpg,yellow,orange,NA,NA,NA,NA,NA,NA,NA,NA,NA,NaN,NA,13103.5,right,1,NA,NA,NA,NA,NA
wHnzKB9J,3bakuke4akpi45n0y93n6zfn3q3r1f,3ps7w85z83ffw91hxdsda4ugtzv9t9,wHnzKB9J,2020-0188,2021-10-31,06:52:23,08:52:47,NA,incomplete,false,NA,NA,true,4,3,NA,NA,NA,left,n_l_032.jpg,green,yellow,NA,NA,NA,NA,NA,NA,NA,NA,NA,NaN,NA,10939.899999976158,left,1,NA,NA,NA,NA,NA
wHnzKB9J,3bakuke4akpi45n0y93n6zfn3q3r1f,3ps7w85z83ffw91hxdsda4ugtzv9t9,wHnzKB9J,2020-0188,2021-10-31,06:52:23,08:52:47,NA,incomplete,false,NA,NA,true,4,4,NA,NA,NA,left,m_s_006.jpg,green,blue,NA,NA,NA,NA,NA,NA,NA,NA,NA,NaN,NA,3729.2999999523163,left,1,NA,NA,NA,NA,NA
wHnzKB9J,3bakuke4akpi45n0y93n6zfn3q3r1f,3ps7w85z83ffw91hxdsda4ugtzv9t9,wHnzKB9J,2020-0188,2021-10-31,06:52:23,08:52:47,NA,incomplete,false,NA,NA,true,4,5,NA,NA,NA,right,m_s_068.jpg,green,yellow,NA,NA,NA,NA,NA,NA,NA,NA,NA,NaN,NA,3249.7999999523163,right,1,NA,NA,NA,NA,NA
wHnzKB9J,3bakuke4akpi45n0y93n6zfn3q3r1f,3ps7w85z83ffw91hxdsda4ugtzv9t9,wHnzKB9J,2020-0188,2021-10-31,06:52:23,08:52:47,NA,incomplete,false,NA,NA,true,4,6,NA,NA,NA,left,m_l_095.jpg,purple,orange,NA,NA,NA,NA,NA,NA,NA,NA,NA,NaN,NA,5387.5,left,1,NA,NA,NA,NA,NA
wHnzKB9J,3bakuke4akpi45n0y93n6zfn3q3r1f,3ps7w85z83ffw91hxdsda4ugtzv9t9,wHnzKB9J,2020-0188,2021-10-31,06:52:23,08:52:47,NA,incomplete,false,NA,NA,true,4,7,NA,NA,NA,right,m_l_053.jpg,blue,red,NA,NA,NA,NA,NA,NA,NA,NA,NA,NaN,NA,6449.700000047684,right,1,NA,NA,NA,NA,NA
wHnzKB9J,3bakuke4akpi45n0y93n6zfn3q3r1f,3ps7w85z83ffw91hxdsda4ugtzv9t9,wHnzKB9J,2020-0188,2021-10-31,06:52:23,08:52:47,NA,incomplete,false,NA,NA,true,4,8,NA,NA,NA,left,n_s_027.jpg,purple,orange,NA,NA,NA,NA,NA,NA,NA,NA,NA,NaN,NA,6205,left,1,NA,NA,NA,NA,NA
wHnzKB9J,3bakuke4akpi45n0y93n6zfn3q3r1f,3ps7w85z83ffw91hxdsda4ugtzv9t9,wHnzKB9J,2020-0188,2021-10-31,06:52:23,08:52:47,NA,incomplete,false,NA,NA,true,4,9,NA,NA,NA,right,n_l_037.jpg,blue,red,NA,NA,NA,NA,NA,NA,NA,NA,NA,NaN,NA,5107.700000047684,right,1,NA,NA,NA,NA,NA
wHnzKB9J,3bakuke4akpi45n0y93n6zfn3q3r1f,3ps7w85z83ffw91hxdsda4ugtzv9t9,wHnzKB9J,2020-0188,2021-10-31,06:52:23,08:52:47,NA,incomplete,false,NA,NA,true,4,10,NA,NA,NA,left,m_s_059.jpg,red,blue,NA,NA,NA,NA,NA,NA,NA,NA,NA,NaN,NA,2510.2999999523163,left,1,NA,NA,NA,NA,NA
wHnzKB9J,3bakuke4akpi45n0y93n6zfn3q3r1f,3ps7w85z83ffw91hxdsda4ugtzv9t9,wHnzKB9J,2020-0188,2021-10-31,06:52:23,08:52:47,NA,incomplete,false,NA,NA,true,4,11,NA,NA,NA,left,n_s_026.jpg,blue,red,NA,NA,NA,NA,NA,NA,NA,NA,NA,NaN,NA,4549.200000047684,right,0,NA,NA,NA,NA,NA
wHnzKB9J,3bakuke4akpi45n0y93n6zfn3q3r1f,3ps7w85z83ffw91hxdsda4ugtzv9t9,wHnzKB9J,2020-0188,2021-10-31,06:52:23,08:52:47,NA,incomplete,false,NA,NA,true,4,12,NA,NA,NA,left,m_l_013.jpg,yellow,green,NA,NA,NA,NA,NA,NA,NA,NA,NA,NaN,NA,5775.799999952316,left,1,NA,NA,NA,NA,NA
wHnzKB9J,3bakuke4akpi45n0y93n6zfn3q3r1f,3ps7w85z83ffw91hxdsda4ugtzv9t9,wHnzKB9J,2020-0188,2021-10-31,06:52:23,08:52:47,NA,incomplete,false,NA,NA,true,4,13,NA,NA,NA,left,m_s_064.jpg,orange,yellow,NA,NA,NA,NA,NA,NA,NA,NA,NA,NaN,NA,5145.699999928474,left,1,NA,NA,NA,NA,NA
wHnzKB9J,3bakuke4akpi45n0y93n6zfn3q3r1f,3ps7w85z83ffw91hxdsda4ugtzv9t9,wHnzKB9J,2020-0188,2021-10-31,06:52:23,08:52:47,NA,incomplete,false,NA,NA,true,4,14,NA,NA,NA,right,m_s_063.jpg,blue,green,NA,NA,NA,NA,NA,NA,NA,NA,NA,NaN,NA,5970.699999928474,right,1,NA,NA,NA,NA,NA
wHnzKB9J,3bakuke4akpi45n0y93n6zfn3q3r1f,3ps7w85z83ffw91hxdsda4ugtzv9t9,wHnzKB9J,2020-0188,2021-10-31,06:52:23,08:52:47,NA,incomplete,false,NA,NA,true,4,15,NA,NA,NA,left,m_l_091.jpg,yellow,green,NA,NA,NA,NA,NA,NA,NA,NA,NA,NaN,NA,7428.799999952316,left,1,NA,NA,NA,NA,NA
wHnzKB9J,3bakuke4akpi45n0y93n6zfn3q3r1f,3ps7w85z83ffw91hxdsda4ugtzv9t9,wHnzKB9J,2020-0188,2021-10-31,06:52:23,08:52:47,NA,incomplete,false,NA,NA,true,4,16,NA,NA,NA,right,n_l_109.jpg,green,blue,NA,NA,NA,NA,NA,NA,NA,NA,NA,NaN,NA,5647,right,1,NA,NA,NA,NA,NA
wHnzKB9J,3bakuke4akpi45n0y93n6zfn3q3r1f,3ps7w85z83ffw91hxdsda4ugtzv9t9,wHnzKB9J,2020-0188,2021-10-31,06:52:23,08:52:47,NA,incomplete,false,NA,NA,true,4,17,NA,NA,NA,right,m_s_081.jpg,purple,orange,NA,NA,NA,NA,NA,NA,NA,NA,NA,NaN,NA,5787.300000071526,right,1,NA,NA,NA,NA,NA
wHnzKB9J,3bakuke4akpi45n0y93n6zfn3q3r1f,3ps7w85z83ffw91hxdsda4ugtzv9t9,wHnzKB9J,2020-0188,2021-10-31,06:52:23,08:52:47,NA,incomplete,false,NA,NA,true,4,18,NA,NA,NA,left,m_s_003.jpg,orange,purple,NA,NA,NA,NA,NA,NA,NA,NA,NA,NaN,NA,10538.200000047684,right,0,NA,NA,NA,NA,NA
wHnzKB9J,3bakuke4akpi45n0y93n6zfn3q3r1f,3ps7w85z83ffw91hxdsda4ugtzv9t9,wHnzKB9J,2020-0188,2021-10-31,06:52:23,08:52:47,NA,incomplete,false,NA,NA,true,4,19,NA,NA,NA,left,n_l_008.jpg,green,yellow,NA,NA,NA,NA,NA,NA,NA,NA,NA,NaN,NA,5178,left,1,NA,NA,NA,NA,NA
wHnzKB9J,3bakuke4akpi45n0y93n6zfn3q3r1f,3ps7w85z83ffw91hxdsda4ugtzv9t9,wHnzKB9J,2020-0188,2021-10-31,06:52:23,08:52:47,NA,incomplete,false,NA,NA,true,4,20,NA,NA,NA,left,m_l_006.jpg,blue,green,NA,NA,NA,NA,NA,NA,NA,NA,NA,NaN,NA,6288.299999952316,left,1,NA,NA,NA,NA,NA
wHnzKB9J,3bakuke4akpi45n0y93n6zfn3q3r1f,3ps7w85z83ffw91hxdsda4ugtzv9t9,wHnzKB9J,2020-0188,2021-10-31,06:52:23,08:52:47,NA,incomplete,false,NA,NA,true,4,21,NA,NA,NA,right,m_s_014.jpg,green,yellow,NA,NA,NA,NA,NA,NA,NA,NA,NA,NaN,NA,7469.600000023842,right,1,NA,NA,NA,NA,NA
wHnzKB9J,3bakuke4akpi45n0y93n6zfn3q3r1f,3ps7w85z83ffw91hxdsda4ugtzv9t9,wHnzKB9J,2020-0188,2021-10-31,06:52:23,08:52:47,NA,incomplete,false,NA,true,NA,4,0,NA,NA,NA,left,NA,NA,NA,present,NA,NA,m_s_003.jpg,orange,m_s_078.jpg,orange,within,NA,NaN,NA,NA,NA,NA,left,4454.199999928474,1,1,1820.7000000476837
wHnzKB9J,3bakuke4akpi45n0y93n6zfn3q3r1f,3ps7w85z83ffw91hxdsda4ugtzv9t9,wHnzKB9J,2020-0188,2021-10-31,06:52:23,08:52:47,NA,incomplete,false,NA,true,NA,4,1,NA,NA,NA,left,NA,NA,NA,present,NA,NA,m_l_006.jpg,blue,n_l_032.jpg,green,between,NA,NaN,NA,NA,NA,NA,left,6530.199999928474,1,3,4714.200000047684
wHnzKB9J,3bakuke4akpi45n0y93n6zfn3q3r1f,3ps7w85z83ffw91hxdsda4ugtzv9t9,wHnzKB9J,2020-0188,2021-10-31,06:52:23,08:52:47,NA,incomplete,false,NA,true,NA,4,2,NA,NA,NA,right,NA,NA,NA,present,NA,NA,n_s_026.jpg,blue,n_l_037.jpg,red,between,NA,NaN,NA,NA,NA,NA,right,3178.100000023842,1,2,5217.100000023842
wHnzKB9J,3bakuke4akpi45n0y93n6zfn3q3r1f,3ps7w85z83ffw91hxdsda4ugtzv9t9,wHnzKB9J,2020-0188,2021-10-31,06:52:23,08:52:47,NA,incomplete,false,NA,true,NA,4,3,NA,NA,NA,left,NA,NA,NA,present,NA,NA,m_s_006.jpg,green,m_l_013.jpg,yellow,between,NA,NaN,NA,NA,NA,NA,right,4293,0,2,2693.8000000715256
wHnzKB9J,3bakuke4akpi45n0y93n6zfn3q3r1f,3ps7w85z83ffw91hxdsda4ugtzv9t9,wHnzKB9J,2020-0188,2021-10-31,06:52:23,08:52:47,NA,incomplete,false,NA,true,NA,4,4,NA,NA,NA,left,NA,NA,NA,present,NA,NA,m_s_014.jpg,yellow,m_l_091.jpg,yellow,within,NA,NaN,NA,NA,NA,NA,left,5257,1,1,36962.89999997616
wHnzKB9J,3bakuke4akpi45n0y93n6zfn3q3r1f,3ps7w85z83ffw91hxdsda4ugtzv9t9,wHnzKB9J,2020-0188,2021-10-31,06:52:23,08:52:47,NA,incomplete,false,NA,true,NA,4,5,NA,NA,NA,left,NA,NA,NA,present,NA,NA,m_s_064.jpg,orange,m_l_095.jpg,purple,between,NA,NaN,NA,NA,NA,NA,right,11236.699999928474,0,3,3231.899999976158
wHnzKB9J,3bakuke4akpi45n0y93n6zfn3q3r1f,3ps7w85z83ffw91hxdsda4ugtzv9t9,wHnzKB9J,2020-0188,2021-10-31,06:52:23,08:52:47,NA,incomplete,false,NA,true,NA,4,6,NA,NA,NA,left,NA,NA,NA,present,NA,NA,m_s_063.jpg,green,n_l_008.jpg,green,within,NA,NaN,NA,NA,NA,NA,right,19098,0,0,4426.400000095367
wHnzKB9J,3bakuke4akpi45n0y93n6zfn3q3r1f,3ps7w85z83ffw91hxdsda4ugtzv9t9,wHnzKB9J,2020-0188,2021-10-31,06:52:23,08:52:47,NA,incomplete,false,NA,true,NA,4,7,NA,NA,NA,right,NA,NA,NA,present,NA,NA,n_s_090.jpg,blue,n_l_109.jpg,blue,within,NA,NaN,NA,NA,NA,NA,right,23772,1,1,2848
wHnzKB9J,3bakuke4akpi45n0y93n6zfn3q3r1f,3ps7w85z83ffw91hxdsda4ugtzv9t9,wHnzKB9J,2020-0188,2021-10-31,06:52:23,08:52:47,NA,incomplete,false,NA,true,NA,4,8,NA,NA,NA,left,NA,NA,NA,present,NA,NA,m_s_068.jpg,yellow,m_s_081.jpg,orange,between,NA,NaN,NA,NA,NA,NA,right,22310.699999928474,0,3,2864.3000000715256
wHnzKB9J,3bakuke4akpi45n0y93n6zfn3q3r1f,3ps7w85z83ffw91hxdsda4ugtzv9t9,wHnzKB9J,2020-0188,2021-10-31,06:52:23,08:52:47,NA,incomplete,false,NA,true,NA,4,9,NA,NA,NA,right,NA,NA,NA,present,NA,NA,m_s_059.jpg,red,m_l_053.jpg,red,within,NA,NaN,NA,NA,NA,NA,right,15670.5,1,0,2291
wHnzKB9J,3bakuke4akpi45n0y93n6zfn3q3r1f,3ps7w85z83ffw91hxdsda4ugtzv9t9,wHnzKB9J,2020-0188,2021-10-31,06:52:23,08:52:47,NA,incomplete,false,NA,true,NA,4,10,NA,NA,NA,left,NA,NA,NA,present,NA,NA,n_s_027.jpg,purple,m_s_035.jpg,purple,within,NA,NaN,NA,NA,NA,NA,left,4019.9000000953674,1,1,2923.3000000715256
wHnzKB9J,3bakuke4akpi45n0y93n6zfn3q3r1f,3ps7w85z83ffw91hxdsda4ugtzv9t9,wHnzKB9J,2020-0188,2021-10-31,06:52:23,08:52:47,NA,incomplete,false,true,NA,NA,5,0,NA,black,n_l_001.jpg,NA,NA,NA,NA,NA,unpleasant,pleasant,NA,NA,NA,NA,NA,right,1883.10000002384,true,NA,NA,NA,NA,NA,NA,NA,NA
wHnzKB9J,3bakuke4akpi45n0y93n6zfn3q3r1f,3ps7w85z83ffw91hxdsda4ugtzv9t9,wHnzKB9J,2020-0188,2021-10-31,06:52:23,08:52:47,NA,incomplete,false,true,NA,NA,5,1,NA,black,n_l_053.jpg,NA,NA,NA,NA,NA,pleasant,unpleasant,NA,NA,NA,NA,NA,left,1318.79999995232,true,NA,NA,NA,NA,NA,NA,NA,NA
wHnzKB9J,3bakuke4akpi45n0y93n6zfn3q3r1f,3ps7w85z83ffw91hxdsda4ugtzv9t9,wHnzKB9J,2020-0188,2021-10-31,06:52:23,08:52:47,NA,incomplete,false,true,NA,NA,5,2,NA,black,n_l_100.jpg,NA,NA,NA,NA,NA,unpleasant,pleasant,NA,NA,NA,NA,NA,right,1227.20000004768,true,NA,NA,NA,NA,NA,NA,NA,NA
wHnzKB9J,3bakuke4akpi45n0y93n6zfn3q3r1f,3ps7w85z83ffw91hxdsda4ugtzv9t9,wHnzKB9J,2020-0188,2021-10-31,06:52:23,08:52:47,NA,incomplete,false,true,NA,NA,5,3,NA,black,n_l_082.jpg,NA,NA,NA,NA,NA,unpleasant,pleasant,NA,NA,NA,NA,NA,right,1174,true,NA,NA,NA,NA,NA,NA,NA,NA
wHnzKB9J,3bakuke4akpi45n0y93n6zfn3q3r1f,3ps7w85z83ffw91hxdsda4ugtzv9t9,wHnzKB9J,2020-0188,2021-10-31,06:52:23,08:52:47,NA,incomplete,false,true,NA,NA,5,4,NA,black,n_s_111.jpg,NA,NA,NA,NA,NA,unpleasant,pleasant,NA,NA,NA,NA,NA,right,1412.10000002384,true,NA,NA,NA,NA,NA,NA,NA,NA
wHnzKB9J,3bakuke4akpi45n0y93n6zfn3q3r1f,3ps7w85z83ffw91hxdsda4ugtzv9t9,wHnzKB9J,2020-0188,2021-10-31,06:52:23,08:52:47,NA,incomplete,false,true,NA,NA,5,5,NA,black,m_s_031.jpg,NA,NA,NA,NA,NA,unpleasant,pleasant,NA,NA,NA,NA,NA,right,1211.19999992847,true,NA,NA,NA,NA,NA,NA,NA,NA
wHnzKB9J,3bakuke4akpi45n0y93n6zfn3q3r1f,3ps7w85z83ffw91hxdsda4ugtzv9t9,wHnzKB9J,2020-0188,2021-10-31,06:52:23,08:52:47,NA,incomplete,false,true,NA,NA,5,6,NA,gray,n_l_002.jpg,NA,NA,NA,NA,NA,unpleasant,pleasant,NA,NA,NA,NA,NA,right,1268.70000004768,true,NA,NA,NA,NA,NA,NA,NA,NA
wHnzKB9J,3bakuke4akpi45n0y93n6zfn3q3r1f,3ps7w85z83ffw91hxdsda4ugtzv9t9,wHnzKB9J,2020-0188,2021-10-31,06:52:23,08:52:47,NA,incomplete,false,true,NA,NA,5,7,NA,gray,m_s_110.jpg,NA,NA,NA,NA,NA,unpleasant,pleasant,NA,NA,NA,NA,NA,left,1674.5,true,NA,NA,NA,NA,NA,NA,NA,NA
wHnzKB9J,3bakuke4akpi45n0y93n6zfn3q3r1f,3ps7w85z83ffw91hxdsda4ugtzv9t9,wHnzKB9J,2020-0188,2021-10-31,06:52:23,08:52:47,NA,incomplete,false,true,NA,NA,5,8,NA,gray,m_s_029.jpg,NA,NA,NA,NA,NA,unpleasant,pleasant,NA,NA,NA,NA,NA,left,1953.30000007153,true,NA,NA,NA,NA,NA,NA,NA,NA
wHnzKB9J,3bakuke4akpi45n0y93n6zfn3q3r1f,3ps7w85z83ffw91hxdsda4ugtzv9t9,wHnzKB9J,2020-0188,2021-10-31,06:52:23,08:52:47,NA,incomplete,false,true,NA,NA,5,9,NA,gray,n_l_031.jpg,NA,NA,NA,NA,NA,pleasant,unpleasant,NA,NA,NA,NA,NA,left,1745.40000009537,true,NA,NA,NA,NA,NA,NA,NA,NA
wHnzKB9J,3bakuke4akpi45n0y93n6zfn3q3r1f,3ps7w85z83ffw91hxdsda4ugtzv9t9,wHnzKB9J,2020-0188,2021-10-31,06:52:23,08:52:47,NA,incomplete,false,true,NA,NA,5,10,NA,gray,n_s_041.jpg,NA,NA,NA,NA,NA,pleasant,unpleasant,NA,NA,NA,NA,NA,left,1480.79999995232,true,NA,NA,NA,NA,NA,NA,NA,NA
wHnzKB9J,3bakuke4akpi45n0y93n6zfn3q3r1f,3ps7w85z83ffw91hxdsda4ugtzv9t9,wHnzKB9J,2020-0188,2021-10-31,06:52:23,08:52:47,NA,incomplete,false,true,NA,NA,5,11,NA,gray,n_s_096.jpg,NA,NA,NA,NA,NA,unpleasant,pleasant,NA,NA,NA,NA,NA,right,1455.10000002384,true,NA,NA,NA,NA,NA,NA,NA,NA
wHnzKB9J,3bakuke4akpi45n0y93n6zfn3q3r1f,3ps7w85z83ffw91hxdsda4ugtzv9t9,wHnzKB9J,2020-0188,2021-10-31,06:52:23,08:52:47,NA,incomplete,false,true,NA,NA,5,12,NA,purple,n_s_086.jpg,NA,NA,NA,NA,NA,unpleasant,pleasant,NA,NA,NA,NA,NA,left,1450.90000009537,true,NA,NA,NA,NA,NA,NA,NA,NA
wHnzKB9J,3bakuke4akpi45n0y93n6zfn3q3r1f,3ps7w85z83ffw91hxdsda4ugtzv9t9,wHnzKB9J,2020-0188,2021-10-31,06:52:23,08:52:47,NA,incomplete,false,true,NA,NA,5,13,NA,purple,n_s_072.jpg,NA,NA,NA,NA,NA,unpleasant,pleasant,NA,NA,NA,NA,NA,right,1706.5,true,NA,NA,NA,NA,NA,NA,NA,NA
wHnzKB9J,3bakuke4akpi45n0y93n6zfn3q3r1f,3ps7w85z83ffw91hxdsda4ugtzv9t9,wHnzKB9J,2020-0188,2021-10-31,06:52:23,08:52:47,NA,incomplete,false,true,NA,NA,5,14,NA,purple,m_s_109.jpg,NA,NA,NA,NA,NA,unpleasant,pleasant,NA,NA,NA,NA,NA,right,1378.10000002384,true,NA,NA,NA,NA,NA,NA,NA,NA
wHnzKB9J,3bakuke4akpi45n0y93n6zfn3q3r1f,3ps7w85z83ffw91hxdsda4ugtzv9t9,wHnzKB9J,2020-0188,2021-10-31,06:52:23,08:52:47,NA,incomplete,false,true,NA,NA,5,15,NA,purple,n_s_099.jpg,NA,NA,NA,NA,NA,pleasant,unpleasant,NA,NA,NA,NA,NA,left,1855.79999995232,true,NA,NA,NA,NA,NA,NA,NA,NA
