workerId,hitId,assignmentId,subject,studyid,exp_date,exp_start,exp_end,time_start,time_end,practice,encoding,memory,association,block,trial,event_order,event,stim,answer,object,left_context,right_context,context_type,label_left,label_right,left_image,left_event,right_image,right_event,condition,response,response_time,response_acc,association_response_time,association_response,association_acc,order_response,order_response_time,order_acc,distance_response,distance_response_time
E35UoQWC,3bakuke4akpi45n0y93n6zfn3q3r1f,3q5c1wp23qevm2nws4vmsi6jflo156,E35UoQWC,2020-0188,2021-10-31,07:54:07,09:11:46,NA,incomplete,true,true,NA,NA,0,0,NA,blue,m_s_058.jpg,NA,NA,NA,NA,NA,pleasant,unpleasant,NA,NA,NA,NA,NA,left,2752.40000000596,true,NA,NA,NA,NA,NA,NA,NA,NA
E35UoQWC,3bakuke4akpi45n0y93n6zfn3q3r1f,3q5c1wp23qevm2nws4vmsi6jflo156,E35UoQWC,2020-0188,2021-10-31,07:54:07,09:11:46,NA,incomplete,true,true,NA,NA,0,1,NA,blue,m_l_100.jpg,NA,NA,NA,NA,NA,pleasant,unpleasant,NA,NA,NA,NA,NA,left,2998.79999999702,true,NA,NA,NA,NA,NA,NA,NA,NA
E35UoQWC,3bakuke4akpi45n0y93n6zfn3q3r1f,3q5c1wp23qevm2nws4vmsi6jflo156,E35UoQWC,2020-0188,2021-10-31,07:54:07,09:11:46,NA,incomplete,true,true,NA,NA,0,2,NA,blue,m_l_001.jpg,NA,NA,NA,NA,NA,pleasant,unpleasant,NA,NA,NA,NA,NA,left,2797.20000000298,true,NA,NA,NA,NA,NA,NA,NA,NA
E35UoQWC,3bakuke4akpi45n0y93n6zfn3q3r1f,3q5c1wp23qevm2nws4vmsi6jflo156,E35UoQWC,2020-0188,2021-10-31,07:54:07,09:11:46,NA,incomplete,true,true,NA,NA,0,3,NA,blue,n_l_022.jpg,NA,NA,NA,NA,NA,unpleasant,pleasant,NA,NA,NA,NA,NA,left,2348.79999999702,true,NA,NA,NA,NA,NA,NA,NA,NA
E35UoQWC,3bakuke4akpi45n0y93n6zfn3q3r1f,3q5c1wp23qevm2nws4vmsi6jflo156,E35UoQWC,2020-0188,2021-10-31,07:54:07,09:11:46,NA,incomplete,true,true,NA,NA,0,4,NA,blue,n_l_010.jpg,NA,NA,NA,NA,NA,pleasant,unpleasant,NA,NA,NA,NA,NA,left,2470.30000001192,true,NA,NA,NA,NA,NA,NA,NA,NA
E35UoQWC,3bakuke4akpi45n0y93n6zfn3q3r1f,3q5c1wp23qevm2nws4vmsi6jflo156,E35UoQWC,2020-0188,2021-10-31,07:54:07,09:11:46,NA,incomplete,true,true,NA,NA,0,5,NA,blue,n_s_093.jpg,NA,NA,NA,NA,NA,unpleasant,pleasant,NA,NA,NA,NA,NA,right,1655.20000000298,true,NA,NA,NA,NA,NA,NA,NA,NA
E35UoQWC,3bakuke4akpi45n0y93n6zfn3q3r1f,3q5c1wp23qevm2nws4vmsi6jflo156,E35UoQWC,2020-0188,2021-10-31,07:54:07,09:11:46,NA,incomplete,true,true,NA,NA,0,6,NA,yellow,n_s_020.jpg,NA,NA,NA,NA,NA,pleasant,unpleasant,NA,NA,NA,NA,NA,right,2731.70000000298,true,NA,NA,NA,NA,NA,NA,NA,NA
E35UoQWC,3bakuke4akpi45n0y93n6zfn3q3r1f,3q5c1wp23qevm2nws4vmsi6jflo156,E35UoQWC,2020-0188,2021-10-31,07:54:07,09:11:46,NA,incomplete,true,true,NA,NA,0,7,NA,yellow,m_l_046.jpg,NA,NA,NA,NA,NA,pleasant,unpleasant,NA,NA,NA,NA,NA,right,2764.89999999106,true,NA,NA,NA,NA,NA,NA,NA,NA
E35UoQWC,3bakuke4akpi45n0y93n6zfn3q3r1f,3q5c1wp23qevm2nws4vmsi6jflo156,E35UoQWC,2020-0188,2021-10-31,07:54:07,09:11:46,NA,incomplete,true,true,NA,NA,0,8,NA,yellow,m_l_092.jpg,NA,NA,NA,NA,NA,unpleasant,pleasant,NA,NA,NA,NA,NA,right,1962.20000000298,true,NA,NA,NA,NA,NA,NA,NA,NA
E35UoQWC,3bakuke4akpi45n0y93n6zfn3q3r1f,3q5c1wp23qevm2nws4vmsi6jflo156,E35UoQWC,2020-0188,2021-10-31,07:54:07,09:11:46,NA,incomplete,true,true,NA,NA,0,9,NA,yellow,m_s_023.jpg,NA,NA,NA,NA,NA,unpleasant,pleasant,NA,NA,NA,NA,NA,left,3288.79999999702,true,NA,NA,NA,NA,NA,NA,NA,NA
E35UoQWC,3bakuke4akpi45n0y93n6zfn3q3r1f,3q5c1wp23qevm2nws4vmsi6jflo156,E35UoQWC,2020-0188,2021-10-31,07:54:07,09:11:46,NA,incomplete,true,true,NA,NA,0,10,NA,yellow,m_l_003.jpg,NA,NA,NA,NA,NA,pleasant,unpleasant,NA,NA,NA,NA,NA,right,2400.10000000894,true,NA,NA,NA,NA,NA,NA,NA,NA
E35UoQWC,3bakuke4akpi45n0y93n6zfn3q3r1f,3q5c1wp23qevm2nws4vmsi6jflo156,E35UoQWC,2020-0188,2021-10-31,07:54:07,09:11:46,NA,incomplete,true,true,NA,NA,0,11,NA,yellow,n_l_049.jpg,NA,NA,NA,NA,NA,unpleasant,pleasant,NA,NA,NA,NA,NA,left,2452.09999999404,true,NA,NA,NA,NA,NA,NA,NA,NA
E35UoQWC,3bakuke4akpi45n0y93n6zfn3q3r1f,3q5c1wp23qevm2nws4vmsi6jflo156,E35UoQWC,2020-0188,2021-10-31,07:54:07,09:11:46,NA,incomplete,true,true,NA,NA,0,12,NA,red,n_s_102.jpg,NA,NA,NA,NA,NA,unpleasant,pleasant,NA,NA,NA,NA,NA,left,1938.20000000298,true,NA,NA,NA,NA,NA,NA,NA,NA
E35UoQWC,3bakuke4akpi45n0y93n6zfn3q3r1f,3q5c1wp23qevm2nws4vmsi6jflo156,E35UoQWC,2020-0188,2021-10-31,07:54:07,09:11:46,NA,incomplete,true,true,NA,NA,0,13,NA,red,m_l_071.jpg,NA,NA,NA,NA,NA,unpleasant,pleasant,NA,NA,NA,NA,NA,left,2028.80000001192,true,NA,NA,NA,NA,NA,NA,NA,NA
E35UoQWC,3bakuke4akpi45n0y93n6zfn3q3r1f,3q5c1wp23qevm2nws4vmsi6jflo156,E35UoQWC,2020-0188,2021-10-31,07:54:07,09:11:46,NA,incomplete,true,true,NA,NA,0,14,NA,red,n_l_109.jpg,NA,NA,NA,NA,NA,pleasant,unpleasant,NA,NA,NA,NA,NA,right,2298.70000000298,true,NA,NA,NA,NA,NA,NA,NA,NA
E35UoQWC,3bakuke4akpi45n0y93n6zfn3q3r1f,3q5c1wp23qevm2nws4vmsi6jflo156,E35UoQWC,2020-0188,2021-10-31,07:54:07,09:11:46,NA,incomplete,true,true,NA,NA,0,15,NA,red,m_l_083.jpg,NA,NA,NA,NA,NA,pleasant,unpleasant,NA,NA,NA,NA,NA,right,1614.70000000298,true,NA,NA,NA,NA,NA,NA,NA,NA
E35UoQWC,3bakuke4akpi45n0y93n6zfn3q3r1f,3q5c1wp23qevm2nws4vmsi6jflo156,E35UoQWC,2020-0188,2021-10-31,07:54:07,09:11:46,NA,incomplete,true,true,NA,NA,0,16,NA,red,m_l_114.jpg,NA,NA,NA,NA,NA,pleasant,unpleasant,NA,NA,NA,NA,NA,right,2345.29999999702,true,NA,NA,NA,NA,NA,NA,NA,NA
E35UoQWC,3bakuke4akpi45n0y93n6zfn3q3r1f,3q5c1wp23qevm2nws4vmsi6jflo156,E35UoQWC,2020-0188,2021-10-31,07:54:07,09:11:46,NA,incomplete,true,true,NA,NA,0,17,NA,red,m_s_057.jpg,NA,NA,NA,NA,NA,pleasant,unpleasant,NA,NA,NA,NA,NA,right,1819.59999999404,true,NA,NA,NA,NA,NA,NA,NA,NA
E35UoQWC,3bakuke4akpi45n0y93n6zfn3q3r1f,3q5c1wp23qevm2nws4vmsi6jflo156,E35UoQWC,2020-0188,2021-10-31,07:54:07,09:11:46,NA,incomplete,true,true,NA,NA,0,18,NA,green,m_l_106.jpg,NA,NA,NA,NA,NA,pleasant,unpleasant,NA,NA,NA,NA,NA,right,2843.60000000894,true,NA,NA,NA,NA,NA,NA,NA,NA
E35UoQWC,3bakuke4akpi45n0y93n6zfn3q3r1f,3q5c1wp23qevm2nws4vmsi6jflo156,E35UoQWC,2020-0188,2021-10-31,07:54:07,09:11:46,NA,incomplete,true,true,NA,NA,0,19,NA,green,n_s_069.jpg,NA,NA,NA,NA,NA,unpleasant,pleasant,NA,NA,NA,NA,NA,left,2051.89999999106,true,NA,NA,NA,NA,NA,NA,NA,NA
E35UoQWC,3bakuke4akpi45n0y93n6zfn3q3r1f,3q5c1wp23qevm2nws4vmsi6jflo156,E35UoQWC,2020-0188,2021-10-31,07:54:07,09:11:46,NA,incomplete,true,true,NA,NA,0,20,NA,green,m_l_061.jpg,NA,NA,NA,NA,NA,pleasant,unpleasant,NA,NA,NA,NA,NA,right,2296,true,NA,NA,NA,NA,NA,NA,NA,NA
E35UoQWC,3bakuke4akpi45n0y93n6zfn3q3r1f,3q5c1wp23qevm2nws4vmsi6jflo156,E35UoQWC,2020-0188,2021-10-31,07:54:07,09:11:46,NA,incomplete,true,true,NA,NA,0,21,NA,green,n_l_114.jpg,NA,NA,NA,NA,NA,pleasant,unpleasant,NA,NA,NA,NA,NA,right,1948.70000000298,true,NA,NA,NA,NA,NA,NA,NA,NA
E35UoQWC,3bakuke4akpi45n0y93n6zfn3q3r1f,3q5c1wp23qevm2nws4vmsi6jflo156,E35UoQWC,2020-0188,2021-10-31,07:54:07,09:11:46,NA,incomplete,true,true,NA,NA,0,22,NA,green,m_l_090.jpg,NA,NA,NA,NA,NA,pleasant,unpleasant,NA,NA,NA,NA,NA,right,2604.79999999702,true,NA,NA,NA,NA,NA,NA,NA,NA
E35UoQWC,3bakuke4akpi45n0y93n6zfn3q3r1f,3q5c1wp23qevm2nws4vmsi6jflo156,E35UoQWC,2020-0188,2021-10-31,07:54:07,09:11:46,NA,incomplete,true,true,NA,NA,0,23,NA,green,n_l_084.jpg,NA,NA,NA,NA,NA,unpleasant,pleasant,NA,NA,NA,NA,NA,left,2116,true,NA,NA,NA,NA,NA,NA,NA,NA
E35UoQWC,3bakuke4akpi45n0y93n6zfn3q3r1f,3q5c1wp23qevm2nws4vmsi6jflo156,E35UoQWC,2020-0188,2021-10-31,07:54:07,09:11:46,NA,incomplete,true,true,NA,NA,0,24,NA,black,m_s_007.jpg,NA,NA,NA,NA,NA,pleasant,unpleasant,NA,NA,NA,NA,NA,none,0,false,NA,NA,NA,NA,NA,NA,NA,NA
E35UoQWC,3bakuke4akpi45n0y93n6zfn3q3r1f,3q5c1wp23qevm2nws4vmsi6jflo156,E35UoQWC,2020-0188,2021-10-31,07:54:07,09:11:46,NA,incomplete,true,true,NA,NA,0,25,NA,black,n_l_062.jpg,NA,NA,NA,NA,NA,unpleasant,pleasant,NA,NA,NA,NA,NA,right,1450.79999999702,true,NA,NA,NA,NA,NA,NA,NA,NA
E35UoQWC,3bakuke4akpi45n0y93n6zfn3q3r1f,3q5c1wp23qevm2nws4vmsi6jflo156,E35UoQWC,2020-0188,2021-10-31,07:54:07,09:11:46,NA,incomplete,true,true,NA,NA,0,26,NA,black,n_s_016.jpg,NA,NA,NA,NA,NA,pleasant,unpleasant,NA,NA,NA,NA,NA,left,1522.89999999106,true,NA,NA,NA,NA,NA,NA,NA,NA
E35UoQWC,3bakuke4akpi45n0y93n6zfn3q3r1f,3q5c1wp23qevm2nws4vmsi6jflo156,E35UoQWC,2020-0188,2021-10-31,07:54:07,09:11:46,NA,incomplete,true,true,NA,NA,0,27,NA,black,n_l_025.jpg,NA,NA,NA,NA,NA,unpleasant,pleasant,NA,NA,NA,NA,NA,right,1427.70000000298,true,NA,NA,NA,NA,NA,NA,NA,NA
E35UoQWC,3bakuke4akpi45n0y93n6zfn3q3r1f,3q5c1wp23qevm2nws4vmsi6jflo156,E35UoQWC,2020-0188,2021-10-31,07:54:07,09:11:46,NA,incomplete,true,true,NA,NA,0,28,NA,black,n_l_110.jpg,NA,NA,NA,NA,NA,pleasant,unpleasant,NA,NA,NA,NA,NA,left,1958.60000000894,true,NA,NA,NA,NA,NA,NA,NA,NA
E35UoQWC,3bakuke4akpi45n0y93n6zfn3q3r1f,3q5c1wp23qevm2nws4vmsi6jflo156,E35UoQWC,2020-0188,2021-10-31,07:54:07,09:11:46,NA,incomplete,true,true,NA,NA,0,29,NA,black,n_l_065.jpg,NA,NA,NA,NA,NA,unpleasant,pleasant,NA,NA,NA,NA,NA,right,1648.39999999106,true,NA,NA,NA,NA,NA,NA,NA,NA
E35UoQWC,3bakuke4akpi45n0y93n6zfn3q3r1f,3q5c1wp23qevm2nws4vmsi6jflo156,E35UoQWC,2020-0188,2021-10-31,07:54:07,09:11:46,NA,incomplete,true,true,NA,NA,0,30,NA,brown,n_l_034.jpg,NA,NA,NA,NA,NA,unpleasant,pleasant,NA,NA,NA,NA,NA,left,1769.5,true,NA,NA,NA,NA,NA,NA,NA,NA
E35UoQWC,3bakuke4akpi45n0y93n6zfn3q3r1f,3q5c1wp23qevm2nws4vmsi6jflo156,E35UoQWC,2020-0188,2021-10-31,07:54:07,09:11:46,NA,incomplete,true,true,NA,NA,0,31,NA,brown,n_s_117.jpg,NA,NA,NA,NA,NA,unpleasant,pleasant,NA,NA,NA,NA,NA,left,1551.29999999702,true,NA,NA,NA,NA,NA,NA,NA,NA
E35UoQWC,3bakuke4akpi45n0y93n6zfn3q3r1f,3q5c1wp23qevm2nws4vmsi6jflo156,E35UoQWC,2020-0188,2021-10-31,07:54:07,09:11:46,NA,incomplete,true,true,NA,NA,0,32,NA,brown,n_l_063.jpg,NA,NA,NA,NA,NA,unpleasant,pleasant,NA,NA,NA,NA,NA,left,1575.70000000298,true,NA,NA,NA,NA,NA,NA,NA,NA
E35UoQWC,3bakuke4akpi45n0y93n6zfn3q3r1f,3q5c1wp23qevm2nws4vmsi6jflo156,E35UoQWC,2020-0188,2021-10-31,07:54:07,09:11:46,NA,incomplete,true,true,NA,NA,0,33,NA,brown,m_l_009.jpg,NA,NA,NA,NA,NA,unpleasant,pleasant,NA,NA,NA,NA,NA,left,1438.80000001192,true,NA,NA,NA,NA,NA,NA,NA,NA
E35UoQWC,3bakuke4akpi45n0y93n6zfn3q3r1f,3q5c1wp23qevm2nws4vmsi6jflo156,E35UoQWC,2020-0188,2021-10-31,07:54:07,09:11:46,NA,incomplete,true,true,NA,NA,0,34,NA,brown,m_s_008.jpg,NA,NA,NA,NA,NA,pleasant,unpleasant,NA,NA,NA,NA,NA,left,1178.40000000596,true,NA,NA,NA,NA,NA,NA,NA,NA
E35UoQWC,3bakuke4akpi45n0y93n6zfn3q3r1f,3q5c1wp23qevm2nws4vmsi6jflo156,E35UoQWC,2020-0188,2021-10-31,07:54:07,09:11:46,NA,incomplete,true,true,NA,NA,0,35,NA,brown,n_s_006.jpg,NA,NA,NA,NA,NA,pleasant,unpleasant,NA,NA,NA,NA,NA,right,2476.90000000596,true,NA,NA,NA,NA,NA,NA,NA,NA
E35UoQWC,3bakuke4akpi45n0y93n6zfn3q3r1f,3q5c1wp23qevm2nws4vmsi6jflo156,E35UoQWC,2020-0188,2021-10-31,07:54:07,09:11:46,NA,incomplete,true,NA,NA,true,0,0,NA,NA,NA,left,m_l_071.jpg,red,green,NA,NA,NA,NA,NA,NA,NA,NA,NA,NaN,NA,8206.39999999106,right,0,NA,NA,NA,NA,NA
E35UoQWC,3bakuke4akpi45n0y93n6zfn3q3r1f,3q5c1wp23qevm2nws4vmsi6jflo156,E35UoQWC,2020-0188,2021-10-31,07:54:07,09:11:46,NA,incomplete,true,NA,NA,true,0,1,NA,NA,NA,left,n_l_109.jpg,red,yellow,NA,NA,NA,NA,NA,NA,NA,NA,NA,NaN,NA,4904.20000000298,left,1,NA,NA,NA,NA,NA
E35UoQWC,3bakuke4akpi45n0y93n6zfn3q3r1f,3q5c1wp23qevm2nws4vmsi6jflo156,E35UoQWC,2020-0188,2021-10-31,07:54:07,09:11:46,NA,incomplete,true,NA,NA,true,0,2,NA,NA,NA,left,n_s_093.jpg,blue,yellow,NA,NA,NA,NA,NA,NA,NA,NA,NA,NaN,NA,3831.3999999910593,right,0,NA,NA,NA,NA,NA
E35UoQWC,3bakuke4akpi45n0y93n6zfn3q3r1f,3q5c1wp23qevm2nws4vmsi6jflo156,E35UoQWC,2020-0188,2021-10-31,07:54:07,09:11:46,NA,incomplete,true,NA,NA,true,0,3,NA,NA,NA,left,m_l_092.jpg,yellow,blue,NA,NA,NA,NA,NA,NA,NA,NA,NA,NaN,NA,2847.5,left,1,NA,NA,NA,NA,NA
E35UoQWC,3bakuke4akpi45n0y93n6zfn3q3r1f,3q5c1wp23qevm2nws4vmsi6jflo156,E35UoQWC,2020-0188,2021-10-31,07:54:07,09:11:46,NA,incomplete,true,NA,NA,true,0,4,NA,NA,NA,right,m_l_100.jpg,yellow,blue,NA,NA,NA,NA,NA,NA,NA,NA,NA,NaN,NA,2359.2999999970198,right,1,NA,NA,NA,NA,NA
E35UoQWC,3bakuke4akpi45n0y93n6zfn3q3r1f,3q5c1wp23qevm2nws4vmsi6jflo156,E35UoQWC,2020-0188,2021-10-31,07:54:07,09:11:46,NA,incomplete,true,NA,NA,true,0,5,NA,NA,NA,right,m_s_057.jpg,green,red,NA,NA,NA,NA,NA,NA,NA,NA,NA,NaN,NA,3735.9000000059605,right,1,NA,NA,NA,NA,NA
E35UoQWC,3bakuke4akpi45n0y93n6zfn3q3r1f,3q5c1wp23qevm2nws4vmsi6jflo156,E35UoQWC,2020-0188,2021-10-31,07:54:07,09:11:46,NA,incomplete,true,NA,NA,true,0,6,NA,NA,NA,right,n_l_084.jpg,red,green,NA,NA,NA,NA,NA,NA,NA,NA,NA,NaN,NA,3831.2000000029802,right,1,NA,NA,NA,NA,NA
E35UoQWC,3bakuke4akpi45n0y93n6zfn3q3r1f,3q5c1wp23qevm2nws4vmsi6jflo156,E35UoQWC,2020-0188,2021-10-31,07:54:07,09:11:46,NA,incomplete,true,NA,NA,true,0,7,NA,NA,NA,right,m_l_090.jpg,red,green,NA,NA,NA,NA,NA,NA,NA,NA,NA,NaN,NA,2151.2000000029802,left,0,NA,NA,NA,NA,NA
E35UoQWC,3bakuke4akpi45n0y93n6zfn3q3r1f,3q5c1wp23qevm2nws4vmsi6jflo156,E35UoQWC,2020-0188,2021-10-31,07:54:07,09:11:46,NA,incomplete,true,NA,NA,true,0,8,NA,NA,NA,right,m_l_046.jpg,blue,yellow,NA,NA,NA,NA,NA,NA,NA,NA,NA,NaN,NA,3440,left,0,NA,NA,NA,NA,NA
E35UoQWC,3bakuke4akpi45n0y93n6zfn3q3r1f,3q5c1wp23qevm2nws4vmsi6jflo156,E35UoQWC,2020-0188,2021-10-31,07:54:07,09:11:46,NA,incomplete,true,NA,NA,true,0,9,NA,NA,NA,right,n_l_049.jpg,blue,yellow,NA,NA,NA,NA,NA,NA,NA,NA,NA,NaN,NA,1903.2000000029802,right,1,NA,NA,NA,NA,NA
E35UoQWC,3bakuke4akpi45n0y93n6zfn3q3r1f,3q5c1wp23qevm2nws4vmsi6jflo156,E35UoQWC,2020-0188,2021-10-31,07:54:07,09:11:46,NA,incomplete,true,NA,NA,true,0,10,NA,NA,NA,left,n_l_062.jpg,black,brown,NA,NA,NA,NA,NA,NA,NA,NA,NA,NaN,NA,2303.1000000089407,left,1,NA,NA,NA,NA,NA
E35UoQWC,3bakuke4akpi45n0y93n6zfn3q3r1f,3q5c1wp23qevm2nws4vmsi6jflo156,E35UoQWC,2020-0188,2021-10-31,07:54:07,09:11:46,NA,incomplete,true,NA,NA,true,0,11,NA,NA,NA,left,n_s_069.jpg,green,black,NA,NA,NA,NA,NA,NA,NA,NA,NA,NaN,NA,4480.20000000298,left,1,NA,NA,NA,NA,NA
E35UoQWC,3bakuke4akpi45n0y93n6zfn3q3r1f,3q5c1wp23qevm2nws4vmsi6jflo156,E35UoQWC,2020-0188,2021-10-31,07:54:07,09:11:46,NA,incomplete,true,NA,NA,true,0,12,NA,NA,NA,left,n_s_006.jpg,brown,black,NA,NA,NA,NA,NA,NA,NA,NA,NA,NaN,NA,1935.7999999970198,right,0,NA,NA,NA,NA,NA
E35UoQWC,3bakuke4akpi45n0y93n6zfn3q3r1f,3q5c1wp23qevm2nws4vmsi6jflo156,E35UoQWC,2020-0188,2021-10-31,07:54:07,09:11:46,NA,incomplete,true,NA,NA,true,0,13,NA,NA,NA,left,n_l_110.jpg,black,green,NA,NA,NA,NA,NA,NA,NA,NA,NA,NaN,NA,1591.2000000029802,left,1,NA,NA,NA,NA,NA
E35UoQWC,3bakuke4akpi45n0y93n6zfn3q3r1f,3q5c1wp23qevm2nws4vmsi6jflo156,E35UoQWC,2020-0188,2021-10-31,07:54:07,09:11:46,NA,incomplete,true,NA,NA,true,0,14,NA,NA,NA,right,m_l_003.jpg,blue,yellow,NA,NA,NA,NA,NA,NA,NA,NA,NA,NaN,NA,7584.9000000059605,left,0,NA,NA,NA,NA,NA
E35UoQWC,3bakuke4akpi45n0y93n6zfn3q3r1f,3q5c1wp23qevm2nws4vmsi6jflo156,E35UoQWC,2020-0188,2021-10-31,07:54:07,09:11:46,NA,incomplete,true,NA,NA,true,0,15,NA,NA,NA,right,n_l_063.jpg,black,brown,NA,NA,NA,NA,NA,NA,NA,NA,NA,NaN,NA,4359.20000000298,right,1,NA,NA,NA,NA,NA
E35UoQWC,3bakuke4akpi45n0y93n6zfn3q3r1f,3q5c1wp23qevm2nws4vmsi6jflo156,E35UoQWC,2020-0188,2021-10-31,07:54:07,09:11:46,NA,incomplete,true,NA,NA,true,0,16,NA,NA,NA,left,m_l_114.jpg,red,green,NA,NA,NA,NA,NA,NA,NA,NA,NA,NaN,NA,2783.7000000029802,left,1,NA,NA,NA,NA,NA
E35UoQWC,3bakuke4akpi45n0y93n6zfn3q3r1f,3q5c1wp23qevm2nws4vmsi6jflo156,E35UoQWC,2020-0188,2021-10-31,07:54:07,09:11:46,NA,incomplete,true,NA,NA,true,0,17,NA,NA,NA,right,m_l_061.jpg,black,green,NA,NA,NA,NA,NA,NA,NA,NA,NA,NaN,NA,4208.9000000059605,left,0,NA,NA,NA,NA,NA
E35UoQWC,3bakuke4akpi45n0y93n6zfn3q3r1f,3q5c1wp23qevm2nws4vmsi6jflo156,E35UoQWC,2020-0188,2021-10-31,07:54:07,09:11:46,NA,incomplete,true,NA,NA,true,0,18,NA,NA,NA,right,n_s_117.jpg,black,brown,NA,NA,NA,NA,NA,NA,NA,NA,NA,NaN,NA,2119.5999999940395,left,0,NA,NA,NA,NA,NA
E35UoQWC,3bakuke4akpi45n0y93n6zfn3q3r1f,3q5c1wp23qevm2nws4vmsi6jflo156,E35UoQWC,2020-0188,2021-10-31,07:54:07,09:11:46,NA,incomplete,true,NA,NA,true,0,19,NA,NA,NA,left,n_l_010.jpg,blue,yellow,NA,NA,NA,NA,NA,NA,NA,NA,NA,NaN,NA,4216.29999999702,left,1,NA,NA,NA,NA,NA
E35UoQWC,3bakuke4akpi45n0y93n6zfn3q3r1f,3q5c1wp23qevm2nws4vmsi6jflo156,E35UoQWC,2020-0188,2021-10-31,07:54:07,09:11:46,NA,incomplete,true,NA,NA,true,0,20,NA,NA,NA,left,n_s_016.jpg,black,green,NA,NA,NA,NA,NA,NA,NA,NA,NA,NaN,NA,2671.7999999970198,right,0,NA,NA,NA,NA,NA
E35UoQWC,3bakuke4akpi45n0y93n6zfn3q3r1f,3q5c1wp23qevm2nws4vmsi6jflo156,E35UoQWC,2020-0188,2021-10-31,07:54:07,09:11:46,NA,incomplete,true,NA,NA,true,0,21,NA,NA,NA,right,n_l_065.jpg,green,black,NA,NA,NA,NA,NA,NA,NA,NA,NA,NaN,NA,2023.0999999940395,right,1,NA,NA,NA,NA,NA
E35UoQWC,3bakuke4akpi45n0y93n6zfn3q3r1f,3q5c1wp23qevm2nws4vmsi6jflo156,E35UoQWC,2020-0188,2021-10-31,07:54:07,09:11:46,NA,incomplete,true,NA,true,NA,0,0,NA,NA,NA,right,NA,NA,NA,present,NA,NA,m_l_061.jpg,green,m_l_114.jpg,red,between,NA,NaN,NA,NA,NA,NA,right,6455.79999999702,1,1,6152.399999991059
E35UoQWC,3bakuke4akpi45n0y93n6zfn3q3r1f,3q5c1wp23qevm2nws4vmsi6jflo156,E35UoQWC,2020-0188,2021-10-31,07:54:07,09:11:46,NA,incomplete,true,NA,true,NA,0,1,NA,NA,NA,left,NA,NA,NA,present,NA,NA,m_l_071.jpg,red,m_s_057.jpg,red,within,NA,NaN,NA,NA,NA,NA,left,4088.1000000089407,1,0,3223.8999999910593
E35UoQWC,3bakuke4akpi45n0y93n6zfn3q3r1f,3q5c1wp23qevm2nws4vmsi6jflo156,E35UoQWC,2020-0188,2021-10-31,07:54:07,09:11:46,NA,incomplete,true,NA,true,NA,0,2,NA,NA,NA,left,NA,NA,NA,present,NA,NA,m_l_003.jpg,yellow,n_l_109.jpg,red,between,NA,NaN,NA,NA,NA,NA,left,4670,1,2,1543.0999999940395
E35UoQWC,3bakuke4akpi45n0y93n6zfn3q3r1f,3q5c1wp23qevm2nws4vmsi6jflo156,E35UoQWC,2020-0188,2021-10-31,07:54:07,09:11:46,NA,incomplete,true,NA,true,NA,0,3,NA,NA,NA,right,NA,NA,NA,present,NA,NA,n_s_093.jpg,blue,m_l_100.jpg,blue,within,NA,NaN,NA,NA,NA,NA,right,2967.2999999970198,1,1,1720.7999999970198
E35UoQWC,3bakuke4akpi45n0y93n6zfn3q3r1f,3q5c1wp23qevm2nws4vmsi6jflo156,E35UoQWC,2020-0188,2021-10-31,07:54:07,09:11:46,NA,incomplete,true,NA,true,NA,0,4,NA,NA,NA,right,NA,NA,NA,present,NA,NA,n_s_006.jpg,brown,n_s_117.jpg,brown,within,NA,NaN,NA,NA,NA,NA,right,2849.2999999970198,1,1,1719.9000000059605
E35UoQWC,3bakuke4akpi45n0y93n6zfn3q3r1f,3q5c1wp23qevm2nws4vmsi6jflo156,E35UoQWC,2020-0188,2021-10-31,07:54:07,09:11:46,NA,incomplete,true,NA,true,NA,0,5,NA,NA,NA,right,NA,NA,NA,present,NA,NA,n_s_016.jpg,black,m_l_090.jpg,green,between,NA,NaN,NA,NA,NA,NA,right,4463.5,1,2,2327.2000000029802
E35UoQWC,3bakuke4akpi45n0y93n6zfn3q3r1f,3q5c1wp23qevm2nws4vmsi6jflo156,E35UoQWC,2020-0188,2021-10-31,07:54:07,09:11:46,NA,incomplete,true,NA,true,NA,0,6,NA,NA,NA,left,NA,NA,NA,present,NA,NA,n_s_069.jpg,green,n_l_084.jpg,green,within,NA,NaN,NA,NA,NA,NA,left,3951.9000000059605,1,0,1319.5
E35UoQWC,3bakuke4akpi45n0y93n6zfn3q3r1f,3q5c1wp23qevm2nws4vmsi6jflo156,E35UoQWC,2020-0188,2021-10-31,07:54:07,09:11:46,NA,incomplete,true,NA,true,NA,0,7,NA,NA,NA,left,NA,NA,NA,present,NA,NA,n_l_062.jpg,black,n_l_065.jpg,black,within,NA,NaN,NA,NA,NA,NA,left,4464.5999999940395,1,0,1559.800000011921
E35UoQWC,3bakuke4akpi45n0y93n6zfn3q3r1f,3q5c1wp23qevm2nws4vmsi6jflo156,E35UoQWC,2020-0188,2021-10-31,07:54:07,09:11:46,NA,incomplete,true,NA,true,NA,0,8,NA,NA,NA,left,NA,NA,NA,present,NA,NA,n_l_010.jpg,blue,m_l_092.jpg,yellow,between,NA,NaN,NA,NA,NA,NA,left,4504.399999991059,1,2,2199.1000000089407
E35UoQWC,3bakuke4akpi45n0y93n6zfn3q3r1f,3q5c1wp23qevm2nws4vmsi6jflo156,E35UoQWC,2020-0188,2021-10-31,07:54:07,09:11:46,NA,incomplete,true,NA,true,NA,0,9,NA,NA,NA,left,NA,NA,NA,present,NA,NA,m_l_046.jpg,yellow,n_l_049.jpg,yellow,within,NA,NaN,NA,NA,NA,NA,left,2679.2000000029802,1,0,1847.1000000089407
E35UoQWC,3bakuke4akpi45n0y93n6zfn3q3r1f,3q5c1wp23qevm2nws4vmsi6jflo156,E35UoQWC,2020-0188,2021-10-31,07:54:07,09:11:46,NA,incomplete,true,NA,true,NA,0,10,NA,NA,NA,right,NA,NA,NA,present,NA,NA,n_l_063.jpg,brown,n_l_110.jpg,black,between,NA,NaN,NA,NA,NA,NA,right,3295.1000000089407,1,2,5175.70000000298
E35UoQWC,3bakuke4akpi45n0y93n6zfn3q3r1f,3q5c1wp23qevm2nws4vmsi6jflo156,E35UoQWC,2020-0188,2021-10-31,07:54:07,09:11:46,NA,incomplete,false,true,NA,NA,1,0,NA,gray,m_s_014.jpg,NA,NA,NA,NA,NA,pleasant,unpleasant,NA,NA,NA,NA,NA,none,0,false,NA,NA,NA,NA,NA,NA,NA,NA
E35UoQWC,3bakuke4akpi45n0y93n6zfn3q3r1f,3q5c1wp23qevm2nws4vmsi6jflo156,E35UoQWC,2020-0188,2021-10-31,07:54:07,09:11:46,NA,incomplete,false,true,NA,NA,1,1,NA,gray,m_l_031.jpg,NA,NA,NA,NA,NA,pleasant,unpleasant,NA,NA,NA,NA,NA,left,2433.29999999702,true,NA,NA,NA,NA,NA,NA,NA,NA
E35UoQWC,3bakuke4akpi45n0y93n6zfn3q3r1f,3q5c1wp23qevm2nws4vmsi6jflo156,E35UoQWC,2020-0188,2021-10-31,07:54:07,09:11:46,NA,incomplete,false,true,NA,NA,1,2,NA,gray,n_s_022.jpg,NA,NA,NA,NA,NA,unpleasant,pleasant,NA,NA,NA,NA,NA,right,2506.59999999404,true,NA,NA,NA,NA,NA,NA,NA,NA
E35UoQWC,3bakuke4akpi45n0y93n6zfn3q3r1f,3q5c1wp23qevm2nws4vmsi6jflo156,E35UoQWC,2020-0188,2021-10-31,07:54:07,09:11:46,NA,incomplete,false,true,NA,NA,1,3,NA,gray,n_s_112.jpg,NA,NA,NA,NA,NA,pleasant,unpleasant,NA,NA,NA,NA,NA,left,2862.40000000596,true,NA,NA,NA,NA,NA,NA,NA,NA
E35UoQWC,3bakuke4akpi45n0y93n6zfn3q3r1f,3q5c1wp23qevm2nws4vmsi6jflo156,E35UoQWC,2020-0188,2021-10-31,07:54:07,09:11:46,NA,incomplete,false,true,NA,NA,1,4,NA,gray,m_l_109.jpg,NA,NA,NA,NA,NA,pleasant,unpleasant,NA,NA,NA,NA,NA,left,1550,true,NA,NA,NA,NA,NA,NA,NA,NA
E35UoQWC,3bakuke4akpi45n0y93n6zfn3q3r1f,3q5c1wp23qevm2nws4vmsi6jflo156,E35UoQWC,2020-0188,2021-10-31,07:54:07,09:11:46,NA,incomplete,false,true,NA,NA,1,5,NA,gray,m_l_023.jpg,NA,NA,NA,NA,NA,unpleasant,pleasant,NA,NA,NA,NA,NA,right,1476,true,NA,NA,NA,NA,NA,NA,NA,NA
E35UoQWC,3bakuke4akpi45n0y93n6zfn3q3r1f,3q5c1wp23qevm2nws4vmsi6jflo156,E35UoQWC,2020-0188,2021-10-31,07:54:07,09:11:46,NA,incomplete,false,true,NA,NA,1,6,NA,brown,m_l_080.jpg,NA,NA,NA,NA,NA,pleasant,unpleasant,NA,NA,NA,NA,NA,right,1872.90000000596,true,NA,NA,NA,NA,NA,NA,NA,NA
E35UoQWC,3bakuke4akpi45n0y93n6zfn3q3r1f,3q5c1wp23qevm2nws4vmsi6jflo156,E35UoQWC,2020-0188,2021-10-31,07:54:07,09:11:46,NA,incomplete,false,true,NA,NA,1,7,NA,brown,n_s_009.jpg,NA,NA,NA,NA,NA,unpleasant,pleasant,NA,NA,NA,NA,NA,none,0,false,NA,NA,NA,NA,NA,NA,NA,NA
E35UoQWC,3bakuke4akpi45n0y93n6zfn3q3r1f,3q5c1wp23qevm2nws4vmsi6jflo156,E35UoQWC,2020-0188,2021-10-31,07:54:07,09:11:46,NA,incomplete,false,true,NA,NA,1,8,NA,brown,n_l_074.jpg,NA,NA,NA,NA,NA,unpleasant,pleasant,NA,NA,NA,NA,NA,left,944.29999999702,true,NA,NA,NA,NA,NA,NA,NA,NA
E35UoQWC,3bakuke4akpi45n0y93n6zfn3q3r1f,3q5c1wp23qevm2nws4vmsi6jflo156,E35UoQWC,2020-0188,2021-10-31,07:54:07,09:11:46,NA,incomplete,false,true,NA,NA,1,9,NA,brown,n_l_098.jpg,NA,NA,NA,NA,NA,pleasant,unpleasant,NA,NA,NA,NA,NA,right,2430.09999999404,true,NA,NA,NA,NA,NA,NA,NA,NA
E35UoQWC,3bakuke4akpi45n0y93n6zfn3q3r1f,3q5c1wp23qevm2nws4vmsi6jflo156,E35UoQWC,2020-0188,2021-10-31,07:54:07,09:11:46,NA,incomplete,false,true,NA,NA,1,10,NA,brown,n_s_068.jpg,NA,NA,NA,NA,NA,unpleasant,pleasant,NA,NA,NA,NA,NA,left,1644,true,NA,NA,NA,NA,NA,NA,NA,NA
E35UoQWC,3bakuke4akpi45n0y93n6zfn3q3r1f,3q5c1wp23qevm2nws4vmsi6jflo156,E35UoQWC,2020-0188,2021-10-31,07:54:07,09:11:46,NA,incomplete,false,true,NA,NA,1,11,NA,brown,n_l_004.jpg,NA,NA,NA,NA,NA,pleasant,unpleasant,NA,NA,NA,NA,NA,right,1653.29999999702,true,NA,NA,NA,NA,NA,NA,NA,NA
E35UoQWC,3bakuke4akpi45n0y93n6zfn3q3r1f,3q5c1wp23qevm2nws4vmsi6jflo156,E35UoQWC,2020-0188,2021-10-31,07:54:07,09:11:46,NA,incomplete,false,true,NA,NA,1,12,NA,orange,n_s_065.jpg,NA,NA,NA,NA,NA,pleasant,unpleasant,NA,NA,NA,NA,NA,right,1902.5,true,NA,NA,NA,NA,NA,NA,NA,NA
E35UoQWC,3bakuke4akpi45n0y93n6zfn3q3r1f,3q5c1wp23qevm2nws4vmsi6jflo156,E35UoQWC,2020-0188,2021-10-31,07:54:07,09:11:46,NA,incomplete,false,true,NA,NA,1,13,NA,orange,m_l_113.jpg,NA,NA,NA,NA,NA,pleasant,unpleasant,NA,NA,NA,NA,NA,right,1336,true,NA,NA,NA,NA,NA,NA,NA,NA
E35UoQWC,3bakuke4akpi45n0y93n6zfn3q3r1f,3q5c1wp23qevm2nws4vmsi6jflo156,E35UoQWC,2020-0188,2021-10-31,07:54:07,09:11:46,NA,incomplete,false,true,NA,NA,1,14,NA,orange,n_l_115.jpg,NA,NA,NA,NA,NA,pleasant,unpleasant,NA,NA,NA,NA,NA,left,1360.29999999702,true,NA,NA,NA,NA,NA,NA,NA,NA
E35UoQWC,3bakuke4akpi45n0y93n6zfn3q3r1f,3q5c1wp23qevm2nws4vmsi6jflo156,E35UoQWC,2020-0188,2021-10-31,07:54:07,09:11:46,NA,incomplete,false,true,NA,NA,1,15,NA,orange,m_s_076.jpg,NA,NA,NA,NA,NA,pleasant,unpleasant,NA,NA,NA,NA,NA,left,2006.70000000298,true,NA,NA,NA,NA,NA,NA,NA,NA
E35UoQWC,3bakuke4akpi45n0y93n6zfn3q3r1f,3q5c1wp23qevm2nws4vmsi6jflo156,E35UoQWC,2020-0188,2021-10-31,07:54:07,09:11:46,NA,incomplete,false,true,NA,NA,1,16,NA,orange,m_s_015.jpg,NA,NA,NA,NA,NA,unpleasant,pleasant,NA,NA,NA,NA,NA,left,1565.09999999404,true,NA,NA,NA,NA,NA,NA,NA,NA
E35UoQWC,3bakuke4akpi45n0y93n6zfn3q3r1f,3q5c1wp23qevm2nws4vmsi6jflo156,E35UoQWC,2020-0188,2021-10-31,07:54:07,09:11:46,NA,incomplete,false,true,NA,NA,1,17,NA,orange,n_s_031.jpg,NA,NA,NA,NA,NA,unpleasant,pleasant,NA,NA,NA,NA,NA,left,1289,true,NA,NA,NA,NA,NA,NA,NA,NA
E35UoQWC,3bakuke4akpi45n0y93n6zfn3q3r1f,3q5c1wp23qevm2nws4vmsi6jflo156,E35UoQWC,2020-0188,2021-10-31,07:54:07,09:11:46,NA,incomplete,false,true,NA,NA,1,18,NA,red,m_s_021.jpg,NA,NA,NA,NA,NA,unpleasant,pleasant,NA,NA,NA,NA,NA,left,1580.29999999702,true,NA,NA,NA,NA,NA,NA,NA,NA
E35UoQWC,3bakuke4akpi45n0y93n6zfn3q3r1f,3q5c1wp23qevm2nws4vmsi6jflo156,E35UoQWC,2020-0188,2021-10-31,07:54:07,09:11:46,NA,incomplete,false,true,NA,NA,1,19,NA,red,n_s_047.jpg,NA,NA,NA,NA,NA,unpleasant,pleasant,NA,NA,NA,NA,NA,left,1179.90000000596,true,NA,NA,NA,NA,NA,NA,NA,NA
E35UoQWC,3bakuke4akpi45n0y93n6zfn3q3r1f,3q5c1wp23qevm2nws4vmsi6jflo156,E35UoQWC,2020-0188,2021-10-31,07:54:07,09:11:46,NA,incomplete,false,true,NA,NA,1,20,NA,red,m_s_117.jpg,NA,NA,NA,NA,NA,pleasant,unpleasant,NA,NA,NA,NA,NA,right,1582.40000000596,true,NA,NA,NA,NA,NA,NA,NA,NA
E35UoQWC,3bakuke4akpi45n0y93n6zfn3q3r1f,3q5c1wp23qevm2nws4vmsi6jflo156,E35UoQWC,2020-0188,2021-10-31,07:54:07,09:11:46,NA,incomplete,false,true,NA,NA,1,21,NA,red,n_s_063.jpg,NA,NA,NA,NA,NA,unpleasant,pleasant,NA,NA,NA,NA,NA,left,1175.19999998808,true,NA,NA,NA,NA,NA,NA,NA,NA
E35UoQWC,3bakuke4akpi45n0y93n6zfn3q3r1f,3q5c1wp23qevm2nws4vmsi6jflo156,E35UoQWC,2020-0188,2021-10-31,07:54:07,09:11:46,NA,incomplete,false,true,NA,NA,1,22,NA,red,n_l_027.jpg,NA,NA,NA,NA,NA,pleasant,unpleasant,NA,NA,NA,NA,NA,right,1088.29999999702,true,NA,NA,NA,NA,NA,NA,NA,NA
E35UoQWC,3bakuke4akpi45n0y93n6zfn3q3r1f,3q5c1wp23qevm2nws4vmsi6jflo156,E35UoQWC,2020-0188,2021-10-31,07:54:07,09:11:46,NA,incomplete,false,true,NA,NA,1,23,NA,red,m_l_095.jpg,NA,NA,NA,NA,NA,unpleasant,pleasant,NA,NA,NA,NA,NA,left,1072.29999999702,true,NA,NA,NA,NA,NA,NA,NA,NA
E35UoQWC,3bakuke4akpi45n0y93n6zfn3q3r1f,3q5c1wp23qevm2nws4vmsi6jflo156,E35UoQWC,2020-0188,2021-10-31,07:54:07,09:11:46,NA,incomplete,false,true,NA,NA,1,24,NA,white,m_s_048.jpg,NA,NA,NA,NA,NA,unpleasant,pleasant,NA,NA,NA,NA,NA,left,2626.09999999404,true,NA,NA,NA,NA,NA,NA,NA,NA
E35UoQWC,3bakuke4akpi45n0y93n6zfn3q3r1f,3q5c1wp23qevm2nws4vmsi6jflo156,E35UoQWC,2020-0188,2021-10-31,07:54:07,09:11:46,NA,incomplete,false,true,NA,NA,1,25,NA,white,m_l_041.jpg,NA,NA,NA,NA,NA,pleasant,unpleasant,NA,NA,NA,NA,NA,left,2600.80000001192,true,NA,NA,NA,NA,NA,NA,NA,NA
E35UoQWC,3bakuke4akpi45n0y93n6zfn3q3r1f,3q5c1wp23qevm2nws4vmsi6jflo156,E35UoQWC,2020-0188,2021-10-31,07:54:07,09:11:46,NA,incomplete,false,true,NA,NA,1,26,NA,white,m_s_046.jpg,NA,NA,NA,NA,NA,unpleasant,pleasant,NA,NA,NA,NA,NA,right,1143.59999999404,true,NA,NA,NA,NA,NA,NA,NA,NA
E35UoQWC,3bakuke4akpi45n0y93n6zfn3q3r1f,3q5c1wp23qevm2nws4vmsi6jflo156,E35UoQWC,2020-0188,2021-10-31,07:54:07,09:11:46,NA,incomplete,false,true,NA,NA,1,27,NA,white,m_l_060.jpg,NA,NA,NA,NA,NA,pleasant,unpleasant,NA,NA,NA,NA,NA,left,1484.70000000298,true,NA,NA,NA,NA,NA,NA,NA,NA
E35UoQWC,3bakuke4akpi45n0y93n6zfn3q3r1f,3q5c1wp23qevm2nws4vmsi6jflo156,E35UoQWC,2020-0188,2021-10-31,07:54:07,09:11:46,NA,incomplete,false,true,NA,NA,1,28,NA,white,n_s_034.jpg,NA,NA,NA,NA,NA,pleasant,unpleasant,NA,NA,NA,NA,NA,left,1504.40000000596,true,NA,NA,NA,NA,NA,NA,NA,NA
E35UoQWC,3bakuke4akpi45n0y93n6zfn3q3r1f,3q5c1wp23qevm2nws4vmsi6jflo156,E35UoQWC,2020-0188,2021-10-31,07:54:07,09:11:46,NA,incomplete,false,true,NA,NA,1,29,NA,white,m_s_022.jpg,NA,NA,NA,NA,NA,pleasant,unpleasant,NA,NA,NA,NA,NA,left,1526,true,NA,NA,NA,NA,NA,NA,NA,NA
E35UoQWC,3bakuke4akpi45n0y93n6zfn3q3r1f,3q5c1wp23qevm2nws4vmsi6jflo156,E35UoQWC,2020-0188,2021-10-31,07:54:07,09:11:46,NA,incomplete,false,true,NA,NA,1,30,NA,yellow,m_s_085.jpg,NA,NA,NA,NA,NA,pleasant,unpleasant,NA,NA,NA,NA,NA,right,1748.70000000298,true,NA,NA,NA,NA,NA,NA,NA,NA
E35UoQWC,3bakuke4akpi45n0y93n6zfn3q3r1f,3q5c1wp23qevm2nws4vmsi6jflo156,E35UoQWC,2020-0188,2021-10-31,07:54:07,09:11:46,NA,incomplete,false,true,NA,NA,1,31,NA,yellow,m_s_067.jpg,NA,NA,NA,NA,NA,pleasant,unpleasant,NA,NA,NA,NA,NA,right,2215.30000001192,true,NA,NA,NA,NA,NA,NA,NA,NA
E35UoQWC,3bakuke4akpi45n0y93n6zfn3q3r1f,3q5c1wp23qevm2nws4vmsi6jflo156,E35UoQWC,2020-0188,2021-10-31,07:54:07,09:11:46,NA,incomplete,false,true,NA,NA,1,32,NA,yellow,m_l_079.jpg,NA,NA,NA,NA,NA,unpleasant,pleasant,NA,NA,NA,NA,NA,left,1135.5,true,NA,NA,NA,NA,NA,NA,NA,NA
E35UoQWC,3bakuke4akpi45n0y93n6zfn3q3r1f,3q5c1wp23qevm2nws4vmsi6jflo156,E35UoQWC,2020-0188,2021-10-31,07:54:07,09:11:46,NA,incomplete,false,true,NA,NA,1,33,NA,yellow,m_s_093.jpg,NA,NA,NA,NA,NA,unpleasant,pleasant,NA,NA,NA,NA,NA,left,884.90000000596,true,NA,NA,NA,NA,NA,NA,NA,NA
E35UoQWC,3bakuke4akpi45n0y93n6zfn3q3r1f,3q5c1wp23qevm2nws4vmsi6jflo156,E35UoQWC,2020-0188,2021-10-31,07:54:07,09:11:46,NA,incomplete,false,true,NA,NA,1,34,NA,yellow,m_s_070.jpg,NA,NA,NA,NA,NA,unpleasant,pleasant,NA,NA,NA,NA,NA,left,983.29999999702,true,NA,NA,NA,NA,NA,NA,NA,NA
E35UoQWC,3bakuke4akpi45n0y93n6zfn3q3r1f,3q5c1wp23qevm2nws4vmsi6jflo156,E35UoQWC,2020-0188,2021-10-31,07:54:07,09:11:46,NA,incomplete,false,true,NA,NA,1,35,NA,yellow,m_s_071.jpg,NA,NA,NA,NA,NA,unpleasant,pleasant,NA,NA,NA,NA,NA,left,997.899999991059,true,NA,NA,NA,NA,NA,NA,NA,NA
E35UoQWC,3bakuke4akpi45n0y93n6zfn3q3r1f,3q5c1wp23qevm2nws4vmsi6jflo156,E35UoQWC,2020-0188,2021-10-31,07:54:07,09:11:46,NA,incomplete,false,NA,NA,true,1,0,NA,NA,NA,left,m_l_041.jpg,white,yellow,NA,NA,NA,NA,NA,NA,NA,NA,NA,NaN,NA,3664.0999999940395,left,1,NA,NA,NA,NA,NA
E35UoQWC,3bakuke4akpi45n0y93n6zfn3q3r1f,3q5c1wp23qevm2nws4vmsi6jflo156,E35UoQWC,2020-0188,2021-10-31,07:54:07,09:11:46,NA,incomplete,false,NA,NA,true,1,1,NA,NA,NA,right,n_s_009.jpg,orange,brown,NA,NA,NA,NA,NA,NA,NA,NA,NA,NaN,NA,8089.20000000298,right,1,NA,NA,NA,NA,NA
E35UoQWC,3bakuke4akpi45n0y93n6zfn3q3r1f,3q5c1wp23qevm2nws4vmsi6jflo156,E35UoQWC,2020-0188,2021-10-31,07:54:07,09:11:46,NA,incomplete,false,NA,NA,true,1,2,NA,NA,NA,right,m_s_117.jpg,white,red,NA,NA,NA,NA,NA,NA,NA,NA,NA,NaN,NA,2526.8999999910593,left,0,NA,NA,NA,NA,NA
E35UoQWC,3bakuke4akpi45n0y93n6zfn3q3r1f,3q5c1wp23qevm2nws4vmsi6jflo156,E35UoQWC,2020-0188,2021-10-31,07:54:07,09:11:46,NA,incomplete,false,NA,NA,true,1,3,NA,NA,NA,left,m_s_067.jpg,yellow,white,NA,NA,NA,NA,NA,NA,NA,NA,NA,NaN,NA,2151.3999999910593,right,0,NA,NA,NA,NA,NA
E35UoQWC,3bakuke4akpi45n0y93n6zfn3q3r1f,3q5c1wp23qevm2nws4vmsi6jflo156,E35UoQWC,2020-0188,2021-10-31,07:54:07,09:11:46,NA,incomplete,false,NA,NA,true,1,4,NA,NA,NA,left,n_s_047.jpg,red,orange,NA,NA,NA,NA,NA,NA,NA,NA,NA,NaN,NA,3327.800000011921,left,1,NA,NA,NA,NA,NA
E35UoQWC,3bakuke4akpi45n0y93n6zfn3q3r1f,3q5c1wp23qevm2nws4vmsi6jflo156,E35UoQWC,2020-0188,2021-10-31,07:54:07,09:11:46,NA,incomplete,false,NA,NA,true,1,5,NA,NA,NA,right,m_l_095.jpg,orange,red,NA,NA,NA,NA,NA,NA,NA,NA,NA,NaN,NA,4361,left,0,NA,NA,NA,NA,NA
E35UoQWC,3bakuke4akpi45n0y93n6zfn3q3r1f,3q5c1wp23qevm2nws4vmsi6jflo156,E35UoQWC,2020-0188,2021-10-31,07:54:07,09:11:46,NA,incomplete,false,NA,NA,true,1,6,NA,NA,NA,right,n_l_027.jpg,white,red,NA,NA,NA,NA,NA,NA,NA,NA,NA,NaN,NA,5248.5999999940395,right,1,NA,NA,NA,NA,NA
E35UoQWC,3bakuke4akpi45n0y93n6zfn3q3r1f,3q5c1wp23qevm2nws4vmsi6jflo156,E35UoQWC,2020-0188,2021-10-31,07:54:07,09:11:46,NA,incomplete,false,NA,NA,true,1,7,NA,NA,NA,right,m_s_071.jpg,white,yellow,NA,NA,NA,NA,NA,NA,NA,NA,NA,NaN,NA,4134.9000000059605,left,0,NA,NA,NA,NA,NA
E35UoQWC,3bakuke4akpi45n0y93n6zfn3q3r1f,3q5c1wp23qevm2nws4vmsi6jflo156,E35UoQWC,2020-0188,2021-10-31,07:54:07,09:11:46,NA,incomplete,false,NA,NA,true,1,8,NA,NA,NA,right,m_s_046.jpg,red,white,NA,NA,NA,NA,NA,NA,NA,NA,NA,NaN,NA,2591.2000000029802,right,1,NA,NA,NA,NA,NA
E35UoQWC,3bakuke4akpi45n0y93n6zfn3q3r1f,3q5c1wp23qevm2nws4vmsi6jflo156,E35UoQWC,2020-0188,2021-10-31,07:54:07,09:11:46,NA,incomplete,false,NA,NA,true,1,9,NA,NA,NA,right,m_l_113.jpg,red,orange,NA,NA,NA,NA,NA,NA,NA,NA,NA,NaN,NA,2703.2999999970198,right,1,NA,NA,NA,NA,NA
E35UoQWC,3bakuke4akpi45n0y93n6zfn3q3r1f,3q5c1wp23qevm2nws4vmsi6jflo156,E35UoQWC,2020-0188,2021-10-31,07:54:07,09:11:46,NA,incomplete,false,NA,NA,true,1,10,NA,NA,NA,left,n_s_031.jpg,orange,brown,NA,NA,NA,NA,NA,NA,NA,NA,NA,NaN,NA,2631.5,left,1,NA,NA,NA,NA,NA
E35UoQWC,3bakuke4akpi45n0y93n6zfn3q3r1f,3q5c1wp23qevm2nws4vmsi6jflo156,E35UoQWC,2020-0188,2021-10-31,07:54:07,09:11:46,NA,incomplete,false,NA,NA,true,1,11,NA,NA,NA,left,m_l_079.jpg,yellow,white,NA,NA,NA,NA,NA,NA,NA,NA,NA,NaN,NA,4391.79999999702,right,0,NA,NA,NA,NA,NA
E35UoQWC,3bakuke4akpi45n0y93n6zfn3q3r1f,3q5c1wp23qevm2nws4vmsi6jflo156,E35UoQWC,2020-0188,2021-10-31,07:54:07,09:11:46,NA,incomplete,false,NA,NA,true,1,12,NA,NA,NA,right,m_s_015.jpg,red,orange,NA,NA,NA,NA,NA,NA,NA,NA,NA,NaN,NA,2038.800000011921,right,1,NA,NA,NA,NA,NA
E35UoQWC,3bakuke4akpi45n0y93n6zfn3q3r1f,3q5c1wp23qevm2nws4vmsi6jflo156,E35UoQWC,2020-0188,2021-10-31,07:54:07,09:11:46,NA,incomplete,false,NA,NA,true,1,13,NA,NA,NA,right,n_s_068.jpg,gray,brown,NA,NA,NA,NA,NA,NA,NA,NA,NA,NaN,NA,2327.4000000059605,left,0,NA,NA,NA,NA,NA
E35UoQWC,3bakuke4akpi45n0y93n6zfn3q3r1f,3q5c1wp23qevm2nws4vmsi6jflo156,E35UoQWC,2020-0188,2021-10-31,07:54:07,09:11:46,NA,incomplete,false,NA,NA,true,1,14,NA,NA,NA,left,m_l_031.jpg,gray,brown,NA,NA,NA,NA,NA,NA,NA,NA,NA,NaN,NA,1896.2999999970198,left,1,NA,NA,NA,NA,NA
E35UoQWC,3bakuke4akpi45n0y93n6zfn3q3r1f,3q5c1wp23qevm2nws4vmsi6jflo156,E35UoQWC,2020-0188,2021-10-31,07:54:07,09:11:46,NA,incomplete,false,NA,NA,true,1,15,NA,NA,NA,right,m_l_109.jpg,brown,gray,NA,NA,NA,NA,NA,NA,NA,NA,NA,NaN,NA,3016.199999988079,left,0,NA,NA,NA,NA,NA
E35UoQWC,3bakuke4akpi45n0y93n6zfn3q3r1f,3q5c1wp23qevm2nws4vmsi6jflo156,E35UoQWC,2020-0188,2021-10-31,07:54:07,09:11:46,NA,incomplete,false,NA,NA,true,1,16,NA,NA,NA,left,n_l_115.jpg,orange,brown,NA,NA,NA,NA,NA,NA,NA,NA,NA,NaN,NA,2600.1000000089407,left,1,NA,NA,NA,NA,NA
E35UoQWC,3bakuke4akpi45n0y93n6zfn3q3r1f,3q5c1wp23qevm2nws4vmsi6jflo156,E35UoQWC,2020-0188,2021-10-31,07:54:07,09:11:46,NA,incomplete,false,NA,NA,true,1,17,NA,NA,NA,right,n_l_004.jpg,gray,brown,NA,NA,NA,NA,NA,NA,NA,NA,NA,NaN,NA,2039.5,left,0,NA,NA,NA,NA,NA
E35UoQWC,3bakuke4akpi45n0y93n6zfn3q3r1f,3q5c1wp23qevm2nws4vmsi6jflo156,E35UoQWC,2020-0188,2021-10-31,07:54:07,09:11:46,NA,incomplete,false,NA,NA,true,1,18,NA,NA,NA,left,n_s_034.jpg,white,yellow,NA,NA,NA,NA,NA,NA,NA,NA,NA,NaN,NA,2783.9000000059605,left,1,NA,NA,NA,NA,NA
E35UoQWC,3bakuke4akpi45n0y93n6zfn3q3r1f,3q5c1wp23qevm2nws4vmsi6jflo156,E35UoQWC,2020-0188,2021-10-31,07:54:07,09:11:46,NA,incomplete,false,NA,NA,true,1,19,NA,NA,NA,right,n_l_074.jpg,orange,brown,NA,NA,NA,NA,NA,NA,NA,NA,NA,NaN,NA,2295.7000000029802,right,1,NA,NA,NA,NA,NA
E35UoQWC,3bakuke4akpi45n0y93n6zfn3q3r1f,3q5c1wp23qevm2nws4vmsi6jflo156,E35UoQWC,2020-0188,2021-10-31,07:54:07,09:11:46,NA,incomplete,false,NA,NA,true,1,20,NA,NA,NA,right,m_l_023.jpg,brown,gray,NA,NA,NA,NA,NA,NA,NA,NA,NA,NaN,NA,2343.7999999970198,left,0,NA,NA,NA,NA,NA
E35UoQWC,3bakuke4akpi45n0y93n6zfn3q3r1f,3q5c1wp23qevm2nws4vmsi6jflo156,E35UoQWC,2020-0188,2021-10-31,07:54:07,09:11:46,NA,incomplete,false,NA,NA,true,1,21,NA,NA,NA,left,m_s_022.jpg,white,red,NA,NA,NA,NA,NA,NA,NA,NA,NA,NaN,NA,1559.2000000029802,right,0,NA,NA,NA,NA,NA
E35UoQWC,3bakuke4akpi45n0y93n6zfn3q3r1f,3q5c1wp23qevm2nws4vmsi6jflo156,E35UoQWC,2020-0188,2021-10-31,07:54:07,09:11:46,NA,incomplete,false,NA,true,NA,1,0,NA,NA,NA,left,NA,NA,NA,present,NA,NA,m_s_067.jpg,yellow,m_s_071.jpg,yellow,within,NA,NaN,NA,NA,NA,NA,left,4087.2000000029802,1,0,2063.8999999910593
E35UoQWC,3bakuke4akpi45n0y93n6zfn3q3r1f,3q5c1wp23qevm2nws4vmsi6jflo156,E35UoQWC,2020-0188,2021-10-31,07:54:07,09:11:46,NA,incomplete,false,NA,true,NA,1,1,NA,NA,NA,right,NA,NA,NA,present,NA,NA,m_s_022.jpg,white,m_l_041.jpg,white,within,NA,NaN,NA,NA,NA,NA,right,3278.7000000029802,1,0,1463.1000000089407
E35UoQWC,3bakuke4akpi45n0y93n6zfn3q3r1f,3q5c1wp23qevm2nws4vmsi6jflo156,E35UoQWC,2020-0188,2021-10-31,07:54:07,09:11:46,NA,incomplete,false,NA,true,NA,1,2,NA,NA,NA,right,NA,NA,NA,present,NA,NA,m_s_117.jpg,red,m_s_015.jpg,orange,between,NA,NaN,NA,NA,NA,NA,right,2695.2999999970198,1,2,1623.7000000029802
E35UoQWC,3bakuke4akpi45n0y93n6zfn3q3r1f,3q5c1wp23qevm2nws4vmsi6jflo156,E35UoQWC,2020-0188,2021-10-31,07:54:07,09:11:46,NA,incomplete,false,NA,true,NA,1,3,NA,NA,NA,left,NA,NA,NA,present,NA,NA,m_l_113.jpg,orange,n_s_031.jpg,orange,within,NA,NaN,NA,NA,NA,NA,left,2599.3999999910593,1,0,1335.2999999970198
E35UoQWC,3bakuke4akpi45n0y93n6zfn3q3r1f,3q5c1wp23qevm2nws4vmsi6jflo156,E35UoQWC,2020-0188,2021-10-31,07:54:07,09:11:46,NA,incomplete,false,NA,true,NA,1,4,NA,NA,NA,right,NA,NA,NA,present,NA,NA,m_l_023.jpg,gray,m_l_031.jpg,gray,within,NA,NaN,NA,NA,NA,NA,right,3472.1000000089407,1,0,1287.5999999940395
E35UoQWC,3bakuke4akpi45n0y93n6zfn3q3r1f,3q5c1wp23qevm2nws4vmsi6jflo156,E35UoQWC,2020-0188,2021-10-31,07:54:07,09:11:46,NA,incomplete,false,NA,true,NA,1,5,NA,NA,NA,right,NA,NA,NA,present,NA,NA,m_s_046.jpg,white,n_l_027.jpg,red,between,NA,NaN,NA,NA,NA,NA,right,2455.5,1,2,1431.4000000059605
E35UoQWC,3bakuke4akpi45n0y93n6zfn3q3r1f,3q5c1wp23qevm2nws4vmsi6jflo156,E35UoQWC,2020-0188,2021-10-31,07:54:07,09:11:46,NA,incomplete,false,NA,true,NA,1,6,NA,NA,NA,left,NA,NA,NA,present,NA,NA,n_s_047.jpg,red,m_l_095.jpg,red,within,NA,NaN,NA,NA,NA,NA,right,2159.3999999910593,0,0,1343.7000000029802
E35UoQWC,3bakuke4akpi45n0y93n6zfn3q3r1f,3q5c1wp23qevm2nws4vmsi6jflo156,E35UoQWC,2020-0188,2021-10-31,07:54:07,09:11:46,NA,incomplete,false,NA,true,NA,1,7,NA,NA,NA,right,NA,NA,NA,present,NA,NA,n_l_115.jpg,orange,n_s_068.jpg,brown,between,NA,NaN,NA,NA,NA,NA,right,2479,1,2,1647.7000000029802
E35UoQWC,3bakuke4akpi45n0y93n6zfn3q3r1f,3q5c1wp23qevm2nws4vmsi6jflo156,E35UoQWC,2020-0188,2021-10-31,07:54:07,09:11:46,NA,incomplete,false,NA,true,NA,1,8,NA,NA,NA,left,NA,NA,NA,present,NA,NA,m_l_109.jpg,gray,n_l_074.jpg,brown,between,NA,NaN,NA,NA,NA,NA,right,2823.2000000029802,0,2,1959.1000000089407
E35UoQWC,3bakuke4akpi45n0y93n6zfn3q3r1f,3q5c1wp23qevm2nws4vmsi6jflo156,E35UoQWC,2020-0188,2021-10-31,07:54:07,09:11:46,NA,incomplete,false,NA,true,NA,1,9,NA,NA,NA,left,NA,NA,NA,present,NA,NA,n_s_009.jpg,brown,n_l_004.jpg,brown,within,NA,NaN,NA,NA,NA,NA,left,2992.5,1,0,1351.5999999940395
E35UoQWC,3bakuke4akpi45n0y93n6zfn3q3r1f,3q5c1wp23qevm2nws4vmsi6jflo156,E35UoQWC,2020-0188,2021-10-31,07:54:07,09:11:46,NA,incomplete,false,NA,true,NA,1,10,NA,NA,NA,right,NA,NA,NA,present,NA,NA,m_l_079.jpg,yellow,n_s_034.jpg,white,between,NA,NaN,NA,NA,NA,NA,right,7273.79999999702,1,2,1767.1000000089407
E35UoQWC,3bakuke4akpi45n0y93n6zfn3q3r1f,3q5c1wp23qevm2nws4vmsi6jflo156,E35UoQWC,2020-0188,2021-10-31,07:54:07,09:11:46,NA,incomplete,false,true,NA,NA,2,0,NA,brown,m_s_034.jpg,NA,NA,NA,NA,NA,pleasant,unpleasant,NA,NA,NA,NA,NA,left,1911.79999999702,true,NA,NA,NA,NA,NA,NA,NA,NA
E35UoQWC,3bakuke4akpi45n0y93n6zfn3q3r1f,3q5c1wp23qevm2nws4vmsi6jflo156,E35UoQWC,2020-0188,2021-10-31,07:54:07,09:11:46,NA,incomplete,false,true,NA,NA,2,1,NA,brown,n_l_107.jpg,NA,NA,NA,NA,NA,unpleasant,pleasant,NA,NA,NA,NA,NA,left,2648.5,true,NA,NA,NA,NA,NA,NA,NA,NA
E35UoQWC,3bakuke4akpi45n0y93n6zfn3q3r1f,3q5c1wp23qevm2nws4vmsi6jflo156,E35UoQWC,2020-0188,2021-10-31,07:54:07,09:11:46,NA,incomplete,false,true,NA,NA,2,2,NA,brown,m_s_038.jpg,NA,NA,NA,NA,NA,unpleasant,pleasant,NA,NA,NA,NA,NA,none,0,false,NA,NA,NA,NA,NA,NA,NA,NA
E35UoQWC,3bakuke4akpi45n0y93n6zfn3q3r1f,3q5c1wp23qevm2nws4vmsi6jflo156,E35UoQWC,2020-0188,2021-10-31,07:54:07,09:11:46,NA,incomplete,false,true,NA,NA,2,3,NA,brown,m_l_012.jpg,NA,NA,NA,NA,NA,unpleasant,pleasant,NA,NA,NA,NA,NA,left,1169.09999999404,true,NA,NA,NA,NA,NA,NA,NA,NA
E35UoQWC,3bakuke4akpi45n0y93n6zfn3q3r1f,3q5c1wp23qevm2nws4vmsi6jflo156,E35UoQWC,2020-0188,2021-10-31,07:54:07,09:11:46,NA,incomplete,false,true,NA,NA,2,4,NA,brown,n_l_081.jpg,NA,NA,NA,NA,NA,pleasant,unpleasant,NA,NA,NA,NA,NA,right,2039,true,NA,NA,NA,NA,NA,NA,NA,NA
E35UoQWC,3bakuke4akpi45n0y93n6zfn3q3r1f,3q5c1wp23qevm2nws4vmsi6jflo156,E35UoQWC,2020-0188,2021-10-31,07:54:07,09:11:46,NA,incomplete,false,true,NA,NA,2,5,NA,brown,n_s_113.jpg,NA,NA,NA,NA,NA,unpleasant,pleasant,NA,NA,NA,NA,NA,left,1359.09999999404,true,NA,NA,NA,NA,NA,NA,NA,NA
E35UoQWC,3bakuke4akpi45n0y93n6zfn3q3r1f,3q5c1wp23qevm2nws4vmsi6jflo156,E35UoQWC,2020-0188,2021-10-31,07:54:07,09:11:46,NA,incomplete,false,true,NA,NA,2,6,NA,gray,n_l_070.jpg,NA,NA,NA,NA,NA,pleasant,unpleasant,NA,NA,NA,NA,NA,right,2163.20000000298,true,NA,NA,NA,NA,NA,NA,NA,NA
E35UoQWC,3bakuke4akpi45n0y93n6zfn3q3r1f,3q5c1wp23qevm2nws4vmsi6jflo156,E35UoQWC,2020-0188,2021-10-31,07:54:07,09:11:46,NA,incomplete,false,true,NA,NA,2,7,NA,gray,m_l_015.jpg,NA,NA,NA,NA,NA,unpleasant,pleasant,NA,NA,NA,NA,NA,right,2149.39999999106,true,NA,NA,NA,NA,NA,NA,NA,NA
E35UoQWC,3bakuke4akpi45n0y93n6zfn3q3r1f,3q5c1wp23qevm2nws4vmsi6jflo156,E35UoQWC,2020-0188,2021-10-31,07:54:07,09:11:46,NA,incomplete,false,true,NA,NA,2,8,NA,gray,m_l_019.jpg,NA,NA,NA,NA,NA,pleasant,unpleasant,NA,NA,NA,NA,NA,left,2012.40000000596,true,NA,NA,NA,NA,NA,NA,NA,NA
E35UoQWC,3bakuke4akpi45n0y93n6zfn3q3r1f,3q5c1wp23qevm2nws4vmsi6jflo156,E35UoQWC,2020-0188,2021-10-31,07:54:07,09:11:46,NA,incomplete,false,true,NA,NA,2,9,NA,gray,m_s_051.jpg,NA,NA,NA,NA,NA,unpleasant,pleasant,NA,NA,NA,NA,NA,right,2288.59999999404,true,NA,NA,NA,NA,NA,NA,NA,NA
E35UoQWC,3bakuke4akpi45n0y93n6zfn3q3r1f,3q5c1wp23qevm2nws4vmsi6jflo156,E35UoQWC,2020-0188,2021-10-31,07:54:07,09:11:46,NA,incomplete,false,true,NA,NA,2,10,NA,gray,m_s_002.jpg,NA,NA,NA,NA,NA,unpleasant,pleasant,NA,NA,NA,NA,NA,right,2156.10000000894,true,NA,NA,NA,NA,NA,NA,NA,NA
E35UoQWC,3bakuke4akpi45n0y93n6zfn3q3r1f,3q5c1wp23qevm2nws4vmsi6jflo156,E35UoQWC,2020-0188,2021-10-31,07:54:07,09:11:46,NA,incomplete,false,true,NA,NA,2,11,NA,gray,m_s_062.jpg,NA,NA,NA,NA,NA,unpleasant,pleasant,NA,NA,NA,NA,NA,right,1151.79999999702,true,NA,NA,NA,NA,NA,NA,NA,NA
E35UoQWC,3bakuke4akpi45n0y93n6zfn3q3r1f,3q5c1wp23qevm2nws4vmsi6jflo156,E35UoQWC,2020-0188,2021-10-31,07:54:07,09:11:46,NA,incomplete,false,true,NA,NA,2,12,NA,green,m_s_042.jpg,NA,NA,NA,NA,NA,unpleasant,pleasant,NA,NA,NA,NA,NA,left,1846.90000000596,true,NA,NA,NA,NA,NA,NA,NA,NA
E35UoQWC,3bakuke4akpi45n0y93n6zfn3q3r1f,3q5c1wp23qevm2nws4vmsi6jflo156,E35UoQWC,2020-0188,2021-10-31,07:54:07,09:11:46,NA,incomplete,false,true,NA,NA,2,13,NA,green,m_l_057.jpg,NA,NA,NA,NA,NA,unpleasant,pleasant,NA,NA,NA,NA,NA,left,2726,true,NA,NA,NA,NA,NA,NA,NA,NA
E35UoQWC,3bakuke4akpi45n0y93n6zfn3q3r1f,3q5c1wp23qevm2nws4vmsi6jflo156,E35UoQWC,2020-0188,2021-10-31,07:54:07,09:11:46,NA,incomplete,false,true,NA,NA,2,14,NA,green,n_l_035.jpg,NA,NA,NA,NA,NA,unpleasant,pleasant,NA,NA,NA,NA,NA,left,1362.5,true,NA,NA,NA,NA,NA,NA,NA,NA
E35UoQWC,3bakuke4akpi45n0y93n6zfn3q3r1f,3q5c1wp23qevm2nws4vmsi6jflo156,E35UoQWC,2020-0188,2021-10-31,07:54:07,09:11:46,NA,incomplete,false,true,NA,NA,2,15,NA,green,n_l_102.jpg,NA,NA,NA,NA,NA,unpleasant,pleasant,NA,NA,NA,NA,NA,right,2897.89999999106,true,NA,NA,NA,NA,NA,NA,NA,NA
E35UoQWC,3bakuke4akpi45n0y93n6zfn3q3r1f,3q5c1wp23qevm2nws4vmsi6jflo156,E35UoQWC,2020-0188,2021-10-31,07:54:07,09:11:46,NA,incomplete,false,true,NA,NA,2,16,NA,green,n_l_083.jpg,NA,NA,NA,NA,NA,unpleasant,pleasant,NA,NA,NA,NA,NA,left,1203.5,true,NA,NA,NA,NA,NA,NA,NA,NA
E35UoQWC,3bakuke4akpi45n0y93n6zfn3q3r1f,3q5c1wp23qevm2nws4vmsi6jflo156,E35UoQWC,2020-0188,2021-10-31,07:54:07,09:11:46,NA,incomplete,false,true,NA,NA,2,17,NA,green,n_s_053.jpg,NA,NA,NA,NA,NA,unpleasant,pleasant,NA,NA,NA,NA,NA,left,1942.79999999702,true,NA,NA,NA,NA,NA,NA,NA,NA
E35UoQWC,3bakuke4akpi45n0y93n6zfn3q3r1f,3q5c1wp23qevm2nws4vmsi6jflo156,E35UoQWC,2020-0188,2021-10-31,07:54:07,09:11:46,NA,incomplete,false,true,NA,NA,2,18,NA,purple,n_l_073.jpg,NA,NA,NA,NA,NA,unpleasant,pleasant,NA,NA,NA,NA,NA,left,3246.70000000298,true,NA,NA,NA,NA,NA,NA,NA,NA
E35UoQWC,3bakuke4akpi45n0y93n6zfn3q3r1f,3q5c1wp23qevm2nws4vmsi6jflo156,E35UoQWC,2020-0188,2021-10-31,07:54:07,09:11:46,NA,incomplete,false,true,NA,NA,2,19,NA,purple,n_s_070.jpg,NA,NA,NA,NA,NA,pleasant,unpleasant,NA,NA,NA,NA,NA,right,1429.79999999702,true,NA,NA,NA,NA,NA,NA,NA,NA
E35UoQWC,3bakuke4akpi45n0y93n6zfn3q3r1f,3q5c1wp23qevm2nws4vmsi6jflo156,E35UoQWC,2020-0188,2021-10-31,07:54:07,09:11:46,NA,incomplete,false,true,NA,NA,2,20,NA,purple,m_s_075.jpg,NA,NA,NA,NA,NA,unpleasant,pleasant,NA,NA,NA,NA,NA,left,1178.79999999702,true,NA,NA,NA,NA,NA,NA,NA,NA
E35UoQWC,3bakuke4akpi45n0y93n6zfn3q3r1f,3q5c1wp23qevm2nws4vmsi6jflo156,E35UoQWC,2020-0188,2021-10-31,07:54:07,09:11:46,NA,incomplete,false,true,NA,NA,2,21,NA,purple,m_s_030.jpg,NA,NA,NA,NA,NA,unpleasant,pleasant,NA,NA,NA,NA,NA,left,1432.59999999404,true,NA,NA,NA,NA,NA,NA,NA,NA
E35UoQWC,3bakuke4akpi45n0y93n6zfn3q3r1f,3q5c1wp23qevm2nws4vmsi6jflo156,E35UoQWC,2020-0188,2021-10-31,07:54:07,09:11:46,NA,incomplete,false,true,NA,NA,2,22,NA,purple,m_s_019.jpg,NA,NA,NA,NA,NA,pleasant,unpleasant,NA,NA,NA,NA,NA,left,2148.29999999702,true,NA,NA,NA,NA,NA,NA,NA,NA
E35UoQWC,3bakuke4akpi45n0y93n6zfn3q3r1f,3q5c1wp23qevm2nws4vmsi6jflo156,E35UoQWC,2020-0188,2021-10-31,07:54:07,09:11:46,NA,incomplete,false,true,NA,NA,2,23,NA,purple,n_l_017.jpg,NA,NA,NA,NA,NA,pleasant,unpleasant,NA,NA,NA,NA,NA,right,2329.59999999404,true,NA,NA,NA,NA,NA,NA,NA,NA
E35UoQWC,3bakuke4akpi45n0y93n6zfn3q3r1f,3q5c1wp23qevm2nws4vmsi6jflo156,E35UoQWC,2020-0188,2021-10-31,07:54:07,09:11:46,NA,incomplete,false,true,NA,NA,2,24,NA,black,n_l_112.jpg,NA,NA,NA,NA,NA,pleasant,unpleasant,NA,NA,NA,NA,NA,right,3364.20000000298,true,NA,NA,NA,NA,NA,NA,NA,NA
E35UoQWC,3bakuke4akpi45n0y93n6zfn3q3r1f,3q5c1wp23qevm2nws4vmsi6jflo156,E35UoQWC,2020-0188,2021-10-31,07:54:07,09:11:46,NA,incomplete,false,true,NA,NA,2,25,NA,black,m_l_030.jpg,NA,NA,NA,NA,NA,unpleasant,pleasant,NA,NA,NA,NA,NA,right,1825,true,NA,NA,NA,NA,NA,NA,NA,NA
E35UoQWC,3bakuke4akpi45n0y93n6zfn3q3r1f,3q5c1wp23qevm2nws4vmsi6jflo156,E35UoQWC,2020-0188,2021-10-31,07:54:07,09:11:46,NA,incomplete,false,true,NA,NA,2,26,NA,black,n_l_021.jpg,NA,NA,NA,NA,NA,pleasant,unpleasant,NA,NA,NA,NA,NA,left,1050.60000000894,true,NA,NA,NA,NA,NA,NA,NA,NA
E35UoQWC,3bakuke4akpi45n0y93n6zfn3q3r1f,3q5c1wp23qevm2nws4vmsi6jflo156,E35UoQWC,2020-0188,2021-10-31,07:54:07,09:11:46,NA,incomplete,false,true,NA,NA,2,27,NA,black,n_s_096.jpg,NA,NA,NA,NA,NA,pleasant,unpleasant,NA,NA,NA,NA,NA,left,849.899999991059,true,NA,NA,NA,NA,NA,NA,NA,NA
E35UoQWC,3bakuke4akpi45n0y93n6zfn3q3r1f,3q5c1wp23qevm2nws4vmsi6jflo156,E35UoQWC,2020-0188,2021-10-31,07:54:07,09:11:46,NA,incomplete,false,true,NA,NA,2,28,NA,black,m_l_063.jpg,NA,NA,NA,NA,NA,unpleasant,pleasant,NA,NA,NA,NA,NA,right,1339.60000000894,true,NA,NA,NA,NA,NA,NA,NA,NA
E35UoQWC,3bakuke4akpi45n0y93n6zfn3q3r1f,3q5c1wp23qevm2nws4vmsi6jflo156,E35UoQWC,2020-0188,2021-10-31,07:54:07,09:11:46,NA,incomplete,false,true,NA,NA,2,29,NA,black,m_l_052.jpg,NA,NA,NA,NA,NA,unpleasant,pleasant,NA,NA,NA,NA,NA,right,1021.60000000894,true,NA,NA,NA,NA,NA,NA,NA,NA
E35UoQWC,3bakuke4akpi45n0y93n6zfn3q3r1f,3q5c1wp23qevm2nws4vmsi6jflo156,E35UoQWC,2020-0188,2021-10-31,07:54:07,09:11:46,NA,incomplete,false,true,NA,NA,2,30,NA,blue,n_s_092.jpg,NA,NA,NA,NA,NA,pleasant,unpleasant,NA,NA,NA,NA,NA,left,2464.70000000298,true,NA,NA,NA,NA,NA,NA,NA,NA
E35UoQWC,3bakuke4akpi45n0y93n6zfn3q3r1f,3q5c1wp23qevm2nws4vmsi6jflo156,E35UoQWC,2020-0188,2021-10-31,07:54:07,09:11:46,NA,incomplete,false,true,NA,NA,2,31,NA,blue,m_l_070.jpg,NA,NA,NA,NA,NA,unpleasant,pleasant,NA,NA,NA,NA,NA,right,1481.20000000298,true,NA,NA,NA,NA,NA,NA,NA,NA
E35UoQWC,3bakuke4akpi45n0y93n6zfn3q3r1f,3q5c1wp23qevm2nws4vmsi6jflo156,E35UoQWC,2020-0188,2021-10-31,07:54:07,09:11:46,NA,incomplete,false,true,NA,NA,2,32,NA,blue,n_l_032.jpg,NA,NA,NA,NA,NA,pleasant,unpleasant,NA,NA,NA,NA,NA,left,1507.90000000596,true,NA,NA,NA,NA,NA,NA,NA,NA
E35UoQWC,3bakuke4akpi45n0y93n6zfn3q3r1f,3q5c1wp23qevm2nws4vmsi6jflo156,E35UoQWC,2020-0188,2021-10-31,07:54:07,09:11:46,NA,incomplete,false,true,NA,NA,2,33,NA,blue,n_l_116.jpg,NA,NA,NA,NA,NA,unpleasant,pleasant,NA,NA,NA,NA,NA,left,1359.19999998808,true,NA,NA,NA,NA,NA,NA,NA,NA
E35UoQWC,3bakuke4akpi45n0y93n6zfn3q3r1f,3q5c1wp23qevm2nws4vmsi6jflo156,E35UoQWC,2020-0188,2021-10-31,07:54:07,09:11:46,NA,incomplete,false,true,NA,NA,2,34,NA,blue,m_l_068.jpg,NA,NA,NA,NA,NA,pleasant,unpleasant,NA,NA,NA,NA,NA,right,2418.10000000894,true,NA,NA,NA,NA,NA,NA,NA,NA
E35UoQWC,3bakuke4akpi45n0y93n6zfn3q3r1f,3q5c1wp23qevm2nws4vmsi6jflo156,E35UoQWC,2020-0188,2021-10-31,07:54:07,09:11:46,NA,incomplete,false,true,NA,NA,2,35,NA,blue,n_l_061.jpg,NA,NA,NA,NA,NA,unpleasant,pleasant,NA,NA,NA,NA,NA,right,2417.29999999702,true,NA,NA,NA,NA,NA,NA,NA,NA
E35UoQWC,3bakuke4akpi45n0y93n6zfn3q3r1f,3q5c1wp23qevm2nws4vmsi6jflo156,E35UoQWC,2020-0188,2021-10-31,07:54:07,09:11:46,NA,incomplete,false,NA,NA,true,2,0,NA,NA,NA,right,m_l_030.jpg,blue,black,NA,NA,NA,NA,NA,NA,NA,NA,NA,NaN,NA,4239.20000000298,right,1,NA,NA,NA,NA,NA
E35UoQWC,3bakuke4akpi45n0y93n6zfn3q3r1f,3q5c1wp23qevm2nws4vmsi6jflo156,E35UoQWC,2020-0188,2021-10-31,07:54:07,09:11:46,NA,incomplete,false,NA,NA,true,2,1,NA,NA,NA,left,n_s_113.jpg,brown,gray,NA,NA,NA,NA,NA,NA,NA,NA,NA,NaN,NA,2359.5,left,1,NA,NA,NA,NA,NA
E35UoQWC,3bakuke4akpi45n0y93n6zfn3q3r1f,3q5c1wp23qevm2nws4vmsi6jflo156,E35UoQWC,2020-0188,2021-10-31,07:54:07,09:11:46,NA,incomplete,false,NA,NA,true,2,2,NA,NA,NA,left,n_s_070.jpg,purple,green,NA,NA,NA,NA,NA,NA,NA,NA,NA,NaN,NA,6802.4000000059605,left,1,NA,NA,NA,NA,NA
E35UoQWC,3bakuke4akpi45n0y93n6zfn3q3r1f,3q5c1wp23qevm2nws4vmsi6jflo156,E35UoQWC,2020-0188,2021-10-31,07:54:07,09:11:46,NA,incomplete,false,NA,NA,true,2,3,NA,NA,NA,left,n_s_053.jpg,green,purple,NA,NA,NA,NA,NA,NA,NA,NA,NA,NaN,NA,1663.5999999940395,right,0,NA,NA,NA,NA,NA
E35UoQWC,3bakuke4akpi45n0y93n6zfn3q3r1f,3q5c1wp23qevm2nws4vmsi6jflo156,E35UoQWC,2020-0188,2021-10-31,07:54:07,09:11:46,NA,incomplete,false,NA,NA,true,2,4,NA,NA,NA,right,m_l_019.jpg,brown,gray,NA,NA,NA,NA,NA,NA,NA,NA,NA,NaN,NA,1655.7000000029802,right,1,NA,NA,NA,NA,NA
E35UoQWC,3bakuke4akpi45n0y93n6zfn3q3r1f,3q5c1wp23qevm2nws4vmsi6jflo156,E35UoQWC,2020-0188,2021-10-31,07:54:07,09:11:46,NA,incomplete,false,NA,NA,true,2,5,NA,NA,NA,left,m_l_070.jpg,blue,black,NA,NA,NA,NA,NA,NA,NA,NA,NA,NaN,NA,6384.70000000298,left,1,NA,NA,NA,NA,NA
E35UoQWC,3bakuke4akpi45n0y93n6zfn3q3r1f,3q5c1wp23qevm2nws4vmsi6jflo156,E35UoQWC,2020-0188,2021-10-31,07:54:07,09:11:46,NA,incomplete,false,NA,NA,true,2,6,NA,NA,NA,left,n_l_083.jpg,green,purple,NA,NA,NA,NA,NA,NA,NA,NA,NA,NaN,NA,2191.5,right,0,NA,NA,NA,NA,NA
E35UoQWC,3bakuke4akpi45n0y93n6zfn3q3r1f,3q5c1wp23qevm2nws4vmsi6jflo156,E35UoQWC,2020-0188,2021-10-31,07:54:07,09:11:46,NA,incomplete,false,NA,NA,true,2,7,NA,NA,NA,right,n_l_021.jpg,purple,black,NA,NA,NA,NA,NA,NA,NA,NA,NA,NaN,NA,1663.7999999970198,right,1,NA,NA,NA,NA,NA
E35UoQWC,3bakuke4akpi45n0y93n6zfn3q3r1f,3q5c1wp23qevm2nws4vmsi6jflo156,E35UoQWC,2020-0188,2021-10-31,07:54:07,09:11:46,NA,incomplete,false,NA,NA,true,2,8,NA,NA,NA,left,n_l_061.jpg,blue,black,NA,NA,NA,NA,NA,NA,NA,NA,NA,NaN,NA,2039.2000000029802,right,0,NA,NA,NA,NA,NA
E35UoQWC,3bakuke4akpi45n0y93n6zfn3q3r1f,3q5c1wp23qevm2nws4vmsi6jflo156,E35UoQWC,2020-0188,2021-10-31,07:54:07,09:11:46,NA,incomplete,false,NA,NA,true,2,9,NA,NA,NA,right,n_l_107.jpg,gray,brown,NA,NA,NA,NA,NA,NA,NA,NA,NA,NaN,NA,2440.2999999970198,left,0,NA,NA,NA,NA,NA
E35UoQWC,3bakuke4akpi45n0y93n6zfn3q3r1f,3q5c1wp23qevm2nws4vmsi6jflo156,E35UoQWC,2020-0188,2021-10-31,07:54:07,09:11:46,NA,incomplete,false,NA,NA,true,2,10,NA,NA,NA,left,m_s_019.jpg,purple,black,NA,NA,NA,NA,NA,NA,NA,NA,NA,NaN,NA,3240,left,1,NA,NA,NA,NA,NA
E35UoQWC,3bakuke4akpi45n0y93n6zfn3q3r1f,3q5c1wp23qevm2nws4vmsi6jflo156,E35UoQWC,2020-0188,2021-10-31,07:54:07,09:11:46,NA,incomplete,false,NA,NA,true,2,11,NA,NA,NA,left,m_s_002.jpg,gray,green,NA,NA,NA,NA,NA,NA,NA,NA,NA,NaN,NA,2288.199999988079,left,1,NA,NA,NA,NA,NA
E35UoQWC,3bakuke4akpi45n0y93n6zfn3q3r1f,3q5c1wp23qevm2nws4vmsi6jflo156,E35UoQWC,2020-0188,2021-10-31,07:54:07,09:11:46,NA,incomplete,false,NA,NA,true,2,12,NA,NA,NA,right,n_l_081.jpg,gray,brown,NA,NA,NA,NA,NA,NA,NA,NA,NA,NaN,NA,1767.4000000059605,right,1,NA,NA,NA,NA,NA
E35UoQWC,3bakuke4akpi45n0y93n6zfn3q3r1f,3q5c1wp23qevm2nws4vmsi6jflo156,E35UoQWC,2020-0188,2021-10-31,07:54:07,09:11:46,NA,incomplete,false,NA,NA,true,2,13,NA,NA,NA,right,n_l_017.jpg,green,purple,NA,NA,NA,NA,NA,NA,NA,NA,NA,NaN,NA,2360.3999999910593,left,0,NA,NA,NA,NA,NA
E35UoQWC,3bakuke4akpi45n0y93n6zfn3q3r1f,3q5c1wp23qevm2nws4vmsi6jflo156,E35UoQWC,2020-0188,2021-10-31,07:54:07,09:11:46,NA,incomplete,false,NA,NA,true,2,14,NA,NA,NA,right,m_l_063.jpg,blue,black,NA,NA,NA,NA,NA,NA,NA,NA,NA,NaN,NA,1671.5,right,1,NA,NA,NA,NA,NA
E35UoQWC,3bakuke4akpi45n0y93n6zfn3q3r1f,3q5c1wp23qevm2nws4vmsi6jflo156,E35UoQWC,2020-0188,2021-10-31,07:54:07,09:11:46,NA,incomplete,false,NA,NA,true,2,15,NA,NA,NA,left,n_l_035.jpg,green,purple,NA,NA,NA,NA,NA,NA,NA,NA,NA,NaN,NA,4256.100000008941,right,0,NA,NA,NA,NA,NA
E35UoQWC,3bakuke4akpi45n0y93n6zfn3q3r1f,3q5c1wp23qevm2nws4vmsi6jflo156,E35UoQWC,2020-0188,2021-10-31,07:54:07,09:11:46,NA,incomplete,false,NA,NA,true,2,16,NA,NA,NA,right,m_l_057.jpg,gray,green,NA,NA,NA,NA,NA,NA,NA,NA,NA,NaN,NA,2616.2000000029802,left,0,NA,NA,NA,NA,NA
E35UoQWC,3bakuke4akpi45n0y93n6zfn3q3r1f,3q5c1wp23qevm2nws4vmsi6jflo156,E35UoQWC,2020-0188,2021-10-31,07:54:07,09:11:46,NA,incomplete,false,NA,NA,true,2,17,NA,NA,NA,right,m_s_062.jpg,green,gray,NA,NA,NA,NA,NA,NA,NA,NA,NA,NaN,NA,1711.2999999970198,right,1,NA,NA,NA,NA,NA
E35UoQWC,3bakuke4akpi45n0y93n6zfn3q3r1f,3q5c1wp23qevm2nws4vmsi6jflo156,E35UoQWC,2020-0188,2021-10-31,07:54:07,09:11:46,NA,incomplete,false,NA,NA,true,2,18,NA,NA,NA,right,n_l_032.jpg,black,blue,NA,NA,NA,NA,NA,NA,NA,NA,NA,NaN,NA,1679.3999999910593,right,1,NA,NA,NA,NA,NA
E35UoQWC,3bakuke4akpi45n0y93n6zfn3q3r1f,3q5c1wp23qevm2nws4vmsi6jflo156,E35UoQWC,2020-0188,2021-10-31,07:54:07,09:11:46,NA,incomplete,false,NA,NA,true,2,19,NA,NA,NA,left,m_l_052.jpg,black,purple,NA,NA,NA,NA,NA,NA,NA,NA,NA,NaN,NA,1903.5999999940395,left,1,NA,NA,NA,NA,NA
E35UoQWC,3bakuke4akpi45n0y93n6zfn3q3r1f,3q5c1wp23qevm2nws4vmsi6jflo156,E35UoQWC,2020-0188,2021-10-31,07:54:07,09:11:46,NA,incomplete,false,NA,NA,true,2,20,NA,NA,NA,left,m_l_015.jpg,gray,green,NA,NA,NA,NA,NA,NA,NA,NA,NA,NaN,NA,1871.5,left,1,NA,NA,NA,NA,NA
E35UoQWC,3bakuke4akpi45n0y93n6zfn3q3r1f,3q5c1wp23qevm2nws4vmsi6jflo156,E35UoQWC,2020-0188,2021-10-31,07:54:07,09:11:46,NA,incomplete,false,NA,NA,true,2,21,NA,NA,NA,right,m_s_075.jpg,green,purple,NA,NA,NA,NA,NA,NA,NA,NA,NA,NaN,NA,1623.0999999940395,right,1,NA,NA,NA,NA,NA
E35UoQWC,3bakuke4akpi45n0y93n6zfn3q3r1f,3q5c1wp23qevm2nws4vmsi6jflo156,E35UoQWC,2020-0188,2021-10-31,07:54:07,09:11:46,NA,incomplete,false,NA,true,NA,2,0,NA,NA,NA,left,NA,NA,NA,present,NA,NA,n_l_081.jpg,brown,m_l_019.jpg,gray,between,NA,NaN,NA,NA,NA,NA,right,4672.0999999940395,0,2,2160.300000011921
E35UoQWC,3bakuke4akpi45n0y93n6zfn3q3r1f,3q5c1wp23qevm2nws4vmsi6jflo156,E35UoQWC,2020-0188,2021-10-31,07:54:07,09:11:46,NA,incomplete,false,NA,true,NA,2,1,NA,NA,NA,right,NA,NA,NA,present,NA,NA,n_l_061.jpg,blue,m_l_070.jpg,blue,within,NA,NaN,NA,NA,NA,NA,left,7272.699999988079,0,0,1231.6000000089407
E35UoQWC,3bakuke4akpi45n0y93n6zfn3q3r1f,3q5c1wp23qevm2nws4vmsi6jflo156,E35UoQWC,2020-0188,2021-10-31,07:54:07,09:11:46,NA,incomplete,false,NA,true,NA,2,2,NA,NA,NA,left,NA,NA,NA,present,NA,NA,n_l_107.jpg,brown,n_s_113.jpg,brown,within,NA,NaN,NA,NA,NA,NA,left,3367.1000000089407,1,0,1743
E35UoQWC,3bakuke4akpi45n0y93n6zfn3q3r1f,3q5c1wp23qevm2nws4vmsi6jflo156,E35UoQWC,2020-0188,2021-10-31,07:54:07,09:11:46,NA,incomplete,false,NA,true,NA,2,3,NA,NA,NA,right,NA,NA,NA,present,NA,NA,n_s_053.jpg,green,m_l_057.jpg,green,within,NA,NaN,NA,NA,NA,NA,right,4512.0999999940395,1,0,1310.800000011921
E35UoQWC,3bakuke4akpi45n0y93n6zfn3q3r1f,3q5c1wp23qevm2nws4vmsi6jflo156,E35UoQWC,2020-0188,2021-10-31,07:54:07,09:11:46,NA,incomplete,false,NA,true,NA,2,4,NA,NA,NA,left,NA,NA,NA,present,NA,NA,m_s_002.jpg,gray,n_l_035.jpg,green,between,NA,NaN,NA,NA,NA,NA,left,5191.20000000298,1,2,1735.2999999970198
E35UoQWC,3bakuke4akpi45n0y93n6zfn3q3r1f,3q5c1wp23qevm2nws4vmsi6jflo156,E35UoQWC,2020-0188,2021-10-31,07:54:07,09:11:46,NA,incomplete,false,NA,true,NA,2,5,NA,NA,NA,left,NA,NA,NA,present,NA,NA,m_l_030.jpg,black,m_l_052.jpg,black,within,NA,NaN,NA,NA,NA,NA,left,3808.2999999970198,1,0,1494.8999999910593
E35UoQWC,3bakuke4akpi45n0y93n6zfn3q3r1f,3q5c1wp23qevm2nws4vmsi6jflo156,E35UoQWC,2020-0188,2021-10-31,07:54:07,09:11:46,NA,incomplete,false,NA,true,NA,2,6,NA,NA,NA,right,NA,NA,NA,present,NA,NA,m_s_075.jpg,purple,n_l_083.jpg,green,between,NA,NaN,NA,NA,NA,NA,left,4632.100000008941,0,2,1367.5
E35UoQWC,3bakuke4akpi45n0y93n6zfn3q3r1f,3q5c1wp23qevm2nws4vmsi6jflo156,E35UoQWC,2020-0188,2021-10-31,07:54:07,09:11:46,NA,incomplete,false,NA,true,NA,2,7,NA,NA,NA,right,NA,NA,NA,present,NA,NA,m_s_062.jpg,gray,m_l_015.jpg,gray,within,NA,NaN,NA,NA,NA,NA,right,2150,1,0,1192.9000000059605
E35UoQWC,3bakuke4akpi45n0y93n6zfn3q3r1f,3q5c1wp23qevm2nws4vmsi6jflo156,E35UoQWC,2020-0188,2021-10-31,07:54:07,09:11:46,NA,incomplete,false,NA,true,NA,2,8,NA,NA,NA,left,NA,NA,NA,present,NA,NA,n_s_070.jpg,purple,n_l_017.jpg,purple,within,NA,NaN,NA,NA,NA,NA,left,3776.5,1,0,1248.2000000029802
E35UoQWC,3bakuke4akpi45n0y93n6zfn3q3r1f,3q5c1wp23qevm2nws4vmsi6jflo156,E35UoQWC,2020-0188,2021-10-31,07:54:07,09:11:46,NA,incomplete,false,NA,true,NA,2,9,NA,NA,NA,left,NA,NA,NA,present,NA,NA,m_l_063.jpg,black,n_l_032.jpg,blue,between,NA,NaN,NA,NA,NA,NA,left,4000.5,1,2,1302.2000000029802
E35UoQWC,3bakuke4akpi45n0y93n6zfn3q3r1f,3q5c1wp23qevm2nws4vmsi6jflo156,E35UoQWC,2020-0188,2021-10-31,07:54:07,09:11:46,NA,incomplete,false,NA,true,NA,2,10,NA,NA,NA,left,NA,NA,NA,present,NA,NA,m_s_019.jpg,purple,n_l_021.jpg,black,between,NA,NaN,NA,NA,NA,NA,left,2671.7000000029802,1,2,1430.7000000029802
E35UoQWC,3bakuke4akpi45n0y93n6zfn3q3r1f,3q5c1wp23qevm2nws4vmsi6jflo156,E35UoQWC,2020-0188,2021-10-31,07:54:07,09:11:46,NA,incomplete,false,true,NA,NA,3,0,NA,orange,m_l_033.jpg,NA,NA,NA,NA,NA,unpleasant,pleasant,NA,NA,NA,NA,NA,left,2990.70000000298,true,NA,NA,NA,NA,NA,NA,NA,NA
E35UoQWC,3bakuke4akpi45n0y93n6zfn3q3r1f,3q5c1wp23qevm2nws4vmsi6jflo156,E35UoQWC,2020-0188,2021-10-31,07:54:07,09:11:46,NA,incomplete,false,true,NA,NA,3,1,NA,orange,n_s_110.jpg,NA,NA,NA,NA,NA,unpleasant,pleasant,NA,NA,NA,NA,NA,left,1884.29999999702,true,NA,NA,NA,NA,NA,NA,NA,NA
E35UoQWC,3bakuke4akpi45n0y93n6zfn3q3r1f,3q5c1wp23qevm2nws4vmsi6jflo156,E35UoQWC,2020-0188,2021-10-31,07:54:07,09:11:46,NA,incomplete,false,true,NA,NA,3,2,NA,orange,m_l_104.jpg,NA,NA,NA,NA,NA,unpleasant,pleasant,NA,NA,NA,NA,NA,left,1685.60000000894,true,NA,NA,NA,NA,NA,NA,NA,NA
E35UoQWC,3bakuke4akpi45n0y93n6zfn3q3r1f,3q5c1wp23qevm2nws4vmsi6jflo156,E35UoQWC,2020-0188,2021-10-31,07:54:07,09:11:46,NA,incomplete,false,true,NA,NA,3,3,NA,orange,n_s_094.jpg,NA,NA,NA,NA,NA,pleasant,unpleasant,NA,NA,NA,NA,NA,left,3194.29999999702,true,NA,NA,NA,NA,NA,NA,NA,NA
E35UoQWC,3bakuke4akpi45n0y93n6zfn3q3r1f,3q5c1wp23qevm2nws4vmsi6jflo156,E35UoQWC,2020-0188,2021-10-31,07:54:07,09:11:46,NA,incomplete,false,true,NA,NA,3,4,NA,orange,m_s_078.jpg,NA,NA,NA,NA,NA,unpleasant,pleasant,NA,NA,NA,NA,NA,left,1916.79999999702,true,NA,NA,NA,NA,NA,NA,NA,NA
E35UoQWC,3bakuke4akpi45n0y93n6zfn3q3r1f,3q5c1wp23qevm2nws4vmsi6jflo156,E35UoQWC,2020-0188,2021-10-31,07:54:07,09:11:46,NA,incomplete,false,true,NA,NA,3,5,NA,orange,n_s_012.jpg,NA,NA,NA,NA,NA,unpleasant,pleasant,NA,NA,NA,NA,NA,right,2410.30000001192,true,NA,NA,NA,NA,NA,NA,NA,NA
E35UoQWC,3bakuke4akpi45n0y93n6zfn3q3r1f,3q5c1wp23qevm2nws4vmsi6jflo156,E35UoQWC,2020-0188,2021-10-31,07:54:07,09:11:46,NA,incomplete,false,true,NA,NA,3,6,NA,green,n_l_048.jpg,NA,NA,NA,NA,NA,unpleasant,pleasant,NA,NA,NA,NA,NA,right,2087.19999998808,true,NA,NA,NA,NA,NA,NA,NA,NA
E35UoQWC,3bakuke4akpi45n0y93n6zfn3q3r1f,3q5c1wp23qevm2nws4vmsi6jflo156,E35UoQWC,2020-0188,2021-10-31,07:54:07,09:11:46,NA,incomplete,false,true,NA,NA,3,7,NA,green,m_l_034.jpg,NA,NA,NA,NA,NA,pleasant,unpleasant,NA,NA,NA,NA,NA,left,1900.20000000298,true,NA,NA,NA,NA,NA,NA,NA,NA
E35UoQWC,3bakuke4akpi45n0y93n6zfn3q3r1f,3q5c1wp23qevm2nws4vmsi6jflo156,E35UoQWC,2020-0188,2021-10-31,07:54:07,09:11:46,NA,incomplete,false,true,NA,NA,3,8,NA,green,m_l_093.jpg,NA,NA,NA,NA,NA,unpleasant,pleasant,NA,NA,NA,NA,NA,right,1687.5,true,NA,NA,NA,NA,NA,NA,NA,NA
E35UoQWC,3bakuke4akpi45n0y93n6zfn3q3r1f,3q5c1wp23qevm2nws4vmsi6jflo156,E35UoQWC,2020-0188,2021-10-31,07:54:07,09:11:46,NA,incomplete,false,true,NA,NA,3,9,NA,green,n_s_018.jpg,NA,NA,NA,NA,NA,unpleasant,pleasant,NA,NA,NA,NA,NA,right,1453.79999999702,true,NA,NA,NA,NA,NA,NA,NA,NA
E35UoQWC,3bakuke4akpi45n0y93n6zfn3q3r1f,3q5c1wp23qevm2nws4vmsi6jflo156,E35UoQWC,2020-0188,2021-10-31,07:54:07,09:11:46,NA,incomplete,false,true,NA,NA,3,10,NA,green,n_s_057.jpg,NA,NA,NA,NA,NA,pleasant,unpleasant,NA,NA,NA,NA,NA,right,2456.5,true,NA,NA,NA,NA,NA,NA,NA,NA
E35UoQWC,3bakuke4akpi45n0y93n6zfn3q3r1f,3q5c1wp23qevm2nws4vmsi6jflo156,E35UoQWC,2020-0188,2021-10-31,07:54:07,09:11:46,NA,incomplete,false,true,NA,NA,3,11,NA,green,n_l_046.jpg,NA,NA,NA,NA,NA,pleasant,unpleasant,NA,NA,NA,NA,NA,left,1284.90000000596,true,NA,NA,NA,NA,NA,NA,NA,NA
E35UoQWC,3bakuke4akpi45n0y93n6zfn3q3r1f,3q5c1wp23qevm2nws4vmsi6jflo156,E35UoQWC,2020-0188,2021-10-31,07:54:07,09:11:46,NA,incomplete,false,true,NA,NA,3,12,NA,yellow,n_s_017.jpg,NA,NA,NA,NA,NA,unpleasant,pleasant,NA,NA,NA,NA,NA,left,3128.09999999404,true,NA,NA,NA,NA,NA,NA,NA,NA
E35UoQWC,3bakuke4akpi45n0y93n6zfn3q3r1f,3q5c1wp23qevm2nws4vmsi6jflo156,E35UoQWC,2020-0188,2021-10-31,07:54:07,09:11:46,NA,incomplete,false,true,NA,NA,3,13,NA,yellow,n_l_097.jpg,NA,NA,NA,NA,NA,pleasant,unpleasant,NA,NA,NA,NA,NA,right,2001,true,NA,NA,NA,NA,NA,NA,NA,NA
E35UoQWC,3bakuke4akpi45n0y93n6zfn3q3r1f,3q5c1wp23qevm2nws4vmsi6jflo156,E35UoQWC,2020-0188,2021-10-31,07:54:07,09:11:46,NA,incomplete,false,true,NA,NA,3,14,NA,yellow,m_s_020.jpg,NA,NA,NA,NA,NA,unpleasant,pleasant,NA,NA,NA,NA,NA,left,1818,true,NA,NA,NA,NA,NA,NA,NA,NA
E35UoQWC,3bakuke4akpi45n0y93n6zfn3q3r1f,3q5c1wp23qevm2nws4vmsi6jflo156,E35UoQWC,2020-0188,2021-10-31,07:54:07,09:11:46,NA,incomplete,false,true,NA,NA,3,15,NA,yellow,m_s_099.jpg,NA,NA,NA,NA,NA,pleasant,unpleasant,NA,NA,NA,NA,NA,left,1833.29999999702,true,NA,NA,NA,NA,NA,NA,NA,NA
E35UoQWC,3bakuke4akpi45n0y93n6zfn3q3r1f,3q5c1wp23qevm2nws4vmsi6jflo156,E35UoQWC,2020-0188,2021-10-31,07:54:07,09:11:46,NA,incomplete,false,true,NA,NA,3,16,NA,yellow,n_s_015.jpg,NA,NA,NA,NA,NA,pleasant,unpleasant,NA,NA,NA,NA,NA,right,2230.39999999106,true,NA,NA,NA,NA,NA,NA,NA,NA
E35UoQWC,3bakuke4akpi45n0y93n6zfn3q3r1f,3q5c1wp23qevm2nws4vmsi6jflo156,E35UoQWC,2020-0188,2021-10-31,07:54:07,09:11:46,NA,incomplete,false,true,NA,NA,3,17,NA,yellow,n_l_089.jpg,NA,NA,NA,NA,NA,unpleasant,pleasant,NA,NA,NA,NA,NA,left,1265.89999999106,true,NA,NA,NA,NA,NA,NA,NA,NA
E35UoQWC,3bakuke4akpi45n0y93n6zfn3q3r1f,3q5c1wp23qevm2nws4vmsi6jflo156,E35UoQWC,2020-0188,2021-10-31,07:54:07,09:11:46,NA,incomplete,false,true,NA,NA,3,18,NA,red,n_l_016.jpg,NA,NA,NA,NA,NA,unpleasant,pleasant,NA,NA,NA,NA,NA,left,1578.5,true,NA,NA,NA,NA,NA,NA,NA,NA
E35UoQWC,3bakuke4akpi45n0y93n6zfn3q3r1f,3q5c1wp23qevm2nws4vmsi6jflo156,E35UoQWC,2020-0188,2021-10-31,07:54:07,09:11:46,NA,incomplete,false,true,NA,NA,3,19,NA,red,n_s_077.jpg,NA,NA,NA,NA,NA,pleasant,unpleasant,NA,NA,NA,NA,NA,right,1362.5,true,NA,NA,NA,NA,NA,NA,NA,NA
E35UoQWC,3bakuke4akpi45n0y93n6zfn3q3r1f,3q5c1wp23qevm2nws4vmsi6jflo156,E35UoQWC,2020-0188,2021-10-31,07:54:07,09:11:46,NA,incomplete,false,true,NA,NA,3,20,NA,red,m_s_041.jpg,NA,NA,NA,NA,NA,unpleasant,pleasant,NA,NA,NA,NA,NA,left,2537.5,true,NA,NA,NA,NA,NA,NA,NA,NA
E35UoQWC,3bakuke4akpi45n0y93n6zfn3q3r1f,3q5c1wp23qevm2nws4vmsi6jflo156,E35UoQWC,2020-0188,2021-10-31,07:54:07,09:11:46,NA,incomplete,false,true,NA,NA,3,21,NA,red,n_l_057.jpg,NA,NA,NA,NA,NA,pleasant,unpleasant,NA,NA,NA,NA,NA,right,2080.09999999404,true,NA,NA,NA,NA,NA,NA,NA,NA
E35UoQWC,3bakuke4akpi45n0y93n6zfn3q3r1f,3q5c1wp23qevm2nws4vmsi6jflo156,E35UoQWC,2020-0188,2021-10-31,07:54:07,09:11:46,NA,incomplete,false,true,NA,NA,3,22,NA,red,n_s_011.jpg,NA,NA,NA,NA,NA,pleasant,unpleasant,NA,NA,NA,NA,NA,right,1955.70000000298,true,NA,NA,NA,NA,NA,NA,NA,NA
E35UoQWC,3bakuke4akpi45n0y93n6zfn3q3r1f,3q5c1wp23qevm2nws4vmsi6jflo156,E35UoQWC,2020-0188,2021-10-31,07:54:07,09:11:46,NA,incomplete,false,true,NA,NA,3,23,NA,red,m_l_043.jpg,NA,NA,NA,NA,NA,unpleasant,pleasant,NA,NA,NA,NA,NA,left,1302.09999999404,true,NA,NA,NA,NA,NA,NA,NA,NA
E35UoQWC,3bakuke4akpi45n0y93n6zfn3q3r1f,3q5c1wp23qevm2nws4vmsi6jflo156,E35UoQWC,2020-0188,2021-10-31,07:54:07,09:11:46,NA,incomplete,false,true,NA,NA,3,24,NA,black,n_l_090.jpg,NA,NA,NA,NA,NA,pleasant,unpleasant,NA,NA,NA,NA,NA,right,2438,true,NA,NA,NA,NA,NA,NA,NA,NA
E35UoQWC,3bakuke4akpi45n0y93n6zfn3q3r1f,3q5c1wp23qevm2nws4vmsi6jflo156,E35UoQWC,2020-0188,2021-10-31,07:54:07,09:11:46,NA,incomplete,false,true,NA,NA,3,25,NA,black,m_l_066.jpg,NA,NA,NA,NA,NA,pleasant,unpleasant,NA,NA,NA,NA,NA,right,2066.30000001192,true,NA,NA,NA,NA,NA,NA,NA,NA
E35UoQWC,3bakuke4akpi45n0y93n6zfn3q3r1f,3q5c1wp23qevm2nws4vmsi6jflo156,E35UoQWC,2020-0188,2021-10-31,07:54:07,09:11:46,NA,incomplete,false,true,NA,NA,3,26,NA,black,n_l_018.jpg,NA,NA,NA,NA,NA,unpleasant,pleasant,NA,NA,NA,NA,NA,right,1200.20000000298,true,NA,NA,NA,NA,NA,NA,NA,NA
E35UoQWC,3bakuke4akpi45n0y93n6zfn3q3r1f,3q5c1wp23qevm2nws4vmsi6jflo156,E35UoQWC,2020-0188,2021-10-31,07:54:07,09:11:46,NA,incomplete,false,true,NA,NA,3,27,NA,black,m_l_101.jpg,NA,NA,NA,NA,NA,pleasant,unpleasant,NA,NA,NA,NA,NA,left,2574.39999999106,true,NA,NA,NA,NA,NA,NA,NA,NA
E35UoQWC,3bakuke4akpi45n0y93n6zfn3q3r1f,3q5c1wp23qevm2nws4vmsi6jflo156,E35UoQWC,2020-0188,2021-10-31,07:54:07,09:11:46,NA,incomplete,false,true,NA,NA,3,28,NA,black,n_l_026.jpg,NA,NA,NA,NA,NA,unpleasant,pleasant,NA,NA,NA,NA,NA,right,1197.09999999404,true,NA,NA,NA,NA,NA,NA,NA,NA
E35UoQWC,3bakuke4akpi45n0y93n6zfn3q3r1f,3q5c1wp23qevm2nws4vmsi6jflo156,E35UoQWC,2020-0188,2021-10-31,07:54:07,09:11:46,NA,incomplete,false,true,NA,NA,3,29,NA,black,n_s_004.jpg,NA,NA,NA,NA,NA,pleasant,unpleasant,NA,NA,NA,NA,NA,left,2048.20000000298,true,NA,NA,NA,NA,NA,NA,NA,NA
E35UoQWC,3bakuke4akpi45n0y93n6zfn3q3r1f,3q5c1wp23qevm2nws4vmsi6jflo156,E35UoQWC,2020-0188,2021-10-31,07:54:07,09:11:46,NA,incomplete,false,true,NA,NA,3,30,NA,brown,m_s_065.jpg,NA,NA,NA,NA,NA,pleasant,unpleasant,NA,NA,NA,NA,NA,none,0,false,NA,NA,NA,NA,NA,NA,NA,NA
E35UoQWC,3bakuke4akpi45n0y93n6zfn3q3r1f,3q5c1wp23qevm2nws4vmsi6jflo156,E35UoQWC,2020-0188,2021-10-31,07:54:07,09:11:46,NA,incomplete,false,true,NA,NA,3,31,NA,brown,m_l_059.jpg,NA,NA,NA,NA,NA,unpleasant,pleasant,NA,NA,NA,NA,NA,right,1746.59999999404,true,NA,NA,NA,NA,NA,NA,NA,NA
E35UoQWC,3bakuke4akpi45n0y93n6zfn3q3r1f,3q5c1wp23qevm2nws4vmsi6jflo156,E35UoQWC,2020-0188,2021-10-31,07:54:07,09:11:46,NA,incomplete,false,true,NA,NA,3,32,NA,brown,n_l_009.jpg,NA,NA,NA,NA,NA,pleasant,unpleasant,NA,NA,NA,NA,NA,left,2087.70000000298,true,NA,NA,NA,NA,NA,NA,NA,NA
E35UoQWC,3bakuke4akpi45n0y93n6zfn3q3r1f,3q5c1wp23qevm2nws4vmsi6jflo156,E35UoQWC,2020-0188,2021-10-31,07:54:07,09:11:46,NA,incomplete,false,true,NA,NA,3,33,NA,brown,n_l_033.jpg,NA,NA,NA,NA,NA,pleasant,unpleasant,NA,NA,NA,NA,NA,right,969.100000008941,true,NA,NA,NA,NA,NA,NA,NA,NA
E35UoQWC,3bakuke4akpi45n0y93n6zfn3q3r1f,3q5c1wp23qevm2nws4vmsi6jflo156,E35UoQWC,2020-0188,2021-10-31,07:54:07,09:11:46,NA,incomplete,false,true,NA,NA,3,34,NA,brown,n_l_001.jpg,NA,NA,NA,NA,NA,pleasant,unpleasant,NA,NA,NA,NA,NA,left,1816.89999999106,true,NA,NA,NA,NA,NA,NA,NA,NA
E35UoQWC,3bakuke4akpi45n0y93n6zfn3q3r1f,3q5c1wp23qevm2nws4vmsi6jflo156,E35UoQWC,2020-0188,2021-10-31,07:54:07,09:11:46,NA,incomplete,false,true,NA,NA,3,35,NA,brown,m_l_069.jpg,NA,NA,NA,NA,NA,unpleasant,pleasant,NA,NA,NA,NA,NA,left,2217.69999998808,true,NA,NA,NA,NA,NA,NA,NA,NA
E35UoQWC,3bakuke4akpi45n0y93n6zfn3q3r1f,3q5c1wp23qevm2nws4vmsi6jflo156,E35UoQWC,2020-0188,2021-10-31,07:54:07,09:11:46,NA,incomplete,false,NA,NA,true,3,0,NA,NA,NA,left,n_s_012.jpg,orange,green,NA,NA,NA,NA,NA,NA,NA,NA,NA,NaN,NA,5799.9000000059605,right,0,NA,NA,NA,NA,NA
E35UoQWC,3bakuke4akpi45n0y93n6zfn3q3r1f,3q5c1wp23qevm2nws4vmsi6jflo156,E35UoQWC,2020-0188,2021-10-31,07:54:07,09:11:46,NA,incomplete,false,NA,NA,true,3,1,NA,NA,NA,right,m_l_093.jpg,orange,green,NA,NA,NA,NA,NA,NA,NA,NA,NA,NaN,NA,2231.4000000059605,left,0,NA,NA,NA,NA,NA
E35UoQWC,3bakuke4akpi45n0y93n6zfn3q3r1f,3q5c1wp23qevm2nws4vmsi6jflo156,E35UoQWC,2020-0188,2021-10-31,07:54:07,09:11:46,NA,incomplete,false,NA,NA,true,3,2,NA,NA,NA,left,m_l_066.jpg,black,brown,NA,NA,NA,NA,NA,NA,NA,NA,NA,NaN,NA,2295.5,left,1,NA,NA,NA,NA,NA
E35UoQWC,3bakuke4akpi45n0y93n6zfn3q3r1f,3q5c1wp23qevm2nws4vmsi6jflo156,E35UoQWC,2020-0188,2021-10-31,07:54:07,09:11:46,NA,incomplete,false,NA,NA,true,3,3,NA,NA,NA,right,m_l_034.jpg,yellow,green,NA,NA,NA,NA,NA,NA,NA,NA,NA,NaN,NA,3471.2999999970198,right,1,NA,NA,NA,NA,NA
E35UoQWC,3bakuke4akpi45n0y93n6zfn3q3r1f,3q5c1wp23qevm2nws4vmsi6jflo156,E35UoQWC,2020-0188,2021-10-31,07:54:07,09:11:46,NA,incomplete,false,NA,NA,true,3,4,NA,NA,NA,left,n_l_018.jpg,black,red,NA,NA,NA,NA,NA,NA,NA,NA,NA,NaN,NA,2022.2999999970198,left,1,NA,NA,NA,NA,NA
E35UoQWC,3bakuke4akpi45n0y93n6zfn3q3r1f,3q5c1wp23qevm2nws4vmsi6jflo156,E35UoQWC,2020-0188,2021-10-31,07:54:07,09:11:46,NA,incomplete,false,NA,NA,true,3,5,NA,NA,NA,left,n_l_026.jpg,black,brown,NA,NA,NA,NA,NA,NA,NA,NA,NA,NaN,NA,1559.2999999970198,left,1,NA,NA,NA,NA,NA
E35UoQWC,3bakuke4akpi45n0y93n6zfn3q3r1f,3q5c1wp23qevm2nws4vmsi6jflo156,E35UoQWC,2020-0188,2021-10-31,07:54:07,09:11:46,NA,incomplete,false,NA,NA,true,3,6,NA,NA,NA,right,m_l_069.jpg,black,brown,NA,NA,NA,NA,NA,NA,NA,NA,NA,NaN,NA,2376.9000000059605,left,0,NA,NA,NA,NA,NA
E35UoQWC,3bakuke4akpi45n0y93n6zfn3q3r1f,3q5c1wp23qevm2nws4vmsi6jflo156,E35UoQWC,2020-0188,2021-10-31,07:54:07,09:11:46,NA,incomplete,false,NA,NA,true,3,7,NA,NA,NA,right,m_l_043.jpg,yellow,red,NA,NA,NA,NA,NA,NA,NA,NA,NA,NaN,NA,2159.4000000059605,right,1,NA,NA,NA,NA,NA
E35UoQWC,3bakuke4akpi45n0y93n6zfn3q3r1f,3q5c1wp23qevm2nws4vmsi6jflo156,E35UoQWC,2020-0188,2021-10-31,07:54:07,09:11:46,NA,incomplete,false,NA,NA,true,3,8,NA,NA,NA,right,m_s_020.jpg,red,yellow,NA,NA,NA,NA,NA,NA,NA,NA,NA,NaN,NA,3127.7000000029802,right,1,NA,NA,NA,NA,NA
E35UoQWC,3bakuke4akpi45n0y93n6zfn3q3r1f,3q5c1wp23qevm2nws4vmsi6jflo156,E35UoQWC,2020-0188,2021-10-31,07:54:07,09:11:46,NA,incomplete,false,NA,NA,true,3,9,NA,NA,NA,right,m_s_078.jpg,green,orange,NA,NA,NA,NA,NA,NA,NA,NA,NA,NaN,NA,2855.699999988079,right,1,NA,NA,NA,NA,NA
E35UoQWC,3bakuke4akpi45n0y93n6zfn3q3r1f,3q5c1wp23qevm2nws4vmsi6jflo156,E35UoQWC,2020-0188,2021-10-31,07:54:07,09:11:46,NA,incomplete,false,NA,NA,true,3,10,NA,NA,NA,left,n_s_004.jpg,black,brown,NA,NA,NA,NA,NA,NA,NA,NA,NA,NaN,NA,1743.2000000029802,left,1,NA,NA,NA,NA,NA
E35UoQWC,3bakuke4akpi45n0y93n6zfn3q3r1f,3q5c1wp23qevm2nws4vmsi6jflo156,E35UoQWC,2020-0188,2021-10-31,07:54:07,09:11:46,NA,incomplete,false,NA,NA,true,3,11,NA,NA,NA,left,n_s_011.jpg,red,black,NA,NA,NA,NA,NA,NA,NA,NA,NA,NaN,NA,2192.7999999970198,left,1,NA,NA,NA,NA,NA
E35UoQWC,3bakuke4akpi45n0y93n6zfn3q3r1f,3q5c1wp23qevm2nws4vmsi6jflo156,E35UoQWC,2020-0188,2021-10-31,07:54:07,09:11:46,NA,incomplete,false,NA,NA,true,3,12,NA,NA,NA,right,n_s_015.jpg,green,yellow,NA,NA,NA,NA,NA,NA,NA,NA,NA,NaN,NA,2647,right,1,NA,NA,NA,NA,NA
E35UoQWC,3bakuke4akpi45n0y93n6zfn3q3r1f,3q5c1wp23qevm2nws4vmsi6jflo156,E35UoQWC,2020-0188,2021-10-31,07:54:07,09:11:46,NA,incomplete,false,NA,NA,true,3,13,NA,NA,NA,right,n_s_110.jpg,green,orange,NA,NA,NA,NA,NA,NA,NA,NA,NA,NaN,NA,2039.0999999940395,left,0,NA,NA,NA,NA,NA
E35UoQWC,3bakuke4akpi45n0y93n6zfn3q3r1f,3q5c1wp23qevm2nws4vmsi6jflo156,E35UoQWC,2020-0188,2021-10-31,07:54:07,09:11:46,NA,incomplete,false,NA,NA,true,3,14,NA,NA,NA,right,n_l_097.jpg,green,yellow,NA,NA,NA,NA,NA,NA,NA,NA,NA,NaN,NA,4855.9000000059605,left,0,NA,NA,NA,NA,NA
E35UoQWC,3bakuke4akpi45n0y93n6zfn3q3r1f,3q5c1wp23qevm2nws4vmsi6jflo156,E35UoQWC,2020-0188,2021-10-31,07:54:07,09:11:46,NA,incomplete,false,NA,NA,true,3,15,NA,NA,NA,left,n_s_057.jpg,green,yellow,NA,NA,NA,NA,NA,NA,NA,NA,NA,NaN,NA,1991.2999999970198,left,1,NA,NA,NA,NA,NA
E35UoQWC,3bakuke4akpi45n0y93n6zfn3q3r1f,3q5c1wp23qevm2nws4vmsi6jflo156,E35UoQWC,2020-0188,2021-10-31,07:54:07,09:11:46,NA,incomplete,false,NA,NA,true,3,16,NA,NA,NA,right,m_l_059.jpg,black,brown,NA,NA,NA,NA,NA,NA,NA,NA,NA,NaN,NA,1959.5,left,0,NA,NA,NA,NA,NA
E35UoQWC,3bakuke4akpi45n0y93n6zfn3q3r1f,3q5c1wp23qevm2nws4vmsi6jflo156,E35UoQWC,2020-0188,2021-10-31,07:54:07,09:11:46,NA,incomplete,false,NA,NA,true,3,17,NA,NA,NA,left,n_l_009.jpg,brown,black,NA,NA,NA,NA,NA,NA,NA,NA,NA,NaN,NA,1799.4000000059605,right,0,NA,NA,NA,NA,NA
E35UoQWC,3bakuke4akpi45n0y93n6zfn3q3r1f,3q5c1wp23qevm2nws4vmsi6jflo156,E35UoQWC,2020-0188,2021-10-31,07:54:07,09:11:46,NA,incomplete,false,NA,NA,true,3,18,NA,NA,NA,left,n_s_077.jpg,red,yellow,NA,NA,NA,NA,NA,NA,NA,NA,NA,NaN,NA,1935.0999999940395,left,1,NA,NA,NA,NA,NA
E35UoQWC,3bakuke4akpi45n0y93n6zfn3q3r1f,3q5c1wp23qevm2nws4vmsi6jflo156,E35UoQWC,2020-0188,2021-10-31,07:54:07,09:11:46,NA,incomplete,false,NA,NA,true,3,19,NA,NA,NA,right,n_l_046.jpg,yellow,green,NA,NA,NA,NA,NA,NA,NA,NA,NA,NaN,NA,1399.0999999940395,right,1,NA,NA,NA,NA,NA
E35UoQWC,3bakuke4akpi45n0y93n6zfn3q3r1f,3q5c1wp23qevm2nws4vmsi6jflo156,E35UoQWC,2020-0188,2021-10-31,07:54:07,09:11:46,NA,incomplete,false,NA,NA,true,3,20,NA,NA,NA,right,n_l_089.jpg,green,yellow,NA,NA,NA,NA,NA,NA,NA,NA,NA,NaN,NA,1926.8999999910593,right,1,NA,NA,NA,NA,NA
E35UoQWC,3bakuke4akpi45n0y93n6zfn3q3r1f,3q5c1wp23qevm2nws4vmsi6jflo156,E35UoQWC,2020-0188,2021-10-31,07:54:07,09:11:46,NA,incomplete,false,NA,NA,true,3,21,NA,NA,NA,right,m_s_041.jpg,yellow,red,NA,NA,NA,NA,NA,NA,NA,NA,NA,NaN,NA,1646.9000000059605,left,0,NA,NA,NA,NA,NA
E35UoQWC,3bakuke4akpi45n0y93n6zfn3q3r1f,3q5c1wp23qevm2nws4vmsi6jflo156,E35UoQWC,2020-0188,2021-10-31,07:54:07,09:11:46,NA,incomplete,false,NA,true,NA,3,0,NA,NA,NA,left,NA,NA,NA,present,NA,NA,n_s_110.jpg,orange,n_s_012.jpg,orange,within,NA,NaN,NA,NA,NA,NA,left,2821,1,0,1486
E35UoQWC,3bakuke4akpi45n0y93n6zfn3q3r1f,3q5c1wp23qevm2nws4vmsi6jflo156,E35UoQWC,2020-0188,2021-10-31,07:54:07,09:11:46,NA,incomplete,false,NA,true,NA,3,1,NA,NA,NA,left,NA,NA,NA,present,NA,NA,n_s_057.jpg,green,m_s_020.jpg,yellow,between,NA,NaN,NA,NA,NA,NA,left,3998.5999999940395,1,1,1318.0999999940395
E35UoQWC,3bakuke4akpi45n0y93n6zfn3q3r1f,3q5c1wp23qevm2nws4vmsi6jflo156,E35UoQWC,2020-0188,2021-10-31,07:54:07,09:11:46,NA,incomplete,false,NA,true,NA,3,2,NA,NA,NA,left,NA,NA,NA,present,NA,NA,m_l_066.jpg,black,n_s_004.jpg,black,within,NA,NaN,NA,NA,NA,NA,left,5640.29999999702,1,0,1047.3999999910593
E35UoQWC,3bakuke4akpi45n0y93n6zfn3q3r1f,3q5c1wp23qevm2nws4vmsi6jflo156,E35UoQWC,2020-0188,2021-10-31,07:54:07,09:11:46,NA,incomplete,false,NA,true,NA,3,3,NA,NA,NA,left,NA,NA,NA,present,NA,NA,m_s_078.jpg,orange,m_l_093.jpg,green,between,NA,NaN,NA,NA,NA,NA,left,4920,1,2,1719.5
E35UoQWC,3bakuke4akpi45n0y93n6zfn3q3r1f,3q5c1wp23qevm2nws4vmsi6jflo156,E35UoQWC,2020-0188,2021-10-31,07:54:07,09:11:46,NA,incomplete,false,NA,true,NA,3,4,NA,NA,NA,right,NA,NA,NA,present,NA,NA,n_l_089.jpg,yellow,n_l_097.jpg,yellow,within,NA,NaN,NA,NA,NA,NA,left,5024.29999999702,0,0,1559.2000000029802
E35UoQWC,3bakuke4akpi45n0y93n6zfn3q3r1f,3q5c1wp23qevm2nws4vmsi6jflo156,E35UoQWC,2020-0188,2021-10-31,07:54:07,09:11:46,NA,incomplete,false,NA,true,NA,3,5,NA,NA,NA,left,NA,NA,NA,present,NA,NA,n_s_077.jpg,red,m_l_043.jpg,red,within,NA,NaN,NA,NA,NA,NA,left,2519.2999999970198,1,0,1047.0999999940395
E35UoQWC,3bakuke4akpi45n0y93n6zfn3q3r1f,3q5c1wp23qevm2nws4vmsi6jflo156,E35UoQWC,2020-0188,2021-10-31,07:54:07,09:11:46,NA,incomplete,false,NA,true,NA,3,6,NA,NA,NA,right,NA,NA,NA,present,NA,NA,n_l_046.jpg,green,m_l_034.jpg,green,within,NA,NaN,NA,NA,NA,NA,right,3487.5,1,0,1295
E35UoQWC,3bakuke4akpi45n0y93n6zfn3q3r1f,3q5c1wp23qevm2nws4vmsi6jflo156,E35UoQWC,2020-0188,2021-10-31,07:54:07,09:11:46,NA,incomplete,false,NA,true,NA,3,7,NA,NA,NA,left,NA,NA,NA,present,NA,NA,n_s_011.jpg,red,n_l_018.jpg,black,between,NA,NaN,NA,NA,NA,NA,left,5039.899999991059,1,1,1591.0999999940395
E35UoQWC,3bakuke4akpi45n0y93n6zfn3q3r1f,3q5c1wp23qevm2nws4vmsi6jflo156,E35UoQWC,2020-0188,2021-10-31,07:54:07,09:11:46,NA,incomplete,false,NA,true,NA,3,8,NA,NA,NA,right,NA,NA,NA,present,NA,NA,n_l_009.jpg,brown,n_l_026.jpg,black,between,NA,NaN,NA,NA,NA,NA,right,2927.2999999970198,1,1,1655.2000000029802
E35UoQWC,3bakuke4akpi45n0y93n6zfn3q3r1f,3q5c1wp23qevm2nws4vmsi6jflo156,E35UoQWC,2020-0188,2021-10-31,07:54:07,09:11:46,NA,incomplete,false,NA,true,NA,3,9,NA,NA,NA,right,NA,NA,NA,present,NA,NA,m_s_041.jpg,red,n_s_015.jpg,yellow,between,NA,NaN,NA,NA,NA,NA,right,3527.2999999970198,1,1,1119.5999999940395
E35UoQWC,3bakuke4akpi45n0y93n6zfn3q3r1f,3q5c1wp23qevm2nws4vmsi6jflo156,E35UoQWC,2020-0188,2021-10-31,07:54:07,09:11:46,NA,incomplete,false,NA,true,NA,3,10,NA,NA,NA,left,NA,NA,NA,present,NA,NA,m_l_059.jpg,brown,m_l_069.jpg,brown,within,NA,NaN,NA,NA,NA,NA,right,2791,0,0,1583.3999999910593
E35UoQWC,3bakuke4akpi45n0y93n6zfn3q3r1f,3q5c1wp23qevm2nws4vmsi6jflo156,E35UoQWC,2020-0188,2021-10-31,07:54:07,09:11:46,NA,incomplete,false,true,NA,NA,4,0,NA,yellow,n_s_048.jpg,NA,NA,NA,NA,NA,pleasant,unpleasant,NA,NA,NA,NA,NA,left,2170.09999999404,true,NA,NA,NA,NA,NA,NA,NA,NA
E35UoQWC,3bakuke4akpi45n0y93n6zfn3q3r1f,3q5c1wp23qevm2nws4vmsi6jflo156,E35UoQWC,2020-0188,2021-10-31,07:54:07,09:11:46,NA,incomplete,false,true,NA,NA,4,1,NA,yellow,n_s_076.jpg,NA,NA,NA,NA,NA,pleasant,unpleasant,NA,NA,NA,NA,NA,right,1637.89999999106,true,NA,NA,NA,NA,NA,NA,NA,NA
E35UoQWC,3bakuke4akpi45n0y93n6zfn3q3r1f,3q5c1wp23qevm2nws4vmsi6jflo156,E35UoQWC,2020-0188,2021-10-31,07:54:07,09:11:46,NA,incomplete,false,true,NA,NA,4,2,NA,yellow,n_l_075.jpg,NA,NA,NA,NA,NA,unpleasant,pleasant,NA,NA,NA,NA,NA,left,1862.40000000596,true,NA,NA,NA,NA,NA,NA,NA,NA
E35UoQWC,3bakuke4akpi45n0y93n6zfn3q3r1f,3q5c1wp23qevm2nws4vmsi6jflo156,E35UoQWC,2020-0188,2021-10-31,07:54:07,09:11:46,NA,incomplete,false,true,NA,NA,4,3,NA,yellow,m_s_112.jpg,NA,NA,NA,NA,NA,pleasant,unpleasant,NA,NA,NA,NA,NA,right,2110.60000000894,true,NA,NA,NA,NA,NA,NA,NA,NA
E35UoQWC,3bakuke4akpi45n0y93n6zfn3q3r1f,3q5c1wp23qevm2nws4vmsi6jflo156,E35UoQWC,2020-0188,2021-10-31,07:54:07,09:11:46,NA,incomplete,false,true,NA,NA,4,4,NA,yellow,m_l_082.jpg,NA,NA,NA,NA,NA,pleasant,unpleasant,NA,NA,NA,NA,NA,right,1067.20000000298,true,NA,NA,NA,NA,NA,NA,NA,NA
E35UoQWC,3bakuke4akpi45n0y93n6zfn3q3r1f,3q5c1wp23qevm2nws4vmsi6jflo156,E35UoQWC,2020-0188,2021-10-31,07:54:07,09:11:46,NA,incomplete,false,true,NA,NA,4,5,NA,yellow,n_l_015.jpg,NA,NA,NA,NA,NA,unpleasant,pleasant,NA,NA,NA,NA,NA,left,1243.40000000596,true,NA,NA,NA,NA,NA,NA,NA,NA
E35UoQWC,3bakuke4akpi45n0y93n6zfn3q3r1f,3q5c1wp23qevm2nws4vmsi6jflo156,E35UoQWC,2020-0188,2021-10-31,07:54:07,09:11:46,NA,incomplete,false,true,NA,NA,4,6,NA,brown,m_s_011.jpg,NA,NA,NA,NA,NA,unpleasant,pleasant,NA,NA,NA,NA,NA,left,2967.39999999106,true,NA,NA,NA,NA,NA,NA,NA,NA
E35UoQWC,3bakuke4akpi45n0y93n6zfn3q3r1f,3q5c1wp23qevm2nws4vmsi6jflo156,E35UoQWC,2020-0188,2021-10-31,07:54:07,09:11:46,NA,incomplete,false,true,NA,NA,4,7,NA,brown,m_s_053.jpg,NA,NA,NA,NA,NA,unpleasant,pleasant,NA,NA,NA,NA,NA,left,3340.20000000298,true,NA,NA,NA,NA,NA,NA,NA,NA
E35UoQWC,3bakuke4akpi45n0y93n6zfn3q3r1f,3q5c1wp23qevm2nws4vmsi6jflo156,E35UoQWC,2020-0188,2021-10-31,07:54:07,09:11:46,NA,incomplete,false,true,NA,NA,4,8,NA,brown,n_l_104.jpg,NA,NA,NA,NA,NA,pleasant,unpleasant,NA,NA,NA,NA,NA,right,1251.79999999702,true,NA,NA,NA,NA,NA,NA,NA,NA
E35UoQWC,3bakuke4akpi45n0y93n6zfn3q3r1f,3q5c1wp23qevm2nws4vmsi6jflo156,E35UoQWC,2020-0188,2021-10-31,07:54:07,09:11:46,NA,incomplete,false,true,NA,NA,4,9,NA,brown,m_s_059.jpg,NA,NA,NA,NA,NA,unpleasant,pleasant,NA,NA,NA,NA,NA,left,2835.89999999106,true,NA,NA,NA,NA,NA,NA,NA,NA
E35UoQWC,3bakuke4akpi45n0y93n6zfn3q3r1f,3q5c1wp23qevm2nws4vmsi6jflo156,E35UoQWC,2020-0188,2021-10-31,07:54:07,09:11:46,NA,incomplete,false,true,NA,NA,4,10,NA,brown,n_s_079.jpg,NA,NA,NA,NA,NA,pleasant,unpleasant,NA,NA,NA,NA,NA,left,1430.40000000596,true,NA,NA,NA,NA,NA,NA,NA,NA
E35UoQWC,3bakuke4akpi45n0y93n6zfn3q3r1f,3q5c1wp23qevm2nws4vmsi6jflo156,E35UoQWC,2020-0188,2021-10-31,07:54:07,09:11:46,NA,incomplete,false,true,NA,NA,4,11,NA,brown,n_s_104.jpg,NA,NA,NA,NA,NA,unpleasant,pleasant,NA,NA,NA,NA,NA,right,1151.40000000596,true,NA,NA,NA,NA,NA,NA,NA,NA
E35UoQWC,3bakuke4akpi45n0y93n6zfn3q3r1f,3q5c1wp23qevm2nws4vmsi6jflo156,E35UoQWC,2020-0188,2021-10-31,07:54:07,09:11:46,NA,incomplete,false,true,NA,NA,4,12,NA,red,m_l_067.jpg,NA,NA,NA,NA,NA,unpleasant,pleasant,NA,NA,NA,NA,NA,left,2749.69999998808,true,NA,NA,NA,NA,NA,NA,NA,NA
E35UoQWC,3bakuke4akpi45n0y93n6zfn3q3r1f,3q5c1wp23qevm2nws4vmsi6jflo156,E35UoQWC,2020-0188,2021-10-31,07:54:07,09:11:46,NA,incomplete,false,true,NA,NA,4,13,NA,red,n_s_013.jpg,NA,NA,NA,NA,NA,unpleasant,pleasant,NA,NA,NA,NA,NA,left,1804.5,true,NA,NA,NA,NA,NA,NA,NA,NA
E35UoQWC,3bakuke4akpi45n0y93n6zfn3q3r1f,3q5c1wp23qevm2nws4vmsi6jflo156,E35UoQWC,2020-0188,2021-10-31,07:54:07,09:11:46,NA,incomplete,false,true,NA,NA,4,14,NA,red,n_l_019.jpg,NA,NA,NA,NA,NA,pleasant,unpleasant,NA,NA,NA,NA,NA,left,1604.70000000298,true,NA,NA,NA,NA,NA,NA,NA,NA
E35UoQWC,3bakuke4akpi45n0y93n6zfn3q3r1f,3q5c1wp23qevm2nws4vmsi6jflo156,E35UoQWC,2020-0188,2021-10-31,07:54:07,09:11:46,NA,incomplete,false,true,NA,NA,4,15,NA,red,n_s_035.jpg,NA,NA,NA,NA,NA,unpleasant,pleasant,NA,NA,NA,NA,NA,left,1803.70000000298,true,NA,NA,NA,NA,NA,NA,NA,NA
E35UoQWC,3bakuke4akpi45n0y93n6zfn3q3r1f,3q5c1wp23qevm2nws4vmsi6jflo156,E35UoQWC,2020-0188,2021-10-31,07:54:07,09:11:46,NA,incomplete,false,true,NA,NA,4,16,NA,red,m_s_024.jpg,NA,NA,NA,NA,NA,pleasant,unpleasant,NA,NA,NA,NA,NA,right,2151.89999999106,true,NA,NA,NA,NA,NA,NA,NA,NA
E35UoQWC,3bakuke4akpi45n0y93n6zfn3q3r1f,3q5c1wp23qevm2nws4vmsi6jflo156,E35UoQWC,2020-0188,2021-10-31,07:54:07,09:11:46,NA,incomplete,false,true,NA,NA,4,17,NA,red,m_l_042.jpg,NA,NA,NA,NA,NA,pleasant,unpleasant,NA,NA,NA,NA,NA,right,1408.20000000298,true,NA,NA,NA,NA,NA,NA,NA,NA
E35UoQWC,3bakuke4akpi45n0y93n6zfn3q3r1f,3q5c1wp23qevm2nws4vmsi6jflo156,E35UoQWC,2020-0188,2021-10-31,07:54:07,09:11:46,NA,incomplete,false,true,NA,NA,4,18,NA,blue,n_s_051.jpg,NA,NA,NA,NA,NA,unpleasant,pleasant,NA,NA,NA,NA,NA,right,2831.29999999702,true,NA,NA,NA,NA,NA,NA,NA,NA
E35UoQWC,3bakuke4akpi45n0y93n6zfn3q3r1f,3q5c1wp23qevm2nws4vmsi6jflo156,E35UoQWC,2020-0188,2021-10-31,07:54:07,09:11:46,NA,incomplete,false,true,NA,NA,4,19,NA,blue,m_l_036.jpg,NA,NA,NA,NA,NA,unpleasant,pleasant,NA,NA,NA,NA,NA,left,1213.5,true,NA,NA,NA,NA,NA,NA,NA,NA
E35UoQWC,3bakuke4akpi45n0y93n6zfn3q3r1f,3q5c1wp23qevm2nws4vmsi6jflo156,E35UoQWC,2020-0188,2021-10-31,07:54:07,09:11:46,NA,incomplete,false,true,NA,NA,4,20,NA,blue,n_l_014.jpg,NA,NA,NA,NA,NA,pleasant,unpleasant,NA,NA,NA,NA,NA,right,1366.59999999404,true,NA,NA,NA,NA,NA,NA,NA,NA
E35UoQWC,3bakuke4akpi45n0y93n6zfn3q3r1f,3q5c1wp23qevm2nws4vmsi6jflo156,E35UoQWC,2020-0188,2021-10-31,07:54:07,09:11:46,NA,incomplete,false,true,NA,NA,4,21,NA,blue,n_l_040.jpg,NA,NA,NA,NA,NA,unpleasant,pleasant,NA,NA,NA,NA,NA,left,1292.90000000596,true,NA,NA,NA,NA,NA,NA,NA,NA
E35UoQWC,3bakuke4akpi45n0y93n6zfn3q3r1f,3q5c1wp23qevm2nws4vmsi6jflo156,E35UoQWC,2020-0188,2021-10-31,07:54:07,09:11:46,NA,incomplete,false,true,NA,NA,4,22,NA,blue,m_l_099.jpg,NA,NA,NA,NA,NA,unpleasant,pleasant,NA,NA,NA,NA,NA,left,2465,true,NA,NA,NA,NA,NA,NA,NA,NA
E35UoQWC,3bakuke4akpi45n0y93n6zfn3q3r1f,3q5c1wp23qevm2nws4vmsi6jflo156,E35UoQWC,2020-0188,2021-10-31,07:54:07,09:11:46,NA,incomplete,false,true,NA,NA,4,23,NA,blue,m_l_087.jpg,NA,NA,NA,NA,NA,unpleasant,pleasant,NA,NA,NA,NA,NA,right,1295,true,NA,NA,NA,NA,NA,NA,NA,NA
E35UoQWC,3bakuke4akpi45n0y93n6zfn3q3r1f,3q5c1wp23qevm2nws4vmsi6jflo156,E35UoQWC,2020-0188,2021-10-31,07:54:07,09:11:46,NA,incomplete,false,true,NA,NA,4,24,NA,green,n_s_090.jpg,NA,NA,NA,NA,NA,pleasant,unpleasant,NA,NA,NA,NA,NA,left,1826.09999999404,true,NA,NA,NA,NA,NA,NA,NA,NA
E35UoQWC,3bakuke4akpi45n0y93n6zfn3q3r1f,3q5c1wp23qevm2nws4vmsi6jflo156,E35UoQWC,2020-0188,2021-10-31,07:54:07,09:11:46,NA,incomplete,false,true,NA,NA,4,25,NA,green,n_l_037.jpg,NA,NA,NA,NA,NA,pleasant,unpleasant,NA,NA,NA,NA,NA,right,1211.39999999106,true,NA,NA,NA,NA,NA,NA,NA,NA
E35UoQWC,3bakuke4akpi45n0y93n6zfn3q3r1f,3q5c1wp23qevm2nws4vmsi6jflo156,E35UoQWC,2020-0188,2021-10-31,07:54:07,09:11:46,NA,incomplete,false,true,NA,NA,4,26,NA,green,m_l_035.jpg,NA,NA,NA,NA,NA,unpleasant,pleasant,NA,NA,NA,NA,NA,left,1213,true,NA,NA,NA,NA,NA,NA,NA,NA
E35UoQWC,3bakuke4akpi45n0y93n6zfn3q3r1f,3q5c1wp23qevm2nws4vmsi6jflo156,E35UoQWC,2020-0188,2021-10-31,07:54:07,09:11:46,NA,incomplete,false,true,NA,NA,4,27,NA,green,n_l_105.jpg,NA,NA,NA,NA,NA,pleasant,unpleasant,NA,NA,NA,NA,NA,left,1713.70000000298,true,NA,NA,NA,NA,NA,NA,NA,NA
E35UoQWC,3bakuke4akpi45n0y93n6zfn3q3r1f,3q5c1wp23qevm2nws4vmsi6jflo156,E35UoQWC,2020-0188,2021-10-31,07:54:07,09:11:46,NA,incomplete,false,true,NA,NA,4,28,NA,green,m_l_011.jpg,NA,NA,NA,NA,NA,pleasant,unpleasant,NA,NA,NA,NA,NA,right,1165.60000000894,true,NA,NA,NA,NA,NA,NA,NA,NA
E35UoQWC,3bakuke4akpi45n0y93n6zfn3q3r1f,3q5c1wp23qevm2nws4vmsi6jflo156,E35UoQWC,2020-0188,2021-10-31,07:54:07,09:11:46,NA,incomplete,false,true,NA,NA,4,29,NA,green,m_s_031.jpg,NA,NA,NA,NA,NA,unpleasant,pleasant,NA,NA,NA,NA,NA,right,1345.39999999106,true,NA,NA,NA,NA,NA,NA,NA,NA
E35UoQWC,3bakuke4akpi45n0y93n6zfn3q3r1f,3q5c1wp23qevm2nws4vmsi6jflo156,E35UoQWC,2020-0188,2021-10-31,07:54:07,09:11:46,NA,incomplete,false,true,NA,NA,4,30,NA,white,n_s_002.jpg,NA,NA,NA,NA,NA,pleasant,unpleasant,NA,NA,NA,NA,NA,left,2153.80000001192,true,NA,NA,NA,NA,NA,NA,NA,NA
E35UoQWC,3bakuke4akpi45n0y93n6zfn3q3r1f,3q5c1wp23qevm2nws4vmsi6jflo156,E35UoQWC,2020-0188,2021-10-31,07:54:07,09:11:46,NA,incomplete,false,true,NA,NA,4,31,NA,white,n_s_100.jpg,NA,NA,NA,NA,NA,unpleasant,pleasant,NA,NA,NA,NA,NA,right,1084.10000000894,true,NA,NA,NA,NA,NA,NA,NA,NA
E35UoQWC,3bakuke4akpi45n0y93n6zfn3q3r1f,3q5c1wp23qevm2nws4vmsi6jflo156,E35UoQWC,2020-0188,2021-10-31,07:54:07,09:11:46,NA,incomplete,false,true,NA,NA,4,32,NA,white,n_l_006.jpg,NA,NA,NA,NA,NA,pleasant,unpleasant,NA,NA,NA,NA,NA,left,906,true,NA,NA,NA,NA,NA,NA,NA,NA
E35UoQWC,3bakuke4akpi45n0y93n6zfn3q3r1f,3q5c1wp23qevm2nws4vmsi6jflo156,E35UoQWC,2020-0188,2021-10-31,07:54:07,09:11:46,NA,incomplete,false,true,NA,NA,4,33,NA,white,m_l_051.jpg,NA,NA,NA,NA,NA,unpleasant,pleasant,NA,NA,NA,NA,NA,right,1512.89999999106,true,NA,NA,NA,NA,NA,NA,NA,NA
E35UoQWC,3bakuke4akpi45n0y93n6zfn3q3r1f,3q5c1wp23qevm2nws4vmsi6jflo156,E35UoQWC,2020-0188,2021-10-31,07:54:07,09:11:46,NA,incomplete,false,true,NA,NA,4,34,NA,white,m_s_079.jpg,NA,NA,NA,NA,NA,unpleasant,pleasant,NA,NA,NA,NA,NA,right,1013,true,NA,NA,NA,NA,NA,NA,NA,NA
E35UoQWC,3bakuke4akpi45n0y93n6zfn3q3r1f,3q5c1wp23qevm2nws4vmsi6jflo156,E35UoQWC,2020-0188,2021-10-31,07:54:07,09:11:46,NA,incomplete,false,true,NA,NA,4,35,NA,white,n_l_087.jpg,NA,NA,NA,NA,NA,unpleasant,pleasant,NA,NA,NA,NA,NA,right,971.199999988079,true,NA,NA,NA,NA,NA,NA,NA,NA
E35UoQWC,3bakuke4akpi45n0y93n6zfn3q3r1f,3q5c1wp23qevm2nws4vmsi6jflo156,E35UoQWC,2020-0188,2021-10-31,07:54:07,09:11:46,NA,incomplete,false,NA,NA,true,4,0,NA,NA,NA,right,m_l_042.jpg,brown,red,NA,NA,NA,NA,NA,NA,NA,NA,NA,NaN,NA,3950.4000000059605,right,1,NA,NA,NA,NA,NA
E35UoQWC,3bakuke4akpi45n0y93n6zfn3q3r1f,3q5c1wp23qevm2nws4vmsi6jflo156,E35UoQWC,2020-0188,2021-10-31,07:54:07,09:11:46,NA,incomplete,false,NA,NA,true,4,1,NA,NA,NA,right,n_s_076.jpg,brown,yellow,NA,NA,NA,NA,NA,NA,NA,NA,NA,NaN,NA,2487.1000000089407,right,1,NA,NA,NA,NA,NA
E35UoQWC,3bakuke4akpi45n0y93n6zfn3q3r1f,3q5c1wp23qevm2nws4vmsi6jflo156,E35UoQWC,2020-0188,2021-10-31,07:54:07,09:11:46,NA,incomplete,false,NA,NA,true,4,2,NA,NA,NA,left,m_l_082.jpg,yellow,brown,NA,NA,NA,NA,NA,NA,NA,NA,NA,NaN,NA,1863.7000000029802,left,1,NA,NA,NA,NA,NA
E35UoQWC,3bakuke4akpi45n0y93n6zfn3q3r1f,3q5c1wp23qevm2nws4vmsi6jflo156,E35UoQWC,2020-0188,2021-10-31,07:54:07,09:11:46,NA,incomplete,false,NA,NA,true,4,3,NA,NA,NA,right,n_s_100.jpg,green,white,NA,NA,NA,NA,NA,NA,NA,NA,NA,NaN,NA,1439.5,right,1,NA,NA,NA,NA,NA
E35UoQWC,3bakuke4akpi45n0y93n6zfn3q3r1f,3q5c1wp23qevm2nws4vmsi6jflo156,E35UoQWC,2020-0188,2021-10-31,07:54:07,09:11:46,NA,incomplete,false,NA,NA,true,4,4,NA,NA,NA,right,n_l_006.jpg,green,white,NA,NA,NA,NA,NA,NA,NA,NA,NA,NaN,NA,2807.800000011921,left,0,NA,NA,NA,NA,NA
E35UoQWC,3bakuke4akpi45n0y93n6zfn3q3r1f,3q5c1wp23qevm2nws4vmsi6jflo156,E35UoQWC,2020-0188,2021-10-31,07:54:07,09:11:46,NA,incomplete,false,NA,NA,true,4,5,NA,NA,NA,right,n_l_014.jpg,green,blue,NA,NA,NA,NA,NA,NA,NA,NA,NA,NaN,NA,2254.3999999910593,right,1,NA,NA,NA,NA,NA
E35UoQWC,3bakuke4akpi45n0y93n6zfn3q3r1f,3q5c1wp23qevm2nws4vmsi6jflo156,E35UoQWC,2020-0188,2021-10-31,07:54:07,09:11:46,NA,incomplete,false,NA,NA,true,4,6,NA,NA,NA,right,n_s_079.jpg,yellow,brown,NA,NA,NA,NA,NA,NA,NA,NA,NA,NaN,NA,2351.5999999940395,left,0,NA,NA,NA,NA,NA
E35UoQWC,3bakuke4akpi45n0y93n6zfn3q3r1f,3q5c1wp23qevm2nws4vmsi6jflo156,E35UoQWC,2020-0188,2021-10-31,07:54:07,09:11:46,NA,incomplete,false,NA,NA,true,4,7,NA,NA,NA,left,m_l_035.jpg,green,white,NA,NA,NA,NA,NA,NA,NA,NA,NA,NaN,NA,2998.7000000029802,left,1,NA,NA,NA,NA,NA
E35UoQWC,3bakuke4akpi45n0y93n6zfn3q3r1f,3q5c1wp23qevm2nws4vmsi6jflo156,E35UoQWC,2020-0188,2021-10-31,07:54:07,09:11:46,NA,incomplete,false,NA,NA,true,4,8,NA,NA,NA,right,m_l_011.jpg,blue,green,NA,NA,NA,NA,NA,NA,NA,NA,NA,NaN,NA,2022.7000000029802,right,1,NA,NA,NA,NA,NA
E35UoQWC,3bakuke4akpi45n0y93n6zfn3q3r1f,3q5c1wp23qevm2nws4vmsi6jflo156,E35UoQWC,2020-0188,2021-10-31,07:54:07,09:11:46,NA,incomplete,false,NA,NA,true,4,9,NA,NA,NA,left,m_l_036.jpg,blue,red,NA,NA,NA,NA,NA,NA,NA,NA,NA,NaN,NA,3319.7000000029802,left,1,NA,NA,NA,NA,NA
E35UoQWC,3bakuke4akpi45n0y93n6zfn3q3r1f,3q5c1wp23qevm2nws4vmsi6jflo156,E35UoQWC,2020-0188,2021-10-31,07:54:07,09:11:46,NA,incomplete,false,NA,NA,true,4,10,NA,NA,NA,right,n_s_013.jpg,blue,red,NA,NA,NA,NA,NA,NA,NA,NA,NA,NaN,NA,1446.7999999970198,right,1,NA,NA,NA,NA,NA
E35UoQWC,3bakuke4akpi45n0y93n6zfn3q3r1f,3q5c1wp23qevm2nws4vmsi6jflo156,E35UoQWC,2020-0188,2021-10-31,07:54:07,09:11:46,NA,incomplete,false,NA,NA,true,4,11,NA,NA,NA,right,m_l_087.jpg,green,blue,NA,NA,NA,NA,NA,NA,NA,NA,NA,NaN,NA,2239.300000011921,right,1,NA,NA,NA,NA,NA
E35UoQWC,3bakuke4akpi45n0y93n6zfn3q3r1f,3q5c1wp23qevm2nws4vmsi6jflo156,E35UoQWC,2020-0188,2021-10-31,07:54:07,09:11:46,NA,incomplete,false,NA,NA,true,4,12,NA,NA,NA,right,m_s_024.jpg,brown,red,NA,NA,NA,NA,NA,NA,NA,NA,NA,NaN,NA,1375.2000000029802,right,1,NA,NA,NA,NA,NA
E35UoQWC,3bakuke4akpi45n0y93n6zfn3q3r1f,3q5c1wp23qevm2nws4vmsi6jflo156,E35UoQWC,2020-0188,2021-10-31,07:54:07,09:11:46,NA,incomplete,false,NA,NA,true,4,13,NA,NA,NA,right,n_l_015.jpg,brown,yellow,NA,NA,NA,NA,NA,NA,NA,NA,NA,NaN,NA,2087.5,left,0,NA,NA,NA,NA,NA
E35UoQWC,3bakuke4akpi45n0y93n6zfn3q3r1f,3q5c1wp23qevm2nws4vmsi6jflo156,E35UoQWC,2020-0188,2021-10-31,07:54:07,09:11:46,NA,incomplete,false,NA,NA,true,4,14,NA,NA,NA,left,m_l_099.jpg,blue,red,NA,NA,NA,NA,NA,NA,NA,NA,NA,NaN,NA,1751.2000000029802,left,1,NA,NA,NA,NA,NA
E35UoQWC,3bakuke4akpi45n0y93n6zfn3q3r1f,3q5c1wp23qevm2nws4vmsi6jflo156,E35UoQWC,2020-0188,2021-10-31,07:54:07,09:11:46,NA,incomplete,false,NA,NA,true,4,15,NA,NA,NA,left,n_l_037.jpg,green,blue,NA,NA,NA,NA,NA,NA,NA,NA,NA,NaN,NA,2039.7000000029802,left,1,NA,NA,NA,NA,NA
E35UoQWC,3bakuke4akpi45n0y93n6zfn3q3r1f,3q5c1wp23qevm2nws4vmsi6jflo156,E35UoQWC,2020-0188,2021-10-31,07:54:07,09:11:46,NA,incomplete,false,NA,NA,true,4,16,NA,NA,NA,left,n_s_104.jpg,brown,red,NA,NA,NA,NA,NA,NA,NA,NA,NA,NaN,NA,4680.100000008941,right,0,NA,NA,NA,NA,NA
E35UoQWC,3bakuke4akpi45n0y93n6zfn3q3r1f,3q5c1wp23qevm2nws4vmsi6jflo156,E35UoQWC,2020-0188,2021-10-31,07:54:07,09:11:46,NA,incomplete,false,NA,NA,true,4,17,NA,NA,NA,left,n_l_019.jpg,red,blue,NA,NA,NA,NA,NA,NA,NA,NA,NA,NaN,NA,2039,left,1,NA,NA,NA,NA,NA
E35UoQWC,3bakuke4akpi45n0y93n6zfn3q3r1f,3q5c1wp23qevm2nws4vmsi6jflo156,E35UoQWC,2020-0188,2021-10-31,07:54:07,09:11:46,NA,incomplete,false,NA,NA,true,4,18,NA,NA,NA,right,m_s_031.jpg,white,green,NA,NA,NA,NA,NA,NA,NA,NA,NA,NaN,NA,2839.2999999970198,right,1,NA,NA,NA,NA,NA
E35UoQWC,3bakuke4akpi45n0y93n6zfn3q3r1f,3q5c1wp23qevm2nws4vmsi6jflo156,E35UoQWC,2020-0188,2021-10-31,07:54:07,09:11:46,NA,incomplete,false,NA,NA,true,4,19,NA,NA,NA,right,n_l_104.jpg,red,brown,NA,NA,NA,NA,NA,NA,NA,NA,NA,NaN,NA,2407.3999999910593,right,1,NA,NA,NA,NA,NA
E35UoQWC,3bakuke4akpi45n0y93n6zfn3q3r1f,3q5c1wp23qevm2nws4vmsi6jflo156,E35UoQWC,2020-0188,2021-10-31,07:54:07,09:11:46,NA,incomplete,false,NA,NA,true,4,20,NA,NA,NA,right,n_l_087.jpg,green,white,NA,NA,NA,NA,NA,NA,NA,NA,NA,NaN,NA,1695,right,1,NA,NA,NA,NA,NA
E35UoQWC,3bakuke4akpi45n0y93n6zfn3q3r1f,3q5c1wp23qevm2nws4vmsi6jflo156,E35UoQWC,2020-0188,2021-10-31,07:54:07,09:11:46,NA,incomplete,false,NA,NA,true,4,21,NA,NA,NA,right,m_s_053.jpg,red,brown,NA,NA,NA,NA,NA,NA,NA,NA,NA,NaN,NA,1974.7999999970198,left,0,NA,NA,NA,NA,NA
E35UoQWC,3bakuke4akpi45n0y93n6zfn3q3r1f,3q5c1wp23qevm2nws4vmsi6jflo156,E35UoQWC,2020-0188,2021-10-31,07:54:07,09:11:46,NA,incomplete,false,NA,true,NA,4,0,NA,NA,NA,left,NA,NA,NA,present,NA,NA,m_l_082.jpg,yellow,n_l_104.jpg,brown,between,NA,NaN,NA,NA,NA,NA,left,2958.9000000059605,1,1,1302.9000000059605
E35UoQWC,3bakuke4akpi45n0y93n6zfn3q3r1f,3q5c1wp23qevm2nws4vmsi6jflo156,E35UoQWC,2020-0188,2021-10-31,07:54:07,09:11:46,NA,incomplete,false,NA,true,NA,4,1,NA,NA,NA,right,NA,NA,NA,present,NA,NA,m_s_031.jpg,green,n_l_037.jpg,green,within,NA,NaN,NA,NA,NA,NA,right,4391.5,1,0,1135.0999999940395
E35UoQWC,3bakuke4akpi45n0y93n6zfn3q3r1f,3q5c1wp23qevm2nws4vmsi6jflo156,E35UoQWC,2020-0188,2021-10-31,07:54:07,09:11:46,NA,incomplete,false,NA,true,NA,4,2,NA,NA,NA,right,NA,NA,NA,present,NA,NA,m_l_087.jpg,blue,m_l_036.jpg,blue,within,NA,NaN,NA,NA,NA,NA,right,4655.800000011921,1,0,1471.7999999970198
E35UoQWC,3bakuke4akpi45n0y93n6zfn3q3r1f,3q5c1wp23qevm2nws4vmsi6jflo156,E35UoQWC,2020-0188,2021-10-31,07:54:07,09:11:46,NA,incomplete,false,NA,true,NA,4,3,NA,NA,NA,left,NA,NA,NA,present,NA,NA,m_s_024.jpg,red,n_l_014.jpg,blue,between,NA,NaN,NA,NA,NA,NA,left,4423.5999999940395,1,2,1030.699999988079
E35UoQWC,3bakuke4akpi45n0y93n6zfn3q3r1f,3q5c1wp23qevm2nws4vmsi6jflo156,E35UoQWC,2020-0188,2021-10-31,07:54:07,09:11:46,NA,incomplete,false,NA,true,NA,4,4,NA,NA,NA,left,NA,NA,NA,present,NA,NA,m_l_099.jpg,blue,m_l_035.jpg,green,between,NA,NaN,NA,NA,NA,NA,left,5215.399999991059,1,2,1927.0999999940395
E35UoQWC,3bakuke4akpi45n0y93n6zfn3q3r1f,3q5c1wp23qevm2nws4vmsi6jflo156,E35UoQWC,2020-0188,2021-10-31,07:54:07,09:11:46,NA,incomplete,false,NA,true,NA,4,5,NA,NA,NA,left,NA,NA,NA,present,NA,NA,n_s_100.jpg,white,n_l_087.jpg,white,within,NA,NaN,NA,NA,NA,NA,left,2951.2999999970198,1,0,1143
E35UoQWC,3bakuke4akpi45n0y93n6zfn3q3r1f,3q5c1wp23qevm2nws4vmsi6jflo156,E35UoQWC,2020-0188,2021-10-31,07:54:07,09:11:46,NA,incomplete,false,NA,true,NA,4,6,NA,NA,NA,left,NA,NA,NA,present,NA,NA,n_s_076.jpg,yellow,n_l_015.jpg,yellow,within,NA,NaN,NA,NA,NA,NA,left,3511.2999999970198,1,0,1830.9000000059605
E35UoQWC,3bakuke4akpi45n0y93n6zfn3q3r1f,3q5c1wp23qevm2nws4vmsi6jflo156,E35UoQWC,2020-0188,2021-10-31,07:54:07,09:11:46,NA,incomplete,false,NA,true,NA,4,7,NA,NA,NA,left,NA,NA,NA,present,NA,NA,m_l_011.jpg,green,n_l_006.jpg,white,between,NA,NaN,NA,NA,NA,NA,left,4199.29999999702,1,1,1047.699999988079
E35UoQWC,3bakuke4akpi45n0y93n6zfn3q3r1f,3q5c1wp23qevm2nws4vmsi6jflo156,E35UoQWC,2020-0188,2021-10-31,07:54:07,09:11:46,NA,incomplete,false,NA,true,NA,4,8,NA,NA,NA,left,NA,NA,NA,present,NA,NA,n_s_013.jpg,red,m_l_042.jpg,red,within,NA,NaN,NA,NA,NA,NA,right,4007.7999999970198,0,0,1670
E35UoQWC,3bakuke4akpi45n0y93n6zfn3q3r1f,3q5c1wp23qevm2nws4vmsi6jflo156,E35UoQWC,2020-0188,2021-10-31,07:54:07,09:11:46,NA,incomplete,false,NA,true,NA,4,9,NA,NA,NA,right,NA,NA,NA,present,NA,NA,n_s_104.jpg,brown,m_s_053.jpg,brown,within,NA,NaN,NA,NA,NA,NA,right,2174.9000000059605,1,0,1191
E35UoQWC,3bakuke4akpi45n0y93n6zfn3q3r1f,3q5c1wp23qevm2nws4vmsi6jflo156,E35UoQWC,2020-0188,2021-10-31,07:54:07,09:11:46,NA,incomplete,false,NA,true,NA,4,10,NA,NA,NA,right,NA,NA,NA,present,NA,NA,n_l_019.jpg,red,n_s_079.jpg,brown,between,NA,NaN,NA,NA,NA,NA,right,2559.5999999940395,1,1,1439.2000000029802
E35UoQWC,3bakuke4akpi45n0y93n6zfn3q3r1f,3q5c1wp23qevm2nws4vmsi6jflo156,E35UoQWC,2020-0188,2021-10-31,07:54:07,09:11:46,NA,incomplete,false,true,NA,NA,5,0,NA,green,m_s_009.jpg,NA,NA,NA,NA,NA,pleasant,unpleasant,NA,NA,NA,NA,NA,right,2651,true,NA,NA,NA,NA,NA,NA,NA,NA
E35UoQWC,3bakuke4akpi45n0y93n6zfn3q3r1f,3q5c1wp23qevm2nws4vmsi6jflo156,E35UoQWC,2020-0188,2021-10-31,07:54:07,09:11:46,NA,incomplete,false,true,NA,NA,5,1,NA,green,m_s_072.jpg,NA,NA,NA,NA,NA,unpleasant,pleasant,NA,NA,NA,NA,NA,right,1943.09999999404,true,NA,NA,NA,NA,NA,NA,NA,NA
E35UoQWC,3bakuke4akpi45n0y93n6zfn3q3r1f,3q5c1wp23qevm2nws4vmsi6jflo156,E35UoQWC,2020-0188,2021-10-31,07:54:07,09:11:46,NA,incomplete,false,true,NA,NA,5,2,NA,green,m_l_073.jpg,NA,NA,NA,NA,NA,pleasant,unpleasant,NA,NA,NA,NA,NA,left,1881.70000000298,true,NA,NA,NA,NA,NA,NA,NA,NA
E35UoQWC,3bakuke4akpi45n0y93n6zfn3q3r1f,3q5c1wp23qevm2nws4vmsi6jflo156,E35UoQWC,2020-0188,2021-10-31,07:54:07,09:11:46,NA,incomplete,false,true,NA,NA,5,3,NA,green,n_s_058.jpg,NA,NA,NA,NA,NA,pleasant,unpleasant,NA,NA,NA,NA,NA,left,1164.20000000298,true,NA,NA,NA,NA,NA,NA,NA,NA
E35UoQWC,3bakuke4akpi45n0y93n6zfn3q3r1f,3q5c1wp23qevm2nws4vmsi6jflo156,E35UoQWC,2020-0188,2021-10-31,07:54:07,09:11:46,NA,incomplete,false,true,NA,NA,5,4,NA,green,n_s_021.jpg,NA,NA,NA,NA,NA,unpleasant,pleasant,NA,NA,NA,NA,NA,left,1701.5,true,NA,NA,NA,NA,NA,NA,NA,NA
E35UoQWC,3bakuke4akpi45n0y93n6zfn3q3r1f,3q5c1wp23qevm2nws4vmsi6jflo156,E35UoQWC,2020-0188,2021-10-31,07:54:07,09:11:46,NA,incomplete,false,true,NA,NA,5,5,NA,green,n_s_064.jpg,NA,NA,NA,NA,NA,unpleasant,pleasant,NA,NA,NA,NA,NA,left,1270.59999999404,true,NA,NA,NA,NA,NA,NA,NA,NA
E35UoQWC,3bakuke4akpi45n0y93n6zfn3q3r1f,3q5c1wp23qevm2nws4vmsi6jflo156,E35UoQWC,2020-0188,2021-10-31,07:54:07,09:11:46,NA,incomplete,false,true,NA,NA,5,6,NA,purple,m_l_050.jpg,NA,NA,NA,NA,NA,unpleasant,pleasant,NA,NA,NA,NA,NA,left,2710.60000000894,true,NA,NA,NA,NA,NA,NA,NA,NA
E35UoQWC,3bakuke4akpi45n0y93n6zfn3q3r1f,3q5c1wp23qevm2nws4vmsi6jflo156,E35UoQWC,2020-0188,2021-10-31,07:54:07,09:11:46,NA,incomplete,false,true,NA,NA,5,7,NA,purple,m_s_069.jpg,NA,NA,NA,NA,NA,unpleasant,pleasant,NA,NA,NA,NA,NA,left,1228.09999999404,true,NA,NA,NA,NA,NA,NA,NA,NA
E35UoQWC,3bakuke4akpi45n0y93n6zfn3q3r1f,3q5c1wp23qevm2nws4vmsi6jflo156,E35UoQWC,2020-0188,2021-10-31,07:54:07,09:11:46,NA,incomplete,false,true,NA,NA,5,8,NA,purple,n_s_060.jpg,NA,NA,NA,NA,NA,unpleasant,pleasant,NA,NA,NA,NA,NA,left,1709.79999999702,true,NA,NA,NA,NA,NA,NA,NA,NA
E35UoQWC,3bakuke4akpi45n0y93n6zfn3q3r1f,3q5c1wp23qevm2nws4vmsi6jflo156,E35UoQWC,2020-0188,2021-10-31,07:54:07,09:11:46,NA,incomplete,false,true,NA,NA,5,9,NA,purple,m_s_044.jpg,NA,NA,NA,NA,NA,pleasant,unpleasant,NA,NA,NA,NA,NA,left,1335.10000000894,true,NA,NA,NA,NA,NA,NA,NA,NA
E35UoQWC,3bakuke4akpi45n0y93n6zfn3q3r1f,3q5c1wp23qevm2nws4vmsi6jflo156,E35UoQWC,2020-0188,2021-10-31,07:54:07,09:11:46,NA,incomplete,false,true,NA,NA,5,10,NA,purple,m_l_040.jpg,NA,NA,NA,NA,NA,pleasant,unpleasant,NA,NA,NA,NA,NA,right,2332.09999999404,true,NA,NA,NA,NA,NA,NA,NA,NA
E35UoQWC,3bakuke4akpi45n0y93n6zfn3q3r1f,3q5c1wp23qevm2nws4vmsi6jflo156,E35UoQWC,2020-0188,2021-10-31,07:54:07,09:11:46,NA,incomplete,false,true,NA,NA,5,11,NA,purple,n_l_072.jpg,NA,NA,NA,NA,NA,unpleasant,pleasant,NA,NA,NA,NA,NA,left,1985.89999999106,true,NA,NA,NA,NA,NA,NA,NA,NA
E35UoQWC,3bakuke4akpi45n0y93n6zfn3q3r1f,3q5c1wp23qevm2nws4vmsi6jflo156,E35UoQWC,2020-0188,2021-10-31,07:54:07,09:11:46,NA,incomplete,false,true,NA,NA,5,12,NA,white,n_l_031.jpg,NA,NA,NA,NA,NA,pleasant,unpleasant,NA,NA,NA,NA,NA,left,2362.79999999702,true,NA,NA,NA,NA,NA,NA,NA,NA
E35UoQWC,3bakuke4akpi45n0y93n6zfn3q3r1f,3q5c1wp23qevm2nws4vmsi6jflo156,E35UoQWC,2020-0188,2021-10-31,07:54:07,09:11:46,NA,incomplete,false,true,NA,NA,5,13,NA,white,n_s_080.jpg,NA,NA,NA,NA,NA,unpleasant,pleasant,NA,NA,NA,NA,NA,left,1520.70000000298,true,NA,NA,NA,NA,NA,NA,NA,NA
E35UoQWC,3bakuke4akpi45n0y93n6zfn3q3r1f,3q5c1wp23qevm2nws4vmsi6jflo156,E35UoQWC,2020-0188,2021-10-31,07:54:07,09:11:46,NA,incomplete,false,true,NA,NA,5,14,NA,white,m_s_073.jpg,NA,NA,NA,NA,NA,pleasant,unpleasant,NA,NA,NA,NA,NA,left,1052.10000000894,true,NA,NA,NA,NA,NA,NA,NA,NA
E35UoQWC,3bakuke4akpi45n0y93n6zfn3q3r1f,3q5c1wp23qevm2nws4vmsi6jflo156,E35UoQWC,2020-0188,2021-10-31,07:54:07,09:11:46,NA,incomplete,false,true,NA,NA,5,15,NA,white,n_l_106.jpg,NA,NA,NA,NA,NA,unpleasant,pleasant,NA,NA,NA,NA,NA,right,1566.90000000596,true,NA,NA,NA,NA,NA,NA,NA,NA
