workerId,hitId,assignmentId,subject,studyid,exp_date,exp_start,exp_end,time_start,time_end,practice,encoding,memory,association,block,trial,event_order,event,stim,answer,object,left_context,right_context,context_type,label_left,label_right,left_image,left_event,right_image,right_event,condition,response,response_time,response_acc,association_response_time,association_response,association_acc,order_response,order_response_time,order_acc,distance_response,distance_response_time
XHbxVDBq,375vsr8fwzmfz1886kcfytzzg59zr5,3r6byfzzpbpve01e59t2931x9umxfi,XHbxVDBq,2020-0188,2021-10-31,12:12:09,13:27:38,NA,incomplete,true,true,NA,NA,0,0,NA,blue,n_l_084.jpg,NA,NA,NA,NA,NA,unpleasant,pleasant,NA,NA,NA,NA,NA,right,2507.80000007153,true,NA,NA,NA,NA,NA,NA,NA,NA
XHbxVDBq,375vsr8fwzmfz1886kcfytzzg59zr5,3r6byfzzpbpve01e59t2931x9umxfi,XHbxVDBq,2020-0188,2021-10-31,12:12:09,13:27:38,NA,incomplete,true,true,NA,NA,0,1,NA,blue,m_s_086.jpg,NA,NA,NA,NA,NA,unpleasant,pleasant,NA,NA,NA,NA,NA,right,2177.5,true,NA,NA,NA,NA,NA,NA,NA,NA
XHbxVDBq,375vsr8fwzmfz1886kcfytzzg59zr5,3r6byfzzpbpve01e59t2931x9umxfi,XHbxVDBq,2020-0188,2021-10-31,12:12:09,13:27:38,NA,incomplete,true,true,NA,NA,0,2,NA,blue,m_s_001.jpg,NA,NA,NA,NA,NA,unpleasant,pleasant,NA,NA,NA,NA,NA,right,2230.89999997616,true,NA,NA,NA,NA,NA,NA,NA,NA
XHbxVDBq,375vsr8fwzmfz1886kcfytzzg59zr5,3r6byfzzpbpve01e59t2931x9umxfi,XHbxVDBq,2020-0188,2021-10-31,12:12:09,13:27:38,NA,incomplete,true,true,NA,NA,0,3,NA,blue,m_s_110.jpg,NA,NA,NA,NA,NA,unpleasant,pleasant,NA,NA,NA,NA,NA,none,0,false,NA,NA,NA,NA,NA,NA,NA,NA
XHbxVDBq,375vsr8fwzmfz1886kcfytzzg59zr5,3r6byfzzpbpve01e59t2931x9umxfi,XHbxVDBq,2020-0188,2021-10-31,12:12:09,13:27:38,NA,incomplete,true,true,NA,NA,0,4,NA,blue,m_s_060.jpg,NA,NA,NA,NA,NA,pleasant,unpleasant,NA,NA,NA,NA,NA,none,0,false,NA,NA,NA,NA,NA,NA,NA,NA
XHbxVDBq,375vsr8fwzmfz1886kcfytzzg59zr5,3r6byfzzpbpve01e59t2931x9umxfi,XHbxVDBq,2020-0188,2021-10-31,12:12:09,13:27:38,NA,incomplete,true,true,NA,NA,0,5,NA,blue,m_s_064.jpg,NA,NA,NA,NA,NA,unpleasant,pleasant,NA,NA,NA,NA,NA,none,0,false,NA,NA,NA,NA,NA,NA,NA,NA
XHbxVDBq,375vsr8fwzmfz1886kcfytzzg59zr5,3r6byfzzpbpve01e59t2931x9umxfi,XHbxVDBq,2020-0188,2021-10-31,12:12:09,13:27:38,NA,incomplete,true,true,NA,NA,0,6,NA,white,n_s_073.jpg,NA,NA,NA,NA,NA,unpleasant,pleasant,NA,NA,NA,NA,NA,none,0,false,NA,NA,NA,NA,NA,NA,NA,NA
XHbxVDBq,375vsr8fwzmfz1886kcfytzzg59zr5,3r6byfzzpbpve01e59t2931x9umxfi,XHbxVDBq,2020-0188,2021-10-31,12:12:09,13:27:38,NA,incomplete,true,true,NA,NA,0,7,NA,white,n_l_012.jpg,NA,NA,NA,NA,NA,pleasant,unpleasant,NA,NA,NA,NA,NA,right,2469,true,NA,NA,NA,NA,NA,NA,NA,NA
XHbxVDBq,375vsr8fwzmfz1886kcfytzzg59zr5,3r6byfzzpbpve01e59t2931x9umxfi,XHbxVDBq,2020-0188,2021-10-31,12:12:09,13:27:38,NA,incomplete,true,true,NA,NA,0,8,NA,white,n_s_101.jpg,NA,NA,NA,NA,NA,unpleasant,pleasant,NA,NA,NA,NA,NA,right,1100,true,NA,NA,NA,NA,NA,NA,NA,NA
XHbxVDBq,375vsr8fwzmfz1886kcfytzzg59zr5,3r6byfzzpbpve01e59t2931x9umxfi,XHbxVDBq,2020-0188,2021-10-31,12:12:09,13:27:38,NA,incomplete,true,true,NA,NA,0,9,NA,white,n_l_054.jpg,NA,NA,NA,NA,NA,pleasant,unpleasant,NA,NA,NA,NA,NA,right,915.900000095367,true,NA,NA,NA,NA,NA,NA,NA,NA
XHbxVDBq,375vsr8fwzmfz1886kcfytzzg59zr5,3r6byfzzpbpve01e59t2931x9umxfi,XHbxVDBq,2020-0188,2021-10-31,12:12:09,13:27:38,NA,incomplete,true,true,NA,NA,0,10,NA,white,n_l_026.jpg,NA,NA,NA,NA,NA,unpleasant,pleasant,NA,NA,NA,NA,NA,right,1336,true,NA,NA,NA,NA,NA,NA,NA,NA
XHbxVDBq,375vsr8fwzmfz1886kcfytzzg59zr5,3r6byfzzpbpve01e59t2931x9umxfi,XHbxVDBq,2020-0188,2021-10-31,12:12:09,13:27:38,NA,incomplete,true,true,NA,NA,0,11,NA,white,n_s_021.jpg,NA,NA,NA,NA,NA,unpleasant,pleasant,NA,NA,NA,NA,NA,right,1498.29999995232,true,NA,NA,NA,NA,NA,NA,NA,NA
XHbxVDBq,375vsr8fwzmfz1886kcfytzzg59zr5,3r6byfzzpbpve01e59t2931x9umxfi,XHbxVDBq,2020-0188,2021-10-31,12:12:09,13:27:38,NA,incomplete,true,true,NA,NA,0,12,NA,brown,m_l_003.jpg,NA,NA,NA,NA,NA,pleasant,unpleasant,NA,NA,NA,NA,NA,right,1207.30000007153,true,NA,NA,NA,NA,NA,NA,NA,NA
XHbxVDBq,375vsr8fwzmfz1886kcfytzzg59zr5,3r6byfzzpbpve01e59t2931x9umxfi,XHbxVDBq,2020-0188,2021-10-31,12:12:09,13:27:38,NA,incomplete,true,true,NA,NA,0,13,NA,brown,m_l_084.jpg,NA,NA,NA,NA,NA,pleasant,unpleasant,NA,NA,NA,NA,NA,right,1254.5,true,NA,NA,NA,NA,NA,NA,NA,NA
XHbxVDBq,375vsr8fwzmfz1886kcfytzzg59zr5,3r6byfzzpbpve01e59t2931x9umxfi,XHbxVDBq,2020-0188,2021-10-31,12:12:09,13:27:38,NA,incomplete,true,true,NA,NA,0,14,NA,brown,m_s_042.jpg,NA,NA,NA,NA,NA,pleasant,unpleasant,NA,NA,NA,NA,NA,right,1015.69999992847,true,NA,NA,NA,NA,NA,NA,NA,NA
XHbxVDBq,375vsr8fwzmfz1886kcfytzzg59zr5,3r6byfzzpbpve01e59t2931x9umxfi,XHbxVDBq,2020-0188,2021-10-31,12:12:09,13:27:38,NA,incomplete,true,true,NA,NA,0,15,NA,brown,m_s_075.jpg,NA,NA,NA,NA,NA,pleasant,unpleasant,NA,NA,NA,NA,NA,right,963.099999904633,true,NA,NA,NA,NA,NA,NA,NA,NA
XHbxVDBq,375vsr8fwzmfz1886kcfytzzg59zr5,3r6byfzzpbpve01e59t2931x9umxfi,XHbxVDBq,2020-0188,2021-10-31,12:12:09,13:27:38,NA,incomplete,true,true,NA,NA,0,16,NA,brown,m_s_039.jpg,NA,NA,NA,NA,NA,pleasant,unpleasant,NA,NA,NA,NA,NA,right,225.199999928474,true,NA,NA,NA,NA,NA,NA,NA,NA
XHbxVDBq,375vsr8fwzmfz1886kcfytzzg59zr5,3r6byfzzpbpve01e59t2931x9umxfi,XHbxVDBq,2020-0188,2021-10-31,12:12:09,13:27:38,NA,incomplete,true,true,NA,NA,0,17,NA,brown,m_s_016.jpg,NA,NA,NA,NA,NA,unpleasant,pleasant,NA,NA,NA,NA,NA,right,903.300000071526,true,NA,NA,NA,NA,NA,NA,NA,NA
XHbxVDBq,375vsr8fwzmfz1886kcfytzzg59zr5,3r6byfzzpbpve01e59t2931x9umxfi,XHbxVDBq,2020-0188,2021-10-31,12:12:09,13:27:38,NA,incomplete,true,true,NA,NA,0,18,NA,purple,n_s_012.jpg,NA,NA,NA,NA,NA,unpleasant,pleasant,NA,NA,NA,NA,NA,right,1258.69999992847,true,NA,NA,NA,NA,NA,NA,NA,NA
XHbxVDBq,375vsr8fwzmfz1886kcfytzzg59zr5,3r6byfzzpbpve01e59t2931x9umxfi,XHbxVDBq,2020-0188,2021-10-31,12:12:09,13:27:38,NA,incomplete,true,true,NA,NA,0,19,NA,purple,n_l_042.jpg,NA,NA,NA,NA,NA,pleasant,unpleasant,NA,NA,NA,NA,NA,right,993.5,true,NA,NA,NA,NA,NA,NA,NA,NA
XHbxVDBq,375vsr8fwzmfz1886kcfytzzg59zr5,3r6byfzzpbpve01e59t2931x9umxfi,XHbxVDBq,2020-0188,2021-10-31,12:12:09,13:27:38,NA,incomplete,true,true,NA,NA,0,20,NA,purple,m_s_020.jpg,NA,NA,NA,NA,NA,pleasant,unpleasant,NA,NA,NA,NA,NA,right,1130.70000004768,true,NA,NA,NA,NA,NA,NA,NA,NA
XHbxVDBq,375vsr8fwzmfz1886kcfytzzg59zr5,3r6byfzzpbpve01e59t2931x9umxfi,XHbxVDBq,2020-0188,2021-10-31,12:12:09,13:27:38,NA,incomplete,true,true,NA,NA,0,21,NA,purple,n_s_096.jpg,NA,NA,NA,NA,NA,pleasant,unpleasant,NA,NA,NA,NA,NA,right,1253.5,true,NA,NA,NA,NA,NA,NA,NA,NA
XHbxVDBq,375vsr8fwzmfz1886kcfytzzg59zr5,3r6byfzzpbpve01e59t2931x9umxfi,XHbxVDBq,2020-0188,2021-10-31,12:12:09,13:27:38,NA,incomplete,true,true,NA,NA,0,22,NA,purple,m_l_104.jpg,NA,NA,NA,NA,NA,unpleasant,pleasant,NA,NA,NA,NA,NA,right,1593.79999995232,true,NA,NA,NA,NA,NA,NA,NA,NA
XHbxVDBq,375vsr8fwzmfz1886kcfytzzg59zr5,3r6byfzzpbpve01e59t2931x9umxfi,XHbxVDBq,2020-0188,2021-10-31,12:12:09,13:27:38,NA,incomplete,true,true,NA,NA,0,23,NA,purple,m_s_070.jpg,NA,NA,NA,NA,NA,pleasant,unpleasant,NA,NA,NA,NA,NA,left,1422.10000002384,true,NA,NA,NA,NA,NA,NA,NA,NA
XHbxVDBq,375vsr8fwzmfz1886kcfytzzg59zr5,3r6byfzzpbpve01e59t2931x9umxfi,XHbxVDBq,2020-0188,2021-10-31,12:12:09,13:27:38,NA,incomplete,true,true,NA,NA,0,24,NA,gray,m_l_046.jpg,NA,NA,NA,NA,NA,pleasant,unpleasant,NA,NA,NA,NA,NA,left,1499.5,true,NA,NA,NA,NA,NA,NA,NA,NA
XHbxVDBq,375vsr8fwzmfz1886kcfytzzg59zr5,3r6byfzzpbpve01e59t2931x9umxfi,XHbxVDBq,2020-0188,2021-10-31,12:12:09,13:27:38,NA,incomplete,true,true,NA,NA,0,25,NA,gray,m_s_052.jpg,NA,NA,NA,NA,NA,pleasant,unpleasant,NA,NA,NA,NA,NA,left,1513.39999997616,true,NA,NA,NA,NA,NA,NA,NA,NA
XHbxVDBq,375vsr8fwzmfz1886kcfytzzg59zr5,3r6byfzzpbpve01e59t2931x9umxfi,XHbxVDBq,2020-0188,2021-10-31,12:12:09,13:27:38,NA,incomplete,true,true,NA,NA,0,26,NA,gray,m_l_050.jpg,NA,NA,NA,NA,NA,unpleasant,pleasant,NA,NA,NA,NA,NA,right,1784.59999990463,true,NA,NA,NA,NA,NA,NA,NA,NA
XHbxVDBq,375vsr8fwzmfz1886kcfytzzg59zr5,3r6byfzzpbpve01e59t2931x9umxfi,XHbxVDBq,2020-0188,2021-10-31,12:12:09,13:27:38,NA,incomplete,true,true,NA,NA,0,27,NA,gray,m_s_095.jpg,NA,NA,NA,NA,NA,pleasant,unpleasant,NA,NA,NA,NA,NA,left,1418.39999997616,true,NA,NA,NA,NA,NA,NA,NA,NA
XHbxVDBq,375vsr8fwzmfz1886kcfytzzg59zr5,3r6byfzzpbpve01e59t2931x9umxfi,XHbxVDBq,2020-0188,2021-10-31,12:12:09,13:27:38,NA,incomplete,true,true,NA,NA,0,28,NA,gray,m_l_083.jpg,NA,NA,NA,NA,NA,pleasant,unpleasant,NA,NA,NA,NA,NA,left,1806.70000004768,true,NA,NA,NA,NA,NA,NA,NA,NA
XHbxVDBq,375vsr8fwzmfz1886kcfytzzg59zr5,3r6byfzzpbpve01e59t2931x9umxfi,XHbxVDBq,2020-0188,2021-10-31,12:12:09,13:27:38,NA,incomplete,true,true,NA,NA,0,29,NA,gray,n_s_070.jpg,NA,NA,NA,NA,NA,pleasant,unpleasant,NA,NA,NA,NA,NA,left,1803.10000002384,true,NA,NA,NA,NA,NA,NA,NA,NA
XHbxVDBq,375vsr8fwzmfz1886kcfytzzg59zr5,3r6byfzzpbpve01e59t2931x9umxfi,XHbxVDBq,2020-0188,2021-10-31,12:12:09,13:27:38,NA,incomplete,true,true,NA,NA,0,30,NA,red,m_s_090.jpg,NA,NA,NA,NA,NA,pleasant,unpleasant,NA,NA,NA,NA,NA,left,2616.20000004768,true,NA,NA,NA,NA,NA,NA,NA,NA
XHbxVDBq,375vsr8fwzmfz1886kcfytzzg59zr5,3r6byfzzpbpve01e59t2931x9umxfi,XHbxVDBq,2020-0188,2021-10-31,12:12:09,13:27:38,NA,incomplete,true,true,NA,NA,0,31,NA,red,n_s_071.jpg,NA,NA,NA,NA,NA,unpleasant,pleasant,NA,NA,NA,NA,NA,right,1440.69999992847,true,NA,NA,NA,NA,NA,NA,NA,NA
XHbxVDBq,375vsr8fwzmfz1886kcfytzzg59zr5,3r6byfzzpbpve01e59t2931x9umxfi,XHbxVDBq,2020-0188,2021-10-31,12:12:09,13:27:38,NA,incomplete,true,true,NA,NA,0,32,NA,red,m_l_025.jpg,NA,NA,NA,NA,NA,pleasant,unpleasant,NA,NA,NA,NA,NA,left,1451.60000002384,true,NA,NA,NA,NA,NA,NA,NA,NA
XHbxVDBq,375vsr8fwzmfz1886kcfytzzg59zr5,3r6byfzzpbpve01e59t2931x9umxfi,XHbxVDBq,2020-0188,2021-10-31,12:12:09,13:27:38,NA,incomplete,true,true,NA,NA,0,33,NA,red,m_l_033.jpg,NA,NA,NA,NA,NA,pleasant,unpleasant,NA,NA,NA,NA,NA,left,1534.80000007153,true,NA,NA,NA,NA,NA,NA,NA,NA
XHbxVDBq,375vsr8fwzmfz1886kcfytzzg59zr5,3r6byfzzpbpve01e59t2931x9umxfi,XHbxVDBq,2020-0188,2021-10-31,12:12:09,13:27:38,NA,incomplete,true,true,NA,NA,0,34,NA,red,m_l_078.jpg,NA,NA,NA,NA,NA,pleasant,unpleasant,NA,NA,NA,NA,NA,left,1267.30000007153,true,NA,NA,NA,NA,NA,NA,NA,NA
XHbxVDBq,375vsr8fwzmfz1886kcfytzzg59zr5,3r6byfzzpbpve01e59t2931x9umxfi,XHbxVDBq,2020-0188,2021-10-31,12:12:09,13:27:38,NA,incomplete,true,true,NA,NA,0,35,NA,red,m_s_048.jpg,NA,NA,NA,NA,NA,unpleasant,pleasant,NA,NA,NA,NA,NA,right,1117.5,true,NA,NA,NA,NA,NA,NA,NA,NA
XHbxVDBq,375vsr8fwzmfz1886kcfytzzg59zr5,3r6byfzzpbpve01e59t2931x9umxfi,XHbxVDBq,2020-0188,2021-10-31,12:12:09,13:27:38,NA,incomplete,true,NA,NA,true,0,0,NA,NA,NA,left,n_l_012.jpg,white,blue,NA,NA,NA,NA,NA,NA,NA,NA,NA,NaN,NA,9008.600000023842,left,1,NA,NA,NA,NA,NA
XHbxVDBq,375vsr8fwzmfz1886kcfytzzg59zr5,3r6byfzzpbpve01e59t2931x9umxfi,XHbxVDBq,2020-0188,2021-10-31,12:12:09,13:27:38,NA,incomplete,true,NA,NA,true,0,1,NA,NA,NA,left,m_s_086.jpg,blue,white,NA,NA,NA,NA,NA,NA,NA,NA,NA,NaN,NA,3299.2999999523163,left,1,NA,NA,NA,NA,NA
XHbxVDBq,375vsr8fwzmfz1886kcfytzzg59zr5,3r6byfzzpbpve01e59t2931x9umxfi,XHbxVDBq,2020-0188,2021-10-31,12:12:09,13:27:38,NA,incomplete,true,NA,NA,true,0,2,NA,NA,NA,right,m_s_048.jpg,gray,red,NA,NA,NA,NA,NA,NA,NA,NA,NA,NaN,NA,12528.899999976158,right,1,NA,NA,NA,NA,NA
XHbxVDBq,375vsr8fwzmfz1886kcfytzzg59zr5,3r6byfzzpbpve01e59t2931x9umxfi,XHbxVDBq,2020-0188,2021-10-31,12:12:09,13:27:38,NA,incomplete,true,NA,NA,true,0,3,NA,NA,NA,left,n_s_070.jpg,gray,red,NA,NA,NA,NA,NA,NA,NA,NA,NA,NaN,NA,14600.700000047684,left,1,NA,NA,NA,NA,NA
XHbxVDBq,375vsr8fwzmfz1886kcfytzzg59zr5,3r6byfzzpbpve01e59t2931x9umxfi,XHbxVDBq,2020-0188,2021-10-31,12:12:09,13:27:38,NA,incomplete,true,NA,NA,true,0,4,NA,NA,NA,left,m_l_084.jpg,brown,purple,NA,NA,NA,NA,NA,NA,NA,NA,NA,NaN,NA,5308.799999952316,left,1,NA,NA,NA,NA,NA
XHbxVDBq,375vsr8fwzmfz1886kcfytzzg59zr5,3r6byfzzpbpve01e59t2931x9umxfi,XHbxVDBq,2020-0188,2021-10-31,12:12:09,13:27:38,NA,incomplete,true,NA,NA,true,0,5,NA,NA,NA,right,m_s_064.jpg,white,blue,NA,NA,NA,NA,NA,NA,NA,NA,NA,NaN,NA,3413.7000000476837,right,1,NA,NA,NA,NA,NA
XHbxVDBq,375vsr8fwzmfz1886kcfytzzg59zr5,3r6byfzzpbpve01e59t2931x9umxfi,XHbxVDBq,2020-0188,2021-10-31,12:12:09,13:27:38,NA,incomplete,true,NA,NA,true,0,6,NA,NA,NA,right,m_s_039.jpg,white,brown,NA,NA,NA,NA,NA,NA,NA,NA,NA,NaN,NA,1993.3999999761581,right,1,NA,NA,NA,NA,NA
XHbxVDBq,375vsr8fwzmfz1886kcfytzzg59zr5,3r6byfzzpbpve01e59t2931x9umxfi,XHbxVDBq,2020-0188,2021-10-31,12:12:09,13:27:38,NA,incomplete,true,NA,NA,true,0,7,NA,NA,NA,right,m_s_060.jpg,white,blue,NA,NA,NA,NA,NA,NA,NA,NA,NA,NaN,NA,4710.399999976158,right,1,NA,NA,NA,NA,NA
XHbxVDBq,375vsr8fwzmfz1886kcfytzzg59zr5,3r6byfzzpbpve01e59t2931x9umxfi,XHbxVDBq,2020-0188,2021-10-31,12:12:09,13:27:38,NA,incomplete,true,NA,NA,true,0,8,NA,NA,NA,right,m_s_042.jpg,purple,brown,NA,NA,NA,NA,NA,NA,NA,NA,NA,NaN,NA,2118,right,1,NA,NA,NA,NA,NA
XHbxVDBq,375vsr8fwzmfz1886kcfytzzg59zr5,3r6byfzzpbpve01e59t2931x9umxfi,XHbxVDBq,2020-0188,2021-10-31,12:12:09,13:27:38,NA,incomplete,true,NA,NA,true,0,9,NA,NA,NA,right,m_s_052.jpg,red,gray,NA,NA,NA,NA,NA,NA,NA,NA,NA,NaN,NA,1848.5999999046326,right,1,NA,NA,NA,NA,NA
XHbxVDBq,375vsr8fwzmfz1886kcfytzzg59zr5,3r6byfzzpbpve01e59t2931x9umxfi,XHbxVDBq,2020-0188,2021-10-31,12:12:09,13:27:38,NA,incomplete,true,NA,NA,true,0,10,NA,NA,NA,left,n_s_101.jpg,white,brown,NA,NA,NA,NA,NA,NA,NA,NA,NA,NaN,NA,13525.299999952316,left,1,NA,NA,NA,NA,NA
XHbxVDBq,375vsr8fwzmfz1886kcfytzzg59zr5,3r6byfzzpbpve01e59t2931x9umxfi,XHbxVDBq,2020-0188,2021-10-31,12:12:09,13:27:38,NA,incomplete,true,NA,NA,true,0,11,NA,NA,NA,right,n_l_026.jpg,brown,white,NA,NA,NA,NA,NA,NA,NA,NA,NA,NaN,NA,6226.600000023842,right,1,NA,NA,NA,NA,NA
XHbxVDBq,375vsr8fwzmfz1886kcfytzzg59zr5,3r6byfzzpbpve01e59t2931x9umxfi,XHbxVDBq,2020-0188,2021-10-31,12:12:09,13:27:38,NA,incomplete,true,NA,NA,true,0,12,NA,NA,NA,left,n_s_021.jpg,white,blue,NA,NA,NA,NA,NA,NA,NA,NA,NA,NaN,NA,3829,left,1,NA,NA,NA,NA,NA
XHbxVDBq,375vsr8fwzmfz1886kcfytzzg59zr5,3r6byfzzpbpve01e59t2931x9umxfi,XHbxVDBq,2020-0188,2021-10-31,12:12:09,13:27:38,NA,incomplete,true,NA,NA,true,0,13,NA,NA,NA,right,m_s_016.jpg,purple,brown,NA,NA,NA,NA,NA,NA,NA,NA,NA,NaN,NA,9404.100000023842,right,1,NA,NA,NA,NA,NA
XHbxVDBq,375vsr8fwzmfz1886kcfytzzg59zr5,3r6byfzzpbpve01e59t2931x9umxfi,XHbxVDBq,2020-0188,2021-10-31,12:12:09,13:27:38,NA,incomplete,true,NA,NA,true,0,14,NA,NA,NA,right,n_l_042.jpg,brown,purple,NA,NA,NA,NA,NA,NA,NA,NA,NA,NaN,NA,8269.5,right,1,NA,NA,NA,NA,NA
XHbxVDBq,375vsr8fwzmfz1886kcfytzzg59zr5,3r6byfzzpbpve01e59t2931x9umxfi,XHbxVDBq,2020-0188,2021-10-31,12:12:09,13:27:38,NA,incomplete,true,NA,NA,true,0,15,NA,NA,NA,left,m_l_083.jpg,gray,red,NA,NA,NA,NA,NA,NA,NA,NA,NA,NaN,NA,8518.300000071526,left,1,NA,NA,NA,NA,NA
XHbxVDBq,375vsr8fwzmfz1886kcfytzzg59zr5,3r6byfzzpbpve01e59t2931x9umxfi,XHbxVDBq,2020-0188,2021-10-31,12:12:09,13:27:38,NA,incomplete,true,NA,NA,true,0,16,NA,NA,NA,left,m_s_070.jpg,purple,gray,NA,NA,NA,NA,NA,NA,NA,NA,NA,NaN,NA,5008.399999976158,left,1,NA,NA,NA,NA,NA
XHbxVDBq,375vsr8fwzmfz1886kcfytzzg59zr5,3r6byfzzpbpve01e59t2931x9umxfi,XHbxVDBq,2020-0188,2021-10-31,12:12:09,13:27:38,NA,incomplete,true,NA,NA,true,0,17,NA,NA,NA,left,m_s_020.jpg,purple,gray,NA,NA,NA,NA,NA,NA,NA,NA,NA,NaN,NA,7939.100000023842,left,1,NA,NA,NA,NA,NA
XHbxVDBq,375vsr8fwzmfz1886kcfytzzg59zr5,3r6byfzzpbpve01e59t2931x9umxfi,XHbxVDBq,2020-0188,2021-10-31,12:12:09,13:27:38,NA,incomplete,true,NA,NA,true,0,18,NA,NA,NA,right,n_s_071.jpg,gray,red,NA,NA,NA,NA,NA,NA,NA,NA,NA,NaN,NA,8144,right,1,NA,NA,NA,NA,NA
XHbxVDBq,375vsr8fwzmfz1886kcfytzzg59zr5,3r6byfzzpbpve01e59t2931x9umxfi,XHbxVDBq,2020-0188,2021-10-31,12:12:09,13:27:38,NA,incomplete,true,NA,NA,true,0,19,NA,NA,NA,right,m_l_104.jpg,brown,purple,NA,NA,NA,NA,NA,NA,NA,NA,NA,NaN,NA,8438.399999976158,right,1,NA,NA,NA,NA,NA
XHbxVDBq,375vsr8fwzmfz1886kcfytzzg59zr5,3r6byfzzpbpve01e59t2931x9umxfi,XHbxVDBq,2020-0188,2021-10-31,12:12:09,13:27:38,NA,incomplete,true,NA,NA,true,0,20,NA,NA,NA,left,m_l_050.jpg,gray,purple,NA,NA,NA,NA,NA,NA,NA,NA,NA,NaN,NA,2882,left,1,NA,NA,NA,NA,NA
XHbxVDBq,375vsr8fwzmfz1886kcfytzzg59zr5,3r6byfzzpbpve01e59t2931x9umxfi,XHbxVDBq,2020-0188,2021-10-31,12:12:09,13:27:38,NA,incomplete,true,NA,NA,true,0,21,NA,NA,NA,right,m_l_025.jpg,gray,red,NA,NA,NA,NA,NA,NA,NA,NA,NA,NaN,NA,28087.699999928474,right,1,NA,NA,NA,NA,NA
XHbxVDBq,375vsr8fwzmfz1886kcfytzzg59zr5,3r6byfzzpbpve01e59t2931x9umxfi,XHbxVDBq,2020-0188,2021-10-31,12:12:09,13:27:38,NA,incomplete,true,NA,true,NA,0,0,NA,NA,NA,right,NA,NA,NA,absent,NA,NA,m_l_025.jpg,red,m_l_083.jpg,gray,between,NA,NaN,NA,NA,NA,NA,left,2394.8000000715256,0,3,1762.8000000715256
XHbxVDBq,375vsr8fwzmfz1886kcfytzzg59zr5,3r6byfzzpbpve01e59t2931x9umxfi,XHbxVDBq,2020-0188,2021-10-31,12:12:09,13:27:38,NA,incomplete,true,NA,true,NA,0,1,NA,NA,NA,right,NA,NA,NA,absent,NA,NA,m_s_042.jpg,brown,n_l_026.jpg,white,between,NA,NaN,NA,NA,NA,NA,right,15065.799999952316,1,3,1908.3000000715256
XHbxVDBq,375vsr8fwzmfz1886kcfytzzg59zr5,3r6byfzzpbpve01e59t2931x9umxfi,XHbxVDBq,2020-0188,2021-10-31,12:12:09,13:27:38,NA,incomplete,true,NA,true,NA,0,2,NA,NA,NA,left,NA,NA,NA,absent,NA,NA,m_s_060.jpg,blue,n_s_101.jpg,white,between,NA,NaN,NA,NA,NA,NA,left,14042.700000047684,1,3,1697.7999999523163
XHbxVDBq,375vsr8fwzmfz1886kcfytzzg59zr5,3r6byfzzpbpve01e59t2931x9umxfi,XHbxVDBq,2020-0188,2021-10-31,12:12:09,13:27:38,NA,incomplete,true,NA,true,NA,0,3,NA,NA,NA,left,NA,NA,NA,absent,NA,NA,m_l_084.jpg,brown,m_s_016.jpg,brown,within,NA,NaN,NA,NA,NA,NA,left,12967.5,1,3,1400.1999999284744
XHbxVDBq,375vsr8fwzmfz1886kcfytzzg59zr5,3r6byfzzpbpve01e59t2931x9umxfi,XHbxVDBq,2020-0188,2021-10-31,12:12:09,13:27:38,NA,incomplete,true,NA,true,NA,0,4,NA,NA,NA,right,NA,NA,NA,absent,NA,NA,m_l_050.jpg,gray,m_l_104.jpg,purple,between,NA,NaN,NA,NA,NA,NA,right,15176.700000047684,1,3,1976.5
XHbxVDBq,375vsr8fwzmfz1886kcfytzzg59zr5,3r6byfzzpbpve01e59t2931x9umxfi,XHbxVDBq,2020-0188,2021-10-31,12:12:09,13:27:38,NA,incomplete,true,NA,true,NA,0,5,NA,NA,NA,left,NA,NA,NA,absent,NA,NA,m_s_039.jpg,brown,m_s_020.jpg,purple,between,NA,NaN,NA,NA,NA,NA,left,10534.899999976158,1,3,1507.7000000476837
XHbxVDBq,375vsr8fwzmfz1886kcfytzzg59zr5,3r6byfzzpbpve01e59t2931x9umxfi,XHbxVDBq,2020-0188,2021-10-31,12:12:09,13:27:38,NA,incomplete,true,NA,true,NA,0,6,NA,NA,NA,left,NA,NA,NA,absent,NA,NA,m_s_052.jpg,gray,n_s_070.jpg,gray,within,NA,NaN,NA,NA,NA,NA,left,15138,1,3,1732.8999999761581
XHbxVDBq,375vsr8fwzmfz1886kcfytzzg59zr5,3r6byfzzpbpve01e59t2931x9umxfi,XHbxVDBq,2020-0188,2021-10-31,12:12:09,13:27:38,NA,incomplete,true,NA,true,NA,0,7,NA,NA,NA,left,NA,NA,NA,absent,NA,NA,n_s_071.jpg,red,m_s_048.jpg,red,within,NA,NaN,NA,NA,NA,NA,left,14018.5,1,3,1359.5
XHbxVDBq,375vsr8fwzmfz1886kcfytzzg59zr5,3r6byfzzpbpve01e59t2931x9umxfi,XHbxVDBq,2020-0188,2021-10-31,12:12:09,13:27:38,NA,incomplete,true,NA,true,NA,0,8,NA,NA,NA,left,NA,NA,NA,absent,NA,NA,m_s_086.jpg,blue,m_s_064.jpg,blue,within,NA,NaN,NA,NA,NA,NA,left,10570.600000023842,1,3,1737
XHbxVDBq,375vsr8fwzmfz1886kcfytzzg59zr5,3r6byfzzpbpve01e59t2931x9umxfi,XHbxVDBq,2020-0188,2021-10-31,12:12:09,13:27:38,NA,incomplete,true,NA,true,NA,0,9,NA,NA,NA,left,NA,NA,NA,absent,NA,NA,n_l_012.jpg,white,n_s_021.jpg,white,within,NA,NaN,NA,NA,NA,NA,left,8208.900000095367,1,3,1779
XHbxVDBq,375vsr8fwzmfz1886kcfytzzg59zr5,3r6byfzzpbpve01e59t2931x9umxfi,XHbxVDBq,2020-0188,2021-10-31,12:12:09,13:27:38,NA,incomplete,true,NA,true,NA,0,10,NA,NA,NA,right,NA,NA,NA,absent,NA,NA,m_s_070.jpg,purple,n_l_042.jpg,purple,within,NA,NaN,NA,NA,NA,NA,right,6998.899999976158,1,3,1706.2999999523163
XHbxVDBq,375vsr8fwzmfz1886kcfytzzg59zr5,3r6byfzzpbpve01e59t2931x9umxfi,XHbxVDBq,2020-0188,2021-10-31,12:12:09,13:27:38,NA,incomplete,false,true,NA,NA,1,0,NA,black,m_s_097.jpg,NA,NA,NA,NA,NA,pleasant,unpleasant,NA,NA,NA,NA,NA,left,1985.89999997616,true,NA,NA,NA,NA,NA,NA,NA,NA
XHbxVDBq,375vsr8fwzmfz1886kcfytzzg59zr5,3r6byfzzpbpve01e59t2931x9umxfi,XHbxVDBq,2020-0188,2021-10-31,12:12:09,13:27:38,NA,incomplete,false,true,NA,NA,1,1,NA,black,m_l_109.jpg,NA,NA,NA,NA,NA,unpleasant,pleasant,NA,NA,NA,NA,NA,right,1917.29999995232,true,NA,NA,NA,NA,NA,NA,NA,NA
XHbxVDBq,375vsr8fwzmfz1886kcfytzzg59zr5,3r6byfzzpbpve01e59t2931x9umxfi,XHbxVDBq,2020-0188,2021-10-31,12:12:09,13:27:38,NA,incomplete,false,true,NA,NA,1,2,NA,black,n_l_038.jpg,NA,NA,NA,NA,NA,unpleasant,pleasant,NA,NA,NA,NA,NA,none,0,false,NA,NA,NA,NA,NA,NA,NA,NA
XHbxVDBq,375vsr8fwzmfz1886kcfytzzg59zr5,3r6byfzzpbpve01e59t2931x9umxfi,XHbxVDBq,2020-0188,2021-10-31,12:12:09,13:27:38,NA,incomplete,false,true,NA,NA,1,3,NA,black,n_l_111.jpg,NA,NA,NA,NA,NA,unpleasant,pleasant,NA,NA,NA,NA,NA,right,306.399999976158,true,NA,NA,NA,NA,NA,NA,NA,NA
XHbxVDBq,375vsr8fwzmfz1886kcfytzzg59zr5,3r6byfzzpbpve01e59t2931x9umxfi,XHbxVDBq,2020-0188,2021-10-31,12:12:09,13:27:38,NA,incomplete,false,true,NA,NA,1,4,NA,black,n_l_067.jpg,NA,NA,NA,NA,NA,pleasant,unpleasant,NA,NA,NA,NA,NA,left,1749.80000007153,true,NA,NA,NA,NA,NA,NA,NA,NA
XHbxVDBq,375vsr8fwzmfz1886kcfytzzg59zr5,3r6byfzzpbpve01e59t2931x9umxfi,XHbxVDBq,2020-0188,2021-10-31,12:12:09,13:27:38,NA,incomplete,false,true,NA,NA,1,5,NA,black,m_l_086.jpg,NA,NA,NA,NA,NA,unpleasant,pleasant,NA,NA,NA,NA,NA,right,1656.40000009537,true,NA,NA,NA,NA,NA,NA,NA,NA
XHbxVDBq,375vsr8fwzmfz1886kcfytzzg59zr5,3r6byfzzpbpve01e59t2931x9umxfi,XHbxVDBq,2020-0188,2021-10-31,12:12:09,13:27:38,NA,incomplete,false,true,NA,NA,1,6,NA,brown,m_s_050.jpg,NA,NA,NA,NA,NA,pleasant,unpleasant,NA,NA,NA,NA,NA,left,1236.20000004768,true,NA,NA,NA,NA,NA,NA,NA,NA
XHbxVDBq,375vsr8fwzmfz1886kcfytzzg59zr5,3r6byfzzpbpve01e59t2931x9umxfi,XHbxVDBq,2020-0188,2021-10-31,12:12:09,13:27:38,NA,incomplete,false,true,NA,NA,1,7,NA,brown,n_s_054.jpg,NA,NA,NA,NA,NA,pleasant,unpleasant,NA,NA,NA,NA,NA,left,1133.29999995232,true,NA,NA,NA,NA,NA,NA,NA,NA
XHbxVDBq,375vsr8fwzmfz1886kcfytzzg59zr5,3r6byfzzpbpve01e59t2931x9umxfi,XHbxVDBq,2020-0188,2021-10-31,12:12:09,13:27:38,NA,incomplete,false,true,NA,NA,1,8,NA,brown,m_l_035.jpg,NA,NA,NA,NA,NA,unpleasant,pleasant,NA,NA,NA,NA,NA,right,1510,true,NA,NA,NA,NA,NA,NA,NA,NA
XHbxVDBq,375vsr8fwzmfz1886kcfytzzg59zr5,3r6byfzzpbpve01e59t2931x9umxfi,XHbxVDBq,2020-0188,2021-10-31,12:12:09,13:27:38,NA,incomplete,false,true,NA,NA,1,9,NA,brown,n_s_043.jpg,NA,NA,NA,NA,NA,pleasant,unpleasant,NA,NA,NA,NA,NA,left,1048.79999995232,true,NA,NA,NA,NA,NA,NA,NA,NA
XHbxVDBq,375vsr8fwzmfz1886kcfytzzg59zr5,3r6byfzzpbpve01e59t2931x9umxfi,XHbxVDBq,2020-0188,2021-10-31,12:12:09,13:27:38,NA,incomplete,false,true,NA,NA,1,10,NA,brown,n_l_027.jpg,NA,NA,NA,NA,NA,unpleasant,pleasant,NA,NA,NA,NA,NA,right,1505.09999990463,true,NA,NA,NA,NA,NA,NA,NA,NA
XHbxVDBq,375vsr8fwzmfz1886kcfytzzg59zr5,3r6byfzzpbpve01e59t2931x9umxfi,XHbxVDBq,2020-0188,2021-10-31,12:12:09,13:27:38,NA,incomplete,false,true,NA,NA,1,11,NA,brown,n_s_107.jpg,NA,NA,NA,NA,NA,unpleasant,pleasant,NA,NA,NA,NA,NA,right,1555.90000009537,true,NA,NA,NA,NA,NA,NA,NA,NA
XHbxVDBq,375vsr8fwzmfz1886kcfytzzg59zr5,3r6byfzzpbpve01e59t2931x9umxfi,XHbxVDBq,2020-0188,2021-10-31,12:12:09,13:27:38,NA,incomplete,false,true,NA,NA,1,12,NA,purple,m_l_075.jpg,NA,NA,NA,NA,NA,unpleasant,pleasant,NA,NA,NA,NA,NA,right,1103,true,NA,NA,NA,NA,NA,NA,NA,NA
XHbxVDBq,375vsr8fwzmfz1886kcfytzzg59zr5,3r6byfzzpbpve01e59t2931x9umxfi,XHbxVDBq,2020-0188,2021-10-31,12:12:09,13:27:38,NA,incomplete,false,true,NA,NA,1,13,NA,purple,n_l_004.jpg,NA,NA,NA,NA,NA,pleasant,unpleasant,NA,NA,NA,NA,NA,left,2032.5,true,NA,NA,NA,NA,NA,NA,NA,NA
XHbxVDBq,375vsr8fwzmfz1886kcfytzzg59zr5,3r6byfzzpbpve01e59t2931x9umxfi,XHbxVDBq,2020-0188,2021-10-31,12:12:09,13:27:38,NA,incomplete,false,true,NA,NA,1,14,NA,purple,m_s_115.jpg,NA,NA,NA,NA,NA,unpleasant,pleasant,NA,NA,NA,NA,NA,right,1154.60000002384,true,NA,NA,NA,NA,NA,NA,NA,NA
XHbxVDBq,375vsr8fwzmfz1886kcfytzzg59zr5,3r6byfzzpbpve01e59t2931x9umxfi,XHbxVDBq,2020-0188,2021-10-31,12:12:09,13:27:38,NA,incomplete,false,true,NA,NA,1,15,NA,purple,m_s_043.jpg,NA,NA,NA,NA,NA,unpleasant,pleasant,NA,NA,NA,NA,NA,right,996.700000047684,true,NA,NA,NA,NA,NA,NA,NA,NA
XHbxVDBq,375vsr8fwzmfz1886kcfytzzg59zr5,3r6byfzzpbpve01e59t2931x9umxfi,XHbxVDBq,2020-0188,2021-10-31,12:12:09,13:27:38,NA,incomplete,false,true,NA,NA,1,16,NA,purple,n_l_062.jpg,NA,NA,NA,NA,NA,pleasant,unpleasant,NA,NA,NA,NA,NA,left,1287.89999997616,true,NA,NA,NA,NA,NA,NA,NA,NA
XHbxVDBq,375vsr8fwzmfz1886kcfytzzg59zr5,3r6byfzzpbpve01e59t2931x9umxfi,XHbxVDBq,2020-0188,2021-10-31,12:12:09,13:27:38,NA,incomplete,false,true,NA,NA,1,17,NA,purple,n_l_083.jpg,NA,NA,NA,NA,NA,unpleasant,pleasant,NA,NA,NA,NA,NA,right,1011.39999997616,true,NA,NA,NA,NA,NA,NA,NA,NA
XHbxVDBq,375vsr8fwzmfz1886kcfytzzg59zr5,3r6byfzzpbpve01e59t2931x9umxfi,XHbxVDBq,2020-0188,2021-10-31,12:12:09,13:27:38,NA,incomplete,false,true,NA,NA,1,18,NA,orange,n_l_110.jpg,NA,NA,NA,NA,NA,pleasant,unpleasant,NA,NA,NA,NA,NA,left,1390.79999995232,true,NA,NA,NA,NA,NA,NA,NA,NA
XHbxVDBq,375vsr8fwzmfz1886kcfytzzg59zr5,3r6byfzzpbpve01e59t2931x9umxfi,XHbxVDBq,2020-0188,2021-10-31,12:12:09,13:27:38,NA,incomplete,false,true,NA,NA,1,19,NA,orange,n_s_060.jpg,NA,NA,NA,NA,NA,pleasant,unpleasant,NA,NA,NA,NA,NA,left,2637.5,true,NA,NA,NA,NA,NA,NA,NA,NA
XHbxVDBq,375vsr8fwzmfz1886kcfytzzg59zr5,3r6byfzzpbpve01e59t2931x9umxfi,XHbxVDBq,2020-0188,2021-10-31,12:12:09,13:27:38,NA,incomplete,false,true,NA,NA,1,20,NA,orange,m_s_103.jpg,NA,NA,NA,NA,NA,pleasant,unpleasant,NA,NA,NA,NA,NA,left,1482.60000002384,true,NA,NA,NA,NA,NA,NA,NA,NA
XHbxVDBq,375vsr8fwzmfz1886kcfytzzg59zr5,3r6byfzzpbpve01e59t2931x9umxfi,XHbxVDBq,2020-0188,2021-10-31,12:12:09,13:27:38,NA,incomplete,false,true,NA,NA,1,21,NA,orange,n_s_024.jpg,NA,NA,NA,NA,NA,unpleasant,pleasant,NA,NA,NA,NA,NA,right,1680.70000004768,true,NA,NA,NA,NA,NA,NA,NA,NA
XHbxVDBq,375vsr8fwzmfz1886kcfytzzg59zr5,3r6byfzzpbpve01e59t2931x9umxfi,XHbxVDBq,2020-0188,2021-10-31,12:12:09,13:27:38,NA,incomplete,false,true,NA,NA,1,22,NA,orange,m_l_017.jpg,NA,NA,NA,NA,NA,pleasant,unpleasant,NA,NA,NA,NA,NA,left,1355.69999992847,true,NA,NA,NA,NA,NA,NA,NA,NA
XHbxVDBq,375vsr8fwzmfz1886kcfytzzg59zr5,3r6byfzzpbpve01e59t2931x9umxfi,XHbxVDBq,2020-0188,2021-10-31,12:12:09,13:27:38,NA,incomplete,false,true,NA,NA,1,23,NA,orange,n_s_105.jpg,NA,NA,NA,NA,NA,unpleasant,pleasant,NA,NA,NA,NA,NA,right,1074.89999997616,true,NA,NA,NA,NA,NA,NA,NA,NA
XHbxVDBq,375vsr8fwzmfz1886kcfytzzg59zr5,3r6byfzzpbpve01e59t2931x9umxfi,XHbxVDBq,2020-0188,2021-10-31,12:12:09,13:27:38,NA,incomplete,false,true,NA,NA,1,24,NA,gray,n_s_109.jpg,NA,NA,NA,NA,NA,unpleasant,pleasant,NA,NA,NA,NA,NA,right,892.299999952316,true,NA,NA,NA,NA,NA,NA,NA,NA
XHbxVDBq,375vsr8fwzmfz1886kcfytzzg59zr5,3r6byfzzpbpve01e59t2931x9umxfi,XHbxVDBq,2020-0188,2021-10-31,12:12:09,13:27:38,NA,incomplete,false,true,NA,NA,1,25,NA,gray,n_l_059.jpg,NA,NA,NA,NA,NA,pleasant,unpleasant,NA,NA,NA,NA,NA,left,1171.60000002384,true,NA,NA,NA,NA,NA,NA,NA,NA
XHbxVDBq,375vsr8fwzmfz1886kcfytzzg59zr5,3r6byfzzpbpve01e59t2931x9umxfi,XHbxVDBq,2020-0188,2021-10-31,12:12:09,13:27:38,NA,incomplete,false,true,NA,NA,1,26,NA,gray,n_l_088.jpg,NA,NA,NA,NA,NA,unpleasant,pleasant,NA,NA,NA,NA,NA,right,1376.30000007153,true,NA,NA,NA,NA,NA,NA,NA,NA
XHbxVDBq,375vsr8fwzmfz1886kcfytzzg59zr5,3r6byfzzpbpve01e59t2931x9umxfi,XHbxVDBq,2020-0188,2021-10-31,12:12:09,13:27:38,NA,incomplete,false,true,NA,NA,1,27,NA,gray,n_s_019.jpg,NA,NA,NA,NA,NA,pleasant,unpleasant,NA,NA,NA,NA,NA,left,1470.5,true,NA,NA,NA,NA,NA,NA,NA,NA
XHbxVDBq,375vsr8fwzmfz1886kcfytzzg59zr5,3r6byfzzpbpve01e59t2931x9umxfi,XHbxVDBq,2020-0188,2021-10-31,12:12:09,13:27:38,NA,incomplete,false,true,NA,NA,1,28,NA,gray,n_l_092.jpg,NA,NA,NA,NA,NA,pleasant,unpleasant,NA,NA,NA,NA,NA,left,1186.70000004768,true,NA,NA,NA,NA,NA,NA,NA,NA
XHbxVDBq,375vsr8fwzmfz1886kcfytzzg59zr5,3r6byfzzpbpve01e59t2931x9umxfi,XHbxVDBq,2020-0188,2021-10-31,12:12:09,13:27:38,NA,incomplete,false,true,NA,NA,1,29,NA,gray,n_s_078.jpg,NA,NA,NA,NA,NA,unpleasant,pleasant,NA,NA,NA,NA,NA,right,2004.79999995232,true,NA,NA,NA,NA,NA,NA,NA,NA
XHbxVDBq,375vsr8fwzmfz1886kcfytzzg59zr5,3r6byfzzpbpve01e59t2931x9umxfi,XHbxVDBq,2020-0188,2021-10-31,12:12:09,13:27:38,NA,incomplete,false,true,NA,NA,1,30,NA,green,n_l_072.jpg,NA,NA,NA,NA,NA,pleasant,unpleasant,NA,NA,NA,NA,NA,left,1566.5,true,NA,NA,NA,NA,NA,NA,NA,NA
XHbxVDBq,375vsr8fwzmfz1886kcfytzzg59zr5,3r6byfzzpbpve01e59t2931x9umxfi,XHbxVDBq,2020-0188,2021-10-31,12:12:09,13:27:38,NA,incomplete,false,true,NA,NA,1,31,NA,green,n_l_070.jpg,NA,NA,NA,NA,NA,unpleasant,pleasant,NA,NA,NA,NA,NA,none,0,false,NA,NA,NA,NA,NA,NA,NA,NA
XHbxVDBq,375vsr8fwzmfz1886kcfytzzg59zr5,3r6byfzzpbpve01e59t2931x9umxfi,XHbxVDBq,2020-0188,2021-10-31,12:12:09,13:27:38,NA,incomplete,false,true,NA,NA,1,32,NA,green,n_l_057.jpg,NA,NA,NA,NA,NA,unpleasant,pleasant,NA,NA,NA,NA,NA,right,1230.20000004768,true,NA,NA,NA,NA,NA,NA,NA,NA
XHbxVDBq,375vsr8fwzmfz1886kcfytzzg59zr5,3r6byfzzpbpve01e59t2931x9umxfi,XHbxVDBq,2020-0188,2021-10-31,12:12:09,13:27:38,NA,incomplete,false,true,NA,NA,1,33,NA,green,n_s_039.jpg,NA,NA,NA,NA,NA,unpleasant,pleasant,NA,NA,NA,NA,NA,right,1194.20000004768,true,NA,NA,NA,NA,NA,NA,NA,NA
XHbxVDBq,375vsr8fwzmfz1886kcfytzzg59zr5,3r6byfzzpbpve01e59t2931x9umxfi,XHbxVDBq,2020-0188,2021-10-31,12:12:09,13:27:38,NA,incomplete,false,true,NA,NA,1,34,NA,green,n_s_056.jpg,NA,NA,NA,NA,NA,pleasant,unpleasant,NA,NA,NA,NA,NA,left,1105.70000004768,true,NA,NA,NA,NA,NA,NA,NA,NA
XHbxVDBq,375vsr8fwzmfz1886kcfytzzg59zr5,3r6byfzzpbpve01e59t2931x9umxfi,XHbxVDBq,2020-0188,2021-10-31,12:12:09,13:27:38,NA,incomplete,false,true,NA,NA,1,35,NA,green,m_s_114.jpg,NA,NA,NA,NA,NA,unpleasant,pleasant,NA,NA,NA,NA,NA,right,1069.29999995232,true,NA,NA,NA,NA,NA,NA,NA,NA
XHbxVDBq,375vsr8fwzmfz1886kcfytzzg59zr5,3r6byfzzpbpve01e59t2931x9umxfi,XHbxVDBq,2020-0188,2021-10-31,12:12:09,13:27:38,NA,incomplete,false,NA,NA,true,1,0,NA,NA,NA,left,m_s_114.jpg,green,gray,NA,NA,NA,NA,NA,NA,NA,NA,NA,NaN,NA,3820.7000000476837,right,0,NA,NA,NA,NA,NA
XHbxVDBq,375vsr8fwzmfz1886kcfytzzg59zr5,3r6byfzzpbpve01e59t2931x9umxfi,XHbxVDBq,2020-0188,2021-10-31,12:12:09,13:27:38,NA,incomplete,false,NA,NA,true,1,1,NA,NA,NA,right,n_l_059.jpg,orange,gray,NA,NA,NA,NA,NA,NA,NA,NA,NA,NaN,NA,1398.6000000238419,right,1,NA,NA,NA,NA,NA
XHbxVDBq,375vsr8fwzmfz1886kcfytzzg59zr5,3r6byfzzpbpve01e59t2931x9umxfi,XHbxVDBq,2020-0188,2021-10-31,12:12:09,13:27:38,NA,incomplete,false,NA,NA,true,1,2,NA,NA,NA,right,n_s_054.jpg,black,brown,NA,NA,NA,NA,NA,NA,NA,NA,NA,NaN,NA,9026.300000071526,right,1,NA,NA,NA,NA,NA
XHbxVDBq,375vsr8fwzmfz1886kcfytzzg59zr5,3r6byfzzpbpve01e59t2931x9umxfi,XHbxVDBq,2020-0188,2021-10-31,12:12:09,13:27:38,NA,incomplete,false,NA,NA,true,1,3,NA,NA,NA,left,n_l_088.jpg,gray,orange,NA,NA,NA,NA,NA,NA,NA,NA,NA,NaN,NA,1824.1000000238419,right,0,NA,NA,NA,NA,NA
XHbxVDBq,375vsr8fwzmfz1886kcfytzzg59zr5,3r6byfzzpbpve01e59t2931x9umxfi,XHbxVDBq,2020-0188,2021-10-31,12:12:09,13:27:38,NA,incomplete,false,NA,NA,true,1,4,NA,NA,NA,right,n_l_070.jpg,gray,green,NA,NA,NA,NA,NA,NA,NA,NA,NA,NaN,NA,1250.7999999523163,right,1,NA,NA,NA,NA,NA
XHbxVDBq,375vsr8fwzmfz1886kcfytzzg59zr5,3r6byfzzpbpve01e59t2931x9umxfi,XHbxVDBq,2020-0188,2021-10-31,12:12:09,13:27:38,NA,incomplete,false,NA,NA,true,1,5,NA,NA,NA,left,n_l_004.jpg,purple,brown,NA,NA,NA,NA,NA,NA,NA,NA,NA,NaN,NA,1421.3999999761581,right,0,NA,NA,NA,NA,NA
XHbxVDBq,375vsr8fwzmfz1886kcfytzzg59zr5,3r6byfzzpbpve01e59t2931x9umxfi,XHbxVDBq,2020-0188,2021-10-31,12:12:09,13:27:38,NA,incomplete,false,NA,NA,true,1,6,NA,NA,NA,right,n_l_092.jpg,orange,gray,NA,NA,NA,NA,NA,NA,NA,NA,NA,NaN,NA,1078.8999999761581,right,1,NA,NA,NA,NA,NA
XHbxVDBq,375vsr8fwzmfz1886kcfytzzg59zr5,3r6byfzzpbpve01e59t2931x9umxfi,XHbxVDBq,2020-0188,2021-10-31,12:12:09,13:27:38,NA,incomplete,false,NA,NA,true,1,7,NA,NA,NA,right,m_l_086.jpg,brown,black,NA,NA,NA,NA,NA,NA,NA,NA,NA,NaN,NA,958.8999999761581,right,1,NA,NA,NA,NA,NA
XHbxVDBq,375vsr8fwzmfz1886kcfytzzg59zr5,3r6byfzzpbpve01e59t2931x9umxfi,XHbxVDBq,2020-0188,2021-10-31,12:12:09,13:27:38,NA,incomplete,false,NA,NA,true,1,8,NA,NA,NA,right,m_s_103.jpg,gray,orange,NA,NA,NA,NA,NA,NA,NA,NA,NA,NaN,NA,1429.6999999284744,right,1,NA,NA,NA,NA,NA
XHbxVDBq,375vsr8fwzmfz1886kcfytzzg59zr5,3r6byfzzpbpve01e59t2931x9umxfi,XHbxVDBq,2020-0188,2021-10-31,12:12:09,13:27:38,NA,incomplete,false,NA,NA,true,1,9,NA,NA,NA,left,n_s_105.jpg,orange,gray,NA,NA,NA,NA,NA,NA,NA,NA,NA,NaN,NA,1196,right,0,NA,NA,NA,NA,NA
XHbxVDBq,375vsr8fwzmfz1886kcfytzzg59zr5,3r6byfzzpbpve01e59t2931x9umxfi,XHbxVDBq,2020-0188,2021-10-31,12:12:09,13:27:38,NA,incomplete,false,NA,NA,true,1,10,NA,NA,NA,left,n_l_057.jpg,green,gray,NA,NA,NA,NA,NA,NA,NA,NA,NA,NaN,NA,1212.7000000476837,right,0,NA,NA,NA,NA,NA
XHbxVDBq,375vsr8fwzmfz1886kcfytzzg59zr5,3r6byfzzpbpve01e59t2931x9umxfi,XHbxVDBq,2020-0188,2021-10-31,12:12:09,13:27:38,NA,incomplete,false,NA,NA,true,1,11,NA,NA,NA,right,m_l_109.jpg,brown,black,NA,NA,NA,NA,NA,NA,NA,NA,NA,NaN,NA,1111.6000000238419,right,1,NA,NA,NA,NA,NA
XHbxVDBq,375vsr8fwzmfz1886kcfytzzg59zr5,3r6byfzzpbpve01e59t2931x9umxfi,XHbxVDBq,2020-0188,2021-10-31,12:12:09,13:27:38,NA,incomplete,false,NA,NA,true,1,12,NA,NA,NA,right,n_l_083.jpg,orange,purple,NA,NA,NA,NA,NA,NA,NA,NA,NA,NaN,NA,5031.799999952316,right,1,NA,NA,NA,NA,NA
XHbxVDBq,375vsr8fwzmfz1886kcfytzzg59zr5,3r6byfzzpbpve01e59t2931x9umxfi,XHbxVDBq,2020-0188,2021-10-31,12:12:09,13:27:38,NA,incomplete,false,NA,NA,true,1,13,NA,NA,NA,right,n_l_062.jpg,orange,purple,NA,NA,NA,NA,NA,NA,NA,NA,NA,NaN,NA,1334.2000000476837,right,1,NA,NA,NA,NA,NA
XHbxVDBq,375vsr8fwzmfz1886kcfytzzg59zr5,3r6byfzzpbpve01e59t2931x9umxfi,XHbxVDBq,2020-0188,2021-10-31,12:12:09,13:27:38,NA,incomplete,false,NA,NA,true,1,14,NA,NA,NA,left,n_s_060.jpg,orange,purple,NA,NA,NA,NA,NA,NA,NA,NA,NA,NaN,NA,1630.3000000715256,right,0,NA,NA,NA,NA,NA
XHbxVDBq,375vsr8fwzmfz1886kcfytzzg59zr5,3r6byfzzpbpve01e59t2931x9umxfi,XHbxVDBq,2020-0188,2021-10-31,12:12:09,13:27:38,NA,incomplete,false,NA,NA,true,1,15,NA,NA,NA,left,m_s_115.jpg,purple,brown,NA,NA,NA,NA,NA,NA,NA,NA,NA,NaN,NA,2363.399999976158,right,0,NA,NA,NA,NA,NA
XHbxVDBq,375vsr8fwzmfz1886kcfytzzg59zr5,3r6byfzzpbpve01e59t2931x9umxfi,XHbxVDBq,2020-0188,2021-10-31,12:12:09,13:27:38,NA,incomplete,false,NA,NA,true,1,16,NA,NA,NA,right,n_l_067.jpg,brown,black,NA,NA,NA,NA,NA,NA,NA,NA,NA,NaN,NA,1184.3999999761581,right,1,NA,NA,NA,NA,NA
XHbxVDBq,375vsr8fwzmfz1886kcfytzzg59zr5,3r6byfzzpbpve01e59t2931x9umxfi,XHbxVDBq,2020-0188,2021-10-31,12:12:09,13:27:38,NA,incomplete,false,NA,NA,true,1,17,NA,NA,NA,left,n_s_107.jpg,brown,black,NA,NA,NA,NA,NA,NA,NA,NA,NA,NaN,NA,2918.6999999284744,right,0,NA,NA,NA,NA,NA
XHbxVDBq,375vsr8fwzmfz1886kcfytzzg59zr5,3r6byfzzpbpve01e59t2931x9umxfi,XHbxVDBq,2020-0188,2021-10-31,12:12:09,13:27:38,NA,incomplete,false,NA,NA,true,1,18,NA,NA,NA,right,n_s_078.jpg,green,gray,NA,NA,NA,NA,NA,NA,NA,NA,NA,NaN,NA,1473.8999999761581,right,1,NA,NA,NA,NA,NA
XHbxVDBq,375vsr8fwzmfz1886kcfytzzg59zr5,3r6byfzzpbpve01e59t2931x9umxfi,XHbxVDBq,2020-0188,2021-10-31,12:12:09,13:27:38,NA,incomplete,false,NA,NA,true,1,19,NA,NA,NA,left,n_l_027.jpg,brown,black,NA,NA,NA,NA,NA,NA,NA,NA,NA,NaN,NA,1295.7000000476837,right,0,NA,NA,NA,NA,NA
XHbxVDBq,375vsr8fwzmfz1886kcfytzzg59zr5,3r6byfzzpbpve01e59t2931x9umxfi,XHbxVDBq,2020-0188,2021-10-31,12:12:09,13:27:38,NA,incomplete,false,NA,NA,true,1,20,NA,NA,NA,left,m_l_035.jpg,brown,black,NA,NA,NA,NA,NA,NA,NA,NA,NA,NaN,NA,962,right,0,NA,NA,NA,NA,NA
XHbxVDBq,375vsr8fwzmfz1886kcfytzzg59zr5,3r6byfzzpbpve01e59t2931x9umxfi,XHbxVDBq,2020-0188,2021-10-31,12:12:09,13:27:38,NA,incomplete,false,NA,NA,true,1,21,NA,NA,NA,right,m_l_017.jpg,gray,orange,NA,NA,NA,NA,NA,NA,NA,NA,NA,NaN,NA,958.4000000953674,right,1,NA,NA,NA,NA,NA
XHbxVDBq,375vsr8fwzmfz1886kcfytzzg59zr5,3r6byfzzpbpve01e59t2931x9umxfi,XHbxVDBq,2020-0188,2021-10-31,12:12:09,13:27:38,NA,incomplete,false,NA,true,NA,1,0,NA,NA,NA,left,NA,NA,NA,absent,NA,NA,n_l_004.jpg,purple,n_l_083.jpg,purple,within,NA,NaN,NA,NA,NA,NA,right,1557.6999999284744,0,3,3558.100000023842
XHbxVDBq,375vsr8fwzmfz1886kcfytzzg59zr5,3r6byfzzpbpve01e59t2931x9umxfi,XHbxVDBq,2020-0188,2021-10-31,12:12:09,13:27:38,NA,incomplete,false,NA,true,NA,1,1,NA,NA,NA,right,NA,NA,NA,absent,NA,NA,n_l_088.jpg,gray,m_l_017.jpg,orange,between,NA,NaN,NA,NA,NA,NA,right,1360.7999999523163,1,3,2637.7000000476837
XHbxVDBq,375vsr8fwzmfz1886kcfytzzg59zr5,3r6byfzzpbpve01e59t2931x9umxfi,XHbxVDBq,2020-0188,2021-10-31,12:12:09,13:27:38,NA,incomplete,false,NA,true,NA,1,2,NA,NA,NA,right,NA,NA,NA,absent,NA,NA,m_l_035.jpg,brown,n_l_067.jpg,black,between,NA,NaN,NA,NA,NA,NA,right,1558.5,1,3,1484.7000000476837
XHbxVDBq,375vsr8fwzmfz1886kcfytzzg59zr5,3r6byfzzpbpve01e59t2931x9umxfi,XHbxVDBq,2020-0188,2021-10-31,12:12:09,13:27:38,NA,incomplete,false,NA,true,NA,1,3,NA,NA,NA,left,NA,NA,NA,absent,NA,NA,n_l_027.jpg,brown,m_s_115.jpg,purple,between,NA,NaN,NA,NA,NA,NA,left,3755.7999999523163,1,3,1952.5
XHbxVDBq,375vsr8fwzmfz1886kcfytzzg59zr5,3r6byfzzpbpve01e59t2931x9umxfi,XHbxVDBq,2020-0188,2021-10-31,12:12:09,13:27:38,NA,incomplete,false,NA,true,NA,1,4,NA,NA,NA,right,NA,NA,NA,absent,NA,NA,n_l_057.jpg,green,n_l_092.jpg,gray,between,NA,NaN,NA,NA,NA,NA,left,2657.2000000476837,0,3,4025.100000023842
XHbxVDBq,375vsr8fwzmfz1886kcfytzzg59zr5,3r6byfzzpbpve01e59t2931x9umxfi,XHbxVDBq,2020-0188,2021-10-31,12:12:09,13:27:38,NA,incomplete,false,NA,true,NA,1,5,NA,NA,NA,left,NA,NA,NA,absent,NA,NA,m_l_109.jpg,black,m_l_086.jpg,black,within,NA,NaN,NA,NA,NA,NA,right,1873.2000000476837,0,3,1840.5
XHbxVDBq,375vsr8fwzmfz1886kcfytzzg59zr5,3r6byfzzpbpve01e59t2931x9umxfi,XHbxVDBq,2020-0188,2021-10-31,12:12:09,13:27:38,NA,incomplete,false,NA,true,NA,1,6,NA,NA,NA,left,NA,NA,NA,absent,NA,NA,n_l_070.jpg,green,m_s_114.jpg,green,within,NA,NaN,NA,NA,NA,NA,right,3082.600000023842,0,3,1646.6000000238419
XHbxVDBq,375vsr8fwzmfz1886kcfytzzg59zr5,3r6byfzzpbpve01e59t2931x9umxfi,XHbxVDBq,2020-0188,2021-10-31,12:12:09,13:27:38,NA,incomplete,false,NA,true,NA,1,7,NA,NA,NA,right,NA,NA,NA,absent,NA,NA,m_s_103.jpg,orange,n_l_062.jpg,purple,between,NA,NaN,NA,NA,NA,NA,right,1859.6000000238419,1,3,8846.100000023842
XHbxVDBq,375vsr8fwzmfz1886kcfytzzg59zr5,3r6byfzzpbpve01e59t2931x9umxfi,XHbxVDBq,2020-0188,2021-10-31,12:12:09,13:27:38,NA,incomplete,false,NA,true,NA,1,8,NA,NA,NA,left,NA,NA,NA,absent,NA,NA,n_l_059.jpg,gray,n_s_078.jpg,gray,within,NA,NaN,NA,NA,NA,NA,right,3558.7999999523163,0,3,1470.5
XHbxVDBq,375vsr8fwzmfz1886kcfytzzg59zr5,3r6byfzzpbpve01e59t2931x9umxfi,XHbxVDBq,2020-0188,2021-10-31,12:12:09,13:27:38,NA,incomplete,false,NA,true,NA,1,9,NA,NA,NA,right,NA,NA,NA,absent,NA,NA,n_s_105.jpg,orange,n_s_060.jpg,orange,within,NA,NaN,NA,NA,NA,NA,right,3121.399999976158,1,3,2159
XHbxVDBq,375vsr8fwzmfz1886kcfytzzg59zr5,3r6byfzzpbpve01e59t2931x9umxfi,XHbxVDBq,2020-0188,2021-10-31,12:12:09,13:27:38,NA,incomplete,false,NA,true,NA,1,10,NA,NA,NA,left,NA,NA,NA,absent,NA,NA,n_s_054.jpg,brown,n_s_107.jpg,brown,within,NA,NaN,NA,NA,NA,NA,left,4271,1,3,1632.5
XHbxVDBq,375vsr8fwzmfz1886kcfytzzg59zr5,3r6byfzzpbpve01e59t2931x9umxfi,XHbxVDBq,2020-0188,2021-10-31,12:12:09,13:27:38,NA,incomplete,false,true,NA,NA,2,0,NA,black,m_l_042.jpg,NA,NA,NA,NA,NA,pleasant,unpleasant,NA,NA,NA,NA,NA,none,0,false,NA,NA,NA,NA,NA,NA,NA,NA
XHbxVDBq,375vsr8fwzmfz1886kcfytzzg59zr5,3r6byfzzpbpve01e59t2931x9umxfi,XHbxVDBq,2020-0188,2021-10-31,12:12:09,13:27:38,NA,incomplete,false,true,NA,NA,2,1,NA,black,n_l_071.jpg,NA,NA,NA,NA,NA,unpleasant,pleasant,NA,NA,NA,NA,NA,right,1659.70000004768,true,NA,NA,NA,NA,NA,NA,NA,NA
XHbxVDBq,375vsr8fwzmfz1886kcfytzzg59zr5,3r6byfzzpbpve01e59t2931x9umxfi,XHbxVDBq,2020-0188,2021-10-31,12:12:09,13:27:38,NA,incomplete,false,true,NA,NA,2,2,NA,black,m_l_096.jpg,NA,NA,NA,NA,NA,unpleasant,pleasant,NA,NA,NA,NA,NA,right,1102.70000004768,true,NA,NA,NA,NA,NA,NA,NA,NA
XHbxVDBq,375vsr8fwzmfz1886kcfytzzg59zr5,3r6byfzzpbpve01e59t2931x9umxfi,XHbxVDBq,2020-0188,2021-10-31,12:12:09,13:27:38,NA,incomplete,false,true,NA,NA,2,3,NA,black,n_s_058.jpg,NA,NA,NA,NA,NA,pleasant,unpleasant,NA,NA,NA,NA,NA,left,1546.79999995232,true,NA,NA,NA,NA,NA,NA,NA,NA
XHbxVDBq,375vsr8fwzmfz1886kcfytzzg59zr5,3r6byfzzpbpve01e59t2931x9umxfi,XHbxVDBq,2020-0188,2021-10-31,12:12:09,13:27:38,NA,incomplete,false,true,NA,NA,2,4,NA,black,m_l_004.jpg,NA,NA,NA,NA,NA,pleasant,unpleasant,NA,NA,NA,NA,NA,left,3176.39999997616,true,NA,NA,NA,NA,NA,NA,NA,NA
XHbxVDBq,375vsr8fwzmfz1886kcfytzzg59zr5,3r6byfzzpbpve01e59t2931x9umxfi,XHbxVDBq,2020-0188,2021-10-31,12:12:09,13:27:38,NA,incomplete,false,true,NA,NA,2,5,NA,black,n_s_068.jpg,NA,NA,NA,NA,NA,pleasant,unpleasant,NA,NA,NA,NA,NA,left,1522.40000009537,true,NA,NA,NA,NA,NA,NA,NA,NA
XHbxVDBq,375vsr8fwzmfz1886kcfytzzg59zr5,3r6byfzzpbpve01e59t2931x9umxfi,XHbxVDBq,2020-0188,2021-10-31,12:12:09,13:27:38,NA,incomplete,false,true,NA,NA,2,6,NA,green,n_s_113.jpg,NA,NA,NA,NA,NA,pleasant,unpleasant,NA,NA,NA,NA,NA,left,1853.90000009537,true,NA,NA,NA,NA,NA,NA,NA,NA
XHbxVDBq,375vsr8fwzmfz1886kcfytzzg59zr5,3r6byfzzpbpve01e59t2931x9umxfi,XHbxVDBq,2020-0188,2021-10-31,12:12:09,13:27:38,NA,incomplete,false,true,NA,NA,2,7,NA,green,n_l_033.jpg,NA,NA,NA,NA,NA,pleasant,unpleasant,NA,NA,NA,NA,NA,left,2735.70000004768,true,NA,NA,NA,NA,NA,NA,NA,NA
XHbxVDBq,375vsr8fwzmfz1886kcfytzzg59zr5,3r6byfzzpbpve01e59t2931x9umxfi,XHbxVDBq,2020-0188,2021-10-31,12:12:09,13:27:38,NA,incomplete,false,true,NA,NA,2,8,NA,green,m_s_081.jpg,NA,NA,NA,NA,NA,pleasant,unpleasant,NA,NA,NA,NA,NA,left,1705.39999997616,true,NA,NA,NA,NA,NA,NA,NA,NA
XHbxVDBq,375vsr8fwzmfz1886kcfytzzg59zr5,3r6byfzzpbpve01e59t2931x9umxfi,XHbxVDBq,2020-0188,2021-10-31,12:12:09,13:27:38,NA,incomplete,false,true,NA,NA,2,9,NA,green,n_s_104.jpg,NA,NA,NA,NA,NA,pleasant,unpleasant,NA,NA,NA,NA,NA,none,0,false,NA,NA,NA,NA,NA,NA,NA,NA
XHbxVDBq,375vsr8fwzmfz1886kcfytzzg59zr5,3r6byfzzpbpve01e59t2931x9umxfi,XHbxVDBq,2020-0188,2021-10-31,12:12:09,13:27:38,NA,incomplete,false,true,NA,NA,2,10,NA,green,m_s_091.jpg,NA,NA,NA,NA,NA,unpleasant,pleasant,NA,NA,NA,NA,NA,none,0,false,NA,NA,NA,NA,NA,NA,NA,NA
XHbxVDBq,375vsr8fwzmfz1886kcfytzzg59zr5,3r6byfzzpbpve01e59t2931x9umxfi,XHbxVDBq,2020-0188,2021-10-31,12:12:09,13:27:38,NA,incomplete,false,true,NA,NA,2,11,NA,green,n_s_097.jpg,NA,NA,NA,NA,NA,unpleasant,pleasant,NA,NA,NA,NA,NA,right,45.8999999761581,true,NA,NA,NA,NA,NA,NA,NA,NA
XHbxVDBq,375vsr8fwzmfz1886kcfytzzg59zr5,3r6byfzzpbpve01e59t2931x9umxfi,XHbxVDBq,2020-0188,2021-10-31,12:12:09,13:27:38,NA,incomplete,false,true,NA,NA,2,12,NA,white,m_l_052.jpg,NA,NA,NA,NA,NA,unpleasant,pleasant,NA,NA,NA,NA,NA,none,0,false,NA,NA,NA,NA,NA,NA,NA,NA
XHbxVDBq,375vsr8fwzmfz1886kcfytzzg59zr5,3r6byfzzpbpve01e59t2931x9umxfi,XHbxVDBq,2020-0188,2021-10-31,12:12:09,13:27:38,NA,incomplete,false,true,NA,NA,2,13,NA,white,m_l_031.jpg,NA,NA,NA,NA,NA,pleasant,unpleasant,NA,NA,NA,NA,NA,left,1422.5,true,NA,NA,NA,NA,NA,NA,NA,NA
XHbxVDBq,375vsr8fwzmfz1886kcfytzzg59zr5,3r6byfzzpbpve01e59t2931x9umxfi,XHbxVDBq,2020-0188,2021-10-31,12:12:09,13:27:38,NA,incomplete,false,true,NA,NA,2,14,NA,white,n_s_030.jpg,NA,NA,NA,NA,NA,unpleasant,pleasant,NA,NA,NA,NA,NA,right,2697.20000004768,true,NA,NA,NA,NA,NA,NA,NA,NA
XHbxVDBq,375vsr8fwzmfz1886kcfytzzg59zr5,3r6byfzzpbpve01e59t2931x9umxfi,XHbxVDBq,2020-0188,2021-10-31,12:12:09,13:27:38,NA,incomplete,false,true,NA,NA,2,15,NA,white,m_l_045.jpg,NA,NA,NA,NA,NA,pleasant,unpleasant,NA,NA,NA,NA,NA,left,1565.19999992847,true,NA,NA,NA,NA,NA,NA,NA,NA
XHbxVDBq,375vsr8fwzmfz1886kcfytzzg59zr5,3r6byfzzpbpve01e59t2931x9umxfi,XHbxVDBq,2020-0188,2021-10-31,12:12:09,13:27:38,NA,incomplete,false,true,NA,NA,2,16,NA,white,m_s_058.jpg,NA,NA,NA,NA,NA,unpleasant,pleasant,NA,NA,NA,NA,NA,right,1910.5,true,NA,NA,NA,NA,NA,NA,NA,NA
XHbxVDBq,375vsr8fwzmfz1886kcfytzzg59zr5,3r6byfzzpbpve01e59t2931x9umxfi,XHbxVDBq,2020-0188,2021-10-31,12:12:09,13:27:38,NA,incomplete,false,true,NA,NA,2,17,NA,white,m_l_077.jpg,NA,NA,NA,NA,NA,pleasant,unpleasant,NA,NA,NA,NA,NA,left,1750.69999992847,true,NA,NA,NA,NA,NA,NA,NA,NA
XHbxVDBq,375vsr8fwzmfz1886kcfytzzg59zr5,3r6byfzzpbpve01e59t2931x9umxfi,XHbxVDBq,2020-0188,2021-10-31,12:12:09,13:27:38,NA,incomplete,false,true,NA,NA,2,18,NA,red,n_s_015.jpg,NA,NA,NA,NA,NA,pleasant,unpleasant,NA,NA,NA,NA,NA,left,1434.69999992847,true,NA,NA,NA,NA,NA,NA,NA,NA
XHbxVDBq,375vsr8fwzmfz1886kcfytzzg59zr5,3r6byfzzpbpve01e59t2931x9umxfi,XHbxVDBq,2020-0188,2021-10-31,12:12:09,13:27:38,NA,incomplete,false,true,NA,NA,2,19,NA,red,n_s_035.jpg,NA,NA,NA,NA,NA,unpleasant,pleasant,NA,NA,NA,NA,NA,right,1718.10000002384,true,NA,NA,NA,NA,NA,NA,NA,NA
XHbxVDBq,375vsr8fwzmfz1886kcfytzzg59zr5,3r6byfzzpbpve01e59t2931x9umxfi,XHbxVDBq,2020-0188,2021-10-31,12:12:09,13:27:38,NA,incomplete,false,true,NA,NA,2,20,NA,red,n_s_111.jpg,NA,NA,NA,NA,NA,pleasant,unpleasant,NA,NA,NA,NA,NA,left,2136.29999995232,true,NA,NA,NA,NA,NA,NA,NA,NA
XHbxVDBq,375vsr8fwzmfz1886kcfytzzg59zr5,3r6byfzzpbpve01e59t2931x9umxfi,XHbxVDBq,2020-0188,2021-10-31,12:12:09,13:27:38,NA,incomplete,false,true,NA,NA,2,21,NA,red,m_l_069.jpg,NA,NA,NA,NA,NA,pleasant,unpleasant,NA,NA,NA,NA,NA,left,1216.80000007153,true,NA,NA,NA,NA,NA,NA,NA,NA
XHbxVDBq,375vsr8fwzmfz1886kcfytzzg59zr5,3r6byfzzpbpve01e59t2931x9umxfi,XHbxVDBq,2020-0188,2021-10-31,12:12:09,13:27:38,NA,incomplete,false,true,NA,NA,2,22,NA,red,n_s_100.jpg,NA,NA,NA,NA,NA,unpleasant,pleasant,NA,NA,NA,NA,NA,right,1901.89999997616,true,NA,NA,NA,NA,NA,NA,NA,NA
XHbxVDBq,375vsr8fwzmfz1886kcfytzzg59zr5,3r6byfzzpbpve01e59t2931x9umxfi,XHbxVDBq,2020-0188,2021-10-31,12:12:09,13:27:38,NA,incomplete,false,true,NA,NA,2,23,NA,red,n_s_090.jpg,NA,NA,NA,NA,NA,pleasant,unpleasant,NA,NA,NA,NA,NA,left,1452.20000004768,true,NA,NA,NA,NA,NA,NA,NA,NA
XHbxVDBq,375vsr8fwzmfz1886kcfytzzg59zr5,3r6byfzzpbpve01e59t2931x9umxfi,XHbxVDBq,2020-0188,2021-10-31,12:12:09,13:27:38,NA,incomplete,false,true,NA,NA,2,24,NA,yellow,n_l_049.jpg,NA,NA,NA,NA,NA,unpleasant,pleasant,NA,NA,NA,NA,NA,right,2313.39999997616,true,NA,NA,NA,NA,NA,NA,NA,NA
XHbxVDBq,375vsr8fwzmfz1886kcfytzzg59zr5,3r6byfzzpbpve01e59t2931x9umxfi,XHbxVDBq,2020-0188,2021-10-31,12:12:09,13:27:38,NA,incomplete,false,true,NA,NA,2,25,NA,yellow,n_s_069.jpg,NA,NA,NA,NA,NA,unpleasant,pleasant,NA,NA,NA,NA,NA,right,1599.89999997616,true,NA,NA,NA,NA,NA,NA,NA,NA
XHbxVDBq,375vsr8fwzmfz1886kcfytzzg59zr5,3r6byfzzpbpve01e59t2931x9umxfi,XHbxVDBq,2020-0188,2021-10-31,12:12:09,13:27:38,NA,incomplete,false,true,NA,NA,2,26,NA,yellow,n_l_106.jpg,NA,NA,NA,NA,NA,pleasant,unpleasant,NA,NA,NA,NA,NA,left,1466.19999992847,true,NA,NA,NA,NA,NA,NA,NA,NA
XHbxVDBq,375vsr8fwzmfz1886kcfytzzg59zr5,3r6byfzzpbpve01e59t2931x9umxfi,XHbxVDBq,2020-0188,2021-10-31,12:12:09,13:27:38,NA,incomplete,false,true,NA,NA,2,27,NA,yellow,m_s_038.jpg,NA,NA,NA,NA,NA,pleasant,unpleasant,NA,NA,NA,NA,NA,left,1707.60000002384,true,NA,NA,NA,NA,NA,NA,NA,NA
XHbxVDBq,375vsr8fwzmfz1886kcfytzzg59zr5,3r6byfzzpbpve01e59t2931x9umxfi,XHbxVDBq,2020-0188,2021-10-31,12:12:09,13:27:38,NA,incomplete,false,true,NA,NA,2,28,NA,yellow,n_l_020.jpg,NA,NA,NA,NA,NA,pleasant,unpleasant,NA,NA,NA,NA,NA,left,1578.29999995232,true,NA,NA,NA,NA,NA,NA,NA,NA
XHbxVDBq,375vsr8fwzmfz1886kcfytzzg59zr5,3r6byfzzpbpve01e59t2931x9umxfi,XHbxVDBq,2020-0188,2021-10-31,12:12:09,13:27:38,NA,incomplete,false,true,NA,NA,2,29,NA,yellow,m_l_070.jpg,NA,NA,NA,NA,NA,unpleasant,pleasant,NA,NA,NA,NA,NA,right,1867.19999992847,true,NA,NA,NA,NA,NA,NA,NA,NA
XHbxVDBq,375vsr8fwzmfz1886kcfytzzg59zr5,3r6byfzzpbpve01e59t2931x9umxfi,XHbxVDBq,2020-0188,2021-10-31,12:12:09,13:27:38,NA,incomplete,false,true,NA,NA,2,30,NA,orange,n_s_067.jpg,NA,NA,NA,NA,NA,pleasant,unpleasant,NA,NA,NA,NA,NA,left,1093.60000002384,true,NA,NA,NA,NA,NA,NA,NA,NA
XHbxVDBq,375vsr8fwzmfz1886kcfytzzg59zr5,3r6byfzzpbpve01e59t2931x9umxfi,XHbxVDBq,2020-0188,2021-10-31,12:12:09,13:27:38,NA,incomplete,false,true,NA,NA,2,31,NA,orange,n_l_003.jpg,NA,NA,NA,NA,NA,pleasant,unpleasant,NA,NA,NA,NA,NA,left,1057.90000009537,true,NA,NA,NA,NA,NA,NA,NA,NA
XHbxVDBq,375vsr8fwzmfz1886kcfytzzg59zr5,3r6byfzzpbpve01e59t2931x9umxfi,XHbxVDBq,2020-0188,2021-10-31,12:12:09,13:27:38,NA,incomplete,false,true,NA,NA,2,32,NA,orange,m_l_087.jpg,NA,NA,NA,NA,NA,pleasant,unpleasant,NA,NA,NA,NA,NA,left,998.899999976158,true,NA,NA,NA,NA,NA,NA,NA,NA
XHbxVDBq,375vsr8fwzmfz1886kcfytzzg59zr5,3r6byfzzpbpve01e59t2931x9umxfi,XHbxVDBq,2020-0188,2021-10-31,12:12:09,13:27:38,NA,incomplete,false,true,NA,NA,2,33,NA,orange,n_s_001.jpg,NA,NA,NA,NA,NA,unpleasant,pleasant,NA,NA,NA,NA,NA,right,1333.39999997616,true,NA,NA,NA,NA,NA,NA,NA,NA
XHbxVDBq,375vsr8fwzmfz1886kcfytzzg59zr5,3r6byfzzpbpve01e59t2931x9umxfi,XHbxVDBq,2020-0188,2021-10-31,12:12:09,13:27:38,NA,incomplete,false,true,NA,NA,2,34,NA,orange,n_s_007.jpg,NA,NA,NA,NA,NA,unpleasant,pleasant,NA,NA,NA,NA,NA,right,935,true,NA,NA,NA,NA,NA,NA,NA,NA
XHbxVDBq,375vsr8fwzmfz1886kcfytzzg59zr5,3r6byfzzpbpve01e59t2931x9umxfi,XHbxVDBq,2020-0188,2021-10-31,12:12:09,13:27:38,NA,incomplete,false,true,NA,NA,2,35,NA,orange,n_s_115.jpg,NA,NA,NA,NA,NA,unpleasant,pleasant,NA,NA,NA,NA,NA,right,997.799999952316,true,NA,NA,NA,NA,NA,NA,NA,NA
XHbxVDBq,375vsr8fwzmfz1886kcfytzzg59zr5,3r6byfzzpbpve01e59t2931x9umxfi,XHbxVDBq,2020-0188,2021-10-31,12:12:09,13:27:38,NA,incomplete,false,NA,NA,true,2,0,NA,NA,NA,right,n_l_106.jpg,orange,yellow,NA,NA,NA,NA,NA,NA,NA,NA,NA,NaN,NA,4173.199999928474,right,1,NA,NA,NA,NA,NA
XHbxVDBq,375vsr8fwzmfz1886kcfytzzg59zr5,3r6byfzzpbpve01e59t2931x9umxfi,XHbxVDBq,2020-0188,2021-10-31,12:12:09,13:27:38,NA,incomplete,false,NA,NA,true,2,1,NA,NA,NA,left,m_l_070.jpg,yellow,orange,NA,NA,NA,NA,NA,NA,NA,NA,NA,NaN,NA,1956.7999999523163,right,0,NA,NA,NA,NA,NA
XHbxVDBq,375vsr8fwzmfz1886kcfytzzg59zr5,3r6byfzzpbpve01e59t2931x9umxfi,XHbxVDBq,2020-0188,2021-10-31,12:12:09,13:27:38,NA,incomplete,false,NA,NA,true,2,2,NA,NA,NA,left,n_s_097.jpg,green,white,NA,NA,NA,NA,NA,NA,NA,NA,NA,NaN,NA,6311.5,right,0,NA,NA,NA,NA,NA
XHbxVDBq,375vsr8fwzmfz1886kcfytzzg59zr5,3r6byfzzpbpve01e59t2931x9umxfi,XHbxVDBq,2020-0188,2021-10-31,12:12:09,13:27:38,NA,incomplete,false,NA,NA,true,2,3,NA,NA,NA,left,n_s_035.jpg,red,yellow,NA,NA,NA,NA,NA,NA,NA,NA,NA,NaN,NA,1639.5,right,0,NA,NA,NA,NA,NA
XHbxVDBq,375vsr8fwzmfz1886kcfytzzg59zr5,3r6byfzzpbpve01e59t2931x9umxfi,XHbxVDBq,2020-0188,2021-10-31,12:12:09,13:27:38,NA,incomplete,false,NA,NA,true,2,4,NA,NA,NA,right,m_l_087.jpg,yellow,orange,NA,NA,NA,NA,NA,NA,NA,NA,NA,NaN,NA,1455.3999999761581,right,1,NA,NA,NA,NA,NA
XHbxVDBq,375vsr8fwzmfz1886kcfytzzg59zr5,3r6byfzzpbpve01e59t2931x9umxfi,XHbxVDBq,2020-0188,2021-10-31,12:12:09,13:27:38,NA,incomplete,false,NA,NA,true,2,5,NA,NA,NA,right,m_l_031.jpg,green,white,NA,NA,NA,NA,NA,NA,NA,NA,NA,NaN,NA,3016.6999999284744,left,0,NA,NA,NA,NA,NA
XHbxVDBq,375vsr8fwzmfz1886kcfytzzg59zr5,3r6byfzzpbpve01e59t2931x9umxfi,XHbxVDBq,2020-0188,2021-10-31,12:12:09,13:27:38,NA,incomplete,false,NA,NA,true,2,6,NA,NA,NA,left,n_l_033.jpg,green,white,NA,NA,NA,NA,NA,NA,NA,NA,NA,NaN,NA,3759,left,1,NA,NA,NA,NA,NA
XHbxVDBq,375vsr8fwzmfz1886kcfytzzg59zr5,3r6byfzzpbpve01e59t2931x9umxfi,XHbxVDBq,2020-0188,2021-10-31,12:12:09,13:27:38,NA,incomplete,false,NA,NA,true,2,7,NA,NA,NA,right,m_s_058.jpg,red,white,NA,NA,NA,NA,NA,NA,NA,NA,NA,NaN,NA,1328.8999999761581,right,1,NA,NA,NA,NA,NA
XHbxVDBq,375vsr8fwzmfz1886kcfytzzg59zr5,3r6byfzzpbpve01e59t2931x9umxfi,XHbxVDBq,2020-0188,2021-10-31,12:12:09,13:27:38,NA,incomplete,false,NA,NA,true,2,8,NA,NA,NA,right,m_l_004.jpg,green,black,NA,NA,NA,NA,NA,NA,NA,NA,NA,NaN,NA,2559.3000000715256,left,0,NA,NA,NA,NA,NA
XHbxVDBq,375vsr8fwzmfz1886kcfytzzg59zr5,3r6byfzzpbpve01e59t2931x9umxfi,XHbxVDBq,2020-0188,2021-10-31,12:12:09,13:27:38,NA,incomplete,false,NA,NA,true,2,9,NA,NA,NA,right,n_s_115.jpg,yellow,orange,NA,NA,NA,NA,NA,NA,NA,NA,NA,NaN,NA,1042.5,right,1,NA,NA,NA,NA,NA
XHbxVDBq,375vsr8fwzmfz1886kcfytzzg59zr5,3r6byfzzpbpve01e59t2931x9umxfi,XHbxVDBq,2020-0188,2021-10-31,12:12:09,13:27:38,NA,incomplete,false,NA,NA,true,2,10,NA,NA,NA,right,n_s_090.jpg,yellow,red,NA,NA,NA,NA,NA,NA,NA,NA,NA,NaN,NA,2225.8000000715256,left,0,NA,NA,NA,NA,NA
XHbxVDBq,375vsr8fwzmfz1886kcfytzzg59zr5,3r6byfzzpbpve01e59t2931x9umxfi,XHbxVDBq,2020-0188,2021-10-31,12:12:09,13:27:38,NA,incomplete,false,NA,NA,true,2,11,NA,NA,NA,left,n_l_071.jpg,black,green,NA,NA,NA,NA,NA,NA,NA,NA,NA,NaN,NA,1926.3000000715256,right,0,NA,NA,NA,NA,NA
XHbxVDBq,375vsr8fwzmfz1886kcfytzzg59zr5,3r6byfzzpbpve01e59t2931x9umxfi,XHbxVDBq,2020-0188,2021-10-31,12:12:09,13:27:38,NA,incomplete,false,NA,NA,true,2,12,NA,NA,NA,left,n_l_003.jpg,orange,yellow,NA,NA,NA,NA,NA,NA,NA,NA,NA,NaN,NA,2518.7999999523163,right,0,NA,NA,NA,NA,NA
XHbxVDBq,375vsr8fwzmfz1886kcfytzzg59zr5,3r6byfzzpbpve01e59t2931x9umxfi,XHbxVDBq,2020-0188,2021-10-31,12:12:09,13:27:38,NA,incomplete,false,NA,NA,true,2,13,NA,NA,NA,left,n_s_030.jpg,white,red,NA,NA,NA,NA,NA,NA,NA,NA,NA,NaN,NA,4796,right,0,NA,NA,NA,NA,NA
XHbxVDBq,375vsr8fwzmfz1886kcfytzzg59zr5,3r6byfzzpbpve01e59t2931x9umxfi,XHbxVDBq,2020-0188,2021-10-31,12:12:09,13:27:38,NA,incomplete,false,NA,NA,true,2,14,NA,NA,NA,left,n_s_100.jpg,red,yellow,NA,NA,NA,NA,NA,NA,NA,NA,NA,NaN,NA,4837.800000071526,right,0,NA,NA,NA,NA,NA
XHbxVDBq,375vsr8fwzmfz1886kcfytzzg59zr5,3r6byfzzpbpve01e59t2931x9umxfi,XHbxVDBq,2020-0188,2021-10-31,12:12:09,13:27:38,NA,incomplete,false,NA,NA,true,2,15,NA,NA,NA,right,n_s_068.jpg,green,black,NA,NA,NA,NA,NA,NA,NA,NA,NA,NaN,NA,1873.3000000715256,right,1,NA,NA,NA,NA,NA
XHbxVDBq,375vsr8fwzmfz1886kcfytzzg59zr5,3r6byfzzpbpve01e59t2931x9umxfi,XHbxVDBq,2020-0188,2021-10-31,12:12:09,13:27:38,NA,incomplete,false,NA,NA,true,2,16,NA,NA,NA,right,m_l_077.jpg,red,white,NA,NA,NA,NA,NA,NA,NA,NA,NA,NaN,NA,1761.1000000238419,right,1,NA,NA,NA,NA,NA
XHbxVDBq,375vsr8fwzmfz1886kcfytzzg59zr5,3r6byfzzpbpve01e59t2931x9umxfi,XHbxVDBq,2020-0188,2021-10-31,12:12:09,13:27:38,NA,incomplete,false,NA,NA,true,2,17,NA,NA,NA,left,m_s_091.jpg,green,black,NA,NA,NA,NA,NA,NA,NA,NA,NA,NaN,NA,1748.8000000715256,right,0,NA,NA,NA,NA,NA
XHbxVDBq,375vsr8fwzmfz1886kcfytzzg59zr5,3r6byfzzpbpve01e59t2931x9umxfi,XHbxVDBq,2020-0188,2021-10-31,12:12:09,13:27:38,NA,incomplete,false,NA,NA,true,2,18,NA,NA,NA,left,m_s_081.jpg,green,white,NA,NA,NA,NA,NA,NA,NA,NA,NA,NaN,NA,2573.6999999284744,right,0,NA,NA,NA,NA,NA
XHbxVDBq,375vsr8fwzmfz1886kcfytzzg59zr5,3r6byfzzpbpve01e59t2931x9umxfi,XHbxVDBq,2020-0188,2021-10-31,12:12:09,13:27:38,NA,incomplete,false,NA,NA,true,2,19,NA,NA,NA,right,n_s_069.jpg,red,yellow,NA,NA,NA,NA,NA,NA,NA,NA,NA,NaN,NA,1491.6000000238419,right,1,NA,NA,NA,NA,NA
XHbxVDBq,375vsr8fwzmfz1886kcfytzzg59zr5,3r6byfzzpbpve01e59t2931x9umxfi,XHbxVDBq,2020-0188,2021-10-31,12:12:09,13:27:38,NA,incomplete,false,NA,NA,true,2,20,NA,NA,NA,right,n_l_020.jpg,orange,yellow,NA,NA,NA,NA,NA,NA,NA,NA,NA,NaN,NA,1333.6000000238419,right,1,NA,NA,NA,NA,NA
XHbxVDBq,375vsr8fwzmfz1886kcfytzzg59zr5,3r6byfzzpbpve01e59t2931x9umxfi,XHbxVDBq,2020-0188,2021-10-31,12:12:09,13:27:38,NA,incomplete,false,NA,NA,true,2,21,NA,NA,NA,left,n_s_111.jpg,red,yellow,NA,NA,NA,NA,NA,NA,NA,NA,NA,NaN,NA,1504.3999999761581,right,0,NA,NA,NA,NA,NA
XHbxVDBq,375vsr8fwzmfz1886kcfytzzg59zr5,3r6byfzzpbpve01e59t2931x9umxfi,XHbxVDBq,2020-0188,2021-10-31,12:12:09,13:27:38,NA,incomplete,false,NA,true,NA,2,0,NA,NA,NA,left,NA,NA,NA,absent,NA,NA,n_s_100.jpg,red,n_l_106.jpg,yellow,between,NA,NaN,NA,NA,NA,NA,left,2794.899999976158,1,3,1511.5
XHbxVDBq,375vsr8fwzmfz1886kcfytzzg59zr5,3r6byfzzpbpve01e59t2931x9umxfi,XHbxVDBq,2020-0188,2021-10-31,12:12:09,13:27:38,NA,incomplete,false,NA,true,NA,2,1,NA,NA,NA,right,NA,NA,NA,absent,NA,NA,n_s_111.jpg,red,m_s_058.jpg,white,between,NA,NaN,NA,NA,NA,NA,right,1899.6000000238419,1,3,1455
XHbxVDBq,375vsr8fwzmfz1886kcfytzzg59zr5,3r6byfzzpbpve01e59t2931x9umxfi,XHbxVDBq,2020-0188,2021-10-31,12:12:09,13:27:38,NA,incomplete,false,NA,true,NA,2,2,NA,NA,NA,right,NA,NA,NA,absent,NA,NA,m_l_077.jpg,white,m_l_031.jpg,white,within,NA,NaN,NA,NA,NA,NA,right,2071.2999999523163,1,3,1248.7999999523163
XHbxVDBq,375vsr8fwzmfz1886kcfytzzg59zr5,3r6byfzzpbpve01e59t2931x9umxfi,XHbxVDBq,2020-0188,2021-10-31,12:12:09,13:27:38,NA,incomplete,false,NA,true,NA,2,3,NA,NA,NA,right,NA,NA,NA,absent,NA,NA,n_s_068.jpg,black,n_l_071.jpg,black,within,NA,NaN,NA,NA,NA,NA,right,1863.1999999284744,1,3,3812.2999999523163
XHbxVDBq,375vsr8fwzmfz1886kcfytzzg59zr5,3r6byfzzpbpve01e59t2931x9umxfi,XHbxVDBq,2020-0188,2021-10-31,12:12:09,13:27:38,NA,incomplete,false,NA,true,NA,2,4,NA,NA,NA,left,NA,NA,NA,absent,NA,NA,n_s_069.jpg,yellow,m_l_070.jpg,yellow,within,NA,NaN,NA,NA,NA,NA,left,1957.6000000238419,1,3,1554.2000000476837
XHbxVDBq,375vsr8fwzmfz1886kcfytzzg59zr5,3r6byfzzpbpve01e59t2931x9umxfi,XHbxVDBq,2020-0188,2021-10-31,12:12:09,13:27:38,NA,incomplete,false,NA,true,NA,2,5,NA,NA,NA,right,NA,NA,NA,absent,NA,NA,m_l_087.jpg,orange,n_l_020.jpg,yellow,between,NA,NaN,NA,NA,NA,NA,right,1547,1,3,1390.6000000238419
XHbxVDBq,375vsr8fwzmfz1886kcfytzzg59zr5,3r6byfzzpbpve01e59t2931x9umxfi,XHbxVDBq,2020-0188,2021-10-31,12:12:09,13:27:38,NA,incomplete,false,NA,true,NA,2,6,NA,NA,NA,left,NA,NA,NA,absent,NA,NA,m_s_091.jpg,green,n_s_030.jpg,white,between,NA,NaN,NA,NA,NA,NA,left,3833.2999999523163,1,3,1706.2999999523163
XHbxVDBq,375vsr8fwzmfz1886kcfytzzg59zr5,3r6byfzzpbpve01e59t2931x9umxfi,XHbxVDBq,2020-0188,2021-10-31,12:12:09,13:27:38,NA,incomplete,false,NA,true,NA,2,7,NA,NA,NA,left,NA,NA,NA,absent,NA,NA,n_l_033.jpg,green,n_s_097.jpg,green,within,NA,NaN,NA,NA,NA,NA,left,4740.299999952316,1,3,5917.799999952316
XHbxVDBq,375vsr8fwzmfz1886kcfytzzg59zr5,3r6byfzzpbpve01e59t2931x9umxfi,XHbxVDBq,2020-0188,2021-10-31,12:12:09,13:27:38,NA,incomplete,false,NA,true,NA,2,8,NA,NA,NA,left,NA,NA,NA,absent,NA,NA,m_l_004.jpg,black,m_s_081.jpg,green,between,NA,NaN,NA,NA,NA,NA,left,3704.3000000715256,1,3,2132.6999999284744
XHbxVDBq,375vsr8fwzmfz1886kcfytzzg59zr5,3r6byfzzpbpve01e59t2931x9umxfi,XHbxVDBq,2020-0188,2021-10-31,12:12:09,13:27:38,NA,incomplete,false,NA,true,NA,2,9,NA,NA,NA,left,NA,NA,NA,absent,NA,NA,n_l_003.jpg,orange,n_s_115.jpg,orange,within,NA,NaN,NA,NA,NA,NA,right,1402.7999999523163,0,3,2690.7000000476837
XHbxVDBq,375vsr8fwzmfz1886kcfytzzg59zr5,3r6byfzzpbpve01e59t2931x9umxfi,XHbxVDBq,2020-0188,2021-10-31,12:12:09,13:27:38,NA,incomplete,false,NA,true,NA,2,10,NA,NA,NA,left,NA,NA,NA,absent,NA,NA,n_s_035.jpg,red,n_s_090.jpg,red,within,NA,NaN,NA,NA,NA,NA,right,2263.399999976158,0,3,3407.899999976158
XHbxVDBq,375vsr8fwzmfz1886kcfytzzg59zr5,3r6byfzzpbpve01e59t2931x9umxfi,XHbxVDBq,2020-0188,2021-10-31,12:12:09,13:27:38,NA,incomplete,false,true,NA,NA,3,0,NA,yellow,m_l_113.jpg,NA,NA,NA,NA,NA,unpleasant,pleasant,NA,NA,NA,NA,NA,right,1509,true,NA,NA,NA,NA,NA,NA,NA,NA
XHbxVDBq,375vsr8fwzmfz1886kcfytzzg59zr5,3r6byfzzpbpve01e59t2931x9umxfi,XHbxVDBq,2020-0188,2021-10-31,12:12:09,13:27:38,NA,incomplete,false,true,NA,NA,3,1,NA,yellow,m_l_048.jpg,NA,NA,NA,NA,NA,unpleasant,pleasant,NA,NA,NA,NA,NA,right,2034.60000002384,true,NA,NA,NA,NA,NA,NA,NA,NA
XHbxVDBq,375vsr8fwzmfz1886kcfytzzg59zr5,3r6byfzzpbpve01e59t2931x9umxfi,XHbxVDBq,2020-0188,2021-10-31,12:12:09,13:27:38,NA,incomplete,false,true,NA,NA,3,2,NA,yellow,m_l_071.jpg,NA,NA,NA,NA,NA,pleasant,unpleasant,NA,NA,NA,NA,NA,left,1970,true,NA,NA,NA,NA,NA,NA,NA,NA
XHbxVDBq,375vsr8fwzmfz1886kcfytzzg59zr5,3r6byfzzpbpve01e59t2931x9umxfi,XHbxVDBq,2020-0188,2021-10-31,12:12:09,13:27:38,NA,incomplete,false,true,NA,NA,3,3,NA,yellow,n_s_055.jpg,NA,NA,NA,NA,NA,pleasant,unpleasant,NA,NA,NA,NA,NA,left,1528.29999995232,true,NA,NA,NA,NA,NA,NA,NA,NA
XHbxVDBq,375vsr8fwzmfz1886kcfytzzg59zr5,3r6byfzzpbpve01e59t2931x9umxfi,XHbxVDBq,2020-0188,2021-10-31,12:12:09,13:27:38,NA,incomplete,false,true,NA,NA,3,4,NA,yellow,m_s_012.jpg,NA,NA,NA,NA,NA,unpleasant,pleasant,NA,NA,NA,NA,NA,right,1092.5,true,NA,NA,NA,NA,NA,NA,NA,NA
XHbxVDBq,375vsr8fwzmfz1886kcfytzzg59zr5,3r6byfzzpbpve01e59t2931x9umxfi,XHbxVDBq,2020-0188,2021-10-31,12:12:09,13:27:38,NA,incomplete,false,true,NA,NA,3,5,NA,yellow,m_l_093.jpg,NA,NA,NA,NA,NA,unpleasant,pleasant,NA,NA,NA,NA,NA,right,1038.10000002384,true,NA,NA,NA,NA,NA,NA,NA,NA
XHbxVDBq,375vsr8fwzmfz1886kcfytzzg59zr5,3r6byfzzpbpve01e59t2931x9umxfi,XHbxVDBq,2020-0188,2021-10-31,12:12:09,13:27:38,NA,incomplete,false,true,NA,NA,3,6,NA,blue,m_l_066.jpg,NA,NA,NA,NA,NA,unpleasant,pleasant,NA,NA,NA,NA,NA,right,966.699999928474,true,NA,NA,NA,NA,NA,NA,NA,NA
XHbxVDBq,375vsr8fwzmfz1886kcfytzzg59zr5,3r6byfzzpbpve01e59t2931x9umxfi,XHbxVDBq,2020-0188,2021-10-31,12:12:09,13:27:38,NA,incomplete,false,true,NA,NA,3,7,NA,blue,n_s_038.jpg,NA,NA,NA,NA,NA,pleasant,unpleasant,NA,NA,NA,NA,NA,left,2607.5,true,NA,NA,NA,NA,NA,NA,NA,NA
XHbxVDBq,375vsr8fwzmfz1886kcfytzzg59zr5,3r6byfzzpbpve01e59t2931x9umxfi,XHbxVDBq,2020-0188,2021-10-31,12:12:09,13:27:38,NA,incomplete,false,true,NA,NA,3,8,NA,blue,m_l_064.jpg,NA,NA,NA,NA,NA,pleasant,unpleasant,NA,NA,NA,NA,NA,left,1157.20000004768,true,NA,NA,NA,NA,NA,NA,NA,NA
XHbxVDBq,375vsr8fwzmfz1886kcfytzzg59zr5,3r6byfzzpbpve01e59t2931x9umxfi,XHbxVDBq,2020-0188,2021-10-31,12:12:09,13:27:38,NA,incomplete,false,true,NA,NA,3,9,NA,blue,m_s_084.jpg,NA,NA,NA,NA,NA,unpleasant,pleasant,NA,NA,NA,NA,NA,right,941.800000071526,true,NA,NA,NA,NA,NA,NA,NA,NA
XHbxVDBq,375vsr8fwzmfz1886kcfytzzg59zr5,3r6byfzzpbpve01e59t2931x9umxfi,XHbxVDBq,2020-0188,2021-10-31,12:12:09,13:27:38,NA,incomplete,false,true,NA,NA,3,10,NA,blue,m_l_023.jpg,NA,NA,NA,NA,NA,pleasant,unpleasant,NA,NA,NA,NA,NA,left,1004.39999997616,true,NA,NA,NA,NA,NA,NA,NA,NA
XHbxVDBq,375vsr8fwzmfz1886kcfytzzg59zr5,3r6byfzzpbpve01e59t2931x9umxfi,XHbxVDBq,2020-0188,2021-10-31,12:12:09,13:27:38,NA,incomplete,false,true,NA,NA,3,11,NA,blue,m_s_107.jpg,NA,NA,NA,NA,NA,unpleasant,pleasant,NA,NA,NA,NA,NA,right,1375.29999995232,true,NA,NA,NA,NA,NA,NA,NA,NA
XHbxVDBq,375vsr8fwzmfz1886kcfytzzg59zr5,3r6byfzzpbpve01e59t2931x9umxfi,XHbxVDBq,2020-0188,2021-10-31,12:12:09,13:27:38,NA,incomplete,false,true,NA,NA,3,12,NA,green,m_s_045.jpg,NA,NA,NA,NA,NA,pleasant,unpleasant,NA,NA,NA,NA,NA,left,1496.89999997616,true,NA,NA,NA,NA,NA,NA,NA,NA
XHbxVDBq,375vsr8fwzmfz1886kcfytzzg59zr5,3r6byfzzpbpve01e59t2931x9umxfi,XHbxVDBq,2020-0188,2021-10-31,12:12:09,13:27:38,NA,incomplete,false,true,NA,NA,3,13,NA,green,n_l_035.jpg,NA,NA,NA,NA,NA,unpleasant,pleasant,NA,NA,NA,NA,NA,right,2115.19999992847,true,NA,NA,NA,NA,NA,NA,NA,NA
XHbxVDBq,375vsr8fwzmfz1886kcfytzzg59zr5,3r6byfzzpbpve01e59t2931x9umxfi,XHbxVDBq,2020-0188,2021-10-31,12:12:09,13:27:38,NA,incomplete,false,true,NA,NA,3,14,NA,green,m_s_041.jpg,NA,NA,NA,NA,NA,pleasant,unpleasant,NA,NA,NA,NA,NA,left,1068.10000002384,true,NA,NA,NA,NA,NA,NA,NA,NA
XHbxVDBq,375vsr8fwzmfz1886kcfytzzg59zr5,3r6byfzzpbpve01e59t2931x9umxfi,XHbxVDBq,2020-0188,2021-10-31,12:12:09,13:27:38,NA,incomplete,false,true,NA,NA,3,15,NA,green,n_l_023.jpg,NA,NA,NA,NA,NA,pleasant,unpleasant,NA,NA,NA,NA,NA,left,1005.59999990463,true,NA,NA,NA,NA,NA,NA,NA,NA
XHbxVDBq,375vsr8fwzmfz1886kcfytzzg59zr5,3r6byfzzpbpve01e59t2931x9umxfi,XHbxVDBq,2020-0188,2021-10-31,12:12:09,13:27:38,NA,incomplete,false,true,NA,NA,3,16,NA,green,n_s_110.jpg,NA,NA,NA,NA,NA,unpleasant,pleasant,NA,NA,NA,NA,NA,right,1957.60000002384,true,NA,NA,NA,NA,NA,NA,NA,NA
XHbxVDBq,375vsr8fwzmfz1886kcfytzzg59zr5,3r6byfzzpbpve01e59t2931x9umxfi,XHbxVDBq,2020-0188,2021-10-31,12:12:09,13:27:38,NA,incomplete,false,true,NA,NA,3,17,NA,green,m_s_034.jpg,NA,NA,NA,NA,NA,pleasant,unpleasant,NA,NA,NA,NA,NA,left,2157.30000007153,true,NA,NA,NA,NA,NA,NA,NA,NA
XHbxVDBq,375vsr8fwzmfz1886kcfytzzg59zr5,3r6byfzzpbpve01e59t2931x9umxfi,XHbxVDBq,2020-0188,2021-10-31,12:12:09,13:27:38,NA,incomplete,false,true,NA,NA,3,18,NA,brown,n_l_009.jpg,NA,NA,NA,NA,NA,pleasant,unpleasant,NA,NA,NA,NA,NA,left,1623.70000004768,true,NA,NA,NA,NA,NA,NA,NA,NA
XHbxVDBq,375vsr8fwzmfz1886kcfytzzg59zr5,3r6byfzzpbpve01e59t2931x9umxfi,XHbxVDBq,2020-0188,2021-10-31,12:12:09,13:27:38,NA,incomplete,false,true,NA,NA,3,19,NA,brown,n_s_099.jpg,NA,NA,NA,NA,NA,pleasant,unpleasant,NA,NA,NA,NA,NA,left,1627.80000007153,true,NA,NA,NA,NA,NA,NA,NA,NA
XHbxVDBq,375vsr8fwzmfz1886kcfytzzg59zr5,3r6byfzzpbpve01e59t2931x9umxfi,XHbxVDBq,2020-0188,2021-10-31,12:12:09,13:27:38,NA,incomplete,false,true,NA,NA,3,20,NA,brown,m_s_063.jpg,NA,NA,NA,NA,NA,pleasant,unpleasant,NA,NA,NA,NA,NA,left,1416.5,true,NA,NA,NA,NA,NA,NA,NA,NA
XHbxVDBq,375vsr8fwzmfz1886kcfytzzg59zr5,3r6byfzzpbpve01e59t2931x9umxfi,XHbxVDBq,2020-0188,2021-10-31,12:12:09,13:27:38,NA,incomplete,false,true,NA,NA,3,21,NA,brown,m_l_110.jpg,NA,NA,NA,NA,NA,pleasant,unpleasant,NA,NA,NA,NA,NA,left,1528.89999997616,true,NA,NA,NA,NA,NA,NA,NA,NA
XHbxVDBq,375vsr8fwzmfz1886kcfytzzg59zr5,3r6byfzzpbpve01e59t2931x9umxfi,XHbxVDBq,2020-0188,2021-10-31,12:12:09,13:27:38,NA,incomplete,false,true,NA,NA,3,22,NA,brown,m_s_044.jpg,NA,NA,NA,NA,NA,unpleasant,pleasant,NA,NA,NA,NA,NA,right,2732.10000002384,true,NA,NA,NA,NA,NA,NA,NA,NA
XHbxVDBq,375vsr8fwzmfz1886kcfytzzg59zr5,3r6byfzzpbpve01e59t2931x9umxfi,XHbxVDBq,2020-0188,2021-10-31,12:12:09,13:27:38,NA,incomplete,false,true,NA,NA,3,23,NA,brown,n_l_045.jpg,NA,NA,NA,NA,NA,pleasant,unpleasant,NA,NA,NA,NA,NA,left,1732.69999992847,true,NA,NA,NA,NA,NA,NA,NA,NA
XHbxVDBq,375vsr8fwzmfz1886kcfytzzg59zr5,3r6byfzzpbpve01e59t2931x9umxfi,XHbxVDBq,2020-0188,2021-10-31,12:12:09,13:27:38,NA,incomplete,false,true,NA,NA,3,24,NA,gray,m_s_036.jpg,NA,NA,NA,NA,NA,unpleasant,pleasant,NA,NA,NA,NA,NA,right,2245.80000007153,true,NA,NA,NA,NA,NA,NA,NA,NA
XHbxVDBq,375vsr8fwzmfz1886kcfytzzg59zr5,3r6byfzzpbpve01e59t2931x9umxfi,XHbxVDBq,2020-0188,2021-10-31,12:12:09,13:27:38,NA,incomplete,false,true,NA,NA,3,25,NA,gray,n_l_078.jpg,NA,NA,NA,NA,NA,unpleasant,pleasant,NA,NA,NA,NA,NA,right,1358,true,NA,NA,NA,NA,NA,NA,NA,NA
XHbxVDBq,375vsr8fwzmfz1886kcfytzzg59zr5,3r6byfzzpbpve01e59t2931x9umxfi,XHbxVDBq,2020-0188,2021-10-31,12:12:09,13:27:38,NA,incomplete,false,true,NA,NA,3,26,NA,gray,m_l_038.jpg,NA,NA,NA,NA,NA,unpleasant,pleasant,NA,NA,NA,NA,NA,right,1156.39999997616,true,NA,NA,NA,NA,NA,NA,NA,NA
XHbxVDBq,375vsr8fwzmfz1886kcfytzzg59zr5,3r6byfzzpbpve01e59t2931x9umxfi,XHbxVDBq,2020-0188,2021-10-31,12:12:09,13:27:38,NA,incomplete,false,true,NA,NA,3,27,NA,gray,m_l_013.jpg,NA,NA,NA,NA,NA,unpleasant,pleasant,NA,NA,NA,NA,NA,right,909.700000047684,true,NA,NA,NA,NA,NA,NA,NA,NA
XHbxVDBq,375vsr8fwzmfz1886kcfytzzg59zr5,3r6byfzzpbpve01e59t2931x9umxfi,XHbxVDBq,2020-0188,2021-10-31,12:12:09,13:27:38,NA,incomplete,false,true,NA,NA,3,28,NA,gray,m_l_092.jpg,NA,NA,NA,NA,NA,pleasant,unpleasant,NA,NA,NA,NA,NA,left,1713,true,NA,NA,NA,NA,NA,NA,NA,NA
XHbxVDBq,375vsr8fwzmfz1886kcfytzzg59zr5,3r6byfzzpbpve01e59t2931x9umxfi,XHbxVDBq,2020-0188,2021-10-31,12:12:09,13:27:38,NA,incomplete,false,true,NA,NA,3,29,NA,gray,n_l_108.jpg,NA,NA,NA,NA,NA,unpleasant,pleasant,NA,NA,NA,NA,NA,right,2085.39999997616,true,NA,NA,NA,NA,NA,NA,NA,NA
XHbxVDBq,375vsr8fwzmfz1886kcfytzzg59zr5,3r6byfzzpbpve01e59t2931x9umxfi,XHbxVDBq,2020-0188,2021-10-31,12:12:09,13:27:38,NA,incomplete,false,true,NA,NA,3,30,NA,red,n_s_102.jpg,NA,NA,NA,NA,NA,unpleasant,pleasant,NA,NA,NA,NA,NA,right,1256.39999997616,true,NA,NA,NA,NA,NA,NA,NA,NA
XHbxVDBq,375vsr8fwzmfz1886kcfytzzg59zr5,3r6byfzzpbpve01e59t2931x9umxfi,XHbxVDBq,2020-0188,2021-10-31,12:12:09,13:27:38,NA,incomplete,false,true,NA,NA,3,31,NA,red,m_s_066.jpg,NA,NA,NA,NA,NA,unpleasant,pleasant,NA,NA,NA,NA,NA,right,1080.69999992847,true,NA,NA,NA,NA,NA,NA,NA,NA
XHbxVDBq,375vsr8fwzmfz1886kcfytzzg59zr5,3r6byfzzpbpve01e59t2931x9umxfi,XHbxVDBq,2020-0188,2021-10-31,12:12:09,13:27:38,NA,incomplete,false,true,NA,NA,3,32,NA,red,n_s_016.jpg,NA,NA,NA,NA,NA,unpleasant,pleasant,NA,NA,NA,NA,NA,right,1222.40000009537,true,NA,NA,NA,NA,NA,NA,NA,NA
XHbxVDBq,375vsr8fwzmfz1886kcfytzzg59zr5,3r6byfzzpbpve01e59t2931x9umxfi,XHbxVDBq,2020-0188,2021-10-31,12:12:09,13:27:38,NA,incomplete,false,true,NA,NA,3,33,NA,red,n_l_029.jpg,NA,NA,NA,NA,NA,pleasant,unpleasant,NA,NA,NA,NA,NA,left,2093,true,NA,NA,NA,NA,NA,NA,NA,NA
XHbxVDBq,375vsr8fwzmfz1886kcfytzzg59zr5,3r6byfzzpbpve01e59t2931x9umxfi,XHbxVDBq,2020-0188,2021-10-31,12:12:09,13:27:38,NA,incomplete,false,true,NA,NA,3,34,NA,red,m_l_054.jpg,NA,NA,NA,NA,NA,pleasant,unpleasant,NA,NA,NA,NA,NA,left,1825.30000007153,true,NA,NA,NA,NA,NA,NA,NA,NA
XHbxVDBq,375vsr8fwzmfz1886kcfytzzg59zr5,3r6byfzzpbpve01e59t2931x9umxfi,XHbxVDBq,2020-0188,2021-10-31,12:12:09,13:27:38,NA,incomplete,false,true,NA,NA,3,35,NA,red,m_l_089.jpg,NA,NA,NA,NA,NA,pleasant,unpleasant,NA,NA,NA,NA,NA,left,1630,true,NA,NA,NA,NA,NA,NA,NA,NA
XHbxVDBq,375vsr8fwzmfz1886kcfytzzg59zr5,3r6byfzzpbpve01e59t2931x9umxfi,XHbxVDBq,2020-0188,2021-10-31,12:12:09,13:27:38,NA,incomplete,false,NA,NA,true,3,0,NA,NA,NA,left,n_s_038.jpg,blue,yellow,NA,NA,NA,NA,NA,NA,NA,NA,NA,NaN,NA,3337.399999976158,left,1,NA,NA,NA,NA,NA
XHbxVDBq,375vsr8fwzmfz1886kcfytzzg59zr5,3r6byfzzpbpve01e59t2931x9umxfi,XHbxVDBq,2020-0188,2021-10-31,12:12:09,13:27:38,NA,incomplete,false,NA,NA,true,3,1,NA,NA,NA,left,m_l_038.jpg,gray,brown,NA,NA,NA,NA,NA,NA,NA,NA,NA,NaN,NA,2943.2999999523163,left,1,NA,NA,NA,NA,NA
XHbxVDBq,375vsr8fwzmfz1886kcfytzzg59zr5,3r6byfzzpbpve01e59t2931x9umxfi,XHbxVDBq,2020-0188,2021-10-31,12:12:09,13:27:38,NA,incomplete,false,NA,NA,true,3,2,NA,NA,NA,right,m_l_093.jpg,blue,yellow,NA,NA,NA,NA,NA,NA,NA,NA,NA,NaN,NA,2830.5,right,1,NA,NA,NA,NA,NA
XHbxVDBq,375vsr8fwzmfz1886kcfytzzg59zr5,3r6byfzzpbpve01e59t2931x9umxfi,XHbxVDBq,2020-0188,2021-10-31,12:12:09,13:27:38,NA,incomplete,false,NA,NA,true,3,3,NA,NA,NA,right,m_l_023.jpg,yellow,blue,NA,NA,NA,NA,NA,NA,NA,NA,NA,NaN,NA,1631.5999999046326,right,1,NA,NA,NA,NA,NA
XHbxVDBq,375vsr8fwzmfz1886kcfytzzg59zr5,3r6byfzzpbpve01e59t2931x9umxfi,XHbxVDBq,2020-0188,2021-10-31,12:12:09,13:27:38,NA,incomplete,false,NA,NA,true,3,4,NA,NA,NA,right,n_l_035.jpg,brown,green,NA,NA,NA,NA,NA,NA,NA,NA,NA,NaN,NA,3731,left,0,NA,NA,NA,NA,NA
XHbxVDBq,375vsr8fwzmfz1886kcfytzzg59zr5,3r6byfzzpbpve01e59t2931x9umxfi,XHbxVDBq,2020-0188,2021-10-31,12:12:09,13:27:38,NA,incomplete,false,NA,NA,true,3,5,NA,NA,NA,left,m_s_044.jpg,brown,green,NA,NA,NA,NA,NA,NA,NA,NA,NA,NaN,NA,2301.6999999284744,left,1,NA,NA,NA,NA,NA
XHbxVDBq,375vsr8fwzmfz1886kcfytzzg59zr5,3r6byfzzpbpve01e59t2931x9umxfi,XHbxVDBq,2020-0188,2021-10-31,12:12:09,13:27:38,NA,incomplete,false,NA,NA,true,3,6,NA,NA,NA,left,m_s_034.jpg,green,blue,NA,NA,NA,NA,NA,NA,NA,NA,NA,NaN,NA,2606.1999999284744,left,1,NA,NA,NA,NA,NA
XHbxVDBq,375vsr8fwzmfz1886kcfytzzg59zr5,3r6byfzzpbpve01e59t2931x9umxfi,XHbxVDBq,2020-0188,2021-10-31,12:12:09,13:27:38,NA,incomplete,false,NA,NA,true,3,7,NA,NA,NA,left,n_s_016.jpg,red,gray,NA,NA,NA,NA,NA,NA,NA,NA,NA,NaN,NA,1839.4000000953674,right,0,NA,NA,NA,NA,NA
XHbxVDBq,375vsr8fwzmfz1886kcfytzzg59zr5,3r6byfzzpbpve01e59t2931x9umxfi,XHbxVDBq,2020-0188,2021-10-31,12:12:09,13:27:38,NA,incomplete,false,NA,NA,true,3,8,NA,NA,NA,left,n_s_099.jpg,brown,green,NA,NA,NA,NA,NA,NA,NA,NA,NA,NaN,NA,1581.8999999761581,right,0,NA,NA,NA,NA,NA
XHbxVDBq,375vsr8fwzmfz1886kcfytzzg59zr5,3r6byfzzpbpve01e59t2931x9umxfi,XHbxVDBq,2020-0188,2021-10-31,12:12:09,13:27:38,NA,incomplete,false,NA,NA,true,3,9,NA,NA,NA,right,m_s_041.jpg,blue,green,NA,NA,NA,NA,NA,NA,NA,NA,NA,NaN,NA,1597.7999999523163,left,0,NA,NA,NA,NA,NA
XHbxVDBq,375vsr8fwzmfz1886kcfytzzg59zr5,3r6byfzzpbpve01e59t2931x9umxfi,XHbxVDBq,2020-0188,2021-10-31,12:12:09,13:27:38,NA,incomplete,false,NA,NA,true,3,10,NA,NA,NA,right,n_l_108.jpg,brown,gray,NA,NA,NA,NA,NA,NA,NA,NA,NA,NaN,NA,1418.6000000238419,right,1,NA,NA,NA,NA,NA
XHbxVDBq,375vsr8fwzmfz1886kcfytzzg59zr5,3r6byfzzpbpve01e59t2931x9umxfi,XHbxVDBq,2020-0188,2021-10-31,12:12:09,13:27:38,NA,incomplete,false,NA,NA,true,3,11,NA,NA,NA,left,n_l_078.jpg,gray,red,NA,NA,NA,NA,NA,NA,NA,NA,NA,NaN,NA,4429.700000047684,left,1,NA,NA,NA,NA,NA
XHbxVDBq,375vsr8fwzmfz1886kcfytzzg59zr5,3r6byfzzpbpve01e59t2931x9umxfi,XHbxVDBq,2020-0188,2021-10-31,12:12:09,13:27:38,NA,incomplete,false,NA,NA,true,3,12,NA,NA,NA,left,n_l_045.jpg,brown,gray,NA,NA,NA,NA,NA,NA,NA,NA,NA,NaN,NA,3053.1999999284744,left,1,NA,NA,NA,NA,NA
XHbxVDBq,375vsr8fwzmfz1886kcfytzzg59zr5,3r6byfzzpbpve01e59t2931x9umxfi,XHbxVDBq,2020-0188,2021-10-31,12:12:09,13:27:38,NA,incomplete,false,NA,NA,true,3,13,NA,NA,NA,right,m_l_064.jpg,yellow,blue,NA,NA,NA,NA,NA,NA,NA,NA,NA,NaN,NA,1431.7999999523163,right,1,NA,NA,NA,NA,NA
XHbxVDBq,375vsr8fwzmfz1886kcfytzzg59zr5,3r6byfzzpbpve01e59t2931x9umxfi,XHbxVDBq,2020-0188,2021-10-31,12:12:09,13:27:38,NA,incomplete,false,NA,NA,true,3,14,NA,NA,NA,right,m_l_089.jpg,gray,red,NA,NA,NA,NA,NA,NA,NA,NA,NA,NaN,NA,2740,right,1,NA,NA,NA,NA,NA
XHbxVDBq,375vsr8fwzmfz1886kcfytzzg59zr5,3r6byfzzpbpve01e59t2931x9umxfi,XHbxVDBq,2020-0188,2021-10-31,12:12:09,13:27:38,NA,incomplete,false,NA,NA,true,3,15,NA,NA,NA,right,m_s_066.jpg,gray,red,NA,NA,NA,NA,NA,NA,NA,NA,NA,NaN,NA,1607.0999999046326,right,1,NA,NA,NA,NA,NA
XHbxVDBq,375vsr8fwzmfz1886kcfytzzg59zr5,3r6byfzzpbpve01e59t2931x9umxfi,XHbxVDBq,2020-0188,2021-10-31,12:12:09,13:27:38,NA,incomplete,false,NA,NA,true,3,16,NA,NA,NA,left,m_s_063.jpg,brown,gray,NA,NA,NA,NA,NA,NA,NA,NA,NA,NaN,NA,3980.6999999284744,left,1,NA,NA,NA,NA,NA
XHbxVDBq,375vsr8fwzmfz1886kcfytzzg59zr5,3r6byfzzpbpve01e59t2931x9umxfi,XHbxVDBq,2020-0188,2021-10-31,12:12:09,13:27:38,NA,incomplete,false,NA,NA,true,3,17,NA,NA,NA,right,m_s_012.jpg,blue,yellow,NA,NA,NA,NA,NA,NA,NA,NA,NA,NaN,NA,4535.199999928474,left,0,NA,NA,NA,NA,NA
XHbxVDBq,375vsr8fwzmfz1886kcfytzzg59zr5,3r6byfzzpbpve01e59t2931x9umxfi,XHbxVDBq,2020-0188,2021-10-31,12:12:09,13:27:38,NA,incomplete,false,NA,NA,true,3,18,NA,NA,NA,right,m_l_048.jpg,blue,yellow,NA,NA,NA,NA,NA,NA,NA,NA,NA,NaN,NA,329.6999999284744,right,1,NA,NA,NA,NA,NA
XHbxVDBq,375vsr8fwzmfz1886kcfytzzg59zr5,3r6byfzzpbpve01e59t2931x9umxfi,XHbxVDBq,2020-0188,2021-10-31,12:12:09,13:27:38,NA,incomplete,false,NA,NA,true,3,19,NA,NA,NA,right,m_s_107.jpg,green,blue,NA,NA,NA,NA,NA,NA,NA,NA,NA,NaN,NA,1320.2999999523163,right,1,NA,NA,NA,NA,NA
XHbxVDBq,375vsr8fwzmfz1886kcfytzzg59zr5,3r6byfzzpbpve01e59t2931x9umxfi,XHbxVDBq,2020-0188,2021-10-31,12:12:09,13:27:38,NA,incomplete,false,NA,NA,true,3,20,NA,NA,NA,left,m_l_092.jpg,gray,brown,NA,NA,NA,NA,NA,NA,NA,NA,NA,NaN,NA,1766.8000000715256,right,0,NA,NA,NA,NA,NA
XHbxVDBq,375vsr8fwzmfz1886kcfytzzg59zr5,3r6byfzzpbpve01e59t2931x9umxfi,XHbxVDBq,2020-0188,2021-10-31,12:12:09,13:27:38,NA,incomplete,false,NA,NA,true,3,21,NA,NA,NA,left,n_s_110.jpg,green,brown,NA,NA,NA,NA,NA,NA,NA,NA,NA,NaN,NA,1646.3000000715256,left,1,NA,NA,NA,NA,NA
XHbxVDBq,375vsr8fwzmfz1886kcfytzzg59zr5,3r6byfzzpbpve01e59t2931x9umxfi,XHbxVDBq,2020-0188,2021-10-31,12:12:09,13:27:38,NA,incomplete,false,NA,true,NA,3,0,NA,NA,NA,left,NA,NA,NA,absent,NA,NA,n_l_035.jpg,green,m_s_034.jpg,green,within,NA,NaN,NA,NA,NA,NA,left,4773.700000047684,1,3,2576.399999976158
XHbxVDBq,375vsr8fwzmfz1886kcfytzzg59zr5,3r6byfzzpbpve01e59t2931x9umxfi,XHbxVDBq,2020-0188,2021-10-31,12:12:09,13:27:38,NA,incomplete,false,NA,true,NA,3,1,NA,NA,NA,right,NA,NA,NA,absent,NA,NA,m_l_064.jpg,blue,m_s_012.jpg,yellow,between,NA,NaN,NA,NA,NA,NA,right,4487.699999928474,1,3,3844.399999976158
XHbxVDBq,375vsr8fwzmfz1886kcfytzzg59zr5,3r6byfzzpbpve01e59t2931x9umxfi,XHbxVDBq,2020-0188,2021-10-31,12:12:09,13:27:38,NA,incomplete,false,NA,true,NA,3,2,NA,NA,NA,left,NA,NA,NA,absent,NA,NA,n_s_038.jpg,blue,m_s_107.jpg,blue,within,NA,NaN,NA,NA,NA,NA,right,2100.899999976158,0,3,1517.1000000238419
XHbxVDBq,375vsr8fwzmfz1886kcfytzzg59zr5,3r6byfzzpbpve01e59t2931x9umxfi,XHbxVDBq,2020-0188,2021-10-31,12:12:09,13:27:38,NA,incomplete,false,NA,true,NA,3,3,NA,NA,NA,left,NA,NA,NA,absent,NA,NA,m_s_066.jpg,red,m_l_089.jpg,red,within,NA,NaN,NA,NA,NA,NA,left,4223.5,1,3,1971.8000000715256
XHbxVDBq,375vsr8fwzmfz1886kcfytzzg59zr5,3r6byfzzpbpve01e59t2931x9umxfi,XHbxVDBq,2020-0188,2021-10-31,12:12:09,13:27:38,NA,incomplete,false,NA,true,NA,3,4,NA,NA,NA,right,NA,NA,NA,absent,NA,NA,m_s_041.jpg,green,m_l_023.jpg,blue,between,NA,NaN,NA,NA,NA,NA,right,1614.6000000238419,1,3,3701.899999976158
XHbxVDBq,375vsr8fwzmfz1886kcfytzzg59zr5,3r6byfzzpbpve01e59t2931x9umxfi,XHbxVDBq,2020-0188,2021-10-31,12:12:09,13:27:38,NA,incomplete,false,NA,true,NA,3,5,NA,NA,NA,right,NA,NA,NA,absent,NA,NA,n_l_108.jpg,gray,n_l_078.jpg,gray,within,NA,NaN,NA,NA,NA,NA,left,3139,0,3,2496.5
XHbxVDBq,375vsr8fwzmfz1886kcfytzzg59zr5,3r6byfzzpbpve01e59t2931x9umxfi,XHbxVDBq,2020-0188,2021-10-31,12:12:09,13:27:38,NA,incomplete,false,NA,true,NA,3,6,NA,NA,NA,right,NA,NA,NA,absent,NA,NA,m_l_093.jpg,yellow,m_l_048.jpg,yellow,within,NA,NaN,NA,NA,NA,NA,left,7120.700000047684,0,3,2478.600000023842
XHbxVDBq,375vsr8fwzmfz1886kcfytzzg59zr5,3r6byfzzpbpve01e59t2931x9umxfi,XHbxVDBq,2020-0188,2021-10-31,12:12:09,13:27:38,NA,incomplete,false,NA,true,NA,3,7,NA,NA,NA,right,NA,NA,NA,absent,NA,NA,n_l_045.jpg,brown,n_s_099.jpg,brown,within,NA,NaN,NA,NA,NA,NA,right,1806.7000000476837,1,3,2077.7999999523163
XHbxVDBq,375vsr8fwzmfz1886kcfytzzg59zr5,3r6byfzzpbpve01e59t2931x9umxfi,XHbxVDBq,2020-0188,2021-10-31,12:12:09,13:27:38,NA,incomplete,false,NA,true,NA,3,8,NA,NA,NA,left,NA,NA,NA,absent,NA,NA,m_l_092.jpg,gray,n_s_016.jpg,red,between,NA,NaN,NA,NA,NA,NA,right,1720.1999999284744,0,3,2554.600000023842
XHbxVDBq,375vsr8fwzmfz1886kcfytzzg59zr5,3r6byfzzpbpve01e59t2931x9umxfi,XHbxVDBq,2020-0188,2021-10-31,12:12:09,13:27:38,NA,incomplete,false,NA,true,NA,3,9,NA,NA,NA,left,NA,NA,NA,absent,NA,NA,m_s_044.jpg,brown,m_l_038.jpg,gray,between,NA,NaN,NA,NA,NA,NA,right,1747.9000000953674,0,3,4563.899999976158
XHbxVDBq,375vsr8fwzmfz1886kcfytzzg59zr5,3r6byfzzpbpve01e59t2931x9umxfi,XHbxVDBq,2020-0188,2021-10-31,12:12:09,13:27:38,NA,incomplete,false,NA,true,NA,3,10,NA,NA,NA,right,NA,NA,NA,absent,NA,NA,m_s_063.jpg,brown,n_s_110.jpg,green,between,NA,NaN,NA,NA,NA,NA,right,1967.5,1,3,2276.2999999523163
XHbxVDBq,375vsr8fwzmfz1886kcfytzzg59zr5,3r6byfzzpbpve01e59t2931x9umxfi,XHbxVDBq,2020-0188,2021-10-31,12:12:09,13:27:38,NA,incomplete,false,true,NA,NA,4,0,NA,gray,n_l_085.jpg,NA,NA,NA,NA,NA,pleasant,unpleasant,NA,NA,NA,NA,NA,right,3071.60000002384,true,NA,NA,NA,NA,NA,NA,NA,NA
XHbxVDBq,375vsr8fwzmfz1886kcfytzzg59zr5,3r6byfzzpbpve01e59t2931x9umxfi,XHbxVDBq,2020-0188,2021-10-31,12:12:09,13:27:38,NA,incomplete,false,true,NA,NA,4,1,NA,gray,m_s_085.jpg,NA,NA,NA,NA,NA,unpleasant,pleasant,NA,NA,NA,NA,NA,right,2349.89999997616,true,NA,NA,NA,NA,NA,NA,NA,NA
XHbxVDBq,375vsr8fwzmfz1886kcfytzzg59zr5,3r6byfzzpbpve01e59t2931x9umxfi,XHbxVDBq,2020-0188,2021-10-31,12:12:09,13:27:38,NA,incomplete,false,true,NA,NA,4,2,NA,gray,m_s_108.jpg,NA,NA,NA,NA,NA,unpleasant,pleasant,NA,NA,NA,NA,NA,right,1393.5,true,NA,NA,NA,NA,NA,NA,NA,NA
XHbxVDBq,375vsr8fwzmfz1886kcfytzzg59zr5,3r6byfzzpbpve01e59t2931x9umxfi,XHbxVDBq,2020-0188,2021-10-31,12:12:09,13:27:38,NA,incomplete,false,true,NA,NA,4,3,NA,gray,n_l_056.jpg,NA,NA,NA,NA,NA,pleasant,unpleasant,NA,NA,NA,NA,NA,left,3025.29999995232,true,NA,NA,NA,NA,NA,NA,NA,NA
XHbxVDBq,375vsr8fwzmfz1886kcfytzzg59zr5,3r6byfzzpbpve01e59t2931x9umxfi,XHbxVDBq,2020-0188,2021-10-31,12:12:09,13:27:38,NA,incomplete,false,true,NA,NA,4,4,NA,gray,m_s_082.jpg,NA,NA,NA,NA,NA,pleasant,unpleasant,NA,NA,NA,NA,NA,none,0,false,NA,NA,NA,NA,NA,NA,NA,NA
XHbxVDBq,375vsr8fwzmfz1886kcfytzzg59zr5,3r6byfzzpbpve01e59t2931x9umxfi,XHbxVDBq,2020-0188,2021-10-31,12:12:09,13:27:38,NA,incomplete,false,true,NA,NA,4,5,NA,gray,m_s_014.jpg,NA,NA,NA,NA,NA,pleasant,unpleasant,NA,NA,NA,NA,NA,none,0,false,NA,NA,NA,NA,NA,NA,NA,NA
XHbxVDBq,375vsr8fwzmfz1886kcfytzzg59zr5,3r6byfzzpbpve01e59t2931x9umxfi,XHbxVDBq,2020-0188,2021-10-31,12:12:09,13:27:38,NA,incomplete,false,true,NA,NA,4,6,NA,brown,n_l_082.jpg,NA,NA,NA,NA,NA,pleasant,unpleasant,NA,NA,NA,NA,NA,none,0,false,NA,NA,NA,NA,NA,NA,NA,NA
XHbxVDBq,375vsr8fwzmfz1886kcfytzzg59zr5,3r6byfzzpbpve01e59t2931x9umxfi,XHbxVDBq,2020-0188,2021-10-31,12:12:09,13:27:38,NA,incomplete,false,true,NA,NA,4,7,NA,brown,m_l_068.jpg,NA,NA,NA,NA,NA,unpleasant,pleasant,NA,NA,NA,NA,NA,none,0,false,NA,NA,NA,NA,NA,NA,NA,NA
XHbxVDBq,375vsr8fwzmfz1886kcfytzzg59zr5,3r6byfzzpbpve01e59t2931x9umxfi,XHbxVDBq,2020-0188,2021-10-31,12:12:09,13:27:38,NA,incomplete,false,true,NA,NA,4,8,NA,brown,n_l_030.jpg,NA,NA,NA,NA,NA,pleasant,unpleasant,NA,NA,NA,NA,NA,left,3384.10000002384,true,NA,NA,NA,NA,NA,NA,NA,NA
XHbxVDBq,375vsr8fwzmfz1886kcfytzzg59zr5,3r6byfzzpbpve01e59t2931x9umxfi,XHbxVDBq,2020-0188,2021-10-31,12:12:09,13:27:38,NA,incomplete,false,true,NA,NA,4,9,NA,brown,n_s_042.jpg,NA,NA,NA,NA,NA,pleasant,unpleasant,NA,NA,NA,NA,NA,left,2572.10000002384,true,NA,NA,NA,NA,NA,NA,NA,NA
XHbxVDBq,375vsr8fwzmfz1886kcfytzzg59zr5,3r6byfzzpbpve01e59t2931x9umxfi,XHbxVDBq,2020-0188,2021-10-31,12:12:09,13:27:38,NA,incomplete,false,true,NA,NA,4,10,NA,brown,n_s_010.jpg,NA,NA,NA,NA,NA,pleasant,unpleasant,NA,NA,NA,NA,NA,left,2100,true,NA,NA,NA,NA,NA,NA,NA,NA
XHbxVDBq,375vsr8fwzmfz1886kcfytzzg59zr5,3r6byfzzpbpve01e59t2931x9umxfi,XHbxVDBq,2020-0188,2021-10-31,12:12:09,13:27:38,NA,incomplete,false,true,NA,NA,4,11,NA,brown,n_s_037.jpg,NA,NA,NA,NA,NA,pleasant,unpleasant,NA,NA,NA,NA,NA,none,0,false,NA,NA,NA,NA,NA,NA,NA,NA
XHbxVDBq,375vsr8fwzmfz1886kcfytzzg59zr5,3r6byfzzpbpve01e59t2931x9umxfi,XHbxVDBq,2020-0188,2021-10-31,12:12:09,13:27:38,NA,incomplete,false,true,NA,NA,4,12,NA,black,m_l_108.jpg,NA,NA,NA,NA,NA,pleasant,unpleasant,NA,NA,NA,NA,NA,left,2511,true,NA,NA,NA,NA,NA,NA,NA,NA
XHbxVDBq,375vsr8fwzmfz1886kcfytzzg59zr5,3r6byfzzpbpve01e59t2931x9umxfi,XHbxVDBq,2020-0188,2021-10-31,12:12:09,13:27:38,NA,incomplete,false,true,NA,NA,4,13,NA,black,m_l_056.jpg,NA,NA,NA,NA,NA,pleasant,unpleasant,NA,NA,NA,NA,NA,none,0,false,NA,NA,NA,NA,NA,NA,NA,NA
XHbxVDBq,375vsr8fwzmfz1886kcfytzzg59zr5,3r6byfzzpbpve01e59t2931x9umxfi,XHbxVDBq,2020-0188,2021-10-31,12:12:09,13:27:38,NA,incomplete,false,true,NA,NA,4,14,NA,black,m_l_059.jpg,NA,NA,NA,NA,NA,unpleasant,pleasant,NA,NA,NA,NA,NA,right,3133.69999992847,true,NA,NA,NA,NA,NA,NA,NA,NA
XHbxVDBq,375vsr8fwzmfz1886kcfytzzg59zr5,3r6byfzzpbpve01e59t2931x9umxfi,XHbxVDBq,2020-0188,2021-10-31,12:12:09,13:27:38,NA,incomplete,false,true,NA,NA,4,15,NA,black,m_s_116.jpg,NA,NA,NA,NA,NA,pleasant,unpleasant,NA,NA,NA,NA,NA,left,1743.19999992847,true,NA,NA,NA,NA,NA,NA,NA,NA
XHbxVDBq,375vsr8fwzmfz1886kcfytzzg59zr5,3r6byfzzpbpve01e59t2931x9umxfi,XHbxVDBq,2020-0188,2021-10-31,12:12:09,13:27:38,NA,incomplete,false,true,NA,NA,4,16,NA,black,m_l_112.jpg,NA,NA,NA,NA,NA,pleasant,unpleasant,NA,NA,NA,NA,NA,left,1558.29999995232,true,NA,NA,NA,NA,NA,NA,NA,NA
XHbxVDBq,375vsr8fwzmfz1886kcfytzzg59zr5,3r6byfzzpbpve01e59t2931x9umxfi,XHbxVDBq,2020-0188,2021-10-31,12:12:09,13:27:38,NA,incomplete,false,true,NA,NA,4,17,NA,black,m_s_061.jpg,NA,NA,NA,NA,NA,unpleasant,pleasant,NA,NA,NA,NA,NA,right,1596.40000009537,true,NA,NA,NA,NA,NA,NA,NA,NA
XHbxVDBq,375vsr8fwzmfz1886kcfytzzg59zr5,3r6byfzzpbpve01e59t2931x9umxfi,XHbxVDBq,2020-0188,2021-10-31,12:12:09,13:27:38,NA,incomplete,false,true,NA,NA,4,18,NA,white,m_l_027.jpg,NA,NA,NA,NA,NA,unpleasant,pleasant,NA,NA,NA,NA,NA,right,1404.60000002384,true,NA,NA,NA,NA,NA,NA,NA,NA
XHbxVDBq,375vsr8fwzmfz1886kcfytzzg59zr5,3r6byfzzpbpve01e59t2931x9umxfi,XHbxVDBq,2020-0188,2021-10-31,12:12:09,13:27:38,NA,incomplete,false,true,NA,NA,4,19,NA,white,n_s_013.jpg,NA,NA,NA,NA,NA,pleasant,unpleasant,NA,NA,NA,NA,NA,left,2137.79999995232,true,NA,NA,NA,NA,NA,NA,NA,NA
XHbxVDBq,375vsr8fwzmfz1886kcfytzzg59zr5,3r6byfzzpbpve01e59t2931x9umxfi,XHbxVDBq,2020-0188,2021-10-31,12:12:09,13:27:38,NA,incomplete,false,true,NA,NA,4,20,NA,white,n_s_032.jpg,NA,NA,NA,NA,NA,unpleasant,pleasant,NA,NA,NA,NA,NA,right,2078.80000007153,true,NA,NA,NA,NA,NA,NA,NA,NA
XHbxVDBq,375vsr8fwzmfz1886kcfytzzg59zr5,3r6byfzzpbpve01e59t2931x9umxfi,XHbxVDBq,2020-0188,2021-10-31,12:12:09,13:27:38,NA,incomplete,false,true,NA,NA,4,21,NA,white,m_l_065.jpg,NA,NA,NA,NA,NA,pleasant,unpleasant,NA,NA,NA,NA,NA,none,0,false,NA,NA,NA,NA,NA,NA,NA,NA
XHbxVDBq,375vsr8fwzmfz1886kcfytzzg59zr5,3r6byfzzpbpve01e59t2931x9umxfi,XHbxVDBq,2020-0188,2021-10-31,12:12:09,13:27:38,NA,incomplete,false,true,NA,NA,4,22,NA,white,m_s_030.jpg,NA,NA,NA,NA,NA,pleasant,unpleasant,NA,NA,NA,NA,NA,left,2938.10000002384,true,NA,NA,NA,NA,NA,NA,NA,NA
XHbxVDBq,375vsr8fwzmfz1886kcfytzzg59zr5,3r6byfzzpbpve01e59t2931x9umxfi,XHbxVDBq,2020-0188,2021-10-31,12:12:09,13:27:38,NA,incomplete,false,true,NA,NA,4,23,NA,white,n_l_095.jpg,NA,NA,NA,NA,NA,unpleasant,pleasant,NA,NA,NA,NA,NA,none,0,false,NA,NA,NA,NA,NA,NA,NA,NA
XHbxVDBq,375vsr8fwzmfz1886kcfytzzg59zr5,3r6byfzzpbpve01e59t2931x9umxfi,XHbxVDBq,2020-0188,2021-10-31,12:12:09,13:27:38,NA,incomplete,false,true,NA,NA,4,24,NA,green,n_s_083.jpg,NA,NA,NA,NA,NA,unpleasant,pleasant,NA,NA,NA,NA,NA,none,0,false,NA,NA,NA,NA,NA,NA,NA,NA
XHbxVDBq,375vsr8fwzmfz1886kcfytzzg59zr5,3r6byfzzpbpve01e59t2931x9umxfi,XHbxVDBq,2020-0188,2021-10-31,12:12:09,13:27:38,NA,incomplete,false,true,NA,NA,4,25,NA,green,m_l_090.jpg,NA,NA,NA,NA,NA,pleasant,unpleasant,NA,NA,NA,NA,NA,none,0,false,NA,NA,NA,NA,NA,NA,NA,NA
XHbxVDBq,375vsr8fwzmfz1886kcfytzzg59zr5,3r6byfzzpbpve01e59t2931x9umxfi,XHbxVDBq,2020-0188,2021-10-31,12:12:09,13:27:38,NA,incomplete,false,true,NA,NA,4,26,NA,green,m_s_076.jpg,NA,NA,NA,NA,NA,pleasant,unpleasant,NA,NA,NA,NA,NA,left,1977.89999997616,true,NA,NA,NA,NA,NA,NA,NA,NA
XHbxVDBq,375vsr8fwzmfz1886kcfytzzg59zr5,3r6byfzzpbpve01e59t2931x9umxfi,XHbxVDBq,2020-0188,2021-10-31,12:12:09,13:27:38,NA,incomplete,false,true,NA,NA,4,27,NA,green,n_l_021.jpg,NA,NA,NA,NA,NA,pleasant,unpleasant,NA,NA,NA,NA,NA,left,1155.5,true,NA,NA,NA,NA,NA,NA,NA,NA
XHbxVDBq,375vsr8fwzmfz1886kcfytzzg59zr5,3r6byfzzpbpve01e59t2931x9umxfi,XHbxVDBq,2020-0188,2021-10-31,12:12:09,13:27:38,NA,incomplete,false,true,NA,NA,4,28,NA,green,n_s_050.jpg,NA,NA,NA,NA,NA,unpleasant,pleasant,NA,NA,NA,NA,NA,right,1602.80000007153,true,NA,NA,NA,NA,NA,NA,NA,NA
XHbxVDBq,375vsr8fwzmfz1886kcfytzzg59zr5,3r6byfzzpbpve01e59t2931x9umxfi,XHbxVDBq,2020-0188,2021-10-31,12:12:09,13:27:38,NA,incomplete,false,true,NA,NA,4,29,NA,green,m_l_063.jpg,NA,NA,NA,NA,NA,pleasant,unpleasant,NA,NA,NA,NA,NA,left,1572.60000002384,true,NA,NA,NA,NA,NA,NA,NA,NA
XHbxVDBq,375vsr8fwzmfz1886kcfytzzg59zr5,3r6byfzzpbpve01e59t2931x9umxfi,XHbxVDBq,2020-0188,2021-10-31,12:12:09,13:27:38,NA,incomplete,false,true,NA,NA,4,30,NA,yellow,m_s_094.jpg,NA,NA,NA,NA,NA,unpleasant,pleasant,NA,NA,NA,NA,NA,right,1669.30000007153,true,NA,NA,NA,NA,NA,NA,NA,NA
XHbxVDBq,375vsr8fwzmfz1886kcfytzzg59zr5,3r6byfzzpbpve01e59t2931x9umxfi,XHbxVDBq,2020-0188,2021-10-31,12:12:09,13:27:38,NA,incomplete,false,true,NA,NA,4,31,NA,yellow,m_l_097.jpg,NA,NA,NA,NA,NA,pleasant,unpleasant,NA,NA,NA,NA,NA,left,1400.20000004768,true,NA,NA,NA,NA,NA,NA,NA,NA
XHbxVDBq,375vsr8fwzmfz1886kcfytzzg59zr5,3r6byfzzpbpve01e59t2931x9umxfi,XHbxVDBq,2020-0188,2021-10-31,12:12:09,13:27:38,NA,incomplete,false,true,NA,NA,4,32,NA,yellow,m_s_117.jpg,NA,NA,NA,NA,NA,unpleasant,pleasant,NA,NA,NA,NA,NA,right,2623.5,true,NA,NA,NA,NA,NA,NA,NA,NA
XHbxVDBq,375vsr8fwzmfz1886kcfytzzg59zr5,3r6byfzzpbpve01e59t2931x9umxfi,XHbxVDBq,2020-0188,2021-10-31,12:12:09,13:27:38,NA,incomplete,false,true,NA,NA,4,33,NA,yellow,m_l_036.jpg,NA,NA,NA,NA,NA,pleasant,unpleasant,NA,NA,NA,NA,NA,left,2050,true,NA,NA,NA,NA,NA,NA,NA,NA
XHbxVDBq,375vsr8fwzmfz1886kcfytzzg59zr5,3r6byfzzpbpve01e59t2931x9umxfi,XHbxVDBq,2020-0188,2021-10-31,12:12:09,13:27:38,NA,incomplete,false,true,NA,NA,4,34,NA,yellow,m_s_024.jpg,NA,NA,NA,NA,NA,pleasant,unpleasant,NA,NA,NA,NA,NA,left,1116.09999990463,true,NA,NA,NA,NA,NA,NA,NA,NA
XHbxVDBq,375vsr8fwzmfz1886kcfytzzg59zr5,3r6byfzzpbpve01e59t2931x9umxfi,XHbxVDBq,2020-0188,2021-10-31,12:12:09,13:27:38,NA,incomplete,false,true,NA,NA,4,35,NA,yellow,n_l_046.jpg,NA,NA,NA,NA,NA,pleasant,unpleasant,NA,NA,NA,NA,NA,left,1222.40000009537,true,NA,NA,NA,NA,NA,NA,NA,NA
XHbxVDBq,375vsr8fwzmfz1886kcfytzzg59zr5,3r6byfzzpbpve01e59t2931x9umxfi,XHbxVDBq,2020-0188,2021-10-31,12:12:09,13:27:38,NA,incomplete,false,NA,NA,true,4,0,NA,NA,NA,left,m_s_082.jpg,gray,brown,NA,NA,NA,NA,NA,NA,NA,NA,NA,NaN,NA,2348.2999999523163,right,0,NA,NA,NA,NA,NA
XHbxVDBq,375vsr8fwzmfz1886kcfytzzg59zr5,3r6byfzzpbpve01e59t2931x9umxfi,XHbxVDBq,2020-0188,2021-10-31,12:12:09,13:27:38,NA,incomplete,false,NA,NA,true,4,1,NA,NA,NA,right,m_l_090.jpg,yellow,green,NA,NA,NA,NA,NA,NA,NA,NA,NA,NaN,NA,1276.2000000476837,right,1,NA,NA,NA,NA,NA
XHbxVDBq,375vsr8fwzmfz1886kcfytzzg59zr5,3r6byfzzpbpve01e59t2931x9umxfi,XHbxVDBq,2020-0188,2021-10-31,12:12:09,13:27:38,NA,incomplete,false,NA,NA,true,4,2,NA,NA,NA,right,n_s_037.jpg,black,brown,NA,NA,NA,NA,NA,NA,NA,NA,NA,NaN,NA,994.1000000238419,right,1,NA,NA,NA,NA,NA
XHbxVDBq,375vsr8fwzmfz1886kcfytzzg59zr5,3r6byfzzpbpve01e59t2931x9umxfi,XHbxVDBq,2020-0188,2021-10-31,12:12:09,13:27:38,NA,incomplete,false,NA,NA,true,4,3,NA,NA,NA,left,n_s_050.jpg,green,white,NA,NA,NA,NA,NA,NA,NA,NA,NA,NaN,NA,5452.899999976158,right,0,NA,NA,NA,NA,NA
XHbxVDBq,375vsr8fwzmfz1886kcfytzzg59zr5,3r6byfzzpbpve01e59t2931x9umxfi,XHbxVDBq,2020-0188,2021-10-31,12:12:09,13:27:38,NA,incomplete,false,NA,NA,true,4,4,NA,NA,NA,right,m_l_112.jpg,brown,black,NA,NA,NA,NA,NA,NA,NA,NA,NA,NaN,NA,1576.2999999523163,right,1,NA,NA,NA,NA,NA
XHbxVDBq,375vsr8fwzmfz1886kcfytzzg59zr5,3r6byfzzpbpve01e59t2931x9umxfi,XHbxVDBq,2020-0188,2021-10-31,12:12:09,13:27:38,NA,incomplete,false,NA,NA,true,4,5,NA,NA,NA,right,m_s_014.jpg,brown,gray,NA,NA,NA,NA,NA,NA,NA,NA,NA,NaN,NA,4566,right,1,NA,NA,NA,NA,NA
XHbxVDBq,375vsr8fwzmfz1886kcfytzzg59zr5,3r6byfzzpbpve01e59t2931x9umxfi,XHbxVDBq,2020-0188,2021-10-31,12:12:09,13:27:38,NA,incomplete,false,NA,NA,true,4,6,NA,NA,NA,right,m_s_076.jpg,white,green,NA,NA,NA,NA,NA,NA,NA,NA,NA,NaN,NA,1926,right,1,NA,NA,NA,NA,NA
XHbxVDBq,375vsr8fwzmfz1886kcfytzzg59zr5,3r6byfzzpbpve01e59t2931x9umxfi,XHbxVDBq,2020-0188,2021-10-31,12:12:09,13:27:38,NA,incomplete,false,NA,NA,true,4,7,NA,NA,NA,right,m_s_030.jpg,green,white,NA,NA,NA,NA,NA,NA,NA,NA,NA,NaN,NA,2075,right,1,NA,NA,NA,NA,NA
XHbxVDBq,375vsr8fwzmfz1886kcfytzzg59zr5,3r6byfzzpbpve01e59t2931x9umxfi,XHbxVDBq,2020-0188,2021-10-31,12:12:09,13:27:38,NA,incomplete,false,NA,NA,true,4,8,NA,NA,NA,right,n_s_013.jpg,black,white,NA,NA,NA,NA,NA,NA,NA,NA,NA,NaN,NA,2755.0999999046326,right,1,NA,NA,NA,NA,NA
XHbxVDBq,375vsr8fwzmfz1886kcfytzzg59zr5,3r6byfzzpbpve01e59t2931x9umxfi,XHbxVDBq,2020-0188,2021-10-31,12:12:09,13:27:38,NA,incomplete,false,NA,NA,true,4,9,NA,NA,NA,right,m_s_085.jpg,brown,gray,NA,NA,NA,NA,NA,NA,NA,NA,NA,NaN,NA,1625.1000000238419,right,1,NA,NA,NA,NA,NA
XHbxVDBq,375vsr8fwzmfz1886kcfytzzg59zr5,3r6byfzzpbpve01e59t2931x9umxfi,XHbxVDBq,2020-0188,2021-10-31,12:12:09,13:27:38,NA,incomplete,false,NA,NA,true,4,10,NA,NA,NA,left,m_l_097.jpg,yellow,green,NA,NA,NA,NA,NA,NA,NA,NA,NA,NaN,NA,1320.5,right,0,NA,NA,NA,NA,NA
XHbxVDBq,375vsr8fwzmfz1886kcfytzzg59zr5,3r6byfzzpbpve01e59t2931x9umxfi,XHbxVDBq,2020-0188,2021-10-31,12:12:09,13:27:38,NA,incomplete,false,NA,NA,true,4,11,NA,NA,NA,right,m_l_063.jpg,yellow,green,NA,NA,NA,NA,NA,NA,NA,NA,NA,NaN,NA,1369,right,1,NA,NA,NA,NA,NA
XHbxVDBq,375vsr8fwzmfz1886kcfytzzg59zr5,3r6byfzzpbpve01e59t2931x9umxfi,XHbxVDBq,2020-0188,2021-10-31,12:12:09,13:27:38,NA,incomplete,false,NA,NA,true,4,12,NA,NA,NA,right,m_s_117.jpg,green,yellow,NA,NA,NA,NA,NA,NA,NA,NA,NA,NaN,NA,1228.5,right,1,NA,NA,NA,NA,NA
XHbxVDBq,375vsr8fwzmfz1886kcfytzzg59zr5,3r6byfzzpbpve01e59t2931x9umxfi,XHbxVDBq,2020-0188,2021-10-31,12:12:09,13:27:38,NA,incomplete,false,NA,NA,true,4,13,NA,NA,NA,right,n_s_010.jpg,gray,brown,NA,NA,NA,NA,NA,NA,NA,NA,NA,NaN,NA,3189,right,1,NA,NA,NA,NA,NA
XHbxVDBq,375vsr8fwzmfz1886kcfytzzg59zr5,3r6byfzzpbpve01e59t2931x9umxfi,XHbxVDBq,2020-0188,2021-10-31,12:12:09,13:27:38,NA,incomplete,false,NA,NA,true,4,14,NA,NA,NA,left,m_s_061.jpg,black,white,NA,NA,NA,NA,NA,NA,NA,NA,NA,NaN,NA,1535.2999999523163,right,0,NA,NA,NA,NA,NA
XHbxVDBq,375vsr8fwzmfz1886kcfytzzg59zr5,3r6byfzzpbpve01e59t2931x9umxfi,XHbxVDBq,2020-0188,2021-10-31,12:12:09,13:27:38,NA,incomplete,false,NA,NA,true,4,15,NA,NA,NA,left,n_s_032.jpg,white,green,NA,NA,NA,NA,NA,NA,NA,NA,NA,NaN,NA,3496.600000023842,right,0,NA,NA,NA,NA,NA
XHbxVDBq,375vsr8fwzmfz1886kcfytzzg59zr5,3r6byfzzpbpve01e59t2931x9umxfi,XHbxVDBq,2020-0188,2021-10-31,12:12:09,13:27:38,NA,incomplete,false,NA,NA,true,4,16,NA,NA,NA,right,m_l_059.jpg,brown,black,NA,NA,NA,NA,NA,NA,NA,NA,NA,NaN,NA,1691.3999999761581,right,1,NA,NA,NA,NA,NA
XHbxVDBq,375vsr8fwzmfz1886kcfytzzg59zr5,3r6byfzzpbpve01e59t2931x9umxfi,XHbxVDBq,2020-0188,2021-10-31,12:12:09,13:27:38,NA,incomplete,false,NA,NA,true,4,17,NA,NA,NA,left,n_l_030.jpg,brown,black,NA,NA,NA,NA,NA,NA,NA,NA,NA,NaN,NA,3145.2000000476837,right,0,NA,NA,NA,NA,NA
XHbxVDBq,375vsr8fwzmfz1886kcfytzzg59zr5,3r6byfzzpbpve01e59t2931x9umxfi,XHbxVDBq,2020-0188,2021-10-31,12:12:09,13:27:38,NA,incomplete,false,NA,NA,true,4,18,NA,NA,NA,left,m_l_068.jpg,brown,gray,NA,NA,NA,NA,NA,NA,NA,NA,NA,NaN,NA,5289,right,0,NA,NA,NA,NA,NA
XHbxVDBq,375vsr8fwzmfz1886kcfytzzg59zr5,3r6byfzzpbpve01e59t2931x9umxfi,XHbxVDBq,2020-0188,2021-10-31,12:12:09,13:27:38,NA,incomplete,false,NA,NA,true,4,19,NA,NA,NA,right,m_l_056.jpg,white,black,NA,NA,NA,NA,NA,NA,NA,NA,NA,NaN,NA,1835.8999999761581,right,1,NA,NA,NA,NA,NA
XHbxVDBq,375vsr8fwzmfz1886kcfytzzg59zr5,3r6byfzzpbpve01e59t2931x9umxfi,XHbxVDBq,2020-0188,2021-10-31,12:12:09,13:27:38,NA,incomplete,false,NA,NA,true,4,20,NA,NA,NA,left,n_l_095.jpg,white,black,NA,NA,NA,NA,NA,NA,NA,NA,NA,NaN,NA,13931.399999976158,right,0,NA,NA,NA,NA,NA
XHbxVDBq,375vsr8fwzmfz1886kcfytzzg59zr5,3r6byfzzpbpve01e59t2931x9umxfi,XHbxVDBq,2020-0188,2021-10-31,12:12:09,13:27:38,NA,incomplete,false,NA,NA,true,4,21,NA,NA,NA,right,n_l_046.jpg,green,yellow,NA,NA,NA,NA,NA,NA,NA,NA,NA,NaN,NA,15238.5,right,1,NA,NA,NA,NA,NA
XHbxVDBq,375vsr8fwzmfz1886kcfytzzg59zr5,3r6byfzzpbpve01e59t2931x9umxfi,XHbxVDBq,2020-0188,2021-10-31,12:12:09,13:27:38,NA,incomplete,false,NA,true,NA,4,0,NA,NA,NA,left,NA,NA,NA,absent,NA,NA,m_l_068.jpg,brown,n_s_037.jpg,brown,within,NA,NaN,NA,NA,NA,NA,right,1688.1999999284744,0,3,1497.1000000238419
XHbxVDBq,375vsr8fwzmfz1886kcfytzzg59zr5,3r6byfzzpbpve01e59t2931x9umxfi,XHbxVDBq,2020-0188,2021-10-31,12:12:09,13:27:38,NA,incomplete,false,NA,true,NA,4,1,NA,NA,NA,left,NA,NA,NA,absent,NA,NA,n_s_013.jpg,white,n_l_095.jpg,white,within,NA,NaN,NA,NA,NA,NA,right,1467.7000000476837,0,3,1760.6000000238419
XHbxVDBq,375vsr8fwzmfz1886kcfytzzg59zr5,3r6byfzzpbpve01e59t2931x9umxfi,XHbxVDBq,2020-0188,2021-10-31,12:12:09,13:27:38,NA,incomplete,false,NA,true,NA,4,2,NA,NA,NA,left,NA,NA,NA,absent,NA,NA,m_s_082.jpg,gray,n_l_030.jpg,brown,between,NA,NaN,NA,NA,NA,NA,right,3169.6999999284744,0,3,1684.5999999046326
XHbxVDBq,375vsr8fwzmfz1886kcfytzzg59zr5,3r6byfzzpbpve01e59t2931x9umxfi,XHbxVDBq,2020-0188,2021-10-31,12:12:09,13:27:38,NA,incomplete,false,NA,true,NA,4,3,NA,NA,NA,left,NA,NA,NA,absent,NA,NA,n_s_050.jpg,green,m_s_117.jpg,yellow,between,NA,NaN,NA,NA,NA,NA,right,1249.1000000238419,0,3,1753.8999999761581
XHbxVDBq,375vsr8fwzmfz1886kcfytzzg59zr5,3r6byfzzpbpve01e59t2931x9umxfi,XHbxVDBq,2020-0188,2021-10-31,12:12:09,13:27:38,NA,incomplete,false,NA,true,NA,4,4,NA,NA,NA,right,NA,NA,NA,absent,NA,NA,n_s_032.jpg,white,m_l_112.jpg,black,between,NA,NaN,NA,NA,NA,NA,right,1807.8999999761581,1,3,1808.6000000238419
XHbxVDBq,375vsr8fwzmfz1886kcfytzzg59zr5,3r6byfzzpbpve01e59t2931x9umxfi,XHbxVDBq,2020-0188,2021-10-31,12:12:09,13:27:38,NA,incomplete,false,NA,true,NA,4,5,NA,NA,NA,left,NA,NA,NA,absent,NA,NA,m_l_056.jpg,black,m_s_061.jpg,black,within,NA,NaN,NA,NA,NA,NA,right,1519.7999999523163,0,3,1850.7000000476837
XHbxVDBq,375vsr8fwzmfz1886kcfytzzg59zr5,3r6byfzzpbpve01e59t2931x9umxfi,XHbxVDBq,2020-0188,2021-10-31,12:12:09,13:27:38,NA,incomplete,false,NA,true,NA,4,6,NA,NA,NA,right,NA,NA,NA,absent,NA,NA,m_l_059.jpg,black,n_s_010.jpg,brown,between,NA,NaN,NA,NA,NA,NA,right,1615,1,3,2103.7000000476837
XHbxVDBq,375vsr8fwzmfz1886kcfytzzg59zr5,3r6byfzzpbpve01e59t2931x9umxfi,XHbxVDBq,2020-0188,2021-10-31,12:12:09,13:27:38,NA,incomplete,false,NA,true,NA,4,7,NA,NA,NA,right,NA,NA,NA,absent,NA,NA,n_l_046.jpg,yellow,m_l_097.jpg,yellow,within,NA,NaN,NA,NA,NA,NA,right,3106.899999976158,1,3,1811.2999999523163
XHbxVDBq,375vsr8fwzmfz1886kcfytzzg59zr5,3r6byfzzpbpve01e59t2931x9umxfi,XHbxVDBq,2020-0188,2021-10-31,12:12:09,13:27:38,NA,incomplete,false,NA,true,NA,4,8,NA,NA,NA,right,NA,NA,NA,absent,NA,NA,m_l_063.jpg,green,m_l_090.jpg,green,within,NA,NaN,NA,NA,NA,NA,right,1664.7000000476837,1,3,2719.3000000715256
XHbxVDBq,375vsr8fwzmfz1886kcfytzzg59zr5,3r6byfzzpbpve01e59t2931x9umxfi,XHbxVDBq,2020-0188,2021-10-31,12:12:09,13:27:38,NA,incomplete,false,NA,true,NA,4,9,NA,NA,NA,left,NA,NA,NA,absent,NA,NA,m_s_085.jpg,gray,m_s_014.jpg,gray,within,NA,NaN,NA,NA,NA,NA,right,1418.5,0,3,1966.8999999761581
XHbxVDBq,375vsr8fwzmfz1886kcfytzzg59zr5,3r6byfzzpbpve01e59t2931x9umxfi,XHbxVDBq,2020-0188,2021-10-31,12:12:09,13:27:38,NA,incomplete,false,NA,true,NA,4,10,NA,NA,NA,left,NA,NA,NA,absent,NA,NA,m_s_030.jpg,white,m_s_076.jpg,green,between,NA,NaN,NA,NA,NA,NA,right,1493.7999999523163,0,3,1648.6999999284744
XHbxVDBq,375vsr8fwzmfz1886kcfytzzg59zr5,3r6byfzzpbpve01e59t2931x9umxfi,XHbxVDBq,2020-0188,2021-10-31,12:12:09,13:27:38,NA,incomplete,false,true,NA,NA,5,0,NA,green,n_l_006.jpg,NA,NA,NA,NA,NA,pleasant,unpleasant,NA,NA,NA,NA,NA,left,3124.70000004768,true,NA,NA,NA,NA,NA,NA,NA,NA
XHbxVDBq,375vsr8fwzmfz1886kcfytzzg59zr5,3r6byfzzpbpve01e59t2931x9umxfi,XHbxVDBq,2020-0188,2021-10-31,12:12:09,13:27:38,NA,incomplete,false,true,NA,NA,5,1,NA,green,n_l_066.jpg,NA,NA,NA,NA,NA,unpleasant,pleasant,NA,NA,NA,NA,NA,none,0,false,NA,NA,NA,NA,NA,NA,NA,NA
XHbxVDBq,375vsr8fwzmfz1886kcfytzzg59zr5,3r6byfzzpbpve01e59t2931x9umxfi,XHbxVDBq,2020-0188,2021-10-31,12:12:09,13:27:38,NA,incomplete,false,true,NA,NA,5,2,NA,green,m_l_002.jpg,NA,NA,NA,NA,NA,pleasant,unpleasant,NA,NA,NA,NA,NA,left,2903,true,NA,NA,NA,NA,NA,NA,NA,NA
XHbxVDBq,375vsr8fwzmfz1886kcfytzzg59zr5,3r6byfzzpbpve01e59t2931x9umxfi,XHbxVDBq,2020-0188,2021-10-31,12:12:09,13:27:38,NA,incomplete,false,true,NA,NA,5,3,NA,green,n_l_098.jpg,NA,NA,NA,NA,NA,unpleasant,pleasant,NA,NA,NA,NA,NA,right,2908.29999995232,true,NA,NA,NA,NA,NA,NA,NA,NA
XHbxVDBq,375vsr8fwzmfz1886kcfytzzg59zr5,3r6byfzzpbpve01e59t2931x9umxfi,XHbxVDBq,2020-0188,2021-10-31,12:12:09,13:27:38,NA,incomplete,false,true,NA,NA,5,4,NA,green,n_s_014.jpg,NA,NA,NA,NA,NA,unpleasant,pleasant,NA,NA,NA,NA,NA,right,1903.29999995232,true,NA,NA,NA,NA,NA,NA,NA,NA
XHbxVDBq,375vsr8fwzmfz1886kcfytzzg59zr5,3r6byfzzpbpve01e59t2931x9umxfi,XHbxVDBq,2020-0188,2021-10-31,12:12:09,13:27:38,NA,incomplete,false,true,NA,NA,5,5,NA,green,n_s_093.jpg,NA,NA,NA,NA,NA,unpleasant,pleasant,NA,NA,NA,NA,NA,right,1070.69999992847,true,NA,NA,NA,NA,NA,NA,NA,NA
XHbxVDBq,375vsr8fwzmfz1886kcfytzzg59zr5,3r6byfzzpbpve01e59t2931x9umxfi,XHbxVDBq,2020-0188,2021-10-31,12:12:09,13:27:38,NA,incomplete,false,true,NA,NA,5,6,NA,black,m_s_083.jpg,NA,NA,NA,NA,NA,unpleasant,pleasant,NA,NA,NA,NA,NA,right,1344.09999990463,true,NA,NA,NA,NA,NA,NA,NA,NA
XHbxVDBq,375vsr8fwzmfz1886kcfytzzg59zr5,3r6byfzzpbpve01e59t2931x9umxfi,XHbxVDBq,2020-0188,2021-10-31,12:12:09,13:27:38,NA,incomplete,false,true,NA,NA,5,7,NA,black,n_l_034.jpg,NA,NA,NA,NA,NA,pleasant,unpleasant,NA,NA,NA,NA,NA,left,1685.30000007153,true,NA,NA,NA,NA,NA,NA,NA,NA
XHbxVDBq,375vsr8fwzmfz1886kcfytzzg59zr5,3r6byfzzpbpve01e59t2931x9umxfi,XHbxVDBq,2020-0188,2021-10-31,12:12:09,13:27:38,NA,incomplete,false,true,NA,NA,5,8,NA,black,n_l_080.jpg,NA,NA,NA,NA,NA,unpleasant,pleasant,NA,NA,NA,NA,NA,right,2304.70000004768,true,NA,NA,NA,NA,NA,NA,NA,NA
XHbxVDBq,375vsr8fwzmfz1886kcfytzzg59zr5,3r6byfzzpbpve01e59t2931x9umxfi,XHbxVDBq,2020-0188,2021-10-31,12:12:09,13:27:38,NA,incomplete,false,true,NA,NA,5,9,NA,black,m_s_093.jpg,NA,NA,NA,NA,NA,pleasant,unpleasant,NA,NA,NA,NA,NA,left,2756.70000004768,true,NA,NA,NA,NA,NA,NA,NA,NA
XHbxVDBq,375vsr8fwzmfz1886kcfytzzg59zr5,3r6byfzzpbpve01e59t2931x9umxfi,XHbxVDBq,2020-0188,2021-10-31,12:12:09,13:27:38,NA,incomplete,false,true,NA,NA,5,10,NA,black,n_l_019.jpg,NA,NA,NA,NA,NA,unpleasant,pleasant,NA,NA,NA,NA,NA,right,2130.10000002384,true,NA,NA,NA,NA,NA,NA,NA,NA
XHbxVDBq,375vsr8fwzmfz1886kcfytzzg59zr5,3r6byfzzpbpve01e59t2931x9umxfi,XHbxVDBq,2020-0188,2021-10-31,12:12:09,13:27:38,NA,incomplete,false,true,NA,NA,5,11,NA,black,n_l_014.jpg,NA,NA,NA,NA,NA,pleasant,unpleasant,NA,NA,NA,NA,NA,left,2121,true,NA,NA,NA,NA,NA,NA,NA,NA
XHbxVDBq,375vsr8fwzmfz1886kcfytzzg59zr5,3r6byfzzpbpve01e59t2931x9umxfi,XHbxVDBq,2020-0188,2021-10-31,12:12:09,13:27:38,NA,incomplete,false,true,NA,NA,5,12,NA,white,n_s_072.jpg,NA,NA,NA,NA,NA,pleasant,unpleasant,NA,NA,NA,NA,NA,left,1684.29999995232,true,NA,NA,NA,NA,NA,NA,NA,NA
XHbxVDBq,375vsr8fwzmfz1886kcfytzzg59zr5,3r6byfzzpbpve01e59t2931x9umxfi,XHbxVDBq,2020-0188,2021-10-31,12:12:09,13:27:38,NA,incomplete,false,true,NA,NA,5,13,NA,white,m_l_012.jpg,NA,NA,NA,NA,NA,unpleasant,pleasant,NA,NA,NA,NA,NA,right,1877.39999997616,true,NA,NA,NA,NA,NA,NA,NA,NA
XHbxVDBq,375vsr8fwzmfz1886kcfytzzg59zr5,3r6byfzzpbpve01e59t2931x9umxfi,XHbxVDBq,2020-0188,2021-10-31,12:12:09,13:27:38,NA,incomplete,false,true,NA,NA,5,14,NA,white,m_l_058.jpg,NA,NA,NA,NA,NA,unpleasant,pleasant,NA,NA,NA,NA,NA,right,1580.10000002384,true,NA,NA,NA,NA,NA,NA,NA,NA
XHbxVDBq,375vsr8fwzmfz1886kcfytzzg59zr5,3r6byfzzpbpve01e59t2931x9umxfi,XHbxVDBq,2020-0188,2021-10-31,12:12:09,13:27:38,NA,incomplete,false,true,NA,NA,5,15,NA,white,n_s_064.jpg,NA,NA,NA,NA,NA,unpleasant,pleasant,NA,NA,NA,NA,NA,right,2262.40000009537,true,NA,NA,NA,NA,NA,NA,NA,NA
XHbxVDBq,375vsr8fwzmfz1886kcfytzzg59zr5,3r6byfzzpbpve01e59t2931x9umxfi,XHbxVDBq,2020-0188,2021-10-31,12:12:09,13:27:38,NA,incomplete,false,true,NA,NA,5,16,NA,white,n_l_015.jpg,NA,NA,NA,NA,NA,unpleasant,pleasant,NA,NA,NA,NA,NA,right,1332.40000009537,true,NA,NA,NA,NA,NA,NA,NA,NA
XHbxVDBq,375vsr8fwzmfz1886kcfytzzg59zr5,3r6byfzzpbpve01e59t2931x9umxfi,XHbxVDBq,2020-0188,2021-10-31,12:12:09,13:27:38,NA,incomplete,false,true,NA,NA,5,17,NA,white,m_s_106.jpg,NA,NA,NA,NA,NA,unpleasant,pleasant,NA,NA,NA,NA,NA,right,983.300000071526,true,NA,NA,NA,NA,NA,NA,NA,NA
