workerId,hitId,assignmentId,subject,studyid,exp_date,exp_start,exp_end,time_start,time_end,practice,encoding,memory,association,block,trial,event_order,event,stim,answer,object,left_context,right_context,context_type,label_left,label_right,left_image,left_event,right_image,right_event,condition,response,response_time,response_acc,association_response_time,association_response,association_acc,order_response,order_response_time,order_acc,distance_response,distance_response_time
25KKvSf1,3087lxlj7ptluqx9bvztb5iuvan0fr,3ranct1zvjudkfv3v2wj66b80dyubo,25KKvSf1,2020-0188,2021-10-30,23:18:00,01:23:28,NA,incomplete,true,true,NA,NA,0,0,NA,yellow,n_l_066.jpg,NA,NA,NA,NA,NA,pleasant,unpleasant,NA,NA,NA,NA,NA,none,0,false,NA,NA,NA,NA,NA,NA,NA,NA
25KKvSf1,3087lxlj7ptluqx9bvztb5iuvan0fr,3ranct1zvjudkfv3v2wj66b80dyubo,25KKvSf1,2020-0188,2021-10-30,23:18:00,01:23:28,NA,incomplete,true,true,NA,NA,0,1,NA,yellow,n_s_056.jpg,NA,NA,NA,NA,NA,pleasant,unpleasant,NA,NA,NA,NA,NA,left,1538.29999999981,true,NA,NA,NA,NA,NA,NA,NA,NA
25KKvSf1,3087lxlj7ptluqx9bvztb5iuvan0fr,3ranct1zvjudkfv3v2wj66b80dyubo,25KKvSf1,2020-0188,2021-10-30,23:18:00,01:23:28,NA,incomplete,true,true,NA,NA,0,2,NA,yellow,n_s_067.jpg,NA,NA,NA,NA,NA,pleasant,unpleasant,NA,NA,NA,NA,NA,left,1695.29999999981,true,NA,NA,NA,NA,NA,NA,NA,NA
25KKvSf1,3087lxlj7ptluqx9bvztb5iuvan0fr,3ranct1zvjudkfv3v2wj66b80dyubo,25KKvSf1,2020-0188,2021-10-30,23:18:00,01:23:28,NA,incomplete,true,true,NA,NA,0,3,NA,yellow,n_l_108.jpg,NA,NA,NA,NA,NA,pleasant,unpleasant,NA,NA,NA,NA,NA,right,1142.40000000037,true,NA,NA,NA,NA,NA,NA,NA,NA
25KKvSf1,3087lxlj7ptluqx9bvztb5iuvan0fr,3ranct1zvjudkfv3v2wj66b80dyubo,25KKvSf1,2020-0188,2021-10-30,23:18:00,01:23:28,NA,incomplete,true,true,NA,NA,0,4,NA,yellow,m_s_070.jpg,NA,NA,NA,NA,NA,unpleasant,pleasant,NA,NA,NA,NA,NA,right,808.5,true,NA,NA,NA,NA,NA,NA,NA,NA
25KKvSf1,3087lxlj7ptluqx9bvztb5iuvan0fr,3ranct1zvjudkfv3v2wj66b80dyubo,25KKvSf1,2020-0188,2021-10-30,23:18:00,01:23:28,NA,incomplete,true,true,NA,NA,0,5,NA,yellow,m_s_059.jpg,NA,NA,NA,NA,NA,pleasant,unpleasant,NA,NA,NA,NA,NA,left,1317.20000000019,true,NA,NA,NA,NA,NA,NA,NA,NA
25KKvSf1,3087lxlj7ptluqx9bvztb5iuvan0fr,3ranct1zvjudkfv3v2wj66b80dyubo,25KKvSf1,2020-0188,2021-10-30,23:18:00,01:23:28,NA,incomplete,true,true,NA,NA,0,6,NA,blue,m_s_043.jpg,NA,NA,NA,NA,NA,unpleasant,pleasant,NA,NA,NA,NA,NA,right,2561.09999999963,true,NA,NA,NA,NA,NA,NA,NA,NA
25KKvSf1,3087lxlj7ptluqx9bvztb5iuvan0fr,3ranct1zvjudkfv3v2wj66b80dyubo,25KKvSf1,2020-0188,2021-10-30,23:18:00,01:23:28,NA,incomplete,true,true,NA,NA,0,7,NA,blue,m_s_084.jpg,NA,NA,NA,NA,NA,unpleasant,pleasant,NA,NA,NA,NA,NA,left,1189.69999999925,true,NA,NA,NA,NA,NA,NA,NA,NA
25KKvSf1,3087lxlj7ptluqx9bvztb5iuvan0fr,3ranct1zvjudkfv3v2wj66b80dyubo,25KKvSf1,2020-0188,2021-10-30,23:18:00,01:23:28,NA,incomplete,true,true,NA,NA,0,8,NA,blue,m_l_113.jpg,NA,NA,NA,NA,NA,pleasant,unpleasant,NA,NA,NA,NA,NA,left,1723.29999999981,true,NA,NA,NA,NA,NA,NA,NA,NA
25KKvSf1,3087lxlj7ptluqx9bvztb5iuvan0fr,3ranct1zvjudkfv3v2wj66b80dyubo,25KKvSf1,2020-0188,2021-10-30,23:18:00,01:23:28,NA,incomplete,true,true,NA,NA,0,9,NA,blue,n_s_083.jpg,NA,NA,NA,NA,NA,pleasant,unpleasant,NA,NA,NA,NA,NA,right,910.200000000186,true,NA,NA,NA,NA,NA,NA,NA,NA
25KKvSf1,3087lxlj7ptluqx9bvztb5iuvan0fr,3ranct1zvjudkfv3v2wj66b80dyubo,25KKvSf1,2020-0188,2021-10-30,23:18:00,01:23:28,NA,incomplete,true,true,NA,NA,0,10,NA,blue,m_l_040.jpg,NA,NA,NA,NA,NA,unpleasant,pleasant,NA,NA,NA,NA,NA,left,1850.70000000019,true,NA,NA,NA,NA,NA,NA,NA,NA
25KKvSf1,3087lxlj7ptluqx9bvztb5iuvan0fr,3ranct1zvjudkfv3v2wj66b80dyubo,25KKvSf1,2020-0188,2021-10-30,23:18:00,01:23:28,NA,incomplete,true,true,NA,NA,0,11,NA,blue,n_l_019.jpg,NA,NA,NA,NA,NA,pleasant,unpleasant,NA,NA,NA,NA,NA,right,2592.5,true,NA,NA,NA,NA,NA,NA,NA,NA
25KKvSf1,3087lxlj7ptluqx9bvztb5iuvan0fr,3ranct1zvjudkfv3v2wj66b80dyubo,25KKvSf1,2020-0188,2021-10-30,23:18:00,01:23:28,NA,incomplete,true,true,NA,NA,0,12,NA,black,m_s_097.jpg,NA,NA,NA,NA,NA,unpleasant,pleasant,NA,NA,NA,NA,NA,left,1796.39999999944,true,NA,NA,NA,NA,NA,NA,NA,NA
25KKvSf1,3087lxlj7ptluqx9bvztb5iuvan0fr,3ranct1zvjudkfv3v2wj66b80dyubo,25KKvSf1,2020-0188,2021-10-30,23:18:00,01:23:28,NA,incomplete,true,true,NA,NA,0,13,NA,black,n_l_106.jpg,NA,NA,NA,NA,NA,unpleasant,pleasant,NA,NA,NA,NA,NA,left,1241.09999999963,true,NA,NA,NA,NA,NA,NA,NA,NA
25KKvSf1,3087lxlj7ptluqx9bvztb5iuvan0fr,3ranct1zvjudkfv3v2wj66b80dyubo,25KKvSf1,2020-0188,2021-10-30,23:18:00,01:23:28,NA,incomplete,true,true,NA,NA,0,14,NA,black,m_l_030.jpg,NA,NA,NA,NA,NA,pleasant,unpleasant,NA,NA,NA,NA,NA,left,1293.90000000037,true,NA,NA,NA,NA,NA,NA,NA,NA
25KKvSf1,3087lxlj7ptluqx9bvztb5iuvan0fr,3ranct1zvjudkfv3v2wj66b80dyubo,25KKvSf1,2020-0188,2021-10-30,23:18:00,01:23:28,NA,incomplete,true,true,NA,NA,0,15,NA,black,n_s_065.jpg,NA,NA,NA,NA,NA,unpleasant,pleasant,NA,NA,NA,NA,NA,left,1521.39999999944,true,NA,NA,NA,NA,NA,NA,NA,NA
25KKvSf1,3087lxlj7ptluqx9bvztb5iuvan0fr,3ranct1zvjudkfv3v2wj66b80dyubo,25KKvSf1,2020-0188,2021-10-30,23:18:00,01:23:28,NA,incomplete,true,true,NA,NA,0,16,NA,black,n_s_012.jpg,NA,NA,NA,NA,NA,pleasant,unpleasant,NA,NA,NA,NA,NA,right,1117.39999999944,true,NA,NA,NA,NA,NA,NA,NA,NA
25KKvSf1,3087lxlj7ptluqx9bvztb5iuvan0fr,3ranct1zvjudkfv3v2wj66b80dyubo,25KKvSf1,2020-0188,2021-10-30,23:18:00,01:23:28,NA,incomplete,true,true,NA,NA,0,17,NA,black,n_l_075.jpg,NA,NA,NA,NA,NA,pleasant,unpleasant,NA,NA,NA,NA,NA,right,1434.20000000019,true,NA,NA,NA,NA,NA,NA,NA,NA
25KKvSf1,3087lxlj7ptluqx9bvztb5iuvan0fr,3ranct1zvjudkfv3v2wj66b80dyubo,25KKvSf1,2020-0188,2021-10-30,23:18:00,01:23:28,NA,incomplete,true,true,NA,NA,0,18,NA,gray,n_s_102.jpg,NA,NA,NA,NA,NA,unpleasant,pleasant,NA,NA,NA,NA,NA,left,1637.59999999963,true,NA,NA,NA,NA,NA,NA,NA,NA
25KKvSf1,3087lxlj7ptluqx9bvztb5iuvan0fr,3ranct1zvjudkfv3v2wj66b80dyubo,25KKvSf1,2020-0188,2021-10-30,23:18:00,01:23:28,NA,incomplete,true,true,NA,NA,0,19,NA,gray,n_l_083.jpg,NA,NA,NA,NA,NA,pleasant,unpleasant,NA,NA,NA,NA,NA,right,1162.5,true,NA,NA,NA,NA,NA,NA,NA,NA
25KKvSf1,3087lxlj7ptluqx9bvztb5iuvan0fr,3ranct1zvjudkfv3v2wj66b80dyubo,25KKvSf1,2020-0188,2021-10-30,23:18:00,01:23:28,NA,incomplete,true,true,NA,NA,0,20,NA,gray,m_l_041.jpg,NA,NA,NA,NA,NA,unpleasant,pleasant,NA,NA,NA,NA,NA,left,1360.10000000056,true,NA,NA,NA,NA,NA,NA,NA,NA
25KKvSf1,3087lxlj7ptluqx9bvztb5iuvan0fr,3ranct1zvjudkfv3v2wj66b80dyubo,25KKvSf1,2020-0188,2021-10-30,23:18:00,01:23:28,NA,incomplete,true,true,NA,NA,0,21,NA,gray,n_l_103.jpg,NA,NA,NA,NA,NA,unpleasant,pleasant,NA,NA,NA,NA,NA,left,1075.80000000075,true,NA,NA,NA,NA,NA,NA,NA,NA
25KKvSf1,3087lxlj7ptluqx9bvztb5iuvan0fr,3ranct1zvjudkfv3v2wj66b80dyubo,25KKvSf1,2020-0188,2021-10-30,23:18:00,01:23:28,NA,incomplete,true,true,NA,NA,0,22,NA,gray,n_s_046.jpg,NA,NA,NA,NA,NA,pleasant,unpleasant,NA,NA,NA,NA,NA,right,983.799999999814,true,NA,NA,NA,NA,NA,NA,NA,NA
25KKvSf1,3087lxlj7ptluqx9bvztb5iuvan0fr,3ranct1zvjudkfv3v2wj66b80dyubo,25KKvSf1,2020-0188,2021-10-30,23:18:00,01:23:28,NA,incomplete,true,true,NA,NA,0,23,NA,gray,m_s_010.jpg,NA,NA,NA,NA,NA,pleasant,unpleasant,NA,NA,NA,NA,NA,right,1981.29999999981,true,NA,NA,NA,NA,NA,NA,NA,NA
25KKvSf1,3087lxlj7ptluqx9bvztb5iuvan0fr,3ranct1zvjudkfv3v2wj66b80dyubo,25KKvSf1,2020-0188,2021-10-30,23:18:00,01:23:28,NA,incomplete,true,true,NA,NA,0,24,NA,purple,m_s_112.jpg,NA,NA,NA,NA,NA,unpleasant,pleasant,NA,NA,NA,NA,NA,left,1448.89999999944,true,NA,NA,NA,NA,NA,NA,NA,NA
25KKvSf1,3087lxlj7ptluqx9bvztb5iuvan0fr,3ranct1zvjudkfv3v2wj66b80dyubo,25KKvSf1,2020-0188,2021-10-30,23:18:00,01:23:28,NA,incomplete,true,true,NA,NA,0,25,NA,purple,n_s_044.jpg,NA,NA,NA,NA,NA,pleasant,unpleasant,NA,NA,NA,NA,NA,right,813.700000000186,true,NA,NA,NA,NA,NA,NA,NA,NA
25KKvSf1,3087lxlj7ptluqx9bvztb5iuvan0fr,3ranct1zvjudkfv3v2wj66b80dyubo,25KKvSf1,2020-0188,2021-10-30,23:18:00,01:23:28,NA,incomplete,true,true,NA,NA,0,26,NA,purple,n_s_091.jpg,NA,NA,NA,NA,NA,pleasant,unpleasant,NA,NA,NA,NA,NA,right,843,true,NA,NA,NA,NA,NA,NA,NA,NA
25KKvSf1,3087lxlj7ptluqx9bvztb5iuvan0fr,3ranct1zvjudkfv3v2wj66b80dyubo,25KKvSf1,2020-0188,2021-10-30,23:18:00,01:23:28,NA,incomplete,true,true,NA,NA,0,27,NA,purple,n_l_114.jpg,NA,NA,NA,NA,NA,unpleasant,pleasant,NA,NA,NA,NA,NA,right,503.099999999627,true,NA,NA,NA,NA,NA,NA,NA,NA
25KKvSf1,3087lxlj7ptluqx9bvztb5iuvan0fr,3ranct1zvjudkfv3v2wj66b80dyubo,25KKvSf1,2020-0188,2021-10-30,23:18:00,01:23:28,NA,incomplete,true,true,NA,NA,0,28,NA,purple,m_l_077.jpg,NA,NA,NA,NA,NA,pleasant,unpleasant,NA,NA,NA,NA,NA,right,1434.69999999925,true,NA,NA,NA,NA,NA,NA,NA,NA
25KKvSf1,3087lxlj7ptluqx9bvztb5iuvan0fr,3ranct1zvjudkfv3v2wj66b80dyubo,25KKvSf1,2020-0188,2021-10-30,23:18:00,01:23:28,NA,incomplete,true,true,NA,NA,0,29,NA,purple,n_l_024.jpg,NA,NA,NA,NA,NA,pleasant,unpleasant,NA,NA,NA,NA,NA,left,1488.09999999963,true,NA,NA,NA,NA,NA,NA,NA,NA
25KKvSf1,3087lxlj7ptluqx9bvztb5iuvan0fr,3ranct1zvjudkfv3v2wj66b80dyubo,25KKvSf1,2020-0188,2021-10-30,23:18:00,01:23:28,NA,incomplete,true,true,NA,NA,0,30,NA,orange,n_s_077.jpg,NA,NA,NA,NA,NA,unpleasant,pleasant,NA,NA,NA,NA,NA,right,1643.09999999963,true,NA,NA,NA,NA,NA,NA,NA,NA
25KKvSf1,3087lxlj7ptluqx9bvztb5iuvan0fr,3ranct1zvjudkfv3v2wj66b80dyubo,25KKvSf1,2020-0188,2021-10-30,23:18:00,01:23:28,NA,incomplete,true,true,NA,NA,0,31,NA,orange,n_s_062.jpg,NA,NA,NA,NA,NA,pleasant,unpleasant,NA,NA,NA,NA,NA,left,1800.09999999963,true,NA,NA,NA,NA,NA,NA,NA,NA
25KKvSf1,3087lxlj7ptluqx9bvztb5iuvan0fr,3ranct1zvjudkfv3v2wj66b80dyubo,25KKvSf1,2020-0188,2021-10-30,23:18:00,01:23:28,NA,incomplete,true,true,NA,NA,0,32,NA,orange,n_l_050.jpg,NA,NA,NA,NA,NA,pleasant,unpleasant,NA,NA,NA,NA,NA,right,1430.40000000037,true,NA,NA,NA,NA,NA,NA,NA,NA
25KKvSf1,3087lxlj7ptluqx9bvztb5iuvan0fr,3ranct1zvjudkfv3v2wj66b80dyubo,25KKvSf1,2020-0188,2021-10-30,23:18:00,01:23:28,NA,incomplete,true,true,NA,NA,0,33,NA,orange,n_l_087.jpg,NA,NA,NA,NA,NA,pleasant,unpleasant,NA,NA,NA,NA,NA,right,649.099999999627,true,NA,NA,NA,NA,NA,NA,NA,NA
25KKvSf1,3087lxlj7ptluqx9bvztb5iuvan0fr,3ranct1zvjudkfv3v2wj66b80dyubo,25KKvSf1,2020-0188,2021-10-30,23:18:00,01:23:28,NA,incomplete,true,true,NA,NA,0,34,NA,orange,m_l_078.jpg,NA,NA,NA,NA,NA,pleasant,unpleasant,NA,NA,NA,NA,NA,left,1550.09999999963,true,NA,NA,NA,NA,NA,NA,NA,NA
25KKvSf1,3087lxlj7ptluqx9bvztb5iuvan0fr,3ranct1zvjudkfv3v2wj66b80dyubo,25KKvSf1,2020-0188,2021-10-30,23:18:00,01:23:28,NA,incomplete,true,true,NA,NA,0,35,NA,orange,m_l_079.jpg,NA,NA,NA,NA,NA,unpleasant,pleasant,NA,NA,NA,NA,NA,right,1395.79999999981,true,NA,NA,NA,NA,NA,NA,NA,NA
25KKvSf1,3087lxlj7ptluqx9bvztb5iuvan0fr,3ranct1zvjudkfv3v2wj66b80dyubo,25KKvSf1,2020-0188,2021-10-30,23:18:00,01:23:28,NA,incomplete,true,NA,NA,true,0,0,NA,NA,NA,left,n_l_050.jpg,orange,purple,NA,NA,NA,NA,NA,NA,NA,NA,NA,NaN,NA,33332.199999999255,left,1,NA,NA,NA,NA,NA
25KKvSf1,3087lxlj7ptluqx9bvztb5iuvan0fr,3ranct1zvjudkfv3v2wj66b80dyubo,25KKvSf1,2020-0188,2021-10-30,23:18:00,01:23:28,NA,incomplete,true,NA,NA,true,0,1,NA,NA,NA,left,n_s_056.jpg,yellow,blue,NA,NA,NA,NA,NA,NA,NA,NA,NA,NaN,NA,8269.400000000373,left,1,NA,NA,NA,NA,NA
25KKvSf1,3087lxlj7ptluqx9bvztb5iuvan0fr,3ranct1zvjudkfv3v2wj66b80dyubo,25KKvSf1,2020-0188,2021-10-30,23:18:00,01:23:28,NA,incomplete,true,NA,NA,true,0,2,NA,NA,NA,left,m_s_059.jpg,yellow,blue,NA,NA,NA,NA,NA,NA,NA,NA,NA,NaN,NA,30412.599999999627,left,1,NA,NA,NA,NA,NA
25KKvSf1,3087lxlj7ptluqx9bvztb5iuvan0fr,3ranct1zvjudkfv3v2wj66b80dyubo,25KKvSf1,2020-0188,2021-10-30,23:18:00,01:23:28,NA,incomplete,true,NA,NA,true,0,3,NA,NA,NA,left,m_l_040.jpg,blue,yellow,NA,NA,NA,NA,NA,NA,NA,NA,NA,NaN,NA,7989.39999999851,left,1,NA,NA,NA,NA,NA
25KKvSf1,3087lxlj7ptluqx9bvztb5iuvan0fr,3ranct1zvjudkfv3v2wj66b80dyubo,25KKvSf1,2020-0188,2021-10-30,23:18:00,01:23:28,NA,incomplete,true,NA,NA,true,0,4,NA,NA,NA,left,m_s_070.jpg,yellow,blue,NA,NA,NA,NA,NA,NA,NA,NA,NA,NaN,NA,24988.400000000373,left,1,NA,NA,NA,NA,NA
25KKvSf1,3087lxlj7ptluqx9bvztb5iuvan0fr,3ranct1zvjudkfv3v2wj66b80dyubo,25KKvSf1,2020-0188,2021-10-30,23:18:00,01:23:28,NA,incomplete,true,NA,NA,true,0,5,NA,NA,NA,left,m_l_077.jpg,purple,orange,NA,NA,NA,NA,NA,NA,NA,NA,NA,NaN,NA,9685.199999999255,left,1,NA,NA,NA,NA,NA
25KKvSf1,3087lxlj7ptluqx9bvztb5iuvan0fr,3ranct1zvjudkfv3v2wj66b80dyubo,25KKvSf1,2020-0188,2021-10-30,23:18:00,01:23:28,NA,incomplete,true,NA,NA,true,0,6,NA,NA,NA,left,n_l_075.jpg,black,blue,NA,NA,NA,NA,NA,NA,NA,NA,NA,NaN,NA,12645.200000001118,left,1,NA,NA,NA,NA,NA
25KKvSf1,3087lxlj7ptluqx9bvztb5iuvan0fr,3ranct1zvjudkfv3v2wj66b80dyubo,25KKvSf1,2020-0188,2021-10-30,23:18:00,01:23:28,NA,incomplete,true,NA,NA,true,0,7,NA,NA,NA,right,m_s_084.jpg,black,blue,NA,NA,NA,NA,NA,NA,NA,NA,NA,NaN,NA,8061.700000001118,right,1,NA,NA,NA,NA,NA
25KKvSf1,3087lxlj7ptluqx9bvztb5iuvan0fr,3ranct1zvjudkfv3v2wj66b80dyubo,25KKvSf1,2020-0188,2021-10-30,23:18:00,01:23:28,NA,incomplete,true,NA,NA,true,0,8,NA,NA,NA,left,m_l_030.jpg,black,blue,NA,NA,NA,NA,NA,NA,NA,NA,NA,NaN,NA,6237.200000001118,left,1,NA,NA,NA,NA,NA
25KKvSf1,3087lxlj7ptluqx9bvztb5iuvan0fr,3ranct1zvjudkfv3v2wj66b80dyubo,25KKvSf1,2020-0188,2021-10-30,23:18:00,01:23:28,NA,incomplete,true,NA,NA,true,0,9,NA,NA,NA,right,n_s_044.jpg,orange,purple,NA,NA,NA,NA,NA,NA,NA,NA,NA,NaN,NA,10325.199999999255,right,1,NA,NA,NA,NA,NA
25KKvSf1,3087lxlj7ptluqx9bvztb5iuvan0fr,3ranct1zvjudkfv3v2wj66b80dyubo,25KKvSf1,2020-0188,2021-10-30,23:18:00,01:23:28,NA,incomplete,true,NA,NA,true,0,10,NA,NA,NA,right,m_l_079.jpg,purple,orange,NA,NA,NA,NA,NA,NA,NA,NA,NA,NaN,NA,7381.200000001118,right,1,NA,NA,NA,NA,NA
25KKvSf1,3087lxlj7ptluqx9bvztb5iuvan0fr,3ranct1zvjudkfv3v2wj66b80dyubo,25KKvSf1,2020-0188,2021-10-30,23:18:00,01:23:28,NA,incomplete,true,NA,NA,true,0,11,NA,NA,NA,right,n_s_046.jpg,purple,gray,NA,NA,NA,NA,NA,NA,NA,NA,NA,NaN,NA,9221.300000000745,right,1,NA,NA,NA,NA,NA
25KKvSf1,3087lxlj7ptluqx9bvztb5iuvan0fr,3ranct1zvjudkfv3v2wj66b80dyubo,25KKvSf1,2020-0188,2021-10-30,23:18:00,01:23:28,NA,incomplete,true,NA,NA,true,0,12,NA,NA,NA,left,n_l_083.jpg,gray,black,NA,NA,NA,NA,NA,NA,NA,NA,NA,NaN,NA,9373.10000000149,left,1,NA,NA,NA,NA,NA
25KKvSf1,3087lxlj7ptluqx9bvztb5iuvan0fr,3ranct1zvjudkfv3v2wj66b80dyubo,25KKvSf1,2020-0188,2021-10-30,23:18:00,01:23:28,NA,incomplete,true,NA,NA,true,0,13,NA,NA,NA,left,n_s_062.jpg,orange,purple,NA,NA,NA,NA,NA,NA,NA,NA,NA,NaN,NA,14588.900000000373,left,1,NA,NA,NA,NA,NA
25KKvSf1,3087lxlj7ptluqx9bvztb5iuvan0fr,3ranct1zvjudkfv3v2wj66b80dyubo,25KKvSf1,2020-0188,2021-10-30,23:18:00,01:23:28,NA,incomplete,true,NA,NA,true,0,14,NA,NA,NA,right,n_l_019.jpg,yellow,blue,NA,NA,NA,NA,NA,NA,NA,NA,NA,NaN,NA,8605.5,right,1,NA,NA,NA,NA,NA
25KKvSf1,3087lxlj7ptluqx9bvztb5iuvan0fr,3ranct1zvjudkfv3v2wj66b80dyubo,25KKvSf1,2020-0188,2021-10-30,23:18:00,01:23:28,NA,incomplete,true,NA,NA,true,0,15,NA,NA,NA,left,n_s_091.jpg,purple,gray,NA,NA,NA,NA,NA,NA,NA,NA,NA,NaN,NA,10309.5,left,1,NA,NA,NA,NA,NA
25KKvSf1,3087lxlj7ptluqx9bvztb5iuvan0fr,3ranct1zvjudkfv3v2wj66b80dyubo,25KKvSf1,2020-0188,2021-10-30,23:18:00,01:23:28,NA,incomplete,true,NA,NA,true,0,16,NA,NA,NA,right,n_s_012.jpg,blue,black,NA,NA,NA,NA,NA,NA,NA,NA,NA,NaN,NA,20237.200000001118,right,1,NA,NA,NA,NA,NA
25KKvSf1,3087lxlj7ptluqx9bvztb5iuvan0fr,3ranct1zvjudkfv3v2wj66b80dyubo,25KKvSf1,2020-0188,2021-10-30,23:18:00,01:23:28,NA,incomplete,true,NA,NA,true,0,17,NA,NA,NA,left,n_l_024.jpg,purple,gray,NA,NA,NA,NA,NA,NA,NA,NA,NA,NaN,NA,7933.60000000149,left,1,NA,NA,NA,NA,NA
25KKvSf1,3087lxlj7ptluqx9bvztb5iuvan0fr,3ranct1zvjudkfv3v2wj66b80dyubo,25KKvSf1,2020-0188,2021-10-30,23:18:00,01:23:28,NA,incomplete,true,NA,NA,true,0,18,NA,NA,NA,right,m_s_010.jpg,black,gray,NA,NA,NA,NA,NA,NA,NA,NA,NA,NaN,NA,6445.89999999851,right,1,NA,NA,NA,NA,NA
25KKvSf1,3087lxlj7ptluqx9bvztb5iuvan0fr,3ranct1zvjudkfv3v2wj66b80dyubo,25KKvSf1,2020-0188,2021-10-30,23:18:00,01:23:28,NA,incomplete,true,NA,NA,true,0,19,NA,NA,NA,left,n_l_106.jpg,black,gray,NA,NA,NA,NA,NA,NA,NA,NA,NA,NaN,NA,24245.099999999627,left,1,NA,NA,NA,NA,NA
25KKvSf1,3087lxlj7ptluqx9bvztb5iuvan0fr,3ranct1zvjudkfv3v2wj66b80dyubo,25KKvSf1,2020-0188,2021-10-30,23:18:00,01:23:28,NA,incomplete,true,NA,NA,true,0,20,NA,NA,NA,right,m_l_041.jpg,purple,gray,NA,NA,NA,NA,NA,NA,NA,NA,NA,NaN,NA,10668.800000000745,right,1,NA,NA,NA,NA,NA
25KKvSf1,3087lxlj7ptluqx9bvztb5iuvan0fr,3ranct1zvjudkfv3v2wj66b80dyubo,25KKvSf1,2020-0188,2021-10-30,23:18:00,01:23:28,NA,incomplete,true,NA,NA,true,0,21,NA,NA,NA,right,m_l_113.jpg,black,blue,NA,NA,NA,NA,NA,NA,NA,NA,NA,NaN,NA,21693,right,1,NA,NA,NA,NA,NA
25KKvSf1,3087lxlj7ptluqx9bvztb5iuvan0fr,3ranct1zvjudkfv3v2wj66b80dyubo,25KKvSf1,2020-0188,2021-10-30,23:18:00,01:23:28,NA,incomplete,true,NA,true,NA,0,0,NA,NA,NA,right,NA,NA,NA,absent,NA,NA,n_l_019.jpg,blue,m_s_084.jpg,blue,within,NA,NaN,NA,NA,NA,NA,right,65594.89999999944,1,2,48747.800000000745
25KKvSf1,3087lxlj7ptluqx9bvztb5iuvan0fr,3ranct1zvjudkfv3v2wj66b80dyubo,25KKvSf1,2020-0188,2021-10-30,23:18:00,01:23:28,NA,incomplete,true,NA,true,NA,0,1,NA,NA,NA,left,NA,NA,NA,absent,NA,NA,n_l_083.jpg,gray,m_s_010.jpg,gray,within,NA,NaN,NA,NA,NA,NA,left,3941.5,1,2,8797.199999999255
25KKvSf1,3087lxlj7ptluqx9bvztb5iuvan0fr,3ranct1zvjudkfv3v2wj66b80dyubo,25KKvSf1,2020-0188,2021-10-30,23:18:00,01:23:28,NA,incomplete,true,NA,true,NA,0,2,NA,NA,NA,right,NA,NA,NA,absent,NA,NA,m_s_059.jpg,yellow,n_s_056.jpg,yellow,within,NA,NaN,NA,NA,NA,NA,right,5629.5,1,1,1717.6000000014901
25KKvSf1,3087lxlj7ptluqx9bvztb5iuvan0fr,3ranct1zvjudkfv3v2wj66b80dyubo,25KKvSf1,2020-0188,2021-10-30,23:18:00,01:23:28,NA,incomplete,true,NA,true,NA,0,3,NA,NA,NA,right,NA,NA,NA,absent,NA,NA,n_s_091.jpg,purple,n_s_046.jpg,gray,between,NA,NaN,NA,NA,NA,NA,right,73938.69999999925,1,1,15821.400000000373
25KKvSf1,3087lxlj7ptluqx9bvztb5iuvan0fr,3ranct1zvjudkfv3v2wj66b80dyubo,25KKvSf1,2020-0188,2021-10-30,23:18:00,01:23:28,NA,incomplete,true,NA,true,NA,0,4,NA,NA,NA,right,NA,NA,NA,absent,NA,NA,m_l_079.jpg,orange,n_s_062.jpg,orange,within,NA,NaN,NA,NA,NA,NA,right,21701.599999999627,1,1,13325.5
25KKvSf1,3087lxlj7ptluqx9bvztb5iuvan0fr,3ranct1zvjudkfv3v2wj66b80dyubo,25KKvSf1,2020-0188,2021-10-30,23:18:00,01:23:28,NA,incomplete,true,NA,true,NA,0,5,NA,NA,NA,left,NA,NA,NA,absent,NA,NA,n_s_012.jpg,black,m_l_041.jpg,gray,between,NA,NaN,NA,NA,NA,NA,left,31396.900000000373,1,2,1334
25KKvSf1,3087lxlj7ptluqx9bvztb5iuvan0fr,3ranct1zvjudkfv3v2wj66b80dyubo,25KKvSf1,2020-0188,2021-10-30,23:18:00,01:23:28,NA,incomplete,true,NA,true,NA,0,6,NA,NA,NA,right,NA,NA,NA,absent,NA,NA,m_l_030.jpg,black,m_l_040.jpg,blue,between,NA,NaN,NA,NA,NA,NA,right,77242.59999999963,1,0,1277.800000000745
25KKvSf1,3087lxlj7ptluqx9bvztb5iuvan0fr,3ranct1zvjudkfv3v2wj66b80dyubo,25KKvSf1,2020-0188,2021-10-30,23:18:00,01:23:28,NA,incomplete,true,NA,true,NA,0,7,NA,NA,NA,right,NA,NA,NA,absent,NA,NA,m_l_113.jpg,blue,m_s_070.jpg,yellow,between,NA,NaN,NA,NA,NA,NA,right,37372.59999999963,1,2,1109.7000000011176
25KKvSf1,3087lxlj7ptluqx9bvztb5iuvan0fr,3ranct1zvjudkfv3v2wj66b80dyubo,25KKvSf1,2020-0188,2021-10-30,23:18:00,01:23:28,NA,incomplete,true,NA,true,NA,0,8,NA,NA,NA,left,NA,NA,NA,absent,NA,NA,n_l_106.jpg,black,n_l_075.jpg,black,within,NA,NaN,NA,NA,NA,NA,left,22397.199999999255,1,1,1621.5999999996275
25KKvSf1,3087lxlj7ptluqx9bvztb5iuvan0fr,3ranct1zvjudkfv3v2wj66b80dyubo,25KKvSf1,2020-0188,2021-10-30,23:18:00,01:23:28,NA,incomplete,true,NA,true,NA,0,9,NA,NA,NA,left,NA,NA,NA,absent,NA,NA,n_s_044.jpg,purple,n_l_024.jpg,purple,within,NA,NaN,NA,NA,NA,NA,left,17805.299999998882,1,2,1341.7000000011176
25KKvSf1,3087lxlj7ptluqx9bvztb5iuvan0fr,3ranct1zvjudkfv3v2wj66b80dyubo,25KKvSf1,2020-0188,2021-10-30,23:18:00,01:23:28,NA,incomplete,true,NA,true,NA,0,10,NA,NA,NA,right,NA,NA,NA,absent,NA,NA,n_l_050.jpg,orange,m_l_077.jpg,purple,between,NA,NaN,NA,NA,NA,NA,right,12437.199999999255,1,1,1429.5
25KKvSf1,3087lxlj7ptluqx9bvztb5iuvan0fr,3ranct1zvjudkfv3v2wj66b80dyubo,25KKvSf1,2020-0188,2021-10-30,23:18:00,01:23:28,NA,incomplete,false,true,NA,NA,1,0,NA,yellow,m_l_008.jpg,NA,NA,NA,NA,NA,unpleasant,pleasant,NA,NA,NA,NA,NA,right,2229.90000000037,true,NA,NA,NA,NA,NA,NA,NA,NA
25KKvSf1,3087lxlj7ptluqx9bvztb5iuvan0fr,3ranct1zvjudkfv3v2wj66b80dyubo,25KKvSf1,2020-0188,2021-10-30,23:18:00,01:23:28,NA,incomplete,false,true,NA,NA,1,1,NA,yellow,n_l_079.jpg,NA,NA,NA,NA,NA,pleasant,unpleasant,NA,NA,NA,NA,NA,left,953.099999999627,true,NA,NA,NA,NA,NA,NA,NA,NA
25KKvSf1,3087lxlj7ptluqx9bvztb5iuvan0fr,3ranct1zvjudkfv3v2wj66b80dyubo,25KKvSf1,2020-0188,2021-10-30,23:18:00,01:23:28,NA,incomplete,false,true,NA,NA,1,2,NA,yellow,m_l_086.jpg,NA,NA,NA,NA,NA,unpleasant,pleasant,NA,NA,NA,NA,NA,right,989.700000001118,true,NA,NA,NA,NA,NA,NA,NA,NA
25KKvSf1,3087lxlj7ptluqx9bvztb5iuvan0fr,3ranct1zvjudkfv3v2wj66b80dyubo,25KKvSf1,2020-0188,2021-10-30,23:18:00,01:23:28,NA,incomplete,false,true,NA,NA,1,3,NA,yellow,m_l_090.jpg,NA,NA,NA,NA,NA,unpleasant,pleasant,NA,NA,NA,NA,NA,none,0,false,NA,NA,NA,NA,NA,NA,NA,NA
25KKvSf1,3087lxlj7ptluqx9bvztb5iuvan0fr,3ranct1zvjudkfv3v2wj66b80dyubo,25KKvSf1,2020-0188,2021-10-30,23:18:00,01:23:28,NA,incomplete,false,true,NA,NA,1,4,NA,yellow,m_l_003.jpg,NA,NA,NA,NA,NA,pleasant,unpleasant,NA,NA,NA,NA,NA,none,0,false,NA,NA,NA,NA,NA,NA,NA,NA
25KKvSf1,3087lxlj7ptluqx9bvztb5iuvan0fr,3ranct1zvjudkfv3v2wj66b80dyubo,25KKvSf1,2020-0188,2021-10-30,23:18:00,01:23:28,NA,incomplete,false,true,NA,NA,1,5,NA,yellow,n_s_037.jpg,NA,NA,NA,NA,NA,unpleasant,pleasant,NA,NA,NA,NA,NA,left,1235,true,NA,NA,NA,NA,NA,NA,NA,NA
25KKvSf1,3087lxlj7ptluqx9bvztb5iuvan0fr,3ranct1zvjudkfv3v2wj66b80dyubo,25KKvSf1,2020-0188,2021-10-30,23:18:00,01:23:28,NA,incomplete,false,true,NA,NA,1,6,NA,gray,m_l_001.jpg,NA,NA,NA,NA,NA,pleasant,unpleasant,NA,NA,NA,NA,NA,right,869.599999999627,true,NA,NA,NA,NA,NA,NA,NA,NA
25KKvSf1,3087lxlj7ptluqx9bvztb5iuvan0fr,3ranct1zvjudkfv3v2wj66b80dyubo,25KKvSf1,2020-0188,2021-10-30,23:18:00,01:23:28,NA,incomplete,false,true,NA,NA,1,7,NA,gray,m_l_071.jpg,NA,NA,NA,NA,NA,unpleasant,pleasant,NA,NA,NA,NA,NA,left,666.099999999627,true,NA,NA,NA,NA,NA,NA,NA,NA
25KKvSf1,3087lxlj7ptluqx9bvztb5iuvan0fr,3ranct1zvjudkfv3v2wj66b80dyubo,25KKvSf1,2020-0188,2021-10-30,23:18:00,01:23:28,NA,incomplete,false,true,NA,NA,1,8,NA,gray,n_s_009.jpg,NA,NA,NA,NA,NA,pleasant,unpleasant,NA,NA,NA,NA,NA,left,1702.80000000075,true,NA,NA,NA,NA,NA,NA,NA,NA
25KKvSf1,3087lxlj7ptluqx9bvztb5iuvan0fr,3ranct1zvjudkfv3v2wj66b80dyubo,25KKvSf1,2020-0188,2021-10-30,23:18:00,01:23:28,NA,incomplete,false,true,NA,NA,1,9,NA,gray,m_s_058.jpg,NA,NA,NA,NA,NA,pleasant,unpleasant,NA,NA,NA,NA,NA,left,1298.60000000149,true,NA,NA,NA,NA,NA,NA,NA,NA
25KKvSf1,3087lxlj7ptluqx9bvztb5iuvan0fr,3ranct1zvjudkfv3v2wj66b80dyubo,25KKvSf1,2020-0188,2021-10-30,23:18:00,01:23:28,NA,incomplete,false,true,NA,NA,1,10,NA,gray,m_l_076.jpg,NA,NA,NA,NA,NA,pleasant,unpleasant,NA,NA,NA,NA,NA,left,1296.09999999963,true,NA,NA,NA,NA,NA,NA,NA,NA
25KKvSf1,3087lxlj7ptluqx9bvztb5iuvan0fr,3ranct1zvjudkfv3v2wj66b80dyubo,25KKvSf1,2020-0188,2021-10-30,23:18:00,01:23:28,NA,incomplete,false,true,NA,NA,1,11,NA,gray,n_s_033.jpg,NA,NA,NA,NA,NA,pleasant,unpleasant,NA,NA,NA,NA,NA,left,2228.09999999963,true,NA,NA,NA,NA,NA,NA,NA,NA
25KKvSf1,3087lxlj7ptluqx9bvztb5iuvan0fr,3ranct1zvjudkfv3v2wj66b80dyubo,25KKvSf1,2020-0188,2021-10-30,23:18:00,01:23:28,NA,incomplete,false,true,NA,NA,1,12,NA,orange,m_l_052.jpg,NA,NA,NA,NA,NA,unpleasant,pleasant,NA,NA,NA,NA,NA,right,2337.90000000037,true,NA,NA,NA,NA,NA,NA,NA,NA
25KKvSf1,3087lxlj7ptluqx9bvztb5iuvan0fr,3ranct1zvjudkfv3v2wj66b80dyubo,25KKvSf1,2020-0188,2021-10-30,23:18:00,01:23:28,NA,incomplete,false,true,NA,NA,1,13,NA,orange,m_l_069.jpg,NA,NA,NA,NA,NA,unpleasant,pleasant,NA,NA,NA,NA,NA,right,1364.5,true,NA,NA,NA,NA,NA,NA,NA,NA
25KKvSf1,3087lxlj7ptluqx9bvztb5iuvan0fr,3ranct1zvjudkfv3v2wj66b80dyubo,25KKvSf1,2020-0188,2021-10-30,23:18:00,01:23:28,NA,incomplete,false,true,NA,NA,1,14,NA,orange,m_l_005.jpg,NA,NA,NA,NA,NA,unpleasant,pleasant,NA,NA,NA,NA,NA,left,1041.30000000075,true,NA,NA,NA,NA,NA,NA,NA,NA
25KKvSf1,3087lxlj7ptluqx9bvztb5iuvan0fr,3ranct1zvjudkfv3v2wj66b80dyubo,25KKvSf1,2020-0188,2021-10-30,23:18:00,01:23:28,NA,incomplete,false,true,NA,NA,1,15,NA,orange,m_l_055.jpg,NA,NA,NA,NA,NA,unpleasant,pleasant,NA,NA,NA,NA,NA,right,1694,true,NA,NA,NA,NA,NA,NA,NA,NA
25KKvSf1,3087lxlj7ptluqx9bvztb5iuvan0fr,3ranct1zvjudkfv3v2wj66b80dyubo,25KKvSf1,2020-0188,2021-10-30,23:18:00,01:23:28,NA,incomplete,false,true,NA,NA,1,16,NA,orange,m_l_036.jpg,NA,NA,NA,NA,NA,pleasant,unpleasant,NA,NA,NA,NA,NA,left,1657.69999999925,true,NA,NA,NA,NA,NA,NA,NA,NA
25KKvSf1,3087lxlj7ptluqx9bvztb5iuvan0fr,3ranct1zvjudkfv3v2wj66b80dyubo,25KKvSf1,2020-0188,2021-10-30,23:18:00,01:23:28,NA,incomplete,false,true,NA,NA,1,17,NA,orange,n_s_021.jpg,NA,NA,NA,NA,NA,unpleasant,pleasant,NA,NA,NA,NA,NA,right,1677.40000000037,true,NA,NA,NA,NA,NA,NA,NA,NA
25KKvSf1,3087lxlj7ptluqx9bvztb5iuvan0fr,3ranct1zvjudkfv3v2wj66b80dyubo,25KKvSf1,2020-0188,2021-10-30,23:18:00,01:23:28,NA,incomplete,false,true,NA,NA,1,18,NA,red,m_s_055.jpg,NA,NA,NA,NA,NA,pleasant,unpleasant,NA,NA,NA,NA,NA,left,1747,true,NA,NA,NA,NA,NA,NA,NA,NA
25KKvSf1,3087lxlj7ptluqx9bvztb5iuvan0fr,3ranct1zvjudkfv3v2wj66b80dyubo,25KKvSf1,2020-0188,2021-10-30,23:18:00,01:23:28,NA,incomplete,false,true,NA,NA,1,19,NA,red,m_l_081.jpg,NA,NA,NA,NA,NA,unpleasant,pleasant,NA,NA,NA,NA,NA,left,1430.80000000075,true,NA,NA,NA,NA,NA,NA,NA,NA
25KKvSf1,3087lxlj7ptluqx9bvztb5iuvan0fr,3ranct1zvjudkfv3v2wj66b80dyubo,25KKvSf1,2020-0188,2021-10-30,23:18:00,01:23:28,NA,incomplete,false,true,NA,NA,1,20,NA,red,n_s_008.jpg,NA,NA,NA,NA,NA,unpleasant,pleasant,NA,NA,NA,NA,NA,right,875.5,true,NA,NA,NA,NA,NA,NA,NA,NA
25KKvSf1,3087lxlj7ptluqx9bvztb5iuvan0fr,3ranct1zvjudkfv3v2wj66b80dyubo,25KKvSf1,2020-0188,2021-10-30,23:18:00,01:23:28,NA,incomplete,false,true,NA,NA,1,21,NA,red,m_s_031.jpg,NA,NA,NA,NA,NA,pleasant,unpleasant,NA,NA,NA,NA,NA,left,1681.29999999888,true,NA,NA,NA,NA,NA,NA,NA,NA
25KKvSf1,3087lxlj7ptluqx9bvztb5iuvan0fr,3ranct1zvjudkfv3v2wj66b80dyubo,25KKvSf1,2020-0188,2021-10-30,23:18:00,01:23:28,NA,incomplete,false,true,NA,NA,1,22,NA,red,m_s_064.jpg,NA,NA,NA,NA,NA,pleasant,unpleasant,NA,NA,NA,NA,NA,left,1204.90000000037,true,NA,NA,NA,NA,NA,NA,NA,NA
25KKvSf1,3087lxlj7ptluqx9bvztb5iuvan0fr,3ranct1zvjudkfv3v2wj66b80dyubo,25KKvSf1,2020-0188,2021-10-30,23:18:00,01:23:28,NA,incomplete,false,true,NA,NA,1,23,NA,red,m_s_109.jpg,NA,NA,NA,NA,NA,pleasant,unpleasant,NA,NA,NA,NA,NA,left,1136.69999999925,true,NA,NA,NA,NA,NA,NA,NA,NA
25KKvSf1,3087lxlj7ptluqx9bvztb5iuvan0fr,3ranct1zvjudkfv3v2wj66b80dyubo,25KKvSf1,2020-0188,2021-10-30,23:18:00,01:23:28,NA,incomplete,false,true,NA,NA,1,24,NA,green,m_l_072.jpg,NA,NA,NA,NA,NA,unpleasant,pleasant,NA,NA,NA,NA,NA,right,1718.40000000037,true,NA,NA,NA,NA,NA,NA,NA,NA
25KKvSf1,3087lxlj7ptluqx9bvztb5iuvan0fr,3ranct1zvjudkfv3v2wj66b80dyubo,25KKvSf1,2020-0188,2021-10-30,23:18:00,01:23:28,NA,incomplete,false,true,NA,NA,1,25,NA,green,n_l_102.jpg,NA,NA,NA,NA,NA,unpleasant,pleasant,NA,NA,NA,NA,NA,right,2017.10000000149,true,NA,NA,NA,NA,NA,NA,NA,NA
25KKvSf1,3087lxlj7ptluqx9bvztb5iuvan0fr,3ranct1zvjudkfv3v2wj66b80dyubo,25KKvSf1,2020-0188,2021-10-30,23:18:00,01:23:28,NA,incomplete,false,true,NA,NA,1,26,NA,green,n_l_116.jpg,NA,NA,NA,NA,NA,pleasant,unpleasant,NA,NA,NA,NA,NA,right,966.200000001118,true,NA,NA,NA,NA,NA,NA,NA,NA
25KKvSf1,3087lxlj7ptluqx9bvztb5iuvan0fr,3ranct1zvjudkfv3v2wj66b80dyubo,25KKvSf1,2020-0188,2021-10-30,23:18:00,01:23:28,NA,incomplete,false,true,NA,NA,1,27,NA,green,n_l_033.jpg,NA,NA,NA,NA,NA,unpleasant,pleasant,NA,NA,NA,NA,NA,right,1698.19999999925,true,NA,NA,NA,NA,NA,NA,NA,NA
25KKvSf1,3087lxlj7ptluqx9bvztb5iuvan0fr,3ranct1zvjudkfv3v2wj66b80dyubo,25KKvSf1,2020-0188,2021-10-30,23:18:00,01:23:28,NA,incomplete,false,true,NA,NA,1,28,NA,green,m_s_088.jpg,NA,NA,NA,NA,NA,pleasant,unpleasant,NA,NA,NA,NA,NA,left,1287.09999999963,true,NA,NA,NA,NA,NA,NA,NA,NA
25KKvSf1,3087lxlj7ptluqx9bvztb5iuvan0fr,3ranct1zvjudkfv3v2wj66b80dyubo,25KKvSf1,2020-0188,2021-10-30,23:18:00,01:23:28,NA,incomplete,false,true,NA,NA,1,29,NA,green,m_l_051.jpg,NA,NA,NA,NA,NA,pleasant,unpleasant,NA,NA,NA,NA,NA,left,923.900000000373,true,NA,NA,NA,NA,NA,NA,NA,NA
25KKvSf1,3087lxlj7ptluqx9bvztb5iuvan0fr,3ranct1zvjudkfv3v2wj66b80dyubo,25KKvSf1,2020-0188,2021-10-30,23:18:00,01:23:28,NA,incomplete,false,true,NA,NA,1,30,NA,black,n_s_004.jpg,NA,NA,NA,NA,NA,pleasant,unpleasant,NA,NA,NA,NA,NA,left,1086.60000000149,true,NA,NA,NA,NA,NA,NA,NA,NA
25KKvSf1,3087lxlj7ptluqx9bvztb5iuvan0fr,3ranct1zvjudkfv3v2wj66b80dyubo,25KKvSf1,2020-0188,2021-10-30,23:18:00,01:23:28,NA,incomplete,false,true,NA,NA,1,31,NA,black,m_s_115.jpg,NA,NA,NA,NA,NA,unpleasant,pleasant,NA,NA,NA,NA,NA,right,1347.30000000075,true,NA,NA,NA,NA,NA,NA,NA,NA
25KKvSf1,3087lxlj7ptluqx9bvztb5iuvan0fr,3ranct1zvjudkfv3v2wj66b80dyubo,25KKvSf1,2020-0188,2021-10-30,23:18:00,01:23:28,NA,incomplete,false,true,NA,NA,1,32,NA,black,n_s_095.jpg,NA,NA,NA,NA,NA,unpleasant,pleasant,NA,NA,NA,NA,NA,right,944.799999998882,true,NA,NA,NA,NA,NA,NA,NA,NA
25KKvSf1,3087lxlj7ptluqx9bvztb5iuvan0fr,3ranct1zvjudkfv3v2wj66b80dyubo,25KKvSf1,2020-0188,2021-10-30,23:18:00,01:23:28,NA,incomplete,false,true,NA,NA,1,33,NA,black,n_s_076.jpg,NA,NA,NA,NA,NA,pleasant,unpleasant,NA,NA,NA,NA,NA,left,2387.79999999888,true,NA,NA,NA,NA,NA,NA,NA,NA
25KKvSf1,3087lxlj7ptluqx9bvztb5iuvan0fr,3ranct1zvjudkfv3v2wj66b80dyubo,25KKvSf1,2020-0188,2021-10-30,23:18:00,01:23:28,NA,incomplete,false,true,NA,NA,1,34,NA,black,n_l_005.jpg,NA,NA,NA,NA,NA,pleasant,unpleasant,NA,NA,NA,NA,NA,left,1432.69999999925,true,NA,NA,NA,NA,NA,NA,NA,NA
25KKvSf1,3087lxlj7ptluqx9bvztb5iuvan0fr,3ranct1zvjudkfv3v2wj66b80dyubo,25KKvSf1,2020-0188,2021-10-30,23:18:00,01:23:28,NA,incomplete,false,true,NA,NA,1,35,NA,black,n_s_101.jpg,NA,NA,NA,NA,NA,pleasant,unpleasant,NA,NA,NA,NA,NA,left,1078.19999999925,true,NA,NA,NA,NA,NA,NA,NA,NA
25KKvSf1,3087lxlj7ptluqx9bvztb5iuvan0fr,3ranct1zvjudkfv3v2wj66b80dyubo,25KKvSf1,2020-0188,2021-10-30,23:18:00,01:23:28,NA,incomplete,false,NA,NA,true,1,0,NA,NA,NA,right,n_s_008.jpg,orange,red,NA,NA,NA,NA,NA,NA,NA,NA,NA,NaN,NA,22700.200000001118,left,0,NA,NA,NA,NA,NA
25KKvSf1,3087lxlj7ptluqx9bvztb5iuvan0fr,3ranct1zvjudkfv3v2wj66b80dyubo,25KKvSf1,2020-0188,2021-10-30,23:18:00,01:23:28,NA,incomplete,false,NA,NA,true,1,1,NA,NA,NA,left,n_s_021.jpg,orange,red,NA,NA,NA,NA,NA,NA,NA,NA,NA,NaN,NA,10349.099999999627,left,1,NA,NA,NA,NA,NA
25KKvSf1,3087lxlj7ptluqx9bvztb5iuvan0fr,3ranct1zvjudkfv3v2wj66b80dyubo,25KKvSf1,2020-0188,2021-10-30,23:18:00,01:23:28,NA,incomplete,false,NA,NA,true,1,2,NA,NA,NA,left,m_l_051.jpg,green,black,NA,NA,NA,NA,NA,NA,NA,NA,NA,NaN,NA,6661.0999999996275,left,1,NA,NA,NA,NA,NA
25KKvSf1,3087lxlj7ptluqx9bvztb5iuvan0fr,3ranct1zvjudkfv3v2wj66b80dyubo,25KKvSf1,2020-0188,2021-10-30,23:18:00,01:23:28,NA,incomplete,false,NA,NA,true,1,3,NA,NA,NA,left,n_s_095.jpg,black,green,NA,NA,NA,NA,NA,NA,NA,NA,NA,NaN,NA,13188.900000000373,left,1,NA,NA,NA,NA,NA
25KKvSf1,3087lxlj7ptluqx9bvztb5iuvan0fr,3ranct1zvjudkfv3v2wj66b80dyubo,25KKvSf1,2020-0188,2021-10-30,23:18:00,01:23:28,NA,incomplete,false,NA,NA,true,1,4,NA,NA,NA,left,m_l_005.jpg,orange,gray,NA,NA,NA,NA,NA,NA,NA,NA,NA,NaN,NA,13885.39999999851,left,1,NA,NA,NA,NA,NA
25KKvSf1,3087lxlj7ptluqx9bvztb5iuvan0fr,3ranct1zvjudkfv3v2wj66b80dyubo,25KKvSf1,2020-0188,2021-10-30,23:18:00,01:23:28,NA,incomplete,false,NA,NA,true,1,5,NA,NA,NA,right,n_l_102.jpg,red,green,NA,NA,NA,NA,NA,NA,NA,NA,NA,NaN,NA,5269.800000000745,right,1,NA,NA,NA,NA,NA
25KKvSf1,3087lxlj7ptluqx9bvztb5iuvan0fr,3ranct1zvjudkfv3v2wj66b80dyubo,25KKvSf1,2020-0188,2021-10-30,23:18:00,01:23:28,NA,incomplete,false,NA,NA,true,1,6,NA,NA,NA,right,m_l_076.jpg,yellow,gray,NA,NA,NA,NA,NA,NA,NA,NA,NA,NaN,NA,8109.699999999255,right,1,NA,NA,NA,NA,NA
25KKvSf1,3087lxlj7ptluqx9bvztb5iuvan0fr,3ranct1zvjudkfv3v2wj66b80dyubo,25KKvSf1,2020-0188,2021-10-30,23:18:00,01:23:28,NA,incomplete,false,NA,NA,true,1,7,NA,NA,NA,right,m_s_088.jpg,black,green,NA,NA,NA,NA,NA,NA,NA,NA,NA,NaN,NA,6213.700000001118,right,1,NA,NA,NA,NA,NA
25KKvSf1,3087lxlj7ptluqx9bvztb5iuvan0fr,3ranct1zvjudkfv3v2wj66b80dyubo,25KKvSf1,2020-0188,2021-10-30,23:18:00,01:23:28,NA,incomplete,false,NA,NA,true,1,8,NA,NA,NA,left,n_l_116.jpg,green,black,NA,NA,NA,NA,NA,NA,NA,NA,NA,NaN,NA,8493.700000001118,left,1,NA,NA,NA,NA,NA
25KKvSf1,3087lxlj7ptluqx9bvztb5iuvan0fr,3ranct1zvjudkfv3v2wj66b80dyubo,25KKvSf1,2020-0188,2021-10-30,23:18:00,01:23:28,NA,incomplete,false,NA,NA,true,1,9,NA,NA,NA,right,n_s_033.jpg,orange,gray,NA,NA,NA,NA,NA,NA,NA,NA,NA,NaN,NA,9645.599999999627,right,1,NA,NA,NA,NA,NA
25KKvSf1,3087lxlj7ptluqx9bvztb5iuvan0fr,3ranct1zvjudkfv3v2wj66b80dyubo,25KKvSf1,2020-0188,2021-10-30,23:18:00,01:23:28,NA,incomplete,false,NA,NA,true,1,10,NA,NA,NA,right,m_s_109.jpg,green,red,NA,NA,NA,NA,NA,NA,NA,NA,NA,NaN,NA,8708.5,right,1,NA,NA,NA,NA,NA
25KKvSf1,3087lxlj7ptluqx9bvztb5iuvan0fr,3ranct1zvjudkfv3v2wj66b80dyubo,25KKvSf1,2020-0188,2021-10-30,23:18:00,01:23:28,NA,incomplete,false,NA,NA,true,1,11,NA,NA,NA,left,m_l_071.jpg,gray,orange,NA,NA,NA,NA,NA,NA,NA,NA,NA,NaN,NA,6086,left,1,NA,NA,NA,NA,NA
25KKvSf1,3087lxlj7ptluqx9bvztb5iuvan0fr,3ranct1zvjudkfv3v2wj66b80dyubo,25KKvSf1,2020-0188,2021-10-30,23:18:00,01:23:28,NA,incomplete,false,NA,NA,true,1,12,NA,NA,NA,left,n_l_079.jpg,yellow,gray,NA,NA,NA,NA,NA,NA,NA,NA,NA,NaN,NA,11733.400000000373,right,0,NA,NA,NA,NA,NA
25KKvSf1,3087lxlj7ptluqx9bvztb5iuvan0fr,3ranct1zvjudkfv3v2wj66b80dyubo,25KKvSf1,2020-0188,2021-10-30,23:18:00,01:23:28,NA,incomplete,false,NA,NA,true,1,13,NA,NA,NA,right,n_s_009.jpg,orange,gray,NA,NA,NA,NA,NA,NA,NA,NA,NA,NaN,NA,31020.599999999627,right,1,NA,NA,NA,NA,NA
25KKvSf1,3087lxlj7ptluqx9bvztb5iuvan0fr,3ranct1zvjudkfv3v2wj66b80dyubo,25KKvSf1,2020-0188,2021-10-30,23:18:00,01:23:28,NA,incomplete,false,NA,NA,true,1,14,NA,NA,NA,left,m_s_115.jpg,black,green,NA,NA,NA,NA,NA,NA,NA,NA,NA,NaN,NA,16541.099999999627,left,1,NA,NA,NA,NA,NA
25KKvSf1,3087lxlj7ptluqx9bvztb5iuvan0fr,3ranct1zvjudkfv3v2wj66b80dyubo,25KKvSf1,2020-0188,2021-10-30,23:18:00,01:23:28,NA,incomplete,false,NA,NA,true,1,15,NA,NA,NA,right,m_s_064.jpg,orange,red,NA,NA,NA,NA,NA,NA,NA,NA,NA,NaN,NA,6477.5,right,1,NA,NA,NA,NA,NA
25KKvSf1,3087lxlj7ptluqx9bvztb5iuvan0fr,3ranct1zvjudkfv3v2wj66b80dyubo,25KKvSf1,2020-0188,2021-10-30,23:18:00,01:23:28,NA,incomplete,false,NA,NA,true,1,16,NA,NA,NA,left,m_l_003.jpg,yellow,gray,NA,NA,NA,NA,NA,NA,NA,NA,NA,NaN,NA,17924.800000000745,left,1,NA,NA,NA,NA,NA
25KKvSf1,3087lxlj7ptluqx9bvztb5iuvan0fr,3ranct1zvjudkfv3v2wj66b80dyubo,25KKvSf1,2020-0188,2021-10-30,23:18:00,01:23:28,NA,incomplete,false,NA,NA,true,1,17,NA,NA,NA,right,m_l_069.jpg,gray,orange,NA,NA,NA,NA,NA,NA,NA,NA,NA,NaN,NA,7277.4000000003725,right,1,NA,NA,NA,NA,NA
25KKvSf1,3087lxlj7ptluqx9bvztb5iuvan0fr,3ranct1zvjudkfv3v2wj66b80dyubo,25KKvSf1,2020-0188,2021-10-30,23:18:00,01:23:28,NA,incomplete,false,NA,NA,true,1,18,NA,NA,NA,right,n_s_101.jpg,green,black,NA,NA,NA,NA,NA,NA,NA,NA,NA,NaN,NA,14189.099999999627,right,1,NA,NA,NA,NA,NA
25KKvSf1,3087lxlj7ptluqx9bvztb5iuvan0fr,3ranct1zvjudkfv3v2wj66b80dyubo,25KKvSf1,2020-0188,2021-10-30,23:18:00,01:23:28,NA,incomplete,false,NA,NA,true,1,19,NA,NA,NA,right,m_l_036.jpg,red,orange,NA,NA,NA,NA,NA,NA,NA,NA,NA,NaN,NA,18604.700000001118,left,0,NA,NA,NA,NA,NA
25KKvSf1,3087lxlj7ptluqx9bvztb5iuvan0fr,3ranct1zvjudkfv3v2wj66b80dyubo,25KKvSf1,2020-0188,2021-10-30,23:18:00,01:23:28,NA,incomplete,false,NA,NA,true,1,20,NA,NA,NA,left,m_l_081.jpg,red,green,NA,NA,NA,NA,NA,NA,NA,NA,NA,NaN,NA,4597.5999999996275,left,1,NA,NA,NA,NA,NA
25KKvSf1,3087lxlj7ptluqx9bvztb5iuvan0fr,3ranct1zvjudkfv3v2wj66b80dyubo,25KKvSf1,2020-0188,2021-10-30,23:18:00,01:23:28,NA,incomplete,false,NA,NA,true,1,21,NA,NA,NA,right,n_s_037.jpg,gray,yellow,NA,NA,NA,NA,NA,NA,NA,NA,NA,NaN,NA,13757.10000000149,right,1,NA,NA,NA,NA,NA
25KKvSf1,3087lxlj7ptluqx9bvztb5iuvan0fr,3ranct1zvjudkfv3v2wj66b80dyubo,25KKvSf1,2020-0188,2021-10-30,23:18:00,01:23:28,NA,incomplete,false,NA,true,NA,1,0,NA,NA,NA,left,NA,NA,NA,absent,NA,NA,m_l_069.jpg,orange,n_s_021.jpg,orange,within,NA,NaN,NA,NA,NA,NA,left,47561.5,1,2,1940
25KKvSf1,3087lxlj7ptluqx9bvztb5iuvan0fr,3ranct1zvjudkfv3v2wj66b80dyubo,25KKvSf1,2020-0188,2021-10-30,23:18:00,01:23:28,NA,incomplete,false,NA,true,NA,1,1,NA,NA,NA,right,NA,NA,NA,absent,NA,NA,n_s_095.jpg,black,m_s_088.jpg,green,between,NA,NaN,NA,NA,NA,NA,right,99560.30000000075,1,1,1842.199999999255
25KKvSf1,3087lxlj7ptluqx9bvztb5iuvan0fr,3ranct1zvjudkfv3v2wj66b80dyubo,25KKvSf1,2020-0188,2021-10-30,23:18:00,01:23:28,NA,incomplete,false,NA,true,NA,1,2,NA,NA,NA,left,NA,NA,NA,absent,NA,NA,m_l_081.jpg,red,m_s_109.jpg,red,within,NA,NaN,NA,NA,NA,NA,left,10260.099999999627,1,1,2013.7000000011176
25KKvSf1,3087lxlj7ptluqx9bvztb5iuvan0fr,3ranct1zvjudkfv3v2wj66b80dyubo,25KKvSf1,2020-0188,2021-10-30,23:18:00,01:23:28,NA,incomplete,false,NA,true,NA,1,3,NA,NA,NA,left,NA,NA,NA,absent,NA,NA,n_l_079.jpg,yellow,n_s_037.jpg,yellow,within,NA,NaN,NA,NA,NA,NA,left,85040.5,1,2,1533.9000000003725
25KKvSf1,3087lxlj7ptluqx9bvztb5iuvan0fr,3ranct1zvjudkfv3v2wj66b80dyubo,25KKvSf1,2020-0188,2021-10-30,23:18:00,01:23:28,NA,incomplete,false,NA,true,NA,1,4,NA,NA,NA,left,NA,NA,NA,absent,NA,NA,m_s_115.jpg,black,n_s_101.jpg,black,within,NA,NaN,NA,NA,NA,NA,left,24892.699999999255,1,2,2134.0999999996275
25KKvSf1,3087lxlj7ptluqx9bvztb5iuvan0fr,3ranct1zvjudkfv3v2wj66b80dyubo,25KKvSf1,2020-0188,2021-10-30,23:18:00,01:23:28,NA,incomplete,false,NA,true,NA,1,5,NA,NA,NA,right,NA,NA,NA,absent,NA,NA,n_s_008.jpg,red,m_l_036.jpg,orange,between,NA,NaN,NA,NA,NA,NA,right,14213.400000000373,1,1,1245.800000000745
25KKvSf1,3087lxlj7ptluqx9bvztb5iuvan0fr,3ranct1zvjudkfv3v2wj66b80dyubo,25KKvSf1,2020-0188,2021-10-30,23:18:00,01:23:28,NA,incomplete,false,NA,true,NA,1,6,NA,NA,NA,right,NA,NA,NA,absent,NA,NA,n_s_033.jpg,gray,m_l_071.jpg,gray,within,NA,NaN,NA,NA,NA,NA,right,24141.199999999255,1,1,1630.0999999996275
25KKvSf1,3087lxlj7ptluqx9bvztb5iuvan0fr,3ranct1zvjudkfv3v2wj66b80dyubo,25KKvSf1,2020-0188,2021-10-30,23:18:00,01:23:28,NA,incomplete,false,NA,true,NA,1,7,NA,NA,NA,left,NA,NA,NA,absent,NA,NA,m_l_003.jpg,yellow,n_s_009.jpg,gray,between,NA,NaN,NA,NA,NA,NA,left,33076.5,1,0,3862
25KKvSf1,3087lxlj7ptluqx9bvztb5iuvan0fr,3ranct1zvjudkfv3v2wj66b80dyubo,25KKvSf1,2020-0188,2021-10-30,23:18:00,01:23:28,NA,incomplete,false,NA,true,NA,1,8,NA,NA,NA,left,NA,NA,NA,absent,NA,NA,n_l_102.jpg,green,m_l_051.jpg,green,within,NA,NaN,NA,NA,NA,NA,left,10573.89999999851,1,1,1862
25KKvSf1,3087lxlj7ptluqx9bvztb5iuvan0fr,3ranct1zvjudkfv3v2wj66b80dyubo,25KKvSf1,2020-0188,2021-10-30,23:18:00,01:23:28,NA,incomplete,false,NA,true,NA,1,9,NA,NA,NA,right,NA,NA,NA,absent,NA,NA,m_l_005.jpg,orange,m_l_076.jpg,gray,between,NA,NaN,NA,NA,NA,NA,right,12861.400000000373,1,2,1150
25KKvSf1,3087lxlj7ptluqx9bvztb5iuvan0fr,3ranct1zvjudkfv3v2wj66b80dyubo,25KKvSf1,2020-0188,2021-10-30,23:18:00,01:23:28,NA,incomplete,false,NA,true,NA,1,10,NA,NA,NA,right,NA,NA,NA,absent,NA,NA,n_l_116.jpg,green,m_s_064.jpg,red,between,NA,NaN,NA,NA,NA,NA,right,42828.20000000112,1,3,1853.699999999255
25KKvSf1,3087lxlj7ptluqx9bvztb5iuvan0fr,3ranct1zvjudkfv3v2wj66b80dyubo,25KKvSf1,2020-0188,2021-10-30,23:18:00,01:23:28,NA,incomplete,false,true,NA,NA,2,0,NA,black,m_s_008.jpg,NA,NA,NA,NA,NA,pleasant,unpleasant,NA,NA,NA,NA,NA,none,0,false,NA,NA,NA,NA,NA,NA,NA,NA
25KKvSf1,3087lxlj7ptluqx9bvztb5iuvan0fr,3ranct1zvjudkfv3v2wj66b80dyubo,25KKvSf1,2020-0188,2021-10-30,23:18:00,01:23:28,NA,incomplete,false,true,NA,NA,2,1,NA,black,m_l_019.jpg,NA,NA,NA,NA,NA,pleasant,unpleasant,NA,NA,NA,NA,NA,none,0,false,NA,NA,NA,NA,NA,NA,NA,NA
25KKvSf1,3087lxlj7ptluqx9bvztb5iuvan0fr,3ranct1zvjudkfv3v2wj66b80dyubo,25KKvSf1,2020-0188,2021-10-30,23:18:00,01:23:28,NA,incomplete,false,true,NA,NA,2,2,NA,black,n_s_024.jpg,NA,NA,NA,NA,NA,pleasant,unpleasant,NA,NA,NA,NA,NA,none,0,false,NA,NA,NA,NA,NA,NA,NA,NA
25KKvSf1,3087lxlj7ptluqx9bvztb5iuvan0fr,3ranct1zvjudkfv3v2wj66b80dyubo,25KKvSf1,2020-0188,2021-10-30,23:18:00,01:23:28,NA,incomplete,false,true,NA,NA,2,3,NA,black,m_s_015.jpg,NA,NA,NA,NA,NA,unpleasant,pleasant,NA,NA,NA,NA,NA,none,0,false,NA,NA,NA,NA,NA,NA,NA,NA
25KKvSf1,3087lxlj7ptluqx9bvztb5iuvan0fr,3ranct1zvjudkfv3v2wj66b80dyubo,25KKvSf1,2020-0188,2021-10-30,23:18:00,01:23:28,NA,incomplete,false,true,NA,NA,2,4,NA,black,n_l_049.jpg,NA,NA,NA,NA,NA,unpleasant,pleasant,NA,NA,NA,NA,NA,none,0,false,NA,NA,NA,NA,NA,NA,NA,NA
25KKvSf1,3087lxlj7ptluqx9bvztb5iuvan0fr,3ranct1zvjudkfv3v2wj66b80dyubo,25KKvSf1,2020-0188,2021-10-30,23:18:00,01:23:28,NA,incomplete,false,true,NA,NA,2,5,NA,black,n_s_032.jpg,NA,NA,NA,NA,NA,unpleasant,pleasant,NA,NA,NA,NA,NA,none,0,false,NA,NA,NA,NA,NA,NA,NA,NA
25KKvSf1,3087lxlj7ptluqx9bvztb5iuvan0fr,3ranct1zvjudkfv3v2wj66b80dyubo,25KKvSf1,2020-0188,2021-10-30,23:18:00,01:23:28,NA,incomplete,false,true,NA,NA,2,6,NA,purple,n_l_044.jpg,NA,NA,NA,NA,NA,unpleasant,pleasant,NA,NA,NA,NA,NA,none,0,false,NA,NA,NA,NA,NA,NA,NA,NA
25KKvSf1,3087lxlj7ptluqx9bvztb5iuvan0fr,3ranct1zvjudkfv3v2wj66b80dyubo,25KKvSf1,2020-0188,2021-10-30,23:18:00,01:23:28,NA,incomplete,false,true,NA,NA,2,7,NA,purple,m_s_060.jpg,NA,NA,NA,NA,NA,pleasant,unpleasant,NA,NA,NA,NA,NA,none,0,false,NA,NA,NA,NA,NA,NA,NA,NA
25KKvSf1,3087lxlj7ptluqx9bvztb5iuvan0fr,3ranct1zvjudkfv3v2wj66b80dyubo,25KKvSf1,2020-0188,2021-10-30,23:18:00,01:23:28,NA,incomplete,false,true,NA,NA,2,8,NA,purple,n_l_105.jpg,NA,NA,NA,NA,NA,pleasant,unpleasant,NA,NA,NA,NA,NA,none,0,false,NA,NA,NA,NA,NA,NA,NA,NA
25KKvSf1,3087lxlj7ptluqx9bvztb5iuvan0fr,3ranct1zvjudkfv3v2wj66b80dyubo,25KKvSf1,2020-0188,2021-10-30,23:18:00,01:23:28,NA,incomplete,false,true,NA,NA,2,9,NA,purple,n_s_104.jpg,NA,NA,NA,NA,NA,pleasant,unpleasant,NA,NA,NA,NA,NA,none,0,false,NA,NA,NA,NA,NA,NA,NA,NA
25KKvSf1,3087lxlj7ptluqx9bvztb5iuvan0fr,3ranct1zvjudkfv3v2wj66b80dyubo,25KKvSf1,2020-0188,2021-10-30,23:18:00,01:23:28,NA,incomplete,false,true,NA,NA,2,10,NA,purple,m_s_095.jpg,NA,NA,NA,NA,NA,unpleasant,pleasant,NA,NA,NA,NA,NA,none,0,false,NA,NA,NA,NA,NA,NA,NA,NA
25KKvSf1,3087lxlj7ptluqx9bvztb5iuvan0fr,3ranct1zvjudkfv3v2wj66b80dyubo,25KKvSf1,2020-0188,2021-10-30,23:18:00,01:23:28,NA,incomplete,false,true,NA,NA,2,11,NA,purple,m_l_109.jpg,NA,NA,NA,NA,NA,unpleasant,pleasant,NA,NA,NA,NA,NA,none,0,false,NA,NA,NA,NA,NA,NA,NA,NA
25KKvSf1,3087lxlj7ptluqx9bvztb5iuvan0fr,3ranct1zvjudkfv3v2wj66b80dyubo,25KKvSf1,2020-0188,2021-10-30,23:18:00,01:23:28,NA,incomplete,false,true,NA,NA,2,12,NA,red,m_s_077.jpg,NA,NA,NA,NA,NA,pleasant,unpleasant,NA,NA,NA,NA,NA,none,0,false,NA,NA,NA,NA,NA,NA,NA,NA
25KKvSf1,3087lxlj7ptluqx9bvztb5iuvan0fr,3ranct1zvjudkfv3v2wj66b80dyubo,25KKvSf1,2020-0188,2021-10-30,23:18:00,01:23:28,NA,incomplete,false,true,NA,NA,2,13,NA,red,m_s_007.jpg,NA,NA,NA,NA,NA,unpleasant,pleasant,NA,NA,NA,NA,NA,none,0,false,NA,NA,NA,NA,NA,NA,NA,NA
25KKvSf1,3087lxlj7ptluqx9bvztb5iuvan0fr,3ranct1zvjudkfv3v2wj66b80dyubo,25KKvSf1,2020-0188,2021-10-30,23:18:00,01:23:28,NA,incomplete,false,true,NA,NA,2,14,NA,red,m_s_068.jpg,NA,NA,NA,NA,NA,pleasant,unpleasant,NA,NA,NA,NA,NA,none,0,false,NA,NA,NA,NA,NA,NA,NA,NA
25KKvSf1,3087lxlj7ptluqx9bvztb5iuvan0fr,3ranct1zvjudkfv3v2wj66b80dyubo,25KKvSf1,2020-0188,2021-10-30,23:18:00,01:23:28,NA,incomplete,false,true,NA,NA,2,15,NA,red,n_l_020.jpg,NA,NA,NA,NA,NA,unpleasant,pleasant,NA,NA,NA,NA,NA,none,0,false,NA,NA,NA,NA,NA,NA,NA,NA
25KKvSf1,3087lxlj7ptluqx9bvztb5iuvan0fr,3ranct1zvjudkfv3v2wj66b80dyubo,25KKvSf1,2020-0188,2021-10-30,23:18:00,01:23:28,NA,incomplete,false,true,NA,NA,2,16,NA,red,n_s_053.jpg,NA,NA,NA,NA,NA,unpleasant,pleasant,NA,NA,NA,NA,NA,none,0,false,NA,NA,NA,NA,NA,NA,NA,NA
25KKvSf1,3087lxlj7ptluqx9bvztb5iuvan0fr,3ranct1zvjudkfv3v2wj66b80dyubo,25KKvSf1,2020-0188,2021-10-30,23:18:00,01:23:28,NA,incomplete,false,true,NA,NA,2,17,NA,red,n_s_100.jpg,NA,NA,NA,NA,NA,pleasant,unpleasant,NA,NA,NA,NA,NA,none,0,false,NA,NA,NA,NA,NA,NA,NA,NA
25KKvSf1,3087lxlj7ptluqx9bvztb5iuvan0fr,3ranct1zvjudkfv3v2wj66b80dyubo,25KKvSf1,2020-0188,2021-10-30,23:18:00,01:23:28,NA,incomplete,false,true,NA,NA,2,18,NA,brown,m_s_105.jpg,NA,NA,NA,NA,NA,unpleasant,pleasant,NA,NA,NA,NA,NA,none,0,false,NA,NA,NA,NA,NA,NA,NA,NA
25KKvSf1,3087lxlj7ptluqx9bvztb5iuvan0fr,3ranct1zvjudkfv3v2wj66b80dyubo,25KKvSf1,2020-0188,2021-10-30,23:18:00,01:23:28,NA,incomplete,false,true,NA,NA,2,19,NA,brown,n_s_111.jpg,NA,NA,NA,NA,NA,unpleasant,pleasant,NA,NA,NA,NA,NA,none,0,false,NA,NA,NA,NA,NA,NA,NA,NA
25KKvSf1,3087lxlj7ptluqx9bvztb5iuvan0fr,3ranct1zvjudkfv3v2wj66b80dyubo,25KKvSf1,2020-0188,2021-10-30,23:18:00,01:23:28,NA,incomplete,false,true,NA,NA,2,20,NA,brown,n_s_027.jpg,NA,NA,NA,NA,NA,unpleasant,pleasant,NA,NA,NA,NA,NA,left,2730.40000000037,true,NA,NA,NA,NA,NA,NA,NA,NA
25KKvSf1,3087lxlj7ptluqx9bvztb5iuvan0fr,3ranct1zvjudkfv3v2wj66b80dyubo,25KKvSf1,2020-0188,2021-10-30,23:18:00,01:23:28,NA,incomplete,false,true,NA,NA,2,21,NA,brown,n_s_063.jpg,NA,NA,NA,NA,NA,pleasant,unpleasant,NA,NA,NA,NA,NA,right,1230.09999999963,true,NA,NA,NA,NA,NA,NA,NA,NA
25KKvSf1,3087lxlj7ptluqx9bvztb5iuvan0fr,3ranct1zvjudkfv3v2wj66b80dyubo,25KKvSf1,2020-0188,2021-10-30,23:18:00,01:23:28,NA,incomplete,false,true,NA,NA,2,22,NA,brown,n_l_113.jpg,NA,NA,NA,NA,NA,unpleasant,pleasant,NA,NA,NA,NA,NA,right,953.900000000373,true,NA,NA,NA,NA,NA,NA,NA,NA
25KKvSf1,3087lxlj7ptluqx9bvztb5iuvan0fr,3ranct1zvjudkfv3v2wj66b80dyubo,25KKvSf1,2020-0188,2021-10-30,23:18:00,01:23:28,NA,incomplete,false,true,NA,NA,2,23,NA,brown,n_s_114.jpg,NA,NA,NA,NA,NA,unpleasant,pleasant,NA,NA,NA,NA,NA,right,935.700000001118,true,NA,NA,NA,NA,NA,NA,NA,NA
25KKvSf1,3087lxlj7ptluqx9bvztb5iuvan0fr,3ranct1zvjudkfv3v2wj66b80dyubo,25KKvSf1,2020-0188,2021-10-30,23:18:00,01:23:28,NA,incomplete,false,true,NA,NA,2,24,NA,white,n_l_100.jpg,NA,NA,NA,NA,NA,pleasant,unpleasant,NA,NA,NA,NA,NA,left,1202.30000000075,true,NA,NA,NA,NA,NA,NA,NA,NA
25KKvSf1,3087lxlj7ptluqx9bvztb5iuvan0fr,3ranct1zvjudkfv3v2wj66b80dyubo,25KKvSf1,2020-0188,2021-10-30,23:18:00,01:23:28,NA,incomplete,false,true,NA,NA,2,25,NA,white,m_s_072.jpg,NA,NA,NA,NA,NA,pleasant,unpleasant,NA,NA,NA,NA,NA,left,902.099999999627,true,NA,NA,NA,NA,NA,NA,NA,NA
25KKvSf1,3087lxlj7ptluqx9bvztb5iuvan0fr,3ranct1zvjudkfv3v2wj66b80dyubo,25KKvSf1,2020-0188,2021-10-30,23:18:00,01:23:28,NA,incomplete,false,true,NA,NA,2,26,NA,white,m_s_048.jpg,NA,NA,NA,NA,NA,unpleasant,pleasant,NA,NA,NA,NA,NA,right,868.099999999627,true,NA,NA,NA,NA,NA,NA,NA,NA
25KKvSf1,3087lxlj7ptluqx9bvztb5iuvan0fr,3ranct1zvjudkfv3v2wj66b80dyubo,25KKvSf1,2020-0188,2021-10-30,23:18:00,01:23:28,NA,incomplete,false,true,NA,NA,2,27,NA,white,n_s_069.jpg,NA,NA,NA,NA,NA,pleasant,unpleasant,NA,NA,NA,NA,NA,left,1054.5,true,NA,NA,NA,NA,NA,NA,NA,NA
25KKvSf1,3087lxlj7ptluqx9bvztb5iuvan0fr,3ranct1zvjudkfv3v2wj66b80dyubo,25KKvSf1,2020-0188,2021-10-30,23:18:00,01:23:28,NA,incomplete,false,true,NA,NA,2,28,NA,white,n_s_088.jpg,NA,NA,NA,NA,NA,unpleasant,pleasant,NA,NA,NA,NA,NA,right,1147.20000000112,true,NA,NA,NA,NA,NA,NA,NA,NA
25KKvSf1,3087lxlj7ptluqx9bvztb5iuvan0fr,3ranct1zvjudkfv3v2wj66b80dyubo,25KKvSf1,2020-0188,2021-10-30,23:18:00,01:23:28,NA,incomplete,false,true,NA,NA,2,29,NA,white,n_s_031.jpg,NA,NA,NA,NA,NA,unpleasant,pleasant,NA,NA,NA,NA,NA,right,824.900000000373,true,NA,NA,NA,NA,NA,NA,NA,NA
25KKvSf1,3087lxlj7ptluqx9bvztb5iuvan0fr,3ranct1zvjudkfv3v2wj66b80dyubo,25KKvSf1,2020-0188,2021-10-30,23:18:00,01:23:28,NA,incomplete,false,true,NA,NA,2,30,NA,yellow,m_l_009.jpg,NA,NA,NA,NA,NA,unpleasant,pleasant,NA,NA,NA,NA,NA,right,883.800000000745,true,NA,NA,NA,NA,NA,NA,NA,NA
25KKvSf1,3087lxlj7ptluqx9bvztb5iuvan0fr,3ranct1zvjudkfv3v2wj66b80dyubo,25KKvSf1,2020-0188,2021-10-30,23:18:00,01:23:28,NA,incomplete,false,true,NA,NA,2,31,NA,yellow,m_s_042.jpg,NA,NA,NA,NA,NA,pleasant,unpleasant,NA,NA,NA,NA,NA,left,984.400000000373,true,NA,NA,NA,NA,NA,NA,NA,NA
25KKvSf1,3087lxlj7ptluqx9bvztb5iuvan0fr,3ranct1zvjudkfv3v2wj66b80dyubo,25KKvSf1,2020-0188,2021-10-30,23:18:00,01:23:28,NA,incomplete,false,true,NA,NA,2,32,NA,yellow,n_s_023.jpg,NA,NA,NA,NA,NA,pleasant,unpleasant,NA,NA,NA,NA,NA,left,909.099999999627,true,NA,NA,NA,NA,NA,NA,NA,NA
25KKvSf1,3087lxlj7ptluqx9bvztb5iuvan0fr,3ranct1zvjudkfv3v2wj66b80dyubo,25KKvSf1,2020-0188,2021-10-30,23:18:00,01:23:28,NA,incomplete,false,true,NA,NA,2,33,NA,yellow,m_l_013.jpg,NA,NA,NA,NA,NA,pleasant,unpleasant,NA,NA,NA,NA,NA,left,960.900000000373,true,NA,NA,NA,NA,NA,NA,NA,NA
25KKvSf1,3087lxlj7ptluqx9bvztb5iuvan0fr,3ranct1zvjudkfv3v2wj66b80dyubo,25KKvSf1,2020-0188,2021-10-30,23:18:00,01:23:28,NA,incomplete,false,true,NA,NA,2,34,NA,yellow,n_l_007.jpg,NA,NA,NA,NA,NA,pleasant,unpleasant,NA,NA,NA,NA,NA,left,813.5,true,NA,NA,NA,NA,NA,NA,NA,NA
25KKvSf1,3087lxlj7ptluqx9bvztb5iuvan0fr,3ranct1zvjudkfv3v2wj66b80dyubo,25KKvSf1,2020-0188,2021-10-30,23:18:00,01:23:28,NA,incomplete,false,true,NA,NA,2,35,NA,yellow,n_s_006.jpg,NA,NA,NA,NA,NA,unpleasant,pleasant,NA,NA,NA,NA,NA,left,555.200000001118,true,NA,NA,NA,NA,NA,NA,NA,NA
25KKvSf1,3087lxlj7ptluqx9bvztb5iuvan0fr,3ranct1zvjudkfv3v2wj66b80dyubo,25KKvSf1,2020-0188,2021-10-30,23:18:00,01:23:28,NA,incomplete,false,NA,NA,true,2,0,NA,NA,NA,left,m_s_068.jpg,red,purple,NA,NA,NA,NA,NA,NA,NA,NA,NA,NaN,NA,8324.900000000373,left,1,NA,NA,NA,NA,NA
25KKvSf1,3087lxlj7ptluqx9bvztb5iuvan0fr,3ranct1zvjudkfv3v2wj66b80dyubo,25KKvSf1,2020-0188,2021-10-30,23:18:00,01:23:28,NA,incomplete,false,NA,NA,true,2,1,NA,NA,NA,right,n_s_031.jpg,yellow,white,NA,NA,NA,NA,NA,NA,NA,NA,NA,NaN,NA,11149.199999999255,right,1,NA,NA,NA,NA,NA
25KKvSf1,3087lxlj7ptluqx9bvztb5iuvan0fr,3ranct1zvjudkfv3v2wj66b80dyubo,25KKvSf1,2020-0188,2021-10-30,23:18:00,01:23:28,NA,incomplete,false,NA,NA,true,2,2,NA,NA,NA,left,m_l_109.jpg,purple,black,NA,NA,NA,NA,NA,NA,NA,NA,NA,NaN,NA,8357.099999999627,left,1,NA,NA,NA,NA,NA
25KKvSf1,3087lxlj7ptluqx9bvztb5iuvan0fr,3ranct1zvjudkfv3v2wj66b80dyubo,25KKvSf1,2020-0188,2021-10-30,23:18:00,01:23:28,NA,incomplete,false,NA,NA,true,2,3,NA,NA,NA,left,n_s_053.jpg,red,brown,NA,NA,NA,NA,NA,NA,NA,NA,NA,NaN,NA,10293.300000000745,left,1,NA,NA,NA,NA,NA
25KKvSf1,3087lxlj7ptluqx9bvztb5iuvan0fr,3ranct1zvjudkfv3v2wj66b80dyubo,25KKvSf1,2020-0188,2021-10-30,23:18:00,01:23:28,NA,incomplete,false,NA,NA,true,2,4,NA,NA,NA,left,m_s_048.jpg,white,brown,NA,NA,NA,NA,NA,NA,NA,NA,NA,NaN,NA,7581.9000000003725,left,1,NA,NA,NA,NA,NA
25KKvSf1,3087lxlj7ptluqx9bvztb5iuvan0fr,3ranct1zvjudkfv3v2wj66b80dyubo,25KKvSf1,2020-0188,2021-10-30,23:18:00,01:23:28,NA,incomplete,false,NA,NA,true,2,5,NA,NA,NA,left,m_s_060.jpg,purple,black,NA,NA,NA,NA,NA,NA,NA,NA,NA,NaN,NA,7659.300000000745,left,1,NA,NA,NA,NA,NA
25KKvSf1,3087lxlj7ptluqx9bvztb5iuvan0fr,3ranct1zvjudkfv3v2wj66b80dyubo,25KKvSf1,2020-0188,2021-10-30,23:18:00,01:23:28,NA,incomplete,false,NA,NA,true,2,6,NA,NA,NA,right,n_l_049.jpg,purple,black,NA,NA,NA,NA,NA,NA,NA,NA,NA,NaN,NA,4582.300000000745,right,1,NA,NA,NA,NA,NA
25KKvSf1,3087lxlj7ptluqx9bvztb5iuvan0fr,3ranct1zvjudkfv3v2wj66b80dyubo,25KKvSf1,2020-0188,2021-10-30,23:18:00,01:23:28,NA,incomplete,false,NA,NA,true,2,7,NA,NA,NA,left,n_s_027.jpg,brown,white,NA,NA,NA,NA,NA,NA,NA,NA,NA,NaN,NA,31478.099999999627,right,0,NA,NA,NA,NA,NA
25KKvSf1,3087lxlj7ptluqx9bvztb5iuvan0fr,3ranct1zvjudkfv3v2wj66b80dyubo,25KKvSf1,2020-0188,2021-10-30,23:18:00,01:23:28,NA,incomplete,false,NA,NA,true,2,8,NA,NA,NA,right,m_s_095.jpg,red,purple,NA,NA,NA,NA,NA,NA,NA,NA,NA,NaN,NA,4333.800000000745,right,1,NA,NA,NA,NA,NA
25KKvSf1,3087lxlj7ptluqx9bvztb5iuvan0fr,3ranct1zvjudkfv3v2wj66b80dyubo,25KKvSf1,2020-0188,2021-10-30,23:18:00,01:23:28,NA,incomplete,false,NA,NA,true,2,9,NA,NA,NA,left,n_s_111.jpg,brown,white,NA,NA,NA,NA,NA,NA,NA,NA,NA,NaN,NA,6677.699999999255,left,1,NA,NA,NA,NA,NA
25KKvSf1,3087lxlj7ptluqx9bvztb5iuvan0fr,3ranct1zvjudkfv3v2wj66b80dyubo,25KKvSf1,2020-0188,2021-10-30,23:18:00,01:23:28,NA,incomplete,false,NA,NA,true,2,10,NA,NA,NA,left,m_s_007.jpg,red,purple,NA,NA,NA,NA,NA,NA,NA,NA,NA,NaN,NA,10310.5,left,1,NA,NA,NA,NA,NA
25KKvSf1,3087lxlj7ptluqx9bvztb5iuvan0fr,3ranct1zvjudkfv3v2wj66b80dyubo,25KKvSf1,2020-0188,2021-10-30,23:18:00,01:23:28,NA,incomplete,false,NA,NA,true,2,11,NA,NA,NA,right,m_l_019.jpg,purple,black,NA,NA,NA,NA,NA,NA,NA,NA,NA,NaN,NA,15900.599999999627,left,0,NA,NA,NA,NA,NA
25KKvSf1,3087lxlj7ptluqx9bvztb5iuvan0fr,3ranct1zvjudkfv3v2wj66b80dyubo,25KKvSf1,2020-0188,2021-10-30,23:18:00,01:23:28,NA,incomplete,false,NA,NA,true,2,12,NA,NA,NA,left,n_l_105.jpg,purple,black,NA,NA,NA,NA,NA,NA,NA,NA,NA,NaN,NA,3292.10000000149,right,0,NA,NA,NA,NA,NA
25KKvSf1,3087lxlj7ptluqx9bvztb5iuvan0fr,3ranct1zvjudkfv3v2wj66b80dyubo,25KKvSf1,2020-0188,2021-10-30,23:18:00,01:23:28,NA,incomplete,false,NA,NA,true,2,13,NA,NA,NA,left,n_s_114.jpg,brown,red,NA,NA,NA,NA,NA,NA,NA,NA,NA,NaN,NA,15622.099999999627,left,1,NA,NA,NA,NA,NA
25KKvSf1,3087lxlj7ptluqx9bvztb5iuvan0fr,3ranct1zvjudkfv3v2wj66b80dyubo,25KKvSf1,2020-0188,2021-10-30,23:18:00,01:23:28,NA,incomplete,false,NA,NA,true,2,14,NA,NA,NA,right,n_s_100.jpg,brown,red,NA,NA,NA,NA,NA,NA,NA,NA,NA,NaN,NA,7013.300000000745,right,1,NA,NA,NA,NA,NA
25KKvSf1,3087lxlj7ptluqx9bvztb5iuvan0fr,3ranct1zvjudkfv3v2wj66b80dyubo,25KKvSf1,2020-0188,2021-10-30,23:18:00,01:23:28,NA,incomplete,false,NA,NA,true,2,15,NA,NA,NA,right,n_s_006.jpg,white,yellow,NA,NA,NA,NA,NA,NA,NA,NA,NA,NaN,NA,9141.300000000745,right,1,NA,NA,NA,NA,NA
25KKvSf1,3087lxlj7ptluqx9bvztb5iuvan0fr,3ranct1zvjudkfv3v2wj66b80dyubo,25KKvSf1,2020-0188,2021-10-30,23:18:00,01:23:28,NA,incomplete,false,NA,NA,true,2,16,NA,NA,NA,right,m_s_042.jpg,white,yellow,NA,NA,NA,NA,NA,NA,NA,NA,NA,NaN,NA,12085.39999999851,right,1,NA,NA,NA,NA,NA
25KKvSf1,3087lxlj7ptluqx9bvztb5iuvan0fr,3ranct1zvjudkfv3v2wj66b80dyubo,25KKvSf1,2020-0188,2021-10-30,23:18:00,01:23:28,NA,incomplete,false,NA,NA,true,2,17,NA,NA,NA,right,m_s_072.jpg,yellow,white,NA,NA,NA,NA,NA,NA,NA,NA,NA,NaN,NA,10862.300000000745,right,1,NA,NA,NA,NA,NA
25KKvSf1,3087lxlj7ptluqx9bvztb5iuvan0fr,3ranct1zvjudkfv3v2wj66b80dyubo,25KKvSf1,2020-0188,2021-10-30,23:18:00,01:23:28,NA,incomplete,false,NA,NA,true,2,18,NA,NA,NA,left,n_s_088.jpg,white,brown,NA,NA,NA,NA,NA,NA,NA,NA,NA,NaN,NA,16037,left,1,NA,NA,NA,NA,NA
25KKvSf1,3087lxlj7ptluqx9bvztb5iuvan0fr,3ranct1zvjudkfv3v2wj66b80dyubo,25KKvSf1,2020-0188,2021-10-30,23:18:00,01:23:28,NA,incomplete,false,NA,NA,true,2,19,NA,NA,NA,left,n_l_113.jpg,brown,white,NA,NA,NA,NA,NA,NA,NA,NA,NA,NaN,NA,7741,left,1,NA,NA,NA,NA,NA
25KKvSf1,3087lxlj7ptluqx9bvztb5iuvan0fr,3ranct1zvjudkfv3v2wj66b80dyubo,25KKvSf1,2020-0188,2021-10-30,23:18:00,01:23:28,NA,incomplete,false,NA,NA,true,2,20,NA,NA,NA,right,n_s_032.jpg,purple,black,NA,NA,NA,NA,NA,NA,NA,NA,NA,NaN,NA,7909.5,right,1,NA,NA,NA,NA,NA
25KKvSf1,3087lxlj7ptluqx9bvztb5iuvan0fr,3ranct1zvjudkfv3v2wj66b80dyubo,25KKvSf1,2020-0188,2021-10-30,23:18:00,01:23:28,NA,incomplete,false,NA,NA,true,2,21,NA,NA,NA,left,n_s_023.jpg,yellow,white,NA,NA,NA,NA,NA,NA,NA,NA,NA,NaN,NA,16532.699999999255,left,1,NA,NA,NA,NA,NA
25KKvSf1,3087lxlj7ptluqx9bvztb5iuvan0fr,3ranct1zvjudkfv3v2wj66b80dyubo,25KKvSf1,2020-0188,2021-10-30,23:18:00,01:23:28,NA,incomplete,false,NA,true,NA,2,0,NA,NA,NA,right,NA,NA,NA,absent,NA,NA,n_s_031.jpg,white,m_s_072.jpg,white,within,NA,NaN,NA,NA,NA,NA,right,31650.200000001118,1,2,1251.8999999985099
25KKvSf1,3087lxlj7ptluqx9bvztb5iuvan0fr,3ranct1zvjudkfv3v2wj66b80dyubo,25KKvSf1,2020-0188,2021-10-30,23:18:00,01:23:28,NA,incomplete,false,NA,true,NA,2,1,NA,NA,NA,right,NA,NA,NA,absent,NA,NA,n_s_114.jpg,brown,n_s_111.jpg,brown,within,NA,NaN,NA,NA,NA,NA,right,9691.400000000373,1,1,1123.199999999255
25KKvSf1,3087lxlj7ptluqx9bvztb5iuvan0fr,3ranct1zvjudkfv3v2wj66b80dyubo,25KKvSf1,2020-0188,2021-10-30,23:18:00,01:23:28,NA,incomplete,false,NA,true,NA,2,2,NA,NA,NA,right,NA,NA,NA,absent,NA,NA,n_s_023.jpg,yellow,n_s_088.jpg,white,between,NA,NaN,NA,NA,NA,NA,right,30939.60000000149,1,2,1275.5
25KKvSf1,3087lxlj7ptluqx9bvztb5iuvan0fr,3ranct1zvjudkfv3v2wj66b80dyubo,25KKvSf1,2020-0188,2021-10-30,23:18:00,01:23:28,NA,incomplete,false,NA,true,NA,2,3,NA,NA,NA,left,NA,NA,NA,absent,NA,NA,m_l_019.jpg,black,n_s_032.jpg,black,within,NA,NaN,NA,NA,NA,NA,left,23003,1,1,812.7999999988824
25KKvSf1,3087lxlj7ptluqx9bvztb5iuvan0fr,3ranct1zvjudkfv3v2wj66b80dyubo,25KKvSf1,2020-0188,2021-10-30,23:18:00,01:23:28,NA,incomplete,false,NA,true,NA,2,4,NA,NA,NA,left,NA,NA,NA,absent,NA,NA,m_s_095.jpg,purple,m_s_068.jpg,red,between,NA,NaN,NA,NA,NA,NA,left,8579.199999999255,1,1,1355.5999999996275
25KKvSf1,3087lxlj7ptluqx9bvztb5iuvan0fr,3ranct1zvjudkfv3v2wj66b80dyubo,25KKvSf1,2020-0188,2021-10-30,23:18:00,01:23:28,NA,incomplete,false,NA,true,NA,2,5,NA,NA,NA,right,NA,NA,NA,absent,NA,NA,n_s_006.jpg,yellow,m_s_042.jpg,yellow,within,NA,NaN,NA,NA,NA,NA,right,19693.799999998882,1,1,1126.300000000745
25KKvSf1,3087lxlj7ptluqx9bvztb5iuvan0fr,3ranct1zvjudkfv3v2wj66b80dyubo,25KKvSf1,2020-0188,2021-10-30,23:18:00,01:23:28,NA,incomplete,false,NA,true,NA,2,6,NA,NA,NA,right,NA,NA,NA,absent,NA,NA,n_s_100.jpg,red,m_s_007.jpg,red,within,NA,NaN,NA,NA,NA,NA,right,11158.099999999627,1,2,1062.2999999988824
25KKvSf1,3087lxlj7ptluqx9bvztb5iuvan0fr,3ranct1zvjudkfv3v2wj66b80dyubo,25KKvSf1,2020-0188,2021-10-30,23:18:00,01:23:28,NA,incomplete,false,NA,true,NA,2,7,NA,NA,NA,right,NA,NA,NA,absent,NA,NA,n_s_027.jpg,brown,n_s_053.jpg,red,between,NA,NaN,NA,NA,NA,NA,right,29453,1,1,2654.0999999996275
25KKvSf1,3087lxlj7ptluqx9bvztb5iuvan0fr,3ranct1zvjudkfv3v2wj66b80dyubo,25KKvSf1,2020-0188,2021-10-30,23:18:00,01:23:28,NA,incomplete,false,NA,true,NA,2,8,NA,NA,NA,left,NA,NA,NA,absent,NA,NA,n_l_113.jpg,brown,m_s_048.jpg,white,between,NA,NaN,NA,NA,NA,NA,left,37029.5,1,1,1918
25KKvSf1,3087lxlj7ptluqx9bvztb5iuvan0fr,3ranct1zvjudkfv3v2wj66b80dyubo,25KKvSf1,2020-0188,2021-10-30,23:18:00,01:23:28,NA,incomplete,false,NA,true,NA,2,9,NA,NA,NA,left,NA,NA,NA,absent,NA,NA,m_s_060.jpg,purple,m_l_109.jpg,purple,within,NA,NaN,NA,NA,NA,NA,left,12677.599999999627,1,1,1261.5
25KKvSf1,3087lxlj7ptluqx9bvztb5iuvan0fr,3ranct1zvjudkfv3v2wj66b80dyubo,25KKvSf1,2020-0188,2021-10-30,23:18:00,01:23:28,NA,incomplete,false,NA,true,NA,2,10,NA,NA,NA,right,NA,NA,NA,absent,NA,NA,n_l_105.jpg,purple,n_l_049.jpg,black,between,NA,NaN,NA,NA,NA,NA,right,39628.5,1,1,2053.9000000003725
25KKvSf1,3087lxlj7ptluqx9bvztb5iuvan0fr,3ranct1zvjudkfv3v2wj66b80dyubo,25KKvSf1,2020-0188,2021-10-30,23:18:00,01:23:28,NA,incomplete,false,true,NA,NA,3,0,NA,black,m_l_074.jpg,NA,NA,NA,NA,NA,unpleasant,pleasant,NA,NA,NA,NA,NA,none,0,false,NA,NA,NA,NA,NA,NA,NA,NA
25KKvSf1,3087lxlj7ptluqx9bvztb5iuvan0fr,3ranct1zvjudkfv3v2wj66b80dyubo,25KKvSf1,2020-0188,2021-10-30,23:18:00,01:23:28,NA,incomplete,false,true,NA,NA,3,1,NA,black,m_l_007.jpg,NA,NA,NA,NA,NA,unpleasant,pleasant,NA,NA,NA,NA,NA,none,0,false,NA,NA,NA,NA,NA,NA,NA,NA
25KKvSf1,3087lxlj7ptluqx9bvztb5iuvan0fr,3ranct1zvjudkfv3v2wj66b80dyubo,25KKvSf1,2020-0188,2021-10-30,23:18:00,01:23:28,NA,incomplete,false,true,NA,NA,3,2,NA,black,m_l_011.jpg,NA,NA,NA,NA,NA,pleasant,unpleasant,NA,NA,NA,NA,NA,none,0,false,NA,NA,NA,NA,NA,NA,NA,NA
25KKvSf1,3087lxlj7ptluqx9bvztb5iuvan0fr,3ranct1zvjudkfv3v2wj66b80dyubo,25KKvSf1,2020-0188,2021-10-30,23:18:00,01:23:28,NA,incomplete,false,true,NA,NA,3,3,NA,black,m_l_084.jpg,NA,NA,NA,NA,NA,unpleasant,pleasant,NA,NA,NA,NA,NA,right,1630.80000000075,true,NA,NA,NA,NA,NA,NA,NA,NA
25KKvSf1,3087lxlj7ptluqx9bvztb5iuvan0fr,3ranct1zvjudkfv3v2wj66b80dyubo,25KKvSf1,2020-0188,2021-10-30,23:18:00,01:23:28,NA,incomplete,false,true,NA,NA,3,4,NA,black,m_l_012.jpg,NA,NA,NA,NA,NA,pleasant,unpleasant,NA,NA,NA,NA,NA,right,1715.90000000037,true,NA,NA,NA,NA,NA,NA,NA,NA
25KKvSf1,3087lxlj7ptluqx9bvztb5iuvan0fr,3ranct1zvjudkfv3v2wj66b80dyubo,25KKvSf1,2020-0188,2021-10-30,23:18:00,01:23:28,NA,incomplete,false,true,NA,NA,3,5,NA,black,n_s_042.jpg,NA,NA,NA,NA,NA,unpleasant,pleasant,NA,NA,NA,NA,NA,left,1489.20000000112,true,NA,NA,NA,NA,NA,NA,NA,NA
25KKvSf1,3087lxlj7ptluqx9bvztb5iuvan0fr,3ranct1zvjudkfv3v2wj66b80dyubo,25KKvSf1,2020-0188,2021-10-30,23:18:00,01:23:28,NA,incomplete,false,true,NA,NA,3,6,NA,gray,n_s_055.jpg,NA,NA,NA,NA,NA,unpleasant,pleasant,NA,NA,NA,NA,NA,right,1531.89999999851,true,NA,NA,NA,NA,NA,NA,NA,NA
25KKvSf1,3087lxlj7ptluqx9bvztb5iuvan0fr,3ranct1zvjudkfv3v2wj66b80dyubo,25KKvSf1,2020-0188,2021-10-30,23:18:00,01:23:28,NA,incomplete,false,true,NA,NA,3,7,NA,gray,m_s_041.jpg,NA,NA,NA,NA,NA,unpleasant,pleasant,NA,NA,NA,NA,NA,right,905,true,NA,NA,NA,NA,NA,NA,NA,NA
25KKvSf1,3087lxlj7ptluqx9bvztb5iuvan0fr,3ranct1zvjudkfv3v2wj66b80dyubo,25KKvSf1,2020-0188,2021-10-30,23:18:00,01:23:28,NA,incomplete,false,true,NA,NA,3,8,NA,gray,n_l_046.jpg,NA,NA,NA,NA,NA,unpleasant,pleasant,NA,NA,NA,NA,NA,right,710.599999999627,true,NA,NA,NA,NA,NA,NA,NA,NA
25KKvSf1,3087lxlj7ptluqx9bvztb5iuvan0fr,3ranct1zvjudkfv3v2wj66b80dyubo,25KKvSf1,2020-0188,2021-10-30,23:18:00,01:23:28,NA,incomplete,false,true,NA,NA,3,9,NA,gray,m_s_003.jpg,NA,NA,NA,NA,NA,pleasant,unpleasant,NA,NA,NA,NA,NA,left,1458.59999999963,true,NA,NA,NA,NA,NA,NA,NA,NA
25KKvSf1,3087lxlj7ptluqx9bvztb5iuvan0fr,3ranct1zvjudkfv3v2wj66b80dyubo,25KKvSf1,2020-0188,2021-10-30,23:18:00,01:23:28,NA,incomplete,false,true,NA,NA,3,10,NA,gray,m_l_100.jpg,NA,NA,NA,NA,NA,pleasant,unpleasant,NA,NA,NA,NA,NA,left,838.099999999627,true,NA,NA,NA,NA,NA,NA,NA,NA
25KKvSf1,3087lxlj7ptluqx9bvztb5iuvan0fr,3ranct1zvjudkfv3v2wj66b80dyubo,25KKvSf1,2020-0188,2021-10-30,23:18:00,01:23:28,NA,incomplete,false,true,NA,NA,3,11,NA,gray,n_l_069.jpg,NA,NA,NA,NA,NA,pleasant,unpleasant,NA,NA,NA,NA,NA,left,1331.80000000075,true,NA,NA,NA,NA,NA,NA,NA,NA
25KKvSf1,3087lxlj7ptluqx9bvztb5iuvan0fr,3ranct1zvjudkfv3v2wj66b80dyubo,25KKvSf1,2020-0188,2021-10-30,23:18:00,01:23:28,NA,incomplete,false,true,NA,NA,3,12,NA,green,m_l_114.jpg,NA,NA,NA,NA,NA,unpleasant,pleasant,NA,NA,NA,NA,NA,right,2071.5,true,NA,NA,NA,NA,NA,NA,NA,NA
25KKvSf1,3087lxlj7ptluqx9bvztb5iuvan0fr,3ranct1zvjudkfv3v2wj66b80dyubo,25KKvSf1,2020-0188,2021-10-30,23:18:00,01:23:28,NA,incomplete,false,true,NA,NA,3,13,NA,green,n_l_017.jpg,NA,NA,NA,NA,NA,pleasant,unpleasant,NA,NA,NA,NA,NA,left,907.099999999627,true,NA,NA,NA,NA,NA,NA,NA,NA
25KKvSf1,3087lxlj7ptluqx9bvztb5iuvan0fr,3ranct1zvjudkfv3v2wj66b80dyubo,25KKvSf1,2020-0188,2021-10-30,23:18:00,01:23:28,NA,incomplete,false,true,NA,NA,3,14,NA,green,m_s_032.jpg,NA,NA,NA,NA,NA,unpleasant,pleasant,NA,NA,NA,NA,NA,right,1023.90000000037,true,NA,NA,NA,NA,NA,NA,NA,NA
25KKvSf1,3087lxlj7ptluqx9bvztb5iuvan0fr,3ranct1zvjudkfv3v2wj66b80dyubo,25KKvSf1,2020-0188,2021-10-30,23:18:00,01:23:28,NA,incomplete,false,true,NA,NA,3,15,NA,green,m_l_004.jpg,NA,NA,NA,NA,NA,pleasant,unpleasant,NA,NA,NA,NA,NA,left,2090.5,true,NA,NA,NA,NA,NA,NA,NA,NA
25KKvSf1,3087lxlj7ptluqx9bvztb5iuvan0fr,3ranct1zvjudkfv3v2wj66b80dyubo,25KKvSf1,2020-0188,2021-10-30,23:18:00,01:23:28,NA,incomplete,false,true,NA,NA,3,16,NA,green,n_s_014.jpg,NA,NA,NA,NA,NA,unpleasant,pleasant,NA,NA,NA,NA,NA,right,1687.30000000075,true,NA,NA,NA,NA,NA,NA,NA,NA
25KKvSf1,3087lxlj7ptluqx9bvztb5iuvan0fr,3ranct1zvjudkfv3v2wj66b80dyubo,25KKvSf1,2020-0188,2021-10-30,23:18:00,01:23:28,NA,incomplete,false,true,NA,NA,3,17,NA,green,n_l_117.jpg,NA,NA,NA,NA,NA,pleasant,unpleasant,NA,NA,NA,NA,NA,left,2116,true,NA,NA,NA,NA,NA,NA,NA,NA
25KKvSf1,3087lxlj7ptluqx9bvztb5iuvan0fr,3ranct1zvjudkfv3v2wj66b80dyubo,25KKvSf1,2020-0188,2021-10-30,23:18:00,01:23:28,NA,incomplete,false,true,NA,NA,3,18,NA,blue,n_l_094.jpg,NA,NA,NA,NA,NA,unpleasant,pleasant,NA,NA,NA,NA,NA,right,999.699999999255,true,NA,NA,NA,NA,NA,NA,NA,NA
25KKvSf1,3087lxlj7ptluqx9bvztb5iuvan0fr,3ranct1zvjudkfv3v2wj66b80dyubo,25KKvSf1,2020-0188,2021-10-30,23:18:00,01:23:28,NA,incomplete,false,true,NA,NA,3,19,NA,blue,m_s_018.jpg,NA,NA,NA,NA,NA,unpleasant,pleasant,NA,NA,NA,NA,NA,right,1268.5,true,NA,NA,NA,NA,NA,NA,NA,NA
25KKvSf1,3087lxlj7ptluqx9bvztb5iuvan0fr,3ranct1zvjudkfv3v2wj66b80dyubo,25KKvSf1,2020-0188,2021-10-30,23:18:00,01:23:28,NA,incomplete,false,true,NA,NA,3,20,NA,blue,n_s_025.jpg,NA,NA,NA,NA,NA,unpleasant,pleasant,NA,NA,NA,NA,NA,right,1345.19999999925,true,NA,NA,NA,NA,NA,NA,NA,NA
25KKvSf1,3087lxlj7ptluqx9bvztb5iuvan0fr,3ranct1zvjudkfv3v2wj66b80dyubo,25KKvSf1,2020-0188,2021-10-30,23:18:00,01:23:28,NA,incomplete,false,true,NA,NA,3,21,NA,blue,m_l_034.jpg,NA,NA,NA,NA,NA,pleasant,unpleasant,NA,NA,NA,NA,NA,left,949,true,NA,NA,NA,NA,NA,NA,NA,NA
25KKvSf1,3087lxlj7ptluqx9bvztb5iuvan0fr,3ranct1zvjudkfv3v2wj66b80dyubo,25KKvSf1,2020-0188,2021-10-30,23:18:00,01:23:28,NA,incomplete,false,true,NA,NA,3,22,NA,blue,m_l_112.jpg,NA,NA,NA,NA,NA,unpleasant,pleasant,NA,NA,NA,NA,NA,right,1097.70000000112,true,NA,NA,NA,NA,NA,NA,NA,NA
25KKvSf1,3087lxlj7ptluqx9bvztb5iuvan0fr,3ranct1zvjudkfv3v2wj66b80dyubo,25KKvSf1,2020-0188,2021-10-30,23:18:00,01:23:28,NA,incomplete,false,true,NA,NA,3,23,NA,blue,m_l_027.jpg,NA,NA,NA,NA,NA,unpleasant,pleasant,NA,NA,NA,NA,NA,right,1215,true,NA,NA,NA,NA,NA,NA,NA,NA
25KKvSf1,3087lxlj7ptluqx9bvztb5iuvan0fr,3ranct1zvjudkfv3v2wj66b80dyubo,25KKvSf1,2020-0188,2021-10-30,23:18:00,01:23:28,NA,incomplete,false,true,NA,NA,3,24,NA,purple,m_l_111.jpg,NA,NA,NA,NA,NA,unpleasant,pleasant,NA,NA,NA,NA,NA,right,939.299999998882,true,NA,NA,NA,NA,NA,NA,NA,NA
25KKvSf1,3087lxlj7ptluqx9bvztb5iuvan0fr,3ranct1zvjudkfv3v2wj66b80dyubo,25KKvSf1,2020-0188,2021-10-30,23:18:00,01:23:28,NA,incomplete,false,true,NA,NA,3,25,NA,purple,n_s_080.jpg,NA,NA,NA,NA,NA,pleasant,unpleasant,NA,NA,NA,NA,NA,left,1326.79999999888,true,NA,NA,NA,NA,NA,NA,NA,NA
25KKvSf1,3087lxlj7ptluqx9bvztb5iuvan0fr,3ranct1zvjudkfv3v2wj66b80dyubo,25KKvSf1,2020-0188,2021-10-30,23:18:00,01:23:28,NA,incomplete,false,true,NA,NA,3,26,NA,purple,n_s_112.jpg,NA,NA,NA,NA,NA,unpleasant,pleasant,NA,NA,NA,NA,NA,right,652.099999999627,true,NA,NA,NA,NA,NA,NA,NA,NA
25KKvSf1,3087lxlj7ptluqx9bvztb5iuvan0fr,3ranct1zvjudkfv3v2wj66b80dyubo,25KKvSf1,2020-0188,2021-10-30,23:18:00,01:23:28,NA,incomplete,false,true,NA,NA,3,27,NA,purple,m_l_096.jpg,NA,NA,NA,NA,NA,pleasant,unpleasant,NA,NA,NA,NA,NA,left,855.200000001118,true,NA,NA,NA,NA,NA,NA,NA,NA
25KKvSf1,3087lxlj7ptluqx9bvztb5iuvan0fr,3ranct1zvjudkfv3v2wj66b80dyubo,25KKvSf1,2020-0188,2021-10-30,23:18:00,01:23:28,NA,incomplete,false,true,NA,NA,3,28,NA,purple,m_s_029.jpg,NA,NA,NA,NA,NA,unpleasant,pleasant,NA,NA,NA,NA,NA,right,700.10000000149,true,NA,NA,NA,NA,NA,NA,NA,NA
25KKvSf1,3087lxlj7ptluqx9bvztb5iuvan0fr,3ranct1zvjudkfv3v2wj66b80dyubo,25KKvSf1,2020-0188,2021-10-30,23:18:00,01:23:28,NA,incomplete,false,true,NA,NA,3,29,NA,purple,n_s_066.jpg,NA,NA,NA,NA,NA,pleasant,unpleasant,NA,NA,NA,NA,NA,left,841.799999998882,true,NA,NA,NA,NA,NA,NA,NA,NA
25KKvSf1,3087lxlj7ptluqx9bvztb5iuvan0fr,3ranct1zvjudkfv3v2wj66b80dyubo,25KKvSf1,2020-0188,2021-10-30,23:18:00,01:23:28,NA,incomplete,false,true,NA,NA,3,30,NA,white,m_s_076.jpg,NA,NA,NA,NA,NA,unpleasant,pleasant,NA,NA,NA,NA,NA,right,1237.29999999888,true,NA,NA,NA,NA,NA,NA,NA,NA
25KKvSf1,3087lxlj7ptluqx9bvztb5iuvan0fr,3ranct1zvjudkfv3v2wj66b80dyubo,25KKvSf1,2020-0188,2021-10-30,23:18:00,01:23:28,NA,incomplete,false,true,NA,NA,3,31,NA,white,m_s_046.jpg,NA,NA,NA,NA,NA,unpleasant,pleasant,NA,NA,NA,NA,NA,right,1345.19999999925,true,NA,NA,NA,NA,NA,NA,NA,NA
25KKvSf1,3087lxlj7ptluqx9bvztb5iuvan0fr,3ranct1zvjudkfv3v2wj66b80dyubo,25KKvSf1,2020-0188,2021-10-30,23:18:00,01:23:28,NA,incomplete,false,true,NA,NA,3,32,NA,white,m_l_058.jpg,NA,NA,NA,NA,NA,pleasant,unpleasant,NA,NA,NA,NA,NA,left,1326.80000000075,true,NA,NA,NA,NA,NA,NA,NA,NA
25KKvSf1,3087lxlj7ptluqx9bvztb5iuvan0fr,3ranct1zvjudkfv3v2wj66b80dyubo,25KKvSf1,2020-0188,2021-10-30,23:18:00,01:23:28,NA,incomplete,false,true,NA,NA,3,33,NA,white,n_s_034.jpg,NA,NA,NA,NA,NA,pleasant,unpleasant,NA,NA,NA,NA,NA,left,642,true,NA,NA,NA,NA,NA,NA,NA,NA
25KKvSf1,3087lxlj7ptluqx9bvztb5iuvan0fr,3ranct1zvjudkfv3v2wj66b80dyubo,25KKvSf1,2020-0188,2021-10-30,23:18:00,01:23:28,NA,incomplete,false,true,NA,NA,3,34,NA,white,n_l_073.jpg,NA,NA,NA,NA,NA,pleasant,unpleasant,NA,NA,NA,NA,NA,left,719.200000001118,true,NA,NA,NA,NA,NA,NA,NA,NA
25KKvSf1,3087lxlj7ptluqx9bvztb5iuvan0fr,3ranct1zvjudkfv3v2wj66b80dyubo,25KKvSf1,2020-0188,2021-10-30,23:18:00,01:23:28,NA,incomplete,false,true,NA,NA,3,35,NA,white,n_s_099.jpg,NA,NA,NA,NA,NA,unpleasant,pleasant,NA,NA,NA,NA,NA,right,883.89999999851,true,NA,NA,NA,NA,NA,NA,NA,NA
25KKvSf1,3087lxlj7ptluqx9bvztb5iuvan0fr,3ranct1zvjudkfv3v2wj66b80dyubo,25KKvSf1,2020-0188,2021-10-30,23:18:00,01:23:28,NA,incomplete,false,NA,NA,true,3,0,NA,NA,NA,left,m_l_007.jpg,black,gray,NA,NA,NA,NA,NA,NA,NA,NA,NA,NaN,NA,20220.200000001118,right,0,NA,NA,NA,NA,NA
25KKvSf1,3087lxlj7ptluqx9bvztb5iuvan0fr,3ranct1zvjudkfv3v2wj66b80dyubo,25KKvSf1,2020-0188,2021-10-30,23:18:00,01:23:28,NA,incomplete,false,NA,NA,true,3,1,NA,NA,NA,left,m_l_100.jpg,gray,black,NA,NA,NA,NA,NA,NA,NA,NA,NA,NaN,NA,1286.800000000745,left,1,NA,NA,NA,NA,NA
25KKvSf1,3087lxlj7ptluqx9bvztb5iuvan0fr,3ranct1zvjudkfv3v2wj66b80dyubo,25KKvSf1,2020-0188,2021-10-30,23:18:00,01:23:28,NA,incomplete,false,NA,NA,true,3,2,NA,NA,NA,left,n_s_042.jpg,black,gray,NA,NA,NA,NA,NA,NA,NA,NA,NA,NaN,NA,805.7999999988824,right,0,NA,NA,NA,NA,NA
25KKvSf1,3087lxlj7ptluqx9bvztb5iuvan0fr,3ranct1zvjudkfv3v2wj66b80dyubo,25KKvSf1,2020-0188,2021-10-30,23:18:00,01:23:28,NA,incomplete,false,NA,NA,true,3,3,NA,NA,NA,left,n_s_080.jpg,purple,blue,NA,NA,NA,NA,NA,NA,NA,NA,NA,NaN,NA,2293.7000000011176,left,1,NA,NA,NA,NA,NA
25KKvSf1,3087lxlj7ptluqx9bvztb5iuvan0fr,3ranct1zvjudkfv3v2wj66b80dyubo,25KKvSf1,2020-0188,2021-10-30,23:18:00,01:23:28,NA,incomplete,false,NA,NA,true,3,4,NA,NA,NA,right,m_l_012.jpg,gray,black,NA,NA,NA,NA,NA,NA,NA,NA,NA,NaN,NA,1318,right,1,NA,NA,NA,NA,NA
25KKvSf1,3087lxlj7ptluqx9bvztb5iuvan0fr,3ranct1zvjudkfv3v2wj66b80dyubo,25KKvSf1,2020-0188,2021-10-30,23:18:00,01:23:28,NA,incomplete,false,NA,NA,true,3,5,NA,NA,NA,right,m_s_046.jpg,purple,white,NA,NA,NA,NA,NA,NA,NA,NA,NA,NaN,NA,925.9000000003725,right,1,NA,NA,NA,NA,NA
25KKvSf1,3087lxlj7ptluqx9bvztb5iuvan0fr,3ranct1zvjudkfv3v2wj66b80dyubo,25KKvSf1,2020-0188,2021-10-30,23:18:00,01:23:28,NA,incomplete,false,NA,NA,true,3,6,NA,NA,NA,left,m_l_112.jpg,blue,purple,NA,NA,NA,NA,NA,NA,NA,NA,NA,NaN,NA,1261.8999999985099,left,1,NA,NA,NA,NA,NA
25KKvSf1,3087lxlj7ptluqx9bvztb5iuvan0fr,3ranct1zvjudkfv3v2wj66b80dyubo,25KKvSf1,2020-0188,2021-10-30,23:18:00,01:23:28,NA,incomplete,false,NA,NA,true,3,7,NA,NA,NA,left,n_s_112.jpg,purple,blue,NA,NA,NA,NA,NA,NA,NA,NA,NA,NaN,NA,1060.8999999985099,right,0,NA,NA,NA,NA,NA
25KKvSf1,3087lxlj7ptluqx9bvztb5iuvan0fr,3ranct1zvjudkfv3v2wj66b80dyubo,25KKvSf1,2020-0188,2021-10-30,23:18:00,01:23:28,NA,incomplete,false,NA,NA,true,3,8,NA,NA,NA,right,m_s_029.jpg,white,purple,NA,NA,NA,NA,NA,NA,NA,NA,NA,NaN,NA,1141.9000000003725,left,0,NA,NA,NA,NA,NA
25KKvSf1,3087lxlj7ptluqx9bvztb5iuvan0fr,3ranct1zvjudkfv3v2wj66b80dyubo,25KKvSf1,2020-0188,2021-10-30,23:18:00,01:23:28,NA,incomplete,false,NA,NA,true,3,9,NA,NA,NA,left,m_s_041.jpg,gray,green,NA,NA,NA,NA,NA,NA,NA,NA,NA,NaN,NA,1133.9000000003725,right,0,NA,NA,NA,NA,NA
25KKvSf1,3087lxlj7ptluqx9bvztb5iuvan0fr,3ranct1zvjudkfv3v2wj66b80dyubo,25KKvSf1,2020-0188,2021-10-30,23:18:00,01:23:28,NA,incomplete,false,NA,NA,true,3,10,NA,NA,NA,left,m_l_058.jpg,white,purple,NA,NA,NA,NA,NA,NA,NA,NA,NA,NaN,NA,1421.9000000003725,left,1,NA,NA,NA,NA,NA
25KKvSf1,3087lxlj7ptluqx9bvztb5iuvan0fr,3ranct1zvjudkfv3v2wj66b80dyubo,25KKvSf1,2020-0188,2021-10-30,23:18:00,01:23:28,NA,incomplete,false,NA,NA,true,3,11,NA,NA,NA,right,n_l_069.jpg,green,gray,NA,NA,NA,NA,NA,NA,NA,NA,NA,NaN,NA,1030,right,1,NA,NA,NA,NA,NA
25KKvSf1,3087lxlj7ptluqx9bvztb5iuvan0fr,3ranct1zvjudkfv3v2wj66b80dyubo,25KKvSf1,2020-0188,2021-10-30,23:18:00,01:23:28,NA,incomplete,false,NA,NA,true,3,12,NA,NA,NA,right,n_s_066.jpg,blue,purple,NA,NA,NA,NA,NA,NA,NA,NA,NA,NaN,NA,1061.800000000745,left,0,NA,NA,NA,NA,NA
25KKvSf1,3087lxlj7ptluqx9bvztb5iuvan0fr,3ranct1zvjudkfv3v2wj66b80dyubo,25KKvSf1,2020-0188,2021-10-30,23:18:00,01:23:28,NA,incomplete,false,NA,NA,true,3,13,NA,NA,NA,left,n_s_025.jpg,blue,green,NA,NA,NA,NA,NA,NA,NA,NA,NA,NaN,NA,1645.5999999996275,right,0,NA,NA,NA,NA,NA
25KKvSf1,3087lxlj7ptluqx9bvztb5iuvan0fr,3ranct1zvjudkfv3v2wj66b80dyubo,25KKvSf1,2020-0188,2021-10-30,23:18:00,01:23:28,NA,incomplete,false,NA,NA,true,3,14,NA,NA,NA,right,m_s_032.jpg,gray,green,NA,NA,NA,NA,NA,NA,NA,NA,NA,NaN,NA,1701.7999999988824,left,0,NA,NA,NA,NA,NA
25KKvSf1,3087lxlj7ptluqx9bvztb5iuvan0fr,3ranct1zvjudkfv3v2wj66b80dyubo,25KKvSf1,2020-0188,2021-10-30,23:18:00,01:23:28,NA,incomplete,false,NA,NA,true,3,15,NA,NA,NA,left,m_s_018.jpg,blue,purple,NA,NA,NA,NA,NA,NA,NA,NA,NA,NaN,NA,885.9000000003725,right,0,NA,NA,NA,NA,NA
25KKvSf1,3087lxlj7ptluqx9bvztb5iuvan0fr,3ranct1zvjudkfv3v2wj66b80dyubo,25KKvSf1,2020-0188,2021-10-30,23:18:00,01:23:28,NA,incomplete,false,NA,NA,true,3,16,NA,NA,NA,right,n_l_046.jpg,black,gray,NA,NA,NA,NA,NA,NA,NA,NA,NA,NaN,NA,1077.7000000011176,left,0,NA,NA,NA,NA,NA
25KKvSf1,3087lxlj7ptluqx9bvztb5iuvan0fr,3ranct1zvjudkfv3v2wj66b80dyubo,25KKvSf1,2020-0188,2021-10-30,23:18:00,01:23:28,NA,incomplete,false,NA,NA,true,3,17,NA,NA,NA,right,n_l_017.jpg,gray,green,NA,NA,NA,NA,NA,NA,NA,NA,NA,NaN,NA,788.4000000003725,right,1,NA,NA,NA,NA,NA
25KKvSf1,3087lxlj7ptluqx9bvztb5iuvan0fr,3ranct1zvjudkfv3v2wj66b80dyubo,25KKvSf1,2020-0188,2021-10-30,23:18:00,01:23:28,NA,incomplete,false,NA,NA,true,3,18,NA,NA,NA,right,n_s_099.jpg,purple,white,NA,NA,NA,NA,NA,NA,NA,NA,NA,NaN,NA,1037.4000000003725,left,0,NA,NA,NA,NA,NA
25KKvSf1,3087lxlj7ptluqx9bvztb5iuvan0fr,3ranct1zvjudkfv3v2wj66b80dyubo,25KKvSf1,2020-0188,2021-10-30,23:18:00,01:23:28,NA,incomplete,false,NA,NA,true,3,19,NA,NA,NA,right,m_l_027.jpg,green,blue,NA,NA,NA,NA,NA,NA,NA,NA,NA,NaN,NA,1309.699999999255,right,1,NA,NA,NA,NA,NA
25KKvSf1,3087lxlj7ptluqx9bvztb5iuvan0fr,3ranct1zvjudkfv3v2wj66b80dyubo,25KKvSf1,2020-0188,2021-10-30,23:18:00,01:23:28,NA,incomplete,false,NA,NA,true,3,20,NA,NA,NA,left,n_l_117.jpg,green,gray,NA,NA,NA,NA,NA,NA,NA,NA,NA,NaN,NA,1517.4000000003725,left,1,NA,NA,NA,NA,NA
25KKvSf1,3087lxlj7ptluqx9bvztb5iuvan0fr,3ranct1zvjudkfv3v2wj66b80dyubo,25KKvSf1,2020-0188,2021-10-30,23:18:00,01:23:28,NA,incomplete,false,NA,NA,true,3,21,NA,NA,NA,right,n_s_014.jpg,blue,green,NA,NA,NA,NA,NA,NA,NA,NA,NA,NaN,NA,1045.5,right,1,NA,NA,NA,NA,NA
25KKvSf1,3087lxlj7ptluqx9bvztb5iuvan0fr,3ranct1zvjudkfv3v2wj66b80dyubo,25KKvSf1,2020-0188,2021-10-30,23:18:00,01:23:28,NA,incomplete,false,NA,true,NA,3,0,NA,NA,NA,right,NA,NA,NA,absent,NA,NA,n_s_042.jpg,black,m_l_007.jpg,black,within,NA,NaN,NA,NA,NA,NA,left,123564.59999999963,0,1,1947.9000000003725
25KKvSf1,3087lxlj7ptluqx9bvztb5iuvan0fr,3ranct1zvjudkfv3v2wj66b80dyubo,25KKvSf1,2020-0188,2021-10-30,23:18:00,01:23:28,NA,incomplete,false,NA,true,NA,3,1,NA,NA,NA,right,NA,NA,NA,absent,NA,NA,m_l_058.jpg,white,m_s_029.jpg,purple,between,NA,NaN,NA,NA,NA,NA,right,29194.800000000745,1,1,1643.8999999985099
25KKvSf1,3087lxlj7ptluqx9bvztb5iuvan0fr,3ranct1zvjudkfv3v2wj66b80dyubo,25KKvSf1,2020-0188,2021-10-30,23:18:00,01:23:28,NA,incomplete,false,NA,true,NA,3,2,NA,NA,NA,right,NA,NA,NA,absent,NA,NA,n_s_112.jpg,purple,m_l_112.jpg,blue,between,NA,NaN,NA,NA,NA,NA,right,23619.099999999627,1,1,14371.5
25KKvSf1,3087lxlj7ptluqx9bvztb5iuvan0fr,3ranct1zvjudkfv3v2wj66b80dyubo,25KKvSf1,2020-0188,2021-10-30,23:18:00,01:23:28,NA,incomplete,false,NA,true,NA,3,3,NA,NA,NA,right,NA,NA,NA,absent,NA,NA,n_l_046.jpg,gray,m_l_012.jpg,black,between,NA,NaN,NA,NA,NA,NA,left,4293.9000000003725,0,2,2357.89999999851
25KKvSf1,3087lxlj7ptluqx9bvztb5iuvan0fr,3ranct1zvjudkfv3v2wj66b80dyubo,25KKvSf1,2020-0188,2021-10-30,23:18:00,01:23:28,NA,incomplete,false,NA,true,NA,3,4,NA,NA,NA,left,NA,NA,NA,absent,NA,NA,m_s_041.jpg,gray,n_l_069.jpg,gray,within,NA,NaN,NA,NA,NA,NA,left,1398.199999999255,1,2,1678.1000000014901
25KKvSf1,3087lxlj7ptluqx9bvztb5iuvan0fr,3ranct1zvjudkfv3v2wj66b80dyubo,25KKvSf1,2020-0188,2021-10-30,23:18:00,01:23:28,NA,incomplete,false,NA,true,NA,3,5,NA,NA,NA,right,NA,NA,NA,absent,NA,NA,n_l_117.jpg,green,n_l_017.jpg,green,within,NA,NaN,NA,NA,NA,NA,right,1125.6000000014901,1,1,1774.199999999255
25KKvSf1,3087lxlj7ptluqx9bvztb5iuvan0fr,3ranct1zvjudkfv3v2wj66b80dyubo,25KKvSf1,2020-0188,2021-10-30,23:18:00,01:23:28,NA,incomplete,false,NA,true,NA,3,6,NA,NA,NA,right,NA,NA,NA,absent,NA,NA,m_l_027.jpg,blue,m_s_018.jpg,blue,within,NA,NaN,NA,NA,NA,NA,right,5461.699999999255,1,1,1447
25KKvSf1,3087lxlj7ptluqx9bvztb5iuvan0fr,3ranct1zvjudkfv3v2wj66b80dyubo,25KKvSf1,2020-0188,2021-10-30,23:18:00,01:23:28,NA,incomplete,false,NA,true,NA,3,7,NA,NA,NA,left,NA,NA,NA,absent,NA,NA,m_s_046.jpg,white,n_s_099.jpg,white,within,NA,NaN,NA,NA,NA,NA,right,1230,0,1,1485.9000000003725
25KKvSf1,3087lxlj7ptluqx9bvztb5iuvan0fr,3ranct1zvjudkfv3v2wj66b80dyubo,25KKvSf1,2020-0188,2021-10-30,23:18:00,01:23:28,NA,incomplete,false,NA,true,NA,3,8,NA,NA,NA,left,NA,NA,NA,absent,NA,NA,n_s_014.jpg,green,n_s_025.jpg,blue,between,NA,NaN,NA,NA,NA,NA,left,1622,1,1,2253.9000000003725
25KKvSf1,3087lxlj7ptluqx9bvztb5iuvan0fr,3ranct1zvjudkfv3v2wj66b80dyubo,25KKvSf1,2020-0188,2021-10-30,23:18:00,01:23:28,NA,incomplete,false,NA,true,NA,3,9,NA,NA,NA,right,NA,NA,NA,absent,NA,NA,n_s_066.jpg,purple,n_s_080.jpg,purple,within,NA,NaN,NA,NA,NA,NA,right,1061.9000000003725,1,1,1854
25KKvSf1,3087lxlj7ptluqx9bvztb5iuvan0fr,3ranct1zvjudkfv3v2wj66b80dyubo,25KKvSf1,2020-0188,2021-10-30,23:18:00,01:23:28,NA,incomplete,false,NA,true,NA,3,10,NA,NA,NA,right,NA,NA,NA,absent,NA,NA,m_s_032.jpg,green,m_l_100.jpg,gray,between,NA,NaN,NA,NA,NA,NA,right,2693.800000000745,1,1,1389.5
25KKvSf1,3087lxlj7ptluqx9bvztb5iuvan0fr,3ranct1zvjudkfv3v2wj66b80dyubo,25KKvSf1,2020-0188,2021-10-30,23:18:00,01:23:28,NA,incomplete,false,true,NA,NA,4,0,NA,white,n_s_003.jpg,NA,NA,NA,NA,NA,pleasant,unpleasant,NA,NA,NA,NA,NA,none,0,false,NA,NA,NA,NA,NA,NA,NA,NA
25KKvSf1,3087lxlj7ptluqx9bvztb5iuvan0fr,3ranct1zvjudkfv3v2wj66b80dyubo,25KKvSf1,2020-0188,2021-10-30,23:18:00,01:23:28,NA,incomplete,false,true,NA,NA,4,1,NA,white,n_l_048.jpg,NA,NA,NA,NA,NA,pleasant,unpleasant,NA,NA,NA,NA,NA,left,1534.60000000149,true,NA,NA,NA,NA,NA,NA,NA,NA
25KKvSf1,3087lxlj7ptluqx9bvztb5iuvan0fr,3ranct1zvjudkfv3v2wj66b80dyubo,25KKvSf1,2020-0188,2021-10-30,23:18:00,01:23:28,NA,incomplete,false,true,NA,NA,4,2,NA,white,m_s_094.jpg,NA,NA,NA,NA,NA,unpleasant,pleasant,NA,NA,NA,NA,NA,right,322.599999999627,true,NA,NA,NA,NA,NA,NA,NA,NA
25KKvSf1,3087lxlj7ptluqx9bvztb5iuvan0fr,3ranct1zvjudkfv3v2wj66b80dyubo,25KKvSf1,2020-0188,2021-10-30,23:18:00,01:23:28,NA,incomplete,false,true,NA,NA,4,3,NA,white,m_l_093.jpg,NA,NA,NA,NA,NA,pleasant,unpleasant,NA,NA,NA,NA,NA,none,0,false,NA,NA,NA,NA,NA,NA,NA,NA
25KKvSf1,3087lxlj7ptluqx9bvztb5iuvan0fr,3ranct1zvjudkfv3v2wj66b80dyubo,25KKvSf1,2020-0188,2021-10-30,23:18:00,01:23:28,NA,incomplete,false,true,NA,NA,4,4,NA,white,n_l_022.jpg,NA,NA,NA,NA,NA,pleasant,unpleasant,NA,NA,NA,NA,NA,none,0,false,NA,NA,NA,NA,NA,NA,NA,NA
25KKvSf1,3087lxlj7ptluqx9bvztb5iuvan0fr,3ranct1zvjudkfv3v2wj66b80dyubo,25KKvSf1,2020-0188,2021-10-30,23:18:00,01:23:28,NA,incomplete,false,true,NA,NA,4,5,NA,white,m_s_013.jpg,NA,NA,NA,NA,NA,pleasant,unpleasant,NA,NA,NA,NA,NA,none,0,false,NA,NA,NA,NA,NA,NA,NA,NA
25KKvSf1,3087lxlj7ptluqx9bvztb5iuvan0fr,3ranct1zvjudkfv3v2wj66b80dyubo,25KKvSf1,2020-0188,2021-10-30,23:18:00,01:23:28,NA,incomplete,false,true,NA,NA,4,6,NA,purple,m_l_098.jpg,NA,NA,NA,NA,NA,unpleasant,pleasant,NA,NA,NA,NA,NA,right,201.60000000149,true,NA,NA,NA,NA,NA,NA,NA,NA
25KKvSf1,3087lxlj7ptluqx9bvztb5iuvan0fr,3ranct1zvjudkfv3v2wj66b80dyubo,25KKvSf1,2020-0188,2021-10-30,23:18:00,01:23:28,NA,incomplete,false,true,NA,NA,4,7,NA,purple,n_s_064.jpg,NA,NA,NA,NA,NA,pleasant,unpleasant,NA,NA,NA,NA,NA,left,774.400000000373,true,NA,NA,NA,NA,NA,NA,NA,NA
25KKvSf1,3087lxlj7ptluqx9bvztb5iuvan0fr,3ranct1zvjudkfv3v2wj66b80dyubo,25KKvSf1,2020-0188,2021-10-30,23:18:00,01:23:28,NA,incomplete,false,true,NA,NA,4,8,NA,purple,n_s_036.jpg,NA,NA,NA,NA,NA,pleasant,unpleasant,NA,NA,NA,NA,NA,left,979.400000000373,true,NA,NA,NA,NA,NA,NA,NA,NA
25KKvSf1,3087lxlj7ptluqx9bvztb5iuvan0fr,3ranct1zvjudkfv3v2wj66b80dyubo,25KKvSf1,2020-0188,2021-10-30,23:18:00,01:23:28,NA,incomplete,false,true,NA,NA,4,9,NA,purple,m_l_021.jpg,NA,NA,NA,NA,NA,pleasant,unpleasant,NA,NA,NA,NA,NA,left,855,true,NA,NA,NA,NA,NA,NA,NA,NA
25KKvSf1,3087lxlj7ptluqx9bvztb5iuvan0fr,3ranct1zvjudkfv3v2wj66b80dyubo,25KKvSf1,2020-0188,2021-10-30,23:18:00,01:23:28,NA,incomplete,false,true,NA,NA,4,10,NA,purple,m_s_098.jpg,NA,NA,NA,NA,NA,unpleasant,pleasant,NA,NA,NA,NA,NA,right,882.699999999255,true,NA,NA,NA,NA,NA,NA,NA,NA
25KKvSf1,3087lxlj7ptluqx9bvztb5iuvan0fr,3ranct1zvjudkfv3v2wj66b80dyubo,25KKvSf1,2020-0188,2021-10-30,23:18:00,01:23:28,NA,incomplete,false,true,NA,NA,4,11,NA,purple,n_s_079.jpg,NA,NA,NA,NA,NA,pleasant,unpleasant,NA,NA,NA,NA,NA,left,983.200000001118,true,NA,NA,NA,NA,NA,NA,NA,NA
25KKvSf1,3087lxlj7ptluqx9bvztb5iuvan0fr,3ranct1zvjudkfv3v2wj66b80dyubo,25KKvSf1,2020-0188,2021-10-30,23:18:00,01:23:28,NA,incomplete,false,true,NA,NA,4,12,NA,gray,m_l_032.jpg,NA,NA,NA,NA,NA,unpleasant,pleasant,NA,NA,NA,NA,NA,right,812.10000000149,true,NA,NA,NA,NA,NA,NA,NA,NA
25KKvSf1,3087lxlj7ptluqx9bvztb5iuvan0fr,3ranct1zvjudkfv3v2wj66b80dyubo,25KKvSf1,2020-0188,2021-10-30,23:18:00,01:23:28,NA,incomplete,false,true,NA,NA,4,13,NA,gray,m_l_014.jpg,NA,NA,NA,NA,NA,unpleasant,pleasant,NA,NA,NA,NA,NA,right,754,true,NA,NA,NA,NA,NA,NA,NA,NA
25KKvSf1,3087lxlj7ptluqx9bvztb5iuvan0fr,3ranct1zvjudkfv3v2wj66b80dyubo,25KKvSf1,2020-0188,2021-10-30,23:18:00,01:23:28,NA,incomplete,false,true,NA,NA,4,14,NA,gray,m_s_045.jpg,NA,NA,NA,NA,NA,unpleasant,pleasant,NA,NA,NA,NA,NA,right,580.39999999851,true,NA,NA,NA,NA,NA,NA,NA,NA
25KKvSf1,3087lxlj7ptluqx9bvztb5iuvan0fr,3ranct1zvjudkfv3v2wj66b80dyubo,25KKvSf1,2020-0188,2021-10-30,23:18:00,01:23:28,NA,incomplete,false,true,NA,NA,4,15,NA,gray,n_l_051.jpg,NA,NA,NA,NA,NA,unpleasant,pleasant,NA,NA,NA,NA,NA,right,793,true,NA,NA,NA,NA,NA,NA,NA,NA
25KKvSf1,3087lxlj7ptluqx9bvztb5iuvan0fr,3ranct1zvjudkfv3v2wj66b80dyubo,25KKvSf1,2020-0188,2021-10-30,23:18:00,01:23:28,NA,incomplete,false,true,NA,NA,4,16,NA,gray,m_l_056.jpg,NA,NA,NA,NA,NA,pleasant,unpleasant,NA,NA,NA,NA,NA,right,493.900000000373,true,NA,NA,NA,NA,NA,NA,NA,NA
25KKvSf1,3087lxlj7ptluqx9bvztb5iuvan0fr,3ranct1zvjudkfv3v2wj66b80dyubo,25KKvSf1,2020-0188,2021-10-30,23:18:00,01:23:28,NA,incomplete,false,true,NA,NA,4,17,NA,gray,m_l_080.jpg,NA,NA,NA,NA,NA,unpleasant,pleasant,NA,NA,NA,NA,NA,none,0,false,NA,NA,NA,NA,NA,NA,NA,NA
25KKvSf1,3087lxlj7ptluqx9bvztb5iuvan0fr,3ranct1zvjudkfv3v2wj66b80dyubo,25KKvSf1,2020-0188,2021-10-30,23:18:00,01:23:28,NA,incomplete,false,true,NA,NA,4,18,NA,orange,n_s_078.jpg,NA,NA,NA,NA,NA,unpleasant,pleasant,NA,NA,NA,NA,NA,none,0,false,NA,NA,NA,NA,NA,NA,NA,NA
25KKvSf1,3087lxlj7ptluqx9bvztb5iuvan0fr,3ranct1zvjudkfv3v2wj66b80dyubo,25KKvSf1,2020-0188,2021-10-30,23:18:00,01:23:28,NA,incomplete,false,true,NA,NA,4,19,NA,orange,m_l_104.jpg,NA,NA,NA,NA,NA,unpleasant,pleasant,NA,NA,NA,NA,NA,none,0,false,NA,NA,NA,NA,NA,NA,NA,NA
25KKvSf1,3087lxlj7ptluqx9bvztb5iuvan0fr,3ranct1zvjudkfv3v2wj66b80dyubo,25KKvSf1,2020-0188,2021-10-30,23:18:00,01:23:28,NA,incomplete,false,true,NA,NA,4,20,NA,orange,n_l_060.jpg,NA,NA,NA,NA,NA,unpleasant,pleasant,NA,NA,NA,NA,NA,none,0,false,NA,NA,NA,NA,NA,NA,NA,NA
25KKvSf1,3087lxlj7ptluqx9bvztb5iuvan0fr,3ranct1zvjudkfv3v2wj66b80dyubo,25KKvSf1,2020-0188,2021-10-30,23:18:00,01:23:28,NA,incomplete,false,true,NA,NA,4,21,NA,orange,n_l_058.jpg,NA,NA,NA,NA,NA,pleasant,unpleasant,NA,NA,NA,NA,NA,left,1042.19999999925,true,NA,NA,NA,NA,NA,NA,NA,NA
25KKvSf1,3087lxlj7ptluqx9bvztb5iuvan0fr,3ranct1zvjudkfv3v2wj66b80dyubo,25KKvSf1,2020-0188,2021-10-30,23:18:00,01:23:28,NA,incomplete,false,true,NA,NA,4,22,NA,orange,m_l_073.jpg,NA,NA,NA,NA,NA,unpleasant,pleasant,NA,NA,NA,NA,NA,none,0,false,NA,NA,NA,NA,NA,NA,NA,NA
25KKvSf1,3087lxlj7ptluqx9bvztb5iuvan0fr,3ranct1zvjudkfv3v2wj66b80dyubo,25KKvSf1,2020-0188,2021-10-30,23:18:00,01:23:28,NA,incomplete,false,true,NA,NA,4,23,NA,orange,n_s_057.jpg,NA,NA,NA,NA,NA,pleasant,unpleasant,NA,NA,NA,NA,NA,left,739,true,NA,NA,NA,NA,NA,NA,NA,NA
25KKvSf1,3087lxlj7ptluqx9bvztb5iuvan0fr,3ranct1zvjudkfv3v2wj66b80dyubo,25KKvSf1,2020-0188,2021-10-30,23:18:00,01:23:28,NA,incomplete,false,true,NA,NA,4,24,NA,green,m_s_083.jpg,NA,NA,NA,NA,NA,unpleasant,pleasant,NA,NA,NA,NA,NA,none,0,false,NA,NA,NA,NA,NA,NA,NA,NA
25KKvSf1,3087lxlj7ptluqx9bvztb5iuvan0fr,3ranct1zvjudkfv3v2wj66b80dyubo,25KKvSf1,2020-0188,2021-10-30,23:18:00,01:23:28,NA,incomplete,false,true,NA,NA,4,25,NA,green,n_s_075.jpg,NA,NA,NA,NA,NA,pleasant,unpleasant,NA,NA,NA,NA,NA,none,0,false,NA,NA,NA,NA,NA,NA,NA,NA
25KKvSf1,3087lxlj7ptluqx9bvztb5iuvan0fr,3ranct1zvjudkfv3v2wj66b80dyubo,25KKvSf1,2020-0188,2021-10-30,23:18:00,01:23:28,NA,incomplete,false,true,NA,NA,4,26,NA,green,m_l_117.jpg,NA,NA,NA,NA,NA,unpleasant,pleasant,NA,NA,NA,NA,NA,none,0,false,NA,NA,NA,NA,NA,NA,NA,NA
25KKvSf1,3087lxlj7ptluqx9bvztb5iuvan0fr,3ranct1zvjudkfv3v2wj66b80dyubo,25KKvSf1,2020-0188,2021-10-30,23:18:00,01:23:28,NA,incomplete,false,true,NA,NA,4,27,NA,green,n_l_011.jpg,NA,NA,NA,NA,NA,pleasant,unpleasant,NA,NA,NA,NA,NA,left,1187.90000000037,true,NA,NA,NA,NA,NA,NA,NA,NA
25KKvSf1,3087lxlj7ptluqx9bvztb5iuvan0fr,3ranct1zvjudkfv3v2wj66b80dyubo,25KKvSf1,2020-0188,2021-10-30,23:18:00,01:23:28,NA,incomplete,false,true,NA,NA,4,28,NA,green,m_s_101.jpg,NA,NA,NA,NA,NA,unpleasant,pleasant,NA,NA,NA,NA,NA,left,887.5,true,NA,NA,NA,NA,NA,NA,NA,NA
25KKvSf1,3087lxlj7ptluqx9bvztb5iuvan0fr,3ranct1zvjudkfv3v2wj66b80dyubo,25KKvSf1,2020-0188,2021-10-30,23:18:00,01:23:28,NA,incomplete,false,true,NA,NA,4,29,NA,green,n_l_092.jpg,NA,NA,NA,NA,NA,unpleasant,pleasant,NA,NA,NA,NA,NA,left,2475.90000000037,true,NA,NA,NA,NA,NA,NA,NA,NA
25KKvSf1,3087lxlj7ptluqx9bvztb5iuvan0fr,3ranct1zvjudkfv3v2wj66b80dyubo,25KKvSf1,2020-0188,2021-10-30,23:18:00,01:23:28,NA,incomplete,false,true,NA,NA,4,30,NA,black,m_l_075.jpg,NA,NA,NA,NA,NA,unpleasant,pleasant,NA,NA,NA,NA,NA,none,0,false,NA,NA,NA,NA,NA,NA,NA,NA
25KKvSf1,3087lxlj7ptluqx9bvztb5iuvan0fr,3ranct1zvjudkfv3v2wj66b80dyubo,25KKvSf1,2020-0188,2021-10-30,23:18:00,01:23:28,NA,incomplete,false,true,NA,NA,4,31,NA,black,m_s_102.jpg,NA,NA,NA,NA,NA,unpleasant,pleasant,NA,NA,NA,NA,NA,none,0,false,NA,NA,NA,NA,NA,NA,NA,NA
25KKvSf1,3087lxlj7ptluqx9bvztb5iuvan0fr,3ranct1zvjudkfv3v2wj66b80dyubo,25KKvSf1,2020-0188,2021-10-30,23:18:00,01:23:28,NA,incomplete,false,true,NA,NA,4,32,NA,black,m_l_091.jpg,NA,NA,NA,NA,NA,unpleasant,pleasant,NA,NA,NA,NA,NA,none,0,false,NA,NA,NA,NA,NA,NA,NA,NA
25KKvSf1,3087lxlj7ptluqx9bvztb5iuvan0fr,3ranct1zvjudkfv3v2wj66b80dyubo,25KKvSf1,2020-0188,2021-10-30,23:18:00,01:23:28,NA,incomplete,false,true,NA,NA,4,33,NA,black,n_l_009.jpg,NA,NA,NA,NA,NA,unpleasant,pleasant,NA,NA,NA,NA,NA,left,804.099999999627,true,NA,NA,NA,NA,NA,NA,NA,NA
25KKvSf1,3087lxlj7ptluqx9bvztb5iuvan0fr,3ranct1zvjudkfv3v2wj66b80dyubo,25KKvSf1,2020-0188,2021-10-30,23:18:00,01:23:28,NA,incomplete,false,true,NA,NA,4,34,NA,black,n_l_061.jpg,NA,NA,NA,NA,NA,unpleasant,pleasant,NA,NA,NA,NA,NA,right,1416.40000000037,true,NA,NA,NA,NA,NA,NA,NA,NA
25KKvSf1,3087lxlj7ptluqx9bvztb5iuvan0fr,3ranct1zvjudkfv3v2wj66b80dyubo,25KKvSf1,2020-0188,2021-10-30,23:18:00,01:23:28,NA,incomplete,false,true,NA,NA,4,35,NA,black,n_l_071.jpg,NA,NA,NA,NA,NA,pleasant,unpleasant,NA,NA,NA,NA,NA,right,420.300000000745,true,NA,NA,NA,NA,NA,NA,NA,NA
25KKvSf1,3087lxlj7ptluqx9bvztb5iuvan0fr,3ranct1zvjudkfv3v2wj66b80dyubo,25KKvSf1,2020-0188,2021-10-30,23:18:00,01:23:28,NA,incomplete,false,NA,NA,true,4,0,NA,NA,NA,left,n_s_075.jpg,green,orange,NA,NA,NA,NA,NA,NA,NA,NA,NA,NaN,NA,1747.699999999255,right,0,NA,NA,NA,NA,NA
25KKvSf1,3087lxlj7ptluqx9bvztb5iuvan0fr,3ranct1zvjudkfv3v2wj66b80dyubo,25KKvSf1,2020-0188,2021-10-30,23:18:00,01:23:28,NA,incomplete,false,NA,NA,true,4,1,NA,NA,NA,right,m_l_104.jpg,green,orange,NA,NA,NA,NA,NA,NA,NA,NA,NA,NaN,NA,1325.5,left,0,NA,NA,NA,NA,NA
25KKvSf1,3087lxlj7ptluqx9bvztb5iuvan0fr,3ranct1zvjudkfv3v2wj66b80dyubo,25KKvSf1,2020-0188,2021-10-30,23:18:00,01:23:28,NA,incomplete,false,NA,NA,true,4,2,NA,NA,NA,right,m_s_098.jpg,gray,purple,NA,NA,NA,NA,NA,NA,NA,NA,NA,NaN,NA,1349.5999999996275,right,1,NA,NA,NA,NA,NA
25KKvSf1,3087lxlj7ptluqx9bvztb5iuvan0fr,3ranct1zvjudkfv3v2wj66b80dyubo,25KKvSf1,2020-0188,2021-10-30,23:18:00,01:23:28,NA,incomplete,false,NA,NA,true,4,3,NA,NA,NA,right,m_l_073.jpg,gray,orange,NA,NA,NA,NA,NA,NA,NA,NA,NA,NaN,NA,1029.0999999996275,left,0,NA,NA,NA,NA,NA
25KKvSf1,3087lxlj7ptluqx9bvztb5iuvan0fr,3ranct1zvjudkfv3v2wj66b80dyubo,25KKvSf1,2020-0188,2021-10-30,23:18:00,01:23:28,NA,incomplete,false,NA,NA,true,4,4,NA,NA,NA,right,n_l_022.jpg,purple,white,NA,NA,NA,NA,NA,NA,NA,NA,NA,NaN,NA,997.5,right,1,NA,NA,NA,NA,NA
25KKvSf1,3087lxlj7ptluqx9bvztb5iuvan0fr,3ranct1zvjudkfv3v2wj66b80dyubo,25KKvSf1,2020-0188,2021-10-30,23:18:00,01:23:28,NA,incomplete,false,NA,NA,true,4,5,NA,NA,NA,right,m_l_117.jpg,black,green,NA,NA,NA,NA,NA,NA,NA,NA,NA,NaN,NA,798.7999999988824,left,0,NA,NA,NA,NA,NA
25KKvSf1,3087lxlj7ptluqx9bvztb5iuvan0fr,3ranct1zvjudkfv3v2wj66b80dyubo,25KKvSf1,2020-0188,2021-10-30,23:18:00,01:23:28,NA,incomplete,false,NA,NA,true,4,6,NA,NA,NA,right,n_l_071.jpg,green,black,NA,NA,NA,NA,NA,NA,NA,NA,NA,NaN,NA,853.4000000003725,right,1,NA,NA,NA,NA,NA
25KKvSf1,3087lxlj7ptluqx9bvztb5iuvan0fr,3ranct1zvjudkfv3v2wj66b80dyubo,25KKvSf1,2020-0188,2021-10-30,23:18:00,01:23:28,NA,incomplete,false,NA,NA,true,4,7,NA,NA,NA,left,m_s_045.jpg,gray,purple,NA,NA,NA,NA,NA,NA,NA,NA,NA,NaN,NA,1101.5999999996275,left,1,NA,NA,NA,NA,NA
25KKvSf1,3087lxlj7ptluqx9bvztb5iuvan0fr,3ranct1zvjudkfv3v2wj66b80dyubo,25KKvSf1,2020-0188,2021-10-30,23:18:00,01:23:28,NA,incomplete,false,NA,NA,true,4,8,NA,NA,NA,right,m_s_102.jpg,green,black,NA,NA,NA,NA,NA,NA,NA,NA,NA,NaN,NA,1206.0999999996275,right,1,NA,NA,NA,NA,NA
25KKvSf1,3087lxlj7ptluqx9bvztb5iuvan0fr,3ranct1zvjudkfv3v2wj66b80dyubo,25KKvSf1,2020-0188,2021-10-30,23:18:00,01:23:28,NA,incomplete,false,NA,NA,true,4,9,NA,NA,NA,left,n_s_057.jpg,orange,green,NA,NA,NA,NA,NA,NA,NA,NA,NA,NaN,NA,1062,left,1,NA,NA,NA,NA,NA
25KKvSf1,3087lxlj7ptluqx9bvztb5iuvan0fr,3ranct1zvjudkfv3v2wj66b80dyubo,25KKvSf1,2020-0188,2021-10-30,23:18:00,01:23:28,NA,incomplete,false,NA,NA,true,4,10,NA,NA,NA,right,n_s_036.jpg,white,purple,NA,NA,NA,NA,NA,NA,NA,NA,NA,NaN,NA,702,right,1,NA,NA,NA,NA,NA
25KKvSf1,3087lxlj7ptluqx9bvztb5iuvan0fr,3ranct1zvjudkfv3v2wj66b80dyubo,25KKvSf1,2020-0188,2021-10-30,23:18:00,01:23:28,NA,incomplete,false,NA,NA,true,4,11,NA,NA,NA,left,m_l_080.jpg,gray,purple,NA,NA,NA,NA,NA,NA,NA,NA,NA,NaN,NA,5791.0999999996275,right,0,NA,NA,NA,NA,NA
25KKvSf1,3087lxlj7ptluqx9bvztb5iuvan0fr,3ranct1zvjudkfv3v2wj66b80dyubo,25KKvSf1,2020-0188,2021-10-30,23:18:00,01:23:28,NA,incomplete,false,NA,NA,true,4,12,NA,NA,NA,left,m_l_091.jpg,black,green,NA,NA,NA,NA,NA,NA,NA,NA,NA,NaN,NA,1134.699999999255,left,1,NA,NA,NA,NA,NA
25KKvSf1,3087lxlj7ptluqx9bvztb5iuvan0fr,3ranct1zvjudkfv3v2wj66b80dyubo,25KKvSf1,2020-0188,2021-10-30,23:18:00,01:23:28,NA,incomplete,false,NA,NA,true,4,13,NA,NA,NA,left,m_l_014.jpg,gray,orange,NA,NA,NA,NA,NA,NA,NA,NA,NA,NaN,NA,750.5,right,0,NA,NA,NA,NA,NA
25KKvSf1,3087lxlj7ptluqx9bvztb5iuvan0fr,3ranct1zvjudkfv3v2wj66b80dyubo,25KKvSf1,2020-0188,2021-10-30,23:18:00,01:23:28,NA,incomplete,false,NA,NA,true,4,14,NA,NA,NA,right,m_s_013.jpg,purple,white,NA,NA,NA,NA,NA,NA,NA,NA,NA,NaN,NA,1165.0999999996275,left,0,NA,NA,NA,NA,NA
25KKvSf1,3087lxlj7ptluqx9bvztb5iuvan0fr,3ranct1zvjudkfv3v2wj66b80dyubo,25KKvSf1,2020-0188,2021-10-30,23:18:00,01:23:28,NA,incomplete,false,NA,NA,true,4,15,NA,NA,NA,left,n_l_060.jpg,orange,gray,NA,NA,NA,NA,NA,NA,NA,NA,NA,NaN,NA,917.8000000007451,right,0,NA,NA,NA,NA,NA
25KKvSf1,3087lxlj7ptluqx9bvztb5iuvan0fr,3ranct1zvjudkfv3v2wj66b80dyubo,25KKvSf1,2020-0188,2021-10-30,23:18:00,01:23:28,NA,incomplete,false,NA,NA,true,4,16,NA,NA,NA,right,n_l_092.jpg,black,green,NA,NA,NA,NA,NA,NA,NA,NA,NA,NaN,NA,1197.9000000003725,left,0,NA,NA,NA,NA,NA
25KKvSf1,3087lxlj7ptluqx9bvztb5iuvan0fr,3ranct1zvjudkfv3v2wj66b80dyubo,25KKvSf1,2020-0188,2021-10-30,23:18:00,01:23:28,NA,incomplete,false,NA,NA,true,4,17,NA,NA,NA,left,n_l_048.jpg,white,purple,NA,NA,NA,NA,NA,NA,NA,NA,NA,NaN,NA,829.7000000011176,right,0,NA,NA,NA,NA,NA
25KKvSf1,3087lxlj7ptluqx9bvztb5iuvan0fr,3ranct1zvjudkfv3v2wj66b80dyubo,25KKvSf1,2020-0188,2021-10-30,23:18:00,01:23:28,NA,incomplete,false,NA,NA,true,4,18,NA,NA,NA,left,m_l_056.jpg,gray,orange,NA,NA,NA,NA,NA,NA,NA,NA,NA,NaN,NA,1598,left,1,NA,NA,NA,NA,NA
25KKvSf1,3087lxlj7ptluqx9bvztb5iuvan0fr,3ranct1zvjudkfv3v2wj66b80dyubo,25KKvSf1,2020-0188,2021-10-30,23:18:00,01:23:28,NA,incomplete,false,NA,NA,true,4,19,NA,NA,NA,left,n_s_064.jpg,purple,white,NA,NA,NA,NA,NA,NA,NA,NA,NA,NaN,NA,965.9000000003725,right,0,NA,NA,NA,NA,NA
25KKvSf1,3087lxlj7ptluqx9bvztb5iuvan0fr,3ranct1zvjudkfv3v2wj66b80dyubo,25KKvSf1,2020-0188,2021-10-30,23:18:00,01:23:28,NA,incomplete,false,NA,NA,true,4,20,NA,NA,NA,left,m_s_101.jpg,green,orange,NA,NA,NA,NA,NA,NA,NA,NA,NA,NaN,NA,2141.5999999996275,left,1,NA,NA,NA,NA,NA
25KKvSf1,3087lxlj7ptluqx9bvztb5iuvan0fr,3ranct1zvjudkfv3v2wj66b80dyubo,25KKvSf1,2020-0188,2021-10-30,23:18:00,01:23:28,NA,incomplete,false,NA,NA,true,4,21,NA,NA,NA,right,n_s_079.jpg,gray,purple,NA,NA,NA,NA,NA,NA,NA,NA,NA,NaN,NA,1021.6999999992549,right,1,NA,NA,NA,NA,NA
25KKvSf1,3087lxlj7ptluqx9bvztb5iuvan0fr,3ranct1zvjudkfv3v2wj66b80dyubo,25KKvSf1,2020-0188,2021-10-30,23:18:00,01:23:28,NA,incomplete,false,NA,true,NA,4,0,NA,NA,NA,left,NA,NA,NA,absent,NA,NA,m_l_104.jpg,orange,n_s_057.jpg,orange,within,NA,NaN,NA,NA,NA,NA,right,1243,0,1,1123.5999999996275
25KKvSf1,3087lxlj7ptluqx9bvztb5iuvan0fr,3ranct1zvjudkfv3v2wj66b80dyubo,25KKvSf1,2020-0188,2021-10-30,23:18:00,01:23:28,NA,incomplete,false,NA,true,NA,4,1,NA,NA,NA,left,NA,NA,NA,absent,NA,NA,m_s_098.jpg,purple,m_s_045.jpg,gray,between,NA,NaN,NA,NA,NA,NA,left,923.8999999985099,1,2,1483.9000000003725
25KKvSf1,3087lxlj7ptluqx9bvztb5iuvan0fr,3ranct1zvjudkfv3v2wj66b80dyubo,25KKvSf1,2020-0188,2021-10-30,23:18:00,01:23:28,NA,incomplete,false,NA,true,NA,4,2,NA,NA,NA,right,NA,NA,NA,absent,NA,NA,m_l_080.jpg,gray,m_l_014.jpg,gray,within,NA,NaN,NA,NA,NA,NA,left,1107.800000000745,0,1,2763
25KKvSf1,3087lxlj7ptluqx9bvztb5iuvan0fr,3ranct1zvjudkfv3v2wj66b80dyubo,25KKvSf1,2020-0188,2021-10-30,23:18:00,01:23:28,NA,incomplete,false,NA,true,NA,4,3,NA,NA,NA,right,NA,NA,NA,absent,NA,NA,m_l_091.jpg,black,m_s_101.jpg,green,between,NA,NaN,NA,NA,NA,NA,right,1251.5999999996275,1,1,1563.7999999988824
25KKvSf1,3087lxlj7ptluqx9bvztb5iuvan0fr,3ranct1zvjudkfv3v2wj66b80dyubo,25KKvSf1,2020-0188,2021-10-30,23:18:00,01:23:28,NA,incomplete,false,NA,true,NA,4,4,NA,NA,NA,right,NA,NA,NA,absent,NA,NA,m_l_117.jpg,green,m_l_073.jpg,orange,between,NA,NaN,NA,NA,NA,NA,left,1427.7999999988824,0,1,1580.5
25KKvSf1,3087lxlj7ptluqx9bvztb5iuvan0fr,3ranct1zvjudkfv3v2wj66b80dyubo,25KKvSf1,2020-0188,2021-10-30,23:18:00,01:23:28,NA,incomplete,false,NA,true,NA,4,5,NA,NA,NA,right,NA,NA,NA,absent,NA,NA,n_l_071.jpg,black,m_s_102.jpg,black,within,NA,NaN,NA,NA,NA,NA,left,1541.699999999255,0,2,1342
25KKvSf1,3087lxlj7ptluqx9bvztb5iuvan0fr,3ranct1zvjudkfv3v2wj66b80dyubo,25KKvSf1,2020-0188,2021-10-30,23:18:00,01:23:28,NA,incomplete,false,NA,true,NA,4,6,NA,NA,NA,right,NA,NA,NA,absent,NA,NA,n_l_060.jpg,orange,m_l_056.jpg,gray,between,NA,NaN,NA,NA,NA,NA,left,941.7999999988824,0,1,2349.800000000745
25KKvSf1,3087lxlj7ptluqx9bvztb5iuvan0fr,3ranct1zvjudkfv3v2wj66b80dyubo,25KKvSf1,2020-0188,2021-10-30,23:18:00,01:23:28,NA,incomplete,false,NA,true,NA,4,7,NA,NA,NA,left,NA,NA,NA,absent,NA,NA,n_s_064.jpg,purple,n_s_079.jpg,purple,within,NA,NaN,NA,NA,NA,NA,right,1198.0999999996275,0,0,4646.200000001118
25KKvSf1,3087lxlj7ptluqx9bvztb5iuvan0fr,3ranct1zvjudkfv3v2wj66b80dyubo,25KKvSf1,2020-0188,2021-10-30,23:18:00,01:23:28,NA,incomplete,false,NA,true,NA,4,8,NA,NA,NA,left,NA,NA,NA,absent,NA,NA,n_l_048.jpg,white,m_s_013.jpg,white,within,NA,NaN,NA,NA,NA,NA,right,1190,0,0,997.9000000003725
25KKvSf1,3087lxlj7ptluqx9bvztb5iuvan0fr,3ranct1zvjudkfv3v2wj66b80dyubo,25KKvSf1,2020-0188,2021-10-30,23:18:00,01:23:28,NA,incomplete,false,NA,true,NA,4,9,NA,NA,NA,left,NA,NA,NA,absent,NA,NA,n_l_022.jpg,white,n_s_036.jpg,purple,between,NA,NaN,NA,NA,NA,NA,right,998.0999999996275,0,2,1070.0999999996275
25KKvSf1,3087lxlj7ptluqx9bvztb5iuvan0fr,3ranct1zvjudkfv3v2wj66b80dyubo,25KKvSf1,2020-0188,2021-10-30,23:18:00,01:23:28,NA,incomplete,false,NA,true,NA,4,10,NA,NA,NA,right,NA,NA,NA,absent,NA,NA,n_l_092.jpg,green,n_s_075.jpg,green,within,NA,NaN,NA,NA,NA,NA,right,1646.0999999996275,1,1,1046.1000000014901
25KKvSf1,3087lxlj7ptluqx9bvztb5iuvan0fr,3ranct1zvjudkfv3v2wj66b80dyubo,25KKvSf1,2020-0188,2021-10-30,23:18:00,01:23:28,NA,incomplete,false,true,NA,NA,5,0,NA,green,n_l_015.jpg,NA,NA,NA,NA,NA,unpleasant,pleasant,NA,NA,NA,NA,NA,right,1889.59999999963,true,NA,NA,NA,NA,NA,NA,NA,NA
25KKvSf1,3087lxlj7ptluqx9bvztb5iuvan0fr,3ranct1zvjudkfv3v2wj66b80dyubo,25KKvSf1,2020-0188,2021-10-30,23:18:00,01:23:28,NA,incomplete,false,true,NA,NA,5,1,NA,green,n_s_087.jpg,NA,NA,NA,NA,NA,pleasant,unpleasant,NA,NA,NA,NA,NA,right,613.200000001118,true,NA,NA,NA,NA,NA,NA,NA,NA
25KKvSf1,3087lxlj7ptluqx9bvztb5iuvan0fr,3ranct1zvjudkfv3v2wj66b80dyubo,25KKvSf1,2020-0188,2021-10-30,23:18:00,01:23:28,NA,incomplete,false,true,NA,NA,5,2,NA,green,n_s_116.jpg,NA,NA,NA,NA,NA,pleasant,unpleasant,NA,NA,NA,NA,NA,left,683,true,NA,NA,NA,NA,NA,NA,NA,NA
25KKvSf1,3087lxlj7ptluqx9bvztb5iuvan0fr,3ranct1zvjudkfv3v2wj66b80dyubo,25KKvSf1,2020-0188,2021-10-30,23:18:00,01:23:28,NA,incomplete,false,true,NA,NA,5,3,NA,green,m_s_106.jpg,NA,NA,NA,NA,NA,pleasant,unpleasant,NA,NA,NA,NA,NA,right,406.400000000373,true,NA,NA,NA,NA,NA,NA,NA,NA
25KKvSf1,3087lxlj7ptluqx9bvztb5iuvan0fr,3ranct1zvjudkfv3v2wj66b80dyubo,25KKvSf1,2020-0188,2021-10-30,23:18:00,01:23:28,NA,incomplete,false,true,NA,NA,5,4,NA,green,n_s_041.jpg,NA,NA,NA,NA,NA,unpleasant,pleasant,NA,NA,NA,NA,NA,right,1891.59999999963,true,NA,NA,NA,NA,NA,NA,NA,NA
25KKvSf1,3087lxlj7ptluqx9bvztb5iuvan0fr,3ranct1zvjudkfv3v2wj66b80dyubo,25KKvSf1,2020-0188,2021-10-30,23:18:00,01:23:28,NA,incomplete,false,true,NA,NA,5,5,NA,green,m_l_046.jpg,NA,NA,NA,NA,NA,unpleasant,pleasant,NA,NA,NA,NA,NA,right,350.400000000373,true,NA,NA,NA,NA,NA,NA,NA,NA
25KKvSf1,3087lxlj7ptluqx9bvztb5iuvan0fr,3ranct1zvjudkfv3v2wj66b80dyubo,25KKvSf1,2020-0188,2021-10-30,23:18:00,01:23:28,NA,incomplete,false,true,NA,NA,5,6,NA,blue,n_s_028.jpg,NA,NA,NA,NA,NA,pleasant,unpleasant,NA,NA,NA,NA,NA,left,1019.30000000075,true,NA,NA,NA,NA,NA,NA,NA,NA
25KKvSf1,3087lxlj7ptluqx9bvztb5iuvan0fr,3ranct1zvjudkfv3v2wj66b80dyubo,25KKvSf1,2020-0188,2021-10-30,23:18:00,01:23:28,NA,incomplete,false,true,NA,NA,5,7,NA,blue,m_l_089.jpg,NA,NA,NA,NA,NA,pleasant,unpleasant,NA,NA,NA,NA,NA,left,1057.30000000075,true,NA,NA,NA,NA,NA,NA,NA,NA
25KKvSf1,3087lxlj7ptluqx9bvztb5iuvan0fr,3ranct1zvjudkfv3v2wj66b80dyubo,25KKvSf1,2020-0188,2021-10-30,23:18:00,01:23:28,NA,incomplete,false,true,NA,NA,5,8,NA,blue,n_s_073.jpg,NA,NA,NA,NA,NA,pleasant,unpleasant,NA,NA,NA,NA,NA,left,619.700000001118,true,NA,NA,NA,NA,NA,NA,NA,NA
25KKvSf1,3087lxlj7ptluqx9bvztb5iuvan0fr,3ranct1zvjudkfv3v2wj66b80dyubo,25KKvSf1,2020-0188,2021-10-30,23:18:00,01:23:28,NA,incomplete,false,true,NA,NA,5,9,NA,blue,m_l_068.jpg,NA,NA,NA,NA,NA,unpleasant,pleasant,NA,NA,NA,NA,NA,right,519.300000000745,true,NA,NA,NA,NA,NA,NA,NA,NA
25KKvSf1,3087lxlj7ptluqx9bvztb5iuvan0fr,3ranct1zvjudkfv3v2wj66b80dyubo,25KKvSf1,2020-0188,2021-10-30,23:18:00,01:23:28,NA,incomplete,false,true,NA,NA,5,10,NA,blue,n_s_050.jpg,NA,NA,NA,NA,NA,unpleasant,pleasant,NA,NA,NA,NA,NA,right,658.699999999255,true,NA,NA,NA,NA,NA,NA,NA,NA
25KKvSf1,3087lxlj7ptluqx9bvztb5iuvan0fr,3ranct1zvjudkfv3v2wj66b80dyubo,25KKvSf1,2020-0188,2021-10-30,23:18:00,01:23:28,NA,incomplete,false,true,NA,NA,5,11,NA,blue,n_s_061.jpg,NA,NA,NA,NA,NA,pleasant,unpleasant,NA,NA,NA,NA,NA,right,543.599999999627,true,NA,NA,NA,NA,NA,NA,NA,NA
25KKvSf1,3087lxlj7ptluqx9bvztb5iuvan0fr,3ranct1zvjudkfv3v2wj66b80dyubo,25KKvSf1,2020-0188,2021-10-30,23:18:00,01:23:28,NA,incomplete,false,true,NA,NA,5,12,NA,gray,m_l_097.jpg,NA,NA,NA,NA,NA,unpleasant,pleasant,NA,NA,NA,NA,NA,right,844.700000001118,true,NA,NA,NA,NA,NA,NA,NA,NA
25KKvSf1,3087lxlj7ptluqx9bvztb5iuvan0fr,3ranct1zvjudkfv3v2wj66b80dyubo,25KKvSf1,2020-0188,2021-10-30,23:18:00,01:23:28,NA,incomplete,false,true,NA,NA,5,13,NA,gray,m_s_021.jpg,NA,NA,NA,NA,NA,unpleasant,pleasant,NA,NA,NA,NA,NA,right,752.700000001118,true,NA,NA,NA,NA,NA,NA,NA,NA
25KKvSf1,3087lxlj7ptluqx9bvztb5iuvan0fr,3ranct1zvjudkfv3v2wj66b80dyubo,25KKvSf1,2020-0188,2021-10-30,23:18:00,01:23:28,NA,incomplete,false,true,NA,NA,5,14,NA,gray,m_s_092.jpg,NA,NA,NA,NA,NA,pleasant,unpleasant,NA,NA,NA,NA,NA,left,956.799999998882,true,NA,NA,NA,NA,NA,NA,NA,NA
25KKvSf1,3087lxlj7ptluqx9bvztb5iuvan0fr,3ranct1zvjudkfv3v2wj66b80dyubo,25KKvSf1,2020-0188,2021-10-30,23:18:00,01:23:28,NA,incomplete,false,true,NA,NA,5,15,NA,gray,n_l_063.jpg,NA,NA,NA,NA,NA,unpleasant,pleasant,NA,NA,NA,NA,NA,right,676.89999999851,true,NA,NA,NA,NA,NA,NA,NA,NA
25KKvSf1,3087lxlj7ptluqx9bvztb5iuvan0fr,3ranct1zvjudkfv3v2wj66b80dyubo,25KKvSf1,2020-0188,2021-10-30,23:18:00,01:23:28,NA,incomplete,false,true,NA,NA,5,16,NA,gray,m_l_023.jpg,NA,NA,NA,NA,NA,pleasant,unpleasant,NA,NA,NA,NA,NA,left,646.199999999255,true,NA,NA,NA,NA,NA,NA,NA,NA
25KKvSf1,3087lxlj7ptluqx9bvztb5iuvan0fr,3ranct1zvjudkfv3v2wj66b80dyubo,25KKvSf1,2020-0188,2021-10-30,23:18:00,01:23:28,NA,incomplete,false,true,NA,NA,5,17,NA,gray,m_l_025.jpg,NA,NA,NA,NA,NA,unpleasant,pleasant,NA,NA,NA,NA,NA,right,1035,true,NA,NA,NA,NA,NA,NA,NA,NA
