workerId,hitId,assignmentId,subject,studyid,exp_date,exp_start,exp_end,time_start,time_end,practice,encoding,memory,association,block,trial,event_order,event,stim,answer,object,left_context,right_context,context_type,label_left,label_right,left_image,left_event,right_image,right_event,condition,response,response_time,response_acc,association_response_time,association_response,association_acc,order_response,order_response_time,order_acc,distance_response,distance_response_time
Og3Q5P7f,3dw3bnf1hkvs8co26ehcm6ry22mv8w,3rsdurm96ezs8rrsfuvyazn6zyqeya,Og3Q5P7f,2020-0188,2021-10-31,04:47:57,06:03:13,NA,incomplete,true,true,NA,NA,0,0,NA,gray,n_s_085.jpg,NA,NA,NA,NA,NA,pleasant,unpleasant,NA,NA,NA,NA,NA,right,1871.79999995232,true,NA,NA,NA,NA,NA,NA,NA,NA
Og3Q5P7f,3dw3bnf1hkvs8co26ehcm6ry22mv8w,3rsdurm96ezs8rrsfuvyazn6zyqeya,Og3Q5P7f,2020-0188,2021-10-31,04:47:57,06:03:13,NA,incomplete,true,true,NA,NA,0,1,NA,gray,m_l_008.jpg,NA,NA,NA,NA,NA,pleasant,unpleasant,NA,NA,NA,NA,NA,right,2824.60000014305,true,NA,NA,NA,NA,NA,NA,NA,NA
Og3Q5P7f,3dw3bnf1hkvs8co26ehcm6ry22mv8w,3rsdurm96ezs8rrsfuvyazn6zyqeya,Og3Q5P7f,2020-0188,2021-10-31,04:47:57,06:03:13,NA,incomplete,true,true,NA,NA,0,2,NA,gray,m_s_096.jpg,NA,NA,NA,NA,NA,pleasant,unpleasant,NA,NA,NA,NA,NA,left,1674.20000004768,true,NA,NA,NA,NA,NA,NA,NA,NA
Og3Q5P7f,3dw3bnf1hkvs8co26ehcm6ry22mv8w,3rsdurm96ezs8rrsfuvyazn6zyqeya,Og3Q5P7f,2020-0188,2021-10-31,04:47:57,06:03:13,NA,incomplete,true,true,NA,NA,0,3,NA,gray,m_s_058.jpg,NA,NA,NA,NA,NA,unpleasant,pleasant,NA,NA,NA,NA,NA,left,1947.5,true,NA,NA,NA,NA,NA,NA,NA,NA
Og3Q5P7f,3dw3bnf1hkvs8co26ehcm6ry22mv8w,3rsdurm96ezs8rrsfuvyazn6zyqeya,Og3Q5P7f,2020-0188,2021-10-31,04:47:57,06:03:13,NA,incomplete,true,true,NA,NA,0,4,NA,gray,m_l_044.jpg,NA,NA,NA,NA,NA,unpleasant,pleasant,NA,NA,NA,NA,NA,right,1561.70000004768,true,NA,NA,NA,NA,NA,NA,NA,NA
Og3Q5P7f,3dw3bnf1hkvs8co26ehcm6ry22mv8w,3rsdurm96ezs8rrsfuvyazn6zyqeya,Og3Q5P7f,2020-0188,2021-10-31,04:47:57,06:03:13,NA,incomplete,true,true,NA,NA,0,5,NA,gray,n_l_063.jpg,NA,NA,NA,NA,NA,pleasant,unpleasant,NA,NA,NA,NA,NA,right,1554.80000019073,true,NA,NA,NA,NA,NA,NA,NA,NA
Og3Q5P7f,3dw3bnf1hkvs8co26ehcm6ry22mv8w,3rsdurm96ezs8rrsfuvyazn6zyqeya,Og3Q5P7f,2020-0188,2021-10-31,04:47:57,06:03:13,NA,incomplete,true,true,NA,NA,0,6,NA,orange,n_l_070.jpg,NA,NA,NA,NA,NA,unpleasant,pleasant,NA,NA,NA,NA,NA,left,2563.59999990463,true,NA,NA,NA,NA,NA,NA,NA,NA
Og3Q5P7f,3dw3bnf1hkvs8co26ehcm6ry22mv8w,3rsdurm96ezs8rrsfuvyazn6zyqeya,Og3Q5P7f,2020-0188,2021-10-31,04:47:57,06:03:13,NA,incomplete,true,true,NA,NA,0,7,NA,orange,n_s_025.jpg,NA,NA,NA,NA,NA,unpleasant,pleasant,NA,NA,NA,NA,NA,left,1604.40000009537,true,NA,NA,NA,NA,NA,NA,NA,NA
Og3Q5P7f,3dw3bnf1hkvs8co26ehcm6ry22mv8w,3rsdurm96ezs8rrsfuvyazn6zyqeya,Og3Q5P7f,2020-0188,2021-10-31,04:47:57,06:03:13,NA,incomplete,true,true,NA,NA,0,8,NA,orange,n_l_014.jpg,NA,NA,NA,NA,NA,pleasant,unpleasant,NA,NA,NA,NA,NA,left,1621.59999990463,true,NA,NA,NA,NA,NA,NA,NA,NA
Og3Q5P7f,3dw3bnf1hkvs8co26ehcm6ry22mv8w,3rsdurm96ezs8rrsfuvyazn6zyqeya,Og3Q5P7f,2020-0188,2021-10-31,04:47:57,06:03:13,NA,incomplete,true,true,NA,NA,0,9,NA,orange,m_s_010.jpg,NA,NA,NA,NA,NA,pleasant,unpleasant,NA,NA,NA,NA,NA,left,2103.19999980927,true,NA,NA,NA,NA,NA,NA,NA,NA
Og3Q5P7f,3dw3bnf1hkvs8co26ehcm6ry22mv8w,3rsdurm96ezs8rrsfuvyazn6zyqeya,Og3Q5P7f,2020-0188,2021-10-31,04:47:57,06:03:13,NA,incomplete,true,true,NA,NA,0,10,NA,orange,m_s_075.jpg,NA,NA,NA,NA,NA,unpleasant,pleasant,NA,NA,NA,NA,NA,left,1544,true,NA,NA,NA,NA,NA,NA,NA,NA
Og3Q5P7f,3dw3bnf1hkvs8co26ehcm6ry22mv8w,3rsdurm96ezs8rrsfuvyazn6zyqeya,Og3Q5P7f,2020-0188,2021-10-31,04:47:57,06:03:13,NA,incomplete,true,true,NA,NA,0,11,NA,orange,m_l_095.jpg,NA,NA,NA,NA,NA,unpleasant,pleasant,NA,NA,NA,NA,NA,left,1801.39999985695,true,NA,NA,NA,NA,NA,NA,NA,NA
Og3Q5P7f,3dw3bnf1hkvs8co26ehcm6ry22mv8w,3rsdurm96ezs8rrsfuvyazn6zyqeya,Og3Q5P7f,2020-0188,2021-10-31,04:47:57,06:03:13,NA,incomplete,true,true,NA,NA,0,12,NA,purple,m_s_100.jpg,NA,NA,NA,NA,NA,unpleasant,pleasant,NA,NA,NA,NA,NA,right,1458.60000014305,true,NA,NA,NA,NA,NA,NA,NA,NA
Og3Q5P7f,3dw3bnf1hkvs8co26ehcm6ry22mv8w,3rsdurm96ezs8rrsfuvyazn6zyqeya,Og3Q5P7f,2020-0188,2021-10-31,04:47:57,06:03:13,NA,incomplete,true,true,NA,NA,0,13,NA,purple,n_s_056.jpg,NA,NA,NA,NA,NA,pleasant,unpleasant,NA,NA,NA,NA,NA,left,2219.09999990463,true,NA,NA,NA,NA,NA,NA,NA,NA
Og3Q5P7f,3dw3bnf1hkvs8co26ehcm6ry22mv8w,3rsdurm96ezs8rrsfuvyazn6zyqeya,Og3Q5P7f,2020-0188,2021-10-31,04:47:57,06:03:13,NA,incomplete,true,true,NA,NA,0,14,NA,purple,m_l_099.jpg,NA,NA,NA,NA,NA,unpleasant,pleasant,NA,NA,NA,NA,NA,right,1804.19999980927,true,NA,NA,NA,NA,NA,NA,NA,NA
Og3Q5P7f,3dw3bnf1hkvs8co26ehcm6ry22mv8w,3rsdurm96ezs8rrsfuvyazn6zyqeya,Og3Q5P7f,2020-0188,2021-10-31,04:47:57,06:03:13,NA,incomplete,true,true,NA,NA,0,15,NA,purple,m_l_072.jpg,NA,NA,NA,NA,NA,unpleasant,pleasant,NA,NA,NA,NA,NA,right,2269.29999995232,true,NA,NA,NA,NA,NA,NA,NA,NA
Og3Q5P7f,3dw3bnf1hkvs8co26ehcm6ry22mv8w,3rsdurm96ezs8rrsfuvyazn6zyqeya,Og3Q5P7f,2020-0188,2021-10-31,04:47:57,06:03:13,NA,incomplete,true,true,NA,NA,0,16,NA,purple,n_l_032.jpg,NA,NA,NA,NA,NA,unpleasant,pleasant,NA,NA,NA,NA,NA,right,1638.29999995232,true,NA,NA,NA,NA,NA,NA,NA,NA
Og3Q5P7f,3dw3bnf1hkvs8co26ehcm6ry22mv8w,3rsdurm96ezs8rrsfuvyazn6zyqeya,Og3Q5P7f,2020-0188,2021-10-31,04:47:57,06:03:13,NA,incomplete,true,true,NA,NA,0,17,NA,purple,m_l_116.jpg,NA,NA,NA,NA,NA,unpleasant,pleasant,NA,NA,NA,NA,NA,right,1662.89999985695,true,NA,NA,NA,NA,NA,NA,NA,NA
Og3Q5P7f,3dw3bnf1hkvs8co26ehcm6ry22mv8w,3rsdurm96ezs8rrsfuvyazn6zyqeya,Og3Q5P7f,2020-0188,2021-10-31,04:47:57,06:03:13,NA,incomplete,true,true,NA,NA,0,18,NA,black,n_s_008.jpg,NA,NA,NA,NA,NA,unpleasant,pleasant,NA,NA,NA,NA,NA,left,1152.09999990463,true,NA,NA,NA,NA,NA,NA,NA,NA
Og3Q5P7f,3dw3bnf1hkvs8co26ehcm6ry22mv8w,3rsdurm96ezs8rrsfuvyazn6zyqeya,Og3Q5P7f,2020-0188,2021-10-31,04:47:57,06:03:13,NA,incomplete,true,true,NA,NA,0,19,NA,black,n_s_028.jpg,NA,NA,NA,NA,NA,pleasant,unpleasant,NA,NA,NA,NA,NA,right,2425.79999995232,true,NA,NA,NA,NA,NA,NA,NA,NA
Og3Q5P7f,3dw3bnf1hkvs8co26ehcm6ry22mv8w,3rsdurm96ezs8rrsfuvyazn6zyqeya,Og3Q5P7f,2020-0188,2021-10-31,04:47:57,06:03:13,NA,incomplete,true,true,NA,NA,0,20,NA,black,m_s_040.jpg,NA,NA,NA,NA,NA,unpleasant,pleasant,NA,NA,NA,NA,NA,right,1875.5,true,NA,NA,NA,NA,NA,NA,NA,NA
Og3Q5P7f,3dw3bnf1hkvs8co26ehcm6ry22mv8w,3rsdurm96ezs8rrsfuvyazn6zyqeya,Og3Q5P7f,2020-0188,2021-10-31,04:47:57,06:03:13,NA,incomplete,true,true,NA,NA,0,21,NA,black,n_l_098.jpg,NA,NA,NA,NA,NA,unpleasant,pleasant,NA,NA,NA,NA,NA,left,1515.39999985695,true,NA,NA,NA,NA,NA,NA,NA,NA
Og3Q5P7f,3dw3bnf1hkvs8co26ehcm6ry22mv8w,3rsdurm96ezs8rrsfuvyazn6zyqeya,Og3Q5P7f,2020-0188,2021-10-31,04:47:57,06:03:13,NA,incomplete,true,true,NA,NA,0,22,NA,black,n_l_073.jpg,NA,NA,NA,NA,NA,unpleasant,pleasant,NA,NA,NA,NA,NA,right,1564.5,true,NA,NA,NA,NA,NA,NA,NA,NA
Og3Q5P7f,3dw3bnf1hkvs8co26ehcm6ry22mv8w,3rsdurm96ezs8rrsfuvyazn6zyqeya,Og3Q5P7f,2020-0188,2021-10-31,04:47:57,06:03:13,NA,incomplete,true,true,NA,NA,0,23,NA,black,m_s_094.jpg,NA,NA,NA,NA,NA,unpleasant,pleasant,NA,NA,NA,NA,NA,left,1581.90000009537,true,NA,NA,NA,NA,NA,NA,NA,NA
Og3Q5P7f,3dw3bnf1hkvs8co26ehcm6ry22mv8w,3rsdurm96ezs8rrsfuvyazn6zyqeya,Og3Q5P7f,2020-0188,2021-10-31,04:47:57,06:03:13,NA,incomplete,true,true,NA,NA,0,24,NA,red,m_l_037.jpg,NA,NA,NA,NA,NA,pleasant,unpleasant,NA,NA,NA,NA,NA,right,1511.10000014305,true,NA,NA,NA,NA,NA,NA,NA,NA
Og3Q5P7f,3dw3bnf1hkvs8co26ehcm6ry22mv8w,3rsdurm96ezs8rrsfuvyazn6zyqeya,Og3Q5P7f,2020-0188,2021-10-31,04:47:57,06:03:13,NA,incomplete,true,true,NA,NA,0,25,NA,red,m_l_029.jpg,NA,NA,NA,NA,NA,unpleasant,pleasant,NA,NA,NA,NA,NA,right,1311.90000009537,true,NA,NA,NA,NA,NA,NA,NA,NA
Og3Q5P7f,3dw3bnf1hkvs8co26ehcm6ry22mv8w,3rsdurm96ezs8rrsfuvyazn6zyqeya,Og3Q5P7f,2020-0188,2021-10-31,04:47:57,06:03:13,NA,incomplete,true,true,NA,NA,0,26,NA,red,m_s_035.jpg,NA,NA,NA,NA,NA,pleasant,unpleasant,NA,NA,NA,NA,NA,left,1504.90000009537,true,NA,NA,NA,NA,NA,NA,NA,NA
Og3Q5P7f,3dw3bnf1hkvs8co26ehcm6ry22mv8w,3rsdurm96ezs8rrsfuvyazn6zyqeya,Og3Q5P7f,2020-0188,2021-10-31,04:47:57,06:03:13,NA,incomplete,true,true,NA,NA,0,27,NA,red,n_s_027.jpg,NA,NA,NA,NA,NA,pleasant,unpleasant,NA,NA,NA,NA,NA,right,1401.29999995232,true,NA,NA,NA,NA,NA,NA,NA,NA
Og3Q5P7f,3dw3bnf1hkvs8co26ehcm6ry22mv8w,3rsdurm96ezs8rrsfuvyazn6zyqeya,Og3Q5P7f,2020-0188,2021-10-31,04:47:57,06:03:13,NA,incomplete,true,true,NA,NA,0,28,NA,red,n_l_097.jpg,NA,NA,NA,NA,NA,pleasant,unpleasant,NA,NA,NA,NA,NA,left,1130.5,true,NA,NA,NA,NA,NA,NA,NA,NA
Og3Q5P7f,3dw3bnf1hkvs8co26ehcm6ry22mv8w,3rsdurm96ezs8rrsfuvyazn6zyqeya,Og3Q5P7f,2020-0188,2021-10-31,04:47:57,06:03:13,NA,incomplete,true,true,NA,NA,0,29,NA,red,m_s_054.jpg,NA,NA,NA,NA,NA,unpleasant,pleasant,NA,NA,NA,NA,NA,left,1324.29999995232,true,NA,NA,NA,NA,NA,NA,NA,NA
Og3Q5P7f,3dw3bnf1hkvs8co26ehcm6ry22mv8w,3rsdurm96ezs8rrsfuvyazn6zyqeya,Og3Q5P7f,2020-0188,2021-10-31,04:47:57,06:03:13,NA,incomplete,true,true,NA,NA,0,30,NA,blue,n_l_041.jpg,NA,NA,NA,NA,NA,unpleasant,pleasant,NA,NA,NA,NA,NA,left,1909.59999990463,true,NA,NA,NA,NA,NA,NA,NA,NA
Og3Q5P7f,3dw3bnf1hkvs8co26ehcm6ry22mv8w,3rsdurm96ezs8rrsfuvyazn6zyqeya,Og3Q5P7f,2020-0188,2021-10-31,04:47:57,06:03:13,NA,incomplete,true,true,NA,NA,0,31,NA,blue,n_l_102.jpg,NA,NA,NA,NA,NA,pleasant,unpleasant,NA,NA,NA,NA,NA,left,1646.10000014305,true,NA,NA,NA,NA,NA,NA,NA,NA
Og3Q5P7f,3dw3bnf1hkvs8co26ehcm6ry22mv8w,3rsdurm96ezs8rrsfuvyazn6zyqeya,Og3Q5P7f,2020-0188,2021-10-31,04:47:57,06:03:13,NA,incomplete,true,true,NA,NA,0,32,NA,blue,n_l_022.jpg,NA,NA,NA,NA,NA,unpleasant,pleasant,NA,NA,NA,NA,NA,right,1231.40000009537,true,NA,NA,NA,NA,NA,NA,NA,NA
Og3Q5P7f,3dw3bnf1hkvs8co26ehcm6ry22mv8w,3rsdurm96ezs8rrsfuvyazn6zyqeya,Og3Q5P7f,2020-0188,2021-10-31,04:47:57,06:03:13,NA,incomplete,true,true,NA,NA,0,33,NA,blue,n_s_016.jpg,NA,NA,NA,NA,NA,pleasant,unpleasant,NA,NA,NA,NA,NA,right,1880.59999990463,true,NA,NA,NA,NA,NA,NA,NA,NA
Og3Q5P7f,3dw3bnf1hkvs8co26ehcm6ry22mv8w,3rsdurm96ezs8rrsfuvyazn6zyqeya,Og3Q5P7f,2020-0188,2021-10-31,04:47:57,06:03:13,NA,incomplete,true,true,NA,NA,0,34,NA,blue,n_s_080.jpg,NA,NA,NA,NA,NA,pleasant,unpleasant,NA,NA,NA,NA,NA,right,1782.79999995232,true,NA,NA,NA,NA,NA,NA,NA,NA
Og3Q5P7f,3dw3bnf1hkvs8co26ehcm6ry22mv8w,3rsdurm96ezs8rrsfuvyazn6zyqeya,Og3Q5P7f,2020-0188,2021-10-31,04:47:57,06:03:13,NA,incomplete,true,true,NA,NA,0,35,NA,blue,m_l_030.jpg,NA,NA,NA,NA,NA,pleasant,unpleasant,NA,NA,NA,NA,NA,left,1047.79999995232,true,NA,NA,NA,NA,NA,NA,NA,NA
Og3Q5P7f,3dw3bnf1hkvs8co26ehcm6ry22mv8w,3rsdurm96ezs8rrsfuvyazn6zyqeya,Og3Q5P7f,2020-0188,2021-10-31,04:47:57,06:03:13,NA,incomplete,true,NA,NA,true,0,0,NA,NA,NA,right,m_s_075.jpg,gray,orange,NA,NA,NA,NA,NA,NA,NA,NA,NA,NaN,NA,3462.2000000476837,right,1,NA,NA,NA,NA,NA
Og3Q5P7f,3dw3bnf1hkvs8co26ehcm6ry22mv8w,3rsdurm96ezs8rrsfuvyazn6zyqeya,Og3Q5P7f,2020-0188,2021-10-31,04:47:57,06:03:13,NA,incomplete,true,NA,NA,true,0,1,NA,NA,NA,left,n_l_014.jpg,orange,purple,NA,NA,NA,NA,NA,NA,NA,NA,NA,NaN,NA,3807.199999809265,left,1,NA,NA,NA,NA,NA
Og3Q5P7f,3dw3bnf1hkvs8co26ehcm6ry22mv8w,3rsdurm96ezs8rrsfuvyazn6zyqeya,Og3Q5P7f,2020-0188,2021-10-31,04:47:57,06:03:13,NA,incomplete,true,NA,NA,true,0,2,NA,NA,NA,left,n_l_102.jpg,blue,red,NA,NA,NA,NA,NA,NA,NA,NA,NA,NaN,NA,1607.5999999046326,left,1,NA,NA,NA,NA,NA
Og3Q5P7f,3dw3bnf1hkvs8co26ehcm6ry22mv8w,3rsdurm96ezs8rrsfuvyazn6zyqeya,Og3Q5P7f,2020-0188,2021-10-31,04:47:57,06:03:13,NA,incomplete,true,NA,NA,true,0,3,NA,NA,NA,right,m_l_029.jpg,blue,red,NA,NA,NA,NA,NA,NA,NA,NA,NA,NaN,NA,1823.2999999523163,right,1,NA,NA,NA,NA,NA
Og3Q5P7f,3dw3bnf1hkvs8co26ehcm6ry22mv8w,3rsdurm96ezs8rrsfuvyazn6zyqeya,Og3Q5P7f,2020-0188,2021-10-31,04:47:57,06:03:13,NA,incomplete,true,NA,NA,true,0,4,NA,NA,NA,right,m_s_040.jpg,red,black,NA,NA,NA,NA,NA,NA,NA,NA,NA,NaN,NA,2711.5,right,1,NA,NA,NA,NA,NA
Og3Q5P7f,3dw3bnf1hkvs8co26ehcm6ry22mv8w,3rsdurm96ezs8rrsfuvyazn6zyqeya,Og3Q5P7f,2020-0188,2021-10-31,04:47:57,06:03:13,NA,incomplete,true,NA,NA,true,0,5,NA,NA,NA,left,n_l_073.jpg,black,purple,NA,NA,NA,NA,NA,NA,NA,NA,NA,NaN,NA,4207.799999952316,left,1,NA,NA,NA,NA,NA
Og3Q5P7f,3dw3bnf1hkvs8co26ehcm6ry22mv8w,3rsdurm96ezs8rrsfuvyazn6zyqeya,Og3Q5P7f,2020-0188,2021-10-31,04:47:57,06:03:13,NA,incomplete,true,NA,NA,true,0,6,NA,NA,NA,left,n_l_022.jpg,blue,red,NA,NA,NA,NA,NA,NA,NA,NA,NA,NaN,NA,3239.4000000953674,right,0,NA,NA,NA,NA,NA
Og3Q5P7f,3dw3bnf1hkvs8co26ehcm6ry22mv8w,3rsdurm96ezs8rrsfuvyazn6zyqeya,Og3Q5P7f,2020-0188,2021-10-31,04:47:57,06:03:13,NA,incomplete,true,NA,NA,true,0,7,NA,NA,NA,right,n_l_097.jpg,blue,red,NA,NA,NA,NA,NA,NA,NA,NA,NA,NaN,NA,3927.699999809265,right,1,NA,NA,NA,NA,NA
Og3Q5P7f,3dw3bnf1hkvs8co26ehcm6ry22mv8w,3rsdurm96ezs8rrsfuvyazn6zyqeya,Og3Q5P7f,2020-0188,2021-10-31,04:47:57,06:03:13,NA,incomplete,true,NA,NA,true,0,8,NA,NA,NA,left,n_l_063.jpg,gray,orange,NA,NA,NA,NA,NA,NA,NA,NA,NA,NaN,NA,3583.300000190735,left,1,NA,NA,NA,NA,NA
Og3Q5P7f,3dw3bnf1hkvs8co26ehcm6ry22mv8w,3rsdurm96ezs8rrsfuvyazn6zyqeya,Og3Q5P7f,2020-0188,2021-10-31,04:47:57,06:03:13,NA,incomplete,true,NA,NA,true,0,9,NA,NA,NA,right,m_s_054.jpg,blue,red,NA,NA,NA,NA,NA,NA,NA,NA,NA,NaN,NA,2535.0999999046326,right,1,NA,NA,NA,NA,NA
Og3Q5P7f,3dw3bnf1hkvs8co26ehcm6ry22mv8w,3rsdurm96ezs8rrsfuvyazn6zyqeya,Og3Q5P7f,2020-0188,2021-10-31,04:47:57,06:03:13,NA,incomplete,true,NA,NA,true,0,10,NA,NA,NA,right,n_l_032.jpg,black,purple,NA,NA,NA,NA,NA,NA,NA,NA,NA,NaN,NA,2207.5,left,0,NA,NA,NA,NA,NA
Og3Q5P7f,3dw3bnf1hkvs8co26ehcm6ry22mv8w,3rsdurm96ezs8rrsfuvyazn6zyqeya,Og3Q5P7f,2020-0188,2021-10-31,04:47:57,06:03:13,NA,incomplete,true,NA,NA,true,0,11,NA,NA,NA,left,m_l_099.jpg,purple,orange,NA,NA,NA,NA,NA,NA,NA,NA,NA,NaN,NA,1615.2999999523163,left,1,NA,NA,NA,NA,NA
Og3Q5P7f,3dw3bnf1hkvs8co26ehcm6ry22mv8w,3rsdurm96ezs8rrsfuvyazn6zyqeya,Og3Q5P7f,2020-0188,2021-10-31,04:47:57,06:03:13,NA,incomplete,true,NA,NA,true,0,12,NA,NA,NA,right,m_l_030.jpg,red,blue,NA,NA,NA,NA,NA,NA,NA,NA,NA,NaN,NA,3207.5,left,0,NA,NA,NA,NA,NA
Og3Q5P7f,3dw3bnf1hkvs8co26ehcm6ry22mv8w,3rsdurm96ezs8rrsfuvyazn6zyqeya,Og3Q5P7f,2020-0188,2021-10-31,04:47:57,06:03:13,NA,incomplete,true,NA,NA,true,0,13,NA,NA,NA,right,m_s_035.jpg,blue,red,NA,NA,NA,NA,NA,NA,NA,NA,NA,NaN,NA,1927.4000000953674,right,1,NA,NA,NA,NA,NA
Og3Q5P7f,3dw3bnf1hkvs8co26ehcm6ry22mv8w,3rsdurm96ezs8rrsfuvyazn6zyqeya,Og3Q5P7f,2020-0188,2021-10-31,04:47:57,06:03:13,NA,incomplete,true,NA,NA,true,0,14,NA,NA,NA,right,n_s_028.jpg,purple,black,NA,NA,NA,NA,NA,NA,NA,NA,NA,NaN,NA,1807.5,right,1,NA,NA,NA,NA,NA
Og3Q5P7f,3dw3bnf1hkvs8co26ehcm6ry22mv8w,3rsdurm96ezs8rrsfuvyazn6zyqeya,Og3Q5P7f,2020-0188,2021-10-31,04:47:57,06:03:13,NA,incomplete,true,NA,NA,true,0,15,NA,NA,NA,left,n_s_025.jpg,orange,gray,NA,NA,NA,NA,NA,NA,NA,NA,NA,NaN,NA,3687.2999999523163,left,1,NA,NA,NA,NA,NA
Og3Q5P7f,3dw3bnf1hkvs8co26ehcm6ry22mv8w,3rsdurm96ezs8rrsfuvyazn6zyqeya,Og3Q5P7f,2020-0188,2021-10-31,04:47:57,06:03:13,NA,incomplete,true,NA,NA,true,0,16,NA,NA,NA,right,m_l_095.jpg,gray,orange,NA,NA,NA,NA,NA,NA,NA,NA,NA,NaN,NA,2847.2000000476837,right,1,NA,NA,NA,NA,NA
Og3Q5P7f,3dw3bnf1hkvs8co26ehcm6ry22mv8w,3rsdurm96ezs8rrsfuvyazn6zyqeya,Og3Q5P7f,2020-0188,2021-10-31,04:47:57,06:03:13,NA,incomplete,true,NA,NA,true,0,17,NA,NA,NA,left,m_l_008.jpg,gray,orange,NA,NA,NA,NA,NA,NA,NA,NA,NA,NaN,NA,4319.599999904633,right,0,NA,NA,NA,NA,NA
Og3Q5P7f,3dw3bnf1hkvs8co26ehcm6ry22mv8w,3rsdurm96ezs8rrsfuvyazn6zyqeya,Og3Q5P7f,2020-0188,2021-10-31,04:47:57,06:03:13,NA,incomplete,true,NA,NA,true,0,18,NA,NA,NA,right,m_l_044.jpg,orange,gray,NA,NA,NA,NA,NA,NA,NA,NA,NA,NaN,NA,2847.5,left,0,NA,NA,NA,NA,NA
Og3Q5P7f,3dw3bnf1hkvs8co26ehcm6ry22mv8w,3rsdurm96ezs8rrsfuvyazn6zyqeya,Og3Q5P7f,2020-0188,2021-10-31,04:47:57,06:03:13,NA,incomplete,true,NA,NA,true,0,19,NA,NA,NA,right,m_l_116.jpg,black,purple,NA,NA,NA,NA,NA,NA,NA,NA,NA,NaN,NA,2583.7000000476837,right,1,NA,NA,NA,NA,NA
Og3Q5P7f,3dw3bnf1hkvs8co26ehcm6ry22mv8w,3rsdurm96ezs8rrsfuvyazn6zyqeya,Og3Q5P7f,2020-0188,2021-10-31,04:47:57,06:03:13,NA,incomplete,true,NA,NA,true,0,20,NA,NA,NA,right,m_s_094.jpg,purple,black,NA,NA,NA,NA,NA,NA,NA,NA,NA,NaN,NA,2879.7000000476837,left,0,NA,NA,NA,NA,NA
Og3Q5P7f,3dw3bnf1hkvs8co26ehcm6ry22mv8w,3rsdurm96ezs8rrsfuvyazn6zyqeya,Og3Q5P7f,2020-0188,2021-10-31,04:47:57,06:03:13,NA,incomplete,true,NA,NA,true,0,21,NA,NA,NA,left,n_s_056.jpg,purple,black,NA,NA,NA,NA,NA,NA,NA,NA,NA,NaN,NA,3511.7000000476837,left,1,NA,NA,NA,NA,NA
Og3Q5P7f,3dw3bnf1hkvs8co26ehcm6ry22mv8w,3rsdurm96ezs8rrsfuvyazn6zyqeya,Og3Q5P7f,2020-0188,2021-10-31,04:47:57,06:03:13,NA,incomplete,true,NA,true,NA,0,0,NA,NA,NA,right,NA,NA,NA,present,NA,NA,m_l_116.jpg,purple,n_s_056.jpg,purple,within,NA,NaN,NA,NA,NA,NA,right,5253.800000190735,1,2,10135
Og3Q5P7f,3dw3bnf1hkvs8co26ehcm6ry22mv8w,3rsdurm96ezs8rrsfuvyazn6zyqeya,Og3Q5P7f,2020-0188,2021-10-31,04:47:57,06:03:13,NA,incomplete,true,NA,true,NA,0,1,NA,NA,NA,left,NA,NA,NA,present,NA,NA,m_l_029.jpg,red,m_s_054.jpg,red,within,NA,NaN,NA,NA,NA,NA,left,2839.0999999046326,1,1,5575.700000047684
Og3Q5P7f,3dw3bnf1hkvs8co26ehcm6ry22mv8w,3rsdurm96ezs8rrsfuvyazn6zyqeya,Og3Q5P7f,2020-0188,2021-10-31,04:47:57,06:03:13,NA,incomplete,true,NA,true,NA,0,2,NA,NA,NA,right,NA,NA,NA,present,NA,NA,m_l_099.jpg,purple,m_s_075.jpg,orange,between,NA,NaN,NA,NA,NA,NA,left,4247.299999952316,0,3,2335.2999999523163
Og3Q5P7f,3dw3bnf1hkvs8co26ehcm6ry22mv8w,3rsdurm96ezs8rrsfuvyazn6zyqeya,Og3Q5P7f,2020-0188,2021-10-31,04:47:57,06:03:13,NA,incomplete,true,NA,true,NA,0,3,NA,NA,NA,right,NA,NA,NA,present,NA,NA,m_l_095.jpg,orange,n_s_025.jpg,orange,within,NA,NaN,NA,NA,NA,NA,left,3223.5,0,2,2551.0999999046326
Og3Q5P7f,3dw3bnf1hkvs8co26ehcm6ry22mv8w,3rsdurm96ezs8rrsfuvyazn6zyqeya,Og3Q5P7f,2020-0188,2021-10-31,04:47:57,06:03:13,NA,incomplete,true,NA,true,NA,0,4,NA,NA,NA,right,NA,NA,NA,present,NA,NA,n_l_063.jpg,gray,m_l_008.jpg,gray,within,NA,NaN,NA,NA,NA,NA,right,2231.7999999523163,1,1,2335.2000000476837
Og3Q5P7f,3dw3bnf1hkvs8co26ehcm6ry22mv8w,3rsdurm96ezs8rrsfuvyazn6zyqeya,Og3Q5P7f,2020-0188,2021-10-31,04:47:57,06:03:13,NA,incomplete,true,NA,true,NA,0,5,NA,NA,NA,left,NA,NA,NA,present,NA,NA,m_l_044.jpg,gray,n_l_014.jpg,orange,between,NA,NaN,NA,NA,NA,NA,left,6111.199999809265,1,3,1206.1000001430511
Og3Q5P7f,3dw3bnf1hkvs8co26ehcm6ry22mv8w,3rsdurm96ezs8rrsfuvyazn6zyqeya,Og3Q5P7f,2020-0188,2021-10-31,04:47:57,06:03:13,NA,incomplete,true,NA,true,NA,0,6,NA,NA,NA,right,NA,NA,NA,present,NA,NA,m_s_035.jpg,red,n_l_073.jpg,black,between,NA,NaN,NA,NA,NA,NA,right,4727.299999952316,1,2,1999.5999999046326
Og3Q5P7f,3dw3bnf1hkvs8co26ehcm6ry22mv8w,3rsdurm96ezs8rrsfuvyazn6zyqeya,Og3Q5P7f,2020-0188,2021-10-31,04:47:57,06:03:13,NA,incomplete,true,NA,true,NA,0,7,NA,NA,NA,right,NA,NA,NA,present,NA,NA,m_l_030.jpg,blue,n_l_102.jpg,blue,within,NA,NaN,NA,NA,NA,NA,right,2783.2999999523163,1,1,2703.4000000953674
Og3Q5P7f,3dw3bnf1hkvs8co26ehcm6ry22mv8w,3rsdurm96ezs8rrsfuvyazn6zyqeya,Og3Q5P7f,2020-0188,2021-10-31,04:47:57,06:03:13,NA,incomplete,true,NA,true,NA,0,8,NA,NA,NA,left,NA,NA,NA,present,NA,NA,n_l_097.jpg,red,n_l_022.jpg,blue,between,NA,NaN,NA,NA,NA,NA,right,3639.5999999046326,0,2,1615.2999999523163
Og3Q5P7f,3dw3bnf1hkvs8co26ehcm6ry22mv8w,3rsdurm96ezs8rrsfuvyazn6zyqeya,Og3Q5P7f,2020-0188,2021-10-31,04:47:57,06:03:13,NA,incomplete,true,NA,true,NA,0,9,NA,NA,NA,right,NA,NA,NA,present,NA,NA,m_s_040.jpg,black,n_l_032.jpg,purple,between,NA,NaN,NA,NA,NA,NA,right,3071.100000143051,1,1,2223.2000000476837
Og3Q5P7f,3dw3bnf1hkvs8co26ehcm6ry22mv8w,3rsdurm96ezs8rrsfuvyazn6zyqeya,Og3Q5P7f,2020-0188,2021-10-31,04:47:57,06:03:13,NA,incomplete,true,NA,true,NA,0,10,NA,NA,NA,left,NA,NA,NA,present,NA,NA,n_s_028.jpg,black,m_s_094.jpg,black,within,NA,NaN,NA,NA,NA,NA,left,10471.299999952316,1,2,3231.199999809265
Og3Q5P7f,3dw3bnf1hkvs8co26ehcm6ry22mv8w,3rsdurm96ezs8rrsfuvyazn6zyqeya,Og3Q5P7f,2020-0188,2021-10-31,04:47:57,06:03:13,NA,incomplete,false,true,NA,NA,1,0,NA,purple,m_s_068.jpg,NA,NA,NA,NA,NA,unpleasant,pleasant,NA,NA,NA,NA,NA,right,2604.20000004768,true,NA,NA,NA,NA,NA,NA,NA,NA
Og3Q5P7f,3dw3bnf1hkvs8co26ehcm6ry22mv8w,3rsdurm96ezs8rrsfuvyazn6zyqeya,Og3Q5P7f,2020-0188,2021-10-31,04:47:57,06:03:13,NA,incomplete,false,true,NA,NA,1,1,NA,purple,n_l_036.jpg,NA,NA,NA,NA,NA,unpleasant,pleasant,NA,NA,NA,NA,NA,right,1749.60000014305,true,NA,NA,NA,NA,NA,NA,NA,NA
Og3Q5P7f,3dw3bnf1hkvs8co26ehcm6ry22mv8w,3rsdurm96ezs8rrsfuvyazn6zyqeya,Og3Q5P7f,2020-0188,2021-10-31,04:47:57,06:03:13,NA,incomplete,false,true,NA,NA,1,2,NA,purple,n_s_099.jpg,NA,NA,NA,NA,NA,unpleasant,pleasant,NA,NA,NA,NA,NA,right,2014.29999995232,true,NA,NA,NA,NA,NA,NA,NA,NA
Og3Q5P7f,3dw3bnf1hkvs8co26ehcm6ry22mv8w,3rsdurm96ezs8rrsfuvyazn6zyqeya,Og3Q5P7f,2020-0188,2021-10-31,04:47:57,06:03:13,NA,incomplete,false,true,NA,NA,1,3,NA,purple,n_s_094.jpg,NA,NA,NA,NA,NA,pleasant,unpleasant,NA,NA,NA,NA,NA,left,2287.70000004768,true,NA,NA,NA,NA,NA,NA,NA,NA
Og3Q5P7f,3dw3bnf1hkvs8co26ehcm6ry22mv8w,3rsdurm96ezs8rrsfuvyazn6zyqeya,Og3Q5P7f,2020-0188,2021-10-31,04:47:57,06:03:13,NA,incomplete,false,true,NA,NA,1,4,NA,purple,m_s_093.jpg,NA,NA,NA,NA,NA,unpleasant,pleasant,NA,NA,NA,NA,NA,left,1321.19999980927,true,NA,NA,NA,NA,NA,NA,NA,NA
Og3Q5P7f,3dw3bnf1hkvs8co26ehcm6ry22mv8w,3rsdurm96ezs8rrsfuvyazn6zyqeya,Og3Q5P7f,2020-0188,2021-10-31,04:47:57,06:03:13,NA,incomplete,false,true,NA,NA,1,5,NA,purple,m_l_087.jpg,NA,NA,NA,NA,NA,pleasant,unpleasant,NA,NA,NA,NA,NA,right,1786.29999995232,true,NA,NA,NA,NA,NA,NA,NA,NA
Og3Q5P7f,3dw3bnf1hkvs8co26ehcm6ry22mv8w,3rsdurm96ezs8rrsfuvyazn6zyqeya,Og3Q5P7f,2020-0188,2021-10-31,04:47:57,06:03:13,NA,incomplete,false,true,NA,NA,1,6,NA,blue,m_l_092.jpg,NA,NA,NA,NA,NA,unpleasant,pleasant,NA,NA,NA,NA,NA,left,2032.69999980927,true,NA,NA,NA,NA,NA,NA,NA,NA
Og3Q5P7f,3dw3bnf1hkvs8co26ehcm6ry22mv8w,3rsdurm96ezs8rrsfuvyazn6zyqeya,Og3Q5P7f,2020-0188,2021-10-31,04:47:57,06:03:13,NA,incomplete,false,true,NA,NA,1,7,NA,blue,n_s_029.jpg,NA,NA,NA,NA,NA,pleasant,unpleasant,NA,NA,NA,NA,NA,right,1504.89999985695,true,NA,NA,NA,NA,NA,NA,NA,NA
Og3Q5P7f,3dw3bnf1hkvs8co26ehcm6ry22mv8w,3rsdurm96ezs8rrsfuvyazn6zyqeya,Og3Q5P7f,2020-0188,2021-10-31,04:47:57,06:03:13,NA,incomplete,false,true,NA,NA,1,8,NA,blue,n_s_067.jpg,NA,NA,NA,NA,NA,pleasant,unpleasant,NA,NA,NA,NA,NA,right,1674.70000004768,true,NA,NA,NA,NA,NA,NA,NA,NA
Og3Q5P7f,3dw3bnf1hkvs8co26ehcm6ry22mv8w,3rsdurm96ezs8rrsfuvyazn6zyqeya,Og3Q5P7f,2020-0188,2021-10-31,04:47:57,06:03:13,NA,incomplete,false,true,NA,NA,1,9,NA,blue,n_l_035.jpg,NA,NA,NA,NA,NA,unpleasant,pleasant,NA,NA,NA,NA,NA,right,2251.59999990463,true,NA,NA,NA,NA,NA,NA,NA,NA
Og3Q5P7f,3dw3bnf1hkvs8co26ehcm6ry22mv8w,3rsdurm96ezs8rrsfuvyazn6zyqeya,Og3Q5P7f,2020-0188,2021-10-31,04:47:57,06:03:13,NA,incomplete,false,true,NA,NA,1,10,NA,blue,m_s_105.jpg,NA,NA,NA,NA,NA,pleasant,unpleasant,NA,NA,NA,NA,NA,left,2020.5,true,NA,NA,NA,NA,NA,NA,NA,NA
Og3Q5P7f,3dw3bnf1hkvs8co26ehcm6ry22mv8w,3rsdurm96ezs8rrsfuvyazn6zyqeya,Og3Q5P7f,2020-0188,2021-10-31,04:47:57,06:03:13,NA,incomplete,false,true,NA,NA,1,11,NA,blue,n_l_064.jpg,NA,NA,NA,NA,NA,unpleasant,pleasant,NA,NA,NA,NA,NA,right,1589.80000019073,true,NA,NA,NA,NA,NA,NA,NA,NA
Og3Q5P7f,3dw3bnf1hkvs8co26ehcm6ry22mv8w,3rsdurm96ezs8rrsfuvyazn6zyqeya,Og3Q5P7f,2020-0188,2021-10-31,04:47:57,06:03:13,NA,incomplete,false,true,NA,NA,1,12,NA,orange,m_l_043.jpg,NA,NA,NA,NA,NA,pleasant,unpleasant,NA,NA,NA,NA,NA,left,2542.69999980927,true,NA,NA,NA,NA,NA,NA,NA,NA
Og3Q5P7f,3dw3bnf1hkvs8co26ehcm6ry22mv8w,3rsdurm96ezs8rrsfuvyazn6zyqeya,Og3Q5P7f,2020-0188,2021-10-31,04:47:57,06:03:13,NA,incomplete,false,true,NA,NA,1,13,NA,orange,n_s_063.jpg,NA,NA,NA,NA,NA,unpleasant,pleasant,NA,NA,NA,NA,NA,right,2143.89999985695,true,NA,NA,NA,NA,NA,NA,NA,NA
Og3Q5P7f,3dw3bnf1hkvs8co26ehcm6ry22mv8w,3rsdurm96ezs8rrsfuvyazn6zyqeya,Og3Q5P7f,2020-0188,2021-10-31,04:47:57,06:03:13,NA,incomplete,false,true,NA,NA,1,14,NA,orange,m_s_117.jpg,NA,NA,NA,NA,NA,pleasant,unpleasant,NA,NA,NA,NA,NA,right,2248.79999995232,true,NA,NA,NA,NA,NA,NA,NA,NA
Og3Q5P7f,3dw3bnf1hkvs8co26ehcm6ry22mv8w,3rsdurm96ezs8rrsfuvyazn6zyqeya,Og3Q5P7f,2020-0188,2021-10-31,04:47:57,06:03:13,NA,incomplete,false,true,NA,NA,1,15,NA,orange,n_s_098.jpg,NA,NA,NA,NA,NA,unpleasant,pleasant,NA,NA,NA,NA,NA,right,1593.70000004768,true,NA,NA,NA,NA,NA,NA,NA,NA
Og3Q5P7f,3dw3bnf1hkvs8co26ehcm6ry22mv8w,3rsdurm96ezs8rrsfuvyazn6zyqeya,Og3Q5P7f,2020-0188,2021-10-31,04:47:57,06:03:13,NA,incomplete,false,true,NA,NA,1,16,NA,orange,m_l_109.jpg,NA,NA,NA,NA,NA,unpleasant,pleasant,NA,NA,NA,NA,NA,left,1899.09999990463,true,NA,NA,NA,NA,NA,NA,NA,NA
Og3Q5P7f,3dw3bnf1hkvs8co26ehcm6ry22mv8w,3rsdurm96ezs8rrsfuvyazn6zyqeya,Og3Q5P7f,2020-0188,2021-10-31,04:47:57,06:03:13,NA,incomplete,false,true,NA,NA,1,17,NA,orange,n_s_117.jpg,NA,NA,NA,NA,NA,unpleasant,pleasant,NA,NA,NA,NA,NA,left,1708.40000009537,true,NA,NA,NA,NA,NA,NA,NA,NA
Og3Q5P7f,3dw3bnf1hkvs8co26ehcm6ry22mv8w,3rsdurm96ezs8rrsfuvyazn6zyqeya,Og3Q5P7f,2020-0188,2021-10-31,04:47:57,06:03:13,NA,incomplete,false,true,NA,NA,1,18,NA,white,m_l_076.jpg,NA,NA,NA,NA,NA,pleasant,unpleasant,NA,NA,NA,NA,NA,right,2325.20000004768,true,NA,NA,NA,NA,NA,NA,NA,NA
Og3Q5P7f,3dw3bnf1hkvs8co26ehcm6ry22mv8w,3rsdurm96ezs8rrsfuvyazn6zyqeya,Og3Q5P7f,2020-0188,2021-10-31,04:47:57,06:03:13,NA,incomplete,false,true,NA,NA,1,19,NA,white,n_l_108.jpg,NA,NA,NA,NA,NA,unpleasant,pleasant,NA,NA,NA,NA,NA,right,1726.19999980927,true,NA,NA,NA,NA,NA,NA,NA,NA
Og3Q5P7f,3dw3bnf1hkvs8co26ehcm6ry22mv8w,3rsdurm96ezs8rrsfuvyazn6zyqeya,Og3Q5P7f,2020-0188,2021-10-31,04:47:57,06:03:13,NA,incomplete,false,true,NA,NA,1,20,NA,white,n_l_065.jpg,NA,NA,NA,NA,NA,pleasant,unpleasant,NA,NA,NA,NA,NA,left,1543.5,true,NA,NA,NA,NA,NA,NA,NA,NA
Og3Q5P7f,3dw3bnf1hkvs8co26ehcm6ry22mv8w,3rsdurm96ezs8rrsfuvyazn6zyqeya,Og3Q5P7f,2020-0188,2021-10-31,04:47:57,06:03:13,NA,incomplete,false,true,NA,NA,1,21,NA,white,n_l_116.jpg,NA,NA,NA,NA,NA,unpleasant,pleasant,NA,NA,NA,NA,NA,right,1288.39999985695,true,NA,NA,NA,NA,NA,NA,NA,NA
Og3Q5P7f,3dw3bnf1hkvs8co26ehcm6ry22mv8w,3rsdurm96ezs8rrsfuvyazn6zyqeya,Og3Q5P7f,2020-0188,2021-10-31,04:47:57,06:03:13,NA,incomplete,false,true,NA,NA,1,22,NA,white,m_l_101.jpg,NA,NA,NA,NA,NA,pleasant,unpleasant,NA,NA,NA,NA,NA,left,1905.20000004768,true,NA,NA,NA,NA,NA,NA,NA,NA
Og3Q5P7f,3dw3bnf1hkvs8co26ehcm6ry22mv8w,3rsdurm96ezs8rrsfuvyazn6zyqeya,Og3Q5P7f,2020-0188,2021-10-31,04:47:57,06:03:13,NA,incomplete,false,true,NA,NA,1,23,NA,white,m_l_107.jpg,NA,NA,NA,NA,NA,pleasant,unpleasant,NA,NA,NA,NA,NA,right,1730.60000014305,true,NA,NA,NA,NA,NA,NA,NA,NA
Og3Q5P7f,3dw3bnf1hkvs8co26ehcm6ry22mv8w,3rsdurm96ezs8rrsfuvyazn6zyqeya,Og3Q5P7f,2020-0188,2021-10-31,04:47:57,06:03:13,NA,incomplete,false,true,NA,NA,1,24,NA,yellow,m_s_097.jpg,NA,NA,NA,NA,NA,pleasant,unpleasant,NA,NA,NA,NA,NA,right,1211.5,true,NA,NA,NA,NA,NA,NA,NA,NA
Og3Q5P7f,3dw3bnf1hkvs8co26ehcm6ry22mv8w,3rsdurm96ezs8rrsfuvyazn6zyqeya,Og3Q5P7f,2020-0188,2021-10-31,04:47:57,06:03:13,NA,incomplete,false,true,NA,NA,1,25,NA,yellow,m_l_064.jpg,NA,NA,NA,NA,NA,pleasant,unpleasant,NA,NA,NA,NA,NA,left,1412.70000004768,true,NA,NA,NA,NA,NA,NA,NA,NA
Og3Q5P7f,3dw3bnf1hkvs8co26ehcm6ry22mv8w,3rsdurm96ezs8rrsfuvyazn6zyqeya,Og3Q5P7f,2020-0188,2021-10-31,04:47:57,06:03:13,NA,incomplete,false,true,NA,NA,1,26,NA,yellow,m_s_077.jpg,NA,NA,NA,NA,NA,unpleasant,pleasant,NA,NA,NA,NA,NA,right,1859.29999995232,true,NA,NA,NA,NA,NA,NA,NA,NA
Og3Q5P7f,3dw3bnf1hkvs8co26ehcm6ry22mv8w,3rsdurm96ezs8rrsfuvyazn6zyqeya,Og3Q5P7f,2020-0188,2021-10-31,04:47:57,06:03:13,NA,incomplete,false,true,NA,NA,1,27,NA,yellow,m_s_101.jpg,NA,NA,NA,NA,NA,pleasant,unpleasant,NA,NA,NA,NA,NA,right,1644.20000004768,true,NA,NA,NA,NA,NA,NA,NA,NA
Og3Q5P7f,3dw3bnf1hkvs8co26ehcm6ry22mv8w,3rsdurm96ezs8rrsfuvyazn6zyqeya,Og3Q5P7f,2020-0188,2021-10-31,04:47:57,06:03:13,NA,incomplete,false,true,NA,NA,1,28,NA,yellow,n_l_080.jpg,NA,NA,NA,NA,NA,unpleasant,pleasant,NA,NA,NA,NA,NA,left,1332.79999995232,true,NA,NA,NA,NA,NA,NA,NA,NA
Og3Q5P7f,3dw3bnf1hkvs8co26ehcm6ry22mv8w,3rsdurm96ezs8rrsfuvyazn6zyqeya,Og3Q5P7f,2020-0188,2021-10-31,04:47:57,06:03:13,NA,incomplete,false,true,NA,NA,1,29,NA,yellow,n_l_020.jpg,NA,NA,NA,NA,NA,pleasant,unpleasant,NA,NA,NA,NA,NA,left,1227.70000004768,true,NA,NA,NA,NA,NA,NA,NA,NA
Og3Q5P7f,3dw3bnf1hkvs8co26ehcm6ry22mv8w,3rsdurm96ezs8rrsfuvyazn6zyqeya,Og3Q5P7f,2020-0188,2021-10-31,04:47:57,06:03:13,NA,incomplete,false,true,NA,NA,1,30,NA,brown,n_l_019.jpg,NA,NA,NA,NA,NA,pleasant,unpleasant,NA,NA,NA,NA,NA,left,1196.90000009537,true,NA,NA,NA,NA,NA,NA,NA,NA
Og3Q5P7f,3dw3bnf1hkvs8co26ehcm6ry22mv8w,3rsdurm96ezs8rrsfuvyazn6zyqeya,Og3Q5P7f,2020-0188,2021-10-31,04:47:57,06:03:13,NA,incomplete,false,true,NA,NA,1,31,NA,brown,n_s_044.jpg,NA,NA,NA,NA,NA,pleasant,unpleasant,NA,NA,NA,NA,NA,right,1285.79999995232,true,NA,NA,NA,NA,NA,NA,NA,NA
Og3Q5P7f,3dw3bnf1hkvs8co26ehcm6ry22mv8w,3rsdurm96ezs8rrsfuvyazn6zyqeya,Og3Q5P7f,2020-0188,2021-10-31,04:47:57,06:03:13,NA,incomplete,false,true,NA,NA,1,32,NA,brown,m_s_059.jpg,NA,NA,NA,NA,NA,unpleasant,pleasant,NA,NA,NA,NA,NA,left,1231.5,true,NA,NA,NA,NA,NA,NA,NA,NA
Og3Q5P7f,3dw3bnf1hkvs8co26ehcm6ry22mv8w,3rsdurm96ezs8rrsfuvyazn6zyqeya,Og3Q5P7f,2020-0188,2021-10-31,04:47:57,06:03:13,NA,incomplete,false,true,NA,NA,1,33,NA,brown,m_l_015.jpg,NA,NA,NA,NA,NA,unpleasant,pleasant,NA,NA,NA,NA,NA,right,1240.30000019073,true,NA,NA,NA,NA,NA,NA,NA,NA
Og3Q5P7f,3dw3bnf1hkvs8co26ehcm6ry22mv8w,3rsdurm96ezs8rrsfuvyazn6zyqeya,Og3Q5P7f,2020-0188,2021-10-31,04:47:57,06:03:13,NA,incomplete,false,true,NA,NA,1,34,NA,brown,n_l_033.jpg,NA,NA,NA,NA,NA,unpleasant,pleasant,NA,NA,NA,NA,NA,left,1166.39999985695,true,NA,NA,NA,NA,NA,NA,NA,NA
Og3Q5P7f,3dw3bnf1hkvs8co26ehcm6ry22mv8w,3rsdurm96ezs8rrsfuvyazn6zyqeya,Og3Q5P7f,2020-0188,2021-10-31,04:47:57,06:03:13,NA,incomplete,false,true,NA,NA,1,35,NA,brown,m_s_001.jpg,NA,NA,NA,NA,NA,unpleasant,pleasant,NA,NA,NA,NA,NA,right,1390,true,NA,NA,NA,NA,NA,NA,NA,NA
Og3Q5P7f,3dw3bnf1hkvs8co26ehcm6ry22mv8w,3rsdurm96ezs8rrsfuvyazn6zyqeya,Og3Q5P7f,2020-0188,2021-10-31,04:47:57,06:03:13,NA,incomplete,false,NA,NA,true,1,0,NA,NA,NA,right,m_l_064.jpg,white,yellow,NA,NA,NA,NA,NA,NA,NA,NA,NA,NaN,NA,2655.5,right,1,NA,NA,NA,NA,NA
Og3Q5P7f,3dw3bnf1hkvs8co26ehcm6ry22mv8w,3rsdurm96ezs8rrsfuvyazn6zyqeya,Og3Q5P7f,2020-0188,2021-10-31,04:47:57,06:03:13,NA,incomplete,false,NA,NA,true,1,1,NA,NA,NA,left,m_l_087.jpg,purple,blue,NA,NA,NA,NA,NA,NA,NA,NA,NA,NaN,NA,2847.5999999046326,right,0,NA,NA,NA,NA,NA
Og3Q5P7f,3dw3bnf1hkvs8co26ehcm6ry22mv8w,3rsdurm96ezs8rrsfuvyazn6zyqeya,Og3Q5P7f,2020-0188,2021-10-31,04:47:57,06:03:13,NA,incomplete,false,NA,NA,true,1,2,NA,NA,NA,left,m_s_117.jpg,orange,white,NA,NA,NA,NA,NA,NA,NA,NA,NA,NaN,NA,2279.4000000953674,left,1,NA,NA,NA,NA,NA
Og3Q5P7f,3dw3bnf1hkvs8co26ehcm6ry22mv8w,3rsdurm96ezs8rrsfuvyazn6zyqeya,Og3Q5P7f,2020-0188,2021-10-31,04:47:57,06:03:13,NA,incomplete,false,NA,NA,true,1,3,NA,NA,NA,right,n_s_044.jpg,yellow,brown,NA,NA,NA,NA,NA,NA,NA,NA,NA,NaN,NA,2247.100000143051,right,1,NA,NA,NA,NA,NA
Og3Q5P7f,3dw3bnf1hkvs8co26ehcm6ry22mv8w,3rsdurm96ezs8rrsfuvyazn6zyqeya,Og3Q5P7f,2020-0188,2021-10-31,04:47:57,06:03:13,NA,incomplete,false,NA,NA,true,1,4,NA,NA,NA,right,m_s_077.jpg,brown,yellow,NA,NA,NA,NA,NA,NA,NA,NA,NA,NaN,NA,2640,right,1,NA,NA,NA,NA,NA
Og3Q5P7f,3dw3bnf1hkvs8co26ehcm6ry22mv8w,3rsdurm96ezs8rrsfuvyazn6zyqeya,Og3Q5P7f,2020-0188,2021-10-31,04:47:57,06:03:13,NA,incomplete,false,NA,NA,true,1,5,NA,NA,NA,right,m_s_059.jpg,yellow,brown,NA,NA,NA,NA,NA,NA,NA,NA,NA,NaN,NA,2343.5999999046326,right,1,NA,NA,NA,NA,NA
Og3Q5P7f,3dw3bnf1hkvs8co26ehcm6ry22mv8w,3rsdurm96ezs8rrsfuvyazn6zyqeya,Og3Q5P7f,2020-0188,2021-10-31,04:47:57,06:03:13,NA,incomplete,false,NA,NA,true,1,6,NA,NA,NA,left,m_l_107.jpg,white,yellow,NA,NA,NA,NA,NA,NA,NA,NA,NA,NaN,NA,2623.2999999523163,left,1,NA,NA,NA,NA,NA
Og3Q5P7f,3dw3bnf1hkvs8co26ehcm6ry22mv8w,3rsdurm96ezs8rrsfuvyazn6zyqeya,Og3Q5P7f,2020-0188,2021-10-31,04:47:57,06:03:13,NA,incomplete,false,NA,NA,true,1,7,NA,NA,NA,left,n_l_036.jpg,purple,blue,NA,NA,NA,NA,NA,NA,NA,NA,NA,NaN,NA,1727.5,right,0,NA,NA,NA,NA,NA
Og3Q5P7f,3dw3bnf1hkvs8co26ehcm6ry22mv8w,3rsdurm96ezs8rrsfuvyazn6zyqeya,Og3Q5P7f,2020-0188,2021-10-31,04:47:57,06:03:13,NA,incomplete,false,NA,NA,true,1,8,NA,NA,NA,left,n_s_063.jpg,orange,white,NA,NA,NA,NA,NA,NA,NA,NA,NA,NaN,NA,1935,left,1,NA,NA,NA,NA,NA
Og3Q5P7f,3dw3bnf1hkvs8co26ehcm6ry22mv8w,3rsdurm96ezs8rrsfuvyazn6zyqeya,Og3Q5P7f,2020-0188,2021-10-31,04:47:57,06:03:13,NA,incomplete,false,NA,NA,true,1,9,NA,NA,NA,left,n_l_020.jpg,yellow,brown,NA,NA,NA,NA,NA,NA,NA,NA,NA,NaN,NA,1934.7999999523163,left,1,NA,NA,NA,NA,NA
Og3Q5P7f,3dw3bnf1hkvs8co26ehcm6ry22mv8w,3rsdurm96ezs8rrsfuvyazn6zyqeya,Og3Q5P7f,2020-0188,2021-10-31,04:47:57,06:03:13,NA,incomplete,false,NA,NA,true,1,10,NA,NA,NA,right,n_l_064.jpg,purple,blue,NA,NA,NA,NA,NA,NA,NA,NA,NA,NaN,NA,4447.099999904633,right,1,NA,NA,NA,NA,NA
Og3Q5P7f,3dw3bnf1hkvs8co26ehcm6ry22mv8w,3rsdurm96ezs8rrsfuvyazn6zyqeya,Og3Q5P7f,2020-0188,2021-10-31,04:47:57,06:03:13,NA,incomplete,false,NA,NA,true,1,11,NA,NA,NA,right,m_s_001.jpg,yellow,brown,NA,NA,NA,NA,NA,NA,NA,NA,NA,NaN,NA,4119.600000143051,right,1,NA,NA,NA,NA,NA
Og3Q5P7f,3dw3bnf1hkvs8co26ehcm6ry22mv8w,3rsdurm96ezs8rrsfuvyazn6zyqeya,Og3Q5P7f,2020-0188,2021-10-31,04:47:57,06:03:13,NA,incomplete,false,NA,NA,true,1,12,NA,NA,NA,right,m_s_093.jpg,blue,purple,NA,NA,NA,NA,NA,NA,NA,NA,NA,NaN,NA,2943.5,left,0,NA,NA,NA,NA,NA
Og3Q5P7f,3dw3bnf1hkvs8co26ehcm6ry22mv8w,3rsdurm96ezs8rrsfuvyazn6zyqeya,Og3Q5P7f,2020-0188,2021-10-31,04:47:57,06:03:13,NA,incomplete,false,NA,NA,true,1,13,NA,NA,NA,right,m_l_101.jpg,yellow,white,NA,NA,NA,NA,NA,NA,NA,NA,NA,NaN,NA,3215.7999999523163,right,1,NA,NA,NA,NA,NA
Og3Q5P7f,3dw3bnf1hkvs8co26ehcm6ry22mv8w,3rsdurm96ezs8rrsfuvyazn6zyqeya,Og3Q5P7f,2020-0188,2021-10-31,04:47:57,06:03:13,NA,incomplete,false,NA,NA,true,1,14,NA,NA,NA,right,n_s_117.jpg,blue,orange,NA,NA,NA,NA,NA,NA,NA,NA,NA,NaN,NA,2103.399999856949,right,1,NA,NA,NA,NA,NA
Og3Q5P7f,3dw3bnf1hkvs8co26ehcm6ry22mv8w,3rsdurm96ezs8rrsfuvyazn6zyqeya,Og3Q5P7f,2020-0188,2021-10-31,04:47:57,06:03:13,NA,incomplete,false,NA,NA,true,1,15,NA,NA,NA,right,n_l_080.jpg,brown,yellow,NA,NA,NA,NA,NA,NA,NA,NA,NA,NaN,NA,3295.4000000953674,right,1,NA,NA,NA,NA,NA
Og3Q5P7f,3dw3bnf1hkvs8co26ehcm6ry22mv8w,3rsdurm96ezs8rrsfuvyazn6zyqeya,Og3Q5P7f,2020-0188,2021-10-31,04:47:57,06:03:13,NA,incomplete,false,NA,NA,true,1,16,NA,NA,NA,right,n_l_108.jpg,orange,white,NA,NA,NA,NA,NA,NA,NA,NA,NA,NaN,NA,2951.600000143051,right,1,NA,NA,NA,NA,NA
Og3Q5P7f,3dw3bnf1hkvs8co26ehcm6ry22mv8w,3rsdurm96ezs8rrsfuvyazn6zyqeya,Og3Q5P7f,2020-0188,2021-10-31,04:47:57,06:03:13,NA,incomplete,false,NA,NA,true,1,17,NA,NA,NA,left,n_s_067.jpg,blue,orange,NA,NA,NA,NA,NA,NA,NA,NA,NA,NaN,NA,5143.5,left,1,NA,NA,NA,NA,NA
Og3Q5P7f,3dw3bnf1hkvs8co26ehcm6ry22mv8w,3rsdurm96ezs8rrsfuvyazn6zyqeya,Og3Q5P7f,2020-0188,2021-10-31,04:47:57,06:03:13,NA,incomplete,false,NA,NA,true,1,18,NA,NA,NA,right,n_s_029.jpg,orange,blue,NA,NA,NA,NA,NA,NA,NA,NA,NA,NaN,NA,2135.2999999523163,left,0,NA,NA,NA,NA,NA
Og3Q5P7f,3dw3bnf1hkvs8co26ehcm6ry22mv8w,3rsdurm96ezs8rrsfuvyazn6zyqeya,Og3Q5P7f,2020-0188,2021-10-31,04:47:57,06:03:13,NA,incomplete,false,NA,NA,true,1,19,NA,NA,NA,left,m_l_109.jpg,orange,blue,NA,NA,NA,NA,NA,NA,NA,NA,NA,NaN,NA,2215.399999856949,left,1,NA,NA,NA,NA,NA
Og3Q5P7f,3dw3bnf1hkvs8co26ehcm6ry22mv8w,3rsdurm96ezs8rrsfuvyazn6zyqeya,Og3Q5P7f,2020-0188,2021-10-31,04:47:57,06:03:13,NA,incomplete,false,NA,NA,true,1,20,NA,NA,NA,right,m_s_105.jpg,orange,blue,NA,NA,NA,NA,NA,NA,NA,NA,NA,NaN,NA,2352,right,1,NA,NA,NA,NA,NA
Og3Q5P7f,3dw3bnf1hkvs8co26ehcm6ry22mv8w,3rsdurm96ezs8rrsfuvyazn6zyqeya,Og3Q5P7f,2020-0188,2021-10-31,04:47:57,06:03:13,NA,incomplete,false,NA,NA,true,1,21,NA,NA,NA,right,n_l_065.jpg,orange,white,NA,NA,NA,NA,NA,NA,NA,NA,NA,NaN,NA,3071.5,right,1,NA,NA,NA,NA,NA
Og3Q5P7f,3dw3bnf1hkvs8co26ehcm6ry22mv8w,3rsdurm96ezs8rrsfuvyazn6zyqeya,Og3Q5P7f,2020-0188,2021-10-31,04:47:57,06:03:13,NA,incomplete,false,NA,true,NA,1,0,NA,NA,NA,right,NA,NA,NA,present,NA,NA,m_s_001.jpg,brown,n_s_044.jpg,brown,within,NA,NaN,NA,NA,NA,NA,right,4063.5,1,1,4479.200000047684
Og3Q5P7f,3dw3bnf1hkvs8co26ehcm6ry22mv8w,3rsdurm96ezs8rrsfuvyazn6zyqeya,Og3Q5P7f,2020-0188,2021-10-31,04:47:57,06:03:13,NA,incomplete,false,NA,true,NA,1,1,NA,NA,NA,right,NA,NA,NA,present,NA,NA,n_s_067.jpg,blue,m_s_093.jpg,purple,between,NA,NaN,NA,NA,NA,NA,left,3471.2999999523163,0,2,1671.4000000953674
Og3Q5P7f,3dw3bnf1hkvs8co26ehcm6ry22mv8w,3rsdurm96ezs8rrsfuvyazn6zyqeya,Og3Q5P7f,2020-0188,2021-10-31,04:47:57,06:03:13,NA,incomplete,false,NA,true,NA,1,2,NA,NA,NA,right,NA,NA,NA,present,NA,NA,m_s_117.jpg,orange,m_s_105.jpg,blue,between,NA,NaN,NA,NA,NA,NA,right,3607.2999999523163,1,2,1591.2999999523163
Og3Q5P7f,3dw3bnf1hkvs8co26ehcm6ry22mv8w,3rsdurm96ezs8rrsfuvyazn6zyqeya,Og3Q5P7f,2020-0188,2021-10-31,04:47:57,06:03:13,NA,incomplete,false,NA,true,NA,1,3,NA,NA,NA,left,NA,NA,NA,present,NA,NA,n_s_063.jpg,orange,n_s_117.jpg,orange,within,NA,NaN,NA,NA,NA,NA,right,6647.100000143051,0,0,1887.3999998569489
Og3Q5P7f,3dw3bnf1hkvs8co26ehcm6ry22mv8w,3rsdurm96ezs8rrsfuvyazn6zyqeya,Og3Q5P7f,2020-0188,2021-10-31,04:47:57,06:03:13,NA,incomplete,false,NA,true,NA,1,4,NA,NA,NA,left,NA,NA,NA,present,NA,NA,n_l_108.jpg,white,m_l_107.jpg,white,within,NA,NaN,NA,NA,NA,NA,right,4415.100000143051,0,1,1791.2999999523163
Og3Q5P7f,3dw3bnf1hkvs8co26ehcm6ry22mv8w,3rsdurm96ezs8rrsfuvyazn6zyqeya,Og3Q5P7f,2020-0188,2021-10-31,04:47:57,06:03:13,NA,incomplete,false,NA,true,NA,1,5,NA,NA,NA,left,NA,NA,NA,present,NA,NA,m_l_101.jpg,white,m_s_077.jpg,yellow,between,NA,NaN,NA,NA,NA,NA,right,7207.5,0,2,1272
Og3Q5P7f,3dw3bnf1hkvs8co26ehcm6ry22mv8w,3rsdurm96ezs8rrsfuvyazn6zyqeya,Og3Q5P7f,2020-0188,2021-10-31,04:47:57,06:03:13,NA,incomplete,false,NA,true,NA,1,6,NA,NA,NA,right,NA,NA,NA,present,NA,NA,n_l_020.jpg,yellow,m_l_064.jpg,yellow,within,NA,NaN,NA,NA,NA,NA,left,3047.699999809265,0,1,1543.3000001907349
Og3Q5P7f,3dw3bnf1hkvs8co26ehcm6ry22mv8w,3rsdurm96ezs8rrsfuvyazn6zyqeya,Og3Q5P7f,2020-0188,2021-10-31,04:47:57,06:03:13,NA,incomplete,false,NA,true,NA,1,7,NA,NA,NA,left,NA,NA,NA,present,NA,NA,n_s_029.jpg,blue,n_l_064.jpg,blue,within,NA,NaN,NA,NA,NA,NA,right,3078.7999999523163,0,1,1511.4000000953674
Og3Q5P7f,3dw3bnf1hkvs8co26ehcm6ry22mv8w,3rsdurm96ezs8rrsfuvyazn6zyqeya,Og3Q5P7f,2020-0188,2021-10-31,04:47:57,06:03:13,NA,incomplete,false,NA,true,NA,1,8,NA,NA,NA,left,NA,NA,NA,present,NA,NA,n_l_036.jpg,purple,m_l_087.jpg,purple,within,NA,NaN,NA,NA,NA,NA,left,4127.5,1,0,1631.0999999046326
Og3Q5P7f,3dw3bnf1hkvs8co26ehcm6ry22mv8w,3rsdurm96ezs8rrsfuvyazn6zyqeya,Og3Q5P7f,2020-0188,2021-10-31,04:47:57,06:03:13,NA,incomplete,false,NA,true,NA,1,9,NA,NA,NA,left,NA,NA,NA,present,NA,NA,n_l_080.jpg,yellow,m_s_059.jpg,brown,between,NA,NaN,NA,NA,NA,NA,left,4695.600000143051,1,2,1151.3999998569489
Og3Q5P7f,3dw3bnf1hkvs8co26ehcm6ry22mv8w,3rsdurm96ezs8rrsfuvyazn6zyqeya,Og3Q5P7f,2020-0188,2021-10-31,04:47:57,06:03:13,NA,incomplete,false,NA,true,NA,1,10,NA,NA,NA,right,NA,NA,NA,present,NA,NA,n_l_065.jpg,white,m_l_109.jpg,orange,between,NA,NaN,NA,NA,NA,NA,right,4599.299999952316,1,3,1311.2999999523163
Og3Q5P7f,3dw3bnf1hkvs8co26ehcm6ry22mv8w,3rsdurm96ezs8rrsfuvyazn6zyqeya,Og3Q5P7f,2020-0188,2021-10-31,04:47:57,06:03:13,NA,incomplete,false,true,NA,NA,2,0,NA,yellow,n_l_079.jpg,NA,NA,NA,NA,NA,unpleasant,pleasant,NA,NA,NA,NA,NA,right,1997.40000009537,true,NA,NA,NA,NA,NA,NA,NA,NA
Og3Q5P7f,3dw3bnf1hkvs8co26ehcm6ry22mv8w,3rsdurm96ezs8rrsfuvyazn6zyqeya,Og3Q5P7f,2020-0188,2021-10-31,04:47:57,06:03:13,NA,incomplete,false,true,NA,NA,2,1,NA,yellow,n_l_059.jpg,NA,NA,NA,NA,NA,pleasant,unpleasant,NA,NA,NA,NA,NA,left,2150.80000019073,true,NA,NA,NA,NA,NA,NA,NA,NA
Og3Q5P7f,3dw3bnf1hkvs8co26ehcm6ry22mv8w,3rsdurm96ezs8rrsfuvyazn6zyqeya,Og3Q5P7f,2020-0188,2021-10-31,04:47:57,06:03:13,NA,incomplete,false,true,NA,NA,2,2,NA,yellow,n_s_036.jpg,NA,NA,NA,NA,NA,pleasant,unpleasant,NA,NA,NA,NA,NA,right,1920.09999990463,true,NA,NA,NA,NA,NA,NA,NA,NA
Og3Q5P7f,3dw3bnf1hkvs8co26ehcm6ry22mv8w,3rsdurm96ezs8rrsfuvyazn6zyqeya,Og3Q5P7f,2020-0188,2021-10-31,04:47:57,06:03:13,NA,incomplete,false,true,NA,NA,2,3,NA,yellow,m_l_082.jpg,NA,NA,NA,NA,NA,unpleasant,pleasant,NA,NA,NA,NA,NA,left,2318.90000009537,true,NA,NA,NA,NA,NA,NA,NA,NA
Og3Q5P7f,3dw3bnf1hkvs8co26ehcm6ry22mv8w,3rsdurm96ezs8rrsfuvyazn6zyqeya,Og3Q5P7f,2020-0188,2021-10-31,04:47:57,06:03:13,NA,incomplete,false,true,NA,NA,2,4,NA,yellow,m_l_041.jpg,NA,NA,NA,NA,NA,pleasant,unpleasant,NA,NA,NA,NA,NA,right,1399.39999985695,true,NA,NA,NA,NA,NA,NA,NA,NA
Og3Q5P7f,3dw3bnf1hkvs8co26ehcm6ry22mv8w,3rsdurm96ezs8rrsfuvyazn6zyqeya,Og3Q5P7f,2020-0188,2021-10-31,04:47:57,06:03:13,NA,incomplete,false,true,NA,NA,2,5,NA,yellow,m_s_083.jpg,NA,NA,NA,NA,NA,pleasant,unpleasant,NA,NA,NA,NA,NA,left,1429.90000009537,true,NA,NA,NA,NA,NA,NA,NA,NA
Og3Q5P7f,3dw3bnf1hkvs8co26ehcm6ry22mv8w,3rsdurm96ezs8rrsfuvyazn6zyqeya,Og3Q5P7f,2020-0188,2021-10-31,04:47:57,06:03:13,NA,incomplete,false,true,NA,NA,2,6,NA,brown,m_s_025.jpg,NA,NA,NA,NA,NA,pleasant,unpleasant,NA,NA,NA,NA,NA,right,1759.20000004768,true,NA,NA,NA,NA,NA,NA,NA,NA
Og3Q5P7f,3dw3bnf1hkvs8co26ehcm6ry22mv8w,3rsdurm96ezs8rrsfuvyazn6zyqeya,Og3Q5P7f,2020-0188,2021-10-31,04:47:57,06:03:13,NA,incomplete,false,true,NA,NA,2,7,NA,brown,n_s_011.jpg,NA,NA,NA,NA,NA,pleasant,unpleasant,NA,NA,NA,NA,NA,left,1296,true,NA,NA,NA,NA,NA,NA,NA,NA
Og3Q5P7f,3dw3bnf1hkvs8co26ehcm6ry22mv8w,3rsdurm96ezs8rrsfuvyazn6zyqeya,Og3Q5P7f,2020-0188,2021-10-31,04:47:57,06:03:13,NA,incomplete,false,true,NA,NA,2,8,NA,brown,m_s_041.jpg,NA,NA,NA,NA,NA,unpleasant,pleasant,NA,NA,NA,NA,NA,right,1049.29999995232,true,NA,NA,NA,NA,NA,NA,NA,NA
Og3Q5P7f,3dw3bnf1hkvs8co26ehcm6ry22mv8w,3rsdurm96ezs8rrsfuvyazn6zyqeya,Og3Q5P7f,2020-0188,2021-10-31,04:47:57,06:03:13,NA,incomplete,false,true,NA,NA,2,9,NA,brown,m_s_028.jpg,NA,NA,NA,NA,NA,pleasant,unpleasant,NA,NA,NA,NA,NA,left,1506.59999990463,true,NA,NA,NA,NA,NA,NA,NA,NA
Og3Q5P7f,3dw3bnf1hkvs8co26ehcm6ry22mv8w,3rsdurm96ezs8rrsfuvyazn6zyqeya,Og3Q5P7f,2020-0188,2021-10-31,04:47:57,06:03:13,NA,incomplete,false,true,NA,NA,2,10,NA,brown,n_l_105.jpg,NA,NA,NA,NA,NA,unpleasant,pleasant,NA,NA,NA,NA,NA,right,1064.39999985695,true,NA,NA,NA,NA,NA,NA,NA,NA
Og3Q5P7f,3dw3bnf1hkvs8co26ehcm6ry22mv8w,3rsdurm96ezs8rrsfuvyazn6zyqeya,Og3Q5P7f,2020-0188,2021-10-31,04:47:57,06:03:13,NA,incomplete,false,true,NA,NA,2,11,NA,brown,n_l_101.jpg,NA,NA,NA,NA,NA,unpleasant,pleasant,NA,NA,NA,NA,NA,left,1986,true,NA,NA,NA,NA,NA,NA,NA,NA
Og3Q5P7f,3dw3bnf1hkvs8co26ehcm6ry22mv8w,3rsdurm96ezs8rrsfuvyazn6zyqeya,Og3Q5P7f,2020-0188,2021-10-31,04:47:57,06:03:13,NA,incomplete,false,true,NA,NA,2,12,NA,black,n_l_008.jpg,NA,NA,NA,NA,NA,unpleasant,pleasant,NA,NA,NA,NA,NA,right,1418.79999995232,true,NA,NA,NA,NA,NA,NA,NA,NA
Og3Q5P7f,3dw3bnf1hkvs8co26ehcm6ry22mv8w,3rsdurm96ezs8rrsfuvyazn6zyqeya,Og3Q5P7f,2020-0188,2021-10-31,04:47:57,06:03:13,NA,incomplete,false,true,NA,NA,2,13,NA,black,n_s_102.jpg,NA,NA,NA,NA,NA,unpleasant,pleasant,NA,NA,NA,NA,NA,right,1259.90000009537,true,NA,NA,NA,NA,NA,NA,NA,NA
Og3Q5P7f,3dw3bnf1hkvs8co26ehcm6ry22mv8w,3rsdurm96ezs8rrsfuvyazn6zyqeya,Og3Q5P7f,2020-0188,2021-10-31,04:47:57,06:03:13,NA,incomplete,false,true,NA,NA,2,14,NA,black,n_l_038.jpg,NA,NA,NA,NA,NA,unpleasant,pleasant,NA,NA,NA,NA,NA,right,1628.90000009537,true,NA,NA,NA,NA,NA,NA,NA,NA
Og3Q5P7f,3dw3bnf1hkvs8co26ehcm6ry22mv8w,3rsdurm96ezs8rrsfuvyazn6zyqeya,Og3Q5P7f,2020-0188,2021-10-31,04:47:57,06:03:13,NA,incomplete,false,true,NA,NA,2,15,NA,black,m_l_113.jpg,NA,NA,NA,NA,NA,unpleasant,pleasant,NA,NA,NA,NA,NA,left,2046.29999995232,true,NA,NA,NA,NA,NA,NA,NA,NA
Og3Q5P7f,3dw3bnf1hkvs8co26ehcm6ry22mv8w,3rsdurm96ezs8rrsfuvyazn6zyqeya,Og3Q5P7f,2020-0188,2021-10-31,04:47:57,06:03:13,NA,incomplete,false,true,NA,NA,2,16,NA,black,n_s_076.jpg,NA,NA,NA,NA,NA,unpleasant,pleasant,NA,NA,NA,NA,NA,left,1735.10000014305,true,NA,NA,NA,NA,NA,NA,NA,NA
Og3Q5P7f,3dw3bnf1hkvs8co26ehcm6ry22mv8w,3rsdurm96ezs8rrsfuvyazn6zyqeya,Og3Q5P7f,2020-0188,2021-10-31,04:47:57,06:03:13,NA,incomplete,false,true,NA,NA,2,17,NA,black,n_l_005.jpg,NA,NA,NA,NA,NA,pleasant,unpleasant,NA,NA,NA,NA,NA,left,1504.29999995232,true,NA,NA,NA,NA,NA,NA,NA,NA
Og3Q5P7f,3dw3bnf1hkvs8co26ehcm6ry22mv8w,3rsdurm96ezs8rrsfuvyazn6zyqeya,Og3Q5P7f,2020-0188,2021-10-31,04:47:57,06:03:13,NA,incomplete,false,true,NA,NA,2,18,NA,purple,m_s_015.jpg,NA,NA,NA,NA,NA,pleasant,unpleasant,NA,NA,NA,NA,NA,right,1665.39999985695,true,NA,NA,NA,NA,NA,NA,NA,NA
Og3Q5P7f,3dw3bnf1hkvs8co26ehcm6ry22mv8w,3rsdurm96ezs8rrsfuvyazn6zyqeya,Og3Q5P7f,2020-0188,2021-10-31,04:47:57,06:03:13,NA,incomplete,false,true,NA,NA,2,19,NA,purple,m_l_027.jpg,NA,NA,NA,NA,NA,unpleasant,pleasant,NA,NA,NA,NA,NA,left,1545.80000019073,true,NA,NA,NA,NA,NA,NA,NA,NA
Og3Q5P7f,3dw3bnf1hkvs8co26ehcm6ry22mv8w,3rsdurm96ezs8rrsfuvyazn6zyqeya,Og3Q5P7f,2020-0188,2021-10-31,04:47:57,06:03:13,NA,incomplete,false,true,NA,NA,2,20,NA,purple,n_s_032.jpg,NA,NA,NA,NA,NA,pleasant,unpleasant,NA,NA,NA,NA,NA,left,1291.20000004768,true,NA,NA,NA,NA,NA,NA,NA,NA
Og3Q5P7f,3dw3bnf1hkvs8co26ehcm6ry22mv8w,3rsdurm96ezs8rrsfuvyazn6zyqeya,Og3Q5P7f,2020-0188,2021-10-31,04:47:57,06:03:13,NA,incomplete,false,true,NA,NA,2,21,NA,purple,n_s_088.jpg,NA,NA,NA,NA,NA,pleasant,unpleasant,NA,NA,NA,NA,NA,left,1324.20000004768,true,NA,NA,NA,NA,NA,NA,NA,NA
Og3Q5P7f,3dw3bnf1hkvs8co26ehcm6ry22mv8w,3rsdurm96ezs8rrsfuvyazn6zyqeya,Og3Q5P7f,2020-0188,2021-10-31,04:47:57,06:03:13,NA,incomplete,false,true,NA,NA,2,22,NA,purple,n_s_052.jpg,NA,NA,NA,NA,NA,pleasant,unpleasant,NA,NA,NA,NA,NA,right,1445.79999995232,true,NA,NA,NA,NA,NA,NA,NA,NA
Og3Q5P7f,3dw3bnf1hkvs8co26ehcm6ry22mv8w,3rsdurm96ezs8rrsfuvyazn6zyqeya,Og3Q5P7f,2020-0188,2021-10-31,04:47:57,06:03:13,NA,incomplete,false,true,NA,NA,2,23,NA,purple,m_l_020.jpg,NA,NA,NA,NA,NA,unpleasant,pleasant,NA,NA,NA,NA,NA,right,1126.60000014305,true,NA,NA,NA,NA,NA,NA,NA,NA
Og3Q5P7f,3dw3bnf1hkvs8co26ehcm6ry22mv8w,3rsdurm96ezs8rrsfuvyazn6zyqeya,Og3Q5P7f,2020-0188,2021-10-31,04:47:57,06:03:13,NA,incomplete,false,true,NA,NA,2,24,NA,white,m_l_117.jpg,NA,NA,NA,NA,NA,pleasant,unpleasant,NA,NA,NA,NA,NA,left,2567,true,NA,NA,NA,NA,NA,NA,NA,NA
Og3Q5P7f,3dw3bnf1hkvs8co26ehcm6ry22mv8w,3rsdurm96ezs8rrsfuvyazn6zyqeya,Og3Q5P7f,2020-0188,2021-10-31,04:47:57,06:03:13,NA,incomplete,false,true,NA,NA,2,25,NA,white,m_l_040.jpg,NA,NA,NA,NA,NA,unpleasant,pleasant,NA,NA,NA,NA,NA,left,1425,true,NA,NA,NA,NA,NA,NA,NA,NA
Og3Q5P7f,3dw3bnf1hkvs8co26ehcm6ry22mv8w,3rsdurm96ezs8rrsfuvyazn6zyqeya,Og3Q5P7f,2020-0188,2021-10-31,04:47:57,06:03:13,NA,incomplete,false,true,NA,NA,2,26,NA,white,m_l_055.jpg,NA,NA,NA,NA,NA,unpleasant,pleasant,NA,NA,NA,NA,NA,left,1249.90000009537,true,NA,NA,NA,NA,NA,NA,NA,NA
Og3Q5P7f,3dw3bnf1hkvs8co26ehcm6ry22mv8w,3rsdurm96ezs8rrsfuvyazn6zyqeya,Og3Q5P7f,2020-0188,2021-10-31,04:47:57,06:03:13,NA,incomplete,false,true,NA,NA,2,27,NA,white,m_s_087.jpg,NA,NA,NA,NA,NA,pleasant,unpleasant,NA,NA,NA,NA,NA,right,1506.59999990463,true,NA,NA,NA,NA,NA,NA,NA,NA
Og3Q5P7f,3dw3bnf1hkvs8co26ehcm6ry22mv8w,3rsdurm96ezs8rrsfuvyazn6zyqeya,Og3Q5P7f,2020-0188,2021-10-31,04:47:57,06:03:13,NA,incomplete,false,true,NA,NA,2,28,NA,white,m_s_079.jpg,NA,NA,NA,NA,NA,pleasant,unpleasant,NA,NA,NA,NA,NA,left,945.600000143051,true,NA,NA,NA,NA,NA,NA,NA,NA
Og3Q5P7f,3dw3bnf1hkvs8co26ehcm6ry22mv8w,3rsdurm96ezs8rrsfuvyazn6zyqeya,Og3Q5P7f,2020-0188,2021-10-31,04:47:57,06:03:13,NA,incomplete,false,true,NA,NA,2,29,NA,white,m_s_032.jpg,NA,NA,NA,NA,NA,pleasant,unpleasant,NA,NA,NA,NA,NA,right,1506.70000004768,true,NA,NA,NA,NA,NA,NA,NA,NA
Og3Q5P7f,3dw3bnf1hkvs8co26ehcm6ry22mv8w,3rsdurm96ezs8rrsfuvyazn6zyqeya,Og3Q5P7f,2020-0188,2021-10-31,04:47:57,06:03:13,NA,incomplete,false,true,NA,NA,2,30,NA,orange,n_l_094.jpg,NA,NA,NA,NA,NA,pleasant,unpleasant,NA,NA,NA,NA,NA,left,1176.40000009537,true,NA,NA,NA,NA,NA,NA,NA,NA
Og3Q5P7f,3dw3bnf1hkvs8co26ehcm6ry22mv8w,3rsdurm96ezs8rrsfuvyazn6zyqeya,Og3Q5P7f,2020-0188,2021-10-31,04:47:57,06:03:13,NA,incomplete,false,true,NA,NA,2,31,NA,orange,n_s_111.jpg,NA,NA,NA,NA,NA,pleasant,unpleasant,NA,NA,NA,NA,NA,left,1722.29999995232,true,NA,NA,NA,NA,NA,NA,NA,NA
Og3Q5P7f,3dw3bnf1hkvs8co26ehcm6ry22mv8w,3rsdurm96ezs8rrsfuvyazn6zyqeya,Og3Q5P7f,2020-0188,2021-10-31,04:47:57,06:03:13,NA,incomplete,false,true,NA,NA,2,32,NA,orange,m_s_049.jpg,NA,NA,NA,NA,NA,unpleasant,pleasant,NA,NA,NA,NA,NA,right,994.400000095367,true,NA,NA,NA,NA,NA,NA,NA,NA
Og3Q5P7f,3dw3bnf1hkvs8co26ehcm6ry22mv8w,3rsdurm96ezs8rrsfuvyazn6zyqeya,Og3Q5P7f,2020-0188,2021-10-31,04:47:57,06:03:13,NA,incomplete,false,true,NA,NA,2,33,NA,orange,m_l_026.jpg,NA,NA,NA,NA,NA,unpleasant,pleasant,NA,NA,NA,NA,NA,right,1244.09999990463,true,NA,NA,NA,NA,NA,NA,NA,NA
Og3Q5P7f,3dw3bnf1hkvs8co26ehcm6ry22mv8w,3rsdurm96ezs8rrsfuvyazn6zyqeya,Og3Q5P7f,2020-0188,2021-10-31,04:47:57,06:03:13,NA,incomplete,false,true,NA,NA,2,34,NA,orange,n_s_112.jpg,NA,NA,NA,NA,NA,pleasant,unpleasant,NA,NA,NA,NA,NA,left,948.799999952316,true,NA,NA,NA,NA,NA,NA,NA,NA
Og3Q5P7f,3dw3bnf1hkvs8co26ehcm6ry22mv8w,3rsdurm96ezs8rrsfuvyazn6zyqeya,Og3Q5P7f,2020-0188,2021-10-31,04:47:57,06:03:13,NA,incomplete,false,true,NA,NA,2,35,NA,orange,m_l_035.jpg,NA,NA,NA,NA,NA,unpleasant,pleasant,NA,NA,NA,NA,NA,right,1317.90000009537,true,NA,NA,NA,NA,NA,NA,NA,NA
Og3Q5P7f,3dw3bnf1hkvs8co26ehcm6ry22mv8w,3rsdurm96ezs8rrsfuvyazn6zyqeya,Og3Q5P7f,2020-0188,2021-10-31,04:47:57,06:03:13,NA,incomplete,false,NA,NA,true,2,0,NA,NA,NA,left,m_s_049.jpg,orange,white,NA,NA,NA,NA,NA,NA,NA,NA,NA,NaN,NA,2951,left,1,NA,NA,NA,NA,NA
Og3Q5P7f,3dw3bnf1hkvs8co26ehcm6ry22mv8w,3rsdurm96ezs8rrsfuvyazn6zyqeya,Og3Q5P7f,2020-0188,2021-10-31,04:47:57,06:03:13,NA,incomplete,false,NA,NA,true,2,1,NA,NA,NA,left,m_l_027.jpg,purple,white,NA,NA,NA,NA,NA,NA,NA,NA,NA,NaN,NA,3263.300000190735,left,1,NA,NA,NA,NA,NA
Og3Q5P7f,3dw3bnf1hkvs8co26ehcm6ry22mv8w,3rsdurm96ezs8rrsfuvyazn6zyqeya,Og3Q5P7f,2020-0188,2021-10-31,04:47:57,06:03:13,NA,incomplete,false,NA,NA,true,2,2,NA,NA,NA,right,n_s_052.jpg,black,purple,NA,NA,NA,NA,NA,NA,NA,NA,NA,NaN,NA,2631.5,right,1,NA,NA,NA,NA,NA
Og3Q5P7f,3dw3bnf1hkvs8co26ehcm6ry22mv8w,3rsdurm96ezs8rrsfuvyazn6zyqeya,Og3Q5P7f,2020-0188,2021-10-31,04:47:57,06:03:13,NA,incomplete,false,NA,NA,true,2,3,NA,NA,NA,right,m_l_035.jpg,white,orange,NA,NA,NA,NA,NA,NA,NA,NA,NA,NaN,NA,2807.2999999523163,right,1,NA,NA,NA,NA,NA
Og3Q5P7f,3dw3bnf1hkvs8co26ehcm6ry22mv8w,3rsdurm96ezs8rrsfuvyazn6zyqeya,Og3Q5P7f,2020-0188,2021-10-31,04:47:57,06:03:13,NA,incomplete,false,NA,NA,true,2,4,NA,NA,NA,left,m_s_079.jpg,white,purple,NA,NA,NA,NA,NA,NA,NA,NA,NA,NaN,NA,2479.0999999046326,left,1,NA,NA,NA,NA,NA
Og3Q5P7f,3dw3bnf1hkvs8co26ehcm6ry22mv8w,3rsdurm96ezs8rrsfuvyazn6zyqeya,Og3Q5P7f,2020-0188,2021-10-31,04:47:57,06:03:13,NA,incomplete,false,NA,NA,true,2,5,NA,NA,NA,right,n_s_102.jpg,purple,black,NA,NA,NA,NA,NA,NA,NA,NA,NA,NaN,NA,2223.300000190735,right,1,NA,NA,NA,NA,NA
Og3Q5P7f,3dw3bnf1hkvs8co26ehcm6ry22mv8w,3rsdurm96ezs8rrsfuvyazn6zyqeya,Og3Q5P7f,2020-0188,2021-10-31,04:47:57,06:03:13,NA,incomplete,false,NA,NA,true,2,6,NA,NA,NA,right,m_l_041.jpg,brown,yellow,NA,NA,NA,NA,NA,NA,NA,NA,NA,NaN,NA,2304,right,1,NA,NA,NA,NA,NA
Og3Q5P7f,3dw3bnf1hkvs8co26ehcm6ry22mv8w,3rsdurm96ezs8rrsfuvyazn6zyqeya,Og3Q5P7f,2020-0188,2021-10-31,04:47:57,06:03:13,NA,incomplete,false,NA,NA,true,2,7,NA,NA,NA,left,m_l_055.jpg,white,orange,NA,NA,NA,NA,NA,NA,NA,NA,NA,NaN,NA,3327.5999999046326,left,1,NA,NA,NA,NA,NA
Og3Q5P7f,3dw3bnf1hkvs8co26ehcm6ry22mv8w,3rsdurm96ezs8rrsfuvyazn6zyqeya,Og3Q5P7f,2020-0188,2021-10-31,04:47:57,06:03:13,NA,incomplete,false,NA,NA,true,2,8,NA,NA,NA,left,m_l_040.jpg,white,orange,NA,NA,NA,NA,NA,NA,NA,NA,NA,NaN,NA,2087.5999999046326,left,1,NA,NA,NA,NA,NA
Og3Q5P7f,3dw3bnf1hkvs8co26ehcm6ry22mv8w,3rsdurm96ezs8rrsfuvyazn6zyqeya,Og3Q5P7f,2020-0188,2021-10-31,04:47:57,06:03:13,NA,incomplete,false,NA,NA,true,2,9,NA,NA,NA,right,n_l_105.jpg,black,brown,NA,NA,NA,NA,NA,NA,NA,NA,NA,NaN,NA,1871.5999999046326,right,1,NA,NA,NA,NA,NA
Og3Q5P7f,3dw3bnf1hkvs8co26ehcm6ry22mv8w,3rsdurm96ezs8rrsfuvyazn6zyqeya,Og3Q5P7f,2020-0188,2021-10-31,04:47:57,06:03:13,NA,incomplete,false,NA,NA,true,2,10,NA,NA,NA,right,n_l_038.jpg,brown,black,NA,NA,NA,NA,NA,NA,NA,NA,NA,NaN,NA,1543.5,right,1,NA,NA,NA,NA,NA
Og3Q5P7f,3dw3bnf1hkvs8co26ehcm6ry22mv8w,3rsdurm96ezs8rrsfuvyazn6zyqeya,Og3Q5P7f,2020-0188,2021-10-31,04:47:57,06:03:13,NA,incomplete,false,NA,NA,true,2,11,NA,NA,NA,right,n_s_111.jpg,white,orange,NA,NA,NA,NA,NA,NA,NA,NA,NA,NaN,NA,4463.400000095367,right,1,NA,NA,NA,NA,NA
Og3Q5P7f,3dw3bnf1hkvs8co26ehcm6ry22mv8w,3rsdurm96ezs8rrsfuvyazn6zyqeya,Og3Q5P7f,2020-0188,2021-10-31,04:47:57,06:03:13,NA,incomplete,false,NA,NA,true,2,12,NA,NA,NA,right,m_s_083.jpg,brown,yellow,NA,NA,NA,NA,NA,NA,NA,NA,NA,NaN,NA,1543.5,right,1,NA,NA,NA,NA,NA
Og3Q5P7f,3dw3bnf1hkvs8co26ehcm6ry22mv8w,3rsdurm96ezs8rrsfuvyazn6zyqeya,Og3Q5P7f,2020-0188,2021-10-31,04:47:57,06:03:13,NA,incomplete,false,NA,NA,true,2,13,NA,NA,NA,right,n_s_011.jpg,black,brown,NA,NA,NA,NA,NA,NA,NA,NA,NA,NaN,NA,2351.300000190735,right,1,NA,NA,NA,NA,NA
Og3Q5P7f,3dw3bnf1hkvs8co26ehcm6ry22mv8w,3rsdurm96ezs8rrsfuvyazn6zyqeya,Og3Q5P7f,2020-0188,2021-10-31,04:47:57,06:03:13,NA,incomplete,false,NA,NA,true,2,14,NA,NA,NA,right,n_l_005.jpg,brown,black,NA,NA,NA,NA,NA,NA,NA,NA,NA,NaN,NA,3038.699999809265,left,0,NA,NA,NA,NA,NA
Og3Q5P7f,3dw3bnf1hkvs8co26ehcm6ry22mv8w,3rsdurm96ezs8rrsfuvyazn6zyqeya,Og3Q5P7f,2020-0188,2021-10-31,04:47:57,06:03:13,NA,incomplete,false,NA,NA,true,2,15,NA,NA,NA,right,n_l_101.jpg,black,brown,NA,NA,NA,NA,NA,NA,NA,NA,NA,NaN,NA,2559.5999999046326,right,1,NA,NA,NA,NA,NA
Og3Q5P7f,3dw3bnf1hkvs8co26ehcm6ry22mv8w,3rsdurm96ezs8rrsfuvyazn6zyqeya,Og3Q5P7f,2020-0188,2021-10-31,04:47:57,06:03:13,NA,incomplete,false,NA,NA,true,2,16,NA,NA,NA,right,n_l_059.jpg,brown,yellow,NA,NA,NA,NA,NA,NA,NA,NA,NA,NaN,NA,2703.300000190735,right,1,NA,NA,NA,NA,NA
Og3Q5P7f,3dw3bnf1hkvs8co26ehcm6ry22mv8w,3rsdurm96ezs8rrsfuvyazn6zyqeya,Og3Q5P7f,2020-0188,2021-10-31,04:47:57,06:03:13,NA,incomplete,false,NA,NA,true,2,17,NA,NA,NA,right,n_s_032.jpg,white,purple,NA,NA,NA,NA,NA,NA,NA,NA,NA,NaN,NA,1943.5,right,1,NA,NA,NA,NA,NA
Og3Q5P7f,3dw3bnf1hkvs8co26ehcm6ry22mv8w,3rsdurm96ezs8rrsfuvyazn6zyqeya,Og3Q5P7f,2020-0188,2021-10-31,04:47:57,06:03:13,NA,incomplete,false,NA,NA,true,2,18,NA,NA,NA,right,m_s_041.jpg,black,brown,NA,NA,NA,NA,NA,NA,NA,NA,NA,NaN,NA,1655.6999998092651,right,1,NA,NA,NA,NA,NA
Og3Q5P7f,3dw3bnf1hkvs8co26ehcm6ry22mv8w,3rsdurm96ezs8rrsfuvyazn6zyqeya,Og3Q5P7f,2020-0188,2021-10-31,04:47:57,06:03:13,NA,incomplete,false,NA,NA,true,2,19,NA,NA,NA,right,m_s_032.jpg,purple,white,NA,NA,NA,NA,NA,NA,NA,NA,NA,NaN,NA,3031.0999999046326,right,1,NA,NA,NA,NA,NA
Og3Q5P7f,3dw3bnf1hkvs8co26ehcm6ry22mv8w,3rsdurm96ezs8rrsfuvyazn6zyqeya,Og3Q5P7f,2020-0188,2021-10-31,04:47:57,06:03:13,NA,incomplete,false,NA,NA,true,2,20,NA,NA,NA,left,m_l_020.jpg,purple,black,NA,NA,NA,NA,NA,NA,NA,NA,NA,NaN,NA,5295.599999904633,right,0,NA,NA,NA,NA,NA
Og3Q5P7f,3dw3bnf1hkvs8co26ehcm6ry22mv8w,3rsdurm96ezs8rrsfuvyazn6zyqeya,Og3Q5P7f,2020-0188,2021-10-31,04:47:57,06:03:13,NA,incomplete,false,NA,NA,true,2,21,NA,NA,NA,left,n_s_076.jpg,black,brown,NA,NA,NA,NA,NA,NA,NA,NA,NA,NaN,NA,3383.600000143051,right,0,NA,NA,NA,NA,NA
Og3Q5P7f,3dw3bnf1hkvs8co26ehcm6ry22mv8w,3rsdurm96ezs8rrsfuvyazn6zyqeya,Og3Q5P7f,2020-0188,2021-10-31,04:47:57,06:03:13,NA,incomplete,false,NA,true,NA,2,0,NA,NA,NA,right,NA,NA,NA,present,NA,NA,n_l_038.jpg,black,n_l_105.jpg,brown,between,NA,NaN,NA,NA,NA,NA,right,7215.300000190735,1,2,1454.7999999523163
Og3Q5P7f,3dw3bnf1hkvs8co26ehcm6ry22mv8w,3rsdurm96ezs8rrsfuvyazn6zyqeya,Og3Q5P7f,2020-0188,2021-10-31,04:47:57,06:03:13,NA,incomplete,false,NA,true,NA,2,1,NA,NA,NA,right,NA,NA,NA,present,NA,NA,n_l_005.jpg,black,n_s_102.jpg,black,within,NA,NaN,NA,NA,NA,NA,right,4367.299999952316,1,1,2079.4000000953674
Og3Q5P7f,3dw3bnf1hkvs8co26ehcm6ry22mv8w,3rsdurm96ezs8rrsfuvyazn6zyqeya,Og3Q5P7f,2020-0188,2021-10-31,04:47:57,06:03:13,NA,incomplete,false,NA,true,NA,2,2,NA,NA,NA,left,NA,NA,NA,present,NA,NA,m_l_041.jpg,yellow,m_s_041.jpg,brown,between,NA,NaN,NA,NA,NA,NA,left,6175.799999952316,1,1,1998.7999999523163
Og3Q5P7f,3dw3bnf1hkvs8co26ehcm6ry22mv8w,3rsdurm96ezs8rrsfuvyazn6zyqeya,Og3Q5P7f,2020-0188,2021-10-31,04:47:57,06:03:13,NA,incomplete,false,NA,true,NA,2,3,NA,NA,NA,left,NA,NA,NA,present,NA,NA,n_l_059.jpg,yellow,m_s_083.jpg,yellow,within,NA,NaN,NA,NA,NA,NA,left,4263.199999809265,1,0,1111.2999999523163
Og3Q5P7f,3dw3bnf1hkvs8co26ehcm6ry22mv8w,3rsdurm96ezs8rrsfuvyazn6zyqeya,Og3Q5P7f,2020-0188,2021-10-31,04:47:57,06:03:13,NA,incomplete,false,NA,true,NA,2,4,NA,NA,NA,left,NA,NA,NA,present,NA,NA,n_s_011.jpg,brown,n_l_101.jpg,brown,within,NA,NaN,NA,NA,NA,NA,right,2543.2999999523163,0,0,1735.2999999523163
Og3Q5P7f,3dw3bnf1hkvs8co26ehcm6ry22mv8w,3rsdurm96ezs8rrsfuvyazn6zyqeya,Og3Q5P7f,2020-0188,2021-10-31,04:47:57,06:03:13,NA,incomplete,false,NA,true,NA,2,5,NA,NA,NA,left,NA,NA,NA,present,NA,NA,m_l_027.jpg,purple,m_l_020.jpg,purple,within,NA,NaN,NA,NA,NA,NA,left,3375.5,1,0,1407.5
Og3Q5P7f,3dw3bnf1hkvs8co26ehcm6ry22mv8w,3rsdurm96ezs8rrsfuvyazn6zyqeya,Og3Q5P7f,2020-0188,2021-10-31,04:47:57,06:03:13,NA,incomplete,false,NA,true,NA,2,6,NA,NA,NA,left,NA,NA,NA,present,NA,NA,n_s_111.jpg,orange,m_l_035.jpg,orange,within,NA,NaN,NA,NA,NA,NA,left,1767.2999999523163,1,1,1454.5999999046326
Og3Q5P7f,3dw3bnf1hkvs8co26ehcm6ry22mv8w,3rsdurm96ezs8rrsfuvyazn6zyqeya,Og3Q5P7f,2020-0188,2021-10-31,04:47:57,06:03:13,NA,incomplete,false,NA,true,NA,2,7,NA,NA,NA,left,NA,NA,NA,present,NA,NA,n_s_052.jpg,purple,m_l_055.jpg,white,between,NA,NaN,NA,NA,NA,NA,right,4046.7999999523163,0,3,1334.5999999046326
Og3Q5P7f,3dw3bnf1hkvs8co26ehcm6ry22mv8w,3rsdurm96ezs8rrsfuvyazn6zyqeya,Og3Q5P7f,2020-0188,2021-10-31,04:47:57,06:03:13,NA,incomplete,false,NA,true,NA,2,8,NA,NA,NA,right,NA,NA,NA,present,NA,NA,m_s_032.jpg,white,m_l_040.jpg,white,within,NA,NaN,NA,NA,NA,NA,left,3519,0,1,1103.3999998569489
Og3Q5P7f,3dw3bnf1hkvs8co26ehcm6ry22mv8w,3rsdurm96ezs8rrsfuvyazn6zyqeya,Og3Q5P7f,2020-0188,2021-10-31,04:47:57,06:03:13,NA,incomplete,false,NA,true,NA,2,9,NA,NA,NA,right,NA,NA,NA,present,NA,NA,n_s_032.jpg,purple,n_s_076.jpg,black,between,NA,NaN,NA,NA,NA,NA,right,6095.600000143051,1,2,1207.0999999046326
Og3Q5P7f,3dw3bnf1hkvs8co26ehcm6ry22mv8w,3rsdurm96ezs8rrsfuvyazn6zyqeya,Og3Q5P7f,2020-0188,2021-10-31,04:47:57,06:03:13,NA,incomplete,false,NA,true,NA,2,10,NA,NA,NA,left,NA,NA,NA,present,NA,NA,m_s_079.jpg,white,m_s_049.jpg,orange,between,NA,NaN,NA,NA,NA,NA,left,3919.5,1,2,1647.2000000476837
Og3Q5P7f,3dw3bnf1hkvs8co26ehcm6ry22mv8w,3rsdurm96ezs8rrsfuvyazn6zyqeya,Og3Q5P7f,2020-0188,2021-10-31,04:47:57,06:03:13,NA,incomplete,false,true,NA,NA,3,0,NA,gray,n_l_029.jpg,NA,NA,NA,NA,NA,unpleasant,pleasant,NA,NA,NA,NA,NA,right,2781.5,true,NA,NA,NA,NA,NA,NA,NA,NA
Og3Q5P7f,3dw3bnf1hkvs8co26ehcm6ry22mv8w,3rsdurm96ezs8rrsfuvyazn6zyqeya,Og3Q5P7f,2020-0188,2021-10-31,04:47:57,06:03:13,NA,incomplete,false,true,NA,NA,3,1,NA,gray,m_s_109.jpg,NA,NA,NA,NA,NA,pleasant,unpleasant,NA,NA,NA,NA,NA,left,2238.80000019073,true,NA,NA,NA,NA,NA,NA,NA,NA
Og3Q5P7f,3dw3bnf1hkvs8co26ehcm6ry22mv8w,3rsdurm96ezs8rrsfuvyazn6zyqeya,Og3Q5P7f,2020-0188,2021-10-31,04:47:57,06:03:13,NA,incomplete,false,true,NA,NA,3,2,NA,gray,n_l_078.jpg,NA,NA,NA,NA,NA,unpleasant,pleasant,NA,NA,NA,NA,NA,right,1047.70000004768,true,NA,NA,NA,NA,NA,NA,NA,NA
Og3Q5P7f,3dw3bnf1hkvs8co26ehcm6ry22mv8w,3rsdurm96ezs8rrsfuvyazn6zyqeya,Og3Q5P7f,2020-0188,2021-10-31,04:47:57,06:03:13,NA,incomplete,false,true,NA,NA,3,3,NA,gray,n_l_009.jpg,NA,NA,NA,NA,NA,pleasant,unpleasant,NA,NA,NA,NA,NA,left,1201.09999990463,true,NA,NA,NA,NA,NA,NA,NA,NA
Og3Q5P7f,3dw3bnf1hkvs8co26ehcm6ry22mv8w,3rsdurm96ezs8rrsfuvyazn6zyqeya,Og3Q5P7f,2020-0188,2021-10-31,04:47:57,06:03:13,NA,incomplete,false,true,NA,NA,3,4,NA,gray,n_l_023.jpg,NA,NA,NA,NA,NA,unpleasant,pleasant,NA,NA,NA,NA,NA,right,1146.29999995232,true,NA,NA,NA,NA,NA,NA,NA,NA
Og3Q5P7f,3dw3bnf1hkvs8co26ehcm6ry22mv8w,3rsdurm96ezs8rrsfuvyazn6zyqeya,Og3Q5P7f,2020-0188,2021-10-31,04:47:57,06:03:13,NA,incomplete,false,true,NA,NA,3,5,NA,gray,n_l_076.jpg,NA,NA,NA,NA,NA,unpleasant,pleasant,NA,NA,NA,NA,NA,left,1192.19999980927,true,NA,NA,NA,NA,NA,NA,NA,NA
Og3Q5P7f,3dw3bnf1hkvs8co26ehcm6ry22mv8w,3rsdurm96ezs8rrsfuvyazn6zyqeya,Og3Q5P7f,2020-0188,2021-10-31,04:47:57,06:03:13,NA,incomplete,false,true,NA,NA,3,6,NA,white,m_l_039.jpg,NA,NA,NA,NA,NA,pleasant,unpleasant,NA,NA,NA,NA,NA,right,2009.20000004768,true,NA,NA,NA,NA,NA,NA,NA,NA
Og3Q5P7f,3dw3bnf1hkvs8co26ehcm6ry22mv8w,3rsdurm96ezs8rrsfuvyazn6zyqeya,Og3Q5P7f,2020-0188,2021-10-31,04:47:57,06:03:13,NA,incomplete,false,true,NA,NA,3,7,NA,white,n_l_011.jpg,NA,NA,NA,NA,NA,pleasant,unpleasant,NA,NA,NA,NA,NA,left,1842.29999995232,true,NA,NA,NA,NA,NA,NA,NA,NA
Og3Q5P7f,3dw3bnf1hkvs8co26ehcm6ry22mv8w,3rsdurm96ezs8rrsfuvyazn6zyqeya,Og3Q5P7f,2020-0188,2021-10-31,04:47:57,06:03:13,NA,incomplete,false,true,NA,NA,3,8,NA,white,n_s_093.jpg,NA,NA,NA,NA,NA,pleasant,unpleasant,NA,NA,NA,NA,NA,right,1699.89999985695,true,NA,NA,NA,NA,NA,NA,NA,NA
Og3Q5P7f,3dw3bnf1hkvs8co26ehcm6ry22mv8w,3rsdurm96ezs8rrsfuvyazn6zyqeya,Og3Q5P7f,2020-0188,2021-10-31,04:47:57,06:03:13,NA,incomplete,false,true,NA,NA,3,9,NA,white,n_l_081.jpg,NA,NA,NA,NA,NA,pleasant,unpleasant,NA,NA,NA,NA,NA,left,1076.20000004768,true,NA,NA,NA,NA,NA,NA,NA,NA
Og3Q5P7f,3dw3bnf1hkvs8co26ehcm6ry22mv8w,3rsdurm96ezs8rrsfuvyazn6zyqeya,Og3Q5P7f,2020-0188,2021-10-31,04:47:57,06:03:13,NA,incomplete,false,true,NA,NA,3,10,NA,white,n_l_085.jpg,NA,NA,NA,NA,NA,unpleasant,pleasant,NA,NA,NA,NA,NA,left,1549.40000009537,true,NA,NA,NA,NA,NA,NA,NA,NA
Og3Q5P7f,3dw3bnf1hkvs8co26ehcm6ry22mv8w,3rsdurm96ezs8rrsfuvyazn6zyqeya,Og3Q5P7f,2020-0188,2021-10-31,04:47:57,06:03:13,NA,incomplete,false,true,NA,NA,3,11,NA,white,m_s_106.jpg,NA,NA,NA,NA,NA,pleasant,unpleasant,NA,NA,NA,NA,NA,left,1390.79999995232,true,NA,NA,NA,NA,NA,NA,NA,NA
Og3Q5P7f,3dw3bnf1hkvs8co26ehcm6ry22mv8w,3rsdurm96ezs8rrsfuvyazn6zyqeya,Og3Q5P7f,2020-0188,2021-10-31,04:47:57,06:03:13,NA,incomplete,false,true,NA,NA,3,12,NA,yellow,n_s_049.jpg,NA,NA,NA,NA,NA,pleasant,unpleasant,NA,NA,NA,NA,NA,right,1120.19999980927,true,NA,NA,NA,NA,NA,NA,NA,NA
Og3Q5P7f,3dw3bnf1hkvs8co26ehcm6ry22mv8w,3rsdurm96ezs8rrsfuvyazn6zyqeya,Og3Q5P7f,2020-0188,2021-10-31,04:47:57,06:03:13,NA,incomplete,false,true,NA,NA,3,13,NA,yellow,n_s_001.jpg,NA,NA,NA,NA,NA,pleasant,unpleasant,NA,NA,NA,NA,NA,right,1270.5,true,NA,NA,NA,NA,NA,NA,NA,NA
Og3Q5P7f,3dw3bnf1hkvs8co26ehcm6ry22mv8w,3rsdurm96ezs8rrsfuvyazn6zyqeya,Og3Q5P7f,2020-0188,2021-10-31,04:47:57,06:03:13,NA,incomplete,false,true,NA,NA,3,14,NA,yellow,m_l_045.jpg,NA,NA,NA,NA,NA,unpleasant,pleasant,NA,NA,NA,NA,NA,left,1447.70000004768,true,NA,NA,NA,NA,NA,NA,NA,NA
Og3Q5P7f,3dw3bnf1hkvs8co26ehcm6ry22mv8w,3rsdurm96ezs8rrsfuvyazn6zyqeya,Og3Q5P7f,2020-0188,2021-10-31,04:47:57,06:03:13,NA,incomplete,false,true,NA,NA,3,15,NA,yellow,m_l_052.jpg,NA,NA,NA,NA,NA,pleasant,unpleasant,NA,NA,NA,NA,NA,right,1088.10000014305,true,NA,NA,NA,NA,NA,NA,NA,NA
Og3Q5P7f,3dw3bnf1hkvs8co26ehcm6ry22mv8w,3rsdurm96ezs8rrsfuvyazn6zyqeya,Og3Q5P7f,2020-0188,2021-10-31,04:47:57,06:03:13,NA,incomplete,false,true,NA,NA,3,16,NA,yellow,m_s_090.jpg,NA,NA,NA,NA,NA,unpleasant,pleasant,NA,NA,NA,NA,NA,right,1553.70000004768,true,NA,NA,NA,NA,NA,NA,NA,NA
Og3Q5P7f,3dw3bnf1hkvs8co26ehcm6ry22mv8w,3rsdurm96ezs8rrsfuvyazn6zyqeya,Og3Q5P7f,2020-0188,2021-10-31,04:47:57,06:03:13,NA,incomplete,false,true,NA,NA,3,17,NA,yellow,n_l_031.jpg,NA,NA,NA,NA,NA,unpleasant,pleasant,NA,NA,NA,NA,NA,right,1074.09999990463,true,NA,NA,NA,NA,NA,NA,NA,NA
Og3Q5P7f,3dw3bnf1hkvs8co26ehcm6ry22mv8w,3rsdurm96ezs8rrsfuvyazn6zyqeya,Og3Q5P7f,2020-0188,2021-10-31,04:47:57,06:03:13,NA,incomplete,false,true,NA,NA,3,18,NA,brown,m_l_034.jpg,NA,NA,NA,NA,NA,pleasant,unpleasant,NA,NA,NA,NA,NA,left,1587.90000009537,true,NA,NA,NA,NA,NA,NA,NA,NA
Og3Q5P7f,3dw3bnf1hkvs8co26ehcm6ry22mv8w,3rsdurm96ezs8rrsfuvyazn6zyqeya,Og3Q5P7f,2020-0188,2021-10-31,04:47:57,06:03:13,NA,incomplete,false,true,NA,NA,3,19,NA,brown,n_s_033.jpg,NA,NA,NA,NA,NA,pleasant,unpleasant,NA,NA,NA,NA,NA,left,980.299999952316,true,NA,NA,NA,NA,NA,NA,NA,NA
Og3Q5P7f,3dw3bnf1hkvs8co26ehcm6ry22mv8w,3rsdurm96ezs8rrsfuvyazn6zyqeya,Og3Q5P7f,2020-0188,2021-10-31,04:47:57,06:03:13,NA,incomplete,false,true,NA,NA,3,20,NA,brown,n_l_046.jpg,NA,NA,NA,NA,NA,pleasant,unpleasant,NA,NA,NA,NA,NA,left,1422.19999980927,true,NA,NA,NA,NA,NA,NA,NA,NA
Og3Q5P7f,3dw3bnf1hkvs8co26ehcm6ry22mv8w,3rsdurm96ezs8rrsfuvyazn6zyqeya,Og3Q5P7f,2020-0188,2021-10-31,04:47:57,06:03:13,NA,incomplete,false,true,NA,NA,3,21,NA,brown,m_s_023.jpg,NA,NA,NA,NA,NA,unpleasant,pleasant,NA,NA,NA,NA,NA,right,1135.09999990463,true,NA,NA,NA,NA,NA,NA,NA,NA
Og3Q5P7f,3dw3bnf1hkvs8co26ehcm6ry22mv8w,3rsdurm96ezs8rrsfuvyazn6zyqeya,Og3Q5P7f,2020-0188,2021-10-31,04:47:57,06:03:13,NA,incomplete,false,true,NA,NA,3,22,NA,brown,m_s_103.jpg,NA,NA,NA,NA,NA,pleasant,unpleasant,NA,NA,NA,NA,NA,left,1319.79999995232,true,NA,NA,NA,NA,NA,NA,NA,NA
Og3Q5P7f,3dw3bnf1hkvs8co26ehcm6ry22mv8w,3rsdurm96ezs8rrsfuvyazn6zyqeya,Og3Q5P7f,2020-0188,2021-10-31,04:47:57,06:03:13,NA,incomplete,false,true,NA,NA,3,23,NA,brown,m_l_085.jpg,NA,NA,NA,NA,NA,unpleasant,pleasant,NA,NA,NA,NA,NA,right,1454.60000014305,true,NA,NA,NA,NA,NA,NA,NA,NA
Og3Q5P7f,3dw3bnf1hkvs8co26ehcm6ry22mv8w,3rsdurm96ezs8rrsfuvyazn6zyqeya,Og3Q5P7f,2020-0188,2021-10-31,04:47:57,06:03:13,NA,incomplete,false,true,NA,NA,3,24,NA,green,m_s_007.jpg,NA,NA,NA,NA,NA,unpleasant,pleasant,NA,NA,NA,NA,NA,right,1839.39999985695,true,NA,NA,NA,NA,NA,NA,NA,NA
Og3Q5P7f,3dw3bnf1hkvs8co26ehcm6ry22mv8w,3rsdurm96ezs8rrsfuvyazn6zyqeya,Og3Q5P7f,2020-0188,2021-10-31,04:47:57,06:03:13,NA,incomplete,false,true,NA,NA,3,25,NA,green,m_s_038.jpg,NA,NA,NA,NA,NA,pleasant,unpleasant,NA,NA,NA,NA,NA,left,1493.69999980927,true,NA,NA,NA,NA,NA,NA,NA,NA
Og3Q5P7f,3dw3bnf1hkvs8co26ehcm6ry22mv8w,3rsdurm96ezs8rrsfuvyazn6zyqeya,Og3Q5P7f,2020-0188,2021-10-31,04:47:57,06:03:13,NA,incomplete,false,true,NA,NA,3,26,NA,green,n_l_104.jpg,NA,NA,NA,NA,NA,unpleasant,pleasant,NA,NA,NA,NA,NA,right,1324.09999990463,true,NA,NA,NA,NA,NA,NA,NA,NA
Og3Q5P7f,3dw3bnf1hkvs8co26ehcm6ry22mv8w,3rsdurm96ezs8rrsfuvyazn6zyqeya,Og3Q5P7f,2020-0188,2021-10-31,04:47:57,06:03:13,NA,incomplete,false,true,NA,NA,3,27,NA,green,n_s_047.jpg,NA,NA,NA,NA,NA,unpleasant,pleasant,NA,NA,NA,NA,NA,right,1292.89999985695,true,NA,NA,NA,NA,NA,NA,NA,NA
Og3Q5P7f,3dw3bnf1hkvs8co26ehcm6ry22mv8w,3rsdurm96ezs8rrsfuvyazn6zyqeya,Og3Q5P7f,2020-0188,2021-10-31,04:47:57,06:03:13,NA,incomplete,false,true,NA,NA,3,28,NA,green,n_s_007.jpg,NA,NA,NA,NA,NA,unpleasant,pleasant,NA,NA,NA,NA,NA,left,1203.40000009537,true,NA,NA,NA,NA,NA,NA,NA,NA
Og3Q5P7f,3dw3bnf1hkvs8co26ehcm6ry22mv8w,3rsdurm96ezs8rrsfuvyazn6zyqeya,Og3Q5P7f,2020-0188,2021-10-31,04:47:57,06:03:13,NA,incomplete,false,true,NA,NA,3,29,NA,green,m_l_086.jpg,NA,NA,NA,NA,NA,pleasant,unpleasant,NA,NA,NA,NA,NA,left,1461,true,NA,NA,NA,NA,NA,NA,NA,NA
Og3Q5P7f,3dw3bnf1hkvs8co26ehcm6ry22mv8w,3rsdurm96ezs8rrsfuvyazn6zyqeya,Og3Q5P7f,2020-0188,2021-10-31,04:47:57,06:03:13,NA,incomplete,false,true,NA,NA,3,30,NA,black,m_s_046.jpg,NA,NA,NA,NA,NA,unpleasant,pleasant,NA,NA,NA,NA,NA,right,1549.5,true,NA,NA,NA,NA,NA,NA,NA,NA
Og3Q5P7f,3dw3bnf1hkvs8co26ehcm6ry22mv8w,3rsdurm96ezs8rrsfuvyazn6zyqeya,Og3Q5P7f,2020-0188,2021-10-31,04:47:57,06:03:13,NA,incomplete,false,true,NA,NA,3,31,NA,black,m_s_011.jpg,NA,NA,NA,NA,NA,pleasant,unpleasant,NA,NA,NA,NA,NA,right,1254.90000009537,true,NA,NA,NA,NA,NA,NA,NA,NA
Og3Q5P7f,3dw3bnf1hkvs8co26ehcm6ry22mv8w,3rsdurm96ezs8rrsfuvyazn6zyqeya,Og3Q5P7f,2020-0188,2021-10-31,04:47:57,06:03:13,NA,incomplete,false,true,NA,NA,3,32,NA,black,n_s_082.jpg,NA,NA,NA,NA,NA,pleasant,unpleasant,NA,NA,NA,NA,NA,right,1576.10000014305,true,NA,NA,NA,NA,NA,NA,NA,NA
Og3Q5P7f,3dw3bnf1hkvs8co26ehcm6ry22mv8w,3rsdurm96ezs8rrsfuvyazn6zyqeya,Og3Q5P7f,2020-0188,2021-10-31,04:47:57,06:03:13,NA,incomplete,false,true,NA,NA,3,33,NA,black,n_s_110.jpg,NA,NA,NA,NA,NA,pleasant,unpleasant,NA,NA,NA,NA,NA,right,1520.59999990463,true,NA,NA,NA,NA,NA,NA,NA,NA
Og3Q5P7f,3dw3bnf1hkvs8co26ehcm6ry22mv8w,3rsdurm96ezs8rrsfuvyazn6zyqeya,Og3Q5P7f,2020-0188,2021-10-31,04:47:57,06:03:13,NA,incomplete,false,true,NA,NA,3,34,NA,black,m_l_083.jpg,NA,NA,NA,NA,NA,unpleasant,pleasant,NA,NA,NA,NA,NA,right,1535.29999995232,true,NA,NA,NA,NA,NA,NA,NA,NA
Og3Q5P7f,3dw3bnf1hkvs8co26ehcm6ry22mv8w,3rsdurm96ezs8rrsfuvyazn6zyqeya,Og3Q5P7f,2020-0188,2021-10-31,04:47:57,06:03:13,NA,incomplete,false,true,NA,NA,3,35,NA,black,m_l_058.jpg,NA,NA,NA,NA,NA,pleasant,unpleasant,NA,NA,NA,NA,NA,right,2056.80000019073,true,NA,NA,NA,NA,NA,NA,NA,NA
Og3Q5P7f,3dw3bnf1hkvs8co26ehcm6ry22mv8w,3rsdurm96ezs8rrsfuvyazn6zyqeya,Og3Q5P7f,2020-0188,2021-10-31,04:47:57,06:03:13,NA,incomplete,false,NA,NA,true,3,0,NA,NA,NA,right,m_s_106.jpg,gray,white,NA,NA,NA,NA,NA,NA,NA,NA,NA,NaN,NA,3239.399999856949,left,0,NA,NA,NA,NA,NA
Og3Q5P7f,3dw3bnf1hkvs8co26ehcm6ry22mv8w,3rsdurm96ezs8rrsfuvyazn6zyqeya,Og3Q5P7f,2020-0188,2021-10-31,04:47:57,06:03:13,NA,incomplete,false,NA,NA,true,3,1,NA,NA,NA,right,n_l_031.jpg,brown,yellow,NA,NA,NA,NA,NA,NA,NA,NA,NA,NaN,NA,2423.2999999523163,left,0,NA,NA,NA,NA,NA
Og3Q5P7f,3dw3bnf1hkvs8co26ehcm6ry22mv8w,3rsdurm96ezs8rrsfuvyazn6zyqeya,Og3Q5P7f,2020-0188,2021-10-31,04:47:57,06:03:13,NA,incomplete,false,NA,NA,true,3,2,NA,NA,NA,right,n_l_023.jpg,white,gray,NA,NA,NA,NA,NA,NA,NA,NA,NA,NaN,NA,3087.4000000953674,right,1,NA,NA,NA,NA,NA
Og3Q5P7f,3dw3bnf1hkvs8co26ehcm6ry22mv8w,3rsdurm96ezs8rrsfuvyazn6zyqeya,Og3Q5P7f,2020-0188,2021-10-31,04:47:57,06:03:13,NA,incomplete,false,NA,NA,true,3,3,NA,NA,NA,left,m_s_090.jpg,yellow,brown,NA,NA,NA,NA,NA,NA,NA,NA,NA,NaN,NA,1791.2999999523163,left,1,NA,NA,NA,NA,NA
Og3Q5P7f,3dw3bnf1hkvs8co26ehcm6ry22mv8w,3rsdurm96ezs8rrsfuvyazn6zyqeya,Og3Q5P7f,2020-0188,2021-10-31,04:47:57,06:03:13,NA,incomplete,false,NA,NA,true,3,4,NA,NA,NA,left,n_l_085.jpg,white,gray,NA,NA,NA,NA,NA,NA,NA,NA,NA,NaN,NA,3215.0999999046326,right,0,NA,NA,NA,NA,NA
Og3Q5P7f,3dw3bnf1hkvs8co26ehcm6ry22mv8w,3rsdurm96ezs8rrsfuvyazn6zyqeya,Og3Q5P7f,2020-0188,2021-10-31,04:47:57,06:03:13,NA,incomplete,false,NA,NA,true,3,5,NA,NA,NA,left,n_s_033.jpg,brown,green,NA,NA,NA,NA,NA,NA,NA,NA,NA,NaN,NA,1623.7000000476837,left,1,NA,NA,NA,NA,NA
Og3Q5P7f,3dw3bnf1hkvs8co26ehcm6ry22mv8w,3rsdurm96ezs8rrsfuvyazn6zyqeya,Og3Q5P7f,2020-0188,2021-10-31,04:47:57,06:03:13,NA,incomplete,false,NA,NA,true,3,6,NA,NA,NA,left,n_s_082.jpg,black,green,NA,NA,NA,NA,NA,NA,NA,NA,NA,NaN,NA,2415.2000000476837,left,1,NA,NA,NA,NA,NA
Og3Q5P7f,3dw3bnf1hkvs8co26ehcm6ry22mv8w,3rsdurm96ezs8rrsfuvyazn6zyqeya,Og3Q5P7f,2020-0188,2021-10-31,04:47:57,06:03:13,NA,incomplete,false,NA,NA,true,3,7,NA,NA,NA,right,m_l_086.jpg,brown,green,NA,NA,NA,NA,NA,NA,NA,NA,NA,NaN,NA,2783.5,right,1,NA,NA,NA,NA,NA
Og3Q5P7f,3dw3bnf1hkvs8co26ehcm6ry22mv8w,3rsdurm96ezs8rrsfuvyazn6zyqeya,Og3Q5P7f,2020-0188,2021-10-31,04:47:57,06:03:13,NA,incomplete,false,NA,NA,true,3,8,NA,NA,NA,right,n_s_007.jpg,brown,green,NA,NA,NA,NA,NA,NA,NA,NA,NA,NaN,NA,1607.5999999046326,right,1,NA,NA,NA,NA,NA
Og3Q5P7f,3dw3bnf1hkvs8co26ehcm6ry22mv8w,3rsdurm96ezs8rrsfuvyazn6zyqeya,Og3Q5P7f,2020-0188,2021-10-31,04:47:57,06:03:13,NA,incomplete,false,NA,NA,true,3,9,NA,NA,NA,left,n_l_046.jpg,brown,green,NA,NA,NA,NA,NA,NA,NA,NA,NA,NaN,NA,1815.5999999046326,left,1,NA,NA,NA,NA,NA
Og3Q5P7f,3dw3bnf1hkvs8co26ehcm6ry22mv8w,3rsdurm96ezs8rrsfuvyazn6zyqeya,Og3Q5P7f,2020-0188,2021-10-31,04:47:57,06:03:13,NA,incomplete,false,NA,NA,true,3,10,NA,NA,NA,right,m_l_045.jpg,brown,yellow,NA,NA,NA,NA,NA,NA,NA,NA,NA,NaN,NA,2031.2999999523163,right,1,NA,NA,NA,NA,NA
Og3Q5P7f,3dw3bnf1hkvs8co26ehcm6ry22mv8w,3rsdurm96ezs8rrsfuvyazn6zyqeya,Og3Q5P7f,2020-0188,2021-10-31,04:47:57,06:03:13,NA,incomplete,false,NA,NA,true,3,11,NA,NA,NA,right,m_s_103.jpg,green,brown,NA,NA,NA,NA,NA,NA,NA,NA,NA,NaN,NA,1671.2000000476837,right,1,NA,NA,NA,NA,NA
Og3Q5P7f,3dw3bnf1hkvs8co26ehcm6ry22mv8w,3rsdurm96ezs8rrsfuvyazn6zyqeya,Og3Q5P7f,2020-0188,2021-10-31,04:47:57,06:03:13,NA,incomplete,false,NA,NA,true,3,12,NA,NA,NA,left,n_s_001.jpg,yellow,white,NA,NA,NA,NA,NA,NA,NA,NA,NA,NaN,NA,2215.2999999523163,left,1,NA,NA,NA,NA,NA
Og3Q5P7f,3dw3bnf1hkvs8co26ehcm6ry22mv8w,3rsdurm96ezs8rrsfuvyazn6zyqeya,Og3Q5P7f,2020-0188,2021-10-31,04:47:57,06:03:13,NA,incomplete,false,NA,NA,true,3,13,NA,NA,NA,left,m_s_109.jpg,gray,white,NA,NA,NA,NA,NA,NA,NA,NA,NA,NaN,NA,2375.2999999523163,left,1,NA,NA,NA,NA,NA
Og3Q5P7f,3dw3bnf1hkvs8co26ehcm6ry22mv8w,3rsdurm96ezs8rrsfuvyazn6zyqeya,Og3Q5P7f,2020-0188,2021-10-31,04:47:57,06:03:13,NA,incomplete,false,NA,NA,true,3,14,NA,NA,NA,right,m_l_058.jpg,green,black,NA,NA,NA,NA,NA,NA,NA,NA,NA,NaN,NA,2071.7000000476837,right,1,NA,NA,NA,NA,NA
Og3Q5P7f,3dw3bnf1hkvs8co26ehcm6ry22mv8w,3rsdurm96ezs8rrsfuvyazn6zyqeya,Og3Q5P7f,2020-0188,2021-10-31,04:47:57,06:03:13,NA,incomplete,false,NA,NA,true,3,15,NA,NA,NA,right,n_l_076.jpg,white,gray,NA,NA,NA,NA,NA,NA,NA,NA,NA,NaN,NA,2023.4000000953674,right,1,NA,NA,NA,NA,NA
Og3Q5P7f,3dw3bnf1hkvs8co26ehcm6ry22mv8w,3rsdurm96ezs8rrsfuvyazn6zyqeya,Og3Q5P7f,2020-0188,2021-10-31,04:47:57,06:03:13,NA,incomplete,false,NA,NA,true,3,16,NA,NA,NA,right,n_l_104.jpg,brown,green,NA,NA,NA,NA,NA,NA,NA,NA,NA,NaN,NA,1847.4000000953674,right,1,NA,NA,NA,NA,NA
Og3Q5P7f,3dw3bnf1hkvs8co26ehcm6ry22mv8w,3rsdurm96ezs8rrsfuvyazn6zyqeya,Og3Q5P7f,2020-0188,2021-10-31,04:47:57,06:03:13,NA,incomplete,false,NA,NA,true,3,17,NA,NA,NA,right,m_l_085.jpg,green,brown,NA,NA,NA,NA,NA,NA,NA,NA,NA,NaN,NA,2927.5,right,1,NA,NA,NA,NA,NA
Og3Q5P7f,3dw3bnf1hkvs8co26ehcm6ry22mv8w,3rsdurm96ezs8rrsfuvyazn6zyqeya,Og3Q5P7f,2020-0188,2021-10-31,04:47:57,06:03:13,NA,incomplete,false,NA,NA,true,3,18,NA,NA,NA,right,n_s_093.jpg,gray,white,NA,NA,NA,NA,NA,NA,NA,NA,NA,NaN,NA,3039.5,left,0,NA,NA,NA,NA,NA
Og3Q5P7f,3dw3bnf1hkvs8co26ehcm6ry22mv8w,3rsdurm96ezs8rrsfuvyazn6zyqeya,Og3Q5P7f,2020-0188,2021-10-31,04:47:57,06:03:13,NA,incomplete,false,NA,NA,true,3,19,NA,NA,NA,left,n_l_011.jpg,white,yellow,NA,NA,NA,NA,NA,NA,NA,NA,NA,NaN,NA,6647.299999952316,right,0,NA,NA,NA,NA,NA
Og3Q5P7f,3dw3bnf1hkvs8co26ehcm6ry22mv8w,3rsdurm96ezs8rrsfuvyazn6zyqeya,Og3Q5P7f,2020-0188,2021-10-31,04:47:57,06:03:13,NA,incomplete,false,NA,NA,true,3,20,NA,NA,NA,right,m_s_038.jpg,brown,green,NA,NA,NA,NA,NA,NA,NA,NA,NA,NaN,NA,2407.5,left,0,NA,NA,NA,NA,NA
Og3Q5P7f,3dw3bnf1hkvs8co26ehcm6ry22mv8w,3rsdurm96ezs8rrsfuvyazn6zyqeya,Og3Q5P7f,2020-0188,2021-10-31,04:47:57,06:03:13,NA,incomplete,false,NA,NA,true,3,21,NA,NA,NA,left,m_s_011.jpg,black,green,NA,NA,NA,NA,NA,NA,NA,NA,NA,NaN,NA,2911.4000000953674,left,1,NA,NA,NA,NA,NA
Og3Q5P7f,3dw3bnf1hkvs8co26ehcm6ry22mv8w,3rsdurm96ezs8rrsfuvyazn6zyqeya,Og3Q5P7f,2020-0188,2021-10-31,04:47:57,06:03:13,NA,incomplete,false,NA,true,NA,3,0,NA,NA,NA,right,NA,NA,NA,present,NA,NA,m_l_045.jpg,yellow,n_l_085.jpg,white,between,NA,NaN,NA,NA,NA,NA,right,3990.899999856949,1,2,6038.799999952316
Og3Q5P7f,3dw3bnf1hkvs8co26ehcm6ry22mv8w,3rsdurm96ezs8rrsfuvyazn6zyqeya,Og3Q5P7f,2020-0188,2021-10-31,04:47:57,06:03:13,NA,incomplete,false,NA,true,NA,3,1,NA,NA,NA,right,NA,NA,NA,present,NA,NA,n_s_093.jpg,white,n_l_023.jpg,gray,between,NA,NaN,NA,NA,NA,NA,right,4582.900000095367,1,1,2799.2000000476837
Og3Q5P7f,3dw3bnf1hkvs8co26ehcm6ry22mv8w,3rsdurm96ezs8rrsfuvyazn6zyqeya,Og3Q5P7f,2020-0188,2021-10-31,04:47:57,06:03:13,NA,incomplete,false,NA,true,NA,3,2,NA,NA,NA,right,NA,NA,NA,present,NA,NA,m_l_086.jpg,green,m_s_038.jpg,green,within,NA,NaN,NA,NA,NA,NA,right,5143.5,1,0,1223.2000000476837
Og3Q5P7f,3dw3bnf1hkvs8co26ehcm6ry22mv8w,3rsdurm96ezs8rrsfuvyazn6zyqeya,Og3Q5P7f,2020-0188,2021-10-31,04:47:57,06:03:13,NA,incomplete,false,NA,true,NA,3,3,NA,NA,NA,left,NA,NA,NA,present,NA,NA,m_s_103.jpg,brown,n_l_104.jpg,green,between,NA,NaN,NA,NA,NA,NA,left,3807.5999999046326,1,2,1399.2999999523163
Og3Q5P7f,3dw3bnf1hkvs8co26ehcm6ry22mv8w,3rsdurm96ezs8rrsfuvyazn6zyqeya,Og3Q5P7f,2020-0188,2021-10-31,04:47:57,06:03:13,NA,incomplete,false,NA,true,NA,3,4,NA,NA,NA,left,NA,NA,NA,present,NA,NA,n_l_011.jpg,white,m_s_106.jpg,white,within,NA,NaN,NA,NA,NA,NA,left,2478.800000190735,1,0,1231
Og3Q5P7f,3dw3bnf1hkvs8co26ehcm6ry22mv8w,3rsdurm96ezs8rrsfuvyazn6zyqeya,Og3Q5P7f,2020-0188,2021-10-31,04:47:57,06:03:13,NA,incomplete,false,NA,true,NA,3,5,NA,NA,NA,left,NA,NA,NA,present,NA,NA,n_s_033.jpg,brown,m_l_085.jpg,brown,within,NA,NaN,NA,NA,NA,NA,left,2895.9000000953674,1,0,1407.3000001907349
Og3Q5P7f,3dw3bnf1hkvs8co26ehcm6ry22mv8w,3rsdurm96ezs8rrsfuvyazn6zyqeya,Og3Q5P7f,2020-0188,2021-10-31,04:47:57,06:03:13,NA,incomplete,false,NA,true,NA,3,6,NA,NA,NA,right,NA,NA,NA,present,NA,NA,n_l_046.jpg,brown,m_s_090.jpg,yellow,between,NA,NaN,NA,NA,NA,NA,left,3415.5,0,2,1031.3000001907349
Og3Q5P7f,3dw3bnf1hkvs8co26ehcm6ry22mv8w,3rsdurm96ezs8rrsfuvyazn6zyqeya,Og3Q5P7f,2020-0188,2021-10-31,04:47:57,06:03:13,NA,incomplete,false,NA,true,NA,3,7,NA,NA,NA,left,NA,NA,NA,present,NA,NA,n_s_001.jpg,yellow,n_l_031.jpg,yellow,within,NA,NaN,NA,NA,NA,NA,right,2623.9000000953674,0,0,1607.3000001907349
Og3Q5P7f,3dw3bnf1hkvs8co26ehcm6ry22mv8w,3rsdurm96ezs8rrsfuvyazn6zyqeya,Og3Q5P7f,2020-0188,2021-10-31,04:47:57,06:03:13,NA,incomplete,false,NA,true,NA,3,8,NA,NA,NA,right,NA,NA,NA,present,NA,NA,n_s_082.jpg,black,n_s_007.jpg,green,between,NA,NaN,NA,NA,NA,NA,right,3775.600000143051,1,3,959.5999999046326
Og3Q5P7f,3dw3bnf1hkvs8co26ehcm6ry22mv8w,3rsdurm96ezs8rrsfuvyazn6zyqeya,Og3Q5P7f,2020-0188,2021-10-31,04:47:57,06:03:13,NA,incomplete,false,NA,true,NA,3,9,NA,NA,NA,left,NA,NA,NA,present,NA,NA,m_s_109.jpg,gray,n_l_076.jpg,gray,within,NA,NaN,NA,NA,NA,NA,left,2039.0999999046326,1,0,2479.0999999046326
Og3Q5P7f,3dw3bnf1hkvs8co26ehcm6ry22mv8w,3rsdurm96ezs8rrsfuvyazn6zyqeya,Og3Q5P7f,2020-0188,2021-10-31,04:47:57,06:03:13,NA,incomplete,false,NA,true,NA,3,10,NA,NA,NA,left,NA,NA,NA,present,NA,NA,m_s_011.jpg,black,m_l_058.jpg,black,within,NA,NaN,NA,NA,NA,NA,left,2567.5,1,0,1046.9000000953674
Og3Q5P7f,3dw3bnf1hkvs8co26ehcm6ry22mv8w,3rsdurm96ezs8rrsfuvyazn6zyqeya,Og3Q5P7f,2020-0188,2021-10-31,04:47:57,06:03:13,NA,incomplete,false,true,NA,NA,4,0,NA,red,m_l_084.jpg,NA,NA,NA,NA,NA,unpleasant,pleasant,NA,NA,NA,NA,NA,right,2266.79999995232,true,NA,NA,NA,NA,NA,NA,NA,NA
Og3Q5P7f,3dw3bnf1hkvs8co26ehcm6ry22mv8w,3rsdurm96ezs8rrsfuvyazn6zyqeya,Og3Q5P7f,2020-0188,2021-10-31,04:47:57,06:03:13,NA,incomplete,false,true,NA,NA,4,1,NA,red,n_l_096.jpg,NA,NA,NA,NA,NA,pleasant,unpleasant,NA,NA,NA,NA,NA,left,1505.39999985695,true,NA,NA,NA,NA,NA,NA,NA,NA
Og3Q5P7f,3dw3bnf1hkvs8co26ehcm6ry22mv8w,3rsdurm96ezs8rrsfuvyazn6zyqeya,Og3Q5P7f,2020-0188,2021-10-31,04:47:57,06:03:13,NA,incomplete,false,true,NA,NA,4,2,NA,red,m_s_067.jpg,NA,NA,NA,NA,NA,pleasant,unpleasant,NA,NA,NA,NA,NA,left,1570.20000004768,true,NA,NA,NA,NA,NA,NA,NA,NA
Og3Q5P7f,3dw3bnf1hkvs8co26ehcm6ry22mv8w,3rsdurm96ezs8rrsfuvyazn6zyqeya,Og3Q5P7f,2020-0188,2021-10-31,04:47:57,06:03:13,NA,incomplete,false,true,NA,NA,4,3,NA,red,m_l_088.jpg,NA,NA,NA,NA,NA,unpleasant,pleasant,NA,NA,NA,NA,NA,right,1859.90000009537,true,NA,NA,NA,NA,NA,NA,NA,NA
Og3Q5P7f,3dw3bnf1hkvs8co26ehcm6ry22mv8w,3rsdurm96ezs8rrsfuvyazn6zyqeya,Og3Q5P7f,2020-0188,2021-10-31,04:47:57,06:03:13,NA,incomplete,false,true,NA,NA,4,4,NA,red,n_s_089.jpg,NA,NA,NA,NA,NA,pleasant,unpleasant,NA,NA,NA,NA,NA,right,1684.30000019073,true,NA,NA,NA,NA,NA,NA,NA,NA
Og3Q5P7f,3dw3bnf1hkvs8co26ehcm6ry22mv8w,3rsdurm96ezs8rrsfuvyazn6zyqeya,Og3Q5P7f,2020-0188,2021-10-31,04:47:57,06:03:13,NA,incomplete,false,true,NA,NA,4,5,NA,red,m_l_104.jpg,NA,NA,NA,NA,NA,unpleasant,pleasant,NA,NA,NA,NA,NA,right,1797.5,true,NA,NA,NA,NA,NA,NA,NA,NA
Og3Q5P7f,3dw3bnf1hkvs8co26ehcm6ry22mv8w,3rsdurm96ezs8rrsfuvyazn6zyqeya,Og3Q5P7f,2020-0188,2021-10-31,04:47:57,06:03:13,NA,incomplete,false,true,NA,NA,4,6,NA,blue,m_s_073.jpg,NA,NA,NA,NA,NA,pleasant,unpleasant,NA,NA,NA,NA,NA,left,1750.59999990463,true,NA,NA,NA,NA,NA,NA,NA,NA
Og3Q5P7f,3dw3bnf1hkvs8co26ehcm6ry22mv8w,3rsdurm96ezs8rrsfuvyazn6zyqeya,Og3Q5P7f,2020-0188,2021-10-31,04:47:57,06:03:13,NA,incomplete,false,true,NA,NA,4,7,NA,blue,n_s_031.jpg,NA,NA,NA,NA,NA,unpleasant,pleasant,NA,NA,NA,NA,NA,left,1336,true,NA,NA,NA,NA,NA,NA,NA,NA
Og3Q5P7f,3dw3bnf1hkvs8co26ehcm6ry22mv8w,3rsdurm96ezs8rrsfuvyazn6zyqeya,Og3Q5P7f,2020-0188,2021-10-31,04:47:57,06:03:13,NA,incomplete,false,true,NA,NA,4,8,NA,blue,n_s_113.jpg,NA,NA,NA,NA,NA,unpleasant,pleasant,NA,NA,NA,NA,NA,left,1657,true,NA,NA,NA,NA,NA,NA,NA,NA
Og3Q5P7f,3dw3bnf1hkvs8co26ehcm6ry22mv8w,3rsdurm96ezs8rrsfuvyazn6zyqeya,Og3Q5P7f,2020-0188,2021-10-31,04:47:57,06:03:13,NA,incomplete,false,true,NA,NA,4,9,NA,blue,n_l_044.jpg,NA,NA,NA,NA,NA,unpleasant,pleasant,NA,NA,NA,NA,NA,right,921.700000047684,true,NA,NA,NA,NA,NA,NA,NA,NA
Og3Q5P7f,3dw3bnf1hkvs8co26ehcm6ry22mv8w,3rsdurm96ezs8rrsfuvyazn6zyqeya,Og3Q5P7f,2020-0188,2021-10-31,04:47:57,06:03:13,NA,incomplete,false,true,NA,NA,4,10,NA,blue,n_l_114.jpg,NA,NA,NA,NA,NA,pleasant,unpleasant,NA,NA,NA,NA,NA,left,1835.20000004768,true,NA,NA,NA,NA,NA,NA,NA,NA
Og3Q5P7f,3dw3bnf1hkvs8co26ehcm6ry22mv8w,3rsdurm96ezs8rrsfuvyazn6zyqeya,Og3Q5P7f,2020-0188,2021-10-31,04:47:57,06:03:13,NA,incomplete,false,true,NA,NA,4,11,NA,blue,n_s_018.jpg,NA,NA,NA,NA,NA,pleasant,unpleasant,NA,NA,NA,NA,NA,left,1316.09999990463,true,NA,NA,NA,NA,NA,NA,NA,NA
Og3Q5P7f,3dw3bnf1hkvs8co26ehcm6ry22mv8w,3rsdurm96ezs8rrsfuvyazn6zyqeya,Og3Q5P7f,2020-0188,2021-10-31,04:47:57,06:03:13,NA,incomplete,false,true,NA,NA,4,12,NA,gray,m_s_061.jpg,NA,NA,NA,NA,NA,pleasant,unpleasant,NA,NA,NA,NA,NA,right,1172.79999995232,true,NA,NA,NA,NA,NA,NA,NA,NA
Og3Q5P7f,3dw3bnf1hkvs8co26ehcm6ry22mv8w,3rsdurm96ezs8rrsfuvyazn6zyqeya,Og3Q5P7f,2020-0188,2021-10-31,04:47:57,06:03:13,NA,incomplete,false,true,NA,NA,4,13,NA,gray,m_s_102.jpg,NA,NA,NA,NA,NA,pleasant,unpleasant,NA,NA,NA,NA,NA,right,1003.09999990463,true,NA,NA,NA,NA,NA,NA,NA,NA
Og3Q5P7f,3dw3bnf1hkvs8co26ehcm6ry22mv8w,3rsdurm96ezs8rrsfuvyazn6zyqeya,Og3Q5P7f,2020-0188,2021-10-31,04:47:57,06:03:13,NA,incomplete,false,true,NA,NA,4,14,NA,gray,n_s_073.jpg,NA,NA,NA,NA,NA,pleasant,unpleasant,NA,NA,NA,NA,NA,right,964.299999952316,true,NA,NA,NA,NA,NA,NA,NA,NA
Og3Q5P7f,3dw3bnf1hkvs8co26ehcm6ry22mv8w,3rsdurm96ezs8rrsfuvyazn6zyqeya,Og3Q5P7f,2020-0188,2021-10-31,04:47:57,06:03:13,NA,incomplete,false,true,NA,NA,4,15,NA,gray,m_s_095.jpg,NA,NA,NA,NA,NA,unpleasant,pleasant,NA,NA,NA,NA,NA,right,1541.59999990463,true,NA,NA,NA,NA,NA,NA,NA,NA
Og3Q5P7f,3dw3bnf1hkvs8co26ehcm6ry22mv8w,3rsdurm96ezs8rrsfuvyazn6zyqeya,Og3Q5P7f,2020-0188,2021-10-31,04:47:57,06:03:13,NA,incomplete,false,true,NA,NA,4,16,NA,gray,n_l_068.jpg,NA,NA,NA,NA,NA,pleasant,unpleasant,NA,NA,NA,NA,NA,left,1742.5,true,NA,NA,NA,NA,NA,NA,NA,NA
Og3Q5P7f,3dw3bnf1hkvs8co26ehcm6ry22mv8w,3rsdurm96ezs8rrsfuvyazn6zyqeya,Og3Q5P7f,2020-0188,2021-10-31,04:47:57,06:03:13,NA,incomplete,false,true,NA,NA,4,17,NA,gray,m_s_113.jpg,NA,NA,NA,NA,NA,pleasant,unpleasant,NA,NA,NA,NA,NA,left,1167.89999985695,true,NA,NA,NA,NA,NA,NA,NA,NA
Og3Q5P7f,3dw3bnf1hkvs8co26ehcm6ry22mv8w,3rsdurm96ezs8rrsfuvyazn6zyqeya,Og3Q5P7f,2020-0188,2021-10-31,04:47:57,06:03:13,NA,incomplete,false,true,NA,NA,4,18,NA,white,n_l_045.jpg,NA,NA,NA,NA,NA,pleasant,unpleasant,NA,NA,NA,NA,NA,left,1288.59999990463,true,NA,NA,NA,NA,NA,NA,NA,NA
Og3Q5P7f,3dw3bnf1hkvs8co26ehcm6ry22mv8w,3rsdurm96ezs8rrsfuvyazn6zyqeya,Og3Q5P7f,2020-0188,2021-10-31,04:47:57,06:03:13,NA,incomplete,false,true,NA,NA,4,19,NA,white,m_s_008.jpg,NA,NA,NA,NA,NA,pleasant,unpleasant,NA,NA,NA,NA,NA,left,1282.40000009537,true,NA,NA,NA,NA,NA,NA,NA,NA
Og3Q5P7f,3dw3bnf1hkvs8co26ehcm6ry22mv8w,3rsdurm96ezs8rrsfuvyazn6zyqeya,Og3Q5P7f,2020-0188,2021-10-31,04:47:57,06:03:13,NA,incomplete,false,true,NA,NA,4,20,NA,white,n_l_087.jpg,NA,NA,NA,NA,NA,unpleasant,pleasant,NA,NA,NA,NA,NA,right,915.400000095367,true,NA,NA,NA,NA,NA,NA,NA,NA
Og3Q5P7f,3dw3bnf1hkvs8co26ehcm6ry22mv8w,3rsdurm96ezs8rrsfuvyazn6zyqeya,Og3Q5P7f,2020-0188,2021-10-31,04:47:57,06:03:13,NA,incomplete,false,true,NA,NA,4,21,NA,white,m_s_047.jpg,NA,NA,NA,NA,NA,unpleasant,pleasant,NA,NA,NA,NA,NA,left,1060.19999980927,true,NA,NA,NA,NA,NA,NA,NA,NA
Og3Q5P7f,3dw3bnf1hkvs8co26ehcm6ry22mv8w,3rsdurm96ezs8rrsfuvyazn6zyqeya,Og3Q5P7f,2020-0188,2021-10-31,04:47:57,06:03:13,NA,incomplete,false,true,NA,NA,4,22,NA,white,n_s_040.jpg,NA,NA,NA,NA,NA,pleasant,unpleasant,NA,NA,NA,NA,NA,right,917.199999809265,true,NA,NA,NA,NA,NA,NA,NA,NA
Og3Q5P7f,3dw3bnf1hkvs8co26ehcm6ry22mv8w,3rsdurm96ezs8rrsfuvyazn6zyqeya,Og3Q5P7f,2020-0188,2021-10-31,04:47:57,06:03:13,NA,incomplete,false,true,NA,NA,4,23,NA,white,n_l_067.jpg,NA,NA,NA,NA,NA,pleasant,unpleasant,NA,NA,NA,NA,NA,left,1686.40000009537,true,NA,NA,NA,NA,NA,NA,NA,NA
Og3Q5P7f,3dw3bnf1hkvs8co26ehcm6ry22mv8w,3rsdurm96ezs8rrsfuvyazn6zyqeya,Og3Q5P7f,2020-0188,2021-10-31,04:47:57,06:03:13,NA,incomplete,false,true,NA,NA,4,24,NA,purple,n_l_066.jpg,NA,NA,NA,NA,NA,unpleasant,pleasant,NA,NA,NA,NA,NA,right,1535.39999985695,true,NA,NA,NA,NA,NA,NA,NA,NA
Og3Q5P7f,3dw3bnf1hkvs8co26ehcm6ry22mv8w,3rsdurm96ezs8rrsfuvyazn6zyqeya,Og3Q5P7f,2020-0188,2021-10-31,04:47:57,06:03:13,NA,incomplete,false,true,NA,NA,4,25,NA,purple,m_l_021.jpg,NA,NA,NA,NA,NA,unpleasant,pleasant,NA,NA,NA,NA,NA,left,1552.29999995232,true,NA,NA,NA,NA,NA,NA,NA,NA
Og3Q5P7f,3dw3bnf1hkvs8co26ehcm6ry22mv8w,3rsdurm96ezs8rrsfuvyazn6zyqeya,Og3Q5P7f,2020-0188,2021-10-31,04:47:57,06:03:13,NA,incomplete,false,true,NA,NA,4,26,NA,purple,m_l_017.jpg,NA,NA,NA,NA,NA,pleasant,unpleasant,NA,NA,NA,NA,NA,left,1441.5,true,NA,NA,NA,NA,NA,NA,NA,NA
Og3Q5P7f,3dw3bnf1hkvs8co26ehcm6ry22mv8w,3rsdurm96ezs8rrsfuvyazn6zyqeya,Og3Q5P7f,2020-0188,2021-10-31,04:47:57,06:03:13,NA,incomplete,false,true,NA,NA,4,27,NA,purple,n_s_062.jpg,NA,NA,NA,NA,NA,unpleasant,pleasant,NA,NA,NA,NA,NA,right,914.299999952316,true,NA,NA,NA,NA,NA,NA,NA,NA
Og3Q5P7f,3dw3bnf1hkvs8co26ehcm6ry22mv8w,3rsdurm96ezs8rrsfuvyazn6zyqeya,Og3Q5P7f,2020-0188,2021-10-31,04:47:57,06:03:13,NA,incomplete,false,true,NA,NA,4,28,NA,purple,m_l_077.jpg,NA,NA,NA,NA,NA,pleasant,unpleasant,NA,NA,NA,NA,NA,right,1659.59999990463,true,NA,NA,NA,NA,NA,NA,NA,NA
Og3Q5P7f,3dw3bnf1hkvs8co26ehcm6ry22mv8w,3rsdurm96ezs8rrsfuvyazn6zyqeya,Og3Q5P7f,2020-0188,2021-10-31,04:47:57,06:03:13,NA,incomplete,false,true,NA,NA,4,29,NA,purple,n_l_057.jpg,NA,NA,NA,NA,NA,unpleasant,pleasant,NA,NA,NA,NA,NA,right,1164.79999995232,true,NA,NA,NA,NA,NA,NA,NA,NA
Og3Q5P7f,3dw3bnf1hkvs8co26ehcm6ry22mv8w,3rsdurm96ezs8rrsfuvyazn6zyqeya,Og3Q5P7f,2020-0188,2021-10-31,04:47:57,06:03:13,NA,incomplete,false,true,NA,NA,4,30,NA,yellow,n_l_110.jpg,NA,NA,NA,NA,NA,unpleasant,pleasant,NA,NA,NA,NA,NA,right,1765.60000014305,true,NA,NA,NA,NA,NA,NA,NA,NA
Og3Q5P7f,3dw3bnf1hkvs8co26ehcm6ry22mv8w,3rsdurm96ezs8rrsfuvyazn6zyqeya,Og3Q5P7f,2020-0188,2021-10-31,04:47:57,06:03:13,NA,incomplete,false,true,NA,NA,4,31,NA,yellow,n_s_045.jpg,NA,NA,NA,NA,NA,unpleasant,pleasant,NA,NA,NA,NA,NA,right,862.799999952316,true,NA,NA,NA,NA,NA,NA,NA,NA
Og3Q5P7f,3dw3bnf1hkvs8co26ehcm6ry22mv8w,3rsdurm96ezs8rrsfuvyazn6zyqeya,Og3Q5P7f,2020-0188,2021-10-31,04:47:57,06:03:13,NA,incomplete,false,true,NA,NA,4,32,NA,yellow,m_l_046.jpg,NA,NA,NA,NA,NA,unpleasant,pleasant,NA,NA,NA,NA,NA,left,1215.30000019073,true,NA,NA,NA,NA,NA,NA,NA,NA
Og3Q5P7f,3dw3bnf1hkvs8co26ehcm6ry22mv8w,3rsdurm96ezs8rrsfuvyazn6zyqeya,Og3Q5P7f,2020-0188,2021-10-31,04:47:57,06:03:13,NA,incomplete,false,true,NA,NA,4,33,NA,yellow,n_s_043.jpg,NA,NA,NA,NA,NA,pleasant,unpleasant,NA,NA,NA,NA,NA,right,1704.90000009537,true,NA,NA,NA,NA,NA,NA,NA,NA
Og3Q5P7f,3dw3bnf1hkvs8co26ehcm6ry22mv8w,3rsdurm96ezs8rrsfuvyazn6zyqeya,Og3Q5P7f,2020-0188,2021-10-31,04:47:57,06:03:13,NA,incomplete,false,true,NA,NA,4,34,NA,yellow,n_s_069.jpg,NA,NA,NA,NA,NA,unpleasant,pleasant,NA,NA,NA,NA,NA,right,1345.69999980927,true,NA,NA,NA,NA,NA,NA,NA,NA
Og3Q5P7f,3dw3bnf1hkvs8co26ehcm6ry22mv8w,3rsdurm96ezs8rrsfuvyazn6zyqeya,Og3Q5P7f,2020-0188,2021-10-31,04:47:57,06:03:13,NA,incomplete,false,true,NA,NA,4,35,NA,yellow,n_s_039.jpg,NA,NA,NA,NA,NA,unpleasant,pleasant,NA,NA,NA,NA,NA,right,907.400000095367,true,NA,NA,NA,NA,NA,NA,NA,NA
Og3Q5P7f,3dw3bnf1hkvs8co26ehcm6ry22mv8w,3rsdurm96ezs8rrsfuvyazn6zyqeya,Og3Q5P7f,2020-0188,2021-10-31,04:47:57,06:03:13,NA,incomplete,false,NA,NA,true,4,0,NA,NA,NA,right,n_l_057.jpg,yellow,purple,NA,NA,NA,NA,NA,NA,NA,NA,NA,NaN,NA,2463.5,left,0,NA,NA,NA,NA,NA
Og3Q5P7f,3dw3bnf1hkvs8co26ehcm6ry22mv8w,3rsdurm96ezs8rrsfuvyazn6zyqeya,Og3Q5P7f,2020-0188,2021-10-31,04:47:57,06:03:13,NA,incomplete,false,NA,NA,true,4,1,NA,NA,NA,left,m_l_017.jpg,purple,white,NA,NA,NA,NA,NA,NA,NA,NA,NA,NaN,NA,2991.2999999523163,left,1,NA,NA,NA,NA,NA
Og3Q5P7f,3dw3bnf1hkvs8co26ehcm6ry22mv8w,3rsdurm96ezs8rrsfuvyazn6zyqeya,Og3Q5P7f,2020-0188,2021-10-31,04:47:57,06:03:13,NA,incomplete,false,NA,NA,true,4,2,NA,NA,NA,right,m_l_046.jpg,purple,yellow,NA,NA,NA,NA,NA,NA,NA,NA,NA,NaN,NA,2847.7000000476837,right,1,NA,NA,NA,NA,NA
Og3Q5P7f,3dw3bnf1hkvs8co26ehcm6ry22mv8w,3rsdurm96ezs8rrsfuvyazn6zyqeya,Og3Q5P7f,2020-0188,2021-10-31,04:47:57,06:03:13,NA,incomplete,false,NA,NA,true,4,3,NA,NA,NA,left,m_l_021.jpg,purple,yellow,NA,NA,NA,NA,NA,NA,NA,NA,NA,NaN,NA,1911.5,left,1,NA,NA,NA,NA,NA
Og3Q5P7f,3dw3bnf1hkvs8co26ehcm6ry22mv8w,3rsdurm96ezs8rrsfuvyazn6zyqeya,Og3Q5P7f,2020-0188,2021-10-31,04:47:57,06:03:13,NA,incomplete,false,NA,NA,true,4,4,NA,NA,NA,right,n_l_087.jpg,purple,white,NA,NA,NA,NA,NA,NA,NA,NA,NA,NaN,NA,1871.2000000476837,right,1,NA,NA,NA,NA,NA
Og3Q5P7f,3dw3bnf1hkvs8co26ehcm6ry22mv8w,3rsdurm96ezs8rrsfuvyazn6zyqeya,Og3Q5P7f,2020-0188,2021-10-31,04:47:57,06:03:13,NA,incomplete,false,NA,NA,true,4,5,NA,NA,NA,left,n_l_096.jpg,red,blue,NA,NA,NA,NA,NA,NA,NA,NA,NA,NaN,NA,1767.5,left,1,NA,NA,NA,NA,NA
Og3Q5P7f,3dw3bnf1hkvs8co26ehcm6ry22mv8w,3rsdurm96ezs8rrsfuvyazn6zyqeya,Og3Q5P7f,2020-0188,2021-10-31,04:47:57,06:03:13,NA,incomplete,false,NA,NA,true,4,6,NA,NA,NA,left,m_l_077.jpg,purple,yellow,NA,NA,NA,NA,NA,NA,NA,NA,NA,NaN,NA,3502.2999999523163,left,1,NA,NA,NA,NA,NA
Og3Q5P7f,3dw3bnf1hkvs8co26ehcm6ry22mv8w,3rsdurm96ezs8rrsfuvyazn6zyqeya,Og3Q5P7f,2020-0188,2021-10-31,04:47:57,06:03:13,NA,incomplete,false,NA,NA,true,4,7,NA,NA,NA,right,n_l_068.jpg,blue,gray,NA,NA,NA,NA,NA,NA,NA,NA,NA,NaN,NA,3615.4000000953674,right,1,NA,NA,NA,NA,NA
Og3Q5P7f,3dw3bnf1hkvs8co26ehcm6ry22mv8w,3rsdurm96ezs8rrsfuvyazn6zyqeya,Og3Q5P7f,2020-0188,2021-10-31,04:47:57,06:03:13,NA,incomplete,false,NA,NA,true,4,8,NA,NA,NA,left,m_s_008.jpg,white,purple,NA,NA,NA,NA,NA,NA,NA,NA,NA,NaN,NA,5630.899999856949,left,1,NA,NA,NA,NA,NA
Og3Q5P7f,3dw3bnf1hkvs8co26ehcm6ry22mv8w,3rsdurm96ezs8rrsfuvyazn6zyqeya,Og3Q5P7f,2020-0188,2021-10-31,04:47:57,06:03:13,NA,incomplete,false,NA,NA,true,4,9,NA,NA,NA,left,n_s_045.jpg,yellow,purple,NA,NA,NA,NA,NA,NA,NA,NA,NA,NaN,NA,1455.2999999523163,left,1,NA,NA,NA,NA,NA
Og3Q5P7f,3dw3bnf1hkvs8co26ehcm6ry22mv8w,3rsdurm96ezs8rrsfuvyazn6zyqeya,Og3Q5P7f,2020-0188,2021-10-31,04:47:57,06:03:13,NA,incomplete,false,NA,NA,true,4,10,NA,NA,NA,right,n_s_039.jpg,purple,yellow,NA,NA,NA,NA,NA,NA,NA,NA,NA,NaN,NA,2975.2999999523163,right,1,NA,NA,NA,NA,NA
Og3Q5P7f,3dw3bnf1hkvs8co26ehcm6ry22mv8w,3rsdurm96ezs8rrsfuvyazn6zyqeya,Og3Q5P7f,2020-0188,2021-10-31,04:47:57,06:03:13,NA,incomplete,false,NA,NA,true,4,11,NA,NA,NA,right,m_s_102.jpg,white,gray,NA,NA,NA,NA,NA,NA,NA,NA,NA,NaN,NA,2023.5,right,1,NA,NA,NA,NA,NA
Og3Q5P7f,3dw3bnf1hkvs8co26ehcm6ry22mv8w,3rsdurm96ezs8rrsfuvyazn6zyqeya,Og3Q5P7f,2020-0188,2021-10-31,04:47:57,06:03:13,NA,incomplete,false,NA,NA,true,4,12,NA,NA,NA,right,n_l_067.jpg,purple,white,NA,NA,NA,NA,NA,NA,NA,NA,NA,NaN,NA,2935.7000000476837,left,0,NA,NA,NA,NA,NA
Og3Q5P7f,3dw3bnf1hkvs8co26ehcm6ry22mv8w,3rsdurm96ezs8rrsfuvyazn6zyqeya,Og3Q5P7f,2020-0188,2021-10-31,04:47:57,06:03:13,NA,incomplete,false,NA,NA,true,4,13,NA,NA,NA,left,n_s_073.jpg,gray,blue,NA,NA,NA,NA,NA,NA,NA,NA,NA,NaN,NA,1687.5999999046326,left,1,NA,NA,NA,NA,NA
Og3Q5P7f,3dw3bnf1hkvs8co26ehcm6ry22mv8w,3rsdurm96ezs8rrsfuvyazn6zyqeya,Og3Q5P7f,2020-0188,2021-10-31,04:47:57,06:03:13,NA,incomplete,false,NA,NA,true,4,14,NA,NA,NA,left,n_s_040.jpg,white,gray,NA,NA,NA,NA,NA,NA,NA,NA,NA,NaN,NA,1719.6999998092651,right,0,NA,NA,NA,NA,NA
Og3Q5P7f,3dw3bnf1hkvs8co26ehcm6ry22mv8w,3rsdurm96ezs8rrsfuvyazn6zyqeya,Og3Q5P7f,2020-0188,2021-10-31,04:47:57,06:03:13,NA,incomplete,false,NA,NA,true,4,15,NA,NA,NA,left,n_l_114.jpg,blue,red,NA,NA,NA,NA,NA,NA,NA,NA,NA,NaN,NA,3031.5999999046326,left,1,NA,NA,NA,NA,NA
Og3Q5P7f,3dw3bnf1hkvs8co26ehcm6ry22mv8w,3rsdurm96ezs8rrsfuvyazn6zyqeya,Og3Q5P7f,2020-0188,2021-10-31,04:47:57,06:03:13,NA,incomplete,false,NA,NA,true,4,16,NA,NA,NA,left,m_l_104.jpg,red,blue,NA,NA,NA,NA,NA,NA,NA,NA,NA,NaN,NA,3207.5999999046326,left,1,NA,NA,NA,NA,NA
Og3Q5P7f,3dw3bnf1hkvs8co26ehcm6ry22mv8w,3rsdurm96ezs8rrsfuvyazn6zyqeya,Og3Q5P7f,2020-0188,2021-10-31,04:47:57,06:03:13,NA,incomplete,false,NA,NA,true,4,17,NA,NA,NA,left,n_s_031.jpg,blue,gray,NA,NA,NA,NA,NA,NA,NA,NA,NA,NaN,NA,1935.2000000476837,right,0,NA,NA,NA,NA,NA
Og3Q5P7f,3dw3bnf1hkvs8co26ehcm6ry22mv8w,3rsdurm96ezs8rrsfuvyazn6zyqeya,Og3Q5P7f,2020-0188,2021-10-31,04:47:57,06:03:13,NA,incomplete,false,NA,NA,true,4,18,NA,NA,NA,left,m_s_113.jpg,gray,blue,NA,NA,NA,NA,NA,NA,NA,NA,NA,NaN,NA,1519.2999999523163,left,1,NA,NA,NA,NA,NA
Og3Q5P7f,3dw3bnf1hkvs8co26ehcm6ry22mv8w,3rsdurm96ezs8rrsfuvyazn6zyqeya,Og3Q5P7f,2020-0188,2021-10-31,04:47:57,06:03:13,NA,incomplete,false,NA,NA,true,4,19,NA,NA,NA,left,n_s_113.jpg,blue,gray,NA,NA,NA,NA,NA,NA,NA,NA,NA,NaN,NA,4439.600000143051,left,1,NA,NA,NA,NA,NA
Og3Q5P7f,3dw3bnf1hkvs8co26ehcm6ry22mv8w,3rsdurm96ezs8rrsfuvyazn6zyqeya,Og3Q5P7f,2020-0188,2021-10-31,04:47:57,06:03:13,NA,incomplete,false,NA,NA,true,4,20,NA,NA,NA,right,n_s_089.jpg,blue,red,NA,NA,NA,NA,NA,NA,NA,NA,NA,NaN,NA,1919.5,right,1,NA,NA,NA,NA,NA
Og3Q5P7f,3dw3bnf1hkvs8co26ehcm6ry22mv8w,3rsdurm96ezs8rrsfuvyazn6zyqeya,Og3Q5P7f,2020-0188,2021-10-31,04:47:57,06:03:13,NA,incomplete,false,NA,NA,true,4,21,NA,NA,NA,right,n_s_018.jpg,red,blue,NA,NA,NA,NA,NA,NA,NA,NA,NA,NaN,NA,1807.2999999523163,right,1,NA,NA,NA,NA,NA
Og3Q5P7f,3dw3bnf1hkvs8co26ehcm6ry22mv8w,3rsdurm96ezs8rrsfuvyazn6zyqeya,Og3Q5P7f,2020-0188,2021-10-31,04:47:57,06:03:13,NA,incomplete,false,NA,true,NA,4,0,NA,NA,NA,left,NA,NA,NA,present,NA,NA,n_l_068.jpg,gray,n_l_087.jpg,white,between,NA,NaN,NA,NA,NA,NA,left,5030.400000095367,1,2,5990.5
Og3Q5P7f,3dw3bnf1hkvs8co26ehcm6ry22mv8w,3rsdurm96ezs8rrsfuvyazn6zyqeya,Og3Q5P7f,2020-0188,2021-10-31,04:47:57,06:03:13,NA,incomplete,false,NA,true,NA,4,1,NA,NA,NA,right,NA,NA,NA,present,NA,NA,m_l_046.jpg,yellow,m_l_077.jpg,purple,between,NA,NaN,NA,NA,NA,NA,right,6423.400000095367,1,2,3207.100000143051
Og3Q5P7f,3dw3bnf1hkvs8co26ehcm6ry22mv8w,3rsdurm96ezs8rrsfuvyazn6zyqeya,Og3Q5P7f,2020-0188,2021-10-31,04:47:57,06:03:13,NA,incomplete,false,NA,true,NA,4,2,NA,NA,NA,right,NA,NA,NA,present,NA,NA,n_s_073.jpg,gray,n_l_114.jpg,blue,between,NA,NaN,NA,NA,NA,NA,right,2951.2000000476837,1,3,1767.2999999523163
Og3Q5P7f,3dw3bnf1hkvs8co26ehcm6ry22mv8w,3rsdurm96ezs8rrsfuvyazn6zyqeya,Og3Q5P7f,2020-0188,2021-10-31,04:47:57,06:03:13,NA,incomplete,false,NA,true,NA,4,3,NA,NA,NA,right,NA,NA,NA,present,NA,NA,n_s_113.jpg,blue,n_s_089.jpg,red,between,NA,NaN,NA,NA,NA,NA,right,3031.199999809265,1,2,1199.7999999523163
Og3Q5P7f,3dw3bnf1hkvs8co26ehcm6ry22mv8w,3rsdurm96ezs8rrsfuvyazn6zyqeya,Og3Q5P7f,2020-0188,2021-10-31,04:47:57,06:03:13,NA,incomplete,false,NA,true,NA,4,4,NA,NA,NA,left,NA,NA,NA,present,NA,NA,n_l_096.jpg,red,m_l_104.jpg,red,within,NA,NaN,NA,NA,NA,NA,left,2302.9000000953674,1,0,1479.0999999046326
Og3Q5P7f,3dw3bnf1hkvs8co26ehcm6ry22mv8w,3rsdurm96ezs8rrsfuvyazn6zyqeya,Og3Q5P7f,2020-0188,2021-10-31,04:47:57,06:03:13,NA,incomplete,false,NA,true,NA,4,5,NA,NA,NA,left,NA,NA,NA,present,NA,NA,n_s_040.jpg,white,m_l_017.jpg,purple,between,NA,NaN,NA,NA,NA,NA,left,3327.5,1,3,1431.1000001430511
Og3Q5P7f,3dw3bnf1hkvs8co26ehcm6ry22mv8w,3rsdurm96ezs8rrsfuvyazn6zyqeya,Og3Q5P7f,2020-0188,2021-10-31,04:47:57,06:03:13,NA,incomplete,false,NA,true,NA,4,6,NA,NA,NA,left,NA,NA,NA,present,NA,NA,n_s_031.jpg,blue,n_s_018.jpg,blue,within,NA,NaN,NA,NA,NA,NA,right,2015.0999999046326,0,1,1511.0999999046326
Og3Q5P7f,3dw3bnf1hkvs8co26ehcm6ry22mv8w,3rsdurm96ezs8rrsfuvyazn6zyqeya,Og3Q5P7f,2020-0188,2021-10-31,04:47:57,06:03:13,NA,incomplete,false,NA,true,NA,4,7,NA,NA,NA,right,NA,NA,NA,present,NA,NA,m_s_113.jpg,gray,m_s_102.jpg,gray,within,NA,NaN,NA,NA,NA,NA,right,5647.599999904633,1,0,1199.2000000476837
Og3Q5P7f,3dw3bnf1hkvs8co26ehcm6ry22mv8w,3rsdurm96ezs8rrsfuvyazn6zyqeya,Og3Q5P7f,2020-0188,2021-10-31,04:47:57,06:03:13,NA,incomplete,false,NA,true,NA,4,8,NA,NA,NA,right,NA,NA,NA,present,NA,NA,n_l_057.jpg,purple,m_l_021.jpg,purple,within,NA,NaN,NA,NA,NA,NA,left,1943.4000000953674,0,0,2383.199999809265
Og3Q5P7f,3dw3bnf1hkvs8co26ehcm6ry22mv8w,3rsdurm96ezs8rrsfuvyazn6zyqeya,Og3Q5P7f,2020-0188,2021-10-31,04:47:57,06:03:13,NA,incomplete,false,NA,true,NA,4,9,NA,NA,NA,left,NA,NA,NA,present,NA,NA,m_s_008.jpg,white,n_l_067.jpg,white,within,NA,NaN,NA,NA,NA,NA,left,2983.5,1,0,1223.7999999523163
Og3Q5P7f,3dw3bnf1hkvs8co26ehcm6ry22mv8w,3rsdurm96ezs8rrsfuvyazn6zyqeya,Og3Q5P7f,2020-0188,2021-10-31,04:47:57,06:03:13,NA,incomplete,false,NA,true,NA,4,10,NA,NA,NA,right,NA,NA,NA,present,NA,NA,n_s_039.jpg,yellow,n_s_045.jpg,yellow,within,NA,NaN,NA,NA,NA,NA,left,3063,0,0,1319.5
Og3Q5P7f,3dw3bnf1hkvs8co26ehcm6ry22mv8w,3rsdurm96ezs8rrsfuvyazn6zyqeya,Og3Q5P7f,2020-0188,2021-10-31,04:47:57,06:03:13,NA,incomplete,false,true,NA,NA,5,0,NA,purple,m_l_078.jpg,NA,NA,NA,NA,NA,pleasant,unpleasant,NA,NA,NA,NA,NA,left,1989.79999995232,true,NA,NA,NA,NA,NA,NA,NA,NA
Og3Q5P7f,3dw3bnf1hkvs8co26ehcm6ry22mv8w,3rsdurm96ezs8rrsfuvyazn6zyqeya,Og3Q5P7f,2020-0188,2021-10-31,04:47:57,06:03:13,NA,incomplete,false,true,NA,NA,5,1,NA,purple,n_l_095.jpg,NA,NA,NA,NA,NA,pleasant,unpleasant,NA,NA,NA,NA,NA,right,1910.90000009537,true,NA,NA,NA,NA,NA,NA,NA,NA
Og3Q5P7f,3dw3bnf1hkvs8co26ehcm6ry22mv8w,3rsdurm96ezs8rrsfuvyazn6zyqeya,Og3Q5P7f,2020-0188,2021-10-31,04:47:57,06:03:13,NA,incomplete,false,true,NA,NA,5,2,NA,purple,n_l_054.jpg,NA,NA,NA,NA,NA,unpleasant,pleasant,NA,NA,NA,NA,NA,right,1200.90000009537,true,NA,NA,NA,NA,NA,NA,NA,NA
Og3Q5P7f,3dw3bnf1hkvs8co26ehcm6ry22mv8w,3rsdurm96ezs8rrsfuvyazn6zyqeya,Og3Q5P7f,2020-0188,2021-10-31,04:47:57,06:03:13,NA,incomplete,false,true,NA,NA,5,3,NA,purple,m_l_024.jpg,NA,NA,NA,NA,NA,pleasant,unpleasant,NA,NA,NA,NA,NA,left,2048.89999985695,true,NA,NA,NA,NA,NA,NA,NA,NA
Og3Q5P7f,3dw3bnf1hkvs8co26ehcm6ry22mv8w,3rsdurm96ezs8rrsfuvyazn6zyqeya,Og3Q5P7f,2020-0188,2021-10-31,04:47:57,06:03:13,NA,incomplete,false,true,NA,NA,5,4,NA,purple,n_s_014.jpg,NA,NA,NA,NA,NA,pleasant,unpleasant,NA,NA,NA,NA,NA,right,1042.5,true,NA,NA,NA,NA,NA,NA,NA,NA
Og3Q5P7f,3dw3bnf1hkvs8co26ehcm6ry22mv8w,3rsdurm96ezs8rrsfuvyazn6zyqeya,Og3Q5P7f,2020-0188,2021-10-31,04:47:57,06:03:13,NA,incomplete,false,true,NA,NA,5,5,NA,purple,n_l_056.jpg,NA,NA,NA,NA,NA,unpleasant,pleasant,NA,NA,NA,NA,NA,right,1235.29999995232,true,NA,NA,NA,NA,NA,NA,NA,NA
Og3Q5P7f,3dw3bnf1hkvs8co26ehcm6ry22mv8w,3rsdurm96ezs8rrsfuvyazn6zyqeya,Og3Q5P7f,2020-0188,2021-10-31,04:47:57,06:03:13,NA,incomplete,false,true,NA,NA,5,6,NA,gray,m_l_069.jpg,NA,NA,NA,NA,NA,unpleasant,pleasant,NA,NA,NA,NA,NA,left,1860.09999990463,true,NA,NA,NA,NA,NA,NA,NA,NA
Og3Q5P7f,3dw3bnf1hkvs8co26ehcm6ry22mv8w,3rsdurm96ezs8rrsfuvyazn6zyqeya,Og3Q5P7f,2020-0188,2021-10-31,04:47:57,06:03:13,NA,incomplete,false,true,NA,NA,5,7,NA,gray,m_l_103.jpg,NA,NA,NA,NA,NA,pleasant,unpleasant,NA,NA,NA,NA,NA,left,1701.29999995232,true,NA,NA,NA,NA,NA,NA,NA,NA
Og3Q5P7f,3dw3bnf1hkvs8co26ehcm6ry22mv8w,3rsdurm96ezs8rrsfuvyazn6zyqeya,Og3Q5P7f,2020-0188,2021-10-31,04:47:57,06:03:13,NA,incomplete,false,true,NA,NA,5,8,NA,gray,m_s_111.jpg,NA,NA,NA,NA,NA,pleasant,unpleasant,NA,NA,NA,NA,NA,left,1446,true,NA,NA,NA,NA,NA,NA,NA,NA
Og3Q5P7f,3dw3bnf1hkvs8co26ehcm6ry22mv8w,3rsdurm96ezs8rrsfuvyazn6zyqeya,Og3Q5P7f,2020-0188,2021-10-31,04:47:57,06:03:13,NA,incomplete,false,true,NA,NA,5,9,NA,gray,n_l_037.jpg,NA,NA,NA,NA,NA,unpleasant,pleasant,NA,NA,NA,NA,NA,left,1279.09999990463,true,NA,NA,NA,NA,NA,NA,NA,NA
Og3Q5P7f,3dw3bnf1hkvs8co26ehcm6ry22mv8w,3rsdurm96ezs8rrsfuvyazn6zyqeya,Og3Q5P7f,2020-0188,2021-10-31,04:47:57,06:03:13,NA,incomplete,false,true,NA,NA,5,10,NA,gray,n_l_091.jpg,NA,NA,NA,NA,NA,pleasant,unpleasant,NA,NA,NA,NA,NA,left,1520.29999995232,true,NA,NA,NA,NA,NA,NA,NA,NA
Og3Q5P7f,3dw3bnf1hkvs8co26ehcm6ry22mv8w,3rsdurm96ezs8rrsfuvyazn6zyqeya,Og3Q5P7f,2020-0188,2021-10-31,04:47:57,06:03:13,NA,incomplete,false,true,NA,NA,5,11,NA,gray,n_s_058.jpg,NA,NA,NA,NA,NA,unpleasant,pleasant,NA,NA,NA,NA,NA,left,1703.29999995232,true,NA,NA,NA,NA,NA,NA,NA,NA
Og3Q5P7f,3dw3bnf1hkvs8co26ehcm6ry22mv8w,3rsdurm96ezs8rrsfuvyazn6zyqeya,Og3Q5P7f,2020-0188,2021-10-31,04:47:57,06:03:13,NA,incomplete,false,true,NA,NA,5,12,NA,brown,m_l_003.jpg,NA,NA,NA,NA,NA,pleasant,unpleasant,NA,NA,NA,NA,NA,left,2343.79999995232,true,NA,NA,NA,NA,NA,NA,NA,NA
Og3Q5P7f,3dw3bnf1hkvs8co26ehcm6ry22mv8w,3rsdurm96ezs8rrsfuvyazn6zyqeya,Og3Q5P7f,2020-0188,2021-10-31,04:47:57,06:03:13,NA,incomplete,false,true,NA,NA,5,13,NA,brown,m_l_093.jpg,NA,NA,NA,NA,NA,pleasant,unpleasant,NA,NA,NA,NA,NA,right,1537,true,NA,NA,NA,NA,NA,NA,NA,NA
Og3Q5P7f,3dw3bnf1hkvs8co26ehcm6ry22mv8w,3rsdurm96ezs8rrsfuvyazn6zyqeya,Og3Q5P7f,2020-0188,2021-10-31,04:47:57,06:03:13,NA,incomplete,false,true,NA,NA,5,14,NA,brown,m_l_006.jpg,NA,NA,NA,NA,NA,pleasant,unpleasant,NA,NA,NA,NA,NA,left,1986.29999995232,true,NA,NA,NA,NA,NA,NA,NA,NA
Og3Q5P7f,3dw3bnf1hkvs8co26ehcm6ry22mv8w,3rsdurm96ezs8rrsfuvyazn6zyqeya,Og3Q5P7f,2020-0188,2021-10-31,04:47:57,06:03:13,NA,incomplete,false,true,NA,NA,5,15,NA,brown,n_s_054.jpg,NA,NA,NA,NA,NA,unpleasant,pleasant,NA,NA,NA,NA,NA,left,1664.70000004768,true,NA,NA,NA,NA,NA,NA,NA,NA
