workerId,hitId,assignmentId,subject,studyid,exp_date,exp_start,exp_end,time_start,time_end,practice,encoding,memory,association,block,trial,event_order,event,stim,answer,object,left_context,right_context,context_type,label_left,label_right,left_image,left_event,right_image,right_event,condition,response,response_time,response_acc,association_response_time,association_response,association_acc,order_response,order_response_time,order_acc,distance_response,distance_response_time
GWnQCU8B,3k2cedradeesg9mhvkrgq648pmomto,3s06ph7ksvhqqf2p7ad5quubs1l1db,GWnQCU8B,2020-0188,2021-10-30,20:31:49,21:55:58,NA,incomplete,true,true,NA,NA,0,0,NA,white,n_l_095.jpg,NA,NA,NA,NA,NA,unpleasant,pleasant,NA,NA,NA,NA,NA,right,1686.79999995232,true,NA,NA,NA,NA,NA,NA,NA,NA
GWnQCU8B,3k2cedradeesg9mhvkrgq648pmomto,3s06ph7ksvhqqf2p7ad5quubs1l1db,GWnQCU8B,2020-0188,2021-10-30,20:31:49,21:55:58,NA,incomplete,true,true,NA,NA,0,1,NA,white,m_s_111.jpg,NA,NA,NA,NA,NA,unpleasant,pleasant,NA,NA,NA,NA,NA,right,1617.5,true,NA,NA,NA,NA,NA,NA,NA,NA
GWnQCU8B,3k2cedradeesg9mhvkrgq648pmomto,3s06ph7ksvhqqf2p7ad5quubs1l1db,GWnQCU8B,2020-0188,2021-10-30,20:31:49,21:55:58,NA,incomplete,true,true,NA,NA,0,2,NA,white,m_l_092.jpg,NA,NA,NA,NA,NA,unpleasant,pleasant,NA,NA,NA,NA,NA,right,1180.79999995232,true,NA,NA,NA,NA,NA,NA,NA,NA
GWnQCU8B,3k2cedradeesg9mhvkrgq648pmomto,3s06ph7ksvhqqf2p7ad5quubs1l1db,GWnQCU8B,2020-0188,2021-10-30,20:31:49,21:55:58,NA,incomplete,true,true,NA,NA,0,3,NA,white,m_l_103.jpg,NA,NA,NA,NA,NA,pleasant,unpleasant,NA,NA,NA,NA,NA,left,1358.70000004768,true,NA,NA,NA,NA,NA,NA,NA,NA
GWnQCU8B,3k2cedradeesg9mhvkrgq648pmomto,3s06ph7ksvhqqf2p7ad5quubs1l1db,GWnQCU8B,2020-0188,2021-10-30,20:31:49,21:55:58,NA,incomplete,true,true,NA,NA,0,4,NA,white,m_s_056.jpg,NA,NA,NA,NA,NA,unpleasant,pleasant,NA,NA,NA,NA,NA,right,1610.5,true,NA,NA,NA,NA,NA,NA,NA,NA
GWnQCU8B,3k2cedradeesg9mhvkrgq648pmomto,3s06ph7ksvhqqf2p7ad5quubs1l1db,GWnQCU8B,2020-0188,2021-10-30,20:31:49,21:55:58,NA,incomplete,true,true,NA,NA,0,5,NA,white,n_s_009.jpg,NA,NA,NA,NA,NA,pleasant,unpleasant,NA,NA,NA,NA,NA,left,1434.70000004768,true,NA,NA,NA,NA,NA,NA,NA,NA
GWnQCU8B,3k2cedradeesg9mhvkrgq648pmomto,3s06ph7ksvhqqf2p7ad5quubs1l1db,GWnQCU8B,2020-0188,2021-10-30,20:31:49,21:55:58,NA,incomplete,true,true,NA,NA,0,6,NA,purple,n_s_066.jpg,NA,NA,NA,NA,NA,pleasant,unpleasant,NA,NA,NA,NA,NA,left,1690.70000004768,true,NA,NA,NA,NA,NA,NA,NA,NA
GWnQCU8B,3k2cedradeesg9mhvkrgq648pmomto,3s06ph7ksvhqqf2p7ad5quubs1l1db,GWnQCU8B,2020-0188,2021-10-30,20:31:49,21:55:58,NA,incomplete,true,true,NA,NA,0,7,NA,purple,n_s_025.jpg,NA,NA,NA,NA,NA,unpleasant,pleasant,NA,NA,NA,NA,NA,right,1702.30000019073,true,NA,NA,NA,NA,NA,NA,NA,NA
GWnQCU8B,3k2cedradeesg9mhvkrgq648pmomto,3s06ph7ksvhqqf2p7ad5quubs1l1db,GWnQCU8B,2020-0188,2021-10-30,20:31:49,21:55:58,NA,incomplete,true,true,NA,NA,0,8,NA,purple,m_s_066.jpg,NA,NA,NA,NA,NA,pleasant,unpleasant,NA,NA,NA,NA,NA,left,1283.5,true,NA,NA,NA,NA,NA,NA,NA,NA
GWnQCU8B,3k2cedradeesg9mhvkrgq648pmomto,3s06ph7ksvhqqf2p7ad5quubs1l1db,GWnQCU8B,2020-0188,2021-10-30,20:31:49,21:55:58,NA,incomplete,true,true,NA,NA,0,9,NA,purple,m_l_115.jpg,NA,NA,NA,NA,NA,unpleasant,pleasant,NA,NA,NA,NA,NA,right,1288.90000009537,true,NA,NA,NA,NA,NA,NA,NA,NA
GWnQCU8B,3k2cedradeesg9mhvkrgq648pmomto,3s06ph7ksvhqqf2p7ad5quubs1l1db,GWnQCU8B,2020-0188,2021-10-30,20:31:49,21:55:58,NA,incomplete,true,true,NA,NA,0,10,NA,purple,m_l_104.jpg,NA,NA,NA,NA,NA,pleasant,unpleasant,NA,NA,NA,NA,NA,left,1230.29999995232,true,NA,NA,NA,NA,NA,NA,NA,NA
GWnQCU8B,3k2cedradeesg9mhvkrgq648pmomto,3s06ph7ksvhqqf2p7ad5quubs1l1db,GWnQCU8B,2020-0188,2021-10-30,20:31:49,21:55:58,NA,incomplete,true,true,NA,NA,0,11,NA,purple,m_l_117.jpg,NA,NA,NA,NA,NA,unpleasant,pleasant,NA,NA,NA,NA,NA,right,1266.09999990463,true,NA,NA,NA,NA,NA,NA,NA,NA
GWnQCU8B,3k2cedradeesg9mhvkrgq648pmomto,3s06ph7ksvhqqf2p7ad5quubs1l1db,GWnQCU8B,2020-0188,2021-10-30,20:31:49,21:55:58,NA,incomplete,true,true,NA,NA,0,12,NA,green,m_l_060.jpg,NA,NA,NA,NA,NA,pleasant,unpleasant,NA,NA,NA,NA,NA,left,1353.10000014305,true,NA,NA,NA,NA,NA,NA,NA,NA
GWnQCU8B,3k2cedradeesg9mhvkrgq648pmomto,3s06ph7ksvhqqf2p7ad5quubs1l1db,GWnQCU8B,2020-0188,2021-10-30,20:31:49,21:55:58,NA,incomplete,true,true,NA,NA,0,13,NA,green,m_s_064.jpg,NA,NA,NA,NA,NA,unpleasant,pleasant,NA,NA,NA,NA,NA,right,1574.79999995232,true,NA,NA,NA,NA,NA,NA,NA,NA
GWnQCU8B,3k2cedradeesg9mhvkrgq648pmomto,3s06ph7ksvhqqf2p7ad5quubs1l1db,GWnQCU8B,2020-0188,2021-10-30,20:31:49,21:55:58,NA,incomplete,true,true,NA,NA,0,14,NA,green,m_l_102.jpg,NA,NA,NA,NA,NA,unpleasant,pleasant,NA,NA,NA,NA,NA,right,1526,true,NA,NA,NA,NA,NA,NA,NA,NA
GWnQCU8B,3k2cedradeesg9mhvkrgq648pmomto,3s06ph7ksvhqqf2p7ad5quubs1l1db,GWnQCU8B,2020-0188,2021-10-30,20:31:49,21:55:58,NA,incomplete,true,true,NA,NA,0,15,NA,green,m_s_094.jpg,NA,NA,NA,NA,NA,unpleasant,pleasant,NA,NA,NA,NA,NA,right,1758.40000009537,true,NA,NA,NA,NA,NA,NA,NA,NA
GWnQCU8B,3k2cedradeesg9mhvkrgq648pmomto,3s06ph7ksvhqqf2p7ad5quubs1l1db,GWnQCU8B,2020-0188,2021-10-30,20:31:49,21:55:58,NA,incomplete,true,true,NA,NA,0,16,NA,green,m_s_075.jpg,NA,NA,NA,NA,NA,pleasant,unpleasant,NA,NA,NA,NA,NA,left,1245.60000014305,true,NA,NA,NA,NA,NA,NA,NA,NA
GWnQCU8B,3k2cedradeesg9mhvkrgq648pmomto,3s06ph7ksvhqqf2p7ad5quubs1l1db,GWnQCU8B,2020-0188,2021-10-30,20:31:49,21:55:58,NA,incomplete,true,true,NA,NA,0,17,NA,green,m_s_054.jpg,NA,NA,NA,NA,NA,unpleasant,pleasant,NA,NA,NA,NA,NA,right,1431.20000004768,true,NA,NA,NA,NA,NA,NA,NA,NA
GWnQCU8B,3k2cedradeesg9mhvkrgq648pmomto,3s06ph7ksvhqqf2p7ad5quubs1l1db,GWnQCU8B,2020-0188,2021-10-30,20:31:49,21:55:58,NA,incomplete,true,true,NA,NA,0,18,NA,yellow,n_l_012.jpg,NA,NA,NA,NA,NA,pleasant,unpleasant,NA,NA,NA,NA,NA,left,1400.5,true,NA,NA,NA,NA,NA,NA,NA,NA
GWnQCU8B,3k2cedradeesg9mhvkrgq648pmomto,3s06ph7ksvhqqf2p7ad5quubs1l1db,GWnQCU8B,2020-0188,2021-10-30,20:31:49,21:55:58,NA,incomplete,true,true,NA,NA,0,19,NA,yellow,n_s_111.jpg,NA,NA,NA,NA,NA,unpleasant,pleasant,NA,NA,NA,NA,NA,right,1404.5,true,NA,NA,NA,NA,NA,NA,NA,NA
GWnQCU8B,3k2cedradeesg9mhvkrgq648pmomto,3s06ph7ksvhqqf2p7ad5quubs1l1db,GWnQCU8B,2020-0188,2021-10-30,20:31:49,21:55:58,NA,incomplete,true,true,NA,NA,0,20,NA,yellow,n_s_047.jpg,NA,NA,NA,NA,NA,pleasant,unpleasant,NA,NA,NA,NA,NA,left,1212.30000019073,true,NA,NA,NA,NA,NA,NA,NA,NA
GWnQCU8B,3k2cedradeesg9mhvkrgq648pmomto,3s06ph7ksvhqqf2p7ad5quubs1l1db,GWnQCU8B,2020-0188,2021-10-30,20:31:49,21:55:58,NA,incomplete,true,true,NA,NA,0,21,NA,yellow,n_s_108.jpg,NA,NA,NA,NA,NA,unpleasant,pleasant,NA,NA,NA,NA,NA,right,1401.09999990463,true,NA,NA,NA,NA,NA,NA,NA,NA
GWnQCU8B,3k2cedradeesg9mhvkrgq648pmomto,3s06ph7ksvhqqf2p7ad5quubs1l1db,GWnQCU8B,2020-0188,2021-10-30,20:31:49,21:55:58,NA,incomplete,true,true,NA,NA,0,22,NA,yellow,n_s_109.jpg,NA,NA,NA,NA,NA,unpleasant,pleasant,NA,NA,NA,NA,NA,right,1434.70000004768,true,NA,NA,NA,NA,NA,NA,NA,NA
GWnQCU8B,3k2cedradeesg9mhvkrgq648pmomto,3s06ph7ksvhqqf2p7ad5quubs1l1db,GWnQCU8B,2020-0188,2021-10-30,20:31:49,21:55:58,NA,incomplete,true,true,NA,NA,0,23,NA,yellow,n_l_116.jpg,NA,NA,NA,NA,NA,unpleasant,pleasant,NA,NA,NA,NA,NA,right,985.900000095367,true,NA,NA,NA,NA,NA,NA,NA,NA
GWnQCU8B,3k2cedradeesg9mhvkrgq648pmomto,3s06ph7ksvhqqf2p7ad5quubs1l1db,GWnQCU8B,2020-0188,2021-10-30,20:31:49,21:55:58,NA,incomplete,true,true,NA,NA,0,24,NA,red,m_l_049.jpg,NA,NA,NA,NA,NA,pleasant,unpleasant,NA,NA,NA,NA,NA,left,1306.5,true,NA,NA,NA,NA,NA,NA,NA,NA
GWnQCU8B,3k2cedradeesg9mhvkrgq648pmomto,3s06ph7ksvhqqf2p7ad5quubs1l1db,GWnQCU8B,2020-0188,2021-10-30,20:31:49,21:55:58,NA,incomplete,true,true,NA,NA,0,25,NA,red,m_s_042.jpg,NA,NA,NA,NA,NA,pleasant,unpleasant,NA,NA,NA,NA,NA,left,1719.29999995232,true,NA,NA,NA,NA,NA,NA,NA,NA
GWnQCU8B,3k2cedradeesg9mhvkrgq648pmomto,3s06ph7ksvhqqf2p7ad5quubs1l1db,GWnQCU8B,2020-0188,2021-10-30,20:31:49,21:55:58,NA,incomplete,true,true,NA,NA,0,26,NA,red,m_l_098.jpg,NA,NA,NA,NA,NA,pleasant,unpleasant,NA,NA,NA,NA,NA,left,811.700000047684,true,NA,NA,NA,NA,NA,NA,NA,NA
GWnQCU8B,3k2cedradeesg9mhvkrgq648pmomto,3s06ph7ksvhqqf2p7ad5quubs1l1db,GWnQCU8B,2020-0188,2021-10-30,20:31:49,21:55:58,NA,incomplete,true,true,NA,NA,0,27,NA,red,m_l_067.jpg,NA,NA,NA,NA,NA,unpleasant,pleasant,NA,NA,NA,NA,NA,right,1239.79999995232,true,NA,NA,NA,NA,NA,NA,NA,NA
GWnQCU8B,3k2cedradeesg9mhvkrgq648pmomto,3s06ph7ksvhqqf2p7ad5quubs1l1db,GWnQCU8B,2020-0188,2021-10-30,20:31:49,21:55:58,NA,incomplete,true,true,NA,NA,0,28,NA,red,m_s_023.jpg,NA,NA,NA,NA,NA,unpleasant,pleasant,NA,NA,NA,NA,NA,right,773.600000143051,true,NA,NA,NA,NA,NA,NA,NA,NA
GWnQCU8B,3k2cedradeesg9mhvkrgq648pmomto,3s06ph7ksvhqqf2p7ad5quubs1l1db,GWnQCU8B,2020-0188,2021-10-30,20:31:49,21:55:58,NA,incomplete,true,true,NA,NA,0,29,NA,red,m_s_100.jpg,NA,NA,NA,NA,NA,unpleasant,pleasant,NA,NA,NA,NA,NA,right,1501.09999990463,true,NA,NA,NA,NA,NA,NA,NA,NA
GWnQCU8B,3k2cedradeesg9mhvkrgq648pmomto,3s06ph7ksvhqqf2p7ad5quubs1l1db,GWnQCU8B,2020-0188,2021-10-30,20:31:49,21:55:58,NA,incomplete,true,true,NA,NA,0,30,NA,black,m_l_048.jpg,NA,NA,NA,NA,NA,unpleasant,pleasant,NA,NA,NA,NA,NA,right,1217.70000004768,true,NA,NA,NA,NA,NA,NA,NA,NA
GWnQCU8B,3k2cedradeesg9mhvkrgq648pmomto,3s06ph7ksvhqqf2p7ad5quubs1l1db,GWnQCU8B,2020-0188,2021-10-30,20:31:49,21:55:58,NA,incomplete,true,true,NA,NA,0,31,NA,black,n_l_007.jpg,NA,NA,NA,NA,NA,pleasant,unpleasant,NA,NA,NA,NA,NA,left,1160.80000019073,true,NA,NA,NA,NA,NA,NA,NA,NA
GWnQCU8B,3k2cedradeesg9mhvkrgq648pmomto,3s06ph7ksvhqqf2p7ad5quubs1l1db,GWnQCU8B,2020-0188,2021-10-30,20:31:49,21:55:58,NA,incomplete,true,true,NA,NA,0,32,NA,black,m_l_020.jpg,NA,NA,NA,NA,NA,pleasant,unpleasant,NA,NA,NA,NA,NA,left,921.5,true,NA,NA,NA,NA,NA,NA,NA,NA
GWnQCU8B,3k2cedradeesg9mhvkrgq648pmomto,3s06ph7ksvhqqf2p7ad5quubs1l1db,GWnQCU8B,2020-0188,2021-10-30,20:31:49,21:55:58,NA,incomplete,true,true,NA,NA,0,33,NA,black,n_l_114.jpg,NA,NA,NA,NA,NA,unpleasant,pleasant,NA,NA,NA,NA,NA,right,2580.39999985695,true,NA,NA,NA,NA,NA,NA,NA,NA
GWnQCU8B,3k2cedradeesg9mhvkrgq648pmomto,3s06ph7ksvhqqf2p7ad5quubs1l1db,GWnQCU8B,2020-0188,2021-10-30,20:31:49,21:55:58,NA,incomplete,true,true,NA,NA,0,34,NA,black,m_s_073.jpg,NA,NA,NA,NA,NA,pleasant,unpleasant,NA,NA,NA,NA,NA,none,0,false,NA,NA,NA,NA,NA,NA,NA,NA
GWnQCU8B,3k2cedradeesg9mhvkrgq648pmomto,3s06ph7ksvhqqf2p7ad5quubs1l1db,GWnQCU8B,2020-0188,2021-10-30,20:31:49,21:55:58,NA,incomplete,true,true,NA,NA,0,35,NA,black,n_l_075.jpg,NA,NA,NA,NA,NA,pleasant,unpleasant,NA,NA,NA,NA,NA,left,1537.90000009537,true,NA,NA,NA,NA,NA,NA,NA,NA
GWnQCU8B,3k2cedradeesg9mhvkrgq648pmomto,3s06ph7ksvhqqf2p7ad5quubs1l1db,GWnQCU8B,2020-0188,2021-10-30,20:31:49,21:55:58,NA,incomplete,true,NA,NA,true,0,0,NA,NA,NA,left,n_s_109.jpg,yellow,green,NA,NA,NA,NA,NA,NA,NA,NA,NA,NaN,NA,6656.799999952316,left,1,NA,NA,NA,NA,NA
GWnQCU8B,3k2cedradeesg9mhvkrgq648pmomto,3s06ph7ksvhqqf2p7ad5quubs1l1db,GWnQCU8B,2020-0188,2021-10-30,20:31:49,21:55:58,NA,incomplete,true,NA,NA,true,0,1,NA,NA,NA,right,m_s_100.jpg,yellow,red,NA,NA,NA,NA,NA,NA,NA,NA,NA,NaN,NA,1848.5999999046326,right,1,NA,NA,NA,NA,NA
GWnQCU8B,3k2cedradeesg9mhvkrgq648pmomto,3s06ph7ksvhqqf2p7ad5quubs1l1db,GWnQCU8B,2020-0188,2021-10-30,20:31:49,21:55:58,NA,incomplete,true,NA,NA,true,0,2,NA,NA,NA,left,n_s_111.jpg,yellow,green,NA,NA,NA,NA,NA,NA,NA,NA,NA,NaN,NA,1716.3999998569489,left,1,NA,NA,NA,NA,NA
GWnQCU8B,3k2cedradeesg9mhvkrgq648pmomto,3s06ph7ksvhqqf2p7ad5quubs1l1db,GWnQCU8B,2020-0188,2021-10-30,20:31:49,21:55:58,NA,incomplete,true,NA,NA,true,0,3,NA,NA,NA,left,m_l_104.jpg,purple,white,NA,NA,NA,NA,NA,NA,NA,NA,NA,NaN,NA,2892.5,left,1,NA,NA,NA,NA,NA
GWnQCU8B,3k2cedradeesg9mhvkrgq648pmomto,3s06ph7ksvhqqf2p7ad5quubs1l1db,GWnQCU8B,2020-0188,2021-10-30,20:31:49,21:55:58,NA,incomplete,true,NA,NA,true,0,4,NA,NA,NA,left,n_s_047.jpg,yellow,green,NA,NA,NA,NA,NA,NA,NA,NA,NA,NaN,NA,4540.900000095367,left,1,NA,NA,NA,NA,NA
GWnQCU8B,3k2cedradeesg9mhvkrgq648pmomto,3s06ph7ksvhqqf2p7ad5quubs1l1db,GWnQCU8B,2020-0188,2021-10-30,20:31:49,21:55:58,NA,incomplete,true,NA,NA,true,0,5,NA,NA,NA,left,m_s_064.jpg,green,purple,NA,NA,NA,NA,NA,NA,NA,NA,NA,NaN,NA,2162.600000143051,left,1,NA,NA,NA,NA,NA
GWnQCU8B,3k2cedradeesg9mhvkrgq648pmomto,3s06ph7ksvhqqf2p7ad5quubs1l1db,GWnQCU8B,2020-0188,2021-10-30,20:31:49,21:55:58,NA,incomplete,true,NA,NA,true,0,6,NA,NA,NA,right,m_s_075.jpg,yellow,green,NA,NA,NA,NA,NA,NA,NA,NA,NA,NaN,NA,2653.2999999523163,right,1,NA,NA,NA,NA,NA
GWnQCU8B,3k2cedradeesg9mhvkrgq648pmomto,3s06ph7ksvhqqf2p7ad5quubs1l1db,GWnQCU8B,2020-0188,2021-10-30,20:31:49,21:55:58,NA,incomplete,true,NA,NA,true,0,7,NA,NA,NA,left,n_l_007.jpg,black,red,NA,NA,NA,NA,NA,NA,NA,NA,NA,NaN,NA,4153.199999809265,left,1,NA,NA,NA,NA,NA
GWnQCU8B,3k2cedradeesg9mhvkrgq648pmomto,3s06ph7ksvhqqf2p7ad5quubs1l1db,GWnQCU8B,2020-0188,2021-10-30,20:31:49,21:55:58,NA,incomplete,true,NA,NA,true,0,8,NA,NA,NA,right,m_s_023.jpg,yellow,red,NA,NA,NA,NA,NA,NA,NA,NA,NA,NaN,NA,2751.0999999046326,right,1,NA,NA,NA,NA,NA
GWnQCU8B,3k2cedradeesg9mhvkrgq648pmomto,3s06ph7ksvhqqf2p7ad5quubs1l1db,GWnQCU8B,2020-0188,2021-10-30,20:31:49,21:55:58,NA,incomplete,true,NA,NA,true,0,9,NA,NA,NA,left,n_l_075.jpg,black,red,NA,NA,NA,NA,NA,NA,NA,NA,NA,NaN,NA,2799.4000000953674,left,1,NA,NA,NA,NA,NA
GWnQCU8B,3k2cedradeesg9mhvkrgq648pmomto,3s06ph7ksvhqqf2p7ad5quubs1l1db,GWnQCU8B,2020-0188,2021-10-30,20:31:49,21:55:58,NA,incomplete,true,NA,NA,true,0,10,NA,NA,NA,right,n_s_025.jpg,white,purple,NA,NA,NA,NA,NA,NA,NA,NA,NA,NaN,NA,4377,left,0,NA,NA,NA,NA,NA
GWnQCU8B,3k2cedradeesg9mhvkrgq648pmomto,3s06ph7ksvhqqf2p7ad5quubs1l1db,GWnQCU8B,2020-0188,2021-10-30,20:31:49,21:55:58,NA,incomplete,true,NA,NA,true,0,11,NA,NA,NA,right,m_l_102.jpg,purple,green,NA,NA,NA,NA,NA,NA,NA,NA,NA,NaN,NA,1771.2999999523163,right,1,NA,NA,NA,NA,NA
GWnQCU8B,3k2cedradeesg9mhvkrgq648pmomto,3s06ph7ksvhqqf2p7ad5quubs1l1db,GWnQCU8B,2020-0188,2021-10-30,20:31:49,21:55:58,NA,incomplete,true,NA,NA,true,0,12,NA,NA,NA,left,m_s_056.jpg,white,purple,NA,NA,NA,NA,NA,NA,NA,NA,NA,NaN,NA,4382.700000047684,left,1,NA,NA,NA,NA,NA
GWnQCU8B,3k2cedradeesg9mhvkrgq648pmomto,3s06ph7ksvhqqf2p7ad5quubs1l1db,GWnQCU8B,2020-0188,2021-10-30,20:31:49,21:55:58,NA,incomplete,true,NA,NA,true,0,13,NA,NA,NA,right,m_s_054.jpg,yellow,green,NA,NA,NA,NA,NA,NA,NA,NA,NA,NaN,NA,2440.5,right,1,NA,NA,NA,NA,NA
GWnQCU8B,3k2cedradeesg9mhvkrgq648pmomto,3s06ph7ksvhqqf2p7ad5quubs1l1db,GWnQCU8B,2020-0188,2021-10-30,20:31:49,21:55:58,NA,incomplete,true,NA,NA,true,0,14,NA,NA,NA,left,n_s_009.jpg,white,purple,NA,NA,NA,NA,NA,NA,NA,NA,NA,NaN,NA,3358,left,1,NA,NA,NA,NA,NA
GWnQCU8B,3k2cedradeesg9mhvkrgq648pmomto,3s06ph7ksvhqqf2p7ad5quubs1l1db,GWnQCU8B,2020-0188,2021-10-30,20:31:49,21:55:58,NA,incomplete,true,NA,NA,true,0,15,NA,NA,NA,left,m_l_020.jpg,black,red,NA,NA,NA,NA,NA,NA,NA,NA,NA,NaN,NA,3039,left,1,NA,NA,NA,NA,NA
GWnQCU8B,3k2cedradeesg9mhvkrgq648pmomto,3s06ph7ksvhqqf2p7ad5quubs1l1db,GWnQCU8B,2020-0188,2021-10-30,20:31:49,21:55:58,NA,incomplete,true,NA,NA,true,0,16,NA,NA,NA,left,m_l_117.jpg,purple,green,NA,NA,NA,NA,NA,NA,NA,NA,NA,NaN,NA,3172.7999999523163,left,1,NA,NA,NA,NA,NA
GWnQCU8B,3k2cedradeesg9mhvkrgq648pmomto,3s06ph7ksvhqqf2p7ad5quubs1l1db,GWnQCU8B,2020-0188,2021-10-30,20:31:49,21:55:58,NA,incomplete,true,NA,NA,true,0,17,NA,NA,NA,left,n_l_116.jpg,yellow,red,NA,NA,NA,NA,NA,NA,NA,NA,NA,NaN,NA,1623.0999999046326,left,1,NA,NA,NA,NA,NA
GWnQCU8B,3k2cedradeesg9mhvkrgq648pmomto,3s06ph7ksvhqqf2p7ad5quubs1l1db,GWnQCU8B,2020-0188,2021-10-30,20:31:49,21:55:58,NA,incomplete,true,NA,NA,true,0,18,NA,NA,NA,left,m_s_111.jpg,white,purple,NA,NA,NA,NA,NA,NA,NA,NA,NA,NaN,NA,1818.5999999046326,left,1,NA,NA,NA,NA,NA
GWnQCU8B,3k2cedradeesg9mhvkrgq648pmomto,3s06ph7ksvhqqf2p7ad5quubs1l1db,GWnQCU8B,2020-0188,2021-10-30,20:31:49,21:55:58,NA,incomplete,true,NA,NA,true,0,19,NA,NA,NA,right,m_s_066.jpg,white,purple,NA,NA,NA,NA,NA,NA,NA,NA,NA,NaN,NA,10240.899999856949,right,1,NA,NA,NA,NA,NA
GWnQCU8B,3k2cedradeesg9mhvkrgq648pmomto,3s06ph7ksvhqqf2p7ad5quubs1l1db,GWnQCU8B,2020-0188,2021-10-30,20:31:49,21:55:58,NA,incomplete,true,NA,NA,true,0,20,NA,NA,NA,left,m_l_098.jpg,red,yellow,NA,NA,NA,NA,NA,NA,NA,NA,NA,NaN,NA,3094.899999856949,left,1,NA,NA,NA,NA,NA
GWnQCU8B,3k2cedradeesg9mhvkrgq648pmomto,3s06ph7ksvhqqf2p7ad5quubs1l1db,GWnQCU8B,2020-0188,2021-10-30,20:31:49,21:55:58,NA,incomplete,true,NA,NA,true,0,21,NA,NA,NA,right,m_s_042.jpg,yellow,red,NA,NA,NA,NA,NA,NA,NA,NA,NA,NaN,NA,3358.899999856949,right,1,NA,NA,NA,NA,NA
GWnQCU8B,3k2cedradeesg9mhvkrgq648pmomto,3s06ph7ksvhqqf2p7ad5quubs1l1db,GWnQCU8B,2020-0188,2021-10-30,20:31:49,21:55:58,NA,incomplete,true,NA,true,NA,0,0,NA,NA,NA,right,NA,NA,NA,absent,NA,NA,m_l_020.jpg,black,m_s_023.jpg,red,between,NA,NaN,NA,NA,NA,NA,right,19199.699999809265,1,1,10073.300000190735
GWnQCU8B,3k2cedradeesg9mhvkrgq648pmomto,3s06ph7ksvhqqf2p7ad5quubs1l1db,GWnQCU8B,2020-0188,2021-10-30,20:31:49,21:55:58,NA,incomplete,true,NA,true,NA,0,1,NA,NA,NA,right,NA,NA,NA,absent,NA,NA,n_s_009.jpg,white,m_s_111.jpg,white,within,NA,NaN,NA,NA,NA,NA,right,5192.799999952316,1,0,901.3000001907349
GWnQCU8B,3k2cedradeesg9mhvkrgq648pmomto,3s06ph7ksvhqqf2p7ad5quubs1l1db,GWnQCU8B,2020-0188,2021-10-30,20:31:49,21:55:58,NA,incomplete,true,NA,true,NA,0,2,NA,NA,NA,right,NA,NA,NA,absent,NA,NA,n_l_075.jpg,black,n_l_007.jpg,black,within,NA,NaN,NA,NA,NA,NA,right,5615.299999952316,1,0,1477.2000000476837
GWnQCU8B,3k2cedradeesg9mhvkrgq648pmomto,3s06ph7ksvhqqf2p7ad5quubs1l1db,GWnQCU8B,2020-0188,2021-10-30,20:31:49,21:55:58,NA,incomplete,true,NA,true,NA,0,3,NA,NA,NA,left,NA,NA,NA,absent,NA,NA,m_s_075.jpg,green,n_s_047.jpg,yellow,between,NA,NaN,NA,NA,NA,NA,left,6282.799999952316,1,2,1407.2000000476837
GWnQCU8B,3k2cedradeesg9mhvkrgq648pmomto,3s06ph7ksvhqqf2p7ad5quubs1l1db,GWnQCU8B,2020-0188,2021-10-30,20:31:49,21:55:58,NA,incomplete,true,NA,true,NA,0,4,NA,NA,NA,left,NA,NA,NA,absent,NA,NA,n_s_111.jpg,yellow,n_l_116.jpg,yellow,within,NA,NaN,NA,NA,NA,NA,left,3631,1,0,1485.6000001430511
GWnQCU8B,3k2cedradeesg9mhvkrgq648pmomto,3s06ph7ksvhqqf2p7ad5quubs1l1db,GWnQCU8B,2020-0188,2021-10-30,20:31:49,21:55:58,NA,incomplete,true,NA,true,NA,0,5,NA,NA,NA,left,NA,NA,NA,absent,NA,NA,m_s_064.jpg,green,m_s_054.jpg,green,within,NA,NaN,NA,NA,NA,NA,left,6791,1,0,1103.2999999523163
GWnQCU8B,3k2cedradeesg9mhvkrgq648pmomto,3s06ph7ksvhqqf2p7ad5quubs1l1db,GWnQCU8B,2020-0188,2021-10-30,20:31:49,21:55:58,NA,incomplete,true,NA,true,NA,0,6,NA,NA,NA,right,NA,NA,NA,absent,NA,NA,m_s_100.jpg,red,m_s_042.jpg,red,within,NA,NaN,NA,NA,NA,NA,right,4416.799999952316,1,0,2106.5
GWnQCU8B,3k2cedradeesg9mhvkrgq648pmomto,3s06ph7ksvhqqf2p7ad5quubs1l1db,GWnQCU8B,2020-0188,2021-10-30,20:31:49,21:55:58,NA,incomplete,true,NA,true,NA,0,7,NA,NA,NA,left,NA,NA,NA,absent,NA,NA,n_s_109.jpg,yellow,m_l_098.jpg,red,between,NA,NaN,NA,NA,NA,NA,left,9954.799999952316,1,2,1369
GWnQCU8B,3k2cedradeesg9mhvkrgq648pmomto,3s06ph7ksvhqqf2p7ad5quubs1l1db,GWnQCU8B,2020-0188,2021-10-30,20:31:49,21:55:58,NA,incomplete,true,NA,true,NA,0,8,NA,NA,NA,right,NA,NA,NA,absent,NA,NA,m_l_102.jpg,green,m_l_104.jpg,purple,between,NA,NaN,NA,NA,NA,NA,right,6423.599999904633,1,3,2650.7000000476837
GWnQCU8B,3k2cedradeesg9mhvkrgq648pmomto,3s06ph7ksvhqqf2p7ad5quubs1l1db,GWnQCU8B,2020-0188,2021-10-30,20:31:49,21:55:58,NA,incomplete,true,NA,true,NA,0,9,NA,NA,NA,right,NA,NA,NA,absent,NA,NA,m_l_117.jpg,purple,n_s_025.jpg,purple,within,NA,NaN,NA,NA,NA,NA,right,6259.100000143051,1,0,2067.2999999523163
GWnQCU8B,3k2cedradeesg9mhvkrgq648pmomto,3s06ph7ksvhqqf2p7ad5quubs1l1db,GWnQCU8B,2020-0188,2021-10-30,20:31:49,21:55:58,NA,incomplete,true,NA,true,NA,0,10,NA,NA,NA,right,NA,NA,NA,absent,NA,NA,m_s_066.jpg,purple,m_s_056.jpg,white,between,NA,NaN,NA,NA,NA,NA,right,12599.200000047684,1,2,3623.4000000953674
GWnQCU8B,3k2cedradeesg9mhvkrgq648pmomto,3s06ph7ksvhqqf2p7ad5quubs1l1db,GWnQCU8B,2020-0188,2021-10-30,20:31:49,21:55:58,NA,incomplete,false,true,NA,NA,1,0,NA,white,n_s_031.jpg,NA,NA,NA,NA,NA,unpleasant,pleasant,NA,NA,NA,NA,NA,right,1983.70000004768,true,NA,NA,NA,NA,NA,NA,NA,NA
GWnQCU8B,3k2cedradeesg9mhvkrgq648pmomto,3s06ph7ksvhqqf2p7ad5quubs1l1db,GWnQCU8B,2020-0188,2021-10-30,20:31:49,21:55:58,NA,incomplete,false,true,NA,NA,1,1,NA,white,m_s_108.jpg,NA,NA,NA,NA,NA,unpleasant,pleasant,NA,NA,NA,NA,NA,right,1337,true,NA,NA,NA,NA,NA,NA,NA,NA
GWnQCU8B,3k2cedradeesg9mhvkrgq648pmomto,3s06ph7ksvhqqf2p7ad5quubs1l1db,GWnQCU8B,2020-0188,2021-10-30,20:31:49,21:55:58,NA,incomplete,false,true,NA,NA,1,2,NA,white,m_s_117.jpg,NA,NA,NA,NA,NA,unpleasant,pleasant,NA,NA,NA,NA,NA,right,1941.20000004768,true,NA,NA,NA,NA,NA,NA,NA,NA
GWnQCU8B,3k2cedradeesg9mhvkrgq648pmomto,3s06ph7ksvhqqf2p7ad5quubs1l1db,GWnQCU8B,2020-0188,2021-10-30,20:31:49,21:55:58,NA,incomplete,false,true,NA,NA,1,3,NA,white,n_l_032.jpg,NA,NA,NA,NA,NA,pleasant,unpleasant,NA,NA,NA,NA,NA,right,621.700000047684,true,NA,NA,NA,NA,NA,NA,NA,NA
GWnQCU8B,3k2cedradeesg9mhvkrgq648pmomto,3s06ph7ksvhqqf2p7ad5quubs1l1db,GWnQCU8B,2020-0188,2021-10-30,20:31:49,21:55:58,NA,incomplete,false,true,NA,NA,1,4,NA,white,n_l_081.jpg,NA,NA,NA,NA,NA,unpleasant,pleasant,NA,NA,NA,NA,NA,right,1094.09999990463,true,NA,NA,NA,NA,NA,NA,NA,NA
GWnQCU8B,3k2cedradeesg9mhvkrgq648pmomto,3s06ph7ksvhqqf2p7ad5quubs1l1db,GWnQCU8B,2020-0188,2021-10-30,20:31:49,21:55:58,NA,incomplete,false,true,NA,NA,1,5,NA,white,m_l_113.jpg,NA,NA,NA,NA,NA,unpleasant,pleasant,NA,NA,NA,NA,NA,right,1335.79999995232,true,NA,NA,NA,NA,NA,NA,NA,NA
GWnQCU8B,3k2cedradeesg9mhvkrgq648pmomto,3s06ph7ksvhqqf2p7ad5quubs1l1db,GWnQCU8B,2020-0188,2021-10-30,20:31:49,21:55:58,NA,incomplete,false,true,NA,NA,1,6,NA,blue,m_l_090.jpg,NA,NA,NA,NA,NA,pleasant,unpleasant,NA,NA,NA,NA,NA,left,1059.89999985695,true,NA,NA,NA,NA,NA,NA,NA,NA
GWnQCU8B,3k2cedradeesg9mhvkrgq648pmomto,3s06ph7ksvhqqf2p7ad5quubs1l1db,GWnQCU8B,2020-0188,2021-10-30,20:31:49,21:55:58,NA,incomplete,false,true,NA,NA,1,7,NA,blue,m_s_045.jpg,NA,NA,NA,NA,NA,pleasant,unpleasant,NA,NA,NA,NA,NA,left,997.200000047684,true,NA,NA,NA,NA,NA,NA,NA,NA
GWnQCU8B,3k2cedradeesg9mhvkrgq648pmomto,3s06ph7ksvhqqf2p7ad5quubs1l1db,GWnQCU8B,2020-0188,2021-10-30,20:31:49,21:55:58,NA,incomplete,false,true,NA,NA,1,8,NA,blue,m_l_087.jpg,NA,NA,NA,NA,NA,unpleasant,pleasant,NA,NA,NA,NA,NA,right,1131.5,true,NA,NA,NA,NA,NA,NA,NA,NA
GWnQCU8B,3k2cedradeesg9mhvkrgq648pmomto,3s06ph7ksvhqqf2p7ad5quubs1l1db,GWnQCU8B,2020-0188,2021-10-30,20:31:49,21:55:58,NA,incomplete,false,true,NA,NA,1,9,NA,blue,n_s_094.jpg,NA,NA,NA,NA,NA,unpleasant,pleasant,NA,NA,NA,NA,NA,right,886.199999809265,true,NA,NA,NA,NA,NA,NA,NA,NA
GWnQCU8B,3k2cedradeesg9mhvkrgq648pmomto,3s06ph7ksvhqqf2p7ad5quubs1l1db,GWnQCU8B,2020-0188,2021-10-30,20:31:49,21:55:58,NA,incomplete,false,true,NA,NA,1,10,NA,blue,n_l_015.jpg,NA,NA,NA,NA,NA,pleasant,unpleasant,NA,NA,NA,NA,NA,left,1283.90000009537,true,NA,NA,NA,NA,NA,NA,NA,NA
GWnQCU8B,3k2cedradeesg9mhvkrgq648pmomto,3s06ph7ksvhqqf2p7ad5quubs1l1db,GWnQCU8B,2020-0188,2021-10-30,20:31:49,21:55:58,NA,incomplete,false,true,NA,NA,1,11,NA,blue,n_l_024.jpg,NA,NA,NA,NA,NA,unpleasant,pleasant,NA,NA,NA,NA,NA,right,2146.79999995232,true,NA,NA,NA,NA,NA,NA,NA,NA
GWnQCU8B,3k2cedradeesg9mhvkrgq648pmomto,3s06ph7ksvhqqf2p7ad5quubs1l1db,GWnQCU8B,2020-0188,2021-10-30,20:31:49,21:55:58,NA,incomplete,false,true,NA,NA,1,12,NA,orange,n_s_085.jpg,NA,NA,NA,NA,NA,pleasant,unpleasant,NA,NA,NA,NA,NA,left,1975.40000009537,true,NA,NA,NA,NA,NA,NA,NA,NA
GWnQCU8B,3k2cedradeesg9mhvkrgq648pmomto,3s06ph7ksvhqqf2p7ad5quubs1l1db,GWnQCU8B,2020-0188,2021-10-30,20:31:49,21:55:58,NA,incomplete,false,true,NA,NA,1,13,NA,orange,m_l_064.jpg,NA,NA,NA,NA,NA,pleasant,unpleasant,NA,NA,NA,NA,NA,left,1003.60000014305,true,NA,NA,NA,NA,NA,NA,NA,NA
GWnQCU8B,3k2cedradeesg9mhvkrgq648pmomto,3s06ph7ksvhqqf2p7ad5quubs1l1db,GWnQCU8B,2020-0188,2021-10-30,20:31:49,21:55:58,NA,incomplete,false,true,NA,NA,1,14,NA,orange,m_s_011.jpg,NA,NA,NA,NA,NA,unpleasant,pleasant,NA,NA,NA,NA,NA,right,1311,true,NA,NA,NA,NA,NA,NA,NA,NA
GWnQCU8B,3k2cedradeesg9mhvkrgq648pmomto,3s06ph7ksvhqqf2p7ad5quubs1l1db,GWnQCU8B,2020-0188,2021-10-30,20:31:49,21:55:58,NA,incomplete,false,true,NA,NA,1,15,NA,orange,n_l_083.jpg,NA,NA,NA,NA,NA,pleasant,unpleasant,NA,NA,NA,NA,NA,left,1614.70000004768,true,NA,NA,NA,NA,NA,NA,NA,NA
GWnQCU8B,3k2cedradeesg9mhvkrgq648pmomto,3s06ph7ksvhqqf2p7ad5quubs1l1db,GWnQCU8B,2020-0188,2021-10-30,20:31:49,21:55:58,NA,incomplete,false,true,NA,NA,1,16,NA,orange,n_s_022.jpg,NA,NA,NA,NA,NA,unpleasant,pleasant,NA,NA,NA,NA,NA,right,1345.10000014305,true,NA,NA,NA,NA,NA,NA,NA,NA
GWnQCU8B,3k2cedradeesg9mhvkrgq648pmomto,3s06ph7ksvhqqf2p7ad5quubs1l1db,GWnQCU8B,2020-0188,2021-10-30,20:31:49,21:55:58,NA,incomplete,false,true,NA,NA,1,17,NA,orange,n_s_069.jpg,NA,NA,NA,NA,NA,unpleasant,pleasant,NA,NA,NA,NA,NA,right,781,true,NA,NA,NA,NA,NA,NA,NA,NA
GWnQCU8B,3k2cedradeesg9mhvkrgq648pmomto,3s06ph7ksvhqqf2p7ad5quubs1l1db,GWnQCU8B,2020-0188,2021-10-30,20:31:49,21:55:58,NA,incomplete,false,true,NA,NA,1,18,NA,brown,n_s_071.jpg,NA,NA,NA,NA,NA,unpleasant,pleasant,NA,NA,NA,NA,NA,right,916.100000143051,true,NA,NA,NA,NA,NA,NA,NA,NA
GWnQCU8B,3k2cedradeesg9mhvkrgq648pmomto,3s06ph7ksvhqqf2p7ad5quubs1l1db,GWnQCU8B,2020-0188,2021-10-30,20:31:49,21:55:58,NA,incomplete,false,true,NA,NA,1,19,NA,brown,m_l_095.jpg,NA,NA,NA,NA,NA,unpleasant,pleasant,NA,NA,NA,NA,NA,right,1074.40000009537,true,NA,NA,NA,NA,NA,NA,NA,NA
GWnQCU8B,3k2cedradeesg9mhvkrgq648pmomto,3s06ph7ksvhqqf2p7ad5quubs1l1db,GWnQCU8B,2020-0188,2021-10-30,20:31:49,21:55:58,NA,incomplete,false,true,NA,NA,1,20,NA,brown,m_s_036.jpg,NA,NA,NA,NA,NA,unpleasant,pleasant,NA,NA,NA,NA,NA,right,1132.89999985695,true,NA,NA,NA,NA,NA,NA,NA,NA
GWnQCU8B,3k2cedradeesg9mhvkrgq648pmomto,3s06ph7ksvhqqf2p7ad5quubs1l1db,GWnQCU8B,2020-0188,2021-10-30,20:31:49,21:55:58,NA,incomplete,false,true,NA,NA,1,21,NA,brown,n_l_086.jpg,NA,NA,NA,NA,NA,pleasant,unpleasant,NA,NA,NA,NA,NA,left,1643.09999990463,true,NA,NA,NA,NA,NA,NA,NA,NA
GWnQCU8B,3k2cedradeesg9mhvkrgq648pmomto,3s06ph7ksvhqqf2p7ad5quubs1l1db,GWnQCU8B,2020-0188,2021-10-30,20:31:49,21:55:58,NA,incomplete,false,true,NA,NA,1,22,NA,brown,m_l_016.jpg,NA,NA,NA,NA,NA,unpleasant,pleasant,NA,NA,NA,NA,NA,right,1168.59999990463,true,NA,NA,NA,NA,NA,NA,NA,NA
GWnQCU8B,3k2cedradeesg9mhvkrgq648pmomto,3s06ph7ksvhqqf2p7ad5quubs1l1db,GWnQCU8B,2020-0188,2021-10-30,20:31:49,21:55:58,NA,incomplete,false,true,NA,NA,1,23,NA,brown,m_l_029.jpg,NA,NA,NA,NA,NA,pleasant,unpleasant,NA,NA,NA,NA,NA,left,1080.5,true,NA,NA,NA,NA,NA,NA,NA,NA
GWnQCU8B,3k2cedradeesg9mhvkrgq648pmomto,3s06ph7ksvhqqf2p7ad5quubs1l1db,GWnQCU8B,2020-0188,2021-10-30,20:31:49,21:55:58,NA,incomplete,false,true,NA,NA,1,24,NA,gray,n_l_051.jpg,NA,NA,NA,NA,NA,pleasant,unpleasant,NA,NA,NA,NA,NA,left,923.600000143051,true,NA,NA,NA,NA,NA,NA,NA,NA
GWnQCU8B,3k2cedradeesg9mhvkrgq648pmomto,3s06ph7ksvhqqf2p7ad5quubs1l1db,GWnQCU8B,2020-0188,2021-10-30,20:31:49,21:55:58,NA,incomplete,false,true,NA,NA,1,25,NA,gray,n_l_037.jpg,NA,NA,NA,NA,NA,unpleasant,pleasant,NA,NA,NA,NA,NA,right,1486.5,true,NA,NA,NA,NA,NA,NA,NA,NA
GWnQCU8B,3k2cedradeesg9mhvkrgq648pmomto,3s06ph7ksvhqqf2p7ad5quubs1l1db,GWnQCU8B,2020-0188,2021-10-30,20:31:49,21:55:58,NA,incomplete,false,true,NA,NA,1,26,NA,gray,n_s_073.jpg,NA,NA,NA,NA,NA,pleasant,unpleasant,NA,NA,NA,NA,NA,left,1531.20000004768,true,NA,NA,NA,NA,NA,NA,NA,NA
GWnQCU8B,3k2cedradeesg9mhvkrgq648pmomto,3s06ph7ksvhqqf2p7ad5quubs1l1db,GWnQCU8B,2020-0188,2021-10-30,20:31:49,21:55:58,NA,incomplete,false,true,NA,NA,1,27,NA,gray,n_s_005.jpg,NA,NA,NA,NA,NA,unpleasant,pleasant,NA,NA,NA,NA,NA,right,1181.19999980927,true,NA,NA,NA,NA,NA,NA,NA,NA
GWnQCU8B,3k2cedradeesg9mhvkrgq648pmomto,3s06ph7ksvhqqf2p7ad5quubs1l1db,GWnQCU8B,2020-0188,2021-10-30,20:31:49,21:55:58,NA,incomplete,false,true,NA,NA,1,28,NA,gray,n_l_030.jpg,NA,NA,NA,NA,NA,pleasant,unpleasant,NA,NA,NA,NA,NA,left,1197.20000004768,true,NA,NA,NA,NA,NA,NA,NA,NA
GWnQCU8B,3k2cedradeesg9mhvkrgq648pmomto,3s06ph7ksvhqqf2p7ad5quubs1l1db,GWnQCU8B,2020-0188,2021-10-30,20:31:49,21:55:58,NA,incomplete,false,true,NA,NA,1,29,NA,gray,n_s_117.jpg,NA,NA,NA,NA,NA,unpleasant,pleasant,NA,NA,NA,NA,NA,right,1251.90000009537,true,NA,NA,NA,NA,NA,NA,NA,NA
GWnQCU8B,3k2cedradeesg9mhvkrgq648pmomto,3s06ph7ksvhqqf2p7ad5quubs1l1db,GWnQCU8B,2020-0188,2021-10-30,20:31:49,21:55:58,NA,incomplete,false,true,NA,NA,1,30,NA,red,m_l_082.jpg,NA,NA,NA,NA,NA,unpleasant,pleasant,NA,NA,NA,NA,NA,right,886.200000047684,true,NA,NA,NA,NA,NA,NA,NA,NA
GWnQCU8B,3k2cedradeesg9mhvkrgq648pmomto,3s06ph7ksvhqqf2p7ad5quubs1l1db,GWnQCU8B,2020-0188,2021-10-30,20:31:49,21:55:58,NA,incomplete,false,true,NA,NA,1,31,NA,red,n_s_110.jpg,NA,NA,NA,NA,NA,unpleasant,pleasant,NA,NA,NA,NA,NA,right,916.899999856949,true,NA,NA,NA,NA,NA,NA,NA,NA
GWnQCU8B,3k2cedradeesg9mhvkrgq648pmomto,3s06ph7ksvhqqf2p7ad5quubs1l1db,GWnQCU8B,2020-0188,2021-10-30,20:31:49,21:55:58,NA,incomplete,false,true,NA,NA,1,32,NA,red,m_s_076.jpg,NA,NA,NA,NA,NA,pleasant,unpleasant,NA,NA,NA,NA,NA,left,1229.79999995232,true,NA,NA,NA,NA,NA,NA,NA,NA
GWnQCU8B,3k2cedradeesg9mhvkrgq648pmomto,3s06ph7ksvhqqf2p7ad5quubs1l1db,GWnQCU8B,2020-0188,2021-10-30,20:31:49,21:55:58,NA,incomplete,false,true,NA,NA,1,33,NA,red,m_l_063.jpg,NA,NA,NA,NA,NA,unpleasant,pleasant,NA,NA,NA,NA,NA,right,1135.20000004768,true,NA,NA,NA,NA,NA,NA,NA,NA
GWnQCU8B,3k2cedradeesg9mhvkrgq648pmomto,3s06ph7ksvhqqf2p7ad5quubs1l1db,GWnQCU8B,2020-0188,2021-10-30,20:31:49,21:55:58,NA,incomplete,false,true,NA,NA,1,34,NA,red,n_s_013.jpg,NA,NA,NA,NA,NA,pleasant,unpleasant,NA,NA,NA,NA,NA,left,1256.79999995232,true,NA,NA,NA,NA,NA,NA,NA,NA
GWnQCU8B,3k2cedradeesg9mhvkrgq648pmomto,3s06ph7ksvhqqf2p7ad5quubs1l1db,GWnQCU8B,2020-0188,2021-10-30,20:31:49,21:55:58,NA,incomplete,false,true,NA,NA,1,35,NA,red,n_l_085.jpg,NA,NA,NA,NA,NA,pleasant,unpleasant,NA,NA,NA,NA,NA,left,863.299999952316,true,NA,NA,NA,NA,NA,NA,NA,NA
GWnQCU8B,3k2cedradeesg9mhvkrgq648pmomto,3s06ph7ksvhqqf2p7ad5quubs1l1db,GWnQCU8B,2020-0188,2021-10-30,20:31:49,21:55:58,NA,incomplete,false,NA,NA,true,1,0,NA,NA,NA,left,m_s_076.jpg,red,gray,NA,NA,NA,NA,NA,NA,NA,NA,NA,NaN,NA,9542.799999952316,right,0,NA,NA,NA,NA,NA
GWnQCU8B,3k2cedradeesg9mhvkrgq648pmomto,3s06ph7ksvhqqf2p7ad5quubs1l1db,GWnQCU8B,2020-0188,2021-10-30,20:31:49,21:55:58,NA,incomplete,false,NA,NA,true,1,1,NA,NA,NA,left,n_l_030.jpg,gray,red,NA,NA,NA,NA,NA,NA,NA,NA,NA,NaN,NA,2247,left,1,NA,NA,NA,NA,NA
GWnQCU8B,3k2cedradeesg9mhvkrgq648pmomto,3s06ph7ksvhqqf2p7ad5quubs1l1db,GWnQCU8B,2020-0188,2021-10-30,20:31:49,21:55:58,NA,incomplete,false,NA,NA,true,1,2,NA,NA,NA,right,n_l_015.jpg,white,blue,NA,NA,NA,NA,NA,NA,NA,NA,NA,NaN,NA,2252.7999999523163,right,1,NA,NA,NA,NA,NA
GWnQCU8B,3k2cedradeesg9mhvkrgq648pmomto,3s06ph7ksvhqqf2p7ad5quubs1l1db,GWnQCU8B,2020-0188,2021-10-30,20:31:49,21:55:58,NA,incomplete,false,NA,NA,true,1,3,NA,NA,NA,right,n_s_117.jpg,brown,gray,NA,NA,NA,NA,NA,NA,NA,NA,NA,NaN,NA,3466.800000190735,right,1,NA,NA,NA,NA,NA
GWnQCU8B,3k2cedradeesg9mhvkrgq648pmomto,3s06ph7ksvhqqf2p7ad5quubs1l1db,GWnQCU8B,2020-0188,2021-10-30,20:31:49,21:55:58,NA,incomplete,false,NA,NA,true,1,4,NA,NA,NA,left,m_s_108.jpg,white,blue,NA,NA,NA,NA,NA,NA,NA,NA,NA,NaN,NA,1654.7000000476837,left,1,NA,NA,NA,NA,NA
GWnQCU8B,3k2cedradeesg9mhvkrgq648pmomto,3s06ph7ksvhqqf2p7ad5quubs1l1db,GWnQCU8B,2020-0188,2021-10-30,20:31:49,21:55:58,NA,incomplete,false,NA,NA,true,1,5,NA,NA,NA,right,m_s_036.jpg,orange,brown,NA,NA,NA,NA,NA,NA,NA,NA,NA,NaN,NA,2690.0999999046326,left,0,NA,NA,NA,NA,NA
GWnQCU8B,3k2cedradeesg9mhvkrgq648pmomto,3s06ph7ksvhqqf2p7ad5quubs1l1db,GWnQCU8B,2020-0188,2021-10-30,20:31:49,21:55:58,NA,incomplete,false,NA,NA,true,1,6,NA,NA,NA,left,m_l_016.jpg,brown,gray,NA,NA,NA,NA,NA,NA,NA,NA,NA,NaN,NA,3279.9000000953674,left,1,NA,NA,NA,NA,NA
GWnQCU8B,3k2cedradeesg9mhvkrgq648pmomto,3s06ph7ksvhqqf2p7ad5quubs1l1db,GWnQCU8B,2020-0188,2021-10-30,20:31:49,21:55:58,NA,incomplete,false,NA,NA,true,1,7,NA,NA,NA,right,n_l_037.jpg,brown,gray,NA,NA,NA,NA,NA,NA,NA,NA,NA,NaN,NA,4214.900000095367,right,1,NA,NA,NA,NA,NA
GWnQCU8B,3k2cedradeesg9mhvkrgq648pmomto,3s06ph7ksvhqqf2p7ad5quubs1l1db,GWnQCU8B,2020-0188,2021-10-30,20:31:49,21:55:58,NA,incomplete,false,NA,NA,true,1,8,NA,NA,NA,left,m_l_029.jpg,brown,gray,NA,NA,NA,NA,NA,NA,NA,NA,NA,NaN,NA,6821.299999952316,left,1,NA,NA,NA,NA,NA
GWnQCU8B,3k2cedradeesg9mhvkrgq648pmomto,3s06ph7ksvhqqf2p7ad5quubs1l1db,GWnQCU8B,2020-0188,2021-10-30,20:31:49,21:55:58,NA,incomplete,false,NA,NA,true,1,9,NA,NA,NA,left,m_s_045.jpg,blue,orange,NA,NA,NA,NA,NA,NA,NA,NA,NA,NaN,NA,6191.299999952316,left,1,NA,NA,NA,NA,NA
GWnQCU8B,3k2cedradeesg9mhvkrgq648pmomto,3s06ph7ksvhqqf2p7ad5quubs1l1db,GWnQCU8B,2020-0188,2021-10-30,20:31:49,21:55:58,NA,incomplete,false,NA,NA,true,1,10,NA,NA,NA,right,m_s_011.jpg,brown,orange,NA,NA,NA,NA,NA,NA,NA,NA,NA,NaN,NA,7679.099999904633,right,1,NA,NA,NA,NA,NA
GWnQCU8B,3k2cedradeesg9mhvkrgq648pmomto,3s06ph7ksvhqqf2p7ad5quubs1l1db,GWnQCU8B,2020-0188,2021-10-30,20:31:49,21:55:58,NA,incomplete,false,NA,NA,true,1,11,NA,NA,NA,left,m_l_095.jpg,brown,gray,NA,NA,NA,NA,NA,NA,NA,NA,NA,NaN,NA,2542.600000143051,left,1,NA,NA,NA,NA,NA
GWnQCU8B,3k2cedradeesg9mhvkrgq648pmomto,3s06ph7ksvhqqf2p7ad5quubs1l1db,GWnQCU8B,2020-0188,2021-10-30,20:31:49,21:55:58,NA,incomplete,false,NA,NA,true,1,12,NA,NA,NA,left,n_s_069.jpg,orange,brown,NA,NA,NA,NA,NA,NA,NA,NA,NA,NaN,NA,7910.799999952316,left,1,NA,NA,NA,NA,NA
GWnQCU8B,3k2cedradeesg9mhvkrgq648pmomto,3s06ph7ksvhqqf2p7ad5quubs1l1db,GWnQCU8B,2020-0188,2021-10-30,20:31:49,21:55:58,NA,incomplete,false,NA,NA,true,1,13,NA,NA,NA,left,n_s_022.jpg,orange,blue,NA,NA,NA,NA,NA,NA,NA,NA,NA,NaN,NA,10902.299999952316,left,1,NA,NA,NA,NA,NA
GWnQCU8B,3k2cedradeesg9mhvkrgq648pmomto,3s06ph7ksvhqqf2p7ad5quubs1l1db,GWnQCU8B,2020-0188,2021-10-30,20:31:49,21:55:58,NA,incomplete,false,NA,NA,true,1,14,NA,NA,NA,right,n_s_110.jpg,gray,red,NA,NA,NA,NA,NA,NA,NA,NA,NA,NaN,NA,4422.800000190735,left,0,NA,NA,NA,NA,NA
GWnQCU8B,3k2cedradeesg9mhvkrgq648pmomto,3s06ph7ksvhqqf2p7ad5quubs1l1db,GWnQCU8B,2020-0188,2021-10-30,20:31:49,21:55:58,NA,incomplete,false,NA,NA,true,1,15,NA,NA,NA,right,m_l_064.jpg,brown,orange,NA,NA,NA,NA,NA,NA,NA,NA,NA,NaN,NA,3086.4000000953674,right,1,NA,NA,NA,NA,NA
GWnQCU8B,3k2cedradeesg9mhvkrgq648pmomto,3s06ph7ksvhqqf2p7ad5quubs1l1db,GWnQCU8B,2020-0188,2021-10-30,20:31:49,21:55:58,NA,incomplete,false,NA,NA,true,1,16,NA,NA,NA,left,n_l_085.jpg,red,gray,NA,NA,NA,NA,NA,NA,NA,NA,NA,NaN,NA,2744.5999999046326,right,0,NA,NA,NA,NA,NA
GWnQCU8B,3k2cedradeesg9mhvkrgq648pmomto,3s06ph7ksvhqqf2p7ad5quubs1l1db,GWnQCU8B,2020-0188,2021-10-30,20:31:49,21:55:58,NA,incomplete,false,NA,NA,true,1,17,NA,NA,NA,left,m_l_087.jpg,blue,orange,NA,NA,NA,NA,NA,NA,NA,NA,NA,NaN,NA,4018.699999809265,left,1,NA,NA,NA,NA,NA
GWnQCU8B,3k2cedradeesg9mhvkrgq648pmomto,3s06ph7ksvhqqf2p7ad5quubs1l1db,GWnQCU8B,2020-0188,2021-10-30,20:31:49,21:55:58,NA,incomplete,false,NA,NA,true,1,18,NA,NA,NA,right,n_s_073.jpg,brown,gray,NA,NA,NA,NA,NA,NA,NA,NA,NA,NaN,NA,2681.4000000953674,right,1,NA,NA,NA,NA,NA
GWnQCU8B,3k2cedradeesg9mhvkrgq648pmomto,3s06ph7ksvhqqf2p7ad5quubs1l1db,GWnQCU8B,2020-0188,2021-10-30,20:31:49,21:55:58,NA,incomplete,false,NA,NA,true,1,19,NA,NA,NA,left,n_l_081.jpg,white,blue,NA,NA,NA,NA,NA,NA,NA,NA,NA,NaN,NA,2518.9000000953674,left,1,NA,NA,NA,NA,NA
GWnQCU8B,3k2cedradeesg9mhvkrgq648pmomto,3s06ph7ksvhqqf2p7ad5quubs1l1db,GWnQCU8B,2020-0188,2021-10-30,20:31:49,21:55:58,NA,incomplete,false,NA,NA,true,1,20,NA,NA,NA,left,n_l_024.jpg,blue,white,NA,NA,NA,NA,NA,NA,NA,NA,NA,NaN,NA,2325.5,left,1,NA,NA,NA,NA,NA
GWnQCU8B,3k2cedradeesg9mhvkrgq648pmomto,3s06ph7ksvhqqf2p7ad5quubs1l1db,GWnQCU8B,2020-0188,2021-10-30,20:31:49,21:55:58,NA,incomplete,false,NA,NA,true,1,21,NA,NA,NA,left,m_l_113.jpg,white,blue,NA,NA,NA,NA,NA,NA,NA,NA,NA,NaN,NA,2672.7999999523163,left,1,NA,NA,NA,NA,NA
GWnQCU8B,3k2cedradeesg9mhvkrgq648pmomto,3s06ph7ksvhqqf2p7ad5quubs1l1db,GWnQCU8B,2020-0188,2021-10-30,20:31:49,21:55:58,NA,incomplete,false,NA,true,NA,1,0,NA,NA,NA,left,NA,NA,NA,absent,NA,NA,n_s_110.jpg,red,n_l_085.jpg,red,within,NA,NaN,NA,NA,NA,NA,left,6160.700000047684,1,1,1360.9000000953674
GWnQCU8B,3k2cedradeesg9mhvkrgq648pmomto,3s06ph7ksvhqqf2p7ad5quubs1l1db,GWnQCU8B,2020-0188,2021-10-30,20:31:49,21:55:58,NA,incomplete,false,NA,true,NA,1,1,NA,NA,NA,right,NA,NA,NA,absent,NA,NA,m_s_076.jpg,red,n_l_030.jpg,gray,between,NA,NaN,NA,NA,NA,NA,right,4869.399999856949,1,2,1804.3999998569489
GWnQCU8B,3k2cedradeesg9mhvkrgq648pmomto,3s06ph7ksvhqqf2p7ad5quubs1l1db,GWnQCU8B,2020-0188,2021-10-30,20:31:49,21:55:58,NA,incomplete,false,NA,true,NA,1,2,NA,NA,NA,left,NA,NA,NA,absent,NA,NA,m_l_016.jpg,brown,n_s_073.jpg,gray,between,NA,NaN,NA,NA,NA,NA,left,8526.200000047684,1,1,3142.7000000476837
GWnQCU8B,3k2cedradeesg9mhvkrgq648pmomto,3s06ph7ksvhqqf2p7ad5quubs1l1db,GWnQCU8B,2020-0188,2021-10-30,20:31:49,21:55:58,NA,incomplete,false,NA,true,NA,1,3,NA,NA,NA,right,NA,NA,NA,absent,NA,NA,n_s_069.jpg,orange,m_l_064.jpg,orange,within,NA,NaN,NA,NA,NA,NA,right,8236.900000095367,1,0,3373.0999999046326
GWnQCU8B,3k2cedradeesg9mhvkrgq648pmomto,3s06ph7ksvhqqf2p7ad5quubs1l1db,GWnQCU8B,2020-0188,2021-10-30,20:31:49,21:55:58,NA,incomplete,false,NA,true,NA,1,4,NA,NA,NA,right,NA,NA,NA,absent,NA,NA,m_l_087.jpg,blue,n_l_081.jpg,white,between,NA,NaN,NA,NA,NA,NA,right,2363.4000000953674,1,1,1514.7999999523163
GWnQCU8B,3k2cedradeesg9mhvkrgq648pmomto,3s06ph7ksvhqqf2p7ad5quubs1l1db,GWnQCU8B,2020-0188,2021-10-30,20:31:49,21:55:58,NA,incomplete,false,NA,true,NA,1,5,NA,NA,NA,right,NA,NA,NA,absent,NA,NA,m_l_029.jpg,brown,m_l_095.jpg,brown,within,NA,NaN,NA,NA,NA,NA,right,10003.099999904633,1,1,3639.5
GWnQCU8B,3k2cedradeesg9mhvkrgq648pmomto,3s06ph7ksvhqqf2p7ad5quubs1l1db,GWnQCU8B,2020-0188,2021-10-30,20:31:49,21:55:58,NA,incomplete,false,NA,true,NA,1,6,NA,NA,NA,left,NA,NA,NA,absent,NA,NA,m_s_045.jpg,blue,n_l_024.jpg,blue,within,NA,NaN,NA,NA,NA,NA,left,5219.5,1,1,1258.7999999523163
GWnQCU8B,3k2cedradeesg9mhvkrgq648pmomto,3s06ph7ksvhqqf2p7ad5quubs1l1db,GWnQCU8B,2020-0188,2021-10-30,20:31:49,21:55:58,NA,incomplete,false,NA,true,NA,1,7,NA,NA,NA,right,NA,NA,NA,absent,NA,NA,m_s_036.jpg,brown,n_s_022.jpg,orange,between,NA,NaN,NA,NA,NA,NA,right,6952.5,1,1,2869.0999999046326
GWnQCU8B,3k2cedradeesg9mhvkrgq648pmomto,3s06ph7ksvhqqf2p7ad5quubs1l1db,GWnQCU8B,2020-0188,2021-10-30,20:31:49,21:55:58,NA,incomplete,false,NA,true,NA,1,8,NA,NA,NA,right,NA,NA,NA,absent,NA,NA,m_s_011.jpg,orange,n_l_015.jpg,blue,between,NA,NaN,NA,NA,NA,NA,right,6511.299999952316,1,1,1538.7999999523163
GWnQCU8B,3k2cedradeesg9mhvkrgq648pmomto,3s06ph7ksvhqqf2p7ad5quubs1l1db,GWnQCU8B,2020-0188,2021-10-30,20:31:49,21:55:58,NA,incomplete,false,NA,true,NA,1,9,NA,NA,NA,right,NA,NA,NA,absent,NA,NA,n_s_117.jpg,gray,n_l_037.jpg,gray,within,NA,NaN,NA,NA,NA,NA,right,9785.400000095367,1,1,1040.7000000476837
GWnQCU8B,3k2cedradeesg9mhvkrgq648pmomto,3s06ph7ksvhqqf2p7ad5quubs1l1db,GWnQCU8B,2020-0188,2021-10-30,20:31:49,21:55:58,NA,incomplete,false,NA,true,NA,1,10,NA,NA,NA,left,NA,NA,NA,absent,NA,NA,m_s_108.jpg,white,m_l_113.jpg,white,within,NA,NaN,NA,NA,NA,NA,left,5413.099999904633,1,1,1105
GWnQCU8B,3k2cedradeesg9mhvkrgq648pmomto,3s06ph7ksvhqqf2p7ad5quubs1l1db,GWnQCU8B,2020-0188,2021-10-30,20:31:49,21:55:58,NA,incomplete,false,true,NA,NA,2,0,NA,purple,n_l_109.jpg,NA,NA,NA,NA,NA,pleasant,unpleasant,NA,NA,NA,NA,NA,left,2897.10000014305,true,NA,NA,NA,NA,NA,NA,NA,NA
GWnQCU8B,3k2cedradeesg9mhvkrgq648pmomto,3s06ph7ksvhqqf2p7ad5quubs1l1db,GWnQCU8B,2020-0188,2021-10-30,20:31:49,21:55:58,NA,incomplete,false,true,NA,NA,2,1,NA,purple,n_s_048.jpg,NA,NA,NA,NA,NA,pleasant,unpleasant,NA,NA,NA,NA,NA,left,1245.29999995232,true,NA,NA,NA,NA,NA,NA,NA,NA
GWnQCU8B,3k2cedradeesg9mhvkrgq648pmomto,3s06ph7ksvhqqf2p7ad5quubs1l1db,GWnQCU8B,2020-0188,2021-10-30,20:31:49,21:55:58,NA,incomplete,false,true,NA,NA,2,2,NA,purple,n_l_046.jpg,NA,NA,NA,NA,NA,unpleasant,pleasant,NA,NA,NA,NA,NA,right,1169.70000004768,true,NA,NA,NA,NA,NA,NA,NA,NA
GWnQCU8B,3k2cedradeesg9mhvkrgq648pmomto,3s06ph7ksvhqqf2p7ad5quubs1l1db,GWnQCU8B,2020-0188,2021-10-30,20:31:49,21:55:58,NA,incomplete,false,true,NA,NA,2,3,NA,purple,n_s_026.jpg,NA,NA,NA,NA,NA,pleasant,unpleasant,NA,NA,NA,NA,NA,left,1470.5,true,NA,NA,NA,NA,NA,NA,NA,NA
GWnQCU8B,3k2cedradeesg9mhvkrgq648pmomto,3s06ph7ksvhqqf2p7ad5quubs1l1db,GWnQCU8B,2020-0188,2021-10-30,20:31:49,21:55:58,NA,incomplete,false,true,NA,NA,2,4,NA,purple,m_l_022.jpg,NA,NA,NA,NA,NA,pleasant,unpleasant,NA,NA,NA,NA,NA,left,693.299999952316,true,NA,NA,NA,NA,NA,NA,NA,NA
GWnQCU8B,3k2cedradeesg9mhvkrgq648pmomto,3s06ph7ksvhqqf2p7ad5quubs1l1db,GWnQCU8B,2020-0188,2021-10-30,20:31:49,21:55:58,NA,incomplete,false,true,NA,NA,2,5,NA,purple,m_s_008.jpg,NA,NA,NA,NA,NA,unpleasant,pleasant,NA,NA,NA,NA,NA,right,1154.70000004768,true,NA,NA,NA,NA,NA,NA,NA,NA
GWnQCU8B,3k2cedradeesg9mhvkrgq648pmomto,3s06ph7ksvhqqf2p7ad5quubs1l1db,GWnQCU8B,2020-0188,2021-10-30,20:31:49,21:55:58,NA,incomplete,false,true,NA,NA,2,6,NA,black,m_s_089.jpg,NA,NA,NA,NA,NA,unpleasant,pleasant,NA,NA,NA,NA,NA,right,930.799999952316,true,NA,NA,NA,NA,NA,NA,NA,NA
GWnQCU8B,3k2cedradeesg9mhvkrgq648pmomto,3s06ph7ksvhqqf2p7ad5quubs1l1db,GWnQCU8B,2020-0188,2021-10-30,20:31:49,21:55:58,NA,incomplete,false,true,NA,NA,2,7,NA,black,n_s_076.jpg,NA,NA,NA,NA,NA,unpleasant,pleasant,NA,NA,NA,NA,NA,right,1365.39999985695,true,NA,NA,NA,NA,NA,NA,NA,NA
GWnQCU8B,3k2cedradeesg9mhvkrgq648pmomto,3s06ph7ksvhqqf2p7ad5quubs1l1db,GWnQCU8B,2020-0188,2021-10-30,20:31:49,21:55:58,NA,incomplete,false,true,NA,NA,2,8,NA,black,m_l_026.jpg,NA,NA,NA,NA,NA,unpleasant,pleasant,NA,NA,NA,NA,NA,right,2123.90000009537,true,NA,NA,NA,NA,NA,NA,NA,NA
GWnQCU8B,3k2cedradeesg9mhvkrgq648pmomto,3s06ph7ksvhqqf2p7ad5quubs1l1db,GWnQCU8B,2020-0188,2021-10-30,20:31:49,21:55:58,NA,incomplete,false,true,NA,NA,2,9,NA,black,m_s_022.jpg,NA,NA,NA,NA,NA,pleasant,unpleasant,NA,NA,NA,NA,NA,right,1483.79999995232,true,NA,NA,NA,NA,NA,NA,NA,NA
GWnQCU8B,3k2cedradeesg9mhvkrgq648pmomto,3s06ph7ksvhqqf2p7ad5quubs1l1db,GWnQCU8B,2020-0188,2021-10-30,20:31:49,21:55:58,NA,incomplete,false,true,NA,NA,2,10,NA,black,n_s_077.jpg,NA,NA,NA,NA,NA,unpleasant,pleasant,NA,NA,NA,NA,NA,right,1633.09999990463,true,NA,NA,NA,NA,NA,NA,NA,NA
GWnQCU8B,3k2cedradeesg9mhvkrgq648pmomto,3s06ph7ksvhqqf2p7ad5quubs1l1db,GWnQCU8B,2020-0188,2021-10-30,20:31:49,21:55:58,NA,incomplete,false,true,NA,NA,2,11,NA,black,m_l_052.jpg,NA,NA,NA,NA,NA,unpleasant,pleasant,NA,NA,NA,NA,NA,right,808,true,NA,NA,NA,NA,NA,NA,NA,NA
GWnQCU8B,3k2cedradeesg9mhvkrgq648pmomto,3s06ph7ksvhqqf2p7ad5quubs1l1db,GWnQCU8B,2020-0188,2021-10-30,20:31:49,21:55:58,NA,incomplete,false,true,NA,NA,2,12,NA,yellow,n_l_099.jpg,NA,NA,NA,NA,NA,unpleasant,pleasant,NA,NA,NA,NA,NA,right,808.5,true,NA,NA,NA,NA,NA,NA,NA,NA
GWnQCU8B,3k2cedradeesg9mhvkrgq648pmomto,3s06ph7ksvhqqf2p7ad5quubs1l1db,GWnQCU8B,2020-0188,2021-10-30,20:31:49,21:55:58,NA,incomplete,false,true,NA,NA,2,13,NA,yellow,m_l_054.jpg,NA,NA,NA,NA,NA,unpleasant,pleasant,NA,NA,NA,NA,NA,right,915.599999904633,true,NA,NA,NA,NA,NA,NA,NA,NA
GWnQCU8B,3k2cedradeesg9mhvkrgq648pmomto,3s06ph7ksvhqqf2p7ad5quubs1l1db,GWnQCU8B,2020-0188,2021-10-30,20:31:49,21:55:58,NA,incomplete,false,true,NA,NA,2,14,NA,yellow,n_l_063.jpg,NA,NA,NA,NA,NA,unpleasant,pleasant,NA,NA,NA,NA,NA,right,1063.09999990463,true,NA,NA,NA,NA,NA,NA,NA,NA
GWnQCU8B,3k2cedradeesg9mhvkrgq648pmomto,3s06ph7ksvhqqf2p7ad5quubs1l1db,GWnQCU8B,2020-0188,2021-10-30,20:31:49,21:55:58,NA,incomplete,false,true,NA,NA,2,15,NA,yellow,n_l_010.jpg,NA,NA,NA,NA,NA,unpleasant,pleasant,NA,NA,NA,NA,NA,right,1071,true,NA,NA,NA,NA,NA,NA,NA,NA
GWnQCU8B,3k2cedradeesg9mhvkrgq648pmomto,3s06ph7ksvhqqf2p7ad5quubs1l1db,GWnQCU8B,2020-0188,2021-10-30,20:31:49,21:55:58,NA,incomplete,false,true,NA,NA,2,16,NA,yellow,m_l_017.jpg,NA,NA,NA,NA,NA,pleasant,unpleasant,NA,NA,NA,NA,NA,left,1345.90000009537,true,NA,NA,NA,NA,NA,NA,NA,NA
GWnQCU8B,3k2cedradeesg9mhvkrgq648pmomto,3s06ph7ksvhqqf2p7ad5quubs1l1db,GWnQCU8B,2020-0188,2021-10-30,20:31:49,21:55:58,NA,incomplete,false,true,NA,NA,2,17,NA,yellow,m_l_088.jpg,NA,NA,NA,NA,NA,pleasant,unpleasant,NA,NA,NA,NA,NA,left,1042.70000004768,true,NA,NA,NA,NA,NA,NA,NA,NA
GWnQCU8B,3k2cedradeesg9mhvkrgq648pmomto,3s06ph7ksvhqqf2p7ad5quubs1l1db,GWnQCU8B,2020-0188,2021-10-30,20:31:49,21:55:58,NA,incomplete,false,true,NA,NA,2,18,NA,green,m_s_013.jpg,NA,NA,NA,NA,NA,unpleasant,pleasant,NA,NA,NA,NA,NA,right,1166.70000004768,true,NA,NA,NA,NA,NA,NA,NA,NA
GWnQCU8B,3k2cedradeesg9mhvkrgq648pmomto,3s06ph7ksvhqqf2p7ad5quubs1l1db,GWnQCU8B,2020-0188,2021-10-30,20:31:49,21:55:58,NA,incomplete,false,true,NA,NA,2,19,NA,green,m_l_061.jpg,NA,NA,NA,NA,NA,unpleasant,pleasant,NA,NA,NA,NA,NA,right,733.700000047684,true,NA,NA,NA,NA,NA,NA,NA,NA
GWnQCU8B,3k2cedradeesg9mhvkrgq648pmomto,3s06ph7ksvhqqf2p7ad5quubs1l1db,GWnQCU8B,2020-0188,2021-10-30,20:31:49,21:55:58,NA,incomplete,false,true,NA,NA,2,20,NA,green,n_s_063.jpg,NA,NA,NA,NA,NA,pleasant,unpleasant,NA,NA,NA,NA,NA,left,1119.5,true,NA,NA,NA,NA,NA,NA,NA,NA
GWnQCU8B,3k2cedradeesg9mhvkrgq648pmomto,3s06ph7ksvhqqf2p7ad5quubs1l1db,GWnQCU8B,2020-0188,2021-10-30,20:31:49,21:55:58,NA,incomplete,false,true,NA,NA,2,21,NA,green,m_s_095.jpg,NA,NA,NA,NA,NA,pleasant,unpleasant,NA,NA,NA,NA,NA,left,581.100000143051,true,NA,NA,NA,NA,NA,NA,NA,NA
GWnQCU8B,3k2cedradeesg9mhvkrgq648pmomto,3s06ph7ksvhqqf2p7ad5quubs1l1db,GWnQCU8B,2020-0188,2021-10-30,20:31:49,21:55:58,NA,incomplete,false,true,NA,NA,2,22,NA,green,m_s_112.jpg,NA,NA,NA,NA,NA,unpleasant,pleasant,NA,NA,NA,NA,NA,right,966.600000143051,true,NA,NA,NA,NA,NA,NA,NA,NA
GWnQCU8B,3k2cedradeesg9mhvkrgq648pmomto,3s06ph7ksvhqqf2p7ad5quubs1l1db,GWnQCU8B,2020-0188,2021-10-30,20:31:49,21:55:58,NA,incomplete,false,true,NA,NA,2,23,NA,green,m_s_069.jpg,NA,NA,NA,NA,NA,unpleasant,pleasant,NA,NA,NA,NA,NA,right,915.799999952316,true,NA,NA,NA,NA,NA,NA,NA,NA
GWnQCU8B,3k2cedradeesg9mhvkrgq648pmomto,3s06ph7ksvhqqf2p7ad5quubs1l1db,GWnQCU8B,2020-0188,2021-10-30,20:31:49,21:55:58,NA,incomplete,false,true,NA,NA,2,24,NA,orange,m_s_048.jpg,NA,NA,NA,NA,NA,unpleasant,pleasant,NA,NA,NA,NA,NA,right,1108.20000004768,true,NA,NA,NA,NA,NA,NA,NA,NA
GWnQCU8B,3k2cedradeesg9mhvkrgq648pmomto,3s06ph7ksvhqqf2p7ad5quubs1l1db,GWnQCU8B,2020-0188,2021-10-30,20:31:49,21:55:58,NA,incomplete,false,true,NA,NA,2,25,NA,orange,n_s_018.jpg,NA,NA,NA,NA,NA,unpleasant,pleasant,NA,NA,NA,NA,NA,right,884.600000143051,true,NA,NA,NA,NA,NA,NA,NA,NA
GWnQCU8B,3k2cedradeesg9mhvkrgq648pmomto,3s06ph7ksvhqqf2p7ad5quubs1l1db,GWnQCU8B,2020-0188,2021-10-30,20:31:49,21:55:58,NA,incomplete,false,true,NA,NA,2,26,NA,orange,m_s_060.jpg,NA,NA,NA,NA,NA,unpleasant,pleasant,NA,NA,NA,NA,NA,right,540,true,NA,NA,NA,NA,NA,NA,NA,NA
GWnQCU8B,3k2cedradeesg9mhvkrgq648pmomto,3s06ph7ksvhqqf2p7ad5quubs1l1db,GWnQCU8B,2020-0188,2021-10-30,20:31:49,21:55:58,NA,incomplete,false,true,NA,NA,2,27,NA,orange,m_s_063.jpg,NA,NA,NA,NA,NA,unpleasant,pleasant,NA,NA,NA,NA,NA,right,1366,true,NA,NA,NA,NA,NA,NA,NA,NA
GWnQCU8B,3k2cedradeesg9mhvkrgq648pmomto,3s06ph7ksvhqqf2p7ad5quubs1l1db,GWnQCU8B,2020-0188,2021-10-30,20:31:49,21:55:58,NA,incomplete,false,true,NA,NA,2,28,NA,orange,m_s_032.jpg,NA,NA,NA,NA,NA,pleasant,unpleasant,NA,NA,NA,NA,NA,left,1137.70000004768,true,NA,NA,NA,NA,NA,NA,NA,NA
GWnQCU8B,3k2cedradeesg9mhvkrgq648pmomto,3s06ph7ksvhqqf2p7ad5quubs1l1db,GWnQCU8B,2020-0188,2021-10-30,20:31:49,21:55:58,NA,incomplete,false,true,NA,NA,2,29,NA,orange,m_s_027.jpg,NA,NA,NA,NA,NA,pleasant,unpleasant,NA,NA,NA,NA,NA,left,926.799999952316,true,NA,NA,NA,NA,NA,NA,NA,NA
GWnQCU8B,3k2cedradeesg9mhvkrgq648pmomto,3s06ph7ksvhqqf2p7ad5quubs1l1db,GWnQCU8B,2020-0188,2021-10-30,20:31:49,21:55:58,NA,incomplete,false,true,NA,NA,2,30,NA,white,m_s_096.jpg,NA,NA,NA,NA,NA,unpleasant,pleasant,NA,NA,NA,NA,NA,right,1222.29999995232,true,NA,NA,NA,NA,NA,NA,NA,NA
GWnQCU8B,3k2cedradeesg9mhvkrgq648pmomto,3s06ph7ksvhqqf2p7ad5quubs1l1db,GWnQCU8B,2020-0188,2021-10-30,20:31:49,21:55:58,NA,incomplete,false,true,NA,NA,2,31,NA,white,n_s_062.jpg,NA,NA,NA,NA,NA,unpleasant,pleasant,NA,NA,NA,NA,NA,right,941.699999809265,true,NA,NA,NA,NA,NA,NA,NA,NA
GWnQCU8B,3k2cedradeesg9mhvkrgq648pmomto,3s06ph7ksvhqqf2p7ad5quubs1l1db,GWnQCU8B,2020-0188,2021-10-30,20:31:49,21:55:58,NA,incomplete,false,true,NA,NA,2,32,NA,white,n_l_070.jpg,NA,NA,NA,NA,NA,unpleasant,pleasant,NA,NA,NA,NA,NA,right,1253.69999980927,true,NA,NA,NA,NA,NA,NA,NA,NA
GWnQCU8B,3k2cedradeesg9mhvkrgq648pmomto,3s06ph7ksvhqqf2p7ad5quubs1l1db,GWnQCU8B,2020-0188,2021-10-30,20:31:49,21:55:58,NA,incomplete,false,true,NA,NA,2,33,NA,white,m_s_084.jpg,NA,NA,NA,NA,NA,pleasant,unpleasant,NA,NA,NA,NA,NA,left,1133.39999985695,true,NA,NA,NA,NA,NA,NA,NA,NA
GWnQCU8B,3k2cedradeesg9mhvkrgq648pmomto,3s06ph7ksvhqqf2p7ad5quubs1l1db,GWnQCU8B,2020-0188,2021-10-30,20:31:49,21:55:58,NA,incomplete,false,true,NA,NA,2,34,NA,white,n_s_002.jpg,NA,NA,NA,NA,NA,unpleasant,pleasant,NA,NA,NA,NA,NA,right,1194.5,true,NA,NA,NA,NA,NA,NA,NA,NA
GWnQCU8B,3k2cedradeesg9mhvkrgq648pmomto,3s06ph7ksvhqqf2p7ad5quubs1l1db,GWnQCU8B,2020-0188,2021-10-30,20:31:49,21:55:58,NA,incomplete,false,true,NA,NA,2,35,NA,white,m_l_010.jpg,NA,NA,NA,NA,NA,pleasant,unpleasant,NA,NA,NA,NA,NA,left,1158.40000009537,true,NA,NA,NA,NA,NA,NA,NA,NA
GWnQCU8B,3k2cedradeesg9mhvkrgq648pmomto,3s06ph7ksvhqqf2p7ad5quubs1l1db,GWnQCU8B,2020-0188,2021-10-30,20:31:49,21:55:58,NA,incomplete,false,NA,NA,true,2,0,NA,NA,NA,right,n_s_063.jpg,yellow,green,NA,NA,NA,NA,NA,NA,NA,NA,NA,NaN,NA,16951.5,right,1,NA,NA,NA,NA,NA
GWnQCU8B,3k2cedradeesg9mhvkrgq648pmomto,3s06ph7ksvhqqf2p7ad5quubs1l1db,GWnQCU8B,2020-0188,2021-10-30,20:31:49,21:55:58,NA,incomplete,false,NA,NA,true,2,1,NA,NA,NA,left,m_l_017.jpg,yellow,green,NA,NA,NA,NA,NA,NA,NA,NA,NA,NaN,NA,2898.899999856949,left,1,NA,NA,NA,NA,NA
GWnQCU8B,3k2cedradeesg9mhvkrgq648pmomto,3s06ph7ksvhqqf2p7ad5quubs1l1db,GWnQCU8B,2020-0188,2021-10-30,20:31:49,21:55:58,NA,incomplete,false,NA,NA,true,2,2,NA,NA,NA,right,n_s_077.jpg,yellow,black,NA,NA,NA,NA,NA,NA,NA,NA,NA,NaN,NA,3186.5999999046326,right,1,NA,NA,NA,NA,NA
GWnQCU8B,3k2cedradeesg9mhvkrgq648pmomto,3s06ph7ksvhqqf2p7ad5quubs1l1db,GWnQCU8B,2020-0188,2021-10-30,20:31:49,21:55:58,NA,incomplete,false,NA,NA,true,2,3,NA,NA,NA,right,m_s_112.jpg,yellow,green,NA,NA,NA,NA,NA,NA,NA,NA,NA,NaN,NA,2254.9000000953674,right,1,NA,NA,NA,NA,NA
GWnQCU8B,3k2cedradeesg9mhvkrgq648pmomto,3s06ph7ksvhqqf2p7ad5quubs1l1db,GWnQCU8B,2020-0188,2021-10-30,20:31:49,21:55:58,NA,incomplete,false,NA,NA,true,2,4,NA,NA,NA,left,m_l_010.jpg,white,orange,NA,NA,NA,NA,NA,NA,NA,NA,NA,NaN,NA,4698.800000190735,right,0,NA,NA,NA,NA,NA
GWnQCU8B,3k2cedradeesg9mhvkrgq648pmomto,3s06ph7ksvhqqf2p7ad5quubs1l1db,GWnQCU8B,2020-0188,2021-10-30,20:31:49,21:55:58,NA,incomplete,false,NA,NA,true,2,5,NA,NA,NA,left,m_s_032.jpg,orange,green,NA,NA,NA,NA,NA,NA,NA,NA,NA,NaN,NA,2418.7999999523163,right,0,NA,NA,NA,NA,NA
GWnQCU8B,3k2cedradeesg9mhvkrgq648pmomto,3s06ph7ksvhqqf2p7ad5quubs1l1db,GWnQCU8B,2020-0188,2021-10-30,20:31:49,21:55:58,NA,incomplete,false,NA,NA,true,2,6,NA,NA,NA,right,m_l_026.jpg,purple,black,NA,NA,NA,NA,NA,NA,NA,NA,NA,NaN,NA,1991.6999998092651,left,0,NA,NA,NA,NA,NA
GWnQCU8B,3k2cedradeesg9mhvkrgq648pmomto,3s06ph7ksvhqqf2p7ad5quubs1l1db,GWnQCU8B,2020-0188,2021-10-30,20:31:49,21:55:58,NA,incomplete,false,NA,NA,true,2,7,NA,NA,NA,left,m_l_054.jpg,yellow,black,NA,NA,NA,NA,NA,NA,NA,NA,NA,NaN,NA,12958.799999952316,left,1,NA,NA,NA,NA,NA
GWnQCU8B,3k2cedradeesg9mhvkrgq648pmomto,3s06ph7ksvhqqf2p7ad5quubs1l1db,GWnQCU8B,2020-0188,2021-10-30,20:31:49,21:55:58,NA,incomplete,false,NA,NA,true,2,8,NA,NA,NA,left,n_s_076.jpg,black,purple,NA,NA,NA,NA,NA,NA,NA,NA,NA,NaN,NA,3328.899999856949,left,1,NA,NA,NA,NA,NA
GWnQCU8B,3k2cedradeesg9mhvkrgq648pmomto,3s06ph7ksvhqqf2p7ad5quubs1l1db,GWnQCU8B,2020-0188,2021-10-30,20:31:49,21:55:58,NA,incomplete,false,NA,NA,true,2,9,NA,NA,NA,right,m_l_052.jpg,purple,black,NA,NA,NA,NA,NA,NA,NA,NA,NA,NaN,NA,5958.100000143051,right,1,NA,NA,NA,NA,NA
GWnQCU8B,3k2cedradeesg9mhvkrgq648pmomto,3s06ph7ksvhqqf2p7ad5quubs1l1db,GWnQCU8B,2020-0188,2021-10-30,20:31:49,21:55:58,NA,incomplete,false,NA,NA,true,2,10,NA,NA,NA,left,m_s_060.jpg,orange,green,NA,NA,NA,NA,NA,NA,NA,NA,NA,NaN,NA,3189,left,1,NA,NA,NA,NA,NA
GWnQCU8B,3k2cedradeesg9mhvkrgq648pmomto,3s06ph7ksvhqqf2p7ad5quubs1l1db,GWnQCU8B,2020-0188,2021-10-30,20:31:49,21:55:58,NA,incomplete,false,NA,NA,true,2,11,NA,NA,NA,right,n_s_018.jpg,white,orange,NA,NA,NA,NA,NA,NA,NA,NA,NA,NaN,NA,3173.100000143051,right,1,NA,NA,NA,NA,NA
GWnQCU8B,3k2cedradeesg9mhvkrgq648pmomto,3s06ph7ksvhqqf2p7ad5quubs1l1db,GWnQCU8B,2020-0188,2021-10-30,20:31:49,21:55:58,NA,incomplete,false,NA,NA,true,2,12,NA,NA,NA,right,m_s_008.jpg,black,purple,NA,NA,NA,NA,NA,NA,NA,NA,NA,NaN,NA,2901.4000000953674,right,1,NA,NA,NA,NA,NA
GWnQCU8B,3k2cedradeesg9mhvkrgq648pmomto,3s06ph7ksvhqqf2p7ad5quubs1l1db,GWnQCU8B,2020-0188,2021-10-30,20:31:49,21:55:58,NA,incomplete,false,NA,NA,true,2,13,NA,NA,NA,right,m_l_061.jpg,orange,green,NA,NA,NA,NA,NA,NA,NA,NA,NA,NaN,NA,6051,right,1,NA,NA,NA,NA,NA
GWnQCU8B,3k2cedradeesg9mhvkrgq648pmomto,3s06ph7ksvhqqf2p7ad5quubs1l1db,GWnQCU8B,2020-0188,2021-10-30,20:31:49,21:55:58,NA,incomplete,false,NA,NA,true,2,14,NA,NA,NA,right,n_l_063.jpg,black,yellow,NA,NA,NA,NA,NA,NA,NA,NA,NA,NaN,NA,2341,right,1,NA,NA,NA,NA,NA
GWnQCU8B,3k2cedradeesg9mhvkrgq648pmomto,3s06ph7ksvhqqf2p7ad5quubs1l1db,GWnQCU8B,2020-0188,2021-10-30,20:31:49,21:55:58,NA,incomplete,false,NA,NA,true,2,15,NA,NA,NA,right,n_s_062.jpg,orange,white,NA,NA,NA,NA,NA,NA,NA,NA,NA,NaN,NA,4239.400000095367,right,1,NA,NA,NA,NA,NA
GWnQCU8B,3k2cedradeesg9mhvkrgq648pmomto,3s06ph7ksvhqqf2p7ad5quubs1l1db,GWnQCU8B,2020-0188,2021-10-30,20:31:49,21:55:58,NA,incomplete,false,NA,NA,true,2,16,NA,NA,NA,left,m_l_022.jpg,purple,black,NA,NA,NA,NA,NA,NA,NA,NA,NA,NaN,NA,2090.899999856949,left,1,NA,NA,NA,NA,NA
GWnQCU8B,3k2cedradeesg9mhvkrgq648pmomto,3s06ph7ksvhqqf2p7ad5quubs1l1db,GWnQCU8B,2020-0188,2021-10-30,20:31:49,21:55:58,NA,incomplete,false,NA,NA,true,2,17,NA,NA,NA,left,m_s_027.jpg,orange,green,NA,NA,NA,NA,NA,NA,NA,NA,NA,NaN,NA,4333.100000143051,left,1,NA,NA,NA,NA,NA
GWnQCU8B,3k2cedradeesg9mhvkrgq648pmomto,3s06ph7ksvhqqf2p7ad5quubs1l1db,GWnQCU8B,2020-0188,2021-10-30,20:31:49,21:55:58,NA,incomplete,false,NA,NA,true,2,18,NA,NA,NA,left,n_l_070.jpg,white,orange,NA,NA,NA,NA,NA,NA,NA,NA,NA,NaN,NA,11684.700000047684,left,1,NA,NA,NA,NA,NA
GWnQCU8B,3k2cedradeesg9mhvkrgq648pmomto,3s06ph7ksvhqqf2p7ad5quubs1l1db,GWnQCU8B,2020-0188,2021-10-30,20:31:49,21:55:58,NA,incomplete,false,NA,NA,true,2,19,NA,NA,NA,right,n_s_048.jpg,black,purple,NA,NA,NA,NA,NA,NA,NA,NA,NA,NaN,NA,2434.7000000476837,right,1,NA,NA,NA,NA,NA
GWnQCU8B,3k2cedradeesg9mhvkrgq648pmomto,3s06ph7ksvhqqf2p7ad5quubs1l1db,GWnQCU8B,2020-0188,2021-10-30,20:31:49,21:55:58,NA,incomplete,false,NA,NA,true,2,20,NA,NA,NA,right,m_l_088.jpg,black,yellow,NA,NA,NA,NA,NA,NA,NA,NA,NA,NaN,NA,3942.399999856949,right,1,NA,NA,NA,NA,NA
GWnQCU8B,3k2cedradeesg9mhvkrgq648pmomto,3s06ph7ksvhqqf2p7ad5quubs1l1db,GWnQCU8B,2020-0188,2021-10-30,20:31:49,21:55:58,NA,incomplete,false,NA,NA,true,2,21,NA,NA,NA,right,m_s_069.jpg,yellow,green,NA,NA,NA,NA,NA,NA,NA,NA,NA,NaN,NA,7787,right,1,NA,NA,NA,NA,NA
GWnQCU8B,3k2cedradeesg9mhvkrgq648pmomto,3s06ph7ksvhqqf2p7ad5quubs1l1db,GWnQCU8B,2020-0188,2021-10-30,20:31:49,21:55:58,NA,incomplete,false,NA,true,NA,2,0,NA,NA,NA,right,NA,NA,NA,absent,NA,NA,m_s_060.jpg,orange,m_s_112.jpg,green,between,NA,NaN,NA,NA,NA,NA,right,5272,1,1,929.6999998092651
GWnQCU8B,3k2cedradeesg9mhvkrgq648pmomto,3s06ph7ksvhqqf2p7ad5quubs1l1db,GWnQCU8B,2020-0188,2021-10-30,20:31:49,21:55:58,NA,incomplete,false,NA,true,NA,2,1,NA,NA,NA,left,NA,NA,NA,absent,NA,NA,n_s_077.jpg,black,n_l_063.jpg,yellow,between,NA,NaN,NA,NA,NA,NA,left,1788.2000000476837,1,1,4981.600000143051
GWnQCU8B,3k2cedradeesg9mhvkrgq648pmomto,3s06ph7ksvhqqf2p7ad5quubs1l1db,GWnQCU8B,2020-0188,2021-10-30,20:31:49,21:55:58,NA,incomplete,false,NA,true,NA,2,2,NA,NA,NA,left,NA,NA,NA,absent,NA,NA,m_l_061.jpg,green,m_s_069.jpg,green,within,NA,NaN,NA,NA,NA,NA,left,4815.899999856949,1,1,1617
GWnQCU8B,3k2cedradeesg9mhvkrgq648pmomto,3s06ph7ksvhqqf2p7ad5quubs1l1db,GWnQCU8B,2020-0188,2021-10-30,20:31:49,21:55:58,NA,incomplete,false,NA,true,NA,2,3,NA,NA,NA,left,NA,NA,NA,absent,NA,NA,n_s_062.jpg,white,m_l_010.jpg,white,within,NA,NaN,NA,NA,NA,NA,left,3865.5,1,1,2510.7000000476837
GWnQCU8B,3k2cedradeesg9mhvkrgq648pmomto,3s06ph7ksvhqqf2p7ad5quubs1l1db,GWnQCU8B,2020-0188,2021-10-30,20:31:49,21:55:58,NA,incomplete,false,NA,true,NA,2,4,NA,NA,NA,right,NA,NA,NA,absent,NA,NA,n_l_070.jpg,white,m_s_032.jpg,orange,between,NA,NaN,NA,NA,NA,NA,right,2207.2999999523163,1,1,1118.6000001430511
GWnQCU8B,3k2cedradeesg9mhvkrgq648pmomto,3s06ph7ksvhqqf2p7ad5quubs1l1db,GWnQCU8B,2020-0188,2021-10-30,20:31:49,21:55:58,NA,incomplete,false,NA,true,NA,2,5,NA,NA,NA,left,NA,NA,NA,absent,NA,NA,m_l_054.jpg,yellow,m_l_088.jpg,yellow,within,NA,NaN,NA,NA,NA,NA,left,1821,1,1,1056.2999999523163
GWnQCU8B,3k2cedradeesg9mhvkrgq648pmomto,3s06ph7ksvhqqf2p7ad5quubs1l1db,GWnQCU8B,2020-0188,2021-10-30,20:31:49,21:55:58,NA,incomplete,false,NA,true,NA,2,6,NA,NA,NA,right,NA,NA,NA,absent,NA,NA,m_l_026.jpg,black,m_l_022.jpg,purple,between,NA,NaN,NA,NA,NA,NA,right,4634.600000143051,1,1,1422.8999998569489
GWnQCU8B,3k2cedradeesg9mhvkrgq648pmomto,3s06ph7ksvhqqf2p7ad5quubs1l1db,GWnQCU8B,2020-0188,2021-10-30,20:31:49,21:55:58,NA,incomplete,false,NA,true,NA,2,7,NA,NA,NA,left,NA,NA,NA,absent,NA,NA,n_s_076.jpg,black,m_l_052.jpg,black,within,NA,NaN,NA,NA,NA,NA,left,1702.8999998569489,1,1,1546.7000000476837
GWnQCU8B,3k2cedradeesg9mhvkrgq648pmomto,3s06ph7ksvhqqf2p7ad5quubs1l1db,GWnQCU8B,2020-0188,2021-10-30,20:31:49,21:55:58,NA,incomplete,false,NA,true,NA,2,8,NA,NA,NA,right,NA,NA,NA,absent,NA,NA,m_s_027.jpg,orange,n_s_018.jpg,orange,within,NA,NaN,NA,NA,NA,NA,right,5041.099999904633,1,1,1499.3000001907349
GWnQCU8B,3k2cedradeesg9mhvkrgq648pmomto,3s06ph7ksvhqqf2p7ad5quubs1l1db,GWnQCU8B,2020-0188,2021-10-30,20:31:49,21:55:58,NA,incomplete,false,NA,true,NA,2,9,NA,NA,NA,left,NA,NA,NA,absent,NA,NA,n_s_048.jpg,purple,m_s_008.jpg,purple,within,NA,NaN,NA,NA,NA,NA,left,3086.9000000953674,1,1,1267.0999999046326
GWnQCU8B,3k2cedradeesg9mhvkrgq648pmomto,3s06ph7ksvhqqf2p7ad5quubs1l1db,GWnQCU8B,2020-0188,2021-10-30,20:31:49,21:55:58,NA,incomplete,false,NA,true,NA,2,10,NA,NA,NA,right,NA,NA,NA,absent,NA,NA,n_s_063.jpg,green,m_l_017.jpg,yellow,between,NA,NaN,NA,NA,NA,NA,right,4909.700000047684,1,1,1344.7000000476837
GWnQCU8B,3k2cedradeesg9mhvkrgq648pmomto,3s06ph7ksvhqqf2p7ad5quubs1l1db,GWnQCU8B,2020-0188,2021-10-30,20:31:49,21:55:58,NA,incomplete,false,true,NA,NA,3,0,NA,brown,m_s_010.jpg,NA,NA,NA,NA,NA,pleasant,unpleasant,NA,NA,NA,NA,NA,left,942.5,true,NA,NA,NA,NA,NA,NA,NA,NA
GWnQCU8B,3k2cedradeesg9mhvkrgq648pmomto,3s06ph7ksvhqqf2p7ad5quubs1l1db,GWnQCU8B,2020-0188,2021-10-30,20:31:49,21:55:58,NA,incomplete,false,true,NA,NA,3,1,NA,brown,m_l_089.jpg,NA,NA,NA,NA,NA,pleasant,unpleasant,NA,NA,NA,NA,NA,left,1082.40000009537,true,NA,NA,NA,NA,NA,NA,NA,NA
GWnQCU8B,3k2cedradeesg9mhvkrgq648pmomto,3s06ph7ksvhqqf2p7ad5quubs1l1db,GWnQCU8B,2020-0188,2021-10-30,20:31:49,21:55:58,NA,incomplete,false,true,NA,NA,3,2,NA,brown,m_s_058.jpg,NA,NA,NA,NA,NA,pleasant,unpleasant,NA,NA,NA,NA,NA,left,1023.20000004768,true,NA,NA,NA,NA,NA,NA,NA,NA
GWnQCU8B,3k2cedradeesg9mhvkrgq648pmomto,3s06ph7ksvhqqf2p7ad5quubs1l1db,GWnQCU8B,2020-0188,2021-10-30,20:31:49,21:55:58,NA,incomplete,false,true,NA,NA,3,3,NA,brown,n_s_114.jpg,NA,NA,NA,NA,NA,unpleasant,pleasant,NA,NA,NA,NA,NA,right,1496.40000009537,true,NA,NA,NA,NA,NA,NA,NA,NA
GWnQCU8B,3k2cedradeesg9mhvkrgq648pmomto,3s06ph7ksvhqqf2p7ad5quubs1l1db,GWnQCU8B,2020-0188,2021-10-30,20:31:49,21:55:58,NA,incomplete,false,true,NA,NA,3,4,NA,brown,m_s_026.jpg,NA,NA,NA,NA,NA,unpleasant,pleasant,NA,NA,NA,NA,NA,right,737.799999952316,true,NA,NA,NA,NA,NA,NA,NA,NA
GWnQCU8B,3k2cedradeesg9mhvkrgq648pmomto,3s06ph7ksvhqqf2p7ad5quubs1l1db,GWnQCU8B,2020-0188,2021-10-30,20:31:49,21:55:58,NA,incomplete,false,true,NA,NA,3,5,NA,brown,m_s_059.jpg,NA,NA,NA,NA,NA,pleasant,unpleasant,NA,NA,NA,NA,NA,left,1392.09999990463,true,NA,NA,NA,NA,NA,NA,NA,NA
GWnQCU8B,3k2cedradeesg9mhvkrgq648pmomto,3s06ph7ksvhqqf2p7ad5quubs1l1db,GWnQCU8B,2020-0188,2021-10-30,20:31:49,21:55:58,NA,incomplete,false,true,NA,NA,3,6,NA,blue,n_l_072.jpg,NA,NA,NA,NA,NA,pleasant,unpleasant,NA,NA,NA,NA,NA,left,1147.80000019073,true,NA,NA,NA,NA,NA,NA,NA,NA
GWnQCU8B,3k2cedradeesg9mhvkrgq648pmomto,3s06ph7ksvhqqf2p7ad5quubs1l1db,GWnQCU8B,2020-0188,2021-10-30,20:31:49,21:55:58,NA,incomplete,false,true,NA,NA,3,7,NA,blue,n_s_092.jpg,NA,NA,NA,NA,NA,pleasant,unpleasant,NA,NA,NA,NA,NA,left,2080.59999990463,true,NA,NA,NA,NA,NA,NA,NA,NA
GWnQCU8B,3k2cedradeesg9mhvkrgq648pmomto,3s06ph7ksvhqqf2p7ad5quubs1l1db,GWnQCU8B,2020-0188,2021-10-30,20:31:49,21:55:58,NA,incomplete,false,true,NA,NA,3,8,NA,blue,m_s_082.jpg,NA,NA,NA,NA,NA,unpleasant,pleasant,NA,NA,NA,NA,NA,right,1823.59999990463,true,NA,NA,NA,NA,NA,NA,NA,NA
GWnQCU8B,3k2cedradeesg9mhvkrgq648pmomto,3s06ph7ksvhqqf2p7ad5quubs1l1db,GWnQCU8B,2020-0188,2021-10-30,20:31:49,21:55:58,NA,incomplete,false,true,NA,NA,3,9,NA,blue,n_l_111.jpg,NA,NA,NA,NA,NA,unpleasant,pleasant,NA,NA,NA,NA,NA,right,854.099999904633,true,NA,NA,NA,NA,NA,NA,NA,NA
GWnQCU8B,3k2cedradeesg9mhvkrgq648pmomto,3s06ph7ksvhqqf2p7ad5quubs1l1db,GWnQCU8B,2020-0188,2021-10-30,20:31:49,21:55:58,NA,incomplete,false,true,NA,NA,3,10,NA,blue,m_s_005.jpg,NA,NA,NA,NA,NA,unpleasant,pleasant,NA,NA,NA,NA,NA,right,1640.09999990463,true,NA,NA,NA,NA,NA,NA,NA,NA
GWnQCU8B,3k2cedradeesg9mhvkrgq648pmomto,3s06ph7ksvhqqf2p7ad5quubs1l1db,GWnQCU8B,2020-0188,2021-10-30,20:31:49,21:55:58,NA,incomplete,false,true,NA,NA,3,11,NA,blue,n_s_024.jpg,NA,NA,NA,NA,NA,pleasant,unpleasant,NA,NA,NA,NA,NA,left,1539.10000014305,true,NA,NA,NA,NA,NA,NA,NA,NA
GWnQCU8B,3k2cedradeesg9mhvkrgq648pmomto,3s06ph7ksvhqqf2p7ad5quubs1l1db,GWnQCU8B,2020-0188,2021-10-30,20:31:49,21:55:58,NA,incomplete,false,true,NA,NA,3,12,NA,red,m_l_078.jpg,NA,NA,NA,NA,NA,pleasant,unpleasant,NA,NA,NA,NA,NA,left,986.200000047684,true,NA,NA,NA,NA,NA,NA,NA,NA
GWnQCU8B,3k2cedradeesg9mhvkrgq648pmomto,3s06ph7ksvhqqf2p7ad5quubs1l1db,GWnQCU8B,2020-0188,2021-10-30,20:31:49,21:55:58,NA,incomplete,false,true,NA,NA,3,13,NA,red,n_l_058.jpg,NA,NA,NA,NA,NA,pleasant,unpleasant,NA,NA,NA,NA,NA,left,651.700000047684,true,NA,NA,NA,NA,NA,NA,NA,NA
GWnQCU8B,3k2cedradeesg9mhvkrgq648pmomto,3s06ph7ksvhqqf2p7ad5quubs1l1db,GWnQCU8B,2020-0188,2021-10-30,20:31:49,21:55:58,NA,incomplete,false,true,NA,NA,3,14,NA,red,m_s_081.jpg,NA,NA,NA,NA,NA,unpleasant,pleasant,NA,NA,NA,NA,NA,right,1044.5,true,NA,NA,NA,NA,NA,NA,NA,NA
GWnQCU8B,3k2cedradeesg9mhvkrgq648pmomto,3s06ph7ksvhqqf2p7ad5quubs1l1db,GWnQCU8B,2020-0188,2021-10-30,20:31:49,21:55:58,NA,incomplete,false,true,NA,NA,3,15,NA,red,n_s_116.jpg,NA,NA,NA,NA,NA,pleasant,unpleasant,NA,NA,NA,NA,NA,left,1123.29999995232,true,NA,NA,NA,NA,NA,NA,NA,NA
GWnQCU8B,3k2cedradeesg9mhvkrgq648pmomto,3s06ph7ksvhqqf2p7ad5quubs1l1db,GWnQCU8B,2020-0188,2021-10-30,20:31:49,21:55:58,NA,incomplete,false,true,NA,NA,3,16,NA,red,m_l_035.jpg,NA,NA,NA,NA,NA,pleasant,unpleasant,NA,NA,NA,NA,NA,left,741.5,true,NA,NA,NA,NA,NA,NA,NA,NA
GWnQCU8B,3k2cedradeesg9mhvkrgq648pmomto,3s06ph7ksvhqqf2p7ad5quubs1l1db,GWnQCU8B,2020-0188,2021-10-30,20:31:49,21:55:58,NA,incomplete,false,true,NA,NA,3,17,NA,red,m_l_073.jpg,NA,NA,NA,NA,NA,pleasant,unpleasant,NA,NA,NA,NA,NA,left,1026.90000009537,true,NA,NA,NA,NA,NA,NA,NA,NA
GWnQCU8B,3k2cedradeesg9mhvkrgq648pmomto,3s06ph7ksvhqqf2p7ad5quubs1l1db,GWnQCU8B,2020-0188,2021-10-30,20:31:49,21:55:58,NA,incomplete,false,true,NA,NA,3,18,NA,gray,n_s_098.jpg,NA,NA,NA,NA,NA,unpleasant,pleasant,NA,NA,NA,NA,NA,right,1329.29999995232,true,NA,NA,NA,NA,NA,NA,NA,NA
GWnQCU8B,3k2cedradeesg9mhvkrgq648pmomto,3s06ph7ksvhqqf2p7ad5quubs1l1db,GWnQCU8B,2020-0188,2021-10-30,20:31:49,21:55:58,NA,incomplete,false,true,NA,NA,3,19,NA,gray,m_l_042.jpg,NA,NA,NA,NA,NA,unpleasant,pleasant,NA,NA,NA,NA,NA,right,1202.59999990463,true,NA,NA,NA,NA,NA,NA,NA,NA
GWnQCU8B,3k2cedradeesg9mhvkrgq648pmomto,3s06ph7ksvhqqf2p7ad5quubs1l1db,GWnQCU8B,2020-0188,2021-10-30,20:31:49,21:55:58,NA,incomplete,false,true,NA,NA,3,20,NA,gray,m_s_086.jpg,NA,NA,NA,NA,NA,unpleasant,pleasant,NA,NA,NA,NA,NA,right,1237.10000014305,true,NA,NA,NA,NA,NA,NA,NA,NA
GWnQCU8B,3k2cedradeesg9mhvkrgq648pmomto,3s06ph7ksvhqqf2p7ad5quubs1l1db,GWnQCU8B,2020-0188,2021-10-30,20:31:49,21:55:58,NA,incomplete,false,true,NA,NA,3,21,NA,gray,n_l_036.jpg,NA,NA,NA,NA,NA,pleasant,unpleasant,NA,NA,NA,NA,NA,left,1166.09999990463,true,NA,NA,NA,NA,NA,NA,NA,NA
GWnQCU8B,3k2cedradeesg9mhvkrgq648pmomto,3s06ph7ksvhqqf2p7ad5quubs1l1db,GWnQCU8B,2020-0188,2021-10-30,20:31:49,21:55:58,NA,incomplete,false,true,NA,NA,3,22,NA,gray,m_s_077.jpg,NA,NA,NA,NA,NA,unpleasant,pleasant,NA,NA,NA,NA,NA,right,1293.39999985695,true,NA,NA,NA,NA,NA,NA,NA,NA
GWnQCU8B,3k2cedradeesg9mhvkrgq648pmomto,3s06ph7ksvhqqf2p7ad5quubs1l1db,GWnQCU8B,2020-0188,2021-10-30,20:31:49,21:55:58,NA,incomplete,false,true,NA,NA,3,23,NA,gray,m_l_021.jpg,NA,NA,NA,NA,NA,unpleasant,pleasant,NA,NA,NA,NA,NA,right,1587.5,true,NA,NA,NA,NA,NA,NA,NA,NA
GWnQCU8B,3k2cedradeesg9mhvkrgq648pmomto,3s06ph7ksvhqqf2p7ad5quubs1l1db,GWnQCU8B,2020-0188,2021-10-30,20:31:49,21:55:58,NA,incomplete,false,true,NA,NA,3,24,NA,yellow,n_s_113.jpg,NA,NA,NA,NA,NA,unpleasant,pleasant,NA,NA,NA,NA,NA,right,1618.40000009537,true,NA,NA,NA,NA,NA,NA,NA,NA
GWnQCU8B,3k2cedradeesg9mhvkrgq648pmomto,3s06ph7ksvhqqf2p7ad5quubs1l1db,GWnQCU8B,2020-0188,2021-10-30,20:31:49,21:55:58,NA,incomplete,false,true,NA,NA,3,25,NA,yellow,n_l_115.jpg,NA,NA,NA,NA,NA,unpleasant,pleasant,NA,NA,NA,NA,NA,right,865.5,true,NA,NA,NA,NA,NA,NA,NA,NA
GWnQCU8B,3k2cedradeesg9mhvkrgq648pmomto,3s06ph7ksvhqqf2p7ad5quubs1l1db,GWnQCU8B,2020-0188,2021-10-30,20:31:49,21:55:58,NA,incomplete,false,true,NA,NA,3,26,NA,yellow,m_s_113.jpg,NA,NA,NA,NA,NA,unpleasant,pleasant,NA,NA,NA,NA,NA,right,957.599999904633,true,NA,NA,NA,NA,NA,NA,NA,NA
GWnQCU8B,3k2cedradeesg9mhvkrgq648pmomto,3s06ph7ksvhqqf2p7ad5quubs1l1db,GWnQCU8B,2020-0188,2021-10-30,20:31:49,21:55:58,NA,incomplete,false,true,NA,NA,3,27,NA,yellow,n_l_074.jpg,NA,NA,NA,NA,NA,pleasant,unpleasant,NA,NA,NA,NA,NA,left,1233.5,true,NA,NA,NA,NA,NA,NA,NA,NA
GWnQCU8B,3k2cedradeesg9mhvkrgq648pmomto,3s06ph7ksvhqqf2p7ad5quubs1l1db,GWnQCU8B,2020-0188,2021-10-30,20:31:49,21:55:58,NA,incomplete,false,true,NA,NA,3,28,NA,yellow,m_s_016.jpg,NA,NA,NA,NA,NA,pleasant,unpleasant,NA,NA,NA,NA,NA,left,913.099999904633,true,NA,NA,NA,NA,NA,NA,NA,NA
GWnQCU8B,3k2cedradeesg9mhvkrgq648pmomto,3s06ph7ksvhqqf2p7ad5quubs1l1db,GWnQCU8B,2020-0188,2021-10-30,20:31:49,21:55:58,NA,incomplete,false,true,NA,NA,3,29,NA,yellow,n_s_020.jpg,NA,NA,NA,NA,NA,unpleasant,pleasant,NA,NA,NA,NA,NA,right,1318.10000014305,true,NA,NA,NA,NA,NA,NA,NA,NA
GWnQCU8B,3k2cedradeesg9mhvkrgq648pmomto,3s06ph7ksvhqqf2p7ad5quubs1l1db,GWnQCU8B,2020-0188,2021-10-30,20:31:49,21:55:58,NA,incomplete,false,true,NA,NA,3,30,NA,white,n_s_096.jpg,NA,NA,NA,NA,NA,pleasant,unpleasant,NA,NA,NA,NA,NA,left,1325.5,true,NA,NA,NA,NA,NA,NA,NA,NA
GWnQCU8B,3k2cedradeesg9mhvkrgq648pmomto,3s06ph7ksvhqqf2p7ad5quubs1l1db,GWnQCU8B,2020-0188,2021-10-30,20:31:49,21:55:58,NA,incomplete,false,true,NA,NA,3,31,NA,white,m_s_014.jpg,NA,NA,NA,NA,NA,pleasant,unpleasant,NA,NA,NA,NA,NA,left,1136.30000019073,true,NA,NA,NA,NA,NA,NA,NA,NA
GWnQCU8B,3k2cedradeesg9mhvkrgq648pmomto,3s06ph7ksvhqqf2p7ad5quubs1l1db,GWnQCU8B,2020-0188,2021-10-30,20:31:49,21:55:58,NA,incomplete,false,true,NA,NA,3,32,NA,white,m_l_083.jpg,NA,NA,NA,NA,NA,unpleasant,pleasant,NA,NA,NA,NA,NA,right,1274.59999990463,true,NA,NA,NA,NA,NA,NA,NA,NA
GWnQCU8B,3k2cedradeesg9mhvkrgq648pmomto,3s06ph7ksvhqqf2p7ad5quubs1l1db,GWnQCU8B,2020-0188,2021-10-30,20:31:49,21:55:58,NA,incomplete,false,true,NA,NA,3,33,NA,white,m_l_075.jpg,NA,NA,NA,NA,NA,pleasant,unpleasant,NA,NA,NA,NA,NA,left,1558.80000019073,true,NA,NA,NA,NA,NA,NA,NA,NA
GWnQCU8B,3k2cedradeesg9mhvkrgq648pmomto,3s06ph7ksvhqqf2p7ad5quubs1l1db,GWnQCU8B,2020-0188,2021-10-30,20:31:49,21:55:58,NA,incomplete,false,true,NA,NA,3,34,NA,white,n_l_004.jpg,NA,NA,NA,NA,NA,pleasant,unpleasant,NA,NA,NA,NA,NA,left,769.299999952316,true,NA,NA,NA,NA,NA,NA,NA,NA
GWnQCU8B,3k2cedradeesg9mhvkrgq648pmomto,3s06ph7ksvhqqf2p7ad5quubs1l1db,GWnQCU8B,2020-0188,2021-10-30,20:31:49,21:55:58,NA,incomplete,false,true,NA,NA,3,35,NA,white,m_l_033.jpg,NA,NA,NA,NA,NA,unpleasant,pleasant,NA,NA,NA,NA,NA,right,1128.19999980927,true,NA,NA,NA,NA,NA,NA,NA,NA
GWnQCU8B,3k2cedradeesg9mhvkrgq648pmomto,3s06ph7ksvhqqf2p7ad5quubs1l1db,GWnQCU8B,2020-0188,2021-10-30,20:31:49,21:55:58,NA,incomplete,false,NA,NA,true,3,0,NA,NA,NA,left,m_s_077.jpg,gray,red,NA,NA,NA,NA,NA,NA,NA,NA,NA,NaN,NA,3024.7999999523163,left,1,NA,NA,NA,NA,NA
GWnQCU8B,3k2cedradeesg9mhvkrgq648pmomto,3s06ph7ksvhqqf2p7ad5quubs1l1db,GWnQCU8B,2020-0188,2021-10-30,20:31:49,21:55:58,NA,incomplete,false,NA,NA,true,3,1,NA,NA,NA,left,n_s_092.jpg,blue,red,NA,NA,NA,NA,NA,NA,NA,NA,NA,NaN,NA,3009.5,left,1,NA,NA,NA,NA,NA
GWnQCU8B,3k2cedradeesg9mhvkrgq648pmomto,3s06ph7ksvhqqf2p7ad5quubs1l1db,GWnQCU8B,2020-0188,2021-10-30,20:31:49,21:55:58,NA,incomplete,false,NA,NA,true,3,2,NA,NA,NA,right,n_s_020.jpg,white,yellow,NA,NA,NA,NA,NA,NA,NA,NA,NA,NaN,NA,2831.100000143051,right,1,NA,NA,NA,NA,NA
GWnQCU8B,3k2cedradeesg9mhvkrgq648pmomto,3s06ph7ksvhqqf2p7ad5quubs1l1db,GWnQCU8B,2020-0188,2021-10-30,20:31:49,21:55:58,NA,incomplete,false,NA,NA,true,3,3,NA,NA,NA,right,m_s_014.jpg,yellow,white,NA,NA,NA,NA,NA,NA,NA,NA,NA,NaN,NA,4354.799999952316,right,1,NA,NA,NA,NA,NA
GWnQCU8B,3k2cedradeesg9mhvkrgq648pmomto,3s06ph7ksvhqqf2p7ad5quubs1l1db,GWnQCU8B,2020-0188,2021-10-30,20:31:49,21:55:58,NA,incomplete,false,NA,NA,true,3,4,NA,NA,NA,left,m_s_059.jpg,brown,blue,NA,NA,NA,NA,NA,NA,NA,NA,NA,NaN,NA,3499.0999999046326,left,1,NA,NA,NA,NA,NA
GWnQCU8B,3k2cedradeesg9mhvkrgq648pmomto,3s06ph7ksvhqqf2p7ad5quubs1l1db,GWnQCU8B,2020-0188,2021-10-30,20:31:49,21:55:58,NA,incomplete,false,NA,NA,true,3,5,NA,NA,NA,left,m_s_016.jpg,yellow,white,NA,NA,NA,NA,NA,NA,NA,NA,NA,NaN,NA,3676.5999999046326,left,1,NA,NA,NA,NA,NA
GWnQCU8B,3k2cedradeesg9mhvkrgq648pmomto,3s06ph7ksvhqqf2p7ad5quubs1l1db,GWnQCU8B,2020-0188,2021-10-30,20:31:49,21:55:58,NA,incomplete,false,NA,NA,true,3,6,NA,NA,NA,right,n_l_115.jpg,white,yellow,NA,NA,NA,NA,NA,NA,NA,NA,NA,NaN,NA,2752.9000000953674,right,1,NA,NA,NA,NA,NA
GWnQCU8B,3k2cedradeesg9mhvkrgq648pmomto,3s06ph7ksvhqqf2p7ad5quubs1l1db,GWnQCU8B,2020-0188,2021-10-30,20:31:49,21:55:58,NA,incomplete,false,NA,NA,true,3,7,NA,NA,NA,left,m_s_026.jpg,brown,blue,NA,NA,NA,NA,NA,NA,NA,NA,NA,NaN,NA,2588.9000000953674,left,1,NA,NA,NA,NA,NA
GWnQCU8B,3k2cedradeesg9mhvkrgq648pmomto,3s06ph7ksvhqqf2p7ad5quubs1l1db,GWnQCU8B,2020-0188,2021-10-30,20:31:49,21:55:58,NA,incomplete,false,NA,NA,true,3,8,NA,NA,NA,left,m_l_073.jpg,red,gray,NA,NA,NA,NA,NA,NA,NA,NA,NA,NaN,NA,3709,left,1,NA,NA,NA,NA,NA
GWnQCU8B,3k2cedradeesg9mhvkrgq648pmomto,3s06ph7ksvhqqf2p7ad5quubs1l1db,GWnQCU8B,2020-0188,2021-10-30,20:31:49,21:55:58,NA,incomplete,false,NA,NA,true,3,9,NA,NA,NA,left,m_l_083.jpg,white,yellow,NA,NA,NA,NA,NA,NA,NA,NA,NA,NaN,NA,2192.7000000476837,left,1,NA,NA,NA,NA,NA
GWnQCU8B,3k2cedradeesg9mhvkrgq648pmomto,3s06ph7ksvhqqf2p7ad5quubs1l1db,GWnQCU8B,2020-0188,2021-10-30,20:31:49,21:55:58,NA,incomplete,false,NA,NA,true,3,10,NA,NA,NA,right,n_l_058.jpg,gray,red,NA,NA,NA,NA,NA,NA,NA,NA,NA,NaN,NA,2798.5,right,1,NA,NA,NA,NA,NA
GWnQCU8B,3k2cedradeesg9mhvkrgq648pmomto,3s06ph7ksvhqqf2p7ad5quubs1l1db,GWnQCU8B,2020-0188,2021-10-30,20:31:49,21:55:58,NA,incomplete,false,NA,NA,true,3,11,NA,NA,NA,right,m_l_035.jpg,blue,red,NA,NA,NA,NA,NA,NA,NA,NA,NA,NaN,NA,1942.7999999523163,right,1,NA,NA,NA,NA,NA
GWnQCU8B,3k2cedradeesg9mhvkrgq648pmomto,3s06ph7ksvhqqf2p7ad5quubs1l1db,GWnQCU8B,2020-0188,2021-10-30,20:31:49,21:55:58,NA,incomplete,false,NA,NA,true,3,12,NA,NA,NA,right,n_s_024.jpg,brown,blue,NA,NA,NA,NA,NA,NA,NA,NA,NA,NaN,NA,3156.5,right,1,NA,NA,NA,NA,NA
GWnQCU8B,3k2cedradeesg9mhvkrgq648pmomto,3s06ph7ksvhqqf2p7ad5quubs1l1db,GWnQCU8B,2020-0188,2021-10-30,20:31:49,21:55:58,NA,incomplete,false,NA,NA,true,3,13,NA,NA,NA,right,m_l_033.jpg,yellow,white,NA,NA,NA,NA,NA,NA,NA,NA,NA,NaN,NA,5620.700000047684,right,1,NA,NA,NA,NA,NA
GWnQCU8B,3k2cedradeesg9mhvkrgq648pmomto,3s06ph7ksvhqqf2p7ad5quubs1l1db,GWnQCU8B,2020-0188,2021-10-30,20:31:49,21:55:58,NA,incomplete,false,NA,NA,true,3,14,NA,NA,NA,right,m_s_086.jpg,red,gray,NA,NA,NA,NA,NA,NA,NA,NA,NA,NaN,NA,3024.7000000476837,right,1,NA,NA,NA,NA,NA
GWnQCU8B,3k2cedradeesg9mhvkrgq648pmomto,3s06ph7ksvhqqf2p7ad5quubs1l1db,GWnQCU8B,2020-0188,2021-10-30,20:31:49,21:55:58,NA,incomplete,false,NA,NA,true,3,15,NA,NA,NA,right,m_l_089.jpg,blue,brown,NA,NA,NA,NA,NA,NA,NA,NA,NA,NaN,NA,2494.7999999523163,right,1,NA,NA,NA,NA,NA
GWnQCU8B,3k2cedradeesg9mhvkrgq648pmomto,3s06ph7ksvhqqf2p7ad5quubs1l1db,GWnQCU8B,2020-0188,2021-10-30,20:31:49,21:55:58,NA,incomplete,false,NA,NA,true,3,16,NA,NA,NA,right,m_l_042.jpg,yellow,gray,NA,NA,NA,NA,NA,NA,NA,NA,NA,NaN,NA,2355,right,1,NA,NA,NA,NA,NA
GWnQCU8B,3k2cedradeesg9mhvkrgq648pmomto,3s06ph7ksvhqqf2p7ad5quubs1l1db,GWnQCU8B,2020-0188,2021-10-30,20:31:49,21:55:58,NA,incomplete,false,NA,NA,true,3,17,NA,NA,NA,left,m_s_081.jpg,red,blue,NA,NA,NA,NA,NA,NA,NA,NA,NA,NaN,NA,3017,left,1,NA,NA,NA,NA,NA
GWnQCU8B,3k2cedradeesg9mhvkrgq648pmomto,3s06ph7ksvhqqf2p7ad5quubs1l1db,GWnQCU8B,2020-0188,2021-10-30,20:31:49,21:55:58,NA,incomplete,false,NA,NA,true,3,18,NA,NA,NA,left,m_s_113.jpg,yellow,gray,NA,NA,NA,NA,NA,NA,NA,NA,NA,NaN,NA,6368.800000190735,left,1,NA,NA,NA,NA,NA
GWnQCU8B,3k2cedradeesg9mhvkrgq648pmomto,3s06ph7ksvhqqf2p7ad5quubs1l1db,GWnQCU8B,2020-0188,2021-10-30,20:31:49,21:55:58,NA,incomplete,false,NA,NA,true,3,19,NA,NA,NA,right,m_l_021.jpg,red,gray,NA,NA,NA,NA,NA,NA,NA,NA,NA,NaN,NA,2200.600000143051,right,1,NA,NA,NA,NA,NA
GWnQCU8B,3k2cedradeesg9mhvkrgq648pmomto,3s06ph7ksvhqqf2p7ad5quubs1l1db,GWnQCU8B,2020-0188,2021-10-30,20:31:49,21:55:58,NA,incomplete,false,NA,NA,true,3,20,NA,NA,NA,right,m_s_005.jpg,red,blue,NA,NA,NA,NA,NA,NA,NA,NA,NA,NaN,NA,2029.0999999046326,right,1,NA,NA,NA,NA,NA
GWnQCU8B,3k2cedradeesg9mhvkrgq648pmomto,3s06ph7ksvhqqf2p7ad5quubs1l1db,GWnQCU8B,2020-0188,2021-10-30,20:31:49,21:55:58,NA,incomplete,false,NA,NA,true,3,21,NA,NA,NA,right,m_s_082.jpg,brown,blue,NA,NA,NA,NA,NA,NA,NA,NA,NA,NaN,NA,1392.9000000953674,right,1,NA,NA,NA,NA,NA
GWnQCU8B,3k2cedradeesg9mhvkrgq648pmomto,3s06ph7ksvhqqf2p7ad5quubs1l1db,GWnQCU8B,2020-0188,2021-10-30,20:31:49,21:55:58,NA,incomplete,false,NA,true,NA,3,0,NA,NA,NA,right,NA,NA,NA,absent,NA,NA,n_s_020.jpg,yellow,n_l_115.jpg,yellow,within,NA,NaN,NA,NA,NA,NA,right,5272.799999952316,1,1,1041.5
GWnQCU8B,3k2cedradeesg9mhvkrgq648pmomto,3s06ph7ksvhqqf2p7ad5quubs1l1db,GWnQCU8B,2020-0188,2021-10-30,20:31:49,21:55:58,NA,incomplete,false,NA,true,NA,3,1,NA,NA,NA,right,NA,NA,NA,absent,NA,NA,n_s_024.jpg,blue,n_s_092.jpg,blue,within,NA,NaN,NA,NA,NA,NA,right,4247,1,1,798.2000000476837
GWnQCU8B,3k2cedradeesg9mhvkrgq648pmomto,3s06ph7ksvhqqf2p7ad5quubs1l1db,GWnQCU8B,2020-0188,2021-10-30,20:31:49,21:55:58,NA,incomplete,false,NA,true,NA,3,2,NA,NA,NA,left,NA,NA,NA,absent,NA,NA,m_s_077.jpg,gray,m_s_113.jpg,yellow,between,NA,NaN,NA,NA,NA,NA,left,6681,1,1,1197
GWnQCU8B,3k2cedradeesg9mhvkrgq648pmomto,3s06ph7ksvhqqf2p7ad5quubs1l1db,GWnQCU8B,2020-0188,2021-10-30,20:31:49,21:55:58,NA,incomplete,false,NA,true,NA,3,3,NA,NA,NA,left,NA,NA,NA,absent,NA,NA,m_s_014.jpg,white,m_l_033.jpg,white,within,NA,NaN,NA,NA,NA,NA,left,5079.400000095367,1,1,1157.7999999523163
GWnQCU8B,3k2cedradeesg9mhvkrgq648pmomto,3s06ph7ksvhqqf2p7ad5quubs1l1db,GWnQCU8B,2020-0188,2021-10-30,20:31:49,21:55:58,NA,incomplete,false,NA,true,NA,3,4,NA,NA,NA,left,NA,NA,NA,absent,NA,NA,m_s_005.jpg,blue,m_s_081.jpg,red,between,NA,NaN,NA,NA,NA,NA,left,2946.7999999523163,1,1,1562.3999998569489
GWnQCU8B,3k2cedradeesg9mhvkrgq648pmomto,3s06ph7ksvhqqf2p7ad5quubs1l1db,GWnQCU8B,2020-0188,2021-10-30,20:31:49,21:55:58,NA,incomplete,false,NA,true,NA,3,5,NA,NA,NA,left,NA,NA,NA,absent,NA,NA,m_l_089.jpg,brown,m_s_059.jpg,brown,within,NA,NaN,NA,NA,NA,NA,left,2335.100000143051,1,1,1305.5999999046326
GWnQCU8B,3k2cedradeesg9mhvkrgq648pmomto,3s06ph7ksvhqqf2p7ad5quubs1l1db,GWnQCU8B,2020-0188,2021-10-30,20:31:49,21:55:58,NA,incomplete,false,NA,true,NA,3,6,NA,NA,NA,right,NA,NA,NA,absent,NA,NA,m_l_073.jpg,red,n_l_058.jpg,red,within,NA,NaN,NA,NA,NA,NA,right,3771.2000000476837,1,1,869.2000000476837
GWnQCU8B,3k2cedradeesg9mhvkrgq648pmomto,3s06ph7ksvhqqf2p7ad5quubs1l1db,GWnQCU8B,2020-0188,2021-10-30,20:31:49,21:55:58,NA,incomplete,false,NA,true,NA,3,7,NA,NA,NA,left,NA,NA,NA,absent,NA,NA,m_s_026.jpg,brown,m_s_082.jpg,blue,between,NA,NaN,NA,NA,NA,NA,left,1943.4000000953674,1,1,1383.7000000476837
GWnQCU8B,3k2cedradeesg9mhvkrgq648pmomto,3s06ph7ksvhqqf2p7ad5quubs1l1db,GWnQCU8B,2020-0188,2021-10-30,20:31:49,21:55:58,NA,incomplete,false,NA,true,NA,3,8,NA,NA,NA,left,NA,NA,NA,absent,NA,NA,m_l_042.jpg,gray,m_l_021.jpg,gray,within,NA,NaN,NA,NA,NA,NA,left,5405,1,1,761
GWnQCU8B,3k2cedradeesg9mhvkrgq648pmomto,3s06ph7ksvhqqf2p7ad5quubs1l1db,GWnQCU8B,2020-0188,2021-10-30,20:31:49,21:55:58,NA,incomplete,false,NA,true,NA,3,9,NA,NA,NA,left,NA,NA,NA,absent,NA,NA,m_l_035.jpg,red,m_s_086.jpg,gray,between,NA,NaN,NA,NA,NA,NA,left,5669.299999952316,1,1,863.7000000476837
GWnQCU8B,3k2cedradeesg9mhvkrgq648pmomto,3s06ph7ksvhqqf2p7ad5quubs1l1db,GWnQCU8B,2020-0188,2021-10-30,20:31:49,21:55:58,NA,incomplete,false,NA,true,NA,3,10,NA,NA,NA,left,NA,NA,NA,absent,NA,NA,m_s_016.jpg,yellow,m_l_083.jpg,white,between,NA,NaN,NA,NA,NA,NA,left,5184.400000095367,1,1,911.7999999523163
GWnQCU8B,3k2cedradeesg9mhvkrgq648pmomto,3s06ph7ksvhqqf2p7ad5quubs1l1db,GWnQCU8B,2020-0188,2021-10-30,20:31:49,21:55:58,NA,incomplete,false,true,NA,NA,4,0,NA,gray,n_s_028.jpg,NA,NA,NA,NA,NA,unpleasant,pleasant,NA,NA,NA,NA,NA,right,1390.90000009537,true,NA,NA,NA,NA,NA,NA,NA,NA
GWnQCU8B,3k2cedradeesg9mhvkrgq648pmomto,3s06ph7ksvhqqf2p7ad5quubs1l1db,GWnQCU8B,2020-0188,2021-10-30,20:31:49,21:55:58,NA,incomplete,false,true,NA,NA,4,1,NA,gray,n_l_100.jpg,NA,NA,NA,NA,NA,unpleasant,pleasant,NA,NA,NA,NA,NA,right,853.799999952316,true,NA,NA,NA,NA,NA,NA,NA,NA
GWnQCU8B,3k2cedradeesg9mhvkrgq648pmomto,3s06ph7ksvhqqf2p7ad5quubs1l1db,GWnQCU8B,2020-0188,2021-10-30,20:31:49,21:55:58,NA,incomplete,false,true,NA,NA,4,2,NA,gray,n_l_073.jpg,NA,NA,NA,NA,NA,unpleasant,pleasant,NA,NA,NA,NA,NA,right,902,true,NA,NA,NA,NA,NA,NA,NA,NA
GWnQCU8B,3k2cedradeesg9mhvkrgq648pmomto,3s06ph7ksvhqqf2p7ad5quubs1l1db,GWnQCU8B,2020-0188,2021-10-30,20:31:49,21:55:58,NA,incomplete,false,true,NA,NA,4,3,NA,gray,n_l_028.jpg,NA,NA,NA,NA,NA,unpleasant,pleasant,NA,NA,NA,NA,NA,right,889.200000047684,true,NA,NA,NA,NA,NA,NA,NA,NA
GWnQCU8B,3k2cedradeesg9mhvkrgq648pmomto,3s06ph7ksvhqqf2p7ad5quubs1l1db,GWnQCU8B,2020-0188,2021-10-30,20:31:49,21:55:58,NA,incomplete,false,true,NA,NA,4,4,NA,gray,m_s_053.jpg,NA,NA,NA,NA,NA,pleasant,unpleasant,NA,NA,NA,NA,NA,left,1383.90000009537,true,NA,NA,NA,NA,NA,NA,NA,NA
GWnQCU8B,3k2cedradeesg9mhvkrgq648pmomto,3s06ph7ksvhqqf2p7ad5quubs1l1db,GWnQCU8B,2020-0188,2021-10-30,20:31:49,21:55:58,NA,incomplete,false,true,NA,NA,4,5,NA,gray,m_l_114.jpg,NA,NA,NA,NA,NA,unpleasant,pleasant,NA,NA,NA,NA,NA,right,1519.09999990463,true,NA,NA,NA,NA,NA,NA,NA,NA
GWnQCU8B,3k2cedradeesg9mhvkrgq648pmomto,3s06ph7ksvhqqf2p7ad5quubs1l1db,GWnQCU8B,2020-0188,2021-10-30,20:31:49,21:55:58,NA,incomplete,false,true,NA,NA,4,6,NA,white,m_s_114.jpg,NA,NA,NA,NA,NA,pleasant,unpleasant,NA,NA,NA,NA,NA,left,2216.89999985695,true,NA,NA,NA,NA,NA,NA,NA,NA
GWnQCU8B,3k2cedradeesg9mhvkrgq648pmomto,3s06ph7ksvhqqf2p7ad5quubs1l1db,GWnQCU8B,2020-0188,2021-10-30,20:31:49,21:55:58,NA,incomplete,false,true,NA,NA,4,7,NA,white,m_l_099.jpg,NA,NA,NA,NA,NA,pleasant,unpleasant,NA,NA,NA,NA,NA,left,1127.59999990463,true,NA,NA,NA,NA,NA,NA,NA,NA
GWnQCU8B,3k2cedradeesg9mhvkrgq648pmomto,3s06ph7ksvhqqf2p7ad5quubs1l1db,GWnQCU8B,2020-0188,2021-10-30,20:31:49,21:55:58,NA,incomplete,false,true,NA,NA,4,8,NA,white,m_s_031.jpg,NA,NA,NA,NA,NA,pleasant,unpleasant,NA,NA,NA,NA,NA,left,994.299999952316,true,NA,NA,NA,NA,NA,NA,NA,NA
GWnQCU8B,3k2cedradeesg9mhvkrgq648pmomto,3s06ph7ksvhqqf2p7ad5quubs1l1db,GWnQCU8B,2020-0188,2021-10-30,20:31:49,21:55:58,NA,incomplete,false,true,NA,NA,4,9,NA,white,m_l_034.jpg,NA,NA,NA,NA,NA,unpleasant,pleasant,NA,NA,NA,NA,NA,right,1754.30000019073,true,NA,NA,NA,NA,NA,NA,NA,NA
GWnQCU8B,3k2cedradeesg9mhvkrgq648pmomto,3s06ph7ksvhqqf2p7ad5quubs1l1db,GWnQCU8B,2020-0188,2021-10-30,20:31:49,21:55:58,NA,incomplete,false,true,NA,NA,4,10,NA,white,n_s_080.jpg,NA,NA,NA,NA,NA,unpleasant,pleasant,NA,NA,NA,NA,NA,right,1125,true,NA,NA,NA,NA,NA,NA,NA,NA
GWnQCU8B,3k2cedradeesg9mhvkrgq648pmomto,3s06ph7ksvhqqf2p7ad5quubs1l1db,GWnQCU8B,2020-0188,2021-10-30,20:31:49,21:55:58,NA,incomplete,false,true,NA,NA,4,11,NA,white,n_s_052.jpg,NA,NA,NA,NA,NA,unpleasant,pleasant,NA,NA,NA,NA,NA,right,885.900000095367,true,NA,NA,NA,NA,NA,NA,NA,NA
GWnQCU8B,3k2cedradeesg9mhvkrgq648pmomto,3s06ph7ksvhqqf2p7ad5quubs1l1db,GWnQCU8B,2020-0188,2021-10-30,20:31:49,21:55:58,NA,incomplete,false,true,NA,NA,4,12,NA,blue,m_s_028.jpg,NA,NA,NA,NA,NA,unpleasant,pleasant,NA,NA,NA,NA,NA,right,1179.20000004768,true,NA,NA,NA,NA,NA,NA,NA,NA
GWnQCU8B,3k2cedradeesg9mhvkrgq648pmomto,3s06ph7ksvhqqf2p7ad5quubs1l1db,GWnQCU8B,2020-0188,2021-10-30,20:31:49,21:55:58,NA,incomplete,false,true,NA,NA,4,13,NA,blue,n_l_050.jpg,NA,NA,NA,NA,NA,pleasant,unpleasant,NA,NA,NA,NA,NA,left,1255.90000009537,true,NA,NA,NA,NA,NA,NA,NA,NA
GWnQCU8B,3k2cedradeesg9mhvkrgq648pmomto,3s06ph7ksvhqqf2p7ad5quubs1l1db,GWnQCU8B,2020-0188,2021-10-30,20:31:49,21:55:58,NA,incomplete,false,true,NA,NA,4,14,NA,blue,m_l_105.jpg,NA,NA,NA,NA,NA,pleasant,unpleasant,NA,NA,NA,NA,NA,left,1183.39999985695,true,NA,NA,NA,NA,NA,NA,NA,NA
GWnQCU8B,3k2cedradeesg9mhvkrgq648pmomto,3s06ph7ksvhqqf2p7ad5quubs1l1db,GWnQCU8B,2020-0188,2021-10-30,20:31:49,21:55:58,NA,incomplete,false,true,NA,NA,4,15,NA,blue,m_l_085.jpg,NA,NA,NA,NA,NA,unpleasant,pleasant,NA,NA,NA,NA,NA,right,1114.40000009537,true,NA,NA,NA,NA,NA,NA,NA,NA
GWnQCU8B,3k2cedradeesg9mhvkrgq648pmomto,3s06ph7ksvhqqf2p7ad5quubs1l1db,GWnQCU8B,2020-0188,2021-10-30,20:31:49,21:55:58,NA,incomplete,false,true,NA,NA,4,16,NA,blue,n_s_061.jpg,NA,NA,NA,NA,NA,pleasant,unpleasant,NA,NA,NA,NA,NA,left,1110.30000019073,true,NA,NA,NA,NA,NA,NA,NA,NA
GWnQCU8B,3k2cedradeesg9mhvkrgq648pmomto,3s06ph7ksvhqqf2p7ad5quubs1l1db,GWnQCU8B,2020-0188,2021-10-30,20:31:49,21:55:58,NA,incomplete,false,true,NA,NA,4,17,NA,blue,m_s_098.jpg,NA,NA,NA,NA,NA,pleasant,unpleasant,NA,NA,NA,NA,NA,left,896.5,true,NA,NA,NA,NA,NA,NA,NA,NA
GWnQCU8B,3k2cedradeesg9mhvkrgq648pmomto,3s06ph7ksvhqqf2p7ad5quubs1l1db,GWnQCU8B,2020-0188,2021-10-30,20:31:49,21:55:58,NA,incomplete,false,true,NA,NA,4,18,NA,yellow,m_s_079.jpg,NA,NA,NA,NA,NA,pleasant,unpleasant,NA,NA,NA,NA,NA,left,1427.5,true,NA,NA,NA,NA,NA,NA,NA,NA
GWnQCU8B,3k2cedradeesg9mhvkrgq648pmomto,3s06ph7ksvhqqf2p7ad5quubs1l1db,GWnQCU8B,2020-0188,2021-10-30,20:31:49,21:55:58,NA,incomplete,false,true,NA,NA,4,19,NA,yellow,n_l_027.jpg,NA,NA,NA,NA,NA,pleasant,unpleasant,NA,NA,NA,NA,NA,left,669.899999856949,true,NA,NA,NA,NA,NA,NA,NA,NA
GWnQCU8B,3k2cedradeesg9mhvkrgq648pmomto,3s06ph7ksvhqqf2p7ad5quubs1l1db,GWnQCU8B,2020-0188,2021-10-30,20:31:49,21:55:58,NA,incomplete,false,true,NA,NA,4,20,NA,yellow,m_l_086.jpg,NA,NA,NA,NA,NA,pleasant,unpleasant,NA,NA,NA,NA,NA,left,636.5,true,NA,NA,NA,NA,NA,NA,NA,NA
GWnQCU8B,3k2cedradeesg9mhvkrgq648pmomto,3s06ph7ksvhqqf2p7ad5quubs1l1db,GWnQCU8B,2020-0188,2021-10-30,20:31:49,21:55:58,NA,incomplete,false,true,NA,NA,4,21,NA,yellow,n_l_019.jpg,NA,NA,NA,NA,NA,pleasant,unpleasant,NA,NA,NA,NA,NA,left,715.799999952316,true,NA,NA,NA,NA,NA,NA,NA,NA
GWnQCU8B,3k2cedradeesg9mhvkrgq648pmomto,3s06ph7ksvhqqf2p7ad5quubs1l1db,GWnQCU8B,2020-0188,2021-10-30,20:31:49,21:55:58,NA,incomplete,false,true,NA,NA,4,22,NA,yellow,m_l_096.jpg,NA,NA,NA,NA,NA,pleasant,unpleasant,NA,NA,NA,NA,NA,left,544.200000047684,true,NA,NA,NA,NA,NA,NA,NA,NA
GWnQCU8B,3k2cedradeesg9mhvkrgq648pmomto,3s06ph7ksvhqqf2p7ad5quubs1l1db,GWnQCU8B,2020-0188,2021-10-30,20:31:49,21:55:58,NA,incomplete,false,true,NA,NA,4,23,NA,yellow,n_s_070.jpg,NA,NA,NA,NA,NA,pleasant,unpleasant,NA,NA,NA,NA,NA,left,567.100000143051,true,NA,NA,NA,NA,NA,NA,NA,NA
GWnQCU8B,3k2cedradeesg9mhvkrgq648pmomto,3s06ph7ksvhqqf2p7ad5quubs1l1db,GWnQCU8B,2020-0188,2021-10-30,20:31:49,21:55:58,NA,incomplete,false,true,NA,NA,4,24,NA,green,n_s_036.jpg,NA,NA,NA,NA,NA,unpleasant,pleasant,NA,NA,NA,NA,NA,right,834.099999904633,true,NA,NA,NA,NA,NA,NA,NA,NA
GWnQCU8B,3k2cedradeesg9mhvkrgq648pmomto,3s06ph7ksvhqqf2p7ad5quubs1l1db,GWnQCU8B,2020-0188,2021-10-30,20:31:49,21:55:58,NA,incomplete,false,true,NA,NA,4,25,NA,green,m_s_002.jpg,NA,NA,NA,NA,NA,pleasant,unpleasant,NA,NA,NA,NA,NA,left,1183.5,true,NA,NA,NA,NA,NA,NA,NA,NA
GWnQCU8B,3k2cedradeesg9mhvkrgq648pmomto,3s06ph7ksvhqqf2p7ad5quubs1l1db,GWnQCU8B,2020-0188,2021-10-30,20:31:49,21:55:58,NA,incomplete,false,true,NA,NA,4,26,NA,green,n_l_017.jpg,NA,NA,NA,NA,NA,unpleasant,pleasant,NA,NA,NA,NA,NA,right,1150.90000009537,true,NA,NA,NA,NA,NA,NA,NA,NA
GWnQCU8B,3k2cedradeesg9mhvkrgq648pmomto,3s06ph7ksvhqqf2p7ad5quubs1l1db,GWnQCU8B,2020-0188,2021-10-30,20:31:49,21:55:58,NA,incomplete,false,true,NA,NA,4,27,NA,green,n_l_059.jpg,NA,NA,NA,NA,NA,unpleasant,pleasant,NA,NA,NA,NA,NA,right,688.900000095367,true,NA,NA,NA,NA,NA,NA,NA,NA
GWnQCU8B,3k2cedradeesg9mhvkrgq648pmomto,3s06ph7ksvhqqf2p7ad5quubs1l1db,GWnQCU8B,2020-0188,2021-10-30,20:31:49,21:55:58,NA,incomplete,false,true,NA,NA,4,28,NA,green,m_s_047.jpg,NA,NA,NA,NA,NA,pleasant,unpleasant,NA,NA,NA,NA,NA,left,1468.70000004768,true,NA,NA,NA,NA,NA,NA,NA,NA
GWnQCU8B,3k2cedradeesg9mhvkrgq648pmomto,3s06ph7ksvhqqf2p7ad5quubs1l1db,GWnQCU8B,2020-0188,2021-10-30,20:31:49,21:55:58,NA,incomplete,false,true,NA,NA,4,29,NA,green,m_s_015.jpg,NA,NA,NA,NA,NA,pleasant,unpleasant,NA,NA,NA,NA,NA,left,936.699999809265,true,NA,NA,NA,NA,NA,NA,NA,NA
GWnQCU8B,3k2cedradeesg9mhvkrgq648pmomto,3s06ph7ksvhqqf2p7ad5quubs1l1db,GWnQCU8B,2020-0188,2021-10-30,20:31:49,21:55:58,NA,incomplete,false,true,NA,NA,4,30,NA,brown,m_l_080.jpg,NA,NA,NA,NA,NA,pleasant,unpleasant,NA,NA,NA,NA,NA,left,701.5,true,NA,NA,NA,NA,NA,NA,NA,NA
GWnQCU8B,3k2cedradeesg9mhvkrgq648pmomto,3s06ph7ksvhqqf2p7ad5quubs1l1db,GWnQCU8B,2020-0188,2021-10-30,20:31:49,21:55:58,NA,incomplete,false,true,NA,NA,4,31,NA,brown,n_l_067.jpg,NA,NA,NA,NA,NA,unpleasant,pleasant,NA,NA,NA,NA,NA,right,1166.09999990463,true,NA,NA,NA,NA,NA,NA,NA,NA
GWnQCU8B,3k2cedradeesg9mhvkrgq648pmomto,3s06ph7ksvhqqf2p7ad5quubs1l1db,GWnQCU8B,2020-0188,2021-10-30,20:31:49,21:55:58,NA,incomplete,false,true,NA,NA,4,32,NA,brown,m_l_002.jpg,NA,NA,NA,NA,NA,unpleasant,pleasant,NA,NA,NA,NA,NA,right,663.299999952316,true,NA,NA,NA,NA,NA,NA,NA,NA
GWnQCU8B,3k2cedradeesg9mhvkrgq648pmomto,3s06ph7ksvhqqf2p7ad5quubs1l1db,GWnQCU8B,2020-0188,2021-10-30,20:31:49,21:55:58,NA,incomplete,false,true,NA,NA,4,33,NA,brown,m_l_005.jpg,NA,NA,NA,NA,NA,pleasant,unpleasant,NA,NA,NA,NA,NA,left,1301.80000019073,true,NA,NA,NA,NA,NA,NA,NA,NA
GWnQCU8B,3k2cedradeesg9mhvkrgq648pmomto,3s06ph7ksvhqqf2p7ad5quubs1l1db,GWnQCU8B,2020-0188,2021-10-30,20:31:49,21:55:58,NA,incomplete,false,true,NA,NA,4,34,NA,brown,n_s_053.jpg,NA,NA,NA,NA,NA,pleasant,unpleasant,NA,NA,NA,NA,NA,left,672.700000047684,true,NA,NA,NA,NA,NA,NA,NA,NA
GWnQCU8B,3k2cedradeesg9mhvkrgq648pmomto,3s06ph7ksvhqqf2p7ad5quubs1l1db,GWnQCU8B,2020-0188,2021-10-30,20:31:49,21:55:58,NA,incomplete,false,true,NA,NA,4,35,NA,brown,m_s_067.jpg,NA,NA,NA,NA,NA,unpleasant,pleasant,NA,NA,NA,NA,NA,right,1417.5,true,NA,NA,NA,NA,NA,NA,NA,NA
GWnQCU8B,3k2cedradeesg9mhvkrgq648pmomto,3s06ph7ksvhqqf2p7ad5quubs1l1db,GWnQCU8B,2020-0188,2021-10-30,20:31:49,21:55:58,NA,incomplete,false,NA,NA,true,4,0,NA,NA,NA,left,n_l_027.jpg,yellow,blue,NA,NA,NA,NA,NA,NA,NA,NA,NA,NaN,NA,3654.600000143051,left,1,NA,NA,NA,NA,NA
GWnQCU8B,3k2cedradeesg9mhvkrgq648pmomto,3s06ph7ksvhqqf2p7ad5quubs1l1db,GWnQCU8B,2020-0188,2021-10-30,20:31:49,21:55:58,NA,incomplete,false,NA,NA,true,4,1,NA,NA,NA,right,n_s_070.jpg,green,yellow,NA,NA,NA,NA,NA,NA,NA,NA,NA,NaN,NA,2481.4000000953674,right,1,NA,NA,NA,NA,NA
GWnQCU8B,3k2cedradeesg9mhvkrgq648pmomto,3s06ph7ksvhqqf2p7ad5quubs1l1db,GWnQCU8B,2020-0188,2021-10-30,20:31:49,21:55:58,NA,incomplete,false,NA,NA,true,4,2,NA,NA,NA,left,m_l_002.jpg,brown,green,NA,NA,NA,NA,NA,NA,NA,NA,NA,NaN,NA,3483.2999999523163,left,1,NA,NA,NA,NA,NA
GWnQCU8B,3k2cedradeesg9mhvkrgq648pmomto,3s06ph7ksvhqqf2p7ad5quubs1l1db,GWnQCU8B,2020-0188,2021-10-30,20:31:49,21:55:58,NA,incomplete,false,NA,NA,true,4,3,NA,NA,NA,left,m_l_096.jpg,yellow,green,NA,NA,NA,NA,NA,NA,NA,NA,NA,NaN,NA,5841,left,1,NA,NA,NA,NA,NA
GWnQCU8B,3k2cedradeesg9mhvkrgq648pmomto,3s06ph7ksvhqqf2p7ad5quubs1l1db,GWnQCU8B,2020-0188,2021-10-30,20:31:49,21:55:58,NA,incomplete,false,NA,NA,true,4,4,NA,NA,NA,right,n_s_061.jpg,white,blue,NA,NA,NA,NA,NA,NA,NA,NA,NA,NaN,NA,3320.7000000476837,right,1,NA,NA,NA,NA,NA
GWnQCU8B,3k2cedradeesg9mhvkrgq648pmomto,3s06ph7ksvhqqf2p7ad5quubs1l1db,GWnQCU8B,2020-0188,2021-10-30,20:31:49,21:55:58,NA,incomplete,false,NA,NA,true,4,5,NA,NA,NA,left,n_l_100.jpg,gray,white,NA,NA,NA,NA,NA,NA,NA,NA,NA,NaN,NA,2316.7000000476837,left,1,NA,NA,NA,NA,NA
GWnQCU8B,3k2cedradeesg9mhvkrgq648pmomto,3s06ph7ksvhqqf2p7ad5quubs1l1db,GWnQCU8B,2020-0188,2021-10-30,20:31:49,21:55:58,NA,incomplete,false,NA,NA,true,4,6,NA,NA,NA,right,n_s_080.jpg,blue,white,NA,NA,NA,NA,NA,NA,NA,NA,NA,NaN,NA,3832.9000000953674,right,1,NA,NA,NA,NA,NA
GWnQCU8B,3k2cedradeesg9mhvkrgq648pmomto,3s06ph7ksvhqqf2p7ad5quubs1l1db,GWnQCU8B,2020-0188,2021-10-30,20:31:49,21:55:58,NA,incomplete,false,NA,NA,true,4,7,NA,NA,NA,left,m_s_047.jpg,green,yellow,NA,NA,NA,NA,NA,NA,NA,NA,NA,NaN,NA,2362.9000000953674,left,1,NA,NA,NA,NA,NA
GWnQCU8B,3k2cedradeesg9mhvkrgq648pmomto,3s06ph7ksvhqqf2p7ad5quubs1l1db,GWnQCU8B,2020-0188,2021-10-30,20:31:49,21:55:58,NA,incomplete,false,NA,NA,true,4,8,NA,NA,NA,right,n_l_050.jpg,yellow,blue,NA,NA,NA,NA,NA,NA,NA,NA,NA,NaN,NA,2698.699999809265,right,1,NA,NA,NA,NA,NA
GWnQCU8B,3k2cedradeesg9mhvkrgq648pmomto,3s06ph7ksvhqqf2p7ad5quubs1l1db,GWnQCU8B,2020-0188,2021-10-30,20:31:49,21:55:58,NA,incomplete,false,NA,NA,true,4,9,NA,NA,NA,left,m_s_053.jpg,gray,white,NA,NA,NA,NA,NA,NA,NA,NA,NA,NaN,NA,3531,left,1,NA,NA,NA,NA,NA
GWnQCU8B,3k2cedradeesg9mhvkrgq648pmomto,3s06ph7ksvhqqf2p7ad5quubs1l1db,GWnQCU8B,2020-0188,2021-10-30,20:31:49,21:55:58,NA,incomplete,false,NA,NA,true,4,10,NA,NA,NA,right,m_s_098.jpg,yellow,blue,NA,NA,NA,NA,NA,NA,NA,NA,NA,NaN,NA,2394.7999999523163,right,1,NA,NA,NA,NA,NA
GWnQCU8B,3k2cedradeesg9mhvkrgq648pmomto,3s06ph7ksvhqqf2p7ad5quubs1l1db,GWnQCU8B,2020-0188,2021-10-30,20:31:49,21:55:58,NA,incomplete,false,NA,NA,true,4,11,NA,NA,NA,left,m_l_086.jpg,yellow,green,NA,NA,NA,NA,NA,NA,NA,NA,NA,NaN,NA,4556.799999952316,left,1,NA,NA,NA,NA,NA
GWnQCU8B,3k2cedradeesg9mhvkrgq648pmomto,3s06ph7ksvhqqf2p7ad5quubs1l1db,GWnQCU8B,2020-0188,2021-10-30,20:31:49,21:55:58,NA,incomplete,false,NA,NA,true,4,12,NA,NA,NA,left,n_s_052.jpg,white,blue,NA,NA,NA,NA,NA,NA,NA,NA,NA,NaN,NA,2324.5,left,1,NA,NA,NA,NA,NA
GWnQCU8B,3k2cedradeesg9mhvkrgq648pmomto,3s06ph7ksvhqqf2p7ad5quubs1l1db,GWnQCU8B,2020-0188,2021-10-30,20:31:49,21:55:58,NA,incomplete,false,NA,NA,true,4,13,NA,NA,NA,right,m_s_015.jpg,yellow,green,NA,NA,NA,NA,NA,NA,NA,NA,NA,NaN,NA,2875.2999999523163,right,1,NA,NA,NA,NA,NA
GWnQCU8B,3k2cedradeesg9mhvkrgq648pmomto,3s06ph7ksvhqqf2p7ad5quubs1l1db,GWnQCU8B,2020-0188,2021-10-30,20:31:49,21:55:58,NA,incomplete,false,NA,NA,true,4,14,NA,NA,NA,right,m_l_099.jpg,blue,white,NA,NA,NA,NA,NA,NA,NA,NA,NA,NaN,NA,3016.899999856949,right,1,NA,NA,NA,NA,NA
GWnQCU8B,3k2cedradeesg9mhvkrgq648pmomto,3s06ph7ksvhqqf2p7ad5quubs1l1db,GWnQCU8B,2020-0188,2021-10-30,20:31:49,21:55:58,NA,incomplete,false,NA,NA,true,4,15,NA,NA,NA,left,m_s_067.jpg,brown,green,NA,NA,NA,NA,NA,NA,NA,NA,NA,NaN,NA,1641,left,1,NA,NA,NA,NA,NA
GWnQCU8B,3k2cedradeesg9mhvkrgq648pmomto,3s06ph7ksvhqqf2p7ad5quubs1l1db,GWnQCU8B,2020-0188,2021-10-30,20:31:49,21:55:58,NA,incomplete,false,NA,NA,true,4,16,NA,NA,NA,right,m_l_105.jpg,yellow,blue,NA,NA,NA,NA,NA,NA,NA,NA,NA,NaN,NA,2121.2000000476837,right,1,NA,NA,NA,NA,NA
GWnQCU8B,3k2cedradeesg9mhvkrgq648pmomto,3s06ph7ksvhqqf2p7ad5quubs1l1db,GWnQCU8B,2020-0188,2021-10-30,20:31:49,21:55:58,NA,incomplete,false,NA,NA,true,4,17,NA,NA,NA,left,n_l_067.jpg,brown,green,NA,NA,NA,NA,NA,NA,NA,NA,NA,NaN,NA,3687.0999999046326,left,1,NA,NA,NA,NA,NA
GWnQCU8B,3k2cedradeesg9mhvkrgq648pmomto,3s06ph7ksvhqqf2p7ad5quubs1l1db,GWnQCU8B,2020-0188,2021-10-30,20:31:49,21:55:58,NA,incomplete,false,NA,NA,true,4,18,NA,NA,NA,left,n_l_017.jpg,green,brown,NA,NA,NA,NA,NA,NA,NA,NA,NA,NaN,NA,4354,left,1,NA,NA,NA,NA,NA
GWnQCU8B,3k2cedradeesg9mhvkrgq648pmomto,3s06ph7ksvhqqf2p7ad5quubs1l1db,GWnQCU8B,2020-0188,2021-10-30,20:31:49,21:55:58,NA,incomplete,false,NA,NA,true,4,19,NA,NA,NA,right,m_s_002.jpg,yellow,green,NA,NA,NA,NA,NA,NA,NA,NA,NA,NaN,NA,1944.9000000953674,right,1,NA,NA,NA,NA,NA
GWnQCU8B,3k2cedradeesg9mhvkrgq648pmomto,3s06ph7ksvhqqf2p7ad5quubs1l1db,GWnQCU8B,2020-0188,2021-10-30,20:31:49,21:55:58,NA,incomplete,false,NA,NA,true,4,20,NA,NA,NA,left,m_s_031.jpg,white,blue,NA,NA,NA,NA,NA,NA,NA,NA,NA,NaN,NA,2042.7999999523163,left,1,NA,NA,NA,NA,NA
GWnQCU8B,3k2cedradeesg9mhvkrgq648pmomto,3s06ph7ksvhqqf2p7ad5quubs1l1db,GWnQCU8B,2020-0188,2021-10-30,20:31:49,21:55:58,NA,incomplete,false,NA,NA,true,4,21,NA,NA,NA,right,m_l_114.jpg,white,gray,NA,NA,NA,NA,NA,NA,NA,NA,NA,NaN,NA,1966.7999999523163,right,1,NA,NA,NA,NA,NA
GWnQCU8B,3k2cedradeesg9mhvkrgq648pmomto,3s06ph7ksvhqqf2p7ad5quubs1l1db,GWnQCU8B,2020-0188,2021-10-30,20:31:49,21:55:58,NA,incomplete,false,NA,true,NA,4,0,NA,NA,NA,left,NA,NA,NA,absent,NA,NA,n_s_061.jpg,blue,m_l_086.jpg,yellow,between,NA,NaN,NA,NA,NA,NA,left,8805.099999904633,1,1,1204.5
GWnQCU8B,3k2cedradeesg9mhvkrgq648pmomto,3s06ph7ksvhqqf2p7ad5quubs1l1db,GWnQCU8B,2020-0188,2021-10-30,20:31:49,21:55:58,NA,incomplete,false,NA,true,NA,4,1,NA,NA,NA,right,NA,NA,NA,absent,NA,NA,m_s_067.jpg,brown,n_l_067.jpg,brown,within,NA,NaN,NA,NA,NA,NA,right,1619,1,1,1299.2999999523163
GWnQCU8B,3k2cedradeesg9mhvkrgq648pmomto,3s06ph7ksvhqqf2p7ad5quubs1l1db,GWnQCU8B,2020-0188,2021-10-30,20:31:49,21:55:58,NA,incomplete,false,NA,true,NA,4,2,NA,NA,NA,left,NA,NA,NA,absent,NA,NA,m_l_096.jpg,yellow,n_l_017.jpg,green,between,NA,NaN,NA,NA,NA,NA,left,5033.400000095367,1,1,901.1000001430511
GWnQCU8B,3k2cedradeesg9mhvkrgq648pmomto,3s06ph7ksvhqqf2p7ad5quubs1l1db,GWnQCU8B,2020-0188,2021-10-30,20:31:49,21:55:58,NA,incomplete,false,NA,true,NA,4,3,NA,NA,NA,left,NA,NA,NA,absent,NA,NA,m_l_099.jpg,white,n_s_052.jpg,white,within,NA,NaN,NA,NA,NA,NA,left,4286.799999952316,1,1,1211.1000001430511
GWnQCU8B,3k2cedradeesg9mhvkrgq648pmomto,3s06ph7ksvhqqf2p7ad5quubs1l1db,GWnQCU8B,2020-0188,2021-10-30,20:31:49,21:55:58,NA,incomplete,false,NA,true,NA,4,4,NA,NA,NA,left,NA,NA,NA,absent,NA,NA,n_l_050.jpg,blue,m_s_098.jpg,blue,within,NA,NaN,NA,NA,NA,NA,left,2978.699999809265,1,1,1094.9000000953674
GWnQCU8B,3k2cedradeesg9mhvkrgq648pmomto,3s06ph7ksvhqqf2p7ad5quubs1l1db,GWnQCU8B,2020-0188,2021-10-30,20:31:49,21:55:58,NA,incomplete,false,NA,true,NA,4,5,NA,NA,NA,left,NA,NA,NA,absent,NA,NA,n_l_027.jpg,yellow,n_s_070.jpg,yellow,within,NA,NaN,NA,NA,NA,NA,left,3942.9000000953674,1,1,1071.2000000476837
GWnQCU8B,3k2cedradeesg9mhvkrgq648pmomto,3s06ph7ksvhqqf2p7ad5quubs1l1db,GWnQCU8B,2020-0188,2021-10-30,20:31:49,21:55:58,NA,incomplete,false,NA,true,NA,4,6,NA,NA,NA,right,NA,NA,NA,absent,NA,NA,m_s_015.jpg,green,m_s_002.jpg,green,within,NA,NaN,NA,NA,NA,NA,right,2596.800000190735,1,1,814.7999999523163
GWnQCU8B,3k2cedradeesg9mhvkrgq648pmomto,3s06ph7ksvhqqf2p7ad5quubs1l1db,GWnQCU8B,2020-0188,2021-10-30,20:31:49,21:55:58,NA,incomplete,false,NA,true,NA,4,7,NA,NA,NA,left,NA,NA,NA,absent,NA,NA,m_s_053.jpg,gray,m_s_031.jpg,white,between,NA,NaN,NA,NA,NA,NA,left,1849.0999999046326,1,1,816.4000000953674
GWnQCU8B,3k2cedradeesg9mhvkrgq648pmomto,3s06ph7ksvhqqf2p7ad5quubs1l1db,GWnQCU8B,2020-0188,2021-10-30,20:31:49,21:55:58,NA,incomplete,false,NA,true,NA,4,8,NA,NA,NA,right,NA,NA,NA,absent,NA,NA,m_l_002.jpg,brown,m_s_047.jpg,green,between,NA,NaN,NA,NA,NA,NA,right,1593.1000001430511,1,1,1205.5999999046326
GWnQCU8B,3k2cedradeesg9mhvkrgq648pmomto,3s06ph7ksvhqqf2p7ad5quubs1l1db,GWnQCU8B,2020-0188,2021-10-30,20:31:49,21:55:58,NA,incomplete,false,NA,true,NA,4,9,NA,NA,NA,right,NA,NA,NA,absent,NA,NA,m_l_105.jpg,blue,n_s_080.jpg,white,between,NA,NaN,NA,NA,NA,NA,right,4378.900000095367,1,1,798.8000001907349
GWnQCU8B,3k2cedradeesg9mhvkrgq648pmomto,3s06ph7ksvhqqf2p7ad5quubs1l1db,GWnQCU8B,2020-0188,2021-10-30,20:31:49,21:55:58,NA,incomplete,false,NA,true,NA,4,10,NA,NA,NA,left,NA,NA,NA,absent,NA,NA,n_l_100.jpg,gray,m_l_114.jpg,gray,within,NA,NaN,NA,NA,NA,NA,left,3554.7000000476837,1,1,876.7999999523163
GWnQCU8B,3k2cedradeesg9mhvkrgq648pmomto,3s06ph7ksvhqqf2p7ad5quubs1l1db,GWnQCU8B,2020-0188,2021-10-30,20:31:49,21:55:58,NA,incomplete,false,true,NA,NA,5,0,NA,white,m_s_004.jpg,NA,NA,NA,NA,NA,unpleasant,pleasant,NA,NA,NA,NA,NA,right,1446.09999990463,true,NA,NA,NA,NA,NA,NA,NA,NA
GWnQCU8B,3k2cedradeesg9mhvkrgq648pmomto,3s06ph7ksvhqqf2p7ad5quubs1l1db,GWnQCU8B,2020-0188,2021-10-30,20:31:49,21:55:58,NA,incomplete,false,true,NA,NA,5,1,NA,white,n_l_084.jpg,NA,NA,NA,NA,NA,unpleasant,pleasant,NA,NA,NA,NA,NA,right,1096.79999995232,true,NA,NA,NA,NA,NA,NA,NA,NA
GWnQCU8B,3k2cedradeesg9mhvkrgq648pmomto,3s06ph7ksvhqqf2p7ad5quubs1l1db,GWnQCU8B,2020-0188,2021-10-30,20:31:49,21:55:58,NA,incomplete,false,true,NA,NA,5,2,NA,white,n_l_088.jpg,NA,NA,NA,NA,NA,pleasant,unpleasant,NA,NA,NA,NA,NA,left,1118.5,true,NA,NA,NA,NA,NA,NA,NA,NA
GWnQCU8B,3k2cedradeesg9mhvkrgq648pmomto,3s06ph7ksvhqqf2p7ad5quubs1l1db,GWnQCU8B,2020-0188,2021-10-30,20:31:49,21:55:58,NA,incomplete,false,true,NA,NA,5,3,NA,white,m_s_110.jpg,NA,NA,NA,NA,NA,pleasant,unpleasant,NA,NA,NA,NA,NA,left,1015.09999990463,true,NA,NA,NA,NA,NA,NA,NA,NA
GWnQCU8B,3k2cedradeesg9mhvkrgq648pmomto,3s06ph7ksvhqqf2p7ad5quubs1l1db,GWnQCU8B,2020-0188,2021-10-30,20:31:49,21:55:58,NA,incomplete,false,true,NA,NA,5,4,NA,white,m_s_101.jpg,NA,NA,NA,NA,NA,pleasant,unpleasant,NA,NA,NA,NA,NA,left,1159.5,true,NA,NA,NA,NA,NA,NA,NA,NA
GWnQCU8B,3k2cedradeesg9mhvkrgq648pmomto,3s06ph7ksvhqqf2p7ad5quubs1l1db,GWnQCU8B,2020-0188,2021-10-30,20:31:49,21:55:58,NA,incomplete,false,true,NA,NA,5,5,NA,white,n_s_037.jpg,NA,NA,NA,NA,NA,pleasant,unpleasant,NA,NA,NA,NA,NA,left,1350.89999985695,true,NA,NA,NA,NA,NA,NA,NA,NA
GWnQCU8B,3k2cedradeesg9mhvkrgq648pmomto,3s06ph7ksvhqqf2p7ad5quubs1l1db,GWnQCU8B,2020-0188,2021-10-30,20:31:49,21:55:58,NA,incomplete,false,true,NA,NA,5,6,NA,purple,m_l_055.jpg,NA,NA,NA,NA,NA,pleasant,unpleasant,NA,NA,NA,NA,NA,left,768.5,true,NA,NA,NA,NA,NA,NA,NA,NA
GWnQCU8B,3k2cedradeesg9mhvkrgq648pmomto,3s06ph7ksvhqqf2p7ad5quubs1l1db,GWnQCU8B,2020-0188,2021-10-30,20:31:49,21:55:58,NA,incomplete,false,true,NA,NA,5,7,NA,purple,n_s_010.jpg,NA,NA,NA,NA,NA,pleasant,unpleasant,NA,NA,NA,NA,NA,left,631.299999952316,true,NA,NA,NA,NA,NA,NA,NA,NA
GWnQCU8B,3k2cedradeesg9mhvkrgq648pmomto,3s06ph7ksvhqqf2p7ad5quubs1l1db,GWnQCU8B,2020-0188,2021-10-30,20:31:49,21:55:58,NA,incomplete,false,true,NA,NA,5,8,NA,purple,n_s_046.jpg,NA,NA,NA,NA,NA,pleasant,unpleasant,NA,NA,NA,NA,NA,left,487.799999952316,true,NA,NA,NA,NA,NA,NA,NA,NA
GWnQCU8B,3k2cedradeesg9mhvkrgq648pmomto,3s06ph7ksvhqqf2p7ad5quubs1l1db,GWnQCU8B,2020-0188,2021-10-30,20:31:49,21:55:58,NA,incomplete,false,true,NA,NA,5,9,NA,purple,n_l_082.jpg,NA,NA,NA,NA,NA,pleasant,unpleasant,NA,NA,NA,NA,NA,left,968,true,NA,NA,NA,NA,NA,NA,NA,NA
GWnQCU8B,3k2cedradeesg9mhvkrgq648pmomto,3s06ph7ksvhqqf2p7ad5quubs1l1db,GWnQCU8B,2020-0188,2021-10-30,20:31:49,21:55:58,NA,incomplete,false,true,NA,NA,5,10,NA,purple,m_l_004.jpg,NA,NA,NA,NA,NA,pleasant,unpleasant,NA,NA,NA,NA,NA,left,615.899999856949,true,NA,NA,NA,NA,NA,NA,NA,NA
GWnQCU8B,3k2cedradeesg9mhvkrgq648pmomto,3s06ph7ksvhqqf2p7ad5quubs1l1db,GWnQCU8B,2020-0188,2021-10-30,20:31:49,21:55:58,NA,incomplete,false,true,NA,NA,5,11,NA,purple,m_l_018.jpg,NA,NA,NA,NA,NA,unpleasant,pleasant,NA,NA,NA,NA,NA,right,1034.30000019073,true,NA,NA,NA,NA,NA,NA,NA,NA
GWnQCU8B,3k2cedradeesg9mhvkrgq648pmomto,3s06ph7ksvhqqf2p7ad5quubs1l1db,GWnQCU8B,2020-0188,2021-10-30,20:31:49,21:55:58,NA,incomplete,false,true,NA,NA,5,12,NA,blue,n_s_017.jpg,NA,NA,NA,NA,NA,unpleasant,pleasant,NA,NA,NA,NA,NA,right,1043.90000009537,true,NA,NA,NA,NA,NA,NA,NA,NA
GWnQCU8B,3k2cedradeesg9mhvkrgq648pmomto,3s06ph7ksvhqqf2p7ad5quubs1l1db,GWnQCU8B,2020-0188,2021-10-30,20:31:49,21:55:58,NA,incomplete,false,true,NA,NA,5,13,NA,blue,m_s_049.jpg,NA,NA,NA,NA,NA,pleasant,unpleasant,NA,NA,NA,NA,NA,left,1447.59999990463,true,NA,NA,NA,NA,NA,NA,NA,NA
GWnQCU8B,3k2cedradeesg9mhvkrgq648pmomto,3s06ph7ksvhqqf2p7ad5quubs1l1db,GWnQCU8B,2020-0188,2021-10-30,20:31:49,21:55:58,NA,incomplete,false,true,NA,NA,5,14,NA,blue,m_s_034.jpg,NA,NA,NA,NA,NA,unpleasant,pleasant,NA,NA,NA,NA,NA,right,1209.89999985695,true,NA,NA,NA,NA,NA,NA,NA,NA
GWnQCU8B,3k2cedradeesg9mhvkrgq648pmomto,3s06ph7ksvhqqf2p7ad5quubs1l1db,GWnQCU8B,2020-0188,2021-10-30,20:31:49,21:55:58,NA,incomplete,false,true,NA,NA,5,15,NA,blue,m_l_053.jpg,NA,NA,NA,NA,NA,unpleasant,pleasant,NA,NA,NA,NA,NA,right,821.600000143051,true,NA,NA,NA,NA,NA,NA,NA,NA
GWnQCU8B,3k2cedradeesg9mhvkrgq648pmomto,3s06ph7ksvhqqf2p7ad5quubs1l1db,GWnQCU8B,2020-0188,2021-10-30,20:31:49,21:55:58,NA,incomplete,false,true,NA,NA,5,16,NA,blue,n_l_014.jpg,NA,NA,NA,NA,NA,pleasant,unpleasant,NA,NA,NA,NA,NA,left,1451.40000009537,true,NA,NA,NA,NA,NA,NA,NA,NA
