workerId,hitId,assignmentId,subject,studyid,exp_date,exp_start,exp_end,time_start,time_end,practice,encoding,memory,association,block,trial,event_order,event,stim,answer,object,left_context,right_context,context_type,label_left,label_right,left_image,left_event,right_image,right_event,condition,response,response_time,response_acc,association_response_time,association_response,association_acc,order_response,order_response_time,order_acc,distance_response,distance_response_time
Wbz5DPvN,3k2cedradeesg9mhvkrgq648pmomto,3sepori8wrcpn4klvbvvsn6hkczzas,Wbz5DPvN,2020-0188,2021-10-30,14:48:16,16:10:52,NA,incomplete,true,true,NA,NA,0,0,NA,white,m_l_069.jpg,NA,NA,NA,NA,NA,pleasant,unpleasant,NA,NA,NA,NA,NA,left,3206.10000000149,true,NA,NA,NA,NA,NA,NA,NA,NA
Wbz5DPvN,3k2cedradeesg9mhvkrgq648pmomto,3sepori8wrcpn4klvbvvsn6hkczzas,Wbz5DPvN,2020-0188,2021-10-30,14:48:16,16:10:52,NA,incomplete,true,true,NA,NA,0,1,NA,white,m_s_072.jpg,NA,NA,NA,NA,NA,unpleasant,pleasant,NA,NA,NA,NA,NA,right,2400.69999999925,true,NA,NA,NA,NA,NA,NA,NA,NA
Wbz5DPvN,3k2cedradeesg9mhvkrgq648pmomto,3sepori8wrcpn4klvbvvsn6hkczzas,Wbz5DPvN,2020-0188,2021-10-30,14:48:16,16:10:52,NA,incomplete,true,true,NA,NA,0,2,NA,white,m_l_090.jpg,NA,NA,NA,NA,NA,unpleasant,pleasant,NA,NA,NA,NA,NA,left,2982.39999999851,true,NA,NA,NA,NA,NA,NA,NA,NA
Wbz5DPvN,3k2cedradeesg9mhvkrgq648pmomto,3sepori8wrcpn4klvbvvsn6hkczzas,Wbz5DPvN,2020-0188,2021-10-30,14:48:16,16:10:52,NA,incomplete,true,true,NA,NA,0,3,NA,white,m_l_098.jpg,NA,NA,NA,NA,NA,pleasant,unpleasant,NA,NA,NA,NA,NA,left,2305.5,true,NA,NA,NA,NA,NA,NA,NA,NA
Wbz5DPvN,3k2cedradeesg9mhvkrgq648pmomto,3sepori8wrcpn4klvbvvsn6hkczzas,Wbz5DPvN,2020-0188,2021-10-30,14:48:16,16:10:52,NA,incomplete,true,true,NA,NA,0,4,NA,white,n_l_105.jpg,NA,NA,NA,NA,NA,pleasant,unpleasant,NA,NA,NA,NA,NA,right,2267,true,NA,NA,NA,NA,NA,NA,NA,NA
Wbz5DPvN,3k2cedradeesg9mhvkrgq648pmomto,3sepori8wrcpn4klvbvvsn6hkczzas,Wbz5DPvN,2020-0188,2021-10-30,14:48:16,16:10:52,NA,incomplete,true,true,NA,NA,0,5,NA,white,m_l_043.jpg,NA,NA,NA,NA,NA,pleasant,unpleasant,NA,NA,NA,NA,NA,left,1506,true,NA,NA,NA,NA,NA,NA,NA,NA
Wbz5DPvN,3k2cedradeesg9mhvkrgq648pmomto,3sepori8wrcpn4klvbvvsn6hkczzas,Wbz5DPvN,2020-0188,2021-10-30,14:48:16,16:10:52,NA,incomplete,true,true,NA,NA,0,6,NA,yellow,n_l_015.jpg,NA,NA,NA,NA,NA,unpleasant,pleasant,NA,NA,NA,NA,NA,right,3086.5,true,NA,NA,NA,NA,NA,NA,NA,NA
Wbz5DPvN,3k2cedradeesg9mhvkrgq648pmomto,3sepori8wrcpn4klvbvvsn6hkczzas,Wbz5DPvN,2020-0188,2021-10-30,14:48:16,16:10:52,NA,incomplete,true,true,NA,NA,0,7,NA,yellow,n_l_045.jpg,NA,NA,NA,NA,NA,pleasant,unpleasant,NA,NA,NA,NA,NA,right,1978.19999999925,true,NA,NA,NA,NA,NA,NA,NA,NA
Wbz5DPvN,3k2cedradeesg9mhvkrgq648pmomto,3sepori8wrcpn4klvbvvsn6hkczzas,Wbz5DPvN,2020-0188,2021-10-30,14:48:16,16:10:52,NA,incomplete,true,true,NA,NA,0,8,NA,yellow,n_l_098.jpg,NA,NA,NA,NA,NA,unpleasant,pleasant,NA,NA,NA,NA,NA,left,1448,true,NA,NA,NA,NA,NA,NA,NA,NA
Wbz5DPvN,3k2cedradeesg9mhvkrgq648pmomto,3sepori8wrcpn4klvbvvsn6hkczzas,Wbz5DPvN,2020-0188,2021-10-30,14:48:16,16:10:52,NA,incomplete,true,true,NA,NA,0,9,NA,yellow,n_s_094.jpg,NA,NA,NA,NA,NA,pleasant,unpleasant,NA,NA,NA,NA,NA,right,1492.89999999851,true,NA,NA,NA,NA,NA,NA,NA,NA
Wbz5DPvN,3k2cedradeesg9mhvkrgq648pmomto,3sepori8wrcpn4klvbvvsn6hkczzas,Wbz5DPvN,2020-0188,2021-10-30,14:48:16,16:10:52,NA,incomplete,true,true,NA,NA,0,10,NA,yellow,n_l_048.jpg,NA,NA,NA,NA,NA,pleasant,unpleasant,NA,NA,NA,NA,NA,right,1257.69999999925,true,NA,NA,NA,NA,NA,NA,NA,NA
Wbz5DPvN,3k2cedradeesg9mhvkrgq648pmomto,3sepori8wrcpn4klvbvvsn6hkczzas,Wbz5DPvN,2020-0188,2021-10-30,14:48:16,16:10:52,NA,incomplete,true,true,NA,NA,0,11,NA,yellow,n_s_091.jpg,NA,NA,NA,NA,NA,unpleasant,pleasant,NA,NA,NA,NA,NA,left,1589.40000000224,true,NA,NA,NA,NA,NA,NA,NA,NA
Wbz5DPvN,3k2cedradeesg9mhvkrgq648pmomto,3sepori8wrcpn4klvbvvsn6hkczzas,Wbz5DPvN,2020-0188,2021-10-30,14:48:16,16:10:52,NA,incomplete,true,true,NA,NA,0,12,NA,purple,n_s_045.jpg,NA,NA,NA,NA,NA,unpleasant,pleasant,NA,NA,NA,NA,NA,right,2625.30000000075,true,NA,NA,NA,NA,NA,NA,NA,NA
Wbz5DPvN,3k2cedradeesg9mhvkrgq648pmomto,3sepori8wrcpn4klvbvvsn6hkczzas,Wbz5DPvN,2020-0188,2021-10-30,14:48:16,16:10:52,NA,incomplete,true,true,NA,NA,0,13,NA,purple,n_l_024.jpg,NA,NA,NA,NA,NA,unpleasant,pleasant,NA,NA,NA,NA,NA,left,2533.5,true,NA,NA,NA,NA,NA,NA,NA,NA
Wbz5DPvN,3k2cedradeesg9mhvkrgq648pmomto,3sepori8wrcpn4klvbvvsn6hkczzas,Wbz5DPvN,2020-0188,2021-10-30,14:48:16,16:10:52,NA,incomplete,true,true,NA,NA,0,14,NA,purple,m_l_100.jpg,NA,NA,NA,NA,NA,unpleasant,pleasant,NA,NA,NA,NA,NA,right,1073.30000000075,true,NA,NA,NA,NA,NA,NA,NA,NA
Wbz5DPvN,3k2cedradeesg9mhvkrgq648pmomto,3sepori8wrcpn4klvbvvsn6hkczzas,Wbz5DPvN,2020-0188,2021-10-30,14:48:16,16:10:52,NA,incomplete,true,true,NA,NA,0,15,NA,purple,n_s_005.jpg,NA,NA,NA,NA,NA,unpleasant,pleasant,NA,NA,NA,NA,NA,left,1798,true,NA,NA,NA,NA,NA,NA,NA,NA
Wbz5DPvN,3k2cedradeesg9mhvkrgq648pmomto,3sepori8wrcpn4klvbvvsn6hkczzas,Wbz5DPvN,2020-0188,2021-10-30,14:48:16,16:10:52,NA,incomplete,true,true,NA,NA,0,16,NA,purple,m_s_112.jpg,NA,NA,NA,NA,NA,pleasant,unpleasant,NA,NA,NA,NA,NA,left,1602.30000000075,true,NA,NA,NA,NA,NA,NA,NA,NA
Wbz5DPvN,3k2cedradeesg9mhvkrgq648pmomto,3sepori8wrcpn4klvbvvsn6hkczzas,Wbz5DPvN,2020-0188,2021-10-30,14:48:16,16:10:52,NA,incomplete,true,true,NA,NA,0,17,NA,purple,n_l_107.jpg,NA,NA,NA,NA,NA,unpleasant,pleasant,NA,NA,NA,NA,NA,left,1663.39999999851,true,NA,NA,NA,NA,NA,NA,NA,NA
Wbz5DPvN,3k2cedradeesg9mhvkrgq648pmomto,3sepori8wrcpn4klvbvvsn6hkczzas,Wbz5DPvN,2020-0188,2021-10-30,14:48:16,16:10:52,NA,incomplete,true,true,NA,NA,0,18,NA,black,m_s_053.jpg,NA,NA,NA,NA,NA,unpleasant,pleasant,NA,NA,NA,NA,NA,right,2226.19999999925,true,NA,NA,NA,NA,NA,NA,NA,NA
Wbz5DPvN,3k2cedradeesg9mhvkrgq648pmomto,3sepori8wrcpn4klvbvvsn6hkczzas,Wbz5DPvN,2020-0188,2021-10-30,14:48:16,16:10:52,NA,incomplete,true,true,NA,NA,0,19,NA,black,n_s_015.jpg,NA,NA,NA,NA,NA,pleasant,unpleasant,NA,NA,NA,NA,NA,right,2167.40000000224,true,NA,NA,NA,NA,NA,NA,NA,NA
Wbz5DPvN,3k2cedradeesg9mhvkrgq648pmomto,3sepori8wrcpn4klvbvvsn6hkczzas,Wbz5DPvN,2020-0188,2021-10-30,14:48:16,16:10:52,NA,incomplete,true,true,NA,NA,0,20,NA,black,m_l_004.jpg,NA,NA,NA,NA,NA,unpleasant,pleasant,NA,NA,NA,NA,NA,right,1996.80000000075,true,NA,NA,NA,NA,NA,NA,NA,NA
Wbz5DPvN,3k2cedradeesg9mhvkrgq648pmomto,3sepori8wrcpn4klvbvvsn6hkczzas,Wbz5DPvN,2020-0188,2021-10-30,14:48:16,16:10:52,NA,incomplete,true,true,NA,NA,0,21,NA,black,n_l_095.jpg,NA,NA,NA,NA,NA,pleasant,unpleasant,NA,NA,NA,NA,NA,right,2783.89999999851,true,NA,NA,NA,NA,NA,NA,NA,NA
Wbz5DPvN,3k2cedradeesg9mhvkrgq648pmomto,3sepori8wrcpn4klvbvvsn6hkczzas,Wbz5DPvN,2020-0188,2021-10-30,14:48:16,16:10:52,NA,incomplete,true,true,NA,NA,0,22,NA,black,n_s_065.jpg,NA,NA,NA,NA,NA,pleasant,unpleasant,NA,NA,NA,NA,NA,right,1101.69999999925,true,NA,NA,NA,NA,NA,NA,NA,NA
Wbz5DPvN,3k2cedradeesg9mhvkrgq648pmomto,3sepori8wrcpn4klvbvvsn6hkczzas,Wbz5DPvN,2020-0188,2021-10-30,14:48:16,16:10:52,NA,incomplete,true,true,NA,NA,0,23,NA,black,m_s_021.jpg,NA,NA,NA,NA,NA,unpleasant,pleasant,NA,NA,NA,NA,NA,right,1560.89999999851,true,NA,NA,NA,NA,NA,NA,NA,NA
Wbz5DPvN,3k2cedradeesg9mhvkrgq648pmomto,3sepori8wrcpn4klvbvvsn6hkczzas,Wbz5DPvN,2020-0188,2021-10-30,14:48:16,16:10:52,NA,incomplete,true,true,NA,NA,0,24,NA,red,m_l_101.jpg,NA,NA,NA,NA,NA,unpleasant,pleasant,NA,NA,NA,NA,NA,left,2165,true,NA,NA,NA,NA,NA,NA,NA,NA
Wbz5DPvN,3k2cedradeesg9mhvkrgq648pmomto,3sepori8wrcpn4klvbvvsn6hkczzas,Wbz5DPvN,2020-0188,2021-10-30,14:48:16,16:10:52,NA,incomplete,true,true,NA,NA,0,25,NA,red,m_s_002.jpg,NA,NA,NA,NA,NA,pleasant,unpleasant,NA,NA,NA,NA,NA,left,1618.10000000149,true,NA,NA,NA,NA,NA,NA,NA,NA
Wbz5DPvN,3k2cedradeesg9mhvkrgq648pmomto,3sepori8wrcpn4klvbvvsn6hkczzas,Wbz5DPvN,2020-0188,2021-10-30,14:48:16,16:10:52,NA,incomplete,true,true,NA,NA,0,26,NA,red,n_s_099.jpg,NA,NA,NA,NA,NA,pleasant,unpleasant,NA,NA,NA,NA,NA,left,2597.5,true,NA,NA,NA,NA,NA,NA,NA,NA
Wbz5DPvN,3k2cedradeesg9mhvkrgq648pmomto,3sepori8wrcpn4klvbvvsn6hkczzas,Wbz5DPvN,2020-0188,2021-10-30,14:48:16,16:10:52,NA,incomplete,true,true,NA,NA,0,27,NA,red,m_l_109.jpg,NA,NA,NA,NA,NA,unpleasant,pleasant,NA,NA,NA,NA,NA,left,2571.5,true,NA,NA,NA,NA,NA,NA,NA,NA
Wbz5DPvN,3k2cedradeesg9mhvkrgq648pmomto,3sepori8wrcpn4klvbvvsn6hkczzas,Wbz5DPvN,2020-0188,2021-10-30,14:48:16,16:10:52,NA,incomplete,true,true,NA,NA,0,28,NA,red,n_l_036.jpg,NA,NA,NA,NA,NA,unpleasant,pleasant,NA,NA,NA,NA,NA,right,2776,true,NA,NA,NA,NA,NA,NA,NA,NA
Wbz5DPvN,3k2cedradeesg9mhvkrgq648pmomto,3sepori8wrcpn4klvbvvsn6hkczzas,Wbz5DPvN,2020-0188,2021-10-30,14:48:16,16:10:52,NA,incomplete,true,true,NA,NA,0,29,NA,red,m_l_059.jpg,NA,NA,NA,NA,NA,pleasant,unpleasant,NA,NA,NA,NA,NA,left,1403.19999999925,true,NA,NA,NA,NA,NA,NA,NA,NA
Wbz5DPvN,3k2cedradeesg9mhvkrgq648pmomto,3sepori8wrcpn4klvbvvsn6hkczzas,Wbz5DPvN,2020-0188,2021-10-30,14:48:16,16:10:52,NA,incomplete,true,true,NA,NA,0,30,NA,green,n_l_082.jpg,NA,NA,NA,NA,NA,unpleasant,pleasant,NA,NA,NA,NA,NA,right,1239.59999999776,true,NA,NA,NA,NA,NA,NA,NA,NA
Wbz5DPvN,3k2cedradeesg9mhvkrgq648pmomto,3sepori8wrcpn4klvbvvsn6hkczzas,Wbz5DPvN,2020-0188,2021-10-30,14:48:16,16:10:52,NA,incomplete,true,true,NA,NA,0,31,NA,green,m_s_068.jpg,NA,NA,NA,NA,NA,pleasant,unpleasant,NA,NA,NA,NA,NA,left,1563.5,true,NA,NA,NA,NA,NA,NA,NA,NA
Wbz5DPvN,3k2cedradeesg9mhvkrgq648pmomto,3sepori8wrcpn4klvbvvsn6hkczzas,Wbz5DPvN,2020-0188,2021-10-30,14:48:16,16:10:52,NA,incomplete,true,true,NA,NA,0,32,NA,green,m_s_071.jpg,NA,NA,NA,NA,NA,unpleasant,pleasant,NA,NA,NA,NA,NA,right,2737,true,NA,NA,NA,NA,NA,NA,NA,NA
Wbz5DPvN,3k2cedradeesg9mhvkrgq648pmomto,3sepori8wrcpn4klvbvvsn6hkczzas,Wbz5DPvN,2020-0188,2021-10-30,14:48:16,16:10:52,NA,incomplete,true,true,NA,NA,0,33,NA,green,n_s_061.jpg,NA,NA,NA,NA,NA,pleasant,unpleasant,NA,NA,NA,NA,NA,left,1196.10000000149,true,NA,NA,NA,NA,NA,NA,NA,NA
Wbz5DPvN,3k2cedradeesg9mhvkrgq648pmomto,3sepori8wrcpn4klvbvvsn6hkczzas,Wbz5DPvN,2020-0188,2021-10-30,14:48:16,16:10:52,NA,incomplete,true,true,NA,NA,0,34,NA,green,m_s_070.jpg,NA,NA,NA,NA,NA,pleasant,unpleasant,NA,NA,NA,NA,NA,left,1177,true,NA,NA,NA,NA,NA,NA,NA,NA
Wbz5DPvN,3k2cedradeesg9mhvkrgq648pmomto,3sepori8wrcpn4klvbvvsn6hkczzas,Wbz5DPvN,2020-0188,2021-10-30,14:48:16,16:10:52,NA,incomplete,true,true,NA,NA,0,35,NA,green,n_l_041.jpg,NA,NA,NA,NA,NA,unpleasant,pleasant,NA,NA,NA,NA,NA,right,1614.19999999925,true,NA,NA,NA,NA,NA,NA,NA,NA
Wbz5DPvN,3k2cedradeesg9mhvkrgq648pmomto,3sepori8wrcpn4klvbvvsn6hkczzas,Wbz5DPvN,2020-0188,2021-10-30,14:48:16,16:10:52,NA,incomplete,true,NA,NA,true,0,0,NA,NA,NA,left,m_s_072.jpg,white,yellow,NA,NA,NA,NA,NA,NA,NA,NA,NA,NaN,NA,3045.400000002235,left,1,NA,NA,NA,NA,NA
Wbz5DPvN,3k2cedradeesg9mhvkrgq648pmomto,3sepori8wrcpn4klvbvvsn6hkczzas,Wbz5DPvN,2020-0188,2021-10-30,14:48:16,16:10:52,NA,incomplete,true,NA,NA,true,0,1,NA,NA,NA,left,m_l_059.jpg,red,green,NA,NA,NA,NA,NA,NA,NA,NA,NA,NaN,NA,3146.199999999255,left,1,NA,NA,NA,NA,NA
Wbz5DPvN,3k2cedradeesg9mhvkrgq648pmomto,3sepori8wrcpn4klvbvvsn6hkczzas,Wbz5DPvN,2020-0188,2021-10-30,14:48:16,16:10:52,NA,incomplete,true,NA,NA,true,0,2,NA,NA,NA,left,m_s_002.jpg,red,black,NA,NA,NA,NA,NA,NA,NA,NA,NA,NaN,NA,2089,left,1,NA,NA,NA,NA,NA
Wbz5DPvN,3k2cedradeesg9mhvkrgq648pmomto,3sepori8wrcpn4klvbvvsn6hkczzas,Wbz5DPvN,2020-0188,2021-10-30,14:48:16,16:10:52,NA,incomplete,true,NA,NA,true,0,3,NA,NA,NA,right,n_l_045.jpg,purple,yellow,NA,NA,NA,NA,NA,NA,NA,NA,NA,NaN,NA,3504.10000000149,right,1,NA,NA,NA,NA,NA
Wbz5DPvN,3k2cedradeesg9mhvkrgq648pmomto,3sepori8wrcpn4klvbvvsn6hkczzas,Wbz5DPvN,2020-0188,2021-10-30,14:48:16,16:10:52,NA,incomplete,true,NA,NA,true,0,4,NA,NA,NA,right,n_s_015.jpg,purple,black,NA,NA,NA,NA,NA,NA,NA,NA,NA,NaN,NA,2667.2000000029802,right,1,NA,NA,NA,NA,NA
Wbz5DPvN,3k2cedradeesg9mhvkrgq648pmomto,3sepori8wrcpn4klvbvvsn6hkczzas,Wbz5DPvN,2020-0188,2021-10-30,14:48:16,16:10:52,NA,incomplete,true,NA,NA,true,0,5,NA,NA,NA,right,n_s_099.jpg,black,red,NA,NA,NA,NA,NA,NA,NA,NA,NA,NaN,NA,1482.5,right,1,NA,NA,NA,NA,NA
Wbz5DPvN,3k2cedradeesg9mhvkrgq648pmomto,3sepori8wrcpn4klvbvvsn6hkczzas,Wbz5DPvN,2020-0188,2021-10-30,14:48:16,16:10:52,NA,incomplete,true,NA,NA,true,0,6,NA,NA,NA,right,n_l_024.jpg,yellow,purple,NA,NA,NA,NA,NA,NA,NA,NA,NA,NaN,NA,1889.3999999985099,right,1,NA,NA,NA,NA,NA
Wbz5DPvN,3k2cedradeesg9mhvkrgq648pmomto,3sepori8wrcpn4klvbvvsn6hkczzas,Wbz5DPvN,2020-0188,2021-10-30,14:48:16,16:10:52,NA,incomplete,true,NA,NA,true,0,7,NA,NA,NA,right,m_l_100.jpg,black,purple,NA,NA,NA,NA,NA,NA,NA,NA,NA,NaN,NA,3338.300000000745,right,1,NA,NA,NA,NA,NA
Wbz5DPvN,3k2cedradeesg9mhvkrgq648pmomto,3sepori8wrcpn4klvbvvsn6hkczzas,Wbz5DPvN,2020-0188,2021-10-30,14:48:16,16:10:52,NA,incomplete,true,NA,NA,true,0,8,NA,NA,NA,left,m_s_071.jpg,green,red,NA,NA,NA,NA,NA,NA,NA,NA,NA,NaN,NA,3698.10000000149,left,1,NA,NA,NA,NA,NA
Wbz5DPvN,3k2cedradeesg9mhvkrgq648pmomto,3sepori8wrcpn4klvbvvsn6hkczzas,Wbz5DPvN,2020-0188,2021-10-30,14:48:16,16:10:52,NA,incomplete,true,NA,NA,true,0,9,NA,NA,NA,left,m_l_004.jpg,black,red,NA,NA,NA,NA,NA,NA,NA,NA,NA,NaN,NA,1843.300000000745,left,1,NA,NA,NA,NA,NA
Wbz5DPvN,3k2cedradeesg9mhvkrgq648pmomto,3sepori8wrcpn4klvbvvsn6hkczzas,Wbz5DPvN,2020-0188,2021-10-30,14:48:16,16:10:52,NA,incomplete,true,NA,NA,true,0,10,NA,NA,NA,left,n_s_065.jpg,black,purple,NA,NA,NA,NA,NA,NA,NA,NA,NA,NaN,NA,2824.599999997765,left,1,NA,NA,NA,NA,NA
Wbz5DPvN,3k2cedradeesg9mhvkrgq648pmomto,3sepori8wrcpn4klvbvvsn6hkczzas,Wbz5DPvN,2020-0188,2021-10-30,14:48:16,16:10:52,NA,incomplete,true,NA,NA,true,0,11,NA,NA,NA,right,n_l_098.jpg,white,yellow,NA,NA,NA,NA,NA,NA,NA,NA,NA,NaN,NA,2402.5,left,0,NA,NA,NA,NA,NA
Wbz5DPvN,3k2cedradeesg9mhvkrgq648pmomto,3sepori8wrcpn4klvbvvsn6hkczzas,Wbz5DPvN,2020-0188,2021-10-30,14:48:16,16:10:52,NA,incomplete,true,NA,NA,true,0,12,NA,NA,NA,right,n_l_036.jpg,black,red,NA,NA,NA,NA,NA,NA,NA,NA,NA,NaN,NA,6611.199999999255,right,1,NA,NA,NA,NA,NA
Wbz5DPvN,3k2cedradeesg9mhvkrgq648pmomto,3sepori8wrcpn4klvbvvsn6hkczzas,Wbz5DPvN,2020-0188,2021-10-30,14:48:16,16:10:52,NA,incomplete,true,NA,NA,true,0,13,NA,NA,NA,right,n_l_041.jpg,red,green,NA,NA,NA,NA,NA,NA,NA,NA,NA,NaN,NA,1410.0999999977648,right,1,NA,NA,NA,NA,NA
Wbz5DPvN,3k2cedradeesg9mhvkrgq648pmomto,3sepori8wrcpn4klvbvvsn6hkczzas,Wbz5DPvN,2020-0188,2021-10-30,14:48:16,16:10:52,NA,incomplete,true,NA,NA,true,0,14,NA,NA,NA,right,m_l_043.jpg,yellow,white,NA,NA,NA,NA,NA,NA,NA,NA,NA,NaN,NA,2299.699999999255,right,1,NA,NA,NA,NA,NA
Wbz5DPvN,3k2cedradeesg9mhvkrgq648pmomto,3sepori8wrcpn4klvbvvsn6hkczzas,Wbz5DPvN,2020-0188,2021-10-30,14:48:16,16:10:52,NA,incomplete,true,NA,NA,true,0,15,NA,NA,NA,right,m_s_068.jpg,red,green,NA,NA,NA,NA,NA,NA,NA,NA,NA,NaN,NA,4920.70000000298,right,1,NA,NA,NA,NA,NA
Wbz5DPvN,3k2cedradeesg9mhvkrgq648pmomto,3sepori8wrcpn4klvbvvsn6hkczzas,Wbz5DPvN,2020-0188,2021-10-30,14:48:16,16:10:52,NA,incomplete,true,NA,NA,true,0,16,NA,NA,NA,right,m_s_021.jpg,red,black,NA,NA,NA,NA,NA,NA,NA,NA,NA,NaN,NA,1523.8999999985099,right,1,NA,NA,NA,NA,NA
Wbz5DPvN,3k2cedradeesg9mhvkrgq648pmomto,3sepori8wrcpn4klvbvvsn6hkczzas,Wbz5DPvN,2020-0188,2021-10-30,14:48:16,16:10:52,NA,incomplete,true,NA,NA,true,0,17,NA,NA,NA,right,n_l_105.jpg,yellow,white,NA,NA,NA,NA,NA,NA,NA,NA,NA,NaN,NA,5639.5,right,1,NA,NA,NA,NA,NA
Wbz5DPvN,3k2cedradeesg9mhvkrgq648pmomto,3sepori8wrcpn4klvbvvsn6hkczzas,Wbz5DPvN,2020-0188,2021-10-30,14:48:16,16:10:52,NA,incomplete,true,NA,NA,true,0,18,NA,NA,NA,left,n_l_048.jpg,yellow,purple,NA,NA,NA,NA,NA,NA,NA,NA,NA,NaN,NA,2569.099999997765,left,1,NA,NA,NA,NA,NA
Wbz5DPvN,3k2cedradeesg9mhvkrgq648pmomto,3sepori8wrcpn4klvbvvsn6hkczzas,Wbz5DPvN,2020-0188,2021-10-30,14:48:16,16:10:52,NA,incomplete,true,NA,NA,true,0,19,NA,NA,NA,right,n_s_091.jpg,purple,yellow,NA,NA,NA,NA,NA,NA,NA,NA,NA,NaN,NA,2613.10000000149,right,1,NA,NA,NA,NA,NA
Wbz5DPvN,3k2cedradeesg9mhvkrgq648pmomto,3sepori8wrcpn4klvbvvsn6hkczzas,Wbz5DPvN,2020-0188,2021-10-30,14:48:16,16:10:52,NA,incomplete,true,NA,NA,true,0,20,NA,NA,NA,left,n_l_107.jpg,purple,black,NA,NA,NA,NA,NA,NA,NA,NA,NA,NaN,NA,3104.199999999255,left,1,NA,NA,NA,NA,NA
Wbz5DPvN,3k2cedradeesg9mhvkrgq648pmomto,3sepori8wrcpn4klvbvvsn6hkczzas,Wbz5DPvN,2020-0188,2021-10-30,14:48:16,16:10:52,NA,incomplete,true,NA,NA,true,0,21,NA,NA,NA,right,m_s_112.jpg,yellow,purple,NA,NA,NA,NA,NA,NA,NA,NA,NA,NaN,NA,1532.800000000745,right,1,NA,NA,NA,NA,NA
Wbz5DPvN,3k2cedradeesg9mhvkrgq648pmomto,3sepori8wrcpn4klvbvvsn6hkczzas,Wbz5DPvN,2020-0188,2021-10-30,14:48:16,16:10:52,NA,incomplete,true,NA,true,NA,0,0,NA,NA,NA,right,NA,NA,NA,absent,NA,NA,n_l_098.jpg,yellow,n_l_105.jpg,white,between,NA,NaN,NA,NA,NA,NA,right,4342.800000000745,1,2,3037.800000000745
Wbz5DPvN,3k2cedradeesg9mhvkrgq648pmomto,3sepori8wrcpn4klvbvvsn6hkczzas,Wbz5DPvN,2020-0188,2021-10-30,14:48:16,16:10:52,NA,incomplete,true,NA,true,NA,0,1,NA,NA,NA,right,NA,NA,NA,absent,NA,NA,m_s_071.jpg,green,n_l_036.jpg,red,between,NA,NaN,NA,NA,NA,NA,right,1725.800000000745,1,2,1068.199999999255
Wbz5DPvN,3k2cedradeesg9mhvkrgq648pmomto,3sepori8wrcpn4klvbvvsn6hkczzas,Wbz5DPvN,2020-0188,2021-10-30,14:48:16,16:10:52,NA,incomplete,true,NA,true,NA,0,2,NA,NA,NA,right,NA,NA,NA,absent,NA,NA,m_l_004.jpg,black,m_s_112.jpg,purple,between,NA,NaN,NA,NA,NA,NA,right,7488.60000000149,1,2,2302.5
Wbz5DPvN,3k2cedradeesg9mhvkrgq648pmomto,3sepori8wrcpn4klvbvvsn6hkczzas,Wbz5DPvN,2020-0188,2021-10-30,14:48:16,16:10:52,NA,incomplete,true,NA,true,NA,0,3,NA,NA,NA,left,NA,NA,NA,absent,NA,NA,m_s_068.jpg,green,n_l_041.jpg,green,within,NA,NaN,NA,NA,NA,NA,left,3979.599999997765,1,3,1712.9000000022352
Wbz5DPvN,3k2cedradeesg9mhvkrgq648pmomto,3sepori8wrcpn4klvbvvsn6hkczzas,Wbz5DPvN,2020-0188,2021-10-30,14:48:16,16:10:52,NA,incomplete,true,NA,true,NA,0,4,NA,NA,NA,right,NA,NA,NA,absent,NA,NA,n_s_099.jpg,red,n_s_065.jpg,black,between,NA,NaN,NA,NA,NA,NA,right,4851.300000000745,1,2,1377.300000000745
Wbz5DPvN,3k2cedradeesg9mhvkrgq648pmomto,3sepori8wrcpn4klvbvvsn6hkczzas,Wbz5DPvN,2020-0188,2021-10-30,14:48:16,16:10:52,NA,incomplete,true,NA,true,NA,0,5,NA,NA,NA,right,NA,NA,NA,absent,NA,NA,n_l_107.jpg,purple,n_l_024.jpg,purple,within,NA,NaN,NA,NA,NA,NA,left,6152.70000000298,0,2,1554.300000000745
Wbz5DPvN,3k2cedradeesg9mhvkrgq648pmomto,3sepori8wrcpn4klvbvvsn6hkczzas,Wbz5DPvN,2020-0188,2021-10-30,14:48:16,16:10:52,NA,incomplete,true,NA,true,NA,0,6,NA,NA,NA,right,NA,NA,NA,absent,NA,NA,n_s_091.jpg,yellow,n_l_045.jpg,yellow,within,NA,NaN,NA,NA,NA,NA,right,5495.800000000745,1,1,951.2999999970198
Wbz5DPvN,3k2cedradeesg9mhvkrgq648pmomto,3sepori8wrcpn4klvbvvsn6hkczzas,Wbz5DPvN,2020-0188,2021-10-30,14:48:16,16:10:52,NA,incomplete,true,NA,true,NA,0,7,NA,NA,NA,right,NA,NA,NA,absent,NA,NA,m_l_059.jpg,red,m_s_002.jpg,red,within,NA,NaN,NA,NA,NA,NA,left,6395.400000002235,0,2,1504.199999999255
Wbz5DPvN,3k2cedradeesg9mhvkrgq648pmomto,3sepori8wrcpn4klvbvvsn6hkczzas,Wbz5DPvN,2020-0188,2021-10-30,14:48:16,16:10:52,NA,incomplete,true,NA,true,NA,0,8,NA,NA,NA,left,NA,NA,NA,absent,NA,NA,m_s_072.jpg,white,m_l_043.jpg,white,within,NA,NaN,NA,NA,NA,NA,left,3463,1,3,1134.800000000745
Wbz5DPvN,3k2cedradeesg9mhvkrgq648pmomto,3sepori8wrcpn4klvbvvsn6hkczzas,Wbz5DPvN,2020-0188,2021-10-30,14:48:16,16:10:52,NA,incomplete,true,NA,true,NA,0,9,NA,NA,NA,left,NA,NA,NA,absent,NA,NA,n_l_048.jpg,yellow,m_l_100.jpg,purple,between,NA,NaN,NA,NA,NA,NA,right,10400.10000000149,0,2,2156.89999999851
Wbz5DPvN,3k2cedradeesg9mhvkrgq648pmomto,3sepori8wrcpn4klvbvvsn6hkczzas,Wbz5DPvN,2020-0188,2021-10-30,14:48:16,16:10:52,NA,incomplete,true,NA,true,NA,0,10,NA,NA,NA,left,NA,NA,NA,absent,NA,NA,n_s_015.jpg,black,m_s_021.jpg,black,within,NA,NaN,NA,NA,NA,NA,right,2918.5,0,2,1145.2000000029802
Wbz5DPvN,3k2cedradeesg9mhvkrgq648pmomto,3sepori8wrcpn4klvbvvsn6hkczzas,Wbz5DPvN,2020-0188,2021-10-30,14:48:16,16:10:52,NA,incomplete,false,true,NA,NA,1,0,NA,red,m_l_071.jpg,NA,NA,NA,NA,NA,pleasant,unpleasant,NA,NA,NA,NA,NA,left,2072.90000000224,true,NA,NA,NA,NA,NA,NA,NA,NA
Wbz5DPvN,3k2cedradeesg9mhvkrgq648pmomto,3sepori8wrcpn4klvbvvsn6hkczzas,Wbz5DPvN,2020-0188,2021-10-30,14:48:16,16:10:52,NA,incomplete,false,true,NA,NA,1,1,NA,red,m_l_057.jpg,NA,NA,NA,NA,NA,unpleasant,pleasant,NA,NA,NA,NA,NA,left,2263,true,NA,NA,NA,NA,NA,NA,NA,NA
Wbz5DPvN,3k2cedradeesg9mhvkrgq648pmomto,3sepori8wrcpn4klvbvvsn6hkczzas,Wbz5DPvN,2020-0188,2021-10-30,14:48:16,16:10:52,NA,incomplete,false,true,NA,NA,1,2,NA,red,m_l_014.jpg,NA,NA,NA,NA,NA,unpleasant,pleasant,NA,NA,NA,NA,NA,right,1538.69999999925,true,NA,NA,NA,NA,NA,NA,NA,NA
Wbz5DPvN,3k2cedradeesg9mhvkrgq648pmomto,3sepori8wrcpn4klvbvvsn6hkczzas,Wbz5DPvN,2020-0188,2021-10-30,14:48:16,16:10:52,NA,incomplete,false,true,NA,NA,1,3,NA,red,n_l_072.jpg,NA,NA,NA,NA,NA,unpleasant,pleasant,NA,NA,NA,NA,NA,left,2399.60000000149,true,NA,NA,NA,NA,NA,NA,NA,NA
Wbz5DPvN,3k2cedradeesg9mhvkrgq648pmomto,3sepori8wrcpn4klvbvvsn6hkczzas,Wbz5DPvN,2020-0188,2021-10-30,14:48:16,16:10:52,NA,incomplete,false,true,NA,NA,1,4,NA,red,n_l_007.jpg,NA,NA,NA,NA,NA,pleasant,unpleasant,NA,NA,NA,NA,NA,left,1259.5,true,NA,NA,NA,NA,NA,NA,NA,NA
Wbz5DPvN,3k2cedradeesg9mhvkrgq648pmomto,3sepori8wrcpn4klvbvvsn6hkczzas,Wbz5DPvN,2020-0188,2021-10-30,14:48:16,16:10:52,NA,incomplete,false,true,NA,NA,1,5,NA,red,m_l_047.jpg,NA,NA,NA,NA,NA,pleasant,unpleasant,NA,NA,NA,NA,NA,right,1287.80000000075,true,NA,NA,NA,NA,NA,NA,NA,NA
Wbz5DPvN,3k2cedradeesg9mhvkrgq648pmomto,3sepori8wrcpn4klvbvvsn6hkczzas,Wbz5DPvN,2020-0188,2021-10-30,14:48:16,16:10:52,NA,incomplete,false,true,NA,NA,1,6,NA,white,m_s_039.jpg,NA,NA,NA,NA,NA,unpleasant,pleasant,NA,NA,NA,NA,NA,right,2126.40000000224,true,NA,NA,NA,NA,NA,NA,NA,NA
Wbz5DPvN,3k2cedradeesg9mhvkrgq648pmomto,3sepori8wrcpn4klvbvvsn6hkczzas,Wbz5DPvN,2020-0188,2021-10-30,14:48:16,16:10:52,NA,incomplete,false,true,NA,NA,1,7,NA,white,m_l_061.jpg,NA,NA,NA,NA,NA,unpleasant,pleasant,NA,NA,NA,NA,NA,right,1465.30000000075,true,NA,NA,NA,NA,NA,NA,NA,NA
Wbz5DPvN,3k2cedradeesg9mhvkrgq648pmomto,3sepori8wrcpn4klvbvvsn6hkczzas,Wbz5DPvN,2020-0188,2021-10-30,14:48:16,16:10:52,NA,incomplete,false,true,NA,NA,1,8,NA,white,m_l_115.jpg,NA,NA,NA,NA,NA,unpleasant,pleasant,NA,NA,NA,NA,NA,left,1165.29999999702,true,NA,NA,NA,NA,NA,NA,NA,NA
Wbz5DPvN,3k2cedradeesg9mhvkrgq648pmomto,3sepori8wrcpn4klvbvvsn6hkczzas,Wbz5DPvN,2020-0188,2021-10-30,14:48:16,16:10:52,NA,incomplete,false,true,NA,NA,1,9,NA,white,m_s_008.jpg,NA,NA,NA,NA,NA,unpleasant,pleasant,NA,NA,NA,NA,NA,right,1209.70000000298,true,NA,NA,NA,NA,NA,NA,NA,NA
Wbz5DPvN,3k2cedradeesg9mhvkrgq648pmomto,3sepori8wrcpn4klvbvvsn6hkczzas,Wbz5DPvN,2020-0188,2021-10-30,14:48:16,16:10:52,NA,incomplete,false,true,NA,NA,1,10,NA,white,m_s_069.jpg,NA,NA,NA,NA,NA,unpleasant,pleasant,NA,NA,NA,NA,NA,right,1320.30000000075,true,NA,NA,NA,NA,NA,NA,NA,NA
Wbz5DPvN,3k2cedradeesg9mhvkrgq648pmomto,3sepori8wrcpn4klvbvvsn6hkczzas,Wbz5DPvN,2020-0188,2021-10-30,14:48:16,16:10:52,NA,incomplete,false,true,NA,NA,1,11,NA,white,m_l_039.jpg,NA,NA,NA,NA,NA,unpleasant,pleasant,NA,NA,NA,NA,NA,right,1562.10000000149,true,NA,NA,NA,NA,NA,NA,NA,NA
Wbz5DPvN,3k2cedradeesg9mhvkrgq648pmomto,3sepori8wrcpn4klvbvvsn6hkczzas,Wbz5DPvN,2020-0188,2021-10-30,14:48:16,16:10:52,NA,incomplete,false,true,NA,NA,1,12,NA,gray,m_l_104.jpg,NA,NA,NA,NA,NA,unpleasant,pleasant,NA,NA,NA,NA,NA,right,1919.19999999925,true,NA,NA,NA,NA,NA,NA,NA,NA
Wbz5DPvN,3k2cedradeesg9mhvkrgq648pmomto,3sepori8wrcpn4klvbvvsn6hkczzas,Wbz5DPvN,2020-0188,2021-10-30,14:48:16,16:10:52,NA,incomplete,false,true,NA,NA,1,13,NA,gray,n_l_006.jpg,NA,NA,NA,NA,NA,unpleasant,pleasant,NA,NA,NA,NA,NA,left,2450.5,true,NA,NA,NA,NA,NA,NA,NA,NA
Wbz5DPvN,3k2cedradeesg9mhvkrgq648pmomto,3sepori8wrcpn4klvbvvsn6hkczzas,Wbz5DPvN,2020-0188,2021-10-30,14:48:16,16:10:52,NA,incomplete,false,true,NA,NA,1,14,NA,gray,m_l_001.jpg,NA,NA,NA,NA,NA,pleasant,unpleasant,NA,NA,NA,NA,NA,left,1358.89999999851,true,NA,NA,NA,NA,NA,NA,NA,NA
Wbz5DPvN,3k2cedradeesg9mhvkrgq648pmomto,3sepori8wrcpn4klvbvvsn6hkczzas,Wbz5DPvN,2020-0188,2021-10-30,14:48:16,16:10:52,NA,incomplete,false,true,NA,NA,1,15,NA,gray,m_s_017.jpg,NA,NA,NA,NA,NA,unpleasant,pleasant,NA,NA,NA,NA,NA,right,1396.70000000298,true,NA,NA,NA,NA,NA,NA,NA,NA
Wbz5DPvN,3k2cedradeesg9mhvkrgq648pmomto,3sepori8wrcpn4klvbvvsn6hkczzas,Wbz5DPvN,2020-0188,2021-10-30,14:48:16,16:10:52,NA,incomplete,false,true,NA,NA,1,16,NA,gray,m_s_004.jpg,NA,NA,NA,NA,NA,pleasant,unpleasant,NA,NA,NA,NA,NA,left,1295.90000000224,true,NA,NA,NA,NA,NA,NA,NA,NA
Wbz5DPvN,3k2cedradeesg9mhvkrgq648pmomto,3sepori8wrcpn4klvbvvsn6hkczzas,Wbz5DPvN,2020-0188,2021-10-30,14:48:16,16:10:52,NA,incomplete,false,true,NA,NA,1,17,NA,gray,m_s_019.jpg,NA,NA,NA,NA,NA,pleasant,unpleasant,NA,NA,NA,NA,NA,right,1950.19999999925,true,NA,NA,NA,NA,NA,NA,NA,NA
Wbz5DPvN,3k2cedradeesg9mhvkrgq648pmomto,3sepori8wrcpn4klvbvvsn6hkczzas,Wbz5DPvN,2020-0188,2021-10-30,14:48:16,16:10:52,NA,incomplete,false,true,NA,NA,1,18,NA,purple,n_s_054.jpg,NA,NA,NA,NA,NA,unpleasant,pleasant,NA,NA,NA,NA,NA,left,1778.5,true,NA,NA,NA,NA,NA,NA,NA,NA
Wbz5DPvN,3k2cedradeesg9mhvkrgq648pmomto,3sepori8wrcpn4klvbvvsn6hkczzas,Wbz5DPvN,2020-0188,2021-10-30,14:48:16,16:10:52,NA,incomplete,false,true,NA,NA,1,19,NA,purple,n_s_066.jpg,NA,NA,NA,NA,NA,pleasant,unpleasant,NA,NA,NA,NA,NA,right,1038.10000000149,true,NA,NA,NA,NA,NA,NA,NA,NA
Wbz5DPvN,3k2cedradeesg9mhvkrgq648pmomto,3sepori8wrcpn4klvbvvsn6hkczzas,Wbz5DPvN,2020-0188,2021-10-30,14:48:16,16:10:52,NA,incomplete,false,true,NA,NA,1,20,NA,purple,n_l_092.jpg,NA,NA,NA,NA,NA,pleasant,unpleasant,NA,NA,NA,NA,NA,right,1427.29999999702,true,NA,NA,NA,NA,NA,NA,NA,NA
Wbz5DPvN,3k2cedradeesg9mhvkrgq648pmomto,3sepori8wrcpn4klvbvvsn6hkczzas,Wbz5DPvN,2020-0188,2021-10-30,14:48:16,16:10:52,NA,incomplete,false,true,NA,NA,1,21,NA,purple,n_l_035.jpg,NA,NA,NA,NA,NA,pleasant,unpleasant,NA,NA,NA,NA,NA,left,2534.89999999851,true,NA,NA,NA,NA,NA,NA,NA,NA
Wbz5DPvN,3k2cedradeesg9mhvkrgq648pmomto,3sepori8wrcpn4klvbvvsn6hkczzas,Wbz5DPvN,2020-0188,2021-10-30,14:48:16,16:10:52,NA,incomplete,false,true,NA,NA,1,22,NA,purple,n_l_005.jpg,NA,NA,NA,NA,NA,pleasant,unpleasant,NA,NA,NA,NA,NA,right,1370.70000000298,true,NA,NA,NA,NA,NA,NA,NA,NA
Wbz5DPvN,3k2cedradeesg9mhvkrgq648pmomto,3sepori8wrcpn4klvbvvsn6hkczzas,Wbz5DPvN,2020-0188,2021-10-30,14:48:16,16:10:52,NA,incomplete,false,true,NA,NA,1,23,NA,purple,n_l_061.jpg,NA,NA,NA,NA,NA,unpleasant,pleasant,NA,NA,NA,NA,NA,left,1152.40000000224,true,NA,NA,NA,NA,NA,NA,NA,NA
Wbz5DPvN,3k2cedradeesg9mhvkrgq648pmomto,3sepori8wrcpn4klvbvvsn6hkczzas,Wbz5DPvN,2020-0188,2021-10-30,14:48:16,16:10:52,NA,incomplete,false,true,NA,NA,1,24,NA,blue,m_l_062.jpg,NA,NA,NA,NA,NA,unpleasant,pleasant,NA,NA,NA,NA,NA,right,1563.19999999925,true,NA,NA,NA,NA,NA,NA,NA,NA
Wbz5DPvN,3k2cedradeesg9mhvkrgq648pmomto,3sepori8wrcpn4klvbvvsn6hkczzas,Wbz5DPvN,2020-0188,2021-10-30,14:48:16,16:10:52,NA,incomplete,false,true,NA,NA,1,25,NA,blue,m_s_001.jpg,NA,NA,NA,NA,NA,unpleasant,pleasant,NA,NA,NA,NA,NA,right,1304,true,NA,NA,NA,NA,NA,NA,NA,NA
Wbz5DPvN,3k2cedradeesg9mhvkrgq648pmomto,3sepori8wrcpn4klvbvvsn6hkczzas,Wbz5DPvN,2020-0188,2021-10-30,14:48:16,16:10:52,NA,incomplete,false,true,NA,NA,1,26,NA,blue,n_s_033.jpg,NA,NA,NA,NA,NA,unpleasant,pleasant,NA,NA,NA,NA,NA,left,2228.69999999925,true,NA,NA,NA,NA,NA,NA,NA,NA
Wbz5DPvN,3k2cedradeesg9mhvkrgq648pmomto,3sepori8wrcpn4klvbvvsn6hkczzas,Wbz5DPvN,2020-0188,2021-10-30,14:48:16,16:10:52,NA,incomplete,false,true,NA,NA,1,27,NA,blue,n_s_105.jpg,NA,NA,NA,NA,NA,pleasant,unpleasant,NA,NA,NA,NA,NA,right,1744.40000000224,true,NA,NA,NA,NA,NA,NA,NA,NA
Wbz5DPvN,3k2cedradeesg9mhvkrgq648pmomto,3sepori8wrcpn4klvbvvsn6hkczzas,Wbz5DPvN,2020-0188,2021-10-30,14:48:16,16:10:52,NA,incomplete,false,true,NA,NA,1,28,NA,blue,m_l_017.jpg,NA,NA,NA,NA,NA,pleasant,unpleasant,NA,NA,NA,NA,NA,left,1118,true,NA,NA,NA,NA,NA,NA,NA,NA
Wbz5DPvN,3k2cedradeesg9mhvkrgq648pmomto,3sepori8wrcpn4klvbvvsn6hkczzas,Wbz5DPvN,2020-0188,2021-10-30,14:48:16,16:10:52,NA,incomplete,false,true,NA,NA,1,29,NA,blue,m_l_086.jpg,NA,NA,NA,NA,NA,unpleasant,pleasant,NA,NA,NA,NA,NA,left,1993.19999999925,true,NA,NA,NA,NA,NA,NA,NA,NA
Wbz5DPvN,3k2cedradeesg9mhvkrgq648pmomto,3sepori8wrcpn4klvbvvsn6hkczzas,Wbz5DPvN,2020-0188,2021-10-30,14:48:16,16:10:52,NA,incomplete,false,true,NA,NA,1,30,NA,green,m_s_024.jpg,NA,NA,NA,NA,NA,pleasant,unpleasant,NA,NA,NA,NA,NA,left,1485.89999999851,true,NA,NA,NA,NA,NA,NA,NA,NA
Wbz5DPvN,3k2cedradeesg9mhvkrgq648pmomto,3sepori8wrcpn4klvbvvsn6hkczzas,Wbz5DPvN,2020-0188,2021-10-30,14:48:16,16:10:52,NA,incomplete,false,true,NA,NA,1,31,NA,green,m_l_076.jpg,NA,NA,NA,NA,NA,unpleasant,pleasant,NA,NA,NA,NA,NA,right,1490.60000000149,true,NA,NA,NA,NA,NA,NA,NA,NA
Wbz5DPvN,3k2cedradeesg9mhvkrgq648pmomto,3sepori8wrcpn4klvbvvsn6hkczzas,Wbz5DPvN,2020-0188,2021-10-30,14:48:16,16:10:52,NA,incomplete,false,true,NA,NA,1,32,NA,green,m_s_018.jpg,NA,NA,NA,NA,NA,pleasant,unpleasant,NA,NA,NA,NA,NA,left,1277.89999999851,true,NA,NA,NA,NA,NA,NA,NA,NA
Wbz5DPvN,3k2cedradeesg9mhvkrgq648pmomto,3sepori8wrcpn4klvbvvsn6hkczzas,Wbz5DPvN,2020-0188,2021-10-30,14:48:16,16:10:52,NA,incomplete,false,true,NA,NA,1,33,NA,green,n_l_115.jpg,NA,NA,NA,NA,NA,pleasant,unpleasant,NA,NA,NA,NA,NA,right,2145.5,true,NA,NA,NA,NA,NA,NA,NA,NA
Wbz5DPvN,3k2cedradeesg9mhvkrgq648pmomto,3sepori8wrcpn4klvbvvsn6hkczzas,Wbz5DPvN,2020-0188,2021-10-30,14:48:16,16:10:52,NA,incomplete,false,true,NA,NA,1,34,NA,green,m_l_041.jpg,NA,NA,NA,NA,NA,pleasant,unpleasant,NA,NA,NA,NA,NA,left,1095.89999999851,true,NA,NA,NA,NA,NA,NA,NA,NA
Wbz5DPvN,3k2cedradeesg9mhvkrgq648pmomto,3sepori8wrcpn4klvbvvsn6hkczzas,Wbz5DPvN,2020-0188,2021-10-30,14:48:16,16:10:52,NA,incomplete,false,true,NA,NA,1,35,NA,green,m_s_097.jpg,NA,NA,NA,NA,NA,unpleasant,pleasant,NA,NA,NA,NA,NA,left,1491.90000000224,true,NA,NA,NA,NA,NA,NA,NA,NA
Wbz5DPvN,3k2cedradeesg9mhvkrgq648pmomto,3sepori8wrcpn4klvbvvsn6hkczzas,Wbz5DPvN,2020-0188,2021-10-30,14:48:16,16:10:52,NA,incomplete,false,NA,NA,true,1,0,NA,NA,NA,left,n_s_066.jpg,purple,blue,NA,NA,NA,NA,NA,NA,NA,NA,NA,NaN,NA,4511.699999999255,right,0,NA,NA,NA,NA,NA
Wbz5DPvN,3k2cedradeesg9mhvkrgq648pmomto,3sepori8wrcpn4klvbvvsn6hkczzas,Wbz5DPvN,2020-0188,2021-10-30,14:48:16,16:10:52,NA,incomplete,false,NA,NA,true,1,1,NA,NA,NA,left,n_l_006.jpg,gray,purple,NA,NA,NA,NA,NA,NA,NA,NA,NA,NaN,NA,2358.099999997765,left,1,NA,NA,NA,NA,NA
Wbz5DPvN,3k2cedradeesg9mhvkrgq648pmomto,3sepori8wrcpn4klvbvvsn6hkczzas,Wbz5DPvN,2020-0188,2021-10-30,14:48:16,16:10:52,NA,incomplete,false,NA,NA,true,1,2,NA,NA,NA,left,m_l_076.jpg,green,blue,NA,NA,NA,NA,NA,NA,NA,NA,NA,NaN,NA,2463.099999997765,left,1,NA,NA,NA,NA,NA
Wbz5DPvN,3k2cedradeesg9mhvkrgq648pmomto,3sepori8wrcpn4klvbvvsn6hkczzas,Wbz5DPvN,2020-0188,2021-10-30,14:48:16,16:10:52,NA,incomplete,false,NA,NA,true,1,3,NA,NA,NA,left,m_l_047.jpg,red,white,NA,NA,NA,NA,NA,NA,NA,NA,NA,NaN,NA,7215.300000000745,left,1,NA,NA,NA,NA,NA
Wbz5DPvN,3k2cedradeesg9mhvkrgq648pmomto,3sepori8wrcpn4klvbvvsn6hkczzas,Wbz5DPvN,2020-0188,2021-10-30,14:48:16,16:10:52,NA,incomplete,false,NA,NA,true,1,4,NA,NA,NA,left,m_l_017.jpg,blue,purple,NA,NA,NA,NA,NA,NA,NA,NA,NA,NaN,NA,9143.79999999702,left,1,NA,NA,NA,NA,NA
Wbz5DPvN,3k2cedradeesg9mhvkrgq648pmomto,3sepori8wrcpn4klvbvvsn6hkczzas,Wbz5DPvN,2020-0188,2021-10-30,14:48:16,16:10:52,NA,incomplete,false,NA,NA,true,1,5,NA,NA,NA,left,n_l_005.jpg,purple,blue,NA,NA,NA,NA,NA,NA,NA,NA,NA,NaN,NA,3148.300000000745,left,1,NA,NA,NA,NA,NA
Wbz5DPvN,3k2cedradeesg9mhvkrgq648pmomto,3sepori8wrcpn4klvbvvsn6hkczzas,Wbz5DPvN,2020-0188,2021-10-30,14:48:16,16:10:52,NA,incomplete,false,NA,NA,true,1,6,NA,NA,NA,left,n_s_033.jpg,blue,green,NA,NA,NA,NA,NA,NA,NA,NA,NA,NaN,NA,1694.800000000745,left,1,NA,NA,NA,NA,NA
Wbz5DPvN,3k2cedradeesg9mhvkrgq648pmomto,3sepori8wrcpn4klvbvvsn6hkczzas,Wbz5DPvN,2020-0188,2021-10-30,14:48:16,16:10:52,NA,incomplete,false,NA,NA,true,1,7,NA,NA,NA,left,m_s_001.jpg,blue,green,NA,NA,NA,NA,NA,NA,NA,NA,NA,NaN,NA,2090.5,left,1,NA,NA,NA,NA,NA
Wbz5DPvN,3k2cedradeesg9mhvkrgq648pmomto,3sepori8wrcpn4klvbvvsn6hkczzas,Wbz5DPvN,2020-0188,2021-10-30,14:48:16,16:10:52,NA,incomplete,false,NA,NA,true,1,8,NA,NA,NA,left,m_l_039.jpg,white,gray,NA,NA,NA,NA,NA,NA,NA,NA,NA,NaN,NA,9954,left,1,NA,NA,NA,NA,NA
Wbz5DPvN,3k2cedradeesg9mhvkrgq648pmomto,3sepori8wrcpn4klvbvvsn6hkczzas,Wbz5DPvN,2020-0188,2021-10-30,14:48:16,16:10:52,NA,incomplete,false,NA,NA,true,1,9,NA,NA,NA,left,m_s_019.jpg,gray,purple,NA,NA,NA,NA,NA,NA,NA,NA,NA,NaN,NA,1691.5,left,1,NA,NA,NA,NA,NA
Wbz5DPvN,3k2cedradeesg9mhvkrgq648pmomto,3sepori8wrcpn4klvbvvsn6hkczzas,Wbz5DPvN,2020-0188,2021-10-30,14:48:16,16:10:52,NA,incomplete,false,NA,NA,true,1,10,NA,NA,NA,right,m_l_086.jpg,purple,blue,NA,NA,NA,NA,NA,NA,NA,NA,NA,NaN,NA,5759.800000000745,right,1,NA,NA,NA,NA,NA
Wbz5DPvN,3k2cedradeesg9mhvkrgq648pmomto,3sepori8wrcpn4klvbvvsn6hkczzas,Wbz5DPvN,2020-0188,2021-10-30,14:48:16,16:10:52,NA,incomplete,false,NA,NA,true,1,11,NA,NA,NA,right,m_l_061.jpg,red,white,NA,NA,NA,NA,NA,NA,NA,NA,NA,NaN,NA,1905.6000000014901,right,1,NA,NA,NA,NA,NA
Wbz5DPvN,3k2cedradeesg9mhvkrgq648pmomto,3sepori8wrcpn4klvbvvsn6hkczzas,Wbz5DPvN,2020-0188,2021-10-30,14:48:16,16:10:52,NA,incomplete,false,NA,NA,true,1,12,NA,NA,NA,left,n_l_061.jpg,purple,blue,NA,NA,NA,NA,NA,NA,NA,NA,NA,NaN,NA,4642.70000000298,left,1,NA,NA,NA,NA,NA
Wbz5DPvN,3k2cedradeesg9mhvkrgq648pmomto,3sepori8wrcpn4klvbvvsn6hkczzas,Wbz5DPvN,2020-0188,2021-10-30,14:48:16,16:10:52,NA,incomplete,false,NA,NA,true,1,13,NA,NA,NA,left,n_l_007.jpg,red,white,NA,NA,NA,NA,NA,NA,NA,NA,NA,NaN,NA,1891.300000000745,left,1,NA,NA,NA,NA,NA
Wbz5DPvN,3k2cedradeesg9mhvkrgq648pmomto,3sepori8wrcpn4klvbvvsn6hkczzas,Wbz5DPvN,2020-0188,2021-10-30,14:48:16,16:10:52,NA,incomplete,false,NA,NA,true,1,14,NA,NA,NA,left,m_l_115.jpg,white,red,NA,NA,NA,NA,NA,NA,NA,NA,NA,NaN,NA,4493.800000000745,left,1,NA,NA,NA,NA,NA
Wbz5DPvN,3k2cedradeesg9mhvkrgq648pmomto,3sepori8wrcpn4klvbvvsn6hkczzas,Wbz5DPvN,2020-0188,2021-10-30,14:48:16,16:10:52,NA,incomplete,false,NA,NA,true,1,15,NA,NA,NA,left,m_s_097.jpg,green,blue,NA,NA,NA,NA,NA,NA,NA,NA,NA,NaN,NA,1619.6000000014901,left,1,NA,NA,NA,NA,NA
Wbz5DPvN,3k2cedradeesg9mhvkrgq648pmomto,3sepori8wrcpn4klvbvvsn6hkczzas,Wbz5DPvN,2020-0188,2021-10-30,14:48:16,16:10:52,NA,incomplete,false,NA,NA,true,1,16,NA,NA,NA,right,m_l_057.jpg,white,red,NA,NA,NA,NA,NA,NA,NA,NA,NA,NaN,NA,1903.1000000014901,left,0,NA,NA,NA,NA,NA
Wbz5DPvN,3k2cedradeesg9mhvkrgq648pmomto,3sepori8wrcpn4klvbvvsn6hkczzas,Wbz5DPvN,2020-0188,2021-10-30,14:48:16,16:10:52,NA,incomplete,false,NA,NA,true,1,17,NA,NA,NA,right,m_l_001.jpg,white,gray,NA,NA,NA,NA,NA,NA,NA,NA,NA,NaN,NA,1736.300000000745,right,1,NA,NA,NA,NA,NA
Wbz5DPvN,3k2cedradeesg9mhvkrgq648pmomto,3sepori8wrcpn4klvbvvsn6hkczzas,Wbz5DPvN,2020-0188,2021-10-30,14:48:16,16:10:52,NA,incomplete,false,NA,NA,true,1,18,NA,NA,NA,right,n_l_092.jpg,blue,purple,NA,NA,NA,NA,NA,NA,NA,NA,NA,NaN,NA,2499.10000000149,right,1,NA,NA,NA,NA,NA
Wbz5DPvN,3k2cedradeesg9mhvkrgq648pmomto,3sepori8wrcpn4klvbvvsn6hkczzas,Wbz5DPvN,2020-0188,2021-10-30,14:48:16,16:10:52,NA,incomplete,false,NA,NA,true,1,19,NA,NA,NA,right,m_s_069.jpg,gray,white,NA,NA,NA,NA,NA,NA,NA,NA,NA,NaN,NA,1768.5,right,1,NA,NA,NA,NA,NA
Wbz5DPvN,3k2cedradeesg9mhvkrgq648pmomto,3sepori8wrcpn4klvbvvsn6hkczzas,Wbz5DPvN,2020-0188,2021-10-30,14:48:16,16:10:52,NA,incomplete,false,NA,NA,true,1,20,NA,NA,NA,left,m_s_018.jpg,green,blue,NA,NA,NA,NA,NA,NA,NA,NA,NA,NaN,NA,2439.800000000745,left,1,NA,NA,NA,NA,NA
Wbz5DPvN,3k2cedradeesg9mhvkrgq648pmomto,3sepori8wrcpn4klvbvvsn6hkczzas,Wbz5DPvN,2020-0188,2021-10-30,14:48:16,16:10:52,NA,incomplete,false,NA,NA,true,1,21,NA,NA,NA,right,m_s_004.jpg,purple,gray,NA,NA,NA,NA,NA,NA,NA,NA,NA,NaN,NA,1394.699999999255,right,1,NA,NA,NA,NA,NA
Wbz5DPvN,3k2cedradeesg9mhvkrgq648pmomto,3sepori8wrcpn4klvbvvsn6hkczzas,Wbz5DPvN,2020-0188,2021-10-30,14:48:16,16:10:52,NA,incomplete,false,NA,true,NA,1,0,NA,NA,NA,right,NA,NA,NA,absent,NA,NA,n_l_061.jpg,purple,n_s_066.jpg,purple,within,NA,NaN,NA,NA,NA,NA,left,8523.60000000149,0,1,1747.5
Wbz5DPvN,3k2cedradeesg9mhvkrgq648pmomto,3sepori8wrcpn4klvbvvsn6hkczzas,Wbz5DPvN,2020-0188,2021-10-30,14:48:16,16:10:52,NA,incomplete,false,NA,true,NA,1,1,NA,NA,NA,right,NA,NA,NA,absent,NA,NA,m_s_019.jpg,gray,n_l_006.jpg,gray,within,NA,NaN,NA,NA,NA,NA,right,1917.3999999985099,1,1,1878
Wbz5DPvN,3k2cedradeesg9mhvkrgq648pmomto,3sepori8wrcpn4klvbvvsn6hkczzas,Wbz5DPvN,2020-0188,2021-10-30,14:48:16,16:10:52,NA,incomplete,false,NA,true,NA,1,2,NA,NA,NA,left,NA,NA,NA,absent,NA,NA,m_s_004.jpg,gray,n_l_092.jpg,purple,between,NA,NaN,NA,NA,NA,NA,left,3424,1,2,880.2000000029802
Wbz5DPvN,3k2cedradeesg9mhvkrgq648pmomto,3sepori8wrcpn4klvbvvsn6hkczzas,Wbz5DPvN,2020-0188,2021-10-30,14:48:16,16:10:52,NA,incomplete,false,NA,true,NA,1,3,NA,NA,NA,left,NA,NA,NA,absent,NA,NA,n_l_007.jpg,red,m_l_115.jpg,white,between,NA,NaN,NA,NA,NA,NA,right,5813.800000000745,0,2,1183.199999999255
Wbz5DPvN,3k2cedradeesg9mhvkrgq648pmomto,3sepori8wrcpn4klvbvvsn6hkczzas,Wbz5DPvN,2020-0188,2021-10-30,14:48:16,16:10:52,NA,incomplete,false,NA,true,NA,1,4,NA,NA,NA,right,NA,NA,NA,absent,NA,NA,m_l_086.jpg,blue,m_s_001.jpg,blue,within,NA,NaN,NA,NA,NA,NA,right,6243,1,1,1826.199999999255
Wbz5DPvN,3k2cedradeesg9mhvkrgq648pmomto,3sepori8wrcpn4klvbvvsn6hkczzas,Wbz5DPvN,2020-0188,2021-10-30,14:48:16,16:10:52,NA,incomplete,false,NA,true,NA,1,5,NA,NA,NA,right,NA,NA,NA,absent,NA,NA,m_l_001.jpg,gray,m_s_069.jpg,white,between,NA,NaN,NA,NA,NA,NA,right,8105.300000000745,1,2,2265.5
Wbz5DPvN,3k2cedradeesg9mhvkrgq648pmomto,3sepori8wrcpn4klvbvvsn6hkczzas,Wbz5DPvN,2020-0188,2021-10-30,14:48:16,16:10:52,NA,incomplete,false,NA,true,NA,1,6,NA,NA,NA,right,NA,NA,NA,absent,NA,NA,m_l_047.jpg,red,m_l_057.jpg,red,within,NA,NaN,NA,NA,NA,NA,right,3690.60000000149,1,2,2724.099999997765
Wbz5DPvN,3k2cedradeesg9mhvkrgq648pmomto,3sepori8wrcpn4klvbvvsn6hkczzas,Wbz5DPvN,2020-0188,2021-10-30,14:48:16,16:10:52,NA,incomplete,false,NA,true,NA,1,7,NA,NA,NA,left,NA,NA,NA,absent,NA,NA,n_l_005.jpg,purple,n_s_033.jpg,blue,between,NA,NaN,NA,NA,NA,NA,right,4813.79999999702,0,1,1961.4000000022352
Wbz5DPvN,3k2cedradeesg9mhvkrgq648pmomto,3sepori8wrcpn4klvbvvsn6hkczzas,Wbz5DPvN,2020-0188,2021-10-30,14:48:16,16:10:52,NA,incomplete,false,NA,true,NA,1,8,NA,NA,NA,right,NA,NA,NA,absent,NA,NA,m_l_039.jpg,white,m_l_061.jpg,white,within,NA,NaN,NA,NA,NA,NA,right,3156.599999997765,1,2,3103.300000000745
Wbz5DPvN,3k2cedradeesg9mhvkrgq648pmomto,3sepori8wrcpn4klvbvvsn6hkczzas,Wbz5DPvN,2020-0188,2021-10-30,14:48:16,16:10:52,NA,incomplete,false,NA,true,NA,1,9,NA,NA,NA,right,NA,NA,NA,absent,NA,NA,m_s_018.jpg,green,m_l_017.jpg,blue,between,NA,NaN,NA,NA,NA,NA,left,5815.5,0,1,1098.4000000022352
Wbz5DPvN,3k2cedradeesg9mhvkrgq648pmomto,3sepori8wrcpn4klvbvvsn6hkczzas,Wbz5DPvN,2020-0188,2021-10-30,14:48:16,16:10:52,NA,incomplete,false,NA,true,NA,1,10,NA,NA,NA,right,NA,NA,NA,absent,NA,NA,m_s_097.jpg,green,m_l_076.jpg,green,within,NA,NaN,NA,NA,NA,NA,right,2830.60000000149,1,0,1469.199999999255
Wbz5DPvN,3k2cedradeesg9mhvkrgq648pmomto,3sepori8wrcpn4klvbvvsn6hkczzas,Wbz5DPvN,2020-0188,2021-10-30,14:48:16,16:10:52,NA,incomplete,false,true,NA,NA,2,0,NA,orange,n_l_108.jpg,NA,NA,NA,NA,NA,unpleasant,pleasant,NA,NA,NA,NA,NA,right,2116.60000000149,true,NA,NA,NA,NA,NA,NA,NA,NA
Wbz5DPvN,3k2cedradeesg9mhvkrgq648pmomto,3sepori8wrcpn4klvbvvsn6hkczzas,Wbz5DPvN,2020-0188,2021-10-30,14:48:16,16:10:52,NA,incomplete,false,true,NA,NA,2,1,NA,orange,m_s_043.jpg,NA,NA,NA,NA,NA,unpleasant,pleasant,NA,NA,NA,NA,NA,right,1945.59999999776,true,NA,NA,NA,NA,NA,NA,NA,NA
Wbz5DPvN,3k2cedradeesg9mhvkrgq648pmomto,3sepori8wrcpn4klvbvvsn6hkczzas,Wbz5DPvN,2020-0188,2021-10-30,14:48:16,16:10:52,NA,incomplete,false,true,NA,NA,2,2,NA,orange,n_l_009.jpg,NA,NA,NA,NA,NA,unpleasant,pleasant,NA,NA,NA,NA,NA,right,1278.69999999925,true,NA,NA,NA,NA,NA,NA,NA,NA
Wbz5DPvN,3k2cedradeesg9mhvkrgq648pmomto,3sepori8wrcpn4klvbvvsn6hkczzas,Wbz5DPvN,2020-0188,2021-10-30,14:48:16,16:10:52,NA,incomplete,false,true,NA,NA,2,3,NA,orange,n_s_003.jpg,NA,NA,NA,NA,NA,pleasant,unpleasant,NA,NA,NA,NA,NA,right,1563.39999999851,true,NA,NA,NA,NA,NA,NA,NA,NA
Wbz5DPvN,3k2cedradeesg9mhvkrgq648pmomto,3sepori8wrcpn4klvbvvsn6hkczzas,Wbz5DPvN,2020-0188,2021-10-30,14:48:16,16:10:52,NA,incomplete,false,true,NA,NA,2,4,NA,orange,n_s_114.jpg,NA,NA,NA,NA,NA,unpleasant,pleasant,NA,NA,NA,NA,NA,right,1238.80000000075,true,NA,NA,NA,NA,NA,NA,NA,NA
Wbz5DPvN,3k2cedradeesg9mhvkrgq648pmomto,3sepori8wrcpn4klvbvvsn6hkczzas,Wbz5DPvN,2020-0188,2021-10-30,14:48:16,16:10:52,NA,incomplete,false,true,NA,NA,2,5,NA,orange,m_s_103.jpg,NA,NA,NA,NA,NA,pleasant,unpleasant,NA,NA,NA,NA,NA,left,1475.89999999851,true,NA,NA,NA,NA,NA,NA,NA,NA
Wbz5DPvN,3k2cedradeesg9mhvkrgq648pmomto,3sepori8wrcpn4klvbvvsn6hkczzas,Wbz5DPvN,2020-0188,2021-10-30,14:48:16,16:10:52,NA,incomplete,false,true,NA,NA,2,6,NA,blue,m_s_057.jpg,NA,NA,NA,NA,NA,unpleasant,pleasant,NA,NA,NA,NA,NA,left,2216.19999999925,true,NA,NA,NA,NA,NA,NA,NA,NA
Wbz5DPvN,3k2cedradeesg9mhvkrgq648pmomto,3sepori8wrcpn4klvbvvsn6hkczzas,Wbz5DPvN,2020-0188,2021-10-30,14:48:16,16:10:52,NA,incomplete,false,true,NA,NA,2,7,NA,blue,n_l_065.jpg,NA,NA,NA,NA,NA,unpleasant,pleasant,NA,NA,NA,NA,NA,left,1587.60000000149,true,NA,NA,NA,NA,NA,NA,NA,NA
Wbz5DPvN,3k2cedradeesg9mhvkrgq648pmomto,3sepori8wrcpn4klvbvvsn6hkczzas,Wbz5DPvN,2020-0188,2021-10-30,14:48:16,16:10:52,NA,incomplete,false,true,NA,NA,2,8,NA,blue,n_l_087.jpg,NA,NA,NA,NA,NA,pleasant,unpleasant,NA,NA,NA,NA,NA,right,1128.59999999776,true,NA,NA,NA,NA,NA,NA,NA,NA
Wbz5DPvN,3k2cedradeesg9mhvkrgq648pmomto,3sepori8wrcpn4klvbvvsn6hkczzas,Wbz5DPvN,2020-0188,2021-10-30,14:48:16,16:10:52,NA,incomplete,false,true,NA,NA,2,9,NA,blue,n_l_017.jpg,NA,NA,NA,NA,NA,unpleasant,pleasant,NA,NA,NA,NA,NA,right,2020.5,true,NA,NA,NA,NA,NA,NA,NA,NA
Wbz5DPvN,3k2cedradeesg9mhvkrgq648pmomto,3sepori8wrcpn4klvbvvsn6hkczzas,Wbz5DPvN,2020-0188,2021-10-30,14:48:16,16:10:52,NA,incomplete,false,true,NA,NA,2,10,NA,blue,m_s_100.jpg,NA,NA,NA,NA,NA,pleasant,unpleasant,NA,NA,NA,NA,NA,left,1289.5,true,NA,NA,NA,NA,NA,NA,NA,NA
Wbz5DPvN,3k2cedradeesg9mhvkrgq648pmomto,3sepori8wrcpn4klvbvvsn6hkczzas,Wbz5DPvN,2020-0188,2021-10-30,14:48:16,16:10:52,NA,incomplete,false,true,NA,NA,2,11,NA,blue,n_l_023.jpg,NA,NA,NA,NA,NA,unpleasant,pleasant,NA,NA,NA,NA,NA,right,2006,true,NA,NA,NA,NA,NA,NA,NA,NA
Wbz5DPvN,3k2cedradeesg9mhvkrgq648pmomto,3sepori8wrcpn4klvbvvsn6hkczzas,Wbz5DPvN,2020-0188,2021-10-30,14:48:16,16:10:52,NA,incomplete,false,true,NA,NA,2,12,NA,brown,m_l_080.jpg,NA,NA,NA,NA,NA,unpleasant,pleasant,NA,NA,NA,NA,NA,right,2049.30000000075,true,NA,NA,NA,NA,NA,NA,NA,NA
Wbz5DPvN,3k2cedradeesg9mhvkrgq648pmomto,3sepori8wrcpn4klvbvvsn6hkczzas,Wbz5DPvN,2020-0188,2021-10-30,14:48:16,16:10:52,NA,incomplete,false,true,NA,NA,2,13,NA,brown,n_s_013.jpg,NA,NA,NA,NA,NA,unpleasant,pleasant,NA,NA,NA,NA,NA,right,1492.60000000149,true,NA,NA,NA,NA,NA,NA,NA,NA
Wbz5DPvN,3k2cedradeesg9mhvkrgq648pmomto,3sepori8wrcpn4klvbvvsn6hkczzas,Wbz5DPvN,2020-0188,2021-10-30,14:48:16,16:10:52,NA,incomplete,false,true,NA,NA,2,14,NA,brown,m_s_028.jpg,NA,NA,NA,NA,NA,unpleasant,pleasant,NA,NA,NA,NA,NA,left,1058.29999999702,true,NA,NA,NA,NA,NA,NA,NA,NA
Wbz5DPvN,3k2cedradeesg9mhvkrgq648pmomto,3sepori8wrcpn4klvbvvsn6hkczzas,Wbz5DPvN,2020-0188,2021-10-30,14:48:16,16:10:52,NA,incomplete,false,true,NA,NA,2,15,NA,brown,m_l_107.jpg,NA,NA,NA,NA,NA,unpleasant,pleasant,NA,NA,NA,NA,NA,left,1558.60000000149,true,NA,NA,NA,NA,NA,NA,NA,NA
Wbz5DPvN,3k2cedradeesg9mhvkrgq648pmomto,3sepori8wrcpn4klvbvvsn6hkczzas,Wbz5DPvN,2020-0188,2021-10-30,14:48:16,16:10:52,NA,incomplete,false,true,NA,NA,2,16,NA,brown,m_s_011.jpg,NA,NA,NA,NA,NA,pleasant,unpleasant,NA,NA,NA,NA,NA,left,1707.09999999776,true,NA,NA,NA,NA,NA,NA,NA,NA
Wbz5DPvN,3k2cedradeesg9mhvkrgq648pmomto,3sepori8wrcpn4klvbvvsn6hkczzas,Wbz5DPvN,2020-0188,2021-10-30,14:48:16,16:10:52,NA,incomplete,false,true,NA,NA,2,17,NA,brown,n_l_037.jpg,NA,NA,NA,NA,NA,pleasant,unpleasant,NA,NA,NA,NA,NA,left,1447.69999999925,true,NA,NA,NA,NA,NA,NA,NA,NA
Wbz5DPvN,3k2cedradeesg9mhvkrgq648pmomto,3sepori8wrcpn4klvbvvsn6hkczzas,Wbz5DPvN,2020-0188,2021-10-30,14:48:16,16:10:52,NA,incomplete,false,true,NA,NA,2,18,NA,red,m_s_108.jpg,NA,NA,NA,NA,NA,pleasant,unpleasant,NA,NA,NA,NA,NA,left,2796.39999999851,true,NA,NA,NA,NA,NA,NA,NA,NA
Wbz5DPvN,3k2cedradeesg9mhvkrgq648pmomto,3sepori8wrcpn4klvbvvsn6hkczzas,Wbz5DPvN,2020-0188,2021-10-30,14:48:16,16:10:52,NA,incomplete,false,true,NA,NA,2,19,NA,red,m_s_012.jpg,NA,NA,NA,NA,NA,pleasant,unpleasant,NA,NA,NA,NA,NA,left,1015.39999999851,true,NA,NA,NA,NA,NA,NA,NA,NA
Wbz5DPvN,3k2cedradeesg9mhvkrgq648pmomto,3sepori8wrcpn4klvbvvsn6hkczzas,Wbz5DPvN,2020-0188,2021-10-30,14:48:16,16:10:52,NA,incomplete,false,true,NA,NA,2,20,NA,red,m_l_088.jpg,NA,NA,NA,NA,NA,pleasant,unpleasant,NA,NA,NA,NA,NA,right,2508.30000000075,true,NA,NA,NA,NA,NA,NA,NA,NA
Wbz5DPvN,3k2cedradeesg9mhvkrgq648pmomto,3sepori8wrcpn4klvbvvsn6hkczzas,Wbz5DPvN,2020-0188,2021-10-30,14:48:16,16:10:52,NA,incomplete,false,true,NA,NA,2,21,NA,red,m_l_116.jpg,NA,NA,NA,NA,NA,pleasant,unpleasant,NA,NA,NA,NA,NA,left,1105.40000000224,true,NA,NA,NA,NA,NA,NA,NA,NA
Wbz5DPvN,3k2cedradeesg9mhvkrgq648pmomto,3sepori8wrcpn4klvbvvsn6hkczzas,Wbz5DPvN,2020-0188,2021-10-30,14:48:16,16:10:52,NA,incomplete,false,true,NA,NA,2,22,NA,red,n_s_046.jpg,NA,NA,NA,NA,NA,pleasant,unpleasant,NA,NA,NA,NA,NA,right,1333,true,NA,NA,NA,NA,NA,NA,NA,NA
Wbz5DPvN,3k2cedradeesg9mhvkrgq648pmomto,3sepori8wrcpn4klvbvvsn6hkczzas,Wbz5DPvN,2020-0188,2021-10-30,14:48:16,16:10:52,NA,incomplete,false,true,NA,NA,2,23,NA,red,n_l_046.jpg,NA,NA,NA,NA,NA,pleasant,unpleasant,NA,NA,NA,NA,NA,right,1345.10000000149,true,NA,NA,NA,NA,NA,NA,NA,NA
Wbz5DPvN,3k2cedradeesg9mhvkrgq648pmomto,3sepori8wrcpn4klvbvvsn6hkczzas,Wbz5DPvN,2020-0188,2021-10-30,14:48:16,16:10:52,NA,incomplete,false,true,NA,NA,2,24,NA,purple,m_l_009.jpg,NA,NA,NA,NA,NA,pleasant,unpleasant,NA,NA,NA,NA,NA,right,1989.60000000149,true,NA,NA,NA,NA,NA,NA,NA,NA
Wbz5DPvN,3k2cedradeesg9mhvkrgq648pmomto,3sepori8wrcpn4klvbvvsn6hkczzas,Wbz5DPvN,2020-0188,2021-10-30,14:48:16,16:10:52,NA,incomplete,false,true,NA,NA,2,25,NA,purple,n_l_025.jpg,NA,NA,NA,NA,NA,pleasant,unpleasant,NA,NA,NA,NA,NA,right,2170.5,true,NA,NA,NA,NA,NA,NA,NA,NA
Wbz5DPvN,3k2cedradeesg9mhvkrgq648pmomto,3sepori8wrcpn4klvbvvsn6hkczzas,Wbz5DPvN,2020-0188,2021-10-30,14:48:16,16:10:52,NA,incomplete,false,true,NA,NA,2,26,NA,purple,m_s_034.jpg,NA,NA,NA,NA,NA,unpleasant,pleasant,NA,NA,NA,NA,NA,right,1358.30000000075,true,NA,NA,NA,NA,NA,NA,NA,NA
Wbz5DPvN,3k2cedradeesg9mhvkrgq648pmomto,3sepori8wrcpn4klvbvvsn6hkczzas,Wbz5DPvN,2020-0188,2021-10-30,14:48:16,16:10:52,NA,incomplete,false,true,NA,NA,2,27,NA,purple,n_s_071.jpg,NA,NA,NA,NA,NA,unpleasant,pleasant,NA,NA,NA,NA,NA,left,1538.80000000075,true,NA,NA,NA,NA,NA,NA,NA,NA
Wbz5DPvN,3k2cedradeesg9mhvkrgq648pmomto,3sepori8wrcpn4klvbvvsn6hkczzas,Wbz5DPvN,2020-0188,2021-10-30,14:48:16,16:10:52,NA,incomplete,false,true,NA,NA,2,28,NA,purple,n_s_043.jpg,NA,NA,NA,NA,NA,unpleasant,pleasant,NA,NA,NA,NA,NA,left,1334.69999999925,true,NA,NA,NA,NA,NA,NA,NA,NA
Wbz5DPvN,3k2cedradeesg9mhvkrgq648pmomto,3sepori8wrcpn4klvbvvsn6hkczzas,Wbz5DPvN,2020-0188,2021-10-30,14:48:16,16:10:52,NA,incomplete,false,true,NA,NA,2,29,NA,purple,n_l_073.jpg,NA,NA,NA,NA,NA,pleasant,unpleasant,NA,NA,NA,NA,NA,right,1594.80000000075,true,NA,NA,NA,NA,NA,NA,NA,NA
Wbz5DPvN,3k2cedradeesg9mhvkrgq648pmomto,3sepori8wrcpn4klvbvvsn6hkczzas,Wbz5DPvN,2020-0188,2021-10-30,14:48:16,16:10:52,NA,incomplete,false,true,NA,NA,2,30,NA,black,n_l_081.jpg,NA,NA,NA,NA,NA,pleasant,unpleasant,NA,NA,NA,NA,NA,right,2553,true,NA,NA,NA,NA,NA,NA,NA,NA
Wbz5DPvN,3k2cedradeesg9mhvkrgq648pmomto,3sepori8wrcpn4klvbvvsn6hkczzas,Wbz5DPvN,2020-0188,2021-10-30,14:48:16,16:10:52,NA,incomplete,false,true,NA,NA,2,31,NA,black,m_s_041.jpg,NA,NA,NA,NA,NA,unpleasant,pleasant,NA,NA,NA,NA,NA,right,1258.80000000075,true,NA,NA,NA,NA,NA,NA,NA,NA
Wbz5DPvN,3k2cedradeesg9mhvkrgq648pmomto,3sepori8wrcpn4klvbvvsn6hkczzas,Wbz5DPvN,2020-0188,2021-10-30,14:48:16,16:10:52,NA,incomplete,false,true,NA,NA,2,32,NA,black,m_s_107.jpg,NA,NA,NA,NA,NA,unpleasant,pleasant,NA,NA,NA,NA,NA,left,2288.39999999851,true,NA,NA,NA,NA,NA,NA,NA,NA
Wbz5DPvN,3k2cedradeesg9mhvkrgq648pmomto,3sepori8wrcpn4klvbvvsn6hkczzas,Wbz5DPvN,2020-0188,2021-10-30,14:48:16,16:10:52,NA,incomplete,false,true,NA,NA,2,33,NA,black,m_l_049.jpg,NA,NA,NA,NA,NA,unpleasant,pleasant,NA,NA,NA,NA,NA,left,2284.60000000149,true,NA,NA,NA,NA,NA,NA,NA,NA
Wbz5DPvN,3k2cedradeesg9mhvkrgq648pmomto,3sepori8wrcpn4klvbvvsn6hkczzas,Wbz5DPvN,2020-0188,2021-10-30,14:48:16,16:10:52,NA,incomplete,false,true,NA,NA,2,34,NA,black,m_l_048.jpg,NA,NA,NA,NA,NA,pleasant,unpleasant,NA,NA,NA,NA,NA,right,2800.30000000075,true,NA,NA,NA,NA,NA,NA,NA,NA
Wbz5DPvN,3k2cedradeesg9mhvkrgq648pmomto,3sepori8wrcpn4klvbvvsn6hkczzas,Wbz5DPvN,2020-0188,2021-10-30,14:48:16,16:10:52,NA,incomplete,false,true,NA,NA,2,35,NA,black,n_l_054.jpg,NA,NA,NA,NA,NA,pleasant,unpleasant,NA,NA,NA,NA,NA,left,1013.5,true,NA,NA,NA,NA,NA,NA,NA,NA
Wbz5DPvN,3k2cedradeesg9mhvkrgq648pmomto,3sepori8wrcpn4klvbvvsn6hkczzas,Wbz5DPvN,2020-0188,2021-10-30,14:48:16,16:10:52,NA,incomplete,false,NA,NA,true,2,0,NA,NA,NA,right,n_l_054.jpg,purple,black,NA,NA,NA,NA,NA,NA,NA,NA,NA,NaN,NA,1896,right,1,NA,NA,NA,NA,NA
Wbz5DPvN,3k2cedradeesg9mhvkrgq648pmomto,3sepori8wrcpn4klvbvvsn6hkczzas,Wbz5DPvN,2020-0188,2021-10-30,14:48:16,16:10:52,NA,incomplete,false,NA,NA,true,2,1,NA,NA,NA,right,n_l_073.jpg,red,purple,NA,NA,NA,NA,NA,NA,NA,NA,NA,NaN,NA,7279.199999999255,right,1,NA,NA,NA,NA,NA
Wbz5DPvN,3k2cedradeesg9mhvkrgq648pmomto,3sepori8wrcpn4klvbvvsn6hkczzas,Wbz5DPvN,2020-0188,2021-10-30,14:48:16,16:10:52,NA,incomplete,false,NA,NA,true,2,2,NA,NA,NA,right,m_s_043.jpg,blue,orange,NA,NA,NA,NA,NA,NA,NA,NA,NA,NaN,NA,2327.300000000745,right,1,NA,NA,NA,NA,NA
Wbz5DPvN,3k2cedradeesg9mhvkrgq648pmomto,3sepori8wrcpn4klvbvvsn6hkczzas,Wbz5DPvN,2020-0188,2021-10-30,14:48:16,16:10:52,NA,incomplete,false,NA,NA,true,2,3,NA,NA,NA,right,n_l_065.jpg,orange,blue,NA,NA,NA,NA,NA,NA,NA,NA,NA,NaN,NA,3959.60000000149,right,1,NA,NA,NA,NA,NA
Wbz5DPvN,3k2cedradeesg9mhvkrgq648pmomto,3sepori8wrcpn4klvbvvsn6hkczzas,Wbz5DPvN,2020-0188,2021-10-30,14:48:16,16:10:52,NA,incomplete,false,NA,NA,true,2,4,NA,NA,NA,right,m_l_088.jpg,purple,red,NA,NA,NA,NA,NA,NA,NA,NA,NA,NaN,NA,1610.199999999255,right,1,NA,NA,NA,NA,NA
Wbz5DPvN,3k2cedradeesg9mhvkrgq648pmomto,3sepori8wrcpn4klvbvvsn6hkczzas,Wbz5DPvN,2020-0188,2021-10-30,14:48:16,16:10:52,NA,incomplete,false,NA,NA,true,2,5,NA,NA,NA,left,m_s_041.jpg,black,purple,NA,NA,NA,NA,NA,NA,NA,NA,NA,NaN,NA,3045.7000000029802,left,1,NA,NA,NA,NA,NA
Wbz5DPvN,3k2cedradeesg9mhvkrgq648pmomto,3sepori8wrcpn4klvbvvsn6hkczzas,Wbz5DPvN,2020-0188,2021-10-30,14:48:16,16:10:52,NA,incomplete,false,NA,NA,true,2,6,NA,NA,NA,left,m_s_034.jpg,purple,red,NA,NA,NA,NA,NA,NA,NA,NA,NA,NaN,NA,1780,left,1,NA,NA,NA,NA,NA
Wbz5DPvN,3k2cedradeesg9mhvkrgq648pmomto,3sepori8wrcpn4klvbvvsn6hkczzas,Wbz5DPvN,2020-0188,2021-10-30,14:48:16,16:10:52,NA,incomplete,false,NA,NA,true,2,7,NA,NA,NA,right,n_s_043.jpg,red,purple,NA,NA,NA,NA,NA,NA,NA,NA,NA,NaN,NA,3574,right,1,NA,NA,NA,NA,NA
Wbz5DPvN,3k2cedradeesg9mhvkrgq648pmomto,3sepori8wrcpn4klvbvvsn6hkczzas,Wbz5DPvN,2020-0188,2021-10-30,14:48:16,16:10:52,NA,incomplete,false,NA,NA,true,2,8,NA,NA,NA,left,m_s_103.jpg,orange,blue,NA,NA,NA,NA,NA,NA,NA,NA,NA,NaN,NA,2084.400000002235,left,1,NA,NA,NA,NA,NA
Wbz5DPvN,3k2cedradeesg9mhvkrgq648pmomto,3sepori8wrcpn4klvbvvsn6hkczzas,Wbz5DPvN,2020-0188,2021-10-30,14:48:16,16:10:52,NA,incomplete,false,NA,NA,true,2,9,NA,NA,NA,right,n_s_114.jpg,blue,orange,NA,NA,NA,NA,NA,NA,NA,NA,NA,NaN,NA,2472,right,1,NA,NA,NA,NA,NA
Wbz5DPvN,3k2cedradeesg9mhvkrgq648pmomto,3sepori8wrcpn4klvbvvsn6hkczzas,Wbz5DPvN,2020-0188,2021-10-30,14:48:16,16:10:52,NA,incomplete,false,NA,NA,true,2,10,NA,NA,NA,left,m_s_012.jpg,red,brown,NA,NA,NA,NA,NA,NA,NA,NA,NA,NaN,NA,3305.099999997765,left,1,NA,NA,NA,NA,NA
Wbz5DPvN,3k2cedradeesg9mhvkrgq648pmomto,3sepori8wrcpn4klvbvvsn6hkczzas,Wbz5DPvN,2020-0188,2021-10-30,14:48:16,16:10:52,NA,incomplete,false,NA,NA,true,2,11,NA,NA,NA,right,m_s_028.jpg,red,brown,NA,NA,NA,NA,NA,NA,NA,NA,NA,NaN,NA,3511.099999997765,right,1,NA,NA,NA,NA,NA
Wbz5DPvN,3k2cedradeesg9mhvkrgq648pmomto,3sepori8wrcpn4klvbvvsn6hkczzas,Wbz5DPvN,2020-0188,2021-10-30,14:48:16,16:10:52,NA,incomplete,false,NA,NA,true,2,12,NA,NA,NA,right,m_s_107.jpg,purple,black,NA,NA,NA,NA,NA,NA,NA,NA,NA,NaN,NA,1887.0999999977648,right,1,NA,NA,NA,NA,NA
Wbz5DPvN,3k2cedradeesg9mhvkrgq648pmomto,3sepori8wrcpn4klvbvvsn6hkczzas,Wbz5DPvN,2020-0188,2021-10-30,14:48:16,16:10:52,NA,incomplete,false,NA,NA,true,2,13,NA,NA,NA,right,n_l_037.jpg,red,brown,NA,NA,NA,NA,NA,NA,NA,NA,NA,NaN,NA,4485,right,1,NA,NA,NA,NA,NA
Wbz5DPvN,3k2cedradeesg9mhvkrgq648pmomto,3sepori8wrcpn4klvbvvsn6hkczzas,Wbz5DPvN,2020-0188,2021-10-30,14:48:16,16:10:52,NA,incomplete,false,NA,NA,true,2,14,NA,NA,NA,right,n_l_087.jpg,orange,blue,NA,NA,NA,NA,NA,NA,NA,NA,NA,NaN,NA,2381.199999999255,left,0,NA,NA,NA,NA,NA
Wbz5DPvN,3k2cedradeesg9mhvkrgq648pmomto,3sepori8wrcpn4klvbvvsn6hkczzas,Wbz5DPvN,2020-0188,2021-10-30,14:48:16,16:10:52,NA,incomplete,false,NA,NA,true,2,15,NA,NA,NA,right,m_s_100.jpg,brown,blue,NA,NA,NA,NA,NA,NA,NA,NA,NA,NaN,NA,5212.300000000745,right,1,NA,NA,NA,NA,NA
Wbz5DPvN,3k2cedradeesg9mhvkrgq648pmomto,3sepori8wrcpn4klvbvvsn6hkczzas,Wbz5DPvN,2020-0188,2021-10-30,14:48:16,16:10:52,NA,incomplete,false,NA,NA,true,2,16,NA,NA,NA,left,n_l_025.jpg,purple,red,NA,NA,NA,NA,NA,NA,NA,NA,NA,NaN,NA,1598.699999999255,left,1,NA,NA,NA,NA,NA
Wbz5DPvN,3k2cedradeesg9mhvkrgq648pmomto,3sepori8wrcpn4klvbvvsn6hkczzas,Wbz5DPvN,2020-0188,2021-10-30,14:48:16,16:10:52,NA,incomplete,false,NA,NA,true,2,17,NA,NA,NA,right,m_s_011.jpg,blue,brown,NA,NA,NA,NA,NA,NA,NA,NA,NA,NaN,NA,3227.199999999255,right,1,NA,NA,NA,NA,NA
Wbz5DPvN,3k2cedradeesg9mhvkrgq648pmomto,3sepori8wrcpn4klvbvvsn6hkczzas,Wbz5DPvN,2020-0188,2021-10-30,14:48:16,16:10:52,NA,incomplete,false,NA,NA,true,2,18,NA,NA,NA,right,n_s_013.jpg,red,brown,NA,NA,NA,NA,NA,NA,NA,NA,NA,NaN,NA,3712.199999999255,right,1,NA,NA,NA,NA,NA
Wbz5DPvN,3k2cedradeesg9mhvkrgq648pmomto,3sepori8wrcpn4klvbvvsn6hkczzas,Wbz5DPvN,2020-0188,2021-10-30,14:48:16,16:10:52,NA,incomplete,false,NA,NA,true,2,19,NA,NA,NA,left,n_l_046.jpg,red,purple,NA,NA,NA,NA,NA,NA,NA,NA,NA,NaN,NA,1891.199999999255,right,0,NA,NA,NA,NA,NA
Wbz5DPvN,3k2cedradeesg9mhvkrgq648pmomto,3sepori8wrcpn4klvbvvsn6hkczzas,Wbz5DPvN,2020-0188,2021-10-30,14:48:16,16:10:52,NA,incomplete,false,NA,NA,true,2,20,NA,NA,NA,right,n_l_023.jpg,brown,blue,NA,NA,NA,NA,NA,NA,NA,NA,NA,NaN,NA,2652.2999999970198,right,1,NA,NA,NA,NA,NA
Wbz5DPvN,3k2cedradeesg9mhvkrgq648pmomto,3sepori8wrcpn4klvbvvsn6hkczzas,Wbz5DPvN,2020-0188,2021-10-30,14:48:16,16:10:52,NA,incomplete,false,NA,NA,true,2,21,NA,NA,NA,right,n_s_046.jpg,brown,red,NA,NA,NA,NA,NA,NA,NA,NA,NA,NaN,NA,1571.199999999255,right,1,NA,NA,NA,NA,NA
Wbz5DPvN,3k2cedradeesg9mhvkrgq648pmomto,3sepori8wrcpn4klvbvvsn6hkczzas,Wbz5DPvN,2020-0188,2021-10-30,14:48:16,16:10:52,NA,incomplete,false,NA,true,NA,2,0,NA,NA,NA,left,NA,NA,NA,absent,NA,NA,m_s_043.jpg,orange,m_s_103.jpg,orange,within,NA,NaN,NA,NA,NA,NA,left,4185.10000000149,1,2,1609.699999999255
Wbz5DPvN,3k2cedradeesg9mhvkrgq648pmomto,3sepori8wrcpn4klvbvvsn6hkczzas,Wbz5DPvN,2020-0188,2021-10-30,14:48:16,16:10:52,NA,incomplete,false,NA,true,NA,2,1,NA,NA,NA,left,NA,NA,NA,absent,NA,NA,n_l_025.jpg,purple,n_l_073.jpg,purple,within,NA,NaN,NA,NA,NA,NA,right,4291,0,1,995.5
Wbz5DPvN,3k2cedradeesg9mhvkrgq648pmomto,3sepori8wrcpn4klvbvvsn6hkczzas,Wbz5DPvN,2020-0188,2021-10-30,14:48:16,16:10:52,NA,incomplete,false,NA,true,NA,2,2,NA,NA,NA,left,NA,NA,NA,absent,NA,NA,n_s_043.jpg,purple,m_s_107.jpg,black,between,NA,NaN,NA,NA,NA,NA,left,2584.10000000149,1,1,846.6000000014901
Wbz5DPvN,3k2cedradeesg9mhvkrgq648pmomto,3sepori8wrcpn4klvbvvsn6hkczzas,Wbz5DPvN,2020-0188,2021-10-30,14:48:16,16:10:52,NA,incomplete,false,NA,true,NA,2,3,NA,NA,NA,left,NA,NA,NA,absent,NA,NA,m_s_012.jpg,red,n_l_046.jpg,red,within,NA,NaN,NA,NA,NA,NA,left,2013.5,1,2,1081.6000000014901
Wbz5DPvN,3k2cedradeesg9mhvkrgq648pmomto,3sepori8wrcpn4klvbvvsn6hkczzas,Wbz5DPvN,2020-0188,2021-10-30,14:48:16,16:10:52,NA,incomplete,false,NA,true,NA,2,4,NA,NA,NA,right,NA,NA,NA,absent,NA,NA,n_l_054.jpg,black,m_s_041.jpg,black,within,NA,NaN,NA,NA,NA,NA,right,3806.89999999851,1,0,916.9000000022352
Wbz5DPvN,3k2cedradeesg9mhvkrgq648pmomto,3sepori8wrcpn4klvbvvsn6hkczzas,Wbz5DPvN,2020-0188,2021-10-30,14:48:16,16:10:52,NA,incomplete,false,NA,true,NA,2,5,NA,NA,NA,right,NA,NA,NA,absent,NA,NA,n_l_023.jpg,blue,n_l_065.jpg,blue,within,NA,NaN,NA,NA,NA,NA,right,2323.5,1,1,3502.89999999851
Wbz5DPvN,3k2cedradeesg9mhvkrgq648pmomto,3sepori8wrcpn4klvbvvsn6hkczzas,Wbz5DPvN,2020-0188,2021-10-30,14:48:16,16:10:52,NA,incomplete,false,NA,true,NA,2,6,NA,NA,NA,right,NA,NA,NA,absent,NA,NA,n_l_087.jpg,blue,n_s_114.jpg,orange,between,NA,NaN,NA,NA,NA,NA,left,3046.300000000745,0,1,1506
Wbz5DPvN,3k2cedradeesg9mhvkrgq648pmomto,3sepori8wrcpn4klvbvvsn6hkczzas,Wbz5DPvN,2020-0188,2021-10-30,14:48:16,16:10:52,NA,incomplete,false,NA,true,NA,2,7,NA,NA,NA,right,NA,NA,NA,absent,NA,NA,n_l_037.jpg,brown,n_s_013.jpg,brown,within,NA,NaN,NA,NA,NA,NA,right,4121.699999999255,1,1,1150.5
Wbz5DPvN,3k2cedradeesg9mhvkrgq648pmomto,3sepori8wrcpn4klvbvvsn6hkczzas,Wbz5DPvN,2020-0188,2021-10-30,14:48:16,16:10:52,NA,incomplete,false,NA,true,NA,2,8,NA,NA,NA,left,NA,NA,NA,absent,NA,NA,m_s_011.jpg,brown,m_l_088.jpg,red,between,NA,NaN,NA,NA,NA,NA,right,4366.20000000298,0,1,1164
Wbz5DPvN,3k2cedradeesg9mhvkrgq648pmomto,3sepori8wrcpn4klvbvvsn6hkczzas,Wbz5DPvN,2020-0188,2021-10-30,14:48:16,16:10:52,NA,incomplete,false,NA,true,NA,2,9,NA,NA,NA,right,NA,NA,NA,absent,NA,NA,m_s_034.jpg,purple,n_s_046.jpg,red,between,NA,NaN,NA,NA,NA,NA,right,4006.5,1,2,1198
Wbz5DPvN,3k2cedradeesg9mhvkrgq648pmomto,3sepori8wrcpn4klvbvvsn6hkczzas,Wbz5DPvN,2020-0188,2021-10-30,14:48:16,16:10:52,NA,incomplete,false,NA,true,NA,2,10,NA,NA,NA,left,NA,NA,NA,absent,NA,NA,m_s_100.jpg,blue,m_s_028.jpg,brown,between,NA,NaN,NA,NA,NA,NA,right,3515.5,0,3,1524.699999999255
Wbz5DPvN,3k2cedradeesg9mhvkrgq648pmomto,3sepori8wrcpn4klvbvvsn6hkczzas,Wbz5DPvN,2020-0188,2021-10-30,14:48:16,16:10:52,NA,incomplete,false,true,NA,NA,3,0,NA,red,m_s_058.jpg,NA,NA,NA,NA,NA,unpleasant,pleasant,NA,NA,NA,NA,NA,right,2320.5,true,NA,NA,NA,NA,NA,NA,NA,NA
Wbz5DPvN,3k2cedradeesg9mhvkrgq648pmomto,3sepori8wrcpn4klvbvvsn6hkczzas,Wbz5DPvN,2020-0188,2021-10-30,14:48:16,16:10:52,NA,incomplete,false,true,NA,NA,3,1,NA,red,n_l_052.jpg,NA,NA,NA,NA,NA,unpleasant,pleasant,NA,NA,NA,NA,NA,left,1795.59999999776,true,NA,NA,NA,NA,NA,NA,NA,NA
Wbz5DPvN,3k2cedradeesg9mhvkrgq648pmomto,3sepori8wrcpn4klvbvvsn6hkczzas,Wbz5DPvN,2020-0188,2021-10-30,14:48:16,16:10:52,NA,incomplete,false,true,NA,NA,3,2,NA,red,n_l_057.jpg,NA,NA,NA,NA,NA,unpleasant,pleasant,NA,NA,NA,NA,NA,left,1153.19999999925,true,NA,NA,NA,NA,NA,NA,NA,NA
Wbz5DPvN,3k2cedradeesg9mhvkrgq648pmomto,3sepori8wrcpn4klvbvvsn6hkczzas,Wbz5DPvN,2020-0188,2021-10-30,14:48:16,16:10:52,NA,incomplete,false,true,NA,NA,3,3,NA,red,n_s_014.jpg,NA,NA,NA,NA,NA,unpleasant,pleasant,NA,NA,NA,NA,NA,left,1428.80000000075,true,NA,NA,NA,NA,NA,NA,NA,NA
Wbz5DPvN,3k2cedradeesg9mhvkrgq648pmomto,3sepori8wrcpn4klvbvvsn6hkczzas,Wbz5DPvN,2020-0188,2021-10-30,14:48:16,16:10:52,NA,incomplete,false,true,NA,NA,3,4,NA,red,n_s_060.jpg,NA,NA,NA,NA,NA,unpleasant,pleasant,NA,NA,NA,NA,NA,right,1521.29999999702,true,NA,NA,NA,NA,NA,NA,NA,NA
Wbz5DPvN,3k2cedradeesg9mhvkrgq648pmomto,3sepori8wrcpn4klvbvvsn6hkczzas,Wbz5DPvN,2020-0188,2021-10-30,14:48:16,16:10:52,NA,incomplete,false,true,NA,NA,3,5,NA,red,n_s_035.jpg,NA,NA,NA,NA,NA,pleasant,unpleasant,NA,NA,NA,NA,NA,left,2540.5,true,NA,NA,NA,NA,NA,NA,NA,NA
Wbz5DPvN,3k2cedradeesg9mhvkrgq648pmomto,3sepori8wrcpn4klvbvvsn6hkczzas,Wbz5DPvN,2020-0188,2021-10-30,14:48:16,16:10:52,NA,incomplete,false,true,NA,NA,3,6,NA,green,m_s_095.jpg,NA,NA,NA,NA,NA,pleasant,unpleasant,NA,NA,NA,NA,NA,left,1600.59999999776,true,NA,NA,NA,NA,NA,NA,NA,NA
Wbz5DPvN,3k2cedradeesg9mhvkrgq648pmomto,3sepori8wrcpn4klvbvvsn6hkczzas,Wbz5DPvN,2020-0188,2021-10-30,14:48:16,16:10:52,NA,incomplete,false,true,NA,NA,3,7,NA,green,m_l_102.jpg,NA,NA,NA,NA,NA,pleasant,unpleasant,NA,NA,NA,NA,NA,left,1349.40000000224,true,NA,NA,NA,NA,NA,NA,NA,NA
Wbz5DPvN,3k2cedradeesg9mhvkrgq648pmomto,3sepori8wrcpn4klvbvvsn6hkczzas,Wbz5DPvN,2020-0188,2021-10-30,14:48:16,16:10:52,NA,incomplete,false,true,NA,NA,3,8,NA,green,m_s_060.jpg,NA,NA,NA,NA,NA,pleasant,unpleasant,NA,NA,NA,NA,NA,right,1297.60000000149,true,NA,NA,NA,NA,NA,NA,NA,NA
Wbz5DPvN,3k2cedradeesg9mhvkrgq648pmomto,3sepori8wrcpn4klvbvvsn6hkczzas,Wbz5DPvN,2020-0188,2021-10-30,14:48:16,16:10:52,NA,incomplete,false,true,NA,NA,3,9,NA,green,m_l_029.jpg,NA,NA,NA,NA,NA,pleasant,unpleasant,NA,NA,NA,NA,NA,left,1270.80000000075,true,NA,NA,NA,NA,NA,NA,NA,NA
Wbz5DPvN,3k2cedradeesg9mhvkrgq648pmomto,3sepori8wrcpn4klvbvvsn6hkczzas,Wbz5DPvN,2020-0188,2021-10-30,14:48:16,16:10:52,NA,incomplete,false,true,NA,NA,3,10,NA,green,m_s_082.jpg,NA,NA,NA,NA,NA,unpleasant,pleasant,NA,NA,NA,NA,NA,right,1106.60000000149,true,NA,NA,NA,NA,NA,NA,NA,NA
Wbz5DPvN,3k2cedradeesg9mhvkrgq648pmomto,3sepori8wrcpn4klvbvvsn6hkczzas,Wbz5DPvN,2020-0188,2021-10-30,14:48:16,16:10:52,NA,incomplete,false,true,NA,NA,3,11,NA,green,m_s_010.jpg,NA,NA,NA,NA,NA,unpleasant,pleasant,NA,NA,NA,NA,NA,right,2206.10000000149,true,NA,NA,NA,NA,NA,NA,NA,NA
Wbz5DPvN,3k2cedradeesg9mhvkrgq648pmomto,3sepori8wrcpn4klvbvvsn6hkczzas,Wbz5DPvN,2020-0188,2021-10-30,14:48:16,16:10:52,NA,incomplete,false,true,NA,NA,3,12,NA,white,m_l_060.jpg,NA,NA,NA,NA,NA,unpleasant,pleasant,NA,NA,NA,NA,NA,right,1986.40000000224,true,NA,NA,NA,NA,NA,NA,NA,NA
Wbz5DPvN,3k2cedradeesg9mhvkrgq648pmomto,3sepori8wrcpn4klvbvvsn6hkczzas,Wbz5DPvN,2020-0188,2021-10-30,14:48:16,16:10:52,NA,incomplete,false,true,NA,NA,3,13,NA,white,n_l_097.jpg,NA,NA,NA,NA,NA,pleasant,unpleasant,NA,NA,NA,NA,NA,left,2919.10000000149,true,NA,NA,NA,NA,NA,NA,NA,NA
Wbz5DPvN,3k2cedradeesg9mhvkrgq648pmomto,3sepori8wrcpn4klvbvvsn6hkczzas,Wbz5DPvN,2020-0188,2021-10-30,14:48:16,16:10:52,NA,incomplete,false,true,NA,NA,3,14,NA,white,n_l_016.jpg,NA,NA,NA,NA,NA,pleasant,unpleasant,NA,NA,NA,NA,NA,right,1473.90000000224,true,NA,NA,NA,NA,NA,NA,NA,NA
Wbz5DPvN,3k2cedradeesg9mhvkrgq648pmomto,3sepori8wrcpn4klvbvvsn6hkczzas,Wbz5DPvN,2020-0188,2021-10-30,14:48:16,16:10:52,NA,incomplete,false,true,NA,NA,3,15,NA,white,n_l_014.jpg,NA,NA,NA,NA,NA,pleasant,unpleasant,NA,NA,NA,NA,NA,right,1702.5,true,NA,NA,NA,NA,NA,NA,NA,NA
Wbz5DPvN,3k2cedradeesg9mhvkrgq648pmomto,3sepori8wrcpn4klvbvvsn6hkczzas,Wbz5DPvN,2020-0188,2021-10-30,14:48:16,16:10:52,NA,incomplete,false,true,NA,NA,3,16,NA,white,m_s_023.jpg,NA,NA,NA,NA,NA,pleasant,unpleasant,NA,NA,NA,NA,NA,left,1218.40000000224,true,NA,NA,NA,NA,NA,NA,NA,NA
Wbz5DPvN,3k2cedradeesg9mhvkrgq648pmomto,3sepori8wrcpn4klvbvvsn6hkczzas,Wbz5DPvN,2020-0188,2021-10-30,14:48:16,16:10:52,NA,incomplete,false,true,NA,NA,3,17,NA,white,n_s_081.jpg,NA,NA,NA,NA,NA,pleasant,unpleasant,NA,NA,NA,NA,NA,right,1637.80000000075,true,NA,NA,NA,NA,NA,NA,NA,NA
Wbz5DPvN,3k2cedradeesg9mhvkrgq648pmomto,3sepori8wrcpn4klvbvvsn6hkczzas,Wbz5DPvN,2020-0188,2021-10-30,14:48:16,16:10:52,NA,incomplete,false,true,NA,NA,3,18,NA,gray,m_s_081.jpg,NA,NA,NA,NA,NA,unpleasant,pleasant,NA,NA,NA,NA,NA,right,1818.60000000149,true,NA,NA,NA,NA,NA,NA,NA,NA
Wbz5DPvN,3k2cedradeesg9mhvkrgq648pmomto,3sepori8wrcpn4klvbvvsn6hkczzas,Wbz5DPvN,2020-0188,2021-10-30,14:48:16,16:10:52,NA,incomplete,false,true,NA,NA,3,19,NA,gray,m_l_096.jpg,NA,NA,NA,NA,NA,pleasant,unpleasant,NA,NA,NA,NA,NA,right,2350.60000000149,true,NA,NA,NA,NA,NA,NA,NA,NA
Wbz5DPvN,3k2cedradeesg9mhvkrgq648pmomto,3sepori8wrcpn4klvbvvsn6hkczzas,Wbz5DPvN,2020-0188,2021-10-30,14:48:16,16:10:52,NA,incomplete,false,true,NA,NA,3,20,NA,gray,n_l_103.jpg,NA,NA,NA,NA,NA,unpleasant,pleasant,NA,NA,NA,NA,NA,left,2155.10000000149,true,NA,NA,NA,NA,NA,NA,NA,NA
Wbz5DPvN,3k2cedradeesg9mhvkrgq648pmomto,3sepori8wrcpn4klvbvvsn6hkczzas,Wbz5DPvN,2020-0188,2021-10-30,14:48:16,16:10:52,NA,incomplete,false,true,NA,NA,3,21,NA,gray,m_l_108.jpg,NA,NA,NA,NA,NA,unpleasant,pleasant,NA,NA,NA,NA,NA,right,1029,true,NA,NA,NA,NA,NA,NA,NA,NA
Wbz5DPvN,3k2cedradeesg9mhvkrgq648pmomto,3sepori8wrcpn4klvbvvsn6hkczzas,Wbz5DPvN,2020-0188,2021-10-30,14:48:16,16:10:52,NA,incomplete,false,true,NA,NA,3,22,NA,gray,n_l_077.jpg,NA,NA,NA,NA,NA,unpleasant,pleasant,NA,NA,NA,NA,NA,right,1187,true,NA,NA,NA,NA,NA,NA,NA,NA
Wbz5DPvN,3k2cedradeesg9mhvkrgq648pmomto,3sepori8wrcpn4klvbvvsn6hkczzas,Wbz5DPvN,2020-0188,2021-10-30,14:48:16,16:10:52,NA,incomplete,false,true,NA,NA,3,23,NA,gray,n_l_112.jpg,NA,NA,NA,NA,NA,unpleasant,pleasant,NA,NA,NA,NA,NA,right,2783.90000000224,true,NA,NA,NA,NA,NA,NA,NA,NA
Wbz5DPvN,3k2cedradeesg9mhvkrgq648pmomto,3sepori8wrcpn4klvbvvsn6hkczzas,Wbz5DPvN,2020-0188,2021-10-30,14:48:16,16:10:52,NA,incomplete,false,true,NA,NA,3,24,NA,yellow,m_l_073.jpg,NA,NA,NA,NA,NA,unpleasant,pleasant,NA,NA,NA,NA,NA,right,2820.30000000075,true,NA,NA,NA,NA,NA,NA,NA,NA
Wbz5DPvN,3k2cedradeesg9mhvkrgq648pmomto,3sepori8wrcpn4klvbvvsn6hkczzas,Wbz5DPvN,2020-0188,2021-10-30,14:48:16,16:10:52,NA,incomplete,false,true,NA,NA,3,25,NA,yellow,m_l_114.jpg,NA,NA,NA,NA,NA,pleasant,unpleasant,NA,NA,NA,NA,NA,right,1919.89999999851,true,NA,NA,NA,NA,NA,NA,NA,NA
Wbz5DPvN,3k2cedradeesg9mhvkrgq648pmomto,3sepori8wrcpn4klvbvvsn6hkczzas,Wbz5DPvN,2020-0188,2021-10-30,14:48:16,16:10:52,NA,incomplete,false,true,NA,NA,3,26,NA,yellow,m_l_089.jpg,NA,NA,NA,NA,NA,pleasant,unpleasant,NA,NA,NA,NA,NA,right,1283.70000000298,true,NA,NA,NA,NA,NA,NA,NA,NA
Wbz5DPvN,3k2cedradeesg9mhvkrgq648pmomto,3sepori8wrcpn4klvbvvsn6hkczzas,Wbz5DPvN,2020-0188,2021-10-30,14:48:16,16:10:52,NA,incomplete,false,true,NA,NA,3,27,NA,yellow,m_s_080.jpg,NA,NA,NA,NA,NA,unpleasant,pleasant,NA,NA,NA,NA,NA,right,1136.60000000149,true,NA,NA,NA,NA,NA,NA,NA,NA
Wbz5DPvN,3k2cedradeesg9mhvkrgq648pmomto,3sepori8wrcpn4klvbvvsn6hkczzas,Wbz5DPvN,2020-0188,2021-10-30,14:48:16,16:10:52,NA,incomplete,false,true,NA,NA,3,28,NA,yellow,n_l_076.jpg,NA,NA,NA,NA,NA,unpleasant,pleasant,NA,NA,NA,NA,NA,right,1827.69999999925,true,NA,NA,NA,NA,NA,NA,NA,NA
Wbz5DPvN,3k2cedradeesg9mhvkrgq648pmomto,3sepori8wrcpn4klvbvvsn6hkczzas,Wbz5DPvN,2020-0188,2021-10-30,14:48:16,16:10:52,NA,incomplete,false,true,NA,NA,3,29,NA,yellow,n_s_034.jpg,NA,NA,NA,NA,NA,unpleasant,pleasant,NA,NA,NA,NA,NA,right,2824.39999999851,true,NA,NA,NA,NA,NA,NA,NA,NA
Wbz5DPvN,3k2cedradeesg9mhvkrgq648pmomto,3sepori8wrcpn4klvbvvsn6hkczzas,Wbz5DPvN,2020-0188,2021-10-30,14:48:16,16:10:52,NA,incomplete,false,true,NA,NA,3,30,NA,brown,m_s_084.jpg,NA,NA,NA,NA,NA,unpleasant,pleasant,NA,NA,NA,NA,NA,right,1725,true,NA,NA,NA,NA,NA,NA,NA,NA
Wbz5DPvN,3k2cedradeesg9mhvkrgq648pmomto,3sepori8wrcpn4klvbvvsn6hkczzas,Wbz5DPvN,2020-0188,2021-10-30,14:48:16,16:10:52,NA,incomplete,false,true,NA,NA,3,31,NA,brown,m_l_007.jpg,NA,NA,NA,NA,NA,unpleasant,pleasant,NA,NA,NA,NA,NA,right,1000.30000000075,true,NA,NA,NA,NA,NA,NA,NA,NA
Wbz5DPvN,3k2cedradeesg9mhvkrgq648pmomto,3sepori8wrcpn4klvbvvsn6hkczzas,Wbz5DPvN,2020-0188,2021-10-30,14:48:16,16:10:52,NA,incomplete,false,true,NA,NA,3,32,NA,brown,n_s_050.jpg,NA,NA,NA,NA,NA,unpleasant,pleasant,NA,NA,NA,NA,NA,left,1597.59999999776,true,NA,NA,NA,NA,NA,NA,NA,NA
Wbz5DPvN,3k2cedradeesg9mhvkrgq648pmomto,3sepori8wrcpn4klvbvvsn6hkczzas,Wbz5DPvN,2020-0188,2021-10-30,14:48:16,16:10:52,NA,incomplete,false,true,NA,NA,3,33,NA,brown,n_s_012.jpg,NA,NA,NA,NA,NA,pleasant,unpleasant,NA,NA,NA,NA,NA,left,1329.19999999925,true,NA,NA,NA,NA,NA,NA,NA,NA
Wbz5DPvN,3k2cedradeesg9mhvkrgq648pmomto,3sepori8wrcpn4klvbvvsn6hkczzas,Wbz5DPvN,2020-0188,2021-10-30,14:48:16,16:10:52,NA,incomplete,false,true,NA,NA,3,34,NA,brown,m_l_087.jpg,NA,NA,NA,NA,NA,pleasant,unpleasant,NA,NA,NA,NA,NA,right,1542.80000000075,true,NA,NA,NA,NA,NA,NA,NA,NA
Wbz5DPvN,3k2cedradeesg9mhvkrgq648pmomto,3sepori8wrcpn4klvbvvsn6hkczzas,Wbz5DPvN,2020-0188,2021-10-30,14:48:16,16:10:52,NA,incomplete,false,true,NA,NA,3,35,NA,brown,n_s_070.jpg,NA,NA,NA,NA,NA,pleasant,unpleasant,NA,NA,NA,NA,NA,right,1315.90000000224,true,NA,NA,NA,NA,NA,NA,NA,NA
Wbz5DPvN,3k2cedradeesg9mhvkrgq648pmomto,3sepori8wrcpn4klvbvvsn6hkczzas,Wbz5DPvN,2020-0188,2021-10-30,14:48:16,16:10:52,NA,incomplete,false,NA,NA,true,3,0,NA,NA,NA,right,n_s_070.jpg,yellow,brown,NA,NA,NA,NA,NA,NA,NA,NA,NA,NaN,NA,2640.5,right,1,NA,NA,NA,NA,NA
Wbz5DPvN,3k2cedradeesg9mhvkrgq648pmomto,3sepori8wrcpn4klvbvvsn6hkczzas,Wbz5DPvN,2020-0188,2021-10-30,14:48:16,16:10:52,NA,incomplete,false,NA,NA,true,3,1,NA,NA,NA,right,n_s_081.jpg,gray,white,NA,NA,NA,NA,NA,NA,NA,NA,NA,NaN,NA,2607.10000000149,right,1,NA,NA,NA,NA,NA
Wbz5DPvN,3k2cedradeesg9mhvkrgq648pmomto,3sepori8wrcpn4klvbvvsn6hkczzas,Wbz5DPvN,2020-0188,2021-10-30,14:48:16,16:10:52,NA,incomplete,false,NA,NA,true,3,2,NA,NA,NA,left,n_l_112.jpg,gray,white,NA,NA,NA,NA,NA,NA,NA,NA,NA,NaN,NA,3451,left,1,NA,NA,NA,NA,NA
Wbz5DPvN,3k2cedradeesg9mhvkrgq648pmomto,3sepori8wrcpn4klvbvvsn6hkczzas,Wbz5DPvN,2020-0188,2021-10-30,14:48:16,16:10:52,NA,incomplete,false,NA,NA,true,3,3,NA,NA,NA,right,n_s_034.jpg,gray,yellow,NA,NA,NA,NA,NA,NA,NA,NA,NA,NaN,NA,1305.5,right,1,NA,NA,NA,NA,NA
Wbz5DPvN,3k2cedradeesg9mhvkrgq648pmomto,3sepori8wrcpn4klvbvvsn6hkczzas,Wbz5DPvN,2020-0188,2021-10-30,14:48:16,16:10:52,NA,incomplete,false,NA,NA,true,3,4,NA,NA,NA,left,m_s_010.jpg,green,red,NA,NA,NA,NA,NA,NA,NA,NA,NA,NaN,NA,2980.2999999970198,left,1,NA,NA,NA,NA,NA
Wbz5DPvN,3k2cedradeesg9mhvkrgq648pmomto,3sepori8wrcpn4klvbvvsn6hkczzas,Wbz5DPvN,2020-0188,2021-10-30,14:48:16,16:10:52,NA,incomplete,false,NA,NA,true,3,5,NA,NA,NA,left,n_l_052.jpg,red,green,NA,NA,NA,NA,NA,NA,NA,NA,NA,NaN,NA,4309.5,right,0,NA,NA,NA,NA,NA
Wbz5DPvN,3k2cedradeesg9mhvkrgq648pmomto,3sepori8wrcpn4klvbvvsn6hkczzas,Wbz5DPvN,2020-0188,2021-10-30,14:48:16,16:10:52,NA,incomplete,false,NA,NA,true,3,6,NA,NA,NA,right,n_s_035.jpg,green,red,NA,NA,NA,NA,NA,NA,NA,NA,NA,NaN,NA,5354.60000000149,right,1,NA,NA,NA,NA,NA
Wbz5DPvN,3k2cedradeesg9mhvkrgq648pmomto,3sepori8wrcpn4klvbvvsn6hkczzas,Wbz5DPvN,2020-0188,2021-10-30,14:48:16,16:10:52,NA,incomplete,false,NA,NA,true,3,7,NA,NA,NA,right,m_s_060.jpg,red,green,NA,NA,NA,NA,NA,NA,NA,NA,NA,NaN,NA,2768.800000000745,right,1,NA,NA,NA,NA,NA
Wbz5DPvN,3k2cedradeesg9mhvkrgq648pmomto,3sepori8wrcpn4klvbvvsn6hkczzas,Wbz5DPvN,2020-0188,2021-10-30,14:48:16,16:10:52,NA,incomplete,false,NA,NA,true,3,8,NA,NA,NA,right,m_l_007.jpg,yellow,brown,NA,NA,NA,NA,NA,NA,NA,NA,NA,NaN,NA,1872.699999999255,left,0,NA,NA,NA,NA,NA
Wbz5DPvN,3k2cedradeesg9mhvkrgq648pmomto,3sepori8wrcpn4klvbvvsn6hkczzas,Wbz5DPvN,2020-0188,2021-10-30,14:48:16,16:10:52,NA,incomplete,false,NA,NA,true,3,9,NA,NA,NA,right,m_l_096.jpg,yellow,gray,NA,NA,NA,NA,NA,NA,NA,NA,NA,NaN,NA,1296.8999999985099,right,1,NA,NA,NA,NA,NA
Wbz5DPvN,3k2cedradeesg9mhvkrgq648pmomto,3sepori8wrcpn4klvbvvsn6hkczzas,Wbz5DPvN,2020-0188,2021-10-30,14:48:16,16:10:52,NA,incomplete,false,NA,NA,true,3,10,NA,NA,NA,left,m_l_089.jpg,yellow,brown,NA,NA,NA,NA,NA,NA,NA,NA,NA,NaN,NA,2151.699999999255,left,1,NA,NA,NA,NA,NA
Wbz5DPvN,3k2cedradeesg9mhvkrgq648pmomto,3sepori8wrcpn4klvbvvsn6hkczzas,Wbz5DPvN,2020-0188,2021-10-30,14:48:16,16:10:52,NA,incomplete,false,NA,NA,true,3,11,NA,NA,NA,left,n_l_077.jpg,gray,yellow,NA,NA,NA,NA,NA,NA,NA,NA,NA,NaN,NA,2682.2000000029802,left,1,NA,NA,NA,NA,NA
Wbz5DPvN,3k2cedradeesg9mhvkrgq648pmomto,3sepori8wrcpn4klvbvvsn6hkczzas,Wbz5DPvN,2020-0188,2021-10-30,14:48:16,16:10:52,NA,incomplete,false,NA,NA,true,3,12,NA,NA,NA,right,m_s_023.jpg,gray,white,NA,NA,NA,NA,NA,NA,NA,NA,NA,NaN,NA,1522.699999999255,right,1,NA,NA,NA,NA,NA
Wbz5DPvN,3k2cedradeesg9mhvkrgq648pmomto,3sepori8wrcpn4klvbvvsn6hkczzas,Wbz5DPvN,2020-0188,2021-10-30,14:48:16,16:10:52,NA,incomplete,false,NA,NA,true,3,13,NA,NA,NA,right,n_l_103.jpg,white,gray,NA,NA,NA,NA,NA,NA,NA,NA,NA,NaN,NA,3359.099999997765,right,1,NA,NA,NA,NA,NA
Wbz5DPvN,3k2cedradeesg9mhvkrgq648pmomto,3sepori8wrcpn4klvbvvsn6hkczzas,Wbz5DPvN,2020-0188,2021-10-30,14:48:16,16:10:52,NA,incomplete,false,NA,NA,true,3,14,NA,NA,NA,left,n_s_060.jpg,red,green,NA,NA,NA,NA,NA,NA,NA,NA,NA,NaN,NA,2488.400000002235,left,1,NA,NA,NA,NA,NA
Wbz5DPvN,3k2cedradeesg9mhvkrgq648pmomto,3sepori8wrcpn4klvbvvsn6hkczzas,Wbz5DPvN,2020-0188,2021-10-30,14:48:16,16:10:52,NA,incomplete,false,NA,NA,true,3,15,NA,NA,NA,right,m_l_114.jpg,gray,yellow,NA,NA,NA,NA,NA,NA,NA,NA,NA,NaN,NA,1464.9000000022352,right,1,NA,NA,NA,NA,NA
Wbz5DPvN,3k2cedradeesg9mhvkrgq648pmomto,3sepori8wrcpn4klvbvvsn6hkczzas,Wbz5DPvN,2020-0188,2021-10-30,14:48:16,16:10:52,NA,incomplete,false,NA,NA,true,3,16,NA,NA,NA,left,n_s_050.jpg,brown,yellow,NA,NA,NA,NA,NA,NA,NA,NA,NA,NaN,NA,3047.900000002235,left,1,NA,NA,NA,NA,NA
Wbz5DPvN,3k2cedradeesg9mhvkrgq648pmomto,3sepori8wrcpn4klvbvvsn6hkczzas,Wbz5DPvN,2020-0188,2021-10-30,14:48:16,16:10:52,NA,incomplete,false,NA,NA,true,3,17,NA,NA,NA,left,m_s_082.jpg,green,red,NA,NA,NA,NA,NA,NA,NA,NA,NA,NaN,NA,2164.699999999255,left,1,NA,NA,NA,NA,NA
Wbz5DPvN,3k2cedradeesg9mhvkrgq648pmomto,3sepori8wrcpn4klvbvvsn6hkczzas,Wbz5DPvN,2020-0188,2021-10-30,14:48:16,16:10:52,NA,incomplete,false,NA,NA,true,3,18,NA,NA,NA,right,m_l_102.jpg,red,green,NA,NA,NA,NA,NA,NA,NA,NA,NA,NaN,NA,1371.300000000745,right,1,NA,NA,NA,NA,NA
Wbz5DPvN,3k2cedradeesg9mhvkrgq648pmomto,3sepori8wrcpn4klvbvvsn6hkczzas,Wbz5DPvN,2020-0188,2021-10-30,14:48:16,16:10:52,NA,incomplete,false,NA,NA,true,3,19,NA,NA,NA,right,n_l_097.jpg,gray,white,NA,NA,NA,NA,NA,NA,NA,NA,NA,NaN,NA,2499.699999999255,right,1,NA,NA,NA,NA,NA
Wbz5DPvN,3k2cedradeesg9mhvkrgq648pmomto,3sepori8wrcpn4klvbvvsn6hkczzas,Wbz5DPvN,2020-0188,2021-10-30,14:48:16,16:10:52,NA,incomplete,false,NA,NA,true,3,20,NA,NA,NA,right,n_l_076.jpg,gray,yellow,NA,NA,NA,NA,NA,NA,NA,NA,NA,NaN,NA,1873.2000000029802,right,1,NA,NA,NA,NA,NA
Wbz5DPvN,3k2cedradeesg9mhvkrgq648pmomto,3sepori8wrcpn4klvbvvsn6hkczzas,Wbz5DPvN,2020-0188,2021-10-30,14:48:16,16:10:52,NA,incomplete,false,NA,NA,true,3,21,NA,NA,NA,left,n_l_016.jpg,white,green,NA,NA,NA,NA,NA,NA,NA,NA,NA,NaN,NA,5172.5,left,1,NA,NA,NA,NA,NA
Wbz5DPvN,3k2cedradeesg9mhvkrgq648pmomto,3sepori8wrcpn4klvbvvsn6hkczzas,Wbz5DPvN,2020-0188,2021-10-30,14:48:16,16:10:52,NA,incomplete,false,NA,true,NA,3,0,NA,NA,NA,right,NA,NA,NA,absent,NA,NA,n_s_035.jpg,red,n_l_052.jpg,red,within,NA,NaN,NA,NA,NA,NA,right,4017,1,0,2648.2999999970198
Wbz5DPvN,3k2cedradeesg9mhvkrgq648pmomto,3sepori8wrcpn4klvbvvsn6hkczzas,Wbz5DPvN,2020-0188,2021-10-30,14:48:16,16:10:52,NA,incomplete,false,NA,true,NA,3,1,NA,NA,NA,left,NA,NA,NA,absent,NA,NA,n_l_076.jpg,yellow,n_s_050.jpg,brown,between,NA,NaN,NA,NA,NA,NA,left,2560.5,1,1,2084.099999997765
Wbz5DPvN,3k2cedradeesg9mhvkrgq648pmomto,3sepori8wrcpn4klvbvvsn6hkczzas,Wbz5DPvN,2020-0188,2021-10-30,14:48:16,16:10:52,NA,incomplete,false,NA,true,NA,3,2,NA,NA,NA,right,NA,NA,NA,absent,NA,NA,n_l_112.jpg,gray,m_l_096.jpg,gray,within,NA,NaN,NA,NA,NA,NA,right,3758.099999997765,1,0,809.9000000022352
Wbz5DPvN,3k2cedradeesg9mhvkrgq648pmomto,3sepori8wrcpn4klvbvvsn6hkczzas,Wbz5DPvN,2020-0188,2021-10-30,14:48:16,16:10:52,NA,incomplete,false,NA,true,NA,3,3,NA,NA,NA,left,NA,NA,NA,absent,NA,NA,n_s_060.jpg,red,m_s_060.jpg,green,between,NA,NaN,NA,NA,NA,NA,right,2922.900000002235,0,1,1051.2999999970198
Wbz5DPvN,3k2cedradeesg9mhvkrgq648pmomto,3sepori8wrcpn4klvbvvsn6hkczzas,Wbz5DPvN,2020-0188,2021-10-30,14:48:16,16:10:52,NA,incomplete,false,NA,true,NA,3,4,NA,NA,NA,right,NA,NA,NA,absent,NA,NA,m_s_010.jpg,green,m_l_102.jpg,green,within,NA,NaN,NA,NA,NA,NA,right,3009.10000000149,1,0,1715.699999999255
Wbz5DPvN,3k2cedradeesg9mhvkrgq648pmomto,3sepori8wrcpn4klvbvvsn6hkczzas,Wbz5DPvN,2020-0188,2021-10-30,14:48:16,16:10:52,NA,incomplete,false,NA,true,NA,3,5,NA,NA,NA,left,NA,NA,NA,absent,NA,NA,m_l_007.jpg,brown,n_s_070.jpg,brown,within,NA,NaN,NA,NA,NA,NA,right,2195.10000000149,0,1,1134.300000000745
Wbz5DPvN,3k2cedradeesg9mhvkrgq648pmomto,3sepori8wrcpn4klvbvvsn6hkczzas,Wbz5DPvN,2020-0188,2021-10-30,14:48:16,16:10:52,NA,incomplete,false,NA,true,NA,3,6,NA,NA,NA,left,NA,NA,NA,absent,NA,NA,m_l_114.jpg,yellow,n_s_034.jpg,yellow,within,NA,NaN,NA,NA,NA,NA,left,2864,1,2,1105.6000000014901
Wbz5DPvN,3k2cedradeesg9mhvkrgq648pmomto,3sepori8wrcpn4klvbvvsn6hkczzas,Wbz5DPvN,2020-0188,2021-10-30,14:48:16,16:10:52,NA,incomplete,false,NA,true,NA,3,7,NA,NA,NA,right,NA,NA,NA,absent,NA,NA,n_l_103.jpg,gray,m_s_023.jpg,white,between,NA,NaN,NA,NA,NA,NA,right,3877.10000000149,1,2,1567.3999999985099
Wbz5DPvN,3k2cedradeesg9mhvkrgq648pmomto,3sepori8wrcpn4klvbvvsn6hkczzas,Wbz5DPvN,2020-0188,2021-10-30,14:48:16,16:10:52,NA,incomplete,false,NA,true,NA,3,8,NA,NA,NA,right,NA,NA,NA,absent,NA,NA,n_l_016.jpg,white,m_s_082.jpg,green,between,NA,NaN,NA,NA,NA,NA,right,2816.400000002235,1,1,790.9000000022352
Wbz5DPvN,3k2cedradeesg9mhvkrgq648pmomto,3sepori8wrcpn4klvbvvsn6hkczzas,Wbz5DPvN,2020-0188,2021-10-30,14:48:16,16:10:52,NA,incomplete,false,NA,true,NA,3,9,NA,NA,NA,left,NA,NA,NA,absent,NA,NA,n_l_077.jpg,gray,m_l_089.jpg,yellow,between,NA,NaN,NA,NA,NA,NA,left,3822.699999999255,1,2,1128
Wbz5DPvN,3k2cedradeesg9mhvkrgq648pmomto,3sepori8wrcpn4klvbvvsn6hkczzas,Wbz5DPvN,2020-0188,2021-10-30,14:48:16,16:10:52,NA,incomplete,false,NA,true,NA,3,10,NA,NA,NA,left,NA,NA,NA,absent,NA,NA,n_l_097.jpg,white,n_s_081.jpg,white,within,NA,NaN,NA,NA,NA,NA,left,2690.89999999851,1,3,978.8999999985099
Wbz5DPvN,3k2cedradeesg9mhvkrgq648pmomto,3sepori8wrcpn4klvbvvsn6hkczzas,Wbz5DPvN,2020-0188,2021-10-30,14:48:16,16:10:52,NA,incomplete,false,true,NA,NA,4,0,NA,black,n_s_082.jpg,NA,NA,NA,NA,NA,unpleasant,pleasant,NA,NA,NA,NA,NA,left,1833.10000000149,true,NA,NA,NA,NA,NA,NA,NA,NA
Wbz5DPvN,3k2cedradeesg9mhvkrgq648pmomto,3sepori8wrcpn4klvbvvsn6hkczzas,Wbz5DPvN,2020-0188,2021-10-30,14:48:16,16:10:52,NA,incomplete,false,true,NA,NA,4,1,NA,black,n_l_022.jpg,NA,NA,NA,NA,NA,pleasant,unpleasant,NA,NA,NA,NA,NA,right,2086.90000000224,true,NA,NA,NA,NA,NA,NA,NA,NA
Wbz5DPvN,3k2cedradeesg9mhvkrgq648pmomto,3sepori8wrcpn4klvbvvsn6hkczzas,Wbz5DPvN,2020-0188,2021-10-30,14:48:16,16:10:52,NA,incomplete,false,true,NA,NA,4,2,NA,black,m_l_021.jpg,NA,NA,NA,NA,NA,pleasant,unpleasant,NA,NA,NA,NA,NA,left,1129.90000000224,true,NA,NA,NA,NA,NA,NA,NA,NA
Wbz5DPvN,3k2cedradeesg9mhvkrgq648pmomto,3sepori8wrcpn4klvbvvsn6hkczzas,Wbz5DPvN,2020-0188,2021-10-30,14:48:16,16:10:52,NA,incomplete,false,true,NA,NA,4,3,NA,black,m_s_116.jpg,NA,NA,NA,NA,NA,unpleasant,pleasant,NA,NA,NA,NA,NA,right,1166.60000000149,true,NA,NA,NA,NA,NA,NA,NA,NA
Wbz5DPvN,3k2cedradeesg9mhvkrgq648pmomto,3sepori8wrcpn4klvbvvsn6hkczzas,Wbz5DPvN,2020-0188,2021-10-30,14:48:16,16:10:52,NA,incomplete,false,true,NA,NA,4,4,NA,black,n_l_030.jpg,NA,NA,NA,NA,NA,unpleasant,pleasant,NA,NA,NA,NA,NA,right,1218.39999999851,true,NA,NA,NA,NA,NA,NA,NA,NA
Wbz5DPvN,3k2cedradeesg9mhvkrgq648pmomto,3sepori8wrcpn4klvbvvsn6hkczzas,Wbz5DPvN,2020-0188,2021-10-30,14:48:16,16:10:52,NA,incomplete,false,true,NA,NA,4,5,NA,black,n_l_096.jpg,NA,NA,NA,NA,NA,pleasant,unpleasant,NA,NA,NA,NA,NA,right,1510.20000000298,true,NA,NA,NA,NA,NA,NA,NA,NA
Wbz5DPvN,3k2cedradeesg9mhvkrgq648pmomto,3sepori8wrcpn4klvbvvsn6hkczzas,Wbz5DPvN,2020-0188,2021-10-30,14:48:16,16:10:52,NA,incomplete,false,true,NA,NA,4,6,NA,green,n_l_116.jpg,NA,NA,NA,NA,NA,unpleasant,pleasant,NA,NA,NA,NA,NA,left,1922.69999999925,true,NA,NA,NA,NA,NA,NA,NA,NA
Wbz5DPvN,3k2cedradeesg9mhvkrgq648pmomto,3sepori8wrcpn4klvbvvsn6hkczzas,Wbz5DPvN,2020-0188,2021-10-30,14:48:16,16:10:52,NA,incomplete,false,true,NA,NA,4,7,NA,green,n_s_018.jpg,NA,NA,NA,NA,NA,pleasant,unpleasant,NA,NA,NA,NA,NA,left,1887.5,true,NA,NA,NA,NA,NA,NA,NA,NA
Wbz5DPvN,3k2cedradeesg9mhvkrgq648pmomto,3sepori8wrcpn4klvbvvsn6hkczzas,Wbz5DPvN,2020-0188,2021-10-30,14:48:16,16:10:52,NA,incomplete,false,true,NA,NA,4,8,NA,green,n_s_069.jpg,NA,NA,NA,NA,NA,pleasant,unpleasant,NA,NA,NA,NA,NA,left,1290.59999999776,true,NA,NA,NA,NA,NA,NA,NA,NA
Wbz5DPvN,3k2cedradeesg9mhvkrgq648pmomto,3sepori8wrcpn4klvbvvsn6hkczzas,Wbz5DPvN,2020-0188,2021-10-30,14:48:16,16:10:52,NA,incomplete,false,true,NA,NA,4,9,NA,green,n_l_066.jpg,NA,NA,NA,NA,NA,pleasant,unpleasant,NA,NA,NA,NA,NA,right,2096.40000000224,true,NA,NA,NA,NA,NA,NA,NA,NA
Wbz5DPvN,3k2cedradeesg9mhvkrgq648pmomto,3sepori8wrcpn4klvbvvsn6hkczzas,Wbz5DPvN,2020-0188,2021-10-30,14:48:16,16:10:52,NA,incomplete,false,true,NA,NA,4,10,NA,green,m_s_006.jpg,NA,NA,NA,NA,NA,unpleasant,pleasant,NA,NA,NA,NA,NA,right,1619,true,NA,NA,NA,NA,NA,NA,NA,NA
Wbz5DPvN,3k2cedradeesg9mhvkrgq648pmomto,3sepori8wrcpn4klvbvvsn6hkczzas,Wbz5DPvN,2020-0188,2021-10-30,14:48:16,16:10:52,NA,incomplete,false,true,NA,NA,4,11,NA,green,m_l_113.jpg,NA,NA,NA,NA,NA,unpleasant,pleasant,NA,NA,NA,NA,NA,right,2102.60000000149,true,NA,NA,NA,NA,NA,NA,NA,NA
Wbz5DPvN,3k2cedradeesg9mhvkrgq648pmomto,3sepori8wrcpn4klvbvvsn6hkczzas,Wbz5DPvN,2020-0188,2021-10-30,14:48:16,16:10:52,NA,incomplete,false,true,NA,NA,4,12,NA,red,n_s_062.jpg,NA,NA,NA,NA,NA,unpleasant,pleasant,NA,NA,NA,NA,NA,right,2028.30000000075,true,NA,NA,NA,NA,NA,NA,NA,NA
Wbz5DPvN,3k2cedradeesg9mhvkrgq648pmomto,3sepori8wrcpn4klvbvvsn6hkczzas,Wbz5DPvN,2020-0188,2021-10-30,14:48:16,16:10:52,NA,incomplete,false,true,NA,NA,4,13,NA,red,n_l_086.jpg,NA,NA,NA,NA,NA,pleasant,unpleasant,NA,NA,NA,NA,NA,right,1360.5,true,NA,NA,NA,NA,NA,NA,NA,NA
Wbz5DPvN,3k2cedradeesg9mhvkrgq648pmomto,3sepori8wrcpn4klvbvvsn6hkczzas,Wbz5DPvN,2020-0188,2021-10-30,14:48:16,16:10:52,NA,incomplete,false,true,NA,NA,4,14,NA,red,m_s_038.jpg,NA,NA,NA,NA,NA,pleasant,unpleasant,NA,NA,NA,NA,NA,left,1125.19999999925,true,NA,NA,NA,NA,NA,NA,NA,NA
Wbz5DPvN,3k2cedradeesg9mhvkrgq648pmomto,3sepori8wrcpn4klvbvvsn6hkczzas,Wbz5DPvN,2020-0188,2021-10-30,14:48:16,16:10:52,NA,incomplete,false,true,NA,NA,4,15,NA,red,m_l_033.jpg,NA,NA,NA,NA,NA,pleasant,unpleasant,NA,NA,NA,NA,NA,left,1233.80000000075,true,NA,NA,NA,NA,NA,NA,NA,NA
Wbz5DPvN,3k2cedradeesg9mhvkrgq648pmomto,3sepori8wrcpn4klvbvvsn6hkczzas,Wbz5DPvN,2020-0188,2021-10-30,14:48:16,16:10:52,NA,incomplete,false,true,NA,NA,4,16,NA,red,m_s_016.jpg,NA,NA,NA,NA,NA,unpleasant,pleasant,NA,NA,NA,NA,NA,right,1486.30000000075,true,NA,NA,NA,NA,NA,NA,NA,NA
Wbz5DPvN,3k2cedradeesg9mhvkrgq648pmomto,3sepori8wrcpn4klvbvvsn6hkczzas,Wbz5DPvN,2020-0188,2021-10-30,14:48:16,16:10:52,NA,incomplete,false,true,NA,NA,4,17,NA,red,m_s_076.jpg,NA,NA,NA,NA,NA,pleasant,unpleasant,NA,NA,NA,NA,NA,left,2112.69999999925,true,NA,NA,NA,NA,NA,NA,NA,NA
Wbz5DPvN,3k2cedradeesg9mhvkrgq648pmomto,3sepori8wrcpn4klvbvvsn6hkczzas,Wbz5DPvN,2020-0188,2021-10-30,14:48:16,16:10:52,NA,incomplete,false,true,NA,NA,4,18,NA,gray,n_s_023.jpg,NA,NA,NA,NA,NA,unpleasant,pleasant,NA,NA,NA,NA,NA,left,1518.09999999776,true,NA,NA,NA,NA,NA,NA,NA,NA
Wbz5DPvN,3k2cedradeesg9mhvkrgq648pmomto,3sepori8wrcpn4klvbvvsn6hkczzas,Wbz5DPvN,2020-0188,2021-10-30,14:48:16,16:10:52,NA,incomplete,false,true,NA,NA,4,19,NA,gray,n_s_048.jpg,NA,NA,NA,NA,NA,unpleasant,pleasant,NA,NA,NA,NA,NA,right,1763,true,NA,NA,NA,NA,NA,NA,NA,NA
Wbz5DPvN,3k2cedradeesg9mhvkrgq648pmomto,3sepori8wrcpn4klvbvvsn6hkczzas,Wbz5DPvN,2020-0188,2021-10-30,14:48:16,16:10:52,NA,incomplete,false,true,NA,NA,4,20,NA,gray,n_l_027.jpg,NA,NA,NA,NA,NA,unpleasant,pleasant,NA,NA,NA,NA,NA,right,1398.89999999851,true,NA,NA,NA,NA,NA,NA,NA,NA
Wbz5DPvN,3k2cedradeesg9mhvkrgq648pmomto,3sepori8wrcpn4klvbvvsn6hkczzas,Wbz5DPvN,2020-0188,2021-10-30,14:48:16,16:10:52,NA,incomplete,false,true,NA,NA,4,21,NA,gray,m_s_037.jpg,NA,NA,NA,NA,NA,unpleasant,pleasant,NA,NA,NA,NA,NA,right,1868,true,NA,NA,NA,NA,NA,NA,NA,NA
Wbz5DPvN,3k2cedradeesg9mhvkrgq648pmomto,3sepori8wrcpn4klvbvvsn6hkczzas,Wbz5DPvN,2020-0188,2021-10-30,14:48:16,16:10:52,NA,incomplete,false,true,NA,NA,4,22,NA,gray,n_l_010.jpg,NA,NA,NA,NA,NA,unpleasant,pleasant,NA,NA,NA,NA,NA,right,2543,true,NA,NA,NA,NA,NA,NA,NA,NA
Wbz5DPvN,3k2cedradeesg9mhvkrgq648pmomto,3sepori8wrcpn4klvbvvsn6hkczzas,Wbz5DPvN,2020-0188,2021-10-30,14:48:16,16:10:52,NA,incomplete,false,true,NA,NA,4,23,NA,gray,m_l_051.jpg,NA,NA,NA,NA,NA,pleasant,unpleasant,NA,NA,NA,NA,NA,left,1380.80000000075,true,NA,NA,NA,NA,NA,NA,NA,NA
Wbz5DPvN,3k2cedradeesg9mhvkrgq648pmomto,3sepori8wrcpn4klvbvvsn6hkczzas,Wbz5DPvN,2020-0188,2021-10-30,14:48:16,16:10:52,NA,incomplete,false,true,NA,NA,4,24,NA,blue,n_l_053.jpg,NA,NA,NA,NA,NA,pleasant,unpleasant,NA,NA,NA,NA,NA,right,1352.70000000298,true,NA,NA,NA,NA,NA,NA,NA,NA
Wbz5DPvN,3k2cedradeesg9mhvkrgq648pmomto,3sepori8wrcpn4klvbvvsn6hkczzas,Wbz5DPvN,2020-0188,2021-10-30,14:48:16,16:10:52,NA,incomplete,false,true,NA,NA,4,25,NA,blue,n_s_025.jpg,NA,NA,NA,NA,NA,pleasant,unpleasant,NA,NA,NA,NA,NA,right,1525.30000000075,true,NA,NA,NA,NA,NA,NA,NA,NA
Wbz5DPvN,3k2cedradeesg9mhvkrgq648pmomto,3sepori8wrcpn4klvbvvsn6hkczzas,Wbz5DPvN,2020-0188,2021-10-30,14:48:16,16:10:52,NA,incomplete,false,true,NA,NA,4,26,NA,blue,n_s_042.jpg,NA,NA,NA,NA,NA,pleasant,unpleasant,NA,NA,NA,NA,NA,right,1745,true,NA,NA,NA,NA,NA,NA,NA,NA
Wbz5DPvN,3k2cedradeesg9mhvkrgq648pmomto,3sepori8wrcpn4klvbvvsn6hkczzas,Wbz5DPvN,2020-0188,2021-10-30,14:48:16,16:10:52,NA,incomplete,false,true,NA,NA,4,27,NA,blue,m_s_048.jpg,NA,NA,NA,NA,NA,pleasant,unpleasant,NA,NA,NA,NA,NA,left,1358,true,NA,NA,NA,NA,NA,NA,NA,NA
Wbz5DPvN,3k2cedradeesg9mhvkrgq648pmomto,3sepori8wrcpn4klvbvvsn6hkczzas,Wbz5DPvN,2020-0188,2021-10-30,14:48:16,16:10:52,NA,incomplete,false,true,NA,NA,4,28,NA,blue,m_l_020.jpg,NA,NA,NA,NA,NA,pleasant,unpleasant,NA,NA,NA,NA,NA,left,2122.39999999851,true,NA,NA,NA,NA,NA,NA,NA,NA
Wbz5DPvN,3k2cedradeesg9mhvkrgq648pmomto,3sepori8wrcpn4klvbvvsn6hkczzas,Wbz5DPvN,2020-0188,2021-10-30,14:48:16,16:10:52,NA,incomplete,false,true,NA,NA,4,29,NA,blue,m_s_046.jpg,NA,NA,NA,NA,NA,pleasant,unpleasant,NA,NA,NA,NA,NA,left,1470.30000000075,true,NA,NA,NA,NA,NA,NA,NA,NA
Wbz5DPvN,3k2cedradeesg9mhvkrgq648pmomto,3sepori8wrcpn4klvbvvsn6hkczzas,Wbz5DPvN,2020-0188,2021-10-30,14:48:16,16:10:52,NA,incomplete,false,true,NA,NA,4,30,NA,yellow,n_l_071.jpg,NA,NA,NA,NA,NA,unpleasant,pleasant,NA,NA,NA,NA,NA,left,2426,true,NA,NA,NA,NA,NA,NA,NA,NA
Wbz5DPvN,3k2cedradeesg9mhvkrgq648pmomto,3sepori8wrcpn4klvbvvsn6hkczzas,Wbz5DPvN,2020-0188,2021-10-30,14:48:16,16:10:52,NA,incomplete,false,true,NA,NA,4,31,NA,yellow,n_l_068.jpg,NA,NA,NA,NA,NA,pleasant,unpleasant,NA,NA,NA,NA,NA,left,1398.90000000224,true,NA,NA,NA,NA,NA,NA,NA,NA
Wbz5DPvN,3k2cedradeesg9mhvkrgq648pmomto,3sepori8wrcpn4klvbvvsn6hkczzas,Wbz5DPvN,2020-0188,2021-10-30,14:48:16,16:10:52,NA,incomplete,false,true,NA,NA,4,32,NA,yellow,m_l_045.jpg,NA,NA,NA,NA,NA,pleasant,unpleasant,NA,NA,NA,NA,NA,left,1211.30000000075,true,NA,NA,NA,NA,NA,NA,NA,NA
Wbz5DPvN,3k2cedradeesg9mhvkrgq648pmomto,3sepori8wrcpn4klvbvvsn6hkczzas,Wbz5DPvN,2020-0188,2021-10-30,14:48:16,16:10:52,NA,incomplete,false,true,NA,NA,4,33,NA,yellow,m_s_035.jpg,NA,NA,NA,NA,NA,unpleasant,pleasant,NA,NA,NA,NA,NA,left,1200.09999999776,true,NA,NA,NA,NA,NA,NA,NA,NA
Wbz5DPvN,3k2cedradeesg9mhvkrgq648pmomto,3sepori8wrcpn4klvbvvsn6hkczzas,Wbz5DPvN,2020-0188,2021-10-30,14:48:16,16:10:52,NA,incomplete,false,true,NA,NA,4,34,NA,yellow,n_s_109.jpg,NA,NA,NA,NA,NA,pleasant,unpleasant,NA,NA,NA,NA,NA,left,1460.80000000075,true,NA,NA,NA,NA,NA,NA,NA,NA
Wbz5DPvN,3k2cedradeesg9mhvkrgq648pmomto,3sepori8wrcpn4klvbvvsn6hkczzas,Wbz5DPvN,2020-0188,2021-10-30,14:48:16,16:10:52,NA,incomplete,false,true,NA,NA,4,35,NA,yellow,m_l_105.jpg,NA,NA,NA,NA,NA,unpleasant,pleasant,NA,NA,NA,NA,NA,right,1296.40000000224,true,NA,NA,NA,NA,NA,NA,NA,NA
Wbz5DPvN,3k2cedradeesg9mhvkrgq648pmomto,3sepori8wrcpn4klvbvvsn6hkczzas,Wbz5DPvN,2020-0188,2021-10-30,14:48:16,16:10:52,NA,incomplete,false,NA,NA,true,4,0,NA,NA,NA,right,n_l_096.jpg,green,black,NA,NA,NA,NA,NA,NA,NA,NA,NA,NaN,NA,4194.89999999851,right,1,NA,NA,NA,NA,NA
Wbz5DPvN,3k2cedradeesg9mhvkrgq648pmomto,3sepori8wrcpn4klvbvvsn6hkczzas,Wbz5DPvN,2020-0188,2021-10-30,14:48:16,16:10:52,NA,incomplete,false,NA,NA,true,4,1,NA,NA,NA,right,n_l_022.jpg,green,black,NA,NA,NA,NA,NA,NA,NA,NA,NA,NaN,NA,1873.199999999255,right,1,NA,NA,NA,NA,NA
Wbz5DPvN,3k2cedradeesg9mhvkrgq648pmomto,3sepori8wrcpn4klvbvvsn6hkczzas,Wbz5DPvN,2020-0188,2021-10-30,14:48:16,16:10:52,NA,incomplete,false,NA,NA,true,4,2,NA,NA,NA,left,m_s_038.jpg,red,green,NA,NA,NA,NA,NA,NA,NA,NA,NA,NaN,NA,2063.099999997765,left,1,NA,NA,NA,NA,NA
Wbz5DPvN,3k2cedradeesg9mhvkrgq648pmomto,3sepori8wrcpn4klvbvvsn6hkczzas,Wbz5DPvN,2020-0188,2021-10-30,14:48:16,16:10:52,NA,incomplete,false,NA,NA,true,4,3,NA,NA,NA,right,n_l_030.jpg,green,black,NA,NA,NA,NA,NA,NA,NA,NA,NA,NaN,NA,1413.5,right,1,NA,NA,NA,NA,NA
Wbz5DPvN,3k2cedradeesg9mhvkrgq648pmomto,3sepori8wrcpn4klvbvvsn6hkczzas,Wbz5DPvN,2020-0188,2021-10-30,14:48:16,16:10:52,NA,incomplete,false,NA,NA,true,4,4,NA,NA,NA,left,m_l_051.jpg,gray,blue,NA,NA,NA,NA,NA,NA,NA,NA,NA,NaN,NA,1898.300000000745,left,1,NA,NA,NA,NA,NA
Wbz5DPvN,3k2cedradeesg9mhvkrgq648pmomto,3sepori8wrcpn4klvbvvsn6hkczzas,Wbz5DPvN,2020-0188,2021-10-30,14:48:16,16:10:52,NA,incomplete,false,NA,NA,true,4,5,NA,NA,NA,left,n_s_042.jpg,blue,yellow,NA,NA,NA,NA,NA,NA,NA,NA,NA,NaN,NA,2314.699999999255,right,0,NA,NA,NA,NA,NA
Wbz5DPvN,3k2cedradeesg9mhvkrgq648pmomto,3sepori8wrcpn4klvbvvsn6hkczzas,Wbz5DPvN,2020-0188,2021-10-30,14:48:16,16:10:52,NA,incomplete,false,NA,NA,true,4,6,NA,NA,NA,left,m_s_076.jpg,red,gray,NA,NA,NA,NA,NA,NA,NA,NA,NA,NaN,NA,2760.2999999970198,left,1,NA,NA,NA,NA,NA
Wbz5DPvN,3k2cedradeesg9mhvkrgq648pmomto,3sepori8wrcpn4klvbvvsn6hkczzas,Wbz5DPvN,2020-0188,2021-10-30,14:48:16,16:10:52,NA,incomplete,false,NA,NA,true,4,7,NA,NA,NA,left,n_s_069.jpg,green,red,NA,NA,NA,NA,NA,NA,NA,NA,NA,NaN,NA,4434.599999997765,left,1,NA,NA,NA,NA,NA
Wbz5DPvN,3k2cedradeesg9mhvkrgq648pmomto,3sepori8wrcpn4klvbvvsn6hkczzas,Wbz5DPvN,2020-0188,2021-10-30,14:48:16,16:10:52,NA,incomplete,false,NA,NA,true,4,8,NA,NA,NA,right,n_s_018.jpg,red,green,NA,NA,NA,NA,NA,NA,NA,NA,NA,NaN,NA,1407.4000000022352,right,1,NA,NA,NA,NA,NA
Wbz5DPvN,3k2cedradeesg9mhvkrgq648pmomto,3sepori8wrcpn4klvbvvsn6hkczzas,Wbz5DPvN,2020-0188,2021-10-30,14:48:16,16:10:52,NA,incomplete,false,NA,NA,true,4,9,NA,NA,NA,right,m_s_006.jpg,black,green,NA,NA,NA,NA,NA,NA,NA,NA,NA,NaN,NA,1556.2000000029802,right,1,NA,NA,NA,NA,NA
Wbz5DPvN,3k2cedradeesg9mhvkrgq648pmomto,3sepori8wrcpn4klvbvvsn6hkczzas,Wbz5DPvN,2020-0188,2021-10-30,14:48:16,16:10:52,NA,incomplete,false,NA,NA,true,4,10,NA,NA,NA,right,n_s_025.jpg,gray,blue,NA,NA,NA,NA,NA,NA,NA,NA,NA,NaN,NA,1941.3999999985099,right,1,NA,NA,NA,NA,NA
Wbz5DPvN,3k2cedradeesg9mhvkrgq648pmomto,3sepori8wrcpn4klvbvvsn6hkczzas,Wbz5DPvN,2020-0188,2021-10-30,14:48:16,16:10:52,NA,incomplete,false,NA,NA,true,4,11,NA,NA,NA,right,n_s_048.jpg,red,gray,NA,NA,NA,NA,NA,NA,NA,NA,NA,NaN,NA,2086.2000000029802,left,0,NA,NA,NA,NA,NA
Wbz5DPvN,3k2cedradeesg9mhvkrgq648pmomto,3sepori8wrcpn4klvbvvsn6hkczzas,Wbz5DPvN,2020-0188,2021-10-30,14:48:16,16:10:52,NA,incomplete,false,NA,NA,true,4,12,NA,NA,NA,right,m_s_016.jpg,gray,red,NA,NA,NA,NA,NA,NA,NA,NA,NA,NaN,NA,2926.199999999255,right,1,NA,NA,NA,NA,NA
Wbz5DPvN,3k2cedradeesg9mhvkrgq648pmomto,3sepori8wrcpn4klvbvvsn6hkczzas,Wbz5DPvN,2020-0188,2021-10-30,14:48:16,16:10:52,NA,incomplete,false,NA,NA,true,4,13,NA,NA,NA,left,n_l_010.jpg,gray,red,NA,NA,NA,NA,NA,NA,NA,NA,NA,NaN,NA,1753.0999999977648,right,0,NA,NA,NA,NA,NA
Wbz5DPvN,3k2cedradeesg9mhvkrgq648pmomto,3sepori8wrcpn4klvbvvsn6hkczzas,Wbz5DPvN,2020-0188,2021-10-30,14:48:16,16:10:52,NA,incomplete,false,NA,NA,true,4,14,NA,NA,NA,right,m_l_105.jpg,blue,yellow,NA,NA,NA,NA,NA,NA,NA,NA,NA,NaN,NA,1638.8999999985099,right,1,NA,NA,NA,NA,NA
Wbz5DPvN,3k2cedradeesg9mhvkrgq648pmomto,3sepori8wrcpn4klvbvvsn6hkczzas,Wbz5DPvN,2020-0188,2021-10-30,14:48:16,16:10:52,NA,incomplete,false,NA,NA,true,4,15,NA,NA,NA,left,m_l_045.jpg,yellow,blue,NA,NA,NA,NA,NA,NA,NA,NA,NA,NaN,NA,1701.6000000014901,left,1,NA,NA,NA,NA,NA
Wbz5DPvN,3k2cedradeesg9mhvkrgq648pmomto,3sepori8wrcpn4klvbvvsn6hkczzas,Wbz5DPvN,2020-0188,2021-10-30,14:48:16,16:10:52,NA,incomplete,false,NA,NA,true,4,16,NA,NA,NA,left,m_l_113.jpg,green,black,NA,NA,NA,NA,NA,NA,NA,NA,NA,NaN,NA,1476.0999999977648,left,1,NA,NA,NA,NA,NA
Wbz5DPvN,3k2cedradeesg9mhvkrgq648pmomto,3sepori8wrcpn4klvbvvsn6hkczzas,Wbz5DPvN,2020-0188,2021-10-30,14:48:16,16:10:52,NA,incomplete,false,NA,NA,true,4,17,NA,NA,NA,left,n_l_068.jpg,yellow,blue,NA,NA,NA,NA,NA,NA,NA,NA,NA,NaN,NA,1360.800000000745,left,1,NA,NA,NA,NA,NA
Wbz5DPvN,3k2cedradeesg9mhvkrgq648pmomto,3sepori8wrcpn4klvbvvsn6hkczzas,Wbz5DPvN,2020-0188,2021-10-30,14:48:16,16:10:52,NA,incomplete,false,NA,NA,true,4,18,NA,NA,NA,left,n_l_086.jpg,red,gray,NA,NA,NA,NA,NA,NA,NA,NA,NA,NaN,NA,1759.5,left,1,NA,NA,NA,NA,NA
Wbz5DPvN,3k2cedradeesg9mhvkrgq648pmomto,3sepori8wrcpn4klvbvvsn6hkczzas,Wbz5DPvN,2020-0188,2021-10-30,14:48:16,16:10:52,NA,incomplete,false,NA,NA,true,4,19,NA,NA,NA,left,m_s_046.jpg,blue,gray,NA,NA,NA,NA,NA,NA,NA,NA,NA,NaN,NA,2744.099999997765,right,0,NA,NA,NA,NA,NA
Wbz5DPvN,3k2cedradeesg9mhvkrgq648pmomto,3sepori8wrcpn4klvbvvsn6hkczzas,Wbz5DPvN,2020-0188,2021-10-30,14:48:16,16:10:52,NA,incomplete,false,NA,NA,true,4,20,NA,NA,NA,right,n_l_027.jpg,red,gray,NA,NA,NA,NA,NA,NA,NA,NA,NA,NaN,NA,1871.9000000022352,right,1,NA,NA,NA,NA,NA
Wbz5DPvN,3k2cedradeesg9mhvkrgq648pmomto,3sepori8wrcpn4klvbvvsn6hkczzas,Wbz5DPvN,2020-0188,2021-10-30,14:48:16,16:10:52,NA,incomplete,false,NA,NA,true,4,21,NA,NA,NA,right,m_l_020.jpg,gray,blue,NA,NA,NA,NA,NA,NA,NA,NA,NA,NaN,NA,2326.2000000029802,right,1,NA,NA,NA,NA,NA
Wbz5DPvN,3k2cedradeesg9mhvkrgq648pmomto,3sepori8wrcpn4klvbvvsn6hkczzas,Wbz5DPvN,2020-0188,2021-10-30,14:48:16,16:10:52,NA,incomplete,false,NA,true,NA,4,0,NA,NA,NA,left,NA,NA,NA,absent,NA,NA,n_l_086.jpg,red,m_s_076.jpg,red,within,NA,NaN,NA,NA,NA,NA,left,3367.39999999851,1,2,819.8000000007451
Wbz5DPvN,3k2cedradeesg9mhvkrgq648pmomto,3sepori8wrcpn4klvbvvsn6hkczzas,Wbz5DPvN,2020-0188,2021-10-30,14:48:16,16:10:52,NA,incomplete,false,NA,true,NA,4,1,NA,NA,NA,right,NA,NA,NA,absent,NA,NA,m_l_045.jpg,yellow,m_l_020.jpg,blue,between,NA,NaN,NA,NA,NA,NA,right,3178.900000002235,1,1,926.5
Wbz5DPvN,3k2cedradeesg9mhvkrgq648pmomto,3sepori8wrcpn4klvbvvsn6hkczzas,Wbz5DPvN,2020-0188,2021-10-30,14:48:16,16:10:52,NA,incomplete,false,NA,true,NA,4,2,NA,NA,NA,left,NA,NA,NA,absent,NA,NA,n_l_010.jpg,gray,n_s_042.jpg,blue,between,NA,NaN,NA,NA,NA,NA,right,2893.699999999255,0,2,1547.9000000022352
Wbz5DPvN,3k2cedradeesg9mhvkrgq648pmomto,3sepori8wrcpn4klvbvvsn6hkczzas,Wbz5DPvN,2020-0188,2021-10-30,14:48:16,16:10:52,NA,incomplete,false,NA,true,NA,4,3,NA,NA,NA,right,NA,NA,NA,absent,NA,NA,n_l_027.jpg,gray,m_s_016.jpg,red,between,NA,NaN,NA,NA,NA,NA,left,8018.599999997765,0,2,999.9000000022352
Wbz5DPvN,3k2cedradeesg9mhvkrgq648pmomto,3sepori8wrcpn4klvbvvsn6hkczzas,Wbz5DPvN,2020-0188,2021-10-30,14:48:16,16:10:52,NA,incomplete,false,NA,true,NA,4,4,NA,NA,NA,right,NA,NA,NA,absent,NA,NA,m_s_038.jpg,red,m_s_006.jpg,green,between,NA,NaN,NA,NA,NA,NA,left,2099.39999999851,0,0,1034.8999999985099
Wbz5DPvN,3k2cedradeesg9mhvkrgq648pmomto,3sepori8wrcpn4klvbvvsn6hkczzas,Wbz5DPvN,2020-0188,2021-10-30,14:48:16,16:10:52,NA,incomplete,false,NA,true,NA,4,5,NA,NA,NA,left,NA,NA,NA,absent,NA,NA,n_s_025.jpg,blue,m_s_046.jpg,blue,within,NA,NaN,NA,NA,NA,NA,right,2348.900000002235,0,3,1744.5
Wbz5DPvN,3k2cedradeesg9mhvkrgq648pmomto,3sepori8wrcpn4klvbvvsn6hkczzas,Wbz5DPvN,2020-0188,2021-10-30,14:48:16,16:10:52,NA,incomplete,false,NA,true,NA,4,6,NA,NA,NA,right,NA,NA,NA,absent,NA,NA,m_l_113.jpg,green,n_s_018.jpg,green,within,NA,NaN,NA,NA,NA,NA,right,4238.89999999851,1,0,2590.300000000745
Wbz5DPvN,3k2cedradeesg9mhvkrgq648pmomto,3sepori8wrcpn4klvbvvsn6hkczzas,Wbz5DPvN,2020-0188,2021-10-30,14:48:16,16:10:52,NA,incomplete,false,NA,true,NA,4,7,NA,NA,NA,right,NA,NA,NA,absent,NA,NA,n_s_069.jpg,green,n_l_030.jpg,black,between,NA,NaN,NA,NA,NA,NA,left,2223.099999997765,0,2,1773.199999999255
Wbz5DPvN,3k2cedradeesg9mhvkrgq648pmomto,3sepori8wrcpn4klvbvvsn6hkczzas,Wbz5DPvN,2020-0188,2021-10-30,14:48:16,16:10:52,NA,incomplete,false,NA,true,NA,4,8,NA,NA,NA,left,NA,NA,NA,absent,NA,NA,n_s_048.jpg,gray,m_l_051.jpg,gray,within,NA,NaN,NA,NA,NA,NA,left,4361.800000000745,1,0,969.1000000014901
Wbz5DPvN,3k2cedradeesg9mhvkrgq648pmomto,3sepori8wrcpn4klvbvvsn6hkczzas,Wbz5DPvN,2020-0188,2021-10-30,14:48:16,16:10:52,NA,incomplete,false,NA,true,NA,4,9,NA,NA,NA,left,NA,NA,NA,absent,NA,NA,n_l_068.jpg,yellow,m_l_105.jpg,yellow,within,NA,NaN,NA,NA,NA,NA,right,2811,0,2,4093.2000000029802
Wbz5DPvN,3k2cedradeesg9mhvkrgq648pmomto,3sepori8wrcpn4klvbvvsn6hkczzas,Wbz5DPvN,2020-0188,2021-10-30,14:48:16,16:10:52,NA,incomplete,false,NA,true,NA,4,10,NA,NA,NA,left,NA,NA,NA,absent,NA,NA,n_l_022.jpg,black,n_l_096.jpg,black,within,NA,NaN,NA,NA,NA,NA,left,2807.5,1,2,941.0999999977648
Wbz5DPvN,3k2cedradeesg9mhvkrgq648pmomto,3sepori8wrcpn4klvbvvsn6hkczzas,Wbz5DPvN,2020-0188,2021-10-30,14:48:16,16:10:52,NA,incomplete,false,true,NA,NA,5,0,NA,red,n_s_009.jpg,NA,NA,NA,NA,NA,pleasant,unpleasant,NA,NA,NA,NA,NA,left,1910.39999999851,true,NA,NA,NA,NA,NA,NA,NA,NA
Wbz5DPvN,3k2cedradeesg9mhvkrgq648pmomto,3sepori8wrcpn4klvbvvsn6hkczzas,Wbz5DPvN,2020-0188,2021-10-30,14:48:16,16:10:52,NA,incomplete,false,true,NA,NA,5,1,NA,red,m_s_089.jpg,NA,NA,NA,NA,NA,unpleasant,pleasant,NA,NA,NA,NA,NA,left,2108.10000000149,true,NA,NA,NA,NA,NA,NA,NA,NA
Wbz5DPvN,3k2cedradeesg9mhvkrgq648pmomto,3sepori8wrcpn4klvbvvsn6hkczzas,Wbz5DPvN,2020-0188,2021-10-30,14:48:16,16:10:52,NA,incomplete,false,true,NA,NA,5,2,NA,red,n_s_103.jpg,NA,NA,NA,NA,NA,unpleasant,pleasant,NA,NA,NA,NA,NA,right,2095.89999999851,true,NA,NA,NA,NA,NA,NA,NA,NA
Wbz5DPvN,3k2cedradeesg9mhvkrgq648pmomto,3sepori8wrcpn4klvbvvsn6hkczzas,Wbz5DPvN,2020-0188,2021-10-30,14:48:16,16:10:52,NA,incomplete,false,true,NA,NA,5,3,NA,red,n_s_004.jpg,NA,NA,NA,NA,NA,unpleasant,pleasant,NA,NA,NA,NA,NA,right,1484.80000000075,true,NA,NA,NA,NA,NA,NA,NA,NA
Wbz5DPvN,3k2cedradeesg9mhvkrgq648pmomto,3sepori8wrcpn4klvbvvsn6hkczzas,Wbz5DPvN,2020-0188,2021-10-30,14:48:16,16:10:52,NA,incomplete,false,true,NA,NA,5,4,NA,red,n_s_038.jpg,NA,NA,NA,NA,NA,pleasant,unpleasant,NA,NA,NA,NA,NA,right,1367.59999999776,true,NA,NA,NA,NA,NA,NA,NA,NA
Wbz5DPvN,3k2cedradeesg9mhvkrgq648pmomto,3sepori8wrcpn4klvbvvsn6hkczzas,Wbz5DPvN,2020-0188,2021-10-30,14:48:16,16:10:52,NA,incomplete,false,true,NA,NA,5,5,NA,red,m_l_052.jpg,NA,NA,NA,NA,NA,pleasant,unpleasant,NA,NA,NA,NA,NA,right,1861.5,true,NA,NA,NA,NA,NA,NA,NA,NA
Wbz5DPvN,3k2cedradeesg9mhvkrgq648pmomto,3sepori8wrcpn4klvbvvsn6hkczzas,Wbz5DPvN,2020-0188,2021-10-30,14:48:16,16:10:52,NA,incomplete,false,true,NA,NA,5,6,NA,orange,n_l_047.jpg,NA,NA,NA,NA,NA,unpleasant,pleasant,NA,NA,NA,NA,NA,right,2049,true,NA,NA,NA,NA,NA,NA,NA,NA
Wbz5DPvN,3k2cedradeesg9mhvkrgq648pmomto,3sepori8wrcpn4klvbvvsn6hkczzas,Wbz5DPvN,2020-0188,2021-10-30,14:48:16,16:10:52,NA,incomplete,false,true,NA,NA,5,7,NA,orange,n_l_018.jpg,NA,NA,NA,NA,NA,pleasant,unpleasant,NA,NA,NA,NA,NA,left,1366.30000000075,true,NA,NA,NA,NA,NA,NA,NA,NA
Wbz5DPvN,3k2cedradeesg9mhvkrgq648pmomto,3sepori8wrcpn4klvbvvsn6hkczzas,Wbz5DPvN,2020-0188,2021-10-30,14:48:16,16:10:52,NA,incomplete,false,true,NA,NA,5,8,NA,orange,m_s_094.jpg,NA,NA,NA,NA,NA,pleasant,unpleasant,NA,NA,NA,NA,NA,left,2107.19999999925,true,NA,NA,NA,NA,NA,NA,NA,NA
Wbz5DPvN,3k2cedradeesg9mhvkrgq648pmomto,3sepori8wrcpn4klvbvvsn6hkczzas,Wbz5DPvN,2020-0188,2021-10-30,14:48:16,16:10:52,NA,incomplete,false,true,NA,NA,5,9,NA,orange,n_s_107.jpg,NA,NA,NA,NA,NA,pleasant,unpleasant,NA,NA,NA,NA,NA,left,1487.59999999776,true,NA,NA,NA,NA,NA,NA,NA,NA
Wbz5DPvN,3k2cedradeesg9mhvkrgq648pmomto,3sepori8wrcpn4klvbvvsn6hkczzas,Wbz5DPvN,2020-0188,2021-10-30,14:48:16,16:10:52,NA,incomplete,false,true,NA,NA,5,10,NA,orange,n_s_113.jpg,NA,NA,NA,NA,NA,pleasant,unpleasant,NA,NA,NA,NA,NA,left,1674,true,NA,NA,NA,NA,NA,NA,NA,NA
Wbz5DPvN,3k2cedradeesg9mhvkrgq648pmomto,3sepori8wrcpn4klvbvvsn6hkczzas,Wbz5DPvN,2020-0188,2021-10-30,14:48:16,16:10:52,NA,incomplete,false,true,NA,NA,5,11,NA,orange,m_s_091.jpg,NA,NA,NA,NA,NA,unpleasant,pleasant,NA,NA,NA,NA,NA,right,1527.5,true,NA,NA,NA,NA,NA,NA,NA,NA
Wbz5DPvN,3k2cedradeesg9mhvkrgq648pmomto,3sepori8wrcpn4klvbvvsn6hkczzas,Wbz5DPvN,2020-0188,2021-10-30,14:48:16,16:10:52,NA,incomplete,false,true,NA,NA,5,12,NA,blue,n_s_006.jpg,NA,NA,NA,NA,NA,pleasant,unpleasant,NA,NA,NA,NA,NA,right,1251.89999999851,true,NA,NA,NA,NA,NA,NA,NA,NA
Wbz5DPvN,3k2cedradeesg9mhvkrgq648pmomto,3sepori8wrcpn4klvbvvsn6hkczzas,Wbz5DPvN,2020-0188,2021-10-30,14:48:16,16:10:52,NA,incomplete,false,true,NA,NA,5,13,NA,blue,m_s_078.jpg,NA,NA,NA,NA,NA,pleasant,unpleasant,NA,NA,NA,NA,NA,left,2312.20000000298,true,NA,NA,NA,NA,NA,NA,NA,NA
Wbz5DPvN,3k2cedradeesg9mhvkrgq648pmomto,3sepori8wrcpn4klvbvvsn6hkczzas,Wbz5DPvN,2020-0188,2021-10-30,14:48:16,16:10:52,NA,incomplete,false,true,NA,NA,5,14,NA,blue,m_s_061.jpg,NA,NA,NA,NA,NA,unpleasant,pleasant,NA,NA,NA,NA,NA,right,1123.20000000298,true,NA,NA,NA,NA,NA,NA,NA,NA
Wbz5DPvN,3k2cedradeesg9mhvkrgq648pmomto,3sepori8wrcpn4klvbvvsn6hkczzas,Wbz5DPvN,2020-0188,2021-10-30,14:48:16,16:10:52,NA,incomplete,false,true,NA,NA,5,15,NA,blue,n_s_055.jpg,NA,NA,NA,NA,NA,pleasant,unpleasant,NA,NA,NA,NA,NA,right,1839.19999999925,true,NA,NA,NA,NA,NA,NA,NA,NA
Wbz5DPvN,3k2cedradeesg9mhvkrgq648pmomto,3sepori8wrcpn4klvbvvsn6hkczzas,Wbz5DPvN,2020-0188,2021-10-30,14:48:16,16:10:52,NA,incomplete,false,true,NA,NA,5,16,NA,blue,n_s_030.jpg,NA,NA,NA,NA,NA,pleasant,unpleasant,NA,NA,NA,NA,NA,left,1938.80000000075,true,NA,NA,NA,NA,NA,NA,NA,NA
Wbz5DPvN,3k2cedradeesg9mhvkrgq648pmomto,3sepori8wrcpn4klvbvvsn6hkczzas,Wbz5DPvN,2020-0188,2021-10-30,14:48:16,16:10:52,NA,incomplete,false,true,NA,NA,5,17,NA,blue,m_s_055.jpg,NA,NA,NA,NA,NA,unpleasant,pleasant,NA,NA,NA,NA,NA,right,1280.40000000224,true,NA,NA,NA,NA,NA,NA,NA,NA
