workerId,hitId,assignmentId,subject,studyid,exp_date,exp_start,exp_end,time_start,time_end,practice,encoding,memory,association,block,trial,event_order,event,stim,answer,object,left_context,right_context,context_type,label_left,label_right,left_image,left_event,right_image,right_event,condition,response,response_time,response_acc,association_response_time,association_response,association_acc,order_response,order_response_time,order_acc,distance_response,distance_response_time
XOos5hem,3fk4g712o0duz4m7qhicsa7sfszsso,3tayzsbplpl3hp33n488qcqgmdms2x,XOos5hem,2020-0188,2021-10-31,20:05:45,02:38:42,NA,incomplete,true,true,NA,NA,0,0,NA,white,m_s_070.jpg,NA,NA,NA,NA,NA,pleasant,unpleasant,NA,NA,NA,NA,NA,right,2472.89999961853,true,NA,NA,NA,NA,NA,NA,NA,NA
XOos5hem,3fk4g712o0duz4m7qhicsa7sfszsso,3tayzsbplpl3hp33n488qcqgmdms2x,XOos5hem,2020-0188,2021-10-31,20:05:45,02:38:42,NA,incomplete,true,true,NA,NA,0,1,NA,white,n_l_079.jpg,NA,NA,NA,NA,NA,unpleasant,pleasant,NA,NA,NA,NA,NA,right,2162.60000038147,true,NA,NA,NA,NA,NA,NA,NA,NA
XOos5hem,3fk4g712o0duz4m7qhicsa7sfszsso,3tayzsbplpl3hp33n488qcqgmdms2x,XOos5hem,2020-0188,2021-10-31,20:05:45,02:38:42,NA,incomplete,true,true,NA,NA,0,2,NA,white,n_l_080.jpg,NA,NA,NA,NA,NA,pleasant,unpleasant,NA,NA,NA,NA,NA,left,1505.5,true,NA,NA,NA,NA,NA,NA,NA,NA
XOos5hem,3fk4g712o0duz4m7qhicsa7sfszsso,3tayzsbplpl3hp33n488qcqgmdms2x,XOos5hem,2020-0188,2021-10-31,20:05:45,02:38:42,NA,incomplete,true,true,NA,NA,0,3,NA,white,m_l_023.jpg,NA,NA,NA,NA,NA,pleasant,unpleasant,NA,NA,NA,NA,NA,left,2770.60000038147,true,NA,NA,NA,NA,NA,NA,NA,NA
XOos5hem,3fk4g712o0duz4m7qhicsa7sfszsso,3tayzsbplpl3hp33n488qcqgmdms2x,XOos5hem,2020-0188,2021-10-31,20:05:45,02:38:42,NA,incomplete,true,true,NA,NA,0,4,NA,white,n_s_093.jpg,NA,NA,NA,NA,NA,unpleasant,pleasant,NA,NA,NA,NA,NA,left,1511.80000114441,true,NA,NA,NA,NA,NA,NA,NA,NA
XOos5hem,3fk4g712o0duz4m7qhicsa7sfszsso,3tayzsbplpl3hp33n488qcqgmdms2x,XOos5hem,2020-0188,2021-10-31,20:05:45,02:38:42,NA,incomplete,true,true,NA,NA,0,5,NA,white,m_s_075.jpg,NA,NA,NA,NA,NA,pleasant,unpleasant,NA,NA,NA,NA,NA,left,1787.60000038147,true,NA,NA,NA,NA,NA,NA,NA,NA
XOos5hem,3fk4g712o0duz4m7qhicsa7sfszsso,3tayzsbplpl3hp33n488qcqgmdms2x,XOos5hem,2020-0188,2021-10-31,20:05:45,02:38:42,NA,incomplete,true,true,NA,NA,0,6,NA,green,m_s_062.jpg,NA,NA,NA,NA,NA,unpleasant,pleasant,NA,NA,NA,NA,NA,right,1667.69999885559,true,NA,NA,NA,NA,NA,NA,NA,NA
XOos5hem,3fk4g712o0duz4m7qhicsa7sfszsso,3tayzsbplpl3hp33n488qcqgmdms2x,XOos5hem,2020-0188,2021-10-31,20:05:45,02:38:42,NA,incomplete,true,true,NA,NA,0,7,NA,green,n_s_057.jpg,NA,NA,NA,NA,NA,pleasant,unpleasant,NA,NA,NA,NA,NA,right,2086.39999961853,true,NA,NA,NA,NA,NA,NA,NA,NA
XOos5hem,3fk4g712o0duz4m7qhicsa7sfszsso,3tayzsbplpl3hp33n488qcqgmdms2x,XOos5hem,2020-0188,2021-10-31,20:05:45,02:38:42,NA,incomplete,true,true,NA,NA,0,8,NA,green,m_s_017.jpg,NA,NA,NA,NA,NA,unpleasant,pleasant,NA,NA,NA,NA,NA,left,3205,true,NA,NA,NA,NA,NA,NA,NA,NA
XOos5hem,3fk4g712o0duz4m7qhicsa7sfszsso,3tayzsbplpl3hp33n488qcqgmdms2x,XOos5hem,2020-0188,2021-10-31,20:05:45,02:38:42,NA,incomplete,true,true,NA,NA,0,9,NA,green,m_l_055.jpg,NA,NA,NA,NA,NA,pleasant,unpleasant,NA,NA,NA,NA,NA,right,1651.90000152588,true,NA,NA,NA,NA,NA,NA,NA,NA
XOos5hem,3fk4g712o0duz4m7qhicsa7sfszsso,3tayzsbplpl3hp33n488qcqgmdms2x,XOos5hem,2020-0188,2021-10-31,20:05:45,02:38:42,NA,incomplete,true,true,NA,NA,0,10,NA,green,n_s_034.jpg,NA,NA,NA,NA,NA,unpleasant,pleasant,NA,NA,NA,NA,NA,right,1294.60000038147,true,NA,NA,NA,NA,NA,NA,NA,NA
XOos5hem,3fk4g712o0duz4m7qhicsa7sfszsso,3tayzsbplpl3hp33n488qcqgmdms2x,XOos5hem,2020-0188,2021-10-31,20:05:45,02:38:42,NA,incomplete,true,true,NA,NA,0,11,NA,green,n_s_074.jpg,NA,NA,NA,NA,NA,unpleasant,pleasant,NA,NA,NA,NA,NA,right,1107.90000152588,true,NA,NA,NA,NA,NA,NA,NA,NA
XOos5hem,3fk4g712o0duz4m7qhicsa7sfszsso,3tayzsbplpl3hp33n488qcqgmdms2x,XOos5hem,2020-0188,2021-10-31,20:05:45,02:38:42,NA,incomplete,true,true,NA,NA,0,12,NA,brown,m_s_066.jpg,NA,NA,NA,NA,NA,unpleasant,pleasant,NA,NA,NA,NA,NA,left,1360.30000114441,true,NA,NA,NA,NA,NA,NA,NA,NA
XOos5hem,3fk4g712o0duz4m7qhicsa7sfszsso,3tayzsbplpl3hp33n488qcqgmdms2x,XOos5hem,2020-0188,2021-10-31,20:05:45,02:38:42,NA,incomplete,true,true,NA,NA,0,13,NA,brown,m_s_068.jpg,NA,NA,NA,NA,NA,pleasant,unpleasant,NA,NA,NA,NA,NA,left,1661,true,NA,NA,NA,NA,NA,NA,NA,NA
XOos5hem,3fk4g712o0duz4m7qhicsa7sfszsso,3tayzsbplpl3hp33n488qcqgmdms2x,XOos5hem,2020-0188,2021-10-31,20:05:45,02:38:42,NA,incomplete,true,true,NA,NA,0,14,NA,brown,m_l_073.jpg,NA,NA,NA,NA,NA,pleasant,unpleasant,NA,NA,NA,NA,NA,right,1343.30000114441,true,NA,NA,NA,NA,NA,NA,NA,NA
XOos5hem,3fk4g712o0duz4m7qhicsa7sfszsso,3tayzsbplpl3hp33n488qcqgmdms2x,XOos5hem,2020-0188,2021-10-31,20:05:45,02:38:42,NA,incomplete,true,true,NA,NA,0,15,NA,brown,m_l_074.jpg,NA,NA,NA,NA,NA,unpleasant,pleasant,NA,NA,NA,NA,NA,right,1282.70000076294,true,NA,NA,NA,NA,NA,NA,NA,NA
XOos5hem,3fk4g712o0duz4m7qhicsa7sfszsso,3tayzsbplpl3hp33n488qcqgmdms2x,XOos5hem,2020-0188,2021-10-31,20:05:45,02:38:42,NA,incomplete,true,true,NA,NA,0,16,NA,brown,m_s_005.jpg,NA,NA,NA,NA,NA,unpleasant,pleasant,NA,NA,NA,NA,NA,right,1346.79999923706,true,NA,NA,NA,NA,NA,NA,NA,NA
XOos5hem,3fk4g712o0duz4m7qhicsa7sfszsso,3tayzsbplpl3hp33n488qcqgmdms2x,XOos5hem,2020-0188,2021-10-31,20:05:45,02:38:42,NA,incomplete,true,true,NA,NA,0,17,NA,brown,n_s_104.jpg,NA,NA,NA,NA,NA,pleasant,unpleasant,NA,NA,NA,NA,NA,left,1212.89999961853,true,NA,NA,NA,NA,NA,NA,NA,NA
XOos5hem,3fk4g712o0duz4m7qhicsa7sfszsso,3tayzsbplpl3hp33n488qcqgmdms2x,XOos5hem,2020-0188,2021-10-31,20:05:45,02:38:42,NA,incomplete,true,true,NA,NA,0,18,NA,blue,m_l_097.jpg,NA,NA,NA,NA,NA,pleasant,unpleasant,NA,NA,NA,NA,NA,left,1113.19999885559,true,NA,NA,NA,NA,NA,NA,NA,NA
XOos5hem,3fk4g712o0duz4m7qhicsa7sfszsso,3tayzsbplpl3hp33n488qcqgmdms2x,XOos5hem,2020-0188,2021-10-31,20:05:45,02:38:42,NA,incomplete,true,true,NA,NA,0,19,NA,blue,n_l_103.jpg,NA,NA,NA,NA,NA,pleasant,unpleasant,NA,NA,NA,NA,NA,left,1120,true,NA,NA,NA,NA,NA,NA,NA,NA
XOos5hem,3fk4g712o0duz4m7qhicsa7sfszsso,3tayzsbplpl3hp33n488qcqgmdms2x,XOos5hem,2020-0188,2021-10-31,20:05:45,02:38:42,NA,incomplete,true,true,NA,NA,0,20,NA,blue,m_l_015.jpg,NA,NA,NA,NA,NA,unpleasant,pleasant,NA,NA,NA,NA,NA,right,1285.69999885559,true,NA,NA,NA,NA,NA,NA,NA,NA
XOos5hem,3fk4g712o0duz4m7qhicsa7sfszsso,3tayzsbplpl3hp33n488qcqgmdms2x,XOos5hem,2020-0188,2021-10-31,20:05:45,02:38:42,NA,incomplete,true,true,NA,NA,0,21,NA,blue,m_l_036.jpg,NA,NA,NA,NA,NA,pleasant,unpleasant,NA,NA,NA,NA,NA,right,1482,true,NA,NA,NA,NA,NA,NA,NA,NA
XOos5hem,3fk4g712o0duz4m7qhicsa7sfszsso,3tayzsbplpl3hp33n488qcqgmdms2x,XOos5hem,2020-0188,2021-10-31,20:05:45,02:38:42,NA,incomplete,true,true,NA,NA,0,22,NA,blue,n_l_043.jpg,NA,NA,NA,NA,NA,pleasant,unpleasant,NA,NA,NA,NA,NA,left,1012.89999961853,true,NA,NA,NA,NA,NA,NA,NA,NA
XOos5hem,3fk4g712o0duz4m7qhicsa7sfszsso,3tayzsbplpl3hp33n488qcqgmdms2x,XOos5hem,2020-0188,2021-10-31,20:05:45,02:38:42,NA,incomplete,true,true,NA,NA,0,23,NA,blue,m_l_054.jpg,NA,NA,NA,NA,NA,unpleasant,pleasant,NA,NA,NA,NA,NA,right,1805.60000038147,true,NA,NA,NA,NA,NA,NA,NA,NA
XOos5hem,3fk4g712o0duz4m7qhicsa7sfszsso,3tayzsbplpl3hp33n488qcqgmdms2x,XOos5hem,2020-0188,2021-10-31,20:05:45,02:38:42,NA,incomplete,true,true,NA,NA,0,24,NA,gray,m_s_069.jpg,NA,NA,NA,NA,NA,pleasant,unpleasant,NA,NA,NA,NA,NA,left,1565.69999885559,true,NA,NA,NA,NA,NA,NA,NA,NA
XOos5hem,3fk4g712o0duz4m7qhicsa7sfszsso,3tayzsbplpl3hp33n488qcqgmdms2x,XOos5hem,2020-0188,2021-10-31,20:05:45,02:38:42,NA,incomplete,true,true,NA,NA,0,25,NA,gray,m_l_086.jpg,NA,NA,NA,NA,NA,pleasant,unpleasant,NA,NA,NA,NA,NA,left,1029.89999961853,true,NA,NA,NA,NA,NA,NA,NA,NA
XOos5hem,3fk4g712o0duz4m7qhicsa7sfszsso,3tayzsbplpl3hp33n488qcqgmdms2x,XOos5hem,2020-0188,2021-10-31,20:05:45,02:38:42,NA,incomplete,true,true,NA,NA,0,26,NA,gray,n_l_024.jpg,NA,NA,NA,NA,NA,unpleasant,pleasant,NA,NA,NA,NA,NA,right,1274.29999923706,true,NA,NA,NA,NA,NA,NA,NA,NA
XOos5hem,3fk4g712o0duz4m7qhicsa7sfszsso,3tayzsbplpl3hp33n488qcqgmdms2x,XOos5hem,2020-0188,2021-10-31,20:05:45,02:38:42,NA,incomplete,true,true,NA,NA,0,27,NA,gray,m_l_060.jpg,NA,NA,NA,NA,NA,unpleasant,pleasant,NA,NA,NA,NA,NA,right,921.89999961853,true,NA,NA,NA,NA,NA,NA,NA,NA
XOos5hem,3fk4g712o0duz4m7qhicsa7sfszsso,3tayzsbplpl3hp33n488qcqgmdms2x,XOos5hem,2020-0188,2021-10-31,20:05:45,02:38:42,NA,incomplete,true,true,NA,NA,0,28,NA,gray,m_l_113.jpg,NA,NA,NA,NA,NA,unpleasant,pleasant,NA,NA,NA,NA,NA,left,1208.39999961853,true,NA,NA,NA,NA,NA,NA,NA,NA
XOos5hem,3fk4g712o0duz4m7qhicsa7sfszsso,3tayzsbplpl3hp33n488qcqgmdms2x,XOos5hem,2020-0188,2021-10-31,20:05:45,02:38:42,NA,incomplete,true,true,NA,NA,0,29,NA,gray,n_s_012.jpg,NA,NA,NA,NA,NA,pleasant,unpleasant,NA,NA,NA,NA,NA,left,1103.10000038147,true,NA,NA,NA,NA,NA,NA,NA,NA
XOos5hem,3fk4g712o0duz4m7qhicsa7sfszsso,3tayzsbplpl3hp33n488qcqgmdms2x,XOos5hem,2020-0188,2021-10-31,20:05:45,02:38:42,NA,incomplete,true,true,NA,NA,0,30,NA,black,n_s_070.jpg,NA,NA,NA,NA,NA,pleasant,unpleasant,NA,NA,NA,NA,NA,left,979.60000038147,true,NA,NA,NA,NA,NA,NA,NA,NA
XOos5hem,3fk4g712o0duz4m7qhicsa7sfszsso,3tayzsbplpl3hp33n488qcqgmdms2x,XOos5hem,2020-0188,2021-10-31,20:05:45,02:38:42,NA,incomplete,true,true,NA,NA,0,31,NA,black,m_s_030.jpg,NA,NA,NA,NA,NA,pleasant,unpleasant,NA,NA,NA,NA,NA,left,1697,true,NA,NA,NA,NA,NA,NA,NA,NA
XOos5hem,3fk4g712o0duz4m7qhicsa7sfszsso,3tayzsbplpl3hp33n488qcqgmdms2x,XOos5hem,2020-0188,2021-10-31,20:05:45,02:38:42,NA,incomplete,true,true,NA,NA,0,32,NA,black,m_l_068.jpg,NA,NA,NA,NA,NA,pleasant,unpleasant,NA,NA,NA,NA,NA,left,1924.70000076294,true,NA,NA,NA,NA,NA,NA,NA,NA
XOos5hem,3fk4g712o0duz4m7qhicsa7sfszsso,3tayzsbplpl3hp33n488qcqgmdms2x,XOos5hem,2020-0188,2021-10-31,20:05:45,02:38:42,NA,incomplete,true,true,NA,NA,0,33,NA,black,m_s_018.jpg,NA,NA,NA,NA,NA,unpleasant,pleasant,NA,NA,NA,NA,NA,right,1759.59999847412,true,NA,NA,NA,NA,NA,NA,NA,NA
XOos5hem,3fk4g712o0duz4m7qhicsa7sfszsso,3tayzsbplpl3hp33n488qcqgmdms2x,XOos5hem,2020-0188,2021-10-31,20:05:45,02:38:42,NA,incomplete,true,true,NA,NA,0,34,NA,black,m_l_045.jpg,NA,NA,NA,NA,NA,pleasant,unpleasant,NA,NA,NA,NA,NA,left,1162.29999923706,true,NA,NA,NA,NA,NA,NA,NA,NA
XOos5hem,3fk4g712o0duz4m7qhicsa7sfszsso,3tayzsbplpl3hp33n488qcqgmdms2x,XOos5hem,2020-0188,2021-10-31,20:05:45,02:38:42,NA,incomplete,true,true,NA,NA,0,35,NA,black,n_s_029.jpg,NA,NA,NA,NA,NA,pleasant,unpleasant,NA,NA,NA,NA,NA,left,1014.5,true,NA,NA,NA,NA,NA,NA,NA,NA
XOos5hem,3fk4g712o0duz4m7qhicsa7sfszsso,3tayzsbplpl3hp33n488qcqgmdms2x,XOos5hem,2020-0188,2021-10-31,20:05:45,02:38:42,NA,incomplete,true,NA,NA,true,0,0,NA,NA,NA,left,m_l_086.jpg,gray,blue,NA,NA,NA,NA,NA,NA,NA,NA,NA,NaN,NA,2469.699998855591,left,1,NA,NA,NA,NA,NA
XOos5hem,3fk4g712o0duz4m7qhicsa7sfszsso,3tayzsbplpl3hp33n488qcqgmdms2x,XOos5hem,2020-0188,2021-10-31,20:05:45,02:38:42,NA,incomplete,true,NA,NA,true,0,1,NA,NA,NA,right,n_s_093.jpg,green,white,NA,NA,NA,NA,NA,NA,NA,NA,NA,NaN,NA,3477.5,right,1,NA,NA,NA,NA,NA
XOos5hem,3fk4g712o0duz4m7qhicsa7sfszsso,3tayzsbplpl3hp33n488qcqgmdms2x,XOos5hem,2020-0188,2021-10-31,20:05:45,02:38:42,NA,incomplete,true,NA,NA,true,0,2,NA,NA,NA,left,n_s_104.jpg,brown,blue,NA,NA,NA,NA,NA,NA,NA,NA,NA,NaN,NA,2428.7999992370605,left,1,NA,NA,NA,NA,NA
XOos5hem,3fk4g712o0duz4m7qhicsa7sfszsso,3tayzsbplpl3hp33n488qcqgmdms2x,XOos5hem,2020-0188,2021-10-31,20:05:45,02:38:42,NA,incomplete,true,NA,NA,true,0,3,NA,NA,NA,left,n_s_057.jpg,green,white,NA,NA,NA,NA,NA,NA,NA,NA,NA,NaN,NA,1782.6000003814697,right,0,NA,NA,NA,NA,NA
XOos5hem,3fk4g712o0duz4m7qhicsa7sfszsso,3tayzsbplpl3hp33n488qcqgmdms2x,XOos5hem,2020-0188,2021-10-31,20:05:45,02:38:42,NA,incomplete,true,NA,NA,true,0,4,NA,NA,NA,right,m_l_054.jpg,gray,blue,NA,NA,NA,NA,NA,NA,NA,NA,NA,NaN,NA,2007.2999992370605,left,0,NA,NA,NA,NA,NA
XOos5hem,3fk4g712o0duz4m7qhicsa7sfszsso,3tayzsbplpl3hp33n488qcqgmdms2x,XOos5hem,2020-0188,2021-10-31,20:05:45,02:38:42,NA,incomplete,true,NA,NA,true,0,5,NA,NA,NA,right,m_l_015.jpg,brown,blue,NA,NA,NA,NA,NA,NA,NA,NA,NA,NaN,NA,2461.5,left,0,NA,NA,NA,NA,NA
XOos5hem,3fk4g712o0duz4m7qhicsa7sfszsso,3tayzsbplpl3hp33n488qcqgmdms2x,XOos5hem,2020-0188,2021-10-31,20:05:45,02:38:42,NA,incomplete,true,NA,NA,true,0,6,NA,NA,NA,right,m_s_017.jpg,white,green,NA,NA,NA,NA,NA,NA,NA,NA,NA,NaN,NA,2077.5,left,0,NA,NA,NA,NA,NA
XOos5hem,3fk4g712o0duz4m7qhicsa7sfszsso,3tayzsbplpl3hp33n488qcqgmdms2x,XOos5hem,2020-0188,2021-10-31,20:05:45,02:38:42,NA,incomplete,true,NA,NA,true,0,7,NA,NA,NA,left,m_s_005.jpg,brown,blue,NA,NA,NA,NA,NA,NA,NA,NA,NA,NaN,NA,2320.1000003814697,left,1,NA,NA,NA,NA,NA
XOos5hem,3fk4g712o0duz4m7qhicsa7sfszsso,3tayzsbplpl3hp33n488qcqgmdms2x,XOos5hem,2020-0188,2021-10-31,20:05:45,02:38:42,NA,incomplete,true,NA,NA,true,0,8,NA,NA,NA,right,m_s_068.jpg,green,brown,NA,NA,NA,NA,NA,NA,NA,NA,NA,NaN,NA,1756.3999996185303,right,1,NA,NA,NA,NA,NA
XOos5hem,3fk4g712o0duz4m7qhicsa7sfszsso,3tayzsbplpl3hp33n488qcqgmdms2x,XOos5hem,2020-0188,2021-10-31,20:05:45,02:38:42,NA,incomplete,true,NA,NA,true,0,9,NA,NA,NA,left,n_l_024.jpg,gray,black,NA,NA,NA,NA,NA,NA,NA,NA,NA,NaN,NA,2241.2999992370605,left,1,NA,NA,NA,NA,NA
XOos5hem,3fk4g712o0duz4m7qhicsa7sfszsso,3tayzsbplpl3hp33n488qcqgmdms2x,XOos5hem,2020-0188,2021-10-31,20:05:45,02:38:42,NA,incomplete,true,NA,NA,true,0,10,NA,NA,NA,right,n_s_074.jpg,brown,green,NA,NA,NA,NA,NA,NA,NA,NA,NA,NaN,NA,3923.2000007629395,right,1,NA,NA,NA,NA,NA
XOos5hem,3fk4g712o0duz4m7qhicsa7sfszsso,3tayzsbplpl3hp33n488qcqgmdms2x,XOos5hem,2020-0188,2021-10-31,20:05:45,02:38:42,NA,incomplete,true,NA,NA,true,0,11,NA,NA,NA,right,m_l_113.jpg,black,gray,NA,NA,NA,NA,NA,NA,NA,NA,NA,NaN,NA,1999.5,right,1,NA,NA,NA,NA,NA
XOos5hem,3fk4g712o0duz4m7qhicsa7sfszsso,3tayzsbplpl3hp33n488qcqgmdms2x,XOos5hem,2020-0188,2021-10-31,20:05:45,02:38:42,NA,incomplete,true,NA,NA,true,0,12,NA,NA,NA,left,m_l_073.jpg,brown,blue,NA,NA,NA,NA,NA,NA,NA,NA,NA,NaN,NA,2047.7999992370605,left,1,NA,NA,NA,NA,NA
XOos5hem,3fk4g712o0duz4m7qhicsa7sfszsso,3tayzsbplpl3hp33n488qcqgmdms2x,XOos5hem,2020-0188,2021-10-31,20:05:45,02:38:42,NA,incomplete,true,NA,NA,true,0,13,NA,NA,NA,right,n_l_103.jpg,gray,blue,NA,NA,NA,NA,NA,NA,NA,NA,NA,NaN,NA,1711,left,0,NA,NA,NA,NA,NA
XOos5hem,3fk4g712o0duz4m7qhicsa7sfszsso,3tayzsbplpl3hp33n488qcqgmdms2x,XOos5hem,2020-0188,2021-10-31,20:05:45,02:38:42,NA,incomplete,true,NA,NA,true,0,14,NA,NA,NA,right,n_s_012.jpg,blue,gray,NA,NA,NA,NA,NA,NA,NA,NA,NA,NaN,NA,1485.1000003814697,right,1,NA,NA,NA,NA,NA
XOos5hem,3fk4g712o0duz4m7qhicsa7sfszsso,3tayzsbplpl3hp33n488qcqgmdms2x,XOos5hem,2020-0188,2021-10-31,20:05:45,02:38:42,NA,incomplete,true,NA,NA,true,0,15,NA,NA,NA,left,n_l_043.jpg,blue,brown,NA,NA,NA,NA,NA,NA,NA,NA,NA,NaN,NA,3501.3999996185303,left,1,NA,NA,NA,NA,NA
XOos5hem,3fk4g712o0duz4m7qhicsa7sfszsso,3tayzsbplpl3hp33n488qcqgmdms2x,XOos5hem,2020-0188,2021-10-31,20:05:45,02:38:42,NA,incomplete,true,NA,NA,true,0,16,NA,NA,NA,right,n_s_029.jpg,gray,black,NA,NA,NA,NA,NA,NA,NA,NA,NA,NaN,NA,2000.8999996185303,left,0,NA,NA,NA,NA,NA
XOos5hem,3fk4g712o0duz4m7qhicsa7sfszsso,3tayzsbplpl3hp33n488qcqgmdms2x,XOos5hem,2020-0188,2021-10-31,20:05:45,02:38:42,NA,incomplete,true,NA,NA,true,0,17,NA,NA,NA,left,m_s_075.jpg,white,green,NA,NA,NA,NA,NA,NA,NA,NA,NA,NaN,NA,2203.3999996185303,left,1,NA,NA,NA,NA,NA
XOos5hem,3fk4g712o0duz4m7qhicsa7sfszsso,3tayzsbplpl3hp33n488qcqgmdms2x,XOos5hem,2020-0188,2021-10-31,20:05:45,02:38:42,NA,incomplete,true,NA,NA,true,0,18,NA,NA,NA,left,n_l_079.jpg,white,green,NA,NA,NA,NA,NA,NA,NA,NA,NA,NaN,NA,2283.900001525879,left,1,NA,NA,NA,NA,NA
XOos5hem,3fk4g712o0duz4m7qhicsa7sfszsso,3tayzsbplpl3hp33n488qcqgmdms2x,XOos5hem,2020-0188,2021-10-31,20:05:45,02:38:42,NA,incomplete,true,NA,NA,true,0,19,NA,NA,NA,left,n_s_034.jpg,green,brown,NA,NA,NA,NA,NA,NA,NA,NA,NA,NaN,NA,2640.6000003814697,right,0,NA,NA,NA,NA,NA
XOos5hem,3fk4g712o0duz4m7qhicsa7sfszsso,3tayzsbplpl3hp33n488qcqgmdms2x,XOos5hem,2020-0188,2021-10-31,20:05:45,02:38:42,NA,incomplete,true,NA,NA,true,0,20,NA,NA,NA,right,m_s_030.jpg,gray,black,NA,NA,NA,NA,NA,NA,NA,NA,NA,NaN,NA,1757.1999988555908,right,1,NA,NA,NA,NA,NA
XOos5hem,3fk4g712o0duz4m7qhicsa7sfszsso,3tayzsbplpl3hp33n488qcqgmdms2x,XOos5hem,2020-0188,2021-10-31,20:05:45,02:38:42,NA,incomplete,true,NA,NA,true,0,21,NA,NA,NA,right,m_l_068.jpg,gray,black,NA,NA,NA,NA,NA,NA,NA,NA,NA,NaN,NA,2141.2999992370605,left,0,NA,NA,NA,NA,NA
XOos5hem,3fk4g712o0duz4m7qhicsa7sfszsso,3tayzsbplpl3hp33n488qcqgmdms2x,XOos5hem,2020-0188,2021-10-31,20:05:45,02:38:42,NA,incomplete,true,NA,true,NA,0,0,NA,NA,NA,left,NA,NA,NA,absent,NA,NA,m_s_030.jpg,black,n_s_029.jpg,black,within,NA,NaN,NA,NA,NA,NA,left,5437.799999237061,1,1,3806.800001144409
XOos5hem,3fk4g712o0duz4m7qhicsa7sfszsso,3tayzsbplpl3hp33n488qcqgmdms2x,XOos5hem,2020-0188,2021-10-31,20:05:45,02:38:42,NA,incomplete,true,NA,true,NA,0,1,NA,NA,NA,left,NA,NA,NA,absent,NA,NA,n_s_057.jpg,green,n_s_074.jpg,green,within,NA,NaN,NA,NA,NA,NA,right,3962.5,0,1,4572.699998855591
XOos5hem,3fk4g712o0duz4m7qhicsa7sfszsso,3tayzsbplpl3hp33n488qcqgmdms2x,XOos5hem,2020-0188,2021-10-31,20:05:45,02:38:42,NA,incomplete,true,NA,true,NA,0,2,NA,NA,NA,left,NA,NA,NA,absent,NA,NA,m_l_113.jpg,gray,m_l_068.jpg,black,between,NA,NaN,NA,NA,NA,NA,left,2382,1,1,3430.7999992370605
XOos5hem,3fk4g712o0duz4m7qhicsa7sfszsso,3tayzsbplpl3hp33n488qcqgmdms2x,XOos5hem,2020-0188,2021-10-31,20:05:45,02:38:42,NA,incomplete,true,NA,true,NA,0,3,NA,NA,NA,right,NA,NA,NA,absent,NA,NA,m_l_015.jpg,blue,m_s_005.jpg,brown,between,NA,NaN,NA,NA,NA,NA,right,2596.1000003814697,1,0,2530.699998855591
XOos5hem,3fk4g712o0duz4m7qhicsa7sfszsso,3tayzsbplpl3hp33n488qcqgmdms2x,XOos5hem,2020-0188,2021-10-31,20:05:45,02:38:42,NA,incomplete,true,NA,true,NA,0,4,NA,NA,NA,left,NA,NA,NA,absent,NA,NA,n_l_103.jpg,blue,m_l_054.jpg,blue,within,NA,NaN,NA,NA,NA,NA,left,4549.099998474121,1,2,1687
XOos5hem,3fk4g712o0duz4m7qhicsa7sfszsso,3tayzsbplpl3hp33n488qcqgmdms2x,XOos5hem,2020-0188,2021-10-31,20:05:45,02:38:42,NA,incomplete,true,NA,true,NA,0,5,NA,NA,NA,right,NA,NA,NA,absent,NA,NA,m_s_017.jpg,green,n_s_093.jpg,white,between,NA,NaN,NA,NA,NA,NA,left,4136.39999961853,0,1,1359.6000003814697
XOos5hem,3fk4g712o0duz4m7qhicsa7sfszsso,3tayzsbplpl3hp33n488qcqgmdms2x,XOos5hem,2020-0188,2021-10-31,20:05:45,02:38:42,NA,incomplete,true,NA,true,NA,0,6,NA,NA,NA,right,NA,NA,NA,absent,NA,NA,n_s_012.jpg,gray,m_l_086.jpg,gray,within,NA,NaN,NA,NA,NA,NA,right,2227.099998474121,1,0,2939.3999996185303
XOos5hem,3fk4g712o0duz4m7qhicsa7sfszsso,3tayzsbplpl3hp33n488qcqgmdms2x,XOos5hem,2020-0188,2021-10-31,20:05:45,02:38:42,NA,incomplete,true,NA,true,NA,0,7,NA,NA,NA,right,NA,NA,NA,absent,NA,NA,n_s_104.jpg,brown,m_s_068.jpg,brown,within,NA,NaN,NA,NA,NA,NA,right,2165.5,1,2,2405.099998474121
XOos5hem,3fk4g712o0duz4m7qhicsa7sfszsso,3tayzsbplpl3hp33n488qcqgmdms2x,XOos5hem,2020-0188,2021-10-31,20:05:45,02:38:42,NA,incomplete,true,NA,true,NA,0,8,NA,NA,NA,left,NA,NA,NA,absent,NA,NA,n_l_043.jpg,blue,n_l_024.jpg,gray,between,NA,NaN,NA,NA,NA,NA,right,4721,0,0,1633
XOos5hem,3fk4g712o0duz4m7qhicsa7sfszsso,3tayzsbplpl3hp33n488qcqgmdms2x,XOos5hem,2020-0188,2021-10-31,20:05:45,02:38:42,NA,incomplete,true,NA,true,NA,0,9,NA,NA,NA,left,NA,NA,NA,absent,NA,NA,n_l_079.jpg,white,m_s_075.jpg,white,within,NA,NaN,NA,NA,NA,NA,right,4446.700000762939,0,0,1750
XOos5hem,3fk4g712o0duz4m7qhicsa7sfszsso,3tayzsbplpl3hp33n488qcqgmdms2x,XOos5hem,2020-0188,2021-10-31,20:05:45,02:38:42,NA,incomplete,true,NA,true,NA,0,10,NA,NA,NA,left,NA,NA,NA,absent,NA,NA,n_s_034.jpg,green,m_l_073.jpg,brown,between,NA,NaN,NA,NA,NA,NA,right,2791.2999992370605,0,1,2219.199998855591
XOos5hem,3fk4g712o0duz4m7qhicsa7sfszsso,3tayzsbplpl3hp33n488qcqgmdms2x,XOos5hem,2020-0188,2021-10-31,20:05:45,02:38:42,NA,incomplete,false,true,NA,NA,1,0,NA,brown,m_l_025.jpg,NA,NA,NA,NA,NA,unpleasant,pleasant,NA,NA,NA,NA,NA,right,1223.10000038147,true,NA,NA,NA,NA,NA,NA,NA,NA
XOos5hem,3fk4g712o0duz4m7qhicsa7sfszsso,3tayzsbplpl3hp33n488qcqgmdms2x,XOos5hem,2020-0188,2021-10-31,20:05:45,02:38:42,NA,incomplete,false,true,NA,NA,1,1,NA,brown,n_l_070.jpg,NA,NA,NA,NA,NA,unpleasant,pleasant,NA,NA,NA,NA,NA,right,1159.20000076294,true,NA,NA,NA,NA,NA,NA,NA,NA
XOos5hem,3fk4g712o0duz4m7qhicsa7sfszsso,3tayzsbplpl3hp33n488qcqgmdms2x,XOos5hem,2020-0188,2021-10-31,20:05:45,02:38:42,NA,incomplete,false,true,NA,NA,1,2,NA,brown,m_s_044.jpg,NA,NA,NA,NA,NA,pleasant,unpleasant,NA,NA,NA,NA,NA,left,1545,true,NA,NA,NA,NA,NA,NA,NA,NA
XOos5hem,3fk4g712o0duz4m7qhicsa7sfszsso,3tayzsbplpl3hp33n488qcqgmdms2x,XOos5hem,2020-0188,2021-10-31,20:05:45,02:38:42,NA,incomplete,false,true,NA,NA,1,3,NA,brown,m_s_020.jpg,NA,NA,NA,NA,NA,unpleasant,pleasant,NA,NA,NA,NA,NA,right,1409.60000038147,true,NA,NA,NA,NA,NA,NA,NA,NA
XOos5hem,3fk4g712o0duz4m7qhicsa7sfszsso,3tayzsbplpl3hp33n488qcqgmdms2x,XOos5hem,2020-0188,2021-10-31,20:05:45,02:38:42,NA,incomplete,false,true,NA,NA,1,4,NA,brown,n_l_078.jpg,NA,NA,NA,NA,NA,unpleasant,pleasant,NA,NA,NA,NA,NA,right,1218.20000076294,true,NA,NA,NA,NA,NA,NA,NA,NA
XOos5hem,3fk4g712o0duz4m7qhicsa7sfszsso,3tayzsbplpl3hp33n488qcqgmdms2x,XOos5hem,2020-0188,2021-10-31,20:05:45,02:38:42,NA,incomplete,false,true,NA,NA,1,5,NA,brown,n_s_100.jpg,NA,NA,NA,NA,NA,unpleasant,pleasant,NA,NA,NA,NA,NA,right,1060.10000038147,true,NA,NA,NA,NA,NA,NA,NA,NA
XOos5hem,3fk4g712o0duz4m7qhicsa7sfszsso,3tayzsbplpl3hp33n488qcqgmdms2x,XOos5hem,2020-0188,2021-10-31,20:05:45,02:38:42,NA,incomplete,false,true,NA,NA,1,6,NA,green,m_s_108.jpg,NA,NA,NA,NA,NA,unpleasant,pleasant,NA,NA,NA,NA,NA,right,1187.60000038147,true,NA,NA,NA,NA,NA,NA,NA,NA
XOos5hem,3fk4g712o0duz4m7qhicsa7sfszsso,3tayzsbplpl3hp33n488qcqgmdms2x,XOos5hem,2020-0188,2021-10-31,20:05:45,02:38:42,NA,incomplete,false,true,NA,NA,1,7,NA,green,m_l_051.jpg,NA,NA,NA,NA,NA,pleasant,unpleasant,NA,NA,NA,NA,NA,left,1432.89999961853,true,NA,NA,NA,NA,NA,NA,NA,NA
XOos5hem,3fk4g712o0duz4m7qhicsa7sfszsso,3tayzsbplpl3hp33n488qcqgmdms2x,XOos5hem,2020-0188,2021-10-31,20:05:45,02:38:42,NA,incomplete,false,true,NA,NA,1,8,NA,green,m_l_090.jpg,NA,NA,NA,NA,NA,pleasant,unpleasant,NA,NA,NA,NA,NA,left,1626.39999961853,true,NA,NA,NA,NA,NA,NA,NA,NA
XOos5hem,3fk4g712o0duz4m7qhicsa7sfszsso,3tayzsbplpl3hp33n488qcqgmdms2x,XOos5hem,2020-0188,2021-10-31,20:05:45,02:38:42,NA,incomplete,false,true,NA,NA,1,9,NA,green,n_s_040.jpg,NA,NA,NA,NA,NA,pleasant,unpleasant,NA,NA,NA,NA,NA,right,1375.19999885559,true,NA,NA,NA,NA,NA,NA,NA,NA
XOos5hem,3fk4g712o0duz4m7qhicsa7sfszsso,3tayzsbplpl3hp33n488qcqgmdms2x,XOos5hem,2020-0188,2021-10-31,20:05:45,02:38:42,NA,incomplete,false,true,NA,NA,1,10,NA,green,n_s_004.jpg,NA,NA,NA,NA,NA,unpleasant,pleasant,NA,NA,NA,NA,NA,left,1505.70000076294,true,NA,NA,NA,NA,NA,NA,NA,NA
XOos5hem,3fk4g712o0duz4m7qhicsa7sfszsso,3tayzsbplpl3hp33n488qcqgmdms2x,XOos5hem,2020-0188,2021-10-31,20:05:45,02:38:42,NA,incomplete,false,true,NA,NA,1,11,NA,green,m_l_009.jpg,NA,NA,NA,NA,NA,pleasant,unpleasant,NA,NA,NA,NA,NA,left,1218.70000076294,true,NA,NA,NA,NA,NA,NA,NA,NA
XOos5hem,3fk4g712o0duz4m7qhicsa7sfszsso,3tayzsbplpl3hp33n488qcqgmdms2x,XOos5hem,2020-0188,2021-10-31,20:05:45,02:38:42,NA,incomplete,false,true,NA,NA,1,12,NA,purple,n_l_076.jpg,NA,NA,NA,NA,NA,pleasant,unpleasant,NA,NA,NA,NA,NA,right,2096.19999885559,true,NA,NA,NA,NA,NA,NA,NA,NA
XOos5hem,3fk4g712o0duz4m7qhicsa7sfszsso,3tayzsbplpl3hp33n488qcqgmdms2x,XOos5hem,2020-0188,2021-10-31,20:05:45,02:38:42,NA,incomplete,false,true,NA,NA,1,13,NA,purple,n_l_104.jpg,NA,NA,NA,NA,NA,pleasant,unpleasant,NA,NA,NA,NA,NA,left,1340.09999847412,true,NA,NA,NA,NA,NA,NA,NA,NA
XOos5hem,3fk4g712o0duz4m7qhicsa7sfszsso,3tayzsbplpl3hp33n488qcqgmdms2x,XOos5hem,2020-0188,2021-10-31,20:05:45,02:38:42,NA,incomplete,false,true,NA,NA,1,14,NA,purple,m_l_049.jpg,NA,NA,NA,NA,NA,unpleasant,pleasant,NA,NA,NA,NA,NA,right,2030.70000076294,true,NA,NA,NA,NA,NA,NA,NA,NA
XOos5hem,3fk4g712o0duz4m7qhicsa7sfszsso,3tayzsbplpl3hp33n488qcqgmdms2x,XOos5hem,2020-0188,2021-10-31,20:05:45,02:38:42,NA,incomplete,false,true,NA,NA,1,15,NA,purple,n_l_031.jpg,NA,NA,NA,NA,NA,pleasant,unpleasant,NA,NA,NA,NA,NA,left,1383.19999885559,true,NA,NA,NA,NA,NA,NA,NA,NA
XOos5hem,3fk4g712o0duz4m7qhicsa7sfszsso,3tayzsbplpl3hp33n488qcqgmdms2x,XOos5hem,2020-0188,2021-10-31,20:05:45,02:38:42,NA,incomplete,false,true,NA,NA,1,16,NA,purple,m_l_008.jpg,NA,NA,NA,NA,NA,unpleasant,pleasant,NA,NA,NA,NA,NA,right,1629.69999885559,true,NA,NA,NA,NA,NA,NA,NA,NA
XOos5hem,3fk4g712o0duz4m7qhicsa7sfszsso,3tayzsbplpl3hp33n488qcqgmdms2x,XOos5hem,2020-0188,2021-10-31,20:05:45,02:38:42,NA,incomplete,false,true,NA,NA,1,17,NA,purple,n_l_093.jpg,NA,NA,NA,NA,NA,pleasant,unpleasant,NA,NA,NA,NA,NA,left,2011.39999961853,true,NA,NA,NA,NA,NA,NA,NA,NA
XOos5hem,3fk4g712o0duz4m7qhicsa7sfszsso,3tayzsbplpl3hp33n488qcqgmdms2x,XOos5hem,2020-0188,2021-10-31,20:05:45,02:38:42,NA,incomplete,false,true,NA,NA,1,18,NA,blue,m_l_098.jpg,NA,NA,NA,NA,NA,pleasant,unpleasant,NA,NA,NA,NA,NA,left,1368.79999923706,true,NA,NA,NA,NA,NA,NA,NA,NA
XOos5hem,3fk4g712o0duz4m7qhicsa7sfszsso,3tayzsbplpl3hp33n488qcqgmdms2x,XOos5hem,2020-0188,2021-10-31,20:05:45,02:38:42,NA,incomplete,false,true,NA,NA,1,19,NA,blue,m_s_102.jpg,NA,NA,NA,NA,NA,unpleasant,pleasant,NA,NA,NA,NA,NA,right,1596.19999885559,true,NA,NA,NA,NA,NA,NA,NA,NA
XOos5hem,3fk4g712o0duz4m7qhicsa7sfszsso,3tayzsbplpl3hp33n488qcqgmdms2x,XOos5hem,2020-0188,2021-10-31,20:05:45,02:38:42,NA,incomplete,false,true,NA,NA,1,20,NA,blue,n_l_105.jpg,NA,NA,NA,NA,NA,unpleasant,pleasant,NA,NA,NA,NA,NA,right,1188.39999961853,true,NA,NA,NA,NA,NA,NA,NA,NA
XOos5hem,3fk4g712o0duz4m7qhicsa7sfszsso,3tayzsbplpl3hp33n488qcqgmdms2x,XOos5hem,2020-0188,2021-10-31,20:05:45,02:38:42,NA,incomplete,false,true,NA,NA,1,21,NA,blue,m_l_115.jpg,NA,NA,NA,NA,NA,pleasant,unpleasant,NA,NA,NA,NA,NA,left,1172.5,true,NA,NA,NA,NA,NA,NA,NA,NA
XOos5hem,3fk4g712o0duz4m7qhicsa7sfszsso,3tayzsbplpl3hp33n488qcqgmdms2x,XOos5hem,2020-0188,2021-10-31,20:05:45,02:38:42,NA,incomplete,false,true,NA,NA,1,22,NA,blue,n_s_102.jpg,NA,NA,NA,NA,NA,pleasant,unpleasant,NA,NA,NA,NA,NA,left,1189.10000038147,true,NA,NA,NA,NA,NA,NA,NA,NA
XOos5hem,3fk4g712o0duz4m7qhicsa7sfszsso,3tayzsbplpl3hp33n488qcqgmdms2x,XOos5hem,2020-0188,2021-10-31,20:05:45,02:38:42,NA,incomplete,false,true,NA,NA,1,23,NA,blue,n_s_053.jpg,NA,NA,NA,NA,NA,pleasant,unpleasant,NA,NA,NA,NA,NA,left,1706.60000038147,true,NA,NA,NA,NA,NA,NA,NA,NA
XOos5hem,3fk4g712o0duz4m7qhicsa7sfszsso,3tayzsbplpl3hp33n488qcqgmdms2x,XOos5hem,2020-0188,2021-10-31,20:05:45,02:38:42,NA,incomplete,false,true,NA,NA,1,24,NA,yellow,n_s_037.jpg,NA,NA,NA,NA,NA,unpleasant,pleasant,NA,NA,NA,NA,NA,right,1338.20000076294,true,NA,NA,NA,NA,NA,NA,NA,NA
XOos5hem,3fk4g712o0duz4m7qhicsa7sfszsso,3tayzsbplpl3hp33n488qcqgmdms2x,XOos5hem,2020-0188,2021-10-31,20:05:45,02:38:42,NA,incomplete,false,true,NA,NA,1,25,NA,yellow,m_l_013.jpg,NA,NA,NA,NA,NA,pleasant,unpleasant,NA,NA,NA,NA,NA,left,1406.20000076294,true,NA,NA,NA,NA,NA,NA,NA,NA
XOos5hem,3fk4g712o0duz4m7qhicsa7sfszsso,3tayzsbplpl3hp33n488qcqgmdms2x,XOos5hem,2020-0188,2021-10-31,20:05:45,02:38:42,NA,incomplete,false,true,NA,NA,1,26,NA,yellow,n_l_023.jpg,NA,NA,NA,NA,NA,unpleasant,pleasant,NA,NA,NA,NA,NA,right,1139.10000038147,true,NA,NA,NA,NA,NA,NA,NA,NA
XOos5hem,3fk4g712o0duz4m7qhicsa7sfszsso,3tayzsbplpl3hp33n488qcqgmdms2x,XOos5hem,2020-0188,2021-10-31,20:05:45,02:38:42,NA,incomplete,false,true,NA,NA,1,27,NA,yellow,n_s_066.jpg,NA,NA,NA,NA,NA,unpleasant,pleasant,NA,NA,NA,NA,NA,right,1221.10000038147,true,NA,NA,NA,NA,NA,NA,NA,NA
XOos5hem,3fk4g712o0duz4m7qhicsa7sfszsso,3tayzsbplpl3hp33n488qcqgmdms2x,XOos5hem,2020-0188,2021-10-31,20:05:45,02:38:42,NA,incomplete,false,true,NA,NA,1,28,NA,yellow,n_l_097.jpg,NA,NA,NA,NA,NA,pleasant,unpleasant,NA,NA,NA,NA,NA,left,1160.39999961853,true,NA,NA,NA,NA,NA,NA,NA,NA
XOos5hem,3fk4g712o0duz4m7qhicsa7sfszsso,3tayzsbplpl3hp33n488qcqgmdms2x,XOos5hem,2020-0188,2021-10-31,20:05:45,02:38:42,NA,incomplete,false,true,NA,NA,1,29,NA,yellow,n_s_110.jpg,NA,NA,NA,NA,NA,unpleasant,pleasant,NA,NA,NA,NA,NA,left,1788.09999847412,true,NA,NA,NA,NA,NA,NA,NA,NA
XOos5hem,3fk4g712o0duz4m7qhicsa7sfszsso,3tayzsbplpl3hp33n488qcqgmdms2x,XOos5hem,2020-0188,2021-10-31,20:05:45,02:38:42,NA,incomplete,false,true,NA,NA,1,30,NA,gray,n_s_019.jpg,NA,NA,NA,NA,NA,unpleasant,pleasant,NA,NA,NA,NA,NA,right,1120.10000038147,true,NA,NA,NA,NA,NA,NA,NA,NA
XOos5hem,3fk4g712o0duz4m7qhicsa7sfszsso,3tayzsbplpl3hp33n488qcqgmdms2x,XOos5hem,2020-0188,2021-10-31,20:05:45,02:38:42,NA,incomplete,false,true,NA,NA,1,31,NA,gray,n_s_062.jpg,NA,NA,NA,NA,NA,unpleasant,pleasant,NA,NA,NA,NA,NA,right,1342.10000038147,true,NA,NA,NA,NA,NA,NA,NA,NA
XOos5hem,3fk4g712o0duz4m7qhicsa7sfszsso,3tayzsbplpl3hp33n488qcqgmdms2x,XOos5hem,2020-0188,2021-10-31,20:05:45,02:38:42,NA,incomplete,false,true,NA,NA,1,32,NA,gray,n_s_088.jpg,NA,NA,NA,NA,NA,unpleasant,pleasant,NA,NA,NA,NA,NA,right,951.299999237061,true,NA,NA,NA,NA,NA,NA,NA,NA
XOos5hem,3fk4g712o0duz4m7qhicsa7sfszsso,3tayzsbplpl3hp33n488qcqgmdms2x,XOos5hem,2020-0188,2021-10-31,20:05:45,02:38:42,NA,incomplete,false,true,NA,NA,1,33,NA,gray,n_s_098.jpg,NA,NA,NA,NA,NA,unpleasant,pleasant,NA,NA,NA,NA,NA,right,1436.89999961853,true,NA,NA,NA,NA,NA,NA,NA,NA
XOos5hem,3fk4g712o0duz4m7qhicsa7sfszsso,3tayzsbplpl3hp33n488qcqgmdms2x,XOos5hem,2020-0188,2021-10-31,20:05:45,02:38:42,NA,incomplete,false,true,NA,NA,1,34,NA,gray,m_l_072.jpg,NA,NA,NA,NA,NA,pleasant,unpleasant,NA,NA,NA,NA,NA,left,1416.5,true,NA,NA,NA,NA,NA,NA,NA,NA
XOos5hem,3fk4g712o0duz4m7qhicsa7sfszsso,3tayzsbplpl3hp33n488qcqgmdms2x,XOos5hem,2020-0188,2021-10-31,20:05:45,02:38:42,NA,incomplete,false,true,NA,NA,1,35,NA,gray,n_l_091.jpg,NA,NA,NA,NA,NA,unpleasant,pleasant,NA,NA,NA,NA,NA,right,1119.60000038147,true,NA,NA,NA,NA,NA,NA,NA,NA
XOos5hem,3fk4g712o0duz4m7qhicsa7sfszsso,3tayzsbplpl3hp33n488qcqgmdms2x,XOos5hem,2020-0188,2021-10-31,20:05:45,02:38:42,NA,incomplete,false,NA,NA,true,1,0,NA,NA,NA,right,m_l_013.jpg,blue,yellow,NA,NA,NA,NA,NA,NA,NA,NA,NA,NaN,NA,8263,right,1,NA,NA,NA,NA,NA
XOos5hem,3fk4g712o0duz4m7qhicsa7sfszsso,3tayzsbplpl3hp33n488qcqgmdms2x,XOos5hem,2020-0188,2021-10-31,20:05:45,02:38:42,NA,incomplete,false,NA,NA,true,1,1,NA,NA,NA,left,n_s_100.jpg,brown,green,NA,NA,NA,NA,NA,NA,NA,NA,NA,NaN,NA,2767.6000003814697,left,1,NA,NA,NA,NA,NA
XOos5hem,3fk4g712o0duz4m7qhicsa7sfszsso,3tayzsbplpl3hp33n488qcqgmdms2x,XOos5hem,2020-0188,2021-10-31,20:05:45,02:38:42,NA,incomplete,false,NA,NA,true,1,2,NA,NA,NA,right,n_s_110.jpg,blue,yellow,NA,NA,NA,NA,NA,NA,NA,NA,NA,NaN,NA,5425.299999237061,right,1,NA,NA,NA,NA,NA
XOos5hem,3fk4g712o0duz4m7qhicsa7sfszsso,3tayzsbplpl3hp33n488qcqgmdms2x,XOos5hem,2020-0188,2021-10-31,20:05:45,02:38:42,NA,incomplete,false,NA,NA,true,1,3,NA,NA,NA,right,m_l_009.jpg,purple,green,NA,NA,NA,NA,NA,NA,NA,NA,NA,NaN,NA,2797.300001144409,right,1,NA,NA,NA,NA,NA
XOos5hem,3fk4g712o0duz4m7qhicsa7sfszsso,3tayzsbplpl3hp33n488qcqgmdms2x,XOos5hem,2020-0188,2021-10-31,20:05:45,02:38:42,NA,incomplete,false,NA,NA,true,1,4,NA,NA,NA,right,n_l_105.jpg,yellow,blue,NA,NA,NA,NA,NA,NA,NA,NA,NA,NaN,NA,5739.299999237061,right,1,NA,NA,NA,NA,NA
XOos5hem,3fk4g712o0duz4m7qhicsa7sfszsso,3tayzsbplpl3hp33n488qcqgmdms2x,XOos5hem,2020-0188,2021-10-31,20:05:45,02:38:42,NA,incomplete,false,NA,NA,true,1,5,NA,NA,NA,left,m_l_008.jpg,purple,green,NA,NA,NA,NA,NA,NA,NA,NA,NA,NaN,NA,3822.5,right,0,NA,NA,NA,NA,NA
XOos5hem,3fk4g712o0duz4m7qhicsa7sfszsso,3tayzsbplpl3hp33n488qcqgmdms2x,XOos5hem,2020-0188,2021-10-31,20:05:45,02:38:42,NA,incomplete,false,NA,NA,true,1,6,NA,NA,NA,right,n_l_023.jpg,blue,yellow,NA,NA,NA,NA,NA,NA,NA,NA,NA,NaN,NA,5261.5,left,0,NA,NA,NA,NA,NA
XOos5hem,3fk4g712o0duz4m7qhicsa7sfszsso,3tayzsbplpl3hp33n488qcqgmdms2x,XOos5hem,2020-0188,2021-10-31,20:05:45,02:38:42,NA,incomplete,false,NA,NA,true,1,7,NA,NA,NA,left,n_l_093.jpg,purple,green,NA,NA,NA,NA,NA,NA,NA,NA,NA,NaN,NA,2961.6000003814697,left,1,NA,NA,NA,NA,NA
XOos5hem,3fk4g712o0duz4m7qhicsa7sfszsso,3tayzsbplpl3hp33n488qcqgmdms2x,XOos5hem,2020-0188,2021-10-31,20:05:45,02:38:42,NA,incomplete,false,NA,NA,true,1,8,NA,NA,NA,left,n_s_053.jpg,blue,purple,NA,NA,NA,NA,NA,NA,NA,NA,NA,NaN,NA,2877.3999996185303,left,1,NA,NA,NA,NA,NA
XOos5hem,3fk4g712o0duz4m7qhicsa7sfszsso,3tayzsbplpl3hp33n488qcqgmdms2x,XOos5hem,2020-0188,2021-10-31,20:05:45,02:38:42,NA,incomplete,false,NA,NA,true,1,9,NA,NA,NA,right,m_l_090.jpg,purple,green,NA,NA,NA,NA,NA,NA,NA,NA,NA,NaN,NA,2758.8999996185303,right,1,NA,NA,NA,NA,NA
XOos5hem,3fk4g712o0duz4m7qhicsa7sfszsso,3tayzsbplpl3hp33n488qcqgmdms2x,XOos5hem,2020-0188,2021-10-31,20:05:45,02:38:42,NA,incomplete,false,NA,NA,true,1,10,NA,NA,NA,left,m_l_051.jpg,green,purple,NA,NA,NA,NA,NA,NA,NA,NA,NA,NaN,NA,3789.2000007629395,left,1,NA,NA,NA,NA,NA
XOos5hem,3fk4g712o0duz4m7qhicsa7sfszsso,3tayzsbplpl3hp33n488qcqgmdms2x,XOos5hem,2020-0188,2021-10-31,20:05:45,02:38:42,NA,incomplete,false,NA,NA,true,1,11,NA,NA,NA,left,n_l_070.jpg,brown,green,NA,NA,NA,NA,NA,NA,NA,NA,NA,NaN,NA,3375.7000007629395,left,1,NA,NA,NA,NA,NA
XOos5hem,3fk4g712o0duz4m7qhicsa7sfszsso,3tayzsbplpl3hp33n488qcqgmdms2x,XOos5hem,2020-0188,2021-10-31,20:05:45,02:38:42,NA,incomplete,false,NA,NA,true,1,12,NA,NA,NA,left,n_l_078.jpg,brown,green,NA,NA,NA,NA,NA,NA,NA,NA,NA,NaN,NA,4925.700000762939,left,1,NA,NA,NA,NA,NA
XOos5hem,3fk4g712o0duz4m7qhicsa7sfszsso,3tayzsbplpl3hp33n488qcqgmdms2x,XOos5hem,2020-0188,2021-10-31,20:05:45,02:38:42,NA,incomplete,false,NA,NA,true,1,13,NA,NA,NA,left,m_l_049.jpg,purple,blue,NA,NA,NA,NA,NA,NA,NA,NA,NA,NaN,NA,6731.10000038147,left,1,NA,NA,NA,NA,NA
XOos5hem,3fk4g712o0duz4m7qhicsa7sfszsso,3tayzsbplpl3hp33n488qcqgmdms2x,XOos5hem,2020-0188,2021-10-31,20:05:45,02:38:42,NA,incomplete,false,NA,NA,true,1,14,NA,NA,NA,left,n_s_088.jpg,gray,yellow,NA,NA,NA,NA,NA,NA,NA,NA,NA,NaN,NA,2117,left,1,NA,NA,NA,NA,NA
XOos5hem,3fk4g712o0duz4m7qhicsa7sfszsso,3tayzsbplpl3hp33n488qcqgmdms2x,XOos5hem,2020-0188,2021-10-31,20:05:45,02:38:42,NA,incomplete,false,NA,NA,true,1,15,NA,NA,NA,left,n_s_102.jpg,blue,yellow,NA,NA,NA,NA,NA,NA,NA,NA,NA,NaN,NA,5456.700000762939,right,0,NA,NA,NA,NA,NA
XOos5hem,3fk4g712o0duz4m7qhicsa7sfszsso,3tayzsbplpl3hp33n488qcqgmdms2x,XOos5hem,2020-0188,2021-10-31,20:05:45,02:38:42,NA,incomplete,false,NA,NA,true,1,16,NA,NA,NA,right,n_l_091.jpg,yellow,gray,NA,NA,NA,NA,NA,NA,NA,NA,NA,NaN,NA,2320.7000007629395,right,1,NA,NA,NA,NA,NA
XOos5hem,3fk4g712o0duz4m7qhicsa7sfszsso,3tayzsbplpl3hp33n488qcqgmdms2x,XOos5hem,2020-0188,2021-10-31,20:05:45,02:38:42,NA,incomplete,false,NA,NA,true,1,17,NA,NA,NA,right,n_s_062.jpg,yellow,gray,NA,NA,NA,NA,NA,NA,NA,NA,NA,NaN,NA,2649.1000003814697,right,1,NA,NA,NA,NA,NA
XOos5hem,3fk4g712o0duz4m7qhicsa7sfszsso,3tayzsbplpl3hp33n488qcqgmdms2x,XOos5hem,2020-0188,2021-10-31,20:05:45,02:38:42,NA,incomplete,false,NA,NA,true,1,18,NA,NA,NA,right,n_l_104.jpg,blue,purple,NA,NA,NA,NA,NA,NA,NA,NA,NA,NaN,NA,3229.7000007629395,left,0,NA,NA,NA,NA,NA
XOos5hem,3fk4g712o0duz4m7qhicsa7sfszsso,3tayzsbplpl3hp33n488qcqgmdms2x,XOos5hem,2020-0188,2021-10-31,20:05:45,02:38:42,NA,incomplete,false,NA,NA,true,1,19,NA,NA,NA,right,m_s_102.jpg,yellow,blue,NA,NA,NA,NA,NA,NA,NA,NA,NA,NaN,NA,2422.6000003814697,right,1,NA,NA,NA,NA,NA
XOos5hem,3fk4g712o0duz4m7qhicsa7sfszsso,3tayzsbplpl3hp33n488qcqgmdms2x,XOos5hem,2020-0188,2021-10-31,20:05:45,02:38:42,NA,incomplete,false,NA,NA,true,1,20,NA,NA,NA,left,n_s_004.jpg,green,purple,NA,NA,NA,NA,NA,NA,NA,NA,NA,NaN,NA,4253.39999961853,right,0,NA,NA,NA,NA,NA
XOos5hem,3fk4g712o0duz4m7qhicsa7sfszsso,3tayzsbplpl3hp33n488qcqgmdms2x,XOos5hem,2020-0188,2021-10-31,20:05:45,02:38:42,NA,incomplete,false,NA,NA,true,1,21,NA,NA,NA,right,n_l_097.jpg,blue,yellow,NA,NA,NA,NA,NA,NA,NA,NA,NA,NaN,NA,3525.2000007629395,right,1,NA,NA,NA,NA,NA
XOos5hem,3fk4g712o0duz4m7qhicsa7sfszsso,3tayzsbplpl3hp33n488qcqgmdms2x,XOos5hem,2020-0188,2021-10-31,20:05:45,02:38:42,NA,incomplete,false,NA,true,NA,1,0,NA,NA,NA,right,NA,NA,NA,absent,NA,NA,n_l_105.jpg,blue,m_l_008.jpg,purple,between,NA,NaN,NA,NA,NA,NA,right,6494.10000038147,1,1,1889.099998474121
XOos5hem,3fk4g712o0duz4m7qhicsa7sfszsso,3tayzsbplpl3hp33n488qcqgmdms2x,XOos5hem,2020-0188,2021-10-31,20:05:45,02:38:42,NA,incomplete,false,NA,true,NA,1,1,NA,NA,NA,right,NA,NA,NA,absent,NA,NA,m_l_049.jpg,purple,n_s_004.jpg,green,between,NA,NaN,NA,NA,NA,NA,right,2337,1,2,2116.2000007629395
XOos5hem,3fk4g712o0duz4m7qhicsa7sfszsso,3tayzsbplpl3hp33n488qcqgmdms2x,XOos5hem,2020-0188,2021-10-31,20:05:45,02:38:42,NA,incomplete,false,NA,true,NA,1,2,NA,NA,NA,right,NA,NA,NA,absent,NA,NA,n_s_110.jpg,yellow,m_l_013.jpg,yellow,within,NA,NaN,NA,NA,NA,NA,right,2374.7000007629395,1,2,1671.5
XOos5hem,3fk4g712o0duz4m7qhicsa7sfszsso,3tayzsbplpl3hp33n488qcqgmdms2x,XOos5hem,2020-0188,2021-10-31,20:05:45,02:38:42,NA,incomplete,false,NA,true,NA,1,3,NA,NA,NA,right,NA,NA,NA,absent,NA,NA,n_s_088.jpg,gray,n_l_097.jpg,yellow,between,NA,NaN,NA,NA,NA,NA,left,2759.199998855591,0,1,1499.2000007629395
XOos5hem,3fk4g712o0duz4m7qhicsa7sfszsso,3tayzsbplpl3hp33n488qcqgmdms2x,XOos5hem,2020-0188,2021-10-31,20:05:45,02:38:42,NA,incomplete,false,NA,true,NA,1,4,NA,NA,NA,left,NA,NA,NA,absent,NA,NA,n_s_102.jpg,blue,n_l_023.jpg,yellow,between,NA,NaN,NA,NA,NA,NA,left,3885.1000003814697,1,2,1945.1000003814697
XOos5hem,3fk4g712o0duz4m7qhicsa7sfszsso,3tayzsbplpl3hp33n488qcqgmdms2x,XOos5hem,2020-0188,2021-10-31,20:05:45,02:38:42,NA,incomplete,false,NA,true,NA,1,5,NA,NA,NA,right,NA,NA,NA,absent,NA,NA,n_s_053.jpg,blue,m_s_102.jpg,blue,within,NA,NaN,NA,NA,NA,NA,right,2447.800001144409,1,1,2007.3000011444092
XOos5hem,3fk4g712o0duz4m7qhicsa7sfszsso,3tayzsbplpl3hp33n488qcqgmdms2x,XOos5hem,2020-0188,2021-10-31,20:05:45,02:38:42,NA,incomplete,false,NA,true,NA,1,6,NA,NA,NA,left,NA,NA,NA,absent,NA,NA,m_l_051.jpg,green,m_l_009.jpg,green,within,NA,NaN,NA,NA,NA,NA,left,2595.1000003814697,1,0,2241.800001144409
XOos5hem,3fk4g712o0duz4m7qhicsa7sfszsso,3tayzsbplpl3hp33n488qcqgmdms2x,XOos5hem,2020-0188,2021-10-31,20:05:45,02:38:42,NA,incomplete,false,NA,true,NA,1,7,NA,NA,NA,right,NA,NA,NA,absent,NA,NA,n_s_100.jpg,brown,n_l_070.jpg,brown,within,NA,NaN,NA,NA,NA,NA,right,4393.300001144409,1,1,2092.7000007629395
XOos5hem,3fk4g712o0duz4m7qhicsa7sfszsso,3tayzsbplpl3hp33n488qcqgmdms2x,XOos5hem,2020-0188,2021-10-31,20:05:45,02:38:42,NA,incomplete,false,NA,true,NA,1,8,NA,NA,NA,left,NA,NA,NA,absent,NA,NA,n_s_062.jpg,gray,n_l_091.jpg,gray,within,NA,NaN,NA,NA,NA,NA,right,2657.5,0,3,4041.3999996185303
XOos5hem,3fk4g712o0duz4m7qhicsa7sfszsso,3tayzsbplpl3hp33n488qcqgmdms2x,XOos5hem,2020-0188,2021-10-31,20:05:45,02:38:42,NA,incomplete,false,NA,true,NA,1,9,NA,NA,NA,left,NA,NA,NA,absent,NA,NA,n_l_104.jpg,purple,n_l_093.jpg,purple,within,NA,NaN,NA,NA,NA,NA,left,3775.2000007629395,1,2,1633.3999996185303
XOos5hem,3fk4g712o0duz4m7qhicsa7sfszsso,3tayzsbplpl3hp33n488qcqgmdms2x,XOos5hem,2020-0188,2021-10-31,20:05:45,02:38:42,NA,incomplete,false,NA,true,NA,1,10,NA,NA,NA,left,NA,NA,NA,absent,NA,NA,n_l_078.jpg,brown,m_l_090.jpg,green,between,NA,NaN,NA,NA,NA,NA,right,2093.5,0,2,4839.5
XOos5hem,3fk4g712o0duz4m7qhicsa7sfszsso,3tayzsbplpl3hp33n488qcqgmdms2x,XOos5hem,2020-0188,2021-10-31,20:05:45,02:38:42,NA,incomplete,false,true,NA,NA,2,0,NA,black,n_l_003.jpg,NA,NA,NA,NA,NA,unpleasant,pleasant,NA,NA,NA,NA,NA,right,2490.20000076294,true,NA,NA,NA,NA,NA,NA,NA,NA
XOos5hem,3fk4g712o0duz4m7qhicsa7sfszsso,3tayzsbplpl3hp33n488qcqgmdms2x,XOos5hem,2020-0188,2021-10-31,20:05:45,02:38:42,NA,incomplete,false,true,NA,NA,2,1,NA,black,n_s_099.jpg,NA,NA,NA,NA,NA,unpleasant,pleasant,NA,NA,NA,NA,NA,right,1094.20000076294,true,NA,NA,NA,NA,NA,NA,NA,NA
XOos5hem,3fk4g712o0duz4m7qhicsa7sfszsso,3tayzsbplpl3hp33n488qcqgmdms2x,XOos5hem,2020-0188,2021-10-31,20:05:45,02:38:42,NA,incomplete,false,true,NA,NA,2,2,NA,black,n_s_059.jpg,NA,NA,NA,NA,NA,pleasant,unpleasant,NA,NA,NA,NA,NA,left,1305.29999923706,true,NA,NA,NA,NA,NA,NA,NA,NA
XOos5hem,3fk4g712o0duz4m7qhicsa7sfszsso,3tayzsbplpl3hp33n488qcqgmdms2x,XOos5hem,2020-0188,2021-10-31,20:05:45,02:38:42,NA,incomplete,false,true,NA,NA,2,3,NA,black,n_s_046.jpg,NA,NA,NA,NA,NA,pleasant,unpleasant,NA,NA,NA,NA,NA,right,1742.80000114441,true,NA,NA,NA,NA,NA,NA,NA,NA
XOos5hem,3fk4g712o0duz4m7qhicsa7sfszsso,3tayzsbplpl3hp33n488qcqgmdms2x,XOos5hem,2020-0188,2021-10-31,20:05:45,02:38:42,NA,incomplete,false,true,NA,NA,2,4,NA,black,m_s_105.jpg,NA,NA,NA,NA,NA,unpleasant,pleasant,NA,NA,NA,NA,NA,right,1877.10000038147,true,NA,NA,NA,NA,NA,NA,NA,NA
XOos5hem,3fk4g712o0duz4m7qhicsa7sfszsso,3tayzsbplpl3hp33n488qcqgmdms2x,XOos5hem,2020-0188,2021-10-31,20:05:45,02:38:42,NA,incomplete,false,true,NA,NA,2,5,NA,black,m_l_029.jpg,NA,NA,NA,NA,NA,unpleasant,pleasant,NA,NA,NA,NA,NA,right,1408.69999885559,true,NA,NA,NA,NA,NA,NA,NA,NA
XOos5hem,3fk4g712o0duz4m7qhicsa7sfszsso,3tayzsbplpl3hp33n488qcqgmdms2x,XOos5hem,2020-0188,2021-10-31,20:05:45,02:38:42,NA,incomplete,false,true,NA,NA,2,6,NA,red,m_l_057.jpg,NA,NA,NA,NA,NA,pleasant,unpleasant,NA,NA,NA,NA,NA,right,2418.09999847412,true,NA,NA,NA,NA,NA,NA,NA,NA
XOos5hem,3fk4g712o0duz4m7qhicsa7sfszsso,3tayzsbplpl3hp33n488qcqgmdms2x,XOos5hem,2020-0188,2021-10-31,20:05:45,02:38:42,NA,incomplete,false,true,NA,NA,2,7,NA,red,n_s_116.jpg,NA,NA,NA,NA,NA,unpleasant,pleasant,NA,NA,NA,NA,NA,left,2368.60000038147,true,NA,NA,NA,NA,NA,NA,NA,NA
XOos5hem,3fk4g712o0duz4m7qhicsa7sfszsso,3tayzsbplpl3hp33n488qcqgmdms2x,XOos5hem,2020-0188,2021-10-31,20:05:45,02:38:42,NA,incomplete,false,true,NA,NA,2,8,NA,red,m_l_024.jpg,NA,NA,NA,NA,NA,pleasant,unpleasant,NA,NA,NA,NA,NA,left,2366,true,NA,NA,NA,NA,NA,NA,NA,NA
XOos5hem,3fk4g712o0duz4m7qhicsa7sfszsso,3tayzsbplpl3hp33n488qcqgmdms2x,XOos5hem,2020-0188,2021-10-31,20:05:45,02:38:42,NA,incomplete,false,true,NA,NA,2,9,NA,red,m_s_004.jpg,NA,NA,NA,NA,NA,pleasant,unpleasant,NA,NA,NA,NA,NA,left,1431.20000076294,true,NA,NA,NA,NA,NA,NA,NA,NA
XOos5hem,3fk4g712o0duz4m7qhicsa7sfszsso,3tayzsbplpl3hp33n488qcqgmdms2x,XOos5hem,2020-0188,2021-10-31,20:05:45,02:38:42,NA,incomplete,false,true,NA,NA,2,10,NA,red,m_l_099.jpg,NA,NA,NA,NA,NA,unpleasant,pleasant,NA,NA,NA,NA,NA,right,1482.89999961853,true,NA,NA,NA,NA,NA,NA,NA,NA
XOos5hem,3fk4g712o0duz4m7qhicsa7sfszsso,3tayzsbplpl3hp33n488qcqgmdms2x,XOos5hem,2020-0188,2021-10-31,20:05:45,02:38:42,NA,incomplete,false,true,NA,NA,2,11,NA,red,m_l_006.jpg,NA,NA,NA,NA,NA,pleasant,unpleasant,NA,NA,NA,NA,NA,left,1312.10000038147,true,NA,NA,NA,NA,NA,NA,NA,NA
XOos5hem,3fk4g712o0duz4m7qhicsa7sfszsso,3tayzsbplpl3hp33n488qcqgmdms2x,XOos5hem,2020-0188,2021-10-31,20:05:45,02:38:42,NA,incomplete,false,true,NA,NA,2,12,NA,white,m_s_098.jpg,NA,NA,NA,NA,NA,pleasant,unpleasant,NA,NA,NA,NA,NA,left,1289.70000076294,true,NA,NA,NA,NA,NA,NA,NA,NA
XOos5hem,3fk4g712o0duz4m7qhicsa7sfszsso,3tayzsbplpl3hp33n488qcqgmdms2x,XOos5hem,2020-0188,2021-10-31,20:05:45,02:38:42,NA,incomplete,false,true,NA,NA,2,13,NA,white,m_s_009.jpg,NA,NA,NA,NA,NA,unpleasant,pleasant,NA,NA,NA,NA,NA,right,1246,true,NA,NA,NA,NA,NA,NA,NA,NA
XOos5hem,3fk4g712o0duz4m7qhicsa7sfszsso,3tayzsbplpl3hp33n488qcqgmdms2x,XOos5hem,2020-0188,2021-10-31,20:05:45,02:38:42,NA,incomplete,false,true,NA,NA,2,14,NA,white,m_l_047.jpg,NA,NA,NA,NA,NA,pleasant,unpleasant,NA,NA,NA,NA,NA,left,1352.29999923706,true,NA,NA,NA,NA,NA,NA,NA,NA
XOos5hem,3fk4g712o0duz4m7qhicsa7sfszsso,3tayzsbplpl3hp33n488qcqgmdms2x,XOos5hem,2020-0188,2021-10-31,20:05:45,02:38:42,NA,incomplete,false,true,NA,NA,2,15,NA,white,n_l_108.jpg,NA,NA,NA,NA,NA,unpleasant,pleasant,NA,NA,NA,NA,NA,right,1132.70000076294,true,NA,NA,NA,NA,NA,NA,NA,NA
XOos5hem,3fk4g712o0duz4m7qhicsa7sfszsso,3tayzsbplpl3hp33n488qcqgmdms2x,XOos5hem,2020-0188,2021-10-31,20:05:45,02:38:42,NA,incomplete,false,true,NA,NA,2,16,NA,white,n_s_010.jpg,NA,NA,NA,NA,NA,pleasant,unpleasant,NA,NA,NA,NA,NA,left,1834.29999923706,true,NA,NA,NA,NA,NA,NA,NA,NA
XOos5hem,3fk4g712o0duz4m7qhicsa7sfszsso,3tayzsbplpl3hp33n488qcqgmdms2x,XOos5hem,2020-0188,2021-10-31,20:05:45,02:38:42,NA,incomplete,false,true,NA,NA,2,17,NA,white,m_l_061.jpg,NA,NA,NA,NA,NA,unpleasant,pleasant,NA,NA,NA,NA,NA,right,1364.90000152588,true,NA,NA,NA,NA,NA,NA,NA,NA
XOos5hem,3fk4g712o0duz4m7qhicsa7sfszsso,3tayzsbplpl3hp33n488qcqgmdms2x,XOos5hem,2020-0188,2021-10-31,20:05:45,02:38:42,NA,incomplete,false,true,NA,NA,2,18,NA,green,m_s_099.jpg,NA,NA,NA,NA,NA,unpleasant,pleasant,NA,NA,NA,NA,NA,right,1367.70000076294,true,NA,NA,NA,NA,NA,NA,NA,NA
XOos5hem,3fk4g712o0duz4m7qhicsa7sfszsso,3tayzsbplpl3hp33n488qcqgmdms2x,XOos5hem,2020-0188,2021-10-31,20:05:45,02:38:42,NA,incomplete,false,true,NA,NA,2,19,NA,green,n_l_013.jpg,NA,NA,NA,NA,NA,pleasant,unpleasant,NA,NA,NA,NA,NA,left,1296,true,NA,NA,NA,NA,NA,NA,NA,NA
XOos5hem,3fk4g712o0duz4m7qhicsa7sfszsso,3tayzsbplpl3hp33n488qcqgmdms2x,XOos5hem,2020-0188,2021-10-31,20:05:45,02:38:42,NA,incomplete,false,true,NA,NA,2,20,NA,green,m_l_082.jpg,NA,NA,NA,NA,NA,unpleasant,pleasant,NA,NA,NA,NA,NA,right,1298.10000038147,true,NA,NA,NA,NA,NA,NA,NA,NA
XOos5hem,3fk4g712o0duz4m7qhicsa7sfszsso,3tayzsbplpl3hp33n488qcqgmdms2x,XOos5hem,2020-0188,2021-10-31,20:05:45,02:38:42,NA,incomplete,false,true,NA,NA,2,21,NA,green,m_s_037.jpg,NA,NA,NA,NA,NA,unpleasant,pleasant,NA,NA,NA,NA,NA,right,1068.70000076294,true,NA,NA,NA,NA,NA,NA,NA,NA
XOos5hem,3fk4g712o0duz4m7qhicsa7sfszsso,3tayzsbplpl3hp33n488qcqgmdms2x,XOos5hem,2020-0188,2021-10-31,20:05:45,02:38:42,NA,incomplete,false,true,NA,NA,2,22,NA,green,n_s_032.jpg,NA,NA,NA,NA,NA,unpleasant,pleasant,NA,NA,NA,NA,NA,right,968.699998855591,true,NA,NA,NA,NA,NA,NA,NA,NA
XOos5hem,3fk4g712o0duz4m7qhicsa7sfszsso,3tayzsbplpl3hp33n488qcqgmdms2x,XOos5hem,2020-0188,2021-10-31,20:05:45,02:38:42,NA,incomplete,false,true,NA,NA,2,23,NA,green,n_l_047.jpg,NA,NA,NA,NA,NA,unpleasant,pleasant,NA,NA,NA,NA,NA,right,1026,true,NA,NA,NA,NA,NA,NA,NA,NA
XOos5hem,3fk4g712o0duz4m7qhicsa7sfszsso,3tayzsbplpl3hp33n488qcqgmdms2x,XOos5hem,2020-0188,2021-10-31,20:05:45,02:38:42,NA,incomplete,false,true,NA,NA,2,24,NA,brown,n_s_090.jpg,NA,NA,NA,NA,NA,unpleasant,pleasant,NA,NA,NA,NA,NA,right,1118.20000076294,true,NA,NA,NA,NA,NA,NA,NA,NA
XOos5hem,3fk4g712o0duz4m7qhicsa7sfszsso,3tayzsbplpl3hp33n488qcqgmdms2x,XOos5hem,2020-0188,2021-10-31,20:05:45,02:38:42,NA,incomplete,false,true,NA,NA,2,25,NA,brown,m_s_084.jpg,NA,NA,NA,NA,NA,pleasant,unpleasant,NA,NA,NA,NA,NA,left,1464.09999847412,true,NA,NA,NA,NA,NA,NA,NA,NA
XOos5hem,3fk4g712o0duz4m7qhicsa7sfszsso,3tayzsbplpl3hp33n488qcqgmdms2x,XOos5hem,2020-0188,2021-10-31,20:05:45,02:38:42,NA,incomplete,false,true,NA,NA,2,26,NA,brown,m_l_059.jpg,NA,NA,NA,NA,NA,pleasant,unpleasant,NA,NA,NA,NA,NA,right,1692.10000038147,true,NA,NA,NA,NA,NA,NA,NA,NA
XOos5hem,3fk4g712o0duz4m7qhicsa7sfszsso,3tayzsbplpl3hp33n488qcqgmdms2x,XOos5hem,2020-0188,2021-10-31,20:05:45,02:38:42,NA,incomplete,false,true,NA,NA,2,27,NA,brown,m_s_059.jpg,NA,NA,NA,NA,NA,pleasant,unpleasant,NA,NA,NA,NA,NA,right,1244.90000152588,true,NA,NA,NA,NA,NA,NA,NA,NA
XOos5hem,3fk4g712o0duz4m7qhicsa7sfszsso,3tayzsbplpl3hp33n488qcqgmdms2x,XOos5hem,2020-0188,2021-10-31,20:05:45,02:38:42,NA,incomplete,false,true,NA,NA,2,28,NA,brown,m_s_072.jpg,NA,NA,NA,NA,NA,pleasant,unpleasant,NA,NA,NA,NA,NA,right,1266.39999961853,true,NA,NA,NA,NA,NA,NA,NA,NA
XOos5hem,3fk4g712o0duz4m7qhicsa7sfszsso,3tayzsbplpl3hp33n488qcqgmdms2x,XOos5hem,2020-0188,2021-10-31,20:05:45,02:38:42,NA,incomplete,false,true,NA,NA,2,29,NA,brown,m_s_111.jpg,NA,NA,NA,NA,NA,unpleasant,pleasant,NA,NA,NA,NA,NA,right,1319.39999961853,true,NA,NA,NA,NA,NA,NA,NA,NA
XOos5hem,3fk4g712o0duz4m7qhicsa7sfszsso,3tayzsbplpl3hp33n488qcqgmdms2x,XOos5hem,2020-0188,2021-10-31,20:05:45,02:38:42,NA,incomplete,false,true,NA,NA,2,30,NA,yellow,n_l_073.jpg,NA,NA,NA,NA,NA,unpleasant,pleasant,NA,NA,NA,NA,NA,right,1056.79999923706,true,NA,NA,NA,NA,NA,NA,NA,NA
XOos5hem,3fk4g712o0duz4m7qhicsa7sfszsso,3tayzsbplpl3hp33n488qcqgmdms2x,XOos5hem,2020-0188,2021-10-31,20:05:45,02:38:42,NA,incomplete,false,true,NA,NA,2,31,NA,yellow,m_l_087.jpg,NA,NA,NA,NA,NA,unpleasant,pleasant,NA,NA,NA,NA,NA,right,1008.39999961853,true,NA,NA,NA,NA,NA,NA,NA,NA
XOos5hem,3fk4g712o0duz4m7qhicsa7sfszsso,3tayzsbplpl3hp33n488qcqgmdms2x,XOos5hem,2020-0188,2021-10-31,20:05:45,02:38:42,NA,incomplete,false,true,NA,NA,2,32,NA,yellow,m_s_047.jpg,NA,NA,NA,NA,NA,unpleasant,pleasant,NA,NA,NA,NA,NA,right,1059.90000152588,true,NA,NA,NA,NA,NA,NA,NA,NA
XOos5hem,3fk4g712o0duz4m7qhicsa7sfszsso,3tayzsbplpl3hp33n488qcqgmdms2x,XOos5hem,2020-0188,2021-10-31,20:05:45,02:38:42,NA,incomplete,false,true,NA,NA,2,33,NA,yellow,m_l_089.jpg,NA,NA,NA,NA,NA,unpleasant,pleasant,NA,NA,NA,NA,NA,right,1719.19999885559,true,NA,NA,NA,NA,NA,NA,NA,NA
XOos5hem,3fk4g712o0duz4m7qhicsa7sfszsso,3tayzsbplpl3hp33n488qcqgmdms2x,XOos5hem,2020-0188,2021-10-31,20:05:45,02:38:42,NA,incomplete,false,true,NA,NA,2,34,NA,yellow,n_s_003.jpg,NA,NA,NA,NA,NA,unpleasant,pleasant,NA,NA,NA,NA,NA,left,1637.20000076294,true,NA,NA,NA,NA,NA,NA,NA,NA
XOos5hem,3fk4g712o0duz4m7qhicsa7sfszsso,3tayzsbplpl3hp33n488qcqgmdms2x,XOos5hem,2020-0188,2021-10-31,20:05:45,02:38:42,NA,incomplete,false,true,NA,NA,2,35,NA,yellow,n_s_067.jpg,NA,NA,NA,NA,NA,pleasant,unpleasant,NA,NA,NA,NA,NA,left,1829.09999847412,true,NA,NA,NA,NA,NA,NA,NA,NA
XOos5hem,3fk4g712o0duz4m7qhicsa7sfszsso,3tayzsbplpl3hp33n488qcqgmdms2x,XOos5hem,2020-0188,2021-10-31,20:05:45,02:38:42,NA,incomplete,false,NA,NA,true,2,0,NA,NA,NA,right,m_l_087.jpg,brown,yellow,NA,NA,NA,NA,NA,NA,NA,NA,NA,NaN,NA,3033.7000007629395,left,0,NA,NA,NA,NA,NA
XOos5hem,3fk4g712o0duz4m7qhicsa7sfszsso,3tayzsbplpl3hp33n488qcqgmdms2x,XOos5hem,2020-0188,2021-10-31,20:05:45,02:38:42,NA,incomplete,false,NA,NA,true,2,1,NA,NA,NA,left,m_s_009.jpg,white,red,NA,NA,NA,NA,NA,NA,NA,NA,NA,NaN,NA,3071.1000003814697,left,1,NA,NA,NA,NA,NA
XOos5hem,3fk4g712o0duz4m7qhicsa7sfszsso,3tayzsbplpl3hp33n488qcqgmdms2x,XOos5hem,2020-0188,2021-10-31,20:05:45,02:38:42,NA,incomplete,false,NA,NA,true,2,2,NA,NA,NA,left,m_l_082.jpg,green,brown,NA,NA,NA,NA,NA,NA,NA,NA,NA,NaN,NA,2602.8999996185303,right,0,NA,NA,NA,NA,NA
XOos5hem,3fk4g712o0duz4m7qhicsa7sfszsso,3tayzsbplpl3hp33n488qcqgmdms2x,XOos5hem,2020-0188,2021-10-31,20:05:45,02:38:42,NA,incomplete,false,NA,NA,true,2,3,NA,NA,NA,right,m_s_084.jpg,green,brown,NA,NA,NA,NA,NA,NA,NA,NA,NA,NaN,NA,1829,right,1,NA,NA,NA,NA,NA
XOos5hem,3fk4g712o0duz4m7qhicsa7sfszsso,3tayzsbplpl3hp33n488qcqgmdms2x,XOos5hem,2020-0188,2021-10-31,20:05:45,02:38:42,NA,incomplete,false,NA,NA,true,2,4,NA,NA,NA,left,m_l_099.jpg,red,black,NA,NA,NA,NA,NA,NA,NA,NA,NA,NaN,NA,2181.2000007629395,right,0,NA,NA,NA,NA,NA
XOos5hem,3fk4g712o0duz4m7qhicsa7sfszsso,3tayzsbplpl3hp33n488qcqgmdms2x,XOos5hem,2020-0188,2021-10-31,20:05:45,02:38:42,NA,incomplete,false,NA,NA,true,2,5,NA,NA,NA,right,m_l_059.jpg,yellow,brown,NA,NA,NA,NA,NA,NA,NA,NA,NA,NaN,NA,1765.3999996185303,right,1,NA,NA,NA,NA,NA
XOos5hem,3fk4g712o0duz4m7qhicsa7sfszsso,3tayzsbplpl3hp33n488qcqgmdms2x,XOos5hem,2020-0188,2021-10-31,20:05:45,02:38:42,NA,incomplete,false,NA,NA,true,2,6,NA,NA,NA,right,m_s_047.jpg,brown,yellow,NA,NA,NA,NA,NA,NA,NA,NA,NA,NaN,NA,2249,left,0,NA,NA,NA,NA,NA
XOos5hem,3fk4g712o0duz4m7qhicsa7sfszsso,3tayzsbplpl3hp33n488qcqgmdms2x,XOos5hem,2020-0188,2021-10-31,20:05:45,02:38:42,NA,incomplete,false,NA,NA,true,2,7,NA,NA,NA,left,n_s_116.jpg,red,black,NA,NA,NA,NA,NA,NA,NA,NA,NA,NaN,NA,1765.1999988555908,right,0,NA,NA,NA,NA,NA
XOos5hem,3fk4g712o0duz4m7qhicsa7sfszsso,3tayzsbplpl3hp33n488qcqgmdms2x,XOos5hem,2020-0188,2021-10-31,20:05:45,02:38:42,NA,incomplete,false,NA,NA,true,2,8,NA,NA,NA,left,n_s_099.jpg,black,red,NA,NA,NA,NA,NA,NA,NA,NA,NA,NaN,NA,1875.400001525879,left,1,NA,NA,NA,NA,NA
XOos5hem,3fk4g712o0duz4m7qhicsa7sfszsso,3tayzsbplpl3hp33n488qcqgmdms2x,XOos5hem,2020-0188,2021-10-31,20:05:45,02:38:42,NA,incomplete,false,NA,NA,true,2,9,NA,NA,NA,left,n_s_010.jpg,white,green,NA,NA,NA,NA,NA,NA,NA,NA,NA,NaN,NA,3291.3999996185303,left,1,NA,NA,NA,NA,NA
XOos5hem,3fk4g712o0duz4m7qhicsa7sfszsso,3tayzsbplpl3hp33n488qcqgmdms2x,XOos5hem,2020-0188,2021-10-31,20:05:45,02:38:42,NA,incomplete,false,NA,NA,true,2,10,NA,NA,NA,left,m_l_006.jpg,red,black,NA,NA,NA,NA,NA,NA,NA,NA,NA,NaN,NA,7051.299999237061,right,0,NA,NA,NA,NA,NA
XOos5hem,3fk4g712o0duz4m7qhicsa7sfszsso,3tayzsbplpl3hp33n488qcqgmdms2x,XOos5hem,2020-0188,2021-10-31,20:05:45,02:38:42,NA,incomplete,false,NA,NA,true,2,11,NA,NA,NA,right,n_l_013.jpg,white,green,NA,NA,NA,NA,NA,NA,NA,NA,NA,NaN,NA,1906.3999996185303,left,0,NA,NA,NA,NA,NA
XOos5hem,3fk4g712o0duz4m7qhicsa7sfszsso,3tayzsbplpl3hp33n488qcqgmdms2x,XOos5hem,2020-0188,2021-10-31,20:05:45,02:38:42,NA,incomplete,false,NA,NA,true,2,12,NA,NA,NA,left,n_s_032.jpg,green,brown,NA,NA,NA,NA,NA,NA,NA,NA,NA,NaN,NA,2125.699998855591,left,1,NA,NA,NA,NA,NA
XOos5hem,3fk4g712o0duz4m7qhicsa7sfszsso,3tayzsbplpl3hp33n488qcqgmdms2x,XOos5hem,2020-0188,2021-10-31,20:05:45,02:38:42,NA,incomplete,false,NA,NA,true,2,13,NA,NA,NA,left,m_l_047.jpg,white,red,NA,NA,NA,NA,NA,NA,NA,NA,NA,NaN,NA,1985,left,1,NA,NA,NA,NA,NA
XOos5hem,3fk4g712o0duz4m7qhicsa7sfszsso,3tayzsbplpl3hp33n488qcqgmdms2x,XOos5hem,2020-0188,2021-10-31,20:05:45,02:38:42,NA,incomplete,false,NA,NA,true,2,14,NA,NA,NA,right,m_s_072.jpg,yellow,brown,NA,NA,NA,NA,NA,NA,NA,NA,NA,NaN,NA,3495.6000003814697,left,0,NA,NA,NA,NA,NA
XOos5hem,3fk4g712o0duz4m7qhicsa7sfszsso,3tayzsbplpl3hp33n488qcqgmdms2x,XOos5hem,2020-0188,2021-10-31,20:05:45,02:38:42,NA,incomplete,false,NA,NA,true,2,15,NA,NA,NA,right,m_s_111.jpg,yellow,brown,NA,NA,NA,NA,NA,NA,NA,NA,NA,NaN,NA,1760.3999996185303,right,1,NA,NA,NA,NA,NA
XOos5hem,3fk4g712o0duz4m7qhicsa7sfszsso,3tayzsbplpl3hp33n488qcqgmdms2x,XOos5hem,2020-0188,2021-10-31,20:05:45,02:38:42,NA,incomplete,false,NA,NA,true,2,16,NA,NA,NA,right,m_l_061.jpg,green,white,NA,NA,NA,NA,NA,NA,NA,NA,NA,NaN,NA,1944.8999996185303,right,1,NA,NA,NA,NA,NA
XOos5hem,3fk4g712o0duz4m7qhicsa7sfszsso,3tayzsbplpl3hp33n488qcqgmdms2x,XOos5hem,2020-0188,2021-10-31,20:05:45,02:38:42,NA,incomplete,false,NA,NA,true,2,17,NA,NA,NA,right,n_s_067.jpg,brown,yellow,NA,NA,NA,NA,NA,NA,NA,NA,NA,NaN,NA,3211.5,left,0,NA,NA,NA,NA,NA
XOos5hem,3fk4g712o0duz4m7qhicsa7sfszsso,3tayzsbplpl3hp33n488qcqgmdms2x,XOos5hem,2020-0188,2021-10-31,20:05:45,02:38:42,NA,incomplete,false,NA,NA,true,2,18,NA,NA,NA,right,m_s_105.jpg,red,black,NA,NA,NA,NA,NA,NA,NA,NA,NA,NaN,NA,1671.6000003814697,right,1,NA,NA,NA,NA,NA
XOos5hem,3fk4g712o0duz4m7qhicsa7sfszsso,3tayzsbplpl3hp33n488qcqgmdms2x,XOos5hem,2020-0188,2021-10-31,20:05:45,02:38:42,NA,incomplete,false,NA,NA,true,2,19,NA,NA,NA,right,n_l_047.jpg,brown,green,NA,NA,NA,NA,NA,NA,NA,NA,NA,NaN,NA,3157,right,1,NA,NA,NA,NA,NA
XOos5hem,3fk4g712o0duz4m7qhicsa7sfszsso,3tayzsbplpl3hp33n488qcqgmdms2x,XOos5hem,2020-0188,2021-10-31,20:05:45,02:38:42,NA,incomplete,false,NA,NA,true,2,20,NA,NA,NA,left,m_l_024.jpg,red,white,NA,NA,NA,NA,NA,NA,NA,NA,NA,NaN,NA,4925.699998855591,left,1,NA,NA,NA,NA,NA
XOos5hem,3fk4g712o0duz4m7qhicsa7sfszsso,3tayzsbplpl3hp33n488qcqgmdms2x,XOos5hem,2020-0188,2021-10-31,20:05:45,02:38:42,NA,incomplete,false,NA,NA,true,2,21,NA,NA,NA,left,m_l_029.jpg,black,red,NA,NA,NA,NA,NA,NA,NA,NA,NA,NaN,NA,2530.400001525879,left,1,NA,NA,NA,NA,NA
XOos5hem,3fk4g712o0duz4m7qhicsa7sfszsso,3tayzsbplpl3hp33n488qcqgmdms2x,XOos5hem,2020-0188,2021-10-31,20:05:45,02:38:42,NA,incomplete,false,NA,true,NA,2,0,NA,NA,NA,left,NA,NA,NA,absent,NA,NA,n_s_010.jpg,white,m_l_082.jpg,green,between,NA,NaN,NA,NA,NA,NA,left,3839.199998855591,1,2,2501.3999996185303
XOos5hem,3fk4g712o0duz4m7qhicsa7sfszsso,3tayzsbplpl3hp33n488qcqgmdms2x,XOos5hem,2020-0188,2021-10-31,20:05:45,02:38:42,NA,incomplete,false,NA,true,NA,2,1,NA,NA,NA,left,NA,NA,NA,absent,NA,NA,n_l_013.jpg,green,n_l_047.jpg,green,within,NA,NaN,NA,NA,NA,NA,left,3704.800001144409,1,0,6544.10000038147
XOos5hem,3fk4g712o0duz4m7qhicsa7sfszsso,3tayzsbplpl3hp33n488qcqgmdms2x,XOos5hem,2020-0188,2021-10-31,20:05:45,02:38:42,NA,incomplete,false,NA,true,NA,2,2,NA,NA,NA,left,NA,NA,NA,absent,NA,NA,n_s_032.jpg,green,m_l_059.jpg,brown,between,NA,NaN,NA,NA,NA,NA,right,3141.1000003814697,0,3,4777.099998474121
XOos5hem,3fk4g712o0duz4m7qhicsa7sfszsso,3tayzsbplpl3hp33n488qcqgmdms2x,XOos5hem,2020-0188,2021-10-31,20:05:45,02:38:42,NA,incomplete,false,NA,true,NA,2,3,NA,NA,NA,right,NA,NA,NA,absent,NA,NA,n_s_067.jpg,yellow,m_l_087.jpg,yellow,within,NA,NaN,NA,NA,NA,NA,right,2353.199998855591,1,2,4737.699998855591
XOos5hem,3fk4g712o0duz4m7qhicsa7sfszsso,3tayzsbplpl3hp33n488qcqgmdms2x,XOos5hem,2020-0188,2021-10-31,20:05:45,02:38:42,NA,incomplete,false,NA,true,NA,2,4,NA,NA,NA,left,NA,NA,NA,absent,NA,NA,m_s_084.jpg,brown,m_s_111.jpg,brown,within,NA,NaN,NA,NA,NA,NA,left,2345.599998474121,1,2,2847.5
XOos5hem,3fk4g712o0duz4m7qhicsa7sfszsso,3tayzsbplpl3hp33n488qcqgmdms2x,XOos5hem,2020-0188,2021-10-31,20:05:45,02:38:42,NA,incomplete,false,NA,true,NA,2,5,NA,NA,NA,right,NA,NA,NA,absent,NA,NA,m_s_047.jpg,yellow,m_s_072.jpg,brown,between,NA,NaN,NA,NA,NA,NA,left,2422.5,0,1,3103.1000003814697
XOos5hem,3fk4g712o0duz4m7qhicsa7sfszsso,3tayzsbplpl3hp33n488qcqgmdms2x,XOos5hem,2020-0188,2021-10-31,20:05:45,02:38:42,NA,incomplete,false,NA,true,NA,2,6,NA,NA,NA,right,NA,NA,NA,absent,NA,NA,m_l_061.jpg,white,m_s_009.jpg,white,within,NA,NaN,NA,NA,NA,NA,left,2643.5,0,1,2985.2999992370605
XOos5hem,3fk4g712o0duz4m7qhicsa7sfszsso,3tayzsbplpl3hp33n488qcqgmdms2x,XOos5hem,2020-0188,2021-10-31,20:05:45,02:38:42,NA,incomplete,false,NA,true,NA,2,7,NA,NA,NA,left,NA,NA,NA,absent,NA,NA,m_l_099.jpg,red,m_l_047.jpg,white,between,NA,NaN,NA,NA,NA,NA,left,2267.6000003814697,1,1,6558.799999237061
XOos5hem,3fk4g712o0duz4m7qhicsa7sfszsso,3tayzsbplpl3hp33n488qcqgmdms2x,XOos5hem,2020-0188,2021-10-31,20:05:45,02:38:42,NA,incomplete,false,NA,true,NA,2,8,NA,NA,NA,right,NA,NA,NA,absent,NA,NA,m_l_024.jpg,red,m_s_105.jpg,black,between,NA,NaN,NA,NA,NA,NA,right,2234.699998855591,1,1,2330.1000003814697
XOos5hem,3fk4g712o0duz4m7qhicsa7sfszsso,3tayzsbplpl3hp33n488qcqgmdms2x,XOos5hem,2020-0188,2021-10-31,20:05:45,02:38:42,NA,incomplete,false,NA,true,NA,2,9,NA,NA,NA,left,NA,NA,NA,absent,NA,NA,n_s_116.jpg,red,m_l_006.jpg,red,within,NA,NaN,NA,NA,NA,NA,right,3212.5,0,2,2374.6000003814697
XOos5hem,3fk4g712o0duz4m7qhicsa7sfszsso,3tayzsbplpl3hp33n488qcqgmdms2x,XOos5hem,2020-0188,2021-10-31,20:05:45,02:38:42,NA,incomplete,false,NA,true,NA,2,10,NA,NA,NA,left,NA,NA,NA,absent,NA,NA,n_s_099.jpg,black,m_l_029.jpg,black,within,NA,NaN,NA,NA,NA,NA,right,2162.7999992370605,0,2,2063.199998855591
XOos5hem,3fk4g712o0duz4m7qhicsa7sfszsso,3tayzsbplpl3hp33n488qcqgmdms2x,XOos5hem,2020-0188,2021-10-31,20:05:45,02:38:42,NA,incomplete,false,true,NA,NA,3,0,NA,red,m_l_026.jpg,NA,NA,NA,NA,NA,unpleasant,pleasant,NA,NA,NA,NA,NA,right,2141.89999961853,true,NA,NA,NA,NA,NA,NA,NA,NA
XOos5hem,3fk4g712o0duz4m7qhicsa7sfszsso,3tayzsbplpl3hp33n488qcqgmdms2x,XOos5hem,2020-0188,2021-10-31,20:05:45,02:38:42,NA,incomplete,false,true,NA,NA,3,1,NA,red,n_l_083.jpg,NA,NA,NA,NA,NA,pleasant,unpleasant,NA,NA,NA,NA,NA,left,1283.5,true,NA,NA,NA,NA,NA,NA,NA,NA
XOos5hem,3fk4g712o0duz4m7qhicsa7sfszsso,3tayzsbplpl3hp33n488qcqgmdms2x,XOos5hem,2020-0188,2021-10-31,20:05:45,02:38:42,NA,incomplete,false,true,NA,NA,3,2,NA,red,n_s_075.jpg,NA,NA,NA,NA,NA,pleasant,unpleasant,NA,NA,NA,NA,NA,right,1591.5,true,NA,NA,NA,NA,NA,NA,NA,NA
XOos5hem,3fk4g712o0duz4m7qhicsa7sfszsso,3tayzsbplpl3hp33n488qcqgmdms2x,XOos5hem,2020-0188,2021-10-31,20:05:45,02:38:42,NA,incomplete,false,true,NA,NA,3,3,NA,red,m_s_029.jpg,NA,NA,NA,NA,NA,pleasant,unpleasant,NA,NA,NA,NA,NA,left,1490.19999885559,true,NA,NA,NA,NA,NA,NA,NA,NA
XOos5hem,3fk4g712o0duz4m7qhicsa7sfszsso,3tayzsbplpl3hp33n488qcqgmdms2x,XOos5hem,2020-0188,2021-10-31,20:05:45,02:38:42,NA,incomplete,false,true,NA,NA,3,4,NA,red,n_s_058.jpg,NA,NA,NA,NA,NA,unpleasant,pleasant,NA,NA,NA,NA,NA,right,1330.10000038147,true,NA,NA,NA,NA,NA,NA,NA,NA
XOos5hem,3fk4g712o0duz4m7qhicsa7sfszsso,3tayzsbplpl3hp33n488qcqgmdms2x,XOos5hem,2020-0188,2021-10-31,20:05:45,02:38:42,NA,incomplete,false,true,NA,NA,3,5,NA,red,n_s_095.jpg,NA,NA,NA,NA,NA,pleasant,unpleasant,NA,NA,NA,NA,NA,left,1326.29999923706,true,NA,NA,NA,NA,NA,NA,NA,NA
XOos5hem,3fk4g712o0duz4m7qhicsa7sfszsso,3tayzsbplpl3hp33n488qcqgmdms2x,XOos5hem,2020-0188,2021-10-31,20:05:45,02:38:42,NA,incomplete,false,true,NA,NA,3,6,NA,orange,m_l_081.jpg,NA,NA,NA,NA,NA,unpleasant,pleasant,NA,NA,NA,NA,NA,right,1435.30000114441,true,NA,NA,NA,NA,NA,NA,NA,NA
XOos5hem,3fk4g712o0duz4m7qhicsa7sfszsso,3tayzsbplpl3hp33n488qcqgmdms2x,XOos5hem,2020-0188,2021-10-31,20:05:45,02:38:42,NA,incomplete,false,true,NA,NA,3,7,NA,orange,n_s_092.jpg,NA,NA,NA,NA,NA,unpleasant,pleasant,NA,NA,NA,NA,NA,right,1757,true,NA,NA,NA,NA,NA,NA,NA,NA
XOos5hem,3fk4g712o0duz4m7qhicsa7sfszsso,3tayzsbplpl3hp33n488qcqgmdms2x,XOos5hem,2020-0188,2021-10-31,20:05:45,02:38:42,NA,incomplete,false,true,NA,NA,3,8,NA,orange,m_s_106.jpg,NA,NA,NA,NA,NA,pleasant,unpleasant,NA,NA,NA,NA,NA,left,1229.29999923706,true,NA,NA,NA,NA,NA,NA,NA,NA
XOos5hem,3fk4g712o0duz4m7qhicsa7sfszsso,3tayzsbplpl3hp33n488qcqgmdms2x,XOos5hem,2020-0188,2021-10-31,20:05:45,02:38:42,NA,incomplete,false,true,NA,NA,3,9,NA,orange,m_s_074.jpg,NA,NA,NA,NA,NA,pleasant,unpleasant,NA,NA,NA,NA,NA,left,1292.60000038147,true,NA,NA,NA,NA,NA,NA,NA,NA
XOos5hem,3fk4g712o0duz4m7qhicsa7sfszsso,3tayzsbplpl3hp33n488qcqgmdms2x,XOos5hem,2020-0188,2021-10-31,20:05:45,02:38:42,NA,incomplete,false,true,NA,NA,3,10,NA,orange,m_l_092.jpg,NA,NA,NA,NA,NA,unpleasant,pleasant,NA,NA,NA,NA,NA,right,1630.29999923706,true,NA,NA,NA,NA,NA,NA,NA,NA
XOos5hem,3fk4g712o0duz4m7qhicsa7sfszsso,3tayzsbplpl3hp33n488qcqgmdms2x,XOos5hem,2020-0188,2021-10-31,20:05:45,02:38:42,NA,incomplete,false,true,NA,NA,3,11,NA,orange,n_s_086.jpg,NA,NA,NA,NA,NA,pleasant,unpleasant,NA,NA,NA,NA,NA,right,2725.10000038147,true,NA,NA,NA,NA,NA,NA,NA,NA
XOos5hem,3fk4g712o0duz4m7qhicsa7sfszsso,3tayzsbplpl3hp33n488qcqgmdms2x,XOos5hem,2020-0188,2021-10-31,20:05:45,02:38:42,NA,incomplete,false,true,NA,NA,3,12,NA,green,m_l_021.jpg,NA,NA,NA,NA,NA,unpleasant,pleasant,NA,NA,NA,NA,NA,right,1191.10000038147,true,NA,NA,NA,NA,NA,NA,NA,NA
XOos5hem,3fk4g712o0duz4m7qhicsa7sfszsso,3tayzsbplpl3hp33n488qcqgmdms2x,XOos5hem,2020-0188,2021-10-31,20:05:45,02:38:42,NA,incomplete,false,true,NA,NA,3,13,NA,green,n_l_022.jpg,NA,NA,NA,NA,NA,pleasant,unpleasant,NA,NA,NA,NA,NA,left,1111.79999923706,true,NA,NA,NA,NA,NA,NA,NA,NA
XOos5hem,3fk4g712o0duz4m7qhicsa7sfszsso,3tayzsbplpl3hp33n488qcqgmdms2x,XOos5hem,2020-0188,2021-10-31,20:05:45,02:38:42,NA,incomplete,false,true,NA,NA,3,14,NA,green,n_s_021.jpg,NA,NA,NA,NA,NA,pleasant,unpleasant,NA,NA,NA,NA,NA,left,1294,true,NA,NA,NA,NA,NA,NA,NA,NA
XOos5hem,3fk4g712o0duz4m7qhicsa7sfszsso,3tayzsbplpl3hp33n488qcqgmdms2x,XOos5hem,2020-0188,2021-10-31,20:05:45,02:38:42,NA,incomplete,false,true,NA,NA,3,15,NA,green,m_s_050.jpg,NA,NA,NA,NA,NA,unpleasant,pleasant,NA,NA,NA,NA,NA,right,1477.20000076294,true,NA,NA,NA,NA,NA,NA,NA,NA
XOos5hem,3fk4g712o0duz4m7qhicsa7sfszsso,3tayzsbplpl3hp33n488qcqgmdms2x,XOos5hem,2020-0188,2021-10-31,20:05:45,02:38:42,NA,incomplete,false,true,NA,NA,3,16,NA,green,n_l_056.jpg,NA,NA,NA,NA,NA,pleasant,unpleasant,NA,NA,NA,NA,NA,left,1540.79999923706,true,NA,NA,NA,NA,NA,NA,NA,NA
XOos5hem,3fk4g712o0duz4m7qhicsa7sfszsso,3tayzsbplpl3hp33n488qcqgmdms2x,XOos5hem,2020-0188,2021-10-31,20:05:45,02:38:42,NA,incomplete,false,true,NA,NA,3,17,NA,green,n_l_018.jpg,NA,NA,NA,NA,NA,pleasant,unpleasant,NA,NA,NA,NA,NA,left,1119.89999961853,true,NA,NA,NA,NA,NA,NA,NA,NA
XOos5hem,3fk4g712o0duz4m7qhicsa7sfszsso,3tayzsbplpl3hp33n488qcqgmdms2x,XOos5hem,2020-0188,2021-10-31,20:05:45,02:38:42,NA,incomplete,false,true,NA,NA,3,18,NA,black,n_s_023.jpg,NA,NA,NA,NA,NA,pleasant,unpleasant,NA,NA,NA,NA,NA,left,1409.29999923706,true,NA,NA,NA,NA,NA,NA,NA,NA
XOos5hem,3fk4g712o0duz4m7qhicsa7sfszsso,3tayzsbplpl3hp33n488qcqgmdms2x,XOos5hem,2020-0188,2021-10-31,20:05:45,02:38:42,NA,incomplete,false,true,NA,NA,3,19,NA,black,n_l_020.jpg,NA,NA,NA,NA,NA,pleasant,unpleasant,NA,NA,NA,NA,NA,left,1191.29999923706,true,NA,NA,NA,NA,NA,NA,NA,NA
XOos5hem,3fk4g712o0duz4m7qhicsa7sfszsso,3tayzsbplpl3hp33n488qcqgmdms2x,XOos5hem,2020-0188,2021-10-31,20:05:45,02:38:42,NA,incomplete,false,true,NA,NA,3,20,NA,black,m_l_040.jpg,NA,NA,NA,NA,NA,unpleasant,pleasant,NA,NA,NA,NA,NA,right,1860.10000038147,true,NA,NA,NA,NA,NA,NA,NA,NA
XOos5hem,3fk4g712o0duz4m7qhicsa7sfszsso,3tayzsbplpl3hp33n488qcqgmdms2x,XOos5hem,2020-0188,2021-10-31,20:05:45,02:38:42,NA,incomplete,false,true,NA,NA,3,21,NA,black,n_s_042.jpg,NA,NA,NA,NA,NA,unpleasant,pleasant,NA,NA,NA,NA,NA,left,1405.29999923706,true,NA,NA,NA,NA,NA,NA,NA,NA
XOos5hem,3fk4g712o0duz4m7qhicsa7sfszsso,3tayzsbplpl3hp33n488qcqgmdms2x,XOos5hem,2020-0188,2021-10-31,20:05:45,02:38:42,NA,incomplete,false,true,NA,NA,3,22,NA,black,n_s_017.jpg,NA,NA,NA,NA,NA,pleasant,unpleasant,NA,NA,NA,NA,NA,left,1569.5,true,NA,NA,NA,NA,NA,NA,NA,NA
XOos5hem,3fk4g712o0duz4m7qhicsa7sfszsso,3tayzsbplpl3hp33n488qcqgmdms2x,XOos5hem,2020-0188,2021-10-31,20:05:45,02:38:42,NA,incomplete,false,true,NA,NA,3,23,NA,black,n_s_050.jpg,NA,NA,NA,NA,NA,pleasant,unpleasant,NA,NA,NA,NA,NA,right,1505.5,true,NA,NA,NA,NA,NA,NA,NA,NA
XOos5hem,3fk4g712o0duz4m7qhicsa7sfszsso,3tayzsbplpl3hp33n488qcqgmdms2x,XOos5hem,2020-0188,2021-10-31,20:05:45,02:38:42,NA,incomplete,false,true,NA,NA,3,24,NA,white,n_s_049.jpg,NA,NA,NA,NA,NA,unpleasant,pleasant,NA,NA,NA,NA,NA,left,1361.80000114441,true,NA,NA,NA,NA,NA,NA,NA,NA
XOos5hem,3fk4g712o0duz4m7qhicsa7sfszsso,3tayzsbplpl3hp33n488qcqgmdms2x,XOos5hem,2020-0188,2021-10-31,20:05:45,02:38:42,NA,incomplete,false,true,NA,NA,3,25,NA,white,n_l_061.jpg,NA,NA,NA,NA,NA,unpleasant,pleasant,NA,NA,NA,NA,NA,right,1225,true,NA,NA,NA,NA,NA,NA,NA,NA
XOos5hem,3fk4g712o0duz4m7qhicsa7sfszsso,3tayzsbplpl3hp33n488qcqgmdms2x,XOos5hem,2020-0188,2021-10-31,20:05:45,02:38:42,NA,incomplete,false,true,NA,NA,3,26,NA,white,m_s_064.jpg,NA,NA,NA,NA,NA,unpleasant,pleasant,NA,NA,NA,NA,NA,right,1302,true,NA,NA,NA,NA,NA,NA,NA,NA
XOos5hem,3fk4g712o0duz4m7qhicsa7sfszsso,3tayzsbplpl3hp33n488qcqgmdms2x,XOos5hem,2020-0188,2021-10-31,20:05:45,02:38:42,NA,incomplete,false,true,NA,NA,3,27,NA,white,m_s_103.jpg,NA,NA,NA,NA,NA,pleasant,unpleasant,NA,NA,NA,NA,NA,left,1302.70000076294,true,NA,NA,NA,NA,NA,NA,NA,NA
XOos5hem,3fk4g712o0duz4m7qhicsa7sfszsso,3tayzsbplpl3hp33n488qcqgmdms2x,XOos5hem,2020-0188,2021-10-31,20:05:45,02:38:42,NA,incomplete,false,true,NA,NA,3,28,NA,white,n_s_027.jpg,NA,NA,NA,NA,NA,unpleasant,pleasant,NA,NA,NA,NA,NA,left,1386.10000038147,true,NA,NA,NA,NA,NA,NA,NA,NA
XOos5hem,3fk4g712o0duz4m7qhicsa7sfszsso,3tayzsbplpl3hp33n488qcqgmdms2x,XOos5hem,2020-0188,2021-10-31,20:05:45,02:38:42,NA,incomplete,false,true,NA,NA,3,29,NA,white,n_l_100.jpg,NA,NA,NA,NA,NA,unpleasant,pleasant,NA,NA,NA,NA,NA,right,1357.80000114441,true,NA,NA,NA,NA,NA,NA,NA,NA
XOos5hem,3fk4g712o0duz4m7qhicsa7sfszsso,3tayzsbplpl3hp33n488qcqgmdms2x,XOos5hem,2020-0188,2021-10-31,20:05:45,02:38:42,NA,incomplete,false,true,NA,NA,3,30,NA,gray,m_s_094.jpg,NA,NA,NA,NA,NA,pleasant,unpleasant,NA,NA,NA,NA,NA,left,1513,true,NA,NA,NA,NA,NA,NA,NA,NA
XOos5hem,3fk4g712o0duz4m7qhicsa7sfszsso,3tayzsbplpl3hp33n488qcqgmdms2x,XOos5hem,2020-0188,2021-10-31,20:05:45,02:38:42,NA,incomplete,false,true,NA,NA,3,31,NA,gray,n_s_036.jpg,NA,NA,NA,NA,NA,unpleasant,pleasant,NA,NA,NA,NA,NA,right,1264.80000114441,true,NA,NA,NA,NA,NA,NA,NA,NA
XOos5hem,3fk4g712o0duz4m7qhicsa7sfszsso,3tayzsbplpl3hp33n488qcqgmdms2x,XOos5hem,2020-0188,2021-10-31,20:05:45,02:38:42,NA,incomplete,false,true,NA,NA,3,32,NA,gray,m_l_075.jpg,NA,NA,NA,NA,NA,pleasant,unpleasant,NA,NA,NA,NA,NA,left,1105.5,true,NA,NA,NA,NA,NA,NA,NA,NA
XOos5hem,3fk4g712o0duz4m7qhicsa7sfszsso,3tayzsbplpl3hp33n488qcqgmdms2x,XOos5hem,2020-0188,2021-10-31,20:05:45,02:38:42,NA,incomplete,false,true,NA,NA,3,33,NA,gray,m_l_046.jpg,NA,NA,NA,NA,NA,pleasant,unpleasant,NA,NA,NA,NA,NA,left,1586.10000038147,true,NA,NA,NA,NA,NA,NA,NA,NA
XOos5hem,3fk4g712o0duz4m7qhicsa7sfszsso,3tayzsbplpl3hp33n488qcqgmdms2x,XOos5hem,2020-0188,2021-10-31,20:05:45,02:38:42,NA,incomplete,false,true,NA,NA,3,34,NA,gray,n_s_009.jpg,NA,NA,NA,NA,NA,unpleasant,pleasant,NA,NA,NA,NA,NA,right,1340.20000076294,true,NA,NA,NA,NA,NA,NA,NA,NA
XOos5hem,3fk4g712o0duz4m7qhicsa7sfszsso,3tayzsbplpl3hp33n488qcqgmdms2x,XOos5hem,2020-0188,2021-10-31,20:05:45,02:38:42,NA,incomplete,false,true,NA,NA,3,35,NA,gray,m_s_048.jpg,NA,NA,NA,NA,NA,pleasant,unpleasant,NA,NA,NA,NA,NA,left,1182,true,NA,NA,NA,NA,NA,NA,NA,NA
XOos5hem,3fk4g712o0duz4m7qhicsa7sfszsso,3tayzsbplpl3hp33n488qcqgmdms2x,XOos5hem,2020-0188,2021-10-31,20:05:45,02:38:42,NA,incomplete,false,NA,NA,true,3,0,NA,NA,NA,right,n_s_027.jpg,black,white,NA,NA,NA,NA,NA,NA,NA,NA,NA,NaN,NA,4747.39999961853,left,0,NA,NA,NA,NA,NA
XOos5hem,3fk4g712o0duz4m7qhicsa7sfszsso,3tayzsbplpl3hp33n488qcqgmdms2x,XOos5hem,2020-0188,2021-10-31,20:05:45,02:38:42,NA,incomplete,false,NA,NA,true,3,1,NA,NA,NA,left,n_s_095.jpg,red,orange,NA,NA,NA,NA,NA,NA,NA,NA,NA,NaN,NA,2627.1000003814697,left,1,NA,NA,NA,NA,NA
XOos5hem,3fk4g712o0duz4m7qhicsa7sfszsso,3tayzsbplpl3hp33n488qcqgmdms2x,XOos5hem,2020-0188,2021-10-31,20:05:45,02:38:42,NA,incomplete,false,NA,NA,true,3,2,NA,NA,NA,left,n_l_083.jpg,red,orange,NA,NA,NA,NA,NA,NA,NA,NA,NA,NaN,NA,1828.7000007629395,left,1,NA,NA,NA,NA,NA
XOos5hem,3fk4g712o0duz4m7qhicsa7sfszsso,3tayzsbplpl3hp33n488qcqgmdms2x,XOos5hem,2020-0188,2021-10-31,20:05:45,02:38:42,NA,incomplete,false,NA,NA,true,3,3,NA,NA,NA,right,n_s_036.jpg,white,gray,NA,NA,NA,NA,NA,NA,NA,NA,NA,NaN,NA,1851.3000011444092,right,1,NA,NA,NA,NA,NA
XOos5hem,3fk4g712o0duz4m7qhicsa7sfszsso,3tayzsbplpl3hp33n488qcqgmdms2x,XOos5hem,2020-0188,2021-10-31,20:05:45,02:38:42,NA,incomplete,false,NA,NA,true,3,4,NA,NA,NA,right,n_s_021.jpg,orange,green,NA,NA,NA,NA,NA,NA,NA,NA,NA,NaN,NA,1992.1000003814697,right,1,NA,NA,NA,NA,NA
XOos5hem,3fk4g712o0duz4m7qhicsa7sfszsso,3tayzsbplpl3hp33n488qcqgmdms2x,XOos5hem,2020-0188,2021-10-31,20:05:45,02:38:42,NA,incomplete,false,NA,NA,true,3,5,NA,NA,NA,left,n_s_086.jpg,orange,green,NA,NA,NA,NA,NA,NA,NA,NA,NA,NaN,NA,1501.8000011444092,right,0,NA,NA,NA,NA,NA
XOos5hem,3fk4g712o0duz4m7qhicsa7sfszsso,3tayzsbplpl3hp33n488qcqgmdms2x,XOos5hem,2020-0188,2021-10-31,20:05:45,02:38:42,NA,incomplete,false,NA,NA,true,3,6,NA,NA,NA,right,n_l_061.jpg,black,white,NA,NA,NA,NA,NA,NA,NA,NA,NA,NaN,NA,1523.1000003814697,right,1,NA,NA,NA,NA,NA
XOos5hem,3fk4g712o0duz4m7qhicsa7sfszsso,3tayzsbplpl3hp33n488qcqgmdms2x,XOos5hem,2020-0188,2021-10-31,20:05:45,02:38:42,NA,incomplete,false,NA,NA,true,3,7,NA,NA,NA,right,m_s_106.jpg,red,orange,NA,NA,NA,NA,NA,NA,NA,NA,NA,NaN,NA,2149,right,1,NA,NA,NA,NA,NA
XOos5hem,3fk4g712o0duz4m7qhicsa7sfszsso,3tayzsbplpl3hp33n488qcqgmdms2x,XOos5hem,2020-0188,2021-10-31,20:05:45,02:38:42,NA,incomplete,false,NA,NA,true,3,8,NA,NA,NA,left,m_l_040.jpg,black,white,NA,NA,NA,NA,NA,NA,NA,NA,NA,NaN,NA,6723.700000762939,left,1,NA,NA,NA,NA,NA
XOos5hem,3fk4g712o0duz4m7qhicsa7sfszsso,3tayzsbplpl3hp33n488qcqgmdms2x,XOos5hem,2020-0188,2021-10-31,20:05:45,02:38:42,NA,incomplete,false,NA,NA,true,3,9,NA,NA,NA,left,n_s_058.jpg,red,orange,NA,NA,NA,NA,NA,NA,NA,NA,NA,NaN,NA,6631,left,1,NA,NA,NA,NA,NA
XOos5hem,3fk4g712o0duz4m7qhicsa7sfszsso,3tayzsbplpl3hp33n488qcqgmdms2x,XOos5hem,2020-0188,2021-10-31,20:05:45,02:38:42,NA,incomplete,false,NA,NA,true,3,10,NA,NA,NA,right,n_l_100.jpg,black,white,NA,NA,NA,NA,NA,NA,NA,NA,NA,NaN,NA,1702.8000011444092,right,1,NA,NA,NA,NA,NA
XOos5hem,3fk4g712o0duz4m7qhicsa7sfszsso,3tayzsbplpl3hp33n488qcqgmdms2x,XOos5hem,2020-0188,2021-10-31,20:05:45,02:38:42,NA,incomplete,false,NA,NA,true,3,11,NA,NA,NA,right,m_s_064.jpg,black,white,NA,NA,NA,NA,NA,NA,NA,NA,NA,NaN,NA,2008.6000003814697,right,1,NA,NA,NA,NA,NA
XOos5hem,3fk4g712o0duz4m7qhicsa7sfszsso,3tayzsbplpl3hp33n488qcqgmdms2x,XOos5hem,2020-0188,2021-10-31,20:05:45,02:38:42,NA,incomplete,false,NA,NA,true,3,12,NA,NA,NA,right,n_s_017.jpg,green,black,NA,NA,NA,NA,NA,NA,NA,NA,NA,NaN,NA,2221,right,1,NA,NA,NA,NA,NA
XOos5hem,3fk4g712o0duz4m7qhicsa7sfszsso,3tayzsbplpl3hp33n488qcqgmdms2x,XOos5hem,2020-0188,2021-10-31,20:05:45,02:38:42,NA,incomplete,false,NA,NA,true,3,13,NA,NA,NA,left,n_l_056.jpg,green,black,NA,NA,NA,NA,NA,NA,NA,NA,NA,NaN,NA,2470.6000003814697,right,0,NA,NA,NA,NA,NA
XOos5hem,3fk4g712o0duz4m7qhicsa7sfszsso,3tayzsbplpl3hp33n488qcqgmdms2x,XOos5hem,2020-0188,2021-10-31,20:05:45,02:38:42,NA,incomplete,false,NA,NA,true,3,14,NA,NA,NA,left,m_l_075.jpg,gray,white,NA,NA,NA,NA,NA,NA,NA,NA,NA,NaN,NA,3563.300001144409,left,1,NA,NA,NA,NA,NA
XOos5hem,3fk4g712o0duz4m7qhicsa7sfszsso,3tayzsbplpl3hp33n488qcqgmdms2x,XOos5hem,2020-0188,2021-10-31,20:05:45,02:38:42,NA,incomplete,false,NA,NA,true,3,15,NA,NA,NA,right,n_l_018.jpg,orange,green,NA,NA,NA,NA,NA,NA,NA,NA,NA,NaN,NA,1751.400001525879,right,1,NA,NA,NA,NA,NA
XOos5hem,3fk4g712o0duz4m7qhicsa7sfszsso,3tayzsbplpl3hp33n488qcqgmdms2x,XOos5hem,2020-0188,2021-10-31,20:05:45,02:38:42,NA,incomplete,false,NA,NA,true,3,16,NA,NA,NA,left,n_l_020.jpg,black,green,NA,NA,NA,NA,NA,NA,NA,NA,NA,NaN,NA,5010.700000762939,right,0,NA,NA,NA,NA,NA
XOos5hem,3fk4g712o0duz4m7qhicsa7sfszsso,3tayzsbplpl3hp33n488qcqgmdms2x,XOos5hem,2020-0188,2021-10-31,20:05:45,02:38:42,NA,incomplete,false,NA,NA,true,3,17,NA,NA,NA,left,m_s_048.jpg,gray,white,NA,NA,NA,NA,NA,NA,NA,NA,NA,NaN,NA,6536.5,left,1,NA,NA,NA,NA,NA
XOos5hem,3fk4g712o0duz4m7qhicsa7sfszsso,3tayzsbplpl3hp33n488qcqgmdms2x,XOos5hem,2020-0188,2021-10-31,20:05:45,02:38:42,NA,incomplete,false,NA,NA,true,3,18,NA,NA,NA,right,n_s_050.jpg,white,black,NA,NA,NA,NA,NA,NA,NA,NA,NA,NaN,NA,4956.89999961853,left,0,NA,NA,NA,NA,NA
XOos5hem,3fk4g712o0duz4m7qhicsa7sfszsso,3tayzsbplpl3hp33n488qcqgmdms2x,XOos5hem,2020-0188,2021-10-31,20:05:45,02:38:42,NA,incomplete,false,NA,NA,true,3,19,NA,NA,NA,left,n_l_022.jpg,green,orange,NA,NA,NA,NA,NA,NA,NA,NA,NA,NaN,NA,2009.7000007629395,left,1,NA,NA,NA,NA,NA
XOos5hem,3fk4g712o0duz4m7qhicsa7sfszsso,3tayzsbplpl3hp33n488qcqgmdms2x,XOos5hem,2020-0188,2021-10-31,20:05:45,02:38:42,NA,incomplete,false,NA,NA,true,3,20,NA,NA,NA,left,m_l_092.jpg,orange,green,NA,NA,NA,NA,NA,NA,NA,NA,NA,NaN,NA,6231.700000762939,right,0,NA,NA,NA,NA,NA
XOos5hem,3fk4g712o0duz4m7qhicsa7sfszsso,3tayzsbplpl3hp33n488qcqgmdms2x,XOos5hem,2020-0188,2021-10-31,20:05:45,02:38:42,NA,incomplete,false,NA,NA,true,3,21,NA,NA,NA,left,n_s_092.jpg,orange,green,NA,NA,NA,NA,NA,NA,NA,NA,NA,NaN,NA,3086.3999996185303,left,1,NA,NA,NA,NA,NA
XOos5hem,3fk4g712o0duz4m7qhicsa7sfszsso,3tayzsbplpl3hp33n488qcqgmdms2x,XOos5hem,2020-0188,2021-10-31,20:05:45,02:38:42,NA,incomplete,false,NA,true,NA,3,0,NA,NA,NA,right,NA,NA,NA,absent,NA,NA,n_s_095.jpg,red,n_l_083.jpg,red,within,NA,NaN,NA,NA,NA,NA,left,8320,0,1,2603.2999992370605
XOos5hem,3fk4g712o0duz4m7qhicsa7sfszsso,3tayzsbplpl3hp33n488qcqgmdms2x,XOos5hem,2020-0188,2021-10-31,20:05:45,02:38:42,NA,incomplete,false,NA,true,NA,3,1,NA,NA,NA,left,NA,NA,NA,absent,NA,NA,n_l_061.jpg,white,n_l_100.jpg,white,within,NA,NaN,NA,NA,NA,NA,left,2415.8999996185303,1,1,4026.2999992370605
XOos5hem,3fk4g712o0duz4m7qhicsa7sfszsso,3tayzsbplpl3hp33n488qcqgmdms2x,XOos5hem,2020-0188,2021-10-31,20:05:45,02:38:42,NA,incomplete,false,NA,true,NA,3,2,NA,NA,NA,right,NA,NA,NA,absent,NA,NA,m_l_075.jpg,gray,n_s_027.jpg,white,between,NA,NaN,NA,NA,NA,NA,left,3838,0,2,2103
XOos5hem,3fk4g712o0duz4m7qhicsa7sfszsso,3tayzsbplpl3hp33n488qcqgmdms2x,XOos5hem,2020-0188,2021-10-31,20:05:45,02:38:42,NA,incomplete,false,NA,true,NA,3,3,NA,NA,NA,right,NA,NA,NA,absent,NA,NA,m_l_040.jpg,black,n_l_056.jpg,green,between,NA,NaN,NA,NA,NA,NA,right,2125.400001525879,1,1,2836.3999996185303
XOos5hem,3fk4g712o0duz4m7qhicsa7sfszsso,3tayzsbplpl3hp33n488qcqgmdms2x,XOos5hem,2020-0188,2021-10-31,20:05:45,02:38:42,NA,incomplete,false,NA,true,NA,3,4,NA,NA,NA,right,NA,NA,NA,absent,NA,NA,n_s_021.jpg,green,m_l_092.jpg,orange,between,NA,NaN,NA,NA,NA,NA,left,2596,0,2,1345.5
XOos5hem,3fk4g712o0duz4m7qhicsa7sfszsso,3tayzsbplpl3hp33n488qcqgmdms2x,XOos5hem,2020-0188,2021-10-31,20:05:45,02:38:42,NA,incomplete,false,NA,true,NA,3,5,NA,NA,NA,right,NA,NA,NA,absent,NA,NA,m_s_106.jpg,orange,n_s_058.jpg,red,between,NA,NaN,NA,NA,NA,NA,left,2703.6000003814697,0,0,1767.8999996185303
XOos5hem,3fk4g712o0duz4m7qhicsa7sfszsso,3tayzsbplpl3hp33n488qcqgmdms2x,XOos5hem,2020-0188,2021-10-31,20:05:45,02:38:42,NA,incomplete,false,NA,true,NA,3,6,NA,NA,NA,left,NA,NA,NA,absent,NA,NA,n_s_036.jpg,gray,m_s_048.jpg,gray,within,NA,NaN,NA,NA,NA,NA,right,4119.200000762939,0,1,1837.6000003814697
XOos5hem,3fk4g712o0duz4m7qhicsa7sfszsso,3tayzsbplpl3hp33n488qcqgmdms2x,XOos5hem,2020-0188,2021-10-31,20:05:45,02:38:42,NA,incomplete,false,NA,true,NA,3,7,NA,NA,NA,left,NA,NA,NA,absent,NA,NA,n_s_092.jpg,orange,n_s_086.jpg,orange,within,NA,NaN,NA,NA,NA,NA,right,5240.10000038147,0,1,2165.3999996185303
XOos5hem,3fk4g712o0duz4m7qhicsa7sfszsso,3tayzsbplpl3hp33n488qcqgmdms2x,XOos5hem,2020-0188,2021-10-31,20:05:45,02:38:42,NA,incomplete,false,NA,true,NA,3,8,NA,NA,NA,left,NA,NA,NA,absent,NA,NA,n_s_017.jpg,black,m_s_064.jpg,white,between,NA,NaN,NA,NA,NA,NA,left,2461,1,2,1187
XOos5hem,3fk4g712o0duz4m7qhicsa7sfszsso,3tayzsbplpl3hp33n488qcqgmdms2x,XOos5hem,2020-0188,2021-10-31,20:05:45,02:38:42,NA,incomplete,false,NA,true,NA,3,9,NA,NA,NA,right,NA,NA,NA,absent,NA,NA,n_l_018.jpg,green,n_l_022.jpg,green,within,NA,NaN,NA,NA,NA,NA,left,2807.1000003814697,0,0,1240.8999996185303
XOos5hem,3fk4g712o0duz4m7qhicsa7sfszsso,3tayzsbplpl3hp33n488qcqgmdms2x,XOos5hem,2020-0188,2021-10-31,20:05:45,02:38:42,NA,incomplete,false,NA,true,NA,3,10,NA,NA,NA,left,NA,NA,NA,absent,NA,NA,n_l_020.jpg,black,n_s_050.jpg,black,within,NA,NaN,NA,NA,NA,NA,left,4028.099998474121,1,2,2063.3999996185303
XOos5hem,3fk4g712o0duz4m7qhicsa7sfszsso,3tayzsbplpl3hp33n488qcqgmdms2x,XOos5hem,2020-0188,2021-10-31,20:05:45,02:38:42,NA,incomplete,false,true,NA,NA,4,0,NA,red,n_s_068.jpg,NA,NA,NA,NA,NA,pleasant,unpleasant,NA,NA,NA,NA,NA,left,3023,true,NA,NA,NA,NA,NA,NA,NA,NA
XOos5hem,3fk4g712o0duz4m7qhicsa7sfszsso,3tayzsbplpl3hp33n488qcqgmdms2x,XOos5hem,2020-0188,2021-10-31,20:05:45,02:38:42,NA,incomplete,false,true,NA,NA,4,1,NA,red,m_l_052.jpg,NA,NA,NA,NA,NA,unpleasant,pleasant,NA,NA,NA,NA,NA,right,1325.10000038147,true,NA,NA,NA,NA,NA,NA,NA,NA
XOos5hem,3fk4g712o0duz4m7qhicsa7sfszsso,3tayzsbplpl3hp33n488qcqgmdms2x,XOos5hem,2020-0188,2021-10-31,20:05:45,02:38:42,NA,incomplete,false,true,NA,NA,4,2,NA,red,m_s_025.jpg,NA,NA,NA,NA,NA,pleasant,unpleasant,NA,NA,NA,NA,NA,left,1085.79999923706,true,NA,NA,NA,NA,NA,NA,NA,NA
XOos5hem,3fk4g712o0duz4m7qhicsa7sfszsso,3tayzsbplpl3hp33n488qcqgmdms2x,XOos5hem,2020-0188,2021-10-31,20:05:45,02:38:42,NA,incomplete,false,true,NA,NA,4,3,NA,red,m_s_042.jpg,NA,NA,NA,NA,NA,unpleasant,pleasant,NA,NA,NA,NA,NA,right,1825.89999961853,true,NA,NA,NA,NA,NA,NA,NA,NA
XOos5hem,3fk4g712o0duz4m7qhicsa7sfszsso,3tayzsbplpl3hp33n488qcqgmdms2x,XOos5hem,2020-0188,2021-10-31,20:05:45,02:38:42,NA,incomplete,false,true,NA,NA,4,4,NA,red,n_l_096.jpg,NA,NA,NA,NA,NA,unpleasant,pleasant,NA,NA,NA,NA,NA,right,931.099998474121,true,NA,NA,NA,NA,NA,NA,NA,NA
XOos5hem,3fk4g712o0duz4m7qhicsa7sfszsso,3tayzsbplpl3hp33n488qcqgmdms2x,XOos5hem,2020-0188,2021-10-31,20:05:45,02:38:42,NA,incomplete,false,true,NA,NA,4,5,NA,red,m_s_014.jpg,NA,NA,NA,NA,NA,unpleasant,pleasant,NA,NA,NA,NA,NA,right,1019.29999923706,true,NA,NA,NA,NA,NA,NA,NA,NA
XOos5hem,3fk4g712o0duz4m7qhicsa7sfszsso,3tayzsbplpl3hp33n488qcqgmdms2x,XOos5hem,2020-0188,2021-10-31,20:05:45,02:38:42,NA,incomplete,false,true,NA,NA,4,6,NA,blue,m_l_100.jpg,NA,NA,NA,NA,NA,unpleasant,pleasant,NA,NA,NA,NA,NA,right,1288.19999885559,true,NA,NA,NA,NA,NA,NA,NA,NA
XOos5hem,3fk4g712o0duz4m7qhicsa7sfszsso,3tayzsbplpl3hp33n488qcqgmdms2x,XOos5hem,2020-0188,2021-10-31,20:05:45,02:38:42,NA,incomplete,false,true,NA,NA,4,7,NA,blue,m_l_032.jpg,NA,NA,NA,NA,NA,pleasant,unpleasant,NA,NA,NA,NA,NA,left,1170.79999923706,true,NA,NA,NA,NA,NA,NA,NA,NA
XOos5hem,3fk4g712o0duz4m7qhicsa7sfszsso,3tayzsbplpl3hp33n488qcqgmdms2x,XOos5hem,2020-0188,2021-10-31,20:05:45,02:38:42,NA,incomplete,false,true,NA,NA,4,8,NA,blue,m_l_103.jpg,NA,NA,NA,NA,NA,unpleasant,pleasant,NA,NA,NA,NA,NA,right,1106.39999961853,true,NA,NA,NA,NA,NA,NA,NA,NA
XOos5hem,3fk4g712o0duz4m7qhicsa7sfszsso,3tayzsbplpl3hp33n488qcqgmdms2x,XOos5hem,2020-0188,2021-10-31,20:05:45,02:38:42,NA,incomplete,false,true,NA,NA,4,9,NA,blue,m_s_077.jpg,NA,NA,NA,NA,NA,pleasant,unpleasant,NA,NA,NA,NA,NA,left,1433.39999961853,true,NA,NA,NA,NA,NA,NA,NA,NA
XOos5hem,3fk4g712o0duz4m7qhicsa7sfszsso,3tayzsbplpl3hp33n488qcqgmdms2x,XOos5hem,2020-0188,2021-10-31,20:05:45,02:38:42,NA,incomplete,false,true,NA,NA,4,10,NA,blue,n_l_098.jpg,NA,NA,NA,NA,NA,pleasant,unpleasant,NA,NA,NA,NA,NA,left,1032.5,true,NA,NA,NA,NA,NA,NA,NA,NA
XOos5hem,3fk4g712o0duz4m7qhicsa7sfszsso,3tayzsbplpl3hp33n488qcqgmdms2x,XOos5hem,2020-0188,2021-10-31,20:05:45,02:38:42,NA,incomplete,false,true,NA,NA,4,11,NA,blue,m_s_039.jpg,NA,NA,NA,NA,NA,pleasant,unpleasant,NA,NA,NA,NA,NA,left,1102.19999885559,true,NA,NA,NA,NA,NA,NA,NA,NA
XOos5hem,3fk4g712o0duz4m7qhicsa7sfszsso,3tayzsbplpl3hp33n488qcqgmdms2x,XOos5hem,2020-0188,2021-10-31,20:05:45,02:38:42,NA,incomplete,false,true,NA,NA,4,12,NA,white,m_s_019.jpg,NA,NA,NA,NA,NA,unpleasant,pleasant,NA,NA,NA,NA,NA,right,1192.5,true,NA,NA,NA,NA,NA,NA,NA,NA
XOos5hem,3fk4g712o0duz4m7qhicsa7sfszsso,3tayzsbplpl3hp33n488qcqgmdms2x,XOos5hem,2020-0188,2021-10-31,20:05:45,02:38:42,NA,incomplete,false,true,NA,NA,4,13,NA,white,n_l_094.jpg,NA,NA,NA,NA,NA,pleasant,unpleasant,NA,NA,NA,NA,NA,left,1221.29999923706,true,NA,NA,NA,NA,NA,NA,NA,NA
XOos5hem,3fk4g712o0duz4m7qhicsa7sfszsso,3tayzsbplpl3hp33n488qcqgmdms2x,XOos5hem,2020-0188,2021-10-31,20:05:45,02:38:42,NA,incomplete,false,true,NA,NA,4,14,NA,white,n_s_087.jpg,NA,NA,NA,NA,NA,unpleasant,pleasant,NA,NA,NA,NA,NA,right,1063.10000038147,true,NA,NA,NA,NA,NA,NA,NA,NA
XOos5hem,3fk4g712o0duz4m7qhicsa7sfszsso,3tayzsbplpl3hp33n488qcqgmdms2x,XOos5hem,2020-0188,2021-10-31,20:05:45,02:38:42,NA,incomplete,false,true,NA,NA,4,15,NA,white,m_s_022.jpg,NA,NA,NA,NA,NA,unpleasant,pleasant,NA,NA,NA,NA,NA,right,1052.20000076294,true,NA,NA,NA,NA,NA,NA,NA,NA
XOos5hem,3fk4g712o0duz4m7qhicsa7sfszsso,3tayzsbplpl3hp33n488qcqgmdms2x,XOos5hem,2020-0188,2021-10-31,20:05:45,02:38:42,NA,incomplete,false,true,NA,NA,4,16,NA,white,n_s_007.jpg,NA,NA,NA,NA,NA,pleasant,unpleasant,NA,NA,NA,NA,NA,right,1633.89999961853,true,NA,NA,NA,NA,NA,NA,NA,NA
XOos5hem,3fk4g712o0duz4m7qhicsa7sfszsso,3tayzsbplpl3hp33n488qcqgmdms2x,XOos5hem,2020-0188,2021-10-31,20:05:45,02:38:42,NA,incomplete,false,true,NA,NA,4,17,NA,white,m_s_007.jpg,NA,NA,NA,NA,NA,pleasant,unpleasant,NA,NA,NA,NA,NA,left,1714.89999961853,true,NA,NA,NA,NA,NA,NA,NA,NA
XOos5hem,3fk4g712o0duz4m7qhicsa7sfszsso,3tayzsbplpl3hp33n488qcqgmdms2x,XOos5hem,2020-0188,2021-10-31,20:05:45,02:38:42,NA,incomplete,false,true,NA,NA,4,18,NA,green,m_l_011.jpg,NA,NA,NA,NA,NA,unpleasant,pleasant,NA,NA,NA,NA,NA,right,1138.10000038147,true,NA,NA,NA,NA,NA,NA,NA,NA
XOos5hem,3fk4g712o0duz4m7qhicsa7sfszsso,3tayzsbplpl3hp33n488qcqgmdms2x,XOos5hem,2020-0188,2021-10-31,20:05:45,02:38:42,NA,incomplete,false,true,NA,NA,4,19,NA,green,n_s_117.jpg,NA,NA,NA,NA,NA,unpleasant,pleasant,NA,NA,NA,NA,NA,left,1384.89999961853,true,NA,NA,NA,NA,NA,NA,NA,NA
XOos5hem,3fk4g712o0duz4m7qhicsa7sfszsso,3tayzsbplpl3hp33n488qcqgmdms2x,XOos5hem,2020-0188,2021-10-31,20:05:45,02:38:42,NA,incomplete,false,true,NA,NA,4,20,NA,green,m_s_016.jpg,NA,NA,NA,NA,NA,pleasant,unpleasant,NA,NA,NA,NA,NA,left,1318.30000114441,true,NA,NA,NA,NA,NA,NA,NA,NA
XOos5hem,3fk4g712o0duz4m7qhicsa7sfszsso,3tayzsbplpl3hp33n488qcqgmdms2x,XOos5hem,2020-0188,2021-10-31,20:05:45,02:38:42,NA,incomplete,false,true,NA,NA,4,21,NA,green,n_l_058.jpg,NA,NA,NA,NA,NA,unpleasant,pleasant,NA,NA,NA,NA,NA,right,1309,true,NA,NA,NA,NA,NA,NA,NA,NA
XOos5hem,3fk4g712o0duz4m7qhicsa7sfszsso,3tayzsbplpl3hp33n488qcqgmdms2x,XOos5hem,2020-0188,2021-10-31,20:05:45,02:38:42,NA,incomplete,false,true,NA,NA,4,22,NA,green,n_s_080.jpg,NA,NA,NA,NA,NA,pleasant,unpleasant,NA,NA,NA,NA,NA,left,1352.20000076294,true,NA,NA,NA,NA,NA,NA,NA,NA
XOos5hem,3fk4g712o0duz4m7qhicsa7sfszsso,3tayzsbplpl3hp33n488qcqgmdms2x,XOos5hem,2020-0188,2021-10-31,20:05:45,02:38:42,NA,incomplete,false,true,NA,NA,4,23,NA,green,m_l_063.jpg,NA,NA,NA,NA,NA,unpleasant,pleasant,NA,NA,NA,NA,NA,right,1128.79999923706,true,NA,NA,NA,NA,NA,NA,NA,NA
XOos5hem,3fk4g712o0duz4m7qhicsa7sfszsso,3tayzsbplpl3hp33n488qcqgmdms2x,XOos5hem,2020-0188,2021-10-31,20:05:45,02:38:42,NA,incomplete,false,true,NA,NA,4,24,NA,brown,n_s_052.jpg,NA,NA,NA,NA,NA,unpleasant,pleasant,NA,NA,NA,NA,NA,right,1316.79999923706,true,NA,NA,NA,NA,NA,NA,NA,NA
XOos5hem,3fk4g712o0duz4m7qhicsa7sfszsso,3tayzsbplpl3hp33n488qcqgmdms2x,XOos5hem,2020-0188,2021-10-31,20:05:45,02:38:42,NA,incomplete,false,true,NA,NA,4,25,NA,brown,n_l_059.jpg,NA,NA,NA,NA,NA,unpleasant,pleasant,NA,NA,NA,NA,NA,right,868.699998855591,true,NA,NA,NA,NA,NA,NA,NA,NA
XOos5hem,3fk4g712o0duz4m7qhicsa7sfszsso,3tayzsbplpl3hp33n488qcqgmdms2x,XOos5hem,2020-0188,2021-10-31,20:05:45,02:38:42,NA,incomplete,false,true,NA,NA,4,26,NA,brown,m_l_109.jpg,NA,NA,NA,NA,NA,unpleasant,pleasant,NA,NA,NA,NA,NA,right,961.199998855591,true,NA,NA,NA,NA,NA,NA,NA,NA
XOos5hem,3fk4g712o0duz4m7qhicsa7sfszsso,3tayzsbplpl3hp33n488qcqgmdms2x,XOos5hem,2020-0188,2021-10-31,20:05:45,02:38:42,NA,incomplete,false,true,NA,NA,4,27,NA,brown,m_l_108.jpg,NA,NA,NA,NA,NA,unpleasant,pleasant,NA,NA,NA,NA,NA,right,937.89999961853,true,NA,NA,NA,NA,NA,NA,NA,NA
XOos5hem,3fk4g712o0duz4m7qhicsa7sfszsso,3tayzsbplpl3hp33n488qcqgmdms2x,XOos5hem,2020-0188,2021-10-31,20:05:45,02:38:42,NA,incomplete,false,true,NA,NA,4,28,NA,brown,m_s_051.jpg,NA,NA,NA,NA,NA,unpleasant,pleasant,NA,NA,NA,NA,NA,right,1013,true,NA,NA,NA,NA,NA,NA,NA,NA
XOos5hem,3fk4g712o0duz4m7qhicsa7sfszsso,3tayzsbplpl3hp33n488qcqgmdms2x,XOos5hem,2020-0188,2021-10-31,20:05:45,02:38:42,NA,incomplete,false,true,NA,NA,4,29,NA,brown,n_s_085.jpg,NA,NA,NA,NA,NA,unpleasant,pleasant,NA,NA,NA,NA,NA,right,1033.20000076294,true,NA,NA,NA,NA,NA,NA,NA,NA
XOos5hem,3fk4g712o0duz4m7qhicsa7sfszsso,3tayzsbplpl3hp33n488qcqgmdms2x,XOos5hem,2020-0188,2021-10-31,20:05:45,02:38:42,NA,incomplete,false,true,NA,NA,4,30,NA,orange,n_l_062.jpg,NA,NA,NA,NA,NA,pleasant,unpleasant,NA,NA,NA,NA,NA,left,1204.79999923706,true,NA,NA,NA,NA,NA,NA,NA,NA
XOos5hem,3fk4g712o0duz4m7qhicsa7sfszsso,3tayzsbplpl3hp33n488qcqgmdms2x,XOos5hem,2020-0188,2021-10-31,20:05:45,02:38:42,NA,incomplete,false,true,NA,NA,4,31,NA,orange,n_l_071.jpg,NA,NA,NA,NA,NA,unpleasant,pleasant,NA,NA,NA,NA,NA,right,1134.39999961853,true,NA,NA,NA,NA,NA,NA,NA,NA
XOos5hem,3fk4g712o0duz4m7qhicsa7sfszsso,3tayzsbplpl3hp33n488qcqgmdms2x,XOos5hem,2020-0188,2021-10-31,20:05:45,02:38:42,NA,incomplete,false,true,NA,NA,4,32,NA,orange,n_l_112.jpg,NA,NA,NA,NA,NA,unpleasant,pleasant,NA,NA,NA,NA,NA,right,946,true,NA,NA,NA,NA,NA,NA,NA,NA
XOos5hem,3fk4g712o0duz4m7qhicsa7sfszsso,3tayzsbplpl3hp33n488qcqgmdms2x,XOos5hem,2020-0188,2021-10-31,20:05:45,02:38:42,NA,incomplete,false,true,NA,NA,4,33,NA,orange,n_l_039.jpg,NA,NA,NA,NA,NA,unpleasant,pleasant,NA,NA,NA,NA,NA,right,823.799999237061,true,NA,NA,NA,NA,NA,NA,NA,NA
XOos5hem,3fk4g712o0duz4m7qhicsa7sfszsso,3tayzsbplpl3hp33n488qcqgmdms2x,XOos5hem,2020-0188,2021-10-31,20:05:45,02:38:42,NA,incomplete,false,true,NA,NA,4,34,NA,orange,n_l_011.jpg,NA,NA,NA,NA,NA,pleasant,unpleasant,NA,NA,NA,NA,NA,left,1115.60000038147,true,NA,NA,NA,NA,NA,NA,NA,NA
XOos5hem,3fk4g712o0duz4m7qhicsa7sfszsso,3tayzsbplpl3hp33n488qcqgmdms2x,XOos5hem,2020-0188,2021-10-31,20:05:45,02:38:42,NA,incomplete,false,true,NA,NA,4,35,NA,orange,n_l_113.jpg,NA,NA,NA,NA,NA,pleasant,unpleasant,NA,NA,NA,NA,NA,left,836.300001144409,true,NA,NA,NA,NA,NA,NA,NA,NA
XOos5hem,3fk4g712o0duz4m7qhicsa7sfszsso,3tayzsbplpl3hp33n488qcqgmdms2x,XOos5hem,2020-0188,2021-10-31,20:05:45,02:38:42,NA,incomplete,false,NA,NA,true,4,0,NA,NA,NA,right,m_s_039.jpg,red,blue,NA,NA,NA,NA,NA,NA,NA,NA,NA,NaN,NA,5964.700000762939,left,0,NA,NA,NA,NA,NA
XOos5hem,3fk4g712o0duz4m7qhicsa7sfszsso,3tayzsbplpl3hp33n488qcqgmdms2x,XOos5hem,2020-0188,2021-10-31,20:05:45,02:38:42,NA,incomplete,false,NA,NA,true,4,1,NA,NA,NA,right,n_l_094.jpg,green,white,NA,NA,NA,NA,NA,NA,NA,NA,NA,NaN,NA,5049.199998855591,left,0,NA,NA,NA,NA,NA
XOos5hem,3fk4g712o0duz4m7qhicsa7sfszsso,3tayzsbplpl3hp33n488qcqgmdms2x,XOos5hem,2020-0188,2021-10-31,20:05:45,02:38:42,NA,incomplete,false,NA,NA,true,4,2,NA,NA,NA,right,n_l_113.jpg,brown,orange,NA,NA,NA,NA,NA,NA,NA,NA,NA,NaN,NA,1477.3999996185303,right,1,NA,NA,NA,NA,NA
XOos5hem,3fk4g712o0duz4m7qhicsa7sfszsso,3tayzsbplpl3hp33n488qcqgmdms2x,XOos5hem,2020-0188,2021-10-31,20:05:45,02:38:42,NA,incomplete,false,NA,NA,true,4,3,NA,NA,NA,left,m_s_014.jpg,red,blue,NA,NA,NA,NA,NA,NA,NA,NA,NA,NaN,NA,1899,left,1,NA,NA,NA,NA,NA
XOos5hem,3fk4g712o0duz4m7qhicsa7sfszsso,3tayzsbplpl3hp33n488qcqgmdms2x,XOos5hem,2020-0188,2021-10-31,20:05:45,02:38:42,NA,incomplete,false,NA,NA,true,4,4,NA,NA,NA,right,n_l_098.jpg,white,blue,NA,NA,NA,NA,NA,NA,NA,NA,NA,NaN,NA,1852.6000003814697,left,0,NA,NA,NA,NA,NA
XOos5hem,3fk4g712o0duz4m7qhicsa7sfszsso,3tayzsbplpl3hp33n488qcqgmdms2x,XOos5hem,2020-0188,2021-10-31,20:05:45,02:38:42,NA,incomplete,false,NA,NA,true,4,5,NA,NA,NA,left,n_s_080.jpg,green,white,NA,NA,NA,NA,NA,NA,NA,NA,NA,NaN,NA,2009.099998474121,left,1,NA,NA,NA,NA,NA
XOos5hem,3fk4g712o0duz4m7qhicsa7sfszsso,3tayzsbplpl3hp33n488qcqgmdms2x,XOos5hem,2020-0188,2021-10-31,20:05:45,02:38:42,NA,incomplete,false,NA,NA,true,4,6,NA,NA,NA,left,m_l_032.jpg,blue,red,NA,NA,NA,NA,NA,NA,NA,NA,NA,NaN,NA,2923.1000003814697,left,1,NA,NA,NA,NA,NA
XOos5hem,3fk4g712o0duz4m7qhicsa7sfszsso,3tayzsbplpl3hp33n488qcqgmdms2x,XOos5hem,2020-0188,2021-10-31,20:05:45,02:38:42,NA,incomplete,false,NA,NA,true,4,7,NA,NA,NA,right,n_s_085.jpg,orange,brown,NA,NA,NA,NA,NA,NA,NA,NA,NA,NaN,NA,1984.5,right,1,NA,NA,NA,NA,NA
XOos5hem,3fk4g712o0duz4m7qhicsa7sfszsso,3tayzsbplpl3hp33n488qcqgmdms2x,XOos5hem,2020-0188,2021-10-31,20:05:45,02:38:42,NA,incomplete,false,NA,NA,true,4,8,NA,NA,NA,right,m_l_052.jpg,blue,red,NA,NA,NA,NA,NA,NA,NA,NA,NA,NaN,NA,2086.6000003814697,right,1,NA,NA,NA,NA,NA
XOos5hem,3fk4g712o0duz4m7qhicsa7sfszsso,3tayzsbplpl3hp33n488qcqgmdms2x,XOos5hem,2020-0188,2021-10-31,20:05:45,02:38:42,NA,incomplete,false,NA,NA,true,4,9,NA,NA,NA,left,m_l_109.jpg,brown,green,NA,NA,NA,NA,NA,NA,NA,NA,NA,NaN,NA,5301.199998855591,right,0,NA,NA,NA,NA,NA
XOos5hem,3fk4g712o0duz4m7qhicsa7sfszsso,3tayzsbplpl3hp33n488qcqgmdms2x,XOos5hem,2020-0188,2021-10-31,20:05:45,02:38:42,NA,incomplete,false,NA,NA,true,4,10,NA,NA,NA,right,m_l_063.jpg,white,green,NA,NA,NA,NA,NA,NA,NA,NA,NA,NaN,NA,2947.300001144409,left,0,NA,NA,NA,NA,NA
XOos5hem,3fk4g712o0duz4m7qhicsa7sfszsso,3tayzsbplpl3hp33n488qcqgmdms2x,XOos5hem,2020-0188,2021-10-31,20:05:45,02:38:42,NA,incomplete,false,NA,NA,true,4,11,NA,NA,NA,left,n_l_071.jpg,orange,brown,NA,NA,NA,NA,NA,NA,NA,NA,NA,NaN,NA,2439.099998474121,right,0,NA,NA,NA,NA,NA
XOos5hem,3fk4g712o0duz4m7qhicsa7sfszsso,3tayzsbplpl3hp33n488qcqgmdms2x,XOos5hem,2020-0188,2021-10-31,20:05:45,02:38:42,NA,incomplete,false,NA,NA,true,4,12,NA,NA,NA,right,n_s_007.jpg,blue,white,NA,NA,NA,NA,NA,NA,NA,NA,NA,NaN,NA,4674.799999237061,right,1,NA,NA,NA,NA,NA
XOos5hem,3fk4g712o0duz4m7qhicsa7sfszsso,3tayzsbplpl3hp33n488qcqgmdms2x,XOos5hem,2020-0188,2021-10-31,20:05:45,02:38:42,NA,incomplete,false,NA,NA,true,4,13,NA,NA,NA,left,m_l_103.jpg,blue,white,NA,NA,NA,NA,NA,NA,NA,NA,NA,NaN,NA,2579.3999996185303,left,1,NA,NA,NA,NA,NA
XOos5hem,3fk4g712o0duz4m7qhicsa7sfszsso,3tayzsbplpl3hp33n488qcqgmdms2x,XOos5hem,2020-0188,2021-10-31,20:05:45,02:38:42,NA,incomplete,false,NA,NA,true,4,14,NA,NA,NA,right,n_l_096.jpg,blue,red,NA,NA,NA,NA,NA,NA,NA,NA,NA,NaN,NA,3995,right,1,NA,NA,NA,NA,NA
XOos5hem,3fk4g712o0duz4m7qhicsa7sfszsso,3tayzsbplpl3hp33n488qcqgmdms2x,XOos5hem,2020-0188,2021-10-31,20:05:45,02:38:42,NA,incomplete,false,NA,NA,true,4,15,NA,NA,NA,right,n_l_112.jpg,brown,orange,NA,NA,NA,NA,NA,NA,NA,NA,NA,NaN,NA,1603.1999988555908,right,1,NA,NA,NA,NA,NA
XOos5hem,3fk4g712o0duz4m7qhicsa7sfszsso,3tayzsbplpl3hp33n488qcqgmdms2x,XOos5hem,2020-0188,2021-10-31,20:05:45,02:38:42,NA,incomplete,false,NA,NA,true,4,16,NA,NA,NA,left,m_s_051.jpg,brown,green,NA,NA,NA,NA,NA,NA,NA,NA,NA,NaN,NA,2149.1000003814697,right,0,NA,NA,NA,NA,NA
XOos5hem,3fk4g712o0duz4m7qhicsa7sfszsso,3tayzsbplpl3hp33n488qcqgmdms2x,XOos5hem,2020-0188,2021-10-31,20:05:45,02:38:42,NA,incomplete,false,NA,NA,true,4,17,NA,NA,NA,right,n_s_087.jpg,green,white,NA,NA,NA,NA,NA,NA,NA,NA,NA,NaN,NA,1719,right,1,NA,NA,NA,NA,NA
XOos5hem,3fk4g712o0duz4m7qhicsa7sfszsso,3tayzsbplpl3hp33n488qcqgmdms2x,XOos5hem,2020-0188,2021-10-31,20:05:45,02:38:42,NA,incomplete,false,NA,NA,true,4,18,NA,NA,NA,left,n_s_117.jpg,green,white,NA,NA,NA,NA,NA,NA,NA,NA,NA,NaN,NA,2259.6000003814697,right,0,NA,NA,NA,NA,NA
XOos5hem,3fk4g712o0duz4m7qhicsa7sfszsso,3tayzsbplpl3hp33n488qcqgmdms2x,XOos5hem,2020-0188,2021-10-31,20:05:45,02:38:42,NA,incomplete,false,NA,NA,true,4,19,NA,NA,NA,right,n_l_059.jpg,green,brown,NA,NA,NA,NA,NA,NA,NA,NA,NA,NaN,NA,1922.6999988555908,right,1,NA,NA,NA,NA,NA
XOos5hem,3fk4g712o0duz4m7qhicsa7sfszsso,3tayzsbplpl3hp33n488qcqgmdms2x,XOos5hem,2020-0188,2021-10-31,20:05:45,02:38:42,NA,incomplete,false,NA,NA,true,4,20,NA,NA,NA,left,m_s_007.jpg,white,blue,NA,NA,NA,NA,NA,NA,NA,NA,NA,NaN,NA,4159.89999961853,right,0,NA,NA,NA,NA,NA
XOos5hem,3fk4g712o0duz4m7qhicsa7sfszsso,3tayzsbplpl3hp33n488qcqgmdms2x,XOos5hem,2020-0188,2021-10-31,20:05:45,02:38:42,NA,incomplete,false,NA,NA,true,4,21,NA,NA,NA,left,m_s_016.jpg,green,brown,NA,NA,NA,NA,NA,NA,NA,NA,NA,NaN,NA,2554.900001525879,left,1,NA,NA,NA,NA,NA
XOos5hem,3fk4g712o0duz4m7qhicsa7sfszsso,3tayzsbplpl3hp33n488qcqgmdms2x,XOos5hem,2020-0188,2021-10-31,20:05:45,02:38:42,NA,incomplete,false,NA,true,NA,4,0,NA,NA,NA,left,NA,NA,NA,absent,NA,NA,n_s_117.jpg,green,m_l_063.jpg,green,within,NA,NaN,NA,NA,NA,NA,left,4308.299999237061,1,1,1806.1999988555908
XOos5hem,3fk4g712o0duz4m7qhicsa7sfszsso,3tayzsbplpl3hp33n488qcqgmdms2x,XOos5hem,2020-0188,2021-10-31,20:05:45,02:38:42,NA,incomplete,false,NA,true,NA,4,1,NA,NA,NA,left,NA,NA,NA,absent,NA,NA,m_s_051.jpg,brown,n_l_112.jpg,orange,between,NA,NaN,NA,NA,NA,NA,right,5636.700000762939,0,2,1389.7000007629395
XOos5hem,3fk4g712o0duz4m7qhicsa7sfszsso,3tayzsbplpl3hp33n488qcqgmdms2x,XOos5hem,2020-0188,2021-10-31,20:05:45,02:38:42,NA,incomplete,false,NA,true,NA,4,2,NA,NA,NA,right,NA,NA,NA,absent,NA,NA,m_s_016.jpg,green,n_s_007.jpg,white,between,NA,NaN,NA,NA,NA,NA,right,3095.6000003814697,1,1,2706
XOos5hem,3fk4g712o0duz4m7qhicsa7sfszsso,3tayzsbplpl3hp33n488qcqgmdms2x,XOos5hem,2020-0188,2021-10-31,20:05:45,02:38:42,NA,incomplete,false,NA,true,NA,4,3,NA,NA,NA,left,NA,NA,NA,absent,NA,NA,n_l_059.jpg,brown,n_s_085.jpg,brown,within,NA,NaN,NA,NA,NA,NA,left,2032,1,1,1783.7999992370605
XOos5hem,3fk4g712o0duz4m7qhicsa7sfszsso,3tayzsbplpl3hp33n488qcqgmdms2x,XOos5hem,2020-0188,2021-10-31,20:05:45,02:38:42,NA,incomplete,false,NA,true,NA,4,4,NA,NA,NA,left,NA,NA,NA,absent,NA,NA,n_l_094.jpg,white,m_s_007.jpg,white,within,NA,NaN,NA,NA,NA,NA,right,3423.3999996185303,0,2,2073.2999992370605
XOos5hem,3fk4g712o0duz4m7qhicsa7sfszsso,3tayzsbplpl3hp33n488qcqgmdms2x,XOos5hem,2020-0188,2021-10-31,20:05:45,02:38:42,NA,incomplete,false,NA,true,NA,4,5,NA,NA,NA,right,NA,NA,NA,absent,NA,NA,m_s_039.jpg,blue,m_l_032.jpg,blue,within,NA,NaN,NA,NA,NA,NA,right,6021.599998474121,1,2,1781.2000007629395
XOos5hem,3fk4g712o0duz4m7qhicsa7sfszsso,3tayzsbplpl3hp33n488qcqgmdms2x,XOos5hem,2020-0188,2021-10-31,20:05:45,02:38:42,NA,incomplete,false,NA,true,NA,4,6,NA,NA,NA,right,NA,NA,NA,absent,NA,NA,m_l_109.jpg,brown,n_s_080.jpg,green,between,NA,NaN,NA,NA,NA,NA,left,4364.10000038147,0,2,1421.3000011444092
XOos5hem,3fk4g712o0duz4m7qhicsa7sfszsso,3tayzsbplpl3hp33n488qcqgmdms2x,XOos5hem,2020-0188,2021-10-31,20:05:45,02:38:42,NA,incomplete,false,NA,true,NA,4,7,NA,NA,NA,right,NA,NA,NA,absent,NA,NA,m_s_014.jpg,red,m_l_052.jpg,red,within,NA,NaN,NA,NA,NA,NA,left,4089,0,0,3353.699998855591
XOos5hem,3fk4g712o0duz4m7qhicsa7sfszsso,3tayzsbplpl3hp33n488qcqgmdms2x,XOos5hem,2020-0188,2021-10-31,20:05:45,02:38:42,NA,incomplete,false,NA,true,NA,4,8,NA,NA,NA,right,NA,NA,NA,absent,NA,NA,n_l_113.jpg,orange,n_l_071.jpg,orange,within,NA,NaN,NA,NA,NA,NA,right,2667.099998474121,1,2,1984.8999996185303
XOos5hem,3fk4g712o0duz4m7qhicsa7sfszsso,3tayzsbplpl3hp33n488qcqgmdms2x,XOos5hem,2020-0188,2021-10-31,20:05:45,02:38:42,NA,incomplete,false,NA,true,NA,4,9,NA,NA,NA,right,NA,NA,NA,absent,NA,NA,m_l_103.jpg,blue,n_l_096.jpg,red,between,NA,NaN,NA,NA,NA,NA,right,7437.199998855591,1,2,1644
XOos5hem,3fk4g712o0duz4m7qhicsa7sfszsso,3tayzsbplpl3hp33n488qcqgmdms2x,XOos5hem,2020-0188,2021-10-31,20:05:45,02:38:42,NA,incomplete,false,NA,true,NA,4,10,NA,NA,NA,left,NA,NA,NA,absent,NA,NA,n_l_098.jpg,blue,n_s_087.jpg,white,between,NA,NaN,NA,NA,NA,NA,left,2338.8999996185303,1,3,1445.2999992370605
XOos5hem,3fk4g712o0duz4m7qhicsa7sfszsso,3tayzsbplpl3hp33n488qcqgmdms2x,XOos5hem,2020-0188,2021-10-31,20:05:45,02:38:42,NA,incomplete,false,true,NA,NA,5,0,NA,purple,n_l_088.jpg,NA,NA,NA,NA,NA,pleasant,unpleasant,NA,NA,NA,NA,NA,none,0,false,NA,NA,NA,NA,NA,NA,NA,NA
XOos5hem,3fk4g712o0duz4m7qhicsa7sfszsso,3tayzsbplpl3hp33n488qcqgmdms2x,XOos5hem,2020-0188,2021-10-31,20:05:45,02:38:42,NA,incomplete,false,true,NA,NA,5,1,NA,purple,n_s_054.jpg,NA,NA,NA,NA,NA,unpleasant,pleasant,NA,NA,NA,NA,NA,right,2062,true,NA,NA,NA,NA,NA,NA,NA,NA
XOos5hem,3fk4g712o0duz4m7qhicsa7sfszsso,3tayzsbplpl3hp33n488qcqgmdms2x,XOos5hem,2020-0188,2021-10-31,20:05:45,02:38:42,NA,incomplete,false,true,NA,NA,5,2,NA,purple,m_s_053.jpg,NA,NA,NA,NA,NA,unpleasant,pleasant,NA,NA,NA,NA,NA,right,1161.10000038147,true,NA,NA,NA,NA,NA,NA,NA,NA
XOos5hem,3fk4g712o0duz4m7qhicsa7sfszsso,3tayzsbplpl3hp33n488qcqgmdms2x,XOos5hem,2020-0188,2021-10-31,20:05:45,02:38:42,NA,incomplete,false,true,NA,NA,5,3,NA,purple,m_s_012.jpg,NA,NA,NA,NA,NA,pleasant,unpleasant,NA,NA,NA,NA,NA,right,1962.29999923706,true,NA,NA,NA,NA,NA,NA,NA,NA
XOos5hem,3fk4g712o0duz4m7qhicsa7sfszsso,3tayzsbplpl3hp33n488qcqgmdms2x,XOos5hem,2020-0188,2021-10-31,20:05:45,02:38:42,NA,incomplete,false,true,NA,NA,5,4,NA,purple,n_s_055.jpg,NA,NA,NA,NA,NA,pleasant,unpleasant,NA,NA,NA,NA,NA,right,1560.60000038147,true,NA,NA,NA,NA,NA,NA,NA,NA
XOos5hem,3fk4g712o0duz4m7qhicsa7sfszsso,3tayzsbplpl3hp33n488qcqgmdms2x,XOos5hem,2020-0188,2021-10-31,20:05:45,02:38:42,NA,incomplete,false,true,NA,NA,5,5,NA,purple,m_l_035.jpg,NA,NA,NA,NA,NA,unpleasant,pleasant,NA,NA,NA,NA,NA,right,1467.80000114441,true,NA,NA,NA,NA,NA,NA,NA,NA
XOos5hem,3fk4g712o0duz4m7qhicsa7sfszsso,3tayzsbplpl3hp33n488qcqgmdms2x,XOos5hem,2020-0188,2021-10-31,20:05:45,02:38:42,NA,incomplete,false,true,NA,NA,5,6,NA,red,m_s_008.jpg,NA,NA,NA,NA,NA,pleasant,unpleasant,NA,NA,NA,NA,NA,left,1358.5,true,NA,NA,NA,NA,NA,NA,NA,NA
XOos5hem,3fk4g712o0duz4m7qhicsa7sfszsso,3tayzsbplpl3hp33n488qcqgmdms2x,XOos5hem,2020-0188,2021-10-31,20:05:45,02:38:42,NA,incomplete,false,true,NA,NA,5,7,NA,red,n_l_053.jpg,NA,NA,NA,NA,NA,unpleasant,pleasant,NA,NA,NA,NA,NA,right,1602.10000038147,true,NA,NA,NA,NA,NA,NA,NA,NA
XOos5hem,3fk4g712o0duz4m7qhicsa7sfszsso,3tayzsbplpl3hp33n488qcqgmdms2x,XOos5hem,2020-0188,2021-10-31,20:05:45,02:38:42,NA,incomplete,false,true,NA,NA,5,8,NA,red,m_s_082.jpg,NA,NA,NA,NA,NA,unpleasant,pleasant,NA,NA,NA,NA,NA,left,1298.5,true,NA,NA,NA,NA,NA,NA,NA,NA
XOos5hem,3fk4g712o0duz4m7qhicsa7sfszsso,3tayzsbplpl3hp33n488qcqgmdms2x,XOos5hem,2020-0188,2021-10-31,20:05:45,02:38:42,NA,incomplete,false,true,NA,NA,5,9,NA,red,m_s_092.jpg,NA,NA,NA,NA,NA,unpleasant,pleasant,NA,NA,NA,NA,NA,left,1687.79999923706,true,NA,NA,NA,NA,NA,NA,NA,NA
XOos5hem,3fk4g712o0duz4m7qhicsa7sfszsso,3tayzsbplpl3hp33n488qcqgmdms2x,XOos5hem,2020-0188,2021-10-31,20:05:45,02:38:42,NA,incomplete,false,true,NA,NA,5,10,NA,red,n_s_069.jpg,NA,NA,NA,NA,NA,pleasant,unpleasant,NA,NA,NA,NA,NA,left,1385.60000038147,true,NA,NA,NA,NA,NA,NA,NA,NA
XOos5hem,3fk4g712o0duz4m7qhicsa7sfszsso,3tayzsbplpl3hp33n488qcqgmdms2x,XOos5hem,2020-0188,2021-10-31,20:05:45,02:38:42,NA,incomplete,false,true,NA,NA,5,11,NA,red,n_s_081.jpg,NA,NA,NA,NA,NA,pleasant,unpleasant,NA,NA,NA,NA,NA,left,1115,true,NA,NA,NA,NA,NA,NA,NA,NA
XOos5hem,3fk4g712o0duz4m7qhicsa7sfszsso,3tayzsbplpl3hp33n488qcqgmdms2x,XOos5hem,2020-0188,2021-10-31,20:05:45,02:38:42,NA,incomplete,false,true,NA,NA,5,12,NA,brown,m_s_032.jpg,NA,NA,NA,NA,NA,unpleasant,pleasant,NA,NA,NA,NA,NA,right,1775.80000114441,true,NA,NA,NA,NA,NA,NA,NA,NA
XOos5hem,3fk4g712o0duz4m7qhicsa7sfszsso,3tayzsbplpl3hp33n488qcqgmdms2x,XOos5hem,2020-0188,2021-10-31,20:05:45,02:38:42,NA,incomplete,false,true,NA,NA,5,13,NA,brown,m_s_041.jpg,NA,NA,NA,NA,NA,pleasant,unpleasant,NA,NA,NA,NA,NA,left,1187.39999961853,true,NA,NA,NA,NA,NA,NA,NA,NA
XOos5hem,3fk4g712o0duz4m7qhicsa7sfszsso,3tayzsbplpl3hp33n488qcqgmdms2x,XOos5hem,2020-0188,2021-10-31,20:05:45,02:38:42,NA,incomplete,false,true,NA,NA,5,14,NA,brown,m_l_003.jpg,NA,NA,NA,NA,NA,unpleasant,pleasant,NA,NA,NA,NA,NA,right,1252.69999885559,true,NA,NA,NA,NA,NA,NA,NA,NA
XOos5hem,3fk4g712o0duz4m7qhicsa7sfszsso,3tayzsbplpl3hp33n488qcqgmdms2x,XOos5hem,2020-0188,2021-10-31,20:05:45,02:38:42,NA,incomplete,false,true,NA,NA,5,15,NA,brown,n_s_115.jpg,NA,NA,NA,NA,NA,unpleasant,pleasant,NA,NA,NA,NA,NA,right,1095.90000152588,true,NA,NA,NA,NA,NA,NA,NA,NA
XOos5hem,3fk4g712o0duz4m7qhicsa7sfszsso,3tayzsbplpl3hp33n488qcqgmdms2x,XOos5hem,2020-0188,2021-10-31,20:05:45,02:38:42,NA,incomplete,false,true,NA,NA,5,16,NA,brown,m_l_002.jpg,NA,NA,NA,NA,NA,pleasant,unpleasant,NA,NA,NA,NA,NA,left,866.299999237061,true,NA,NA,NA,NA,NA,NA,NA,NA
