workerId,hitId,assignmentId,subject,studyid,exp_date,exp_start,exp_end,time_start,time_end,practice,encoding,memory,association,block,trial,event_order,event,stim,answer,object,left_context,right_context,context_type,label_left,label_right,left_image,left_event,right_image,right_event,condition,response,response_time,response_acc,association_response_time,association_response,association_acc,order_response,order_response_time,order_acc,distance_response,distance_response_time
Npp14aQ5,3icohx7eofotocxdgkfntnxuj980e9,3tayzsbplpl3hp33n488qcqgmc92ss,Npp14aQ5,2020-0188,2021-10-31,11:43:07,13:29:16,NA,incomplete,true,true,NA,NA,0,0,NA,purple,n_l_081.jpg,NA,NA,NA,NA,NA,unpleasant,pleasant,NA,NA,NA,NA,NA,right,2166.59999990463,true,NA,NA,NA,NA,NA,NA,NA,NA
Npp14aQ5,3icohx7eofotocxdgkfntnxuj980e9,3tayzsbplpl3hp33n488qcqgmc92ss,Npp14aQ5,2020-0188,2021-10-31,11:43:07,13:29:16,NA,incomplete,true,true,NA,NA,0,1,NA,purple,m_s_062.jpg,NA,NA,NA,NA,NA,pleasant,unpleasant,NA,NA,NA,NA,NA,left,1009.29999995232,true,NA,NA,NA,NA,NA,NA,NA,NA
Npp14aQ5,3icohx7eofotocxdgkfntnxuj980e9,3tayzsbplpl3hp33n488qcqgmc92ss,Npp14aQ5,2020-0188,2021-10-31,11:43:07,13:29:16,NA,incomplete,true,true,NA,NA,0,2,NA,purple,m_l_043.jpg,NA,NA,NA,NA,NA,pleasant,unpleasant,NA,NA,NA,NA,NA,left,1990.09999990463,true,NA,NA,NA,NA,NA,NA,NA,NA
Npp14aQ5,3icohx7eofotocxdgkfntnxuj980e9,3tayzsbplpl3hp33n488qcqgmc92ss,Npp14aQ5,2020-0188,2021-10-31,11:43:07,13:29:16,NA,incomplete,true,true,NA,NA,0,3,NA,purple,n_l_057.jpg,NA,NA,NA,NA,NA,pleasant,unpleasant,NA,NA,NA,NA,NA,right,1956.60000014305,true,NA,NA,NA,NA,NA,NA,NA,NA
Npp14aQ5,3icohx7eofotocxdgkfntnxuj980e9,3tayzsbplpl3hp33n488qcqgmc92ss,Npp14aQ5,2020-0188,2021-10-31,11:43:07,13:29:16,NA,incomplete,true,true,NA,NA,0,4,NA,purple,m_l_015.jpg,NA,NA,NA,NA,NA,unpleasant,pleasant,NA,NA,NA,NA,NA,right,1752.40000009537,true,NA,NA,NA,NA,NA,NA,NA,NA
Npp14aQ5,3icohx7eofotocxdgkfntnxuj980e9,3tayzsbplpl3hp33n488qcqgmc92ss,Npp14aQ5,2020-0188,2021-10-31,11:43:07,13:29:16,NA,incomplete,true,true,NA,NA,0,5,NA,purple,m_s_016.jpg,NA,NA,NA,NA,NA,pleasant,unpleasant,NA,NA,NA,NA,NA,left,1711.5,true,NA,NA,NA,NA,NA,NA,NA,NA
Npp14aQ5,3icohx7eofotocxdgkfntnxuj980e9,3tayzsbplpl3hp33n488qcqgmc92ss,Npp14aQ5,2020-0188,2021-10-31,11:43:07,13:29:16,NA,incomplete,true,true,NA,NA,0,6,NA,black,n_s_082.jpg,NA,NA,NA,NA,NA,unpleasant,pleasant,NA,NA,NA,NA,NA,left,749.700000047684,true,NA,NA,NA,NA,NA,NA,NA,NA
Npp14aQ5,3icohx7eofotocxdgkfntnxuj980e9,3tayzsbplpl3hp33n488qcqgmc92ss,Npp14aQ5,2020-0188,2021-10-31,11:43:07,13:29:16,NA,incomplete,true,true,NA,NA,0,7,NA,black,n_s_045.jpg,NA,NA,NA,NA,NA,pleasant,unpleasant,NA,NA,NA,NA,NA,left,1883,true,NA,NA,NA,NA,NA,NA,NA,NA
Npp14aQ5,3icohx7eofotocxdgkfntnxuj980e9,3tayzsbplpl3hp33n488qcqgmc92ss,Npp14aQ5,2020-0188,2021-10-31,11:43:07,13:29:16,NA,incomplete,true,true,NA,NA,0,8,NA,black,n_l_080.jpg,NA,NA,NA,NA,NA,unpleasant,pleasant,NA,NA,NA,NA,NA,left,2002.79999995232,true,NA,NA,NA,NA,NA,NA,NA,NA
Npp14aQ5,3icohx7eofotocxdgkfntnxuj980e9,3tayzsbplpl3hp33n488qcqgmc92ss,Npp14aQ5,2020-0188,2021-10-31,11:43:07,13:29:16,NA,incomplete,true,true,NA,NA,0,9,NA,black,n_s_033.jpg,NA,NA,NA,NA,NA,pleasant,unpleasant,NA,NA,NA,NA,NA,left,1488.20000004768,true,NA,NA,NA,NA,NA,NA,NA,NA
Npp14aQ5,3icohx7eofotocxdgkfntnxuj980e9,3tayzsbplpl3hp33n488qcqgmc92ss,Npp14aQ5,2020-0188,2021-10-31,11:43:07,13:29:16,NA,incomplete,true,true,NA,NA,0,10,NA,black,m_l_104.jpg,NA,NA,NA,NA,NA,pleasant,unpleasant,NA,NA,NA,NA,NA,right,1373.29999995232,true,NA,NA,NA,NA,NA,NA,NA,NA
Npp14aQ5,3icohx7eofotocxdgkfntnxuj980e9,3tayzsbplpl3hp33n488qcqgmc92ss,Npp14aQ5,2020-0188,2021-10-31,11:43:07,13:29:16,NA,incomplete,true,true,NA,NA,0,11,NA,black,m_s_067.jpg,NA,NA,NA,NA,NA,unpleasant,pleasant,NA,NA,NA,NA,NA,left,2133.20000004768,true,NA,NA,NA,NA,NA,NA,NA,NA
Npp14aQ5,3icohx7eofotocxdgkfntnxuj980e9,3tayzsbplpl3hp33n488qcqgmc92ss,Npp14aQ5,2020-0188,2021-10-31,11:43:07,13:29:16,NA,incomplete,true,true,NA,NA,0,12,NA,yellow,m_s_108.jpg,NA,NA,NA,NA,NA,unpleasant,pleasant,NA,NA,NA,NA,NA,left,1650.90000009537,true,NA,NA,NA,NA,NA,NA,NA,NA
Npp14aQ5,3icohx7eofotocxdgkfntnxuj980e9,3tayzsbplpl3hp33n488qcqgmc92ss,Npp14aQ5,2020-0188,2021-10-31,11:43:07,13:29:16,NA,incomplete,true,true,NA,NA,0,13,NA,yellow,m_s_088.jpg,NA,NA,NA,NA,NA,unpleasant,pleasant,NA,NA,NA,NA,NA,right,1535.5,true,NA,NA,NA,NA,NA,NA,NA,NA
Npp14aQ5,3icohx7eofotocxdgkfntnxuj980e9,3tayzsbplpl3hp33n488qcqgmc92ss,Npp14aQ5,2020-0188,2021-10-31,11:43:07,13:29:16,NA,incomplete,true,true,NA,NA,0,14,NA,yellow,m_l_004.jpg,NA,NA,NA,NA,NA,unpleasant,pleasant,NA,NA,NA,NA,NA,left,1672.29999995232,true,NA,NA,NA,NA,NA,NA,NA,NA
Npp14aQ5,3icohx7eofotocxdgkfntnxuj980e9,3tayzsbplpl3hp33n488qcqgmc92ss,Npp14aQ5,2020-0188,2021-10-31,11:43:07,13:29:16,NA,incomplete,true,true,NA,NA,0,15,NA,yellow,m_l_045.jpg,NA,NA,NA,NA,NA,pleasant,unpleasant,NA,NA,NA,NA,NA,left,1436.89999985695,true,NA,NA,NA,NA,NA,NA,NA,NA
Npp14aQ5,3icohx7eofotocxdgkfntnxuj980e9,3tayzsbplpl3hp33n488qcqgmc92ss,Npp14aQ5,2020-0188,2021-10-31,11:43:07,13:29:16,NA,incomplete,true,true,NA,NA,0,16,NA,yellow,n_l_015.jpg,NA,NA,NA,NA,NA,pleasant,unpleasant,NA,NA,NA,NA,NA,right,1415,true,NA,NA,NA,NA,NA,NA,NA,NA
Npp14aQ5,3icohx7eofotocxdgkfntnxuj980e9,3tayzsbplpl3hp33n488qcqgmc92ss,Npp14aQ5,2020-0188,2021-10-31,11:43:07,13:29:16,NA,incomplete,true,true,NA,NA,0,17,NA,yellow,m_l_026.jpg,NA,NA,NA,NA,NA,unpleasant,pleasant,NA,NA,NA,NA,NA,right,1727.5,true,NA,NA,NA,NA,NA,NA,NA,NA
Npp14aQ5,3icohx7eofotocxdgkfntnxuj980e9,3tayzsbplpl3hp33n488qcqgmc92ss,Npp14aQ5,2020-0188,2021-10-31,11:43:07,13:29:16,NA,incomplete,true,true,NA,NA,0,18,NA,blue,m_s_103.jpg,NA,NA,NA,NA,NA,pleasant,unpleasant,NA,NA,NA,NA,NA,right,1867.5,true,NA,NA,NA,NA,NA,NA,NA,NA
Npp14aQ5,3icohx7eofotocxdgkfntnxuj980e9,3tayzsbplpl3hp33n488qcqgmc92ss,Npp14aQ5,2020-0188,2021-10-31,11:43:07,13:29:16,NA,incomplete,true,true,NA,NA,0,19,NA,blue,n_l_023.jpg,NA,NA,NA,NA,NA,unpleasant,pleasant,NA,NA,NA,NA,NA,left,1236.09999990463,true,NA,NA,NA,NA,NA,NA,NA,NA
Npp14aQ5,3icohx7eofotocxdgkfntnxuj980e9,3tayzsbplpl3hp33n488qcqgmc92ss,Npp14aQ5,2020-0188,2021-10-31,11:43:07,13:29:16,NA,incomplete,true,true,NA,NA,0,20,NA,blue,n_l_016.jpg,NA,NA,NA,NA,NA,pleasant,unpleasant,NA,NA,NA,NA,NA,right,1508.79999995232,true,NA,NA,NA,NA,NA,NA,NA,NA
Npp14aQ5,3icohx7eofotocxdgkfntnxuj980e9,3tayzsbplpl3hp33n488qcqgmc92ss,Npp14aQ5,2020-0188,2021-10-31,11:43:07,13:29:16,NA,incomplete,true,true,NA,NA,0,21,NA,blue,n_l_043.jpg,NA,NA,NA,NA,NA,pleasant,unpleasant,NA,NA,NA,NA,NA,right,1388.29999995232,true,NA,NA,NA,NA,NA,NA,NA,NA
Npp14aQ5,3icohx7eofotocxdgkfntnxuj980e9,3tayzsbplpl3hp33n488qcqgmc92ss,Npp14aQ5,2020-0188,2021-10-31,11:43:07,13:29:16,NA,incomplete,true,true,NA,NA,0,22,NA,blue,n_l_001.jpg,NA,NA,NA,NA,NA,unpleasant,pleasant,NA,NA,NA,NA,NA,left,1743.90000009537,true,NA,NA,NA,NA,NA,NA,NA,NA
Npp14aQ5,3icohx7eofotocxdgkfntnxuj980e9,3tayzsbplpl3hp33n488qcqgmc92ss,Npp14aQ5,2020-0188,2021-10-31,11:43:07,13:29:16,NA,incomplete,true,true,NA,NA,0,23,NA,blue,n_l_048.jpg,NA,NA,NA,NA,NA,unpleasant,pleasant,NA,NA,NA,NA,NA,left,2591.90000009537,true,NA,NA,NA,NA,NA,NA,NA,NA
Npp14aQ5,3icohx7eofotocxdgkfntnxuj980e9,3tayzsbplpl3hp33n488qcqgmc92ss,Npp14aQ5,2020-0188,2021-10-31,11:43:07,13:29:16,NA,incomplete,true,true,NA,NA,0,24,NA,white,n_l_028.jpg,NA,NA,NA,NA,NA,unpleasant,pleasant,NA,NA,NA,NA,NA,right,1887.40000009537,true,NA,NA,NA,NA,NA,NA,NA,NA
Npp14aQ5,3icohx7eofotocxdgkfntnxuj980e9,3tayzsbplpl3hp33n488qcqgmc92ss,Npp14aQ5,2020-0188,2021-10-31,11:43:07,13:29:16,NA,incomplete,true,true,NA,NA,0,25,NA,white,m_s_105.jpg,NA,NA,NA,NA,NA,pleasant,unpleasant,NA,NA,NA,NA,NA,left,2478.10000014305,true,NA,NA,NA,NA,NA,NA,NA,NA
Npp14aQ5,3icohx7eofotocxdgkfntnxuj980e9,3tayzsbplpl3hp33n488qcqgmc92ss,Npp14aQ5,2020-0188,2021-10-31,11:43:07,13:29:16,NA,incomplete,true,true,NA,NA,0,26,NA,white,n_s_059.jpg,NA,NA,NA,NA,NA,pleasant,unpleasant,NA,NA,NA,NA,NA,left,1436.5,true,NA,NA,NA,NA,NA,NA,NA,NA
Npp14aQ5,3icohx7eofotocxdgkfntnxuj980e9,3tayzsbplpl3hp33n488qcqgmc92ss,Npp14aQ5,2020-0188,2021-10-31,11:43:07,13:29:16,NA,incomplete,true,true,NA,NA,0,27,NA,white,n_s_020.jpg,NA,NA,NA,NA,NA,unpleasant,pleasant,NA,NA,NA,NA,NA,left,795.199999809265,true,NA,NA,NA,NA,NA,NA,NA,NA
Npp14aQ5,3icohx7eofotocxdgkfntnxuj980e9,3tayzsbplpl3hp33n488qcqgmc92ss,Npp14aQ5,2020-0188,2021-10-31,11:43:07,13:29:16,NA,incomplete,true,true,NA,NA,0,28,NA,white,m_l_012.jpg,NA,NA,NA,NA,NA,unpleasant,pleasant,NA,NA,NA,NA,NA,right,1132.40000009537,true,NA,NA,NA,NA,NA,NA,NA,NA
Npp14aQ5,3icohx7eofotocxdgkfntnxuj980e9,3tayzsbplpl3hp33n488qcqgmc92ss,Npp14aQ5,2020-0188,2021-10-31,11:43:07,13:29:16,NA,incomplete,true,true,NA,NA,0,29,NA,white,m_l_058.jpg,NA,NA,NA,NA,NA,unpleasant,pleasant,NA,NA,NA,NA,NA,right,1175.09999990463,true,NA,NA,NA,NA,NA,NA,NA,NA
Npp14aQ5,3icohx7eofotocxdgkfntnxuj980e9,3tayzsbplpl3hp33n488qcqgmc92ss,Npp14aQ5,2020-0188,2021-10-31,11:43:07,13:29:16,NA,incomplete,true,true,NA,NA,0,30,NA,brown,n_l_112.jpg,NA,NA,NA,NA,NA,unpleasant,pleasant,NA,NA,NA,NA,NA,left,1737.5,true,NA,NA,NA,NA,NA,NA,NA,NA
Npp14aQ5,3icohx7eofotocxdgkfntnxuj980e9,3tayzsbplpl3hp33n488qcqgmc92ss,Npp14aQ5,2020-0188,2021-10-31,11:43:07,13:29:16,NA,incomplete,true,true,NA,NA,0,31,NA,brown,n_l_087.jpg,NA,NA,NA,NA,NA,pleasant,unpleasant,NA,NA,NA,NA,NA,left,1481.59999990463,true,NA,NA,NA,NA,NA,NA,NA,NA
Npp14aQ5,3icohx7eofotocxdgkfntnxuj980e9,3tayzsbplpl3hp33n488qcqgmc92ss,Npp14aQ5,2020-0188,2021-10-31,11:43:07,13:29:16,NA,incomplete,true,true,NA,NA,0,32,NA,brown,m_l_022.jpg,NA,NA,NA,NA,NA,pleasant,unpleasant,NA,NA,NA,NA,NA,right,1386.90000009537,true,NA,NA,NA,NA,NA,NA,NA,NA
Npp14aQ5,3icohx7eofotocxdgkfntnxuj980e9,3tayzsbplpl3hp33n488qcqgmc92ss,Npp14aQ5,2020-0188,2021-10-31,11:43:07,13:29:16,NA,incomplete,true,true,NA,NA,0,33,NA,brown,m_l_049.jpg,NA,NA,NA,NA,NA,pleasant,unpleasant,NA,NA,NA,NA,NA,right,1435.5,true,NA,NA,NA,NA,NA,NA,NA,NA
Npp14aQ5,3icohx7eofotocxdgkfntnxuj980e9,3tayzsbplpl3hp33n488qcqgmc92ss,Npp14aQ5,2020-0188,2021-10-31,11:43:07,13:29:16,NA,incomplete,true,true,NA,NA,0,34,NA,brown,m_l_030.jpg,NA,NA,NA,NA,NA,unpleasant,pleasant,NA,NA,NA,NA,NA,right,1321,true,NA,NA,NA,NA,NA,NA,NA,NA
Npp14aQ5,3icohx7eofotocxdgkfntnxuj980e9,3tayzsbplpl3hp33n488qcqgmc92ss,Npp14aQ5,2020-0188,2021-10-31,11:43:07,13:29:16,NA,incomplete,true,true,NA,NA,0,35,NA,brown,m_l_001.jpg,NA,NA,NA,NA,NA,unpleasant,pleasant,NA,NA,NA,NA,NA,left,1414.79999995232,true,NA,NA,NA,NA,NA,NA,NA,NA
Npp14aQ5,3icohx7eofotocxdgkfntnxuj980e9,3tayzsbplpl3hp33n488qcqgmc92ss,Npp14aQ5,2020-0188,2021-10-31,11:43:07,13:29:16,NA,incomplete,true,NA,NA,true,0,0,NA,NA,NA,right,m_s_067.jpg,yellow,black,NA,NA,NA,NA,NA,NA,NA,NA,NA,NaN,NA,6271.299999952316,right,1,NA,NA,NA,NA,NA
Npp14aQ5,3icohx7eofotocxdgkfntnxuj980e9,3tayzsbplpl3hp33n488qcqgmc92ss,Npp14aQ5,2020-0188,2021-10-31,11:43:07,13:29:16,NA,incomplete,true,NA,NA,true,0,1,NA,NA,NA,right,n_l_001.jpg,white,blue,NA,NA,NA,NA,NA,NA,NA,NA,NA,NaN,NA,4325.100000143051,right,1,NA,NA,NA,NA,NA
Npp14aQ5,3icohx7eofotocxdgkfntnxuj980e9,3tayzsbplpl3hp33n488qcqgmc92ss,Npp14aQ5,2020-0188,2021-10-31,11:43:07,13:29:16,NA,incomplete,true,NA,NA,true,0,2,NA,NA,NA,left,m_l_022.jpg,brown,white,NA,NA,NA,NA,NA,NA,NA,NA,NA,NaN,NA,2239.5,left,1,NA,NA,NA,NA,NA
Npp14aQ5,3icohx7eofotocxdgkfntnxuj980e9,3tayzsbplpl3hp33n488qcqgmc92ss,Npp14aQ5,2020-0188,2021-10-31,11:43:07,13:29:16,NA,incomplete,true,NA,NA,true,0,3,NA,NA,NA,left,m_l_004.jpg,yellow,black,NA,NA,NA,NA,NA,NA,NA,NA,NA,NaN,NA,2170.5,left,1,NA,NA,NA,NA,NA
Npp14aQ5,3icohx7eofotocxdgkfntnxuj980e9,3tayzsbplpl3hp33n488qcqgmc92ss,Npp14aQ5,2020-0188,2021-10-31,11:43:07,13:29:16,NA,incomplete,true,NA,NA,true,0,4,NA,NA,NA,right,m_l_026.jpg,black,yellow,NA,NA,NA,NA,NA,NA,NA,NA,NA,NaN,NA,2153.7000000476837,left,0,NA,NA,NA,NA,NA
Npp14aQ5,3icohx7eofotocxdgkfntnxuj980e9,3tayzsbplpl3hp33n488qcqgmc92ss,Npp14aQ5,2020-0188,2021-10-31,11:43:07,13:29:16,NA,incomplete,true,NA,NA,true,0,5,NA,NA,NA,right,n_s_045.jpg,purple,black,NA,NA,NA,NA,NA,NA,NA,NA,NA,NaN,NA,1866.3999998569489,right,1,NA,NA,NA,NA,NA
Npp14aQ5,3icohx7eofotocxdgkfntnxuj980e9,3tayzsbplpl3hp33n488qcqgmc92ss,Npp14aQ5,2020-0188,2021-10-31,11:43:07,13:29:16,NA,incomplete,true,NA,NA,true,0,6,NA,NA,NA,left,n_s_059.jpg,white,brown,NA,NA,NA,NA,NA,NA,NA,NA,NA,NaN,NA,1885.2000000476837,left,1,NA,NA,NA,NA,NA
Npp14aQ5,3icohx7eofotocxdgkfntnxuj980e9,3tayzsbplpl3hp33n488qcqgmc92ss,Npp14aQ5,2020-0188,2021-10-31,11:43:07,13:29:16,NA,incomplete,true,NA,NA,true,0,7,NA,NA,NA,left,m_s_016.jpg,purple,black,NA,NA,NA,NA,NA,NA,NA,NA,NA,NaN,NA,2246.2999999523163,right,0,NA,NA,NA,NA,NA
Npp14aQ5,3icohx7eofotocxdgkfntnxuj980e9,3tayzsbplpl3hp33n488qcqgmc92ss,Npp14aQ5,2020-0188,2021-10-31,11:43:07,13:29:16,NA,incomplete,true,NA,NA,true,0,8,NA,NA,NA,right,n_l_023.jpg,yellow,blue,NA,NA,NA,NA,NA,NA,NA,NA,NA,NaN,NA,7847.099999904633,right,1,NA,NA,NA,NA,NA
Npp14aQ5,3icohx7eofotocxdgkfntnxuj980e9,3tayzsbplpl3hp33n488qcqgmc92ss,Npp14aQ5,2020-0188,2021-10-31,11:43:07,13:29:16,NA,incomplete,true,NA,NA,true,0,9,NA,NA,NA,right,n_l_016.jpg,yellow,blue,NA,NA,NA,NA,NA,NA,NA,NA,NA,NaN,NA,2076.0999999046326,right,1,NA,NA,NA,NA,NA
Npp14aQ5,3icohx7eofotocxdgkfntnxuj980e9,3tayzsbplpl3hp33n488qcqgmc92ss,Npp14aQ5,2020-0188,2021-10-31,11:43:07,13:29:16,NA,incomplete,true,NA,NA,true,0,10,NA,NA,NA,left,m_s_088.jpg,yellow,black,NA,NA,NA,NA,NA,NA,NA,NA,NA,NaN,NA,3186.4000000953674,left,1,NA,NA,NA,NA,NA
Npp14aQ5,3icohx7eofotocxdgkfntnxuj980e9,3tayzsbplpl3hp33n488qcqgmc92ss,Npp14aQ5,2020-0188,2021-10-31,11:43:07,13:29:16,NA,incomplete,true,NA,NA,true,0,11,NA,NA,NA,right,n_l_015.jpg,black,yellow,NA,NA,NA,NA,NA,NA,NA,NA,NA,NaN,NA,2588,right,1,NA,NA,NA,NA,NA
Npp14aQ5,3icohx7eofotocxdgkfntnxuj980e9,3tayzsbplpl3hp33n488qcqgmc92ss,Npp14aQ5,2020-0188,2021-10-31,11:43:07,13:29:16,NA,incomplete,true,NA,NA,true,0,12,NA,NA,NA,right,n_l_048.jpg,yellow,blue,NA,NA,NA,NA,NA,NA,NA,NA,NA,NaN,NA,2702.5999999046326,right,1,NA,NA,NA,NA,NA
Npp14aQ5,3icohx7eofotocxdgkfntnxuj980e9,3tayzsbplpl3hp33n488qcqgmc92ss,Npp14aQ5,2020-0188,2021-10-31,11:43:07,13:29:16,NA,incomplete,true,NA,NA,true,0,13,NA,NA,NA,right,m_l_001.jpg,white,brown,NA,NA,NA,NA,NA,NA,NA,NA,NA,NaN,NA,2907.5,right,1,NA,NA,NA,NA,NA
Npp14aQ5,3icohx7eofotocxdgkfntnxuj980e9,3tayzsbplpl3hp33n488qcqgmc92ss,Npp14aQ5,2020-0188,2021-10-31,11:43:07,13:29:16,NA,incomplete,true,NA,NA,true,0,14,NA,NA,NA,right,m_l_058.jpg,brown,white,NA,NA,NA,NA,NA,NA,NA,NA,NA,NaN,NA,3510.300000190735,right,1,NA,NA,NA,NA,NA
Npp14aQ5,3icohx7eofotocxdgkfntnxuj980e9,3tayzsbplpl3hp33n488qcqgmc92ss,Npp14aQ5,2020-0188,2021-10-31,11:43:07,13:29:16,NA,incomplete,true,NA,NA,true,0,15,NA,NA,NA,left,m_s_105.jpg,white,blue,NA,NA,NA,NA,NA,NA,NA,NA,NA,NaN,NA,2118.7000000476837,left,1,NA,NA,NA,NA,NA
Npp14aQ5,3icohx7eofotocxdgkfntnxuj980e9,3tayzsbplpl3hp33n488qcqgmc92ss,Npp14aQ5,2020-0188,2021-10-31,11:43:07,13:29:16,NA,incomplete,true,NA,NA,true,0,16,NA,NA,NA,right,m_l_012.jpg,blue,white,NA,NA,NA,NA,NA,NA,NA,NA,NA,NaN,NA,2065.4000000953674,right,1,NA,NA,NA,NA,NA
Npp14aQ5,3icohx7eofotocxdgkfntnxuj980e9,3tayzsbplpl3hp33n488qcqgmc92ss,Npp14aQ5,2020-0188,2021-10-31,11:43:07,13:29:16,NA,incomplete,true,NA,NA,true,0,17,NA,NA,NA,right,n_l_087.jpg,white,brown,NA,NA,NA,NA,NA,NA,NA,NA,NA,NaN,NA,2176.2000000476837,right,1,NA,NA,NA,NA,NA
Npp14aQ5,3icohx7eofotocxdgkfntnxuj980e9,3tayzsbplpl3hp33n488qcqgmc92ss,Npp14aQ5,2020-0188,2021-10-31,11:43:07,13:29:16,NA,incomplete,true,NA,NA,true,0,18,NA,NA,NA,right,n_l_080.jpg,yellow,black,NA,NA,NA,NA,NA,NA,NA,NA,NA,NaN,NA,1832.3999998569489,right,1,NA,NA,NA,NA,NA
Npp14aQ5,3icohx7eofotocxdgkfntnxuj980e9,3tayzsbplpl3hp33n488qcqgmc92ss,Npp14aQ5,2020-0188,2021-10-31,11:43:07,13:29:16,NA,incomplete,true,NA,NA,true,0,19,NA,NA,NA,right,m_s_062.jpg,black,purple,NA,NA,NA,NA,NA,NA,NA,NA,NA,NaN,NA,2293.7999999523163,left,0,NA,NA,NA,NA,NA
Npp14aQ5,3icohx7eofotocxdgkfntnxuj980e9,3tayzsbplpl3hp33n488qcqgmc92ss,Npp14aQ5,2020-0188,2021-10-31,11:43:07,13:29:16,NA,incomplete,true,NA,NA,true,0,20,NA,NA,NA,right,m_l_015.jpg,black,purple,NA,NA,NA,NA,NA,NA,NA,NA,NA,NaN,NA,2128.7000000476837,left,0,NA,NA,NA,NA,NA
Npp14aQ5,3icohx7eofotocxdgkfntnxuj980e9,3tayzsbplpl3hp33n488qcqgmc92ss,Npp14aQ5,2020-0188,2021-10-31,11:43:07,13:29:16,NA,incomplete,true,NA,NA,true,0,21,NA,NA,NA,right,m_l_104.jpg,yellow,black,NA,NA,NA,NA,NA,NA,NA,NA,NA,NaN,NA,3720.7000000476837,right,1,NA,NA,NA,NA,NA
Npp14aQ5,3icohx7eofotocxdgkfntnxuj980e9,3tayzsbplpl3hp33n488qcqgmc92ss,Npp14aQ5,2020-0188,2021-10-31,11:43:07,13:29:16,NA,incomplete,true,NA,true,NA,0,0,NA,NA,NA,left,NA,NA,NA,present,NA,NA,n_l_015.jpg,yellow,n_l_016.jpg,blue,between,NA,NaN,NA,NA,NA,NA,right,4626.5,0,3,9464.399999856949
Npp14aQ5,3icohx7eofotocxdgkfntnxuj980e9,3tayzsbplpl3hp33n488qcqgmc92ss,Npp14aQ5,2020-0188,2021-10-31,11:43:07,13:29:16,NA,incomplete,true,NA,true,NA,0,1,NA,NA,NA,right,NA,NA,NA,present,NA,NA,n_l_080.jpg,black,m_l_015.jpg,purple,between,NA,NaN,NA,NA,NA,NA,right,4233,1,2,2237.9000000953674
Npp14aQ5,3icohx7eofotocxdgkfntnxuj980e9,3tayzsbplpl3hp33n488qcqgmc92ss,Npp14aQ5,2020-0188,2021-10-31,11:43:07,13:29:16,NA,incomplete,true,NA,true,NA,0,2,NA,NA,NA,right,NA,NA,NA,present,NA,NA,m_s_016.jpg,purple,m_s_062.jpg,purple,within,NA,NaN,NA,NA,NA,NA,left,4078.9000000953674,0,3,6265.799999952316
Npp14aQ5,3icohx7eofotocxdgkfntnxuj980e9,3tayzsbplpl3hp33n488qcqgmc92ss,Npp14aQ5,2020-0188,2021-10-31,11:43:07,13:29:16,NA,incomplete,true,NA,true,NA,0,3,NA,NA,NA,left,NA,NA,NA,present,NA,NA,m_l_012.jpg,white,m_l_022.jpg,brown,between,NA,NaN,NA,NA,NA,NA,left,4359,1,3,1929.2999999523163
Npp14aQ5,3icohx7eofotocxdgkfntnxuj980e9,3tayzsbplpl3hp33n488qcqgmc92ss,Npp14aQ5,2020-0188,2021-10-31,11:43:07,13:29:16,NA,incomplete,true,NA,true,NA,0,4,NA,NA,NA,right,NA,NA,NA,present,NA,NA,n_l_048.jpg,blue,n_l_023.jpg,blue,within,NA,NaN,NA,NA,NA,NA,right,5284.900000095367,1,2,1492.4000000953674
Npp14aQ5,3icohx7eofotocxdgkfntnxuj980e9,3tayzsbplpl3hp33n488qcqgmc92ss,Npp14aQ5,2020-0188,2021-10-31,11:43:07,13:29:16,NA,incomplete,true,NA,true,NA,0,5,NA,NA,NA,left,NA,NA,NA,present,NA,NA,m_s_105.jpg,white,m_l_058.jpg,white,within,NA,NaN,NA,NA,NA,NA,left,2878.399999856949,1,1,1908.2000000476837
Npp14aQ5,3icohx7eofotocxdgkfntnxuj980e9,3tayzsbplpl3hp33n488qcqgmc92ss,Npp14aQ5,2020-0188,2021-10-31,11:43:07,13:29:16,NA,incomplete,true,NA,true,NA,0,6,NA,NA,NA,right,NA,NA,NA,present,NA,NA,m_l_026.jpg,yellow,m_s_088.jpg,yellow,within,NA,NaN,NA,NA,NA,NA,right,2175.399999856949,1,2,2445.9000000953674
Npp14aQ5,3icohx7eofotocxdgkfntnxuj980e9,3tayzsbplpl3hp33n488qcqgmc92ss,Npp14aQ5,2020-0188,2021-10-31,11:43:07,13:29:16,NA,incomplete,true,NA,true,NA,0,7,NA,NA,NA,left,NA,NA,NA,present,NA,NA,m_l_104.jpg,black,m_l_004.jpg,yellow,between,NA,NaN,NA,NA,NA,NA,left,16688.89999985695,1,2,2504.2000000476837
Npp14aQ5,3icohx7eofotocxdgkfntnxuj980e9,3tayzsbplpl3hp33n488qcqgmc92ss,Npp14aQ5,2020-0188,2021-10-31,11:43:07,13:29:16,NA,incomplete,true,NA,true,NA,0,8,NA,NA,NA,right,NA,NA,NA,present,NA,NA,n_s_059.jpg,white,n_l_001.jpg,blue,between,NA,NaN,NA,NA,NA,NA,left,2943.899999856949,0,3,1293.7000000476837
Npp14aQ5,3icohx7eofotocxdgkfntnxuj980e9,3tayzsbplpl3hp33n488qcqgmc92ss,Npp14aQ5,2020-0188,2021-10-31,11:43:07,13:29:16,NA,incomplete,true,NA,true,NA,0,9,NA,NA,NA,left,NA,NA,NA,present,NA,NA,n_s_045.jpg,black,m_s_067.jpg,black,within,NA,NaN,NA,NA,NA,NA,right,4430.899999856949,0,1,4723.400000095367
Npp14aQ5,3icohx7eofotocxdgkfntnxuj980e9,3tayzsbplpl3hp33n488qcqgmc92ss,Npp14aQ5,2020-0188,2021-10-31,11:43:07,13:29:16,NA,incomplete,true,NA,true,NA,0,10,NA,NA,NA,left,NA,NA,NA,present,NA,NA,n_l_087.jpg,brown,m_l_001.jpg,brown,within,NA,NaN,NA,NA,NA,NA,right,13800,0,1,1855.5
Npp14aQ5,3icohx7eofotocxdgkfntnxuj980e9,3tayzsbplpl3hp33n488qcqgmc92ss,Npp14aQ5,2020-0188,2021-10-31,11:43:07,13:29:16,NA,incomplete,false,true,NA,NA,1,0,NA,brown,m_l_110.jpg,NA,NA,NA,NA,NA,pleasant,unpleasant,NA,NA,NA,NA,NA,right,2455.29999995232,true,NA,NA,NA,NA,NA,NA,NA,NA
Npp14aQ5,3icohx7eofotocxdgkfntnxuj980e9,3tayzsbplpl3hp33n488qcqgmc92ss,Npp14aQ5,2020-0188,2021-10-31,11:43:07,13:29:16,NA,incomplete,false,true,NA,NA,1,1,NA,brown,m_l_112.jpg,NA,NA,NA,NA,NA,pleasant,unpleasant,NA,NA,NA,NA,NA,left,2643.90000009537,true,NA,NA,NA,NA,NA,NA,NA,NA
Npp14aQ5,3icohx7eofotocxdgkfntnxuj980e9,3tayzsbplpl3hp33n488qcqgmc92ss,Npp14aQ5,2020-0188,2021-10-31,11:43:07,13:29:16,NA,incomplete,false,true,NA,NA,1,2,NA,brown,m_l_107.jpg,NA,NA,NA,NA,NA,pleasant,unpleasant,NA,NA,NA,NA,NA,left,2526.40000009537,true,NA,NA,NA,NA,NA,NA,NA,NA
Npp14aQ5,3icohx7eofotocxdgkfntnxuj980e9,3tayzsbplpl3hp33n488qcqgmc92ss,Npp14aQ5,2020-0188,2021-10-31,11:43:07,13:29:16,NA,incomplete,false,true,NA,NA,1,3,NA,brown,m_s_079.jpg,NA,NA,NA,NA,NA,pleasant,unpleasant,NA,NA,NA,NA,NA,none,0,false,NA,NA,NA,NA,NA,NA,NA,NA
Npp14aQ5,3icohx7eofotocxdgkfntnxuj980e9,3tayzsbplpl3hp33n488qcqgmc92ss,Npp14aQ5,2020-0188,2021-10-31,11:43:07,13:29:16,NA,incomplete,false,true,NA,NA,1,4,NA,brown,m_s_098.jpg,NA,NA,NA,NA,NA,pleasant,unpleasant,NA,NA,NA,NA,NA,left,1538.69999980927,true,NA,NA,NA,NA,NA,NA,NA,NA
Npp14aQ5,3icohx7eofotocxdgkfntnxuj980e9,3tayzsbplpl3hp33n488qcqgmc92ss,Npp14aQ5,2020-0188,2021-10-31,11:43:07,13:29:16,NA,incomplete,false,true,NA,NA,1,5,NA,brown,m_l_010.jpg,NA,NA,NA,NA,NA,unpleasant,pleasant,NA,NA,NA,NA,NA,none,0,false,NA,NA,NA,NA,NA,NA,NA,NA
Npp14aQ5,3icohx7eofotocxdgkfntnxuj980e9,3tayzsbplpl3hp33n488qcqgmc92ss,Npp14aQ5,2020-0188,2021-10-31,11:43:07,13:29:16,NA,incomplete,false,true,NA,NA,1,6,NA,orange,m_s_065.jpg,NA,NA,NA,NA,NA,unpleasant,pleasant,NA,NA,NA,NA,NA,left,2648.79999995232,true,NA,NA,NA,NA,NA,NA,NA,NA
Npp14aQ5,3icohx7eofotocxdgkfntnxuj980e9,3tayzsbplpl3hp33n488qcqgmc92ss,Npp14aQ5,2020-0188,2021-10-31,11:43:07,13:29:16,NA,incomplete,false,true,NA,NA,1,7,NA,orange,m_l_064.jpg,NA,NA,NA,NA,NA,unpleasant,pleasant,NA,NA,NA,NA,NA,right,1964.5,true,NA,NA,NA,NA,NA,NA,NA,NA
Npp14aQ5,3icohx7eofotocxdgkfntnxuj980e9,3tayzsbplpl3hp33n488qcqgmc92ss,Npp14aQ5,2020-0188,2021-10-31,11:43:07,13:29:16,NA,incomplete,false,true,NA,NA,1,8,NA,orange,m_s_014.jpg,NA,NA,NA,NA,NA,unpleasant,pleasant,NA,NA,NA,NA,NA,right,1821.29999995232,true,NA,NA,NA,NA,NA,NA,NA,NA
Npp14aQ5,3icohx7eofotocxdgkfntnxuj980e9,3tayzsbplpl3hp33n488qcqgmc92ss,Npp14aQ5,2020-0188,2021-10-31,11:43:07,13:29:16,NA,incomplete,false,true,NA,NA,1,9,NA,orange,n_l_117.jpg,NA,NA,NA,NA,NA,unpleasant,pleasant,NA,NA,NA,NA,NA,left,1915.5,true,NA,NA,NA,NA,NA,NA,NA,NA
Npp14aQ5,3icohx7eofotocxdgkfntnxuj980e9,3tayzsbplpl3hp33n488qcqgmc92ss,Npp14aQ5,2020-0188,2021-10-31,11:43:07,13:29:16,NA,incomplete,false,true,NA,NA,1,10,NA,orange,m_s_044.jpg,NA,NA,NA,NA,NA,pleasant,unpleasant,NA,NA,NA,NA,NA,right,2219.29999995232,true,NA,NA,NA,NA,NA,NA,NA,NA
Npp14aQ5,3icohx7eofotocxdgkfntnxuj980e9,3tayzsbplpl3hp33n488qcqgmc92ss,Npp14aQ5,2020-0188,2021-10-31,11:43:07,13:29:16,NA,incomplete,false,true,NA,NA,1,11,NA,orange,n_s_070.jpg,NA,NA,NA,NA,NA,pleasant,unpleasant,NA,NA,NA,NA,NA,left,2215.10000014305,true,NA,NA,NA,NA,NA,NA,NA,NA
Npp14aQ5,3icohx7eofotocxdgkfntnxuj980e9,3tayzsbplpl3hp33n488qcqgmc92ss,Npp14aQ5,2020-0188,2021-10-31,11:43:07,13:29:16,NA,incomplete,false,true,NA,NA,1,12,NA,red,n_l_065.jpg,NA,NA,NA,NA,NA,pleasant,unpleasant,NA,NA,NA,NA,NA,right,2808.10000014305,true,NA,NA,NA,NA,NA,NA,NA,NA
Npp14aQ5,3icohx7eofotocxdgkfntnxuj980e9,3tayzsbplpl3hp33n488qcqgmc92ss,Npp14aQ5,2020-0188,2021-10-31,11:43:07,13:29:16,NA,incomplete,false,true,NA,NA,1,13,NA,red,n_s_073.jpg,NA,NA,NA,NA,NA,pleasant,unpleasant,NA,NA,NA,NA,NA,left,2127.40000009537,true,NA,NA,NA,NA,NA,NA,NA,NA
Npp14aQ5,3icohx7eofotocxdgkfntnxuj980e9,3tayzsbplpl3hp33n488qcqgmc92ss,Npp14aQ5,2020-0188,2021-10-31,11:43:07,13:29:16,NA,incomplete,false,true,NA,NA,1,14,NA,red,m_l_002.jpg,NA,NA,NA,NA,NA,pleasant,unpleasant,NA,NA,NA,NA,NA,left,2178.29999995232,true,NA,NA,NA,NA,NA,NA,NA,NA
Npp14aQ5,3icohx7eofotocxdgkfntnxuj980e9,3tayzsbplpl3hp33n488qcqgmc92ss,Npp14aQ5,2020-0188,2021-10-31,11:43:07,13:29:16,NA,incomplete,false,true,NA,NA,1,15,NA,red,n_s_041.jpg,NA,NA,NA,NA,NA,pleasant,unpleasant,NA,NA,NA,NA,NA,right,2557.79999995232,true,NA,NA,NA,NA,NA,NA,NA,NA
Npp14aQ5,3icohx7eofotocxdgkfntnxuj980e9,3tayzsbplpl3hp33n488qcqgmc92ss,Npp14aQ5,2020-0188,2021-10-31,11:43:07,13:29:16,NA,incomplete,false,true,NA,NA,1,16,NA,red,m_l_063.jpg,NA,NA,NA,NA,NA,unpleasant,pleasant,NA,NA,NA,NA,NA,right,2004.79999995232,true,NA,NA,NA,NA,NA,NA,NA,NA
Npp14aQ5,3icohx7eofotocxdgkfntnxuj980e9,3tayzsbplpl3hp33n488qcqgmc92ss,Npp14aQ5,2020-0188,2021-10-31,11:43:07,13:29:16,NA,incomplete,false,true,NA,NA,1,17,NA,red,m_s_071.jpg,NA,NA,NA,NA,NA,pleasant,unpleasant,NA,NA,NA,NA,NA,none,0,false,NA,NA,NA,NA,NA,NA,NA,NA
Npp14aQ5,3icohx7eofotocxdgkfntnxuj980e9,3tayzsbplpl3hp33n488qcqgmc92ss,Npp14aQ5,2020-0188,2021-10-31,11:43:07,13:29:16,NA,incomplete,false,true,NA,NA,1,18,NA,gray,m_l_072.jpg,NA,NA,NA,NA,NA,pleasant,unpleasant,NA,NA,NA,NA,NA,right,2408.5,true,NA,NA,NA,NA,NA,NA,NA,NA
Npp14aQ5,3icohx7eofotocxdgkfntnxuj980e9,3tayzsbplpl3hp33n488qcqgmc92ss,Npp14aQ5,2020-0188,2021-10-31,11:43:07,13:29:16,NA,incomplete,false,true,NA,NA,1,19,NA,gray,m_l_100.jpg,NA,NA,NA,NA,NA,unpleasant,pleasant,NA,NA,NA,NA,NA,left,1713.60000014305,true,NA,NA,NA,NA,NA,NA,NA,NA
Npp14aQ5,3icohx7eofotocxdgkfntnxuj980e9,3tayzsbplpl3hp33n488qcqgmc92ss,Npp14aQ5,2020-0188,2021-10-31,11:43:07,13:29:16,NA,incomplete,false,true,NA,NA,1,20,NA,gray,m_l_028.jpg,NA,NA,NA,NA,NA,pleasant,unpleasant,NA,NA,NA,NA,NA,right,2264.5,true,NA,NA,NA,NA,NA,NA,NA,NA
Npp14aQ5,3icohx7eofotocxdgkfntnxuj980e9,3tayzsbplpl3hp33n488qcqgmc92ss,Npp14aQ5,2020-0188,2021-10-31,11:43:07,13:29:16,NA,incomplete,false,true,NA,NA,1,21,NA,gray,n_l_049.jpg,NA,NA,NA,NA,NA,pleasant,unpleasant,NA,NA,NA,NA,NA,right,1558.40000009537,true,NA,NA,NA,NA,NA,NA,NA,NA
Npp14aQ5,3icohx7eofotocxdgkfntnxuj980e9,3tayzsbplpl3hp33n488qcqgmc92ss,Npp14aQ5,2020-0188,2021-10-31,11:43:07,13:29:16,NA,incomplete,false,true,NA,NA,1,22,NA,gray,n_s_055.jpg,NA,NA,NA,NA,NA,pleasant,unpleasant,NA,NA,NA,NA,NA,left,2899.09999990463,true,NA,NA,NA,NA,NA,NA,NA,NA
Npp14aQ5,3icohx7eofotocxdgkfntnxuj980e9,3tayzsbplpl3hp33n488qcqgmc92ss,Npp14aQ5,2020-0188,2021-10-31,11:43:07,13:29:16,NA,incomplete,false,true,NA,NA,1,23,NA,gray,n_s_072.jpg,NA,NA,NA,NA,NA,pleasant,unpleasant,NA,NA,NA,NA,NA,left,2410.79999995232,true,NA,NA,NA,NA,NA,NA,NA,NA
Npp14aQ5,3icohx7eofotocxdgkfntnxuj980e9,3tayzsbplpl3hp33n488qcqgmc92ss,Npp14aQ5,2020-0188,2021-10-31,11:43:07,13:29:16,NA,incomplete,false,true,NA,NA,1,24,NA,purple,m_s_010.jpg,NA,NA,NA,NA,NA,unpleasant,pleasant,NA,NA,NA,NA,NA,right,2442.89999985695,true,NA,NA,NA,NA,NA,NA,NA,NA
Npp14aQ5,3icohx7eofotocxdgkfntnxuj980e9,3tayzsbplpl3hp33n488qcqgmc92ss,Npp14aQ5,2020-0188,2021-10-31,11:43:07,13:29:16,NA,incomplete,false,true,NA,NA,1,25,NA,purple,n_l_018.jpg,NA,NA,NA,NA,NA,unpleasant,pleasant,NA,NA,NA,NA,NA,right,2050.59999990463,true,NA,NA,NA,NA,NA,NA,NA,NA
Npp14aQ5,3icohx7eofotocxdgkfntnxuj980e9,3tayzsbplpl3hp33n488qcqgmc92ss,Npp14aQ5,2020-0188,2021-10-31,11:43:07,13:29:16,NA,incomplete,false,true,NA,NA,1,26,NA,purple,m_s_047.jpg,NA,NA,NA,NA,NA,unpleasant,pleasant,NA,NA,NA,NA,NA,right,2303.70000004768,true,NA,NA,NA,NA,NA,NA,NA,NA
Npp14aQ5,3icohx7eofotocxdgkfntnxuj980e9,3tayzsbplpl3hp33n488qcqgmc92ss,Npp14aQ5,2020-0188,2021-10-31,11:43:07,13:29:16,NA,incomplete,false,true,NA,NA,1,27,NA,purple,n_l_045.jpg,NA,NA,NA,NA,NA,pleasant,unpleasant,NA,NA,NA,NA,NA,left,2203.20000004768,true,NA,NA,NA,NA,NA,NA,NA,NA
Npp14aQ5,3icohx7eofotocxdgkfntnxuj980e9,3tayzsbplpl3hp33n488qcqgmc92ss,Npp14aQ5,2020-0188,2021-10-31,11:43:07,13:29:16,NA,incomplete,false,true,NA,NA,1,28,NA,purple,n_l_055.jpg,NA,NA,NA,NA,NA,pleasant,unpleasant,NA,NA,NA,NA,NA,right,2345.79999995232,true,NA,NA,NA,NA,NA,NA,NA,NA
Npp14aQ5,3icohx7eofotocxdgkfntnxuj980e9,3tayzsbplpl3hp33n488qcqgmc92ss,Npp14aQ5,2020-0188,2021-10-31,11:43:07,13:29:16,NA,incomplete,false,true,NA,NA,1,29,NA,purple,n_l_006.jpg,NA,NA,NA,NA,NA,pleasant,unpleasant,NA,NA,NA,NA,NA,left,1877.10000014305,true,NA,NA,NA,NA,NA,NA,NA,NA
Npp14aQ5,3icohx7eofotocxdgkfntnxuj980e9,3tayzsbplpl3hp33n488qcqgmc92ss,Npp14aQ5,2020-0188,2021-10-31,11:43:07,13:29:16,NA,incomplete,false,true,NA,NA,1,30,NA,yellow,n_l_094.jpg,NA,NA,NA,NA,NA,pleasant,unpleasant,NA,NA,NA,NA,NA,right,1991.60000014305,true,NA,NA,NA,NA,NA,NA,NA,NA
Npp14aQ5,3icohx7eofotocxdgkfntnxuj980e9,3tayzsbplpl3hp33n488qcqgmc92ss,Npp14aQ5,2020-0188,2021-10-31,11:43:07,13:29:16,NA,incomplete,false,true,NA,NA,1,31,NA,yellow,n_s_010.jpg,NA,NA,NA,NA,NA,unpleasant,pleasant,NA,NA,NA,NA,NA,left,2167,true,NA,NA,NA,NA,NA,NA,NA,NA
Npp14aQ5,3icohx7eofotocxdgkfntnxuj980e9,3tayzsbplpl3hp33n488qcqgmc92ss,Npp14aQ5,2020-0188,2021-10-31,11:43:07,13:29:16,NA,incomplete,false,true,NA,NA,1,32,NA,yellow,n_s_056.jpg,NA,NA,NA,NA,NA,unpleasant,pleasant,NA,NA,NA,NA,NA,right,2156.60000014305,true,NA,NA,NA,NA,NA,NA,NA,NA
Npp14aQ5,3icohx7eofotocxdgkfntnxuj980e9,3tayzsbplpl3hp33n488qcqgmc92ss,Npp14aQ5,2020-0188,2021-10-31,11:43:07,13:29:16,NA,incomplete,false,true,NA,NA,1,33,NA,yellow,m_l_089.jpg,NA,NA,NA,NA,NA,unpleasant,pleasant,NA,NA,NA,NA,NA,left,2428.20000004768,true,NA,NA,NA,NA,NA,NA,NA,NA
Npp14aQ5,3icohx7eofotocxdgkfntnxuj980e9,3tayzsbplpl3hp33n488qcqgmc92ss,Npp14aQ5,2020-0188,2021-10-31,11:43:07,13:29:16,NA,incomplete,false,true,NA,NA,1,34,NA,yellow,m_l_023.jpg,NA,NA,NA,NA,NA,pleasant,unpleasant,NA,NA,NA,NA,NA,left,2599.90000009537,true,NA,NA,NA,NA,NA,NA,NA,NA
Npp14aQ5,3icohx7eofotocxdgkfntnxuj980e9,3tayzsbplpl3hp33n488qcqgmc92ss,Npp14aQ5,2020-0188,2021-10-31,11:43:07,13:29:16,NA,incomplete,false,true,NA,NA,1,35,NA,yellow,n_s_012.jpg,NA,NA,NA,NA,NA,pleasant,unpleasant,NA,NA,NA,NA,NA,left,2011.90000009537,true,NA,NA,NA,NA,NA,NA,NA,NA
Npp14aQ5,3icohx7eofotocxdgkfntnxuj980e9,3tayzsbplpl3hp33n488qcqgmc92ss,Npp14aQ5,2020-0188,2021-10-31,11:43:07,13:29:16,NA,incomplete,false,NA,NA,true,1,0,NA,NA,NA,left,m_l_010.jpg,brown,orange,NA,NA,NA,NA,NA,NA,NA,NA,NA,NaN,NA,6958.300000190735,left,1,NA,NA,NA,NA,NA
Npp14aQ5,3icohx7eofotocxdgkfntnxuj980e9,3tayzsbplpl3hp33n488qcqgmc92ss,Npp14aQ5,2020-0188,2021-10-31,11:43:07,13:29:16,NA,incomplete,false,NA,NA,true,1,1,NA,NA,NA,left,n_l_055.jpg,purple,gray,NA,NA,NA,NA,NA,NA,NA,NA,NA,NaN,NA,3353.899999856949,left,1,NA,NA,NA,NA,NA
Npp14aQ5,3icohx7eofotocxdgkfntnxuj980e9,3tayzsbplpl3hp33n488qcqgmc92ss,Npp14aQ5,2020-0188,2021-10-31,11:43:07,13:29:16,NA,incomplete,false,NA,NA,true,1,2,NA,NA,NA,right,m_s_098.jpg,orange,brown,NA,NA,NA,NA,NA,NA,NA,NA,NA,NaN,NA,4526.400000095367,right,1,NA,NA,NA,NA,NA
Npp14aQ5,3icohx7eofotocxdgkfntnxuj980e9,3tayzsbplpl3hp33n488qcqgmc92ss,Npp14aQ5,2020-0188,2021-10-31,11:43:07,13:29:16,NA,incomplete,false,NA,NA,true,1,3,NA,NA,NA,left,m_s_014.jpg,orange,brown,NA,NA,NA,NA,NA,NA,NA,NA,NA,NaN,NA,3573.9000000953674,left,1,NA,NA,NA,NA,NA
Npp14aQ5,3icohx7eofotocxdgkfntnxuj980e9,3tayzsbplpl3hp33n488qcqgmc92ss,Npp14aQ5,2020-0188,2021-10-31,11:43:07,13:29:16,NA,incomplete,false,NA,NA,true,1,4,NA,NA,NA,left,m_l_064.jpg,orange,red,NA,NA,NA,NA,NA,NA,NA,NA,NA,NaN,NA,6687.100000143051,left,1,NA,NA,NA,NA,NA
Npp14aQ5,3icohx7eofotocxdgkfntnxuj980e9,3tayzsbplpl3hp33n488qcqgmc92ss,Npp14aQ5,2020-0188,2021-10-31,11:43:07,13:29:16,NA,incomplete,false,NA,NA,true,1,5,NA,NA,NA,left,m_l_112.jpg,brown,orange,NA,NA,NA,NA,NA,NA,NA,NA,NA,NaN,NA,2876.100000143051,left,1,NA,NA,NA,NA,NA
Npp14aQ5,3icohx7eofotocxdgkfntnxuj980e9,3tayzsbplpl3hp33n488qcqgmc92ss,Npp14aQ5,2020-0188,2021-10-31,11:43:07,13:29:16,NA,incomplete,false,NA,NA,true,1,6,NA,NA,NA,left,n_s_070.jpg,orange,brown,NA,NA,NA,NA,NA,NA,NA,NA,NA,NaN,NA,6474.399999856949,left,1,NA,NA,NA,NA,NA
Npp14aQ5,3icohx7eofotocxdgkfntnxuj980e9,3tayzsbplpl3hp33n488qcqgmc92ss,Npp14aQ5,2020-0188,2021-10-31,11:43:07,13:29:16,NA,incomplete,false,NA,NA,true,1,7,NA,NA,NA,right,n_s_056.jpg,purple,yellow,NA,NA,NA,NA,NA,NA,NA,NA,NA,NaN,NA,3078.7999999523163,right,1,NA,NA,NA,NA,NA
Npp14aQ5,3icohx7eofotocxdgkfntnxuj980e9,3tayzsbplpl3hp33n488qcqgmc92ss,Npp14aQ5,2020-0188,2021-10-31,11:43:07,13:29:16,NA,incomplete,false,NA,NA,true,1,8,NA,NA,NA,left,n_s_055.jpg,gray,red,NA,NA,NA,NA,NA,NA,NA,NA,NA,NaN,NA,2182.2000000476837,left,1,NA,NA,NA,NA,NA
Npp14aQ5,3icohx7eofotocxdgkfntnxuj980e9,3tayzsbplpl3hp33n488qcqgmc92ss,Npp14aQ5,2020-0188,2021-10-31,11:43:07,13:29:16,NA,incomplete,false,NA,NA,true,1,9,NA,NA,NA,left,m_s_044.jpg,orange,brown,NA,NA,NA,NA,NA,NA,NA,NA,NA,NaN,NA,6429.299999952316,left,1,NA,NA,NA,NA,NA
Npp14aQ5,3icohx7eofotocxdgkfntnxuj980e9,3tayzsbplpl3hp33n488qcqgmc92ss,Npp14aQ5,2020-0188,2021-10-31,11:43:07,13:29:16,NA,incomplete,false,NA,NA,true,1,10,NA,NA,NA,right,m_l_063.jpg,gray,red,NA,NA,NA,NA,NA,NA,NA,NA,NA,NaN,NA,4795.5,right,1,NA,NA,NA,NA,NA
Npp14aQ5,3icohx7eofotocxdgkfntnxuj980e9,3tayzsbplpl3hp33n488qcqgmc92ss,Npp14aQ5,2020-0188,2021-10-31,11:43:07,13:29:16,NA,incomplete,false,NA,NA,true,1,11,NA,NA,NA,right,n_s_010.jpg,purple,yellow,NA,NA,NA,NA,NA,NA,NA,NA,NA,NaN,NA,6238.799999952316,right,1,NA,NA,NA,NA,NA
Npp14aQ5,3icohx7eofotocxdgkfntnxuj980e9,3tayzsbplpl3hp33n488qcqgmc92ss,Npp14aQ5,2020-0188,2021-10-31,11:43:07,13:29:16,NA,incomplete,false,NA,NA,true,1,12,NA,NA,NA,right,m_s_047.jpg,yellow,purple,NA,NA,NA,NA,NA,NA,NA,NA,NA,NaN,NA,3093,right,1,NA,NA,NA,NA,NA
Npp14aQ5,3icohx7eofotocxdgkfntnxuj980e9,3tayzsbplpl3hp33n488qcqgmc92ss,Npp14aQ5,2020-0188,2021-10-31,11:43:07,13:29:16,NA,incomplete,false,NA,NA,true,1,13,NA,NA,NA,right,m_l_100.jpg,purple,gray,NA,NA,NA,NA,NA,NA,NA,NA,NA,NaN,NA,2731.899999856949,right,1,NA,NA,NA,NA,NA
Npp14aQ5,3icohx7eofotocxdgkfntnxuj980e9,3tayzsbplpl3hp33n488qcqgmc92ss,Npp14aQ5,2020-0188,2021-10-31,11:43:07,13:29:16,NA,incomplete,false,NA,NA,true,1,14,NA,NA,NA,right,m_l_028.jpg,red,gray,NA,NA,NA,NA,NA,NA,NA,NA,NA,NaN,NA,5037.800000190735,right,1,NA,NA,NA,NA,NA
Npp14aQ5,3icohx7eofotocxdgkfntnxuj980e9,3tayzsbplpl3hp33n488qcqgmc92ss,Npp14aQ5,2020-0188,2021-10-31,11:43:07,13:29:16,NA,incomplete,false,NA,NA,true,1,15,NA,NA,NA,right,n_s_012.jpg,purple,yellow,NA,NA,NA,NA,NA,NA,NA,NA,NA,NaN,NA,3204.2000000476837,right,1,NA,NA,NA,NA,NA
Npp14aQ5,3icohx7eofotocxdgkfntnxuj980e9,3tayzsbplpl3hp33n488qcqgmc92ss,Npp14aQ5,2020-0188,2021-10-31,11:43:07,13:29:16,NA,incomplete,false,NA,NA,true,1,16,NA,NA,NA,left,n_s_072.jpg,gray,purple,NA,NA,NA,NA,NA,NA,NA,NA,NA,NaN,NA,3212.2999999523163,left,1,NA,NA,NA,NA,NA
Npp14aQ5,3icohx7eofotocxdgkfntnxuj980e9,3tayzsbplpl3hp33n488qcqgmc92ss,Npp14aQ5,2020-0188,2021-10-31,11:43:07,13:29:16,NA,incomplete,false,NA,NA,true,1,17,NA,NA,NA,right,m_l_002.jpg,orange,red,NA,NA,NA,NA,NA,NA,NA,NA,NA,NaN,NA,3335.7000000476837,right,1,NA,NA,NA,NA,NA
Npp14aQ5,3icohx7eofotocxdgkfntnxuj980e9,3tayzsbplpl3hp33n488qcqgmc92ss,Npp14aQ5,2020-0188,2021-10-31,11:43:07,13:29:16,NA,incomplete,false,NA,NA,true,1,18,NA,NA,NA,left,n_l_018.jpg,purple,gray,NA,NA,NA,NA,NA,NA,NA,NA,NA,NaN,NA,8647.900000095367,left,1,NA,NA,NA,NA,NA
Npp14aQ5,3icohx7eofotocxdgkfntnxuj980e9,3tayzsbplpl3hp33n488qcqgmc92ss,Npp14aQ5,2020-0188,2021-10-31,11:43:07,13:29:16,NA,incomplete,false,NA,NA,true,1,19,NA,NA,NA,left,n_l_006.jpg,purple,yellow,NA,NA,NA,NA,NA,NA,NA,NA,NA,NaN,NA,7154.700000047684,left,1,NA,NA,NA,NA,NA
Npp14aQ5,3icohx7eofotocxdgkfntnxuj980e9,3tayzsbplpl3hp33n488qcqgmc92ss,Npp14aQ5,2020-0188,2021-10-31,11:43:07,13:29:16,NA,incomplete,false,NA,NA,true,1,20,NA,NA,NA,right,n_s_073.jpg,gray,red,NA,NA,NA,NA,NA,NA,NA,NA,NA,NaN,NA,6062.799999952316,right,1,NA,NA,NA,NA,NA
Npp14aQ5,3icohx7eofotocxdgkfntnxuj980e9,3tayzsbplpl3hp33n488qcqgmc92ss,Npp14aQ5,2020-0188,2021-10-31,11:43:07,13:29:16,NA,incomplete,false,NA,NA,true,1,21,NA,NA,NA,right,m_s_071.jpg,orange,red,NA,NA,NA,NA,NA,NA,NA,NA,NA,NaN,NA,4511.199999809265,right,1,NA,NA,NA,NA,NA
Npp14aQ5,3icohx7eofotocxdgkfntnxuj980e9,3tayzsbplpl3hp33n488qcqgmc92ss,Npp14aQ5,2020-0188,2021-10-31,11:43:07,13:29:16,NA,incomplete,false,NA,true,NA,1,0,NA,NA,NA,right,NA,NA,NA,present,NA,NA,n_s_012.jpg,yellow,n_s_010.jpg,yellow,within,NA,NaN,NA,NA,NA,NA,right,12650.100000143051,1,1,5212.599999904633
Npp14aQ5,3icohx7eofotocxdgkfntnxuj980e9,3tayzsbplpl3hp33n488qcqgmc92ss,Npp14aQ5,2020-0188,2021-10-31,11:43:07,13:29:16,NA,incomplete,false,NA,true,NA,1,1,NA,NA,NA,left,NA,NA,NA,present,NA,NA,m_l_100.jpg,gray,n_s_072.jpg,gray,within,NA,NaN,NA,NA,NA,NA,left,19400.099999904633,1,1,2157.800000190735
Npp14aQ5,3icohx7eofotocxdgkfntnxuj980e9,3tayzsbplpl3hp33n488qcqgmc92ss,Npp14aQ5,2020-0188,2021-10-31,11:43:07,13:29:16,NA,incomplete,false,NA,true,NA,1,2,NA,NA,NA,right,NA,NA,NA,present,NA,NA,m_s_071.jpg,red,n_s_073.jpg,red,within,NA,NaN,NA,NA,NA,NA,right,6407.599999904633,1,2,2934.0999999046326
Npp14aQ5,3icohx7eofotocxdgkfntnxuj980e9,3tayzsbplpl3hp33n488qcqgmc92ss,Npp14aQ5,2020-0188,2021-10-31,11:43:07,13:29:16,NA,incomplete,false,NA,true,NA,1,3,NA,NA,NA,left,NA,NA,NA,present,NA,NA,m_l_063.jpg,red,m_l_028.jpg,gray,between,NA,NaN,NA,NA,NA,NA,left,37396.10000014305,1,2,5450.5
Npp14aQ5,3icohx7eofotocxdgkfntnxuj980e9,3tayzsbplpl3hp33n488qcqgmc92ss,Npp14aQ5,2020-0188,2021-10-31,11:43:07,13:29:16,NA,incomplete,false,NA,true,NA,1,4,NA,NA,NA,right,NA,NA,NA,present,NA,NA,m_l_002.jpg,red,m_s_044.jpg,orange,between,NA,NaN,NA,NA,NA,NA,right,3922.2999999523163,1,2,3010.2999999523163
Npp14aQ5,3icohx7eofotocxdgkfntnxuj980e9,3tayzsbplpl3hp33n488qcqgmc92ss,Npp14aQ5,2020-0188,2021-10-31,11:43:07,13:29:16,NA,incomplete,false,NA,true,NA,1,5,NA,NA,NA,left,NA,NA,NA,present,NA,NA,m_s_098.jpg,brown,m_s_014.jpg,orange,between,NA,NaN,NA,NA,NA,NA,left,6919.5,1,2,4728.399999856949
Npp14aQ5,3icohx7eofotocxdgkfntnxuj980e9,3tayzsbplpl3hp33n488qcqgmc92ss,Npp14aQ5,2020-0188,2021-10-31,11:43:07,13:29:16,NA,incomplete,false,NA,true,NA,1,6,NA,NA,NA,left,NA,NA,NA,present,NA,NA,n_l_055.jpg,purple,n_s_056.jpg,yellow,between,NA,NaN,NA,NA,NA,NA,left,12601.600000143051,1,3,4275
Npp14aQ5,3icohx7eofotocxdgkfntnxuj980e9,3tayzsbplpl3hp33n488qcqgmc92ss,Npp14aQ5,2020-0188,2021-10-31,11:43:07,13:29:16,NA,incomplete,false,NA,true,NA,1,7,NA,NA,NA,left,NA,NA,NA,present,NA,NA,m_l_064.jpg,orange,n_s_070.jpg,orange,within,NA,NaN,NA,NA,NA,NA,left,8889.600000143051,1,1,4850.899999856949
Npp14aQ5,3icohx7eofotocxdgkfntnxuj980e9,3tayzsbplpl3hp33n488qcqgmc92ss,Npp14aQ5,2020-0188,2021-10-31,11:43:07,13:29:16,NA,incomplete,false,NA,true,NA,1,8,NA,NA,NA,left,NA,NA,NA,present,NA,NA,n_s_055.jpg,gray,m_s_047.jpg,purple,between,NA,NaN,NA,NA,NA,NA,left,12227.299999952316,1,2,3779.5999999046326
Npp14aQ5,3icohx7eofotocxdgkfntnxuj980e9,3tayzsbplpl3hp33n488qcqgmc92ss,Npp14aQ5,2020-0188,2021-10-31,11:43:07,13:29:16,NA,incomplete,false,NA,true,NA,1,9,NA,NA,NA,right,NA,NA,NA,present,NA,NA,m_l_010.jpg,brown,m_l_112.jpg,brown,within,NA,NaN,NA,NA,NA,NA,right,5617.599999904633,1,0,2662.800000190735
Npp14aQ5,3icohx7eofotocxdgkfntnxuj980e9,3tayzsbplpl3hp33n488qcqgmc92ss,Npp14aQ5,2020-0188,2021-10-31,11:43:07,13:29:16,NA,incomplete,false,NA,true,NA,1,10,NA,NA,NA,right,NA,NA,NA,present,NA,NA,n_l_006.jpg,purple,n_l_018.jpg,purple,within,NA,NaN,NA,NA,NA,NA,right,5381.899999856949,1,1,1713.2000000476837
Npp14aQ5,3icohx7eofotocxdgkfntnxuj980e9,3tayzsbplpl3hp33n488qcqgmc92ss,Npp14aQ5,2020-0188,2021-10-31,11:43:07,13:29:16,NA,incomplete,false,true,NA,NA,2,0,NA,white,n_s_075.jpg,NA,NA,NA,NA,NA,unpleasant,pleasant,NA,NA,NA,NA,NA,right,3250.69999980927,true,NA,NA,NA,NA,NA,NA,NA,NA
Npp14aQ5,3icohx7eofotocxdgkfntnxuj980e9,3tayzsbplpl3hp33n488qcqgmc92ss,Npp14aQ5,2020-0188,2021-10-31,11:43:07,13:29:16,NA,incomplete,false,true,NA,NA,2,1,NA,white,n_s_009.jpg,NA,NA,NA,NA,NA,pleasant,unpleasant,NA,NA,NA,NA,NA,left,1810.5,true,NA,NA,NA,NA,NA,NA,NA,NA
Npp14aQ5,3icohx7eofotocxdgkfntnxuj980e9,3tayzsbplpl3hp33n488qcqgmc92ss,Npp14aQ5,2020-0188,2021-10-31,11:43:07,13:29:16,NA,incomplete,false,true,NA,NA,2,2,NA,white,m_s_112.jpg,NA,NA,NA,NA,NA,unpleasant,pleasant,NA,NA,NA,NA,NA,right,2180.60000014305,true,NA,NA,NA,NA,NA,NA,NA,NA
Npp14aQ5,3icohx7eofotocxdgkfntnxuj980e9,3tayzsbplpl3hp33n488qcqgmc92ss,Npp14aQ5,2020-0188,2021-10-31,11:43:07,13:29:16,NA,incomplete,false,true,NA,NA,2,3,NA,white,m_l_095.jpg,NA,NA,NA,NA,NA,pleasant,unpleasant,NA,NA,NA,NA,NA,left,1789.29999995232,true,NA,NA,NA,NA,NA,NA,NA,NA
Npp14aQ5,3icohx7eofotocxdgkfntnxuj980e9,3tayzsbplpl3hp33n488qcqgmc92ss,Npp14aQ5,2020-0188,2021-10-31,11:43:07,13:29:16,NA,incomplete,false,true,NA,NA,2,4,NA,white,m_l_090.jpg,NA,NA,NA,NA,NA,pleasant,unpleasant,NA,NA,NA,NA,NA,right,1889.10000014305,true,NA,NA,NA,NA,NA,NA,NA,NA
Npp14aQ5,3icohx7eofotocxdgkfntnxuj980e9,3tayzsbplpl3hp33n488qcqgmc92ss,Npp14aQ5,2020-0188,2021-10-31,11:43:07,13:29:16,NA,incomplete,false,true,NA,NA,2,5,NA,white,n_l_072.jpg,NA,NA,NA,NA,NA,pleasant,unpleasant,NA,NA,NA,NA,NA,left,2390.90000009537,true,NA,NA,NA,NA,NA,NA,NA,NA
Npp14aQ5,3icohx7eofotocxdgkfntnxuj980e9,3tayzsbplpl3hp33n488qcqgmc92ss,Npp14aQ5,2020-0188,2021-10-31,11:43:07,13:29:16,NA,incomplete,false,true,NA,NA,2,6,NA,brown,n_s_084.jpg,NA,NA,NA,NA,NA,pleasant,unpleasant,NA,NA,NA,NA,NA,right,2495.09999990463,true,NA,NA,NA,NA,NA,NA,NA,NA
Npp14aQ5,3icohx7eofotocxdgkfntnxuj980e9,3tayzsbplpl3hp33n488qcqgmc92ss,Npp14aQ5,2020-0188,2021-10-31,11:43:07,13:29:16,NA,incomplete,false,true,NA,NA,2,7,NA,brown,n_s_091.jpg,NA,NA,NA,NA,NA,pleasant,unpleasant,NA,NA,NA,NA,NA,right,1927.39999985695,true,NA,NA,NA,NA,NA,NA,NA,NA
Npp14aQ5,3icohx7eofotocxdgkfntnxuj980e9,3tayzsbplpl3hp33n488qcqgmc92ss,Npp14aQ5,2020-0188,2021-10-31,11:43:07,13:29:16,NA,incomplete,false,true,NA,NA,2,8,NA,brown,n_s_053.jpg,NA,NA,NA,NA,NA,pleasant,unpleasant,NA,NA,NA,NA,NA,right,1895.29999995232,true,NA,NA,NA,NA,NA,NA,NA,NA
Npp14aQ5,3icohx7eofotocxdgkfntnxuj980e9,3tayzsbplpl3hp33n488qcqgmc92ss,Npp14aQ5,2020-0188,2021-10-31,11:43:07,13:29:16,NA,incomplete,false,true,NA,NA,2,9,NA,brown,n_l_073.jpg,NA,NA,NA,NA,NA,pleasant,unpleasant,NA,NA,NA,NA,NA,left,1998.39999985695,true,NA,NA,NA,NA,NA,NA,NA,NA
Npp14aQ5,3icohx7eofotocxdgkfntnxuj980e9,3tayzsbplpl3hp33n488qcqgmc92ss,Npp14aQ5,2020-0188,2021-10-31,11:43:07,13:29:16,NA,incomplete,false,true,NA,NA,2,10,NA,brown,n_l_082.jpg,NA,NA,NA,NA,NA,pleasant,unpleasant,NA,NA,NA,NA,NA,left,2082.70000004768,true,NA,NA,NA,NA,NA,NA,NA,NA
Npp14aQ5,3icohx7eofotocxdgkfntnxuj980e9,3tayzsbplpl3hp33n488qcqgmc92ss,Npp14aQ5,2020-0188,2021-10-31,11:43:07,13:29:16,NA,incomplete,false,true,NA,NA,2,11,NA,brown,n_l_053.jpg,NA,NA,NA,NA,NA,unpleasant,pleasant,NA,NA,NA,NA,NA,none,0,false,NA,NA,NA,NA,NA,NA,NA,NA
Npp14aQ5,3icohx7eofotocxdgkfntnxuj980e9,3tayzsbplpl3hp33n488qcqgmc92ss,Npp14aQ5,2020-0188,2021-10-31,11:43:07,13:29:16,NA,incomplete,false,true,NA,NA,2,12,NA,red,m_s_070.jpg,NA,NA,NA,NA,NA,pleasant,unpleasant,NA,NA,NA,NA,NA,right,2778.29999995232,true,NA,NA,NA,NA,NA,NA,NA,NA
Npp14aQ5,3icohx7eofotocxdgkfntnxuj980e9,3tayzsbplpl3hp33n488qcqgmc92ss,Npp14aQ5,2020-0188,2021-10-31,11:43:07,13:29:16,NA,incomplete,false,true,NA,NA,2,13,NA,red,n_s_071.jpg,NA,NA,NA,NA,NA,unpleasant,pleasant,NA,NA,NA,NA,NA,right,2520.09999990463,true,NA,NA,NA,NA,NA,NA,NA,NA
Npp14aQ5,3icohx7eofotocxdgkfntnxuj980e9,3tayzsbplpl3hp33n488qcqgmc92ss,Npp14aQ5,2020-0188,2021-10-31,11:43:07,13:29:16,NA,incomplete,false,true,NA,NA,2,14,NA,red,n_l_097.jpg,NA,NA,NA,NA,NA,pleasant,unpleasant,NA,NA,NA,NA,NA,left,2043.79999995232,true,NA,NA,NA,NA,NA,NA,NA,NA
Npp14aQ5,3icohx7eofotocxdgkfntnxuj980e9,3tayzsbplpl3hp33n488qcqgmc92ss,Npp14aQ5,2020-0188,2021-10-31,11:43:07,13:29:16,NA,incomplete,false,true,NA,NA,2,15,NA,red,m_s_059.jpg,NA,NA,NA,NA,NA,unpleasant,pleasant,NA,NA,NA,NA,NA,left,2451.60000014305,true,NA,NA,NA,NA,NA,NA,NA,NA
Npp14aQ5,3icohx7eofotocxdgkfntnxuj980e9,3tayzsbplpl3hp33n488qcqgmc92ss,Npp14aQ5,2020-0188,2021-10-31,11:43:07,13:29:16,NA,incomplete,false,true,NA,NA,2,16,NA,red,m_l_092.jpg,NA,NA,NA,NA,NA,pleasant,unpleasant,NA,NA,NA,NA,NA,left,2931.70000004768,true,NA,NA,NA,NA,NA,NA,NA,NA
Npp14aQ5,3icohx7eofotocxdgkfntnxuj980e9,3tayzsbplpl3hp33n488qcqgmc92ss,Npp14aQ5,2020-0188,2021-10-31,11:43:07,13:29:16,NA,incomplete,false,true,NA,NA,2,17,NA,red,m_l_034.jpg,NA,NA,NA,NA,NA,pleasant,unpleasant,NA,NA,NA,NA,NA,left,2748.79999995232,true,NA,NA,NA,NA,NA,NA,NA,NA
Npp14aQ5,3icohx7eofotocxdgkfntnxuj980e9,3tayzsbplpl3hp33n488qcqgmc92ss,Npp14aQ5,2020-0188,2021-10-31,11:43:07,13:29:16,NA,incomplete,false,true,NA,NA,2,18,NA,purple,n_l_033.jpg,NA,NA,NA,NA,NA,unpleasant,pleasant,NA,NA,NA,NA,NA,left,2039.79999995232,true,NA,NA,NA,NA,NA,NA,NA,NA
Npp14aQ5,3icohx7eofotocxdgkfntnxuj980e9,3tayzsbplpl3hp33n488qcqgmc92ss,Npp14aQ5,2020-0188,2021-10-31,11:43:07,13:29:16,NA,incomplete,false,true,NA,NA,2,19,NA,purple,m_l_053.jpg,NA,NA,NA,NA,NA,unpleasant,pleasant,NA,NA,NA,NA,NA,right,2390,true,NA,NA,NA,NA,NA,NA,NA,NA
Npp14aQ5,3icohx7eofotocxdgkfntnxuj980e9,3tayzsbplpl3hp33n488qcqgmc92ss,Npp14aQ5,2020-0188,2021-10-31,11:43:07,13:29:16,NA,incomplete,false,true,NA,NA,2,20,NA,purple,n_s_048.jpg,NA,NA,NA,NA,NA,unpleasant,pleasant,NA,NA,NA,NA,NA,left,1932.20000004768,true,NA,NA,NA,NA,NA,NA,NA,NA
Npp14aQ5,3icohx7eofotocxdgkfntnxuj980e9,3tayzsbplpl3hp33n488qcqgmc92ss,Npp14aQ5,2020-0188,2021-10-31,11:43:07,13:29:16,NA,incomplete,false,true,NA,NA,2,21,NA,purple,m_s_095.jpg,NA,NA,NA,NA,NA,unpleasant,pleasant,NA,NA,NA,NA,NA,left,2290,true,NA,NA,NA,NA,NA,NA,NA,NA
Npp14aQ5,3icohx7eofotocxdgkfntnxuj980e9,3tayzsbplpl3hp33n488qcqgmc92ss,Npp14aQ5,2020-0188,2021-10-31,11:43:07,13:29:16,NA,incomplete,false,true,NA,NA,2,22,NA,purple,m_s_066.jpg,NA,NA,NA,NA,NA,pleasant,unpleasant,NA,NA,NA,NA,NA,right,2240.5,true,NA,NA,NA,NA,NA,NA,NA,NA
Npp14aQ5,3icohx7eofotocxdgkfntnxuj980e9,3tayzsbplpl3hp33n488qcqgmc92ss,Npp14aQ5,2020-0188,2021-10-31,11:43:07,13:29:16,NA,incomplete,false,true,NA,NA,2,23,NA,purple,n_l_079.jpg,NA,NA,NA,NA,NA,pleasant,unpleasant,NA,NA,NA,NA,NA,left,3015.20000004768,true,NA,NA,NA,NA,NA,NA,NA,NA
Npp14aQ5,3icohx7eofotocxdgkfntnxuj980e9,3tayzsbplpl3hp33n488qcqgmc92ss,Npp14aQ5,2020-0188,2021-10-31,11:43:07,13:29:16,NA,incomplete,false,true,NA,NA,2,24,NA,black,m_s_099.jpg,NA,NA,NA,NA,NA,unpleasant,pleasant,NA,NA,NA,NA,NA,right,2545.09999990463,true,NA,NA,NA,NA,NA,NA,NA,NA
Npp14aQ5,3icohx7eofotocxdgkfntnxuj980e9,3tayzsbplpl3hp33n488qcqgmc92ss,Npp14aQ5,2020-0188,2021-10-31,11:43:07,13:29:16,NA,incomplete,false,true,NA,NA,2,25,NA,black,m_s_106.jpg,NA,NA,NA,NA,NA,unpleasant,pleasant,NA,NA,NA,NA,NA,right,2625,true,NA,NA,NA,NA,NA,NA,NA,NA
Npp14aQ5,3icohx7eofotocxdgkfntnxuj980e9,3tayzsbplpl3hp33n488qcqgmc92ss,Npp14aQ5,2020-0188,2021-10-31,11:43:07,13:29:16,NA,incomplete,false,true,NA,NA,2,26,NA,black,n_l_111.jpg,NA,NA,NA,NA,NA,unpleasant,pleasant,NA,NA,NA,NA,NA,left,2470.5,true,NA,NA,NA,NA,NA,NA,NA,NA
Npp14aQ5,3icohx7eofotocxdgkfntnxuj980e9,3tayzsbplpl3hp33n488qcqgmc92ss,Npp14aQ5,2020-0188,2021-10-31,11:43:07,13:29:16,NA,incomplete,false,true,NA,NA,2,27,NA,black,m_l_025.jpg,NA,NA,NA,NA,NA,pleasant,unpleasant,NA,NA,NA,NA,NA,left,1778.70000004768,true,NA,NA,NA,NA,NA,NA,NA,NA
Npp14aQ5,3icohx7eofotocxdgkfntnxuj980e9,3tayzsbplpl3hp33n488qcqgmc92ss,Npp14aQ5,2020-0188,2021-10-31,11:43:07,13:29:16,NA,incomplete,false,true,NA,NA,2,28,NA,black,m_s_086.jpg,NA,NA,NA,NA,NA,unpleasant,pleasant,NA,NA,NA,NA,NA,left,2918,true,NA,NA,NA,NA,NA,NA,NA,NA
Npp14aQ5,3icohx7eofotocxdgkfntnxuj980e9,3tayzsbplpl3hp33n488qcqgmc92ss,Npp14aQ5,2020-0188,2021-10-31,11:43:07,13:29:16,NA,incomplete,false,true,NA,NA,2,29,NA,black,m_s_036.jpg,NA,NA,NA,NA,NA,pleasant,unpleasant,NA,NA,NA,NA,NA,left,2235.29999995232,true,NA,NA,NA,NA,NA,NA,NA,NA
Npp14aQ5,3icohx7eofotocxdgkfntnxuj980e9,3tayzsbplpl3hp33n488qcqgmc92ss,Npp14aQ5,2020-0188,2021-10-31,11:43:07,13:29:16,NA,incomplete,false,true,NA,NA,2,30,NA,blue,n_s_051.jpg,NA,NA,NA,NA,NA,unpleasant,pleasant,NA,NA,NA,NA,NA,right,2766.59999990463,true,NA,NA,NA,NA,NA,NA,NA,NA
Npp14aQ5,3icohx7eofotocxdgkfntnxuj980e9,3tayzsbplpl3hp33n488qcqgmc92ss,Npp14aQ5,2020-0188,2021-10-31,11:43:07,13:29:16,NA,incomplete,false,true,NA,NA,2,31,NA,blue,m_s_018.jpg,NA,NA,NA,NA,NA,unpleasant,pleasant,NA,NA,NA,NA,NA,right,2240.19999980927,true,NA,NA,NA,NA,NA,NA,NA,NA
Npp14aQ5,3icohx7eofotocxdgkfntnxuj980e9,3tayzsbplpl3hp33n488qcqgmc92ss,Npp14aQ5,2020-0188,2021-10-31,11:43:07,13:29:16,NA,incomplete,false,true,NA,NA,2,32,NA,blue,n_s_029.jpg,NA,NA,NA,NA,NA,pleasant,unpleasant,NA,NA,NA,NA,NA,left,1927.19999980927,true,NA,NA,NA,NA,NA,NA,NA,NA
Npp14aQ5,3icohx7eofotocxdgkfntnxuj980e9,3tayzsbplpl3hp33n488qcqgmc92ss,Npp14aQ5,2020-0188,2021-10-31,11:43:07,13:29:16,NA,incomplete,false,true,NA,NA,2,33,NA,blue,n_l_037.jpg,NA,NA,NA,NA,NA,unpleasant,pleasant,NA,NA,NA,NA,NA,left,2079,true,NA,NA,NA,NA,NA,NA,NA,NA
Npp14aQ5,3icohx7eofotocxdgkfntnxuj980e9,3tayzsbplpl3hp33n488qcqgmc92ss,Npp14aQ5,2020-0188,2021-10-31,11:43:07,13:29:16,NA,incomplete,false,true,NA,NA,2,34,NA,blue,m_l_003.jpg,NA,NA,NA,NA,NA,unpleasant,pleasant,NA,NA,NA,NA,NA,right,2021.79999995232,true,NA,NA,NA,NA,NA,NA,NA,NA
Npp14aQ5,3icohx7eofotocxdgkfntnxuj980e9,3tayzsbplpl3hp33n488qcqgmc92ss,Npp14aQ5,2020-0188,2021-10-31,11:43:07,13:29:16,NA,incomplete,false,true,NA,NA,2,35,NA,blue,n_s_004.jpg,NA,NA,NA,NA,NA,unpleasant,pleasant,NA,NA,NA,NA,NA,left,2011.09999990463,true,NA,NA,NA,NA,NA,NA,NA,NA
Npp14aQ5,3icohx7eofotocxdgkfntnxuj980e9,3tayzsbplpl3hp33n488qcqgmc92ss,Npp14aQ5,2020-0188,2021-10-31,11:43:07,13:29:16,NA,incomplete,false,NA,NA,true,2,0,NA,NA,NA,right,n_l_111.jpg,purple,black,NA,NA,NA,NA,NA,NA,NA,NA,NA,NaN,NA,3661.5,right,1,NA,NA,NA,NA,NA
Npp14aQ5,3icohx7eofotocxdgkfntnxuj980e9,3tayzsbplpl3hp33n488qcqgmc92ss,Npp14aQ5,2020-0188,2021-10-31,11:43:07,13:29:16,NA,incomplete,false,NA,NA,true,2,1,NA,NA,NA,right,m_l_090.jpg,brown,white,NA,NA,NA,NA,NA,NA,NA,NA,NA,NaN,NA,3607.7000000476837,right,1,NA,NA,NA,NA,NA
Npp14aQ5,3icohx7eofotocxdgkfntnxuj980e9,3tayzsbplpl3hp33n488qcqgmc92ss,Npp14aQ5,2020-0188,2021-10-31,11:43:07,13:29:16,NA,incomplete,false,NA,NA,true,2,2,NA,NA,NA,right,m_l_034.jpg,purple,red,NA,NA,NA,NA,NA,NA,NA,NA,NA,NaN,NA,4105.400000095367,right,1,NA,NA,NA,NA,NA
Npp14aQ5,3icohx7eofotocxdgkfntnxuj980e9,3tayzsbplpl3hp33n488qcqgmc92ss,Npp14aQ5,2020-0188,2021-10-31,11:43:07,13:29:16,NA,incomplete,false,NA,NA,true,2,3,NA,NA,NA,left,n_s_048.jpg,purple,black,NA,NA,NA,NA,NA,NA,NA,NA,NA,NaN,NA,2906.2999999523163,left,1,NA,NA,NA,NA,NA
Npp14aQ5,3icohx7eofotocxdgkfntnxuj980e9,3tayzsbplpl3hp33n488qcqgmc92ss,Npp14aQ5,2020-0188,2021-10-31,11:43:07,13:29:16,NA,incomplete,false,NA,NA,true,2,4,NA,NA,NA,right,n_s_071.jpg,purple,red,NA,NA,NA,NA,NA,NA,NA,NA,NA,NaN,NA,2690.5,right,1,NA,NA,NA,NA,NA
Npp14aQ5,3icohx7eofotocxdgkfntnxuj980e9,3tayzsbplpl3hp33n488qcqgmc92ss,Npp14aQ5,2020-0188,2021-10-31,11:43:07,13:29:16,NA,incomplete,false,NA,NA,true,2,5,NA,NA,NA,left,m_l_053.jpg,purple,black,NA,NA,NA,NA,NA,NA,NA,NA,NA,NaN,NA,3141.399999856949,left,1,NA,NA,NA,NA,NA
Npp14aQ5,3icohx7eofotocxdgkfntnxuj980e9,3tayzsbplpl3hp33n488qcqgmc92ss,Npp14aQ5,2020-0188,2021-10-31,11:43:07,13:29:16,NA,incomplete,false,NA,NA,true,2,6,NA,NA,NA,right,n_l_079.jpg,red,purple,NA,NA,NA,NA,NA,NA,NA,NA,NA,NaN,NA,2706.5999999046326,right,1,NA,NA,NA,NA,NA
Npp14aQ5,3icohx7eofotocxdgkfntnxuj980e9,3tayzsbplpl3hp33n488qcqgmc92ss,Npp14aQ5,2020-0188,2021-10-31,11:43:07,13:29:16,NA,incomplete,false,NA,NA,true,2,7,NA,NA,NA,right,n_s_091.jpg,red,brown,NA,NA,NA,NA,NA,NA,NA,NA,NA,NaN,NA,2984,right,1,NA,NA,NA,NA,NA
Npp14aQ5,3icohx7eofotocxdgkfntnxuj980e9,3tayzsbplpl3hp33n488qcqgmc92ss,Npp14aQ5,2020-0188,2021-10-31,11:43:07,13:29:16,NA,incomplete,false,NA,NA,true,2,8,NA,NA,NA,left,m_s_086.jpg,black,purple,NA,NA,NA,NA,NA,NA,NA,NA,NA,NaN,NA,3605.399999856949,left,1,NA,NA,NA,NA,NA
Npp14aQ5,3icohx7eofotocxdgkfntnxuj980e9,3tayzsbplpl3hp33n488qcqgmc92ss,Npp14aQ5,2020-0188,2021-10-31,11:43:07,13:29:16,NA,incomplete,false,NA,NA,true,2,9,NA,NA,NA,right,n_s_009.jpg,brown,white,NA,NA,NA,NA,NA,NA,NA,NA,NA,NaN,NA,9200,right,1,NA,NA,NA,NA,NA
Npp14aQ5,3icohx7eofotocxdgkfntnxuj980e9,3tayzsbplpl3hp33n488qcqgmc92ss,Npp14aQ5,2020-0188,2021-10-31,11:43:07,13:29:16,NA,incomplete,false,NA,NA,true,2,10,NA,NA,NA,right,m_s_018.jpg,black,blue,NA,NA,NA,NA,NA,NA,NA,NA,NA,NaN,NA,2987.7000000476837,right,1,NA,NA,NA,NA,NA
Npp14aQ5,3icohx7eofotocxdgkfntnxuj980e9,3tayzsbplpl3hp33n488qcqgmc92ss,Npp14aQ5,2020-0188,2021-10-31,11:43:07,13:29:16,NA,incomplete,false,NA,NA,true,2,11,NA,NA,NA,left,m_s_106.jpg,black,purple,NA,NA,NA,NA,NA,NA,NA,NA,NA,NaN,NA,3573.5999999046326,left,1,NA,NA,NA,NA,NA
Npp14aQ5,3icohx7eofotocxdgkfntnxuj980e9,3tayzsbplpl3hp33n488qcqgmc92ss,Npp14aQ5,2020-0188,2021-10-31,11:43:07,13:29:16,NA,incomplete,false,NA,NA,true,2,12,NA,NA,NA,left,m_s_066.jpg,purple,red,NA,NA,NA,NA,NA,NA,NA,NA,NA,NaN,NA,26399.200000047684,left,1,NA,NA,NA,NA,NA
Npp14aQ5,3icohx7eofotocxdgkfntnxuj980e9,3tayzsbplpl3hp33n488qcqgmc92ss,Npp14aQ5,2020-0188,2021-10-31,11:43:07,13:29:16,NA,incomplete,false,NA,NA,true,2,13,NA,NA,NA,right,m_l_092.jpg,purple,red,NA,NA,NA,NA,NA,NA,NA,NA,NA,NaN,NA,5101.800000190735,right,1,NA,NA,NA,NA,NA
Npp14aQ5,3icohx7eofotocxdgkfntnxuj980e9,3tayzsbplpl3hp33n488qcqgmc92ss,Npp14aQ5,2020-0188,2021-10-31,11:43:07,13:29:16,NA,incomplete,false,NA,NA,true,2,14,NA,NA,NA,left,n_l_053.jpg,brown,red,NA,NA,NA,NA,NA,NA,NA,NA,NA,NaN,NA,3027.899999856949,left,1,NA,NA,NA,NA,NA
Npp14aQ5,3icohx7eofotocxdgkfntnxuj980e9,3tayzsbplpl3hp33n488qcqgmc92ss,Npp14aQ5,2020-0188,2021-10-31,11:43:07,13:29:16,NA,incomplete,false,NA,NA,true,2,15,NA,NA,NA,left,n_s_004.jpg,blue,black,NA,NA,NA,NA,NA,NA,NA,NA,NA,NaN,NA,2745.7000000476837,left,1,NA,NA,NA,NA,NA
Npp14aQ5,3icohx7eofotocxdgkfntnxuj980e9,3tayzsbplpl3hp33n488qcqgmc92ss,Npp14aQ5,2020-0188,2021-10-31,11:43:07,13:29:16,NA,incomplete,false,NA,NA,true,2,16,NA,NA,NA,right,n_l_097.jpg,purple,red,NA,NA,NA,NA,NA,NA,NA,NA,NA,NaN,NA,6119.5,right,1,NA,NA,NA,NA,NA
Npp14aQ5,3icohx7eofotocxdgkfntnxuj980e9,3tayzsbplpl3hp33n488qcqgmc92ss,Npp14aQ5,2020-0188,2021-10-31,11:43:07,13:29:16,NA,incomplete,false,NA,NA,true,2,17,NA,NA,NA,left,n_s_029.jpg,blue,black,NA,NA,NA,NA,NA,NA,NA,NA,NA,NaN,NA,3587.199999809265,left,1,NA,NA,NA,NA,NA
Npp14aQ5,3icohx7eofotocxdgkfntnxuj980e9,3tayzsbplpl3hp33n488qcqgmc92ss,Npp14aQ5,2020-0188,2021-10-31,11:43:07,13:29:16,NA,incomplete,false,NA,NA,true,2,18,NA,NA,NA,left,n_l_072.jpg,white,brown,NA,NA,NA,NA,NA,NA,NA,NA,NA,NaN,NA,3165.5,left,1,NA,NA,NA,NA,NA
Npp14aQ5,3icohx7eofotocxdgkfntnxuj980e9,3tayzsbplpl3hp33n488qcqgmc92ss,Npp14aQ5,2020-0188,2021-10-31,11:43:07,13:29:16,NA,incomplete,false,NA,NA,true,2,19,NA,NA,NA,left,n_l_082.jpg,brown,white,NA,NA,NA,NA,NA,NA,NA,NA,NA,NaN,NA,4849.099999904633,left,1,NA,NA,NA,NA,NA
Npp14aQ5,3icohx7eofotocxdgkfntnxuj980e9,3tayzsbplpl3hp33n488qcqgmc92ss,Npp14aQ5,2020-0188,2021-10-31,11:43:07,13:29:16,NA,incomplete,false,NA,NA,true,2,20,NA,NA,NA,left,m_s_036.jpg,black,blue,NA,NA,NA,NA,NA,NA,NA,NA,NA,NaN,NA,5550.700000047684,left,1,NA,NA,NA,NA,NA
Npp14aQ5,3icohx7eofotocxdgkfntnxuj980e9,3tayzsbplpl3hp33n488qcqgmc92ss,Npp14aQ5,2020-0188,2021-10-31,11:43:07,13:29:16,NA,incomplete,false,NA,NA,true,2,21,NA,NA,NA,right,n_s_053.jpg,white,brown,NA,NA,NA,NA,NA,NA,NA,NA,NA,NaN,NA,2733.2999999523163,right,1,NA,NA,NA,NA,NA
Npp14aQ5,3icohx7eofotocxdgkfntnxuj980e9,3tayzsbplpl3hp33n488qcqgmc92ss,Npp14aQ5,2020-0188,2021-10-31,11:43:07,13:29:16,NA,incomplete,false,NA,true,NA,2,0,NA,NA,NA,right,NA,NA,NA,present,NA,NA,n_s_053.jpg,brown,m_l_090.jpg,white,between,NA,NaN,NA,NA,NA,NA,right,8456.200000047684,1,2,5206.700000047684
Npp14aQ5,3icohx7eofotocxdgkfntnxuj980e9,3tayzsbplpl3hp33n488qcqgmc92ss,Npp14aQ5,2020-0188,2021-10-31,11:43:07,13:29:16,NA,incomplete,false,NA,true,NA,2,1,NA,NA,NA,right,NA,NA,NA,present,NA,NA,n_l_097.jpg,red,n_l_082.jpg,brown,between,NA,NaN,NA,NA,NA,NA,right,23260.099999904633,1,1,3970.5
Npp14aQ5,3icohx7eofotocxdgkfntnxuj980e9,3tayzsbplpl3hp33n488qcqgmc92ss,Npp14aQ5,2020-0188,2021-10-31,11:43:07,13:29:16,NA,incomplete,false,NA,true,NA,2,2,NA,NA,NA,right,NA,NA,NA,present,NA,NA,n_l_111.jpg,black,m_s_066.jpg,purple,between,NA,NaN,NA,NA,NA,NA,right,14087.5,1,2,2151.2999999523163
Npp14aQ5,3icohx7eofotocxdgkfntnxuj980e9,3tayzsbplpl3hp33n488qcqgmc92ss,Npp14aQ5,2020-0188,2021-10-31,11:43:07,13:29:16,NA,incomplete,false,NA,true,NA,2,3,NA,NA,NA,left,NA,NA,NA,present,NA,NA,m_l_092.jpg,red,n_s_048.jpg,purple,between,NA,NaN,NA,NA,NA,NA,left,18617.10000014305,1,2,2947.5999999046326
Npp14aQ5,3icohx7eofotocxdgkfntnxuj980e9,3tayzsbplpl3hp33n488qcqgmc92ss,Npp14aQ5,2020-0188,2021-10-31,11:43:07,13:29:16,NA,incomplete,false,NA,true,NA,2,4,NA,NA,NA,right,NA,NA,NA,present,NA,NA,n_s_029.jpg,blue,m_s_086.jpg,black,between,NA,NaN,NA,NA,NA,NA,right,24084.900000095367,1,2,1422.9000000953674
Npp14aQ5,3icohx7eofotocxdgkfntnxuj980e9,3tayzsbplpl3hp33n488qcqgmc92ss,Npp14aQ5,2020-0188,2021-10-31,11:43:07,13:29:16,NA,incomplete,false,NA,true,NA,2,5,NA,NA,NA,right,NA,NA,NA,present,NA,NA,n_l_053.jpg,brown,n_s_091.jpg,brown,within,NA,NaN,NA,NA,NA,NA,right,4656.199999809265,1,2,1138.5
Npp14aQ5,3icohx7eofotocxdgkfntnxuj980e9,3tayzsbplpl3hp33n488qcqgmc92ss,Npp14aQ5,2020-0188,2021-10-31,11:43:07,13:29:16,NA,incomplete,false,NA,true,NA,2,6,NA,NA,NA,right,NA,NA,NA,present,NA,NA,n_l_079.jpg,purple,m_l_053.jpg,purple,within,NA,NaN,NA,NA,NA,NA,right,6221.700000047684,1,2,1336.3999998569489
Npp14aQ5,3icohx7eofotocxdgkfntnxuj980e9,3tayzsbplpl3hp33n488qcqgmc92ss,Npp14aQ5,2020-0188,2021-10-31,11:43:07,13:29:16,NA,incomplete,false,NA,true,NA,2,7,NA,NA,NA,left,NA,NA,NA,present,NA,NA,n_s_071.jpg,red,m_l_034.jpg,red,within,NA,NaN,NA,NA,NA,NA,left,6437.700000047684,1,1,2933.2000000476837
Npp14aQ5,3icohx7eofotocxdgkfntnxuj980e9,3tayzsbplpl3hp33n488qcqgmc92ss,Npp14aQ5,2020-0188,2021-10-31,11:43:07,13:29:16,NA,incomplete,false,NA,true,NA,2,8,NA,NA,NA,right,NA,NA,NA,present,NA,NA,n_s_004.jpg,blue,m_s_018.jpg,blue,within,NA,NaN,NA,NA,NA,NA,right,6286.5,1,1,1605.6000001430511
Npp14aQ5,3icohx7eofotocxdgkfntnxuj980e9,3tayzsbplpl3hp33n488qcqgmc92ss,Npp14aQ5,2020-0188,2021-10-31,11:43:07,13:29:16,NA,incomplete,false,NA,true,NA,2,9,NA,NA,NA,left,NA,NA,NA,present,NA,NA,n_s_009.jpg,white,n_l_072.jpg,white,within,NA,NaN,NA,NA,NA,NA,left,4066.100000143051,1,1,1046.7000000476837
Npp14aQ5,3icohx7eofotocxdgkfntnxuj980e9,3tayzsbplpl3hp33n488qcqgmc92ss,Npp14aQ5,2020-0188,2021-10-31,11:43:07,13:29:16,NA,incomplete,false,NA,true,NA,2,10,NA,NA,NA,right,NA,NA,NA,present,NA,NA,m_s_036.jpg,black,m_s_106.jpg,black,within,NA,NaN,NA,NA,NA,NA,right,5818.799999952316,1,1,2130.100000143051
Npp14aQ5,3icohx7eofotocxdgkfntnxuj980e9,3tayzsbplpl3hp33n488qcqgmc92ss,Npp14aQ5,2020-0188,2021-10-31,11:43:07,13:29:16,NA,incomplete,false,true,NA,NA,3,0,NA,red,n_l_014.jpg,NA,NA,NA,NA,NA,pleasant,unpleasant,NA,NA,NA,NA,NA,right,1892.79999995232,true,NA,NA,NA,NA,NA,NA,NA,NA
Npp14aQ5,3icohx7eofotocxdgkfntnxuj980e9,3tayzsbplpl3hp33n488qcqgmc92ss,Npp14aQ5,2020-0188,2021-10-31,11:43:07,13:29:16,NA,incomplete,false,true,NA,NA,3,1,NA,red,n_s_062.jpg,NA,NA,NA,NA,NA,pleasant,unpleasant,NA,NA,NA,NA,NA,left,1648.5,true,NA,NA,NA,NA,NA,NA,NA,NA
Npp14aQ5,3icohx7eofotocxdgkfntnxuj980e9,3tayzsbplpl3hp33n488qcqgmc92ss,Npp14aQ5,2020-0188,2021-10-31,11:43:07,13:29:16,NA,incomplete,false,true,NA,NA,3,2,NA,red,m_l_042.jpg,NA,NA,NA,NA,NA,pleasant,unpleasant,NA,NA,NA,NA,NA,left,1673.59999990463,true,NA,NA,NA,NA,NA,NA,NA,NA
Npp14aQ5,3icohx7eofotocxdgkfntnxuj980e9,3tayzsbplpl3hp33n488qcqgmc92ss,Npp14aQ5,2020-0188,2021-10-31,11:43:07,13:29:16,NA,incomplete,false,true,NA,NA,3,3,NA,red,m_l_070.jpg,NA,NA,NA,NA,NA,unpleasant,pleasant,NA,NA,NA,NA,NA,right,1504.79999995232,true,NA,NA,NA,NA,NA,NA,NA,NA
Npp14aQ5,3icohx7eofotocxdgkfntnxuj980e9,3tayzsbplpl3hp33n488qcqgmc92ss,Npp14aQ5,2020-0188,2021-10-31,11:43:07,13:29:16,NA,incomplete,false,true,NA,NA,3,4,NA,red,n_s_083.jpg,NA,NA,NA,NA,NA,unpleasant,pleasant,NA,NA,NA,NA,NA,left,1395.29999995232,true,NA,NA,NA,NA,NA,NA,NA,NA
Npp14aQ5,3icohx7eofotocxdgkfntnxuj980e9,3tayzsbplpl3hp33n488qcqgmc92ss,Npp14aQ5,2020-0188,2021-10-31,11:43:07,13:29:16,NA,incomplete,false,true,NA,NA,3,5,NA,red,n_s_112.jpg,NA,NA,NA,NA,NA,unpleasant,pleasant,NA,NA,NA,NA,NA,right,1415.29999995232,true,NA,NA,NA,NA,NA,NA,NA,NA
Npp14aQ5,3icohx7eofotocxdgkfntnxuj980e9,3tayzsbplpl3hp33n488qcqgmc92ss,Npp14aQ5,2020-0188,2021-10-31,11:43:07,13:29:16,NA,incomplete,false,true,NA,NA,3,6,NA,green,m_l_029.jpg,NA,NA,NA,NA,NA,pleasant,unpleasant,NA,NA,NA,NA,NA,left,1311.10000014305,true,NA,NA,NA,NA,NA,NA,NA,NA
Npp14aQ5,3icohx7eofotocxdgkfntnxuj980e9,3tayzsbplpl3hp33n488qcqgmc92ss,Npp14aQ5,2020-0188,2021-10-31,11:43:07,13:29:16,NA,incomplete,false,true,NA,NA,3,7,NA,green,m_l_114.jpg,NA,NA,NA,NA,NA,pleasant,unpleasant,NA,NA,NA,NA,NA,right,1586.70000004768,true,NA,NA,NA,NA,NA,NA,NA,NA
Npp14aQ5,3icohx7eofotocxdgkfntnxuj980e9,3tayzsbplpl3hp33n488qcqgmc92ss,Npp14aQ5,2020-0188,2021-10-31,11:43:07,13:29:16,NA,incomplete,false,true,NA,NA,3,8,NA,green,n_l_063.jpg,NA,NA,NA,NA,NA,unpleasant,pleasant,NA,NA,NA,NA,NA,right,1914.69999980927,true,NA,NA,NA,NA,NA,NA,NA,NA
Npp14aQ5,3icohx7eofotocxdgkfntnxuj980e9,3tayzsbplpl3hp33n488qcqgmc92ss,Npp14aQ5,2020-0188,2021-10-31,11:43:07,13:29:16,NA,incomplete,false,true,NA,NA,3,9,NA,green,n_s_015.jpg,NA,NA,NA,NA,NA,pleasant,unpleasant,NA,NA,NA,NA,NA,left,1526.19999980927,true,NA,NA,NA,NA,NA,NA,NA,NA
Npp14aQ5,3icohx7eofotocxdgkfntnxuj980e9,3tayzsbplpl3hp33n488qcqgmc92ss,Npp14aQ5,2020-0188,2021-10-31,11:43:07,13:29:16,NA,incomplete,false,true,NA,NA,3,10,NA,green,n_l_062.jpg,NA,NA,NA,NA,NA,unpleasant,pleasant,NA,NA,NA,NA,NA,right,1821.29999995232,true,NA,NA,NA,NA,NA,NA,NA,NA
Npp14aQ5,3icohx7eofotocxdgkfntnxuj980e9,3tayzsbplpl3hp33n488qcqgmc92ss,Npp14aQ5,2020-0188,2021-10-31,11:43:07,13:29:16,NA,incomplete,false,true,NA,NA,3,11,NA,green,m_s_111.jpg,NA,NA,NA,NA,NA,unpleasant,pleasant,NA,NA,NA,NA,NA,right,1830.5,true,NA,NA,NA,NA,NA,NA,NA,NA
Npp14aQ5,3icohx7eofotocxdgkfntnxuj980e9,3tayzsbplpl3hp33n488qcqgmc92ss,Npp14aQ5,2020-0188,2021-10-31,11:43:07,13:29:16,NA,incomplete,false,true,NA,NA,3,12,NA,blue,n_l_036.jpg,NA,NA,NA,NA,NA,pleasant,unpleasant,NA,NA,NA,NA,NA,left,1722,true,NA,NA,NA,NA,NA,NA,NA,NA
Npp14aQ5,3icohx7eofotocxdgkfntnxuj980e9,3tayzsbplpl3hp33n488qcqgmc92ss,Npp14aQ5,2020-0188,2021-10-31,11:43:07,13:29:16,NA,incomplete,false,true,NA,NA,3,13,NA,blue,n_s_013.jpg,NA,NA,NA,NA,NA,pleasant,unpleasant,NA,NA,NA,NA,NA,left,1897.59999990463,true,NA,NA,NA,NA,NA,NA,NA,NA
Npp14aQ5,3icohx7eofotocxdgkfntnxuj980e9,3tayzsbplpl3hp33n488qcqgmc92ss,Npp14aQ5,2020-0188,2021-10-31,11:43:07,13:29:16,NA,incomplete,false,true,NA,NA,3,14,NA,blue,m_l_066.jpg,NA,NA,NA,NA,NA,pleasant,unpleasant,NA,NA,NA,NA,NA,right,2117.30000019073,true,NA,NA,NA,NA,NA,NA,NA,NA
Npp14aQ5,3icohx7eofotocxdgkfntnxuj980e9,3tayzsbplpl3hp33n488qcqgmc92ss,Npp14aQ5,2020-0188,2021-10-31,11:43:07,13:29:16,NA,incomplete,false,true,NA,NA,3,15,NA,blue,m_l_035.jpg,NA,NA,NA,NA,NA,pleasant,unpleasant,NA,NA,NA,NA,NA,right,2341.20000004768,true,NA,NA,NA,NA,NA,NA,NA,NA
Npp14aQ5,3icohx7eofotocxdgkfntnxuj980e9,3tayzsbplpl3hp33n488qcqgmc92ss,Npp14aQ5,2020-0188,2021-10-31,11:43:07,13:29:16,NA,incomplete,false,true,NA,NA,3,16,NA,blue,m_l_047.jpg,NA,NA,NA,NA,NA,unpleasant,pleasant,NA,NA,NA,NA,NA,left,1822.29999995232,true,NA,NA,NA,NA,NA,NA,NA,NA
Npp14aQ5,3icohx7eofotocxdgkfntnxuj980e9,3tayzsbplpl3hp33n488qcqgmc92ss,Npp14aQ5,2020-0188,2021-10-31,11:43:07,13:29:16,NA,incomplete,false,true,NA,NA,3,17,NA,blue,m_l_040.jpg,NA,NA,NA,NA,NA,unpleasant,pleasant,NA,NA,NA,NA,NA,left,1563.09999990463,true,NA,NA,NA,NA,NA,NA,NA,NA
Npp14aQ5,3icohx7eofotocxdgkfntnxuj980e9,3tayzsbplpl3hp33n488qcqgmc92ss,Npp14aQ5,2020-0188,2021-10-31,11:43:07,13:29:16,NA,incomplete,false,true,NA,NA,3,18,NA,yellow,m_s_085.jpg,NA,NA,NA,NA,NA,unpleasant,pleasant,NA,NA,NA,NA,NA,right,2328.29999995232,true,NA,NA,NA,NA,NA,NA,NA,NA
Npp14aQ5,3icohx7eofotocxdgkfntnxuj980e9,3tayzsbplpl3hp33n488qcqgmc92ss,Npp14aQ5,2020-0188,2021-10-31,11:43:07,13:29:16,NA,incomplete,false,true,NA,NA,3,19,NA,yellow,m_l_078.jpg,NA,NA,NA,NA,NA,unpleasant,pleasant,NA,NA,NA,NA,NA,left,1749.59999990463,true,NA,NA,NA,NA,NA,NA,NA,NA
Npp14aQ5,3icohx7eofotocxdgkfntnxuj980e9,3tayzsbplpl3hp33n488qcqgmc92ss,Npp14aQ5,2020-0188,2021-10-31,11:43:07,13:29:16,NA,incomplete,false,true,NA,NA,3,20,NA,yellow,n_s_065.jpg,NA,NA,NA,NA,NA,unpleasant,pleasant,NA,NA,NA,NA,NA,left,1608.20000004768,true,NA,NA,NA,NA,NA,NA,NA,NA
Npp14aQ5,3icohx7eofotocxdgkfntnxuj980e9,3tayzsbplpl3hp33n488qcqgmc92ss,Npp14aQ5,2020-0188,2021-10-31,11:43:07,13:29:16,NA,incomplete,false,true,NA,NA,3,21,NA,yellow,m_l_048.jpg,NA,NA,NA,NA,NA,pleasant,unpleasant,NA,NA,NA,NA,NA,left,1455.59999990463,true,NA,NA,NA,NA,NA,NA,NA,NA
Npp14aQ5,3icohx7eofotocxdgkfntnxuj980e9,3tayzsbplpl3hp33n488qcqgmc92ss,Npp14aQ5,2020-0188,2021-10-31,11:43:07,13:29:16,NA,incomplete,false,true,NA,NA,3,22,NA,yellow,n_l_013.jpg,NA,NA,NA,NA,NA,unpleasant,pleasant,NA,NA,NA,NA,NA,left,1555.70000004768,true,NA,NA,NA,NA,NA,NA,NA,NA
Npp14aQ5,3icohx7eofotocxdgkfntnxuj980e9,3tayzsbplpl3hp33n488qcqgmc92ss,Npp14aQ5,2020-0188,2021-10-31,11:43:07,13:29:16,NA,incomplete,false,true,NA,NA,3,23,NA,yellow,m_l_086.jpg,NA,NA,NA,NA,NA,pleasant,unpleasant,NA,NA,NA,NA,NA,left,2087.80000019073,true,NA,NA,NA,NA,NA,NA,NA,NA
Npp14aQ5,3icohx7eofotocxdgkfntnxuj980e9,3tayzsbplpl3hp33n488qcqgmc92ss,Npp14aQ5,2020-0188,2021-10-31,11:43:07,13:29:16,NA,incomplete,false,true,NA,NA,3,24,NA,black,n_s_036.jpg,NA,NA,NA,NA,NA,unpleasant,pleasant,NA,NA,NA,NA,NA,left,1860.79999995232,true,NA,NA,NA,NA,NA,NA,NA,NA
Npp14aQ5,3icohx7eofotocxdgkfntnxuj980e9,3tayzsbplpl3hp33n488qcqgmc92ss,Npp14aQ5,2020-0188,2021-10-31,11:43:07,13:29:16,NA,incomplete,false,true,NA,NA,3,25,NA,black,n_s_093.jpg,NA,NA,NA,NA,NA,unpleasant,pleasant,NA,NA,NA,NA,NA,left,1531.80000019073,true,NA,NA,NA,NA,NA,NA,NA,NA
Npp14aQ5,3icohx7eofotocxdgkfntnxuj980e9,3tayzsbplpl3hp33n488qcqgmc92ss,Npp14aQ5,2020-0188,2021-10-31,11:43:07,13:29:16,NA,incomplete,false,true,NA,NA,3,26,NA,black,n_s_037.jpg,NA,NA,NA,NA,NA,pleasant,unpleasant,NA,NA,NA,NA,NA,left,1630,true,NA,NA,NA,NA,NA,NA,NA,NA
Npp14aQ5,3icohx7eofotocxdgkfntnxuj980e9,3tayzsbplpl3hp33n488qcqgmc92ss,Npp14aQ5,2020-0188,2021-10-31,11:43:07,13:29:16,NA,incomplete,false,true,NA,NA,3,27,NA,black,m_s_043.jpg,NA,NA,NA,NA,NA,pleasant,unpleasant,NA,NA,NA,NA,NA,right,997.400000095367,true,NA,NA,NA,NA,NA,NA,NA,NA
Npp14aQ5,3icohx7eofotocxdgkfntnxuj980e9,3tayzsbplpl3hp33n488qcqgmc92ss,Npp14aQ5,2020-0188,2021-10-31,11:43:07,13:29:16,NA,incomplete,false,true,NA,NA,3,28,NA,black,m_l_044.jpg,NA,NA,NA,NA,NA,pleasant,unpleasant,NA,NA,NA,NA,NA,left,1889.70000004768,true,NA,NA,NA,NA,NA,NA,NA,NA
Npp14aQ5,3icohx7eofotocxdgkfntnxuj980e9,3tayzsbplpl3hp33n488qcqgmc92ss,Npp14aQ5,2020-0188,2021-10-31,11:43:07,13:29:16,NA,incomplete,false,true,NA,NA,3,29,NA,black,n_s_088.jpg,NA,NA,NA,NA,NA,unpleasant,pleasant,NA,NA,NA,NA,NA,right,1845,true,NA,NA,NA,NA,NA,NA,NA,NA
Npp14aQ5,3icohx7eofotocxdgkfntnxuj980e9,3tayzsbplpl3hp33n488qcqgmc92ss,Npp14aQ5,2020-0188,2021-10-31,11:43:07,13:29:16,NA,incomplete,false,true,NA,NA,3,30,NA,brown,n_s_001.jpg,NA,NA,NA,NA,NA,pleasant,unpleasant,NA,NA,NA,NA,NA,left,1718.5,true,NA,NA,NA,NA,NA,NA,NA,NA
Npp14aQ5,3icohx7eofotocxdgkfntnxuj980e9,3tayzsbplpl3hp33n488qcqgmc92ss,Npp14aQ5,2020-0188,2021-10-31,11:43:07,13:29:16,NA,incomplete,false,true,NA,NA,3,31,NA,brown,m_s_087.jpg,NA,NA,NA,NA,NA,pleasant,unpleasant,NA,NA,NA,NA,NA,left,2158,true,NA,NA,NA,NA,NA,NA,NA,NA
Npp14aQ5,3icohx7eofotocxdgkfntnxuj980e9,3tayzsbplpl3hp33n488qcqgmc92ss,Npp14aQ5,2020-0188,2021-10-31,11:43:07,13:29:16,NA,incomplete,false,true,NA,NA,3,32,NA,brown,n_l_042.jpg,NA,NA,NA,NA,NA,pleasant,unpleasant,NA,NA,NA,NA,NA,left,1608.79999995232,true,NA,NA,NA,NA,NA,NA,NA,NA
Npp14aQ5,3icohx7eofotocxdgkfntnxuj980e9,3tayzsbplpl3hp33n488qcqgmc92ss,Npp14aQ5,2020-0188,2021-10-31,11:43:07,13:29:16,NA,incomplete,false,true,NA,NA,3,33,NA,brown,n_l_091.jpg,NA,NA,NA,NA,NA,unpleasant,pleasant,NA,NA,NA,NA,NA,left,1405.29999995232,true,NA,NA,NA,NA,NA,NA,NA,NA
Npp14aQ5,3icohx7eofotocxdgkfntnxuj980e9,3tayzsbplpl3hp33n488qcqgmc92ss,Npp14aQ5,2020-0188,2021-10-31,11:43:07,13:29:16,NA,incomplete,false,true,NA,NA,3,34,NA,brown,n_l_108.jpg,NA,NA,NA,NA,NA,unpleasant,pleasant,NA,NA,NA,NA,NA,left,1492.10000014305,true,NA,NA,NA,NA,NA,NA,NA,NA
Npp14aQ5,3icohx7eofotocxdgkfntnxuj980e9,3tayzsbplpl3hp33n488qcqgmc92ss,Npp14aQ5,2020-0188,2021-10-31,11:43:07,13:29:16,NA,incomplete,false,true,NA,NA,3,35,NA,brown,m_l_061.jpg,NA,NA,NA,NA,NA,unpleasant,pleasant,NA,NA,NA,NA,NA,right,1482.79999995232,true,NA,NA,NA,NA,NA,NA,NA,NA
Npp14aQ5,3icohx7eofotocxdgkfntnxuj980e9,3tayzsbplpl3hp33n488qcqgmc92ss,Npp14aQ5,2020-0188,2021-10-31,11:43:07,13:29:16,NA,incomplete,false,NA,NA,true,3,0,NA,NA,NA,right,n_l_042.jpg,black,brown,NA,NA,NA,NA,NA,NA,NA,NA,NA,NaN,NA,3515.2000000476837,right,1,NA,NA,NA,NA,NA
Npp14aQ5,3icohx7eofotocxdgkfntnxuj980e9,3tayzsbplpl3hp33n488qcqgmc92ss,Npp14aQ5,2020-0188,2021-10-31,11:43:07,13:29:16,NA,incomplete,false,NA,NA,true,3,1,NA,NA,NA,left,m_l_086.jpg,yellow,black,NA,NA,NA,NA,NA,NA,NA,NA,NA,NaN,NA,3020.899999856949,left,1,NA,NA,NA,NA,NA
Npp14aQ5,3icohx7eofotocxdgkfntnxuj980e9,3tayzsbplpl3hp33n488qcqgmc92ss,Npp14aQ5,2020-0188,2021-10-31,11:43:07,13:29:16,NA,incomplete,false,NA,NA,true,3,2,NA,NA,NA,left,n_s_112.jpg,red,green,NA,NA,NA,NA,NA,NA,NA,NA,NA,NaN,NA,3869.800000190735,left,1,NA,NA,NA,NA,NA
Npp14aQ5,3icohx7eofotocxdgkfntnxuj980e9,3tayzsbplpl3hp33n488qcqgmc92ss,Npp14aQ5,2020-0188,2021-10-31,11:43:07,13:29:16,NA,incomplete,false,NA,NA,true,3,3,NA,NA,NA,left,n_s_083.jpg,red,green,NA,NA,NA,NA,NA,NA,NA,NA,NA,NaN,NA,2982.800000190735,left,1,NA,NA,NA,NA,NA
Npp14aQ5,3icohx7eofotocxdgkfntnxuj980e9,3tayzsbplpl3hp33n488qcqgmc92ss,Npp14aQ5,2020-0188,2021-10-31,11:43:07,13:29:16,NA,incomplete,false,NA,NA,true,3,4,NA,NA,NA,right,m_l_044.jpg,yellow,black,NA,NA,NA,NA,NA,NA,NA,NA,NA,NaN,NA,3348.0999999046326,right,1,NA,NA,NA,NA,NA
Npp14aQ5,3icohx7eofotocxdgkfntnxuj980e9,3tayzsbplpl3hp33n488qcqgmc92ss,Npp14aQ5,2020-0188,2021-10-31,11:43:07,13:29:16,NA,incomplete,false,NA,NA,true,3,5,NA,NA,NA,right,m_l_066.jpg,green,blue,NA,NA,NA,NA,NA,NA,NA,NA,NA,NaN,NA,3659.2000000476837,right,1,NA,NA,NA,NA,NA
Npp14aQ5,3icohx7eofotocxdgkfntnxuj980e9,3tayzsbplpl3hp33n488qcqgmc92ss,Npp14aQ5,2020-0188,2021-10-31,11:43:07,13:29:16,NA,incomplete,false,NA,NA,true,3,6,NA,NA,NA,right,n_l_013.jpg,blue,yellow,NA,NA,NA,NA,NA,NA,NA,NA,NA,NaN,NA,10248.899999856949,right,1,NA,NA,NA,NA,NA
Npp14aQ5,3icohx7eofotocxdgkfntnxuj980e9,3tayzsbplpl3hp33n488qcqgmc92ss,Npp14aQ5,2020-0188,2021-10-31,11:43:07,13:29:16,NA,incomplete,false,NA,NA,true,3,7,NA,NA,NA,left,m_s_087.jpg,brown,black,NA,NA,NA,NA,NA,NA,NA,NA,NA,NaN,NA,6951,left,1,NA,NA,NA,NA,NA
Npp14aQ5,3icohx7eofotocxdgkfntnxuj980e9,3tayzsbplpl3hp33n488qcqgmc92ss,Npp14aQ5,2020-0188,2021-10-31,11:43:07,13:29:16,NA,incomplete,false,NA,NA,true,3,8,NA,NA,NA,right,m_l_047.jpg,green,blue,NA,NA,NA,NA,NA,NA,NA,NA,NA,NaN,NA,2641,right,1,NA,NA,NA,NA,NA
Npp14aQ5,3icohx7eofotocxdgkfntnxuj980e9,3tayzsbplpl3hp33n488qcqgmc92ss,Npp14aQ5,2020-0188,2021-10-31,11:43:07,13:29:16,NA,incomplete,false,NA,NA,true,3,9,NA,NA,NA,right,n_s_062.jpg,green,red,NA,NA,NA,NA,NA,NA,NA,NA,NA,NaN,NA,3094.5,right,1,NA,NA,NA,NA,NA
Npp14aQ5,3icohx7eofotocxdgkfntnxuj980e9,3tayzsbplpl3hp33n488qcqgmc92ss,Npp14aQ5,2020-0188,2021-10-31,11:43:07,13:29:16,NA,incomplete,false,NA,NA,true,3,10,NA,NA,NA,right,n_s_093.jpg,brown,black,NA,NA,NA,NA,NA,NA,NA,NA,NA,NaN,NA,3495.7000000476837,right,1,NA,NA,NA,NA,NA
Npp14aQ5,3icohx7eofotocxdgkfntnxuj980e9,3tayzsbplpl3hp33n488qcqgmc92ss,Npp14aQ5,2020-0188,2021-10-31,11:43:07,13:29:16,NA,incomplete,false,NA,NA,true,3,11,NA,NA,NA,right,n_l_063.jpg,red,green,NA,NA,NA,NA,NA,NA,NA,NA,NA,NaN,NA,5591.700000047684,right,1,NA,NA,NA,NA,NA
Npp14aQ5,3icohx7eofotocxdgkfntnxuj980e9,3tayzsbplpl3hp33n488qcqgmc92ss,Npp14aQ5,2020-0188,2021-10-31,11:43:07,13:29:16,NA,incomplete,false,NA,NA,true,3,12,NA,NA,NA,left,n_s_065.jpg,yellow,blue,NA,NA,NA,NA,NA,NA,NA,NA,NA,NaN,NA,11946,left,1,NA,NA,NA,NA,NA
Npp14aQ5,3icohx7eofotocxdgkfntnxuj980e9,3tayzsbplpl3hp33n488qcqgmc92ss,Npp14aQ5,2020-0188,2021-10-31,11:43:07,13:29:16,NA,incomplete,false,NA,NA,true,3,13,NA,NA,NA,right,m_l_061.jpg,black,brown,NA,NA,NA,NA,NA,NA,NA,NA,NA,NaN,NA,6861.299999952316,right,1,NA,NA,NA,NA,NA
Npp14aQ5,3icohx7eofotocxdgkfntnxuj980e9,3tayzsbplpl3hp33n488qcqgmc92ss,Npp14aQ5,2020-0188,2021-10-31,11:43:07,13:29:16,NA,incomplete,false,NA,NA,true,3,14,NA,NA,NA,left,m_l_114.jpg,green,blue,NA,NA,NA,NA,NA,NA,NA,NA,NA,NaN,NA,10510.100000143051,left,1,NA,NA,NA,NA,NA
Npp14aQ5,3icohx7eofotocxdgkfntnxuj980e9,3tayzsbplpl3hp33n488qcqgmc92ss,Npp14aQ5,2020-0188,2021-10-31,11:43:07,13:29:16,NA,incomplete,false,NA,NA,true,3,15,NA,NA,NA,left,m_l_040.jpg,blue,yellow,NA,NA,NA,NA,NA,NA,NA,NA,NA,NaN,NA,5242,left,1,NA,NA,NA,NA,NA
Npp14aQ5,3icohx7eofotocxdgkfntnxuj980e9,3tayzsbplpl3hp33n488qcqgmc92ss,Npp14aQ5,2020-0188,2021-10-31,11:43:07,13:29:16,NA,incomplete,false,NA,NA,true,3,16,NA,NA,NA,left,n_s_088.jpg,black,yellow,NA,NA,NA,NA,NA,NA,NA,NA,NA,NaN,NA,5598.400000095367,left,1,NA,NA,NA,NA,NA
Npp14aQ5,3icohx7eofotocxdgkfntnxuj980e9,3tayzsbplpl3hp33n488qcqgmc92ss,Npp14aQ5,2020-0188,2021-10-31,11:43:07,13:29:16,NA,incomplete,false,NA,NA,true,3,17,NA,NA,NA,right,m_l_078.jpg,black,yellow,NA,NA,NA,NA,NA,NA,NA,NA,NA,NaN,NA,6192.400000095367,right,1,NA,NA,NA,NA,NA
Npp14aQ5,3icohx7eofotocxdgkfntnxuj980e9,3tayzsbplpl3hp33n488qcqgmc92ss,Npp14aQ5,2020-0188,2021-10-31,11:43:07,13:29:16,NA,incomplete,false,NA,NA,true,3,18,NA,NA,NA,left,n_l_062.jpg,green,blue,NA,NA,NA,NA,NA,NA,NA,NA,NA,NaN,NA,3366.5,left,1,NA,NA,NA,NA,NA
Npp14aQ5,3icohx7eofotocxdgkfntnxuj980e9,3tayzsbplpl3hp33n488qcqgmc92ss,Npp14aQ5,2020-0188,2021-10-31,11:43:07,13:29:16,NA,incomplete,false,NA,NA,true,3,19,NA,NA,NA,right,n_s_037.jpg,yellow,black,NA,NA,NA,NA,NA,NA,NA,NA,NA,NaN,NA,8740.799999952316,right,1,NA,NA,NA,NA,NA
Npp14aQ5,3icohx7eofotocxdgkfntnxuj980e9,3tayzsbplpl3hp33n488qcqgmc92ss,Npp14aQ5,2020-0188,2021-10-31,11:43:07,13:29:16,NA,incomplete,false,NA,NA,true,3,20,NA,NA,NA,right,m_s_111.jpg,red,green,NA,NA,NA,NA,NA,NA,NA,NA,NA,NaN,NA,3674.2999999523163,right,1,NA,NA,NA,NA,NA
Npp14aQ5,3icohx7eofotocxdgkfntnxuj980e9,3tayzsbplpl3hp33n488qcqgmc92ss,Npp14aQ5,2020-0188,2021-10-31,11:43:07,13:29:16,NA,incomplete,false,NA,NA,true,3,21,NA,NA,NA,right,n_s_013.jpg,green,blue,NA,NA,NA,NA,NA,NA,NA,NA,NA,NaN,NA,3801.0999999046326,right,1,NA,NA,NA,NA,NA
Npp14aQ5,3icohx7eofotocxdgkfntnxuj980e9,3tayzsbplpl3hp33n488qcqgmc92ss,Npp14aQ5,2020-0188,2021-10-31,11:43:07,13:29:16,NA,incomplete,false,NA,true,NA,3,0,NA,NA,NA,right,NA,NA,NA,present,NA,NA,m_l_061.jpg,brown,m_s_087.jpg,brown,within,NA,NaN,NA,NA,NA,NA,right,7608.5,1,1,1335
Npp14aQ5,3icohx7eofotocxdgkfntnxuj980e9,3tayzsbplpl3hp33n488qcqgmc92ss,Npp14aQ5,2020-0188,2021-10-31,11:43:07,13:29:16,NA,incomplete,false,NA,true,NA,3,1,NA,NA,NA,left,NA,NA,NA,present,NA,NA,m_l_114.jpg,green,m_s_111.jpg,green,within,NA,NaN,NA,NA,NA,NA,left,7550.400000095367,1,1,1185.9000000953674
Npp14aQ5,3icohx7eofotocxdgkfntnxuj980e9,3tayzsbplpl3hp33n488qcqgmc92ss,Npp14aQ5,2020-0188,2021-10-31,11:43:07,13:29:16,NA,incomplete,false,NA,true,NA,3,2,NA,NA,NA,left,NA,NA,NA,present,NA,NA,n_l_013.jpg,yellow,n_s_037.jpg,black,between,NA,NaN,NA,NA,NA,NA,left,6962.600000143051,1,2,1359.6999998092651
Npp14aQ5,3icohx7eofotocxdgkfntnxuj980e9,3tayzsbplpl3hp33n488qcqgmc92ss,Npp14aQ5,2020-0188,2021-10-31,11:43:07,13:29:16,NA,incomplete,false,NA,true,NA,3,3,NA,NA,NA,right,NA,NA,NA,present,NA,NA,m_l_086.jpg,yellow,m_l_078.jpg,yellow,within,NA,NaN,NA,NA,NA,NA,right,4452.199999809265,1,1,1252.3999998569489
Npp14aQ5,3icohx7eofotocxdgkfntnxuj980e9,3tayzsbplpl3hp33n488qcqgmc92ss,Npp14aQ5,2020-0188,2021-10-31,11:43:07,13:29:16,NA,incomplete,false,NA,true,NA,3,4,NA,NA,NA,right,NA,NA,NA,present,NA,NA,m_l_040.jpg,blue,n_s_013.jpg,blue,within,NA,NaN,NA,NA,NA,NA,right,6629.100000143051,1,1,1425.4000000953674
Npp14aQ5,3icohx7eofotocxdgkfntnxuj980e9,3tayzsbplpl3hp33n488qcqgmc92ss,Npp14aQ5,2020-0188,2021-10-31,11:43:07,13:29:16,NA,incomplete,false,NA,true,NA,3,5,NA,NA,NA,right,NA,NA,NA,present,NA,NA,n_s_112.jpg,red,n_s_062.jpg,red,within,NA,NaN,NA,NA,NA,NA,right,5078.200000047684,1,1,1309.3999998569489
Npp14aQ5,3icohx7eofotocxdgkfntnxuj980e9,3tayzsbplpl3hp33n488qcqgmc92ss,Npp14aQ5,2020-0188,2021-10-31,11:43:07,13:29:16,NA,incomplete,false,NA,true,NA,3,6,NA,NA,NA,right,NA,NA,NA,present,NA,NA,n_l_042.jpg,brown,m_l_044.jpg,black,between,NA,NaN,NA,NA,NA,NA,right,7362.300000190735,1,2,11629
Npp14aQ5,3icohx7eofotocxdgkfntnxuj980e9,3tayzsbplpl3hp33n488qcqgmc92ss,Npp14aQ5,2020-0188,2021-10-31,11:43:07,13:29:16,NA,incomplete,false,NA,true,NA,3,7,NA,NA,NA,right,NA,NA,NA,present,NA,NA,n_s_065.jpg,yellow,m_l_047.jpg,blue,between,NA,NaN,NA,NA,NA,NA,right,5840.5,1,2,1137.8999998569489
Npp14aQ5,3icohx7eofotocxdgkfntnxuj980e9,3tayzsbplpl3hp33n488qcqgmc92ss,Npp14aQ5,2020-0188,2021-10-31,11:43:07,13:29:16,NA,incomplete,false,NA,true,NA,3,8,NA,NA,NA,right,NA,NA,NA,present,NA,NA,n_l_063.jpg,green,n_s_083.jpg,red,between,NA,NaN,NA,NA,NA,NA,right,13267.200000047684,1,2,1337.0999999046326
Npp14aQ5,3icohx7eofotocxdgkfntnxuj980e9,3tayzsbplpl3hp33n488qcqgmc92ss,Npp14aQ5,2020-0188,2021-10-31,11:43:07,13:29:16,NA,incomplete,false,NA,true,NA,3,9,NA,NA,NA,left,NA,NA,NA,present,NA,NA,n_s_093.jpg,black,n_s_088.jpg,black,within,NA,NaN,NA,NA,NA,NA,left,7161.200000047684,1,1,2281.9000000953674
Npp14aQ5,3icohx7eofotocxdgkfntnxuj980e9,3tayzsbplpl3hp33n488qcqgmc92ss,Npp14aQ5,2020-0188,2021-10-31,11:43:07,13:29:16,NA,incomplete,false,NA,true,NA,3,10,NA,NA,NA,right,NA,NA,NA,present,NA,NA,m_l_066.jpg,blue,n_l_062.jpg,green,between,NA,NaN,NA,NA,NA,NA,right,4245.600000143051,1,2,1116.9000000953674
Npp14aQ5,3icohx7eofotocxdgkfntnxuj980e9,3tayzsbplpl3hp33n488qcqgmc92ss,Npp14aQ5,2020-0188,2021-10-31,11:43:07,13:29:16,NA,incomplete,false,true,NA,NA,4,0,NA,yellow,n_l_047.jpg,NA,NA,NA,NA,NA,unpleasant,pleasant,NA,NA,NA,NA,NA,right,1843.5,true,NA,NA,NA,NA,NA,NA,NA,NA
Npp14aQ5,3icohx7eofotocxdgkfntnxuj980e9,3tayzsbplpl3hp33n488qcqgmc92ss,Npp14aQ5,2020-0188,2021-10-31,11:43:07,13:29:16,NA,incomplete,false,true,NA,NA,4,1,NA,yellow,n_l_027.jpg,NA,NA,NA,NA,NA,pleasant,unpleasant,NA,NA,NA,NA,NA,left,1851.5,true,NA,NA,NA,NA,NA,NA,NA,NA
Npp14aQ5,3icohx7eofotocxdgkfntnxuj980e9,3tayzsbplpl3hp33n488qcqgmc92ss,Npp14aQ5,2020-0188,2021-10-31,11:43:07,13:29:16,NA,incomplete,false,true,NA,NA,4,2,NA,yellow,m_l_075.jpg,NA,NA,NA,NA,NA,pleasant,unpleasant,NA,NA,NA,NA,NA,left,1693.59999990463,true,NA,NA,NA,NA,NA,NA,NA,NA
Npp14aQ5,3icohx7eofotocxdgkfntnxuj980e9,3tayzsbplpl3hp33n488qcqgmc92ss,Npp14aQ5,2020-0188,2021-10-31,11:43:07,13:29:16,NA,incomplete,false,true,NA,NA,4,3,NA,yellow,m_l_071.jpg,NA,NA,NA,NA,NA,pleasant,unpleasant,NA,NA,NA,NA,NA,left,1315.60000014305,true,NA,NA,NA,NA,NA,NA,NA,NA
Npp14aQ5,3icohx7eofotocxdgkfntnxuj980e9,3tayzsbplpl3hp33n488qcqgmc92ss,Npp14aQ5,2020-0188,2021-10-31,11:43:07,13:29:16,NA,incomplete,false,true,NA,NA,4,4,NA,yellow,n_l_029.jpg,NA,NA,NA,NA,NA,unpleasant,pleasant,NA,NA,NA,NA,NA,left,1505.60000014305,true,NA,NA,NA,NA,NA,NA,NA,NA
Npp14aQ5,3icohx7eofotocxdgkfntnxuj980e9,3tayzsbplpl3hp33n488qcqgmc92ss,Npp14aQ5,2020-0188,2021-10-31,11:43:07,13:29:16,NA,incomplete,false,true,NA,NA,4,5,NA,yellow,n_l_004.jpg,NA,NA,NA,NA,NA,unpleasant,pleasant,NA,NA,NA,NA,NA,right,1727.90000009537,true,NA,NA,NA,NA,NA,NA,NA,NA
Npp14aQ5,3icohx7eofotocxdgkfntnxuj980e9,3tayzsbplpl3hp33n488qcqgmc92ss,Npp14aQ5,2020-0188,2021-10-31,11:43:07,13:29:16,NA,incomplete,false,true,NA,NA,4,6,NA,green,n_s_100.jpg,NA,NA,NA,NA,NA,unpleasant,pleasant,NA,NA,NA,NA,NA,right,1504.79999995232,true,NA,NA,NA,NA,NA,NA,NA,NA
Npp14aQ5,3icohx7eofotocxdgkfntnxuj980e9,3tayzsbplpl3hp33n488qcqgmc92ss,Npp14aQ5,2020-0188,2021-10-31,11:43:07,13:29:16,NA,incomplete,false,true,NA,NA,4,7,NA,green,m_s_006.jpg,NA,NA,NA,NA,NA,unpleasant,pleasant,NA,NA,NA,NA,NA,right,1733.60000014305,true,NA,NA,NA,NA,NA,NA,NA,NA
Npp14aQ5,3icohx7eofotocxdgkfntnxuj980e9,3tayzsbplpl3hp33n488qcqgmc92ss,Npp14aQ5,2020-0188,2021-10-31,11:43:07,13:29:16,NA,incomplete,false,true,NA,NA,4,8,NA,green,n_s_060.jpg,NA,NA,NA,NA,NA,pleasant,unpleasant,NA,NA,NA,NA,NA,left,1286.20000004768,true,NA,NA,NA,NA,NA,NA,NA,NA
Npp14aQ5,3icohx7eofotocxdgkfntnxuj980e9,3tayzsbplpl3hp33n488qcqgmc92ss,Npp14aQ5,2020-0188,2021-10-31,11:43:07,13:29:16,NA,incomplete,false,true,NA,NA,4,9,NA,green,m_l_082.jpg,NA,NA,NA,NA,NA,pleasant,unpleasant,NA,NA,NA,NA,NA,left,1513.70000004768,true,NA,NA,NA,NA,NA,NA,NA,NA
Npp14aQ5,3icohx7eofotocxdgkfntnxuj980e9,3tayzsbplpl3hp33n488qcqgmc92ss,Npp14aQ5,2020-0188,2021-10-31,11:43:07,13:29:16,NA,incomplete,false,true,NA,NA,4,10,NA,green,m_s_046.jpg,NA,NA,NA,NA,NA,unpleasant,pleasant,NA,NA,NA,NA,NA,left,2171,true,NA,NA,NA,NA,NA,NA,NA,NA
Npp14aQ5,3icohx7eofotocxdgkfntnxuj980e9,3tayzsbplpl3hp33n488qcqgmc92ss,Npp14aQ5,2020-0188,2021-10-31,11:43:07,13:29:16,NA,incomplete,false,true,NA,NA,4,11,NA,green,n_l_115.jpg,NA,NA,NA,NA,NA,pleasant,unpleasant,NA,NA,NA,NA,NA,right,1649.40000009537,true,NA,NA,NA,NA,NA,NA,NA,NA
Npp14aQ5,3icohx7eofotocxdgkfntnxuj980e9,3tayzsbplpl3hp33n488qcqgmc92ss,Npp14aQ5,2020-0188,2021-10-31,11:43:07,13:29:16,NA,incomplete,false,true,NA,NA,4,12,NA,blue,n_s_006.jpg,NA,NA,NA,NA,NA,pleasant,unpleasant,NA,NA,NA,NA,NA,left,1474.40000009537,true,NA,NA,NA,NA,NA,NA,NA,NA
Npp14aQ5,3icohx7eofotocxdgkfntnxuj980e9,3tayzsbplpl3hp33n488qcqgmc92ss,Npp14aQ5,2020-0188,2021-10-31,11:43:07,13:29:16,NA,incomplete,false,true,NA,NA,4,13,NA,blue,n_s_016.jpg,NA,NA,NA,NA,NA,unpleasant,pleasant,NA,NA,NA,NA,NA,right,1707.20000004768,true,NA,NA,NA,NA,NA,NA,NA,NA
Npp14aQ5,3icohx7eofotocxdgkfntnxuj980e9,3tayzsbplpl3hp33n488qcqgmc92ss,Npp14aQ5,2020-0188,2021-10-31,11:43:07,13:29:16,NA,incomplete,false,true,NA,NA,4,14,NA,blue,n_s_002.jpg,NA,NA,NA,NA,NA,pleasant,unpleasant,NA,NA,NA,NA,NA,left,1614.90000009537,true,NA,NA,NA,NA,NA,NA,NA,NA
Npp14aQ5,3icohx7eofotocxdgkfntnxuj980e9,3tayzsbplpl3hp33n488qcqgmc92ss,Npp14aQ5,2020-0188,2021-10-31,11:43:07,13:29:16,NA,incomplete,false,true,NA,NA,4,15,NA,blue,m_s_113.jpg,NA,NA,NA,NA,NA,unpleasant,pleasant,NA,NA,NA,NA,NA,right,1508.60000014305,true,NA,NA,NA,NA,NA,NA,NA,NA
Npp14aQ5,3icohx7eofotocxdgkfntnxuj980e9,3tayzsbplpl3hp33n488qcqgmc92ss,Npp14aQ5,2020-0188,2021-10-31,11:43:07,13:29:16,NA,incomplete,false,true,NA,NA,4,16,NA,blue,n_l_064.jpg,NA,NA,NA,NA,NA,unpleasant,pleasant,NA,NA,NA,NA,NA,left,1578.09999990463,true,NA,NA,NA,NA,NA,NA,NA,NA
Npp14aQ5,3icohx7eofotocxdgkfntnxuj980e9,3tayzsbplpl3hp33n488qcqgmc92ss,Npp14aQ5,2020-0188,2021-10-31,11:43:07,13:29:16,NA,incomplete,false,true,NA,NA,4,17,NA,blue,n_l_052.jpg,NA,NA,NA,NA,NA,unpleasant,pleasant,NA,NA,NA,NA,NA,right,1684.19999980927,true,NA,NA,NA,NA,NA,NA,NA,NA
Npp14aQ5,3icohx7eofotocxdgkfntnxuj980e9,3tayzsbplpl3hp33n488qcqgmc92ss,Npp14aQ5,2020-0188,2021-10-31,11:43:07,13:29:16,NA,incomplete,false,true,NA,NA,4,18,NA,orange,n_l_085.jpg,NA,NA,NA,NA,NA,pleasant,unpleasant,NA,NA,NA,NA,NA,left,2121.5,true,NA,NA,NA,NA,NA,NA,NA,NA
Npp14aQ5,3icohx7eofotocxdgkfntnxuj980e9,3tayzsbplpl3hp33n488qcqgmc92ss,Npp14aQ5,2020-0188,2021-10-31,11:43:07,13:29:16,NA,incomplete,false,true,NA,NA,4,19,NA,orange,n_s_011.jpg,NA,NA,NA,NA,NA,pleasant,unpleasant,NA,NA,NA,NA,NA,right,1683.20000004768,true,NA,NA,NA,NA,NA,NA,NA,NA
Npp14aQ5,3icohx7eofotocxdgkfntnxuj980e9,3tayzsbplpl3hp33n488qcqgmc92ss,Npp14aQ5,2020-0188,2021-10-31,11:43:07,13:29:16,NA,incomplete,false,true,NA,NA,4,20,NA,orange,m_s_040.jpg,NA,NA,NA,NA,NA,pleasant,unpleasant,NA,NA,NA,NA,NA,left,1741.5,true,NA,NA,NA,NA,NA,NA,NA,NA
Npp14aQ5,3icohx7eofotocxdgkfntnxuj980e9,3tayzsbplpl3hp33n488qcqgmc92ss,Npp14aQ5,2020-0188,2021-10-31,11:43:07,13:29:16,NA,incomplete,false,true,NA,NA,4,21,NA,orange,n_l_110.jpg,NA,NA,NA,NA,NA,pleasant,unpleasant,NA,NA,NA,NA,NA,right,1810.90000009537,true,NA,NA,NA,NA,NA,NA,NA,NA
Npp14aQ5,3icohx7eofotocxdgkfntnxuj980e9,3tayzsbplpl3hp33n488qcqgmc92ss,Npp14aQ5,2020-0188,2021-10-31,11:43:07,13:29:16,NA,incomplete,false,true,NA,NA,4,22,NA,orange,n_l_010.jpg,NA,NA,NA,NA,NA,unpleasant,pleasant,NA,NA,NA,NA,NA,right,1585.70000004768,true,NA,NA,NA,NA,NA,NA,NA,NA
Npp14aQ5,3icohx7eofotocxdgkfntnxuj980e9,3tayzsbplpl3hp33n488qcqgmc92ss,Npp14aQ5,2020-0188,2021-10-31,11:43:07,13:29:16,NA,incomplete,false,true,NA,NA,4,23,NA,orange,n_s_061.jpg,NA,NA,NA,NA,NA,pleasant,unpleasant,NA,NA,NA,NA,NA,left,1549.40000009537,true,NA,NA,NA,NA,NA,NA,NA,NA
Npp14aQ5,3icohx7eofotocxdgkfntnxuj980e9,3tayzsbplpl3hp33n488qcqgmc92ss,Npp14aQ5,2020-0188,2021-10-31,11:43:07,13:29:16,NA,incomplete,false,true,NA,NA,4,24,NA,brown,m_s_117.jpg,NA,NA,NA,NA,NA,unpleasant,pleasant,NA,NA,NA,NA,NA,right,1662.5,true,NA,NA,NA,NA,NA,NA,NA,NA
Npp14aQ5,3icohx7eofotocxdgkfntnxuj980e9,3tayzsbplpl3hp33n488qcqgmc92ss,Npp14aQ5,2020-0188,2021-10-31,11:43:07,13:29:16,NA,incomplete,false,true,NA,NA,4,25,NA,brown,m_s_104.jpg,NA,NA,NA,NA,NA,pleasant,unpleasant,NA,NA,NA,NA,NA,left,1902.79999995232,true,NA,NA,NA,NA,NA,NA,NA,NA
Npp14aQ5,3icohx7eofotocxdgkfntnxuj980e9,3tayzsbplpl3hp33n488qcqgmc92ss,Npp14aQ5,2020-0188,2021-10-31,11:43:07,13:29:16,NA,incomplete,false,true,NA,NA,4,26,NA,brown,n_s_035.jpg,NA,NA,NA,NA,NA,pleasant,unpleasant,NA,NA,NA,NA,NA,right,3014.59999990463,true,NA,NA,NA,NA,NA,NA,NA,NA
Npp14aQ5,3icohx7eofotocxdgkfntnxuj980e9,3tayzsbplpl3hp33n488qcqgmc92ss,Npp14aQ5,2020-0188,2021-10-31,11:43:07,13:29:16,NA,incomplete,false,true,NA,NA,4,27,NA,brown,n_s_058.jpg,NA,NA,NA,NA,NA,unpleasant,pleasant,NA,NA,NA,NA,NA,right,3444.29999995232,true,NA,NA,NA,NA,NA,NA,NA,NA
Npp14aQ5,3icohx7eofotocxdgkfntnxuj980e9,3tayzsbplpl3hp33n488qcqgmc92ss,Npp14aQ5,2020-0188,2021-10-31,11:43:07,13:29:16,NA,incomplete,false,true,NA,NA,4,28,NA,brown,n_s_026.jpg,NA,NA,NA,NA,NA,pleasant,unpleasant,NA,NA,NA,NA,NA,none,0,false,NA,NA,NA,NA,NA,NA,NA,NA
Npp14aQ5,3icohx7eofotocxdgkfntnxuj980e9,3tayzsbplpl3hp33n488qcqgmc92ss,Npp14aQ5,2020-0188,2021-10-31,11:43:07,13:29:16,NA,incomplete,false,true,NA,NA,4,29,NA,brown,n_s_063.jpg,NA,NA,NA,NA,NA,unpleasant,pleasant,NA,NA,NA,NA,NA,right,1498,true,NA,NA,NA,NA,NA,NA,NA,NA
Npp14aQ5,3icohx7eofotocxdgkfntnxuj980e9,3tayzsbplpl3hp33n488qcqgmc92ss,Npp14aQ5,2020-0188,2021-10-31,11:43:07,13:29:16,NA,incomplete,false,true,NA,NA,4,30,NA,white,m_s_080.jpg,NA,NA,NA,NA,NA,unpleasant,pleasant,NA,NA,NA,NA,NA,left,1779.5,true,NA,NA,NA,NA,NA,NA,NA,NA
Npp14aQ5,3icohx7eofotocxdgkfntnxuj980e9,3tayzsbplpl3hp33n488qcqgmc92ss,Npp14aQ5,2020-0188,2021-10-31,11:43:07,13:29:16,NA,incomplete,false,true,NA,NA,4,31,NA,white,n_l_076.jpg,NA,NA,NA,NA,NA,unpleasant,pleasant,NA,NA,NA,NA,NA,left,1906.90000009537,true,NA,NA,NA,NA,NA,NA,NA,NA
Npp14aQ5,3icohx7eofotocxdgkfntnxuj980e9,3tayzsbplpl3hp33n488qcqgmc92ss,Npp14aQ5,2020-0188,2021-10-31,11:43:07,13:29:16,NA,incomplete,false,true,NA,NA,4,32,NA,white,m_s_001.jpg,NA,NA,NA,NA,NA,pleasant,unpleasant,NA,NA,NA,NA,NA,left,1955.40000009537,true,NA,NA,NA,NA,NA,NA,NA,NA
Npp14aQ5,3icohx7eofotocxdgkfntnxuj980e9,3tayzsbplpl3hp33n488qcqgmc92ss,Npp14aQ5,2020-0188,2021-10-31,11:43:07,13:29:16,NA,incomplete,false,true,NA,NA,4,33,NA,white,m_s_078.jpg,NA,NA,NA,NA,NA,unpleasant,pleasant,NA,NA,NA,NA,NA,right,1371.59999990463,true,NA,NA,NA,NA,NA,NA,NA,NA
Npp14aQ5,3icohx7eofotocxdgkfntnxuj980e9,3tayzsbplpl3hp33n488qcqgmc92ss,Npp14aQ5,2020-0188,2021-10-31,11:43:07,13:29:16,NA,incomplete,false,true,NA,NA,4,34,NA,white,m_l_050.jpg,NA,NA,NA,NA,NA,unpleasant,pleasant,NA,NA,NA,NA,NA,right,1359.29999995232,true,NA,NA,NA,NA,NA,NA,NA,NA
Npp14aQ5,3icohx7eofotocxdgkfntnxuj980e9,3tayzsbplpl3hp33n488qcqgmc92ss,Npp14aQ5,2020-0188,2021-10-31,11:43:07,13:29:16,NA,incomplete,false,true,NA,NA,4,35,NA,white,m_l_073.jpg,NA,NA,NA,NA,NA,unpleasant,pleasant,NA,NA,NA,NA,NA,right,1541.29999995232,true,NA,NA,NA,NA,NA,NA,NA,NA
Npp14aQ5,3icohx7eofotocxdgkfntnxuj980e9,3tayzsbplpl3hp33n488qcqgmc92ss,Npp14aQ5,2020-0188,2021-10-31,11:43:07,13:29:16,NA,incomplete,false,NA,NA,true,4,0,NA,NA,NA,left,n_l_004.jpg,yellow,green,NA,NA,NA,NA,NA,NA,NA,NA,NA,NaN,NA,4637.600000143051,left,1,NA,NA,NA,NA,NA
Npp14aQ5,3icohx7eofotocxdgkfntnxuj980e9,3tayzsbplpl3hp33n488qcqgmc92ss,Npp14aQ5,2020-0188,2021-10-31,11:43:07,13:29:16,NA,incomplete,false,NA,NA,true,4,1,NA,NA,NA,right,n_l_029.jpg,green,yellow,NA,NA,NA,NA,NA,NA,NA,NA,NA,NaN,NA,4580,right,1,NA,NA,NA,NA,NA
Npp14aQ5,3icohx7eofotocxdgkfntnxuj980e9,3tayzsbplpl3hp33n488qcqgmc92ss,Npp14aQ5,2020-0188,2021-10-31,11:43:07,13:29:16,NA,incomplete,false,NA,NA,true,4,2,NA,NA,NA,right,n_l_076.jpg,brown,white,NA,NA,NA,NA,NA,NA,NA,NA,NA,NaN,NA,2269.9000000953674,right,1,NA,NA,NA,NA,NA
Npp14aQ5,3icohx7eofotocxdgkfntnxuj980e9,3tayzsbplpl3hp33n488qcqgmc92ss,Npp14aQ5,2020-0188,2021-10-31,11:43:07,13:29:16,NA,incomplete,false,NA,NA,true,4,3,NA,NA,NA,right,n_s_002.jpg,green,blue,NA,NA,NA,NA,NA,NA,NA,NA,NA,NaN,NA,2843.4000000953674,right,1,NA,NA,NA,NA,NA
Npp14aQ5,3icohx7eofotocxdgkfntnxuj980e9,3tayzsbplpl3hp33n488qcqgmc92ss,Npp14aQ5,2020-0188,2021-10-31,11:43:07,13:29:16,NA,incomplete,false,NA,NA,true,4,4,NA,NA,NA,left,n_s_011.jpg,orange,brown,NA,NA,NA,NA,NA,NA,NA,NA,NA,NaN,NA,3774.5,left,1,NA,NA,NA,NA,NA
Npp14aQ5,3icohx7eofotocxdgkfntnxuj980e9,3tayzsbplpl3hp33n488qcqgmc92ss,Npp14aQ5,2020-0188,2021-10-31,11:43:07,13:29:16,NA,incomplete,false,NA,NA,true,4,5,NA,NA,NA,right,m_s_046.jpg,blue,green,NA,NA,NA,NA,NA,NA,NA,NA,NA,NaN,NA,2366,right,1,NA,NA,NA,NA,NA
Npp14aQ5,3icohx7eofotocxdgkfntnxuj980e9,3tayzsbplpl3hp33n488qcqgmc92ss,Npp14aQ5,2020-0188,2021-10-31,11:43:07,13:29:16,NA,incomplete,false,NA,NA,true,4,6,NA,NA,NA,right,n_s_061.jpg,brown,orange,NA,NA,NA,NA,NA,NA,NA,NA,NA,NaN,NA,3158.4000000953674,right,1,NA,NA,NA,NA,NA
Npp14aQ5,3icohx7eofotocxdgkfntnxuj980e9,3tayzsbplpl3hp33n488qcqgmc92ss,Npp14aQ5,2020-0188,2021-10-31,11:43:07,13:29:16,NA,incomplete,false,NA,NA,true,4,7,NA,NA,NA,left,n_l_115.jpg,green,blue,NA,NA,NA,NA,NA,NA,NA,NA,NA,NaN,NA,2852,left,1,NA,NA,NA,NA,NA
Npp14aQ5,3icohx7eofotocxdgkfntnxuj980e9,3tayzsbplpl3hp33n488qcqgmc92ss,Npp14aQ5,2020-0188,2021-10-31,11:43:07,13:29:16,NA,incomplete,false,NA,NA,true,4,8,NA,NA,NA,left,n_s_016.jpg,blue,green,NA,NA,NA,NA,NA,NA,NA,NA,NA,NaN,NA,3432.5,left,1,NA,NA,NA,NA,NA
Npp14aQ5,3icohx7eofotocxdgkfntnxuj980e9,3tayzsbplpl3hp33n488qcqgmc92ss,Npp14aQ5,2020-0188,2021-10-31,11:43:07,13:29:16,NA,incomplete,false,NA,NA,true,4,9,NA,NA,NA,left,n_s_026.jpg,brown,white,NA,NA,NA,NA,NA,NA,NA,NA,NA,NaN,NA,3517.7000000476837,left,1,NA,NA,NA,NA,NA
Npp14aQ5,3icohx7eofotocxdgkfntnxuj980e9,3tayzsbplpl3hp33n488qcqgmc92ss,Npp14aQ5,2020-0188,2021-10-31,11:43:07,13:29:16,NA,incomplete,false,NA,NA,true,4,10,NA,NA,NA,left,m_l_073.jpg,white,brown,NA,NA,NA,NA,NA,NA,NA,NA,NA,NaN,NA,3362.5,left,1,NA,NA,NA,NA,NA
Npp14aQ5,3icohx7eofotocxdgkfntnxuj980e9,3tayzsbplpl3hp33n488qcqgmc92ss,Npp14aQ5,2020-0188,2021-10-31,11:43:07,13:29:16,NA,incomplete,false,NA,NA,true,4,11,NA,NA,NA,right,m_s_006.jpg,blue,green,NA,NA,NA,NA,NA,NA,NA,NA,NA,NaN,NA,3895.5,right,1,NA,NA,NA,NA,NA
Npp14aQ5,3icohx7eofotocxdgkfntnxuj980e9,3tayzsbplpl3hp33n488qcqgmc92ss,Npp14aQ5,2020-0188,2021-10-31,11:43:07,13:29:16,NA,incomplete,false,NA,NA,true,4,12,NA,NA,NA,left,n_l_027.jpg,yellow,green,NA,NA,NA,NA,NA,NA,NA,NA,NA,NaN,NA,3149.7999999523163,left,1,NA,NA,NA,NA,NA
Npp14aQ5,3icohx7eofotocxdgkfntnxuj980e9,3tayzsbplpl3hp33n488qcqgmc92ss,Npp14aQ5,2020-0188,2021-10-31,11:43:07,13:29:16,NA,incomplete,false,NA,NA,true,4,13,NA,NA,NA,right,n_l_052.jpg,green,blue,NA,NA,NA,NA,NA,NA,NA,NA,NA,NaN,NA,3349.7000000476837,right,1,NA,NA,NA,NA,NA
Npp14aQ5,3icohx7eofotocxdgkfntnxuj980e9,3tayzsbplpl3hp33n488qcqgmc92ss,Npp14aQ5,2020-0188,2021-10-31,11:43:07,13:29:16,NA,incomplete,false,NA,NA,true,4,14,NA,NA,NA,left,n_l_010.jpg,orange,blue,NA,NA,NA,NA,NA,NA,NA,NA,NA,NaN,NA,2784.100000143051,left,1,NA,NA,NA,NA,NA
Npp14aQ5,3icohx7eofotocxdgkfntnxuj980e9,3tayzsbplpl3hp33n488qcqgmc92ss,Npp14aQ5,2020-0188,2021-10-31,11:43:07,13:29:16,NA,incomplete,false,NA,NA,true,4,15,NA,NA,NA,left,m_s_104.jpg,brown,white,NA,NA,NA,NA,NA,NA,NA,NA,NA,NaN,NA,3087.5999999046326,left,1,NA,NA,NA,NA,NA
Npp14aQ5,3icohx7eofotocxdgkfntnxuj980e9,3tayzsbplpl3hp33n488qcqgmc92ss,Npp14aQ5,2020-0188,2021-10-31,11:43:07,13:29:16,NA,incomplete,false,NA,NA,true,4,16,NA,NA,NA,left,n_l_064.jpg,blue,green,NA,NA,NA,NA,NA,NA,NA,NA,NA,NaN,NA,2805.0999999046326,left,1,NA,NA,NA,NA,NA
Npp14aQ5,3icohx7eofotocxdgkfntnxuj980e9,3tayzsbplpl3hp33n488qcqgmc92ss,Npp14aQ5,2020-0188,2021-10-31,11:43:07,13:29:16,NA,incomplete,false,NA,NA,true,4,17,NA,NA,NA,left,n_s_035.jpg,brown,orange,NA,NA,NA,NA,NA,NA,NA,NA,NA,NaN,NA,14142.099999904633,left,1,NA,NA,NA,NA,NA
Npp14aQ5,3icohx7eofotocxdgkfntnxuj980e9,3tayzsbplpl3hp33n488qcqgmc92ss,Npp14aQ5,2020-0188,2021-10-31,11:43:07,13:29:16,NA,incomplete,false,NA,NA,true,4,18,NA,NA,NA,right,m_s_040.jpg,brown,orange,NA,NA,NA,NA,NA,NA,NA,NA,NA,NaN,NA,13536.099999904633,right,1,NA,NA,NA,NA,NA
Npp14aQ5,3icohx7eofotocxdgkfntnxuj980e9,3tayzsbplpl3hp33n488qcqgmc92ss,Npp14aQ5,2020-0188,2021-10-31,11:43:07,13:29:16,NA,incomplete,false,NA,NA,true,4,19,NA,NA,NA,left,n_s_063.jpg,brown,orange,NA,NA,NA,NA,NA,NA,NA,NA,NA,NaN,NA,2932.800000190735,left,1,NA,NA,NA,NA,NA
Npp14aQ5,3icohx7eofotocxdgkfntnxuj980e9,3tayzsbplpl3hp33n488qcqgmc92ss,Npp14aQ5,2020-0188,2021-10-31,11:43:07,13:29:16,NA,incomplete,false,NA,NA,true,4,20,NA,NA,NA,left,m_s_001.jpg,white,brown,NA,NA,NA,NA,NA,NA,NA,NA,NA,NaN,NA,3241.2999999523163,left,1,NA,NA,NA,NA,NA
Npp14aQ5,3icohx7eofotocxdgkfntnxuj980e9,3tayzsbplpl3hp33n488qcqgmc92ss,Npp14aQ5,2020-0188,2021-10-31,11:43:07,13:29:16,NA,incomplete,false,NA,NA,true,4,21,NA,NA,NA,left,n_s_060.jpg,green,yellow,NA,NA,NA,NA,NA,NA,NA,NA,NA,NaN,NA,10941.5,left,1,NA,NA,NA,NA,NA
Npp14aQ5,3icohx7eofotocxdgkfntnxuj980e9,3tayzsbplpl3hp33n488qcqgmc92ss,Npp14aQ5,2020-0188,2021-10-31,11:43:07,13:29:16,NA,incomplete,false,NA,true,NA,4,0,NA,NA,NA,left,NA,NA,NA,present,NA,NA,n_l_029.jpg,yellow,n_s_060.jpg,green,between,NA,NaN,NA,NA,NA,NA,left,4341.299999952316,1,2,4811.5
Npp14aQ5,3icohx7eofotocxdgkfntnxuj980e9,3tayzsbplpl3hp33n488qcqgmc92ss,Npp14aQ5,2020-0188,2021-10-31,11:43:07,13:29:16,NA,incomplete,false,NA,true,NA,4,1,NA,NA,NA,left,NA,NA,NA,present,NA,NA,n_s_011.jpg,orange,n_s_061.jpg,orange,within,NA,NaN,NA,NA,NA,NA,left,6586.799999952316,1,1,1814.3999998569489
Npp14aQ5,3icohx7eofotocxdgkfntnxuj980e9,3tayzsbplpl3hp33n488qcqgmc92ss,Npp14aQ5,2020-0188,2021-10-31,11:43:07,13:29:16,NA,incomplete,false,NA,true,NA,4,2,NA,NA,NA,right,NA,NA,NA,present,NA,NA,m_s_001.jpg,white,n_s_026.jpg,brown,between,NA,NaN,NA,NA,NA,NA,right,3033.0999999046326,1,3,4263.5
Npp14aQ5,3icohx7eofotocxdgkfntnxuj980e9,3tayzsbplpl3hp33n488qcqgmc92ss,Npp14aQ5,2020-0188,2021-10-31,11:43:07,13:29:16,NA,incomplete,false,NA,true,NA,4,3,NA,NA,NA,right,NA,NA,NA,present,NA,NA,n_s_063.jpg,brown,m_s_104.jpg,brown,within,NA,NaN,NA,NA,NA,NA,right,7654,1,1,1284.7000000476837
Npp14aQ5,3icohx7eofotocxdgkfntnxuj980e9,3tayzsbplpl3hp33n488qcqgmc92ss,Npp14aQ5,2020-0188,2021-10-31,11:43:07,13:29:16,NA,incomplete,false,NA,true,NA,4,4,NA,NA,NA,left,NA,NA,NA,present,NA,NA,m_s_046.jpg,green,n_s_002.jpg,blue,between,NA,NaN,NA,NA,NA,NA,left,8314.199999809265,1,2,944.7999999523163
Npp14aQ5,3icohx7eofotocxdgkfntnxuj980e9,3tayzsbplpl3hp33n488qcqgmc92ss,Npp14aQ5,2020-0188,2021-10-31,11:43:07,13:29:16,NA,incomplete,false,NA,true,NA,4,5,NA,NA,NA,right,NA,NA,NA,present,NA,NA,n_s_035.jpg,brown,n_l_010.jpg,orange,between,NA,NaN,NA,NA,NA,NA,right,3709.4000000953674,1,2,1302.1000001430511
Npp14aQ5,3icohx7eofotocxdgkfntnxuj980e9,3tayzsbplpl3hp33n488qcqgmc92ss,Npp14aQ5,2020-0188,2021-10-31,11:43:07,13:29:16,NA,incomplete,false,NA,true,NA,4,6,NA,NA,NA,right,NA,NA,NA,present,NA,NA,n_l_115.jpg,green,m_s_006.jpg,green,within,NA,NaN,NA,NA,NA,NA,right,3966.100000143051,1,1,1045.8999998569489
Npp14aQ5,3icohx7eofotocxdgkfntnxuj980e9,3tayzsbplpl3hp33n488qcqgmc92ss,Npp14aQ5,2020-0188,2021-10-31,11:43:07,13:29:16,NA,incomplete,false,NA,true,NA,4,7,NA,NA,NA,left,NA,NA,NA,present,NA,NA,n_l_076.jpg,white,m_l_073.jpg,white,within,NA,NaN,NA,NA,NA,NA,left,5222.099999904633,1,1,4583.099999904633
Npp14aQ5,3icohx7eofotocxdgkfntnxuj980e9,3tayzsbplpl3hp33n488qcqgmc92ss,Npp14aQ5,2020-0188,2021-10-31,11:43:07,13:29:16,NA,incomplete,false,NA,true,NA,4,8,NA,NA,NA,left,NA,NA,NA,present,NA,NA,n_s_016.jpg,blue,n_l_052.jpg,blue,within,NA,NaN,NA,NA,NA,NA,left,4470.299999952316,1,1,1396
Npp14aQ5,3icohx7eofotocxdgkfntnxuj980e9,3tayzsbplpl3hp33n488qcqgmc92ss,Npp14aQ5,2020-0188,2021-10-31,11:43:07,13:29:16,NA,incomplete,false,NA,true,NA,4,9,NA,NA,NA,left,NA,NA,NA,present,NA,NA,n_l_064.jpg,blue,m_s_040.jpg,orange,between,NA,NaN,NA,NA,NA,NA,left,3366.199999809265,1,3,2170
Npp14aQ5,3icohx7eofotocxdgkfntnxuj980e9,3tayzsbplpl3hp33n488qcqgmc92ss,Npp14aQ5,2020-0188,2021-10-31,11:43:07,13:29:16,NA,incomplete,false,NA,true,NA,4,10,NA,NA,NA,left,NA,NA,NA,present,NA,NA,n_l_027.jpg,yellow,n_l_004.jpg,yellow,within,NA,NaN,NA,NA,NA,NA,left,5326.599999904633,1,1,1393.7000000476837
Npp14aQ5,3icohx7eofotocxdgkfntnxuj980e9,3tayzsbplpl3hp33n488qcqgmc92ss,Npp14aQ5,2020-0188,2021-10-31,11:43:07,13:29:16,NA,incomplete,false,true,NA,NA,5,0,NA,green,m_s_077.jpg,NA,NA,NA,NA,NA,pleasant,unpleasant,NA,NA,NA,NA,NA,left,2238.70000004768,true,NA,NA,NA,NA,NA,NA,NA,NA
Npp14aQ5,3icohx7eofotocxdgkfntnxuj980e9,3tayzsbplpl3hp33n488qcqgmc92ss,Npp14aQ5,2020-0188,2021-10-31,11:43:07,13:29:16,NA,incomplete,false,true,NA,NA,5,1,NA,green,m_l_056.jpg,NA,NA,NA,NA,NA,unpleasant,pleasant,NA,NA,NA,NA,NA,right,1362.69999980927,true,NA,NA,NA,NA,NA,NA,NA,NA
Npp14aQ5,3icohx7eofotocxdgkfntnxuj980e9,3tayzsbplpl3hp33n488qcqgmc92ss,Npp14aQ5,2020-0188,2021-10-31,11:43:07,13:29:16,NA,incomplete,false,true,NA,NA,5,2,NA,green,m_s_114.jpg,NA,NA,NA,NA,NA,pleasant,unpleasant,NA,NA,NA,NA,NA,left,1396.90000009537,true,NA,NA,NA,NA,NA,NA,NA,NA
Npp14aQ5,3icohx7eofotocxdgkfntnxuj980e9,3tayzsbplpl3hp33n488qcqgmc92ss,Npp14aQ5,2020-0188,2021-10-31,11:43:07,13:29:16,NA,incomplete,false,true,NA,NA,5,3,NA,green,n_s_087.jpg,NA,NA,NA,NA,NA,unpleasant,pleasant,NA,NA,NA,NA,NA,right,1780,true,NA,NA,NA,NA,NA,NA,NA,NA
Npp14aQ5,3icohx7eofotocxdgkfntnxuj980e9,3tayzsbplpl3hp33n488qcqgmc92ss,Npp14aQ5,2020-0188,2021-10-31,11:43:07,13:29:16,NA,incomplete,false,true,NA,NA,5,4,NA,green,n_s_077.jpg,NA,NA,NA,NA,NA,pleasant,unpleasant,NA,NA,NA,NA,NA,left,1301.20000004768,true,NA,NA,NA,NA,NA,NA,NA,NA
Npp14aQ5,3icohx7eofotocxdgkfntnxuj980e9,3tayzsbplpl3hp33n488qcqgmc92ss,Npp14aQ5,2020-0188,2021-10-31,11:43:07,13:29:16,NA,incomplete,false,true,NA,NA,5,5,NA,green,m_l_076.jpg,NA,NA,NA,NA,NA,pleasant,unpleasant,NA,NA,NA,NA,NA,right,1371.5,true,NA,NA,NA,NA,NA,NA,NA,NA
Npp14aQ5,3icohx7eofotocxdgkfntnxuj980e9,3tayzsbplpl3hp33n488qcqgmc92ss,Npp14aQ5,2020-0188,2021-10-31,11:43:07,13:29:16,NA,incomplete,false,true,NA,NA,5,6,NA,black,n_l_102.jpg,NA,NA,NA,NA,NA,pleasant,unpleasant,NA,NA,NA,NA,NA,left,1601.09999990463,true,NA,NA,NA,NA,NA,NA,NA,NA
Npp14aQ5,3icohx7eofotocxdgkfntnxuj980e9,3tayzsbplpl3hp33n488qcqgmc92ss,Npp14aQ5,2020-0188,2021-10-31,11:43:07,13:29:16,NA,incomplete,false,true,NA,NA,5,7,NA,black,m_l_020.jpg,NA,NA,NA,NA,NA,pleasant,unpleasant,NA,NA,NA,NA,NA,left,1472,true,NA,NA,NA,NA,NA,NA,NA,NA
Npp14aQ5,3icohx7eofotocxdgkfntnxuj980e9,3tayzsbplpl3hp33n488qcqgmc92ss,Npp14aQ5,2020-0188,2021-10-31,11:43:07,13:29:16,NA,incomplete,false,true,NA,NA,5,8,NA,black,m_l_103.jpg,NA,NA,NA,NA,NA,pleasant,unpleasant,NA,NA,NA,NA,NA,right,2400,true,NA,NA,NA,NA,NA,NA,NA,NA
Npp14aQ5,3icohx7eofotocxdgkfntnxuj980e9,3tayzsbplpl3hp33n488qcqgmc92ss,Npp14aQ5,2020-0188,2021-10-31,11:43:07,13:29:16,NA,incomplete,false,true,NA,NA,5,9,NA,black,n_s_028.jpg,NA,NA,NA,NA,NA,unpleasant,pleasant,NA,NA,NA,NA,NA,right,2646.10000014305,true,NA,NA,NA,NA,NA,NA,NA,NA
Npp14aQ5,3icohx7eofotocxdgkfntnxuj980e9,3tayzsbplpl3hp33n488qcqgmc92ss,Npp14aQ5,2020-0188,2021-10-31,11:43:07,13:29:16,NA,incomplete,false,true,NA,NA,5,10,NA,black,m_l_065.jpg,NA,NA,NA,NA,NA,unpleasant,pleasant,NA,NA,NA,NA,NA,left,2103.80000019073,true,NA,NA,NA,NA,NA,NA,NA,NA
Npp14aQ5,3icohx7eofotocxdgkfntnxuj980e9,3tayzsbplpl3hp33n488qcqgmc92ss,Npp14aQ5,2020-0188,2021-10-31,11:43:07,13:29:16,NA,incomplete,false,true,NA,NA,5,11,NA,black,n_l_077.jpg,NA,NA,NA,NA,NA,unpleasant,pleasant,NA,NA,NA,NA,NA,left,1774.89999985695,true,NA,NA,NA,NA,NA,NA,NA,NA
Npp14aQ5,3icohx7eofotocxdgkfntnxuj980e9,3tayzsbplpl3hp33n488qcqgmc92ss,Npp14aQ5,2020-0188,2021-10-31,11:43:07,13:29:16,NA,incomplete,false,true,NA,NA,5,12,NA,yellow,m_s_049.jpg,NA,NA,NA,NA,NA,unpleasant,pleasant,NA,NA,NA,NA,NA,right,2480.79999995232,true,NA,NA,NA,NA,NA,NA,NA,NA
Npp14aQ5,3icohx7eofotocxdgkfntnxuj980e9,3tayzsbplpl3hp33n488qcqgmc92ss,Npp14aQ5,2020-0188,2021-10-31,11:43:07,13:29:16,NA,incomplete,false,true,NA,NA,5,13,NA,yellow,m_l_085.jpg,NA,NA,NA,NA,NA,unpleasant,pleasant,NA,NA,NA,NA,NA,left,2691.89999985695,true,NA,NA,NA,NA,NA,NA,NA,NA
Npp14aQ5,3icohx7eofotocxdgkfntnxuj980e9,3tayzsbplpl3hp33n488qcqgmc92ss,Npp14aQ5,2020-0188,2021-10-31,11:43:07,13:29:16,NA,incomplete,false,true,NA,NA,5,14,NA,yellow,m_l_036.jpg,NA,NA,NA,NA,NA,pleasant,unpleasant,NA,NA,NA,NA,NA,right,2358.39999985695,true,NA,NA,NA,NA,NA,NA,NA,NA
Npp14aQ5,3icohx7eofotocxdgkfntnxuj980e9,3tayzsbplpl3hp33n488qcqgmc92ss,Npp14aQ5,2020-0188,2021-10-31,11:43:07,13:29:16,NA,incomplete,false,true,NA,NA,5,15,NA,yellow,n_l_035.jpg,NA,NA,NA,NA,NA,unpleasant,pleasant,NA,NA,NA,NA,NA,right,2318.29999995232,true,NA,NA,NA,NA,NA,NA,NA,NA
Npp14aQ5,3icohx7eofotocxdgkfntnxuj980e9,3tayzsbplpl3hp33n488qcqgmc92ss,Npp14aQ5,2020-0188,2021-10-31,11:43:07,13:29:16,NA,incomplete,false,true,NA,NA,5,16,NA,yellow,m_s_017.jpg,NA,NA,NA,NA,NA,pleasant,unpleasant,NA,NA,NA,NA,NA,left,2097.10000014305,true,NA,NA,NA,NA,NA,NA,NA,NA
