workerId,hitId,assignmentId,subject,studyid,exp_date,exp_start,exp_end,time_start,time_end,practice,encoding,memory,association,block,trial,event_order,event,stim,answer,object,left_context,right_context,context_type,label_left,label_right,left_image,left_event,right_image,right_event,condition,response,response_time,response_acc,association_response_time,association_response,association_acc,order_response,order_response_time,order_acc,distance_response,distance_response_time
Tss3KNy2,3bawbgqgzoco8yjjw9p686v3rigv79,3tmfv4nepcr7alm1nqraxs64dox8wd,Tss3KNy2,2020-0188,2021-10-31,08:12:54,10:10:13,NA,incomplete,true,true,NA,NA,0,0,NA,orange,n_s_024.jpg,NA,NA,NA,NA,NA,unpleasant,pleasant,NA,NA,NA,NA,NA,none,0,false,NA,NA,NA,NA,NA,NA,NA,NA
Tss3KNy2,3bawbgqgzoco8yjjw9p686v3rigv79,3tmfv4nepcr7alm1nqraxs64dox8wd,Tss3KNy2,2020-0188,2021-10-31,08:12:54,10:10:13,NA,incomplete,true,true,NA,NA,0,1,NA,orange,m_s_059.jpg,NA,NA,NA,NA,NA,pleasant,unpleasant,NA,NA,NA,NA,NA,none,0,false,NA,NA,NA,NA,NA,NA,NA,NA
Tss3KNy2,3bawbgqgzoco8yjjw9p686v3rigv79,3tmfv4nepcr7alm1nqraxs64dox8wd,Tss3KNy2,2020-0188,2021-10-31,08:12:54,10:10:13,NA,incomplete,true,true,NA,NA,0,2,NA,orange,m_l_014.jpg,NA,NA,NA,NA,NA,unpleasant,pleasant,NA,NA,NA,NA,NA,right,38.8000001907349,true,NA,NA,NA,NA,NA,NA,NA,NA
Tss3KNy2,3bawbgqgzoco8yjjw9p686v3rigv79,3tmfv4nepcr7alm1nqraxs64dox8wd,Tss3KNy2,2020-0188,2021-10-31,08:12:54,10:10:13,NA,incomplete,true,true,NA,NA,0,3,NA,orange,m_l_019.jpg,NA,NA,NA,NA,NA,unpleasant,pleasant,NA,NA,NA,NA,NA,none,0,false,NA,NA,NA,NA,NA,NA,NA,NA
Tss3KNy2,3bawbgqgzoco8yjjw9p686v3rigv79,3tmfv4nepcr7alm1nqraxs64dox8wd,Tss3KNy2,2020-0188,2021-10-31,08:12:54,10:10:13,NA,incomplete,true,true,NA,NA,0,4,NA,orange,n_s_097.jpg,NA,NA,NA,NA,NA,pleasant,unpleasant,NA,NA,NA,NA,NA,none,0,false,NA,NA,NA,NA,NA,NA,NA,NA
Tss3KNy2,3bawbgqgzoco8yjjw9p686v3rigv79,3tmfv4nepcr7alm1nqraxs64dox8wd,Tss3KNy2,2020-0188,2021-10-31,08:12:54,10:10:13,NA,incomplete,true,true,NA,NA,0,5,NA,orange,m_l_018.jpg,NA,NA,NA,NA,NA,unpleasant,pleasant,NA,NA,NA,NA,NA,none,0,false,NA,NA,NA,NA,NA,NA,NA,NA
Tss3KNy2,3bawbgqgzoco8yjjw9p686v3rigv79,3tmfv4nepcr7alm1nqraxs64dox8wd,Tss3KNy2,2020-0188,2021-10-31,08:12:54,10:10:13,NA,incomplete,true,true,NA,NA,0,6,NA,yellow,n_s_027.jpg,NA,NA,NA,NA,NA,unpleasant,pleasant,NA,NA,NA,NA,NA,right,2207.89999961853,true,NA,NA,NA,NA,NA,NA,NA,NA
Tss3KNy2,3bawbgqgzoco8yjjw9p686v3rigv79,3tmfv4nepcr7alm1nqraxs64dox8wd,Tss3KNy2,2020-0188,2021-10-31,08:12:54,10:10:13,NA,incomplete,true,true,NA,NA,0,7,NA,yellow,n_l_087.jpg,NA,NA,NA,NA,NA,pleasant,unpleasant,NA,NA,NA,NA,NA,right,2289.2999997139,true,NA,NA,NA,NA,NA,NA,NA,NA
Tss3KNy2,3bawbgqgzoco8yjjw9p686v3rigv79,3tmfv4nepcr7alm1nqraxs64dox8wd,Tss3KNy2,2020-0188,2021-10-31,08:12:54,10:10:13,NA,incomplete,true,true,NA,NA,0,8,NA,yellow,m_l_084.jpg,NA,NA,NA,NA,NA,pleasant,unpleasant,NA,NA,NA,NA,NA,right,3017.90000009537,true,NA,NA,NA,NA,NA,NA,NA,NA
Tss3KNy2,3bawbgqgzoco8yjjw9p686v3rigv79,3tmfv4nepcr7alm1nqraxs64dox8wd,Tss3KNy2,2020-0188,2021-10-31,08:12:54,10:10:13,NA,incomplete,true,true,NA,NA,0,9,NA,yellow,m_s_048.jpg,NA,NA,NA,NA,NA,unpleasant,pleasant,NA,NA,NA,NA,NA,right,1444.69999980927,true,NA,NA,NA,NA,NA,NA,NA,NA
Tss3KNy2,3bawbgqgzoco8yjjw9p686v3rigv79,3tmfv4nepcr7alm1nqraxs64dox8wd,Tss3KNy2,2020-0188,2021-10-31,08:12:54,10:10:13,NA,incomplete,true,true,NA,NA,0,10,NA,yellow,m_s_109.jpg,NA,NA,NA,NA,NA,pleasant,unpleasant,NA,NA,NA,NA,NA,right,1131.30000019073,true,NA,NA,NA,NA,NA,NA,NA,NA
Tss3KNy2,3bawbgqgzoco8yjjw9p686v3rigv79,3tmfv4nepcr7alm1nqraxs64dox8wd,Tss3KNy2,2020-0188,2021-10-31,08:12:54,10:10:13,NA,incomplete,true,true,NA,NA,0,11,NA,yellow,n_l_026.jpg,NA,NA,NA,NA,NA,unpleasant,pleasant,NA,NA,NA,NA,NA,right,1701.09999990463,true,NA,NA,NA,NA,NA,NA,NA,NA
Tss3KNy2,3bawbgqgzoco8yjjw9p686v3rigv79,3tmfv4nepcr7alm1nqraxs64dox8wd,Tss3KNy2,2020-0188,2021-10-31,08:12:54,10:10:13,NA,incomplete,true,true,NA,NA,0,12,NA,brown,n_s_100.jpg,NA,NA,NA,NA,NA,unpleasant,pleasant,NA,NA,NA,NA,NA,right,1650.59999990463,true,NA,NA,NA,NA,NA,NA,NA,NA
Tss3KNy2,3bawbgqgzoco8yjjw9p686v3rigv79,3tmfv4nepcr7alm1nqraxs64dox8wd,Tss3KNy2,2020-0188,2021-10-31,08:12:54,10:10:13,NA,incomplete,true,true,NA,NA,0,13,NA,brown,m_s_072.jpg,NA,NA,NA,NA,NA,unpleasant,pleasant,NA,NA,NA,NA,NA,right,1237.90000009537,true,NA,NA,NA,NA,NA,NA,NA,NA
Tss3KNy2,3bawbgqgzoco8yjjw9p686v3rigv79,3tmfv4nepcr7alm1nqraxs64dox8wd,Tss3KNy2,2020-0188,2021-10-31,08:12:54,10:10:13,NA,incomplete,true,true,NA,NA,0,14,NA,brown,n_s_062.jpg,NA,NA,NA,NA,NA,pleasant,unpleasant,NA,NA,NA,NA,NA,right,1053.80000019073,true,NA,NA,NA,NA,NA,NA,NA,NA
Tss3KNy2,3bawbgqgzoco8yjjw9p686v3rigv79,3tmfv4nepcr7alm1nqraxs64dox8wd,Tss3KNy2,2020-0188,2021-10-31,08:12:54,10:10:13,NA,incomplete,true,true,NA,NA,0,15,NA,brown,m_s_041.jpg,NA,NA,NA,NA,NA,unpleasant,pleasant,NA,NA,NA,NA,NA,right,1131.59999990463,true,NA,NA,NA,NA,NA,NA,NA,NA
Tss3KNy2,3bawbgqgzoco8yjjw9p686v3rigv79,3tmfv4nepcr7alm1nqraxs64dox8wd,Tss3KNy2,2020-0188,2021-10-31,08:12:54,10:10:13,NA,incomplete,true,true,NA,NA,0,16,NA,brown,m_l_055.jpg,NA,NA,NA,NA,NA,pleasant,unpleasant,NA,NA,NA,NA,NA,right,907.400000095367,true,NA,NA,NA,NA,NA,NA,NA,NA
Tss3KNy2,3bawbgqgzoco8yjjw9p686v3rigv79,3tmfv4nepcr7alm1nqraxs64dox8wd,Tss3KNy2,2020-0188,2021-10-31,08:12:54,10:10:13,NA,incomplete,true,true,NA,NA,0,17,NA,brown,m_s_114.jpg,NA,NA,NA,NA,NA,unpleasant,pleasant,NA,NA,NA,NA,NA,right,734.200000286102,true,NA,NA,NA,NA,NA,NA,NA,NA
Tss3KNy2,3bawbgqgzoco8yjjw9p686v3rigv79,3tmfv4nepcr7alm1nqraxs64dox8wd,Tss3KNy2,2020-0188,2021-10-31,08:12:54,10:10:13,NA,incomplete,true,true,NA,NA,0,18,NA,gray,m_l_088.jpg,NA,NA,NA,NA,NA,unpleasant,pleasant,NA,NA,NA,NA,NA,right,1298.10000038147,true,NA,NA,NA,NA,NA,NA,NA,NA
Tss3KNy2,3bawbgqgzoco8yjjw9p686v3rigv79,3tmfv4nepcr7alm1nqraxs64dox8wd,Tss3KNy2,2020-0188,2021-10-31,08:12:54,10:10:13,NA,incomplete,true,true,NA,NA,0,19,NA,gray,m_s_049.jpg,NA,NA,NA,NA,NA,unpleasant,pleasant,NA,NA,NA,NA,NA,right,1054.59999990463,true,NA,NA,NA,NA,NA,NA,NA,NA
Tss3KNy2,3bawbgqgzoco8yjjw9p686v3rigv79,3tmfv4nepcr7alm1nqraxs64dox8wd,Tss3KNy2,2020-0188,2021-10-31,08:12:54,10:10:13,NA,incomplete,true,true,NA,NA,0,20,NA,gray,n_l_047.jpg,NA,NA,NA,NA,NA,pleasant,unpleasant,NA,NA,NA,NA,NA,right,1523.80000019073,true,NA,NA,NA,NA,NA,NA,NA,NA
Tss3KNy2,3bawbgqgzoco8yjjw9p686v3rigv79,3tmfv4nepcr7alm1nqraxs64dox8wd,Tss3KNy2,2020-0188,2021-10-31,08:12:54,10:10:13,NA,incomplete,true,true,NA,NA,0,21,NA,gray,m_l_034.jpg,NA,NA,NA,NA,NA,unpleasant,pleasant,NA,NA,NA,NA,NA,right,1030.09999990463,true,NA,NA,NA,NA,NA,NA,NA,NA
Tss3KNy2,3bawbgqgzoco8yjjw9p686v3rigv79,3tmfv4nepcr7alm1nqraxs64dox8wd,Tss3KNy2,2020-0188,2021-10-31,08:12:54,10:10:13,NA,incomplete,true,true,NA,NA,0,22,NA,gray,m_l_033.jpg,NA,NA,NA,NA,NA,unpleasant,pleasant,NA,NA,NA,NA,NA,right,1030.2000002861,true,NA,NA,NA,NA,NA,NA,NA,NA
Tss3KNy2,3bawbgqgzoco8yjjw9p686v3rigv79,3tmfv4nepcr7alm1nqraxs64dox8wd,Tss3KNy2,2020-0188,2021-10-31,08:12:54,10:10:13,NA,incomplete,true,true,NA,NA,0,23,NA,gray,n_s_078.jpg,NA,NA,NA,NA,NA,unpleasant,pleasant,NA,NA,NA,NA,NA,right,1088.2000002861,true,NA,NA,NA,NA,NA,NA,NA,NA
Tss3KNy2,3bawbgqgzoco8yjjw9p686v3rigv79,3tmfv4nepcr7alm1nqraxs64dox8wd,Tss3KNy2,2020-0188,2021-10-31,08:12:54,10:10:13,NA,incomplete,true,true,NA,NA,0,24,NA,red,m_s_020.jpg,NA,NA,NA,NA,NA,unpleasant,pleasant,NA,NA,NA,NA,NA,right,898.800000190735,true,NA,NA,NA,NA,NA,NA,NA,NA
Tss3KNy2,3bawbgqgzoco8yjjw9p686v3rigv79,3tmfv4nepcr7alm1nqraxs64dox8wd,Tss3KNy2,2020-0188,2021-10-31,08:12:54,10:10:13,NA,incomplete,true,true,NA,NA,0,25,NA,red,n_s_096.jpg,NA,NA,NA,NA,NA,pleasant,unpleasant,NA,NA,NA,NA,NA,right,771.300000190735,true,NA,NA,NA,NA,NA,NA,NA,NA
Tss3KNy2,3bawbgqgzoco8yjjw9p686v3rigv79,3tmfv4nepcr7alm1nqraxs64dox8wd,Tss3KNy2,2020-0188,2021-10-31,08:12:54,10:10:13,NA,incomplete,true,true,NA,NA,0,26,NA,red,n_s_103.jpg,NA,NA,NA,NA,NA,unpleasant,pleasant,NA,NA,NA,NA,NA,right,872.89999961853,true,NA,NA,NA,NA,NA,NA,NA,NA
Tss3KNy2,3bawbgqgzoco8yjjw9p686v3rigv79,3tmfv4nepcr7alm1nqraxs64dox8wd,Tss3KNy2,2020-0188,2021-10-31,08:12:54,10:10:13,NA,incomplete,true,true,NA,NA,0,27,NA,red,m_l_042.jpg,NA,NA,NA,NA,NA,pleasant,unpleasant,NA,NA,NA,NA,NA,right,1206.5,true,NA,NA,NA,NA,NA,NA,NA,NA
Tss3KNy2,3bawbgqgzoco8yjjw9p686v3rigv79,3tmfv4nepcr7alm1nqraxs64dox8wd,Tss3KNy2,2020-0188,2021-10-31,08:12:54,10:10:13,NA,incomplete,true,true,NA,NA,0,28,NA,red,n_s_087.jpg,NA,NA,NA,NA,NA,pleasant,unpleasant,NA,NA,NA,NA,NA,right,1373.59999990463,true,NA,NA,NA,NA,NA,NA,NA,NA
Tss3KNy2,3bawbgqgzoco8yjjw9p686v3rigv79,3tmfv4nepcr7alm1nqraxs64dox8wd,Tss3KNy2,2020-0188,2021-10-31,08:12:54,10:10:13,NA,incomplete,true,true,NA,NA,0,29,NA,red,m_s_103.jpg,NA,NA,NA,NA,NA,pleasant,unpleasant,NA,NA,NA,NA,NA,right,973,true,NA,NA,NA,NA,NA,NA,NA,NA
Tss3KNy2,3bawbgqgzoco8yjjw9p686v3rigv79,3tmfv4nepcr7alm1nqraxs64dox8wd,Tss3KNy2,2020-0188,2021-10-31,08:12:54,10:10:13,NA,incomplete,true,true,NA,NA,0,30,NA,green,m_s_108.jpg,NA,NA,NA,NA,NA,pleasant,unpleasant,NA,NA,NA,NA,NA,right,1143.19999980927,true,NA,NA,NA,NA,NA,NA,NA,NA
Tss3KNy2,3bawbgqgzoco8yjjw9p686v3rigv79,3tmfv4nepcr7alm1nqraxs64dox8wd,Tss3KNy2,2020-0188,2021-10-31,08:12:54,10:10:13,NA,incomplete,true,true,NA,NA,0,31,NA,green,n_s_055.jpg,NA,NA,NA,NA,NA,unpleasant,pleasant,NA,NA,NA,NA,NA,right,154.099999904633,true,NA,NA,NA,NA,NA,NA,NA,NA
Tss3KNy2,3bawbgqgzoco8yjjw9p686v3rigv79,3tmfv4nepcr7alm1nqraxs64dox8wd,Tss3KNy2,2020-0188,2021-10-31,08:12:54,10:10:13,NA,incomplete,true,true,NA,NA,0,32,NA,green,n_l_100.jpg,NA,NA,NA,NA,NA,unpleasant,pleasant,NA,NA,NA,NA,NA,right,957.099999904633,true,NA,NA,NA,NA,NA,NA,NA,NA
Tss3KNy2,3bawbgqgzoco8yjjw9p686v3rigv79,3tmfv4nepcr7alm1nqraxs64dox8wd,Tss3KNy2,2020-0188,2021-10-31,08:12:54,10:10:13,NA,incomplete,true,true,NA,NA,0,33,NA,green,n_l_023.jpg,NA,NA,NA,NA,NA,pleasant,unpleasant,NA,NA,NA,NA,NA,right,979.700000286102,true,NA,NA,NA,NA,NA,NA,NA,NA
Tss3KNy2,3bawbgqgzoco8yjjw9p686v3rigv79,3tmfv4nepcr7alm1nqraxs64dox8wd,Tss3KNy2,2020-0188,2021-10-31,08:12:54,10:10:13,NA,incomplete,true,true,NA,NA,0,34,NA,green,m_s_111.jpg,NA,NA,NA,NA,NA,unpleasant,pleasant,NA,NA,NA,NA,NA,right,736.400000095367,true,NA,NA,NA,NA,NA,NA,NA,NA
Tss3KNy2,3bawbgqgzoco8yjjw9p686v3rigv79,3tmfv4nepcr7alm1nqraxs64dox8wd,Tss3KNy2,2020-0188,2021-10-31,08:12:54,10:10:13,NA,incomplete,true,true,NA,NA,0,35,NA,green,n_l_018.jpg,NA,NA,NA,NA,NA,pleasant,unpleasant,NA,NA,NA,NA,NA,right,1721,true,NA,NA,NA,NA,NA,NA,NA,NA
Tss3KNy2,3bawbgqgzoco8yjjw9p686v3rigv79,3tmfv4nepcr7alm1nqraxs64dox8wd,Tss3KNy2,2020-0188,2021-10-31,08:12:54,10:10:13,NA,incomplete,true,NA,NA,true,0,0,NA,NA,NA,left,n_l_026.jpg,yellow,orange,NA,NA,NA,NA,NA,NA,NA,NA,NA,NaN,NA,29590.599999904633,left,1,NA,NA,NA,NA,NA
Tss3KNy2,3bawbgqgzoco8yjjw9p686v3rigv79,3tmfv4nepcr7alm1nqraxs64dox8wd,Tss3KNy2,2020-0188,2021-10-31,08:12:54,10:10:13,NA,incomplete,true,NA,NA,true,0,1,NA,NA,NA,right,m_s_114.jpg,yellow,brown,NA,NA,NA,NA,NA,NA,NA,NA,NA,NaN,NA,8835.300000190735,right,1,NA,NA,NA,NA,NA
Tss3KNy2,3bawbgqgzoco8yjjw9p686v3rigv79,3tmfv4nepcr7alm1nqraxs64dox8wd,Tss3KNy2,2020-0188,2021-10-31,08:12:54,10:10:13,NA,incomplete,true,NA,NA,true,0,2,NA,NA,NA,left,m_s_072.jpg,brown,yellow,NA,NA,NA,NA,NA,NA,NA,NA,NA,NaN,NA,5659.099999904633,left,1,NA,NA,NA,NA,NA
Tss3KNy2,3bawbgqgzoco8yjjw9p686v3rigv79,3tmfv4nepcr7alm1nqraxs64dox8wd,Tss3KNy2,2020-0188,2021-10-31,08:12:54,10:10:13,NA,incomplete,true,NA,NA,true,0,3,NA,NA,NA,left,m_l_033.jpg,gray,brown,NA,NA,NA,NA,NA,NA,NA,NA,NA,NaN,NA,10003.799999713898,left,1,NA,NA,NA,NA,NA
Tss3KNy2,3bawbgqgzoco8yjjw9p686v3rigv79,3tmfv4nepcr7alm1nqraxs64dox8wd,Tss3KNy2,2020-0188,2021-10-31,08:12:54,10:10:13,NA,incomplete,true,NA,NA,true,0,4,NA,NA,NA,left,n_s_087.jpg,red,gray,NA,NA,NA,NA,NA,NA,NA,NA,NA,NaN,NA,6028.700000286102,left,1,NA,NA,NA,NA,NA
Tss3KNy2,3bawbgqgzoco8yjjw9p686v3rigv79,3tmfv4nepcr7alm1nqraxs64dox8wd,Tss3KNy2,2020-0188,2021-10-31,08:12:54,10:10:13,NA,incomplete,true,NA,NA,true,0,5,NA,NA,NA,right,n_s_096.jpg,gray,red,NA,NA,NA,NA,NA,NA,NA,NA,NA,NaN,NA,16086.5,right,1,NA,NA,NA,NA,NA
Tss3KNy2,3bawbgqgzoco8yjjw9p686v3rigv79,3tmfv4nepcr7alm1nqraxs64dox8wd,Tss3KNy2,2020-0188,2021-10-31,08:12:54,10:10:13,NA,incomplete,true,NA,NA,true,0,6,NA,NA,NA,right,n_l_047.jpg,brown,gray,NA,NA,NA,NA,NA,NA,NA,NA,NA,NaN,NA,6666,right,1,NA,NA,NA,NA,NA
Tss3KNy2,3bawbgqgzoco8yjjw9p686v3rigv79,3tmfv4nepcr7alm1nqraxs64dox8wd,Tss3KNy2,2020-0188,2021-10-31,08:12:54,10:10:13,NA,incomplete,true,NA,NA,true,0,7,NA,NA,NA,left,n_s_097.jpg,orange,yellow,NA,NA,NA,NA,NA,NA,NA,NA,NA,NaN,NA,5413.700000286102,right,0,NA,NA,NA,NA,NA
Tss3KNy2,3bawbgqgzoco8yjjw9p686v3rigv79,3tmfv4nepcr7alm1nqraxs64dox8wd,Tss3KNy2,2020-0188,2021-10-31,08:12:54,10:10:13,NA,incomplete,true,NA,NA,true,0,8,NA,NA,NA,left,m_l_084.jpg,yellow,brown,NA,NA,NA,NA,NA,NA,NA,NA,NA,NaN,NA,2618.8999996185303,left,1,NA,NA,NA,NA,NA
Tss3KNy2,3bawbgqgzoco8yjjw9p686v3rigv79,3tmfv4nepcr7alm1nqraxs64dox8wd,Tss3KNy2,2020-0188,2021-10-31,08:12:54,10:10:13,NA,incomplete,true,NA,NA,true,0,9,NA,NA,NA,left,n_l_100.jpg,green,red,NA,NA,NA,NA,NA,NA,NA,NA,NA,NaN,NA,8863.700000286102,left,1,NA,NA,NA,NA,NA
Tss3KNy2,3bawbgqgzoco8yjjw9p686v3rigv79,3tmfv4nepcr7alm1nqraxs64dox8wd,Tss3KNy2,2020-0188,2021-10-31,08:12:54,10:10:13,NA,incomplete,true,NA,NA,true,0,10,NA,NA,NA,right,n_l_087.jpg,brown,yellow,NA,NA,NA,NA,NA,NA,NA,NA,NA,NaN,NA,131443.7000002861,right,1,NA,NA,NA,NA,NA
Tss3KNy2,3bawbgqgzoco8yjjw9p686v3rigv79,3tmfv4nepcr7alm1nqraxs64dox8wd,Tss3KNy2,2020-0188,2021-10-31,08:12:54,10:10:13,NA,incomplete,true,NA,NA,true,0,11,NA,NA,NA,left,m_l_055.jpg,brown,yellow,NA,NA,NA,NA,NA,NA,NA,NA,NA,NaN,NA,15349.400000095367,left,1,NA,NA,NA,NA,NA
Tss3KNy2,3bawbgqgzoco8yjjw9p686v3rigv79,3tmfv4nepcr7alm1nqraxs64dox8wd,Tss3KNy2,2020-0188,2021-10-31,08:12:54,10:10:13,NA,incomplete,true,NA,NA,true,0,12,NA,NA,NA,left,n_l_018.jpg,green,red,NA,NA,NA,NA,NA,NA,NA,NA,NA,NaN,NA,14763.800000190735,left,1,NA,NA,NA,NA,NA
Tss3KNy2,3bawbgqgzoco8yjjw9p686v3rigv79,3tmfv4nepcr7alm1nqraxs64dox8wd,Tss3KNy2,2020-0188,2021-10-31,08:12:54,10:10:13,NA,incomplete,true,NA,NA,true,0,13,NA,NA,NA,left,m_s_049.jpg,gray,brown,NA,NA,NA,NA,NA,NA,NA,NA,NA,NaN,NA,6629.799999713898,left,1,NA,NA,NA,NA,NA
Tss3KNy2,3bawbgqgzoco8yjjw9p686v3rigv79,3tmfv4nepcr7alm1nqraxs64dox8wd,Tss3KNy2,2020-0188,2021-10-31,08:12:54,10:10:13,NA,incomplete,true,NA,NA,true,0,14,NA,NA,NA,left,n_s_062.jpg,brown,gray,NA,NA,NA,NA,NA,NA,NA,NA,NA,NaN,NA,8205.5,left,1,NA,NA,NA,NA,NA
Tss3KNy2,3bawbgqgzoco8yjjw9p686v3rigv79,3tmfv4nepcr7alm1nqraxs64dox8wd,Tss3KNy2,2020-0188,2021-10-31,08:12:54,10:10:13,NA,incomplete,true,NA,NA,true,0,15,NA,NA,NA,left,m_s_059.jpg,orange,yellow,NA,NA,NA,NA,NA,NA,NA,NA,NA,NaN,NA,3445.800000190735,right,0,NA,NA,NA,NA,NA
Tss3KNy2,3bawbgqgzoco8yjjw9p686v3rigv79,3tmfv4nepcr7alm1nqraxs64dox8wd,Tss3KNy2,2020-0188,2021-10-31,08:12:54,10:10:13,NA,incomplete,true,NA,NA,true,0,16,NA,NA,NA,right,n_s_055.jpg,red,green,NA,NA,NA,NA,NA,NA,NA,NA,NA,NaN,NA,2087.7000002861023,right,1,NA,NA,NA,NA,NA
Tss3KNy2,3bawbgqgzoco8yjjw9p686v3rigv79,3tmfv4nepcr7alm1nqraxs64dox8wd,Tss3KNy2,2020-0188,2021-10-31,08:12:54,10:10:13,NA,incomplete,true,NA,NA,true,0,17,NA,NA,NA,right,n_s_103.jpg,green,red,NA,NA,NA,NA,NA,NA,NA,NA,NA,NaN,NA,5399.099999904633,right,1,NA,NA,NA,NA,NA
Tss3KNy2,3bawbgqgzoco8yjjw9p686v3rigv79,3tmfv4nepcr7alm1nqraxs64dox8wd,Tss3KNy2,2020-0188,2021-10-31,08:12:54,10:10:13,NA,incomplete,true,NA,NA,true,0,18,NA,NA,NA,right,m_s_109.jpg,orange,yellow,NA,NA,NA,NA,NA,NA,NA,NA,NA,NaN,NA,3339.7999997138977,right,1,NA,NA,NA,NA,NA
Tss3KNy2,3bawbgqgzoco8yjjw9p686v3rigv79,3tmfv4nepcr7alm1nqraxs64dox8wd,Tss3KNy2,2020-0188,2021-10-31,08:12:54,10:10:13,NA,incomplete,true,NA,NA,true,0,19,NA,NA,NA,left,n_s_078.jpg,gray,red,NA,NA,NA,NA,NA,NA,NA,NA,NA,NaN,NA,4598.60000038147,left,1,NA,NA,NA,NA,NA
Tss3KNy2,3bawbgqgzoco8yjjw9p686v3rigv79,3tmfv4nepcr7alm1nqraxs64dox8wd,Tss3KNy2,2020-0188,2021-10-31,08:12:54,10:10:13,NA,incomplete,true,NA,NA,true,0,20,NA,NA,NA,left,m_l_018.jpg,orange,yellow,NA,NA,NA,NA,NA,NA,NA,NA,NA,NaN,NA,2716.0999999046326,left,1,NA,NA,NA,NA,NA
Tss3KNy2,3bawbgqgzoco8yjjw9p686v3rigv79,3tmfv4nepcr7alm1nqraxs64dox8wd,Tss3KNy2,2020-0188,2021-10-31,08:12:54,10:10:13,NA,incomplete,true,NA,NA,true,0,21,NA,NA,NA,left,m_s_103.jpg,red,gray,NA,NA,NA,NA,NA,NA,NA,NA,NA,NaN,NA,13531.800000190735,left,1,NA,NA,NA,NA,NA
Tss3KNy2,3bawbgqgzoco8yjjw9p686v3rigv79,3tmfv4nepcr7alm1nqraxs64dox8wd,Tss3KNy2,2020-0188,2021-10-31,08:12:54,10:10:13,NA,incomplete,true,NA,true,NA,0,0,NA,NA,NA,right,NA,NA,NA,absent,NA,NA,n_s_062.jpg,brown,m_s_109.jpg,yellow,between,NA,NaN,NA,NA,NA,NA,right,18816.699999809265,1,2,8719.099999904633
Tss3KNy2,3bawbgqgzoco8yjjw9p686v3rigv79,3tmfv4nepcr7alm1nqraxs64dox8wd,Tss3KNy2,2020-0188,2021-10-31,08:12:54,10:10:13,NA,incomplete,true,NA,true,NA,0,1,NA,NA,NA,left,NA,NA,NA,absent,NA,NA,m_s_049.jpg,gray,n_s_078.jpg,gray,within,NA,NaN,NA,NA,NA,NA,left,5869.200000286102,1,2,1749.1999998092651
Tss3KNy2,3bawbgqgzoco8yjjw9p686v3rigv79,3tmfv4nepcr7alm1nqraxs64dox8wd,Tss3KNy2,2020-0188,2021-10-31,08:12:54,10:10:13,NA,incomplete,true,NA,true,NA,0,2,NA,NA,NA,right,NA,NA,NA,absent,NA,NA,n_l_026.jpg,yellow,n_l_087.jpg,yellow,within,NA,NaN,NA,NA,NA,NA,left,11179,0,2,4507.099999904633
Tss3KNy2,3bawbgqgzoco8yjjw9p686v3rigv79,3tmfv4nepcr7alm1nqraxs64dox8wd,Tss3KNy2,2020-0188,2021-10-31,08:12:54,10:10:13,NA,incomplete,true,NA,true,NA,0,3,NA,NA,NA,left,NA,NA,NA,absent,NA,NA,m_l_055.jpg,brown,n_l_047.jpg,gray,between,NA,NaN,NA,NA,NA,NA,left,23363.299999713898,1,2,12128.400000095367
Tss3KNy2,3bawbgqgzoco8yjjw9p686v3rigv79,3tmfv4nepcr7alm1nqraxs64dox8wd,Tss3KNy2,2020-0188,2021-10-31,08:12:54,10:10:13,NA,incomplete,true,NA,true,NA,0,4,NA,NA,NA,left,NA,NA,NA,absent,NA,NA,n_s_055.jpg,green,n_l_018.jpg,green,within,NA,NaN,NA,NA,NA,NA,left,30855.5,1,3,4237.099999904633
Tss3KNy2,3bawbgqgzoco8yjjw9p686v3rigv79,3tmfv4nepcr7alm1nqraxs64dox8wd,Tss3KNy2,2020-0188,2021-10-31,08:12:54,10:10:13,NA,incomplete,true,NA,true,NA,0,5,NA,NA,NA,left,NA,NA,NA,absent,NA,NA,m_l_033.jpg,gray,n_s_103.jpg,red,between,NA,NaN,NA,NA,NA,NA,left,18415.300000190735,1,2,4597.900000095367
Tss3KNy2,3bawbgqgzoco8yjjw9p686v3rigv79,3tmfv4nepcr7alm1nqraxs64dox8wd,Tss3KNy2,2020-0188,2021-10-31,08:12:54,10:10:13,NA,incomplete,true,NA,true,NA,0,6,NA,NA,NA,left,NA,NA,NA,absent,NA,NA,n_s_096.jpg,red,m_s_103.jpg,red,within,NA,NaN,NA,NA,NA,NA,left,9696.900000095367,1,2,15833.199999809265
Tss3KNy2,3bawbgqgzoco8yjjw9p686v3rigv79,3tmfv4nepcr7alm1nqraxs64dox8wd,Tss3KNy2,2020-0188,2021-10-31,08:12:54,10:10:13,NA,incomplete,true,NA,true,NA,0,7,NA,NA,NA,right,NA,NA,NA,absent,NA,NA,n_l_100.jpg,green,n_s_087.jpg,red,between,NA,NaN,NA,NA,NA,NA,right,25503.199999809265,1,3,3204.5
Tss3KNy2,3bawbgqgzoco8yjjw9p686v3rigv79,3tmfv4nepcr7alm1nqraxs64dox8wd,Tss3KNy2,2020-0188,2021-10-31,08:12:54,10:10:13,NA,incomplete,true,NA,true,NA,0,8,NA,NA,NA,left,NA,NA,NA,absent,NA,NA,n_s_097.jpg,orange,m_l_084.jpg,yellow,between,NA,NaN,NA,NA,NA,NA,left,60979.300000190735,1,3,11364
Tss3KNy2,3bawbgqgzoco8yjjw9p686v3rigv79,3tmfv4nepcr7alm1nqraxs64dox8wd,Tss3KNy2,2020-0188,2021-10-31,08:12:54,10:10:13,NA,incomplete,true,NA,true,NA,0,9,NA,NA,NA,right,NA,NA,NA,absent,NA,NA,m_l_018.jpg,orange,m_s_059.jpg,orange,within,NA,NaN,NA,NA,NA,NA,right,34382.7999997139,1,0,16944.099999904633
Tss3KNy2,3bawbgqgzoco8yjjw9p686v3rigv79,3tmfv4nepcr7alm1nqraxs64dox8wd,Tss3KNy2,2020-0188,2021-10-31,08:12:54,10:10:13,NA,incomplete,true,NA,true,NA,0,10,NA,NA,NA,right,NA,NA,NA,absent,NA,NA,m_s_114.jpg,brown,m_s_072.jpg,brown,within,NA,NaN,NA,NA,NA,NA,right,26458.799999713898,1,3,11986.300000190735
Tss3KNy2,3bawbgqgzoco8yjjw9p686v3rigv79,3tmfv4nepcr7alm1nqraxs64dox8wd,Tss3KNy2,2020-0188,2021-10-31,08:12:54,10:10:13,NA,incomplete,false,true,NA,NA,1,0,NA,red,n_s_054.jpg,NA,NA,NA,NA,NA,pleasant,unpleasant,NA,NA,NA,NA,NA,right,3166.30000019073,true,NA,NA,NA,NA,NA,NA,NA,NA
Tss3KNy2,3bawbgqgzoco8yjjw9p686v3rigv79,3tmfv4nepcr7alm1nqraxs64dox8wd,Tss3KNy2,2020-0188,2021-10-31,08:12:54,10:10:13,NA,incomplete,false,true,NA,NA,1,1,NA,red,n_l_033.jpg,NA,NA,NA,NA,NA,unpleasant,pleasant,NA,NA,NA,NA,NA,right,1982.40000009537,true,NA,NA,NA,NA,NA,NA,NA,NA
Tss3KNy2,3bawbgqgzoco8yjjw9p686v3rigv79,3tmfv4nepcr7alm1nqraxs64dox8wd,Tss3KNy2,2020-0188,2021-10-31,08:12:54,10:10:13,NA,incomplete,false,true,NA,NA,1,2,NA,red,n_s_116.jpg,NA,NA,NA,NA,NA,unpleasant,pleasant,NA,NA,NA,NA,NA,right,1414,true,NA,NA,NA,NA,NA,NA,NA,NA
Tss3KNy2,3bawbgqgzoco8yjjw9p686v3rigv79,3tmfv4nepcr7alm1nqraxs64dox8wd,Tss3KNy2,2020-0188,2021-10-31,08:12:54,10:10:13,NA,incomplete,false,true,NA,NA,1,3,NA,red,m_s_061.jpg,NA,NA,NA,NA,NA,pleasant,unpleasant,NA,NA,NA,NA,NA,left,1429.80000019073,true,NA,NA,NA,NA,NA,NA,NA,NA
Tss3KNy2,3bawbgqgzoco8yjjw9p686v3rigv79,3tmfv4nepcr7alm1nqraxs64dox8wd,Tss3KNy2,2020-0188,2021-10-31,08:12:54,10:10:13,NA,incomplete,false,true,NA,NA,1,4,NA,red,m_l_082.jpg,NA,NA,NA,NA,NA,unpleasant,pleasant,NA,NA,NA,NA,NA,right,1155.90000009537,true,NA,NA,NA,NA,NA,NA,NA,NA
Tss3KNy2,3bawbgqgzoco8yjjw9p686v3rigv79,3tmfv4nepcr7alm1nqraxs64dox8wd,Tss3KNy2,2020-0188,2021-10-31,08:12:54,10:10:13,NA,incomplete,false,true,NA,NA,1,5,NA,red,n_l_090.jpg,NA,NA,NA,NA,NA,unpleasant,pleasant,NA,NA,NA,NA,NA,right,1556.60000038147,true,NA,NA,NA,NA,NA,NA,NA,NA
Tss3KNy2,3bawbgqgzoco8yjjw9p686v3rigv79,3tmfv4nepcr7alm1nqraxs64dox8wd,Tss3KNy2,2020-0188,2021-10-31,08:12:54,10:10:13,NA,incomplete,false,true,NA,NA,1,6,NA,purple,n_l_102.jpg,NA,NA,NA,NA,NA,pleasant,unpleasant,NA,NA,NA,NA,NA,left,2090.09999990463,true,NA,NA,NA,NA,NA,NA,NA,NA
Tss3KNy2,3bawbgqgzoco8yjjw9p686v3rigv79,3tmfv4nepcr7alm1nqraxs64dox8wd,Tss3KNy2,2020-0188,2021-10-31,08:12:54,10:10:13,NA,incomplete,false,true,NA,NA,1,7,NA,purple,m_s_053.jpg,NA,NA,NA,NA,NA,pleasant,unpleasant,NA,NA,NA,NA,NA,left,1577.40000009537,true,NA,NA,NA,NA,NA,NA,NA,NA
Tss3KNy2,3bawbgqgzoco8yjjw9p686v3rigv79,3tmfv4nepcr7alm1nqraxs64dox8wd,Tss3KNy2,2020-0188,2021-10-31,08:12:54,10:10:13,NA,incomplete,false,true,NA,NA,1,8,NA,purple,n_s_003.jpg,NA,NA,NA,NA,NA,pleasant,unpleasant,NA,NA,NA,NA,NA,left,1044.90000009537,true,NA,NA,NA,NA,NA,NA,NA,NA
Tss3KNy2,3bawbgqgzoco8yjjw9p686v3rigv79,3tmfv4nepcr7alm1nqraxs64dox8wd,Tss3KNy2,2020-0188,2021-10-31,08:12:54,10:10:13,NA,incomplete,false,true,NA,NA,1,9,NA,purple,m_l_043.jpg,NA,NA,NA,NA,NA,unpleasant,pleasant,NA,NA,NA,NA,NA,left,1027.69999980927,true,NA,NA,NA,NA,NA,NA,NA,NA
Tss3KNy2,3bawbgqgzoco8yjjw9p686v3rigv79,3tmfv4nepcr7alm1nqraxs64dox8wd,Tss3KNy2,2020-0188,2021-10-31,08:12:54,10:10:13,NA,incomplete,false,true,NA,NA,1,10,NA,purple,m_l_052.jpg,NA,NA,NA,NA,NA,pleasant,unpleasant,NA,NA,NA,NA,NA,left,1607.69999980927,true,NA,NA,NA,NA,NA,NA,NA,NA
Tss3KNy2,3bawbgqgzoco8yjjw9p686v3rigv79,3tmfv4nepcr7alm1nqraxs64dox8wd,Tss3KNy2,2020-0188,2021-10-31,08:12:54,10:10:13,NA,incomplete,false,true,NA,NA,1,11,NA,purple,m_l_012.jpg,NA,NA,NA,NA,NA,pleasant,unpleasant,NA,NA,NA,NA,NA,left,2292.40000009537,true,NA,NA,NA,NA,NA,NA,NA,NA
Tss3KNy2,3bawbgqgzoco8yjjw9p686v3rigv79,3tmfv4nepcr7alm1nqraxs64dox8wd,Tss3KNy2,2020-0188,2021-10-31,08:12:54,10:10:13,NA,incomplete,false,true,NA,NA,1,12,NA,black,m_l_032.jpg,NA,NA,NA,NA,NA,unpleasant,pleasant,NA,NA,NA,NA,NA,right,1548,true,NA,NA,NA,NA,NA,NA,NA,NA
Tss3KNy2,3bawbgqgzoco8yjjw9p686v3rigv79,3tmfv4nepcr7alm1nqraxs64dox8wd,Tss3KNy2,2020-0188,2021-10-31,08:12:54,10:10:13,NA,incomplete,false,true,NA,NA,1,13,NA,black,n_s_033.jpg,NA,NA,NA,NA,NA,pleasant,unpleasant,NA,NA,NA,NA,NA,left,1533,true,NA,NA,NA,NA,NA,NA,NA,NA
Tss3KNy2,3bawbgqgzoco8yjjw9p686v3rigv79,3tmfv4nepcr7alm1nqraxs64dox8wd,Tss3KNy2,2020-0188,2021-10-31,08:12:54,10:10:13,NA,incomplete,false,true,NA,NA,1,14,NA,black,m_s_030.jpg,NA,NA,NA,NA,NA,pleasant,unpleasant,NA,NA,NA,NA,NA,left,1416.60000038147,true,NA,NA,NA,NA,NA,NA,NA,NA
Tss3KNy2,3bawbgqgzoco8yjjw9p686v3rigv79,3tmfv4nepcr7alm1nqraxs64dox8wd,Tss3KNy2,2020-0188,2021-10-31,08:12:54,10:10:13,NA,incomplete,false,true,NA,NA,1,15,NA,black,n_l_115.jpg,NA,NA,NA,NA,NA,pleasant,unpleasant,NA,NA,NA,NA,NA,left,2017.60000038147,true,NA,NA,NA,NA,NA,NA,NA,NA
Tss3KNy2,3bawbgqgzoco8yjjw9p686v3rigv79,3tmfv4nepcr7alm1nqraxs64dox8wd,Tss3KNy2,2020-0188,2021-10-31,08:12:54,10:10:13,NA,incomplete,false,true,NA,NA,1,16,NA,black,m_l_080.jpg,NA,NA,NA,NA,NA,unpleasant,pleasant,NA,NA,NA,NA,NA,right,1507.69999980927,true,NA,NA,NA,NA,NA,NA,NA,NA
Tss3KNy2,3bawbgqgzoco8yjjw9p686v3rigv79,3tmfv4nepcr7alm1nqraxs64dox8wd,Tss3KNy2,2020-0188,2021-10-31,08:12:54,10:10:13,NA,incomplete,false,true,NA,NA,1,17,NA,black,n_l_099.jpg,NA,NA,NA,NA,NA,pleasant,unpleasant,NA,NA,NA,NA,NA,left,1533.2999997139,true,NA,NA,NA,NA,NA,NA,NA,NA
Tss3KNy2,3bawbgqgzoco8yjjw9p686v3rigv79,3tmfv4nepcr7alm1nqraxs64dox8wd,Tss3KNy2,2020-0188,2021-10-31,08:12:54,10:10:13,NA,incomplete,false,true,NA,NA,1,18,NA,brown,n_l_088.jpg,NA,NA,NA,NA,NA,unpleasant,pleasant,NA,NA,NA,NA,NA,right,1912.90000009537,true,NA,NA,NA,NA,NA,NA,NA,NA
Tss3KNy2,3bawbgqgzoco8yjjw9p686v3rigv79,3tmfv4nepcr7alm1nqraxs64dox8wd,Tss3KNy2,2020-0188,2021-10-31,08:12:54,10:10:13,NA,incomplete,false,true,NA,NA,1,19,NA,brown,n_s_053.jpg,NA,NA,NA,NA,NA,unpleasant,pleasant,NA,NA,NA,NA,NA,right,2077.19999980927,true,NA,NA,NA,NA,NA,NA,NA,NA
Tss3KNy2,3bawbgqgzoco8yjjw9p686v3rigv79,3tmfv4nepcr7alm1nqraxs64dox8wd,Tss3KNy2,2020-0188,2021-10-31,08:12:54,10:10:13,NA,incomplete,false,true,NA,NA,1,20,NA,brown,n_s_049.jpg,NA,NA,NA,NA,NA,pleasant,unpleasant,NA,NA,NA,NA,NA,left,1821.5,true,NA,NA,NA,NA,NA,NA,NA,NA
Tss3KNy2,3bawbgqgzoco8yjjw9p686v3rigv79,3tmfv4nepcr7alm1nqraxs64dox8wd,Tss3KNy2,2020-0188,2021-10-31,08:12:54,10:10:13,NA,incomplete,false,true,NA,NA,1,21,NA,brown,n_l_116.jpg,NA,NA,NA,NA,NA,unpleasant,pleasant,NA,NA,NA,NA,NA,right,1752.90000009537,true,NA,NA,NA,NA,NA,NA,NA,NA
Tss3KNy2,3bawbgqgzoco8yjjw9p686v3rigv79,3tmfv4nepcr7alm1nqraxs64dox8wd,Tss3KNy2,2020-0188,2021-10-31,08:12:54,10:10:13,NA,incomplete,false,true,NA,NA,1,22,NA,brown,n_s_076.jpg,NA,NA,NA,NA,NA,unpleasant,pleasant,NA,NA,NA,NA,NA,right,1845.7000002861,true,NA,NA,NA,NA,NA,NA,NA,NA
Tss3KNy2,3bawbgqgzoco8yjjw9p686v3rigv79,3tmfv4nepcr7alm1nqraxs64dox8wd,Tss3KNy2,2020-0188,2021-10-31,08:12:54,10:10:13,NA,incomplete,false,true,NA,NA,1,23,NA,brown,n_l_094.jpg,NA,NA,NA,NA,NA,unpleasant,pleasant,NA,NA,NA,NA,NA,right,3452.30000019073,true,NA,NA,NA,NA,NA,NA,NA,NA
Tss3KNy2,3bawbgqgzoco8yjjw9p686v3rigv79,3tmfv4nepcr7alm1nqraxs64dox8wd,Tss3KNy2,2020-0188,2021-10-31,08:12:54,10:10:13,NA,incomplete,false,true,NA,NA,1,24,NA,yellow,n_s_014.jpg,NA,NA,NA,NA,NA,pleasant,unpleasant,NA,NA,NA,NA,NA,left,1880.5,true,NA,NA,NA,NA,NA,NA,NA,NA
Tss3KNy2,3bawbgqgzoco8yjjw9p686v3rigv79,3tmfv4nepcr7alm1nqraxs64dox8wd,Tss3KNy2,2020-0188,2021-10-31,08:12:54,10:10:13,NA,incomplete,false,true,NA,NA,1,25,NA,yellow,m_l_103.jpg,NA,NA,NA,NA,NA,unpleasant,pleasant,NA,NA,NA,NA,NA,right,1887,true,NA,NA,NA,NA,NA,NA,NA,NA
Tss3KNy2,3bawbgqgzoco8yjjw9p686v3rigv79,3tmfv4nepcr7alm1nqraxs64dox8wd,Tss3KNy2,2020-0188,2021-10-31,08:12:54,10:10:13,NA,incomplete,false,true,NA,NA,1,26,NA,yellow,m_s_032.jpg,NA,NA,NA,NA,NA,pleasant,unpleasant,NA,NA,NA,NA,NA,left,1633.5,true,NA,NA,NA,NA,NA,NA,NA,NA
Tss3KNy2,3bawbgqgzoco8yjjw9p686v3rigv79,3tmfv4nepcr7alm1nqraxs64dox8wd,Tss3KNy2,2020-0188,2021-10-31,08:12:54,10:10:13,NA,incomplete,false,true,NA,NA,1,27,NA,yellow,n_l_071.jpg,NA,NA,NA,NA,NA,pleasant,unpleasant,NA,NA,NA,NA,NA,left,1834.69999980927,true,NA,NA,NA,NA,NA,NA,NA,NA
Tss3KNy2,3bawbgqgzoco8yjjw9p686v3rigv79,3tmfv4nepcr7alm1nqraxs64dox8wd,Tss3KNy2,2020-0188,2021-10-31,08:12:54,10:10:13,NA,incomplete,false,true,NA,NA,1,28,NA,yellow,m_l_072.jpg,NA,NA,NA,NA,NA,unpleasant,pleasant,NA,NA,NA,NA,NA,right,1350.2000002861,true,NA,NA,NA,NA,NA,NA,NA,NA
Tss3KNy2,3bawbgqgzoco8yjjw9p686v3rigv79,3tmfv4nepcr7alm1nqraxs64dox8wd,Tss3KNy2,2020-0188,2021-10-31,08:12:54,10:10:13,NA,incomplete,false,true,NA,NA,1,29,NA,yellow,n_l_030.jpg,NA,NA,NA,NA,NA,unpleasant,pleasant,NA,NA,NA,NA,NA,right,1697.90000009537,true,NA,NA,NA,NA,NA,NA,NA,NA
Tss3KNy2,3bawbgqgzoco8yjjw9p686v3rigv79,3tmfv4nepcr7alm1nqraxs64dox8wd,Tss3KNy2,2020-0188,2021-10-31,08:12:54,10:10:13,NA,incomplete,false,true,NA,NA,1,30,NA,orange,m_s_002.jpg,NA,NA,NA,NA,NA,unpleasant,pleasant,NA,NA,NA,NA,NA,right,1620,true,NA,NA,NA,NA,NA,NA,NA,NA
Tss3KNy2,3bawbgqgzoco8yjjw9p686v3rigv79,3tmfv4nepcr7alm1nqraxs64dox8wd,Tss3KNy2,2020-0188,2021-10-31,08:12:54,10:10:13,NA,incomplete,false,true,NA,NA,1,31,NA,orange,n_l_025.jpg,NA,NA,NA,NA,NA,unpleasant,pleasant,NA,NA,NA,NA,NA,right,1667.2999997139,true,NA,NA,NA,NA,NA,NA,NA,NA
Tss3KNy2,3bawbgqgzoco8yjjw9p686v3rigv79,3tmfv4nepcr7alm1nqraxs64dox8wd,Tss3KNy2,2020-0188,2021-10-31,08:12:54,10:10:13,NA,incomplete,false,true,NA,NA,1,32,NA,orange,n_l_104.jpg,NA,NA,NA,NA,NA,unpleasant,pleasant,NA,NA,NA,NA,NA,right,1310.89999961853,true,NA,NA,NA,NA,NA,NA,NA,NA
Tss3KNy2,3bawbgqgzoco8yjjw9p686v3rigv79,3tmfv4nepcr7alm1nqraxs64dox8wd,Tss3KNy2,2020-0188,2021-10-31,08:12:54,10:10:13,NA,incomplete,false,true,NA,NA,1,33,NA,orange,m_l_035.jpg,NA,NA,NA,NA,NA,pleasant,unpleasant,NA,NA,NA,NA,NA,left,1644.59999990463,true,NA,NA,NA,NA,NA,NA,NA,NA
Tss3KNy2,3bawbgqgzoco8yjjw9p686v3rigv79,3tmfv4nepcr7alm1nqraxs64dox8wd,Tss3KNy2,2020-0188,2021-10-31,08:12:54,10:10:13,NA,incomplete,false,true,NA,NA,1,34,NA,orange,m_l_029.jpg,NA,NA,NA,NA,NA,unpleasant,pleasant,NA,NA,NA,NA,NA,right,1273.39999961853,true,NA,NA,NA,NA,NA,NA,NA,NA
Tss3KNy2,3bawbgqgzoco8yjjw9p686v3rigv79,3tmfv4nepcr7alm1nqraxs64dox8wd,Tss3KNy2,2020-0188,2021-10-31,08:12:54,10:10:13,NA,incomplete,false,true,NA,NA,1,35,NA,orange,n_s_107.jpg,NA,NA,NA,NA,NA,pleasant,unpleasant,NA,NA,NA,NA,NA,left,1374,true,NA,NA,NA,NA,NA,NA,NA,NA
Tss3KNy2,3bawbgqgzoco8yjjw9p686v3rigv79,3tmfv4nepcr7alm1nqraxs64dox8wd,Tss3KNy2,2020-0188,2021-10-31,08:12:54,10:10:13,NA,incomplete,false,NA,NA,true,1,0,NA,NA,NA,left,n_l_090.jpg,red,purple,NA,NA,NA,NA,NA,NA,NA,NA,NA,NaN,NA,14397.400000095367,left,1,NA,NA,NA,NA,NA
Tss3KNy2,3bawbgqgzoco8yjjw9p686v3rigv79,3tmfv4nepcr7alm1nqraxs64dox8wd,Tss3KNy2,2020-0188,2021-10-31,08:12:54,10:10:13,NA,incomplete,false,NA,NA,true,1,1,NA,NA,NA,left,n_s_049.jpg,brown,black,NA,NA,NA,NA,NA,NA,NA,NA,NA,NaN,NA,12965.400000095367,left,1,NA,NA,NA,NA,NA
Tss3KNy2,3bawbgqgzoco8yjjw9p686v3rigv79,3tmfv4nepcr7alm1nqraxs64dox8wd,Tss3KNy2,2020-0188,2021-10-31,08:12:54,10:10:13,NA,incomplete,false,NA,NA,true,1,2,NA,NA,NA,left,m_l_082.jpg,red,purple,NA,NA,NA,NA,NA,NA,NA,NA,NA,NaN,NA,6393.599999904633,left,1,NA,NA,NA,NA,NA
Tss3KNy2,3bawbgqgzoco8yjjw9p686v3rigv79,3tmfv4nepcr7alm1nqraxs64dox8wd,Tss3KNy2,2020-0188,2021-10-31,08:12:54,10:10:13,NA,incomplete,false,NA,NA,true,1,3,NA,NA,NA,right,n_s_076.jpg,black,brown,NA,NA,NA,NA,NA,NA,NA,NA,NA,NaN,NA,10774,right,1,NA,NA,NA,NA,NA
Tss3KNy2,3bawbgqgzoco8yjjw9p686v3rigv79,3tmfv4nepcr7alm1nqraxs64dox8wd,Tss3KNy2,2020-0188,2021-10-31,08:12:54,10:10:13,NA,incomplete,false,NA,NA,true,1,4,NA,NA,NA,left,m_l_103.jpg,yellow,brown,NA,NA,NA,NA,NA,NA,NA,NA,NA,NaN,NA,6536.699999809265,left,1,NA,NA,NA,NA,NA
Tss3KNy2,3bawbgqgzoco8yjjw9p686v3rigv79,3tmfv4nepcr7alm1nqraxs64dox8wd,Tss3KNy2,2020-0188,2021-10-31,08:12:54,10:10:13,NA,incomplete,false,NA,NA,true,1,5,NA,NA,NA,left,m_l_052.jpg,purple,red,NA,NA,NA,NA,NA,NA,NA,NA,NA,NaN,NA,5365.900000095367,left,1,NA,NA,NA,NA,NA
Tss3KNy2,3bawbgqgzoco8yjjw9p686v3rigv79,3tmfv4nepcr7alm1nqraxs64dox8wd,Tss3KNy2,2020-0188,2021-10-31,08:12:54,10:10:13,NA,incomplete,false,NA,NA,true,1,6,NA,NA,NA,right,n_s_003.jpg,black,purple,NA,NA,NA,NA,NA,NA,NA,NA,NA,NaN,NA,6585.799999713898,right,1,NA,NA,NA,NA,NA
Tss3KNy2,3bawbgqgzoco8yjjw9p686v3rigv79,3tmfv4nepcr7alm1nqraxs64dox8wd,Tss3KNy2,2020-0188,2021-10-31,08:12:54,10:10:13,NA,incomplete,false,NA,NA,true,1,7,NA,NA,NA,left,n_l_033.jpg,red,purple,NA,NA,NA,NA,NA,NA,NA,NA,NA,NaN,NA,3364.699999809265,left,1,NA,NA,NA,NA,NA
Tss3KNy2,3bawbgqgzoco8yjjw9p686v3rigv79,3tmfv4nepcr7alm1nqraxs64dox8wd,Tss3KNy2,2020-0188,2021-10-31,08:12:54,10:10:13,NA,incomplete,false,NA,NA,true,1,8,NA,NA,NA,right,n_l_104.jpg,yellow,orange,NA,NA,NA,NA,NA,NA,NA,NA,NA,NaN,NA,9140.599999904633,right,1,NA,NA,NA,NA,NA
Tss3KNy2,3bawbgqgzoco8yjjw9p686v3rigv79,3tmfv4nepcr7alm1nqraxs64dox8wd,Tss3KNy2,2020-0188,2021-10-31,08:12:54,10:10:13,NA,incomplete,false,NA,NA,true,1,9,NA,NA,NA,right,n_s_053.jpg,yellow,brown,NA,NA,NA,NA,NA,NA,NA,NA,NA,NaN,NA,16736.199999809265,right,1,NA,NA,NA,NA,NA
Tss3KNy2,3bawbgqgzoco8yjjw9p686v3rigv79,3tmfv4nepcr7alm1nqraxs64dox8wd,Tss3KNy2,2020-0188,2021-10-31,08:12:54,10:10:13,NA,incomplete,false,NA,NA,true,1,10,NA,NA,NA,left,n_s_107.jpg,orange,yellow,NA,NA,NA,NA,NA,NA,NA,NA,NA,NaN,NA,35817.89999961853,right,0,NA,NA,NA,NA,NA
Tss3KNy2,3bawbgqgzoco8yjjw9p686v3rigv79,3tmfv4nepcr7alm1nqraxs64dox8wd,Tss3KNy2,2020-0188,2021-10-31,08:12:54,10:10:13,NA,incomplete,false,NA,NA,true,1,11,NA,NA,NA,left,n_l_030.jpg,yellow,orange,NA,NA,NA,NA,NA,NA,NA,NA,NA,NaN,NA,6749.400000095367,left,1,NA,NA,NA,NA,NA
Tss3KNy2,3bawbgqgzoco8yjjw9p686v3rigv79,3tmfv4nepcr7alm1nqraxs64dox8wd,Tss3KNy2,2020-0188,2021-10-31,08:12:54,10:10:13,NA,incomplete,false,NA,NA,true,1,12,NA,NA,NA,left,m_l_012.jpg,purple,red,NA,NA,NA,NA,NA,NA,NA,NA,NA,NaN,NA,9807,left,1,NA,NA,NA,NA,NA
Tss3KNy2,3bawbgqgzoco8yjjw9p686v3rigv79,3tmfv4nepcr7alm1nqraxs64dox8wd,Tss3KNy2,2020-0188,2021-10-31,08:12:54,10:10:13,NA,incomplete,false,NA,NA,true,1,13,NA,NA,NA,left,m_s_053.jpg,purple,black,NA,NA,NA,NA,NA,NA,NA,NA,NA,NaN,NA,14726.699999809265,left,1,NA,NA,NA,NA,NA
Tss3KNy2,3bawbgqgzoco8yjjw9p686v3rigv79,3tmfv4nepcr7alm1nqraxs64dox8wd,Tss3KNy2,2020-0188,2021-10-31,08:12:54,10:10:13,NA,incomplete,false,NA,NA,true,1,14,NA,NA,NA,left,n_s_033.jpg,black,brown,NA,NA,NA,NA,NA,NA,NA,NA,NA,NaN,NA,4478.400000095367,left,1,NA,NA,NA,NA,NA
Tss3KNy2,3bawbgqgzoco8yjjw9p686v3rigv79,3tmfv4nepcr7alm1nqraxs64dox8wd,Tss3KNy2,2020-0188,2021-10-31,08:12:54,10:10:13,NA,incomplete,false,NA,NA,true,1,15,NA,NA,NA,left,m_l_072.jpg,yellow,brown,NA,NA,NA,NA,NA,NA,NA,NA,NA,NaN,NA,12419,left,1,NA,NA,NA,NA,NA
Tss3KNy2,3bawbgqgzoco8yjjw9p686v3rigv79,3tmfv4nepcr7alm1nqraxs64dox8wd,Tss3KNy2,2020-0188,2021-10-31,08:12:54,10:10:13,NA,incomplete,false,NA,NA,true,1,16,NA,NA,NA,left,m_s_030.jpg,black,purple,NA,NA,NA,NA,NA,NA,NA,NA,NA,NaN,NA,6858.400000095367,left,1,NA,NA,NA,NA,NA
Tss3KNy2,3bawbgqgzoco8yjjw9p686v3rigv79,3tmfv4nepcr7alm1nqraxs64dox8wd,Tss3KNy2,2020-0188,2021-10-31,08:12:54,10:10:13,NA,incomplete,false,NA,NA,true,1,17,NA,NA,NA,right,m_s_032.jpg,orange,yellow,NA,NA,NA,NA,NA,NA,NA,NA,NA,NaN,NA,8579,right,1,NA,NA,NA,NA,NA
Tss3KNy2,3bawbgqgzoco8yjjw9p686v3rigv79,3tmfv4nepcr7alm1nqraxs64dox8wd,Tss3KNy2,2020-0188,2021-10-31,08:12:54,10:10:13,NA,incomplete,false,NA,NA,true,1,18,NA,NA,NA,right,n_l_094.jpg,black,brown,NA,NA,NA,NA,NA,NA,NA,NA,NA,NaN,NA,11504.699999809265,right,1,NA,NA,NA,NA,NA
Tss3KNy2,3bawbgqgzoco8yjjw9p686v3rigv79,3tmfv4nepcr7alm1nqraxs64dox8wd,Tss3KNy2,2020-0188,2021-10-31,08:12:54,10:10:13,NA,incomplete,false,NA,NA,true,1,19,NA,NA,NA,right,m_l_080.jpg,brown,black,NA,NA,NA,NA,NA,NA,NA,NA,NA,NaN,NA,10286.599999904633,right,1,NA,NA,NA,NA,NA
Tss3KNy2,3bawbgqgzoco8yjjw9p686v3rigv79,3tmfv4nepcr7alm1nqraxs64dox8wd,Tss3KNy2,2020-0188,2021-10-31,08:12:54,10:10:13,NA,incomplete,false,NA,NA,true,1,20,NA,NA,NA,right,n_l_099.jpg,purple,black,NA,NA,NA,NA,NA,NA,NA,NA,NA,NaN,NA,9456.099999904633,right,1,NA,NA,NA,NA,NA
Tss3KNy2,3bawbgqgzoco8yjjw9p686v3rigv79,3tmfv4nepcr7alm1nqraxs64dox8wd,Tss3KNy2,2020-0188,2021-10-31,08:12:54,10:10:13,NA,incomplete,false,NA,NA,true,1,21,NA,NA,NA,right,n_l_025.jpg,yellow,orange,NA,NA,NA,NA,NA,NA,NA,NA,NA,NaN,NA,16053.400000095367,right,1,NA,NA,NA,NA,NA
Tss3KNy2,3bawbgqgzoco8yjjw9p686v3rigv79,3tmfv4nepcr7alm1nqraxs64dox8wd,Tss3KNy2,2020-0188,2021-10-31,08:12:54,10:10:13,NA,incomplete,false,NA,true,NA,1,0,NA,NA,NA,right,NA,NA,NA,absent,NA,NA,m_l_012.jpg,purple,m_s_053.jpg,purple,within,NA,NaN,NA,NA,NA,NA,right,35350.59999990463,1,3,2039.5
Tss3KNy2,3bawbgqgzoco8yjjw9p686v3rigv79,3tmfv4nepcr7alm1nqraxs64dox8wd,Tss3KNy2,2020-0188,2021-10-31,08:12:54,10:10:13,NA,incomplete,false,NA,true,NA,1,1,NA,NA,NA,right,NA,NA,NA,absent,NA,NA,n_l_094.jpg,brown,n_s_053.jpg,brown,within,NA,NaN,NA,NA,NA,NA,right,22792.5,1,3,1844.9000000953674
Tss3KNy2,3bawbgqgzoco8yjjw9p686v3rigv79,3tmfv4nepcr7alm1nqraxs64dox8wd,Tss3KNy2,2020-0188,2021-10-31,08:12:54,10:10:13,NA,incomplete,false,NA,true,NA,1,2,NA,NA,NA,right,NA,NA,NA,absent,NA,NA,n_s_003.jpg,purple,m_l_082.jpg,red,between,NA,NaN,NA,NA,NA,NA,left,9112,0,3,1973.5
Tss3KNy2,3bawbgqgzoco8yjjw9p686v3rigv79,3tmfv4nepcr7alm1nqraxs64dox8wd,Tss3KNy2,2020-0188,2021-10-31,08:12:54,10:10:13,NA,incomplete,false,NA,true,NA,1,3,NA,NA,NA,right,NA,NA,NA,absent,NA,NA,n_l_104.jpg,orange,m_l_072.jpg,yellow,between,NA,NaN,NA,NA,NA,NA,right,25445.699999809265,1,3,2509
Tss3KNy2,3bawbgqgzoco8yjjw9p686v3rigv79,3tmfv4nepcr7alm1nqraxs64dox8wd,Tss3KNy2,2020-0188,2021-10-31,08:12:54,10:10:13,NA,incomplete,false,NA,true,NA,1,4,NA,NA,NA,right,NA,NA,NA,absent,NA,NA,n_s_049.jpg,brown,m_l_080.jpg,black,between,NA,NaN,NA,NA,NA,NA,right,16012.700000286102,1,3,1619.3000001907349
Tss3KNy2,3bawbgqgzoco8yjjw9p686v3rigv79,3tmfv4nepcr7alm1nqraxs64dox8wd,Tss3KNy2,2020-0188,2021-10-31,08:12:54,10:10:13,NA,incomplete,false,NA,true,NA,1,5,NA,NA,NA,right,NA,NA,NA,absent,NA,NA,m_s_030.jpg,black,m_l_052.jpg,purple,between,NA,NaN,NA,NA,NA,NA,right,13797,1,3,1846.0999999046326
Tss3KNy2,3bawbgqgzoco8yjjw9p686v3rigv79,3tmfv4nepcr7alm1nqraxs64dox8wd,Tss3KNy2,2020-0188,2021-10-31,08:12:54,10:10:13,NA,incomplete,false,NA,true,NA,1,6,NA,NA,NA,left,NA,NA,NA,absent,NA,NA,m_l_103.jpg,yellow,n_l_030.jpg,yellow,within,NA,NaN,NA,NA,NA,NA,left,16679.300000190735,1,3,1691.6999998092651
Tss3KNy2,3bawbgqgzoco8yjjw9p686v3rigv79,3tmfv4nepcr7alm1nqraxs64dox8wd,Tss3KNy2,2020-0188,2021-10-31,08:12:54,10:10:13,NA,incomplete,false,NA,true,NA,1,7,NA,NA,NA,left,NA,NA,NA,absent,NA,NA,n_s_033.jpg,black,n_l_099.jpg,black,within,NA,NaN,NA,NA,NA,NA,left,12631.099999904633,1,3,2540.7000002861023
Tss3KNy2,3bawbgqgzoco8yjjw9p686v3rigv79,3tmfv4nepcr7alm1nqraxs64dox8wd,Tss3KNy2,2020-0188,2021-10-31,08:12:54,10:10:13,NA,incomplete,false,NA,true,NA,1,8,NA,NA,NA,left,NA,NA,NA,absent,NA,NA,n_s_076.jpg,brown,m_s_032.jpg,yellow,between,NA,NaN,NA,NA,NA,NA,left,44836.5,1,3,2279
Tss3KNy2,3bawbgqgzoco8yjjw9p686v3rigv79,3tmfv4nepcr7alm1nqraxs64dox8wd,Tss3KNy2,2020-0188,2021-10-31,08:12:54,10:10:13,NA,incomplete,false,NA,true,NA,1,9,NA,NA,NA,right,NA,NA,NA,absent,NA,NA,n_l_090.jpg,red,n_l_033.jpg,red,within,NA,NaN,NA,NA,NA,NA,right,10640.400000095367,1,3,1553
Tss3KNy2,3bawbgqgzoco8yjjw9p686v3rigv79,3tmfv4nepcr7alm1nqraxs64dox8wd,Tss3KNy2,2020-0188,2021-10-31,08:12:54,10:10:13,NA,incomplete,false,NA,true,NA,1,10,NA,NA,NA,left,NA,NA,NA,absent,NA,NA,n_l_025.jpg,orange,n_s_107.jpg,orange,within,NA,NaN,NA,NA,NA,NA,left,18273,1,3,1724.3000001907349
Tss3KNy2,3bawbgqgzoco8yjjw9p686v3rigv79,3tmfv4nepcr7alm1nqraxs64dox8wd,Tss3KNy2,2020-0188,2021-10-31,08:12:54,10:10:13,NA,incomplete,false,true,NA,NA,2,0,NA,purple,n_l_095.jpg,NA,NA,NA,NA,NA,unpleasant,pleasant,NA,NA,NA,NA,NA,none,0,false,NA,NA,NA,NA,NA,NA,NA,NA
Tss3KNy2,3bawbgqgzoco8yjjw9p686v3rigv79,3tmfv4nepcr7alm1nqraxs64dox8wd,Tss3KNy2,2020-0188,2021-10-31,08:12:54,10:10:13,NA,incomplete,false,true,NA,NA,2,1,NA,purple,m_s_054.jpg,NA,NA,NA,NA,NA,pleasant,unpleasant,NA,NA,NA,NA,NA,none,0,false,NA,NA,NA,NA,NA,NA,NA,NA
Tss3KNy2,3bawbgqgzoco8yjjw9p686v3rigv79,3tmfv4nepcr7alm1nqraxs64dox8wd,Tss3KNy2,2020-0188,2021-10-31,08:12:54,10:10:13,NA,incomplete,false,true,NA,NA,2,2,NA,purple,m_l_048.jpg,NA,NA,NA,NA,NA,pleasant,unpleasant,NA,NA,NA,NA,NA,none,0,false,NA,NA,NA,NA,NA,NA,NA,NA
Tss3KNy2,3bawbgqgzoco8yjjw9p686v3rigv79,3tmfv4nepcr7alm1nqraxs64dox8wd,Tss3KNy2,2020-0188,2021-10-31,08:12:54,10:10:13,NA,incomplete,false,true,NA,NA,2,3,NA,purple,n_s_004.jpg,NA,NA,NA,NA,NA,pleasant,unpleasant,NA,NA,NA,NA,NA,right,2267.40000009537,true,NA,NA,NA,NA,NA,NA,NA,NA
Tss3KNy2,3bawbgqgzoco8yjjw9p686v3rigv79,3tmfv4nepcr7alm1nqraxs64dox8wd,Tss3KNy2,2020-0188,2021-10-31,08:12:54,10:10:13,NA,incomplete,false,true,NA,NA,2,4,NA,purple,m_s_009.jpg,NA,NA,NA,NA,NA,pleasant,unpleasant,NA,NA,NA,NA,NA,right,914.300000190735,true,NA,NA,NA,NA,NA,NA,NA,NA
Tss3KNy2,3bawbgqgzoco8yjjw9p686v3rigv79,3tmfv4nepcr7alm1nqraxs64dox8wd,Tss3KNy2,2020-0188,2021-10-31,08:12:54,10:10:13,NA,incomplete,false,true,NA,NA,2,5,NA,purple,m_l_109.jpg,NA,NA,NA,NA,NA,pleasant,unpleasant,NA,NA,NA,NA,NA,right,842.599999904633,true,NA,NA,NA,NA,NA,NA,NA,NA
Tss3KNy2,3bawbgqgzoco8yjjw9p686v3rigv79,3tmfv4nepcr7alm1nqraxs64dox8wd,Tss3KNy2,2020-0188,2021-10-31,08:12:54,10:10:13,NA,incomplete,false,true,NA,NA,2,6,NA,orange,m_s_070.jpg,NA,NA,NA,NA,NA,unpleasant,pleasant,NA,NA,NA,NA,NA,right,786.799999713898,true,NA,NA,NA,NA,NA,NA,NA,NA
Tss3KNy2,3bawbgqgzoco8yjjw9p686v3rigv79,3tmfv4nepcr7alm1nqraxs64dox8wd,Tss3KNy2,2020-0188,2021-10-31,08:12:54,10:10:13,NA,incomplete,false,true,NA,NA,2,7,NA,orange,m_l_060.jpg,NA,NA,NA,NA,NA,unpleasant,pleasant,NA,NA,NA,NA,NA,right,913.099999904633,true,NA,NA,NA,NA,NA,NA,NA,NA
Tss3KNy2,3bawbgqgzoco8yjjw9p686v3rigv79,3tmfv4nepcr7alm1nqraxs64dox8wd,Tss3KNy2,2020-0188,2021-10-31,08:12:54,10:10:13,NA,incomplete,false,true,NA,NA,2,8,NA,orange,n_l_046.jpg,NA,NA,NA,NA,NA,pleasant,unpleasant,NA,NA,NA,NA,NA,none,0,false,NA,NA,NA,NA,NA,NA,NA,NA
Tss3KNy2,3bawbgqgzoco8yjjw9p686v3rigv79,3tmfv4nepcr7alm1nqraxs64dox8wd,Tss3KNy2,2020-0188,2021-10-31,08:12:54,10:10:13,NA,incomplete,false,true,NA,NA,2,9,NA,orange,n_s_109.jpg,NA,NA,NA,NA,NA,pleasant,unpleasant,NA,NA,NA,NA,NA,right,1710.2000002861,true,NA,NA,NA,NA,NA,NA,NA,NA
Tss3KNy2,3bawbgqgzoco8yjjw9p686v3rigv79,3tmfv4nepcr7alm1nqraxs64dox8wd,Tss3KNy2,2020-0188,2021-10-31,08:12:54,10:10:13,NA,incomplete,false,true,NA,NA,2,10,NA,orange,m_s_028.jpg,NA,NA,NA,NA,NA,pleasant,unpleasant,NA,NA,NA,NA,NA,right,159.900000095367,true,NA,NA,NA,NA,NA,NA,NA,NA
Tss3KNy2,3bawbgqgzoco8yjjw9p686v3rigv79,3tmfv4nepcr7alm1nqraxs64dox8wd,Tss3KNy2,2020-0188,2021-10-31,08:12:54,10:10:13,NA,incomplete,false,true,NA,NA,2,11,NA,orange,m_l_098.jpg,NA,NA,NA,NA,NA,pleasant,unpleasant,NA,NA,NA,NA,NA,none,0,false,NA,NA,NA,NA,NA,NA,NA,NA
Tss3KNy2,3bawbgqgzoco8yjjw9p686v3rigv79,3tmfv4nepcr7alm1nqraxs64dox8wd,Tss3KNy2,2020-0188,2021-10-31,08:12:54,10:10:13,NA,incomplete,false,true,NA,NA,2,12,NA,red,n_l_039.jpg,NA,NA,NA,NA,NA,pleasant,unpleasant,NA,NA,NA,NA,NA,none,0,false,NA,NA,NA,NA,NA,NA,NA,NA
Tss3KNy2,3bawbgqgzoco8yjjw9p686v3rigv79,3tmfv4nepcr7alm1nqraxs64dox8wd,Tss3KNy2,2020-0188,2021-10-31,08:12:54,10:10:13,NA,incomplete,false,true,NA,NA,2,13,NA,red,m_l_085.jpg,NA,NA,NA,NA,NA,unpleasant,pleasant,NA,NA,NA,NA,NA,right,385.799999713898,true,NA,NA,NA,NA,NA,NA,NA,NA
Tss3KNy2,3bawbgqgzoco8yjjw9p686v3rigv79,3tmfv4nepcr7alm1nqraxs64dox8wd,Tss3KNy2,2020-0188,2021-10-31,08:12:54,10:10:13,NA,incomplete,false,true,NA,NA,2,14,NA,red,n_s_011.jpg,NA,NA,NA,NA,NA,pleasant,unpleasant,NA,NA,NA,NA,NA,left,1238.09999990463,true,NA,NA,NA,NA,NA,NA,NA,NA
Tss3KNy2,3bawbgqgzoco8yjjw9p686v3rigv79,3tmfv4nepcr7alm1nqraxs64dox8wd,Tss3KNy2,2020-0188,2021-10-31,08:12:54,10:10:13,NA,incomplete,false,true,NA,NA,2,15,NA,red,m_l_009.jpg,NA,NA,NA,NA,NA,pleasant,unpleasant,NA,NA,NA,NA,NA,left,2911.19999980927,true,NA,NA,NA,NA,NA,NA,NA,NA
Tss3KNy2,3bawbgqgzoco8yjjw9p686v3rigv79,3tmfv4nepcr7alm1nqraxs64dox8wd,Tss3KNy2,2020-0188,2021-10-31,08:12:54,10:10:13,NA,incomplete,false,true,NA,NA,2,16,NA,red,n_s_066.jpg,NA,NA,NA,NA,NA,unpleasant,pleasant,NA,NA,NA,NA,NA,right,958.10000038147,true,NA,NA,NA,NA,NA,NA,NA,NA
Tss3KNy2,3bawbgqgzoco8yjjw9p686v3rigv79,3tmfv4nepcr7alm1nqraxs64dox8wd,Tss3KNy2,2020-0188,2021-10-31,08:12:54,10:10:13,NA,incomplete,false,true,NA,NA,2,17,NA,red,n_s_052.jpg,NA,NA,NA,NA,NA,pleasant,unpleasant,NA,NA,NA,NA,NA,right,822.10000038147,true,NA,NA,NA,NA,NA,NA,NA,NA
Tss3KNy2,3bawbgqgzoco8yjjw9p686v3rigv79,3tmfv4nepcr7alm1nqraxs64dox8wd,Tss3KNy2,2020-0188,2021-10-31,08:12:54,10:10:13,NA,incomplete,false,true,NA,NA,2,18,NA,black,m_l_020.jpg,NA,NA,NA,NA,NA,unpleasant,pleasant,NA,NA,NA,NA,NA,right,1230.59999990463,true,NA,NA,NA,NA,NA,NA,NA,NA
Tss3KNy2,3bawbgqgzoco8yjjw9p686v3rigv79,3tmfv4nepcr7alm1nqraxs64dox8wd,Tss3KNy2,2020-0188,2021-10-31,08:12:54,10:10:13,NA,incomplete,false,true,NA,NA,2,19,NA,black,m_l_069.jpg,NA,NA,NA,NA,NA,unpleasant,pleasant,NA,NA,NA,NA,NA,right,84.1999998092651,true,NA,NA,NA,NA,NA,NA,NA,NA
Tss3KNy2,3bawbgqgzoco8yjjw9p686v3rigv79,3tmfv4nepcr7alm1nqraxs64dox8wd,Tss3KNy2,2020-0188,2021-10-31,08:12:54,10:10:13,NA,incomplete,false,true,NA,NA,2,20,NA,black,m_l_083.jpg,NA,NA,NA,NA,NA,unpleasant,pleasant,NA,NA,NA,NA,NA,right,1212.7999997139,true,NA,NA,NA,NA,NA,NA,NA,NA
Tss3KNy2,3bawbgqgzoco8yjjw9p686v3rigv79,3tmfv4nepcr7alm1nqraxs64dox8wd,Tss3KNy2,2020-0188,2021-10-31,08:12:54,10:10:13,NA,incomplete,false,true,NA,NA,2,21,NA,black,m_s_097.jpg,NA,NA,NA,NA,NA,pleasant,unpleasant,NA,NA,NA,NA,NA,right,1330.19999980927,true,NA,NA,NA,NA,NA,NA,NA,NA
Tss3KNy2,3bawbgqgzoco8yjjw9p686v3rigv79,3tmfv4nepcr7alm1nqraxs64dox8wd,Tss3KNy2,2020-0188,2021-10-31,08:12:54,10:10:13,NA,incomplete,false,true,NA,NA,2,22,NA,black,n_s_032.jpg,NA,NA,NA,NA,NA,unpleasant,pleasant,NA,NA,NA,NA,NA,right,1654.90000009537,true,NA,NA,NA,NA,NA,NA,NA,NA
Tss3KNy2,3bawbgqgzoco8yjjw9p686v3rigv79,3tmfv4nepcr7alm1nqraxs64dox8wd,Tss3KNy2,2020-0188,2021-10-31,08:12:54,10:10:13,NA,incomplete,false,true,NA,NA,2,23,NA,black,n_s_044.jpg,NA,NA,NA,NA,NA,pleasant,unpleasant,NA,NA,NA,NA,NA,right,1747.30000019073,true,NA,NA,NA,NA,NA,NA,NA,NA
Tss3KNy2,3bawbgqgzoco8yjjw9p686v3rigv79,3tmfv4nepcr7alm1nqraxs64dox8wd,Tss3KNy2,2020-0188,2021-10-31,08:12:54,10:10:13,NA,incomplete,false,true,NA,NA,2,24,NA,brown,n_s_086.jpg,NA,NA,NA,NA,NA,pleasant,unpleasant,NA,NA,NA,NA,NA,right,1662.2000002861,true,NA,NA,NA,NA,NA,NA,NA,NA
Tss3KNy2,3bawbgqgzoco8yjjw9p686v3rigv79,3tmfv4nepcr7alm1nqraxs64dox8wd,Tss3KNy2,2020-0188,2021-10-31,08:12:54,10:10:13,NA,incomplete,false,true,NA,NA,2,25,NA,brown,n_s_113.jpg,NA,NA,NA,NA,NA,unpleasant,pleasant,NA,NA,NA,NA,NA,right,975,true,NA,NA,NA,NA,NA,NA,NA,NA
Tss3KNy2,3bawbgqgzoco8yjjw9p686v3rigv79,3tmfv4nepcr7alm1nqraxs64dox8wd,Tss3KNy2,2020-0188,2021-10-31,08:12:54,10:10:13,NA,incomplete,false,true,NA,NA,2,26,NA,brown,n_s_028.jpg,NA,NA,NA,NA,NA,pleasant,unpleasant,NA,NA,NA,NA,NA,right,923,true,NA,NA,NA,NA,NA,NA,NA,NA
Tss3KNy2,3bawbgqgzoco8yjjw9p686v3rigv79,3tmfv4nepcr7alm1nqraxs64dox8wd,Tss3KNy2,2020-0188,2021-10-31,08:12:54,10:10:13,NA,incomplete,false,true,NA,NA,2,27,NA,brown,n_l_031.jpg,NA,NA,NA,NA,NA,pleasant,unpleasant,NA,NA,NA,NA,NA,right,933.699999809265,true,NA,NA,NA,NA,NA,NA,NA,NA
Tss3KNy2,3bawbgqgzoco8yjjw9p686v3rigv79,3tmfv4nepcr7alm1nqraxs64dox8wd,Tss3KNy2,2020-0188,2021-10-31,08:12:54,10:10:13,NA,incomplete,false,true,NA,NA,2,28,NA,brown,n_s_015.jpg,NA,NA,NA,NA,NA,unpleasant,pleasant,NA,NA,NA,NA,NA,right,1150.19999980927,true,NA,NA,NA,NA,NA,NA,NA,NA
Tss3KNy2,3bawbgqgzoco8yjjw9p686v3rigv79,3tmfv4nepcr7alm1nqraxs64dox8wd,Tss3KNy2,2020-0188,2021-10-31,08:12:54,10:10:13,NA,incomplete,false,true,NA,NA,2,29,NA,brown,m_l_036.jpg,NA,NA,NA,NA,NA,pleasant,unpleasant,NA,NA,NA,NA,NA,left,1060,true,NA,NA,NA,NA,NA,NA,NA,NA
Tss3KNy2,3bawbgqgzoco8yjjw9p686v3rigv79,3tmfv4nepcr7alm1nqraxs64dox8wd,Tss3KNy2,2020-0188,2021-10-31,08:12:54,10:10:13,NA,incomplete,false,true,NA,NA,2,30,NA,green,n_s_035.jpg,NA,NA,NA,NA,NA,unpleasant,pleasant,NA,NA,NA,NA,NA,right,1650.2000002861,true,NA,NA,NA,NA,NA,NA,NA,NA
Tss3KNy2,3bawbgqgzoco8yjjw9p686v3rigv79,3tmfv4nepcr7alm1nqraxs64dox8wd,Tss3KNy2,2020-0188,2021-10-31,08:12:54,10:10:13,NA,incomplete,false,true,NA,NA,2,31,NA,green,n_l_063.jpg,NA,NA,NA,NA,NA,pleasant,unpleasant,NA,NA,NA,NA,NA,left,2633.59999990463,true,NA,NA,NA,NA,NA,NA,NA,NA
Tss3KNy2,3bawbgqgzoco8yjjw9p686v3rigv79,3tmfv4nepcr7alm1nqraxs64dox8wd,Tss3KNy2,2020-0188,2021-10-31,08:12:54,10:10:13,NA,incomplete,false,true,NA,NA,2,32,NA,green,n_l_050.jpg,NA,NA,NA,NA,NA,pleasant,unpleasant,NA,NA,NA,NA,NA,left,1676.89999961853,true,NA,NA,NA,NA,NA,NA,NA,NA
Tss3KNy2,3bawbgqgzoco8yjjw9p686v3rigv79,3tmfv4nepcr7alm1nqraxs64dox8wd,Tss3KNy2,2020-0188,2021-10-31,08:12:54,10:10:13,NA,incomplete,false,true,NA,NA,2,33,NA,green,n_l_080.jpg,NA,NA,NA,NA,NA,unpleasant,pleasant,NA,NA,NA,NA,NA,right,1458.5,true,NA,NA,NA,NA,NA,NA,NA,NA
Tss3KNy2,3bawbgqgzoco8yjjw9p686v3rigv79,3tmfv4nepcr7alm1nqraxs64dox8wd,Tss3KNy2,2020-0188,2021-10-31,08:12:54,10:10:13,NA,incomplete,false,true,NA,NA,2,34,NA,green,m_s_001.jpg,NA,NA,NA,NA,NA,unpleasant,pleasant,NA,NA,NA,NA,NA,right,1379.59999990463,true,NA,NA,NA,NA,NA,NA,NA,NA
Tss3KNy2,3bawbgqgzoco8yjjw9p686v3rigv79,3tmfv4nepcr7alm1nqraxs64dox8wd,Tss3KNy2,2020-0188,2021-10-31,08:12:54,10:10:13,NA,incomplete,false,true,NA,NA,2,35,NA,green,m_s_018.jpg,NA,NA,NA,NA,NA,unpleasant,pleasant,NA,NA,NA,NA,NA,right,1514.40000009537,true,NA,NA,NA,NA,NA,NA,NA,NA
Tss3KNy2,3bawbgqgzoco8yjjw9p686v3rigv79,3tmfv4nepcr7alm1nqraxs64dox8wd,Tss3KNy2,2020-0188,2021-10-31,08:12:54,10:10:13,NA,incomplete,false,NA,NA,true,2,0,NA,NA,NA,right,n_l_050.jpg,brown,green,NA,NA,NA,NA,NA,NA,NA,NA,NA,NaN,NA,4355.800000190735,right,1,NA,NA,NA,NA,NA
Tss3KNy2,3bawbgqgzoco8yjjw9p686v3rigv79,3tmfv4nepcr7alm1nqraxs64dox8wd,Tss3KNy2,2020-0188,2021-10-31,08:12:54,10:10:13,NA,incomplete,false,NA,NA,true,2,1,NA,NA,NA,right,n_s_044.jpg,red,black,NA,NA,NA,NA,NA,NA,NA,NA,NA,NaN,NA,3986.4000000953674,right,1,NA,NA,NA,NA,NA
Tss3KNy2,3bawbgqgzoco8yjjw9p686v3rigv79,3tmfv4nepcr7alm1nqraxs64dox8wd,Tss3KNy2,2020-0188,2021-10-31,08:12:54,10:10:13,NA,incomplete,false,NA,NA,true,2,2,NA,NA,NA,left,m_l_036.jpg,brown,black,NA,NA,NA,NA,NA,NA,NA,NA,NA,NaN,NA,1921.0999999046326,left,1,NA,NA,NA,NA,NA
Tss3KNy2,3bawbgqgzoco8yjjw9p686v3rigv79,3tmfv4nepcr7alm1nqraxs64dox8wd,Tss3KNy2,2020-0188,2021-10-31,08:12:54,10:10:13,NA,incomplete,false,NA,NA,true,2,3,NA,NA,NA,right,n_s_052.jpg,orange,red,NA,NA,NA,NA,NA,NA,NA,NA,NA,NaN,NA,1821,right,1,NA,NA,NA,NA,NA
Tss3KNy2,3bawbgqgzoco8yjjw9p686v3rigv79,3tmfv4nepcr7alm1nqraxs64dox8wd,Tss3KNy2,2020-0188,2021-10-31,08:12:54,10:10:13,NA,incomplete,false,NA,NA,true,2,4,NA,NA,NA,left,m_l_069.jpg,black,red,NA,NA,NA,NA,NA,NA,NA,NA,NA,NaN,NA,3131.699999809265,left,1,NA,NA,NA,NA,NA
Tss3KNy2,3bawbgqgzoco8yjjw9p686v3rigv79,3tmfv4nepcr7alm1nqraxs64dox8wd,Tss3KNy2,2020-0188,2021-10-31,08:12:54,10:10:13,NA,incomplete,false,NA,NA,true,2,5,NA,NA,NA,left,n_l_063.jpg,green,brown,NA,NA,NA,NA,NA,NA,NA,NA,NA,NaN,NA,2214.0999999046326,right,0,NA,NA,NA,NA,NA
Tss3KNy2,3bawbgqgzoco8yjjw9p686v3rigv79,3tmfv4nepcr7alm1nqraxs64dox8wd,Tss3KNy2,2020-0188,2021-10-31,08:12:54,10:10:13,NA,incomplete,false,NA,NA,true,2,6,NA,NA,NA,left,n_s_011.jpg,red,black,NA,NA,NA,NA,NA,NA,NA,NA,NA,NaN,NA,2069.699999809265,right,0,NA,NA,NA,NA,NA
Tss3KNy2,3bawbgqgzoco8yjjw9p686v3rigv79,3tmfv4nepcr7alm1nqraxs64dox8wd,Tss3KNy2,2020-0188,2021-10-31,08:12:54,10:10:13,NA,incomplete,false,NA,NA,true,2,7,NA,NA,NA,right,m_s_028.jpg,purple,orange,NA,NA,NA,NA,NA,NA,NA,NA,NA,NaN,NA,2689,left,0,NA,NA,NA,NA,NA
Tss3KNy2,3bawbgqgzoco8yjjw9p686v3rigv79,3tmfv4nepcr7alm1nqraxs64dox8wd,Tss3KNy2,2020-0188,2021-10-31,08:12:54,10:10:13,NA,incomplete,false,NA,NA,true,2,8,NA,NA,NA,right,m_l_083.jpg,red,black,NA,NA,NA,NA,NA,NA,NA,NA,NA,NaN,NA,3432.5,left,0,NA,NA,NA,NA,NA
Tss3KNy2,3bawbgqgzoco8yjjw9p686v3rigv79,3tmfv4nepcr7alm1nqraxs64dox8wd,Tss3KNy2,2020-0188,2021-10-31,08:12:54,10:10:13,NA,incomplete,false,NA,NA,true,2,9,NA,NA,NA,left,m_s_009.jpg,purple,orange,NA,NA,NA,NA,NA,NA,NA,NA,NA,NaN,NA,3160,left,1,NA,NA,NA,NA,NA
Tss3KNy2,3bawbgqgzoco8yjjw9p686v3rigv79,3tmfv4nepcr7alm1nqraxs64dox8wd,Tss3KNy2,2020-0188,2021-10-31,08:12:54,10:10:13,NA,incomplete,false,NA,NA,true,2,10,NA,NA,NA,left,n_s_015.jpg,brown,green,NA,NA,NA,NA,NA,NA,NA,NA,NA,NaN,NA,5629.599999904633,right,0,NA,NA,NA,NA,NA
Tss3KNy2,3bawbgqgzoco8yjjw9p686v3rigv79,3tmfv4nepcr7alm1nqraxs64dox8wd,Tss3KNy2,2020-0188,2021-10-31,08:12:54,10:10:13,NA,incomplete,false,NA,NA,true,2,11,NA,NA,NA,right,m_l_109.jpg,orange,purple,NA,NA,NA,NA,NA,NA,NA,NA,NA,NaN,NA,3842.7000002861023,right,1,NA,NA,NA,NA,NA
Tss3KNy2,3bawbgqgzoco8yjjw9p686v3rigv79,3tmfv4nepcr7alm1nqraxs64dox8wd,Tss3KNy2,2020-0188,2021-10-31,08:12:54,10:10:13,NA,incomplete,false,NA,NA,true,2,12,NA,NA,NA,right,n_s_066.jpg,orange,red,NA,NA,NA,NA,NA,NA,NA,NA,NA,NaN,NA,1670.5,right,1,NA,NA,NA,NA,NA
Tss3KNy2,3bawbgqgzoco8yjjw9p686v3rigv79,3tmfv4nepcr7alm1nqraxs64dox8wd,Tss3KNy2,2020-0188,2021-10-31,08:12:54,10:10:13,NA,incomplete,false,NA,NA,true,2,13,NA,NA,NA,right,m_s_054.jpg,orange,purple,NA,NA,NA,NA,NA,NA,NA,NA,NA,NaN,NA,5544,right,1,NA,NA,NA,NA,NA
Tss3KNy2,3bawbgqgzoco8yjjw9p686v3rigv79,3tmfv4nepcr7alm1nqraxs64dox8wd,Tss3KNy2,2020-0188,2021-10-31,08:12:54,10:10:13,NA,incomplete,false,NA,NA,true,2,14,NA,NA,NA,left,n_s_032.jpg,black,brown,NA,NA,NA,NA,NA,NA,NA,NA,NA,NaN,NA,1804.5,right,0,NA,NA,NA,NA,NA
Tss3KNy2,3bawbgqgzoco8yjjw9p686v3rigv79,3tmfv4nepcr7alm1nqraxs64dox8wd,Tss3KNy2,2020-0188,2021-10-31,08:12:54,10:10:13,NA,incomplete,false,NA,NA,true,2,15,NA,NA,NA,left,n_s_113.jpg,brown,black,NA,NA,NA,NA,NA,NA,NA,NA,NA,NaN,NA,4220.39999961853,right,0,NA,NA,NA,NA,NA
Tss3KNy2,3bawbgqgzoco8yjjw9p686v3rigv79,3tmfv4nepcr7alm1nqraxs64dox8wd,Tss3KNy2,2020-0188,2021-10-31,08:12:54,10:10:13,NA,incomplete,false,NA,NA,true,2,16,NA,NA,NA,left,n_l_046.jpg,orange,purple,NA,NA,NA,NA,NA,NA,NA,NA,NA,NaN,NA,1976.5999999046326,right,0,NA,NA,NA,NA,NA
Tss3KNy2,3bawbgqgzoco8yjjw9p686v3rigv79,3tmfv4nepcr7alm1nqraxs64dox8wd,Tss3KNy2,2020-0188,2021-10-31,08:12:54,10:10:13,NA,incomplete,false,NA,NA,true,2,17,NA,NA,NA,left,m_s_018.jpg,green,brown,NA,NA,NA,NA,NA,NA,NA,NA,NA,NaN,NA,5491,left,1,NA,NA,NA,NA,NA
Tss3KNy2,3bawbgqgzoco8yjjw9p686v3rigv79,3tmfv4nepcr7alm1nqraxs64dox8wd,Tss3KNy2,2020-0188,2021-10-31,08:12:54,10:10:13,NA,incomplete,false,NA,NA,true,2,18,NA,NA,NA,right,m_l_098.jpg,red,orange,NA,NA,NA,NA,NA,NA,NA,NA,NA,NaN,NA,1950.5,right,1,NA,NA,NA,NA,NA
Tss3KNy2,3bawbgqgzoco8yjjw9p686v3rigv79,3tmfv4nepcr7alm1nqraxs64dox8wd,Tss3KNy2,2020-0188,2021-10-31,08:12:54,10:10:13,NA,incomplete,false,NA,NA,true,2,19,NA,NA,NA,left,m_l_060.jpg,orange,purple,NA,NA,NA,NA,NA,NA,NA,NA,NA,NaN,NA,2287.0999999046326,right,0,NA,NA,NA,NA,NA
Tss3KNy2,3bawbgqgzoco8yjjw9p686v3rigv79,3tmfv4nepcr7alm1nqraxs64dox8wd,Tss3KNy2,2020-0188,2021-10-31,08:12:54,10:10:13,NA,incomplete,false,NA,NA,true,2,20,NA,NA,NA,left,m_l_085.jpg,red,black,NA,NA,NA,NA,NA,NA,NA,NA,NA,NaN,NA,2528.7999997138977,right,0,NA,NA,NA,NA,NA
Tss3KNy2,3bawbgqgzoco8yjjw9p686v3rigv79,3tmfv4nepcr7alm1nqraxs64dox8wd,Tss3KNy2,2020-0188,2021-10-31,08:12:54,10:10:13,NA,incomplete,false,NA,NA,true,2,21,NA,NA,NA,left,n_s_028.jpg,brown,green,NA,NA,NA,NA,NA,NA,NA,NA,NA,NaN,NA,3740.5,left,1,NA,NA,NA,NA,NA
Tss3KNy2,3bawbgqgzoco8yjjw9p686v3rigv79,3tmfv4nepcr7alm1nqraxs64dox8wd,Tss3KNy2,2020-0188,2021-10-31,08:12:54,10:10:13,NA,incomplete,false,NA,true,NA,2,0,NA,NA,NA,left,NA,NA,NA,absent,NA,NA,m_s_028.jpg,orange,n_s_011.jpg,red,between,NA,NaN,NA,NA,NA,NA,left,2912.2000002861023,1,3,2900.300000190735
Tss3KNy2,3bawbgqgzoco8yjjw9p686v3rigv79,3tmfv4nepcr7alm1nqraxs64dox8wd,Tss3KNy2,2020-0188,2021-10-31,08:12:54,10:10:13,NA,incomplete,false,NA,true,NA,2,1,NA,NA,NA,right,NA,NA,NA,absent,NA,NA,n_l_050.jpg,green,n_s_015.jpg,brown,between,NA,NaN,NA,NA,NA,NA,left,2879.8999996185303,0,3,1226.6999998092651
Tss3KNy2,3bawbgqgzoco8yjjw9p686v3rigv79,3tmfv4nepcr7alm1nqraxs64dox8wd,Tss3KNy2,2020-0188,2021-10-31,08:12:54,10:10:13,NA,incomplete,false,NA,true,NA,2,2,NA,NA,NA,right,NA,NA,NA,absent,NA,NA,n_s_052.jpg,red,m_l_085.jpg,red,within,NA,NaN,NA,NA,NA,NA,left,2108.5,0,3,1544.4000000953674
Tss3KNy2,3bawbgqgzoco8yjjw9p686v3rigv79,3tmfv4nepcr7alm1nqraxs64dox8wd,Tss3KNy2,2020-0188,2021-10-31,08:12:54,10:10:13,NA,incomplete,false,NA,true,NA,2,3,NA,NA,NA,left,NA,NA,NA,absent,NA,NA,n_l_063.jpg,green,m_s_018.jpg,green,within,NA,NaN,NA,NA,NA,NA,left,4759.799999713898,1,3,1869.9000000953674
Tss3KNy2,3bawbgqgzoco8yjjw9p686v3rigv79,3tmfv4nepcr7alm1nqraxs64dox8wd,Tss3KNy2,2020-0188,2021-10-31,08:12:54,10:10:13,NA,incomplete,false,NA,true,NA,2,4,NA,NA,NA,right,NA,NA,NA,absent,NA,NA,n_l_046.jpg,orange,m_s_009.jpg,purple,between,NA,NaN,NA,NA,NA,NA,left,1781.7999997138977,0,3,1937.8000001907349
Tss3KNy2,3bawbgqgzoco8yjjw9p686v3rigv79,3tmfv4nepcr7alm1nqraxs64dox8wd,Tss3KNy2,2020-0188,2021-10-31,08:12:54,10:10:13,NA,incomplete,false,NA,true,NA,2,5,NA,NA,NA,left,NA,NA,NA,absent,NA,NA,n_s_066.jpg,red,m_l_083.jpg,black,between,NA,NaN,NA,NA,NA,NA,right,2459.2999997138977,0,3,1926
Tss3KNy2,3bawbgqgzoco8yjjw9p686v3rigv79,3tmfv4nepcr7alm1nqraxs64dox8wd,Tss3KNy2,2020-0188,2021-10-31,08:12:54,10:10:13,NA,incomplete,false,NA,true,NA,2,6,NA,NA,NA,right,NA,NA,NA,absent,NA,NA,n_s_044.jpg,black,m_l_069.jpg,black,within,NA,NaN,NA,NA,NA,NA,right,2134.9000000953674,1,3,4135.199999809265
Tss3KNy2,3bawbgqgzoco8yjjw9p686v3rigv79,3tmfv4nepcr7alm1nqraxs64dox8wd,Tss3KNy2,2020-0188,2021-10-31,08:12:54,10:10:13,NA,incomplete,false,NA,true,NA,2,7,NA,NA,NA,left,NA,NA,NA,absent,NA,NA,n_s_032.jpg,black,n_s_028.jpg,brown,between,NA,NaN,NA,NA,NA,NA,left,1829.5,1,3,2204.7000002861023
Tss3KNy2,3bawbgqgzoco8yjjw9p686v3rigv79,3tmfv4nepcr7alm1nqraxs64dox8wd,Tss3KNy2,2020-0188,2021-10-31,08:12:54,10:10:13,NA,incomplete,false,NA,true,NA,2,8,NA,NA,NA,right,NA,NA,NA,absent,NA,NA,m_l_036.jpg,brown,n_s_113.jpg,brown,within,NA,NaN,NA,NA,NA,NA,right,3969.7000002861023,1,3,1803.7000002861023
Tss3KNy2,3bawbgqgzoco8yjjw9p686v3rigv79,3tmfv4nepcr7alm1nqraxs64dox8wd,Tss3KNy2,2020-0188,2021-10-31,08:12:54,10:10:13,NA,incomplete,false,NA,true,NA,2,9,NA,NA,NA,right,NA,NA,NA,absent,NA,NA,m_l_109.jpg,purple,m_s_054.jpg,purple,within,NA,NaN,NA,NA,NA,NA,right,1820.4000000953674,1,3,1626.3000001907349
Tss3KNy2,3bawbgqgzoco8yjjw9p686v3rigv79,3tmfv4nepcr7alm1nqraxs64dox8wd,Tss3KNy2,2020-0188,2021-10-31,08:12:54,10:10:13,NA,incomplete,false,NA,true,NA,2,10,NA,NA,NA,right,NA,NA,NA,absent,NA,NA,m_l_098.jpg,orange,m_l_060.jpg,orange,within,NA,NaN,NA,NA,NA,NA,right,4213.099999904633,1,3,3643.699999809265
Tss3KNy2,3bawbgqgzoco8yjjw9p686v3rigv79,3tmfv4nepcr7alm1nqraxs64dox8wd,Tss3KNy2,2020-0188,2021-10-31,08:12:54,10:10:13,NA,incomplete,false,true,NA,NA,3,0,NA,green,n_l_056.jpg,NA,NA,NA,NA,NA,unpleasant,pleasant,NA,NA,NA,NA,NA,right,2432,true,NA,NA,NA,NA,NA,NA,NA,NA
Tss3KNy2,3bawbgqgzoco8yjjw9p686v3rigv79,3tmfv4nepcr7alm1nqraxs64dox8wd,Tss3KNy2,2020-0188,2021-10-31,08:12:54,10:10:13,NA,incomplete,false,true,NA,NA,3,1,NA,green,m_s_039.jpg,NA,NA,NA,NA,NA,pleasant,unpleasant,NA,NA,NA,NA,NA,left,2191.2000002861,true,NA,NA,NA,NA,NA,NA,NA,NA
Tss3KNy2,3bawbgqgzoco8yjjw9p686v3rigv79,3tmfv4nepcr7alm1nqraxs64dox8wd,Tss3KNy2,2020-0188,2021-10-31,08:12:54,10:10:13,NA,incomplete,false,true,NA,NA,3,2,NA,green,n_l_098.jpg,NA,NA,NA,NA,NA,pleasant,unpleasant,NA,NA,NA,NA,NA,left,1615.09999990463,true,NA,NA,NA,NA,NA,NA,NA,NA
Tss3KNy2,3bawbgqgzoco8yjjw9p686v3rigv79,3tmfv4nepcr7alm1nqraxs64dox8wd,Tss3KNy2,2020-0188,2021-10-31,08:12:54,10:10:13,NA,incomplete,false,true,NA,NA,3,3,NA,green,m_l_114.jpg,NA,NA,NA,NA,NA,unpleasant,pleasant,NA,NA,NA,NA,NA,right,1418.2999997139,true,NA,NA,NA,NA,NA,NA,NA,NA
Tss3KNy2,3bawbgqgzoco8yjjw9p686v3rigv79,3tmfv4nepcr7alm1nqraxs64dox8wd,Tss3KNy2,2020-0188,2021-10-31,08:12:54,10:10:13,NA,incomplete,false,true,NA,NA,3,4,NA,green,n_s_023.jpg,NA,NA,NA,NA,NA,pleasant,unpleasant,NA,NA,NA,NA,NA,left,1535.59999990463,true,NA,NA,NA,NA,NA,NA,NA,NA
Tss3KNy2,3bawbgqgzoco8yjjw9p686v3rigv79,3tmfv4nepcr7alm1nqraxs64dox8wd,Tss3KNy2,2020-0188,2021-10-31,08:12:54,10:10:13,NA,incomplete,false,true,NA,NA,3,5,NA,green,n_l_085.jpg,NA,NA,NA,NA,NA,pleasant,unpleasant,NA,NA,NA,NA,NA,right,1239.5,true,NA,NA,NA,NA,NA,NA,NA,NA
Tss3KNy2,3bawbgqgzoco8yjjw9p686v3rigv79,3tmfv4nepcr7alm1nqraxs64dox8wd,Tss3KNy2,2020-0188,2021-10-31,08:12:54,10:10:13,NA,incomplete,false,true,NA,NA,3,6,NA,brown,m_l_011.jpg,NA,NA,NA,NA,NA,unpleasant,pleasant,NA,NA,NA,NA,NA,right,1103.90000009537,true,NA,NA,NA,NA,NA,NA,NA,NA
Tss3KNy2,3bawbgqgzoco8yjjw9p686v3rigv79,3tmfv4nepcr7alm1nqraxs64dox8wd,Tss3KNy2,2020-0188,2021-10-31,08:12:54,10:10:13,NA,incomplete,false,true,NA,NA,3,7,NA,brown,m_s_047.jpg,NA,NA,NA,NA,NA,unpleasant,pleasant,NA,NA,NA,NA,NA,right,219.5,true,NA,NA,NA,NA,NA,NA,NA,NA
Tss3KNy2,3bawbgqgzoco8yjjw9p686v3rigv79,3tmfv4nepcr7alm1nqraxs64dox8wd,Tss3KNy2,2020-0188,2021-10-31,08:12:54,10:10:13,NA,incomplete,false,true,NA,NA,3,8,NA,brown,m_l_008.jpg,NA,NA,NA,NA,NA,unpleasant,pleasant,NA,NA,NA,NA,NA,right,1126.59999990463,true,NA,NA,NA,NA,NA,NA,NA,NA
Tss3KNy2,3bawbgqgzoco8yjjw9p686v3rigv79,3tmfv4nepcr7alm1nqraxs64dox8wd,Tss3KNy2,2020-0188,2021-10-31,08:12:54,10:10:13,NA,incomplete,false,true,NA,NA,3,9,NA,brown,m_l_057.jpg,NA,NA,NA,NA,NA,unpleasant,pleasant,NA,NA,NA,NA,NA,left,953.60000038147,true,NA,NA,NA,NA,NA,NA,NA,NA
Tss3KNy2,3bawbgqgzoco8yjjw9p686v3rigv79,3tmfv4nepcr7alm1nqraxs64dox8wd,Tss3KNy2,2020-0188,2021-10-31,08:12:54,10:10:13,NA,incomplete,false,true,NA,NA,3,10,NA,brown,n_l_106.jpg,NA,NA,NA,NA,NA,unpleasant,pleasant,NA,NA,NA,NA,NA,right,1118.2000002861,true,NA,NA,NA,NA,NA,NA,NA,NA
Tss3KNy2,3bawbgqgzoco8yjjw9p686v3rigv79,3tmfv4nepcr7alm1nqraxs64dox8wd,Tss3KNy2,2020-0188,2021-10-31,08:12:54,10:10:13,NA,incomplete,false,true,NA,NA,3,11,NA,brown,n_s_072.jpg,NA,NA,NA,NA,NA,unpleasant,pleasant,NA,NA,NA,NA,NA,right,1248.7999997139,true,NA,NA,NA,NA,NA,NA,NA,NA
Tss3KNy2,3bawbgqgzoco8yjjw9p686v3rigv79,3tmfv4nepcr7alm1nqraxs64dox8wd,Tss3KNy2,2020-0188,2021-10-31,08:12:54,10:10:13,NA,incomplete,false,true,NA,NA,3,12,NA,yellow,m_l_046.jpg,NA,NA,NA,NA,NA,unpleasant,pleasant,NA,NA,NA,NA,NA,right,945.400000095367,true,NA,NA,NA,NA,NA,NA,NA,NA
Tss3KNy2,3bawbgqgzoco8yjjw9p686v3rigv79,3tmfv4nepcr7alm1nqraxs64dox8wd,Tss3KNy2,2020-0188,2021-10-31,08:12:54,10:10:13,NA,incomplete,false,true,NA,NA,3,13,NA,yellow,m_s_104.jpg,NA,NA,NA,NA,NA,unpleasant,pleasant,NA,NA,NA,NA,NA,right,1078.5,true,NA,NA,NA,NA,NA,NA,NA,NA
Tss3KNy2,3bawbgqgzoco8yjjw9p686v3rigv79,3tmfv4nepcr7alm1nqraxs64dox8wd,Tss3KNy2,2020-0188,2021-10-31,08:12:54,10:10:13,NA,incomplete,false,true,NA,NA,3,14,NA,yellow,n_l_051.jpg,NA,NA,NA,NA,NA,unpleasant,pleasant,NA,NA,NA,NA,NA,right,957.199999809265,true,NA,NA,NA,NA,NA,NA,NA,NA
Tss3KNy2,3bawbgqgzoco8yjjw9p686v3rigv79,3tmfv4nepcr7alm1nqraxs64dox8wd,Tss3KNy2,2020-0188,2021-10-31,08:12:54,10:10:13,NA,incomplete,false,true,NA,NA,3,15,NA,yellow,n_l_007.jpg,NA,NA,NA,NA,NA,pleasant,unpleasant,NA,NA,NA,NA,NA,left,1296.69999980927,true,NA,NA,NA,NA,NA,NA,NA,NA
Tss3KNy2,3bawbgqgzoco8yjjw9p686v3rigv79,3tmfv4nepcr7alm1nqraxs64dox8wd,Tss3KNy2,2020-0188,2021-10-31,08:12:54,10:10:13,NA,incomplete,false,true,NA,NA,3,16,NA,yellow,n_s_038.jpg,NA,NA,NA,NA,NA,pleasant,unpleasant,NA,NA,NA,NA,NA,left,1285.5,true,NA,NA,NA,NA,NA,NA,NA,NA
Tss3KNy2,3bawbgqgzoco8yjjw9p686v3rigv79,3tmfv4nepcr7alm1nqraxs64dox8wd,Tss3KNy2,2020-0188,2021-10-31,08:12:54,10:10:13,NA,incomplete,false,true,NA,NA,3,17,NA,yellow,m_l_021.jpg,NA,NA,NA,NA,NA,pleasant,unpleasant,NA,NA,NA,NA,NA,left,1929.89999961853,true,NA,NA,NA,NA,NA,NA,NA,NA
Tss3KNy2,3bawbgqgzoco8yjjw9p686v3rigv79,3tmfv4nepcr7alm1nqraxs64dox8wd,Tss3KNy2,2020-0188,2021-10-31,08:12:54,10:10:13,NA,incomplete,false,true,NA,NA,3,18,NA,orange,m_l_053.jpg,NA,NA,NA,NA,NA,unpleasant,pleasant,NA,NA,NA,NA,NA,right,1580.5,true,NA,NA,NA,NA,NA,NA,NA,NA
Tss3KNy2,3bawbgqgzoco8yjjw9p686v3rigv79,3tmfv4nepcr7alm1nqraxs64dox8wd,Tss3KNy2,2020-0188,2021-10-31,08:12:54,10:10:13,NA,incomplete,false,true,NA,NA,3,19,NA,orange,m_s_077.jpg,NA,NA,NA,NA,NA,unpleasant,pleasant,NA,NA,NA,NA,NA,right,1057.09999990463,true,NA,NA,NA,NA,NA,NA,NA,NA
Tss3KNy2,3bawbgqgzoco8yjjw9p686v3rigv79,3tmfv4nepcr7alm1nqraxs64dox8wd,Tss3KNy2,2020-0188,2021-10-31,08:12:54,10:10:13,NA,incomplete,false,true,NA,NA,3,20,NA,orange,n_l_113.jpg,NA,NA,NA,NA,NA,pleasant,unpleasant,NA,NA,NA,NA,NA,left,1847,true,NA,NA,NA,NA,NA,NA,NA,NA
Tss3KNy2,3bawbgqgzoco8yjjw9p686v3rigv79,3tmfv4nepcr7alm1nqraxs64dox8wd,Tss3KNy2,2020-0188,2021-10-31,08:12:54,10:10:13,NA,incomplete,false,true,NA,NA,3,21,NA,orange,n_l_054.jpg,NA,NA,NA,NA,NA,unpleasant,pleasant,NA,NA,NA,NA,NA,right,1365.09999990463,true,NA,NA,NA,NA,NA,NA,NA,NA
Tss3KNy2,3bawbgqgzoco8yjjw9p686v3rigv79,3tmfv4nepcr7alm1nqraxs64dox8wd,Tss3KNy2,2020-0188,2021-10-31,08:12:54,10:10:13,NA,incomplete,false,true,NA,NA,3,22,NA,orange,m_l_066.jpg,NA,NA,NA,NA,NA,unpleasant,pleasant,NA,NA,NA,NA,NA,right,1807.59999990463,true,NA,NA,NA,NA,NA,NA,NA,NA
Tss3KNy2,3bawbgqgzoco8yjjw9p686v3rigv79,3tmfv4nepcr7alm1nqraxs64dox8wd,Tss3KNy2,2020-0188,2021-10-31,08:12:54,10:10:13,NA,incomplete,false,true,NA,NA,3,23,NA,orange,n_s_059.jpg,NA,NA,NA,NA,NA,unpleasant,pleasant,NA,NA,NA,NA,NA,right,1421.2000002861,true,NA,NA,NA,NA,NA,NA,NA,NA
Tss3KNy2,3bawbgqgzoco8yjjw9p686v3rigv79,3tmfv4nepcr7alm1nqraxs64dox8wd,Tss3KNy2,2020-0188,2021-10-31,08:12:54,10:10:13,NA,incomplete,false,true,NA,NA,3,24,NA,purple,m_s_056.jpg,NA,NA,NA,NA,NA,pleasant,unpleasant,NA,NA,NA,NA,NA,left,1784.40000009537,true,NA,NA,NA,NA,NA,NA,NA,NA
Tss3KNy2,3bawbgqgzoco8yjjw9p686v3rigv79,3tmfv4nepcr7alm1nqraxs64dox8wd,Tss3KNy2,2020-0188,2021-10-31,08:12:54,10:10:13,NA,incomplete,false,true,NA,NA,3,25,NA,purple,m_l_093.jpg,NA,NA,NA,NA,NA,pleasant,unpleasant,NA,NA,NA,NA,NA,left,1448.2999997139,true,NA,NA,NA,NA,NA,NA,NA,NA
Tss3KNy2,3bawbgqgzoco8yjjw9p686v3rigv79,3tmfv4nepcr7alm1nqraxs64dox8wd,Tss3KNy2,2020-0188,2021-10-31,08:12:54,10:10:13,NA,incomplete,false,true,NA,NA,3,26,NA,purple,m_l_064.jpg,NA,NA,NA,NA,NA,unpleasant,pleasant,NA,NA,NA,NA,NA,left,1049.2999997139,true,NA,NA,NA,NA,NA,NA,NA,NA
Tss3KNy2,3bawbgqgzoco8yjjw9p686v3rigv79,3tmfv4nepcr7alm1nqraxs64dox8wd,Tss3KNy2,2020-0188,2021-10-31,08:12:54,10:10:13,NA,incomplete,false,true,NA,NA,3,27,NA,purple,n_s_080.jpg,NA,NA,NA,NA,NA,unpleasant,pleasant,NA,NA,NA,NA,NA,right,1604.19999980927,true,NA,NA,NA,NA,NA,NA,NA,NA
Tss3KNy2,3bawbgqgzoco8yjjw9p686v3rigv79,3tmfv4nepcr7alm1nqraxs64dox8wd,Tss3KNy2,2020-0188,2021-10-31,08:12:54,10:10:13,NA,incomplete,false,true,NA,NA,3,28,NA,purple,n_l_034.jpg,NA,NA,NA,NA,NA,pleasant,unpleasant,NA,NA,NA,NA,NA,left,2382.09999990463,true,NA,NA,NA,NA,NA,NA,NA,NA
Tss3KNy2,3bawbgqgzoco8yjjw9p686v3rigv79,3tmfv4nepcr7alm1nqraxs64dox8wd,Tss3KNy2,2020-0188,2021-10-31,08:12:54,10:10:13,NA,incomplete,false,true,NA,NA,3,29,NA,purple,m_s_066.jpg,NA,NA,NA,NA,NA,unpleasant,pleasant,NA,NA,NA,NA,NA,left,1390.59999990463,true,NA,NA,NA,NA,NA,NA,NA,NA
Tss3KNy2,3bawbgqgzoco8yjjw9p686v3rigv79,3tmfv4nepcr7alm1nqraxs64dox8wd,Tss3KNy2,2020-0188,2021-10-31,08:12:54,10:10:13,NA,incomplete,false,true,NA,NA,3,30,NA,red,m_s_086.jpg,NA,NA,NA,NA,NA,pleasant,unpleasant,NA,NA,NA,NA,NA,left,1582.90000009537,true,NA,NA,NA,NA,NA,NA,NA,NA
Tss3KNy2,3bawbgqgzoco8yjjw9p686v3rigv79,3tmfv4nepcr7alm1nqraxs64dox8wd,Tss3KNy2,2020-0188,2021-10-31,08:12:54,10:10:13,NA,incomplete,false,true,NA,NA,3,31,NA,red,n_l_108.jpg,NA,NA,NA,NA,NA,pleasant,unpleasant,NA,NA,NA,NA,NA,left,1398.09999990463,true,NA,NA,NA,NA,NA,NA,NA,NA
Tss3KNy2,3bawbgqgzoco8yjjw9p686v3rigv79,3tmfv4nepcr7alm1nqraxs64dox8wd,Tss3KNy2,2020-0188,2021-10-31,08:12:54,10:10:13,NA,incomplete,false,true,NA,NA,3,32,NA,red,n_l_107.jpg,NA,NA,NA,NA,NA,pleasant,unpleasant,NA,NA,NA,NA,NA,left,1102.40000009537,true,NA,NA,NA,NA,NA,NA,NA,NA
Tss3KNy2,3bawbgqgzoco8yjjw9p686v3rigv79,3tmfv4nepcr7alm1nqraxs64dox8wd,Tss3KNy2,2020-0188,2021-10-31,08:12:54,10:10:13,NA,incomplete,false,true,NA,NA,3,33,NA,red,n_l_009.jpg,NA,NA,NA,NA,NA,unpleasant,pleasant,NA,NA,NA,NA,NA,right,2002.5,true,NA,NA,NA,NA,NA,NA,NA,NA
Tss3KNy2,3bawbgqgzoco8yjjw9p686v3rigv79,3tmfv4nepcr7alm1nqraxs64dox8wd,Tss3KNy2,2020-0188,2021-10-31,08:12:54,10:10:13,NA,incomplete,false,true,NA,NA,3,34,NA,red,n_s_013.jpg,NA,NA,NA,NA,NA,unpleasant,pleasant,NA,NA,NA,NA,NA,right,1401.5,true,NA,NA,NA,NA,NA,NA,NA,NA
Tss3KNy2,3bawbgqgzoco8yjjw9p686v3rigv79,3tmfv4nepcr7alm1nqraxs64dox8wd,Tss3KNy2,2020-0188,2021-10-31,08:12:54,10:10:13,NA,incomplete,false,true,NA,NA,3,35,NA,red,n_l_111.jpg,NA,NA,NA,NA,NA,pleasant,unpleasant,NA,NA,NA,NA,NA,right,1071.5,true,NA,NA,NA,NA,NA,NA,NA,NA
Tss3KNy2,3bawbgqgzoco8yjjw9p686v3rigv79,3tmfv4nepcr7alm1nqraxs64dox8wd,Tss3KNy2,2020-0188,2021-10-31,08:12:54,10:10:13,NA,incomplete,false,NA,NA,true,3,0,NA,NA,NA,left,m_s_104.jpg,yellow,orange,NA,NA,NA,NA,NA,NA,NA,NA,NA,NaN,NA,2697.2000002861023,right,0,NA,NA,NA,NA,NA
Tss3KNy2,3bawbgqgzoco8yjjw9p686v3rigv79,3tmfv4nepcr7alm1nqraxs64dox8wd,Tss3KNy2,2020-0188,2021-10-31,08:12:54,10:10:13,NA,incomplete,false,NA,NA,true,3,1,NA,NA,NA,right,n_l_111.jpg,purple,red,NA,NA,NA,NA,NA,NA,NA,NA,NA,NaN,NA,1727.4000000953674,right,1,NA,NA,NA,NA,NA
Tss3KNy2,3bawbgqgzoco8yjjw9p686v3rigv79,3tmfv4nepcr7alm1nqraxs64dox8wd,Tss3KNy2,2020-0188,2021-10-31,08:12:54,10:10:13,NA,incomplete,false,NA,NA,true,3,2,NA,NA,NA,right,m_l_021.jpg,brown,yellow,NA,NA,NA,NA,NA,NA,NA,NA,NA,NaN,NA,1883.8000001907349,right,1,NA,NA,NA,NA,NA
Tss3KNy2,3bawbgqgzoco8yjjw9p686v3rigv79,3tmfv4nepcr7alm1nqraxs64dox8wd,Tss3KNy2,2020-0188,2021-10-31,08:12:54,10:10:13,NA,incomplete,false,NA,NA,true,3,3,NA,NA,NA,left,m_l_066.jpg,orange,purple,NA,NA,NA,NA,NA,NA,NA,NA,NA,NaN,NA,2534.300000190735,right,0,NA,NA,NA,NA,NA
Tss3KNy2,3bawbgqgzoco8yjjw9p686v3rigv79,3tmfv4nepcr7alm1nqraxs64dox8wd,Tss3KNy2,2020-0188,2021-10-31,08:12:54,10:10:13,NA,incomplete,false,NA,NA,true,3,4,NA,NA,NA,right,m_s_039.jpg,brown,green,NA,NA,NA,NA,NA,NA,NA,NA,NA,NaN,NA,1618.8000001907349,left,0,NA,NA,NA,NA,NA
Tss3KNy2,3bawbgqgzoco8yjjw9p686v3rigv79,3tmfv4nepcr7alm1nqraxs64dox8wd,Tss3KNy2,2020-0188,2021-10-31,08:12:54,10:10:13,NA,incomplete,false,NA,NA,true,3,5,NA,NA,NA,right,n_l_106.jpg,yellow,brown,NA,NA,NA,NA,NA,NA,NA,NA,NA,NaN,NA,4129.599999904633,right,1,NA,NA,NA,NA,NA
Tss3KNy2,3bawbgqgzoco8yjjw9p686v3rigv79,3tmfv4nepcr7alm1nqraxs64dox8wd,Tss3KNy2,2020-0188,2021-10-31,08:12:54,10:10:13,NA,incomplete,false,NA,NA,true,3,6,NA,NA,NA,left,n_l_107.jpg,red,purple,NA,NA,NA,NA,NA,NA,NA,NA,NA,NaN,NA,3088.5999999046326,right,0,NA,NA,NA,NA,NA
Tss3KNy2,3bawbgqgzoco8yjjw9p686v3rigv79,3tmfv4nepcr7alm1nqraxs64dox8wd,Tss3KNy2,2020-0188,2021-10-31,08:12:54,10:10:13,NA,incomplete,false,NA,NA,true,3,7,NA,NA,NA,right,m_s_077.jpg,yellow,orange,NA,NA,NA,NA,NA,NA,NA,NA,NA,NaN,NA,3687.1000003814697,right,1,NA,NA,NA,NA,NA
Tss3KNy2,3bawbgqgzoco8yjjw9p686v3rigv79,3tmfv4nepcr7alm1nqraxs64dox8wd,Tss3KNy2,2020-0188,2021-10-31,08:12:54,10:10:13,NA,incomplete,false,NA,NA,true,3,8,NA,NA,NA,left,n_l_051.jpg,yellow,orange,NA,NA,NA,NA,NA,NA,NA,NA,NA,NaN,NA,1526.7000002861023,right,0,NA,NA,NA,NA,NA
Tss3KNy2,3bawbgqgzoco8yjjw9p686v3rigv79,3tmfv4nepcr7alm1nqraxs64dox8wd,Tss3KNy2,2020-0188,2021-10-31,08:12:54,10:10:13,NA,incomplete,false,NA,NA,true,3,9,NA,NA,NA,left,n_l_085.jpg,green,brown,NA,NA,NA,NA,NA,NA,NA,NA,NA,NaN,NA,5011.199999809265,left,1,NA,NA,NA,NA,NA
Tss3KNy2,3bawbgqgzoco8yjjw9p686v3rigv79,3tmfv4nepcr7alm1nqraxs64dox8wd,Tss3KNy2,2020-0188,2021-10-31,08:12:54,10:10:13,NA,incomplete,false,NA,NA,true,3,10,NA,NA,NA,right,n_s_059.jpg,purple,orange,NA,NA,NA,NA,NA,NA,NA,NA,NA,NaN,NA,2466.800000190735,right,1,NA,NA,NA,NA,NA
Tss3KNy2,3bawbgqgzoco8yjjw9p686v3rigv79,3tmfv4nepcr7alm1nqraxs64dox8wd,Tss3KNy2,2020-0188,2021-10-31,08:12:54,10:10:13,NA,incomplete,false,NA,NA,true,3,11,NA,NA,NA,right,n_s_072.jpg,green,brown,NA,NA,NA,NA,NA,NA,NA,NA,NA,NaN,NA,1925.4000000953674,right,1,NA,NA,NA,NA,NA
Tss3KNy2,3bawbgqgzoco8yjjw9p686v3rigv79,3tmfv4nepcr7alm1nqraxs64dox8wd,Tss3KNy2,2020-0188,2021-10-31,08:12:54,10:10:13,NA,incomplete,false,NA,NA,true,3,12,NA,NA,NA,left,n_l_113.jpg,orange,purple,NA,NA,NA,NA,NA,NA,NA,NA,NA,NaN,NA,6952.5,left,1,NA,NA,NA,NA,NA
Tss3KNy2,3bawbgqgzoco8yjjw9p686v3rigv79,3tmfv4nepcr7alm1nqraxs64dox8wd,Tss3KNy2,2020-0188,2021-10-31,08:12:54,10:10:13,NA,incomplete,false,NA,NA,true,3,13,NA,NA,NA,left,n_s_038.jpg,yellow,brown,NA,NA,NA,NA,NA,NA,NA,NA,NA,NaN,NA,2424,left,1,NA,NA,NA,NA,NA
Tss3KNy2,3bawbgqgzoco8yjjw9p686v3rigv79,3tmfv4nepcr7alm1nqraxs64dox8wd,Tss3KNy2,2020-0188,2021-10-31,08:12:54,10:10:13,NA,incomplete,false,NA,NA,true,3,14,NA,NA,NA,right,n_l_034.jpg,orange,purple,NA,NA,NA,NA,NA,NA,NA,NA,NA,NaN,NA,3387.9000000953674,right,1,NA,NA,NA,NA,NA
Tss3KNy2,3bawbgqgzoco8yjjw9p686v3rigv79,3tmfv4nepcr7alm1nqraxs64dox8wd,Tss3KNy2,2020-0188,2021-10-31,08:12:54,10:10:13,NA,incomplete,false,NA,NA,true,3,15,NA,NA,NA,right,m_s_066.jpg,orange,purple,NA,NA,NA,NA,NA,NA,NA,NA,NA,NaN,NA,2205.6000003814697,right,1,NA,NA,NA,NA,NA
Tss3KNy2,3bawbgqgzoco8yjjw9p686v3rigv79,3tmfv4nepcr7alm1nqraxs64dox8wd,Tss3KNy2,2020-0188,2021-10-31,08:12:54,10:10:13,NA,incomplete,false,NA,NA,true,3,16,NA,NA,NA,right,m_l_064.jpg,orange,purple,NA,NA,NA,NA,NA,NA,NA,NA,NA,NaN,NA,2081.800000190735,right,1,NA,NA,NA,NA,NA
Tss3KNy2,3bawbgqgzoco8yjjw9p686v3rigv79,3tmfv4nepcr7alm1nqraxs64dox8wd,Tss3KNy2,2020-0188,2021-10-31,08:12:54,10:10:13,NA,incomplete,false,NA,NA,true,3,17,NA,NA,NA,right,n_l_108.jpg,purple,red,NA,NA,NA,NA,NA,NA,NA,NA,NA,NaN,NA,2869.5999999046326,left,0,NA,NA,NA,NA,NA
Tss3KNy2,3bawbgqgzoco8yjjw9p686v3rigv79,3tmfv4nepcr7alm1nqraxs64dox8wd,Tss3KNy2,2020-0188,2021-10-31,08:12:54,10:10:13,NA,incomplete,false,NA,NA,true,3,18,NA,NA,NA,right,m_l_093.jpg,orange,purple,NA,NA,NA,NA,NA,NA,NA,NA,NA,NaN,NA,1679,right,1,NA,NA,NA,NA,NA
Tss3KNy2,3bawbgqgzoco8yjjw9p686v3rigv79,3tmfv4nepcr7alm1nqraxs64dox8wd,Tss3KNy2,2020-0188,2021-10-31,08:12:54,10:10:13,NA,incomplete,false,NA,NA,true,3,19,NA,NA,NA,left,n_s_023.jpg,green,brown,NA,NA,NA,NA,NA,NA,NA,NA,NA,NaN,NA,4316.699999809265,left,1,NA,NA,NA,NA,NA
Tss3KNy2,3bawbgqgzoco8yjjw9p686v3rigv79,3tmfv4nepcr7alm1nqraxs64dox8wd,Tss3KNy2,2020-0188,2021-10-31,08:12:54,10:10:13,NA,incomplete,false,NA,NA,true,3,20,NA,NA,NA,left,m_l_008.jpg,brown,green,NA,NA,NA,NA,NA,NA,NA,NA,NA,NaN,NA,1840.5999999046326,right,0,NA,NA,NA,NA,NA
Tss3KNy2,3bawbgqgzoco8yjjw9p686v3rigv79,3tmfv4nepcr7alm1nqraxs64dox8wd,Tss3KNy2,2020-0188,2021-10-31,08:12:54,10:10:13,NA,incomplete,false,NA,NA,true,3,21,NA,NA,NA,right,m_s_047.jpg,yellow,brown,NA,NA,NA,NA,NA,NA,NA,NA,NA,NaN,NA,1447.7999997138977,right,1,NA,NA,NA,NA,NA
Tss3KNy2,3bawbgqgzoco8yjjw9p686v3rigv79,3tmfv4nepcr7alm1nqraxs64dox8wd,Tss3KNy2,2020-0188,2021-10-31,08:12:54,10:10:13,NA,incomplete,false,NA,true,NA,3,0,NA,NA,NA,left,NA,NA,NA,absent,NA,NA,m_s_104.jpg,yellow,m_l_021.jpg,yellow,within,NA,NaN,NA,NA,NA,NA,right,2342.4000000953674,0,3,5851.699999809265
Tss3KNy2,3bawbgqgzoco8yjjw9p686v3rigv79,3tmfv4nepcr7alm1nqraxs64dox8wd,Tss3KNy2,2020-0188,2021-10-31,08:12:54,10:10:13,NA,incomplete,false,NA,true,NA,3,1,NA,NA,NA,right,NA,NA,NA,absent,NA,NA,m_l_064.jpg,purple,m_l_066.jpg,orange,between,NA,NaN,NA,NA,NA,NA,left,4516.300000190735,0,3,1643.8000001907349
Tss3KNy2,3bawbgqgzoco8yjjw9p686v3rigv79,3tmfv4nepcr7alm1nqraxs64dox8wd,Tss3KNy2,2020-0188,2021-10-31,08:12:54,10:10:13,NA,incomplete,false,NA,true,NA,3,2,NA,NA,NA,left,NA,NA,NA,absent,NA,NA,n_s_038.jpg,yellow,n_l_113.jpg,orange,between,NA,NaN,NA,NA,NA,NA,right,2006.5,0,3,7924.199999809265
Tss3KNy2,3bawbgqgzoco8yjjw9p686v3rigv79,3tmfv4nepcr7alm1nqraxs64dox8wd,Tss3KNy2,2020-0188,2021-10-31,08:12:54,10:10:13,NA,incomplete,false,NA,true,NA,3,3,NA,NA,NA,left,NA,NA,NA,absent,NA,NA,m_l_093.jpg,purple,m_s_066.jpg,purple,within,NA,NaN,NA,NA,NA,NA,right,1747.4000000953674,0,3,1907.9000000953674
Tss3KNy2,3bawbgqgzoco8yjjw9p686v3rigv79,3tmfv4nepcr7alm1nqraxs64dox8wd,Tss3KNy2,2020-0188,2021-10-31,08:12:54,10:10:13,NA,incomplete,false,NA,true,NA,3,4,NA,NA,NA,left,NA,NA,NA,absent,NA,NA,n_l_034.jpg,purple,n_l_107.jpg,red,between,NA,NaN,NA,NA,NA,NA,right,3396,0,3,2439.2999997138977
Tss3KNy2,3bawbgqgzoco8yjjw9p686v3rigv79,3tmfv4nepcr7alm1nqraxs64dox8wd,Tss3KNy2,2020-0188,2021-10-31,08:12:54,10:10:13,NA,incomplete,false,NA,true,NA,3,5,NA,NA,NA,left,NA,NA,NA,absent,NA,NA,m_s_047.jpg,brown,n_s_072.jpg,brown,within,NA,NaN,NA,NA,NA,NA,right,2520.5,0,3,3408.9000000953674
Tss3KNy2,3bawbgqgzoco8yjjw9p686v3rigv79,3tmfv4nepcr7alm1nqraxs64dox8wd,Tss3KNy2,2020-0188,2021-10-31,08:12:54,10:10:13,NA,incomplete,false,NA,true,NA,3,6,NA,NA,NA,right,NA,NA,NA,absent,NA,NA,n_l_111.jpg,red,n_l_108.jpg,red,within,NA,NaN,NA,NA,NA,NA,left,2168.1000003814697,0,3,1700.7000002861023
Tss3KNy2,3bawbgqgzoco8yjjw9p686v3rigv79,3tmfv4nepcr7alm1nqraxs64dox8wd,Tss3KNy2,2020-0188,2021-10-31,08:12:54,10:10:13,NA,incomplete,false,NA,true,NA,3,7,NA,NA,NA,right,NA,NA,NA,absent,NA,NA,m_l_008.jpg,brown,n_s_023.jpg,green,between,NA,NaN,NA,NA,NA,NA,right,1627.5999999046326,1,3,1676.8000001907349
Tss3KNy2,3bawbgqgzoco8yjjw9p686v3rigv79,3tmfv4nepcr7alm1nqraxs64dox8wd,Tss3KNy2,2020-0188,2021-10-31,08:12:54,10:10:13,NA,incomplete,false,NA,true,NA,3,8,NA,NA,NA,left,NA,NA,NA,absent,NA,NA,m_s_077.jpg,orange,n_s_059.jpg,orange,within,NA,NaN,NA,NA,NA,NA,left,3070.4000000953674,1,0,4284.300000190735
Tss3KNy2,3bawbgqgzoco8yjjw9p686v3rigv79,3tmfv4nepcr7alm1nqraxs64dox8wd,Tss3KNy2,2020-0188,2021-10-31,08:12:54,10:10:13,NA,incomplete,false,NA,true,NA,3,9,NA,NA,NA,left,NA,NA,NA,absent,NA,NA,n_l_106.jpg,brown,n_l_051.jpg,yellow,between,NA,NaN,NA,NA,NA,NA,left,3057.7999997138977,1,3,4948
Tss3KNy2,3bawbgqgzoco8yjjw9p686v3rigv79,3tmfv4nepcr7alm1nqraxs64dox8wd,Tss3KNy2,2020-0188,2021-10-31,08:12:54,10:10:13,NA,incomplete,false,NA,true,NA,3,10,NA,NA,NA,right,NA,NA,NA,absent,NA,NA,n_l_085.jpg,green,m_s_039.jpg,green,within,NA,NaN,NA,NA,NA,NA,right,1531.2999997138977,1,3,1339.1999998092651
Tss3KNy2,3bawbgqgzoco8yjjw9p686v3rigv79,3tmfv4nepcr7alm1nqraxs64dox8wd,Tss3KNy2,2020-0188,2021-10-31,08:12:54,10:10:13,NA,incomplete,false,true,NA,NA,4,0,NA,green,m_l_003.jpg,NA,NA,NA,NA,NA,unpleasant,pleasant,NA,NA,NA,NA,NA,right,1840.09999990463,true,NA,NA,NA,NA,NA,NA,NA,NA
Tss3KNy2,3bawbgqgzoco8yjjw9p686v3rigv79,3tmfv4nepcr7alm1nqraxs64dox8wd,Tss3KNy2,2020-0188,2021-10-31,08:12:54,10:10:13,NA,incomplete,false,true,NA,NA,4,1,NA,green,m_l_067.jpg,NA,NA,NA,NA,NA,unpleasant,pleasant,NA,NA,NA,NA,NA,right,897,true,NA,NA,NA,NA,NA,NA,NA,NA
Tss3KNy2,3bawbgqgzoco8yjjw9p686v3rigv79,3tmfv4nepcr7alm1nqraxs64dox8wd,Tss3KNy2,2020-0188,2021-10-31,08:12:54,10:10:13,NA,incomplete,false,true,NA,NA,4,2,NA,green,m_s_025.jpg,NA,NA,NA,NA,NA,pleasant,unpleasant,NA,NA,NA,NA,NA,left,1150.30000019073,true,NA,NA,NA,NA,NA,NA,NA,NA
Tss3KNy2,3bawbgqgzoco8yjjw9p686v3rigv79,3tmfv4nepcr7alm1nqraxs64dox8wd,Tss3KNy2,2020-0188,2021-10-31,08:12:54,10:10:13,NA,incomplete,false,true,NA,NA,4,3,NA,green,m_l_091.jpg,NA,NA,NA,NA,NA,unpleasant,pleasant,NA,NA,NA,NA,NA,right,1016.5,true,NA,NA,NA,NA,NA,NA,NA,NA
Tss3KNy2,3bawbgqgzoco8yjjw9p686v3rigv79,3tmfv4nepcr7alm1nqraxs64dox8wd,Tss3KNy2,2020-0188,2021-10-31,08:12:54,10:10:13,NA,incomplete,false,true,NA,NA,4,4,NA,green,n_l_019.jpg,NA,NA,NA,NA,NA,unpleasant,pleasant,NA,NA,NA,NA,NA,right,1441.40000009537,true,NA,NA,NA,NA,NA,NA,NA,NA
Tss3KNy2,3bawbgqgzoco8yjjw9p686v3rigv79,3tmfv4nepcr7alm1nqraxs64dox8wd,Tss3KNy2,2020-0188,2021-10-31,08:12:54,10:10:13,NA,incomplete,false,true,NA,NA,4,5,NA,green,m_s_057.jpg,NA,NA,NA,NA,NA,unpleasant,pleasant,NA,NA,NA,NA,NA,right,1135,true,NA,NA,NA,NA,NA,NA,NA,NA
Tss3KNy2,3bawbgqgzoco8yjjw9p686v3rigv79,3tmfv4nepcr7alm1nqraxs64dox8wd,Tss3KNy2,2020-0188,2021-10-31,08:12:54,10:10:13,NA,incomplete,false,true,NA,NA,4,6,NA,red,n_s_112.jpg,NA,NA,NA,NA,NA,pleasant,unpleasant,NA,NA,NA,NA,NA,left,1414.69999980927,true,NA,NA,NA,NA,NA,NA,NA,NA
Tss3KNy2,3bawbgqgzoco8yjjw9p686v3rigv79,3tmfv4nepcr7alm1nqraxs64dox8wd,Tss3KNy2,2020-0188,2021-10-31,08:12:54,10:10:13,NA,incomplete,false,true,NA,NA,4,7,NA,red,m_s_073.jpg,NA,NA,NA,NA,NA,pleasant,unpleasant,NA,NA,NA,NA,NA,left,1328.59999990463,true,NA,NA,NA,NA,NA,NA,NA,NA
Tss3KNy2,3bawbgqgzoco8yjjw9p686v3rigv79,3tmfv4nepcr7alm1nqraxs64dox8wd,Tss3KNy2,2020-0188,2021-10-31,08:12:54,10:10:13,NA,incomplete,false,true,NA,NA,4,8,NA,red,n_s_069.jpg,NA,NA,NA,NA,NA,pleasant,unpleasant,NA,NA,NA,NA,NA,left,1560.59999990463,true,NA,NA,NA,NA,NA,NA,NA,NA
Tss3KNy2,3bawbgqgzoco8yjjw9p686v3rigv79,3tmfv4nepcr7alm1nqraxs64dox8wd,Tss3KNy2,2020-0188,2021-10-31,08:12:54,10:10:13,NA,incomplete,false,true,NA,NA,4,9,NA,red,n_l_070.jpg,NA,NA,NA,NA,NA,pleasant,unpleasant,NA,NA,NA,NA,NA,left,1087,true,NA,NA,NA,NA,NA,NA,NA,NA
Tss3KNy2,3bawbgqgzoco8yjjw9p686v3rigv79,3tmfv4nepcr7alm1nqraxs64dox8wd,Tss3KNy2,2020-0188,2021-10-31,08:12:54,10:10:13,NA,incomplete,false,true,NA,NA,4,10,NA,red,m_l_095.jpg,NA,NA,NA,NA,NA,unpleasant,pleasant,NA,NA,NA,NA,NA,right,917.400000095367,true,NA,NA,NA,NA,NA,NA,NA,NA
Tss3KNy2,3bawbgqgzoco8yjjw9p686v3rigv79,3tmfv4nepcr7alm1nqraxs64dox8wd,Tss3KNy2,2020-0188,2021-10-31,08:12:54,10:10:13,NA,incomplete,false,true,NA,NA,4,11,NA,red,m_l_001.jpg,NA,NA,NA,NA,NA,pleasant,unpleasant,NA,NA,NA,NA,NA,left,1311.59999990463,true,NA,NA,NA,NA,NA,NA,NA,NA
Tss3KNy2,3bawbgqgzoco8yjjw9p686v3rigv79,3tmfv4nepcr7alm1nqraxs64dox8wd,Tss3KNy2,2020-0188,2021-10-31,08:12:54,10:10:13,NA,incomplete,false,true,NA,NA,4,12,NA,brown,n_s_068.jpg,NA,NA,NA,NA,NA,unpleasant,pleasant,NA,NA,NA,NA,NA,right,901.39999961853,true,NA,NA,NA,NA,NA,NA,NA,NA
Tss3KNy2,3bawbgqgzoco8yjjw9p686v3rigv79,3tmfv4nepcr7alm1nqraxs64dox8wd,Tss3KNy2,2020-0188,2021-10-31,08:12:54,10:10:13,NA,incomplete,false,true,NA,NA,4,13,NA,brown,m_s_100.jpg,NA,NA,NA,NA,NA,unpleasant,pleasant,NA,NA,NA,NA,NA,right,1388.19999980927,true,NA,NA,NA,NA,NA,NA,NA,NA
Tss3KNy2,3bawbgqgzoco8yjjw9p686v3rigv79,3tmfv4nepcr7alm1nqraxs64dox8wd,Tss3KNy2,2020-0188,2021-10-31,08:12:54,10:10:13,NA,incomplete,false,true,NA,NA,4,14,NA,brown,n_s_025.jpg,NA,NA,NA,NA,NA,pleasant,unpleasant,NA,NA,NA,NA,NA,left,1156.2999997139,true,NA,NA,NA,NA,NA,NA,NA,NA
Tss3KNy2,3bawbgqgzoco8yjjw9p686v3rigv79,3tmfv4nepcr7alm1nqraxs64dox8wd,Tss3KNy2,2020-0188,2021-10-31,08:12:54,10:10:13,NA,incomplete,false,true,NA,NA,4,15,NA,brown,m_l_071.jpg,NA,NA,NA,NA,NA,pleasant,unpleasant,NA,NA,NA,NA,NA,left,971.400000095367,true,NA,NA,NA,NA,NA,NA,NA,NA
Tss3KNy2,3bawbgqgzoco8yjjw9p686v3rigv79,3tmfv4nepcr7alm1nqraxs64dox8wd,Tss3KNy2,2020-0188,2021-10-31,08:12:54,10:10:13,NA,incomplete,false,true,NA,NA,4,16,NA,brown,n_s_046.jpg,NA,NA,NA,NA,NA,unpleasant,pleasant,NA,NA,NA,NA,NA,right,1160.59999990463,true,NA,NA,NA,NA,NA,NA,NA,NA
Tss3KNy2,3bawbgqgzoco8yjjw9p686v3rigv79,3tmfv4nepcr7alm1nqraxs64dox8wd,Tss3KNy2,2020-0188,2021-10-31,08:12:54,10:10:13,NA,incomplete,false,true,NA,NA,4,17,NA,brown,m_s_015.jpg,NA,NA,NA,NA,NA,pleasant,unpleasant,NA,NA,NA,NA,NA,left,1212.2000002861,true,NA,NA,NA,NA,NA,NA,NA,NA
Tss3KNy2,3bawbgqgzoco8yjjw9p686v3rigv79,3tmfv4nepcr7alm1nqraxs64dox8wd,Tss3KNy2,2020-0188,2021-10-31,08:12:54,10:10:13,NA,incomplete,false,true,NA,NA,4,18,NA,gray,n_s_094.jpg,NA,NA,NA,NA,NA,pleasant,unpleasant,NA,NA,NA,NA,NA,left,2260.80000019073,true,NA,NA,NA,NA,NA,NA,NA,NA
Tss3KNy2,3bawbgqgzoco8yjjw9p686v3rigv79,3tmfv4nepcr7alm1nqraxs64dox8wd,Tss3KNy2,2020-0188,2021-10-31,08:12:54,10:10:13,NA,incomplete,false,true,NA,NA,4,19,NA,gray,n_s_005.jpg,NA,NA,NA,NA,NA,pleasant,unpleasant,NA,NA,NA,NA,NA,left,1869.90000009537,true,NA,NA,NA,NA,NA,NA,NA,NA
Tss3KNy2,3bawbgqgzoco8yjjw9p686v3rigv79,3tmfv4nepcr7alm1nqraxs64dox8wd,Tss3KNy2,2020-0188,2021-10-31,08:12:54,10:10:13,NA,incomplete,false,true,NA,NA,4,20,NA,gray,n_l_062.jpg,NA,NA,NA,NA,NA,unpleasant,pleasant,NA,NA,NA,NA,NA,right,2401.2999997139,true,NA,NA,NA,NA,NA,NA,NA,NA
Tss3KNy2,3bawbgqgzoco8yjjw9p686v3rigv79,3tmfv4nepcr7alm1nqraxs64dox8wd,Tss3KNy2,2020-0188,2021-10-31,08:12:54,10:10:13,NA,incomplete,false,true,NA,NA,4,21,NA,gray,n_s_002.jpg,NA,NA,NA,NA,NA,unpleasant,pleasant,NA,NA,NA,NA,NA,right,1535.59999990463,true,NA,NA,NA,NA,NA,NA,NA,NA
Tss3KNy2,3bawbgqgzoco8yjjw9p686v3rigv79,3tmfv4nepcr7alm1nqraxs64dox8wd,Tss3KNy2,2020-0188,2021-10-31,08:12:54,10:10:13,NA,incomplete,false,true,NA,NA,4,22,NA,gray,m_s_026.jpg,NA,NA,NA,NA,NA,pleasant,unpleasant,NA,NA,NA,NA,NA,left,1125.09999990463,true,NA,NA,NA,NA,NA,NA,NA,NA
Tss3KNy2,3bawbgqgzoco8yjjw9p686v3rigv79,3tmfv4nepcr7alm1nqraxs64dox8wd,Tss3KNy2,2020-0188,2021-10-31,08:12:54,10:10:13,NA,incomplete,false,true,NA,NA,4,23,NA,gray,n_l_091.jpg,NA,NA,NA,NA,NA,pleasant,unpleasant,NA,NA,NA,NA,NA,left,1438.19999980927,true,NA,NA,NA,NA,NA,NA,NA,NA
Tss3KNy2,3bawbgqgzoco8yjjw9p686v3rigv79,3tmfv4nepcr7alm1nqraxs64dox8wd,Tss3KNy2,2020-0188,2021-10-31,08:12:54,10:10:13,NA,incomplete,false,true,NA,NA,4,24,NA,white,m_l_037.jpg,NA,NA,NA,NA,NA,unpleasant,pleasant,NA,NA,NA,NA,NA,right,1509.90000009537,true,NA,NA,NA,NA,NA,NA,NA,NA
Tss3KNy2,3bawbgqgzoco8yjjw9p686v3rigv79,3tmfv4nepcr7alm1nqraxs64dox8wd,Tss3KNy2,2020-0188,2021-10-31,08:12:54,10:10:13,NA,incomplete,false,true,NA,NA,4,25,NA,white,m_l_065.jpg,NA,NA,NA,NA,NA,pleasant,unpleasant,NA,NA,NA,NA,NA,left,1221.30000019073,true,NA,NA,NA,NA,NA,NA,NA,NA
Tss3KNy2,3bawbgqgzoco8yjjw9p686v3rigv79,3tmfv4nepcr7alm1nqraxs64dox8wd,Tss3KNy2,2020-0188,2021-10-31,08:12:54,10:10:13,NA,incomplete,false,true,NA,NA,4,26,NA,white,m_l_028.jpg,NA,NA,NA,NA,NA,unpleasant,pleasant,NA,NA,NA,NA,NA,right,1483.19999980927,true,NA,NA,NA,NA,NA,NA,NA,NA
Tss3KNy2,3bawbgqgzoco8yjjw9p686v3rigv79,3tmfv4nepcr7alm1nqraxs64dox8wd,Tss3KNy2,2020-0188,2021-10-31,08:12:54,10:10:13,NA,incomplete,false,true,NA,NA,4,27,NA,white,n_l_024.jpg,NA,NA,NA,NA,NA,unpleasant,pleasant,NA,NA,NA,NA,NA,right,1264.80000019073,true,NA,NA,NA,NA,NA,NA,NA,NA
Tss3KNy2,3bawbgqgzoco8yjjw9p686v3rigv79,3tmfv4nepcr7alm1nqraxs64dox8wd,Tss3KNy2,2020-0188,2021-10-31,08:12:54,10:10:13,NA,incomplete,false,true,NA,NA,4,28,NA,white,m_s_091.jpg,NA,NA,NA,NA,NA,unpleasant,pleasant,NA,NA,NA,NA,NA,right,1452.69999980927,true,NA,NA,NA,NA,NA,NA,NA,NA
Tss3KNy2,3bawbgqgzoco8yjjw9p686v3rigv79,3tmfv4nepcr7alm1nqraxs64dox8wd,Tss3KNy2,2020-0188,2021-10-31,08:12:54,10:10:13,NA,incomplete,false,true,NA,NA,4,29,NA,white,n_s_031.jpg,NA,NA,NA,NA,NA,pleasant,unpleasant,NA,NA,NA,NA,NA,left,1698.5,true,NA,NA,NA,NA,NA,NA,NA,NA
Tss3KNy2,3bawbgqgzoco8yjjw9p686v3rigv79,3tmfv4nepcr7alm1nqraxs64dox8wd,Tss3KNy2,2020-0188,2021-10-31,08:12:54,10:10:13,NA,incomplete,false,true,NA,NA,4,30,NA,yellow,m_s_069.jpg,NA,NA,NA,NA,NA,unpleasant,pleasant,NA,NA,NA,NA,NA,right,1876.09999990463,true,NA,NA,NA,NA,NA,NA,NA,NA
Tss3KNy2,3bawbgqgzoco8yjjw9p686v3rigv79,3tmfv4nepcr7alm1nqraxs64dox8wd,Tss3KNy2,2020-0188,2021-10-31,08:12:54,10:10:13,NA,incomplete,false,true,NA,NA,4,31,NA,yellow,n_l_049.jpg,NA,NA,NA,NA,NA,unpleasant,pleasant,NA,NA,NA,NA,NA,right,1353.10000038147,true,NA,NA,NA,NA,NA,NA,NA,NA
Tss3KNy2,3bawbgqgzoco8yjjw9p686v3rigv79,3tmfv4nepcr7alm1nqraxs64dox8wd,Tss3KNy2,2020-0188,2021-10-31,08:12:54,10:10:13,NA,incomplete,false,true,NA,NA,4,32,NA,yellow,n_s_036.jpg,NA,NA,NA,NA,NA,unpleasant,pleasant,NA,NA,NA,NA,NA,right,1557.19999980927,true,NA,NA,NA,NA,NA,NA,NA,NA
Tss3KNy2,3bawbgqgzoco8yjjw9p686v3rigv79,3tmfv4nepcr7alm1nqraxs64dox8wd,Tss3KNy2,2020-0188,2021-10-31,08:12:54,10:10:13,NA,incomplete,false,true,NA,NA,4,33,NA,yellow,n_s_098.jpg,NA,NA,NA,NA,NA,pleasant,unpleasant,NA,NA,NA,NA,NA,right,1294.09999990463,true,NA,NA,NA,NA,NA,NA,NA,NA
Tss3KNy2,3bawbgqgzoco8yjjw9p686v3rigv79,3tmfv4nepcr7alm1nqraxs64dox8wd,Tss3KNy2,2020-0188,2021-10-31,08:12:54,10:10:13,NA,incomplete,false,true,NA,NA,4,34,NA,yellow,n_l_035.jpg,NA,NA,NA,NA,NA,pleasant,unpleasant,NA,NA,NA,NA,NA,left,1276.5,true,NA,NA,NA,NA,NA,NA,NA,NA
Tss3KNy2,3bawbgqgzoco8yjjw9p686v3rigv79,3tmfv4nepcr7alm1nqraxs64dox8wd,Tss3KNy2,2020-0188,2021-10-31,08:12:54,10:10:13,NA,incomplete,false,true,NA,NA,4,35,NA,yellow,n_s_117.jpg,NA,NA,NA,NA,NA,pleasant,unpleasant,NA,NA,NA,NA,NA,left,1437.90000009537,true,NA,NA,NA,NA,NA,NA,NA,NA
Tss3KNy2,3bawbgqgzoco8yjjw9p686v3rigv79,3tmfv4nepcr7alm1nqraxs64dox8wd,Tss3KNy2,2020-0188,2021-10-31,08:12:54,10:10:13,NA,incomplete,false,NA,NA,true,4,0,NA,NA,NA,left,m_s_015.jpg,brown,red,NA,NA,NA,NA,NA,NA,NA,NA,NA,NaN,NA,2351.800000190735,right,0,NA,NA,NA,NA,NA
Tss3KNy2,3bawbgqgzoco8yjjw9p686v3rigv79,3tmfv4nepcr7alm1nqraxs64dox8wd,Tss3KNy2,2020-0188,2021-10-31,08:12:54,10:10:13,NA,incomplete,false,NA,NA,true,4,1,NA,NA,NA,left,n_s_046.jpg,brown,gray,NA,NA,NA,NA,NA,NA,NA,NA,NA,NaN,NA,1348.9000000953674,right,0,NA,NA,NA,NA,NA
Tss3KNy2,3bawbgqgzoco8yjjw9p686v3rigv79,3tmfv4nepcr7alm1nqraxs64dox8wd,Tss3KNy2,2020-0188,2021-10-31,08:12:54,10:10:13,NA,incomplete,false,NA,NA,true,4,2,NA,NA,NA,left,m_s_073.jpg,red,green,NA,NA,NA,NA,NA,NA,NA,NA,NA,NaN,NA,1220.1999998092651,right,0,NA,NA,NA,NA,NA
Tss3KNy2,3bawbgqgzoco8yjjw9p686v3rigv79,3tmfv4nepcr7alm1nqraxs64dox8wd,Tss3KNy2,2020-0188,2021-10-31,08:12:54,10:10:13,NA,incomplete,false,NA,NA,true,4,3,NA,NA,NA,right,m_s_057.jpg,red,green,NA,NA,NA,NA,NA,NA,NA,NA,NA,NaN,NA,1070.9000000953674,right,1,NA,NA,NA,NA,NA
Tss3KNy2,3bawbgqgzoco8yjjw9p686v3rigv79,3tmfv4nepcr7alm1nqraxs64dox8wd,Tss3KNy2,2020-0188,2021-10-31,08:12:54,10:10:13,NA,incomplete,false,NA,NA,true,4,4,NA,NA,NA,left,m_l_001.jpg,red,brown,NA,NA,NA,NA,NA,NA,NA,NA,NA,NaN,NA,2747.0999999046326,right,0,NA,NA,NA,NA,NA
Tss3KNy2,3bawbgqgzoco8yjjw9p686v3rigv79,3tmfv4nepcr7alm1nqraxs64dox8wd,Tss3KNy2,2020-0188,2021-10-31,08:12:54,10:10:13,NA,incomplete,false,NA,NA,true,4,5,NA,NA,NA,right,n_l_091.jpg,white,gray,NA,NA,NA,NA,NA,NA,NA,NA,NA,NaN,NA,1239.1999998092651,right,1,NA,NA,NA,NA,NA
Tss3KNy2,3bawbgqgzoco8yjjw9p686v3rigv79,3tmfv4nepcr7alm1nqraxs64dox8wd,Tss3KNy2,2020-0188,2021-10-31,08:12:54,10:10:13,NA,incomplete,false,NA,NA,true,4,6,NA,NA,NA,left,m_l_095.jpg,red,green,NA,NA,NA,NA,NA,NA,NA,NA,NA,NaN,NA,2529.5,right,0,NA,NA,NA,NA,NA
Tss3KNy2,3bawbgqgzoco8yjjw9p686v3rigv79,3tmfv4nepcr7alm1nqraxs64dox8wd,Tss3KNy2,2020-0188,2021-10-31,08:12:54,10:10:13,NA,incomplete,false,NA,NA,true,4,7,NA,NA,NA,left,n_s_036.jpg,yellow,white,NA,NA,NA,NA,NA,NA,NA,NA,NA,NaN,NA,8611.199999809265,left,1,NA,NA,NA,NA,NA
Tss3KNy2,3bawbgqgzoco8yjjw9p686v3rigv79,3tmfv4nepcr7alm1nqraxs64dox8wd,Tss3KNy2,2020-0188,2021-10-31,08:12:54,10:10:13,NA,incomplete,false,NA,NA,true,4,8,NA,NA,NA,right,m_s_091.jpg,gray,white,NA,NA,NA,NA,NA,NA,NA,NA,NA,NaN,NA,1950.5,right,1,NA,NA,NA,NA,NA
Tss3KNy2,3bawbgqgzoco8yjjw9p686v3rigv79,3tmfv4nepcr7alm1nqraxs64dox8wd,Tss3KNy2,2020-0188,2021-10-31,08:12:54,10:10:13,NA,incomplete,false,NA,NA,true,4,9,NA,NA,NA,right,m_s_026.jpg,white,gray,NA,NA,NA,NA,NA,NA,NA,NA,NA,NaN,NA,2224.7999997138977,right,1,NA,NA,NA,NA,NA
Tss3KNy2,3bawbgqgzoco8yjjw9p686v3rigv79,3tmfv4nepcr7alm1nqraxs64dox8wd,Tss3KNy2,2020-0188,2021-10-31,08:12:54,10:10:13,NA,incomplete,false,NA,NA,true,4,10,NA,NA,NA,left,n_s_005.jpg,gray,brown,NA,NA,NA,NA,NA,NA,NA,NA,NA,NaN,NA,2194.699999809265,right,0,NA,NA,NA,NA,NA
Tss3KNy2,3bawbgqgzoco8yjjw9p686v3rigv79,3tmfv4nepcr7alm1nqraxs64dox8wd,Tss3KNy2,2020-0188,2021-10-31,08:12:54,10:10:13,NA,incomplete,false,NA,NA,true,4,11,NA,NA,NA,left,n_l_049.jpg,yellow,white,NA,NA,NA,NA,NA,NA,NA,NA,NA,NaN,NA,2567.0999999046326,left,1,NA,NA,NA,NA,NA
Tss3KNy2,3bawbgqgzoco8yjjw9p686v3rigv79,3tmfv4nepcr7alm1nqraxs64dox8wd,Tss3KNy2,2020-0188,2021-10-31,08:12:54,10:10:13,NA,incomplete,false,NA,NA,true,4,12,NA,NA,NA,left,m_l_065.jpg,white,gray,NA,NA,NA,NA,NA,NA,NA,NA,NA,NaN,NA,3806.0999999046326,right,0,NA,NA,NA,NA,NA
Tss3KNy2,3bawbgqgzoco8yjjw9p686v3rigv79,3tmfv4nepcr7alm1nqraxs64dox8wd,Tss3KNy2,2020-0188,2021-10-31,08:12:54,10:10:13,NA,incomplete,false,NA,NA,true,4,13,NA,NA,NA,left,m_l_067.jpg,green,red,NA,NA,NA,NA,NA,NA,NA,NA,NA,NaN,NA,1697,right,0,NA,NA,NA,NA,NA
Tss3KNy2,3bawbgqgzoco8yjjw9p686v3rigv79,3tmfv4nepcr7alm1nqraxs64dox8wd,Tss3KNy2,2020-0188,2021-10-31,08:12:54,10:10:13,NA,incomplete,false,NA,NA,true,4,14,NA,NA,NA,left,n_s_069.jpg,red,brown,NA,NA,NA,NA,NA,NA,NA,NA,NA,NaN,NA,3036.199999809265,right,0,NA,NA,NA,NA,NA
Tss3KNy2,3bawbgqgzoco8yjjw9p686v3rigv79,3tmfv4nepcr7alm1nqraxs64dox8wd,Tss3KNy2,2020-0188,2021-10-31,08:12:54,10:10:13,NA,incomplete,false,NA,NA,true,4,15,NA,NA,NA,right,n_s_031.jpg,yellow,white,NA,NA,NA,NA,NA,NA,NA,NA,NA,NaN,NA,5163,right,1,NA,NA,NA,NA,NA
Tss3KNy2,3bawbgqgzoco8yjjw9p686v3rigv79,3tmfv4nepcr7alm1nqraxs64dox8wd,Tss3KNy2,2020-0188,2021-10-31,08:12:54,10:10:13,NA,incomplete,false,NA,NA,true,4,16,NA,NA,NA,right,n_l_062.jpg,white,gray,NA,NA,NA,NA,NA,NA,NA,NA,NA,NaN,NA,1225.4000000953674,right,1,NA,NA,NA,NA,NA
Tss3KNy2,3bawbgqgzoco8yjjw9p686v3rigv79,3tmfv4nepcr7alm1nqraxs64dox8wd,Tss3KNy2,2020-0188,2021-10-31,08:12:54,10:10:13,NA,incomplete,false,NA,NA,true,4,17,NA,NA,NA,right,n_s_117.jpg,white,yellow,NA,NA,NA,NA,NA,NA,NA,NA,NA,NaN,NA,1508.8000001907349,right,1,NA,NA,NA,NA,NA
Tss3KNy2,3bawbgqgzoco8yjjw9p686v3rigv79,3tmfv4nepcr7alm1nqraxs64dox8wd,Tss3KNy2,2020-0188,2021-10-31,08:12:54,10:10:13,NA,incomplete,false,NA,NA,true,4,18,NA,NA,NA,left,m_l_028.jpg,white,gray,NA,NA,NA,NA,NA,NA,NA,NA,NA,NaN,NA,3311.800000190735,right,0,NA,NA,NA,NA,NA
Tss3KNy2,3bawbgqgzoco8yjjw9p686v3rigv79,3tmfv4nepcr7alm1nqraxs64dox8wd,Tss3KNy2,2020-0188,2021-10-31,08:12:54,10:10:13,NA,incomplete,false,NA,NA,true,4,19,NA,NA,NA,left,m_s_100.jpg,brown,gray,NA,NA,NA,NA,NA,NA,NA,NA,NA,NaN,NA,1801.7999997138977,right,0,NA,NA,NA,NA,NA
Tss3KNy2,3bawbgqgzoco8yjjw9p686v3rigv79,3tmfv4nepcr7alm1nqraxs64dox8wd,Tss3KNy2,2020-0188,2021-10-31,08:12:54,10:10:13,NA,incomplete,false,NA,NA,true,4,20,NA,NA,NA,left,n_s_025.jpg,brown,red,NA,NA,NA,NA,NA,NA,NA,NA,NA,NaN,NA,2822.5999999046326,right,0,NA,NA,NA,NA,NA
Tss3KNy2,3bawbgqgzoco8yjjw9p686v3rigv79,3tmfv4nepcr7alm1nqraxs64dox8wd,Tss3KNy2,2020-0188,2021-10-31,08:12:54,10:10:13,NA,incomplete,false,NA,NA,true,4,21,NA,NA,NA,right,n_l_019.jpg,red,green,NA,NA,NA,NA,NA,NA,NA,NA,NA,NaN,NA,1581.5,right,1,NA,NA,NA,NA,NA
Tss3KNy2,3bawbgqgzoco8yjjw9p686v3rigv79,3tmfv4nepcr7alm1nqraxs64dox8wd,Tss3KNy2,2020-0188,2021-10-31,08:12:54,10:10:13,NA,incomplete,false,NA,true,NA,4,0,NA,NA,NA,right,NA,NA,NA,absent,NA,NA,n_s_069.jpg,red,n_l_019.jpg,green,between,NA,NaN,NA,NA,NA,NA,left,2305.9000000953674,0,3,2086.5
Tss3KNy2,3bawbgqgzoco8yjjw9p686v3rigv79,3tmfv4nepcr7alm1nqraxs64dox8wd,Tss3KNy2,2020-0188,2021-10-31,08:12:54,10:10:13,NA,incomplete,false,NA,true,NA,4,1,NA,NA,NA,right,NA,NA,NA,absent,NA,NA,m_s_057.jpg,green,m_l_067.jpg,green,within,NA,NaN,NA,NA,NA,NA,left,2680.5,0,3,1231.5
Tss3KNy2,3bawbgqgzoco8yjjw9p686v3rigv79,3tmfv4nepcr7alm1nqraxs64dox8wd,Tss3KNy2,2020-0188,2021-10-31,08:12:54,10:10:13,NA,incomplete,false,NA,true,NA,4,2,NA,NA,NA,right,NA,NA,NA,absent,NA,NA,n_s_117.jpg,yellow,n_l_049.jpg,yellow,within,NA,NaN,NA,NA,NA,NA,left,7001.5,0,3,1979.1999998092651
Tss3KNy2,3bawbgqgzoco8yjjw9p686v3rigv79,3tmfv4nepcr7alm1nqraxs64dox8wd,Tss3KNy2,2020-0188,2021-10-31,08:12:54,10:10:13,NA,incomplete,false,NA,true,NA,4,3,NA,NA,NA,right,NA,NA,NA,absent,NA,NA,m_l_028.jpg,white,m_s_026.jpg,gray,between,NA,NaN,NA,NA,NA,NA,right,3047.199999809265,1,3,2052.0999999046326
Tss3KNy2,3bawbgqgzoco8yjjw9p686v3rigv79,3tmfv4nepcr7alm1nqraxs64dox8wd,Tss3KNy2,2020-0188,2021-10-31,08:12:54,10:10:13,NA,incomplete,false,NA,true,NA,4,4,NA,NA,NA,right,NA,NA,NA,absent,NA,NA,n_s_025.jpg,brown,m_l_095.jpg,red,between,NA,NaN,NA,NA,NA,NA,right,1613.4000000953674,1,3,1346.4000000953674
Tss3KNy2,3bawbgqgzoco8yjjw9p686v3rigv79,3tmfv4nepcr7alm1nqraxs64dox8wd,Tss3KNy2,2020-0188,2021-10-31,08:12:54,10:10:13,NA,incomplete,false,NA,true,NA,4,5,NA,NA,NA,left,NA,NA,NA,absent,NA,NA,m_l_065.jpg,white,n_s_031.jpg,white,within,NA,NaN,NA,NA,NA,NA,left,2585.699999809265,1,3,1858.0999999046326
Tss3KNy2,3bawbgqgzoco8yjjw9p686v3rigv79,3tmfv4nepcr7alm1nqraxs64dox8wd,Tss3KNy2,2020-0188,2021-10-31,08:12:54,10:10:13,NA,incomplete,false,NA,true,NA,4,6,NA,NA,NA,left,NA,NA,NA,absent,NA,NA,m_s_091.jpg,white,n_s_036.jpg,yellow,between,NA,NaN,NA,NA,NA,NA,left,4268.699999809265,1,3,2411.9000000953674
Tss3KNy2,3bawbgqgzoco8yjjw9p686v3rigv79,3tmfv4nepcr7alm1nqraxs64dox8wd,Tss3KNy2,2020-0188,2021-10-31,08:12:54,10:10:13,NA,incomplete,false,NA,true,NA,4,7,NA,NA,NA,right,NA,NA,NA,absent,NA,NA,n_l_091.jpg,gray,n_s_005.jpg,gray,within,NA,NaN,NA,NA,NA,NA,right,2562.199999809265,1,3,1869.6999998092651
Tss3KNy2,3bawbgqgzoco8yjjw9p686v3rigv79,3tmfv4nepcr7alm1nqraxs64dox8wd,Tss3KNy2,2020-0188,2021-10-31,08:12:54,10:10:13,NA,incomplete,false,NA,true,NA,4,8,NA,NA,NA,left,NA,NA,NA,absent,NA,NA,m_s_100.jpg,brown,m_s_015.jpg,brown,within,NA,NaN,NA,NA,NA,NA,right,1543.4000000953674,0,3,1359.4000000953674
Tss3KNy2,3bawbgqgzoco8yjjw9p686v3rigv79,3tmfv4nepcr7alm1nqraxs64dox8wd,Tss3KNy2,2020-0188,2021-10-31,08:12:54,10:10:13,NA,incomplete,false,NA,true,NA,4,9,NA,NA,NA,right,NA,NA,NA,absent,NA,NA,m_l_001.jpg,red,m_s_073.jpg,red,within,NA,NaN,NA,NA,NA,NA,right,5326.5,1,3,1428.5
Tss3KNy2,3bawbgqgzoco8yjjw9p686v3rigv79,3tmfv4nepcr7alm1nqraxs64dox8wd,Tss3KNy2,2020-0188,2021-10-31,08:12:54,10:10:13,NA,incomplete,false,NA,true,NA,4,10,NA,NA,NA,left,NA,NA,NA,absent,NA,NA,n_s_046.jpg,brown,n_l_062.jpg,gray,between,NA,NaN,NA,NA,NA,NA,right,1642.6999998092651,0,3,1768.6000003814697
Tss3KNy2,3bawbgqgzoco8yjjw9p686v3rigv79,3tmfv4nepcr7alm1nqraxs64dox8wd,Tss3KNy2,2020-0188,2021-10-31,08:12:54,10:10:13,NA,incomplete,false,true,NA,NA,5,0,NA,black,n_l_061.jpg,NA,NA,NA,NA,NA,unpleasant,pleasant,NA,NA,NA,NA,NA,right,1708.5,true,NA,NA,NA,NA,NA,NA,NA,NA
Tss3KNy2,3bawbgqgzoco8yjjw9p686v3rigv79,3tmfv4nepcr7alm1nqraxs64dox8wd,Tss3KNy2,2020-0188,2021-10-31,08:12:54,10:10:13,NA,incomplete,false,true,NA,NA,5,1,NA,black,m_s_082.jpg,NA,NA,NA,NA,NA,unpleasant,pleasant,NA,NA,NA,NA,NA,right,1459.30000019073,true,NA,NA,NA,NA,NA,NA,NA,NA
Tss3KNy2,3bawbgqgzoco8yjjw9p686v3rigv79,3tmfv4nepcr7alm1nqraxs64dox8wd,Tss3KNy2,2020-0188,2021-10-31,08:12:54,10:10:13,NA,incomplete,false,true,NA,NA,5,2,NA,black,m_s_074.jpg,NA,NA,NA,NA,NA,unpleasant,pleasant,NA,NA,NA,NA,NA,right,992,true,NA,NA,NA,NA,NA,NA,NA,NA
Tss3KNy2,3bawbgqgzoco8yjjw9p686v3rigv79,3tmfv4nepcr7alm1nqraxs64dox8wd,Tss3KNy2,2020-0188,2021-10-31,08:12:54,10:10:13,NA,incomplete,false,true,NA,NA,5,3,NA,black,m_s_038.jpg,NA,NA,NA,NA,NA,unpleasant,pleasant,NA,NA,NA,NA,NA,right,1102.7000002861,true,NA,NA,NA,NA,NA,NA,NA,NA
Tss3KNy2,3bawbgqgzoco8yjjw9p686v3rigv79,3tmfv4nepcr7alm1nqraxs64dox8wd,Tss3KNy2,2020-0188,2021-10-31,08:12:54,10:10:13,NA,incomplete,false,true,NA,NA,5,4,NA,black,m_s_078.jpg,NA,NA,NA,NA,NA,pleasant,unpleasant,NA,NA,NA,NA,NA,left,57.0999999046326,true,NA,NA,NA,NA,NA,NA,NA,NA
Tss3KNy2,3bawbgqgzoco8yjjw9p686v3rigv79,3tmfv4nepcr7alm1nqraxs64dox8wd,Tss3KNy2,2020-0188,2021-10-31,08:12:54,10:10:13,NA,incomplete,false,true,NA,NA,5,5,NA,black,m_l_063.jpg,NA,NA,NA,NA,NA,pleasant,unpleasant,NA,NA,NA,NA,NA,none,0,false,NA,NA,NA,NA,NA,NA,NA,NA
Tss3KNy2,3bawbgqgzoco8yjjw9p686v3rigv79,3tmfv4nepcr7alm1nqraxs64dox8wd,Tss3KNy2,2020-0188,2021-10-31,08:12:54,10:10:13,NA,incomplete,false,true,NA,NA,5,6,NA,yellow,m_l_105.jpg,NA,NA,NA,NA,NA,unpleasant,pleasant,NA,NA,NA,NA,NA,right,1894,true,NA,NA,NA,NA,NA,NA,NA,NA
Tss3KNy2,3bawbgqgzoco8yjjw9p686v3rigv79,3tmfv4nepcr7alm1nqraxs64dox8wd,Tss3KNy2,2020-0188,2021-10-31,08:12:54,10:10:13,NA,incomplete,false,true,NA,NA,5,7,NA,yellow,m_s_060.jpg,NA,NA,NA,NA,NA,pleasant,unpleasant,NA,NA,NA,NA,NA,left,1552.5,true,NA,NA,NA,NA,NA,NA,NA,NA
Tss3KNy2,3bawbgqgzoco8yjjw9p686v3rigv79,3tmfv4nepcr7alm1nqraxs64dox8wd,Tss3KNy2,2020-0188,2021-10-31,08:12:54,10:10:13,NA,incomplete,false,true,NA,NA,5,8,NA,yellow,n_s_089.jpg,NA,NA,NA,NA,NA,unpleasant,pleasant,NA,NA,NA,NA,NA,right,1227.19999980927,true,NA,NA,NA,NA,NA,NA,NA,NA
Tss3KNy2,3bawbgqgzoco8yjjw9p686v3rigv79,3tmfv4nepcr7alm1nqraxs64dox8wd,Tss3KNy2,2020-0188,2021-10-31,08:12:54,10:10:13,NA,incomplete,false,true,NA,NA,5,9,NA,yellow,n_s_051.jpg,NA,NA,NA,NA,NA,unpleasant,pleasant,NA,NA,NA,NA,NA,right,1131.2000002861,true,NA,NA,NA,NA,NA,NA,NA,NA
Tss3KNy2,3bawbgqgzoco8yjjw9p686v3rigv79,3tmfv4nepcr7alm1nqraxs64dox8wd,Tss3KNy2,2020-0188,2021-10-31,08:12:54,10:10:13,NA,incomplete,false,true,NA,NA,5,10,NA,yellow,n_l_008.jpg,NA,NA,NA,NA,NA,pleasant,unpleasant,NA,NA,NA,NA,NA,left,1338.7999997139,true,NA,NA,NA,NA,NA,NA,NA,NA
Tss3KNy2,3bawbgqgzoco8yjjw9p686v3rigv79,3tmfv4nepcr7alm1nqraxs64dox8wd,Tss3KNy2,2020-0188,2021-10-31,08:12:54,10:10:13,NA,incomplete,false,true,NA,NA,5,11,NA,yellow,n_s_063.jpg,NA,NA,NA,NA,NA,unpleasant,pleasant,NA,NA,NA,NA,NA,right,1970.7999997139,true,NA,NA,NA,NA,NA,NA,NA,NA
Tss3KNy2,3bawbgqgzoco8yjjw9p686v3rigv79,3tmfv4nepcr7alm1nqraxs64dox8wd,Tss3KNy2,2020-0188,2021-10-31,08:12:54,10:10:13,NA,incomplete,false,true,NA,NA,5,12,NA,brown,m_l_023.jpg,NA,NA,NA,NA,NA,unpleasant,pleasant,NA,NA,NA,NA,NA,right,1964.90000009537,true,NA,NA,NA,NA,NA,NA,NA,NA
Tss3KNy2,3bawbgqgzoco8yjjw9p686v3rigv79,3tmfv4nepcr7alm1nqraxs64dox8wd,Tss3KNy2,2020-0188,2021-10-31,08:12:54,10:10:13,NA,incomplete,false,true,NA,NA,5,13,NA,brown,m_l_094.jpg,NA,NA,NA,NA,NA,pleasant,unpleasant,NA,NA,NA,NA,NA,left,1928.5,true,NA,NA,NA,NA,NA,NA,NA,NA
Tss3KNy2,3bawbgqgzoco8yjjw9p686v3rigv79,3tmfv4nepcr7alm1nqraxs64dox8wd,Tss3KNy2,2020-0188,2021-10-31,08:12:54,10:10:13,NA,incomplete,false,true,NA,NA,5,14,NA,brown,m_l_077.jpg,NA,NA,NA,NA,NA,pleasant,unpleasant,NA,NA,NA,NA,NA,left,1200.59999990463,true,NA,NA,NA,NA,NA,NA,NA,NA
Tss3KNy2,3bawbgqgzoco8yjjw9p686v3rigv79,3tmfv4nepcr7alm1nqraxs64dox8wd,Tss3KNy2,2020-0188,2021-10-31,08:12:54,10:10:13,NA,incomplete,false,true,NA,NA,5,15,NA,brown,n_l_057.jpg,NA,NA,NA,NA,NA,pleasant,unpleasant,NA,NA,NA,NA,NA,left,1253.30000019073,true,NA,NA,NA,NA,NA,NA,NA,NA
Tss3KNy2,3bawbgqgzoco8yjjw9p686v3rigv79,3tmfv4nepcr7alm1nqraxs64dox8wd,Tss3KNy2,2020-0188,2021-10-31,08:12:54,10:10:13,NA,incomplete,false,true,NA,NA,5,16,NA,brown,n_s_022.jpg,NA,NA,NA,NA,NA,pleasant,unpleasant,NA,NA,NA,NA,NA,left,1182.90000009537,true,NA,NA,NA,NA,NA,NA,NA,NA
