workerId,hitId,assignmentId,subject,studyid,exp_date,exp_start,exp_end,time_start,time_end,practice,encoding,memory,association,block,trial,event_order,event,stim,answer,object,left_context,right_context,context_type,label_left,label_right,left_image,left_event,right_image,right_event,condition,response,response_time,response_acc,association_response_time,association_response,association_acc,order_response,order_response_time,order_acc,distance_response,distance_response_time
GwjtZTOD,3z8ujejod2q8a85trwhk37uqvoc39x,3u5nzhp4lvfajnqte87libr7ocnhpe,GwjtZTOD,2020-0188,2021-10-31,16:41:00,18:26:26,NA,incomplete,true,true,NA,NA,0,0,NA,purple,n_s_077.jpg,NA,NA,NA,NA,NA,unpleasant,pleasant,NA,NA,NA,NA,NA,right,1377.69999980927,true,NA,NA,NA,NA,NA,NA,NA,NA
GwjtZTOD,3z8ujejod2q8a85trwhk37uqvoc39x,3u5nzhp4lvfajnqte87libr7ocnhpe,GwjtZTOD,2020-0188,2021-10-31,16:41:00,18:26:26,NA,incomplete,true,true,NA,NA,0,1,NA,purple,m_s_074.jpg,NA,NA,NA,NA,NA,unpleasant,pleasant,NA,NA,NA,NA,NA,right,2347.2999997139,true,NA,NA,NA,NA,NA,NA,NA,NA
GwjtZTOD,3z8ujejod2q8a85trwhk37uqvoc39x,3u5nzhp4lvfajnqte87libr7ocnhpe,GwjtZTOD,2020-0188,2021-10-31,16:41:00,18:26:26,NA,incomplete,true,true,NA,NA,0,2,NA,purple,n_s_041.jpg,NA,NA,NA,NA,NA,pleasant,unpleasant,NA,NA,NA,NA,NA,right,2170.40000009537,true,NA,NA,NA,NA,NA,NA,NA,NA
GwjtZTOD,3z8ujejod2q8a85trwhk37uqvoc39x,3u5nzhp4lvfajnqte87libr7ocnhpe,GwjtZTOD,2020-0188,2021-10-31,16:41:00,18:26:26,NA,incomplete,true,true,NA,NA,0,3,NA,purple,m_s_084.jpg,NA,NA,NA,NA,NA,pleasant,unpleasant,NA,NA,NA,NA,NA,left,2428.09999990463,true,NA,NA,NA,NA,NA,NA,NA,NA
GwjtZTOD,3z8ujejod2q8a85trwhk37uqvoc39x,3u5nzhp4lvfajnqte87libr7ocnhpe,GwjtZTOD,2020-0188,2021-10-31,16:41:00,18:26:26,NA,incomplete,true,true,NA,NA,0,4,NA,purple,m_s_115.jpg,NA,NA,NA,NA,NA,pleasant,unpleasant,NA,NA,NA,NA,NA,left,2334.80000019073,true,NA,NA,NA,NA,NA,NA,NA,NA
GwjtZTOD,3z8ujejod2q8a85trwhk37uqvoc39x,3u5nzhp4lvfajnqte87libr7ocnhpe,GwjtZTOD,2020-0188,2021-10-31,16:41:00,18:26:26,NA,incomplete,true,true,NA,NA,0,5,NA,purple,n_l_056.jpg,NA,NA,NA,NA,NA,unpleasant,pleasant,NA,NA,NA,NA,NA,none,0,false,NA,NA,NA,NA,NA,NA,NA,NA
GwjtZTOD,3z8ujejod2q8a85trwhk37uqvoc39x,3u5nzhp4lvfajnqte87libr7ocnhpe,GwjtZTOD,2020-0188,2021-10-31,16:41:00,18:26:26,NA,incomplete,true,true,NA,NA,0,6,NA,brown,n_l_006.jpg,NA,NA,NA,NA,NA,pleasant,unpleasant,NA,NA,NA,NA,NA,left,2235.59999990463,true,NA,NA,NA,NA,NA,NA,NA,NA
GwjtZTOD,3z8ujejod2q8a85trwhk37uqvoc39x,3u5nzhp4lvfajnqte87libr7ocnhpe,GwjtZTOD,2020-0188,2021-10-31,16:41:00,18:26:26,NA,incomplete,true,true,NA,NA,0,7,NA,brown,m_s_103.jpg,NA,NA,NA,NA,NA,unpleasant,pleasant,NA,NA,NA,NA,NA,right,1963.2999997139,true,NA,NA,NA,NA,NA,NA,NA,NA
GwjtZTOD,3z8ujejod2q8a85trwhk37uqvoc39x,3u5nzhp4lvfajnqte87libr7ocnhpe,GwjtZTOD,2020-0188,2021-10-31,16:41:00,18:26:26,NA,incomplete,true,true,NA,NA,0,8,NA,brown,m_l_114.jpg,NA,NA,NA,NA,NA,pleasant,unpleasant,NA,NA,NA,NA,NA,left,3112,true,NA,NA,NA,NA,NA,NA,NA,NA
GwjtZTOD,3z8ujejod2q8a85trwhk37uqvoc39x,3u5nzhp4lvfajnqte87libr7ocnhpe,GwjtZTOD,2020-0188,2021-10-31,16:41:00,18:26:26,NA,incomplete,true,true,NA,NA,0,9,NA,brown,n_s_030.jpg,NA,NA,NA,NA,NA,pleasant,unpleasant,NA,NA,NA,NA,NA,right,1601.90000009537,true,NA,NA,NA,NA,NA,NA,NA,NA
GwjtZTOD,3z8ujejod2q8a85trwhk37uqvoc39x,3u5nzhp4lvfajnqte87libr7ocnhpe,GwjtZTOD,2020-0188,2021-10-31,16:41:00,18:26:26,NA,incomplete,true,true,NA,NA,0,10,NA,brown,n_s_063.jpg,NA,NA,NA,NA,NA,unpleasant,pleasant,NA,NA,NA,NA,NA,right,1420.69999980927,true,NA,NA,NA,NA,NA,NA,NA,NA
GwjtZTOD,3z8ujejod2q8a85trwhk37uqvoc39x,3u5nzhp4lvfajnqte87libr7ocnhpe,GwjtZTOD,2020-0188,2021-10-31,16:41:00,18:26:26,NA,incomplete,true,true,NA,NA,0,11,NA,brown,n_l_035.jpg,NA,NA,NA,NA,NA,unpleasant,pleasant,NA,NA,NA,NA,NA,right,1782.90000009537,true,NA,NA,NA,NA,NA,NA,NA,NA
GwjtZTOD,3z8ujejod2q8a85trwhk37uqvoc39x,3u5nzhp4lvfajnqte87libr7ocnhpe,GwjtZTOD,2020-0188,2021-10-31,16:41:00,18:26:26,NA,incomplete,true,true,NA,NA,0,12,NA,gray,m_l_096.jpg,NA,NA,NA,NA,NA,pleasant,unpleasant,NA,NA,NA,NA,NA,right,1770.09999990463,true,NA,NA,NA,NA,NA,NA,NA,NA
GwjtZTOD,3z8ujejod2q8a85trwhk37uqvoc39x,3u5nzhp4lvfajnqte87libr7ocnhpe,GwjtZTOD,2020-0188,2021-10-31,16:41:00,18:26:26,NA,incomplete,true,true,NA,NA,0,13,NA,gray,m_s_081.jpg,NA,NA,NA,NA,NA,pleasant,unpleasant,NA,NA,NA,NA,NA,left,1993,true,NA,NA,NA,NA,NA,NA,NA,NA
GwjtZTOD,3z8ujejod2q8a85trwhk37uqvoc39x,3u5nzhp4lvfajnqte87libr7ocnhpe,GwjtZTOD,2020-0188,2021-10-31,16:41:00,18:26:26,NA,incomplete,true,true,NA,NA,0,14,NA,gray,m_l_077.jpg,NA,NA,NA,NA,NA,unpleasant,pleasant,NA,NA,NA,NA,NA,right,1781.40000009537,true,NA,NA,NA,NA,NA,NA,NA,NA
GwjtZTOD,3z8ujejod2q8a85trwhk37uqvoc39x,3u5nzhp4lvfajnqte87libr7ocnhpe,GwjtZTOD,2020-0188,2021-10-31,16:41:00,18:26:26,NA,incomplete,true,true,NA,NA,0,15,NA,gray,n_l_114.jpg,NA,NA,NA,NA,NA,pleasant,unpleasant,NA,NA,NA,NA,NA,left,2259.80000019073,true,NA,NA,NA,NA,NA,NA,NA,NA
GwjtZTOD,3z8ujejod2q8a85trwhk37uqvoc39x,3u5nzhp4lvfajnqte87libr7ocnhpe,GwjtZTOD,2020-0188,2021-10-31,16:41:00,18:26:26,NA,incomplete,true,true,NA,NA,0,16,NA,gray,m_s_042.jpg,NA,NA,NA,NA,NA,unpleasant,pleasant,NA,NA,NA,NA,NA,right,1816.90000009537,true,NA,NA,NA,NA,NA,NA,NA,NA
GwjtZTOD,3z8ujejod2q8a85trwhk37uqvoc39x,3u5nzhp4lvfajnqte87libr7ocnhpe,GwjtZTOD,2020-0188,2021-10-31,16:41:00,18:26:26,NA,incomplete,true,true,NA,NA,0,17,NA,gray,n_s_031.jpg,NA,NA,NA,NA,NA,pleasant,unpleasant,NA,NA,NA,NA,NA,right,2267.5,true,NA,NA,NA,NA,NA,NA,NA,NA
GwjtZTOD,3z8ujejod2q8a85trwhk37uqvoc39x,3u5nzhp4lvfajnqte87libr7ocnhpe,GwjtZTOD,2020-0188,2021-10-31,16:41:00,18:26:26,NA,incomplete,true,true,NA,NA,0,18,NA,blue,m_s_037.jpg,NA,NA,NA,NA,NA,unpleasant,pleasant,NA,NA,NA,NA,NA,right,1662.5,true,NA,NA,NA,NA,NA,NA,NA,NA
GwjtZTOD,3z8ujejod2q8a85trwhk37uqvoc39x,3u5nzhp4lvfajnqte87libr7ocnhpe,GwjtZTOD,2020-0188,2021-10-31,16:41:00,18:26:26,NA,incomplete,true,true,NA,NA,0,19,NA,blue,m_s_011.jpg,NA,NA,NA,NA,NA,unpleasant,pleasant,NA,NA,NA,NA,NA,right,2226.59999990463,true,NA,NA,NA,NA,NA,NA,NA,NA
GwjtZTOD,3z8ujejod2q8a85trwhk37uqvoc39x,3u5nzhp4lvfajnqte87libr7ocnhpe,GwjtZTOD,2020-0188,2021-10-31,16:41:00,18:26:26,NA,incomplete,true,true,NA,NA,0,20,NA,blue,n_s_046.jpg,NA,NA,NA,NA,NA,unpleasant,pleasant,NA,NA,NA,NA,NA,right,1603.80000019073,true,NA,NA,NA,NA,NA,NA,NA,NA
GwjtZTOD,3z8ujejod2q8a85trwhk37uqvoc39x,3u5nzhp4lvfajnqte87libr7ocnhpe,GwjtZTOD,2020-0188,2021-10-31,16:41:00,18:26:26,NA,incomplete,true,true,NA,NA,0,21,NA,blue,m_s_047.jpg,NA,NA,NA,NA,NA,unpleasant,pleasant,NA,NA,NA,NA,NA,left,2487.09999990463,true,NA,NA,NA,NA,NA,NA,NA,NA
GwjtZTOD,3z8ujejod2q8a85trwhk37uqvoc39x,3u5nzhp4lvfajnqte87libr7ocnhpe,GwjtZTOD,2020-0188,2021-10-31,16:41:00,18:26:26,NA,incomplete,true,true,NA,NA,0,22,NA,blue,m_s_040.jpg,NA,NA,NA,NA,NA,pleasant,unpleasant,NA,NA,NA,NA,NA,right,2347.19999980927,true,NA,NA,NA,NA,NA,NA,NA,NA
GwjtZTOD,3z8ujejod2q8a85trwhk37uqvoc39x,3u5nzhp4lvfajnqte87libr7ocnhpe,GwjtZTOD,2020-0188,2021-10-31,16:41:00,18:26:26,NA,incomplete,true,true,NA,NA,0,23,NA,blue,m_l_117.jpg,NA,NA,NA,NA,NA,pleasant,unpleasant,NA,NA,NA,NA,NA,right,1339.09999990463,true,NA,NA,NA,NA,NA,NA,NA,NA
GwjtZTOD,3z8ujejod2q8a85trwhk37uqvoc39x,3u5nzhp4lvfajnqte87libr7ocnhpe,GwjtZTOD,2020-0188,2021-10-31,16:41:00,18:26:26,NA,incomplete,true,true,NA,NA,0,24,NA,black,n_s_004.jpg,NA,NA,NA,NA,NA,unpleasant,pleasant,NA,NA,NA,NA,NA,right,1874,true,NA,NA,NA,NA,NA,NA,NA,NA
GwjtZTOD,3z8ujejod2q8a85trwhk37uqvoc39x,3u5nzhp4lvfajnqte87libr7ocnhpe,GwjtZTOD,2020-0188,2021-10-31,16:41:00,18:26:26,NA,incomplete,true,true,NA,NA,0,25,NA,black,m_l_075.jpg,NA,NA,NA,NA,NA,pleasant,unpleasant,NA,NA,NA,NA,NA,left,1466.7999997139,true,NA,NA,NA,NA,NA,NA,NA,NA
GwjtZTOD,3z8ujejod2q8a85trwhk37uqvoc39x,3u5nzhp4lvfajnqte87libr7ocnhpe,GwjtZTOD,2020-0188,2021-10-31,16:41:00,18:26:26,NA,incomplete,true,true,NA,NA,0,26,NA,black,n_s_107.jpg,NA,NA,NA,NA,NA,unpleasant,pleasant,NA,NA,NA,NA,NA,left,2573.80000019073,true,NA,NA,NA,NA,NA,NA,NA,NA
GwjtZTOD,3z8ujejod2q8a85trwhk37uqvoc39x,3u5nzhp4lvfajnqte87libr7ocnhpe,GwjtZTOD,2020-0188,2021-10-31,16:41:00,18:26:26,NA,incomplete,true,true,NA,NA,0,27,NA,black,m_l_067.jpg,NA,NA,NA,NA,NA,unpleasant,pleasant,NA,NA,NA,NA,NA,left,1564.80000019073,true,NA,NA,NA,NA,NA,NA,NA,NA
GwjtZTOD,3z8ujejod2q8a85trwhk37uqvoc39x,3u5nzhp4lvfajnqte87libr7ocnhpe,GwjtZTOD,2020-0188,2021-10-31,16:41:00,18:26:26,NA,incomplete,true,true,NA,NA,0,28,NA,black,n_s_019.jpg,NA,NA,NA,NA,NA,unpleasant,pleasant,NA,NA,NA,NA,NA,right,2153.5,true,NA,NA,NA,NA,NA,NA,NA,NA
GwjtZTOD,3z8ujejod2q8a85trwhk37uqvoc39x,3u5nzhp4lvfajnqte87libr7ocnhpe,GwjtZTOD,2020-0188,2021-10-31,16:41:00,18:26:26,NA,incomplete,true,true,NA,NA,0,29,NA,black,n_l_057.jpg,NA,NA,NA,NA,NA,unpleasant,pleasant,NA,NA,NA,NA,NA,left,1442.5,true,NA,NA,NA,NA,NA,NA,NA,NA
GwjtZTOD,3z8ujejod2q8a85trwhk37uqvoc39x,3u5nzhp4lvfajnqte87libr7ocnhpe,GwjtZTOD,2020-0188,2021-10-31,16:41:00,18:26:26,NA,incomplete,true,true,NA,NA,0,30,NA,yellow,m_s_028.jpg,NA,NA,NA,NA,NA,unpleasant,pleasant,NA,NA,NA,NA,NA,left,1550.90000009537,true,NA,NA,NA,NA,NA,NA,NA,NA
GwjtZTOD,3z8ujejod2q8a85trwhk37uqvoc39x,3u5nzhp4lvfajnqte87libr7ocnhpe,GwjtZTOD,2020-0188,2021-10-31,16:41:00,18:26:26,NA,incomplete,true,true,NA,NA,0,31,NA,yellow,m_s_088.jpg,NA,NA,NA,NA,NA,pleasant,unpleasant,NA,NA,NA,NA,NA,left,2693.09999990463,true,NA,NA,NA,NA,NA,NA,NA,NA
GwjtZTOD,3z8ujejod2q8a85trwhk37uqvoc39x,3u5nzhp4lvfajnqte87libr7ocnhpe,GwjtZTOD,2020-0188,2021-10-31,16:41:00,18:26:26,NA,incomplete,true,true,NA,NA,0,32,NA,yellow,n_l_074.jpg,NA,NA,NA,NA,NA,unpleasant,pleasant,NA,NA,NA,NA,NA,left,2083.89999961853,true,NA,NA,NA,NA,NA,NA,NA,NA
GwjtZTOD,3z8ujejod2q8a85trwhk37uqvoc39x,3u5nzhp4lvfajnqte87libr7ocnhpe,GwjtZTOD,2020-0188,2021-10-31,16:41:00,18:26:26,NA,incomplete,true,true,NA,NA,0,33,NA,yellow,n_l_002.jpg,NA,NA,NA,NA,NA,unpleasant,pleasant,NA,NA,NA,NA,NA,left,1901.5,true,NA,NA,NA,NA,NA,NA,NA,NA
GwjtZTOD,3z8ujejod2q8a85trwhk37uqvoc39x,3u5nzhp4lvfajnqte87libr7ocnhpe,GwjtZTOD,2020-0188,2021-10-31,16:41:00,18:26:26,NA,incomplete,true,true,NA,NA,0,34,NA,yellow,m_s_031.jpg,NA,NA,NA,NA,NA,pleasant,unpleasant,NA,NA,NA,NA,NA,right,2028.7000002861,true,NA,NA,NA,NA,NA,NA,NA,NA
GwjtZTOD,3z8ujejod2q8a85trwhk37uqvoc39x,3u5nzhp4lvfajnqte87libr7ocnhpe,GwjtZTOD,2020-0188,2021-10-31,16:41:00,18:26:26,NA,incomplete,true,true,NA,NA,0,35,NA,yellow,n_l_110.jpg,NA,NA,NA,NA,NA,pleasant,unpleasant,NA,NA,NA,NA,NA,right,2159,true,NA,NA,NA,NA,NA,NA,NA,NA
GwjtZTOD,3z8ujejod2q8a85trwhk37uqvoc39x,3u5nzhp4lvfajnqte87libr7ocnhpe,GwjtZTOD,2020-0188,2021-10-31,16:41:00,18:26:26,NA,incomplete,true,NA,NA,true,0,0,NA,NA,NA,right,m_l_114.jpg,purple,brown,NA,NA,NA,NA,NA,NA,NA,NA,NA,NaN,NA,8006.099999904633,right,1,NA,NA,NA,NA,NA
GwjtZTOD,3z8ujejod2q8a85trwhk37uqvoc39x,3u5nzhp4lvfajnqte87libr7ocnhpe,GwjtZTOD,2020-0188,2021-10-31,16:41:00,18:26:26,NA,incomplete,true,NA,NA,true,0,1,NA,NA,NA,left,n_s_107.jpg,black,yellow,NA,NA,NA,NA,NA,NA,NA,NA,NA,NaN,NA,3127.5,left,1,NA,NA,NA,NA,NA
GwjtZTOD,3z8ujejod2q8a85trwhk37uqvoc39x,3u5nzhp4lvfajnqte87libr7ocnhpe,GwjtZTOD,2020-0188,2021-10-31,16:41:00,18:26:26,NA,incomplete,true,NA,NA,true,0,2,NA,NA,NA,left,n_l_035.jpg,brown,purple,NA,NA,NA,NA,NA,NA,NA,NA,NA,NaN,NA,3296.4000000953674,left,1,NA,NA,NA,NA,NA
GwjtZTOD,3z8ujejod2q8a85trwhk37uqvoc39x,3u5nzhp4lvfajnqte87libr7ocnhpe,GwjtZTOD,2020-0188,2021-10-31,16:41:00,18:26:26,NA,incomplete,true,NA,NA,true,0,3,NA,NA,NA,left,m_s_011.jpg,blue,gray,NA,NA,NA,NA,NA,NA,NA,NA,NA,NaN,NA,6594.5,right,0,NA,NA,NA,NA,NA
GwjtZTOD,3z8ujejod2q8a85trwhk37uqvoc39x,3u5nzhp4lvfajnqte87libr7ocnhpe,GwjtZTOD,2020-0188,2021-10-31,16:41:00,18:26:26,NA,incomplete,true,NA,NA,true,0,4,NA,NA,NA,right,n_l_074.jpg,black,yellow,NA,NA,NA,NA,NA,NA,NA,NA,NA,NaN,NA,6252.699999809265,left,0,NA,NA,NA,NA,NA
GwjtZTOD,3z8ujejod2q8a85trwhk37uqvoc39x,3u5nzhp4lvfajnqte87libr7ocnhpe,GwjtZTOD,2020-0188,2021-10-31,16:41:00,18:26:26,NA,incomplete,true,NA,NA,true,0,5,NA,NA,NA,right,n_l_057.jpg,yellow,black,NA,NA,NA,NA,NA,NA,NA,NA,NA,NaN,NA,2682.9000000953674,right,1,NA,NA,NA,NA,NA
GwjtZTOD,3z8ujejod2q8a85trwhk37uqvoc39x,3u5nzhp4lvfajnqte87libr7ocnhpe,GwjtZTOD,2020-0188,2021-10-31,16:41:00,18:26:26,NA,incomplete,true,NA,NA,true,0,6,NA,NA,NA,right,m_l_075.jpg,blue,black,NA,NA,NA,NA,NA,NA,NA,NA,NA,NaN,NA,3492.2999997138977,right,1,NA,NA,NA,NA,NA
GwjtZTOD,3z8ujejod2q8a85trwhk37uqvoc39x,3u5nzhp4lvfajnqte87libr7ocnhpe,GwjtZTOD,2020-0188,2021-10-31,16:41:00,18:26:26,NA,incomplete,true,NA,NA,true,0,7,NA,NA,NA,left,m_s_088.jpg,yellow,black,NA,NA,NA,NA,NA,NA,NA,NA,NA,NaN,NA,3105.5999999046326,left,1,NA,NA,NA,NA,NA
GwjtZTOD,3z8ujejod2q8a85trwhk37uqvoc39x,3u5nzhp4lvfajnqte87libr7ocnhpe,GwjtZTOD,2020-0188,2021-10-31,16:41:00,18:26:26,NA,incomplete,true,NA,NA,true,0,8,NA,NA,NA,left,n_l_110.jpg,yellow,black,NA,NA,NA,NA,NA,NA,NA,NA,NA,NaN,NA,3146,right,0,NA,NA,NA,NA,NA
GwjtZTOD,3z8ujejod2q8a85trwhk37uqvoc39x,3u5nzhp4lvfajnqte87libr7ocnhpe,GwjtZTOD,2020-0188,2021-10-31,16:41:00,18:26:26,NA,incomplete,true,NA,NA,true,0,9,NA,NA,NA,left,n_s_063.jpg,brown,gray,NA,NA,NA,NA,NA,NA,NA,NA,NA,NaN,NA,10113.699999809265,right,0,NA,NA,NA,NA,NA
GwjtZTOD,3z8ujejod2q8a85trwhk37uqvoc39x,3u5nzhp4lvfajnqte87libr7ocnhpe,GwjtZTOD,2020-0188,2021-10-31,16:41:00,18:26:26,NA,incomplete,true,NA,NA,true,0,10,NA,NA,NA,right,n_l_056.jpg,brown,purple,NA,NA,NA,NA,NA,NA,NA,NA,NA,NaN,NA,5723,left,0,NA,NA,NA,NA,NA
GwjtZTOD,3z8ujejod2q8a85trwhk37uqvoc39x,3u5nzhp4lvfajnqte87libr7ocnhpe,GwjtZTOD,2020-0188,2021-10-31,16:41:00,18:26:26,NA,incomplete,true,NA,NA,true,0,11,NA,NA,NA,right,n_s_031.jpg,brown,gray,NA,NA,NA,NA,NA,NA,NA,NA,NA,NaN,NA,3264.9000000953674,right,1,NA,NA,NA,NA,NA
GwjtZTOD,3z8ujejod2q8a85trwhk37uqvoc39x,3u5nzhp4lvfajnqte87libr7ocnhpe,GwjtZTOD,2020-0188,2021-10-31,16:41:00,18:26:26,NA,incomplete,true,NA,NA,true,0,12,NA,NA,NA,left,m_s_040.jpg,blue,gray,NA,NA,NA,NA,NA,NA,NA,NA,NA,NaN,NA,3391.300000190735,left,1,NA,NA,NA,NA,NA
GwjtZTOD,3z8ujejod2q8a85trwhk37uqvoc39x,3u5nzhp4lvfajnqte87libr7ocnhpe,GwjtZTOD,2020-0188,2021-10-31,16:41:00,18:26:26,NA,incomplete,true,NA,NA,true,0,13,NA,NA,NA,left,n_s_019.jpg,black,blue,NA,NA,NA,NA,NA,NA,NA,NA,NA,NaN,NA,71276.90000009537,right,0,NA,NA,NA,NA,NA
GwjtZTOD,3z8ujejod2q8a85trwhk37uqvoc39x,3u5nzhp4lvfajnqte87libr7ocnhpe,GwjtZTOD,2020-0188,2021-10-31,16:41:00,18:26:26,NA,incomplete,true,NA,NA,true,0,14,NA,NA,NA,right,m_l_077.jpg,blue,gray,NA,NA,NA,NA,NA,NA,NA,NA,NA,NaN,NA,3135.4000000953674,right,1,NA,NA,NA,NA,NA
GwjtZTOD,3z8ujejod2q8a85trwhk37uqvoc39x,3u5nzhp4lvfajnqte87libr7ocnhpe,GwjtZTOD,2020-0188,2021-10-31,16:41:00,18:26:26,NA,incomplete,true,NA,NA,true,0,15,NA,NA,NA,right,m_s_042.jpg,brown,gray,NA,NA,NA,NA,NA,NA,NA,NA,NA,NaN,NA,3551.4000000953674,left,0,NA,NA,NA,NA,NA
GwjtZTOD,3z8ujejod2q8a85trwhk37uqvoc39x,3u5nzhp4lvfajnqte87libr7ocnhpe,GwjtZTOD,2020-0188,2021-10-31,16:41:00,18:26:26,NA,incomplete,true,NA,NA,true,0,16,NA,NA,NA,left,n_s_046.jpg,blue,gray,NA,NA,NA,NA,NA,NA,NA,NA,NA,NaN,NA,8495.299999713898,right,0,NA,NA,NA,NA,NA
GwjtZTOD,3z8ujejod2q8a85trwhk37uqvoc39x,3u5nzhp4lvfajnqte87libr7ocnhpe,GwjtZTOD,2020-0188,2021-10-31,16:41:00,18:26:26,NA,incomplete,true,NA,NA,true,0,17,NA,NA,NA,right,m_s_115.jpg,brown,purple,NA,NA,NA,NA,NA,NA,NA,NA,NA,NaN,NA,7382.900000095367,right,1,NA,NA,NA,NA,NA
GwjtZTOD,3z8ujejod2q8a85trwhk37uqvoc39x,3u5nzhp4lvfajnqte87libr7ocnhpe,GwjtZTOD,2020-0188,2021-10-31,16:41:00,18:26:26,NA,incomplete,true,NA,NA,true,0,18,NA,NA,NA,left,m_s_103.jpg,brown,gray,NA,NA,NA,NA,NA,NA,NA,NA,NA,NaN,NA,10121.900000095367,right,0,NA,NA,NA,NA,NA
GwjtZTOD,3z8ujejod2q8a85trwhk37uqvoc39x,3u5nzhp4lvfajnqte87libr7ocnhpe,GwjtZTOD,2020-0188,2021-10-31,16:41:00,18:26:26,NA,incomplete,true,NA,NA,true,0,19,NA,NA,NA,right,m_s_074.jpg,brown,purple,NA,NA,NA,NA,NA,NA,NA,NA,NA,NaN,NA,4446.900000095367,right,1,NA,NA,NA,NA,NA
GwjtZTOD,3z8ujejod2q8a85trwhk37uqvoc39x,3u5nzhp4lvfajnqte87libr7ocnhpe,GwjtZTOD,2020-0188,2021-10-31,16:41:00,18:26:26,NA,incomplete,true,NA,NA,true,0,20,NA,NA,NA,left,m_l_117.jpg,blue,black,NA,NA,NA,NA,NA,NA,NA,NA,NA,NaN,NA,6508.199999809265,right,0,NA,NA,NA,NA,NA
GwjtZTOD,3z8ujejod2q8a85trwhk37uqvoc39x,3u5nzhp4lvfajnqte87libr7ocnhpe,GwjtZTOD,2020-0188,2021-10-31,16:41:00,18:26:26,NA,incomplete,true,NA,NA,true,0,21,NA,NA,NA,left,m_s_081.jpg,gray,brown,NA,NA,NA,NA,NA,NA,NA,NA,NA,NaN,NA,3425.0999999046326,left,1,NA,NA,NA,NA,NA
GwjtZTOD,3z8ujejod2q8a85trwhk37uqvoc39x,3u5nzhp4lvfajnqte87libr7ocnhpe,GwjtZTOD,2020-0188,2021-10-31,16:41:00,18:26:26,NA,incomplete,true,NA,true,NA,0,0,NA,NA,NA,right,NA,NA,NA,present,NA,NA,n_s_107.jpg,black,m_s_040.jpg,blue,between,NA,NaN,NA,NA,NA,NA,left,3393.4000000953674,0,2,6643.099999904633
GwjtZTOD,3z8ujejod2q8a85trwhk37uqvoc39x,3u5nzhp4lvfajnqte87libr7ocnhpe,GwjtZTOD,2020-0188,2021-10-31,16:41:00,18:26:26,NA,incomplete,true,NA,true,NA,0,1,NA,NA,NA,right,NA,NA,NA,present,NA,NA,n_l_035.jpg,brown,m_s_103.jpg,brown,within,NA,NaN,NA,NA,NA,NA,left,4557.099999904633,0,0,2364.6000003814697
GwjtZTOD,3z8ujejod2q8a85trwhk37uqvoc39x,3u5nzhp4lvfajnqte87libr7ocnhpe,GwjtZTOD,2020-0188,2021-10-31,16:41:00,18:26:26,NA,incomplete,true,NA,true,NA,0,2,NA,NA,NA,left,NA,NA,NA,present,NA,NA,m_s_042.jpg,gray,n_s_046.jpg,blue,between,NA,NaN,NA,NA,NA,NA,right,5546.099999904633,0,2,2904.9000000953674
GwjtZTOD,3z8ujejod2q8a85trwhk37uqvoc39x,3u5nzhp4lvfajnqte87libr7ocnhpe,GwjtZTOD,2020-0188,2021-10-31,16:41:00,18:26:26,NA,incomplete,true,NA,true,NA,0,3,NA,NA,NA,right,NA,NA,NA,present,NA,NA,m_l_117.jpg,blue,m_s_011.jpg,blue,within,NA,NaN,NA,NA,NA,NA,left,5426.699999809265,0,0,4385.5
GwjtZTOD,3z8ujejod2q8a85trwhk37uqvoc39x,3u5nzhp4lvfajnqte87libr7ocnhpe,GwjtZTOD,2020-0188,2021-10-31,16:41:00,18:26:26,NA,incomplete,true,NA,true,NA,0,4,NA,NA,NA,left,NA,NA,NA,present,NA,NA,m_l_075.jpg,black,n_l_057.jpg,black,within,NA,NaN,NA,NA,NA,NA,left,5247.300000190735,1,0,3878.800000190735
GwjtZTOD,3z8ujejod2q8a85trwhk37uqvoc39x,3u5nzhp4lvfajnqte87libr7ocnhpe,GwjtZTOD,2020-0188,2021-10-31,16:41:00,18:26:26,NA,incomplete,true,NA,true,NA,0,5,NA,NA,NA,left,NA,NA,NA,present,NA,NA,m_s_088.jpg,yellow,n_l_110.jpg,yellow,within,NA,NaN,NA,NA,NA,NA,left,9516.400000095367,1,1,3362.7000002861023
GwjtZTOD,3z8ujejod2q8a85trwhk37uqvoc39x,3u5nzhp4lvfajnqte87libr7ocnhpe,GwjtZTOD,2020-0188,2021-10-31,16:41:00,18:26:26,NA,incomplete,true,NA,true,NA,0,6,NA,NA,NA,right,NA,NA,NA,present,NA,NA,n_s_031.jpg,gray,m_s_081.jpg,gray,within,NA,NaN,NA,NA,NA,NA,right,5240.200000286102,1,1,3466.4000000953674
GwjtZTOD,3z8ujejod2q8a85trwhk37uqvoc39x,3u5nzhp4lvfajnqte87libr7ocnhpe,GwjtZTOD,2020-0188,2021-10-31,16:41:00,18:26:26,NA,incomplete,true,NA,true,NA,0,7,NA,NA,NA,right,NA,NA,NA,present,NA,NA,n_l_074.jpg,yellow,n_s_019.jpg,black,between,NA,NaN,NA,NA,NA,NA,right,4635.39999961853,1,2,2628.2000002861023
GwjtZTOD,3z8ujejod2q8a85trwhk37uqvoc39x,3u5nzhp4lvfajnqte87libr7ocnhpe,GwjtZTOD,2020-0188,2021-10-31,16:41:00,18:26:26,NA,incomplete,true,NA,true,NA,0,8,NA,NA,NA,right,NA,NA,NA,present,NA,NA,m_l_114.jpg,brown,m_s_115.jpg,purple,between,NA,NaN,NA,NA,NA,NA,right,6176.599999904633,1,2,3635.2000002861023
GwjtZTOD,3z8ujejod2q8a85trwhk37uqvoc39x,3u5nzhp4lvfajnqte87libr7ocnhpe,GwjtZTOD,2020-0188,2021-10-31,16:41:00,18:26:26,NA,incomplete,true,NA,true,NA,0,9,NA,NA,NA,left,NA,NA,NA,present,NA,NA,m_s_074.jpg,purple,n_l_056.jpg,purple,within,NA,NaN,NA,NA,NA,NA,right,7591.10000038147,0,0,2912.8999996185303
GwjtZTOD,3z8ujejod2q8a85trwhk37uqvoc39x,3u5nzhp4lvfajnqte87libr7ocnhpe,GwjtZTOD,2020-0188,2021-10-31,16:41:00,18:26:26,NA,incomplete,true,NA,true,NA,0,10,NA,NA,NA,left,NA,NA,NA,present,NA,NA,n_s_063.jpg,brown,m_l_077.jpg,gray,between,NA,NaN,NA,NA,NA,NA,left,6521.900000095367,1,2,3674.2999997138977
GwjtZTOD,3z8ujejod2q8a85trwhk37uqvoc39x,3u5nzhp4lvfajnqte87libr7ocnhpe,GwjtZTOD,2020-0188,2021-10-31,16:41:00,18:26:26,NA,incomplete,false,true,NA,NA,1,0,NA,red,n_l_009.jpg,NA,NA,NA,NA,NA,pleasant,unpleasant,NA,NA,NA,NA,NA,none,0,false,NA,NA,NA,NA,NA,NA,NA,NA
GwjtZTOD,3z8ujejod2q8a85trwhk37uqvoc39x,3u5nzhp4lvfajnqte87libr7ocnhpe,GwjtZTOD,2020-0188,2021-10-31,16:41:00,18:26:26,NA,incomplete,false,true,NA,NA,1,1,NA,red,m_l_028.jpg,NA,NA,NA,NA,NA,unpleasant,pleasant,NA,NA,NA,NA,NA,right,2186,true,NA,NA,NA,NA,NA,NA,NA,NA
GwjtZTOD,3z8ujejod2q8a85trwhk37uqvoc39x,3u5nzhp4lvfajnqte87libr7ocnhpe,GwjtZTOD,2020-0188,2021-10-31,16:41:00,18:26:26,NA,incomplete,false,true,NA,NA,1,2,NA,red,n_l_024.jpg,NA,NA,NA,NA,NA,unpleasant,pleasant,NA,NA,NA,NA,NA,none,0,false,NA,NA,NA,NA,NA,NA,NA,NA
GwjtZTOD,3z8ujejod2q8a85trwhk37uqvoc39x,3u5nzhp4lvfajnqte87libr7ocnhpe,GwjtZTOD,2020-0188,2021-10-31,16:41:00,18:26:26,NA,incomplete,false,true,NA,NA,1,3,NA,red,n_s_112.jpg,NA,NA,NA,NA,NA,unpleasant,pleasant,NA,NA,NA,NA,NA,left,191.300000190735,true,NA,NA,NA,NA,NA,NA,NA,NA
GwjtZTOD,3z8ujejod2q8a85trwhk37uqvoc39x,3u5nzhp4lvfajnqte87libr7ocnhpe,GwjtZTOD,2020-0188,2021-10-31,16:41:00,18:26:26,NA,incomplete,false,true,NA,NA,1,4,NA,red,m_l_071.jpg,NA,NA,NA,NA,NA,pleasant,unpleasant,NA,NA,NA,NA,NA,right,1934.7999997139,true,NA,NA,NA,NA,NA,NA,NA,NA
GwjtZTOD,3z8ujejod2q8a85trwhk37uqvoc39x,3u5nzhp4lvfajnqte87libr7ocnhpe,GwjtZTOD,2020-0188,2021-10-31,16:41:00,18:26:26,NA,incomplete,false,true,NA,NA,1,5,NA,red,n_l_097.jpg,NA,NA,NA,NA,NA,pleasant,unpleasant,NA,NA,NA,NA,NA,right,2068.59999990463,true,NA,NA,NA,NA,NA,NA,NA,NA
GwjtZTOD,3z8ujejod2q8a85trwhk37uqvoc39x,3u5nzhp4lvfajnqte87libr7ocnhpe,GwjtZTOD,2020-0188,2021-10-31,16:41:00,18:26:26,NA,incomplete,false,true,NA,NA,1,6,NA,purple,m_l_021.jpg,NA,NA,NA,NA,NA,unpleasant,pleasant,NA,NA,NA,NA,NA,right,2009.2999997139,true,NA,NA,NA,NA,NA,NA,NA,NA
GwjtZTOD,3z8ujejod2q8a85trwhk37uqvoc39x,3u5nzhp4lvfajnqte87libr7ocnhpe,GwjtZTOD,2020-0188,2021-10-31,16:41:00,18:26:26,NA,incomplete,false,true,NA,NA,1,7,NA,purple,m_s_002.jpg,NA,NA,NA,NA,NA,unpleasant,pleasant,NA,NA,NA,NA,NA,right,1725.5,true,NA,NA,NA,NA,NA,NA,NA,NA
GwjtZTOD,3z8ujejod2q8a85trwhk37uqvoc39x,3u5nzhp4lvfajnqte87libr7ocnhpe,GwjtZTOD,2020-0188,2021-10-31,16:41:00,18:26:26,NA,incomplete,false,true,NA,NA,1,8,NA,purple,n_s_115.jpg,NA,NA,NA,NA,NA,unpleasant,pleasant,NA,NA,NA,NA,NA,left,2796.90000009537,true,NA,NA,NA,NA,NA,NA,NA,NA
GwjtZTOD,3z8ujejod2q8a85trwhk37uqvoc39x,3u5nzhp4lvfajnqte87libr7ocnhpe,GwjtZTOD,2020-0188,2021-10-31,16:41:00,18:26:26,NA,incomplete,false,true,NA,NA,1,9,NA,purple,n_s_060.jpg,NA,NA,NA,NA,NA,unpleasant,pleasant,NA,NA,NA,NA,NA,right,1881.69999980927,true,NA,NA,NA,NA,NA,NA,NA,NA
GwjtZTOD,3z8ujejod2q8a85trwhk37uqvoc39x,3u5nzhp4lvfajnqte87libr7ocnhpe,GwjtZTOD,2020-0188,2021-10-31,16:41:00,18:26:26,NA,incomplete,false,true,NA,NA,1,10,NA,purple,m_s_062.jpg,NA,NA,NA,NA,NA,pleasant,unpleasant,NA,NA,NA,NA,NA,right,2503.69999980927,true,NA,NA,NA,NA,NA,NA,NA,NA
GwjtZTOD,3z8ujejod2q8a85trwhk37uqvoc39x,3u5nzhp4lvfajnqte87libr7ocnhpe,GwjtZTOD,2020-0188,2021-10-31,16:41:00,18:26:26,NA,incomplete,false,true,NA,NA,1,11,NA,purple,n_l_047.jpg,NA,NA,NA,NA,NA,pleasant,unpleasant,NA,NA,NA,NA,NA,right,1966.80000019073,true,NA,NA,NA,NA,NA,NA,NA,NA
GwjtZTOD,3z8ujejod2q8a85trwhk37uqvoc39x,3u5nzhp4lvfajnqte87libr7ocnhpe,GwjtZTOD,2020-0188,2021-10-31,16:41:00,18:26:26,NA,incomplete,false,true,NA,NA,1,12,NA,gray,n_s_096.jpg,NA,NA,NA,NA,NA,pleasant,unpleasant,NA,NA,NA,NA,NA,left,2479.59999990463,true,NA,NA,NA,NA,NA,NA,NA,NA
GwjtZTOD,3z8ujejod2q8a85trwhk37uqvoc39x,3u5nzhp4lvfajnqte87libr7ocnhpe,GwjtZTOD,2020-0188,2021-10-31,16:41:00,18:26:26,NA,incomplete,false,true,NA,NA,1,13,NA,gray,n_s_105.jpg,NA,NA,NA,NA,NA,pleasant,unpleasant,NA,NA,NA,NA,NA,left,2802.80000019073,true,NA,NA,NA,NA,NA,NA,NA,NA
GwjtZTOD,3z8ujejod2q8a85trwhk37uqvoc39x,3u5nzhp4lvfajnqte87libr7ocnhpe,GwjtZTOD,2020-0188,2021-10-31,16:41:00,18:26:26,NA,incomplete,false,true,NA,NA,1,14,NA,gray,m_l_048.jpg,NA,NA,NA,NA,NA,pleasant,unpleasant,NA,NA,NA,NA,NA,left,1727.90000009537,true,NA,NA,NA,NA,NA,NA,NA,NA
GwjtZTOD,3z8ujejod2q8a85trwhk37uqvoc39x,3u5nzhp4lvfajnqte87libr7ocnhpe,GwjtZTOD,2020-0188,2021-10-31,16:41:00,18:26:26,NA,incomplete,false,true,NA,NA,1,15,NA,gray,n_s_017.jpg,NA,NA,NA,NA,NA,unpleasant,pleasant,NA,NA,NA,NA,NA,right,2434.2000002861,true,NA,NA,NA,NA,NA,NA,NA,NA
GwjtZTOD,3z8ujejod2q8a85trwhk37uqvoc39x,3u5nzhp4lvfajnqte87libr7ocnhpe,GwjtZTOD,2020-0188,2021-10-31,16:41:00,18:26:26,NA,incomplete,false,true,NA,NA,1,16,NA,gray,m_l_105.jpg,NA,NA,NA,NA,NA,pleasant,unpleasant,NA,NA,NA,NA,NA,left,2572.5,true,NA,NA,NA,NA,NA,NA,NA,NA
GwjtZTOD,3z8ujejod2q8a85trwhk37uqvoc39x,3u5nzhp4lvfajnqte87libr7ocnhpe,GwjtZTOD,2020-0188,2021-10-31,16:41:00,18:26:26,NA,incomplete,false,true,NA,NA,1,17,NA,gray,n_l_115.jpg,NA,NA,NA,NA,NA,pleasant,unpleasant,NA,NA,NA,NA,NA,left,2143.80000019073,true,NA,NA,NA,NA,NA,NA,NA,NA
GwjtZTOD,3z8ujejod2q8a85trwhk37uqvoc39x,3u5nzhp4lvfajnqte87libr7ocnhpe,GwjtZTOD,2020-0188,2021-10-31,16:41:00,18:26:26,NA,incomplete,false,true,NA,NA,1,18,NA,black,m_l_069.jpg,NA,NA,NA,NA,NA,pleasant,unpleasant,NA,NA,NA,NA,NA,right,2155.5,true,NA,NA,NA,NA,NA,NA,NA,NA
GwjtZTOD,3z8ujejod2q8a85trwhk37uqvoc39x,3u5nzhp4lvfajnqte87libr7ocnhpe,GwjtZTOD,2020-0188,2021-10-31,16:41:00,18:26:26,NA,incomplete,false,true,NA,NA,1,19,NA,black,m_l_031.jpg,NA,NA,NA,NA,NA,pleasant,unpleasant,NA,NA,NA,NA,NA,left,2052.80000019073,true,NA,NA,NA,NA,NA,NA,NA,NA
GwjtZTOD,3z8ujejod2q8a85trwhk37uqvoc39x,3u5nzhp4lvfajnqte87libr7ocnhpe,GwjtZTOD,2020-0188,2021-10-31,16:41:00,18:26:26,NA,incomplete,false,true,NA,NA,1,20,NA,black,m_l_065.jpg,NA,NA,NA,NA,NA,pleasant,unpleasant,NA,NA,NA,NA,NA,left,1464.59999990463,true,NA,NA,NA,NA,NA,NA,NA,NA
GwjtZTOD,3z8ujejod2q8a85trwhk37uqvoc39x,3u5nzhp4lvfajnqte87libr7ocnhpe,GwjtZTOD,2020-0188,2021-10-31,16:41:00,18:26:26,NA,incomplete,false,true,NA,NA,1,21,NA,black,m_l_102.jpg,NA,NA,NA,NA,NA,pleasant,unpleasant,NA,NA,NA,NA,NA,left,1606.40000009537,true,NA,NA,NA,NA,NA,NA,NA,NA
GwjtZTOD,3z8ujejod2q8a85trwhk37uqvoc39x,3u5nzhp4lvfajnqte87libr7ocnhpe,GwjtZTOD,2020-0188,2021-10-31,16:41:00,18:26:26,NA,incomplete,false,true,NA,NA,1,22,NA,black,n_l_011.jpg,NA,NA,NA,NA,NA,pleasant,unpleasant,NA,NA,NA,NA,NA,left,2170.19999980927,true,NA,NA,NA,NA,NA,NA,NA,NA
GwjtZTOD,3z8ujejod2q8a85trwhk37uqvoc39x,3u5nzhp4lvfajnqte87libr7ocnhpe,GwjtZTOD,2020-0188,2021-10-31,16:41:00,18:26:26,NA,incomplete,false,true,NA,NA,1,23,NA,black,n_l_020.jpg,NA,NA,NA,NA,NA,unpleasant,pleasant,NA,NA,NA,NA,NA,right,1903.2999997139,true,NA,NA,NA,NA,NA,NA,NA,NA
GwjtZTOD,3z8ujejod2q8a85trwhk37uqvoc39x,3u5nzhp4lvfajnqte87libr7ocnhpe,GwjtZTOD,2020-0188,2021-10-31,16:41:00,18:26:26,NA,incomplete,false,true,NA,NA,1,24,NA,brown,n_s_067.jpg,NA,NA,NA,NA,NA,unpleasant,pleasant,NA,NA,NA,NA,NA,left,2585.10000038147,true,NA,NA,NA,NA,NA,NA,NA,NA
GwjtZTOD,3z8ujejod2q8a85trwhk37uqvoc39x,3u5nzhp4lvfajnqte87libr7ocnhpe,GwjtZTOD,2020-0188,2021-10-31,16:41:00,18:26:26,NA,incomplete,false,true,NA,NA,1,25,NA,brown,n_s_072.jpg,NA,NA,NA,NA,NA,unpleasant,pleasant,NA,NA,NA,NA,NA,left,2196.2999997139,true,NA,NA,NA,NA,NA,NA,NA,NA
GwjtZTOD,3z8ujejod2q8a85trwhk37uqvoc39x,3u5nzhp4lvfajnqte87libr7ocnhpe,GwjtZTOD,2020-0188,2021-10-31,16:41:00,18:26:26,NA,incomplete,false,true,NA,NA,1,26,NA,brown,m_l_055.jpg,NA,NA,NA,NA,NA,unpleasant,pleasant,NA,NA,NA,NA,NA,left,1850.30000019073,true,NA,NA,NA,NA,NA,NA,NA,NA
GwjtZTOD,3z8ujejod2q8a85trwhk37uqvoc39x,3u5nzhp4lvfajnqte87libr7ocnhpe,GwjtZTOD,2020-0188,2021-10-31,16:41:00,18:26:26,NA,incomplete,false,true,NA,NA,1,27,NA,brown,n_s_051.jpg,NA,NA,NA,NA,NA,unpleasant,pleasant,NA,NA,NA,NA,NA,left,2194.7999997139,true,NA,NA,NA,NA,NA,NA,NA,NA
GwjtZTOD,3z8ujejod2q8a85trwhk37uqvoc39x,3u5nzhp4lvfajnqte87libr7ocnhpe,GwjtZTOD,2020-0188,2021-10-31,16:41:00,18:26:26,NA,incomplete,false,true,NA,NA,1,28,NA,brown,m_l_089.jpg,NA,NA,NA,NA,NA,pleasant,unpleasant,NA,NA,NA,NA,NA,left,2563,true,NA,NA,NA,NA,NA,NA,NA,NA
GwjtZTOD,3z8ujejod2q8a85trwhk37uqvoc39x,3u5nzhp4lvfajnqte87libr7ocnhpe,GwjtZTOD,2020-0188,2021-10-31,16:41:00,18:26:26,NA,incomplete,false,true,NA,NA,1,29,NA,brown,m_s_072.jpg,NA,NA,NA,NA,NA,unpleasant,pleasant,NA,NA,NA,NA,NA,right,2854.19999980927,true,NA,NA,NA,NA,NA,NA,NA,NA
GwjtZTOD,3z8ujejod2q8a85trwhk37uqvoc39x,3u5nzhp4lvfajnqte87libr7ocnhpe,GwjtZTOD,2020-0188,2021-10-31,16:41:00,18:26:26,NA,incomplete,false,true,NA,NA,1,30,NA,orange,m_l_050.jpg,NA,NA,NA,NA,NA,unpleasant,pleasant,NA,NA,NA,NA,NA,left,1967.2000002861,true,NA,NA,NA,NA,NA,NA,NA,NA
GwjtZTOD,3z8ujejod2q8a85trwhk37uqvoc39x,3u5nzhp4lvfajnqte87libr7ocnhpe,GwjtZTOD,2020-0188,2021-10-31,16:41:00,18:26:26,NA,incomplete,false,true,NA,NA,1,31,NA,orange,m_l_099.jpg,NA,NA,NA,NA,NA,unpleasant,pleasant,NA,NA,NA,NA,NA,left,2280.7000002861,true,NA,NA,NA,NA,NA,NA,NA,NA
GwjtZTOD,3z8ujejod2q8a85trwhk37uqvoc39x,3u5nzhp4lvfajnqte87libr7ocnhpe,GwjtZTOD,2020-0188,2021-10-31,16:41:00,18:26:26,NA,incomplete,false,true,NA,NA,1,32,NA,orange,n_s_036.jpg,NA,NA,NA,NA,NA,unpleasant,pleasant,NA,NA,NA,NA,NA,left,2128.10000038147,true,NA,NA,NA,NA,NA,NA,NA,NA
GwjtZTOD,3z8ujejod2q8a85trwhk37uqvoc39x,3u5nzhp4lvfajnqte87libr7ocnhpe,GwjtZTOD,2020-0188,2021-10-31,16:41:00,18:26:26,NA,incomplete,false,true,NA,NA,1,33,NA,orange,m_s_090.jpg,NA,NA,NA,NA,NA,pleasant,unpleasant,NA,NA,NA,NA,NA,left,2708.59999990463,true,NA,NA,NA,NA,NA,NA,NA,NA
GwjtZTOD,3z8ujejod2q8a85trwhk37uqvoc39x,3u5nzhp4lvfajnqte87libr7ocnhpe,GwjtZTOD,2020-0188,2021-10-31,16:41:00,18:26:26,NA,incomplete,false,true,NA,NA,1,34,NA,orange,m_s_016.jpg,NA,NA,NA,NA,NA,pleasant,unpleasant,NA,NA,NA,NA,NA,right,1637.7999997139,true,NA,NA,NA,NA,NA,NA,NA,NA
GwjtZTOD,3z8ujejod2q8a85trwhk37uqvoc39x,3u5nzhp4lvfajnqte87libr7ocnhpe,GwjtZTOD,2020-0188,2021-10-31,16:41:00,18:26:26,NA,incomplete,false,true,NA,NA,1,35,NA,orange,m_l_070.jpg,NA,NA,NA,NA,NA,pleasant,unpleasant,NA,NA,NA,NA,NA,left,2212,true,NA,NA,NA,NA,NA,NA,NA,NA
GwjtZTOD,3z8ujejod2q8a85trwhk37uqvoc39x,3u5nzhp4lvfajnqte87libr7ocnhpe,GwjtZTOD,2020-0188,2021-10-31,16:41:00,18:26:26,NA,incomplete,false,NA,NA,true,1,0,NA,NA,NA,left,n_l_020.jpg,black,gray,NA,NA,NA,NA,NA,NA,NA,NA,NA,NaN,NA,2897.2000002861023,right,0,NA,NA,NA,NA,NA
GwjtZTOD,3z8ujejod2q8a85trwhk37uqvoc39x,3u5nzhp4lvfajnqte87libr7ocnhpe,GwjtZTOD,2020-0188,2021-10-31,16:41:00,18:26:26,NA,incomplete,false,NA,NA,true,1,1,NA,NA,NA,left,m_l_070.jpg,orange,brown,NA,NA,NA,NA,NA,NA,NA,NA,NA,NaN,NA,2377,left,1,NA,NA,NA,NA,NA
GwjtZTOD,3z8ujejod2q8a85trwhk37uqvoc39x,3u5nzhp4lvfajnqte87libr7ocnhpe,GwjtZTOD,2020-0188,2021-10-31,16:41:00,18:26:26,NA,incomplete,false,NA,NA,true,1,2,NA,NA,NA,left,n_s_072.jpg,brown,orange,NA,NA,NA,NA,NA,NA,NA,NA,NA,NaN,NA,2887,left,1,NA,NA,NA,NA,NA
GwjtZTOD,3z8ujejod2q8a85trwhk37uqvoc39x,3u5nzhp4lvfajnqte87libr7ocnhpe,GwjtZTOD,2020-0188,2021-10-31,16:41:00,18:26:26,NA,incomplete,false,NA,NA,true,1,3,NA,NA,NA,right,m_l_048.jpg,black,gray,NA,NA,NA,NA,NA,NA,NA,NA,NA,NaN,NA,4633.900000095367,right,1,NA,NA,NA,NA,NA
GwjtZTOD,3z8ujejod2q8a85trwhk37uqvoc39x,3u5nzhp4lvfajnqte87libr7ocnhpe,GwjtZTOD,2020-0188,2021-10-31,16:41:00,18:26:26,NA,incomplete,false,NA,NA,true,1,4,NA,NA,NA,left,m_l_089.jpg,brown,black,NA,NA,NA,NA,NA,NA,NA,NA,NA,NaN,NA,2753.7999997138977,left,1,NA,NA,NA,NA,NA
GwjtZTOD,3z8ujejod2q8a85trwhk37uqvoc39x,3u5nzhp4lvfajnqte87libr7ocnhpe,GwjtZTOD,2020-0188,2021-10-31,16:41:00,18:26:26,NA,incomplete,false,NA,NA,true,1,5,NA,NA,NA,right,m_l_099.jpg,brown,orange,NA,NA,NA,NA,NA,NA,NA,NA,NA,NaN,NA,2768.2000002861023,right,1,NA,NA,NA,NA,NA
GwjtZTOD,3z8ujejod2q8a85trwhk37uqvoc39x,3u5nzhp4lvfajnqte87libr7ocnhpe,GwjtZTOD,2020-0188,2021-10-31,16:41:00,18:26:26,NA,incomplete,false,NA,NA,true,1,6,NA,NA,NA,left,n_s_105.jpg,gray,purple,NA,NA,NA,NA,NA,NA,NA,NA,NA,NaN,NA,3935.9000000953674,right,0,NA,NA,NA,NA,NA
GwjtZTOD,3z8ujejod2q8a85trwhk37uqvoc39x,3u5nzhp4lvfajnqte87libr7ocnhpe,GwjtZTOD,2020-0188,2021-10-31,16:41:00,18:26:26,NA,incomplete,false,NA,NA,true,1,7,NA,NA,NA,left,m_s_072.jpg,brown,orange,NA,NA,NA,NA,NA,NA,NA,NA,NA,NaN,NA,3172.4000000953674,left,1,NA,NA,NA,NA,NA
GwjtZTOD,3z8ujejod2q8a85trwhk37uqvoc39x,3u5nzhp4lvfajnqte87libr7ocnhpe,GwjtZTOD,2020-0188,2021-10-31,16:41:00,18:26:26,NA,incomplete,false,NA,NA,true,1,8,NA,NA,NA,left,m_l_028.jpg,red,purple,NA,NA,NA,NA,NA,NA,NA,NA,NA,NaN,NA,5213.199999809265,left,1,NA,NA,NA,NA,NA
GwjtZTOD,3z8ujejod2q8a85trwhk37uqvoc39x,3u5nzhp4lvfajnqte87libr7ocnhpe,GwjtZTOD,2020-0188,2021-10-31,16:41:00,18:26:26,NA,incomplete,false,NA,NA,true,1,9,NA,NA,NA,left,m_s_002.jpg,purple,gray,NA,NA,NA,NA,NA,NA,NA,NA,NA,NaN,NA,3581.4000000953674,left,1,NA,NA,NA,NA,NA
GwjtZTOD,3z8ujejod2q8a85trwhk37uqvoc39x,3u5nzhp4lvfajnqte87libr7ocnhpe,GwjtZTOD,2020-0188,2021-10-31,16:41:00,18:26:26,NA,incomplete,false,NA,NA,true,1,10,NA,NA,NA,right,m_l_071.jpg,purple,red,NA,NA,NA,NA,NA,NA,NA,NA,NA,NaN,NA,10523.599999904633,left,0,NA,NA,NA,NA,NA
GwjtZTOD,3z8ujejod2q8a85trwhk37uqvoc39x,3u5nzhp4lvfajnqte87libr7ocnhpe,GwjtZTOD,2020-0188,2021-10-31,16:41:00,18:26:26,NA,incomplete,false,NA,NA,true,1,11,NA,NA,NA,right,n_l_097.jpg,purple,red,NA,NA,NA,NA,NA,NA,NA,NA,NA,NaN,NA,5133.700000286102,right,1,NA,NA,NA,NA,NA
GwjtZTOD,3z8ujejod2q8a85trwhk37uqvoc39x,3u5nzhp4lvfajnqte87libr7ocnhpe,GwjtZTOD,2020-0188,2021-10-31,16:41:00,18:26:26,NA,incomplete,false,NA,NA,true,1,12,NA,NA,NA,left,n_s_036.jpg,orange,brown,NA,NA,NA,NA,NA,NA,NA,NA,NA,NaN,NA,5000.099999904633,left,1,NA,NA,NA,NA,NA
GwjtZTOD,3z8ujejod2q8a85trwhk37uqvoc39x,3u5nzhp4lvfajnqte87libr7ocnhpe,GwjtZTOD,2020-0188,2021-10-31,16:41:00,18:26:26,NA,incomplete,false,NA,NA,true,1,13,NA,NA,NA,right,n_l_047.jpg,red,purple,NA,NA,NA,NA,NA,NA,NA,NA,NA,NaN,NA,3309.2000002861023,right,1,NA,NA,NA,NA,NA
GwjtZTOD,3z8ujejod2q8a85trwhk37uqvoc39x,3u5nzhp4lvfajnqte87libr7ocnhpe,GwjtZTOD,2020-0188,2021-10-31,16:41:00,18:26:26,NA,incomplete,false,NA,NA,true,1,14,NA,NA,NA,left,n_l_011.jpg,black,gray,NA,NA,NA,NA,NA,NA,NA,NA,NA,NaN,NA,3218.5999999046326,left,1,NA,NA,NA,NA,NA
GwjtZTOD,3z8ujejod2q8a85trwhk37uqvoc39x,3u5nzhp4lvfajnqte87libr7ocnhpe,GwjtZTOD,2020-0188,2021-10-31,16:41:00,18:26:26,NA,incomplete,false,NA,NA,true,1,15,NA,NA,NA,right,n_s_115.jpg,red,purple,NA,NA,NA,NA,NA,NA,NA,NA,NA,NaN,NA,2480.800000190735,right,1,NA,NA,NA,NA,NA
GwjtZTOD,3z8ujejod2q8a85trwhk37uqvoc39x,3u5nzhp4lvfajnqte87libr7ocnhpe,GwjtZTOD,2020-0188,2021-10-31,16:41:00,18:26:26,NA,incomplete,false,NA,NA,true,1,16,NA,NA,NA,right,m_l_055.jpg,black,brown,NA,NA,NA,NA,NA,NA,NA,NA,NA,NaN,NA,3023.5,right,1,NA,NA,NA,NA,NA
GwjtZTOD,3z8ujejod2q8a85trwhk37uqvoc39x,3u5nzhp4lvfajnqte87libr7ocnhpe,GwjtZTOD,2020-0188,2021-10-31,16:41:00,18:26:26,NA,incomplete,false,NA,NA,true,1,17,NA,NA,NA,left,n_l_115.jpg,gray,purple,NA,NA,NA,NA,NA,NA,NA,NA,NA,NaN,NA,8494.700000286102,left,1,NA,NA,NA,NA,NA
GwjtZTOD,3z8ujejod2q8a85trwhk37uqvoc39x,3u5nzhp4lvfajnqte87libr7ocnhpe,GwjtZTOD,2020-0188,2021-10-31,16:41:00,18:26:26,NA,incomplete,false,NA,NA,true,1,18,NA,NA,NA,right,m_s_062.jpg,gray,purple,NA,NA,NA,NA,NA,NA,NA,NA,NA,NaN,NA,3877,left,0,NA,NA,NA,NA,NA
GwjtZTOD,3z8ujejod2q8a85trwhk37uqvoc39x,3u5nzhp4lvfajnqte87libr7ocnhpe,GwjtZTOD,2020-0188,2021-10-31,16:41:00,18:26:26,NA,incomplete,false,NA,NA,true,1,19,NA,NA,NA,right,m_l_105.jpg,black,gray,NA,NA,NA,NA,NA,NA,NA,NA,NA,NaN,NA,5529.699999809265,right,1,NA,NA,NA,NA,NA
GwjtZTOD,3z8ujejod2q8a85trwhk37uqvoc39x,3u5nzhp4lvfajnqte87libr7ocnhpe,GwjtZTOD,2020-0188,2021-10-31,16:41:00,18:26:26,NA,incomplete,false,NA,NA,true,1,20,NA,NA,NA,left,m_l_065.jpg,black,brown,NA,NA,NA,NA,NA,NA,NA,NA,NA,NaN,NA,5054.39999961853,left,1,NA,NA,NA,NA,NA
GwjtZTOD,3z8ujejod2q8a85trwhk37uqvoc39x,3u5nzhp4lvfajnqte87libr7ocnhpe,GwjtZTOD,2020-0188,2021-10-31,16:41:00,18:26:26,NA,incomplete,false,NA,NA,true,1,21,NA,NA,NA,right,m_l_031.jpg,brown,black,NA,NA,NA,NA,NA,NA,NA,NA,NA,NaN,NA,2522.1000003814697,right,1,NA,NA,NA,NA,NA
GwjtZTOD,3z8ujejod2q8a85trwhk37uqvoc39x,3u5nzhp4lvfajnqte87libr7ocnhpe,GwjtZTOD,2020-0188,2021-10-31,16:41:00,18:26:26,NA,incomplete,false,NA,true,NA,1,0,NA,NA,NA,right,NA,NA,NA,present,NA,NA,n_s_115.jpg,purple,m_l_071.jpg,red,between,NA,NaN,NA,NA,NA,NA,left,5252.5,0,2,3981.9000000953674
GwjtZTOD,3z8ujejod2q8a85trwhk37uqvoc39x,3u5nzhp4lvfajnqte87libr7ocnhpe,GwjtZTOD,2020-0188,2021-10-31,16:41:00,18:26:26,NA,incomplete,false,NA,true,NA,1,1,NA,NA,NA,left,NA,NA,NA,present,NA,NA,m_l_031.jpg,black,n_l_020.jpg,black,within,NA,NaN,NA,NA,NA,NA,right,11568.60000038147,0,0,3444.9000000953674
GwjtZTOD,3z8ujejod2q8a85trwhk37uqvoc39x,3u5nzhp4lvfajnqte87libr7ocnhpe,GwjtZTOD,2020-0188,2021-10-31,16:41:00,18:26:26,NA,incomplete,false,NA,true,NA,1,2,NA,NA,NA,left,NA,NA,NA,present,NA,NA,n_l_011.jpg,black,m_l_055.jpg,brown,between,NA,NaN,NA,NA,NA,NA,left,9833.700000286102,1,1,3474.5999999046326
GwjtZTOD,3z8ujejod2q8a85trwhk37uqvoc39x,3u5nzhp4lvfajnqte87libr7ocnhpe,GwjtZTOD,2020-0188,2021-10-31,16:41:00,18:26:26,NA,incomplete,false,NA,true,NA,1,3,NA,NA,NA,right,NA,NA,NA,present,NA,NA,n_l_097.jpg,red,m_l_028.jpg,red,within,NA,NaN,NA,NA,NA,NA,left,6639.400000095367,0,1,4837.699999809265
GwjtZTOD,3z8ujejod2q8a85trwhk37uqvoc39x,3u5nzhp4lvfajnqte87libr7ocnhpe,GwjtZTOD,2020-0188,2021-10-31,16:41:00,18:26:26,NA,incomplete,false,NA,true,NA,1,4,NA,NA,NA,right,NA,NA,NA,present,NA,NA,n_l_115.jpg,gray,n_s_105.jpg,gray,within,NA,NaN,NA,NA,NA,NA,right,4157.700000286102,1,0,3551.5
GwjtZTOD,3z8ujejod2q8a85trwhk37uqvoc39x,3u5nzhp4lvfajnqte87libr7ocnhpe,GwjtZTOD,2020-0188,2021-10-31,16:41:00,18:26:26,NA,incomplete,false,NA,true,NA,1,5,NA,NA,NA,right,NA,NA,NA,present,NA,NA,m_l_065.jpg,black,m_l_105.jpg,gray,between,NA,NaN,NA,NA,NA,NA,left,12664.599999904633,0,1,3184.0999999046326
GwjtZTOD,3z8ujejod2q8a85trwhk37uqvoc39x,3u5nzhp4lvfajnqte87libr7ocnhpe,GwjtZTOD,2020-0188,2021-10-31,16:41:00,18:26:26,NA,incomplete,false,NA,true,NA,1,6,NA,NA,NA,left,NA,NA,NA,present,NA,NA,m_s_062.jpg,purple,m_l_048.jpg,gray,between,NA,NaN,NA,NA,NA,NA,right,11407.099999904633,0,1,2718.699999809265
GwjtZTOD,3z8ujejod2q8a85trwhk37uqvoc39x,3u5nzhp4lvfajnqte87libr7ocnhpe,GwjtZTOD,2020-0188,2021-10-31,16:41:00,18:26:26,NA,incomplete,false,NA,true,NA,1,7,NA,NA,NA,right,NA,NA,NA,present,NA,NA,m_l_070.jpg,orange,m_l_099.jpg,orange,within,NA,NaN,NA,NA,NA,NA,right,4042.7000002861023,1,0,2041.5999999046326
GwjtZTOD,3z8ujejod2q8a85trwhk37uqvoc39x,3u5nzhp4lvfajnqte87libr7ocnhpe,GwjtZTOD,2020-0188,2021-10-31,16:41:00,18:26:26,NA,incomplete,false,NA,true,NA,1,8,NA,NA,NA,right,NA,NA,NA,present,NA,NA,n_s_036.jpg,orange,m_l_089.jpg,brown,between,NA,NaN,NA,NA,NA,NA,right,5755.400000095367,1,2,2038.3000001907349
GwjtZTOD,3z8ujejod2q8a85trwhk37uqvoc39x,3u5nzhp4lvfajnqte87libr7ocnhpe,GwjtZTOD,2020-0188,2021-10-31,16:41:00,18:26:26,NA,incomplete,false,NA,true,NA,1,9,NA,NA,NA,right,NA,NA,NA,present,NA,NA,n_l_047.jpg,purple,m_s_002.jpg,purple,within,NA,NaN,NA,NA,NA,NA,right,3275.5999999046326,1,1,3926.300000190735
GwjtZTOD,3z8ujejod2q8a85trwhk37uqvoc39x,3u5nzhp4lvfajnqte87libr7ocnhpe,GwjtZTOD,2020-0188,2021-10-31,16:41:00,18:26:26,NA,incomplete,false,NA,true,NA,1,10,NA,NA,NA,left,NA,NA,NA,present,NA,NA,n_s_072.jpg,brown,m_s_072.jpg,brown,within,NA,NaN,NA,NA,NA,NA,left,4803.199999809265,1,1,1731
GwjtZTOD,3z8ujejod2q8a85trwhk37uqvoc39x,3u5nzhp4lvfajnqte87libr7ocnhpe,GwjtZTOD,2020-0188,2021-10-31,16:41:00,18:26:26,NA,incomplete,false,true,NA,NA,2,0,NA,red,n_s_034.jpg,NA,NA,NA,NA,NA,pleasant,unpleasant,NA,NA,NA,NA,NA,left,2759.89999961853,true,NA,NA,NA,NA,NA,NA,NA,NA
GwjtZTOD,3z8ujejod2q8a85trwhk37uqvoc39x,3u5nzhp4lvfajnqte87libr7ocnhpe,GwjtZTOD,2020-0188,2021-10-31,16:41:00,18:26:26,NA,incomplete,false,true,NA,NA,2,1,NA,red,m_l_056.jpg,NA,NA,NA,NA,NA,unpleasant,pleasant,NA,NA,NA,NA,NA,left,3306.30000019073,true,NA,NA,NA,NA,NA,NA,NA,NA
GwjtZTOD,3z8ujejod2q8a85trwhk37uqvoc39x,3u5nzhp4lvfajnqte87libr7ocnhpe,GwjtZTOD,2020-0188,2021-10-31,16:41:00,18:26:26,NA,incomplete,false,true,NA,NA,2,2,NA,red,n_s_073.jpg,NA,NA,NA,NA,NA,pleasant,unpleasant,NA,NA,NA,NA,NA,right,1898.40000009537,true,NA,NA,NA,NA,NA,NA,NA,NA
GwjtZTOD,3z8ujejod2q8a85trwhk37uqvoc39x,3u5nzhp4lvfajnqte87libr7ocnhpe,GwjtZTOD,2020-0188,2021-10-31,16:41:00,18:26:26,NA,incomplete,false,true,NA,NA,2,3,NA,red,m_l_068.jpg,NA,NA,NA,NA,NA,pleasant,unpleasant,NA,NA,NA,NA,NA,right,1518.7999997139,true,NA,NA,NA,NA,NA,NA,NA,NA
GwjtZTOD,3z8ujejod2q8a85trwhk37uqvoc39x,3u5nzhp4lvfajnqte87libr7ocnhpe,GwjtZTOD,2020-0188,2021-10-31,16:41:00,18:26:26,NA,incomplete,false,true,NA,NA,2,4,NA,red,m_l_106.jpg,NA,NA,NA,NA,NA,pleasant,unpleasant,NA,NA,NA,NA,NA,left,1603.30000019073,true,NA,NA,NA,NA,NA,NA,NA,NA
GwjtZTOD,3z8ujejod2q8a85trwhk37uqvoc39x,3u5nzhp4lvfajnqte87libr7ocnhpe,GwjtZTOD,2020-0188,2021-10-31,16:41:00,18:26:26,NA,incomplete,false,true,NA,NA,2,5,NA,red,m_s_008.jpg,NA,NA,NA,NA,NA,unpleasant,pleasant,NA,NA,NA,NA,NA,left,2439.30000019073,true,NA,NA,NA,NA,NA,NA,NA,NA
GwjtZTOD,3z8ujejod2q8a85trwhk37uqvoc39x,3u5nzhp4lvfajnqte87libr7ocnhpe,GwjtZTOD,2020-0188,2021-10-31,16:41:00,18:26:26,NA,incomplete,false,true,NA,NA,2,6,NA,green,m_l_017.jpg,NA,NA,NA,NA,NA,unpleasant,pleasant,NA,NA,NA,NA,NA,right,1597,true,NA,NA,NA,NA,NA,NA,NA,NA
GwjtZTOD,3z8ujejod2q8a85trwhk37uqvoc39x,3u5nzhp4lvfajnqte87libr7ocnhpe,GwjtZTOD,2020-0188,2021-10-31,16:41:00,18:26:26,NA,incomplete,false,true,NA,NA,2,7,NA,green,n_l_113.jpg,NA,NA,NA,NA,NA,pleasant,unpleasant,NA,NA,NA,NA,NA,left,1619.2000002861,true,NA,NA,NA,NA,NA,NA,NA,NA
GwjtZTOD,3z8ujejod2q8a85trwhk37uqvoc39x,3u5nzhp4lvfajnqte87libr7ocnhpe,GwjtZTOD,2020-0188,2021-10-31,16:41:00,18:26:26,NA,incomplete,false,true,NA,NA,2,8,NA,green,n_s_027.jpg,NA,NA,NA,NA,NA,unpleasant,pleasant,NA,NA,NA,NA,NA,right,2505.69999980927,true,NA,NA,NA,NA,NA,NA,NA,NA
GwjtZTOD,3z8ujejod2q8a85trwhk37uqvoc39x,3u5nzhp4lvfajnqte87libr7ocnhpe,GwjtZTOD,2020-0188,2021-10-31,16:41:00,18:26:26,NA,incomplete,false,true,NA,NA,2,9,NA,green,m_s_045.jpg,NA,NA,NA,NA,NA,unpleasant,pleasant,NA,NA,NA,NA,NA,right,1823.09999990463,true,NA,NA,NA,NA,NA,NA,NA,NA
GwjtZTOD,3z8ujejod2q8a85trwhk37uqvoc39x,3u5nzhp4lvfajnqte87libr7ocnhpe,GwjtZTOD,2020-0188,2021-10-31,16:41:00,18:26:26,NA,incomplete,false,true,NA,NA,2,10,NA,green,m_l_062.jpg,NA,NA,NA,NA,NA,pleasant,unpleasant,NA,NA,NA,NA,NA,left,2890.10000038147,true,NA,NA,NA,NA,NA,NA,NA,NA
GwjtZTOD,3z8ujejod2q8a85trwhk37uqvoc39x,3u5nzhp4lvfajnqte87libr7ocnhpe,GwjtZTOD,2020-0188,2021-10-31,16:41:00,18:26:26,NA,incomplete,false,true,NA,NA,2,11,NA,green,n_s_024.jpg,NA,NA,NA,NA,NA,unpleasant,pleasant,NA,NA,NA,NA,NA,right,2650.40000009537,true,NA,NA,NA,NA,NA,NA,NA,NA
GwjtZTOD,3z8ujejod2q8a85trwhk37uqvoc39x,3u5nzhp4lvfajnqte87libr7ocnhpe,GwjtZTOD,2020-0188,2021-10-31,16:41:00,18:26:26,NA,incomplete,false,true,NA,NA,2,12,NA,gray,m_s_071.jpg,NA,NA,NA,NA,NA,unpleasant,pleasant,NA,NA,NA,NA,NA,left,3415.80000019073,true,NA,NA,NA,NA,NA,NA,NA,NA
GwjtZTOD,3z8ujejod2q8a85trwhk37uqvoc39x,3u5nzhp4lvfajnqte87libr7ocnhpe,GwjtZTOD,2020-0188,2021-10-31,16:41:00,18:26:26,NA,incomplete,false,true,NA,NA,2,13,NA,gray,n_l_001.jpg,NA,NA,NA,NA,NA,pleasant,unpleasant,NA,NA,NA,NA,NA,left,2503.19999980927,true,NA,NA,NA,NA,NA,NA,NA,NA
GwjtZTOD,3z8ujejod2q8a85trwhk37uqvoc39x,3u5nzhp4lvfajnqte87libr7ocnhpe,GwjtZTOD,2020-0188,2021-10-31,16:41:00,18:26:26,NA,incomplete,false,true,NA,NA,2,14,NA,gray,n_l_081.jpg,NA,NA,NA,NA,NA,unpleasant,pleasant,NA,NA,NA,NA,NA,right,2562.60000038147,true,NA,NA,NA,NA,NA,NA,NA,NA
GwjtZTOD,3z8ujejod2q8a85trwhk37uqvoc39x,3u5nzhp4lvfajnqte87libr7ocnhpe,GwjtZTOD,2020-0188,2021-10-31,16:41:00,18:26:26,NA,incomplete,false,true,NA,NA,2,15,NA,gray,m_l_059.jpg,NA,NA,NA,NA,NA,unpleasant,pleasant,NA,NA,NA,NA,NA,right,1930.19999980927,true,NA,NA,NA,NA,NA,NA,NA,NA
GwjtZTOD,3z8ujejod2q8a85trwhk37uqvoc39x,3u5nzhp4lvfajnqte87libr7ocnhpe,GwjtZTOD,2020-0188,2021-10-31,16:41:00,18:26:26,NA,incomplete,false,true,NA,NA,2,16,NA,gray,m_l_111.jpg,NA,NA,NA,NA,NA,unpleasant,pleasant,NA,NA,NA,NA,NA,right,1923.80000019073,true,NA,NA,NA,NA,NA,NA,NA,NA
GwjtZTOD,3z8ujejod2q8a85trwhk37uqvoc39x,3u5nzhp4lvfajnqte87libr7ocnhpe,GwjtZTOD,2020-0188,2021-10-31,16:41:00,18:26:26,NA,incomplete,false,true,NA,NA,2,17,NA,gray,m_l_108.jpg,NA,NA,NA,NA,NA,pleasant,unpleasant,NA,NA,NA,NA,NA,left,1743.7000002861,true,NA,NA,NA,NA,NA,NA,NA,NA
GwjtZTOD,3z8ujejod2q8a85trwhk37uqvoc39x,3u5nzhp4lvfajnqte87libr7ocnhpe,GwjtZTOD,2020-0188,2021-10-31,16:41:00,18:26:26,NA,incomplete,false,true,NA,NA,2,18,NA,yellow,n_s_111.jpg,NA,NA,NA,NA,NA,pleasant,unpleasant,NA,NA,NA,NA,NA,left,3157.40000009537,true,NA,NA,NA,NA,NA,NA,NA,NA
GwjtZTOD,3z8ujejod2q8a85trwhk37uqvoc39x,3u5nzhp4lvfajnqte87libr7ocnhpe,GwjtZTOD,2020-0188,2021-10-31,16:41:00,18:26:26,NA,incomplete,false,true,NA,NA,2,19,NA,yellow,m_s_077.jpg,NA,NA,NA,NA,NA,unpleasant,pleasant,NA,NA,NA,NA,NA,right,3296.5,true,NA,NA,NA,NA,NA,NA,NA,NA
GwjtZTOD,3z8ujejod2q8a85trwhk37uqvoc39x,3u5nzhp4lvfajnqte87libr7ocnhpe,GwjtZTOD,2020-0188,2021-10-31,16:41:00,18:26:26,NA,incomplete,false,true,NA,NA,2,20,NA,yellow,m_s_068.jpg,NA,NA,NA,NA,NA,pleasant,unpleasant,NA,NA,NA,NA,NA,left,3078.30000019073,true,NA,NA,NA,NA,NA,NA,NA,NA
GwjtZTOD,3z8ujejod2q8a85trwhk37uqvoc39x,3u5nzhp4lvfajnqte87libr7ocnhpe,GwjtZTOD,2020-0188,2021-10-31,16:41:00,18:26:26,NA,incomplete,false,true,NA,NA,2,21,NA,yellow,n_s_089.jpg,NA,NA,NA,NA,NA,unpleasant,pleasant,NA,NA,NA,NA,NA,right,2975.90000009537,true,NA,NA,NA,NA,NA,NA,NA,NA
GwjtZTOD,3z8ujejod2q8a85trwhk37uqvoc39x,3u5nzhp4lvfajnqte87libr7ocnhpe,GwjtZTOD,2020-0188,2021-10-31,16:41:00,18:26:26,NA,incomplete,false,true,NA,NA,2,22,NA,yellow,m_s_087.jpg,NA,NA,NA,NA,NA,pleasant,unpleasant,NA,NA,NA,NA,NA,left,1581.30000019073,true,NA,NA,NA,NA,NA,NA,NA,NA
GwjtZTOD,3z8ujejod2q8a85trwhk37uqvoc39x,3u5nzhp4lvfajnqte87libr7ocnhpe,GwjtZTOD,2020-0188,2021-10-31,16:41:00,18:26:26,NA,incomplete,false,true,NA,NA,2,23,NA,yellow,n_l_013.jpg,NA,NA,NA,NA,NA,pleasant,unpleasant,NA,NA,NA,NA,NA,left,2175.7999997139,true,NA,NA,NA,NA,NA,NA,NA,NA
GwjtZTOD,3z8ujejod2q8a85trwhk37uqvoc39x,3u5nzhp4lvfajnqte87libr7ocnhpe,GwjtZTOD,2020-0188,2021-10-31,16:41:00,18:26:26,NA,incomplete,false,true,NA,NA,2,24,NA,purple,m_l_053.jpg,NA,NA,NA,NA,NA,pleasant,unpleasant,NA,NA,NA,NA,NA,left,1519.59999990463,true,NA,NA,NA,NA,NA,NA,NA,NA
GwjtZTOD,3z8ujejod2q8a85trwhk37uqvoc39x,3u5nzhp4lvfajnqte87libr7ocnhpe,GwjtZTOD,2020-0188,2021-10-31,16:41:00,18:26:26,NA,incomplete,false,true,NA,NA,2,25,NA,purple,m_s_063.jpg,NA,NA,NA,NA,NA,pleasant,unpleasant,NA,NA,NA,NA,NA,left,1820.5,true,NA,NA,NA,NA,NA,NA,NA,NA
GwjtZTOD,3z8ujejod2q8a85trwhk37uqvoc39x,3u5nzhp4lvfajnqte87libr7ocnhpe,GwjtZTOD,2020-0188,2021-10-31,16:41:00,18:26:26,NA,incomplete,false,true,NA,NA,2,26,NA,purple,n_l_042.jpg,NA,NA,NA,NA,NA,pleasant,unpleasant,NA,NA,NA,NA,NA,left,1829.10000038147,true,NA,NA,NA,NA,NA,NA,NA,NA
GwjtZTOD,3z8ujejod2q8a85trwhk37uqvoc39x,3u5nzhp4lvfajnqte87libr7ocnhpe,GwjtZTOD,2020-0188,2021-10-31,16:41:00,18:26:26,NA,incomplete,false,true,NA,NA,2,27,NA,purple,m_s_029.jpg,NA,NA,NA,NA,NA,unpleasant,pleasant,NA,NA,NA,NA,NA,right,3000.19999980927,true,NA,NA,NA,NA,NA,NA,NA,NA
GwjtZTOD,3z8ujejod2q8a85trwhk37uqvoc39x,3u5nzhp4lvfajnqte87libr7ocnhpe,GwjtZTOD,2020-0188,2021-10-31,16:41:00,18:26:26,NA,incomplete,false,true,NA,NA,2,28,NA,purple,m_s_057.jpg,NA,NA,NA,NA,NA,unpleasant,pleasant,NA,NA,NA,NA,NA,right,2059.90000009537,true,NA,NA,NA,NA,NA,NA,NA,NA
GwjtZTOD,3z8ujejod2q8a85trwhk37uqvoc39x,3u5nzhp4lvfajnqte87libr7ocnhpe,GwjtZTOD,2020-0188,2021-10-31,16:41:00,18:26:26,NA,incomplete,false,true,NA,NA,2,29,NA,purple,n_s_015.jpg,NA,NA,NA,NA,NA,pleasant,unpleasant,NA,NA,NA,NA,NA,left,2632.5,true,NA,NA,NA,NA,NA,NA,NA,NA
GwjtZTOD,3z8ujejod2q8a85trwhk37uqvoc39x,3u5nzhp4lvfajnqte87libr7ocnhpe,GwjtZTOD,2020-0188,2021-10-31,16:41:00,18:26:26,NA,incomplete,false,true,NA,NA,2,30,NA,brown,m_s_097.jpg,NA,NA,NA,NA,NA,unpleasant,pleasant,NA,NA,NA,NA,NA,right,1857.5,true,NA,NA,NA,NA,NA,NA,NA,NA
GwjtZTOD,3z8ujejod2q8a85trwhk37uqvoc39x,3u5nzhp4lvfajnqte87libr7ocnhpe,GwjtZTOD,2020-0188,2021-10-31,16:41:00,18:26:26,NA,incomplete,false,true,NA,NA,2,31,NA,brown,n_s_079.jpg,NA,NA,NA,NA,NA,pleasant,unpleasant,NA,NA,NA,NA,NA,left,1788.5,true,NA,NA,NA,NA,NA,NA,NA,NA
GwjtZTOD,3z8ujejod2q8a85trwhk37uqvoc39x,3u5nzhp4lvfajnqte87libr7ocnhpe,GwjtZTOD,2020-0188,2021-10-31,16:41:00,18:26:26,NA,incomplete,false,true,NA,NA,2,32,NA,brown,m_s_075.jpg,NA,NA,NA,NA,NA,unpleasant,pleasant,NA,NA,NA,NA,NA,right,1908.09999990463,true,NA,NA,NA,NA,NA,NA,NA,NA
GwjtZTOD,3z8ujejod2q8a85trwhk37uqvoc39x,3u5nzhp4lvfajnqte87libr7ocnhpe,GwjtZTOD,2020-0188,2021-10-31,16:41:00,18:26:26,NA,incomplete,false,true,NA,NA,2,33,NA,brown,n_s_054.jpg,NA,NA,NA,NA,NA,unpleasant,pleasant,NA,NA,NA,NA,NA,left,1912.39999961853,true,NA,NA,NA,NA,NA,NA,NA,NA
GwjtZTOD,3z8ujejod2q8a85trwhk37uqvoc39x,3u5nzhp4lvfajnqte87libr7ocnhpe,GwjtZTOD,2020-0188,2021-10-31,16:41:00,18:26:26,NA,incomplete,false,true,NA,NA,2,34,NA,brown,n_s_110.jpg,NA,NA,NA,NA,NA,pleasant,unpleasant,NA,NA,NA,NA,NA,right,3171.59999990463,true,NA,NA,NA,NA,NA,NA,NA,NA
GwjtZTOD,3z8ujejod2q8a85trwhk37uqvoc39x,3u5nzhp4lvfajnqte87libr7ocnhpe,GwjtZTOD,2020-0188,2021-10-31,16:41:00,18:26:26,NA,incomplete,false,true,NA,NA,2,35,NA,brown,n_s_116.jpg,NA,NA,NA,NA,NA,unpleasant,pleasant,NA,NA,NA,NA,NA,right,2221.59999990463,true,NA,NA,NA,NA,NA,NA,NA,NA
GwjtZTOD,3z8ujejod2q8a85trwhk37uqvoc39x,3u5nzhp4lvfajnqte87libr7ocnhpe,GwjtZTOD,2020-0188,2021-10-31,16:41:00,18:26:26,NA,incomplete,false,NA,NA,true,2,0,NA,NA,NA,left,n_s_015.jpg,purple,brown,NA,NA,NA,NA,NA,NA,NA,NA,NA,NaN,NA,6116.200000286102,left,1,NA,NA,NA,NA,NA
GwjtZTOD,3z8ujejod2q8a85trwhk37uqvoc39x,3u5nzhp4lvfajnqte87libr7ocnhpe,GwjtZTOD,2020-0188,2021-10-31,16:41:00,18:26:26,NA,incomplete,false,NA,NA,true,2,1,NA,NA,NA,right,n_l_081.jpg,green,gray,NA,NA,NA,NA,NA,NA,NA,NA,NA,NaN,NA,2785.800000190735,right,1,NA,NA,NA,NA,NA
GwjtZTOD,3z8ujejod2q8a85trwhk37uqvoc39x,3u5nzhp4lvfajnqte87libr7ocnhpe,GwjtZTOD,2020-0188,2021-10-31,16:41:00,18:26:26,NA,incomplete,false,NA,NA,true,2,2,NA,NA,NA,left,m_s_008.jpg,red,green,NA,NA,NA,NA,NA,NA,NA,NA,NA,NaN,NA,2592.199999809265,left,1,NA,NA,NA,NA,NA
GwjtZTOD,3z8ujejod2q8a85trwhk37uqvoc39x,3u5nzhp4lvfajnqte87libr7ocnhpe,GwjtZTOD,2020-0188,2021-10-31,16:41:00,18:26:26,NA,incomplete,false,NA,NA,true,2,3,NA,NA,NA,right,m_l_108.jpg,green,gray,NA,NA,NA,NA,NA,NA,NA,NA,NA,NaN,NA,3109.7000002861023,right,1,NA,NA,NA,NA,NA
GwjtZTOD,3z8ujejod2q8a85trwhk37uqvoc39x,3u5nzhp4lvfajnqte87libr7ocnhpe,GwjtZTOD,2020-0188,2021-10-31,16:41:00,18:26:26,NA,incomplete,false,NA,NA,true,2,4,NA,NA,NA,right,n_l_013.jpg,gray,yellow,NA,NA,NA,NA,NA,NA,NA,NA,NA,NaN,NA,2400.5,right,1,NA,NA,NA,NA,NA
GwjtZTOD,3z8ujejod2q8a85trwhk37uqvoc39x,3u5nzhp4lvfajnqte87libr7ocnhpe,GwjtZTOD,2020-0188,2021-10-31,16:41:00,18:26:26,NA,incomplete,false,NA,NA,true,2,5,NA,NA,NA,left,n_l_001.jpg,gray,yellow,NA,NA,NA,NA,NA,NA,NA,NA,NA,NaN,NA,2738.300000190735,left,1,NA,NA,NA,NA,NA
GwjtZTOD,3z8ujejod2q8a85trwhk37uqvoc39x,3u5nzhp4lvfajnqte87libr7ocnhpe,GwjtZTOD,2020-0188,2021-10-31,16:41:00,18:26:26,NA,incomplete,false,NA,NA,true,2,6,NA,NA,NA,left,n_s_027.jpg,green,red,NA,NA,NA,NA,NA,NA,NA,NA,NA,NaN,NA,2757.7000002861023,left,1,NA,NA,NA,NA,NA
GwjtZTOD,3z8ujejod2q8a85trwhk37uqvoc39x,3u5nzhp4lvfajnqte87libr7ocnhpe,GwjtZTOD,2020-0188,2021-10-31,16:41:00,18:26:26,NA,incomplete,false,NA,NA,true,2,7,NA,NA,NA,left,m_s_057.jpg,purple,yellow,NA,NA,NA,NA,NA,NA,NA,NA,NA,NaN,NA,3300.800000190735,left,1,NA,NA,NA,NA,NA
GwjtZTOD,3z8ujejod2q8a85trwhk37uqvoc39x,3u5nzhp4lvfajnqte87libr7ocnhpe,GwjtZTOD,2020-0188,2021-10-31,16:41:00,18:26:26,NA,incomplete,false,NA,NA,true,2,8,NA,NA,NA,right,m_l_056.jpg,green,red,NA,NA,NA,NA,NA,NA,NA,NA,NA,NaN,NA,3191.9000000953674,left,0,NA,NA,NA,NA,NA
GwjtZTOD,3z8ujejod2q8a85trwhk37uqvoc39x,3u5nzhp4lvfajnqte87libr7ocnhpe,GwjtZTOD,2020-0188,2021-10-31,16:41:00,18:26:26,NA,incomplete,false,NA,NA,true,2,9,NA,NA,NA,left,n_s_079.jpg,brown,purple,NA,NA,NA,NA,NA,NA,NA,NA,NA,NaN,NA,3206.2999997138977,left,1,NA,NA,NA,NA,NA
GwjtZTOD,3z8ujejod2q8a85trwhk37uqvoc39x,3u5nzhp4lvfajnqte87libr7ocnhpe,GwjtZTOD,2020-0188,2021-10-31,16:41:00,18:26:26,NA,incomplete,false,NA,NA,true,2,10,NA,NA,NA,left,m_s_063.jpg,purple,yellow,NA,NA,NA,NA,NA,NA,NA,NA,NA,NaN,NA,4038.699999809265,left,1,NA,NA,NA,NA,NA
GwjtZTOD,3z8ujejod2q8a85trwhk37uqvoc39x,3u5nzhp4lvfajnqte87libr7ocnhpe,GwjtZTOD,2020-0188,2021-10-31,16:41:00,18:26:26,NA,incomplete,false,NA,NA,true,2,11,NA,NA,NA,right,m_l_062.jpg,gray,green,NA,NA,NA,NA,NA,NA,NA,NA,NA,NaN,NA,3214.300000190735,right,1,NA,NA,NA,NA,NA
GwjtZTOD,3z8ujejod2q8a85trwhk37uqvoc39x,3u5nzhp4lvfajnqte87libr7ocnhpe,GwjtZTOD,2020-0188,2021-10-31,16:41:00,18:26:26,NA,incomplete,false,NA,NA,true,2,12,NA,NA,NA,right,n_l_042.jpg,brown,purple,NA,NA,NA,NA,NA,NA,NA,NA,NA,NaN,NA,3438,left,0,NA,NA,NA,NA,NA
GwjtZTOD,3z8ujejod2q8a85trwhk37uqvoc39x,3u5nzhp4lvfajnqte87libr7ocnhpe,GwjtZTOD,2020-0188,2021-10-31,16:41:00,18:26:26,NA,incomplete,false,NA,NA,true,2,13,NA,NA,NA,right,m_s_077.jpg,gray,yellow,NA,NA,NA,NA,NA,NA,NA,NA,NA,NaN,NA,2461.2000002861023,right,1,NA,NA,NA,NA,NA
GwjtZTOD,3z8ujejod2q8a85trwhk37uqvoc39x,3u5nzhp4lvfajnqte87libr7ocnhpe,GwjtZTOD,2020-0188,2021-10-31,16:41:00,18:26:26,NA,incomplete,false,NA,NA,true,2,14,NA,NA,NA,left,m_l_106.jpg,red,green,NA,NA,NA,NA,NA,NA,NA,NA,NA,NaN,NA,3403.2999997138977,left,1,NA,NA,NA,NA,NA
GwjtZTOD,3z8ujejod2q8a85trwhk37uqvoc39x,3u5nzhp4lvfajnqte87libr7ocnhpe,GwjtZTOD,2020-0188,2021-10-31,16:41:00,18:26:26,NA,incomplete,false,NA,NA,true,2,15,NA,NA,NA,left,n_s_024.jpg,green,gray,NA,NA,NA,NA,NA,NA,NA,NA,NA,NaN,NA,6145.200000286102,right,0,NA,NA,NA,NA,NA
GwjtZTOD,3z8ujejod2q8a85trwhk37uqvoc39x,3u5nzhp4lvfajnqte87libr7ocnhpe,GwjtZTOD,2020-0188,2021-10-31,16:41:00,18:26:26,NA,incomplete,false,NA,NA,true,2,16,NA,NA,NA,right,m_l_111.jpg,yellow,gray,NA,NA,NA,NA,NA,NA,NA,NA,NA,NaN,NA,3006.7999997138977,right,1,NA,NA,NA,NA,NA
GwjtZTOD,3z8ujejod2q8a85trwhk37uqvoc39x,3u5nzhp4lvfajnqte87libr7ocnhpe,GwjtZTOD,2020-0188,2021-10-31,16:41:00,18:26:26,NA,incomplete,false,NA,NA,true,2,17,NA,NA,NA,left,n_s_116.jpg,brown,purple,NA,NA,NA,NA,NA,NA,NA,NA,NA,NaN,NA,3806.4000000953674,left,1,NA,NA,NA,NA,NA
GwjtZTOD,3z8ujejod2q8a85trwhk37uqvoc39x,3u5nzhp4lvfajnqte87libr7ocnhpe,GwjtZTOD,2020-0188,2021-10-31,16:41:00,18:26:26,NA,incomplete,false,NA,NA,true,2,18,NA,NA,NA,left,n_l_113.jpg,green,red,NA,NA,NA,NA,NA,NA,NA,NA,NA,NaN,NA,2745.800000190735,left,1,NA,NA,NA,NA,NA
GwjtZTOD,3z8ujejod2q8a85trwhk37uqvoc39x,3u5nzhp4lvfajnqte87libr7ocnhpe,GwjtZTOD,2020-0188,2021-10-31,16:41:00,18:26:26,NA,incomplete,false,NA,NA,true,2,19,NA,NA,NA,right,m_s_075.jpg,purple,brown,NA,NA,NA,NA,NA,NA,NA,NA,NA,NaN,NA,4534.60000038147,right,1,NA,NA,NA,NA,NA
GwjtZTOD,3z8ujejod2q8a85trwhk37uqvoc39x,3u5nzhp4lvfajnqte87libr7ocnhpe,GwjtZTOD,2020-0188,2021-10-31,16:41:00,18:26:26,NA,incomplete,false,NA,NA,true,2,20,NA,NA,NA,left,m_s_068.jpg,yellow,gray,NA,NA,NA,NA,NA,NA,NA,NA,NA,NaN,NA,2998.4000000953674,left,1,NA,NA,NA,NA,NA
GwjtZTOD,3z8ujejod2q8a85trwhk37uqvoc39x,3u5nzhp4lvfajnqte87libr7ocnhpe,GwjtZTOD,2020-0188,2021-10-31,16:41:00,18:26:26,NA,incomplete,false,NA,NA,true,2,21,NA,NA,NA,right,m_s_087.jpg,purple,yellow,NA,NA,NA,NA,NA,NA,NA,NA,NA,NaN,NA,2786.0999999046326,right,1,NA,NA,NA,NA,NA
GwjtZTOD,3z8ujejod2q8a85trwhk37uqvoc39x,3u5nzhp4lvfajnqte87libr7ocnhpe,GwjtZTOD,2020-0188,2021-10-31,16:41:00,18:26:26,NA,incomplete,false,NA,true,NA,2,0,NA,NA,NA,left,NA,NA,NA,present,NA,NA,n_l_001.jpg,gray,m_l_108.jpg,gray,within,NA,NaN,NA,NA,NA,NA,left,5598.39999961853,1,0,3576.8999996185303
GwjtZTOD,3z8ujejod2q8a85trwhk37uqvoc39x,3u5nzhp4lvfajnqte87libr7ocnhpe,GwjtZTOD,2020-0188,2021-10-31,16:41:00,18:26:26,NA,incomplete,false,NA,true,NA,2,1,NA,NA,NA,left,NA,NA,NA,present,NA,NA,n_l_113.jpg,green,n_s_024.jpg,green,within,NA,NaN,NA,NA,NA,NA,left,3267.7999997138977,1,1,2187.5
GwjtZTOD,3z8ujejod2q8a85trwhk37uqvoc39x,3u5nzhp4lvfajnqte87libr7ocnhpe,GwjtZTOD,2020-0188,2021-10-31,16:41:00,18:26:26,NA,incomplete,false,NA,true,NA,2,2,NA,NA,NA,right,NA,NA,NA,present,NA,NA,n_s_027.jpg,green,m_l_106.jpg,red,between,NA,NaN,NA,NA,NA,NA,right,15331.099999904633,1,2,3230.1000003814697
GwjtZTOD,3z8ujejod2q8a85trwhk37uqvoc39x,3u5nzhp4lvfajnqte87libr7ocnhpe,GwjtZTOD,2020-0188,2021-10-31,16:41:00,18:26:26,NA,incomplete,false,NA,true,NA,2,3,NA,NA,NA,left,NA,NA,NA,present,NA,NA,n_s_079.jpg,brown,n_s_116.jpg,brown,within,NA,NaN,NA,NA,NA,NA,left,3847.4000000953674,1,0,2211.0999999046326
GwjtZTOD,3z8ujejod2q8a85trwhk37uqvoc39x,3u5nzhp4lvfajnqte87libr7ocnhpe,GwjtZTOD,2020-0188,2021-10-31,16:41:00,18:26:26,NA,incomplete,false,NA,true,NA,2,4,NA,NA,NA,left,NA,NA,NA,present,NA,NA,m_l_062.jpg,green,n_l_081.jpg,gray,between,NA,NaN,NA,NA,NA,NA,left,5305.5,1,2,3416
GwjtZTOD,3z8ujejod2q8a85trwhk37uqvoc39x,3u5nzhp4lvfajnqte87libr7ocnhpe,GwjtZTOD,2020-0188,2021-10-31,16:41:00,18:26:26,NA,incomplete,false,NA,true,NA,2,5,NA,NA,NA,right,NA,NA,NA,present,NA,NA,n_l_042.jpg,purple,m_s_087.jpg,yellow,between,NA,NaN,NA,NA,NA,NA,left,9740.199999809265,0,2,2379.5
GwjtZTOD,3z8ujejod2q8a85trwhk37uqvoc39x,3u5nzhp4lvfajnqte87libr7ocnhpe,GwjtZTOD,2020-0188,2021-10-31,16:41:00,18:26:26,NA,incomplete,false,NA,true,NA,2,6,NA,NA,NA,left,NA,NA,NA,present,NA,NA,m_s_077.jpg,yellow,n_l_013.jpg,yellow,within,NA,NaN,NA,NA,NA,NA,left,6819.10000038147,1,1,2593.699999809265
GwjtZTOD,3z8ujejod2q8a85trwhk37uqvoc39x,3u5nzhp4lvfajnqte87libr7ocnhpe,GwjtZTOD,2020-0188,2021-10-31,16:41:00,18:26:26,NA,incomplete,false,NA,true,NA,2,7,NA,NA,NA,left,NA,NA,NA,present,NA,NA,m_l_111.jpg,gray,m_s_068.jpg,yellow,between,NA,NaN,NA,NA,NA,NA,left,6219.099999904633,1,2,4259.699999809265
GwjtZTOD,3z8ujejod2q8a85trwhk37uqvoc39x,3u5nzhp4lvfajnqte87libr7ocnhpe,GwjtZTOD,2020-0188,2021-10-31,16:41:00,18:26:26,NA,incomplete,false,NA,true,NA,2,8,NA,NA,NA,right,NA,NA,NA,present,NA,NA,m_s_008.jpg,red,m_l_056.jpg,red,within,NA,NaN,NA,NA,NA,NA,right,8006.199999809265,1,0,2972.0999999046326
GwjtZTOD,3z8ujejod2q8a85trwhk37uqvoc39x,3u5nzhp4lvfajnqte87libr7ocnhpe,GwjtZTOD,2020-0188,2021-10-31,16:41:00,18:26:26,NA,incomplete,false,NA,true,NA,2,9,NA,NA,NA,right,NA,NA,NA,present,NA,NA,n_s_015.jpg,purple,m_s_063.jpg,purple,within,NA,NaN,NA,NA,NA,NA,right,5468.699999809265,1,1,2470.5999999046326
GwjtZTOD,3z8ujejod2q8a85trwhk37uqvoc39x,3u5nzhp4lvfajnqte87libr7ocnhpe,GwjtZTOD,2020-0188,2021-10-31,16:41:00,18:26:26,NA,incomplete,false,NA,true,NA,2,10,NA,NA,NA,right,NA,NA,NA,present,NA,NA,m_s_075.jpg,brown,m_s_057.jpg,purple,between,NA,NaN,NA,NA,NA,NA,right,5159.699999809265,1,2,2666
GwjtZTOD,3z8ujejod2q8a85trwhk37uqvoc39x,3u5nzhp4lvfajnqte87libr7ocnhpe,GwjtZTOD,2020-0188,2021-10-31,16:41:00,18:26:26,NA,incomplete,false,true,NA,NA,3,0,NA,gray,n_l_094.jpg,NA,NA,NA,NA,NA,pleasant,unpleasant,NA,NA,NA,NA,NA,left,3072.39999961853,true,NA,NA,NA,NA,NA,NA,NA,NA
GwjtZTOD,3z8ujejod2q8a85trwhk37uqvoc39x,3u5nzhp4lvfajnqte87libr7ocnhpe,GwjtZTOD,2020-0188,2021-10-31,16:41:00,18:26:26,NA,incomplete,false,true,NA,NA,3,1,NA,gray,m_s_026.jpg,NA,NA,NA,NA,NA,unpleasant,pleasant,NA,NA,NA,NA,NA,right,2408.19999980927,true,NA,NA,NA,NA,NA,NA,NA,NA
GwjtZTOD,3z8ujejod2q8a85trwhk37uqvoc39x,3u5nzhp4lvfajnqte87libr7ocnhpe,GwjtZTOD,2020-0188,2021-10-31,16:41:00,18:26:26,NA,incomplete,false,true,NA,NA,3,2,NA,gray,m_l_098.jpg,NA,NA,NA,NA,NA,pleasant,unpleasant,NA,NA,NA,NA,NA,left,1543.59999990463,true,NA,NA,NA,NA,NA,NA,NA,NA
GwjtZTOD,3z8ujejod2q8a85trwhk37uqvoc39x,3u5nzhp4lvfajnqte87libr7ocnhpe,GwjtZTOD,2020-0188,2021-10-31,16:41:00,18:26:26,NA,incomplete,false,true,NA,NA,3,3,NA,gray,n_s_012.jpg,NA,NA,NA,NA,NA,unpleasant,pleasant,NA,NA,NA,NA,NA,right,1701.69999980927,true,NA,NA,NA,NA,NA,NA,NA,NA
GwjtZTOD,3z8ujejod2q8a85trwhk37uqvoc39x,3u5nzhp4lvfajnqte87libr7ocnhpe,GwjtZTOD,2020-0188,2021-10-31,16:41:00,18:26:26,NA,incomplete,false,true,NA,NA,3,4,NA,gray,n_l_105.jpg,NA,NA,NA,NA,NA,pleasant,unpleasant,NA,NA,NA,NA,NA,left,2510.40000009537,true,NA,NA,NA,NA,NA,NA,NA,NA
GwjtZTOD,3z8ujejod2q8a85trwhk37uqvoc39x,3u5nzhp4lvfajnqte87libr7ocnhpe,GwjtZTOD,2020-0188,2021-10-31,16:41:00,18:26:26,NA,incomplete,false,true,NA,NA,3,5,NA,gray,n_l_086.jpg,NA,NA,NA,NA,NA,pleasant,unpleasant,NA,NA,NA,NA,NA,left,2172.2000002861,true,NA,NA,NA,NA,NA,NA,NA,NA
GwjtZTOD,3z8ujejod2q8a85trwhk37uqvoc39x,3u5nzhp4lvfajnqte87libr7ocnhpe,GwjtZTOD,2020-0188,2021-10-31,16:41:00,18:26:26,NA,incomplete,false,true,NA,NA,3,6,NA,orange,n_s_053.jpg,NA,NA,NA,NA,NA,pleasant,unpleasant,NA,NA,NA,NA,NA,left,3044.59999990463,true,NA,NA,NA,NA,NA,NA,NA,NA
GwjtZTOD,3z8ujejod2q8a85trwhk37uqvoc39x,3u5nzhp4lvfajnqte87libr7ocnhpe,GwjtZTOD,2020-0188,2021-10-31,16:41:00,18:26:26,NA,incomplete,false,true,NA,NA,3,7,NA,orange,n_s_048.jpg,NA,NA,NA,NA,NA,unpleasant,pleasant,NA,NA,NA,NA,NA,right,1637.5,true,NA,NA,NA,NA,NA,NA,NA,NA
GwjtZTOD,3z8ujejod2q8a85trwhk37uqvoc39x,3u5nzhp4lvfajnqte87libr7ocnhpe,GwjtZTOD,2020-0188,2021-10-31,16:41:00,18:26:26,NA,incomplete,false,true,NA,NA,3,8,NA,orange,m_s_024.jpg,NA,NA,NA,NA,NA,unpleasant,pleasant,NA,NA,NA,NA,NA,left,2197.69999980927,true,NA,NA,NA,NA,NA,NA,NA,NA
GwjtZTOD,3z8ujejod2q8a85trwhk37uqvoc39x,3u5nzhp4lvfajnqte87libr7ocnhpe,GwjtZTOD,2020-0188,2021-10-31,16:41:00,18:26:26,NA,incomplete,false,true,NA,NA,3,9,NA,orange,m_l_012.jpg,NA,NA,NA,NA,NA,unpleasant,pleasant,NA,NA,NA,NA,NA,left,2677.90000009537,true,NA,NA,NA,NA,NA,NA,NA,NA
GwjtZTOD,3z8ujejod2q8a85trwhk37uqvoc39x,3u5nzhp4lvfajnqte87libr7ocnhpe,GwjtZTOD,2020-0188,2021-10-31,16:41:00,18:26:26,NA,incomplete,false,true,NA,NA,3,10,NA,orange,n_l_064.jpg,NA,NA,NA,NA,NA,pleasant,unpleasant,NA,NA,NA,NA,NA,left,1757.7000002861,true,NA,NA,NA,NA,NA,NA,NA,NA
GwjtZTOD,3z8ujejod2q8a85trwhk37uqvoc39x,3u5nzhp4lvfajnqte87libr7ocnhpe,GwjtZTOD,2020-0188,2021-10-31,16:41:00,18:26:26,NA,incomplete,false,true,NA,NA,3,11,NA,orange,n_l_026.jpg,NA,NA,NA,NA,NA,pleasant,unpleasant,NA,NA,NA,NA,NA,left,2071.09999990463,true,NA,NA,NA,NA,NA,NA,NA,NA
GwjtZTOD,3z8ujejod2q8a85trwhk37uqvoc39x,3u5nzhp4lvfajnqte87libr7ocnhpe,GwjtZTOD,2020-0188,2021-10-31,16:41:00,18:26:26,NA,incomplete,false,true,NA,NA,3,12,NA,red,m_s_014.jpg,NA,NA,NA,NA,NA,unpleasant,pleasant,NA,NA,NA,NA,NA,left,3457.40000009537,true,NA,NA,NA,NA,NA,NA,NA,NA
GwjtZTOD,3z8ujejod2q8a85trwhk37uqvoc39x,3u5nzhp4lvfajnqte87libr7ocnhpe,GwjtZTOD,2020-0188,2021-10-31,16:41:00,18:26:26,NA,incomplete,false,true,NA,NA,3,13,NA,red,n_l_034.jpg,NA,NA,NA,NA,NA,pleasant,unpleasant,NA,NA,NA,NA,NA,right,1452.7000002861,true,NA,NA,NA,NA,NA,NA,NA,NA
GwjtZTOD,3z8ujejod2q8a85trwhk37uqvoc39x,3u5nzhp4lvfajnqte87libr7ocnhpe,GwjtZTOD,2020-0188,2021-10-31,16:41:00,18:26:26,NA,incomplete,false,true,NA,NA,3,14,NA,red,n_l_092.jpg,NA,NA,NA,NA,NA,pleasant,unpleasant,NA,NA,NA,NA,NA,right,1603.90000009537,true,NA,NA,NA,NA,NA,NA,NA,NA
GwjtZTOD,3z8ujejod2q8a85trwhk37uqvoc39x,3u5nzhp4lvfajnqte87libr7ocnhpe,GwjtZTOD,2020-0188,2021-10-31,16:41:00,18:26:26,NA,incomplete,false,true,NA,NA,3,15,NA,red,m_l_082.jpg,NA,NA,NA,NA,NA,unpleasant,pleasant,NA,NA,NA,NA,NA,right,2394.19999980927,true,NA,NA,NA,NA,NA,NA,NA,NA
GwjtZTOD,3z8ujejod2q8a85trwhk37uqvoc39x,3u5nzhp4lvfajnqte87libr7ocnhpe,GwjtZTOD,2020-0188,2021-10-31,16:41:00,18:26:26,NA,incomplete,false,true,NA,NA,3,16,NA,red,m_l_064.jpg,NA,NA,NA,NA,NA,unpleasant,pleasant,NA,NA,NA,NA,NA,right,1589,true,NA,NA,NA,NA,NA,NA,NA,NA
GwjtZTOD,3z8ujejod2q8a85trwhk37uqvoc39x,3u5nzhp4lvfajnqte87libr7ocnhpe,GwjtZTOD,2020-0188,2021-10-31,16:41:00,18:26:26,NA,incomplete,false,true,NA,NA,3,17,NA,red,n_s_023.jpg,NA,NA,NA,NA,NA,pleasant,unpleasant,NA,NA,NA,NA,NA,left,1762.69999980927,true,NA,NA,NA,NA,NA,NA,NA,NA
GwjtZTOD,3z8ujejod2q8a85trwhk37uqvoc39x,3u5nzhp4lvfajnqte87libr7ocnhpe,GwjtZTOD,2020-0188,2021-10-31,16:41:00,18:26:26,NA,incomplete,false,true,NA,NA,3,18,NA,green,n_l_073.jpg,NA,NA,NA,NA,NA,unpleasant,pleasant,NA,NA,NA,NA,NA,right,1767.7000002861,true,NA,NA,NA,NA,NA,NA,NA,NA
GwjtZTOD,3z8ujejod2q8a85trwhk37uqvoc39x,3u5nzhp4lvfajnqte87libr7ocnhpe,GwjtZTOD,2020-0188,2021-10-31,16:41:00,18:26:26,NA,incomplete,false,true,NA,NA,3,19,NA,green,n_l_079.jpg,NA,NA,NA,NA,NA,pleasant,unpleasant,NA,NA,NA,NA,NA,left,1613.7999997139,true,NA,NA,NA,NA,NA,NA,NA,NA
GwjtZTOD,3z8ujejod2q8a85trwhk37uqvoc39x,3u5nzhp4lvfajnqte87libr7ocnhpe,GwjtZTOD,2020-0188,2021-10-31,16:41:00,18:26:26,NA,incomplete,false,true,NA,NA,3,20,NA,green,m_l_079.jpg,NA,NA,NA,NA,NA,unpleasant,pleasant,NA,NA,NA,NA,NA,right,3325.69999980927,true,NA,NA,NA,NA,NA,NA,NA,NA
GwjtZTOD,3z8ujejod2q8a85trwhk37uqvoc39x,3u5nzhp4lvfajnqte87libr7ocnhpe,GwjtZTOD,2020-0188,2021-10-31,16:41:00,18:26:26,NA,incomplete,false,true,NA,NA,3,21,NA,green,n_s_058.jpg,NA,NA,NA,NA,NA,unpleasant,pleasant,NA,NA,NA,NA,NA,right,1495.59999990463,true,NA,NA,NA,NA,NA,NA,NA,NA
GwjtZTOD,3z8ujejod2q8a85trwhk37uqvoc39x,3u5nzhp4lvfajnqte87libr7ocnhpe,GwjtZTOD,2020-0188,2021-10-31,16:41:00,18:26:26,NA,incomplete,false,true,NA,NA,3,22,NA,green,n_s_042.jpg,NA,NA,NA,NA,NA,unpleasant,pleasant,NA,NA,NA,NA,NA,right,2019.2999997139,true,NA,NA,NA,NA,NA,NA,NA,NA
GwjtZTOD,3z8ujejod2q8a85trwhk37uqvoc39x,3u5nzhp4lvfajnqte87libr7ocnhpe,GwjtZTOD,2020-0188,2021-10-31,16:41:00,18:26:26,NA,incomplete,false,true,NA,NA,3,23,NA,green,m_l_034.jpg,NA,NA,NA,NA,NA,unpleasant,pleasant,NA,NA,NA,NA,NA,right,1595.40000009537,true,NA,NA,NA,NA,NA,NA,NA,NA
GwjtZTOD,3z8ujejod2q8a85trwhk37uqvoc39x,3u5nzhp4lvfajnqte87libr7ocnhpe,GwjtZTOD,2020-0188,2021-10-31,16:41:00,18:26:26,NA,incomplete,false,true,NA,NA,3,24,NA,brown,n_s_076.jpg,NA,NA,NA,NA,NA,unpleasant,pleasant,NA,NA,NA,NA,NA,left,3056.90000009537,true,NA,NA,NA,NA,NA,NA,NA,NA
GwjtZTOD,3z8ujejod2q8a85trwhk37uqvoc39x,3u5nzhp4lvfajnqte87libr7ocnhpe,GwjtZTOD,2020-0188,2021-10-31,16:41:00,18:26:26,NA,incomplete,false,true,NA,NA,3,25,NA,brown,m_l_109.jpg,NA,NA,NA,NA,NA,unpleasant,pleasant,NA,NA,NA,NA,NA,left,1114.80000019073,true,NA,NA,NA,NA,NA,NA,NA,NA
GwjtZTOD,3z8ujejod2q8a85trwhk37uqvoc39x,3u5nzhp4lvfajnqte87libr7ocnhpe,GwjtZTOD,2020-0188,2021-10-31,16:41:00,18:26:26,NA,incomplete,false,true,NA,NA,3,26,NA,brown,n_s_097.jpg,NA,NA,NA,NA,NA,unpleasant,pleasant,NA,NA,NA,NA,NA,right,1305.2000002861,true,NA,NA,NA,NA,NA,NA,NA,NA
GwjtZTOD,3z8ujejod2q8a85trwhk37uqvoc39x,3u5nzhp4lvfajnqte87libr7ocnhpe,GwjtZTOD,2020-0188,2021-10-31,16:41:00,18:26:26,NA,incomplete,false,true,NA,NA,3,27,NA,brown,n_l_101.jpg,NA,NA,NA,NA,NA,unpleasant,pleasant,NA,NA,NA,NA,NA,left,2853,true,NA,NA,NA,NA,NA,NA,NA,NA
GwjtZTOD,3z8ujejod2q8a85trwhk37uqvoc39x,3u5nzhp4lvfajnqte87libr7ocnhpe,GwjtZTOD,2020-0188,2021-10-31,16:41:00,18:26:26,NA,incomplete,false,true,NA,NA,3,28,NA,brown,m_l_083.jpg,NA,NA,NA,NA,NA,pleasant,unpleasant,NA,NA,NA,NA,NA,right,2979.2000002861,true,NA,NA,NA,NA,NA,NA,NA,NA
GwjtZTOD,3z8ujejod2q8a85trwhk37uqvoc39x,3u5nzhp4lvfajnqte87libr7ocnhpe,GwjtZTOD,2020-0188,2021-10-31,16:41:00,18:26:26,NA,incomplete,false,true,NA,NA,3,29,NA,brown,m_l_024.jpg,NA,NA,NA,NA,NA,pleasant,unpleasant,NA,NA,NA,NA,NA,right,2006.19999980927,true,NA,NA,NA,NA,NA,NA,NA,NA
GwjtZTOD,3z8ujejod2q8a85trwhk37uqvoc39x,3u5nzhp4lvfajnqte87libr7ocnhpe,GwjtZTOD,2020-0188,2021-10-31,16:41:00,18:26:26,NA,incomplete,false,true,NA,NA,3,30,NA,white,n_s_071.jpg,NA,NA,NA,NA,NA,unpleasant,pleasant,NA,NA,NA,NA,NA,none,0,false,NA,NA,NA,NA,NA,NA,NA,NA
GwjtZTOD,3z8ujejod2q8a85trwhk37uqvoc39x,3u5nzhp4lvfajnqte87libr7ocnhpe,GwjtZTOD,2020-0188,2021-10-31,16:41:00,18:26:26,NA,incomplete,false,true,NA,NA,3,31,NA,white,m_s_004.jpg,NA,NA,NA,NA,NA,pleasant,unpleasant,NA,NA,NA,NA,NA,left,1453.59999990463,true,NA,NA,NA,NA,NA,NA,NA,NA
GwjtZTOD,3z8ujejod2q8a85trwhk37uqvoc39x,3u5nzhp4lvfajnqte87libr7ocnhpe,GwjtZTOD,2020-0188,2021-10-31,16:41:00,18:26:26,NA,incomplete,false,true,NA,NA,3,32,NA,white,n_s_018.jpg,NA,NA,NA,NA,NA,unpleasant,pleasant,NA,NA,NA,NA,NA,right,1629.90000009537,true,NA,NA,NA,NA,NA,NA,NA,NA
GwjtZTOD,3z8ujejod2q8a85trwhk37uqvoc39x,3u5nzhp4lvfajnqte87libr7ocnhpe,GwjtZTOD,2020-0188,2021-10-31,16:41:00,18:26:26,NA,incomplete,false,true,NA,NA,3,33,NA,white,m_l_085.jpg,NA,NA,NA,NA,NA,pleasant,unpleasant,NA,NA,NA,NA,NA,left,1555.7000002861,true,NA,NA,NA,NA,NA,NA,NA,NA
GwjtZTOD,3z8ujejod2q8a85trwhk37uqvoc39x,3u5nzhp4lvfajnqte87libr7ocnhpe,GwjtZTOD,2020-0188,2021-10-31,16:41:00,18:26:26,NA,incomplete,false,true,NA,NA,3,34,NA,white,m_s_105.jpg,NA,NA,NA,NA,NA,unpleasant,pleasant,NA,NA,NA,NA,NA,right,1579.19999980927,true,NA,NA,NA,NA,NA,NA,NA,NA
GwjtZTOD,3z8ujejod2q8a85trwhk37uqvoc39x,3u5nzhp4lvfajnqte87libr7ocnhpe,GwjtZTOD,2020-0188,2021-10-31,16:41:00,18:26:26,NA,incomplete,false,true,NA,NA,3,35,NA,white,n_s_075.jpg,NA,NA,NA,NA,NA,pleasant,unpleasant,NA,NA,NA,NA,NA,left,1773.39999961853,true,NA,NA,NA,NA,NA,NA,NA,NA
GwjtZTOD,3z8ujejod2q8a85trwhk37uqvoc39x,3u5nzhp4lvfajnqte87libr7ocnhpe,GwjtZTOD,2020-0188,2021-10-31,16:41:00,18:26:26,NA,incomplete,false,NA,NA,true,3,0,NA,NA,NA,right,n_l_086.jpg,orange,gray,NA,NA,NA,NA,NA,NA,NA,NA,NA,NaN,NA,3040.7000002861023,right,1,NA,NA,NA,NA,NA
GwjtZTOD,3z8ujejod2q8a85trwhk37uqvoc39x,3u5nzhp4lvfajnqte87libr7ocnhpe,GwjtZTOD,2020-0188,2021-10-31,16:41:00,18:26:26,NA,incomplete,false,NA,NA,true,3,1,NA,NA,NA,left,n_l_034.jpg,red,green,NA,NA,NA,NA,NA,NA,NA,NA,NA,NaN,NA,2584.1000003814697,right,0,NA,NA,NA,NA,NA
GwjtZTOD,3z8ujejod2q8a85trwhk37uqvoc39x,3u5nzhp4lvfajnqte87libr7ocnhpe,GwjtZTOD,2020-0188,2021-10-31,16:41:00,18:26:26,NA,incomplete,false,NA,NA,true,3,2,NA,NA,NA,left,n_s_097.jpg,brown,green,NA,NA,NA,NA,NA,NA,NA,NA,NA,NaN,NA,2753.300000190735,left,1,NA,NA,NA,NA,NA
GwjtZTOD,3z8ujejod2q8a85trwhk37uqvoc39x,3u5nzhp4lvfajnqte87libr7ocnhpe,GwjtZTOD,2020-0188,2021-10-31,16:41:00,18:26:26,NA,incomplete,false,NA,NA,true,3,3,NA,NA,NA,right,n_s_048.jpg,gray,orange,NA,NA,NA,NA,NA,NA,NA,NA,NA,NaN,NA,3738.2999997138977,right,1,NA,NA,NA,NA,NA
GwjtZTOD,3z8ujejod2q8a85trwhk37uqvoc39x,3u5nzhp4lvfajnqte87libr7ocnhpe,GwjtZTOD,2020-0188,2021-10-31,16:41:00,18:26:26,NA,incomplete,false,NA,NA,true,3,4,NA,NA,NA,left,n_s_075.jpg,white,brown,NA,NA,NA,NA,NA,NA,NA,NA,NA,NaN,NA,4601.799999713898,left,1,NA,NA,NA,NA,NA
GwjtZTOD,3z8ujejod2q8a85trwhk37uqvoc39x,3u5nzhp4lvfajnqte87libr7ocnhpe,GwjtZTOD,2020-0188,2021-10-31,16:41:00,18:26:26,NA,incomplete,false,NA,NA,true,3,5,NA,NA,NA,left,n_l_026.jpg,orange,red,NA,NA,NA,NA,NA,NA,NA,NA,NA,NaN,NA,4113.199999809265,left,1,NA,NA,NA,NA,NA
GwjtZTOD,3z8ujejod2q8a85trwhk37uqvoc39x,3u5nzhp4lvfajnqte87libr7ocnhpe,GwjtZTOD,2020-0188,2021-10-31,16:41:00,18:26:26,NA,incomplete,false,NA,NA,true,3,6,NA,NA,NA,left,m_l_034.jpg,green,brown,NA,NA,NA,NA,NA,NA,NA,NA,NA,NaN,NA,8535.700000286102,right,0,NA,NA,NA,NA,NA
GwjtZTOD,3z8ujejod2q8a85trwhk37uqvoc39x,3u5nzhp4lvfajnqte87libr7ocnhpe,GwjtZTOD,2020-0188,2021-10-31,16:41:00,18:26:26,NA,incomplete,false,NA,NA,true,3,7,NA,NA,NA,left,n_l_105.jpg,gray,orange,NA,NA,NA,NA,NA,NA,NA,NA,NA,NaN,NA,2971.7999997138977,left,1,NA,NA,NA,NA,NA
GwjtZTOD,3z8ujejod2q8a85trwhk37uqvoc39x,3u5nzhp4lvfajnqte87libr7ocnhpe,GwjtZTOD,2020-0188,2021-10-31,16:41:00,18:26:26,NA,incomplete,false,NA,NA,true,3,8,NA,NA,NA,right,n_s_023.jpg,orange,red,NA,NA,NA,NA,NA,NA,NA,NA,NA,NaN,NA,2150,right,1,NA,NA,NA,NA,NA
GwjtZTOD,3z8ujejod2q8a85trwhk37uqvoc39x,3u5nzhp4lvfajnqte87libr7ocnhpe,GwjtZTOD,2020-0188,2021-10-31,16:41:00,18:26:26,NA,incomplete,false,NA,NA,true,3,9,NA,NA,NA,left,n_l_092.jpg,red,orange,NA,NA,NA,NA,NA,NA,NA,NA,NA,NaN,NA,2802.9000000953674,right,0,NA,NA,NA,NA,NA
GwjtZTOD,3z8ujejod2q8a85trwhk37uqvoc39x,3u5nzhp4lvfajnqte87libr7ocnhpe,GwjtZTOD,2020-0188,2021-10-31,16:41:00,18:26:26,NA,incomplete,false,NA,NA,true,3,10,NA,NA,NA,right,m_l_083.jpg,white,brown,NA,NA,NA,NA,NA,NA,NA,NA,NA,NaN,NA,4704.300000190735,right,1,NA,NA,NA,NA,NA
GwjtZTOD,3z8ujejod2q8a85trwhk37uqvoc39x,3u5nzhp4lvfajnqte87libr7ocnhpe,GwjtZTOD,2020-0188,2021-10-31,16:41:00,18:26:26,NA,incomplete,false,NA,NA,true,3,11,NA,NA,NA,left,n_l_064.jpg,orange,red,NA,NA,NA,NA,NA,NA,NA,NA,NA,NaN,NA,3832.7000002861023,left,1,NA,NA,NA,NA,NA
GwjtZTOD,3z8ujejod2q8a85trwhk37uqvoc39x,3u5nzhp4lvfajnqte87libr7ocnhpe,GwjtZTOD,2020-0188,2021-10-31,16:41:00,18:26:26,NA,incomplete,false,NA,NA,true,3,12,NA,NA,NA,right,m_s_026.jpg,orange,gray,NA,NA,NA,NA,NA,NA,NA,NA,NA,NaN,NA,4914.699999809265,right,1,NA,NA,NA,NA,NA
GwjtZTOD,3z8ujejod2q8a85trwhk37uqvoc39x,3u5nzhp4lvfajnqte87libr7ocnhpe,GwjtZTOD,2020-0188,2021-10-31,16:41:00,18:26:26,NA,incomplete,false,NA,NA,true,3,13,NA,NA,NA,right,m_s_024.jpg,red,orange,NA,NA,NA,NA,NA,NA,NA,NA,NA,NaN,NA,2605.5999999046326,right,1,NA,NA,NA,NA,NA
GwjtZTOD,3z8ujejod2q8a85trwhk37uqvoc39x,3u5nzhp4lvfajnqte87libr7ocnhpe,GwjtZTOD,2020-0188,2021-10-31,16:41:00,18:26:26,NA,incomplete,false,NA,NA,true,3,14,NA,NA,NA,right,n_s_018.jpg,brown,white,NA,NA,NA,NA,NA,NA,NA,NA,NA,NaN,NA,4497.200000286102,right,1,NA,NA,NA,NA,NA
GwjtZTOD,3z8ujejod2q8a85trwhk37uqvoc39x,3u5nzhp4lvfajnqte87libr7ocnhpe,GwjtZTOD,2020-0188,2021-10-31,16:41:00,18:26:26,NA,incomplete,false,NA,NA,true,3,15,NA,NA,NA,right,m_l_024.jpg,green,brown,NA,NA,NA,NA,NA,NA,NA,NA,NA,NaN,NA,3550.9000000953674,right,1,NA,NA,NA,NA,NA
GwjtZTOD,3z8ujejod2q8a85trwhk37uqvoc39x,3u5nzhp4lvfajnqte87libr7ocnhpe,GwjtZTOD,2020-0188,2021-10-31,16:41:00,18:26:26,NA,incomplete,false,NA,NA,true,3,16,NA,NA,NA,right,m_l_064.jpg,green,red,NA,NA,NA,NA,NA,NA,NA,NA,NA,NaN,NA,2478,right,1,NA,NA,NA,NA,NA
GwjtZTOD,3z8ujejod2q8a85trwhk37uqvoc39x,3u5nzhp4lvfajnqte87libr7ocnhpe,GwjtZTOD,2020-0188,2021-10-31,16:41:00,18:26:26,NA,incomplete,false,NA,NA,true,3,17,NA,NA,NA,right,m_l_079.jpg,brown,green,NA,NA,NA,NA,NA,NA,NA,NA,NA,NaN,NA,2168.4000000953674,right,1,NA,NA,NA,NA,NA
GwjtZTOD,3z8ujejod2q8a85trwhk37uqvoc39x,3u5nzhp4lvfajnqte87libr7ocnhpe,GwjtZTOD,2020-0188,2021-10-31,16:41:00,18:26:26,NA,incomplete,false,NA,NA,true,3,18,NA,NA,NA,right,m_s_004.jpg,brown,white,NA,NA,NA,NA,NA,NA,NA,NA,NA,NaN,NA,5762.400000095367,left,0,NA,NA,NA,NA,NA
GwjtZTOD,3z8ujejod2q8a85trwhk37uqvoc39x,3u5nzhp4lvfajnqte87libr7ocnhpe,GwjtZTOD,2020-0188,2021-10-31,16:41:00,18:26:26,NA,incomplete,false,NA,NA,true,3,19,NA,NA,NA,right,m_l_109.jpg,white,brown,NA,NA,NA,NA,NA,NA,NA,NA,NA,NaN,NA,4487.900000095367,right,1,NA,NA,NA,NA,NA
GwjtZTOD,3z8ujejod2q8a85trwhk37uqvoc39x,3u5nzhp4lvfajnqte87libr7ocnhpe,GwjtZTOD,2020-0188,2021-10-31,16:41:00,18:26:26,NA,incomplete,false,NA,NA,true,3,20,NA,NA,NA,right,n_l_079.jpg,red,green,NA,NA,NA,NA,NA,NA,NA,NA,NA,NaN,NA,2510.2000002861023,right,1,NA,NA,NA,NA,NA
GwjtZTOD,3z8ujejod2q8a85trwhk37uqvoc39x,3u5nzhp4lvfajnqte87libr7ocnhpe,GwjtZTOD,2020-0188,2021-10-31,16:41:00,18:26:26,NA,incomplete,false,NA,NA,true,3,21,NA,NA,NA,right,n_s_042.jpg,brown,green,NA,NA,NA,NA,NA,NA,NA,NA,NA,NaN,NA,5285.400000095367,left,0,NA,NA,NA,NA,NA
GwjtZTOD,3z8ujejod2q8a85trwhk37uqvoc39x,3u5nzhp4lvfajnqte87libr7ocnhpe,GwjtZTOD,2020-0188,2021-10-31,16:41:00,18:26:26,NA,incomplete,false,NA,true,NA,3,0,NA,NA,NA,right,NA,NA,NA,present,NA,NA,m_l_034.jpg,green,n_l_079.jpg,green,within,NA,NaN,NA,NA,NA,NA,left,9759.199999809265,0,0,3945.5999999046326
GwjtZTOD,3z8ujejod2q8a85trwhk37uqvoc39x,3u5nzhp4lvfajnqte87libr7ocnhpe,GwjtZTOD,2020-0188,2021-10-31,16:41:00,18:26:26,NA,incomplete,false,NA,true,NA,3,1,NA,NA,NA,left,NA,NA,NA,present,NA,NA,n_l_064.jpg,orange,n_l_092.jpg,red,between,NA,NaN,NA,NA,NA,NA,left,5865.699999809265,1,2,2894.4000000953674
GwjtZTOD,3z8ujejod2q8a85trwhk37uqvoc39x,3u5nzhp4lvfajnqte87libr7ocnhpe,GwjtZTOD,2020-0188,2021-10-31,16:41:00,18:26:26,NA,incomplete,false,NA,true,NA,3,2,NA,NA,NA,right,NA,NA,NA,present,NA,NA,n_l_026.jpg,orange,n_s_048.jpg,orange,within,NA,NaN,NA,NA,NA,NA,right,6765.900000095367,1,1,2807
GwjtZTOD,3z8ujejod2q8a85trwhk37uqvoc39x,3u5nzhp4lvfajnqte87libr7ocnhpe,GwjtZTOD,2020-0188,2021-10-31,16:41:00,18:26:26,NA,incomplete,false,NA,true,NA,3,3,NA,NA,NA,left,NA,NA,NA,present,NA,NA,n_l_105.jpg,gray,m_s_024.jpg,orange,between,NA,NaN,NA,NA,NA,NA,left,3430.3999996185303,1,2,5137.599999904633
GwjtZTOD,3z8ujejod2q8a85trwhk37uqvoc39x,3u5nzhp4lvfajnqte87libr7ocnhpe,GwjtZTOD,2020-0188,2021-10-31,16:41:00,18:26:26,NA,incomplete,false,NA,true,NA,3,4,NA,NA,NA,right,NA,NA,NA,present,NA,NA,n_s_018.jpg,white,m_l_083.jpg,brown,between,NA,NaN,NA,NA,NA,NA,right,2702.300000190735,1,2,2839.4000000953674
GwjtZTOD,3z8ujejod2q8a85trwhk37uqvoc39x,3u5nzhp4lvfajnqte87libr7ocnhpe,GwjtZTOD,2020-0188,2021-10-31,16:41:00,18:26:26,NA,incomplete,false,NA,true,NA,3,5,NA,NA,NA,left,NA,NA,NA,present,NA,NA,n_l_034.jpg,red,n_s_023.jpg,red,within,NA,NaN,NA,NA,NA,NA,left,4915.10000038147,1,1,2574.199999809265
GwjtZTOD,3z8ujejod2q8a85trwhk37uqvoc39x,3u5nzhp4lvfajnqte87libr7ocnhpe,GwjtZTOD,2020-0188,2021-10-31,16:41:00,18:26:26,NA,incomplete,false,NA,true,NA,3,6,NA,NA,NA,left,NA,NA,NA,present,NA,NA,m_s_004.jpg,white,n_s_075.jpg,white,within,NA,NaN,NA,NA,NA,NA,left,3638,1,1,4151.300000190735
GwjtZTOD,3z8ujejod2q8a85trwhk37uqvoc39x,3u5nzhp4lvfajnqte87libr7ocnhpe,GwjtZTOD,2020-0188,2021-10-31,16:41:00,18:26:26,NA,incomplete,false,NA,true,NA,3,7,NA,NA,NA,right,NA,NA,NA,present,NA,NA,m_l_079.jpg,green,m_l_064.jpg,red,between,NA,NaN,NA,NA,NA,NA,left,7789.599999904633,0,2,3099.2000002861023
GwjtZTOD,3z8ujejod2q8a85trwhk37uqvoc39x,3u5nzhp4lvfajnqte87libr7ocnhpe,GwjtZTOD,2020-0188,2021-10-31,16:41:00,18:26:26,NA,incomplete,false,NA,true,NA,3,8,NA,NA,NA,left,NA,NA,NA,present,NA,NA,n_s_042.jpg,green,n_s_097.jpg,brown,between,NA,NaN,NA,NA,NA,NA,right,5954,0,2,3669
GwjtZTOD,3z8ujejod2q8a85trwhk37uqvoc39x,3u5nzhp4lvfajnqte87libr7ocnhpe,GwjtZTOD,2020-0188,2021-10-31,16:41:00,18:26:26,NA,incomplete,false,NA,true,NA,3,9,NA,NA,NA,left,NA,NA,NA,present,NA,NA,m_s_026.jpg,gray,n_l_086.jpg,gray,within,NA,NaN,NA,NA,NA,NA,left,3752.699999809265,1,0,2693.300000190735
GwjtZTOD,3z8ujejod2q8a85trwhk37uqvoc39x,3u5nzhp4lvfajnqte87libr7ocnhpe,GwjtZTOD,2020-0188,2021-10-31,16:41:00,18:26:26,NA,incomplete,false,NA,true,NA,3,10,NA,NA,NA,left,NA,NA,NA,present,NA,NA,m_l_109.jpg,brown,m_l_024.jpg,brown,within,NA,NaN,NA,NA,NA,NA,left,3241.8999996185303,1,1,3009
GwjtZTOD,3z8ujejod2q8a85trwhk37uqvoc39x,3u5nzhp4lvfajnqte87libr7ocnhpe,GwjtZTOD,2020-0188,2021-10-31,16:41:00,18:26:26,NA,incomplete,false,true,NA,NA,4,0,NA,green,m_s_070.jpg,NA,NA,NA,NA,NA,pleasant,unpleasant,NA,NA,NA,NA,NA,right,2400.80000019073,true,NA,NA,NA,NA,NA,NA,NA,NA
GwjtZTOD,3z8ujejod2q8a85trwhk37uqvoc39x,3u5nzhp4lvfajnqte87libr7ocnhpe,GwjtZTOD,2020-0188,2021-10-31,16:41:00,18:26:26,NA,incomplete,false,true,NA,NA,4,1,NA,green,m_l_029.jpg,NA,NA,NA,NA,NA,unpleasant,pleasant,NA,NA,NA,NA,NA,right,2309.59999990463,true,NA,NA,NA,NA,NA,NA,NA,NA
GwjtZTOD,3z8ujejod2q8a85trwhk37uqvoc39x,3u5nzhp4lvfajnqte87libr7ocnhpe,GwjtZTOD,2020-0188,2021-10-31,16:41:00,18:26:26,NA,incomplete,false,true,NA,NA,4,2,NA,green,n_l_040.jpg,NA,NA,NA,NA,NA,pleasant,unpleasant,NA,NA,NA,NA,NA,left,1480.2999997139,true,NA,NA,NA,NA,NA,NA,NA,NA
GwjtZTOD,3z8ujejod2q8a85trwhk37uqvoc39x,3u5nzhp4lvfajnqte87libr7ocnhpe,GwjtZTOD,2020-0188,2021-10-31,16:41:00,18:26:26,NA,incomplete,false,true,NA,NA,4,3,NA,green,n_l_067.jpg,NA,NA,NA,NA,NA,pleasant,unpleasant,NA,NA,NA,NA,NA,left,2537.7000002861,true,NA,NA,NA,NA,NA,NA,NA,NA
GwjtZTOD,3z8ujejod2q8a85trwhk37uqvoc39x,3u5nzhp4lvfajnqte87libr7ocnhpe,GwjtZTOD,2020-0188,2021-10-31,16:41:00,18:26:26,NA,incomplete,false,true,NA,NA,4,4,NA,green,m_l_033.jpg,NA,NA,NA,NA,NA,unpleasant,pleasant,NA,NA,NA,NA,NA,right,2094,true,NA,NA,NA,NA,NA,NA,NA,NA
GwjtZTOD,3z8ujejod2q8a85trwhk37uqvoc39x,3u5nzhp4lvfajnqte87libr7ocnhpe,GwjtZTOD,2020-0188,2021-10-31,16:41:00,18:26:26,NA,incomplete,false,true,NA,NA,4,5,NA,green,m_l_104.jpg,NA,NA,NA,NA,NA,unpleasant,pleasant,NA,NA,NA,NA,NA,right,1745.5,true,NA,NA,NA,NA,NA,NA,NA,NA
GwjtZTOD,3z8ujejod2q8a85trwhk37uqvoc39x,3u5nzhp4lvfajnqte87libr7ocnhpe,GwjtZTOD,2020-0188,2021-10-31,16:41:00,18:26:26,NA,incomplete,false,true,NA,NA,4,6,NA,yellow,n_s_020.jpg,NA,NA,NA,NA,NA,pleasant,unpleasant,NA,NA,NA,NA,NA,left,2951.5,true,NA,NA,NA,NA,NA,NA,NA,NA
GwjtZTOD,3z8ujejod2q8a85trwhk37uqvoc39x,3u5nzhp4lvfajnqte87libr7ocnhpe,GwjtZTOD,2020-0188,2021-10-31,16:41:00,18:26:26,NA,incomplete,false,true,NA,NA,4,7,NA,yellow,m_s_078.jpg,NA,NA,NA,NA,NA,pleasant,unpleasant,NA,NA,NA,NA,NA,left,2127.39999961853,true,NA,NA,NA,NA,NA,NA,NA,NA
GwjtZTOD,3z8ujejod2q8a85trwhk37uqvoc39x,3u5nzhp4lvfajnqte87libr7ocnhpe,GwjtZTOD,2020-0188,2021-10-31,16:41:00,18:26:26,NA,incomplete,false,true,NA,NA,4,8,NA,yellow,n_l_033.jpg,NA,NA,NA,NA,NA,pleasant,unpleasant,NA,NA,NA,NA,NA,left,1849.5,true,NA,NA,NA,NA,NA,NA,NA,NA
GwjtZTOD,3z8ujejod2q8a85trwhk37uqvoc39x,3u5nzhp4lvfajnqte87libr7ocnhpe,GwjtZTOD,2020-0188,2021-10-31,16:41:00,18:26:26,NA,incomplete,false,true,NA,NA,4,9,NA,yellow,m_s_049.jpg,NA,NA,NA,NA,NA,pleasant,unpleasant,NA,NA,NA,NA,NA,left,1604.5,true,NA,NA,NA,NA,NA,NA,NA,NA
GwjtZTOD,3z8ujejod2q8a85trwhk37uqvoc39x,3u5nzhp4lvfajnqte87libr7ocnhpe,GwjtZTOD,2020-0188,2021-10-31,16:41:00,18:26:26,NA,incomplete,false,true,NA,NA,4,10,NA,yellow,m_s_091.jpg,NA,NA,NA,NA,NA,pleasant,unpleasant,NA,NA,NA,NA,NA,right,3429.2999997139,true,NA,NA,NA,NA,NA,NA,NA,NA
GwjtZTOD,3z8ujejod2q8a85trwhk37uqvoc39x,3u5nzhp4lvfajnqte87libr7ocnhpe,GwjtZTOD,2020-0188,2021-10-31,16:41:00,18:26:26,NA,incomplete,false,true,NA,NA,4,11,NA,yellow,n_s_005.jpg,NA,NA,NA,NA,NA,unpleasant,pleasant,NA,NA,NA,NA,NA,right,1829.69999980927,true,NA,NA,NA,NA,NA,NA,NA,NA
GwjtZTOD,3z8ujejod2q8a85trwhk37uqvoc39x,3u5nzhp4lvfajnqte87libr7ocnhpe,GwjtZTOD,2020-0188,2021-10-31,16:41:00,18:26:26,NA,incomplete,false,true,NA,NA,4,12,NA,blue,m_l_042.jpg,NA,NA,NA,NA,NA,pleasant,unpleasant,NA,NA,NA,NA,NA,left,1837,true,NA,NA,NA,NA,NA,NA,NA,NA
GwjtZTOD,3z8ujejod2q8a85trwhk37uqvoc39x,3u5nzhp4lvfajnqte87libr7ocnhpe,GwjtZTOD,2020-0188,2021-10-31,16:41:00,18:26:26,NA,incomplete,false,true,NA,NA,4,13,NA,blue,m_l_018.jpg,NA,NA,NA,NA,NA,pleasant,unpleasant,NA,NA,NA,NA,NA,right,2849.30000019073,true,NA,NA,NA,NA,NA,NA,NA,NA
GwjtZTOD,3z8ujejod2q8a85trwhk37uqvoc39x,3u5nzhp4lvfajnqte87libr7ocnhpe,GwjtZTOD,2020-0188,2021-10-31,16:41:00,18:26:26,NA,incomplete,false,true,NA,NA,4,14,NA,blue,n_s_114.jpg,NA,NA,NA,NA,NA,unpleasant,pleasant,NA,NA,NA,NA,NA,none,0,false,NA,NA,NA,NA,NA,NA,NA,NA
GwjtZTOD,3z8ujejod2q8a85trwhk37uqvoc39x,3u5nzhp4lvfajnqte87libr7ocnhpe,GwjtZTOD,2020-0188,2021-10-31,16:41:00,18:26:26,NA,incomplete,false,true,NA,NA,4,15,NA,blue,n_l_043.jpg,NA,NA,NA,NA,NA,unpleasant,pleasant,NA,NA,NA,NA,NA,right,1367.5,true,NA,NA,NA,NA,NA,NA,NA,NA
GwjtZTOD,3z8ujejod2q8a85trwhk37uqvoc39x,3u5nzhp4lvfajnqte87libr7ocnhpe,GwjtZTOD,2020-0188,2021-10-31,16:41:00,18:26:26,NA,incomplete,false,true,NA,NA,4,16,NA,blue,m_l_088.jpg,NA,NA,NA,NA,NA,pleasant,unpleasant,NA,NA,NA,NA,NA,left,2063.2999997139,true,NA,NA,NA,NA,NA,NA,NA,NA
GwjtZTOD,3z8ujejod2q8a85trwhk37uqvoc39x,3u5nzhp4lvfajnqte87libr7ocnhpe,GwjtZTOD,2020-0188,2021-10-31,16:41:00,18:26:26,NA,incomplete,false,true,NA,NA,4,17,NA,blue,n_s_091.jpg,NA,NA,NA,NA,NA,unpleasant,pleasant,NA,NA,NA,NA,NA,right,1813.40000009537,true,NA,NA,NA,NA,NA,NA,NA,NA
GwjtZTOD,3z8ujejod2q8a85trwhk37uqvoc39x,3u5nzhp4lvfajnqte87libr7ocnhpe,GwjtZTOD,2020-0188,2021-10-31,16:41:00,18:26:26,NA,incomplete,false,true,NA,NA,4,18,NA,gray,m_s_107.jpg,NA,NA,NA,NA,NA,pleasant,unpleasant,NA,NA,NA,NA,NA,left,1746,true,NA,NA,NA,NA,NA,NA,NA,NA
GwjtZTOD,3z8ujejod2q8a85trwhk37uqvoc39x,3u5nzhp4lvfajnqte87libr7ocnhpe,GwjtZTOD,2020-0188,2021-10-31,16:41:00,18:26:26,NA,incomplete,false,true,NA,NA,4,19,NA,gray,n_s_103.jpg,NA,NA,NA,NA,NA,unpleasant,pleasant,NA,NA,NA,NA,NA,right,2076,true,NA,NA,NA,NA,NA,NA,NA,NA
GwjtZTOD,3z8ujejod2q8a85trwhk37uqvoc39x,3u5nzhp4lvfajnqte87libr7ocnhpe,GwjtZTOD,2020-0188,2021-10-31,16:41:00,18:26:26,NA,incomplete,false,true,NA,NA,4,20,NA,gray,n_s_109.jpg,NA,NA,NA,NA,NA,pleasant,unpleasant,NA,NA,NA,NA,NA,right,2360,true,NA,NA,NA,NA,NA,NA,NA,NA
GwjtZTOD,3z8ujejod2q8a85trwhk37uqvoc39x,3u5nzhp4lvfajnqte87libr7ocnhpe,GwjtZTOD,2020-0188,2021-10-31,16:41:00,18:26:26,NA,incomplete,false,true,NA,NA,4,21,NA,gray,m_l_112.jpg,NA,NA,NA,NA,NA,pleasant,unpleasant,NA,NA,NA,NA,NA,left,1460,true,NA,NA,NA,NA,NA,NA,NA,NA
GwjtZTOD,3z8ujejod2q8a85trwhk37uqvoc39x,3u5nzhp4lvfajnqte87libr7ocnhpe,GwjtZTOD,2020-0188,2021-10-31,16:41:00,18:26:26,NA,incomplete,false,true,NA,NA,4,22,NA,gray,n_l_062.jpg,NA,NA,NA,NA,NA,unpleasant,pleasant,NA,NA,NA,NA,NA,right,2261.69999980927,true,NA,NA,NA,NA,NA,NA,NA,NA
GwjtZTOD,3z8ujejod2q8a85trwhk37uqvoc39x,3u5nzhp4lvfajnqte87libr7ocnhpe,GwjtZTOD,2020-0188,2021-10-31,16:41:00,18:26:26,NA,incomplete,false,true,NA,NA,4,23,NA,gray,m_l_046.jpg,NA,NA,NA,NA,NA,unpleasant,pleasant,NA,NA,NA,NA,NA,right,2380.90000009537,true,NA,NA,NA,NA,NA,NA,NA,NA
GwjtZTOD,3z8ujejod2q8a85trwhk37uqvoc39x,3u5nzhp4lvfajnqte87libr7ocnhpe,GwjtZTOD,2020-0188,2021-10-31,16:41:00,18:26:26,NA,incomplete,false,true,NA,NA,4,24,NA,orange,m_l_074.jpg,NA,NA,NA,NA,NA,unpleasant,pleasant,NA,NA,NA,NA,NA,none,0,false,NA,NA,NA,NA,NA,NA,NA,NA
GwjtZTOD,3z8ujejod2q8a85trwhk37uqvoc39x,3u5nzhp4lvfajnqte87libr7ocnhpe,GwjtZTOD,2020-0188,2021-10-31,16:41:00,18:26:26,NA,incomplete,false,true,NA,NA,4,25,NA,orange,n_l_107.jpg,NA,NA,NA,NA,NA,unpleasant,pleasant,NA,NA,NA,NA,NA,left,1151.19999980927,true,NA,NA,NA,NA,NA,NA,NA,NA
GwjtZTOD,3z8ujejod2q8a85trwhk37uqvoc39x,3u5nzhp4lvfajnqte87libr7ocnhpe,GwjtZTOD,2020-0188,2021-10-31,16:41:00,18:26:26,NA,incomplete,false,true,NA,NA,4,26,NA,orange,n_s_108.jpg,NA,NA,NA,NA,NA,pleasant,unpleasant,NA,NA,NA,NA,NA,right,1303.5,true,NA,NA,NA,NA,NA,NA,NA,NA
GwjtZTOD,3z8ujejod2q8a85trwhk37uqvoc39x,3u5nzhp4lvfajnqte87libr7ocnhpe,GwjtZTOD,2020-0188,2021-10-31,16:41:00,18:26:26,NA,incomplete,false,true,NA,NA,4,27,NA,orange,m_s_080.jpg,NA,NA,NA,NA,NA,pleasant,unpleasant,NA,NA,NA,NA,NA,right,1627.30000019073,true,NA,NA,NA,NA,NA,NA,NA,NA
GwjtZTOD,3z8ujejod2q8a85trwhk37uqvoc39x,3u5nzhp4lvfajnqte87libr7ocnhpe,GwjtZTOD,2020-0188,2021-10-31,16:41:00,18:26:26,NA,incomplete,false,true,NA,NA,4,28,NA,orange,m_s_096.jpg,NA,NA,NA,NA,NA,pleasant,unpleasant,NA,NA,NA,NA,NA,left,1414.40000009537,true,NA,NA,NA,NA,NA,NA,NA,NA
GwjtZTOD,3z8ujejod2q8a85trwhk37uqvoc39x,3u5nzhp4lvfajnqte87libr7ocnhpe,GwjtZTOD,2020-0188,2021-10-31,16:41:00,18:26:26,NA,incomplete,false,true,NA,NA,4,29,NA,orange,n_s_014.jpg,NA,NA,NA,NA,NA,unpleasant,pleasant,NA,NA,NA,NA,NA,right,1546.09999990463,true,NA,NA,NA,NA,NA,NA,NA,NA
GwjtZTOD,3z8ujejod2q8a85trwhk37uqvoc39x,3u5nzhp4lvfajnqte87libr7ocnhpe,GwjtZTOD,2020-0188,2021-10-31,16:41:00,18:26:26,NA,incomplete,false,true,NA,NA,4,30,NA,purple,m_s_108.jpg,NA,NA,NA,NA,NA,unpleasant,pleasant,NA,NA,NA,NA,NA,right,2137.19999980927,true,NA,NA,NA,NA,NA,NA,NA,NA
GwjtZTOD,3z8ujejod2q8a85trwhk37uqvoc39x,3u5nzhp4lvfajnqte87libr7ocnhpe,GwjtZTOD,2020-0188,2021-10-31,16:41:00,18:26:26,NA,incomplete,false,true,NA,NA,4,31,NA,purple,n_s_057.jpg,NA,NA,NA,NA,NA,pleasant,unpleasant,NA,NA,NA,NA,NA,left,1757.2000002861,true,NA,NA,NA,NA,NA,NA,NA,NA
GwjtZTOD,3z8ujejod2q8a85trwhk37uqvoc39x,3u5nzhp4lvfajnqte87libr7ocnhpe,GwjtZTOD,2020-0188,2021-10-31,16:41:00,18:26:26,NA,incomplete,false,true,NA,NA,4,32,NA,purple,n_l_044.jpg,NA,NA,NA,NA,NA,pleasant,unpleasant,NA,NA,NA,NA,NA,left,1337.90000009537,true,NA,NA,NA,NA,NA,NA,NA,NA
GwjtZTOD,3z8ujejod2q8a85trwhk37uqvoc39x,3u5nzhp4lvfajnqte87libr7ocnhpe,GwjtZTOD,2020-0188,2021-10-31,16:41:00,18:26:26,NA,incomplete,false,true,NA,NA,4,33,NA,purple,m_s_019.jpg,NA,NA,NA,NA,NA,pleasant,unpleasant,NA,NA,NA,NA,NA,left,1802.90000009537,true,NA,NA,NA,NA,NA,NA,NA,NA
GwjtZTOD,3z8ujejod2q8a85trwhk37uqvoc39x,3u5nzhp4lvfajnqte87libr7ocnhpe,GwjtZTOD,2020-0188,2021-10-31,16:41:00,18:26:26,NA,incomplete,false,true,NA,NA,4,34,NA,purple,n_l_008.jpg,NA,NA,NA,NA,NA,pleasant,unpleasant,NA,NA,NA,NA,NA,left,1531.5,true,NA,NA,NA,NA,NA,NA,NA,NA
GwjtZTOD,3z8ujejod2q8a85trwhk37uqvoc39x,3u5nzhp4lvfajnqte87libr7ocnhpe,GwjtZTOD,2020-0188,2021-10-31,16:41:00,18:26:26,NA,incomplete,false,true,NA,NA,4,35,NA,purple,m_s_021.jpg,NA,NA,NA,NA,NA,unpleasant,pleasant,NA,NA,NA,NA,NA,right,1476.09999990463,true,NA,NA,NA,NA,NA,NA,NA,NA
GwjtZTOD,3z8ujejod2q8a85trwhk37uqvoc39x,3u5nzhp4lvfajnqte87libr7ocnhpe,GwjtZTOD,2020-0188,2021-10-31,16:41:00,18:26:26,NA,incomplete,false,NA,NA,true,4,0,NA,NA,NA,right,m_l_018.jpg,yellow,blue,NA,NA,NA,NA,NA,NA,NA,NA,NA,NaN,NA,3337.3999996185303,right,1,NA,NA,NA,NA,NA
GwjtZTOD,3z8ujejod2q8a85trwhk37uqvoc39x,3u5nzhp4lvfajnqte87libr7ocnhpe,GwjtZTOD,2020-0188,2021-10-31,16:41:00,18:26:26,NA,incomplete,false,NA,NA,true,4,1,NA,NA,NA,left,n_l_033.jpg,yellow,blue,NA,NA,NA,NA,NA,NA,NA,NA,NA,NaN,NA,3462.5999999046326,right,0,NA,NA,NA,NA,NA
GwjtZTOD,3z8ujejod2q8a85trwhk37uqvoc39x,3u5nzhp4lvfajnqte87libr7ocnhpe,GwjtZTOD,2020-0188,2021-10-31,16:41:00,18:26:26,NA,incomplete,false,NA,NA,true,4,2,NA,NA,NA,left,m_l_029.jpg,green,yellow,NA,NA,NA,NA,NA,NA,NA,NA,NA,NaN,NA,2702.800000190735,left,1,NA,NA,NA,NA,NA
GwjtZTOD,3z8ujejod2q8a85trwhk37uqvoc39x,3u5nzhp4lvfajnqte87libr7ocnhpe,GwjtZTOD,2020-0188,2021-10-31,16:41:00,18:26:26,NA,incomplete,false,NA,NA,true,4,3,NA,NA,NA,right,m_l_033.jpg,yellow,green,NA,NA,NA,NA,NA,NA,NA,NA,NA,NaN,NA,2268.5,right,1,NA,NA,NA,NA,NA
GwjtZTOD,3z8ujejod2q8a85trwhk37uqvoc39x,3u5nzhp4lvfajnqte87libr7ocnhpe,GwjtZTOD,2020-0188,2021-10-31,16:41:00,18:26:26,NA,incomplete,false,NA,NA,true,4,4,NA,NA,NA,right,m_s_021.jpg,orange,purple,NA,NA,NA,NA,NA,NA,NA,NA,NA,NaN,NA,2210.2999997138977,right,1,NA,NA,NA,NA,NA
GwjtZTOD,3z8ujejod2q8a85trwhk37uqvoc39x,3u5nzhp4lvfajnqte87libr7ocnhpe,GwjtZTOD,2020-0188,2021-10-31,16:41:00,18:26:26,NA,incomplete,false,NA,NA,true,4,5,NA,NA,NA,right,n_s_057.jpg,orange,purple,NA,NA,NA,NA,NA,NA,NA,NA,NA,NaN,NA,11312.199999809265,right,1,NA,NA,NA,NA,NA
GwjtZTOD,3z8ujejod2q8a85trwhk37uqvoc39x,3u5nzhp4lvfajnqte87libr7ocnhpe,GwjtZTOD,2020-0188,2021-10-31,16:41:00,18:26:26,NA,incomplete,false,NA,NA,true,4,6,NA,NA,NA,left,n_s_108.jpg,orange,gray,NA,NA,NA,NA,NA,NA,NA,NA,NA,NaN,NA,4404,left,1,NA,NA,NA,NA,NA
GwjtZTOD,3z8ujejod2q8a85trwhk37uqvoc39x,3u5nzhp4lvfajnqte87libr7ocnhpe,GwjtZTOD,2020-0188,2021-10-31,16:41:00,18:26:26,NA,incomplete,false,NA,NA,true,4,7,NA,NA,NA,right,n_s_014.jpg,purple,orange,NA,NA,NA,NA,NA,NA,NA,NA,NA,NaN,NA,5519.10000038147,right,1,NA,NA,NA,NA,NA
GwjtZTOD,3z8ujejod2q8a85trwhk37uqvoc39x,3u5nzhp4lvfajnqte87libr7ocnhpe,GwjtZTOD,2020-0188,2021-10-31,16:41:00,18:26:26,NA,incomplete,false,NA,NA,true,4,8,NA,NA,NA,right,n_l_062.jpg,blue,gray,NA,NA,NA,NA,NA,NA,NA,NA,NA,NaN,NA,5567.900000095367,left,0,NA,NA,NA,NA,NA
GwjtZTOD,3z8ujejod2q8a85trwhk37uqvoc39x,3u5nzhp4lvfajnqte87libr7ocnhpe,GwjtZTOD,2020-0188,2021-10-31,16:41:00,18:26:26,NA,incomplete,false,NA,NA,true,4,9,NA,NA,NA,left,m_s_091.jpg,yellow,blue,NA,NA,NA,NA,NA,NA,NA,NA,NA,NaN,NA,3424,left,1,NA,NA,NA,NA,NA
GwjtZTOD,3z8ujejod2q8a85trwhk37uqvoc39x,3u5nzhp4lvfajnqte87libr7ocnhpe,GwjtZTOD,2020-0188,2021-10-31,16:41:00,18:26:26,NA,incomplete,false,NA,NA,true,4,10,NA,NA,NA,left,n_l_107.jpg,orange,purple,NA,NA,NA,NA,NA,NA,NA,NA,NA,NaN,NA,6478.60000038147,right,0,NA,NA,NA,NA,NA
GwjtZTOD,3z8ujejod2q8a85trwhk37uqvoc39x,3u5nzhp4lvfajnqte87libr7ocnhpe,GwjtZTOD,2020-0188,2021-10-31,16:41:00,18:26:26,NA,incomplete,false,NA,NA,true,4,11,NA,NA,NA,right,n_s_103.jpg,orange,gray,NA,NA,NA,NA,NA,NA,NA,NA,NA,NaN,NA,3635.2000002861023,right,1,NA,NA,NA,NA,NA
GwjtZTOD,3z8ujejod2q8a85trwhk37uqvoc39x,3u5nzhp4lvfajnqte87libr7ocnhpe,GwjtZTOD,2020-0188,2021-10-31,16:41:00,18:26:26,NA,incomplete,false,NA,NA,true,4,12,NA,NA,NA,left,m_s_078.jpg,yellow,blue,NA,NA,NA,NA,NA,NA,NA,NA,NA,NaN,NA,2619.4000000953674,left,1,NA,NA,NA,NA,NA
GwjtZTOD,3z8ujejod2q8a85trwhk37uqvoc39x,3u5nzhp4lvfajnqte87libr7ocnhpe,GwjtZTOD,2020-0188,2021-10-31,16:41:00,18:26:26,NA,incomplete,false,NA,NA,true,4,13,NA,NA,NA,left,m_l_104.jpg,green,yellow,NA,NA,NA,NA,NA,NA,NA,NA,NA,NaN,NA,2639.2000002861023,left,1,NA,NA,NA,NA,NA
GwjtZTOD,3z8ujejod2q8a85trwhk37uqvoc39x,3u5nzhp4lvfajnqte87libr7ocnhpe,GwjtZTOD,2020-0188,2021-10-31,16:41:00,18:26:26,NA,incomplete,false,NA,NA,true,4,14,NA,NA,NA,right,n_s_091.jpg,gray,blue,NA,NA,NA,NA,NA,NA,NA,NA,NA,NaN,NA,4275.5,right,1,NA,NA,NA,NA,NA
GwjtZTOD,3z8ujejod2q8a85trwhk37uqvoc39x,3u5nzhp4lvfajnqte87libr7ocnhpe,GwjtZTOD,2020-0188,2021-10-31,16:41:00,18:26:26,NA,incomplete,false,NA,NA,true,4,15,NA,NA,NA,right,m_l_046.jpg,blue,gray,NA,NA,NA,NA,NA,NA,NA,NA,NA,NaN,NA,2327.0999999046326,right,1,NA,NA,NA,NA,NA
GwjtZTOD,3z8ujejod2q8a85trwhk37uqvoc39x,3u5nzhp4lvfajnqte87libr7ocnhpe,GwjtZTOD,2020-0188,2021-10-31,16:41:00,18:26:26,NA,incomplete,false,NA,NA,true,4,16,NA,NA,NA,left,m_l_088.jpg,blue,yellow,NA,NA,NA,NA,NA,NA,NA,NA,NA,NaN,NA,4529.799999713898,left,1,NA,NA,NA,NA,NA
GwjtZTOD,3z8ujejod2q8a85trwhk37uqvoc39x,3u5nzhp4lvfajnqte87libr7ocnhpe,GwjtZTOD,2020-0188,2021-10-31,16:41:00,18:26:26,NA,incomplete,false,NA,NA,true,4,17,NA,NA,NA,left,n_s_114.jpg,blue,yellow,NA,NA,NA,NA,NA,NA,NA,NA,NA,NaN,NA,6100.599999904633,right,0,NA,NA,NA,NA,NA
GwjtZTOD,3z8ujejod2q8a85trwhk37uqvoc39x,3u5nzhp4lvfajnqte87libr7ocnhpe,GwjtZTOD,2020-0188,2021-10-31,16:41:00,18:26:26,NA,incomplete,false,NA,NA,true,4,18,NA,NA,NA,right,n_s_005.jpg,blue,yellow,NA,NA,NA,NA,NA,NA,NA,NA,NA,NaN,NA,4050.7000002861023,right,1,NA,NA,NA,NA,NA
GwjtZTOD,3z8ujejod2q8a85trwhk37uqvoc39x,3u5nzhp4lvfajnqte87libr7ocnhpe,GwjtZTOD,2020-0188,2021-10-31,16:41:00,18:26:26,NA,incomplete,false,NA,NA,true,4,19,NA,NA,NA,right,m_s_096.jpg,purple,orange,NA,NA,NA,NA,NA,NA,NA,NA,NA,NaN,NA,2141.699999809265,right,1,NA,NA,NA,NA,NA
GwjtZTOD,3z8ujejod2q8a85trwhk37uqvoc39x,3u5nzhp4lvfajnqte87libr7ocnhpe,GwjtZTOD,2020-0188,2021-10-31,16:41:00,18:26:26,NA,incomplete,false,NA,NA,true,4,20,NA,NA,NA,left,n_l_044.jpg,purple,orange,NA,NA,NA,NA,NA,NA,NA,NA,NA,NaN,NA,3449.4000000953674,left,1,NA,NA,NA,NA,NA
GwjtZTOD,3z8ujejod2q8a85trwhk37uqvoc39x,3u5nzhp4lvfajnqte87libr7ocnhpe,GwjtZTOD,2020-0188,2021-10-31,16:41:00,18:26:26,NA,incomplete,false,NA,NA,true,4,21,NA,NA,NA,left,n_s_109.jpg,gray,orange,NA,NA,NA,NA,NA,NA,NA,NA,NA,NaN,NA,4448.800000190735,right,0,NA,NA,NA,NA,NA
GwjtZTOD,3z8ujejod2q8a85trwhk37uqvoc39x,3u5nzhp4lvfajnqte87libr7ocnhpe,GwjtZTOD,2020-0188,2021-10-31,16:41:00,18:26:26,NA,incomplete,false,NA,true,NA,4,0,NA,NA,NA,left,NA,NA,NA,present,NA,NA,m_s_078.jpg,yellow,n_s_005.jpg,yellow,within,NA,NaN,NA,NA,NA,NA,left,6493.599999904633,1,0,2406.199999809265
GwjtZTOD,3z8ujejod2q8a85trwhk37uqvoc39x,3u5nzhp4lvfajnqte87libr7ocnhpe,GwjtZTOD,2020-0188,2021-10-31,16:41:00,18:26:26,NA,incomplete,false,NA,true,NA,4,1,NA,NA,NA,right,NA,NA,NA,present,NA,NA,n_s_109.jpg,gray,m_l_088.jpg,blue,between,NA,NaN,NA,NA,NA,NA,left,5359.400000095367,0,2,3638
GwjtZTOD,3z8ujejod2q8a85trwhk37uqvoc39x,3u5nzhp4lvfajnqte87libr7ocnhpe,GwjtZTOD,2020-0188,2021-10-31,16:41:00,18:26:26,NA,incomplete,false,NA,true,NA,4,2,NA,NA,NA,right,NA,NA,NA,present,NA,NA,n_s_014.jpg,orange,n_l_107.jpg,orange,within,NA,NaN,NA,NA,NA,NA,right,4473.900000095367,1,0,3217.7000002861023
GwjtZTOD,3z8ujejod2q8a85trwhk37uqvoc39x,3u5nzhp4lvfajnqte87libr7ocnhpe,GwjtZTOD,2020-0188,2021-10-31,16:41:00,18:26:26,NA,incomplete,false,NA,true,NA,4,3,NA,NA,NA,right,NA,NA,NA,present,NA,NA,m_s_021.jpg,purple,n_s_057.jpg,purple,within,NA,NaN,NA,NA,NA,NA,right,3784.0999999046326,1,1,2877.5
GwjtZTOD,3z8ujejod2q8a85trwhk37uqvoc39x,3u5nzhp4lvfajnqte87libr7ocnhpe,GwjtZTOD,2020-0188,2021-10-31,16:41:00,18:26:26,NA,incomplete,false,NA,true,NA,4,4,NA,NA,NA,right,NA,NA,NA,present,NA,NA,m_l_046.jpg,gray,n_s_103.jpg,gray,within,NA,NaN,NA,NA,NA,NA,right,3540.5,1,0,2532.2999997138977
GwjtZTOD,3z8ujejod2q8a85trwhk37uqvoc39x,3u5nzhp4lvfajnqte87libr7ocnhpe,GwjtZTOD,2020-0188,2021-10-31,16:41:00,18:26:26,NA,incomplete,false,NA,true,NA,4,5,NA,NA,NA,left,NA,NA,NA,present,NA,NA,m_l_018.jpg,blue,n_s_091.jpg,blue,within,NA,NaN,NA,NA,NA,NA,right,4900.799999713898,0,1,2515.5999999046326
GwjtZTOD,3z8ujejod2q8a85trwhk37uqvoc39x,3u5nzhp4lvfajnqte87libr7ocnhpe,GwjtZTOD,2020-0188,2021-10-31,16:41:00,18:26:26,NA,incomplete,false,NA,true,NA,4,6,NA,NA,NA,right,NA,NA,NA,present,NA,NA,n_s_114.jpg,blue,m_s_091.jpg,yellow,between,NA,NaN,NA,NA,NA,NA,right,5930.5,1,2,2670.6000003814697
GwjtZTOD,3z8ujejod2q8a85trwhk37uqvoc39x,3u5nzhp4lvfajnqte87libr7ocnhpe,GwjtZTOD,2020-0188,2021-10-31,16:41:00,18:26:26,NA,incomplete,false,NA,true,NA,4,7,NA,NA,NA,left,NA,NA,NA,present,NA,NA,m_l_033.jpg,green,n_l_033.jpg,yellow,between,NA,NaN,NA,NA,NA,NA,left,6505.5,1,3,2571.5
GwjtZTOD,3z8ujejod2q8a85trwhk37uqvoc39x,3u5nzhp4lvfajnqte87libr7ocnhpe,GwjtZTOD,2020-0188,2021-10-31,16:41:00,18:26:26,NA,incomplete,false,NA,true,NA,4,8,NA,NA,NA,left,NA,NA,NA,present,NA,NA,m_l_029.jpg,green,m_l_104.jpg,green,within,NA,NaN,NA,NA,NA,NA,right,3476.699999809265,0,0,2234.7999997138977
GwjtZTOD,3z8ujejod2q8a85trwhk37uqvoc39x,3u5nzhp4lvfajnqte87libr7ocnhpe,GwjtZTOD,2020-0188,2021-10-31,16:41:00,18:26:26,NA,incomplete,false,NA,true,NA,4,9,NA,NA,NA,right,NA,NA,NA,present,NA,NA,n_s_108.jpg,orange,n_l_062.jpg,gray,between,NA,NaN,NA,NA,NA,NA,right,4572.5,1,2,2670
GwjtZTOD,3z8ujejod2q8a85trwhk37uqvoc39x,3u5nzhp4lvfajnqte87libr7ocnhpe,GwjtZTOD,2020-0188,2021-10-31,16:41:00,18:26:26,NA,incomplete,false,NA,true,NA,4,10,NA,NA,NA,left,NA,NA,NA,present,NA,NA,m_s_096.jpg,orange,n_l_044.jpg,purple,between,NA,NaN,NA,NA,NA,NA,right,3549.9000000953674,0,2,3539
GwjtZTOD,3z8ujejod2q8a85trwhk37uqvoc39x,3u5nzhp4lvfajnqte87libr7ocnhpe,GwjtZTOD,2020-0188,2021-10-31,16:41:00,18:26:26,NA,incomplete,false,true,NA,NA,5,0,NA,red,n_s_083.jpg,NA,NA,NA,NA,NA,pleasant,unpleasant,NA,NA,NA,NA,NA,left,2112.69999980927,true,NA,NA,NA,NA,NA,NA,NA,NA
GwjtZTOD,3z8ujejod2q8a85trwhk37uqvoc39x,3u5nzhp4lvfajnqte87libr7ocnhpe,GwjtZTOD,2020-0188,2021-10-31,16:41:00,18:26:26,NA,incomplete,false,true,NA,NA,5,1,NA,red,m_l_038.jpg,NA,NA,NA,NA,NA,pleasant,unpleasant,NA,NA,NA,NA,NA,left,1975.89999961853,true,NA,NA,NA,NA,NA,NA,NA,NA
GwjtZTOD,3z8ujejod2q8a85trwhk37uqvoc39x,3u5nzhp4lvfajnqte87libr7ocnhpe,GwjtZTOD,2020-0188,2021-10-31,16:41:00,18:26:26,NA,incomplete,false,true,NA,NA,5,2,NA,red,n_l_116.jpg,NA,NA,NA,NA,NA,unpleasant,pleasant,NA,NA,NA,NA,NA,right,1855,true,NA,NA,NA,NA,NA,NA,NA,NA
GwjtZTOD,3z8ujejod2q8a85trwhk37uqvoc39x,3u5nzhp4lvfajnqte87libr7ocnhpe,GwjtZTOD,2020-0188,2021-10-31,16:41:00,18:26:26,NA,incomplete,false,true,NA,NA,5,3,NA,red,m_s_069.jpg,NA,NA,NA,NA,NA,unpleasant,pleasant,NA,NA,NA,NA,NA,right,1343.39999961853,true,NA,NA,NA,NA,NA,NA,NA,NA
GwjtZTOD,3z8ujejod2q8a85trwhk37uqvoc39x,3u5nzhp4lvfajnqte87libr7ocnhpe,GwjtZTOD,2020-0188,2021-10-31,16:41:00,18:26:26,NA,incomplete,false,true,NA,NA,5,4,NA,red,n_s_052.jpg,NA,NA,NA,NA,NA,unpleasant,pleasant,NA,NA,NA,NA,NA,right,2344.5,true,NA,NA,NA,NA,NA,NA,NA,NA
GwjtZTOD,3z8ujejod2q8a85trwhk37uqvoc39x,3u5nzhp4lvfajnqte87libr7ocnhpe,GwjtZTOD,2020-0188,2021-10-31,16:41:00,18:26:26,NA,incomplete,false,true,NA,NA,5,5,NA,red,n_l_050.jpg,NA,NA,NA,NA,NA,pleasant,unpleasant,NA,NA,NA,NA,NA,left,2263.09999990463,true,NA,NA,NA,NA,NA,NA,NA,NA
GwjtZTOD,3z8ujejod2q8a85trwhk37uqvoc39x,3u5nzhp4lvfajnqte87libr7ocnhpe,GwjtZTOD,2020-0188,2021-10-31,16:41:00,18:26:26,NA,incomplete,false,true,NA,NA,5,6,NA,blue,m_s_025.jpg,NA,NA,NA,NA,NA,pleasant,unpleasant,NA,NA,NA,NA,NA,left,2232.80000019073,true,NA,NA,NA,NA,NA,NA,NA,NA
GwjtZTOD,3z8ujejod2q8a85trwhk37uqvoc39x,3u5nzhp4lvfajnqte87libr7ocnhpe,GwjtZTOD,2020-0188,2021-10-31,16:41:00,18:26:26,NA,incomplete,false,true,NA,NA,5,7,NA,blue,n_s_113.jpg,NA,NA,NA,NA,NA,pleasant,unpleasant,NA,NA,NA,NA,NA,left,3100.40000009537,true,NA,NA,NA,NA,NA,NA,NA,NA
GwjtZTOD,3z8ujejod2q8a85trwhk37uqvoc39x,3u5nzhp4lvfajnqte87libr7ocnhpe,GwjtZTOD,2020-0188,2021-10-31,16:41:00,18:26:26,NA,incomplete,false,true,NA,NA,5,8,NA,blue,m_s_027.jpg,NA,NA,NA,NA,NA,pleasant,unpleasant,NA,NA,NA,NA,NA,left,2034.90000009537,true,NA,NA,NA,NA,NA,NA,NA,NA
GwjtZTOD,3z8ujejod2q8a85trwhk37uqvoc39x,3u5nzhp4lvfajnqte87libr7ocnhpe,GwjtZTOD,2020-0188,2021-10-31,16:41:00,18:26:26,NA,incomplete,false,true,NA,NA,5,9,NA,blue,m_s_061.jpg,NA,NA,NA,NA,NA,unpleasant,pleasant,NA,NA,NA,NA,NA,right,2039.69999980927,true,NA,NA,NA,NA,NA,NA,NA,NA
GwjtZTOD,3z8ujejod2q8a85trwhk37uqvoc39x,3u5nzhp4lvfajnqte87libr7ocnhpe,GwjtZTOD,2020-0188,2021-10-31,16:41:00,18:26:26,NA,incomplete,false,true,NA,NA,5,10,NA,blue,n_l_021.jpg,NA,NA,NA,NA,NA,unpleasant,pleasant,NA,NA,NA,NA,NA,right,1817.40000009537,true,NA,NA,NA,NA,NA,NA,NA,NA
GwjtZTOD,3z8ujejod2q8a85trwhk37uqvoc39x,3u5nzhp4lvfajnqte87libr7ocnhpe,GwjtZTOD,2020-0188,2021-10-31,16:41:00,18:26:26,NA,incomplete,false,true,NA,NA,5,11,NA,blue,n_s_056.jpg,NA,NA,NA,NA,NA,unpleasant,pleasant,NA,NA,NA,NA,NA,right,2254.2000002861,true,NA,NA,NA,NA,NA,NA,NA,NA
GwjtZTOD,3z8ujejod2q8a85trwhk37uqvoc39x,3u5nzhp4lvfajnqte87libr7ocnhpe,GwjtZTOD,2020-0188,2021-10-31,16:41:00,18:26:26,NA,incomplete,false,true,NA,NA,5,12,NA,yellow,m_l_011.jpg,NA,NA,NA,NA,NA,unpleasant,pleasant,NA,NA,NA,NA,NA,right,2313.69999980927,true,NA,NA,NA,NA,NA,NA,NA,NA
GwjtZTOD,3z8ujejod2q8a85trwhk37uqvoc39x,3u5nzhp4lvfajnqte87libr7ocnhpe,GwjtZTOD,2020-0188,2021-10-31,16:41:00,18:26:26,NA,incomplete,false,true,NA,NA,5,13,NA,yellow,m_s_059.jpg,NA,NA,NA,NA,NA,unpleasant,pleasant,NA,NA,NA,NA,NA,right,1925.7000002861,true,NA,NA,NA,NA,NA,NA,NA,NA
GwjtZTOD,3z8ujejod2q8a85trwhk37uqvoc39x,3u5nzhp4lvfajnqte87libr7ocnhpe,GwjtZTOD,2020-0188,2021-10-31,16:41:00,18:26:26,NA,incomplete,false,true,NA,NA,5,14,NA,yellow,m_s_117.jpg,NA,NA,NA,NA,NA,pleasant,unpleasant,NA,NA,NA,NA,NA,left,2557.59999990463,true,NA,NA,NA,NA,NA,NA,NA,NA
GwjtZTOD,3z8ujejod2q8a85trwhk37uqvoc39x,3u5nzhp4lvfajnqte87libr7ocnhpe,GwjtZTOD,2020-0188,2021-10-31,16:41:00,18:26:26,NA,incomplete,false,true,NA,NA,5,15,NA,yellow,m_l_001.jpg,NA,NA,NA,NA,NA,pleasant,unpleasant,NA,NA,NA,NA,NA,left,1875.5,true,NA,NA,NA,NA,NA,NA,NA,NA
GwjtZTOD,3z8ujejod2q8a85trwhk37uqvoc39x,3u5nzhp4lvfajnqte87libr7ocnhpe,GwjtZTOD,2020-0188,2021-10-31,16:41:00,18:26:26,NA,incomplete,false,true,NA,NA,5,16,NA,yellow,n_l_017.jpg,NA,NA,NA,NA,NA,unpleasant,pleasant,NA,NA,NA,NA,NA,right,1797,true,NA,NA,NA,NA,NA,NA,NA,NA
