workerId,hitId,assignmentId,subject,studyid,exp_date,exp_start,exp_end,time_start,time_end,practice,encoding,memory,association,block,trial,event_order,event,stim,answer,object,left_context,right_context,context_type,label_left,label_right,left_image,left_event,right_image,right_event,condition,response,response_time,response_acc,association_response_time,association_response,association_acc,order_response,order_response_time,order_acc,distance_response,distance_response_time
aOs5zHKb,3icohx7eofotocxdgkfntnxuj980e9,3u84xhcdigqalf44mal4fkkht6f4z7,aOs5zHKb,2020-0188,2021-10-31,19:26:38,20:24:37,NA,incomplete,true,true,NA,NA,0,0,NA,brown,m_s_074.jpg,NA,NA,NA,NA,NA,pleasant,unpleasant,NA,NA,NA,NA,NA,left,1943.5,true,NA,NA,NA,NA,NA,NA,NA,NA
aOs5zHKb,3icohx7eofotocxdgkfntnxuj980e9,3u84xhcdigqalf44mal4fkkht6f4z7,aOs5zHKb,2020-0188,2021-10-31,19:26:38,20:24:37,NA,incomplete,true,true,NA,NA,0,1,NA,brown,n_s_023.jpg,NA,NA,NA,NA,NA,unpleasant,pleasant,NA,NA,NA,NA,NA,right,1791.80000000075,true,NA,NA,NA,NA,NA,NA,NA,NA
aOs5zHKb,3icohx7eofotocxdgkfntnxuj980e9,3u84xhcdigqalf44mal4fkkht6f4z7,aOs5zHKb,2020-0188,2021-10-31,19:26:38,20:24:37,NA,incomplete,true,true,NA,NA,0,2,NA,brown,n_l_094.jpg,NA,NA,NA,NA,NA,unpleasant,pleasant,NA,NA,NA,NA,NA,right,1796,true,NA,NA,NA,NA,NA,NA,NA,NA
aOs5zHKb,3icohx7eofotocxdgkfntnxuj980e9,3u84xhcdigqalf44mal4fkkht6f4z7,aOs5zHKb,2020-0188,2021-10-31,19:26:38,20:24:37,NA,incomplete,true,true,NA,NA,0,3,NA,brown,m_s_028.jpg,NA,NA,NA,NA,NA,pleasant,unpleasant,NA,NA,NA,NA,NA,right,2899.29999999981,true,NA,NA,NA,NA,NA,NA,NA,NA
aOs5zHKb,3icohx7eofotocxdgkfntnxuj980e9,3u84xhcdigqalf44mal4fkkht6f4z7,aOs5zHKb,2020-0188,2021-10-31,19:26:38,20:24:37,NA,incomplete,true,true,NA,NA,0,4,NA,brown,n_l_031.jpg,NA,NA,NA,NA,NA,unpleasant,pleasant,NA,NA,NA,NA,NA,right,1236.5,true,NA,NA,NA,NA,NA,NA,NA,NA
aOs5zHKb,3icohx7eofotocxdgkfntnxuj980e9,3u84xhcdigqalf44mal4fkkht6f4z7,aOs5zHKb,2020-0188,2021-10-31,19:26:38,20:24:37,NA,incomplete,true,true,NA,NA,0,5,NA,brown,n_s_017.jpg,NA,NA,NA,NA,NA,pleasant,unpleasant,NA,NA,NA,NA,NA,left,1447.5,true,NA,NA,NA,NA,NA,NA,NA,NA
aOs5zHKb,3icohx7eofotocxdgkfntnxuj980e9,3u84xhcdigqalf44mal4fkkht6f4z7,aOs5zHKb,2020-0188,2021-10-31,19:26:38,20:24:37,NA,incomplete,true,true,NA,NA,0,6,NA,green,n_s_050.jpg,NA,NA,NA,NA,NA,pleasant,unpleasant,NA,NA,NA,NA,NA,left,1448.5,true,NA,NA,NA,NA,NA,NA,NA,NA
aOs5zHKb,3icohx7eofotocxdgkfntnxuj980e9,3u84xhcdigqalf44mal4fkkht6f4z7,aOs5zHKb,2020-0188,2021-10-31,19:26:38,20:24:37,NA,incomplete,true,true,NA,NA,0,7,NA,green,m_s_081.jpg,NA,NA,NA,NA,NA,pleasant,unpleasant,NA,NA,NA,NA,NA,right,1250.59999999963,true,NA,NA,NA,NA,NA,NA,NA,NA
aOs5zHKb,3icohx7eofotocxdgkfntnxuj980e9,3u84xhcdigqalf44mal4fkkht6f4z7,aOs5zHKb,2020-0188,2021-10-31,19:26:38,20:24:37,NA,incomplete,true,true,NA,NA,0,8,NA,green,m_s_094.jpg,NA,NA,NA,NA,NA,pleasant,unpleasant,NA,NA,NA,NA,NA,right,1613.10000000056,true,NA,NA,NA,NA,NA,NA,NA,NA
aOs5zHKb,3icohx7eofotocxdgkfntnxuj980e9,3u84xhcdigqalf44mal4fkkht6f4z7,aOs5zHKb,2020-0188,2021-10-31,19:26:38,20:24:37,NA,incomplete,true,true,NA,NA,0,9,NA,green,m_l_038.jpg,NA,NA,NA,NA,NA,unpleasant,pleasant,NA,NA,NA,NA,NA,left,1636.79999999981,true,NA,NA,NA,NA,NA,NA,NA,NA
aOs5zHKb,3icohx7eofotocxdgkfntnxuj980e9,3u84xhcdigqalf44mal4fkkht6f4z7,aOs5zHKb,2020-0188,2021-10-31,19:26:38,20:24:37,NA,incomplete,true,true,NA,NA,0,10,NA,green,n_s_028.jpg,NA,NA,NA,NA,NA,pleasant,unpleasant,NA,NA,NA,NA,NA,left,1293.40000000037,true,NA,NA,NA,NA,NA,NA,NA,NA
aOs5zHKb,3icohx7eofotocxdgkfntnxuj980e9,3u84xhcdigqalf44mal4fkkht6f4z7,aOs5zHKb,2020-0188,2021-10-31,19:26:38,20:24:37,NA,incomplete,true,true,NA,NA,0,11,NA,green,m_l_067.jpg,NA,NA,NA,NA,NA,pleasant,unpleasant,NA,NA,NA,NA,NA,left,1665.19999999925,true,NA,NA,NA,NA,NA,NA,NA,NA
aOs5zHKb,3icohx7eofotocxdgkfntnxuj980e9,3u84xhcdigqalf44mal4fkkht6f4z7,aOs5zHKb,2020-0188,2021-10-31,19:26:38,20:24:37,NA,incomplete,true,true,NA,NA,0,12,NA,yellow,n_s_042.jpg,NA,NA,NA,NA,NA,unpleasant,pleasant,NA,NA,NA,NA,NA,right,1648.79999999981,true,NA,NA,NA,NA,NA,NA,NA,NA
aOs5zHKb,3icohx7eofotocxdgkfntnxuj980e9,3u84xhcdigqalf44mal4fkkht6f4z7,aOs5zHKb,2020-0188,2021-10-31,19:26:38,20:24:37,NA,incomplete,true,true,NA,NA,0,13,NA,yellow,n_l_034.jpg,NA,NA,NA,NA,NA,pleasant,unpleasant,NA,NA,NA,NA,NA,left,1395.10000000056,true,NA,NA,NA,NA,NA,NA,NA,NA
aOs5zHKb,3icohx7eofotocxdgkfntnxuj980e9,3u84xhcdigqalf44mal4fkkht6f4z7,aOs5zHKb,2020-0188,2021-10-31,19:26:38,20:24:37,NA,incomplete,true,true,NA,NA,0,14,NA,yellow,m_l_109.jpg,NA,NA,NA,NA,NA,unpleasant,pleasant,NA,NA,NA,NA,NA,right,1949.20000000019,true,NA,NA,NA,NA,NA,NA,NA,NA
aOs5zHKb,3icohx7eofotocxdgkfntnxuj980e9,3u84xhcdigqalf44mal4fkkht6f4z7,aOs5zHKb,2020-0188,2021-10-31,19:26:38,20:24:37,NA,incomplete,true,true,NA,NA,0,15,NA,yellow,m_s_088.jpg,NA,NA,NA,NA,NA,pleasant,unpleasant,NA,NA,NA,NA,NA,left,1821.20000000019,true,NA,NA,NA,NA,NA,NA,NA,NA
aOs5zHKb,3icohx7eofotocxdgkfntnxuj980e9,3u84xhcdigqalf44mal4fkkht6f4z7,aOs5zHKb,2020-0188,2021-10-31,19:26:38,20:24:37,NA,incomplete,true,true,NA,NA,0,16,NA,yellow,n_s_011.jpg,NA,NA,NA,NA,NA,pleasant,unpleasant,NA,NA,NA,NA,NA,left,1343.40000000037,true,NA,NA,NA,NA,NA,NA,NA,NA
aOs5zHKb,3icohx7eofotocxdgkfntnxuj980e9,3u84xhcdigqalf44mal4fkkht6f4z7,aOs5zHKb,2020-0188,2021-10-31,19:26:38,20:24:37,NA,incomplete,true,true,NA,NA,0,17,NA,yellow,n_s_113.jpg,NA,NA,NA,NA,NA,unpleasant,pleasant,NA,NA,NA,NA,NA,right,1513.79999999981,true,NA,NA,NA,NA,NA,NA,NA,NA
aOs5zHKb,3icohx7eofotocxdgkfntnxuj980e9,3u84xhcdigqalf44mal4fkkht6f4z7,aOs5zHKb,2020-0188,2021-10-31,19:26:38,20:24:37,NA,incomplete,true,true,NA,NA,0,18,NA,white,n_l_086.jpg,NA,NA,NA,NA,NA,unpleasant,pleasant,NA,NA,NA,NA,NA,right,2184.29999999981,true,NA,NA,NA,NA,NA,NA,NA,NA
aOs5zHKb,3icohx7eofotocxdgkfntnxuj980e9,3u84xhcdigqalf44mal4fkkht6f4z7,aOs5zHKb,2020-0188,2021-10-31,19:26:38,20:24:37,NA,incomplete,true,true,NA,NA,0,19,NA,white,n_l_075.jpg,NA,NA,NA,NA,NA,pleasant,unpleasant,NA,NA,NA,NA,NA,left,1026.89999999944,true,NA,NA,NA,NA,NA,NA,NA,NA
aOs5zHKb,3icohx7eofotocxdgkfntnxuj980e9,3u84xhcdigqalf44mal4fkkht6f4z7,aOs5zHKb,2020-0188,2021-10-31,19:26:38,20:24:37,NA,incomplete,true,true,NA,NA,0,20,NA,white,m_s_001.jpg,NA,NA,NA,NA,NA,unpleasant,pleasant,NA,NA,NA,NA,NA,left,1420.80000000075,true,NA,NA,NA,NA,NA,NA,NA,NA
aOs5zHKb,3icohx7eofotocxdgkfntnxuj980e9,3u84xhcdigqalf44mal4fkkht6f4z7,aOs5zHKb,2020-0188,2021-10-31,19:26:38,20:24:37,NA,incomplete,true,true,NA,NA,0,21,NA,white,n_l_029.jpg,NA,NA,NA,NA,NA,unpleasant,pleasant,NA,NA,NA,NA,NA,right,1444.59999999963,true,NA,NA,NA,NA,NA,NA,NA,NA
aOs5zHKb,3icohx7eofotocxdgkfntnxuj980e9,3u84xhcdigqalf44mal4fkkht6f4z7,aOs5zHKb,2020-0188,2021-10-31,19:26:38,20:24:37,NA,incomplete,true,true,NA,NA,0,22,NA,white,m_s_078.jpg,NA,NA,NA,NA,NA,unpleasant,pleasant,NA,NA,NA,NA,NA,right,1406.79999999981,true,NA,NA,NA,NA,NA,NA,NA,NA
aOs5zHKb,3icohx7eofotocxdgkfntnxuj980e9,3u84xhcdigqalf44mal4fkkht6f4z7,aOs5zHKb,2020-0188,2021-10-31,19:26:38,20:24:37,NA,incomplete,true,true,NA,NA,0,23,NA,white,m_s_046.jpg,NA,NA,NA,NA,NA,unpleasant,pleasant,NA,NA,NA,NA,NA,left,1890.29999999981,true,NA,NA,NA,NA,NA,NA,NA,NA
aOs5zHKb,3icohx7eofotocxdgkfntnxuj980e9,3u84xhcdigqalf44mal4fkkht6f4z7,aOs5zHKb,2020-0188,2021-10-31,19:26:38,20:24:37,NA,incomplete,true,true,NA,NA,0,24,NA,red,m_s_075.jpg,NA,NA,NA,NA,NA,unpleasant,pleasant,NA,NA,NA,NA,NA,left,1338.10000000056,true,NA,NA,NA,NA,NA,NA,NA,NA
aOs5zHKb,3icohx7eofotocxdgkfntnxuj980e9,3u84xhcdigqalf44mal4fkkht6f4z7,aOs5zHKb,2020-0188,2021-10-31,19:26:38,20:24:37,NA,incomplete,true,true,NA,NA,0,25,NA,red,m_s_109.jpg,NA,NA,NA,NA,NA,pleasant,unpleasant,NA,NA,NA,NA,NA,right,1675.29999999981,true,NA,NA,NA,NA,NA,NA,NA,NA
aOs5zHKb,3icohx7eofotocxdgkfntnxuj980e9,3u84xhcdigqalf44mal4fkkht6f4z7,aOs5zHKb,2020-0188,2021-10-31,19:26:38,20:24:37,NA,incomplete,true,true,NA,NA,0,26,NA,red,n_l_027.jpg,NA,NA,NA,NA,NA,pleasant,unpleasant,NA,NA,NA,NA,NA,left,1030,true,NA,NA,NA,NA,NA,NA,NA,NA
aOs5zHKb,3icohx7eofotocxdgkfntnxuj980e9,3u84xhcdigqalf44mal4fkkht6f4z7,aOs5zHKb,2020-0188,2021-10-31,19:26:38,20:24:37,NA,incomplete,true,true,NA,NA,0,27,NA,red,m_l_100.jpg,NA,NA,NA,NA,NA,pleasant,unpleasant,NA,NA,NA,NA,NA,left,1374.79999999981,true,NA,NA,NA,NA,NA,NA,NA,NA
aOs5zHKb,3icohx7eofotocxdgkfntnxuj980e9,3u84xhcdigqalf44mal4fkkht6f4z7,aOs5zHKb,2020-0188,2021-10-31,19:26:38,20:24:37,NA,incomplete,true,true,NA,NA,0,28,NA,red,n_s_078.jpg,NA,NA,NA,NA,NA,unpleasant,pleasant,NA,NA,NA,NA,NA,left,1496.89999999944,true,NA,NA,NA,NA,NA,NA,NA,NA
aOs5zHKb,3icohx7eofotocxdgkfntnxuj980e9,3u84xhcdigqalf44mal4fkkht6f4z7,aOs5zHKb,2020-0188,2021-10-31,19:26:38,20:24:37,NA,incomplete,true,true,NA,NA,0,29,NA,red,n_s_012.jpg,NA,NA,NA,NA,NA,unpleasant,pleasant,NA,NA,NA,NA,NA,right,1299.10000000056,true,NA,NA,NA,NA,NA,NA,NA,NA
aOs5zHKb,3icohx7eofotocxdgkfntnxuj980e9,3u84xhcdigqalf44mal4fkkht6f4z7,aOs5zHKb,2020-0188,2021-10-31,19:26:38,20:24:37,NA,incomplete,true,true,NA,NA,0,30,NA,gray,n_l_008.jpg,NA,NA,NA,NA,NA,pleasant,unpleasant,NA,NA,NA,NA,NA,left,1690.39999999944,true,NA,NA,NA,NA,NA,NA,NA,NA
aOs5zHKb,3icohx7eofotocxdgkfntnxuj980e9,3u84xhcdigqalf44mal4fkkht6f4z7,aOs5zHKb,2020-0188,2021-10-31,19:26:38,20:24:37,NA,incomplete,true,true,NA,NA,0,31,NA,gray,m_s_007.jpg,NA,NA,NA,NA,NA,unpleasant,pleasant,NA,NA,NA,NA,NA,left,1476.19999999925,true,NA,NA,NA,NA,NA,NA,NA,NA
aOs5zHKb,3icohx7eofotocxdgkfntnxuj980e9,3u84xhcdigqalf44mal4fkkht6f4z7,aOs5zHKb,2020-0188,2021-10-31,19:26:38,20:24:37,NA,incomplete,true,true,NA,NA,0,32,NA,gray,n_s_112.jpg,NA,NA,NA,NA,NA,unpleasant,pleasant,NA,NA,NA,NA,NA,right,1006.5,true,NA,NA,NA,NA,NA,NA,NA,NA
aOs5zHKb,3icohx7eofotocxdgkfntnxuj980e9,3u84xhcdigqalf44mal4fkkht6f4z7,aOs5zHKb,2020-0188,2021-10-31,19:26:38,20:24:37,NA,incomplete,true,true,NA,NA,0,33,NA,gray,m_l_043.jpg,NA,NA,NA,NA,NA,unpleasant,pleasant,NA,NA,NA,NA,NA,right,1654.40000000037,true,NA,NA,NA,NA,NA,NA,NA,NA
aOs5zHKb,3icohx7eofotocxdgkfntnxuj980e9,3u84xhcdigqalf44mal4fkkht6f4z7,aOs5zHKb,2020-0188,2021-10-31,19:26:38,20:24:37,NA,incomplete,true,true,NA,NA,0,34,NA,gray,m_s_090.jpg,NA,NA,NA,NA,NA,unpleasant,pleasant,NA,NA,NA,NA,NA,right,1054.5,true,NA,NA,NA,NA,NA,NA,NA,NA
aOs5zHKb,3icohx7eofotocxdgkfntnxuj980e9,3u84xhcdigqalf44mal4fkkht6f4z7,aOs5zHKb,2020-0188,2021-10-31,19:26:38,20:24:37,NA,incomplete,true,true,NA,NA,0,35,NA,gray,n_l_103.jpg,NA,NA,NA,NA,NA,pleasant,unpleasant,NA,NA,NA,NA,NA,left,1867.20000000019,true,NA,NA,NA,NA,NA,NA,NA,NA
aOs5zHKb,3icohx7eofotocxdgkfntnxuj980e9,3u84xhcdigqalf44mal4fkkht6f4z7,aOs5zHKb,2020-0188,2021-10-31,19:26:38,20:24:37,NA,incomplete,true,NA,NA,true,0,0,NA,NA,NA,right,m_s_007.jpg,red,gray,NA,NA,NA,NA,NA,NA,NA,NA,NA,NaN,NA,2363.7999999998137,right,1,NA,NA,NA,NA,NA
aOs5zHKb,3icohx7eofotocxdgkfntnxuj980e9,3u84xhcdigqalf44mal4fkkht6f4z7,aOs5zHKb,2020-0188,2021-10-31,19:26:38,20:24:37,NA,incomplete,true,NA,NA,true,0,1,NA,NA,NA,left,m_s_046.jpg,white,red,NA,NA,NA,NA,NA,NA,NA,NA,NA,NaN,NA,1871.5999999996275,left,1,NA,NA,NA,NA,NA
aOs5zHKb,3icohx7eofotocxdgkfntnxuj980e9,3u84xhcdigqalf44mal4fkkht6f4z7,aOs5zHKb,2020-0188,2021-10-31,19:26:38,20:24:37,NA,incomplete,true,NA,NA,true,0,2,NA,NA,NA,right,m_s_001.jpg,yellow,white,NA,NA,NA,NA,NA,NA,NA,NA,NA,NaN,NA,1846.1000000005588,right,1,NA,NA,NA,NA,NA
aOs5zHKb,3icohx7eofotocxdgkfntnxuj980e9,3u84xhcdigqalf44mal4fkkht6f4z7,aOs5zHKb,2020-0188,2021-10-31,19:26:38,20:24:37,NA,incomplete,true,NA,NA,true,0,3,NA,NA,NA,right,n_s_078.jpg,white,red,NA,NA,NA,NA,NA,NA,NA,NA,NA,NaN,NA,1813.5,right,1,NA,NA,NA,NA,NA
aOs5zHKb,3icohx7eofotocxdgkfntnxuj980e9,3u84xhcdigqalf44mal4fkkht6f4z7,aOs5zHKb,2020-0188,2021-10-31,19:26:38,20:24:37,NA,incomplete,true,NA,NA,true,0,4,NA,NA,NA,right,n_s_113.jpg,white,yellow,NA,NA,NA,NA,NA,NA,NA,NA,NA,NaN,NA,1457.1000000005588,right,1,NA,NA,NA,NA,NA
aOs5zHKb,3icohx7eofotocxdgkfntnxuj980e9,3u84xhcdigqalf44mal4fkkht6f4z7,aOs5zHKb,2020-0188,2021-10-31,19:26:38,20:24:37,NA,incomplete,true,NA,NA,true,0,5,NA,NA,NA,right,m_l_067.jpg,yellow,green,NA,NA,NA,NA,NA,NA,NA,NA,NA,NaN,NA,1273.7999999998137,right,1,NA,NA,NA,NA,NA
aOs5zHKb,3icohx7eofotocxdgkfntnxuj980e9,3u84xhcdigqalf44mal4fkkht6f4z7,aOs5zHKb,2020-0188,2021-10-31,19:26:38,20:24:37,NA,incomplete,true,NA,NA,true,0,6,NA,NA,NA,left,n_s_017.jpg,brown,green,NA,NA,NA,NA,NA,NA,NA,NA,NA,NaN,NA,1562.5,left,1,NA,NA,NA,NA,NA
aOs5zHKb,3icohx7eofotocxdgkfntnxuj980e9,3u84xhcdigqalf44mal4fkkht6f4z7,aOs5zHKb,2020-0188,2021-10-31,19:26:38,20:24:37,NA,incomplete,true,NA,NA,true,0,7,NA,NA,NA,left,n_l_031.jpg,brown,green,NA,NA,NA,NA,NA,NA,NA,NA,NA,NaN,NA,1741.4000000003725,right,0,NA,NA,NA,NA,NA
aOs5zHKb,3icohx7eofotocxdgkfntnxuj980e9,3u84xhcdigqalf44mal4fkkht6f4z7,aOs5zHKb,2020-0188,2021-10-31,19:26:38,20:24:37,NA,incomplete,true,NA,NA,true,0,8,NA,NA,NA,left,m_s_078.jpg,white,red,NA,NA,NA,NA,NA,NA,NA,NA,NA,NaN,NA,1722.2999999998137,left,1,NA,NA,NA,NA,NA
aOs5zHKb,3icohx7eofotocxdgkfntnxuj980e9,3u84xhcdigqalf44mal4fkkht6f4z7,aOs5zHKb,2020-0188,2021-10-31,19:26:38,20:24:37,NA,incomplete,true,NA,NA,true,0,9,NA,NA,NA,left,n_l_103.jpg,gray,red,NA,NA,NA,NA,NA,NA,NA,NA,NA,NaN,NA,1722.0999999996275,left,1,NA,NA,NA,NA,NA
aOs5zHKb,3icohx7eofotocxdgkfntnxuj980e9,3u84xhcdigqalf44mal4fkkht6f4z7,aOs5zHKb,2020-0188,2021-10-31,19:26:38,20:24:37,NA,incomplete,true,NA,NA,true,0,10,NA,NA,NA,right,m_s_081.jpg,brown,green,NA,NA,NA,NA,NA,NA,NA,NA,NA,NaN,NA,1772.6000000005588,right,1,NA,NA,NA,NA,NA
aOs5zHKb,3icohx7eofotocxdgkfntnxuj980e9,3u84xhcdigqalf44mal4fkkht6f4z7,aOs5zHKb,2020-0188,2021-10-31,19:26:38,20:24:37,NA,incomplete,true,NA,NA,true,0,11,NA,NA,NA,left,n_s_023.jpg,brown,green,NA,NA,NA,NA,NA,NA,NA,NA,NA,NaN,NA,1367.2999999998137,left,1,NA,NA,NA,NA,NA
aOs5zHKb,3icohx7eofotocxdgkfntnxuj980e9,3u84xhcdigqalf44mal4fkkht6f4z7,aOs5zHKb,2020-0188,2021-10-31,19:26:38,20:24:37,NA,incomplete,true,NA,NA,true,0,12,NA,NA,NA,right,n_s_028.jpg,yellow,green,NA,NA,NA,NA,NA,NA,NA,NA,NA,NaN,NA,2079.4000000003725,right,1,NA,NA,NA,NA,NA
aOs5zHKb,3icohx7eofotocxdgkfntnxuj980e9,3u84xhcdigqalf44mal4fkkht6f4z7,aOs5zHKb,2020-0188,2021-10-31,19:26:38,20:24:37,NA,incomplete,true,NA,NA,true,0,13,NA,NA,NA,left,n_s_112.jpg,gray,red,NA,NA,NA,NA,NA,NA,NA,NA,NA,NaN,NA,1489.7999999998137,left,1,NA,NA,NA,NA,NA
aOs5zHKb,3icohx7eofotocxdgkfntnxuj980e9,3u84xhcdigqalf44mal4fkkht6f4z7,aOs5zHKb,2020-0188,2021-10-31,19:26:38,20:24:37,NA,incomplete,true,NA,NA,true,0,14,NA,NA,NA,left,m_l_109.jpg,yellow,white,NA,NA,NA,NA,NA,NA,NA,NA,NA,NaN,NA,1969.5,left,1,NA,NA,NA,NA,NA
aOs5zHKb,3icohx7eofotocxdgkfntnxuj980e9,3u84xhcdigqalf44mal4fkkht6f4z7,aOs5zHKb,2020-0188,2021-10-31,19:26:38,20:24:37,NA,incomplete,true,NA,NA,true,0,15,NA,NA,NA,right,n_l_075.jpg,red,white,NA,NA,NA,NA,NA,NA,NA,NA,NA,NaN,NA,1621.2000000001863,right,1,NA,NA,NA,NA,NA
aOs5zHKb,3icohx7eofotocxdgkfntnxuj980e9,3u84xhcdigqalf44mal4fkkht6f4z7,aOs5zHKb,2020-0188,2021-10-31,19:26:38,20:24:37,NA,incomplete,true,NA,NA,true,0,16,NA,NA,NA,right,n_s_011.jpg,green,yellow,NA,NA,NA,NA,NA,NA,NA,NA,NA,NaN,NA,2305.7000000001863,right,1,NA,NA,NA,NA,NA
aOs5zHKb,3icohx7eofotocxdgkfntnxuj980e9,3u84xhcdigqalf44mal4fkkht6f4z7,aOs5zHKb,2020-0188,2021-10-31,19:26:38,20:24:37,NA,incomplete,true,NA,NA,true,0,17,NA,NA,NA,left,m_s_109.jpg,red,gray,NA,NA,NA,NA,NA,NA,NA,NA,NA,NaN,NA,1962.7000000001863,left,1,NA,NA,NA,NA,NA
aOs5zHKb,3icohx7eofotocxdgkfntnxuj980e9,3u84xhcdigqalf44mal4fkkht6f4z7,aOs5zHKb,2020-0188,2021-10-31,19:26:38,20:24:37,NA,incomplete,true,NA,NA,true,0,18,NA,NA,NA,right,n_l_027.jpg,white,red,NA,NA,NA,NA,NA,NA,NA,NA,NA,NaN,NA,1209.3999999994412,right,1,NA,NA,NA,NA,NA
aOs5zHKb,3icohx7eofotocxdgkfntnxuj980e9,3u84xhcdigqalf44mal4fkkht6f4z7,aOs5zHKb,2020-0188,2021-10-31,19:26:38,20:24:37,NA,incomplete,true,NA,NA,true,0,19,NA,NA,NA,right,m_s_094.jpg,yellow,green,NA,NA,NA,NA,NA,NA,NA,NA,NA,NaN,NA,1351.8999999994412,right,1,NA,NA,NA,NA,NA
aOs5zHKb,3icohx7eofotocxdgkfntnxuj980e9,3u84xhcdigqalf44mal4fkkht6f4z7,aOs5zHKb,2020-0188,2021-10-31,19:26:38,20:24:37,NA,incomplete,true,NA,NA,true,0,20,NA,NA,NA,right,n_s_012.jpg,gray,red,NA,NA,NA,NA,NA,NA,NA,NA,NA,NaN,NA,2775.100000000559,right,1,NA,NA,NA,NA,NA
aOs5zHKb,3icohx7eofotocxdgkfntnxuj980e9,3u84xhcdigqalf44mal4fkkht6f4z7,aOs5zHKb,2020-0188,2021-10-31,19:26:38,20:24:37,NA,incomplete,true,NA,NA,true,0,21,NA,NA,NA,left,n_l_034.jpg,yellow,green,NA,NA,NA,NA,NA,NA,NA,NA,NA,NaN,NA,1526.5999999996275,left,1,NA,NA,NA,NA,NA
aOs5zHKb,3icohx7eofotocxdgkfntnxuj980e9,3u84xhcdigqalf44mal4fkkht6f4z7,aOs5zHKb,2020-0188,2021-10-31,19:26:38,20:24:37,NA,incomplete,true,NA,true,NA,0,0,NA,NA,NA,right,NA,NA,NA,present,NA,NA,m_s_046.jpg,white,n_l_075.jpg,white,within,NA,NaN,NA,NA,NA,NA,right,2454.399999999441,1,2,5299.600000000559
aOs5zHKb,3icohx7eofotocxdgkfntnxuj980e9,3u84xhcdigqalf44mal4fkkht6f4z7,aOs5zHKb,2020-0188,2021-10-31,19:26:38,20:24:37,NA,incomplete,true,NA,true,NA,0,1,NA,NA,NA,right,NA,NA,NA,present,NA,NA,m_l_067.jpg,green,m_s_081.jpg,green,within,NA,NaN,NA,NA,NA,NA,left,3231.199999999255,0,1,2128.7999999998137
aOs5zHKb,3icohx7eofotocxdgkfntnxuj980e9,3u84xhcdigqalf44mal4fkkht6f4z7,aOs5zHKb,2020-0188,2021-10-31,19:26:38,20:24:37,NA,incomplete,true,NA,true,NA,0,2,NA,NA,NA,right,NA,NA,NA,present,NA,NA,n_l_027.jpg,red,m_s_078.jpg,white,between,NA,NaN,NA,NA,NA,NA,left,2823,0,2,1545
aOs5zHKb,3icohx7eofotocxdgkfntnxuj980e9,3u84xhcdigqalf44mal4fkkht6f4z7,aOs5zHKb,2020-0188,2021-10-31,19:26:38,20:24:37,NA,incomplete,true,NA,true,NA,0,3,NA,NA,NA,right,NA,NA,NA,present,NA,NA,m_l_109.jpg,yellow,n_s_028.jpg,green,between,NA,NaN,NA,NA,NA,NA,left,2654.199999999255,0,2,1077.0999999996275
aOs5zHKb,3icohx7eofotocxdgkfntnxuj980e9,3u84xhcdigqalf44mal4fkkht6f4z7,aOs5zHKb,2020-0188,2021-10-31,19:26:38,20:24:37,NA,incomplete,true,NA,true,NA,0,4,NA,NA,NA,right,NA,NA,NA,present,NA,NA,n_l_103.jpg,gray,m_s_007.jpg,gray,within,NA,NaN,NA,NA,NA,NA,right,3390.0999999996275,1,1,1310.7000000001863
aOs5zHKb,3icohx7eofotocxdgkfntnxuj980e9,3u84xhcdigqalf44mal4fkkht6f4z7,aOs5zHKb,2020-0188,2021-10-31,19:26:38,20:24:37,NA,incomplete,true,NA,true,NA,0,5,NA,NA,NA,right,NA,NA,NA,present,NA,NA,n_s_012.jpg,red,m_s_109.jpg,red,within,NA,NaN,NA,NA,NA,NA,right,1987.2000000001863,1,1,1784.5
aOs5zHKb,3icohx7eofotocxdgkfntnxuj980e9,3u84xhcdigqalf44mal4fkkht6f4z7,aOs5zHKb,2020-0188,2021-10-31,19:26:38,20:24:37,NA,incomplete,true,NA,true,NA,0,6,NA,NA,NA,left,NA,NA,NA,present,NA,NA,n_s_078.jpg,red,n_s_112.jpg,gray,between,NA,NaN,NA,NA,NA,NA,left,3098.5,1,2,1106.300000000745
aOs5zHKb,3icohx7eofotocxdgkfntnxuj980e9,3u84xhcdigqalf44mal4fkkht6f4z7,aOs5zHKb,2020-0188,2021-10-31,19:26:38,20:24:37,NA,incomplete,true,NA,true,NA,0,7,NA,NA,NA,left,NA,NA,NA,present,NA,NA,n_l_031.jpg,brown,m_s_094.jpg,green,between,NA,NaN,NA,NA,NA,NA,left,4206.100000000559,1,2,1199
aOs5zHKb,3icohx7eofotocxdgkfntnxuj980e9,3u84xhcdigqalf44mal4fkkht6f4z7,aOs5zHKb,2020-0188,2021-10-31,19:26:38,20:24:37,NA,incomplete,true,NA,true,NA,0,8,NA,NA,NA,right,NA,NA,NA,present,NA,NA,n_s_113.jpg,yellow,n_l_034.jpg,yellow,within,NA,NaN,NA,NA,NA,NA,right,3132.5,1,0,2051.9000000003725
aOs5zHKb,3icohx7eofotocxdgkfntnxuj980e9,3u84xhcdigqalf44mal4fkkht6f4z7,aOs5zHKb,2020-0188,2021-10-31,19:26:38,20:24:37,NA,incomplete,true,NA,true,NA,0,9,NA,NA,NA,left,NA,NA,NA,present,NA,NA,n_s_023.jpg,brown,n_s_017.jpg,brown,within,NA,NaN,NA,NA,NA,NA,left,2708.2999999998137,1,0,1197.199999999255
aOs5zHKb,3icohx7eofotocxdgkfntnxuj980e9,3u84xhcdigqalf44mal4fkkht6f4z7,aOs5zHKb,2020-0188,2021-10-31,19:26:38,20:24:37,NA,incomplete,true,NA,true,NA,0,10,NA,NA,NA,left,NA,NA,NA,present,NA,NA,n_s_011.jpg,yellow,m_s_001.jpg,white,between,NA,NaN,NA,NA,NA,NA,left,3462.5999999996275,1,2,3579.2000000001863
aOs5zHKb,3icohx7eofotocxdgkfntnxuj980e9,3u84xhcdigqalf44mal4fkkht6f4z7,aOs5zHKb,2020-0188,2021-10-31,19:26:38,20:24:37,NA,incomplete,false,true,NA,NA,1,0,NA,brown,n_l_048.jpg,NA,NA,NA,NA,NA,unpleasant,pleasant,NA,NA,NA,NA,NA,right,2739.20000000019,true,NA,NA,NA,NA,NA,NA,NA,NA
aOs5zHKb,3icohx7eofotocxdgkfntnxuj980e9,3u84xhcdigqalf44mal4fkkht6f4z7,aOs5zHKb,2020-0188,2021-10-31,19:26:38,20:24:37,NA,incomplete,false,true,NA,NA,1,1,NA,brown,n_l_017.jpg,NA,NA,NA,NA,NA,pleasant,unpleasant,NA,NA,NA,NA,NA,left,1491.79999999981,true,NA,NA,NA,NA,NA,NA,NA,NA
aOs5zHKb,3icohx7eofotocxdgkfntnxuj980e9,3u84xhcdigqalf44mal4fkkht6f4z7,aOs5zHKb,2020-0188,2021-10-31,19:26:38,20:24:37,NA,incomplete,false,true,NA,NA,1,2,NA,brown,n_s_080.jpg,NA,NA,NA,NA,NA,unpleasant,pleasant,NA,NA,NA,NA,NA,right,2039.69999999925,true,NA,NA,NA,NA,NA,NA,NA,NA
aOs5zHKb,3icohx7eofotocxdgkfntnxuj980e9,3u84xhcdigqalf44mal4fkkht6f4z7,aOs5zHKb,2020-0188,2021-10-31,19:26:38,20:24:37,NA,incomplete,false,true,NA,NA,1,3,NA,brown,n_s_105.jpg,NA,NA,NA,NA,NA,pleasant,unpleasant,NA,NA,NA,NA,NA,left,1503.20000000019,true,NA,NA,NA,NA,NA,NA,NA,NA
aOs5zHKb,3icohx7eofotocxdgkfntnxuj980e9,3u84xhcdigqalf44mal4fkkht6f4z7,aOs5zHKb,2020-0188,2021-10-31,19:26:38,20:24:37,NA,incomplete,false,true,NA,NA,1,4,NA,brown,m_l_001.jpg,NA,NA,NA,NA,NA,unpleasant,pleasant,NA,NA,NA,NA,NA,left,1815.79999999981,true,NA,NA,NA,NA,NA,NA,NA,NA
aOs5zHKb,3icohx7eofotocxdgkfntnxuj980e9,3u84xhcdigqalf44mal4fkkht6f4z7,aOs5zHKb,2020-0188,2021-10-31,19:26:38,20:24:37,NA,incomplete,false,true,NA,NA,1,5,NA,brown,n_s_040.jpg,NA,NA,NA,NA,NA,unpleasant,pleasant,NA,NA,NA,NA,NA,right,1378.40000000037,true,NA,NA,NA,NA,NA,NA,NA,NA
aOs5zHKb,3icohx7eofotocxdgkfntnxuj980e9,3u84xhcdigqalf44mal4fkkht6f4z7,aOs5zHKb,2020-0188,2021-10-31,19:26:38,20:24:37,NA,incomplete,false,true,NA,NA,1,6,NA,white,n_s_026.jpg,NA,NA,NA,NA,NA,pleasant,unpleasant,NA,NA,NA,NA,NA,right,1923.20000000019,true,NA,NA,NA,NA,NA,NA,NA,NA
aOs5zHKb,3icohx7eofotocxdgkfntnxuj980e9,3u84xhcdigqalf44mal4fkkht6f4z7,aOs5zHKb,2020-0188,2021-10-31,19:26:38,20:24:37,NA,incomplete,false,true,NA,NA,1,7,NA,white,m_l_071.jpg,NA,NA,NA,NA,NA,pleasant,unpleasant,NA,NA,NA,NA,NA,left,1228.30000000075,true,NA,NA,NA,NA,NA,NA,NA,NA
aOs5zHKb,3icohx7eofotocxdgkfntnxuj980e9,3u84xhcdigqalf44mal4fkkht6f4z7,aOs5zHKb,2020-0188,2021-10-31,19:26:38,20:24:37,NA,incomplete,false,true,NA,NA,1,8,NA,white,m_s_038.jpg,NA,NA,NA,NA,NA,unpleasant,pleasant,NA,NA,NA,NA,NA,right,1424,true,NA,NA,NA,NA,NA,NA,NA,NA
aOs5zHKb,3icohx7eofotocxdgkfntnxuj980e9,3u84xhcdigqalf44mal4fkkht6f4z7,aOs5zHKb,2020-0188,2021-10-31,19:26:38,20:24:37,NA,incomplete,false,true,NA,NA,1,9,NA,white,m_s_077.jpg,NA,NA,NA,NA,NA,pleasant,unpleasant,NA,NA,NA,NA,NA,left,1318.90000000037,true,NA,NA,NA,NA,NA,NA,NA,NA
aOs5zHKb,3icohx7eofotocxdgkfntnxuj980e9,3u84xhcdigqalf44mal4fkkht6f4z7,aOs5zHKb,2020-0188,2021-10-31,19:26:38,20:24:37,NA,incomplete,false,true,NA,NA,1,10,NA,white,m_s_019.jpg,NA,NA,NA,NA,NA,pleasant,unpleasant,NA,NA,NA,NA,NA,left,1865.40000000037,true,NA,NA,NA,NA,NA,NA,NA,NA
aOs5zHKb,3icohx7eofotocxdgkfntnxuj980e9,3u84xhcdigqalf44mal4fkkht6f4z7,aOs5zHKb,2020-0188,2021-10-31,19:26:38,20:24:37,NA,incomplete,false,true,NA,NA,1,11,NA,white,n_l_098.jpg,NA,NA,NA,NA,NA,pleasant,unpleasant,NA,NA,NA,NA,NA,left,1474.40000000037,true,NA,NA,NA,NA,NA,NA,NA,NA
aOs5zHKb,3icohx7eofotocxdgkfntnxuj980e9,3u84xhcdigqalf44mal4fkkht6f4z7,aOs5zHKb,2020-0188,2021-10-31,19:26:38,20:24:37,NA,incomplete,false,true,NA,NA,1,12,NA,blue,n_l_033.jpg,NA,NA,NA,NA,NA,unpleasant,pleasant,NA,NA,NA,NA,NA,right,1451.80000000075,true,NA,NA,NA,NA,NA,NA,NA,NA
aOs5zHKb,3icohx7eofotocxdgkfntnxuj980e9,3u84xhcdigqalf44mal4fkkht6f4z7,aOs5zHKb,2020-0188,2021-10-31,19:26:38,20:24:37,NA,incomplete,false,true,NA,NA,1,13,NA,blue,m_s_054.jpg,NA,NA,NA,NA,NA,pleasant,unpleasant,NA,NA,NA,NA,NA,right,1244.29999999981,true,NA,NA,NA,NA,NA,NA,NA,NA
aOs5zHKb,3icohx7eofotocxdgkfntnxuj980e9,3u84xhcdigqalf44mal4fkkht6f4z7,aOs5zHKb,2020-0188,2021-10-31,19:26:38,20:24:37,NA,incomplete,false,true,NA,NA,1,14,NA,blue,n_s_056.jpg,NA,NA,NA,NA,NA,pleasant,unpleasant,NA,NA,NA,NA,NA,right,2023.70000000019,true,NA,NA,NA,NA,NA,NA,NA,NA
aOs5zHKb,3icohx7eofotocxdgkfntnxuj980e9,3u84xhcdigqalf44mal4fkkht6f4z7,aOs5zHKb,2020-0188,2021-10-31,19:26:38,20:24:37,NA,incomplete,false,true,NA,NA,1,15,NA,blue,n_l_088.jpg,NA,NA,NA,NA,NA,pleasant,unpleasant,NA,NA,NA,NA,NA,left,1334.5,true,NA,NA,NA,NA,NA,NA,NA,NA
aOs5zHKb,3icohx7eofotocxdgkfntnxuj980e9,3u84xhcdigqalf44mal4fkkht6f4z7,aOs5zHKb,2020-0188,2021-10-31,19:26:38,20:24:37,NA,incomplete,false,true,NA,NA,1,16,NA,blue,m_s_110.jpg,NA,NA,NA,NA,NA,unpleasant,pleasant,NA,NA,NA,NA,NA,right,1807.80000000075,true,NA,NA,NA,NA,NA,NA,NA,NA
aOs5zHKb,3icohx7eofotocxdgkfntnxuj980e9,3u84xhcdigqalf44mal4fkkht6f4z7,aOs5zHKb,2020-0188,2021-10-31,19:26:38,20:24:37,NA,incomplete,false,true,NA,NA,1,17,NA,blue,n_l_055.jpg,NA,NA,NA,NA,NA,unpleasant,pleasant,NA,NA,NA,NA,NA,right,2059.89999999944,true,NA,NA,NA,NA,NA,NA,NA,NA
aOs5zHKb,3icohx7eofotocxdgkfntnxuj980e9,3u84xhcdigqalf44mal4fkkht6f4z7,aOs5zHKb,2020-0188,2021-10-31,19:26:38,20:24:37,NA,incomplete,false,true,NA,NA,1,18,NA,purple,m_l_066.jpg,NA,NA,NA,NA,NA,pleasant,unpleasant,NA,NA,NA,NA,NA,right,1804.90000000037,true,NA,NA,NA,NA,NA,NA,NA,NA
aOs5zHKb,3icohx7eofotocxdgkfntnxuj980e9,3u84xhcdigqalf44mal4fkkht6f4z7,aOs5zHKb,2020-0188,2021-10-31,19:26:38,20:24:37,NA,incomplete,false,true,NA,NA,1,19,NA,purple,n_s_005.jpg,NA,NA,NA,NA,NA,unpleasant,pleasant,NA,NA,NA,NA,NA,right,1318.20000000019,true,NA,NA,NA,NA,NA,NA,NA,NA
aOs5zHKb,3icohx7eofotocxdgkfntnxuj980e9,3u84xhcdigqalf44mal4fkkht6f4z7,aOs5zHKb,2020-0188,2021-10-31,19:26:38,20:24:37,NA,incomplete,false,true,NA,NA,1,20,NA,purple,m_s_012.jpg,NA,NA,NA,NA,NA,pleasant,unpleasant,NA,NA,NA,NA,NA,right,2328.79999999981,true,NA,NA,NA,NA,NA,NA,NA,NA
aOs5zHKb,3icohx7eofotocxdgkfntnxuj980e9,3u84xhcdigqalf44mal4fkkht6f4z7,aOs5zHKb,2020-0188,2021-10-31,19:26:38,20:24:37,NA,incomplete,false,true,NA,NA,1,21,NA,purple,n_l_079.jpg,NA,NA,NA,NA,NA,pleasant,unpleasant,NA,NA,NA,NA,NA,right,1672.09999999963,true,NA,NA,NA,NA,NA,NA,NA,NA
aOs5zHKb,3icohx7eofotocxdgkfntnxuj980e9,3u84xhcdigqalf44mal4fkkht6f4z7,aOs5zHKb,2020-0188,2021-10-31,19:26:38,20:24:37,NA,incomplete,false,true,NA,NA,1,22,NA,purple,m_s_071.jpg,NA,NA,NA,NA,NA,unpleasant,pleasant,NA,NA,NA,NA,NA,left,1329.60000000056,true,NA,NA,NA,NA,NA,NA,NA,NA
aOs5zHKb,3icohx7eofotocxdgkfntnxuj980e9,3u84xhcdigqalf44mal4fkkht6f4z7,aOs5zHKb,2020-0188,2021-10-31,19:26:38,20:24:37,NA,incomplete,false,true,NA,NA,1,23,NA,purple,n_s_049.jpg,NA,NA,NA,NA,NA,pleasant,unpleasant,NA,NA,NA,NA,NA,left,1589.70000000019,true,NA,NA,NA,NA,NA,NA,NA,NA
aOs5zHKb,3icohx7eofotocxdgkfntnxuj980e9,3u84xhcdigqalf44mal4fkkht6f4z7,aOs5zHKb,2020-0188,2021-10-31,19:26:38,20:24:37,NA,incomplete,false,true,NA,NA,1,24,NA,gray,n_s_010.jpg,NA,NA,NA,NA,NA,unpleasant,pleasant,NA,NA,NA,NA,NA,right,1260.79999999981,true,NA,NA,NA,NA,NA,NA,NA,NA
aOs5zHKb,3icohx7eofotocxdgkfntnxuj980e9,3u84xhcdigqalf44mal4fkkht6f4z7,aOs5zHKb,2020-0188,2021-10-31,19:26:38,20:24:37,NA,incomplete,false,true,NA,NA,1,25,NA,gray,n_s_025.jpg,NA,NA,NA,NA,NA,unpleasant,pleasant,NA,NA,NA,NA,NA,right,1183,true,NA,NA,NA,NA,NA,NA,NA,NA
aOs5zHKb,3icohx7eofotocxdgkfntnxuj980e9,3u84xhcdigqalf44mal4fkkht6f4z7,aOs5zHKb,2020-0188,2021-10-31,19:26:38,20:24:37,NA,incomplete,false,true,NA,NA,1,26,NA,gray,n_l_092.jpg,NA,NA,NA,NA,NA,unpleasant,pleasant,NA,NA,NA,NA,NA,right,1425.5,true,NA,NA,NA,NA,NA,NA,NA,NA
aOs5zHKb,3icohx7eofotocxdgkfntnxuj980e9,3u84xhcdigqalf44mal4fkkht6f4z7,aOs5zHKb,2020-0188,2021-10-31,19:26:38,20:24:37,NA,incomplete,false,true,NA,NA,1,27,NA,gray,m_s_107.jpg,NA,NA,NA,NA,NA,unpleasant,pleasant,NA,NA,NA,NA,NA,right,1441.89999999944,true,NA,NA,NA,NA,NA,NA,NA,NA
aOs5zHKb,3icohx7eofotocxdgkfntnxuj980e9,3u84xhcdigqalf44mal4fkkht6f4z7,aOs5zHKb,2020-0188,2021-10-31,19:26:38,20:24:37,NA,incomplete,false,true,NA,NA,1,28,NA,gray,m_s_047.jpg,NA,NA,NA,NA,NA,unpleasant,pleasant,NA,NA,NA,NA,NA,right,1770.20000000019,true,NA,NA,NA,NA,NA,NA,NA,NA
aOs5zHKb,3icohx7eofotocxdgkfntnxuj980e9,3u84xhcdigqalf44mal4fkkht6f4z7,aOs5zHKb,2020-0188,2021-10-31,19:26:38,20:24:37,NA,incomplete,false,true,NA,NA,1,29,NA,gray,m_s_014.jpg,NA,NA,NA,NA,NA,pleasant,unpleasant,NA,NA,NA,NA,NA,left,1454.20000000019,true,NA,NA,NA,NA,NA,NA,NA,NA
aOs5zHKb,3icohx7eofotocxdgkfntnxuj980e9,3u84xhcdigqalf44mal4fkkht6f4z7,aOs5zHKb,2020-0188,2021-10-31,19:26:38,20:24:37,NA,incomplete,false,true,NA,NA,1,30,NA,green,m_s_089.jpg,NA,NA,NA,NA,NA,unpleasant,pleasant,NA,NA,NA,NA,NA,left,1766,true,NA,NA,NA,NA,NA,NA,NA,NA
aOs5zHKb,3icohx7eofotocxdgkfntnxuj980e9,3u84xhcdigqalf44mal4fkkht6f4z7,aOs5zHKb,2020-0188,2021-10-31,19:26:38,20:24:37,NA,incomplete,false,true,NA,NA,1,31,NA,green,m_s_009.jpg,NA,NA,NA,NA,NA,unpleasant,pleasant,NA,NA,NA,NA,NA,left,1352.20000000019,true,NA,NA,NA,NA,NA,NA,NA,NA
aOs5zHKb,3icohx7eofotocxdgkfntnxuj980e9,3u84xhcdigqalf44mal4fkkht6f4z7,aOs5zHKb,2020-0188,2021-10-31,19:26:38,20:24:37,NA,incomplete,false,true,NA,NA,1,32,NA,green,n_l_001.jpg,NA,NA,NA,NA,NA,unpleasant,pleasant,NA,NA,NA,NA,NA,right,842.5,true,NA,NA,NA,NA,NA,NA,NA,NA
aOs5zHKb,3icohx7eofotocxdgkfntnxuj980e9,3u84xhcdigqalf44mal4fkkht6f4z7,aOs5zHKb,2020-0188,2021-10-31,19:26:38,20:24:37,NA,incomplete,false,true,NA,NA,1,33,NA,green,m_s_053.jpg,NA,NA,NA,NA,NA,unpleasant,pleasant,NA,NA,NA,NA,NA,left,1841.39999999944,true,NA,NA,NA,NA,NA,NA,NA,NA
aOs5zHKb,3icohx7eofotocxdgkfntnxuj980e9,3u84xhcdigqalf44mal4fkkht6f4z7,aOs5zHKb,2020-0188,2021-10-31,19:26:38,20:24:37,NA,incomplete,false,true,NA,NA,1,34,NA,green,n_s_081.jpg,NA,NA,NA,NA,NA,pleasant,unpleasant,NA,NA,NA,NA,NA,left,2101.19999999925,true,NA,NA,NA,NA,NA,NA,NA,NA
aOs5zHKb,3icohx7eofotocxdgkfntnxuj980e9,3u84xhcdigqalf44mal4fkkht6f4z7,aOs5zHKb,2020-0188,2021-10-31,19:26:38,20:24:37,NA,incomplete,false,true,NA,NA,1,35,NA,green,m_s_015.jpg,NA,NA,NA,NA,NA,pleasant,unpleasant,NA,NA,NA,NA,NA,right,1453.5,true,NA,NA,NA,NA,NA,NA,NA,NA
aOs5zHKb,3icohx7eofotocxdgkfntnxuj980e9,3u84xhcdigqalf44mal4fkkht6f4z7,aOs5zHKb,2020-0188,2021-10-31,19:26:38,20:24:37,NA,incomplete,false,NA,NA,true,1,0,NA,NA,NA,right,m_s_071.jpg,gray,purple,NA,NA,NA,NA,NA,NA,NA,NA,NA,NaN,NA,1778.199999999255,right,1,NA,NA,NA,NA,NA
aOs5zHKb,3icohx7eofotocxdgkfntnxuj980e9,3u84xhcdigqalf44mal4fkkht6f4z7,aOs5zHKb,2020-0188,2021-10-31,19:26:38,20:24:37,NA,incomplete,false,NA,NA,true,1,1,NA,NA,NA,right,m_l_001.jpg,white,brown,NA,NA,NA,NA,NA,NA,NA,NA,NA,NaN,NA,1394.4000000003725,right,1,NA,NA,NA,NA,NA
aOs5zHKb,3icohx7eofotocxdgkfntnxuj980e9,3u84xhcdigqalf44mal4fkkht6f4z7,aOs5zHKb,2020-0188,2021-10-31,19:26:38,20:24:37,NA,incomplete,false,NA,NA,true,1,2,NA,NA,NA,right,n_s_040.jpg,white,brown,NA,NA,NA,NA,NA,NA,NA,NA,NA,NaN,NA,1287,right,1,NA,NA,NA,NA,NA
aOs5zHKb,3icohx7eofotocxdgkfntnxuj980e9,3u84xhcdigqalf44mal4fkkht6f4z7,aOs5zHKb,2020-0188,2021-10-31,19:26:38,20:24:37,NA,incomplete,false,NA,NA,true,1,3,NA,NA,NA,right,n_l_055.jpg,purple,blue,NA,NA,NA,NA,NA,NA,NA,NA,NA,NaN,NA,1247.2000000001863,right,1,NA,NA,NA,NA,NA
aOs5zHKb,3icohx7eofotocxdgkfntnxuj980e9,3u84xhcdigqalf44mal4fkkht6f4z7,aOs5zHKb,2020-0188,2021-10-31,19:26:38,20:24:37,NA,incomplete,false,NA,NA,true,1,4,NA,NA,NA,right,n_s_005.jpg,gray,purple,NA,NA,NA,NA,NA,NA,NA,NA,NA,NaN,NA,1316.800000000745,right,1,NA,NA,NA,NA,NA
aOs5zHKb,3icohx7eofotocxdgkfntnxuj980e9,3u84xhcdigqalf44mal4fkkht6f4z7,aOs5zHKb,2020-0188,2021-10-31,19:26:38,20:24:37,NA,incomplete,false,NA,NA,true,1,5,NA,NA,NA,right,n_l_017.jpg,white,brown,NA,NA,NA,NA,NA,NA,NA,NA,NA,NaN,NA,1241.2000000001863,right,1,NA,NA,NA,NA,NA
aOs5zHKb,3icohx7eofotocxdgkfntnxuj980e9,3u84xhcdigqalf44mal4fkkht6f4z7,aOs5zHKb,2020-0188,2021-10-31,19:26:38,20:24:37,NA,incomplete,false,NA,NA,true,1,6,NA,NA,NA,right,m_s_054.jpg,white,blue,NA,NA,NA,NA,NA,NA,NA,NA,NA,NaN,NA,1345,right,1,NA,NA,NA,NA,NA
aOs5zHKb,3icohx7eofotocxdgkfntnxuj980e9,3u84xhcdigqalf44mal4fkkht6f4z7,aOs5zHKb,2020-0188,2021-10-31,19:26:38,20:24:37,NA,incomplete,false,NA,NA,true,1,7,NA,NA,NA,left,n_l_092.jpg,gray,green,NA,NA,NA,NA,NA,NA,NA,NA,NA,NaN,NA,1742.7999999998137,left,1,NA,NA,NA,NA,NA
aOs5zHKb,3icohx7eofotocxdgkfntnxuj980e9,3u84xhcdigqalf44mal4fkkht6f4z7,aOs5zHKb,2020-0188,2021-10-31,19:26:38,20:24:37,NA,incomplete,false,NA,NA,true,1,8,NA,NA,NA,right,m_s_015.jpg,gray,green,NA,NA,NA,NA,NA,NA,NA,NA,NA,NaN,NA,2061.899999999441,right,1,NA,NA,NA,NA,NA
aOs5zHKb,3icohx7eofotocxdgkfntnxuj980e9,3u84xhcdigqalf44mal4fkkht6f4z7,aOs5zHKb,2020-0188,2021-10-31,19:26:38,20:24:37,NA,incomplete,false,NA,NA,true,1,9,NA,NA,NA,right,m_s_014.jpg,green,gray,NA,NA,NA,NA,NA,NA,NA,NA,NA,NaN,NA,1189.7999999998137,right,1,NA,NA,NA,NA,NA
aOs5zHKb,3icohx7eofotocxdgkfntnxuj980e9,3u84xhcdigqalf44mal4fkkht6f4z7,aOs5zHKb,2020-0188,2021-10-31,19:26:38,20:24:37,NA,incomplete,false,NA,NA,true,1,10,NA,NA,NA,right,m_s_012.jpg,gray,purple,NA,NA,NA,NA,NA,NA,NA,NA,NA,NaN,NA,1092.199999999255,right,1,NA,NA,NA,NA,NA
aOs5zHKb,3icohx7eofotocxdgkfntnxuj980e9,3u84xhcdigqalf44mal4fkkht6f4z7,aOs5zHKb,2020-0188,2021-10-31,19:26:38,20:24:37,NA,incomplete,false,NA,NA,true,1,11,NA,NA,NA,left,m_s_038.jpg,white,blue,NA,NA,NA,NA,NA,NA,NA,NA,NA,NaN,NA,1600.0999999996275,left,1,NA,NA,NA,NA,NA
aOs5zHKb,3icohx7eofotocxdgkfntnxuj980e9,3u84xhcdigqalf44mal4fkkht6f4z7,aOs5zHKb,2020-0188,2021-10-31,19:26:38,20:24:37,NA,incomplete,false,NA,NA,true,1,12,NA,NA,NA,left,m_l_071.jpg,white,brown,NA,NA,NA,NA,NA,NA,NA,NA,NA,NaN,NA,1619.0999999996275,left,1,NA,NA,NA,NA,NA
aOs5zHKb,3icohx7eofotocxdgkfntnxuj980e9,3u84xhcdigqalf44mal4fkkht6f4z7,aOs5zHKb,2020-0188,2021-10-31,19:26:38,20:24:37,NA,incomplete,false,NA,NA,true,1,13,NA,NA,NA,right,m_s_110.jpg,purple,blue,NA,NA,NA,NA,NA,NA,NA,NA,NA,NaN,NA,1288,right,1,NA,NA,NA,NA,NA
aOs5zHKb,3icohx7eofotocxdgkfntnxuj980e9,3u84xhcdigqalf44mal4fkkht6f4z7,aOs5zHKb,2020-0188,2021-10-31,19:26:38,20:24:37,NA,incomplete,false,NA,NA,true,1,14,NA,NA,NA,left,n_s_049.jpg,purple,gray,NA,NA,NA,NA,NA,NA,NA,NA,NA,NaN,NA,2045,left,1,NA,NA,NA,NA,NA
aOs5zHKb,3icohx7eofotocxdgkfntnxuj980e9,3u84xhcdigqalf44mal4fkkht6f4z7,aOs5zHKb,2020-0188,2021-10-31,19:26:38,20:24:37,NA,incomplete,false,NA,NA,true,1,15,NA,NA,NA,right,n_s_025.jpg,purple,gray,NA,NA,NA,NA,NA,NA,NA,NA,NA,NaN,NA,2893.5,right,1,NA,NA,NA,NA,NA
aOs5zHKb,3icohx7eofotocxdgkfntnxuj980e9,3u84xhcdigqalf44mal4fkkht6f4z7,aOs5zHKb,2020-0188,2021-10-31,19:26:38,20:24:37,NA,incomplete,false,NA,NA,true,1,16,NA,NA,NA,left,m_s_009.jpg,green,gray,NA,NA,NA,NA,NA,NA,NA,NA,NA,NaN,NA,2797.5999999996275,left,1,NA,NA,NA,NA,NA
aOs5zHKb,3icohx7eofotocxdgkfntnxuj980e9,3u84xhcdigqalf44mal4fkkht6f4z7,aOs5zHKb,2020-0188,2021-10-31,19:26:38,20:24:37,NA,incomplete,false,NA,NA,true,1,17,NA,NA,NA,left,n_s_056.jpg,blue,purple,NA,NA,NA,NA,NA,NA,NA,NA,NA,NaN,NA,1488.5999999996275,left,1,NA,NA,NA,NA,NA
aOs5zHKb,3icohx7eofotocxdgkfntnxuj980e9,3u84xhcdigqalf44mal4fkkht6f4z7,aOs5zHKb,2020-0188,2021-10-31,19:26:38,20:24:37,NA,incomplete,false,NA,NA,true,1,18,NA,NA,NA,right,m_s_047.jpg,green,gray,NA,NA,NA,NA,NA,NA,NA,NA,NA,NaN,NA,1257,right,1,NA,NA,NA,NA,NA
aOs5zHKb,3icohx7eofotocxdgkfntnxuj980e9,3u84xhcdigqalf44mal4fkkht6f4z7,aOs5zHKb,2020-0188,2021-10-31,19:26:38,20:24:37,NA,incomplete,false,NA,NA,true,1,19,NA,NA,NA,right,n_l_001.jpg,gray,green,NA,NA,NA,NA,NA,NA,NA,NA,NA,NaN,NA,1387.9000000003725,right,1,NA,NA,NA,NA,NA
aOs5zHKb,3icohx7eofotocxdgkfntnxuj980e9,3u84xhcdigqalf44mal4fkkht6f4z7,aOs5zHKb,2020-0188,2021-10-31,19:26:38,20:24:37,NA,incomplete,false,NA,NA,true,1,20,NA,NA,NA,right,m_s_019.jpg,brown,white,NA,NA,NA,NA,NA,NA,NA,NA,NA,NaN,NA,1152.2999999998137,right,1,NA,NA,NA,NA,NA
aOs5zHKb,3icohx7eofotocxdgkfntnxuj980e9,3u84xhcdigqalf44mal4fkkht6f4z7,aOs5zHKb,2020-0188,2021-10-31,19:26:38,20:24:37,NA,incomplete,false,NA,NA,true,1,21,NA,NA,NA,left,n_l_098.jpg,white,blue,NA,NA,NA,NA,NA,NA,NA,NA,NA,NaN,NA,1362.0999999996275,left,1,NA,NA,NA,NA,NA
aOs5zHKb,3icohx7eofotocxdgkfntnxuj980e9,3u84xhcdigqalf44mal4fkkht6f4z7,aOs5zHKb,2020-0188,2021-10-31,19:26:38,20:24:37,NA,incomplete,false,NA,true,NA,1,0,NA,NA,NA,left,NA,NA,NA,present,NA,NA,m_s_019.jpg,white,n_s_056.jpg,blue,between,NA,NaN,NA,NA,NA,NA,right,3247.0999999996275,0,2,1491.1000000005588
aOs5zHKb,3icohx7eofotocxdgkfntnxuj980e9,3u84xhcdigqalf44mal4fkkht6f4z7,aOs5zHKb,2020-0188,2021-10-31,19:26:38,20:24:37,NA,incomplete,false,NA,true,NA,1,1,NA,NA,NA,left,NA,NA,NA,present,NA,NA,m_s_054.jpg,blue,n_l_055.jpg,blue,within,NA,NaN,NA,NA,NA,NA,left,2202.7000000001863,1,0,1182.7999999998137
aOs5zHKb,3icohx7eofotocxdgkfntnxuj980e9,3u84xhcdigqalf44mal4fkkht6f4z7,aOs5zHKb,2020-0188,2021-10-31,19:26:38,20:24:37,NA,incomplete,false,NA,true,NA,1,2,NA,NA,NA,left,NA,NA,NA,present,NA,NA,m_s_009.jpg,green,m_s_015.jpg,green,within,NA,NaN,NA,NA,NA,NA,left,2179.5,1,0,1586.3999999994412
aOs5zHKb,3icohx7eofotocxdgkfntnxuj980e9,3u84xhcdigqalf44mal4fkkht6f4z7,aOs5zHKb,2020-0188,2021-10-31,19:26:38,20:24:37,NA,incomplete,false,NA,true,NA,1,3,NA,NA,NA,right,NA,NA,NA,present,NA,NA,n_s_049.jpg,purple,n_s_005.jpg,purple,within,NA,NaN,NA,NA,NA,NA,right,3332.600000000559,1,1,1024.3999999994412
aOs5zHKb,3icohx7eofotocxdgkfntnxuj980e9,3u84xhcdigqalf44mal4fkkht6f4z7,aOs5zHKb,2020-0188,2021-10-31,19:26:38,20:24:37,NA,incomplete,false,NA,true,NA,1,4,NA,NA,NA,left,NA,NA,NA,present,NA,NA,m_l_071.jpg,white,n_l_098.jpg,white,within,NA,NaN,NA,NA,NA,NA,left,3221.7999999998137,1,1,1488.2000000001863
aOs5zHKb,3icohx7eofotocxdgkfntnxuj980e9,3u84xhcdigqalf44mal4fkkht6f4z7,aOs5zHKb,2020-0188,2021-10-31,19:26:38,20:24:37,NA,incomplete,false,NA,true,NA,1,5,NA,NA,NA,left,NA,NA,NA,present,NA,NA,m_l_001.jpg,brown,m_s_038.jpg,white,between,NA,NaN,NA,NA,NA,NA,left,5193.799999999814,1,2,1707.7999999998137
aOs5zHKb,3icohx7eofotocxdgkfntnxuj980e9,3u84xhcdigqalf44mal4fkkht6f4z7,aOs5zHKb,2020-0188,2021-10-31,19:26:38,20:24:37,NA,incomplete,false,NA,true,NA,1,6,NA,NA,NA,right,NA,NA,NA,present,NA,NA,n_s_040.jpg,brown,n_l_017.jpg,brown,within,NA,NaN,NA,NA,NA,NA,right,2433.0999999996275,1,1,1660.800000000745
aOs5zHKb,3icohx7eofotocxdgkfntnxuj980e9,3u84xhcdigqalf44mal4fkkht6f4z7,aOs5zHKb,2020-0188,2021-10-31,19:26:38,20:24:37,NA,incomplete,false,NA,true,NA,1,7,NA,NA,NA,left,NA,NA,NA,present,NA,NA,m_s_047.jpg,gray,n_l_001.jpg,green,between,NA,NaN,NA,NA,NA,NA,right,1543.8999999994412,0,2,1648.8999999994412
aOs5zHKb,3icohx7eofotocxdgkfntnxuj980e9,3u84xhcdigqalf44mal4fkkht6f4z7,aOs5zHKb,2020-0188,2021-10-31,19:26:38,20:24:37,NA,incomplete,false,NA,true,NA,1,8,NA,NA,NA,right,NA,NA,NA,present,NA,NA,m_s_012.jpg,purple,m_s_110.jpg,blue,between,NA,NaN,NA,NA,NA,NA,right,1835.3999999994412,1,2,1381.5
aOs5zHKb,3icohx7eofotocxdgkfntnxuj980e9,3u84xhcdigqalf44mal4fkkht6f4z7,aOs5zHKb,2020-0188,2021-10-31,19:26:38,20:24:37,NA,incomplete,false,NA,true,NA,1,9,NA,NA,NA,right,NA,NA,NA,present,NA,NA,n_l_092.jpg,gray,m_s_071.jpg,purple,between,NA,NaN,NA,NA,NA,NA,right,2249.7000000001863,1,3,2769.300000000745
aOs5zHKb,3icohx7eofotocxdgkfntnxuj980e9,3u84xhcdigqalf44mal4fkkht6f4z7,aOs5zHKb,2020-0188,2021-10-31,19:26:38,20:24:37,NA,incomplete,false,NA,true,NA,1,10,NA,NA,NA,right,NA,NA,NA,present,NA,NA,m_s_014.jpg,gray,n_s_025.jpg,gray,within,NA,NaN,NA,NA,NA,NA,right,3028.899999999441,1,0,1119.3999999994412
aOs5zHKb,3icohx7eofotocxdgkfntnxuj980e9,3u84xhcdigqalf44mal4fkkht6f4z7,aOs5zHKb,2020-0188,2021-10-31,19:26:38,20:24:37,NA,incomplete,false,true,NA,NA,2,0,NA,purple,n_l_028.jpg,NA,NA,NA,NA,NA,unpleasant,pleasant,NA,NA,NA,NA,NA,right,2502.5,true,NA,NA,NA,NA,NA,NA,NA,NA
aOs5zHKb,3icohx7eofotocxdgkfntnxuj980e9,3u84xhcdigqalf44mal4fkkht6f4z7,aOs5zHKb,2020-0188,2021-10-31,19:26:38,20:24:37,NA,incomplete,false,true,NA,NA,2,1,NA,purple,m_s_061.jpg,NA,NA,NA,NA,NA,pleasant,unpleasant,NA,NA,NA,NA,NA,left,1550.5,true,NA,NA,NA,NA,NA,NA,NA,NA
aOs5zHKb,3icohx7eofotocxdgkfntnxuj980e9,3u84xhcdigqalf44mal4fkkht6f4z7,aOs5zHKb,2020-0188,2021-10-31,19:26:38,20:24:37,NA,incomplete,false,true,NA,NA,2,2,NA,purple,n_l_013.jpg,NA,NA,NA,NA,NA,pleasant,unpleasant,NA,NA,NA,NA,NA,left,1450.29999999981,true,NA,NA,NA,NA,NA,NA,NA,NA
aOs5zHKb,3icohx7eofotocxdgkfntnxuj980e9,3u84xhcdigqalf44mal4fkkht6f4z7,aOs5zHKb,2020-0188,2021-10-31,19:26:38,20:24:37,NA,incomplete,false,true,NA,NA,2,3,NA,purple,m_s_096.jpg,NA,NA,NA,NA,NA,unpleasant,pleasant,NA,NA,NA,NA,NA,right,2019.5,true,NA,NA,NA,NA,NA,NA,NA,NA
aOs5zHKb,3icohx7eofotocxdgkfntnxuj980e9,3u84xhcdigqalf44mal4fkkht6f4z7,aOs5zHKb,2020-0188,2021-10-31,19:26:38,20:24:37,NA,incomplete,false,true,NA,NA,2,4,NA,purple,n_l_106.jpg,NA,NA,NA,NA,NA,pleasant,unpleasant,NA,NA,NA,NA,NA,right,2516.09999999963,true,NA,NA,NA,NA,NA,NA,NA,NA
aOs5zHKb,3icohx7eofotocxdgkfntnxuj980e9,3u84xhcdigqalf44mal4fkkht6f4z7,aOs5zHKb,2020-0188,2021-10-31,19:26:38,20:24:37,NA,incomplete,false,true,NA,NA,2,5,NA,purple,n_s_095.jpg,NA,NA,NA,NA,NA,unpleasant,pleasant,NA,NA,NA,NA,NA,right,1317.29999999981,true,NA,NA,NA,NA,NA,NA,NA,NA
aOs5zHKb,3icohx7eofotocxdgkfntnxuj980e9,3u84xhcdigqalf44mal4fkkht6f4z7,aOs5zHKb,2020-0188,2021-10-31,19:26:38,20:24:37,NA,incomplete,false,true,NA,NA,2,6,NA,gray,n_s_063.jpg,NA,NA,NA,NA,NA,pleasant,unpleasant,NA,NA,NA,NA,NA,left,1143.19999999925,true,NA,NA,NA,NA,NA,NA,NA,NA
aOs5zHKb,3icohx7eofotocxdgkfntnxuj980e9,3u84xhcdigqalf44mal4fkkht6f4z7,aOs5zHKb,2020-0188,2021-10-31,19:26:38,20:24:37,NA,incomplete,false,true,NA,NA,2,7,NA,gray,m_s_052.jpg,NA,NA,NA,NA,NA,unpleasant,pleasant,NA,NA,NA,NA,NA,right,1633.5,true,NA,NA,NA,NA,NA,NA,NA,NA
aOs5zHKb,3icohx7eofotocxdgkfntnxuj980e9,3u84xhcdigqalf44mal4fkkht6f4z7,aOs5zHKb,2020-0188,2021-10-31,19:26:38,20:24:37,NA,incomplete,false,true,NA,NA,2,8,NA,gray,m_l_016.jpg,NA,NA,NA,NA,NA,unpleasant,pleasant,NA,NA,NA,NA,NA,right,1065.29999999981,true,NA,NA,NA,NA,NA,NA,NA,NA
aOs5zHKb,3icohx7eofotocxdgkfntnxuj980e9,3u84xhcdigqalf44mal4fkkht6f4z7,aOs5zHKb,2020-0188,2021-10-31,19:26:38,20:24:37,NA,incomplete,false,true,NA,NA,2,9,NA,gray,n_s_097.jpg,NA,NA,NA,NA,NA,unpleasant,pleasant,NA,NA,NA,NA,NA,right,876,true,NA,NA,NA,NA,NA,NA,NA,NA
aOs5zHKb,3icohx7eofotocxdgkfntnxuj980e9,3u84xhcdigqalf44mal4fkkht6f4z7,aOs5zHKb,2020-0188,2021-10-31,19:26:38,20:24:37,NA,incomplete,false,true,NA,NA,2,10,NA,gray,m_l_062.jpg,NA,NA,NA,NA,NA,unpleasant,pleasant,NA,NA,NA,NA,NA,right,1494.29999999981,true,NA,NA,NA,NA,NA,NA,NA,NA
aOs5zHKb,3icohx7eofotocxdgkfntnxuj980e9,3u84xhcdigqalf44mal4fkkht6f4z7,aOs5zHKb,2020-0188,2021-10-31,19:26:38,20:24:37,NA,incomplete,false,true,NA,NA,2,11,NA,gray,n_s_032.jpg,NA,NA,NA,NA,NA,pleasant,unpleasant,NA,NA,NA,NA,NA,left,1341.5,true,NA,NA,NA,NA,NA,NA,NA,NA
aOs5zHKb,3icohx7eofotocxdgkfntnxuj980e9,3u84xhcdigqalf44mal4fkkht6f4z7,aOs5zHKb,2020-0188,2021-10-31,19:26:38,20:24:37,NA,incomplete,false,true,NA,NA,2,12,NA,orange,n_l_052.jpg,NA,NA,NA,NA,NA,unpleasant,pleasant,NA,NA,NA,NA,NA,left,1255,true,NA,NA,NA,NA,NA,NA,NA,NA
aOs5zHKb,3icohx7eofotocxdgkfntnxuj980e9,3u84xhcdigqalf44mal4fkkht6f4z7,aOs5zHKb,2020-0188,2021-10-31,19:26:38,20:24:37,NA,incomplete,false,true,NA,NA,2,13,NA,orange,n_s_067.jpg,NA,NA,NA,NA,NA,unpleasant,pleasant,NA,NA,NA,NA,NA,left,1522,true,NA,NA,NA,NA,NA,NA,NA,NA
aOs5zHKb,3icohx7eofotocxdgkfntnxuj980e9,3u84xhcdigqalf44mal4fkkht6f4z7,aOs5zHKb,2020-0188,2021-10-31,19:26:38,20:24:37,NA,incomplete,false,true,NA,NA,2,14,NA,orange,n_s_033.jpg,NA,NA,NA,NA,NA,unpleasant,pleasant,NA,NA,NA,NA,NA,right,1442.39999999944,true,NA,NA,NA,NA,NA,NA,NA,NA
aOs5zHKb,3icohx7eofotocxdgkfntnxuj980e9,3u84xhcdigqalf44mal4fkkht6f4z7,aOs5zHKb,2020-0188,2021-10-31,19:26:38,20:24:37,NA,incomplete,false,true,NA,NA,2,15,NA,orange,n_l_072.jpg,NA,NA,NA,NA,NA,unpleasant,pleasant,NA,NA,NA,NA,NA,left,1467.69999999925,true,NA,NA,NA,NA,NA,NA,NA,NA
aOs5zHKb,3icohx7eofotocxdgkfntnxuj980e9,3u84xhcdigqalf44mal4fkkht6f4z7,aOs5zHKb,2020-0188,2021-10-31,19:26:38,20:24:37,NA,incomplete,false,true,NA,NA,2,16,NA,orange,m_l_007.jpg,NA,NA,NA,NA,NA,unpleasant,pleasant,NA,NA,NA,NA,NA,left,1462.70000000019,true,NA,NA,NA,NA,NA,NA,NA,NA
aOs5zHKb,3icohx7eofotocxdgkfntnxuj980e9,3u84xhcdigqalf44mal4fkkht6f4z7,aOs5zHKb,2020-0188,2021-10-31,19:26:38,20:24:37,NA,incomplete,false,true,NA,NA,2,17,NA,orange,n_s_108.jpg,NA,NA,NA,NA,NA,pleasant,unpleasant,NA,NA,NA,NA,NA,right,1639.39999999944,true,NA,NA,NA,NA,NA,NA,NA,NA
aOs5zHKb,3icohx7eofotocxdgkfntnxuj980e9,3u84xhcdigqalf44mal4fkkht6f4z7,aOs5zHKb,2020-0188,2021-10-31,19:26:38,20:24:37,NA,incomplete,false,true,NA,NA,2,18,NA,black,n_s_100.jpg,NA,NA,NA,NA,NA,unpleasant,pleasant,NA,NA,NA,NA,NA,left,1246.70000000019,true,NA,NA,NA,NA,NA,NA,NA,NA
aOs5zHKb,3icohx7eofotocxdgkfntnxuj980e9,3u84xhcdigqalf44mal4fkkht6f4z7,aOs5zHKb,2020-0188,2021-10-31,19:26:38,20:24:37,NA,incomplete,false,true,NA,NA,2,19,NA,black,n_l_097.jpg,NA,NA,NA,NA,NA,unpleasant,pleasant,NA,NA,NA,NA,NA,right,1026.59999999963,true,NA,NA,NA,NA,NA,NA,NA,NA
aOs5zHKb,3icohx7eofotocxdgkfntnxuj980e9,3u84xhcdigqalf44mal4fkkht6f4z7,aOs5zHKb,2020-0188,2021-10-31,19:26:38,20:24:37,NA,incomplete,false,true,NA,NA,2,20,NA,black,n_l_020.jpg,NA,NA,NA,NA,NA,pleasant,unpleasant,NA,NA,NA,NA,NA,left,1410.60000000056,true,NA,NA,NA,NA,NA,NA,NA,NA
aOs5zHKb,3icohx7eofotocxdgkfntnxuj980e9,3u84xhcdigqalf44mal4fkkht6f4z7,aOs5zHKb,2020-0188,2021-10-31,19:26:38,20:24:37,NA,incomplete,false,true,NA,NA,2,21,NA,black,n_l_041.jpg,NA,NA,NA,NA,NA,pleasant,unpleasant,NA,NA,NA,NA,NA,left,1186.20000000019,true,NA,NA,NA,NA,NA,NA,NA,NA
aOs5zHKb,3icohx7eofotocxdgkfntnxuj980e9,3u84xhcdigqalf44mal4fkkht6f4z7,aOs5zHKb,2020-0188,2021-10-31,19:26:38,20:24:37,NA,incomplete,false,true,NA,NA,2,22,NA,black,m_s_029.jpg,NA,NA,NA,NA,NA,unpleasant,pleasant,NA,NA,NA,NA,NA,right,1437.90000000037,true,NA,NA,NA,NA,NA,NA,NA,NA
aOs5zHKb,3icohx7eofotocxdgkfntnxuj980e9,3u84xhcdigqalf44mal4fkkht6f4z7,aOs5zHKb,2020-0188,2021-10-31,19:26:38,20:24:37,NA,incomplete,false,true,NA,NA,2,23,NA,black,m_s_114.jpg,NA,NA,NA,NA,NA,pleasant,unpleasant,NA,NA,NA,NA,NA,left,1287,true,NA,NA,NA,NA,NA,NA,NA,NA
aOs5zHKb,3icohx7eofotocxdgkfntnxuj980e9,3u84xhcdigqalf44mal4fkkht6f4z7,aOs5zHKb,2020-0188,2021-10-31,19:26:38,20:24:37,NA,incomplete,false,true,NA,NA,2,24,NA,red,m_s_006.jpg,NA,NA,NA,NA,NA,unpleasant,pleasant,NA,NA,NA,NA,NA,left,2288.39999999944,true,NA,NA,NA,NA,NA,NA,NA,NA
aOs5zHKb,3icohx7eofotocxdgkfntnxuj980e9,3u84xhcdigqalf44mal4fkkht6f4z7,aOs5zHKb,2020-0188,2021-10-31,19:26:38,20:24:37,NA,incomplete,false,true,NA,NA,2,25,NA,red,n_l_105.jpg,NA,NA,NA,NA,NA,pleasant,unpleasant,NA,NA,NA,NA,NA,right,1716.70000000019,true,NA,NA,NA,NA,NA,NA,NA,NA
aOs5zHKb,3icohx7eofotocxdgkfntnxuj980e9,3u84xhcdigqalf44mal4fkkht6f4z7,aOs5zHKb,2020-0188,2021-10-31,19:26:38,20:24:37,NA,incomplete,false,true,NA,NA,2,26,NA,red,m_s_095.jpg,NA,NA,NA,NA,NA,pleasant,unpleasant,NA,NA,NA,NA,NA,left,1138.40000000037,true,NA,NA,NA,NA,NA,NA,NA,NA
aOs5zHKb,3icohx7eofotocxdgkfntnxuj980e9,3u84xhcdigqalf44mal4fkkht6f4z7,aOs5zHKb,2020-0188,2021-10-31,19:26:38,20:24:37,NA,incomplete,false,true,NA,NA,2,27,NA,red,m_s_115.jpg,NA,NA,NA,NA,NA,pleasant,unpleasant,NA,NA,NA,NA,NA,right,1732.90000000037,true,NA,NA,NA,NA,NA,NA,NA,NA
aOs5zHKb,3icohx7eofotocxdgkfntnxuj980e9,3u84xhcdigqalf44mal4fkkht6f4z7,aOs5zHKb,2020-0188,2021-10-31,19:26:38,20:24:37,NA,incomplete,false,true,NA,NA,2,28,NA,red,n_s_090.jpg,NA,NA,NA,NA,NA,pleasant,unpleasant,NA,NA,NA,NA,NA,left,1056.40000000037,true,NA,NA,NA,NA,NA,NA,NA,NA
aOs5zHKb,3icohx7eofotocxdgkfntnxuj980e9,3u84xhcdigqalf44mal4fkkht6f4z7,aOs5zHKb,2020-0188,2021-10-31,19:26:38,20:24:37,NA,incomplete,false,true,NA,NA,2,29,NA,red,n_l_117.jpg,NA,NA,NA,NA,NA,pleasant,unpleasant,NA,NA,NA,NA,NA,right,1824.59999999963,true,NA,NA,NA,NA,NA,NA,NA,NA
aOs5zHKb,3icohx7eofotocxdgkfntnxuj980e9,3u84xhcdigqalf44mal4fkkht6f4z7,aOs5zHKb,2020-0188,2021-10-31,19:26:38,20:24:37,NA,incomplete,false,true,NA,NA,2,30,NA,blue,n_l_074.jpg,NA,NA,NA,NA,NA,pleasant,unpleasant,NA,NA,NA,NA,NA,left,1042.09999999963,true,NA,NA,NA,NA,NA,NA,NA,NA
aOs5zHKb,3icohx7eofotocxdgkfntnxuj980e9,3u84xhcdigqalf44mal4fkkht6f4z7,aOs5zHKb,2020-0188,2021-10-31,19:26:38,20:24:37,NA,incomplete,false,true,NA,NA,2,31,NA,blue,n_l_091.jpg,NA,NA,NA,NA,NA,pleasant,unpleasant,NA,NA,NA,NA,NA,right,2124.79999999981,true,NA,NA,NA,NA,NA,NA,NA,NA
aOs5zHKb,3icohx7eofotocxdgkfntnxuj980e9,3u84xhcdigqalf44mal4fkkht6f4z7,aOs5zHKb,2020-0188,2021-10-31,19:26:38,20:24:37,NA,incomplete,false,true,NA,NA,2,32,NA,blue,m_s_048.jpg,NA,NA,NA,NA,NA,unpleasant,pleasant,NA,NA,NA,NA,NA,left,1493.20000000019,true,NA,NA,NA,NA,NA,NA,NA,NA
aOs5zHKb,3icohx7eofotocxdgkfntnxuj980e9,3u84xhcdigqalf44mal4fkkht6f4z7,aOs5zHKb,2020-0188,2021-10-31,19:26:38,20:24:37,NA,incomplete,false,true,NA,NA,2,33,NA,blue,n_s_072.jpg,NA,NA,NA,NA,NA,unpleasant,pleasant,NA,NA,NA,NA,NA,left,1086,true,NA,NA,NA,NA,NA,NA,NA,NA
aOs5zHKb,3icohx7eofotocxdgkfntnxuj980e9,3u84xhcdigqalf44mal4fkkht6f4z7,aOs5zHKb,2020-0188,2021-10-31,19:26:38,20:24:37,NA,incomplete,false,true,NA,NA,2,34,NA,blue,n_s_045.jpg,NA,NA,NA,NA,NA,pleasant,unpleasant,NA,NA,NA,NA,NA,right,1137.59999999963,true,NA,NA,NA,NA,NA,NA,NA,NA
aOs5zHKb,3icohx7eofotocxdgkfntnxuj980e9,3u84xhcdigqalf44mal4fkkht6f4z7,aOs5zHKb,2020-0188,2021-10-31,19:26:38,20:24:37,NA,incomplete,false,true,NA,NA,2,35,NA,blue,m_s_091.jpg,NA,NA,NA,NA,NA,unpleasant,pleasant,NA,NA,NA,NA,NA,right,1921.39999999944,true,NA,NA,NA,NA,NA,NA,NA,NA
aOs5zHKb,3icohx7eofotocxdgkfntnxuj980e9,3u84xhcdigqalf44mal4fkkht6f4z7,aOs5zHKb,2020-0188,2021-10-31,19:26:38,20:24:37,NA,incomplete,false,NA,NA,true,2,0,NA,NA,NA,right,n_s_067.jpg,black,orange,NA,NA,NA,NA,NA,NA,NA,NA,NA,NaN,NA,2178.5,right,1,NA,NA,NA,NA,NA
aOs5zHKb,3icohx7eofotocxdgkfntnxuj980e9,3u84xhcdigqalf44mal4fkkht6f4z7,aOs5zHKb,2020-0188,2021-10-31,19:26:38,20:24:37,NA,incomplete,false,NA,NA,true,2,1,NA,NA,NA,left,n_s_032.jpg,gray,purple,NA,NA,NA,NA,NA,NA,NA,NA,NA,NaN,NA,4717.299999999814,left,1,NA,NA,NA,NA,NA
aOs5zHKb,3icohx7eofotocxdgkfntnxuj980e9,3u84xhcdigqalf44mal4fkkht6f4z7,aOs5zHKb,2020-0188,2021-10-31,19:26:38,20:24:37,NA,incomplete,false,NA,NA,true,2,2,NA,NA,NA,left,n_s_033.jpg,orange,black,NA,NA,NA,NA,NA,NA,NA,NA,NA,NaN,NA,2673.4000000003725,left,1,NA,NA,NA,NA,NA
aOs5zHKb,3icohx7eofotocxdgkfntnxuj980e9,3u84xhcdigqalf44mal4fkkht6f4z7,aOs5zHKb,2020-0188,2021-10-31,19:26:38,20:24:37,NA,incomplete,false,NA,NA,true,2,3,NA,NA,NA,left,n_l_091.jpg,blue,red,NA,NA,NA,NA,NA,NA,NA,NA,NA,NaN,NA,1557.2999999998137,left,1,NA,NA,NA,NA,NA
aOs5zHKb,3icohx7eofotocxdgkfntnxuj980e9,3u84xhcdigqalf44mal4fkkht6f4z7,aOs5zHKb,2020-0188,2021-10-31,19:26:38,20:24:37,NA,incomplete,false,NA,NA,true,2,4,NA,NA,NA,left,n_s_090.jpg,red,blue,NA,NA,NA,NA,NA,NA,NA,NA,NA,NaN,NA,1209.300000000745,left,1,NA,NA,NA,NA,NA
aOs5zHKb,3icohx7eofotocxdgkfntnxuj980e9,3u84xhcdigqalf44mal4fkkht6f4z7,aOs5zHKb,2020-0188,2021-10-31,19:26:38,20:24:37,NA,incomplete,false,NA,NA,true,2,5,NA,NA,NA,right,n_s_095.jpg,gray,purple,NA,NA,NA,NA,NA,NA,NA,NA,NA,NaN,NA,1986.2000000001863,right,1,NA,NA,NA,NA,NA
aOs5zHKb,3icohx7eofotocxdgkfntnxuj980e9,3u84xhcdigqalf44mal4fkkht6f4z7,aOs5zHKb,2020-0188,2021-10-31,19:26:38,20:24:37,NA,incomplete,false,NA,NA,true,2,6,NA,NA,NA,left,n_s_108.jpg,orange,gray,NA,NA,NA,NA,NA,NA,NA,NA,NA,NaN,NA,2317.5999999996275,left,1,NA,NA,NA,NA,NA
aOs5zHKb,3icohx7eofotocxdgkfntnxuj980e9,3u84xhcdigqalf44mal4fkkht6f4z7,aOs5zHKb,2020-0188,2021-10-31,19:26:38,20:24:37,NA,incomplete,false,NA,NA,true,2,7,NA,NA,NA,right,m_l_062.jpg,orange,gray,NA,NA,NA,NA,NA,NA,NA,NA,NA,NaN,NA,1023.3999999994412,right,1,NA,NA,NA,NA,NA
aOs5zHKb,3icohx7eofotocxdgkfntnxuj980e9,3u84xhcdigqalf44mal4fkkht6f4z7,aOs5zHKb,2020-0188,2021-10-31,19:26:38,20:24:37,NA,incomplete,false,NA,NA,true,2,8,NA,NA,NA,right,n_l_117.jpg,blue,red,NA,NA,NA,NA,NA,NA,NA,NA,NA,NaN,NA,1204.2000000001863,right,1,NA,NA,NA,NA,NA
aOs5zHKb,3icohx7eofotocxdgkfntnxuj980e9,3u84xhcdigqalf44mal4fkkht6f4z7,aOs5zHKb,2020-0188,2021-10-31,19:26:38,20:24:37,NA,incomplete,false,NA,NA,true,2,9,NA,NA,NA,right,m_l_007.jpg,black,orange,NA,NA,NA,NA,NA,NA,NA,NA,NA,NaN,NA,1222.7000000001863,right,1,NA,NA,NA,NA,NA
aOs5zHKb,3icohx7eofotocxdgkfntnxuj980e9,3u84xhcdigqalf44mal4fkkht6f4z7,aOs5zHKb,2020-0188,2021-10-31,19:26:38,20:24:37,NA,incomplete,false,NA,NA,true,2,10,NA,NA,NA,left,m_s_095.jpg,red,black,NA,NA,NA,NA,NA,NA,NA,NA,NA,NaN,NA,1364.1000000005588,left,1,NA,NA,NA,NA,NA
aOs5zHKb,3icohx7eofotocxdgkfntnxuj980e9,3u84xhcdigqalf44mal4fkkht6f4z7,aOs5zHKb,2020-0188,2021-10-31,19:26:38,20:24:37,NA,incomplete,false,NA,NA,true,2,11,NA,NA,NA,right,n_l_106.jpg,gray,purple,NA,NA,NA,NA,NA,NA,NA,NA,NA,NaN,NA,1482.5,right,1,NA,NA,NA,NA,NA
aOs5zHKb,3icohx7eofotocxdgkfntnxuj980e9,3u84xhcdigqalf44mal4fkkht6f4z7,aOs5zHKb,2020-0188,2021-10-31,19:26:38,20:24:37,NA,incomplete,false,NA,NA,true,2,12,NA,NA,NA,left,n_l_020.jpg,black,orange,NA,NA,NA,NA,NA,NA,NA,NA,NA,NaN,NA,1533.5999999996275,left,1,NA,NA,NA,NA,NA
aOs5zHKb,3icohx7eofotocxdgkfntnxuj980e9,3u84xhcdigqalf44mal4fkkht6f4z7,aOs5zHKb,2020-0188,2021-10-31,19:26:38,20:24:37,NA,incomplete,false,NA,NA,true,2,13,NA,NA,NA,left,m_s_091.jpg,blue,red,NA,NA,NA,NA,NA,NA,NA,NA,NA,NaN,NA,1202.4000000003725,left,1,NA,NA,NA,NA,NA
aOs5zHKb,3icohx7eofotocxdgkfntnxuj980e9,3u84xhcdigqalf44mal4fkkht6f4z7,aOs5zHKb,2020-0188,2021-10-31,19:26:38,20:24:37,NA,incomplete,false,NA,NA,true,2,14,NA,NA,NA,right,n_l_105.jpg,black,red,NA,NA,NA,NA,NA,NA,NA,NA,NA,NaN,NA,1770.0999999996275,left,0,NA,NA,NA,NA,NA
aOs5zHKb,3icohx7eofotocxdgkfntnxuj980e9,3u84xhcdigqalf44mal4fkkht6f4z7,aOs5zHKb,2020-0188,2021-10-31,19:26:38,20:24:37,NA,incomplete,false,NA,NA,true,2,15,NA,NA,NA,left,m_s_114.jpg,black,red,NA,NA,NA,NA,NA,NA,NA,NA,NA,NaN,NA,793.3999999994412,left,1,NA,NA,NA,NA,NA
aOs5zHKb,3icohx7eofotocxdgkfntnxuj980e9,3u84xhcdigqalf44mal4fkkht6f4z7,aOs5zHKb,2020-0188,2021-10-31,19:26:38,20:24:37,NA,incomplete,false,NA,NA,true,2,16,NA,NA,NA,right,n_l_097.jpg,red,black,NA,NA,NA,NA,NA,NA,NA,NA,NA,NaN,NA,1538.3999999994412,right,1,NA,NA,NA,NA,NA
aOs5zHKb,3icohx7eofotocxdgkfntnxuj980e9,3u84xhcdigqalf44mal4fkkht6f4z7,aOs5zHKb,2020-0188,2021-10-31,19:26:38,20:24:37,NA,incomplete,false,NA,NA,true,2,17,NA,NA,NA,left,m_l_016.jpg,gray,orange,NA,NA,NA,NA,NA,NA,NA,NA,NA,NaN,NA,1456.5,left,1,NA,NA,NA,NA,NA
aOs5zHKb,3icohx7eofotocxdgkfntnxuj980e9,3u84xhcdigqalf44mal4fkkht6f4z7,aOs5zHKb,2020-0188,2021-10-31,19:26:38,20:24:37,NA,incomplete,false,NA,NA,true,2,18,NA,NA,NA,right,m_s_029.jpg,orange,black,NA,NA,NA,NA,NA,NA,NA,NA,NA,NaN,NA,1387.5999999996275,right,1,NA,NA,NA,NA,NA
aOs5zHKb,3icohx7eofotocxdgkfntnxuj980e9,3u84xhcdigqalf44mal4fkkht6f4z7,aOs5zHKb,2020-0188,2021-10-31,19:26:38,20:24:37,NA,incomplete,false,NA,NA,true,2,19,NA,NA,NA,left,m_s_052.jpg,gray,purple,NA,NA,NA,NA,NA,NA,NA,NA,NA,NaN,NA,1397.5999999996275,left,1,NA,NA,NA,NA,NA
aOs5zHKb,3icohx7eofotocxdgkfntnxuj980e9,3u84xhcdigqalf44mal4fkkht6f4z7,aOs5zHKb,2020-0188,2021-10-31,19:26:38,20:24:37,NA,incomplete,false,NA,NA,true,2,20,NA,NA,NA,right,m_s_061.jpg,gray,purple,NA,NA,NA,NA,NA,NA,NA,NA,NA,NaN,NA,1658.9000000003725,right,1,NA,NA,NA,NA,NA
aOs5zHKb,3icohx7eofotocxdgkfntnxuj980e9,3u84xhcdigqalf44mal4fkkht6f4z7,aOs5zHKb,2020-0188,2021-10-31,19:26:38,20:24:37,NA,incomplete,false,NA,NA,true,2,21,NA,NA,NA,left,m_s_048.jpg,blue,red,NA,NA,NA,NA,NA,NA,NA,NA,NA,NaN,NA,1526.2999999998137,left,1,NA,NA,NA,NA,NA
aOs5zHKb,3icohx7eofotocxdgkfntnxuj980e9,3u84xhcdigqalf44mal4fkkht6f4z7,aOs5zHKb,2020-0188,2021-10-31,19:26:38,20:24:37,NA,incomplete,false,NA,true,NA,2,0,NA,NA,NA,left,NA,NA,NA,present,NA,NA,m_s_052.jpg,gray,n_s_032.jpg,gray,within,NA,NaN,NA,NA,NA,NA,left,2957.0999999996275,1,1,1250.7999999998137
aOs5zHKb,3icohx7eofotocxdgkfntnxuj980e9,3u84xhcdigqalf44mal4fkkht6f4z7,aOs5zHKb,2020-0188,2021-10-31,19:26:38,20:24:37,NA,incomplete,false,NA,true,NA,2,1,NA,NA,NA,right,NA,NA,NA,present,NA,NA,m_l_016.jpg,gray,n_l_106.jpg,purple,between,NA,NaN,NA,NA,NA,NA,left,3109.9000000003725,0,3,1120.2999999998137
aOs5zHKb,3icohx7eofotocxdgkfntnxuj980e9,3u84xhcdigqalf44mal4fkkht6f4z7,aOs5zHKb,2020-0188,2021-10-31,19:26:38,20:24:37,NA,incomplete,false,NA,true,NA,2,2,NA,NA,NA,right,NA,NA,NA,present,NA,NA,m_s_114.jpg,black,n_l_097.jpg,black,within,NA,NaN,NA,NA,NA,NA,right,2110.7999999998137,1,1,1231.2000000001863
aOs5zHKb,3icohx7eofotocxdgkfntnxuj980e9,3u84xhcdigqalf44mal4fkkht6f4z7,aOs5zHKb,2020-0188,2021-10-31,19:26:38,20:24:37,NA,incomplete,false,NA,true,NA,2,3,NA,NA,NA,right,NA,NA,NA,present,NA,NA,m_s_048.jpg,blue,n_s_090.jpg,red,between,NA,NaN,NA,NA,NA,NA,right,2182.5,1,2,1349.0999999996275
aOs5zHKb,3icohx7eofotocxdgkfntnxuj980e9,3u84xhcdigqalf44mal4fkkht6f4z7,aOs5zHKb,2020-0188,2021-10-31,19:26:38,20:24:37,NA,incomplete,false,NA,true,NA,2,4,NA,NA,NA,right,NA,NA,NA,present,NA,NA,n_l_117.jpg,red,n_l_105.jpg,red,within,NA,NaN,NA,NA,NA,NA,left,1913.5,0,0,3677.5
aOs5zHKb,3icohx7eofotocxdgkfntnxuj980e9,3u84xhcdigqalf44mal4fkkht6f4z7,aOs5zHKb,2020-0188,2021-10-31,19:26:38,20:24:37,NA,incomplete,false,NA,true,NA,2,5,NA,NA,NA,right,NA,NA,NA,present,NA,NA,n_s_095.jpg,purple,m_s_061.jpg,purple,within,NA,NaN,NA,NA,NA,NA,right,2105.5,1,0,1016.3999999994412
aOs5zHKb,3icohx7eofotocxdgkfntnxuj980e9,3u84xhcdigqalf44mal4fkkht6f4z7,aOs5zHKb,2020-0188,2021-10-31,19:26:38,20:24:37,NA,incomplete,false,NA,true,NA,2,6,NA,NA,NA,left,NA,NA,NA,present,NA,NA,n_s_067.jpg,orange,n_s_108.jpg,orange,within,NA,NaN,NA,NA,NA,NA,left,2016.2000000001863,1,0,1319.7000000001863
aOs5zHKb,3icohx7eofotocxdgkfntnxuj980e9,3u84xhcdigqalf44mal4fkkht6f4z7,aOs5zHKb,2020-0188,2021-10-31,19:26:38,20:24:37,NA,incomplete,false,NA,true,NA,2,7,NA,NA,NA,right,NA,NA,NA,present,NA,NA,m_s_091.jpg,blue,n_l_091.jpg,blue,within,NA,NaN,NA,NA,NA,NA,right,1789.7999999998137,1,1,1018.1000000005588
aOs5zHKb,3icohx7eofotocxdgkfntnxuj980e9,3u84xhcdigqalf44mal4fkkht6f4z7,aOs5zHKb,2020-0188,2021-10-31,19:26:38,20:24:37,NA,incomplete,false,NA,true,NA,2,8,NA,NA,NA,right,NA,NA,NA,present,NA,NA,n_l_020.jpg,black,m_l_007.jpg,orange,between,NA,NaN,NA,NA,NA,NA,right,1587.0999999996275,1,2,951.1999999992549
aOs5zHKb,3icohx7eofotocxdgkfntnxuj980e9,3u84xhcdigqalf44mal4fkkht6f4z7,aOs5zHKb,2020-0188,2021-10-31,19:26:38,20:24:37,NA,incomplete,false,NA,true,NA,2,9,NA,NA,NA,left,NA,NA,NA,present,NA,NA,m_l_062.jpg,gray,n_s_033.jpg,orange,between,NA,NaN,NA,NA,NA,NA,right,1790.4000000003725,0,2,1095.5
aOs5zHKb,3icohx7eofotocxdgkfntnxuj980e9,3u84xhcdigqalf44mal4fkkht6f4z7,aOs5zHKb,2020-0188,2021-10-31,19:26:38,20:24:37,NA,incomplete,false,NA,true,NA,2,10,NA,NA,NA,right,NA,NA,NA,present,NA,NA,m_s_095.jpg,red,m_s_029.jpg,black,between,NA,NaN,NA,NA,NA,NA,left,4833.700000000186,0,2,1173.0999999996275
aOs5zHKb,3icohx7eofotocxdgkfntnxuj980e9,3u84xhcdigqalf44mal4fkkht6f4z7,aOs5zHKb,2020-0188,2021-10-31,19:26:38,20:24:37,NA,incomplete,false,true,NA,NA,3,0,NA,red,n_l_016.jpg,NA,NA,NA,NA,NA,unpleasant,pleasant,NA,NA,NA,NA,NA,right,2198.29999999981,true,NA,NA,NA,NA,NA,NA,NA,NA
aOs5zHKb,3icohx7eofotocxdgkfntnxuj980e9,3u84xhcdigqalf44mal4fkkht6f4z7,aOs5zHKb,2020-0188,2021-10-31,19:26:38,20:24:37,NA,incomplete,false,true,NA,NA,3,1,NA,red,n_s_089.jpg,NA,NA,NA,NA,NA,pleasant,unpleasant,NA,NA,NA,NA,NA,left,1560.69999999925,true,NA,NA,NA,NA,NA,NA,NA,NA
aOs5zHKb,3icohx7eofotocxdgkfntnxuj980e9,3u84xhcdigqalf44mal4fkkht6f4z7,aOs5zHKb,2020-0188,2021-10-31,19:26:38,20:24:37,NA,incomplete,false,true,NA,NA,3,2,NA,red,n_s_115.jpg,NA,NA,NA,NA,NA,unpleasant,pleasant,NA,NA,NA,NA,NA,right,1960,true,NA,NA,NA,NA,NA,NA,NA,NA
aOs5zHKb,3icohx7eofotocxdgkfntnxuj980e9,3u84xhcdigqalf44mal4fkkht6f4z7,aOs5zHKb,2020-0188,2021-10-31,19:26:38,20:24:37,NA,incomplete,false,true,NA,NA,3,3,NA,red,m_s_062.jpg,NA,NA,NA,NA,NA,unpleasant,pleasant,NA,NA,NA,NA,NA,right,1561.79999999981,true,NA,NA,NA,NA,NA,NA,NA,NA
aOs5zHKb,3icohx7eofotocxdgkfntnxuj980e9,3u84xhcdigqalf44mal4fkkht6f4z7,aOs5zHKb,2020-0188,2021-10-31,19:26:38,20:24:37,NA,incomplete,false,true,NA,NA,3,4,NA,red,n_s_016.jpg,NA,NA,NA,NA,NA,unpleasant,pleasant,NA,NA,NA,NA,NA,right,1260.90000000037,true,NA,NA,NA,NA,NA,NA,NA,NA
aOs5zHKb,3icohx7eofotocxdgkfntnxuj980e9,3u84xhcdigqalf44mal4fkkht6f4z7,aOs5zHKb,2020-0188,2021-10-31,19:26:38,20:24:37,NA,incomplete,false,true,NA,NA,3,5,NA,red,n_s_014.jpg,NA,NA,NA,NA,NA,unpleasant,pleasant,NA,NA,NA,NA,NA,left,1507.60000000056,true,NA,NA,NA,NA,NA,NA,NA,NA
aOs5zHKb,3icohx7eofotocxdgkfntnxuj980e9,3u84xhcdigqalf44mal4fkkht6f4z7,aOs5zHKb,2020-0188,2021-10-31,19:26:38,20:24:37,NA,incomplete,false,true,NA,NA,3,6,NA,white,m_l_086.jpg,NA,NA,NA,NA,NA,unpleasant,pleasant,NA,NA,NA,NA,NA,right,1245.70000000019,true,NA,NA,NA,NA,NA,NA,NA,NA
aOs5zHKb,3icohx7eofotocxdgkfntnxuj980e9,3u84xhcdigqalf44mal4fkkht6f4z7,aOs5zHKb,2020-0188,2021-10-31,19:26:38,20:24:37,NA,incomplete,false,true,NA,NA,3,7,NA,white,n_s_034.jpg,NA,NA,NA,NA,NA,pleasant,unpleasant,NA,NA,NA,NA,NA,left,1208.79999999981,true,NA,NA,NA,NA,NA,NA,NA,NA
aOs5zHKb,3icohx7eofotocxdgkfntnxuj980e9,3u84xhcdigqalf44mal4fkkht6f4z7,aOs5zHKb,2020-0188,2021-10-31,19:26:38,20:24:37,NA,incomplete,false,true,NA,NA,3,8,NA,white,n_l_042.jpg,NA,NA,NA,NA,NA,pleasant,unpleasant,NA,NA,NA,NA,NA,left,1464.5,true,NA,NA,NA,NA,NA,NA,NA,NA
aOs5zHKb,3icohx7eofotocxdgkfntnxuj980e9,3u84xhcdigqalf44mal4fkkht6f4z7,aOs5zHKb,2020-0188,2021-10-31,19:26:38,20:24:37,NA,incomplete,false,true,NA,NA,3,9,NA,white,n_s_018.jpg,NA,NA,NA,NA,NA,pleasant,unpleasant,NA,NA,NA,NA,NA,left,1249.20000000019,true,NA,NA,NA,NA,NA,NA,NA,NA
aOs5zHKb,3icohx7eofotocxdgkfntnxuj980e9,3u84xhcdigqalf44mal4fkkht6f4z7,aOs5zHKb,2020-0188,2021-10-31,19:26:38,20:24:37,NA,incomplete,false,true,NA,NA,3,10,NA,white,m_l_078.jpg,NA,NA,NA,NA,NA,pleasant,unpleasant,NA,NA,NA,NA,NA,right,1653.20000000019,true,NA,NA,NA,NA,NA,NA,NA,NA
aOs5zHKb,3icohx7eofotocxdgkfntnxuj980e9,3u84xhcdigqalf44mal4fkkht6f4z7,aOs5zHKb,2020-0188,2021-10-31,19:26:38,20:24:37,NA,incomplete,false,true,NA,NA,3,11,NA,white,n_l_093.jpg,NA,NA,NA,NA,NA,pleasant,unpleasant,NA,NA,NA,NA,NA,right,1707.90000000037,true,NA,NA,NA,NA,NA,NA,NA,NA
aOs5zHKb,3icohx7eofotocxdgkfntnxuj980e9,3u84xhcdigqalf44mal4fkkht6f4z7,aOs5zHKb,2020-0188,2021-10-31,19:26:38,20:24:37,NA,incomplete,false,true,NA,NA,3,12,NA,yellow,n_l_067.jpg,NA,NA,NA,NA,NA,unpleasant,pleasant,NA,NA,NA,NA,NA,right,1422.20000000019,true,NA,NA,NA,NA,NA,NA,NA,NA
aOs5zHKb,3icohx7eofotocxdgkfntnxuj980e9,3u84xhcdigqalf44mal4fkkht6f4z7,aOs5zHKb,2020-0188,2021-10-31,19:26:38,20:24:37,NA,incomplete,false,true,NA,NA,3,13,NA,yellow,n_s_003.jpg,NA,NA,NA,NA,NA,unpleasant,pleasant,NA,NA,NA,NA,NA,right,1752.40000000037,true,NA,NA,NA,NA,NA,NA,NA,NA
aOs5zHKb,3icohx7eofotocxdgkfntnxuj980e9,3u84xhcdigqalf44mal4fkkht6f4z7,aOs5zHKb,2020-0188,2021-10-31,19:26:38,20:24:37,NA,incomplete,false,true,NA,NA,3,14,NA,yellow,n_l_085.jpg,NA,NA,NA,NA,NA,unpleasant,pleasant,NA,NA,NA,NA,NA,right,1841.39999999944,true,NA,NA,NA,NA,NA,NA,NA,NA
aOs5zHKb,3icohx7eofotocxdgkfntnxuj980e9,3u84xhcdigqalf44mal4fkkht6f4z7,aOs5zHKb,2020-0188,2021-10-31,19:26:38,20:24:37,NA,incomplete,false,true,NA,NA,3,15,NA,yellow,n_l_003.jpg,NA,NA,NA,NA,NA,unpleasant,pleasant,NA,NA,NA,NA,NA,right,1378.59999999963,true,NA,NA,NA,NA,NA,NA,NA,NA
aOs5zHKb,3icohx7eofotocxdgkfntnxuj980e9,3u84xhcdigqalf44mal4fkkht6f4z7,aOs5zHKb,2020-0188,2021-10-31,19:26:38,20:24:37,NA,incomplete,false,true,NA,NA,3,16,NA,yellow,m_l_051.jpg,NA,NA,NA,NA,NA,unpleasant,pleasant,NA,NA,NA,NA,NA,right,1565.60000000056,true,NA,NA,NA,NA,NA,NA,NA,NA
aOs5zHKb,3icohx7eofotocxdgkfntnxuj980e9,3u84xhcdigqalf44mal4fkkht6f4z7,aOs5zHKb,2020-0188,2021-10-31,19:26:38,20:24:37,NA,incomplete,false,true,NA,NA,3,17,NA,yellow,m_l_099.jpg,NA,NA,NA,NA,NA,unpleasant,pleasant,NA,NA,NA,NA,NA,right,2189.39999999944,true,NA,NA,NA,NA,NA,NA,NA,NA
aOs5zHKb,3icohx7eofotocxdgkfntnxuj980e9,3u84xhcdigqalf44mal4fkkht6f4z7,aOs5zHKb,2020-0188,2021-10-31,19:26:38,20:24:37,NA,incomplete,false,true,NA,NA,3,18,NA,brown,n_s_088.jpg,NA,NA,NA,NA,NA,pleasant,unpleasant,NA,NA,NA,NA,NA,left,1238.40000000037,true,NA,NA,NA,NA,NA,NA,NA,NA
aOs5zHKb,3icohx7eofotocxdgkfntnxuj980e9,3u84xhcdigqalf44mal4fkkht6f4z7,aOs5zHKb,2020-0188,2021-10-31,19:26:38,20:24:37,NA,incomplete,false,true,NA,NA,3,19,NA,brown,n_s_048.jpg,NA,NA,NA,NA,NA,pleasant,unpleasant,NA,NA,NA,NA,NA,left,1841.79999999981,true,NA,NA,NA,NA,NA,NA,NA,NA
aOs5zHKb,3icohx7eofotocxdgkfntnxuj980e9,3u84xhcdigqalf44mal4fkkht6f4z7,aOs5zHKb,2020-0188,2021-10-31,19:26:38,20:24:37,NA,incomplete,false,true,NA,NA,3,20,NA,brown,m_l_095.jpg,NA,NA,NA,NA,NA,pleasant,unpleasant,NA,NA,NA,NA,NA,left,1658.59999999963,true,NA,NA,NA,NA,NA,NA,NA,NA
aOs5zHKb,3icohx7eofotocxdgkfntnxuj980e9,3u84xhcdigqalf44mal4fkkht6f4z7,aOs5zHKb,2020-0188,2021-10-31,19:26:38,20:24:37,NA,incomplete,false,true,NA,NA,3,21,NA,brown,n_s_107.jpg,NA,NA,NA,NA,NA,unpleasant,pleasant,NA,NA,NA,NA,NA,right,1499.89999999944,true,NA,NA,NA,NA,NA,NA,NA,NA
aOs5zHKb,3icohx7eofotocxdgkfntnxuj980e9,3u84xhcdigqalf44mal4fkkht6f4z7,aOs5zHKb,2020-0188,2021-10-31,19:26:38,20:24:37,NA,incomplete,false,true,NA,NA,3,22,NA,brown,n_s_079.jpg,NA,NA,NA,NA,NA,unpleasant,pleasant,NA,NA,NA,NA,NA,right,1158.10000000056,true,NA,NA,NA,NA,NA,NA,NA,NA
aOs5zHKb,3icohx7eofotocxdgkfntnxuj980e9,3u84xhcdigqalf44mal4fkkht6f4z7,aOs5zHKb,2020-0188,2021-10-31,19:26:38,20:24:37,NA,incomplete,false,true,NA,NA,3,23,NA,brown,m_s_068.jpg,NA,NA,NA,NA,NA,unpleasant,pleasant,NA,NA,NA,NA,NA,right,1550.39999999944,true,NA,NA,NA,NA,NA,NA,NA,NA
aOs5zHKb,3icohx7eofotocxdgkfntnxuj980e9,3u84xhcdigqalf44mal4fkkht6f4z7,aOs5zHKb,2020-0188,2021-10-31,19:26:38,20:24:37,NA,incomplete,false,true,NA,NA,3,24,NA,purple,n_s_071.jpg,NA,NA,NA,NA,NA,unpleasant,pleasant,NA,NA,NA,NA,NA,left,1727.40000000037,true,NA,NA,NA,NA,NA,NA,NA,NA
aOs5zHKb,3icohx7eofotocxdgkfntnxuj980e9,3u84xhcdigqalf44mal4fkkht6f4z7,aOs5zHKb,2020-0188,2021-10-31,19:26:38,20:24:37,NA,incomplete,false,true,NA,NA,3,25,NA,purple,n_l_043.jpg,NA,NA,NA,NA,NA,pleasant,unpleasant,NA,NA,NA,NA,NA,left,1417,true,NA,NA,NA,NA,NA,NA,NA,NA
aOs5zHKb,3icohx7eofotocxdgkfntnxuj980e9,3u84xhcdigqalf44mal4fkkht6f4z7,aOs5zHKb,2020-0188,2021-10-31,19:26:38,20:24:37,NA,incomplete,false,true,NA,NA,3,26,NA,purple,m_l_026.jpg,NA,NA,NA,NA,NA,pleasant,unpleasant,NA,NA,NA,NA,NA,left,1674,true,NA,NA,NA,NA,NA,NA,NA,NA
aOs5zHKb,3icohx7eofotocxdgkfntnxuj980e9,3u84xhcdigqalf44mal4fkkht6f4z7,aOs5zHKb,2020-0188,2021-10-31,19:26:38,20:24:37,NA,incomplete,false,true,NA,NA,3,27,NA,purple,m_l_068.jpg,NA,NA,NA,NA,NA,pleasant,unpleasant,NA,NA,NA,NA,NA,left,1363.59999999963,true,NA,NA,NA,NA,NA,NA,NA,NA
aOs5zHKb,3icohx7eofotocxdgkfntnxuj980e9,3u84xhcdigqalf44mal4fkkht6f4z7,aOs5zHKb,2020-0188,2021-10-31,19:26:38,20:24:37,NA,incomplete,false,true,NA,NA,3,28,NA,purple,n_s_083.jpg,NA,NA,NA,NA,NA,unpleasant,pleasant,NA,NA,NA,NA,NA,right,1700,true,NA,NA,NA,NA,NA,NA,NA,NA
aOs5zHKb,3icohx7eofotocxdgkfntnxuj980e9,3u84xhcdigqalf44mal4fkkht6f4z7,aOs5zHKb,2020-0188,2021-10-31,19:26:38,20:24:37,NA,incomplete,false,true,NA,NA,3,29,NA,purple,m_l_110.jpg,NA,NA,NA,NA,NA,pleasant,unpleasant,NA,NA,NA,NA,NA,right,1783,true,NA,NA,NA,NA,NA,NA,NA,NA
aOs5zHKb,3icohx7eofotocxdgkfntnxuj980e9,3u84xhcdigqalf44mal4fkkht6f4z7,aOs5zHKb,2020-0188,2021-10-31,19:26:38,20:24:37,NA,incomplete,false,true,NA,NA,3,30,NA,green,n_s_068.jpg,NA,NA,NA,NA,NA,pleasant,unpleasant,NA,NA,NA,NA,NA,left,1383.30000000075,true,NA,NA,NA,NA,NA,NA,NA,NA
aOs5zHKb,3icohx7eofotocxdgkfntnxuj980e9,3u84xhcdigqalf44mal4fkkht6f4z7,aOs5zHKb,2020-0188,2021-10-31,19:26:38,20:24:37,NA,incomplete,false,true,NA,NA,3,31,NA,green,m_l_096.jpg,NA,NA,NA,NA,NA,unpleasant,pleasant,NA,NA,NA,NA,NA,left,1555.29999999981,true,NA,NA,NA,NA,NA,NA,NA,NA
aOs5zHKb,3icohx7eofotocxdgkfntnxuj980e9,3u84xhcdigqalf44mal4fkkht6f4z7,aOs5zHKb,2020-0188,2021-10-31,19:26:38,20:24:37,NA,incomplete,false,true,NA,NA,3,32,NA,green,m_s_083.jpg,NA,NA,NA,NA,NA,pleasant,unpleasant,NA,NA,NA,NA,NA,right,1298.39999999944,true,NA,NA,NA,NA,NA,NA,NA,NA
aOs5zHKb,3icohx7eofotocxdgkfntnxuj980e9,3u84xhcdigqalf44mal4fkkht6f4z7,aOs5zHKb,2020-0188,2021-10-31,19:26:38,20:24:37,NA,incomplete,false,true,NA,NA,3,33,NA,green,m_s_105.jpg,NA,NA,NA,NA,NA,pleasant,unpleasant,NA,NA,NA,NA,NA,right,1436.29999999981,true,NA,NA,NA,NA,NA,NA,NA,NA
aOs5zHKb,3icohx7eofotocxdgkfntnxuj980e9,3u84xhcdigqalf44mal4fkkht6f4z7,aOs5zHKb,2020-0188,2021-10-31,19:26:38,20:24:37,NA,incomplete,false,true,NA,NA,3,34,NA,green,n_l_066.jpg,NA,NA,NA,NA,NA,pleasant,unpleasant,NA,NA,NA,NA,NA,left,1461.79999999981,true,NA,NA,NA,NA,NA,NA,NA,NA
aOs5zHKb,3icohx7eofotocxdgkfntnxuj980e9,3u84xhcdigqalf44mal4fkkht6f4z7,aOs5zHKb,2020-0188,2021-10-31,19:26:38,20:24:37,NA,incomplete,false,true,NA,NA,3,35,NA,green,n_l_047.jpg,NA,NA,NA,NA,NA,unpleasant,pleasant,NA,NA,NA,NA,NA,right,1054.59999999963,true,NA,NA,NA,NA,NA,NA,NA,NA
aOs5zHKb,3icohx7eofotocxdgkfntnxuj980e9,3u84xhcdigqalf44mal4fkkht6f4z7,aOs5zHKb,2020-0188,2021-10-31,19:26:38,20:24:37,NA,incomplete,false,NA,NA,true,3,0,NA,NA,NA,left,n_s_083.jpg,purple,brown,NA,NA,NA,NA,NA,NA,NA,NA,NA,NaN,NA,1713.9000000003725,left,1,NA,NA,NA,NA,NA
aOs5zHKb,3icohx7eofotocxdgkfntnxuj980e9,3u84xhcdigqalf44mal4fkkht6f4z7,aOs5zHKb,2020-0188,2021-10-31,19:26:38,20:24:37,NA,incomplete,false,NA,NA,true,3,1,NA,NA,NA,right,n_s_034.jpg,red,white,NA,NA,NA,NA,NA,NA,NA,NA,NA,NaN,NA,1607.800000000745,right,1,NA,NA,NA,NA,NA
aOs5zHKb,3icohx7eofotocxdgkfntnxuj980e9,3u84xhcdigqalf44mal4fkkht6f4z7,aOs5zHKb,2020-0188,2021-10-31,19:26:38,20:24:37,NA,incomplete,false,NA,NA,true,3,2,NA,NA,NA,right,m_l_095.jpg,purple,brown,NA,NA,NA,NA,NA,NA,NA,NA,NA,NaN,NA,1261.5,right,1,NA,NA,NA,NA,NA
aOs5zHKb,3icohx7eofotocxdgkfntnxuj980e9,3u84xhcdigqalf44mal4fkkht6f4z7,aOs5zHKb,2020-0188,2021-10-31,19:26:38,20:24:37,NA,incomplete,false,NA,NA,true,3,3,NA,NA,NA,right,n_s_089.jpg,white,red,NA,NA,NA,NA,NA,NA,NA,NA,NA,NaN,NA,2056.2999999998137,right,1,NA,NA,NA,NA,NA
aOs5zHKb,3icohx7eofotocxdgkfntnxuj980e9,3u84xhcdigqalf44mal4fkkht6f4z7,aOs5zHKb,2020-0188,2021-10-31,19:26:38,20:24:37,NA,incomplete,false,NA,NA,true,3,4,NA,NA,NA,left,n_s_014.jpg,red,white,NA,NA,NA,NA,NA,NA,NA,NA,NA,NaN,NA,1667.8999999994412,left,1,NA,NA,NA,NA,NA
aOs5zHKb,3icohx7eofotocxdgkfntnxuj980e9,3u84xhcdigqalf44mal4fkkht6f4z7,aOs5zHKb,2020-0188,2021-10-31,19:26:38,20:24:37,NA,incomplete,false,NA,NA,true,3,5,NA,NA,NA,right,n_s_016.jpg,white,red,NA,NA,NA,NA,NA,NA,NA,NA,NA,NaN,NA,1336.9000000003725,right,1,NA,NA,NA,NA,NA
aOs5zHKb,3icohx7eofotocxdgkfntnxuj980e9,3u84xhcdigqalf44mal4fkkht6f4z7,aOs5zHKb,2020-0188,2021-10-31,19:26:38,20:24:37,NA,incomplete,false,NA,NA,true,3,6,NA,NA,NA,right,n_s_079.jpg,purple,brown,NA,NA,NA,NA,NA,NA,NA,NA,NA,NaN,NA,2486.7999999998137,right,1,NA,NA,NA,NA,NA
aOs5zHKb,3icohx7eofotocxdgkfntnxuj980e9,3u84xhcdigqalf44mal4fkkht6f4z7,aOs5zHKb,2020-0188,2021-10-31,19:26:38,20:24:37,NA,incomplete,false,NA,NA,true,3,7,NA,NA,NA,left,m_l_078.jpg,white,yellow,NA,NA,NA,NA,NA,NA,NA,NA,NA,NaN,NA,1536,left,1,NA,NA,NA,NA,NA
aOs5zHKb,3icohx7eofotocxdgkfntnxuj980e9,3u84xhcdigqalf44mal4fkkht6f4z7,aOs5zHKb,2020-0188,2021-10-31,19:26:38,20:24:37,NA,incomplete,false,NA,NA,true,3,8,NA,NA,NA,right,m_l_096.jpg,purple,green,NA,NA,NA,NA,NA,NA,NA,NA,NA,NaN,NA,1368.5999999996275,right,1,NA,NA,NA,NA,NA
aOs5zHKb,3icohx7eofotocxdgkfntnxuj980e9,3u84xhcdigqalf44mal4fkkht6f4z7,aOs5zHKb,2020-0188,2021-10-31,19:26:38,20:24:37,NA,incomplete,false,NA,NA,true,3,9,NA,NA,NA,right,m_l_051.jpg,white,yellow,NA,NA,NA,NA,NA,NA,NA,NA,NA,NaN,NA,1673,right,1,NA,NA,NA,NA,NA
aOs5zHKb,3icohx7eofotocxdgkfntnxuj980e9,3u84xhcdigqalf44mal4fkkht6f4z7,aOs5zHKb,2020-0188,2021-10-31,19:26:38,20:24:37,NA,incomplete,false,NA,NA,true,3,10,NA,NA,NA,left,m_l_099.jpg,yellow,white,NA,NA,NA,NA,NA,NA,NA,NA,NA,NaN,NA,1360.5,left,1,NA,NA,NA,NA,NA
aOs5zHKb,3icohx7eofotocxdgkfntnxuj980e9,3u84xhcdigqalf44mal4fkkht6f4z7,aOs5zHKb,2020-0188,2021-10-31,19:26:38,20:24:37,NA,incomplete,false,NA,NA,true,3,11,NA,NA,NA,right,n_s_048.jpg,purple,brown,NA,NA,NA,NA,NA,NA,NA,NA,NA,NaN,NA,3501.0999999996275,right,1,NA,NA,NA,NA,NA
aOs5zHKb,3icohx7eofotocxdgkfntnxuj980e9,3u84xhcdigqalf44mal4fkkht6f4z7,aOs5zHKb,2020-0188,2021-10-31,19:26:38,20:24:37,NA,incomplete,false,NA,NA,true,3,12,NA,NA,NA,right,n_l_042.jpg,red,white,NA,NA,NA,NA,NA,NA,NA,NA,NA,NaN,NA,1771.2000000001863,right,1,NA,NA,NA,NA,NA
aOs5zHKb,3icohx7eofotocxdgkfntnxuj980e9,3u84xhcdigqalf44mal4fkkht6f4z7,aOs5zHKb,2020-0188,2021-10-31,19:26:38,20:24:37,NA,incomplete,false,NA,NA,true,3,13,NA,NA,NA,left,n_s_003.jpg,yellow,brown,NA,NA,NA,NA,NA,NA,NA,NA,NA,NaN,NA,1759.9000000003725,left,1,NA,NA,NA,NA,NA
aOs5zHKb,3icohx7eofotocxdgkfntnxuj980e9,3u84xhcdigqalf44mal4fkkht6f4z7,aOs5zHKb,2020-0188,2021-10-31,19:26:38,20:24:37,NA,incomplete,false,NA,NA,true,3,14,NA,NA,NA,right,n_l_093.jpg,yellow,white,NA,NA,NA,NA,NA,NA,NA,NA,NA,NaN,NA,2375.2000000001863,right,1,NA,NA,NA,NA,NA
aOs5zHKb,3icohx7eofotocxdgkfntnxuj980e9,3u84xhcdigqalf44mal4fkkht6f4z7,aOs5zHKb,2020-0188,2021-10-31,19:26:38,20:24:37,NA,incomplete,false,NA,NA,true,3,15,NA,NA,NA,left,n_l_047.jpg,green,purple,NA,NA,NA,NA,NA,NA,NA,NA,NA,NaN,NA,2438.5999999996275,left,1,NA,NA,NA,NA,NA
aOs5zHKb,3icohx7eofotocxdgkfntnxuj980e9,3u84xhcdigqalf44mal4fkkht6f4z7,aOs5zHKb,2020-0188,2021-10-31,19:26:38,20:24:37,NA,incomplete,false,NA,NA,true,3,16,NA,NA,NA,left,m_l_026.jpg,purple,green,NA,NA,NA,NA,NA,NA,NA,NA,NA,NaN,NA,1537.699999999255,left,1,NA,NA,NA,NA,NA
aOs5zHKb,3icohx7eofotocxdgkfntnxuj980e9,3u84xhcdigqalf44mal4fkkht6f4z7,aOs5zHKb,2020-0188,2021-10-31,19:26:38,20:24:37,NA,incomplete,false,NA,NA,true,3,17,NA,NA,NA,right,m_s_068.jpg,yellow,brown,NA,NA,NA,NA,NA,NA,NA,NA,NA,NaN,NA,1220.5,right,1,NA,NA,NA,NA,NA
aOs5zHKb,3icohx7eofotocxdgkfntnxuj980e9,3u84xhcdigqalf44mal4fkkht6f4z7,aOs5zHKb,2020-0188,2021-10-31,19:26:38,20:24:37,NA,incomplete,false,NA,NA,true,3,18,NA,NA,NA,left,m_l_110.jpg,purple,green,NA,NA,NA,NA,NA,NA,NA,NA,NA,NaN,NA,3838.7000000001863,left,1,NA,NA,NA,NA,NA
aOs5zHKb,3icohx7eofotocxdgkfntnxuj980e9,3u84xhcdigqalf44mal4fkkht6f4z7,aOs5zHKb,2020-0188,2021-10-31,19:26:38,20:24:37,NA,incomplete,false,NA,NA,true,3,19,NA,NA,NA,left,m_s_083.jpg,green,purple,NA,NA,NA,NA,NA,NA,NA,NA,NA,NaN,NA,1424.3999999994412,right,0,NA,NA,NA,NA,NA
aOs5zHKb,3icohx7eofotocxdgkfntnxuj980e9,3u84xhcdigqalf44mal4fkkht6f4z7,aOs5zHKb,2020-0188,2021-10-31,19:26:38,20:24:37,NA,incomplete,false,NA,NA,true,3,20,NA,NA,NA,left,n_l_085.jpg,yellow,white,NA,NA,NA,NA,NA,NA,NA,NA,NA,NaN,NA,2763,left,1,NA,NA,NA,NA,NA
aOs5zHKb,3icohx7eofotocxdgkfntnxuj980e9,3u84xhcdigqalf44mal4fkkht6f4z7,aOs5zHKb,2020-0188,2021-10-31,19:26:38,20:24:37,NA,incomplete,false,NA,NA,true,3,21,NA,NA,NA,right,n_l_043.jpg,green,purple,NA,NA,NA,NA,NA,NA,NA,NA,NA,NaN,NA,3315.7000000001863,left,0,NA,NA,NA,NA,NA
aOs5zHKb,3icohx7eofotocxdgkfntnxuj980e9,3u84xhcdigqalf44mal4fkkht6f4z7,aOs5zHKb,2020-0188,2021-10-31,19:26:38,20:24:37,NA,incomplete,false,NA,true,NA,3,0,NA,NA,NA,right,NA,NA,NA,present,NA,NA,m_s_083.jpg,green,n_s_083.jpg,purple,between,NA,NaN,NA,NA,NA,NA,right,2422.399999999441,1,2,2023.300000000745
aOs5zHKb,3icohx7eofotocxdgkfntnxuj980e9,3u84xhcdigqalf44mal4fkkht6f4z7,aOs5zHKb,2020-0188,2021-10-31,19:26:38,20:24:37,NA,incomplete,false,NA,true,NA,3,1,NA,NA,NA,left,NA,NA,NA,present,NA,NA,n_s_089.jpg,red,n_s_014.jpg,red,within,NA,NaN,NA,NA,NA,NA,left,2621.2999999998137,1,0,1033.9000000003725
aOs5zHKb,3icohx7eofotocxdgkfntnxuj980e9,3u84xhcdigqalf44mal4fkkht6f4z7,aOs5zHKb,2020-0188,2021-10-31,19:26:38,20:24:37,NA,incomplete,false,NA,true,NA,3,2,NA,NA,NA,right,NA,NA,NA,present,NA,NA,m_l_095.jpg,brown,m_l_051.jpg,yellow,between,NA,NaN,NA,NA,NA,NA,right,2769.300000000745,1,2,1087.2999999998137
aOs5zHKb,3icohx7eofotocxdgkfntnxuj980e9,3u84xhcdigqalf44mal4fkkht6f4z7,aOs5zHKb,2020-0188,2021-10-31,19:26:38,20:24:37,NA,incomplete,false,NA,true,NA,3,3,NA,NA,NA,left,NA,NA,NA,present,NA,NA,m_l_078.jpg,white,n_l_085.jpg,yellow,between,NA,NaN,NA,NA,NA,NA,left,2589.7000000001863,1,2,1550.5999999996275
aOs5zHKb,3icohx7eofotocxdgkfntnxuj980e9,3u84xhcdigqalf44mal4fkkht6f4z7,aOs5zHKb,2020-0188,2021-10-31,19:26:38,20:24:37,NA,incomplete,false,NA,true,NA,3,4,NA,NA,NA,right,NA,NA,NA,present,NA,NA,m_l_099.jpg,yellow,n_s_003.jpg,yellow,within,NA,NaN,NA,NA,NA,NA,left,2012.7999999998137,0,1,1558.1000000005588
aOs5zHKb,3icohx7eofotocxdgkfntnxuj980e9,3u84xhcdigqalf44mal4fkkht6f4z7,aOs5zHKb,2020-0188,2021-10-31,19:26:38,20:24:37,NA,incomplete,false,NA,true,NA,3,5,NA,NA,NA,right,NA,NA,NA,present,NA,NA,n_l_047.jpg,green,m_l_096.jpg,green,within,NA,NaN,NA,NA,NA,NA,right,2106.5999999996275,1,0,2413.800000000745
aOs5zHKb,3icohx7eofotocxdgkfntnxuj980e9,3u84xhcdigqalf44mal4fkkht6f4z7,aOs5zHKb,2020-0188,2021-10-31,19:26:38,20:24:37,NA,incomplete,false,NA,true,NA,3,6,NA,NA,NA,right,NA,NA,NA,present,NA,NA,m_s_068.jpg,brown,n_s_048.jpg,brown,within,NA,NaN,NA,NA,NA,NA,right,2623.899999999441,1,1,1120.2000000001863
aOs5zHKb,3icohx7eofotocxdgkfntnxuj980e9,3u84xhcdigqalf44mal4fkkht6f4z7,aOs5zHKb,2020-0188,2021-10-31,19:26:38,20:24:37,NA,incomplete,false,NA,true,NA,3,7,NA,NA,NA,right,NA,NA,NA,present,NA,NA,n_l_093.jpg,white,n_s_034.jpg,white,within,NA,NaN,NA,NA,NA,NA,right,1742,1,0,1495.5
aOs5zHKb,3icohx7eofotocxdgkfntnxuj980e9,3u84xhcdigqalf44mal4fkkht6f4z7,aOs5zHKb,2020-0188,2021-10-31,19:26:38,20:24:37,NA,incomplete,false,NA,true,NA,3,8,NA,NA,NA,right,NA,NA,NA,present,NA,NA,m_l_026.jpg,purple,n_s_079.jpg,brown,between,NA,NaN,NA,NA,NA,NA,left,3132.9000000003725,0,3,1747.7999999998137
aOs5zHKb,3icohx7eofotocxdgkfntnxuj980e9,3u84xhcdigqalf44mal4fkkht6f4z7,aOs5zHKb,2020-0188,2021-10-31,19:26:38,20:24:37,NA,incomplete,false,NA,true,NA,3,9,NA,NA,NA,left,NA,NA,NA,present,NA,NA,n_l_043.jpg,purple,m_l_110.jpg,purple,within,NA,NaN,NA,NA,NA,NA,left,1768.1000000005588,1,1,1014
aOs5zHKb,3icohx7eofotocxdgkfntnxuj980e9,3u84xhcdigqalf44mal4fkkht6f4z7,aOs5zHKb,2020-0188,2021-10-31,19:26:38,20:24:37,NA,incomplete,false,NA,true,NA,3,10,NA,NA,NA,right,NA,NA,NA,present,NA,NA,n_l_042.jpg,white,n_s_016.jpg,red,between,NA,NaN,NA,NA,NA,NA,right,2538.5999999996275,1,3,1392.6000000005588
aOs5zHKb,3icohx7eofotocxdgkfntnxuj980e9,3u84xhcdigqalf44mal4fkkht6f4z7,aOs5zHKb,2020-0188,2021-10-31,19:26:38,20:24:37,NA,incomplete,false,true,NA,NA,4,0,NA,yellow,m_s_010.jpg,NA,NA,NA,NA,NA,unpleasant,pleasant,NA,NA,NA,NA,NA,right,2157.10000000056,true,NA,NA,NA,NA,NA,NA,NA,NA
aOs5zHKb,3icohx7eofotocxdgkfntnxuj980e9,3u84xhcdigqalf44mal4fkkht6f4z7,aOs5zHKb,2020-0188,2021-10-31,19:26:38,20:24:37,NA,incomplete,false,true,NA,NA,4,1,NA,yellow,n_s_059.jpg,NA,NA,NA,NA,NA,pleasant,unpleasant,NA,NA,NA,NA,NA,right,1582.89999999944,true,NA,NA,NA,NA,NA,NA,NA,NA
aOs5zHKb,3icohx7eofotocxdgkfntnxuj980e9,3u84xhcdigqalf44mal4fkkht6f4z7,aOs5zHKb,2020-0188,2021-10-31,19:26:38,20:24:37,NA,incomplete,false,true,NA,NA,4,2,NA,yellow,n_s_006.jpg,NA,NA,NA,NA,NA,pleasant,unpleasant,NA,NA,NA,NA,NA,right,1465.80000000075,true,NA,NA,NA,NA,NA,NA,NA,NA
aOs5zHKb,3icohx7eofotocxdgkfntnxuj980e9,3u84xhcdigqalf44mal4fkkht6f4z7,aOs5zHKb,2020-0188,2021-10-31,19:26:38,20:24:37,NA,incomplete,false,true,NA,NA,4,3,NA,yellow,n_s_116.jpg,NA,NA,NA,NA,NA,pleasant,unpleasant,NA,NA,NA,NA,NA,left,1937,true,NA,NA,NA,NA,NA,NA,NA,NA
aOs5zHKb,3icohx7eofotocxdgkfntnxuj980e9,3u84xhcdigqalf44mal4fkkht6f4z7,aOs5zHKb,2020-0188,2021-10-31,19:26:38,20:24:37,NA,incomplete,false,true,NA,NA,4,4,NA,yellow,m_l_115.jpg,NA,NA,NA,NA,NA,unpleasant,pleasant,NA,NA,NA,NA,NA,left,50.0999999996275,true,NA,NA,NA,NA,NA,NA,NA,NA
aOs5zHKb,3icohx7eofotocxdgkfntnxuj980e9,3u84xhcdigqalf44mal4fkkht6f4z7,aOs5zHKb,2020-0188,2021-10-31,19:26:38,20:24:37,NA,incomplete,false,true,NA,NA,4,5,NA,yellow,m_s_076.jpg,NA,NA,NA,NA,NA,unpleasant,pleasant,NA,NA,NA,NA,NA,right,1166.79999999981,true,NA,NA,NA,NA,NA,NA,NA,NA
aOs5zHKb,3icohx7eofotocxdgkfntnxuj980e9,3u84xhcdigqalf44mal4fkkht6f4z7,aOs5zHKb,2020-0188,2021-10-31,19:26:38,20:24:37,NA,incomplete,false,true,NA,NA,4,6,NA,black,n_s_052.jpg,NA,NA,NA,NA,NA,unpleasant,pleasant,NA,NA,NA,NA,NA,left,1270,true,NA,NA,NA,NA,NA,NA,NA,NA
aOs5zHKb,3icohx7eofotocxdgkfntnxuj980e9,3u84xhcdigqalf44mal4fkkht6f4z7,aOs5zHKb,2020-0188,2021-10-31,19:26:38,20:24:37,NA,incomplete,false,true,NA,NA,4,7,NA,black,n_l_049.jpg,NA,NA,NA,NA,NA,pleasant,unpleasant,NA,NA,NA,NA,NA,left,1255.90000000037,true,NA,NA,NA,NA,NA,NA,NA,NA
aOs5zHKb,3icohx7eofotocxdgkfntnxuj980e9,3u84xhcdigqalf44mal4fkkht6f4z7,aOs5zHKb,2020-0188,2021-10-31,19:26:38,20:24:37,NA,incomplete,false,true,NA,NA,4,8,NA,black,m_s_080.jpg,NA,NA,NA,NA,NA,pleasant,unpleasant,NA,NA,NA,NA,NA,left,1876.29999999981,true,NA,NA,NA,NA,NA,NA,NA,NA
aOs5zHKb,3icohx7eofotocxdgkfntnxuj980e9,3u84xhcdigqalf44mal4fkkht6f4z7,aOs5zHKb,2020-0188,2021-10-31,19:26:38,20:24:37,NA,incomplete,false,true,NA,NA,4,9,NA,black,m_l_103.jpg,NA,NA,NA,NA,NA,unpleasant,pleasant,NA,NA,NA,NA,NA,right,2034.5,true,NA,NA,NA,NA,NA,NA,NA,NA
aOs5zHKb,3icohx7eofotocxdgkfntnxuj980e9,3u84xhcdigqalf44mal4fkkht6f4z7,aOs5zHKb,2020-0188,2021-10-31,19:26:38,20:24:37,NA,incomplete,false,true,NA,NA,4,10,NA,black,m_l_107.jpg,NA,NA,NA,NA,NA,unpleasant,pleasant,NA,NA,NA,NA,NA,right,1731,true,NA,NA,NA,NA,NA,NA,NA,NA
aOs5zHKb,3icohx7eofotocxdgkfntnxuj980e9,3u84xhcdigqalf44mal4fkkht6f4z7,aOs5zHKb,2020-0188,2021-10-31,19:26:38,20:24:37,NA,incomplete,false,true,NA,NA,4,11,NA,black,m_s_027.jpg,NA,NA,NA,NA,NA,pleasant,unpleasant,NA,NA,NA,NA,NA,left,1502.79999999981,true,NA,NA,NA,NA,NA,NA,NA,NA
aOs5zHKb,3icohx7eofotocxdgkfntnxuj980e9,3u84xhcdigqalf44mal4fkkht6f4z7,aOs5zHKb,2020-0188,2021-10-31,19:26:38,20:24:37,NA,incomplete,false,true,NA,NA,4,12,NA,brown,m_l_011.jpg,NA,NA,NA,NA,NA,unpleasant,pleasant,NA,NA,NA,NA,NA,right,1525.70000000019,true,NA,NA,NA,NA,NA,NA,NA,NA
aOs5zHKb,3icohx7eofotocxdgkfntnxuj980e9,3u84xhcdigqalf44mal4fkkht6f4z7,aOs5zHKb,2020-0188,2021-10-31,19:26:38,20:24:37,NA,incomplete,false,true,NA,NA,4,13,NA,brown,m_s_023.jpg,NA,NA,NA,NA,NA,unpleasant,pleasant,NA,NA,NA,NA,NA,left,1391,true,NA,NA,NA,NA,NA,NA,NA,NA
aOs5zHKb,3icohx7eofotocxdgkfntnxuj980e9,3u84xhcdigqalf44mal4fkkht6f4z7,aOs5zHKb,2020-0188,2021-10-31,19:26:38,20:24:37,NA,incomplete,false,true,NA,NA,4,14,NA,brown,n_s_082.jpg,NA,NA,NA,NA,NA,pleasant,unpleasant,NA,NA,NA,NA,NA,left,1378.09999999963,true,NA,NA,NA,NA,NA,NA,NA,NA
aOs5zHKb,3icohx7eofotocxdgkfntnxuj980e9,3u84xhcdigqalf44mal4fkkht6f4z7,aOs5zHKb,2020-0188,2021-10-31,19:26:38,20:24:37,NA,incomplete,false,true,NA,NA,4,15,NA,brown,m_s_087.jpg,NA,NA,NA,NA,NA,unpleasant,pleasant,NA,NA,NA,NA,NA,right,1409.60000000056,true,NA,NA,NA,NA,NA,NA,NA,NA
aOs5zHKb,3icohx7eofotocxdgkfntnxuj980e9,3u84xhcdigqalf44mal4fkkht6f4z7,aOs5zHKb,2020-0188,2021-10-31,19:26:38,20:24:37,NA,incomplete,false,true,NA,NA,4,16,NA,brown,n_s_084.jpg,NA,NA,NA,NA,NA,pleasant,unpleasant,NA,NA,NA,NA,NA,left,2021.20000000019,true,NA,NA,NA,NA,NA,NA,NA,NA
aOs5zHKb,3icohx7eofotocxdgkfntnxuj980e9,3u84xhcdigqalf44mal4fkkht6f4z7,aOs5zHKb,2020-0188,2021-10-31,19:26:38,20:24:37,NA,incomplete,false,true,NA,NA,4,17,NA,brown,n_l_044.jpg,NA,NA,NA,NA,NA,pleasant,unpleasant,NA,NA,NA,NA,NA,right,1751.59999999963,true,NA,NA,NA,NA,NA,NA,NA,NA
aOs5zHKb,3icohx7eofotocxdgkfntnxuj980e9,3u84xhcdigqalf44mal4fkkht6f4z7,aOs5zHKb,2020-0188,2021-10-31,19:26:38,20:24:37,NA,incomplete,false,true,NA,NA,4,18,NA,orange,n_l_045.jpg,NA,NA,NA,NA,NA,unpleasant,pleasant,NA,NA,NA,NA,NA,right,1351.09999999963,true,NA,NA,NA,NA,NA,NA,NA,NA
aOs5zHKb,3icohx7eofotocxdgkfntnxuj980e9,3u84xhcdigqalf44mal4fkkht6f4z7,aOs5zHKb,2020-0188,2021-10-31,19:26:38,20:24:37,NA,incomplete,false,true,NA,NA,4,19,NA,orange,m_s_032.jpg,NA,NA,NA,NA,NA,pleasant,unpleasant,NA,NA,NA,NA,NA,left,1256.79999999981,true,NA,NA,NA,NA,NA,NA,NA,NA
aOs5zHKb,3icohx7eofotocxdgkfntnxuj980e9,3u84xhcdigqalf44mal4fkkht6f4z7,aOs5zHKb,2020-0188,2021-10-31,19:26:38,20:24:37,NA,incomplete,false,true,NA,NA,4,20,NA,orange,n_l_058.jpg,NA,NA,NA,NA,NA,pleasant,unpleasant,NA,NA,NA,NA,NA,left,1297.90000000037,true,NA,NA,NA,NA,NA,NA,NA,NA
aOs5zHKb,3icohx7eofotocxdgkfntnxuj980e9,3u84xhcdigqalf44mal4fkkht6f4z7,aOs5zHKb,2020-0188,2021-10-31,19:26:38,20:24:37,NA,incomplete,false,true,NA,NA,4,21,NA,orange,n_l_022.jpg,NA,NA,NA,NA,NA,unpleasant,pleasant,NA,NA,NA,NA,NA,right,1219.59999999963,true,NA,NA,NA,NA,NA,NA,NA,NA
aOs5zHKb,3icohx7eofotocxdgkfntnxuj980e9,3u84xhcdigqalf44mal4fkkht6f4z7,aOs5zHKb,2020-0188,2021-10-31,19:26:38,20:24:37,NA,incomplete,false,true,NA,NA,4,22,NA,orange,n_l_004.jpg,NA,NA,NA,NA,NA,unpleasant,pleasant,NA,NA,NA,NA,NA,left,1437.5,true,NA,NA,NA,NA,NA,NA,NA,NA
aOs5zHKb,3icohx7eofotocxdgkfntnxuj980e9,3u84xhcdigqalf44mal4fkkht6f4z7,aOs5zHKb,2020-0188,2021-10-31,19:26:38,20:24:37,NA,incomplete,false,true,NA,NA,4,23,NA,orange,n_s_061.jpg,NA,NA,NA,NA,NA,pleasant,unpleasant,NA,NA,NA,NA,NA,right,1880.5,true,NA,NA,NA,NA,NA,NA,NA,NA
aOs5zHKb,3icohx7eofotocxdgkfntnxuj980e9,3u84xhcdigqalf44mal4fkkht6f4z7,aOs5zHKb,2020-0188,2021-10-31,19:26:38,20:24:37,NA,incomplete,false,true,NA,NA,4,24,NA,purple,m_l_077.jpg,NA,NA,NA,NA,NA,pleasant,unpleasant,NA,NA,NA,NA,NA,left,1192.29999999981,true,NA,NA,NA,NA,NA,NA,NA,NA
aOs5zHKb,3icohx7eofotocxdgkfntnxuj980e9,3u84xhcdigqalf44mal4fkkht6f4z7,aOs5zHKb,2020-0188,2021-10-31,19:26:38,20:24:37,NA,incomplete,false,true,NA,NA,4,25,NA,purple,n_s_111.jpg,NA,NA,NA,NA,NA,pleasant,unpleasant,NA,NA,NA,NA,NA,left,1089.29999999981,true,NA,NA,NA,NA,NA,NA,NA,NA
aOs5zHKb,3icohx7eofotocxdgkfntnxuj980e9,3u84xhcdigqalf44mal4fkkht6f4z7,aOs5zHKb,2020-0188,2021-10-31,19:26:38,20:24:37,NA,incomplete,false,true,NA,NA,4,26,NA,purple,n_l_064.jpg,NA,NA,NA,NA,NA,pleasant,unpleasant,NA,NA,NA,NA,NA,right,1148.5,true,NA,NA,NA,NA,NA,NA,NA,NA
aOs5zHKb,3icohx7eofotocxdgkfntnxuj980e9,3u84xhcdigqalf44mal4fkkht6f4z7,aOs5zHKb,2020-0188,2021-10-31,19:26:38,20:24:37,NA,incomplete,false,true,NA,NA,4,27,NA,purple,m_l_020.jpg,NA,NA,NA,NA,NA,unpleasant,pleasant,NA,NA,NA,NA,NA,left,1732.5,true,NA,NA,NA,NA,NA,NA,NA,NA
aOs5zHKb,3icohx7eofotocxdgkfntnxuj980e9,3u84xhcdigqalf44mal4fkkht6f4z7,aOs5zHKb,2020-0188,2021-10-31,19:26:38,20:24:37,NA,incomplete,false,true,NA,NA,4,28,NA,purple,m_s_099.jpg,NA,NA,NA,NA,NA,unpleasant,pleasant,NA,NA,NA,NA,NA,right,1038.59999999963,true,NA,NA,NA,NA,NA,NA,NA,NA
aOs5zHKb,3icohx7eofotocxdgkfntnxuj980e9,3u84xhcdigqalf44mal4fkkht6f4z7,aOs5zHKb,2020-0188,2021-10-31,19:26:38,20:24:37,NA,incomplete,false,true,NA,NA,4,29,NA,purple,n_l_024.jpg,NA,NA,NA,NA,NA,unpleasant,pleasant,NA,NA,NA,NA,NA,right,1040.69999999925,true,NA,NA,NA,NA,NA,NA,NA,NA
aOs5zHKb,3icohx7eofotocxdgkfntnxuj980e9,3u84xhcdigqalf44mal4fkkht6f4z7,aOs5zHKb,2020-0188,2021-10-31,19:26:38,20:24:37,NA,incomplete,false,true,NA,NA,4,30,NA,white,m_l_027.jpg,NA,NA,NA,NA,NA,unpleasant,pleasant,NA,NA,NA,NA,NA,right,1592.70000000019,true,NA,NA,NA,NA,NA,NA,NA,NA
aOs5zHKb,3icohx7eofotocxdgkfntnxuj980e9,3u84xhcdigqalf44mal4fkkht6f4z7,aOs5zHKb,2020-0188,2021-10-31,19:26:38,20:24:37,NA,incomplete,false,true,NA,NA,4,31,NA,white,m_l_030.jpg,NA,NA,NA,NA,NA,pleasant,unpleasant,NA,NA,NA,NA,NA,left,1105.29999999981,true,NA,NA,NA,NA,NA,NA,NA,NA
aOs5zHKb,3icohx7eofotocxdgkfntnxuj980e9,3u84xhcdigqalf44mal4fkkht6f4z7,aOs5zHKb,2020-0188,2021-10-31,19:26:38,20:24:37,NA,incomplete,false,true,NA,NA,4,32,NA,white,n_s_015.jpg,NA,NA,NA,NA,NA,pleasant,unpleasant,NA,NA,NA,NA,NA,left,1052.29999999981,true,NA,NA,NA,NA,NA,NA,NA,NA
aOs5zHKb,3icohx7eofotocxdgkfntnxuj980e9,3u84xhcdigqalf44mal4fkkht6f4z7,aOs5zHKb,2020-0188,2021-10-31,19:26:38,20:24:37,NA,incomplete,false,true,NA,NA,4,33,NA,white,n_l_077.jpg,NA,NA,NA,NA,NA,unpleasant,pleasant,NA,NA,NA,NA,NA,right,1595.89999999944,true,NA,NA,NA,NA,NA,NA,NA,NA
aOs5zHKb,3icohx7eofotocxdgkfntnxuj980e9,3u84xhcdigqalf44mal4fkkht6f4z7,aOs5zHKb,2020-0188,2021-10-31,19:26:38,20:24:37,NA,incomplete,false,true,NA,NA,4,34,NA,white,n_l_073.jpg,NA,NA,NA,NA,NA,unpleasant,pleasant,NA,NA,NA,NA,NA,right,1807.19999999925,true,NA,NA,NA,NA,NA,NA,NA,NA
aOs5zHKb,3icohx7eofotocxdgkfntnxuj980e9,3u84xhcdigqalf44mal4fkkht6f4z7,aOs5zHKb,2020-0188,2021-10-31,19:26:38,20:24:37,NA,incomplete,false,true,NA,NA,4,35,NA,white,m_l_097.jpg,NA,NA,NA,NA,NA,unpleasant,pleasant,NA,NA,NA,NA,NA,right,1791.70000000019,true,NA,NA,NA,NA,NA,NA,NA,NA
aOs5zHKb,3icohx7eofotocxdgkfntnxuj980e9,3u84xhcdigqalf44mal4fkkht6f4z7,aOs5zHKb,2020-0188,2021-10-31,19:26:38,20:24:37,NA,incomplete,false,NA,NA,true,4,0,NA,NA,NA,right,n_l_044.jpg,black,brown,NA,NA,NA,NA,NA,NA,NA,NA,NA,NaN,NA,3368.9000000003725,left,0,NA,NA,NA,NA,NA
aOs5zHKb,3icohx7eofotocxdgkfntnxuj980e9,3u84xhcdigqalf44mal4fkkht6f4z7,aOs5zHKb,2020-0188,2021-10-31,19:26:38,20:24:37,NA,incomplete,false,NA,NA,true,4,1,NA,NA,NA,right,n_s_082.jpg,black,brown,NA,NA,NA,NA,NA,NA,NA,NA,NA,NaN,NA,1915.4000000003725,right,1,NA,NA,NA,NA,NA
aOs5zHKb,3icohx7eofotocxdgkfntnxuj980e9,3u84xhcdigqalf44mal4fkkht6f4z7,aOs5zHKb,2020-0188,2021-10-31,19:26:38,20:24:37,NA,incomplete,false,NA,NA,true,4,2,NA,NA,NA,right,n_l_024.jpg,white,purple,NA,NA,NA,NA,NA,NA,NA,NA,NA,NaN,NA,842.1000000005588,right,1,NA,NA,NA,NA,NA
aOs5zHKb,3icohx7eofotocxdgkfntnxuj980e9,3u84xhcdigqalf44mal4fkkht6f4z7,aOs5zHKb,2020-0188,2021-10-31,19:26:38,20:24:37,NA,incomplete,false,NA,NA,true,4,3,NA,NA,NA,left,n_s_015.jpg,white,purple,NA,NA,NA,NA,NA,NA,NA,NA,NA,NaN,NA,1475.5,left,1,NA,NA,NA,NA,NA
aOs5zHKb,3icohx7eofotocxdgkfntnxuj980e9,3u84xhcdigqalf44mal4fkkht6f4z7,aOs5zHKb,2020-0188,2021-10-31,19:26:38,20:24:37,NA,incomplete,false,NA,NA,true,4,4,NA,NA,NA,left,m_s_023.jpg,brown,black,NA,NA,NA,NA,NA,NA,NA,NA,NA,NaN,NA,1678.0999999996275,left,1,NA,NA,NA,NA,NA
aOs5zHKb,3icohx7eofotocxdgkfntnxuj980e9,3u84xhcdigqalf44mal4fkkht6f4z7,aOs5zHKb,2020-0188,2021-10-31,19:26:38,20:24:37,NA,incomplete,false,NA,NA,true,4,5,NA,NA,NA,right,m_l_115.jpg,black,yellow,NA,NA,NA,NA,NA,NA,NA,NA,NA,NaN,NA,1449.5999999996275,right,1,NA,NA,NA,NA,NA
aOs5zHKb,3icohx7eofotocxdgkfntnxuj980e9,3u84xhcdigqalf44mal4fkkht6f4z7,aOs5zHKb,2020-0188,2021-10-31,19:26:38,20:24:37,NA,incomplete,false,NA,NA,true,4,6,NA,NA,NA,right,n_l_064.jpg,white,purple,NA,NA,NA,NA,NA,NA,NA,NA,NA,NaN,NA,755.7999999998137,right,1,NA,NA,NA,NA,NA
aOs5zHKb,3icohx7eofotocxdgkfntnxuj980e9,3u84xhcdigqalf44mal4fkkht6f4z7,aOs5zHKb,2020-0188,2021-10-31,19:26:38,20:24:37,NA,incomplete,false,NA,NA,true,4,7,NA,NA,NA,left,n_s_059.jpg,yellow,black,NA,NA,NA,NA,NA,NA,NA,NA,NA,NaN,NA,1477.4000000003725,left,1,NA,NA,NA,NA,NA
aOs5zHKb,3icohx7eofotocxdgkfntnxuj980e9,3u84xhcdigqalf44mal4fkkht6f4z7,aOs5zHKb,2020-0188,2021-10-31,19:26:38,20:24:37,NA,incomplete,false,NA,NA,true,4,8,NA,NA,NA,right,n_l_004.jpg,purple,orange,NA,NA,NA,NA,NA,NA,NA,NA,NA,NaN,NA,3543.5999999996275,right,1,NA,NA,NA,NA,NA
aOs5zHKb,3icohx7eofotocxdgkfntnxuj980e9,3u84xhcdigqalf44mal4fkkht6f4z7,aOs5zHKb,2020-0188,2021-10-31,19:26:38,20:24:37,NA,incomplete,false,NA,NA,true,4,9,NA,NA,NA,left,m_s_099.jpg,purple,white,NA,NA,NA,NA,NA,NA,NA,NA,NA,NaN,NA,1689.2999999998137,left,1,NA,NA,NA,NA,NA
aOs5zHKb,3icohx7eofotocxdgkfntnxuj980e9,3u84xhcdigqalf44mal4fkkht6f4z7,aOs5zHKb,2020-0188,2021-10-31,19:26:38,20:24:37,NA,incomplete,false,NA,NA,true,4,10,NA,NA,NA,left,m_s_080.jpg,black,yellow,NA,NA,NA,NA,NA,NA,NA,NA,NA,NaN,NA,1063.5999999996275,left,1,NA,NA,NA,NA,NA
aOs5zHKb,3icohx7eofotocxdgkfntnxuj980e9,3u84xhcdigqalf44mal4fkkht6f4z7,aOs5zHKb,2020-0188,2021-10-31,19:26:38,20:24:37,NA,incomplete,false,NA,NA,true,4,11,NA,NA,NA,right,n_s_084.jpg,black,brown,NA,NA,NA,NA,NA,NA,NA,NA,NA,NaN,NA,1528.4000000003725,right,1,NA,NA,NA,NA,NA
aOs5zHKb,3icohx7eofotocxdgkfntnxuj980e9,3u84xhcdigqalf44mal4fkkht6f4z7,aOs5zHKb,2020-0188,2021-10-31,19:26:38,20:24:37,NA,incomplete,false,NA,NA,true,4,12,NA,NA,NA,left,n_l_049.jpg,black,brown,NA,NA,NA,NA,NA,NA,NA,NA,NA,NaN,NA,1548.699999999255,left,1,NA,NA,NA,NA,NA
aOs5zHKb,3icohx7eofotocxdgkfntnxuj980e9,3u84xhcdigqalf44mal4fkkht6f4z7,aOs5zHKb,2020-0188,2021-10-31,19:26:38,20:24:37,NA,incomplete,false,NA,NA,true,4,13,NA,NA,NA,left,m_s_027.jpg,black,brown,NA,NA,NA,NA,NA,NA,NA,NA,NA,NaN,NA,818.2999999998137,left,1,NA,NA,NA,NA,NA
aOs5zHKb,3icohx7eofotocxdgkfntnxuj980e9,3u84xhcdigqalf44mal4fkkht6f4z7,aOs5zHKb,2020-0188,2021-10-31,19:26:38,20:24:37,NA,incomplete,false,NA,NA,true,4,14,NA,NA,NA,right,n_l_058.jpg,purple,orange,NA,NA,NA,NA,NA,NA,NA,NA,NA,NaN,NA,1637.5,right,1,NA,NA,NA,NA,NA
aOs5zHKb,3icohx7eofotocxdgkfntnxuj980e9,3u84xhcdigqalf44mal4fkkht6f4z7,aOs5zHKb,2020-0188,2021-10-31,19:26:38,20:24:37,NA,incomplete,false,NA,NA,true,4,15,NA,NA,NA,right,m_l_107.jpg,yellow,black,NA,NA,NA,NA,NA,NA,NA,NA,NA,NaN,NA,1763.199999999255,right,1,NA,NA,NA,NA,NA
aOs5zHKb,3icohx7eofotocxdgkfntnxuj980e9,3u84xhcdigqalf44mal4fkkht6f4z7,aOs5zHKb,2020-0188,2021-10-31,19:26:38,20:24:37,NA,incomplete,false,NA,NA,true,4,16,NA,NA,NA,right,m_l_030.jpg,purple,white,NA,NA,NA,NA,NA,NA,NA,NA,NA,NaN,NA,699.7000000001863,right,1,NA,NA,NA,NA,NA
aOs5zHKb,3icohx7eofotocxdgkfntnxuj980e9,3u84xhcdigqalf44mal4fkkht6f4z7,aOs5zHKb,2020-0188,2021-10-31,19:26:38,20:24:37,NA,incomplete,false,NA,NA,true,4,17,NA,NA,NA,left,m_s_076.jpg,yellow,black,NA,NA,NA,NA,NA,NA,NA,NA,NA,NaN,NA,3638.2999999998137,left,1,NA,NA,NA,NA,NA
aOs5zHKb,3icohx7eofotocxdgkfntnxuj980e9,3u84xhcdigqalf44mal4fkkht6f4z7,aOs5zHKb,2020-0188,2021-10-31,19:26:38,20:24:37,NA,incomplete,false,NA,NA,true,4,18,NA,NA,NA,right,m_l_097.jpg,purple,white,NA,NA,NA,NA,NA,NA,NA,NA,NA,NaN,NA,2966.600000000559,right,1,NA,NA,NA,NA,NA
aOs5zHKb,3icohx7eofotocxdgkfntnxuj980e9,3u84xhcdigqalf44mal4fkkht6f4z7,aOs5zHKb,2020-0188,2021-10-31,19:26:38,20:24:37,NA,incomplete,false,NA,NA,true,4,19,NA,NA,NA,left,n_s_111.jpg,purple,orange,NA,NA,NA,NA,NA,NA,NA,NA,NA,NaN,NA,2042.300000000745,left,1,NA,NA,NA,NA,NA
aOs5zHKb,3icohx7eofotocxdgkfntnxuj980e9,3u84xhcdigqalf44mal4fkkht6f4z7,aOs5zHKb,2020-0188,2021-10-31,19:26:38,20:24:37,NA,incomplete,false,NA,NA,true,4,20,NA,NA,NA,right,n_s_061.jpg,brown,orange,NA,NA,NA,NA,NA,NA,NA,NA,NA,NaN,NA,2192.5,right,1,NA,NA,NA,NA,NA
aOs5zHKb,3icohx7eofotocxdgkfntnxuj980e9,3u84xhcdigqalf44mal4fkkht6f4z7,aOs5zHKb,2020-0188,2021-10-31,19:26:38,20:24:37,NA,incomplete,false,NA,NA,true,4,21,NA,NA,NA,left,m_s_032.jpg,orange,purple,NA,NA,NA,NA,NA,NA,NA,NA,NA,NaN,NA,1670.7000000001863,left,1,NA,NA,NA,NA,NA
aOs5zHKb,3icohx7eofotocxdgkfntnxuj980e9,3u84xhcdigqalf44mal4fkkht6f4z7,aOs5zHKb,2020-0188,2021-10-31,19:26:38,20:24:37,NA,incomplete,false,NA,true,NA,4,0,NA,NA,NA,right,NA,NA,NA,present,NA,NA,m_s_027.jpg,black,n_l_049.jpg,black,within,NA,NaN,NA,NA,NA,NA,left,2409.5,0,0,1012.3999999994412
aOs5zHKb,3icohx7eofotocxdgkfntnxuj980e9,3u84xhcdigqalf44mal4fkkht6f4z7,aOs5zHKb,2020-0188,2021-10-31,19:26:38,20:24:37,NA,incomplete,false,NA,true,NA,4,1,NA,NA,NA,left,NA,NA,NA,present,NA,NA,n_s_059.jpg,yellow,m_s_076.jpg,yellow,within,NA,NaN,NA,NA,NA,NA,left,2813,1,0,1038
aOs5zHKb,3icohx7eofotocxdgkfntnxuj980e9,3u84xhcdigqalf44mal4fkkht6f4z7,aOs5zHKb,2020-0188,2021-10-31,19:26:38,20:24:37,NA,incomplete,false,NA,true,NA,4,2,NA,NA,NA,right,NA,NA,NA,present,NA,NA,m_l_097.jpg,white,m_l_030.jpg,white,within,NA,NaN,NA,NA,NA,NA,right,2604.2999999998137,1,0,1062.8999999994412
aOs5zHKb,3icohx7eofotocxdgkfntnxuj980e9,3u84xhcdigqalf44mal4fkkht6f4z7,aOs5zHKb,2020-0188,2021-10-31,19:26:38,20:24:37,NA,incomplete,false,NA,true,NA,4,3,NA,NA,NA,right,NA,NA,NA,present,NA,NA,m_s_080.jpg,black,m_l_115.jpg,yellow,between,NA,NaN,NA,NA,NA,NA,left,1727.3999999994412,0,2,943.7999999998137
aOs5zHKb,3icohx7eofotocxdgkfntnxuj980e9,3u84xhcdigqalf44mal4fkkht6f4z7,aOs5zHKb,2020-0188,2021-10-31,19:26:38,20:24:37,NA,incomplete,false,NA,true,NA,4,4,NA,NA,NA,left,NA,NA,NA,present,NA,NA,m_s_099.jpg,purple,n_s_015.jpg,white,between,NA,NaN,NA,NA,NA,NA,right,1759.7999999998137,0,3,2316.5999999996275
aOs5zHKb,3icohx7eofotocxdgkfntnxuj980e9,3u84xhcdigqalf44mal4fkkht6f4z7,aOs5zHKb,2020-0188,2021-10-31,19:26:38,20:24:37,NA,incomplete,false,NA,true,NA,4,5,NA,NA,NA,left,NA,NA,NA,present,NA,NA,n_s_084.jpg,brown,n_l_058.jpg,orange,between,NA,NaN,NA,NA,NA,NA,right,3612.5,0,2,981
aOs5zHKb,3icohx7eofotocxdgkfntnxuj980e9,3u84xhcdigqalf44mal4fkkht6f4z7,aOs5zHKb,2020-0188,2021-10-31,19:26:38,20:24:37,NA,incomplete,false,NA,true,NA,4,6,NA,NA,NA,right,NA,NA,NA,present,NA,NA,n_l_044.jpg,brown,m_s_023.jpg,brown,within,NA,NaN,NA,NA,NA,NA,left,1995.5999999996275,0,1,1014.1000000005588
aOs5zHKb,3icohx7eofotocxdgkfntnxuj980e9,3u84xhcdigqalf44mal4fkkht6f4z7,aOs5zHKb,2020-0188,2021-10-31,19:26:38,20:24:37,NA,incomplete,false,NA,true,NA,4,7,NA,NA,NA,right,NA,NA,NA,present,NA,NA,n_s_061.jpg,orange,m_s_032.jpg,orange,within,NA,NaN,NA,NA,NA,NA,right,1954.5,1,1,1839.7000000001863
aOs5zHKb,3icohx7eofotocxdgkfntnxuj980e9,3u84xhcdigqalf44mal4fkkht6f4z7,aOs5zHKb,2020-0188,2021-10-31,19:26:38,20:24:37,NA,incomplete,false,NA,true,NA,4,8,NA,NA,NA,right,NA,NA,NA,present,NA,NA,n_l_024.jpg,purple,n_s_111.jpg,purple,within,NA,NaN,NA,NA,NA,NA,right,1947.5999999996275,1,1,1604.1000000005588
aOs5zHKb,3icohx7eofotocxdgkfntnxuj980e9,3u84xhcdigqalf44mal4fkkht6f4z7,aOs5zHKb,2020-0188,2021-10-31,19:26:38,20:24:37,NA,incomplete,false,NA,true,NA,4,9,NA,NA,NA,left,NA,NA,NA,present,NA,NA,m_l_107.jpg,black,n_s_082.jpg,brown,between,NA,NaN,NA,NA,NA,NA,left,2343.4000000003725,1,2,952.2999999998137
aOs5zHKb,3icohx7eofotocxdgkfntnxuj980e9,3u84xhcdigqalf44mal4fkkht6f4z7,aOs5zHKb,2020-0188,2021-10-31,19:26:38,20:24:37,NA,incomplete,false,NA,true,NA,4,10,NA,NA,NA,right,NA,NA,NA,present,NA,NA,n_l_064.jpg,purple,n_l_004.jpg,orange,between,NA,NaN,NA,NA,NA,NA,left,2940.600000000559,0,2,967.7000000001863
aOs5zHKb,3icohx7eofotocxdgkfntnxuj980e9,3u84xhcdigqalf44mal4fkkht6f4z7,aOs5zHKb,2020-0188,2021-10-31,19:26:38,20:24:37,NA,incomplete,false,true,NA,NA,5,0,NA,green,n_l_054.jpg,NA,NA,NA,NA,NA,unpleasant,pleasant,NA,NA,NA,NA,NA,right,1440.59999999963,true,NA,NA,NA,NA,NA,NA,NA,NA
aOs5zHKb,3icohx7eofotocxdgkfntnxuj980e9,3u84xhcdigqalf44mal4fkkht6f4z7,aOs5zHKb,2020-0188,2021-10-31,19:26:38,20:24:37,NA,incomplete,false,true,NA,NA,5,1,NA,green,n_s_043.jpg,NA,NA,NA,NA,NA,unpleasant,pleasant,NA,NA,NA,NA,NA,left,1890.09999999963,true,NA,NA,NA,NA,NA,NA,NA,NA
aOs5zHKb,3icohx7eofotocxdgkfntnxuj980e9,3u84xhcdigqalf44mal4fkkht6f4z7,aOs5zHKb,2020-0188,2021-10-31,19:26:38,20:24:37,NA,incomplete,false,true,NA,NA,5,2,NA,green,m_s_093.jpg,NA,NA,NA,NA,NA,unpleasant,pleasant,NA,NA,NA,NA,NA,right,1461.09999999963,true,NA,NA,NA,NA,NA,NA,NA,NA
aOs5zHKb,3icohx7eofotocxdgkfntnxuj980e9,3u84xhcdigqalf44mal4fkkht6f4z7,aOs5zHKb,2020-0188,2021-10-31,19:26:38,20:24:37,NA,incomplete,false,true,NA,NA,5,3,NA,green,n_s_062.jpg,NA,NA,NA,NA,NA,pleasant,unpleasant,NA,NA,NA,NA,NA,left,1683.89999999944,true,NA,NA,NA,NA,NA,NA,NA,NA
aOs5zHKb,3icohx7eofotocxdgkfntnxuj980e9,3u84xhcdigqalf44mal4fkkht6f4z7,aOs5zHKb,2020-0188,2021-10-31,19:26:38,20:24:37,NA,incomplete,false,true,NA,NA,5,4,NA,green,n_s_020.jpg,NA,NA,NA,NA,NA,pleasant,unpleasant,NA,NA,NA,NA,NA,left,1374,true,NA,NA,NA,NA,NA,NA,NA,NA
aOs5zHKb,3icohx7eofotocxdgkfntnxuj980e9,3u84xhcdigqalf44mal4fkkht6f4z7,aOs5zHKb,2020-0188,2021-10-31,19:26:38,20:24:37,NA,incomplete,false,true,NA,NA,5,5,NA,green,m_s_039.jpg,NA,NA,NA,NA,NA,unpleasant,pleasant,NA,NA,NA,NA,NA,right,1714.5,true,NA,NA,NA,NA,NA,NA,NA,NA
aOs5zHKb,3icohx7eofotocxdgkfntnxuj980e9,3u84xhcdigqalf44mal4fkkht6f4z7,aOs5zHKb,2020-0188,2021-10-31,19:26:38,20:24:37,NA,incomplete,false,true,NA,NA,5,6,NA,brown,m_l_069.jpg,NA,NA,NA,NA,NA,unpleasant,pleasant,NA,NA,NA,NA,NA,left,1546.09999999963,true,NA,NA,NA,NA,NA,NA,NA,NA
aOs5zHKb,3icohx7eofotocxdgkfntnxuj980e9,3u84xhcdigqalf44mal4fkkht6f4z7,aOs5zHKb,2020-0188,2021-10-31,19:26:38,20:24:37,NA,incomplete,false,true,NA,NA,5,7,NA,brown,m_l_036.jpg,NA,NA,NA,NA,NA,pleasant,unpleasant,NA,NA,NA,NA,NA,left,1731,true,NA,NA,NA,NA,NA,NA,NA,NA
aOs5zHKb,3icohx7eofotocxdgkfntnxuj980e9,3u84xhcdigqalf44mal4fkkht6f4z7,aOs5zHKb,2020-0188,2021-10-31,19:26:38,20:24:37,NA,incomplete,false,true,NA,NA,5,8,NA,brown,n_l_115.jpg,NA,NA,NA,NA,NA,pleasant,unpleasant,NA,NA,NA,NA,NA,left,2159.39999999944,true,NA,NA,NA,NA,NA,NA,NA,NA
aOs5zHKb,3icohx7eofotocxdgkfntnxuj980e9,3u84xhcdigqalf44mal4fkkht6f4z7,aOs5zHKb,2020-0188,2021-10-31,19:26:38,20:24:37,NA,incomplete,false,true,NA,NA,5,9,NA,brown,n_l_056.jpg,NA,NA,NA,NA,NA,unpleasant,pleasant,NA,NA,NA,NA,NA,right,1829.90000000037,true,NA,NA,NA,NA,NA,NA,NA,NA
aOs5zHKb,3icohx7eofotocxdgkfntnxuj980e9,3u84xhcdigqalf44mal4fkkht6f4z7,aOs5zHKb,2020-0188,2021-10-31,19:26:38,20:24:37,NA,incomplete,false,true,NA,NA,5,10,NA,brown,m_s_100.jpg,NA,NA,NA,NA,NA,unpleasant,pleasant,NA,NA,NA,NA,NA,right,1311.59999999963,true,NA,NA,NA,NA,NA,NA,NA,NA
aOs5zHKb,3icohx7eofotocxdgkfntnxuj980e9,3u84xhcdigqalf44mal4fkkht6f4z7,aOs5zHKb,2020-0188,2021-10-31,19:26:38,20:24:37,NA,incomplete,false,true,NA,NA,5,11,NA,brown,n_s_104.jpg,NA,NA,NA,NA,NA,unpleasant,pleasant,NA,NA,NA,NA,NA,right,1962.29999999981,true,NA,NA,NA,NA,NA,NA,NA,NA
aOs5zHKb,3icohx7eofotocxdgkfntnxuj980e9,3u84xhcdigqalf44mal4fkkht6f4z7,aOs5zHKb,2020-0188,2021-10-31,19:26:38,20:24:37,NA,incomplete,false,true,NA,NA,5,12,NA,orange,m_l_108.jpg,NA,NA,NA,NA,NA,pleasant,unpleasant,NA,NA,NA,NA,NA,left,1314.5,true,NA,NA,NA,NA,NA,NA,NA,NA
aOs5zHKb,3icohx7eofotocxdgkfntnxuj980e9,3u84xhcdigqalf44mal4fkkht6f4z7,aOs5zHKb,2020-0188,2021-10-31,19:26:38,20:24:37,NA,incomplete,false,true,NA,NA,5,13,NA,orange,n_l_032.jpg,NA,NA,NA,NA,NA,pleasant,unpleasant,NA,NA,NA,NA,NA,left,1492,true,NA,NA,NA,NA,NA,NA,NA,NA
aOs5zHKb,3icohx7eofotocxdgkfntnxuj980e9,3u84xhcdigqalf44mal4fkkht6f4z7,aOs5zHKb,2020-0188,2021-10-31,19:26:38,20:24:37,NA,incomplete,false,true,NA,NA,5,14,NA,orange,m_l_049.jpg,NA,NA,NA,NA,NA,pleasant,unpleasant,NA,NA,NA,NA,NA,left,1509.79999999981,true,NA,NA,NA,NA,NA,NA,NA,NA
aOs5zHKb,3icohx7eofotocxdgkfntnxuj980e9,3u84xhcdigqalf44mal4fkkht6f4z7,aOs5zHKb,2020-0188,2021-10-31,19:26:38,20:24:37,NA,incomplete,false,true,NA,NA,5,15,NA,orange,n_l_015.jpg,NA,NA,NA,NA,NA,pleasant,unpleasant,NA,NA,NA,NA,NA,left,1455.30000000075,true,NA,NA,NA,NA,NA,NA,NA,NA
