workerId,hitId,assignmentId,subject,studyid,exp_date,exp_start,exp_end,time_start,time_end,practice,encoding,memory,association,block,trial,event_order,event,stim,answer,object,left_context,right_context,context_type,label_left,label_right,left_image,left_event,right_image,right_event,condition,response,response_time,response_acc,association_response_time,association_response,association_acc,order_response,order_response_time,order_acc,distance_response,distance_response_time
Svia5127,3z33ic0jd3zsmh7cb6nqm2m9m84v9l,3uxuoq9okia63uefcg3c13diakha78,Svia5127,2020-0188,2021-10-31,00:29:18,01:52:19,NA,incomplete,true,true,NA,NA,0,0,NA,yellow,n_s_081.jpg,NA,NA,NA,NA,NA,pleasant,unpleasant,NA,NA,NA,NA,NA,right,2954.5,true,NA,NA,NA,NA,NA,NA,NA,NA
Svia5127,3z33ic0jd3zsmh7cb6nqm2m9m84v9l,3uxuoq9okia63uefcg3c13diakha78,Svia5127,2020-0188,2021-10-31,00:29:18,01:52:19,NA,incomplete,true,true,NA,NA,0,1,NA,yellow,m_s_104.jpg,NA,NA,NA,NA,NA,pleasant,unpleasant,NA,NA,NA,NA,NA,left,2692.60000000149,true,NA,NA,NA,NA,NA,NA,NA,NA
Svia5127,3z33ic0jd3zsmh7cb6nqm2m9m84v9l,3uxuoq9okia63uefcg3c13diakha78,Svia5127,2020-0188,2021-10-31,00:29:18,01:52:19,NA,incomplete,true,true,NA,NA,0,2,NA,yellow,n_s_006.jpg,NA,NA,NA,NA,NA,unpleasant,pleasant,NA,NA,NA,NA,NA,left,2638.80000000447,true,NA,NA,NA,NA,NA,NA,NA,NA
Svia5127,3z33ic0jd3zsmh7cb6nqm2m9m84v9l,3uxuoq9okia63uefcg3c13diakha78,Svia5127,2020-0188,2021-10-31,00:29:18,01:52:19,NA,incomplete,true,true,NA,NA,0,3,NA,yellow,n_l_032.jpg,NA,NA,NA,NA,NA,pleasant,unpleasant,NA,NA,NA,NA,NA,right,1774.20000000298,true,NA,NA,NA,NA,NA,NA,NA,NA
Svia5127,3z33ic0jd3zsmh7cb6nqm2m9m84v9l,3uxuoq9okia63uefcg3c13diakha78,Svia5127,2020-0188,2021-10-31,00:29:18,01:52:19,NA,incomplete,true,true,NA,NA,0,4,NA,yellow,m_s_068.jpg,NA,NA,NA,NA,NA,pleasant,unpleasant,NA,NA,NA,NA,NA,left,2166.20000000298,true,NA,NA,NA,NA,NA,NA,NA,NA
Svia5127,3z33ic0jd3zsmh7cb6nqm2m9m84v9l,3uxuoq9okia63uefcg3c13diakha78,Svia5127,2020-0188,2021-10-31,00:29:18,01:52:19,NA,incomplete,true,true,NA,NA,0,5,NA,yellow,n_s_025.jpg,NA,NA,NA,NA,NA,unpleasant,pleasant,NA,NA,NA,NA,NA,left,2175.29999999702,true,NA,NA,NA,NA,NA,NA,NA,NA
Svia5127,3z33ic0jd3zsmh7cb6nqm2m9m84v9l,3uxuoq9okia63uefcg3c13diakha78,Svia5127,2020-0188,2021-10-31,00:29:18,01:52:19,NA,incomplete,true,true,NA,NA,0,6,NA,orange,n_s_021.jpg,NA,NA,NA,NA,NA,pleasant,unpleasant,NA,NA,NA,NA,NA,left,2285.5,true,NA,NA,NA,NA,NA,NA,NA,NA
Svia5127,3z33ic0jd3zsmh7cb6nqm2m9m84v9l,3uxuoq9okia63uefcg3c13diakha78,Svia5127,2020-0188,2021-10-31,00:29:18,01:52:19,NA,incomplete,true,true,NA,NA,0,7,NA,orange,m_l_003.jpg,NA,NA,NA,NA,NA,pleasant,unpleasant,NA,NA,NA,NA,NA,left,2590.59999999404,true,NA,NA,NA,NA,NA,NA,NA,NA
Svia5127,3z33ic0jd3zsmh7cb6nqm2m9m84v9l,3uxuoq9okia63uefcg3c13diakha78,Svia5127,2020-0188,2021-10-31,00:29:18,01:52:19,NA,incomplete,true,true,NA,NA,0,8,NA,orange,m_s_042.jpg,NA,NA,NA,NA,NA,unpleasant,pleasant,NA,NA,NA,NA,NA,right,1632.60000000149,true,NA,NA,NA,NA,NA,NA,NA,NA
Svia5127,3z33ic0jd3zsmh7cb6nqm2m9m84v9l,3uxuoq9okia63uefcg3c13diakha78,Svia5127,2020-0188,2021-10-31,00:29:18,01:52:19,NA,incomplete,true,true,NA,NA,0,9,NA,orange,m_s_090.jpg,NA,NA,NA,NA,NA,pleasant,unpleasant,NA,NA,NA,NA,NA,right,1559.29999999702,true,NA,NA,NA,NA,NA,NA,NA,NA
Svia5127,3z33ic0jd3zsmh7cb6nqm2m9m84v9l,3uxuoq9okia63uefcg3c13diakha78,Svia5127,2020-0188,2021-10-31,00:29:18,01:52:19,NA,incomplete,true,true,NA,NA,0,10,NA,orange,m_l_038.jpg,NA,NA,NA,NA,NA,unpleasant,pleasant,NA,NA,NA,NA,NA,left,2152.70000000298,true,NA,NA,NA,NA,NA,NA,NA,NA
Svia5127,3z33ic0jd3zsmh7cb6nqm2m9m84v9l,3uxuoq9okia63uefcg3c13diakha78,Svia5127,2020-0188,2021-10-31,00:29:18,01:52:19,NA,incomplete,true,true,NA,NA,0,11,NA,orange,n_s_074.jpg,NA,NA,NA,NA,NA,unpleasant,pleasant,NA,NA,NA,NA,NA,left,2162.60000000149,true,NA,NA,NA,NA,NA,NA,NA,NA
Svia5127,3z33ic0jd3zsmh7cb6nqm2m9m84v9l,3uxuoq9okia63uefcg3c13diakha78,Svia5127,2020-0188,2021-10-31,00:29:18,01:52:19,NA,incomplete,true,true,NA,NA,0,12,NA,gray,n_s_113.jpg,NA,NA,NA,NA,NA,pleasant,unpleasant,NA,NA,NA,NA,NA,left,1833.69999999553,true,NA,NA,NA,NA,NA,NA,NA,NA
Svia5127,3z33ic0jd3zsmh7cb6nqm2m9m84v9l,3uxuoq9okia63uefcg3c13diakha78,Svia5127,2020-0188,2021-10-31,00:29:18,01:52:19,NA,incomplete,true,true,NA,NA,0,13,NA,gray,n_s_066.jpg,NA,NA,NA,NA,NA,unpleasant,pleasant,NA,NA,NA,NA,NA,left,1563.40000000596,true,NA,NA,NA,NA,NA,NA,NA,NA
Svia5127,3z33ic0jd3zsmh7cb6nqm2m9m84v9l,3uxuoq9okia63uefcg3c13diakha78,Svia5127,2020-0188,2021-10-31,00:29:18,01:52:19,NA,incomplete,true,true,NA,NA,0,14,NA,gray,m_l_005.jpg,NA,NA,NA,NA,NA,pleasant,unpleasant,NA,NA,NA,NA,NA,left,1661.79999999702,true,NA,NA,NA,NA,NA,NA,NA,NA
Svia5127,3z33ic0jd3zsmh7cb6nqm2m9m84v9l,3uxuoq9okia63uefcg3c13diakha78,Svia5127,2020-0188,2021-10-31,00:29:18,01:52:19,NA,incomplete,true,true,NA,NA,0,15,NA,gray,n_l_031.jpg,NA,NA,NA,NA,NA,unpleasant,pleasant,NA,NA,NA,NA,NA,left,3101.90000000596,true,NA,NA,NA,NA,NA,NA,NA,NA
Svia5127,3z33ic0jd3zsmh7cb6nqm2m9m84v9l,3uxuoq9okia63uefcg3c13diakha78,Svia5127,2020-0188,2021-10-31,00:29:18,01:52:19,NA,incomplete,true,true,NA,NA,0,16,NA,gray,m_l_027.jpg,NA,NA,NA,NA,NA,pleasant,unpleasant,NA,NA,NA,NA,NA,left,1703.5,true,NA,NA,NA,NA,NA,NA,NA,NA
Svia5127,3z33ic0jd3zsmh7cb6nqm2m9m84v9l,3uxuoq9okia63uefcg3c13diakha78,Svia5127,2020-0188,2021-10-31,00:29:18,01:52:19,NA,incomplete,true,true,NA,NA,0,17,NA,gray,n_s_057.jpg,NA,NA,NA,NA,NA,unpleasant,pleasant,NA,NA,NA,NA,NA,left,2206,true,NA,NA,NA,NA,NA,NA,NA,NA
Svia5127,3z33ic0jd3zsmh7cb6nqm2m9m84v9l,3uxuoq9okia63uefcg3c13diakha78,Svia5127,2020-0188,2021-10-31,00:29:18,01:52:19,NA,incomplete,true,true,NA,NA,0,18,NA,blue,n_s_083.jpg,NA,NA,NA,NA,NA,pleasant,unpleasant,NA,NA,NA,NA,NA,left,2518.60000000149,true,NA,NA,NA,NA,NA,NA,NA,NA
Svia5127,3z33ic0jd3zsmh7cb6nqm2m9m84v9l,3uxuoq9okia63uefcg3c13diakha78,Svia5127,2020-0188,2021-10-31,00:29:18,01:52:19,NA,incomplete,true,true,NA,NA,0,19,NA,blue,n_s_043.jpg,NA,NA,NA,NA,NA,pleasant,unpleasant,NA,NA,NA,NA,NA,left,2934.09999999404,true,NA,NA,NA,NA,NA,NA,NA,NA
Svia5127,3z33ic0jd3zsmh7cb6nqm2m9m84v9l,3uxuoq9okia63uefcg3c13diakha78,Svia5127,2020-0188,2021-10-31,00:29:18,01:52:19,NA,incomplete,true,true,NA,NA,0,20,NA,blue,n_s_040.jpg,NA,NA,NA,NA,NA,unpleasant,pleasant,NA,NA,NA,NA,NA,left,1744.19999999553,true,NA,NA,NA,NA,NA,NA,NA,NA
Svia5127,3z33ic0jd3zsmh7cb6nqm2m9m84v9l,3uxuoq9okia63uefcg3c13diakha78,Svia5127,2020-0188,2021-10-31,00:29:18,01:52:19,NA,incomplete,true,true,NA,NA,0,21,NA,blue,m_s_092.jpg,NA,NA,NA,NA,NA,pleasant,unpleasant,NA,NA,NA,NA,NA,left,1733.79999999702,true,NA,NA,NA,NA,NA,NA,NA,NA
Svia5127,3z33ic0jd3zsmh7cb6nqm2m9m84v9l,3uxuoq9okia63uefcg3c13diakha78,Svia5127,2020-0188,2021-10-31,00:29:18,01:52:19,NA,incomplete,true,true,NA,NA,0,22,NA,blue,m_l_082.jpg,NA,NA,NA,NA,NA,pleasant,unpleasant,NA,NA,NA,NA,NA,right,1582.90000000596,true,NA,NA,NA,NA,NA,NA,NA,NA
Svia5127,3z33ic0jd3zsmh7cb6nqm2m9m84v9l,3uxuoq9okia63uefcg3c13diakha78,Svia5127,2020-0188,2021-10-31,00:29:18,01:52:19,NA,incomplete,true,true,NA,NA,0,23,NA,blue,m_s_112.jpg,NA,NA,NA,NA,NA,pleasant,unpleasant,NA,NA,NA,NA,NA,left,1912.39999999851,true,NA,NA,NA,NA,NA,NA,NA,NA
Svia5127,3z33ic0jd3zsmh7cb6nqm2m9m84v9l,3uxuoq9okia63uefcg3c13diakha78,Svia5127,2020-0188,2021-10-31,00:29:18,01:52:19,NA,incomplete,true,true,NA,NA,0,24,NA,red,m_l_042.jpg,NA,NA,NA,NA,NA,pleasant,unpleasant,NA,NA,NA,NA,NA,left,1518.89999999851,true,NA,NA,NA,NA,NA,NA,NA,NA
Svia5127,3z33ic0jd3zsmh7cb6nqm2m9m84v9l,3uxuoq9okia63uefcg3c13diakha78,Svia5127,2020-0188,2021-10-31,00:29:18,01:52:19,NA,incomplete,true,true,NA,NA,0,25,NA,red,m_l_083.jpg,NA,NA,NA,NA,NA,unpleasant,pleasant,NA,NA,NA,NA,NA,right,2272.29999999702,true,NA,NA,NA,NA,NA,NA,NA,NA
Svia5127,3z33ic0jd3zsmh7cb6nqm2m9m84v9l,3uxuoq9okia63uefcg3c13diakha78,Svia5127,2020-0188,2021-10-31,00:29:18,01:52:19,NA,incomplete,true,true,NA,NA,0,26,NA,red,m_l_060.jpg,NA,NA,NA,NA,NA,unpleasant,pleasant,NA,NA,NA,NA,NA,right,1321.79999999702,true,NA,NA,NA,NA,NA,NA,NA,NA
Svia5127,3z33ic0jd3zsmh7cb6nqm2m9m84v9l,3uxuoq9okia63uefcg3c13diakha78,Svia5127,2020-0188,2021-10-31,00:29:18,01:52:19,NA,incomplete,true,true,NA,NA,0,27,NA,red,n_s_051.jpg,NA,NA,NA,NA,NA,unpleasant,pleasant,NA,NA,NA,NA,NA,left,1362,true,NA,NA,NA,NA,NA,NA,NA,NA
Svia5127,3z33ic0jd3zsmh7cb6nqm2m9m84v9l,3uxuoq9okia63uefcg3c13diakha78,Svia5127,2020-0188,2021-10-31,00:29:18,01:52:19,NA,incomplete,true,true,NA,NA,0,28,NA,red,m_s_070.jpg,NA,NA,NA,NA,NA,unpleasant,pleasant,NA,NA,NA,NA,NA,right,2162.29999999702,true,NA,NA,NA,NA,NA,NA,NA,NA
Svia5127,3z33ic0jd3zsmh7cb6nqm2m9m84v9l,3uxuoq9okia63uefcg3c13diakha78,Svia5127,2020-0188,2021-10-31,00:29:18,01:52:19,NA,incomplete,true,true,NA,NA,0,29,NA,red,n_l_029.jpg,NA,NA,NA,NA,NA,unpleasant,pleasant,NA,NA,NA,NA,NA,left,1706.20000000298,true,NA,NA,NA,NA,NA,NA,NA,NA
Svia5127,3z33ic0jd3zsmh7cb6nqm2m9m84v9l,3uxuoq9okia63uefcg3c13diakha78,Svia5127,2020-0188,2021-10-31,00:29:18,01:52:19,NA,incomplete,true,true,NA,NA,0,30,NA,green,n_s_097.jpg,NA,NA,NA,NA,NA,pleasant,unpleasant,NA,NA,NA,NA,NA,left,1713.79999999702,true,NA,NA,NA,NA,NA,NA,NA,NA
Svia5127,3z33ic0jd3zsmh7cb6nqm2m9m84v9l,3uxuoq9okia63uefcg3c13diakha78,Svia5127,2020-0188,2021-10-31,00:29:18,01:52:19,NA,incomplete,true,true,NA,NA,0,31,NA,green,m_s_027.jpg,NA,NA,NA,NA,NA,unpleasant,pleasant,NA,NA,NA,NA,NA,left,2195.5,true,NA,NA,NA,NA,NA,NA,NA,NA
Svia5127,3z33ic0jd3zsmh7cb6nqm2m9m84v9l,3uxuoq9okia63uefcg3c13diakha78,Svia5127,2020-0188,2021-10-31,00:29:18,01:52:19,NA,incomplete,true,true,NA,NA,0,32,NA,green,n_s_019.jpg,NA,NA,NA,NA,NA,unpleasant,pleasant,NA,NA,NA,NA,NA,right,2681.79999999702,true,NA,NA,NA,NA,NA,NA,NA,NA
Svia5127,3z33ic0jd3zsmh7cb6nqm2m9m84v9l,3uxuoq9okia63uefcg3c13diakha78,Svia5127,2020-0188,2021-10-31,00:29:18,01:52:19,NA,incomplete,true,true,NA,NA,0,33,NA,green,n_s_030.jpg,NA,NA,NA,NA,NA,unpleasant,pleasant,NA,NA,NA,NA,NA,right,2514.79999999702,true,NA,NA,NA,NA,NA,NA,NA,NA
Svia5127,3z33ic0jd3zsmh7cb6nqm2m9m84v9l,3uxuoq9okia63uefcg3c13diakha78,Svia5127,2020-0188,2021-10-31,00:29:18,01:52:19,NA,incomplete,true,true,NA,NA,0,34,NA,green,n_s_016.jpg,NA,NA,NA,NA,NA,pleasant,unpleasant,NA,NA,NA,NA,NA,right,1784.5,true,NA,NA,NA,NA,NA,NA,NA,NA
Svia5127,3z33ic0jd3zsmh7cb6nqm2m9m84v9l,3uxuoq9okia63uefcg3c13diakha78,Svia5127,2020-0188,2021-10-31,00:29:18,01:52:19,NA,incomplete,true,true,NA,NA,0,35,NA,green,m_l_092.jpg,NA,NA,NA,NA,NA,pleasant,unpleasant,NA,NA,NA,NA,NA,right,2147.70000000298,true,NA,NA,NA,NA,NA,NA,NA,NA
Svia5127,3z33ic0jd3zsmh7cb6nqm2m9m84v9l,3uxuoq9okia63uefcg3c13diakha78,Svia5127,2020-0188,2021-10-31,00:29:18,01:52:19,NA,incomplete,true,NA,NA,true,0,0,NA,NA,NA,right,m_l_003.jpg,gray,orange,NA,NA,NA,NA,NA,NA,NA,NA,NA,NaN,NA,4303.5,right,1,NA,NA,NA,NA,NA
Svia5127,3z33ic0jd3zsmh7cb6nqm2m9m84v9l,3uxuoq9okia63uefcg3c13diakha78,Svia5127,2020-0188,2021-10-31,00:29:18,01:52:19,NA,incomplete,true,NA,NA,true,0,1,NA,NA,NA,right,m_l_005.jpg,orange,gray,NA,NA,NA,NA,NA,NA,NA,NA,NA,NaN,NA,1919.5,right,1,NA,NA,NA,NA,NA
Svia5127,3z33ic0jd3zsmh7cb6nqm2m9m84v9l,3uxuoq9okia63uefcg3c13diakha78,Svia5127,2020-0188,2021-10-31,00:29:18,01:52:19,NA,incomplete,true,NA,NA,true,0,2,NA,NA,NA,right,n_s_040.jpg,red,blue,NA,NA,NA,NA,NA,NA,NA,NA,NA,NaN,NA,1671.5,right,1,NA,NA,NA,NA,NA
Svia5127,3z33ic0jd3zsmh7cb6nqm2m9m84v9l,3uxuoq9okia63uefcg3c13diakha78,Svia5127,2020-0188,2021-10-31,00:29:18,01:52:19,NA,incomplete,true,NA,NA,true,0,3,NA,NA,NA,right,m_l_092.jpg,red,green,NA,NA,NA,NA,NA,NA,NA,NA,NA,NaN,NA,1679.5999999940395,right,1,NA,NA,NA,NA,NA
Svia5127,3z33ic0jd3zsmh7cb6nqm2m9m84v9l,3uxuoq9okia63uefcg3c13diakha78,Svia5127,2020-0188,2021-10-31,00:29:18,01:52:19,NA,incomplete,true,NA,NA,true,0,4,NA,NA,NA,right,n_s_019.jpg,red,green,NA,NA,NA,NA,NA,NA,NA,NA,NA,NaN,NA,1496,right,1,NA,NA,NA,NA,NA
Svia5127,3z33ic0jd3zsmh7cb6nqm2m9m84v9l,3uxuoq9okia63uefcg3c13diakha78,Svia5127,2020-0188,2021-10-31,00:29:18,01:52:19,NA,incomplete,true,NA,NA,true,0,5,NA,NA,NA,left,m_l_083.jpg,red,blue,NA,NA,NA,NA,NA,NA,NA,NA,NA,NaN,NA,2519.6999999955297,right,0,NA,NA,NA,NA,NA
Svia5127,3z33ic0jd3zsmh7cb6nqm2m9m84v9l,3uxuoq9okia63uefcg3c13diakha78,Svia5127,2020-0188,2021-10-31,00:29:18,01:52:19,NA,incomplete,true,NA,NA,true,0,6,NA,NA,NA,left,n_s_043.jpg,blue,gray,NA,NA,NA,NA,NA,NA,NA,NA,NA,NaN,NA,4183.60000000149,right,0,NA,NA,NA,NA,NA
Svia5127,3z33ic0jd3zsmh7cb6nqm2m9m84v9l,3uxuoq9okia63uefcg3c13diakha78,Svia5127,2020-0188,2021-10-31,00:29:18,01:52:19,NA,incomplete,true,NA,NA,true,0,7,NA,NA,NA,left,n_s_057.jpg,gray,orange,NA,NA,NA,NA,NA,NA,NA,NA,NA,NaN,NA,2759.3000000044703,left,1,NA,NA,NA,NA,NA
Svia5127,3z33ic0jd3zsmh7cb6nqm2m9m84v9l,3uxuoq9okia63uefcg3c13diakha78,Svia5127,2020-0188,2021-10-31,00:29:18,01:52:19,NA,incomplete,true,NA,NA,true,0,8,NA,NA,NA,right,m_s_068.jpg,orange,yellow,NA,NA,NA,NA,NA,NA,NA,NA,NA,NaN,NA,1855,right,1,NA,NA,NA,NA,NA
Svia5127,3z33ic0jd3zsmh7cb6nqm2m9m84v9l,3uxuoq9okia63uefcg3c13diakha78,Svia5127,2020-0188,2021-10-31,00:29:18,01:52:19,NA,incomplete,true,NA,NA,true,0,9,NA,NA,NA,right,m_s_104.jpg,orange,yellow,NA,NA,NA,NA,NA,NA,NA,NA,NA,NaN,NA,1535.8999999985099,right,1,NA,NA,NA,NA,NA
Svia5127,3z33ic0jd3zsmh7cb6nqm2m9m84v9l,3uxuoq9okia63uefcg3c13diakha78,Svia5127,2020-0188,2021-10-31,00:29:18,01:52:19,NA,incomplete,true,NA,NA,true,0,10,NA,NA,NA,right,m_s_042.jpg,yellow,orange,NA,NA,NA,NA,NA,NA,NA,NA,NA,NaN,NA,2071,right,1,NA,NA,NA,NA,NA
Svia5127,3z33ic0jd3zsmh7cb6nqm2m9m84v9l,3uxuoq9okia63uefcg3c13diakha78,Svia5127,2020-0188,2021-10-31,00:29:18,01:52:19,NA,incomplete,true,NA,NA,true,0,11,NA,NA,NA,left,m_l_027.jpg,gray,orange,NA,NA,NA,NA,NA,NA,NA,NA,NA,NaN,NA,1863.6000000014901,left,1,NA,NA,NA,NA,NA
Svia5127,3z33ic0jd3zsmh7cb6nqm2m9m84v9l,3uxuoq9okia63uefcg3c13diakha78,Svia5127,2020-0188,2021-10-31,00:29:18,01:52:19,NA,incomplete,true,NA,NA,true,0,12,NA,NA,NA,right,n_s_066.jpg,blue,gray,NA,NA,NA,NA,NA,NA,NA,NA,NA,NaN,NA,1662.6999999955297,right,1,NA,NA,NA,NA,NA
Svia5127,3z33ic0jd3zsmh7cb6nqm2m9m84v9l,3uxuoq9okia63uefcg3c13diakha78,Svia5127,2020-0188,2021-10-31,00:29:18,01:52:19,NA,incomplete,true,NA,NA,true,0,13,NA,NA,NA,right,m_s_027.jpg,red,green,NA,NA,NA,NA,NA,NA,NA,NA,NA,NaN,NA,7431.80000000447,right,1,NA,NA,NA,NA,NA
Svia5127,3z33ic0jd3zsmh7cb6nqm2m9m84v9l,3uxuoq9okia63uefcg3c13diakha78,Svia5127,2020-0188,2021-10-31,00:29:18,01:52:19,NA,incomplete,true,NA,NA,true,0,14,NA,NA,NA,right,m_s_070.jpg,green,red,NA,NA,NA,NA,NA,NA,NA,NA,NA,NaN,NA,1799.2000000029802,right,1,NA,NA,NA,NA,NA
Svia5127,3z33ic0jd3zsmh7cb6nqm2m9m84v9l,3uxuoq9okia63uefcg3c13diakha78,Svia5127,2020-0188,2021-10-31,00:29:18,01:52:19,NA,incomplete,true,NA,NA,true,0,15,NA,NA,NA,left,m_s_112.jpg,blue,gray,NA,NA,NA,NA,NA,NA,NA,NA,NA,NaN,NA,4279.10000000149,left,1,NA,NA,NA,NA,NA
Svia5127,3z33ic0jd3zsmh7cb6nqm2m9m84v9l,3uxuoq9okia63uefcg3c13diakha78,Svia5127,2020-0188,2021-10-31,00:29:18,01:52:19,NA,incomplete,true,NA,NA,true,0,16,NA,NA,NA,right,n_s_074.jpg,gray,orange,NA,NA,NA,NA,NA,NA,NA,NA,NA,NaN,NA,2775.5999999940395,left,0,NA,NA,NA,NA,NA
Svia5127,3z33ic0jd3zsmh7cb6nqm2m9m84v9l,3uxuoq9okia63uefcg3c13diakha78,Svia5127,2020-0188,2021-10-31,00:29:18,01:52:19,NA,incomplete,true,NA,NA,true,0,17,NA,NA,NA,right,m_l_082.jpg,red,blue,NA,NA,NA,NA,NA,NA,NA,NA,NA,NaN,NA,1392.0999999940395,right,1,NA,NA,NA,NA,NA
Svia5127,3z33ic0jd3zsmh7cb6nqm2m9m84v9l,3uxuoq9okia63uefcg3c13diakha78,Svia5127,2020-0188,2021-10-31,00:29:18,01:52:19,NA,incomplete,true,NA,NA,true,0,18,NA,NA,NA,left,n_s_025.jpg,yellow,orange,NA,NA,NA,NA,NA,NA,NA,NA,NA,NaN,NA,3887.1999999955297,right,0,NA,NA,NA,NA,NA
Svia5127,3z33ic0jd3zsmh7cb6nqm2m9m84v9l,3uxuoq9okia63uefcg3c13diakha78,Svia5127,2020-0188,2021-10-31,00:29:18,01:52:19,NA,incomplete,true,NA,NA,true,0,19,NA,NA,NA,right,n_l_029.jpg,green,red,NA,NA,NA,NA,NA,NA,NA,NA,NA,NaN,NA,3359.2999999970198,right,1,NA,NA,NA,NA,NA
Svia5127,3z33ic0jd3zsmh7cb6nqm2m9m84v9l,3uxuoq9okia63uefcg3c13diakha78,Svia5127,2020-0188,2021-10-31,00:29:18,01:52:19,NA,incomplete,true,NA,NA,true,0,20,NA,NA,NA,left,m_l_060.jpg,red,blue,NA,NA,NA,NA,NA,NA,NA,NA,NA,NaN,NA,2151.39999999851,left,1,NA,NA,NA,NA,NA
Svia5127,3z33ic0jd3zsmh7cb6nqm2m9m84v9l,3uxuoq9okia63uefcg3c13diakha78,Svia5127,2020-0188,2021-10-31,00:29:18,01:52:19,NA,incomplete,true,NA,NA,true,0,21,NA,NA,NA,left,m_l_038.jpg,orange,yellow,NA,NA,NA,NA,NA,NA,NA,NA,NA,NaN,NA,4167.19999999553,left,1,NA,NA,NA,NA,NA
Svia5127,3z33ic0jd3zsmh7cb6nqm2m9m84v9l,3uxuoq9okia63uefcg3c13diakha78,Svia5127,2020-0188,2021-10-31,00:29:18,01:52:19,NA,incomplete,true,NA,true,NA,0,0,NA,NA,NA,left,NA,NA,NA,present,NA,NA,m_l_083.jpg,red,n_l_029.jpg,red,within,NA,NaN,NA,NA,NA,NA,left,5687.29999999702,1,1,3735.39999999851
Svia5127,3z33ic0jd3zsmh7cb6nqm2m9m84v9l,3uxuoq9okia63uefcg3c13diakha78,Svia5127,2020-0188,2021-10-31,00:29:18,01:52:19,NA,incomplete,true,NA,true,NA,0,1,NA,NA,NA,left,NA,NA,NA,present,NA,NA,m_l_038.jpg,orange,m_l_005.jpg,gray,between,NA,NaN,NA,NA,NA,NA,left,6359.70000000298,1,2,2807.10000000149
Svia5127,3z33ic0jd3zsmh7cb6nqm2m9m84v9l,3uxuoq9okia63uefcg3c13diakha78,Svia5127,2020-0188,2021-10-31,00:29:18,01:52:19,NA,incomplete,true,NA,true,NA,0,2,NA,NA,NA,right,NA,NA,NA,present,NA,NA,n_s_040.jpg,blue,m_l_027.jpg,gray,between,NA,NaN,NA,NA,NA,NA,right,3694.89999999851,1,2,1975.8000000044703
Svia5127,3z33ic0jd3zsmh7cb6nqm2m9m84v9l,3uxuoq9okia63uefcg3c13diakha78,Svia5127,2020-0188,2021-10-31,00:29:18,01:52:19,NA,incomplete,true,NA,true,NA,0,3,NA,NA,NA,left,NA,NA,NA,present,NA,NA,m_s_068.jpg,yellow,m_s_042.jpg,orange,between,NA,NaN,NA,NA,NA,NA,left,4982.89999999851,1,3,4895.10000000149
Svia5127,3z33ic0jd3zsmh7cb6nqm2m9m84v9l,3uxuoq9okia63uefcg3c13diakha78,Svia5127,2020-0188,2021-10-31,00:29:18,01:52:19,NA,incomplete,true,NA,true,NA,0,4,NA,NA,NA,right,NA,NA,NA,present,NA,NA,m_s_112.jpg,blue,n_s_043.jpg,blue,within,NA,NaN,NA,NA,NA,NA,right,3479.3000000044703,1,0,2255.5
Svia5127,3z33ic0jd3zsmh7cb6nqm2m9m84v9l,3uxuoq9okia63uefcg3c13diakha78,Svia5127,2020-0188,2021-10-31,00:29:18,01:52:19,NA,incomplete,true,NA,true,NA,0,5,NA,NA,NA,right,NA,NA,NA,present,NA,NA,n_s_057.jpg,gray,n_s_066.jpg,gray,within,NA,NaN,NA,NA,NA,NA,right,4286.79999999702,1,0,4207.70000000298
Svia5127,3z33ic0jd3zsmh7cb6nqm2m9m84v9l,3uxuoq9okia63uefcg3c13diakha78,Svia5127,2020-0188,2021-10-31,00:29:18,01:52:19,NA,incomplete,true,NA,true,NA,0,6,NA,NA,NA,left,NA,NA,NA,present,NA,NA,m_s_070.jpg,red,n_s_019.jpg,green,between,NA,NaN,NA,NA,NA,NA,right,6247.10000000149,0,2,1503
Svia5127,3z33ic0jd3zsmh7cb6nqm2m9m84v9l,3uxuoq9okia63uefcg3c13diakha78,Svia5127,2020-0188,2021-10-31,00:29:18,01:52:19,NA,incomplete,true,NA,true,NA,0,7,NA,NA,NA,right,NA,NA,NA,present,NA,NA,m_l_092.jpg,green,m_s_027.jpg,green,within,NA,NaN,NA,NA,NA,NA,left,8599.29999999702,0,0,1671.2000000029802
Svia5127,3z33ic0jd3zsmh7cb6nqm2m9m84v9l,3uxuoq9okia63uefcg3c13diakha78,Svia5127,2020-0188,2021-10-31,00:29:18,01:52:19,NA,incomplete,true,NA,true,NA,0,8,NA,NA,NA,left,NA,NA,NA,present,NA,NA,m_s_104.jpg,yellow,n_s_025.jpg,yellow,within,NA,NaN,NA,NA,NA,NA,left,2327.7999999970198,1,0,1183.3000000044703
Svia5127,3z33ic0jd3zsmh7cb6nqm2m9m84v9l,3uxuoq9okia63uefcg3c13diakha78,Svia5127,2020-0188,2021-10-31,00:29:18,01:52:19,NA,incomplete,true,NA,true,NA,0,9,NA,NA,NA,left,NA,NA,NA,present,NA,NA,m_l_082.jpg,blue,m_l_060.jpg,red,between,NA,NaN,NA,NA,NA,NA,right,8327.5,0,2,3582.89999999851
Svia5127,3z33ic0jd3zsmh7cb6nqm2m9m84v9l,3uxuoq9okia63uefcg3c13diakha78,Svia5127,2020-0188,2021-10-31,00:29:18,01:52:19,NA,incomplete,true,NA,true,NA,0,10,NA,NA,NA,right,NA,NA,NA,present,NA,NA,n_s_074.jpg,orange,m_l_003.jpg,orange,within,NA,NaN,NA,NA,NA,NA,left,9759.89999999851,0,0,1454.8999999985099
Svia5127,3z33ic0jd3zsmh7cb6nqm2m9m84v9l,3uxuoq9okia63uefcg3c13diakha78,Svia5127,2020-0188,2021-10-31,00:29:18,01:52:19,NA,incomplete,false,true,NA,NA,1,0,NA,black,n_s_104.jpg,NA,NA,NA,NA,NA,pleasant,unpleasant,NA,NA,NA,NA,NA,right,1359.39999999851,true,NA,NA,NA,NA,NA,NA,NA,NA
Svia5127,3z33ic0jd3zsmh7cb6nqm2m9m84v9l,3uxuoq9okia63uefcg3c13diakha78,Svia5127,2020-0188,2021-10-31,00:29:18,01:52:19,NA,incomplete,false,true,NA,NA,1,1,NA,black,n_s_032.jpg,NA,NA,NA,NA,NA,pleasant,unpleasant,NA,NA,NA,NA,NA,right,1616.39999999851,true,NA,NA,NA,NA,NA,NA,NA,NA
Svia5127,3z33ic0jd3zsmh7cb6nqm2m9m84v9l,3uxuoq9okia63uefcg3c13diakha78,Svia5127,2020-0188,2021-10-31,00:29:18,01:52:19,NA,incomplete,false,true,NA,NA,1,2,NA,black,n_l_026.jpg,NA,NA,NA,NA,NA,pleasant,unpleasant,NA,NA,NA,NA,NA,right,565.10000000149,true,NA,NA,NA,NA,NA,NA,NA,NA
Svia5127,3z33ic0jd3zsmh7cb6nqm2m9m84v9l,3uxuoq9okia63uefcg3c13diakha78,Svia5127,2020-0188,2021-10-31,00:29:18,01:52:19,NA,incomplete,false,true,NA,NA,1,3,NA,black,n_s_007.jpg,NA,NA,NA,NA,NA,pleasant,unpleasant,NA,NA,NA,NA,NA,right,1164.10000000149,true,NA,NA,NA,NA,NA,NA,NA,NA
Svia5127,3z33ic0jd3zsmh7cb6nqm2m9m84v9l,3uxuoq9okia63uefcg3c13diakha78,Svia5127,2020-0188,2021-10-31,00:29:18,01:52:19,NA,incomplete,false,true,NA,NA,1,4,NA,black,n_l_072.jpg,NA,NA,NA,NA,NA,pleasant,unpleasant,NA,NA,NA,NA,NA,right,1356.19999999553,true,NA,NA,NA,NA,NA,NA,NA,NA
Svia5127,3z33ic0jd3zsmh7cb6nqm2m9m84v9l,3uxuoq9okia63uefcg3c13diakha78,Svia5127,2020-0188,2021-10-31,00:29:18,01:52:19,NA,incomplete,false,true,NA,NA,1,5,NA,black,n_l_008.jpg,NA,NA,NA,NA,NA,pleasant,unpleasant,NA,NA,NA,NA,NA,left,1689.89999999851,true,NA,NA,NA,NA,NA,NA,NA,NA
Svia5127,3z33ic0jd3zsmh7cb6nqm2m9m84v9l,3uxuoq9okia63uefcg3c13diakha78,Svia5127,2020-0188,2021-10-31,00:29:18,01:52:19,NA,incomplete,false,true,NA,NA,1,6,NA,yellow,m_s_085.jpg,NA,NA,NA,NA,NA,pleasant,unpleasant,NA,NA,NA,NA,NA,right,1709.5,true,NA,NA,NA,NA,NA,NA,NA,NA
Svia5127,3z33ic0jd3zsmh7cb6nqm2m9m84v9l,3uxuoq9okia63uefcg3c13diakha78,Svia5127,2020-0188,2021-10-31,00:29:18,01:52:19,NA,incomplete,false,true,NA,NA,1,7,NA,yellow,m_l_055.jpg,NA,NA,NA,NA,NA,pleasant,unpleasant,NA,NA,NA,NA,NA,right,1420.5,true,NA,NA,NA,NA,NA,NA,NA,NA
Svia5127,3z33ic0jd3zsmh7cb6nqm2m9m84v9l,3uxuoq9okia63uefcg3c13diakha78,Svia5127,2020-0188,2021-10-31,00:29:18,01:52:19,NA,incomplete,false,true,NA,NA,1,8,NA,yellow,n_s_022.jpg,NA,NA,NA,NA,NA,unpleasant,pleasant,NA,NA,NA,NA,NA,left,2692.20000000298,true,NA,NA,NA,NA,NA,NA,NA,NA
Svia5127,3z33ic0jd3zsmh7cb6nqm2m9m84v9l,3uxuoq9okia63uefcg3c13diakha78,Svia5127,2020-0188,2021-10-31,00:29:18,01:52:19,NA,incomplete,false,true,NA,NA,1,9,NA,yellow,m_s_096.jpg,NA,NA,NA,NA,NA,unpleasant,pleasant,NA,NA,NA,NA,NA,left,1358.70000000298,true,NA,NA,NA,NA,NA,NA,NA,NA
Svia5127,3z33ic0jd3zsmh7cb6nqm2m9m84v9l,3uxuoq9okia63uefcg3c13diakha78,Svia5127,2020-0188,2021-10-31,00:29:18,01:52:19,NA,incomplete,false,true,NA,NA,1,10,NA,yellow,n_l_039.jpg,NA,NA,NA,NA,NA,pleasant,unpleasant,NA,NA,NA,NA,NA,left,1672.20000000298,true,NA,NA,NA,NA,NA,NA,NA,NA
Svia5127,3z33ic0jd3zsmh7cb6nqm2m9m84v9l,3uxuoq9okia63uefcg3c13diakha78,Svia5127,2020-0188,2021-10-31,00:29:18,01:52:19,NA,incomplete,false,true,NA,NA,1,11,NA,yellow,n_s_059.jpg,NA,NA,NA,NA,NA,pleasant,unpleasant,NA,NA,NA,NA,NA,right,2223.79999999702,true,NA,NA,NA,NA,NA,NA,NA,NA
Svia5127,3z33ic0jd3zsmh7cb6nqm2m9m84v9l,3uxuoq9okia63uefcg3c13diakha78,Svia5127,2020-0188,2021-10-31,00:29:18,01:52:19,NA,incomplete,false,true,NA,NA,1,12,NA,orange,n_l_082.jpg,NA,NA,NA,NA,NA,unpleasant,pleasant,NA,NA,NA,NA,NA,right,1704.80000000447,true,NA,NA,NA,NA,NA,NA,NA,NA
Svia5127,3z33ic0jd3zsmh7cb6nqm2m9m84v9l,3uxuoq9okia63uefcg3c13diakha78,Svia5127,2020-0188,2021-10-31,00:29:18,01:52:19,NA,incomplete,false,true,NA,NA,1,13,NA,orange,m_l_014.jpg,NA,NA,NA,NA,NA,unpleasant,pleasant,NA,NA,NA,NA,NA,left,2409.79999999702,true,NA,NA,NA,NA,NA,NA,NA,NA
Svia5127,3z33ic0jd3zsmh7cb6nqm2m9m84v9l,3uxuoq9okia63uefcg3c13diakha78,Svia5127,2020-0188,2021-10-31,00:29:18,01:52:19,NA,incomplete,false,true,NA,NA,1,14,NA,orange,n_s_072.jpg,NA,NA,NA,NA,NA,unpleasant,pleasant,NA,NA,NA,NA,NA,right,1972.60000000149,true,NA,NA,NA,NA,NA,NA,NA,NA
Svia5127,3z33ic0jd3zsmh7cb6nqm2m9m84v9l,3uxuoq9okia63uefcg3c13diakha78,Svia5127,2020-0188,2021-10-31,00:29:18,01:52:19,NA,incomplete,false,true,NA,NA,1,15,NA,orange,m_l_103.jpg,NA,NA,NA,NA,NA,unpleasant,pleasant,NA,NA,NA,NA,NA,right,1583.69999999553,true,NA,NA,NA,NA,NA,NA,NA,NA
Svia5127,3z33ic0jd3zsmh7cb6nqm2m9m84v9l,3uxuoq9okia63uefcg3c13diakha78,Svia5127,2020-0188,2021-10-31,00:29:18,01:52:19,NA,incomplete,false,true,NA,NA,1,16,NA,orange,m_s_072.jpg,NA,NA,NA,NA,NA,unpleasant,pleasant,NA,NA,NA,NA,NA,right,2230.89999999851,true,NA,NA,NA,NA,NA,NA,NA,NA
Svia5127,3z33ic0jd3zsmh7cb6nqm2m9m84v9l,3uxuoq9okia63uefcg3c13diakha78,Svia5127,2020-0188,2021-10-31,00:29:18,01:52:19,NA,incomplete,false,true,NA,NA,1,17,NA,orange,m_s_101.jpg,NA,NA,NA,NA,NA,pleasant,unpleasant,NA,NA,NA,NA,NA,right,2062.29999999702,true,NA,NA,NA,NA,NA,NA,NA,NA
Svia5127,3z33ic0jd3zsmh7cb6nqm2m9m84v9l,3uxuoq9okia63uefcg3c13diakha78,Svia5127,2020-0188,2021-10-31,00:29:18,01:52:19,NA,incomplete,false,true,NA,NA,1,18,NA,white,n_l_064.jpg,NA,NA,NA,NA,NA,unpleasant,pleasant,NA,NA,NA,NA,NA,right,1774.30000000447,true,NA,NA,NA,NA,NA,NA,NA,NA
Svia5127,3z33ic0jd3zsmh7cb6nqm2m9m84v9l,3uxuoq9okia63uefcg3c13diakha78,Svia5127,2020-0188,2021-10-31,00:29:18,01:52:19,NA,incomplete,false,true,NA,NA,1,19,NA,white,n_s_092.jpg,NA,NA,NA,NA,NA,unpleasant,pleasant,NA,NA,NA,NA,NA,left,1143.70000000298,true,NA,NA,NA,NA,NA,NA,NA,NA
Svia5127,3z33ic0jd3zsmh7cb6nqm2m9m84v9l,3uxuoq9okia63uefcg3c13diakha78,Svia5127,2020-0188,2021-10-31,00:29:18,01:52:19,NA,incomplete,false,true,NA,NA,1,20,NA,white,m_l_017.jpg,NA,NA,NA,NA,NA,pleasant,unpleasant,NA,NA,NA,NA,NA,left,1703.89999999851,true,NA,NA,NA,NA,NA,NA,NA,NA
Svia5127,3z33ic0jd3zsmh7cb6nqm2m9m84v9l,3uxuoq9okia63uefcg3c13diakha78,Svia5127,2020-0188,2021-10-31,00:29:18,01:52:19,NA,incomplete,false,true,NA,NA,1,21,NA,white,m_s_093.jpg,NA,NA,NA,NA,NA,pleasant,unpleasant,NA,NA,NA,NA,NA,left,1604.29999999702,true,NA,NA,NA,NA,NA,NA,NA,NA
Svia5127,3z33ic0jd3zsmh7cb6nqm2m9m84v9l,3uxuoq9okia63uefcg3c13diakha78,Svia5127,2020-0188,2021-10-31,00:29:18,01:52:19,NA,incomplete,false,true,NA,NA,1,22,NA,white,m_s_034.jpg,NA,NA,NA,NA,NA,pleasant,unpleasant,NA,NA,NA,NA,NA,left,2069.30000000447,true,NA,NA,NA,NA,NA,NA,NA,NA
Svia5127,3z33ic0jd3zsmh7cb6nqm2m9m84v9l,3uxuoq9okia63uefcg3c13diakha78,Svia5127,2020-0188,2021-10-31,00:29:18,01:52:19,NA,incomplete,false,true,NA,NA,1,23,NA,white,n_l_012.jpg,NA,NA,NA,NA,NA,pleasant,unpleasant,NA,NA,NA,NA,NA,left,1747.89999999851,true,NA,NA,NA,NA,NA,NA,NA,NA
Svia5127,3z33ic0jd3zsmh7cb6nqm2m9m84v9l,3uxuoq9okia63uefcg3c13diakha78,Svia5127,2020-0188,2021-10-31,00:29:18,01:52:19,NA,incomplete,false,true,NA,NA,1,24,NA,brown,m_l_013.jpg,NA,NA,NA,NA,NA,pleasant,unpleasant,NA,NA,NA,NA,NA,right,1765,true,NA,NA,NA,NA,NA,NA,NA,NA
Svia5127,3z33ic0jd3zsmh7cb6nqm2m9m84v9l,3uxuoq9okia63uefcg3c13diakha78,Svia5127,2020-0188,2021-10-31,00:29:18,01:52:19,NA,incomplete,false,true,NA,NA,1,25,NA,brown,m_l_114.jpg,NA,NA,NA,NA,NA,unpleasant,pleasant,NA,NA,NA,NA,NA,right,2540.79999999702,true,NA,NA,NA,NA,NA,NA,NA,NA
Svia5127,3z33ic0jd3zsmh7cb6nqm2m9m84v9l,3uxuoq9okia63uefcg3c13diakha78,Svia5127,2020-0188,2021-10-31,00:29:18,01:52:19,NA,incomplete,false,true,NA,NA,1,26,NA,brown,m_s_113.jpg,NA,NA,NA,NA,NA,pleasant,unpleasant,NA,NA,NA,NA,NA,left,1987.89999999851,true,NA,NA,NA,NA,NA,NA,NA,NA
Svia5127,3z33ic0jd3zsmh7cb6nqm2m9m84v9l,3uxuoq9okia63uefcg3c13diakha78,Svia5127,2020-0188,2021-10-31,00:29:18,01:52:19,NA,incomplete,false,true,NA,NA,1,27,NA,brown,n_l_065.jpg,NA,NA,NA,NA,NA,pleasant,unpleasant,NA,NA,NA,NA,NA,right,1396.90000000596,true,NA,NA,NA,NA,NA,NA,NA,NA
Svia5127,3z33ic0jd3zsmh7cb6nqm2m9m84v9l,3uxuoq9okia63uefcg3c13diakha78,Svia5127,2020-0188,2021-10-31,00:29:18,01:52:19,NA,incomplete,false,true,NA,NA,1,28,NA,brown,m_l_058.jpg,NA,NA,NA,NA,NA,unpleasant,pleasant,NA,NA,NA,NA,NA,left,1718.30000000447,true,NA,NA,NA,NA,NA,NA,NA,NA
Svia5127,3z33ic0jd3zsmh7cb6nqm2m9m84v9l,3uxuoq9okia63uefcg3c13diakha78,Svia5127,2020-0188,2021-10-31,00:29:18,01:52:19,NA,incomplete,false,true,NA,NA,1,29,NA,brown,n_s_073.jpg,NA,NA,NA,NA,NA,pleasant,unpleasant,NA,NA,NA,NA,NA,left,1208,true,NA,NA,NA,NA,NA,NA,NA,NA
Svia5127,3z33ic0jd3zsmh7cb6nqm2m9m84v9l,3uxuoq9okia63uefcg3c13diakha78,Svia5127,2020-0188,2021-10-31,00:29:18,01:52:19,NA,incomplete,false,true,NA,NA,1,30,NA,green,n_s_061.jpg,NA,NA,NA,NA,NA,pleasant,unpleasant,NA,NA,NA,NA,NA,right,2605.90000000596,true,NA,NA,NA,NA,NA,NA,NA,NA
Svia5127,3z33ic0jd3zsmh7cb6nqm2m9m84v9l,3uxuoq9okia63uefcg3c13diakha78,Svia5127,2020-0188,2021-10-31,00:29:18,01:52:19,NA,incomplete,false,true,NA,NA,1,31,NA,green,n_l_001.jpg,NA,NA,NA,NA,NA,pleasant,unpleasant,NA,NA,NA,NA,NA,none,0,false,NA,NA,NA,NA,NA,NA,NA,NA
Svia5127,3z33ic0jd3zsmh7cb6nqm2m9m84v9l,3uxuoq9okia63uefcg3c13diakha78,Svia5127,2020-0188,2021-10-31,00:29:18,01:52:19,NA,incomplete,false,true,NA,NA,1,32,NA,green,n_l_104.jpg,NA,NA,NA,NA,NA,unpleasant,pleasant,NA,NA,NA,NA,NA,left,1509.29999999702,true,NA,NA,NA,NA,NA,NA,NA,NA
Svia5127,3z33ic0jd3zsmh7cb6nqm2m9m84v9l,3uxuoq9okia63uefcg3c13diakha78,Svia5127,2020-0188,2021-10-31,00:29:18,01:52:19,NA,incomplete,false,true,NA,NA,1,33,NA,green,n_s_041.jpg,NA,NA,NA,NA,NA,unpleasant,pleasant,NA,NA,NA,NA,NA,right,1314.5,true,NA,NA,NA,NA,NA,NA,NA,NA
Svia5127,3z33ic0jd3zsmh7cb6nqm2m9m84v9l,3uxuoq9okia63uefcg3c13diakha78,Svia5127,2020-0188,2021-10-31,00:29:18,01:52:19,NA,incomplete,false,true,NA,NA,1,34,NA,green,m_s_028.jpg,NA,NA,NA,NA,NA,pleasant,unpleasant,NA,NA,NA,NA,NA,left,1030.80000000447,true,NA,NA,NA,NA,NA,NA,NA,NA
Svia5127,3z33ic0jd3zsmh7cb6nqm2m9m84v9l,3uxuoq9okia63uefcg3c13diakha78,Svia5127,2020-0188,2021-10-31,00:29:18,01:52:19,NA,incomplete,false,true,NA,NA,1,35,NA,green,m_s_015.jpg,NA,NA,NA,NA,NA,unpleasant,pleasant,NA,NA,NA,NA,NA,left,1359.79999999702,true,NA,NA,NA,NA,NA,NA,NA,NA
Svia5127,3z33ic0jd3zsmh7cb6nqm2m9m84v9l,3uxuoq9okia63uefcg3c13diakha78,Svia5127,2020-0188,2021-10-31,00:29:18,01:52:19,NA,incomplete,false,NA,NA,true,1,0,NA,NA,NA,left,n_l_001.jpg,green,brown,NA,NA,NA,NA,NA,NA,NA,NA,NA,NaN,NA,6743,left,1,NA,NA,NA,NA,NA
Svia5127,3z33ic0jd3zsmh7cb6nqm2m9m84v9l,3uxuoq9okia63uefcg3c13diakha78,Svia5127,2020-0188,2021-10-31,00:29:18,01:52:19,NA,incomplete,false,NA,NA,true,1,1,NA,NA,NA,right,m_s_113.jpg,white,brown,NA,NA,NA,NA,NA,NA,NA,NA,NA,NaN,NA,5783.5,left,0,NA,NA,NA,NA,NA
Svia5127,3z33ic0jd3zsmh7cb6nqm2m9m84v9l,3uxuoq9okia63uefcg3c13diakha78,Svia5127,2020-0188,2021-10-31,00:29:18,01:52:19,NA,incomplete,false,NA,NA,true,1,2,NA,NA,NA,right,n_s_092.jpg,orange,white,NA,NA,NA,NA,NA,NA,NA,NA,NA,NaN,NA,1919.2999999970198,right,1,NA,NA,NA,NA,NA
Svia5127,3z33ic0jd3zsmh7cb6nqm2m9m84v9l,3uxuoq9okia63uefcg3c13diakha78,Svia5127,2020-0188,2021-10-31,00:29:18,01:52:19,NA,incomplete,false,NA,NA,true,1,3,NA,NA,NA,right,n_l_008.jpg,yellow,black,NA,NA,NA,NA,NA,NA,NA,NA,NA,NaN,NA,1815.5999999940395,right,1,NA,NA,NA,NA,NA
Svia5127,3z33ic0jd3zsmh7cb6nqm2m9m84v9l,3uxuoq9okia63uefcg3c13diakha78,Svia5127,2020-0188,2021-10-31,00:29:18,01:52:19,NA,incomplete,false,NA,NA,true,1,4,NA,NA,NA,left,n_l_072.jpg,black,yellow,NA,NA,NA,NA,NA,NA,NA,NA,NA,NaN,NA,2671.10000000149,left,1,NA,NA,NA,NA,NA
Svia5127,3z33ic0jd3zsmh7cb6nqm2m9m84v9l,3uxuoq9okia63uefcg3c13diakha78,Svia5127,2020-0188,2021-10-31,00:29:18,01:52:19,NA,incomplete,false,NA,NA,true,1,5,NA,NA,NA,left,m_l_114.jpg,brown,green,NA,NA,NA,NA,NA,NA,NA,NA,NA,NaN,NA,6550.70000000298,left,1,NA,NA,NA,NA,NA
Svia5127,3z33ic0jd3zsmh7cb6nqm2m9m84v9l,3uxuoq9okia63uefcg3c13diakha78,Svia5127,2020-0188,2021-10-31,00:29:18,01:52:19,NA,incomplete,false,NA,NA,true,1,6,NA,NA,NA,right,m_l_055.jpg,black,yellow,NA,NA,NA,NA,NA,NA,NA,NA,NA,NaN,NA,1654.8999999985099,right,1,NA,NA,NA,NA,NA
Svia5127,3z33ic0jd3zsmh7cb6nqm2m9m84v9l,3uxuoq9okia63uefcg3c13diakha78,Svia5127,2020-0188,2021-10-31,00:29:18,01:52:19,NA,incomplete,false,NA,NA,true,1,7,NA,NA,NA,right,n_s_073.jpg,white,brown,NA,NA,NA,NA,NA,NA,NA,NA,NA,NaN,NA,2206.6999999955297,right,1,NA,NA,NA,NA,NA
Svia5127,3z33ic0jd3zsmh7cb6nqm2m9m84v9l,3uxuoq9okia63uefcg3c13diakha78,Svia5127,2020-0188,2021-10-31,00:29:18,01:52:19,NA,incomplete,false,NA,NA,true,1,8,NA,NA,NA,right,m_s_034.jpg,orange,white,NA,NA,NA,NA,NA,NA,NA,NA,NA,NaN,NA,1735.6999999955297,right,1,NA,NA,NA,NA,NA
Svia5127,3z33ic0jd3zsmh7cb6nqm2m9m84v9l,3uxuoq9okia63uefcg3c13diakha78,Svia5127,2020-0188,2021-10-31,00:29:18,01:52:19,NA,incomplete,false,NA,NA,true,1,9,NA,NA,NA,right,m_l_014.jpg,white,orange,NA,NA,NA,NA,NA,NA,NA,NA,NA,NaN,NA,2231.10000000149,left,0,NA,NA,NA,NA,NA
Svia5127,3z33ic0jd3zsmh7cb6nqm2m9m84v9l,3uxuoq9okia63uefcg3c13diakha78,Svia5127,2020-0188,2021-10-31,00:29:18,01:52:19,NA,incomplete,false,NA,NA,true,1,10,NA,NA,NA,left,m_s_072.jpg,orange,yellow,NA,NA,NA,NA,NA,NA,NA,NA,NA,NaN,NA,3071.6999999955297,left,1,NA,NA,NA,NA,NA
Svia5127,3z33ic0jd3zsmh7cb6nqm2m9m84v9l,3uxuoq9okia63uefcg3c13diakha78,Svia5127,2020-0188,2021-10-31,00:29:18,01:52:19,NA,incomplete,false,NA,NA,true,1,11,NA,NA,NA,left,n_s_059.jpg,yellow,black,NA,NA,NA,NA,NA,NA,NA,NA,NA,NaN,NA,2222.5,left,1,NA,NA,NA,NA,NA
Svia5127,3z33ic0jd3zsmh7cb6nqm2m9m84v9l,3uxuoq9okia63uefcg3c13diakha78,Svia5127,2020-0188,2021-10-31,00:29:18,01:52:19,NA,incomplete,false,NA,NA,true,1,12,NA,NA,NA,left,n_s_022.jpg,yellow,black,NA,NA,NA,NA,NA,NA,NA,NA,NA,NaN,NA,1951.7999999970198,right,0,NA,NA,NA,NA,NA
Svia5127,3z33ic0jd3zsmh7cb6nqm2m9m84v9l,3uxuoq9okia63uefcg3c13diakha78,Svia5127,2020-0188,2021-10-31,00:29:18,01:52:19,NA,incomplete,false,NA,NA,true,1,13,NA,NA,NA,right,m_l_058.jpg,white,brown,NA,NA,NA,NA,NA,NA,NA,NA,NA,NaN,NA,1703.6000000014901,right,1,NA,NA,NA,NA,NA
Svia5127,3z33ic0jd3zsmh7cb6nqm2m9m84v9l,3uxuoq9okia63uefcg3c13diakha78,Svia5127,2020-0188,2021-10-31,00:29:18,01:52:19,NA,incomplete,false,NA,NA,true,1,14,NA,NA,NA,right,n_s_072.jpg,yellow,orange,NA,NA,NA,NA,NA,NA,NA,NA,NA,NaN,NA,5311.39999999851,left,0,NA,NA,NA,NA,NA
Svia5127,3z33ic0jd3zsmh7cb6nqm2m9m84v9l,3uxuoq9okia63uefcg3c13diakha78,Svia5127,2020-0188,2021-10-31,00:29:18,01:52:19,NA,incomplete,false,NA,NA,true,1,15,NA,NA,NA,left,n_s_032.jpg,black,yellow,NA,NA,NA,NA,NA,NA,NA,NA,NA,NaN,NA,3519.7999999970198,left,1,NA,NA,NA,NA,NA
Svia5127,3z33ic0jd3zsmh7cb6nqm2m9m84v9l,3uxuoq9okia63uefcg3c13diakha78,Svia5127,2020-0188,2021-10-31,00:29:18,01:52:19,NA,incomplete,false,NA,NA,true,1,16,NA,NA,NA,left,m_l_017.jpg,white,brown,NA,NA,NA,NA,NA,NA,NA,NA,NA,NaN,NA,4063.7999999970198,left,1,NA,NA,NA,NA,NA
Svia5127,3z33ic0jd3zsmh7cb6nqm2m9m84v9l,3uxuoq9okia63uefcg3c13diakha78,Svia5127,2020-0188,2021-10-31,00:29:18,01:52:19,NA,incomplete,false,NA,NA,true,1,17,NA,NA,NA,left,n_l_039.jpg,yellow,orange,NA,NA,NA,NA,NA,NA,NA,NA,NA,NaN,NA,9334.69999999553,left,1,NA,NA,NA,NA,NA
Svia5127,3z33ic0jd3zsmh7cb6nqm2m9m84v9l,3uxuoq9okia63uefcg3c13diakha78,Svia5127,2020-0188,2021-10-31,00:29:18,01:52:19,NA,incomplete,false,NA,NA,true,1,18,NA,NA,NA,left,n_l_104.jpg,green,brown,NA,NA,NA,NA,NA,NA,NA,NA,NA,NaN,NA,3327.5,right,0,NA,NA,NA,NA,NA
Svia5127,3z33ic0jd3zsmh7cb6nqm2m9m84v9l,3uxuoq9okia63uefcg3c13diakha78,Svia5127,2020-0188,2021-10-31,00:29:18,01:52:19,NA,incomplete,false,NA,NA,true,1,19,NA,NA,NA,left,m_s_015.jpg,green,brown,NA,NA,NA,NA,NA,NA,NA,NA,NA,NaN,NA,1654.9000000059605,left,1,NA,NA,NA,NA,NA
Svia5127,3z33ic0jd3zsmh7cb6nqm2m9m84v9l,3uxuoq9okia63uefcg3c13diakha78,Svia5127,2020-0188,2021-10-31,00:29:18,01:52:19,NA,incomplete,false,NA,NA,true,1,20,NA,NA,NA,right,m_s_101.jpg,white,orange,NA,NA,NA,NA,NA,NA,NA,NA,NA,NaN,NA,2383.2999999970198,right,1,NA,NA,NA,NA,NA
Svia5127,3z33ic0jd3zsmh7cb6nqm2m9m84v9l,3uxuoq9okia63uefcg3c13diakha78,Svia5127,2020-0188,2021-10-31,00:29:18,01:52:19,NA,incomplete,false,NA,NA,true,1,21,NA,NA,NA,right,n_l_012.jpg,brown,white,NA,NA,NA,NA,NA,NA,NA,NA,NA,NaN,NA,5711.60000000149,right,1,NA,NA,NA,NA,NA
Svia5127,3z33ic0jd3zsmh7cb6nqm2m9m84v9l,3uxuoq9okia63uefcg3c13diakha78,Svia5127,2020-0188,2021-10-31,00:29:18,01:52:19,NA,incomplete,false,NA,true,NA,1,0,NA,NA,NA,right,NA,NA,NA,present,NA,NA,m_s_113.jpg,brown,m_s_034.jpg,white,between,NA,NaN,NA,NA,NA,NA,right,18078.80000000447,1,1,3174.60000000149
Svia5127,3z33ic0jd3zsmh7cb6nqm2m9m84v9l,3uxuoq9okia63uefcg3c13diakha78,Svia5127,2020-0188,2021-10-31,00:29:18,01:52:19,NA,incomplete,false,NA,true,NA,1,1,NA,NA,NA,right,NA,NA,NA,present,NA,NA,m_s_101.jpg,orange,m_l_014.jpg,orange,within,NA,NaN,NA,NA,NA,NA,right,4607.20000000298,1,0,2071.8000000044703
Svia5127,3z33ic0jd3zsmh7cb6nqm2m9m84v9l,3uxuoq9okia63uefcg3c13diakha78,Svia5127,2020-0188,2021-10-31,00:29:18,01:52:19,NA,incomplete,false,NA,true,NA,1,2,NA,NA,NA,right,NA,NA,NA,present,NA,NA,n_l_008.jpg,black,n_s_032.jpg,black,within,NA,NaN,NA,NA,NA,NA,right,3439.5999999940395,1,1,1591.3999999985099
Svia5127,3z33ic0jd3zsmh7cb6nqm2m9m84v9l,3uxuoq9okia63uefcg3c13diakha78,Svia5127,2020-0188,2021-10-31,00:29:18,01:52:19,NA,incomplete,false,NA,true,NA,1,3,NA,NA,NA,right,NA,NA,NA,present,NA,NA,n_s_022.jpg,yellow,n_l_072.jpg,black,between,NA,NaN,NA,NA,NA,NA,right,4326.89999999851,1,2,1703.5
Svia5127,3z33ic0jd3zsmh7cb6nqm2m9m84v9l,3uxuoq9okia63uefcg3c13diakha78,Svia5127,2020-0188,2021-10-31,00:29:18,01:52:19,NA,incomplete,false,NA,true,NA,1,4,NA,NA,NA,right,NA,NA,NA,present,NA,NA,n_l_012.jpg,white,n_s_092.jpg,white,within,NA,NaN,NA,NA,NA,NA,right,5495.5,1,1,1751.3000000044703
Svia5127,3z33ic0jd3zsmh7cb6nqm2m9m84v9l,3uxuoq9okia63uefcg3c13diakha78,Svia5127,2020-0188,2021-10-31,00:29:18,01:52:19,NA,incomplete,false,NA,true,NA,1,5,NA,NA,NA,right,NA,NA,NA,present,NA,NA,n_s_073.jpg,brown,m_l_114.jpg,brown,within,NA,NaN,NA,NA,NA,NA,right,3327.7999999970198,1,0,2383.5
Svia5127,3z33ic0jd3zsmh7cb6nqm2m9m84v9l,3uxuoq9okia63uefcg3c13diakha78,Svia5127,2020-0188,2021-10-31,00:29:18,01:52:19,NA,incomplete,false,NA,true,NA,1,6,NA,NA,NA,right,NA,NA,NA,present,NA,NA,n_s_072.jpg,orange,n_l_039.jpg,yellow,between,NA,NaN,NA,NA,NA,NA,right,5807.29999999702,1,2,5943.39999999851
Svia5127,3z33ic0jd3zsmh7cb6nqm2m9m84v9l,3uxuoq9okia63uefcg3c13diakha78,Svia5127,2020-0188,2021-10-31,00:29:18,01:52:19,NA,incomplete,false,NA,true,NA,1,7,NA,NA,NA,left,NA,NA,NA,present,NA,NA,m_s_072.jpg,orange,m_l_017.jpg,white,between,NA,NaN,NA,NA,NA,NA,left,6151.60000000149,1,2,2158.8000000044703
Svia5127,3z33ic0jd3zsmh7cb6nqm2m9m84v9l,3uxuoq9okia63uefcg3c13diakha78,Svia5127,2020-0188,2021-10-31,00:29:18,01:52:19,NA,incomplete,false,NA,true,NA,1,8,NA,NA,NA,left,NA,NA,NA,present,NA,NA,n_l_001.jpg,green,m_s_015.jpg,green,within,NA,NaN,NA,NA,NA,NA,left,3846.7999999970198,1,1,1623.2000000029802
Svia5127,3z33ic0jd3zsmh7cb6nqm2m9m84v9l,3uxuoq9okia63uefcg3c13diakha78,Svia5127,2020-0188,2021-10-31,00:29:18,01:52:19,NA,incomplete,false,NA,true,NA,1,9,NA,NA,NA,right,NA,NA,NA,present,NA,NA,n_s_059.jpg,yellow,m_l_055.jpg,yellow,within,NA,NaN,NA,NA,NA,NA,right,5823.79999999702,1,0,1775
Svia5127,3z33ic0jd3zsmh7cb6nqm2m9m84v9l,3uxuoq9okia63uefcg3c13diakha78,Svia5127,2020-0188,2021-10-31,00:29:18,01:52:19,NA,incomplete,false,NA,true,NA,1,10,NA,NA,NA,right,NA,NA,NA,present,NA,NA,n_l_104.jpg,green,m_l_058.jpg,brown,between,NA,NaN,NA,NA,NA,NA,right,4367.5999999940395,1,2,1279.6000000014901
Svia5127,3z33ic0jd3zsmh7cb6nqm2m9m84v9l,3uxuoq9okia63uefcg3c13diakha78,Svia5127,2020-0188,2021-10-31,00:29:18,01:52:19,NA,incomplete,false,true,NA,NA,2,0,NA,blue,n_s_086.jpg,NA,NA,NA,NA,NA,pleasant,unpleasant,NA,NA,NA,NA,NA,left,1481.5,true,NA,NA,NA,NA,NA,NA,NA,NA
Svia5127,3z33ic0jd3zsmh7cb6nqm2m9m84v9l,3uxuoq9okia63uefcg3c13diakha78,Svia5127,2020-0188,2021-10-31,00:29:18,01:52:19,NA,incomplete,false,true,NA,NA,2,1,NA,blue,m_s_023.jpg,NA,NA,NA,NA,NA,unpleasant,pleasant,NA,NA,NA,NA,NA,left,1379.5,true,NA,NA,NA,NA,NA,NA,NA,NA
Svia5127,3z33ic0jd3zsmh7cb6nqm2m9m84v9l,3uxuoq9okia63uefcg3c13diakha78,Svia5127,2020-0188,2021-10-31,00:29:18,01:52:19,NA,incomplete,false,true,NA,NA,2,2,NA,blue,m_s_095.jpg,NA,NA,NA,NA,NA,unpleasant,pleasant,NA,NA,NA,NA,NA,left,1649.70000000298,true,NA,NA,NA,NA,NA,NA,NA,NA
Svia5127,3z33ic0jd3zsmh7cb6nqm2m9m84v9l,3uxuoq9okia63uefcg3c13diakha78,Svia5127,2020-0188,2021-10-31,00:29:18,01:52:19,NA,incomplete,false,true,NA,NA,2,3,NA,blue,m_s_083.jpg,NA,NA,NA,NA,NA,unpleasant,pleasant,NA,NA,NA,NA,NA,left,2076,true,NA,NA,NA,NA,NA,NA,NA,NA
Svia5127,3z33ic0jd3zsmh7cb6nqm2m9m84v9l,3uxuoq9okia63uefcg3c13diakha78,Svia5127,2020-0188,2021-10-31,00:29:18,01:52:19,NA,incomplete,false,true,NA,NA,2,4,NA,blue,n_s_093.jpg,NA,NA,NA,NA,NA,pleasant,unpleasant,NA,NA,NA,NA,NA,left,2428.59999999404,true,NA,NA,NA,NA,NA,NA,NA,NA
Svia5127,3z33ic0jd3zsmh7cb6nqm2m9m84v9l,3uxuoq9okia63uefcg3c13diakha78,Svia5127,2020-0188,2021-10-31,00:29:18,01:52:19,NA,incomplete,false,true,NA,NA,2,5,NA,blue,m_s_098.jpg,NA,NA,NA,NA,NA,pleasant,unpleasant,NA,NA,NA,NA,NA,left,1377.79999999702,true,NA,NA,NA,NA,NA,NA,NA,NA
Svia5127,3z33ic0jd3zsmh7cb6nqm2m9m84v9l,3uxuoq9okia63uefcg3c13diakha78,Svia5127,2020-0188,2021-10-31,00:29:18,01:52:19,NA,incomplete,false,true,NA,NA,2,6,NA,black,n_s_115.jpg,NA,NA,NA,NA,NA,pleasant,unpleasant,NA,NA,NA,NA,NA,left,2323.29999999702,true,NA,NA,NA,NA,NA,NA,NA,NA
Svia5127,3z33ic0jd3zsmh7cb6nqm2m9m84v9l,3uxuoq9okia63uefcg3c13diakha78,Svia5127,2020-0188,2021-10-31,00:29:18,01:52:19,NA,incomplete,false,true,NA,NA,2,7,NA,black,m_l_059.jpg,NA,NA,NA,NA,NA,pleasant,unpleasant,NA,NA,NA,NA,NA,right,1186.89999999851,true,NA,NA,NA,NA,NA,NA,NA,NA
Svia5127,3z33ic0jd3zsmh7cb6nqm2m9m84v9l,3uxuoq9okia63uefcg3c13diakha78,Svia5127,2020-0188,2021-10-31,00:29:18,01:52:19,NA,incomplete,false,true,NA,NA,2,8,NA,black,m_s_054.jpg,NA,NA,NA,NA,NA,unpleasant,pleasant,NA,NA,NA,NA,NA,left,2870.70000000298,true,NA,NA,NA,NA,NA,NA,NA,NA
Svia5127,3z33ic0jd3zsmh7cb6nqm2m9m84v9l,3uxuoq9okia63uefcg3c13diakha78,Svia5127,2020-0188,2021-10-31,00:29:18,01:52:19,NA,incomplete,false,true,NA,NA,2,9,NA,black,m_l_041.jpg,NA,NA,NA,NA,NA,pleasant,unpleasant,NA,NA,NA,NA,NA,right,1300,true,NA,NA,NA,NA,NA,NA,NA,NA
Svia5127,3z33ic0jd3zsmh7cb6nqm2m9m84v9l,3uxuoq9okia63uefcg3c13diakha78,Svia5127,2020-0188,2021-10-31,00:29:18,01:52:19,NA,incomplete,false,true,NA,NA,2,10,NA,black,n_s_028.jpg,NA,NA,NA,NA,NA,unpleasant,pleasant,NA,NA,NA,NA,NA,right,1733.79999999702,true,NA,NA,NA,NA,NA,NA,NA,NA
Svia5127,3z33ic0jd3zsmh7cb6nqm2m9m84v9l,3uxuoq9okia63uefcg3c13diakha78,Svia5127,2020-0188,2021-10-31,00:29:18,01:52:19,NA,incomplete,false,true,NA,NA,2,11,NA,black,n_l_042.jpg,NA,NA,NA,NA,NA,pleasant,unpleasant,NA,NA,NA,NA,NA,left,1468.5,true,NA,NA,NA,NA,NA,NA,NA,NA
Svia5127,3z33ic0jd3zsmh7cb6nqm2m9m84v9l,3uxuoq9okia63uefcg3c13diakha78,Svia5127,2020-0188,2021-10-31,00:29:18,01:52:19,NA,incomplete,false,true,NA,NA,2,12,NA,green,n_l_005.jpg,NA,NA,NA,NA,NA,pleasant,unpleasant,NA,NA,NA,NA,NA,left,1245.39999999851,true,NA,NA,NA,NA,NA,NA,NA,NA
Svia5127,3z33ic0jd3zsmh7cb6nqm2m9m84v9l,3uxuoq9okia63uefcg3c13diakha78,Svia5127,2020-0188,2021-10-31,00:29:18,01:52:19,NA,incomplete,false,true,NA,NA,2,13,NA,green,n_l_048.jpg,NA,NA,NA,NA,NA,pleasant,unpleasant,NA,NA,NA,NA,NA,left,782.10000000149,true,NA,NA,NA,NA,NA,NA,NA,NA
Svia5127,3z33ic0jd3zsmh7cb6nqm2m9m84v9l,3uxuoq9okia63uefcg3c13diakha78,Svia5127,2020-0188,2021-10-31,00:29:18,01:52:19,NA,incomplete,false,true,NA,NA,2,14,NA,green,n_s_116.jpg,NA,NA,NA,NA,NA,unpleasant,pleasant,NA,NA,NA,NA,NA,right,1184.59999999404,true,NA,NA,NA,NA,NA,NA,NA,NA
Svia5127,3z33ic0jd3zsmh7cb6nqm2m9m84v9l,3uxuoq9okia63uefcg3c13diakha78,Svia5127,2020-0188,2021-10-31,00:29:18,01:52:19,NA,incomplete,false,true,NA,NA,2,15,NA,green,m_l_084.jpg,NA,NA,NA,NA,NA,pleasant,unpleasant,NA,NA,NA,NA,NA,left,1472.39999999851,true,NA,NA,NA,NA,NA,NA,NA,NA
Svia5127,3z33ic0jd3zsmh7cb6nqm2m9m84v9l,3uxuoq9okia63uefcg3c13diakha78,Svia5127,2020-0188,2021-10-31,00:29:18,01:52:19,NA,incomplete,false,true,NA,NA,2,16,NA,green,n_s_095.jpg,NA,NA,NA,NA,NA,unpleasant,pleasant,NA,NA,NA,NA,NA,right,2463.29999999702,true,NA,NA,NA,NA,NA,NA,NA,NA
Svia5127,3z33ic0jd3zsmh7cb6nqm2m9m84v9l,3uxuoq9okia63uefcg3c13diakha78,Svia5127,2020-0188,2021-10-31,00:29:18,01:52:19,NA,incomplete,false,true,NA,NA,2,17,NA,green,m_s_036.jpg,NA,NA,NA,NA,NA,pleasant,unpleasant,NA,NA,NA,NA,NA,left,1793.29999999702,true,NA,NA,NA,NA,NA,NA,NA,NA
Svia5127,3z33ic0jd3zsmh7cb6nqm2m9m84v9l,3uxuoq9okia63uefcg3c13diakha78,Svia5127,2020-0188,2021-10-31,00:29:18,01:52:19,NA,incomplete,false,true,NA,NA,2,18,NA,white,n_l_006.jpg,NA,NA,NA,NA,NA,pleasant,unpleasant,NA,NA,NA,NA,NA,left,1505,true,NA,NA,NA,NA,NA,NA,NA,NA
Svia5127,3z33ic0jd3zsmh7cb6nqm2m9m84v9l,3uxuoq9okia63uefcg3c13diakha78,Svia5127,2020-0188,2021-10-31,00:29:18,01:52:19,NA,incomplete,false,true,NA,NA,2,19,NA,white,m_l_049.jpg,NA,NA,NA,NA,NA,pleasant,unpleasant,NA,NA,NA,NA,NA,right,1202.5,true,NA,NA,NA,NA,NA,NA,NA,NA
Svia5127,3z33ic0jd3zsmh7cb6nqm2m9m84v9l,3uxuoq9okia63uefcg3c13diakha78,Svia5127,2020-0188,2021-10-31,00:29:18,01:52:19,NA,incomplete,false,true,NA,NA,2,20,NA,white,m_l_094.jpg,NA,NA,NA,NA,NA,pleasant,unpleasant,NA,NA,NA,NA,NA,right,1654.79999999702,true,NA,NA,NA,NA,NA,NA,NA,NA
Svia5127,3z33ic0jd3zsmh7cb6nqm2m9m84v9l,3uxuoq9okia63uefcg3c13diakha78,Svia5127,2020-0188,2021-10-31,00:29:18,01:52:19,NA,incomplete,false,true,NA,NA,2,21,NA,white,m_s_007.jpg,NA,NA,NA,NA,NA,unpleasant,pleasant,NA,NA,NA,NA,NA,left,1144.70000000298,true,NA,NA,NA,NA,NA,NA,NA,NA
Svia5127,3z33ic0jd3zsmh7cb6nqm2m9m84v9l,3uxuoq9okia63uefcg3c13diakha78,Svia5127,2020-0188,2021-10-31,00:29:18,01:52:19,NA,incomplete,false,true,NA,NA,2,22,NA,white,m_l_097.jpg,NA,NA,NA,NA,NA,unpleasant,pleasant,NA,NA,NA,NA,NA,right,1641.29999999702,true,NA,NA,NA,NA,NA,NA,NA,NA
Svia5127,3z33ic0jd3zsmh7cb6nqm2m9m84v9l,3uxuoq9okia63uefcg3c13diakha78,Svia5127,2020-0188,2021-10-31,00:29:18,01:52:19,NA,incomplete,false,true,NA,NA,2,23,NA,white,m_l_069.jpg,NA,NA,NA,NA,NA,unpleasant,pleasant,NA,NA,NA,NA,NA,left,1400.10000000149,true,NA,NA,NA,NA,NA,NA,NA,NA
Svia5127,3z33ic0jd3zsmh7cb6nqm2m9m84v9l,3uxuoq9okia63uefcg3c13diakha78,Svia5127,2020-0188,2021-10-31,00:29:18,01:52:19,NA,incomplete,false,true,NA,NA,2,24,NA,brown,m_s_033.jpg,NA,NA,NA,NA,NA,unpleasant,pleasant,NA,NA,NA,NA,NA,right,1574.69999999553,true,NA,NA,NA,NA,NA,NA,NA,NA
Svia5127,3z33ic0jd3zsmh7cb6nqm2m9m84v9l,3uxuoq9okia63uefcg3c13diakha78,Svia5127,2020-0188,2021-10-31,00:29:18,01:52:19,NA,incomplete,false,true,NA,NA,2,25,NA,brown,n_l_053.jpg,NA,NA,NA,NA,NA,pleasant,unpleasant,NA,NA,NA,NA,NA,right,2408,true,NA,NA,NA,NA,NA,NA,NA,NA
Svia5127,3z33ic0jd3zsmh7cb6nqm2m9m84v9l,3uxuoq9okia63uefcg3c13diakha78,Svia5127,2020-0188,2021-10-31,00:29:18,01:52:19,NA,incomplete,false,true,NA,NA,2,26,NA,brown,n_s_036.jpg,NA,NA,NA,NA,NA,unpleasant,pleasant,NA,NA,NA,NA,NA,right,1422.80000000447,true,NA,NA,NA,NA,NA,NA,NA,NA
Svia5127,3z33ic0jd3zsmh7cb6nqm2m9m84v9l,3uxuoq9okia63uefcg3c13diakha78,Svia5127,2020-0188,2021-10-31,00:29:18,01:52:19,NA,incomplete,false,true,NA,NA,2,27,NA,brown,m_s_071.jpg,NA,NA,NA,NA,NA,unpleasant,pleasant,NA,NA,NA,NA,NA,left,1649.89999999851,true,NA,NA,NA,NA,NA,NA,NA,NA
Svia5127,3z33ic0jd3zsmh7cb6nqm2m9m84v9l,3uxuoq9okia63uefcg3c13diakha78,Svia5127,2020-0188,2021-10-31,00:29:18,01:52:19,NA,incomplete,false,true,NA,NA,2,28,NA,brown,n_l_055.jpg,NA,NA,NA,NA,NA,pleasant,unpleasant,NA,NA,NA,NA,NA,left,1386.89999999851,true,NA,NA,NA,NA,NA,NA,NA,NA
Svia5127,3z33ic0jd3zsmh7cb6nqm2m9m84v9l,3uxuoq9okia63uefcg3c13diakha78,Svia5127,2020-0188,2021-10-31,00:29:18,01:52:19,NA,incomplete,false,true,NA,NA,2,29,NA,brown,m_s_032.jpg,NA,NA,NA,NA,NA,unpleasant,pleasant,NA,NA,NA,NA,NA,right,1210.70000000298,true,NA,NA,NA,NA,NA,NA,NA,NA
Svia5127,3z33ic0jd3zsmh7cb6nqm2m9m84v9l,3uxuoq9okia63uefcg3c13diakha78,Svia5127,2020-0188,2021-10-31,00:29:18,01:52:19,NA,incomplete,false,true,NA,NA,2,30,NA,red,n_l_019.jpg,NA,NA,NA,NA,NA,pleasant,unpleasant,NA,NA,NA,NA,NA,left,1593.19999999553,true,NA,NA,NA,NA,NA,NA,NA,NA
Svia5127,3z33ic0jd3zsmh7cb6nqm2m9m84v9l,3uxuoq9okia63uefcg3c13diakha78,Svia5127,2020-0188,2021-10-31,00:29:18,01:52:19,NA,incomplete,false,true,NA,NA,2,31,NA,red,n_s_049.jpg,NA,NA,NA,NA,NA,pleasant,unpleasant,NA,NA,NA,NA,NA,left,923.19999999553,true,NA,NA,NA,NA,NA,NA,NA,NA
Svia5127,3z33ic0jd3zsmh7cb6nqm2m9m84v9l,3uxuoq9okia63uefcg3c13diakha78,Svia5127,2020-0188,2021-10-31,00:29:18,01:52:19,NA,incomplete,false,true,NA,NA,2,32,NA,red,m_s_065.jpg,NA,NA,NA,NA,NA,unpleasant,pleasant,NA,NA,NA,NA,NA,right,1650.39999999851,true,NA,NA,NA,NA,NA,NA,NA,NA
Svia5127,3z33ic0jd3zsmh7cb6nqm2m9m84v9l,3uxuoq9okia63uefcg3c13diakha78,Svia5127,2020-0188,2021-10-31,00:29:18,01:52:19,NA,incomplete,false,true,NA,NA,2,33,NA,red,m_s_029.jpg,NA,NA,NA,NA,NA,unpleasant,pleasant,NA,NA,NA,NA,NA,right,1756.70000000298,true,NA,NA,NA,NA,NA,NA,NA,NA
Svia5127,3z33ic0jd3zsmh7cb6nqm2m9m84v9l,3uxuoq9okia63uefcg3c13diakha78,Svia5127,2020-0188,2021-10-31,00:29:18,01:52:19,NA,incomplete,false,true,NA,NA,2,34,NA,red,m_s_057.jpg,NA,NA,NA,NA,NA,unpleasant,pleasant,NA,NA,NA,NA,NA,right,1316.09999999404,true,NA,NA,NA,NA,NA,NA,NA,NA
Svia5127,3z33ic0jd3zsmh7cb6nqm2m9m84v9l,3uxuoq9okia63uefcg3c13diakha78,Svia5127,2020-0188,2021-10-31,00:29:18,01:52:19,NA,incomplete,false,true,NA,NA,2,35,NA,red,n_l_095.jpg,NA,NA,NA,NA,NA,pleasant,unpleasant,NA,NA,NA,NA,NA,left,1750.19999999553,true,NA,NA,NA,NA,NA,NA,NA,NA
Svia5127,3z33ic0jd3zsmh7cb6nqm2m9m84v9l,3uxuoq9okia63uefcg3c13diakha78,Svia5127,2020-0188,2021-10-31,00:29:18,01:52:19,NA,incomplete,false,NA,NA,true,2,0,NA,NA,NA,right,n_s_116.jpg,white,green,NA,NA,NA,NA,NA,NA,NA,NA,NA,NaN,NA,3975.7000000029802,right,1,NA,NA,NA,NA,NA
Svia5127,3z33ic0jd3zsmh7cb6nqm2m9m84v9l,3uxuoq9okia63uefcg3c13diakha78,Svia5127,2020-0188,2021-10-31,00:29:18,01:52:19,NA,incomplete,false,NA,NA,true,2,1,NA,NA,NA,right,m_l_094.jpg,brown,white,NA,NA,NA,NA,NA,NA,NA,NA,NA,NaN,NA,2103.3000000044703,right,1,NA,NA,NA,NA,NA
Svia5127,3z33ic0jd3zsmh7cb6nqm2m9m84v9l,3uxuoq9okia63uefcg3c13diakha78,Svia5127,2020-0188,2021-10-31,00:29:18,01:52:19,NA,incomplete,false,NA,NA,true,2,2,NA,NA,NA,right,m_s_065.jpg,brown,red,NA,NA,NA,NA,NA,NA,NA,NA,NA,NaN,NA,1535.3999999985099,right,1,NA,NA,NA,NA,NA
Svia5127,3z33ic0jd3zsmh7cb6nqm2m9m84v9l,3uxuoq9okia63uefcg3c13diakha78,Svia5127,2020-0188,2021-10-31,00:29:18,01:52:19,NA,incomplete,false,NA,NA,true,2,3,NA,NA,NA,right,n_s_028.jpg,green,black,NA,NA,NA,NA,NA,NA,NA,NA,NA,NaN,NA,1615.7999999970198,right,1,NA,NA,NA,NA,NA
Svia5127,3z33ic0jd3zsmh7cb6nqm2m9m84v9l,3uxuoq9okia63uefcg3c13diakha78,Svia5127,2020-0188,2021-10-31,00:29:18,01:52:19,NA,incomplete,false,NA,NA,true,2,4,NA,NA,NA,left,n_l_055.jpg,brown,white,NA,NA,NA,NA,NA,NA,NA,NA,NA,NaN,NA,2343.7000000029802,left,1,NA,NA,NA,NA,NA
Svia5127,3z33ic0jd3zsmh7cb6nqm2m9m84v9l,3uxuoq9okia63uefcg3c13diakha78,Svia5127,2020-0188,2021-10-31,00:29:18,01:52:19,NA,incomplete,false,NA,NA,true,2,5,NA,NA,NA,right,n_s_036.jpg,red,brown,NA,NA,NA,NA,NA,NA,NA,NA,NA,NaN,NA,1719,right,1,NA,NA,NA,NA,NA
Svia5127,3z33ic0jd3zsmh7cb6nqm2m9m84v9l,3uxuoq9okia63uefcg3c13diakha78,Svia5127,2020-0188,2021-10-31,00:29:18,01:52:19,NA,incomplete,false,NA,NA,true,2,6,NA,NA,NA,left,n_l_095.jpg,red,brown,NA,NA,NA,NA,NA,NA,NA,NA,NA,NaN,NA,2839.1999999955297,left,1,NA,NA,NA,NA,NA
Svia5127,3z33ic0jd3zsmh7cb6nqm2m9m84v9l,3uxuoq9okia63uefcg3c13diakha78,Svia5127,2020-0188,2021-10-31,00:29:18,01:52:19,NA,incomplete,false,NA,NA,true,2,7,NA,NA,NA,right,n_s_095.jpg,black,green,NA,NA,NA,NA,NA,NA,NA,NA,NA,NaN,NA,2511.2999999970198,right,1,NA,NA,NA,NA,NA
Svia5127,3z33ic0jd3zsmh7cb6nqm2m9m84v9l,3uxuoq9okia63uefcg3c13diakha78,Svia5127,2020-0188,2021-10-31,00:29:18,01:52:19,NA,incomplete,false,NA,NA,true,2,8,NA,NA,NA,right,m_s_036.jpg,white,green,NA,NA,NA,NA,NA,NA,NA,NA,NA,NaN,NA,1982.5999999940395,left,0,NA,NA,NA,NA,NA
Svia5127,3z33ic0jd3zsmh7cb6nqm2m9m84v9l,3uxuoq9okia63uefcg3c13diakha78,Svia5127,2020-0188,2021-10-31,00:29:18,01:52:19,NA,incomplete,false,NA,NA,true,2,9,NA,NA,NA,left,m_s_023.jpg,blue,black,NA,NA,NA,NA,NA,NA,NA,NA,NA,NaN,NA,1951.5,left,1,NA,NA,NA,NA,NA
Svia5127,3z33ic0jd3zsmh7cb6nqm2m9m84v9l,3uxuoq9okia63uefcg3c13diakha78,Svia5127,2020-0188,2021-10-31,00:29:18,01:52:19,NA,incomplete,false,NA,NA,true,2,10,NA,NA,NA,left,m_l_049.jpg,white,green,NA,NA,NA,NA,NA,NA,NA,NA,NA,NaN,NA,2096.0999999940395,left,1,NA,NA,NA,NA,NA
Svia5127,3z33ic0jd3zsmh7cb6nqm2m9m84v9l,3uxuoq9okia63uefcg3c13diakha78,Svia5127,2020-0188,2021-10-31,00:29:18,01:52:19,NA,incomplete,false,NA,NA,true,2,11,NA,NA,NA,right,n_l_053.jpg,white,brown,NA,NA,NA,NA,NA,NA,NA,NA,NA,NaN,NA,1791.5,right,1,NA,NA,NA,NA,NA
Svia5127,3z33ic0jd3zsmh7cb6nqm2m9m84v9l,3uxuoq9okia63uefcg3c13diakha78,Svia5127,2020-0188,2021-10-31,00:29:18,01:52:19,NA,incomplete,false,NA,NA,true,2,12,NA,NA,NA,right,m_l_069.jpg,green,white,NA,NA,NA,NA,NA,NA,NA,NA,NA,NaN,NA,1759.5999999940395,right,1,NA,NA,NA,NA,NA
Svia5127,3z33ic0jd3zsmh7cb6nqm2m9m84v9l,3uxuoq9okia63uefcg3c13diakha78,Svia5127,2020-0188,2021-10-31,00:29:18,01:52:19,NA,incomplete,false,NA,NA,true,2,13,NA,NA,NA,left,m_s_032.jpg,brown,red,NA,NA,NA,NA,NA,NA,NA,NA,NA,NaN,NA,3599.89999999851,left,1,NA,NA,NA,NA,NA
Svia5127,3z33ic0jd3zsmh7cb6nqm2m9m84v9l,3uxuoq9okia63uefcg3c13diakha78,Svia5127,2020-0188,2021-10-31,00:29:18,01:52:19,NA,incomplete,false,NA,NA,true,2,14,NA,NA,NA,right,m_l_097.jpg,green,white,NA,NA,NA,NA,NA,NA,NA,NA,NA,NaN,NA,1719.5,right,1,NA,NA,NA,NA,NA
Svia5127,3z33ic0jd3zsmh7cb6nqm2m9m84v9l,3uxuoq9okia63uefcg3c13diakha78,Svia5127,2020-0188,2021-10-31,00:29:18,01:52:19,NA,incomplete,false,NA,NA,true,2,15,NA,NA,NA,left,n_l_048.jpg,green,black,NA,NA,NA,NA,NA,NA,NA,NA,NA,NaN,NA,4063.10000000149,left,1,NA,NA,NA,NA,NA
Svia5127,3z33ic0jd3zsmh7cb6nqm2m9m84v9l,3uxuoq9okia63uefcg3c13diakha78,Svia5127,2020-0188,2021-10-31,00:29:18,01:52:19,NA,incomplete,false,NA,NA,true,2,16,NA,NA,NA,right,m_s_054.jpg,green,black,NA,NA,NA,NA,NA,NA,NA,NA,NA,NaN,NA,1439,right,1,NA,NA,NA,NA,NA
Svia5127,3z33ic0jd3zsmh7cb6nqm2m9m84v9l,3uxuoq9okia63uefcg3c13diakha78,Svia5127,2020-0188,2021-10-31,00:29:18,01:52:19,NA,incomplete,false,NA,NA,true,2,17,NA,NA,NA,right,m_s_098.jpg,black,blue,NA,NA,NA,NA,NA,NA,NA,NA,NA,NaN,NA,1775.9000000059605,right,1,NA,NA,NA,NA,NA
Svia5127,3z33ic0jd3zsmh7cb6nqm2m9m84v9l,3uxuoq9okia63uefcg3c13diakha78,Svia5127,2020-0188,2021-10-31,00:29:18,01:52:19,NA,incomplete,false,NA,NA,true,2,18,NA,NA,NA,left,n_s_093.jpg,blue,black,NA,NA,NA,NA,NA,NA,NA,NA,NA,NaN,NA,1903.1999999955297,left,1,NA,NA,NA,NA,NA
Svia5127,3z33ic0jd3zsmh7cb6nqm2m9m84v9l,3uxuoq9okia63uefcg3c13diakha78,Svia5127,2020-0188,2021-10-31,00:29:18,01:52:19,NA,incomplete,false,NA,NA,true,2,19,NA,NA,NA,right,n_l_042.jpg,blue,black,NA,NA,NA,NA,NA,NA,NA,NA,NA,NaN,NA,5351.5,right,1,NA,NA,NA,NA,NA
Svia5127,3z33ic0jd3zsmh7cb6nqm2m9m84v9l,3uxuoq9okia63uefcg3c13diakha78,Svia5127,2020-0188,2021-10-31,00:29:18,01:52:19,NA,incomplete,false,NA,NA,true,2,20,NA,NA,NA,right,m_l_059.jpg,green,black,NA,NA,NA,NA,NA,NA,NA,NA,NA,NaN,NA,1599.8999999985099,right,1,NA,NA,NA,NA,NA
Svia5127,3z33ic0jd3zsmh7cb6nqm2m9m84v9l,3uxuoq9okia63uefcg3c13diakha78,Svia5127,2020-0188,2021-10-31,00:29:18,01:52:19,NA,incomplete,false,NA,NA,true,2,21,NA,NA,NA,right,n_s_049.jpg,brown,red,NA,NA,NA,NA,NA,NA,NA,NA,NA,NaN,NA,2503.5999999940395,right,1,NA,NA,NA,NA,NA
Svia5127,3z33ic0jd3zsmh7cb6nqm2m9m84v9l,3uxuoq9okia63uefcg3c13diakha78,Svia5127,2020-0188,2021-10-31,00:29:18,01:52:19,NA,incomplete,false,NA,true,NA,2,0,NA,NA,NA,right,NA,NA,NA,present,NA,NA,m_s_098.jpg,blue,m_s_023.jpg,blue,within,NA,NaN,NA,NA,NA,NA,left,6374.5,0,1,1439
Svia5127,3z33ic0jd3zsmh7cb6nqm2m9m84v9l,3uxuoq9okia63uefcg3c13diakha78,Svia5127,2020-0188,2021-10-31,00:29:18,01:52:19,NA,incomplete,false,NA,true,NA,2,1,NA,NA,NA,left,NA,NA,NA,present,NA,NA,m_l_059.jpg,black,n_l_042.jpg,black,within,NA,NaN,NA,NA,NA,NA,right,3407.60000000149,0,1,1367.8999999985099
Svia5127,3z33ic0jd3zsmh7cb6nqm2m9m84v9l,3uxuoq9okia63uefcg3c13diakha78,Svia5127,2020-0188,2021-10-31,00:29:18,01:52:19,NA,incomplete,false,NA,true,NA,2,2,NA,NA,NA,right,NA,NA,NA,present,NA,NA,n_l_095.jpg,red,n_s_049.jpg,red,within,NA,NaN,NA,NA,NA,NA,right,4679.19999999553,1,0,2311.8000000044703
Svia5127,3z33ic0jd3zsmh7cb6nqm2m9m84v9l,3uxuoq9okia63uefcg3c13diakha78,Svia5127,2020-0188,2021-10-31,00:29:18,01:52:19,NA,incomplete,false,NA,true,NA,2,3,NA,NA,NA,right,NA,NA,NA,present,NA,NA,n_s_116.jpg,green,n_s_028.jpg,black,between,NA,NaN,NA,NA,NA,NA,right,2479.5,1,2,1479.3000000044703
Svia5127,3z33ic0jd3zsmh7cb6nqm2m9m84v9l,3uxuoq9okia63uefcg3c13diakha78,Svia5127,2020-0188,2021-10-31,00:29:18,01:52:19,NA,incomplete,false,NA,true,NA,2,4,NA,NA,NA,left,NA,NA,NA,present,NA,NA,n_s_095.jpg,green,m_l_094.jpg,white,between,NA,NaN,NA,NA,NA,NA,left,5184.10000000149,1,2,2599.7000000029802
Svia5127,3z33ic0jd3zsmh7cb6nqm2m9m84v9l,3uxuoq9okia63uefcg3c13diakha78,Svia5127,2020-0188,2021-10-31,00:29:18,01:52:19,NA,incomplete,false,NA,true,NA,2,5,NA,NA,NA,right,NA,NA,NA,present,NA,NA,m_s_054.jpg,black,n_s_093.jpg,blue,between,NA,NaN,NA,NA,NA,NA,right,4119.60000000149,1,2,1871.3999999985099
Svia5127,3z33ic0jd3zsmh7cb6nqm2m9m84v9l,3uxuoq9okia63uefcg3c13diakha78,Svia5127,2020-0188,2021-10-31,00:29:18,01:52:19,NA,incomplete,false,NA,true,NA,2,6,NA,NA,NA,left,NA,NA,NA,present,NA,NA,m_l_049.jpg,white,m_l_069.jpg,white,within,NA,NaN,NA,NA,NA,NA,right,6759.60000000149,0,0,1207.3999999985099
Svia5127,3z33ic0jd3zsmh7cb6nqm2m9m84v9l,3uxuoq9okia63uefcg3c13diakha78,Svia5127,2020-0188,2021-10-31,00:29:18,01:52:19,NA,incomplete,false,NA,true,NA,2,7,NA,NA,NA,right,NA,NA,NA,present,NA,NA,n_s_036.jpg,brown,m_l_097.jpg,white,between,NA,NaN,NA,NA,NA,NA,right,4831.39999999851,1,2,1366.8000000044703
Svia5127,3z33ic0jd3zsmh7cb6nqm2m9m84v9l,3uxuoq9okia63uefcg3c13diakha78,Svia5127,2020-0188,2021-10-31,00:29:18,01:52:19,NA,incomplete,false,NA,true,NA,2,8,NA,NA,NA,left,NA,NA,NA,present,NA,NA,n_l_048.jpg,green,m_s_036.jpg,green,within,NA,NaN,NA,NA,NA,NA,left,3175.60000000149,1,1,1663.1999999955297
Svia5127,3z33ic0jd3zsmh7cb6nqm2m9m84v9l,3uxuoq9okia63uefcg3c13diakha78,Svia5127,2020-0188,2021-10-31,00:29:18,01:52:19,NA,incomplete,false,NA,true,NA,2,9,NA,NA,NA,left,NA,NA,NA,present,NA,NA,n_l_053.jpg,brown,m_s_032.jpg,brown,within,NA,NaN,NA,NA,NA,NA,left,4319.80000000447,1,1,1367.8999999985099
Svia5127,3z33ic0jd3zsmh7cb6nqm2m9m84v9l,3uxuoq9okia63uefcg3c13diakha78,Svia5127,2020-0188,2021-10-31,00:29:18,01:52:19,NA,incomplete,false,NA,true,NA,2,10,NA,NA,NA,right,NA,NA,NA,present,NA,NA,m_s_065.jpg,red,n_l_055.jpg,brown,between,NA,NaN,NA,NA,NA,NA,right,4591.60000000149,1,2,2279.5
Svia5127,3z33ic0jd3zsmh7cb6nqm2m9m84v9l,3uxuoq9okia63uefcg3c13diakha78,Svia5127,2020-0188,2021-10-31,00:29:18,01:52:19,NA,incomplete,false,true,NA,NA,3,0,NA,green,n_s_065.jpg,NA,NA,NA,NA,NA,unpleasant,pleasant,NA,NA,NA,NA,NA,left,1735.10000000149,true,NA,NA,NA,NA,NA,NA,NA,NA
Svia5127,3z33ic0jd3zsmh7cb6nqm2m9m84v9l,3uxuoq9okia63uefcg3c13diakha78,Svia5127,2020-0188,2021-10-31,00:29:18,01:52:19,NA,incomplete,false,true,NA,NA,3,1,NA,green,m_s_038.jpg,NA,NA,NA,NA,NA,unpleasant,pleasant,NA,NA,NA,NA,NA,left,1422.79999999702,true,NA,NA,NA,NA,NA,NA,NA,NA
Svia5127,3z33ic0jd3zsmh7cb6nqm2m9m84v9l,3uxuoq9okia63uefcg3c13diakha78,Svia5127,2020-0188,2021-10-31,00:29:18,01:52:19,NA,incomplete,false,true,NA,NA,3,2,NA,green,n_s_085.jpg,NA,NA,NA,NA,NA,unpleasant,pleasant,NA,NA,NA,NA,NA,left,632.5,true,NA,NA,NA,NA,NA,NA,NA,NA
Svia5127,3z33ic0jd3zsmh7cb6nqm2m9m84v9l,3uxuoq9okia63uefcg3c13diakha78,Svia5127,2020-0188,2021-10-31,00:29:18,01:52:19,NA,incomplete,false,true,NA,NA,3,3,NA,green,m_s_045.jpg,NA,NA,NA,NA,NA,unpleasant,pleasant,NA,NA,NA,NA,NA,right,1923,true,NA,NA,NA,NA,NA,NA,NA,NA
Svia5127,3z33ic0jd3zsmh7cb6nqm2m9m84v9l,3uxuoq9okia63uefcg3c13diakha78,Svia5127,2020-0188,2021-10-31,00:29:18,01:52:19,NA,incomplete,false,true,NA,NA,3,4,NA,green,m_s_060.jpg,NA,NA,NA,NA,NA,unpleasant,pleasant,NA,NA,NA,NA,NA,right,680.89999999851,true,NA,NA,NA,NA,NA,NA,NA,NA
Svia5127,3z33ic0jd3zsmh7cb6nqm2m9m84v9l,3uxuoq9okia63uefcg3c13diakha78,Svia5127,2020-0188,2021-10-31,00:29:18,01:52:19,NA,incomplete,false,true,NA,NA,3,5,NA,green,m_s_001.jpg,NA,NA,NA,NA,NA,pleasant,unpleasant,NA,NA,NA,NA,NA,left,1985.30000000447,true,NA,NA,NA,NA,NA,NA,NA,NA
Svia5127,3z33ic0jd3zsmh7cb6nqm2m9m84v9l,3uxuoq9okia63uefcg3c13diakha78,Svia5127,2020-0188,2021-10-31,00:29:18,01:52:19,NA,incomplete,false,true,NA,NA,3,6,NA,white,m_l_087.jpg,NA,NA,NA,NA,NA,pleasant,unpleasant,NA,NA,NA,NA,NA,left,1443.10000000149,true,NA,NA,NA,NA,NA,NA,NA,NA
Svia5127,3z33ic0jd3zsmh7cb6nqm2m9m84v9l,3uxuoq9okia63uefcg3c13diakha78,Svia5127,2020-0188,2021-10-31,00:29:18,01:52:19,NA,incomplete,false,true,NA,NA,3,7,NA,white,n_s_018.jpg,NA,NA,NA,NA,NA,unpleasant,pleasant,NA,NA,NA,NA,NA,left,1290,true,NA,NA,NA,NA,NA,NA,NA,NA
Svia5127,3z33ic0jd3zsmh7cb6nqm2m9m84v9l,3uxuoq9okia63uefcg3c13diakha78,Svia5127,2020-0188,2021-10-31,00:29:18,01:52:19,NA,incomplete,false,true,NA,NA,3,8,NA,white,n_l_052.jpg,NA,NA,NA,NA,NA,unpleasant,pleasant,NA,NA,NA,NA,NA,right,1820.5,true,NA,NA,NA,NA,NA,NA,NA,NA
Svia5127,3z33ic0jd3zsmh7cb6nqm2m9m84v9l,3uxuoq9okia63uefcg3c13diakha78,Svia5127,2020-0188,2021-10-31,00:29:18,01:52:19,NA,incomplete,false,true,NA,NA,3,9,NA,white,m_l_045.jpg,NA,NA,NA,NA,NA,unpleasant,pleasant,NA,NA,NA,NA,NA,left,1925.39999999851,true,NA,NA,NA,NA,NA,NA,NA,NA
Svia5127,3z33ic0jd3zsmh7cb6nqm2m9m84v9l,3uxuoq9okia63uefcg3c13diakha78,Svia5127,2020-0188,2021-10-31,00:29:18,01:52:19,NA,incomplete,false,true,NA,NA,3,10,NA,white,n_l_002.jpg,NA,NA,NA,NA,NA,pleasant,unpleasant,NA,NA,NA,NA,NA,left,1469.69999999553,true,NA,NA,NA,NA,NA,NA,NA,NA
Svia5127,3z33ic0jd3zsmh7cb6nqm2m9m84v9l,3uxuoq9okia63uefcg3c13diakha78,Svia5127,2020-0188,2021-10-31,00:29:18,01:52:19,NA,incomplete,false,true,NA,NA,3,11,NA,white,n_s_031.jpg,NA,NA,NA,NA,NA,pleasant,unpleasant,NA,NA,NA,NA,NA,left,1540.5,true,NA,NA,NA,NA,NA,NA,NA,NA
Svia5127,3z33ic0jd3zsmh7cb6nqm2m9m84v9l,3uxuoq9okia63uefcg3c13diakha78,Svia5127,2020-0188,2021-10-31,00:29:18,01:52:19,NA,incomplete,false,true,NA,NA,3,12,NA,red,m_s_062.jpg,NA,NA,NA,NA,NA,unpleasant,pleasant,NA,NA,NA,NA,NA,right,2484.19999999553,true,NA,NA,NA,NA,NA,NA,NA,NA
Svia5127,3z33ic0jd3zsmh7cb6nqm2m9m84v9l,3uxuoq9okia63uefcg3c13diakha78,Svia5127,2020-0188,2021-10-31,00:29:18,01:52:19,NA,incomplete,false,true,NA,NA,3,13,NA,red,m_s_111.jpg,NA,NA,NA,NA,NA,unpleasant,pleasant,NA,NA,NA,NA,NA,right,900.69999999553,true,NA,NA,NA,NA,NA,NA,NA,NA
Svia5127,3z33ic0jd3zsmh7cb6nqm2m9m84v9l,3uxuoq9okia63uefcg3c13diakha78,Svia5127,2020-0188,2021-10-31,00:29:18,01:52:19,NA,incomplete,false,true,NA,NA,3,14,NA,red,m_l_106.jpg,NA,NA,NA,NA,NA,pleasant,unpleasant,NA,NA,NA,NA,NA,left,1566.5,true,NA,NA,NA,NA,NA,NA,NA,NA
Svia5127,3z33ic0jd3zsmh7cb6nqm2m9m84v9l,3uxuoq9okia63uefcg3c13diakha78,Svia5127,2020-0188,2021-10-31,00:29:18,01:52:19,NA,incomplete,false,true,NA,NA,3,15,NA,red,n_l_087.jpg,NA,NA,NA,NA,NA,pleasant,unpleasant,NA,NA,NA,NA,NA,left,1294.10000000149,true,NA,NA,NA,NA,NA,NA,NA,NA
Svia5127,3z33ic0jd3zsmh7cb6nqm2m9m84v9l,3uxuoq9okia63uefcg3c13diakha78,Svia5127,2020-0188,2021-10-31,00:29:18,01:52:19,NA,incomplete,false,true,NA,NA,3,16,NA,red,n_l_111.jpg,NA,NA,NA,NA,NA,unpleasant,pleasant,NA,NA,NA,NA,NA,right,1400.39999999851,true,NA,NA,NA,NA,NA,NA,NA,NA
Svia5127,3z33ic0jd3zsmh7cb6nqm2m9m84v9l,3uxuoq9okia63uefcg3c13diakha78,Svia5127,2020-0188,2021-10-31,00:29:18,01:52:19,NA,incomplete,false,true,NA,NA,3,17,NA,red,m_l_026.jpg,NA,NA,NA,NA,NA,unpleasant,pleasant,NA,NA,NA,NA,NA,right,914.20000000298,true,NA,NA,NA,NA,NA,NA,NA,NA
Svia5127,3z33ic0jd3zsmh7cb6nqm2m9m84v9l,3uxuoq9okia63uefcg3c13diakha78,Svia5127,2020-0188,2021-10-31,00:29:18,01:52:19,NA,incomplete,false,true,NA,NA,3,18,NA,blue,n_s_024.jpg,NA,NA,NA,NA,NA,pleasant,unpleasant,NA,NA,NA,NA,NA,left,1875.39999999851,true,NA,NA,NA,NA,NA,NA,NA,NA
Svia5127,3z33ic0jd3zsmh7cb6nqm2m9m84v9l,3uxuoq9okia63uefcg3c13diakha78,Svia5127,2020-0188,2021-10-31,00:29:18,01:52:19,NA,incomplete,false,true,NA,NA,3,19,NA,blue,m_l_116.jpg,NA,NA,NA,NA,NA,pleasant,unpleasant,NA,NA,NA,NA,NA,left,1330.60000000149,true,NA,NA,NA,NA,NA,NA,NA,NA
Svia5127,3z33ic0jd3zsmh7cb6nqm2m9m84v9l,3uxuoq9okia63uefcg3c13diakha78,Svia5127,2020-0188,2021-10-31,00:29:18,01:52:19,NA,incomplete,false,true,NA,NA,3,20,NA,blue,m_l_024.jpg,NA,NA,NA,NA,NA,unpleasant,pleasant,NA,NA,NA,NA,NA,left,2554.10000000149,true,NA,NA,NA,NA,NA,NA,NA,NA
Svia5127,3z33ic0jd3zsmh7cb6nqm2m9m84v9l,3uxuoq9okia63uefcg3c13diakha78,Svia5127,2020-0188,2021-10-31,00:29:18,01:52:19,NA,incomplete,false,true,NA,NA,3,21,NA,blue,n_l_100.jpg,NA,NA,NA,NA,NA,pleasant,unpleasant,NA,NA,NA,NA,NA,right,2355.20000000298,true,NA,NA,NA,NA,NA,NA,NA,NA
Svia5127,3z33ic0jd3zsmh7cb6nqm2m9m84v9l,3uxuoq9okia63uefcg3c13diakha78,Svia5127,2020-0188,2021-10-31,00:29:18,01:52:19,NA,incomplete,false,true,NA,NA,3,22,NA,blue,m_l_028.jpg,NA,NA,NA,NA,NA,pleasant,unpleasant,NA,NA,NA,NA,NA,left,1106.90000000596,true,NA,NA,NA,NA,NA,NA,NA,NA
Svia5127,3z33ic0jd3zsmh7cb6nqm2m9m84v9l,3uxuoq9okia63uefcg3c13diakha78,Svia5127,2020-0188,2021-10-31,00:29:18,01:52:19,NA,incomplete,false,true,NA,NA,3,23,NA,blue,n_s_110.jpg,NA,NA,NA,NA,NA,pleasant,unpleasant,NA,NA,NA,NA,NA,right,1259.5,true,NA,NA,NA,NA,NA,NA,NA,NA
Svia5127,3z33ic0jd3zsmh7cb6nqm2m9m84v9l,3uxuoq9okia63uefcg3c13diakha78,Svia5127,2020-0188,2021-10-31,00:29:18,01:52:19,NA,incomplete,false,true,NA,NA,3,24,NA,orange,m_s_030.jpg,NA,NA,NA,NA,NA,pleasant,unpleasant,NA,NA,NA,NA,NA,left,1595.5,true,NA,NA,NA,NA,NA,NA,NA,NA
Svia5127,3z33ic0jd3zsmh7cb6nqm2m9m84v9l,3uxuoq9okia63uefcg3c13diakha78,Svia5127,2020-0188,2021-10-31,00:29:18,01:52:19,NA,incomplete,false,true,NA,NA,3,25,NA,orange,m_s_041.jpg,NA,NA,NA,NA,NA,unpleasant,pleasant,NA,NA,NA,NA,NA,right,1171.29999999702,true,NA,NA,NA,NA,NA,NA,NA,NA
Svia5127,3z33ic0jd3zsmh7cb6nqm2m9m84v9l,3uxuoq9okia63uefcg3c13diakha78,Svia5127,2020-0188,2021-10-31,00:29:18,01:52:19,NA,incomplete,false,true,NA,NA,3,26,NA,orange,m_s_075.jpg,NA,NA,NA,NA,NA,pleasant,unpleasant,NA,NA,NA,NA,NA,right,1865,true,NA,NA,NA,NA,NA,NA,NA,NA
Svia5127,3z33ic0jd3zsmh7cb6nqm2m9m84v9l,3uxuoq9okia63uefcg3c13diakha78,Svia5127,2020-0188,2021-10-31,00:29:18,01:52:19,NA,incomplete,false,true,NA,NA,3,27,NA,orange,n_s_009.jpg,NA,NA,NA,NA,NA,unpleasant,pleasant,NA,NA,NA,NA,NA,right,1364.20000000298,true,NA,NA,NA,NA,NA,NA,NA,NA
Svia5127,3z33ic0jd3zsmh7cb6nqm2m9m84v9l,3uxuoq9okia63uefcg3c13diakha78,Svia5127,2020-0188,2021-10-31,00:29:18,01:52:19,NA,incomplete,false,true,NA,NA,3,28,NA,orange,n_l_098.jpg,NA,NA,NA,NA,NA,unpleasant,pleasant,NA,NA,NA,NA,NA,right,1107.89999999851,true,NA,NA,NA,NA,NA,NA,NA,NA
Svia5127,3z33ic0jd3zsmh7cb6nqm2m9m84v9l,3uxuoq9okia63uefcg3c13diakha78,Svia5127,2020-0188,2021-10-31,00:29:18,01:52:19,NA,incomplete,false,true,NA,NA,3,29,NA,orange,m_s_081.jpg,NA,NA,NA,NA,NA,unpleasant,pleasant,NA,NA,NA,NA,NA,left,1365.29999999702,true,NA,NA,NA,NA,NA,NA,NA,NA
Svia5127,3z33ic0jd3zsmh7cb6nqm2m9m84v9l,3uxuoq9okia63uefcg3c13diakha78,Svia5127,2020-0188,2021-10-31,00:29:18,01:52:19,NA,incomplete,false,true,NA,NA,3,30,NA,yellow,n_l_066.jpg,NA,NA,NA,NA,NA,unpleasant,pleasant,NA,NA,NA,NA,NA,left,1695.29999999702,true,NA,NA,NA,NA,NA,NA,NA,NA
Svia5127,3z33ic0jd3zsmh7cb6nqm2m9m84v9l,3uxuoq9okia63uefcg3c13diakha78,Svia5127,2020-0188,2021-10-31,00:29:18,01:52:19,NA,incomplete,false,true,NA,NA,3,31,NA,yellow,m_l_096.jpg,NA,NA,NA,NA,NA,pleasant,unpleasant,NA,NA,NA,NA,NA,right,1790.69999999553,true,NA,NA,NA,NA,NA,NA,NA,NA
Svia5127,3z33ic0jd3zsmh7cb6nqm2m9m84v9l,3uxuoq9okia63uefcg3c13diakha78,Svia5127,2020-0188,2021-10-31,00:29:18,01:52:19,NA,incomplete,false,true,NA,NA,3,32,NA,yellow,m_l_065.jpg,NA,NA,NA,NA,NA,pleasant,unpleasant,NA,NA,NA,NA,NA,left,1329.20000000298,true,NA,NA,NA,NA,NA,NA,NA,NA
Svia5127,3z33ic0jd3zsmh7cb6nqm2m9m84v9l,3uxuoq9okia63uefcg3c13diakha78,Svia5127,2020-0188,2021-10-31,00:29:18,01:52:19,NA,incomplete,false,true,NA,NA,3,33,NA,yellow,n_s_038.jpg,NA,NA,NA,NA,NA,unpleasant,pleasant,NA,NA,NA,NA,NA,left,1354.39999999851,true,NA,NA,NA,NA,NA,NA,NA,NA
Svia5127,3z33ic0jd3zsmh7cb6nqm2m9m84v9l,3uxuoq9okia63uefcg3c13diakha78,Svia5127,2020-0188,2021-10-31,00:29:18,01:52:19,NA,incomplete,false,true,NA,NA,3,34,NA,yellow,n_l_041.jpg,NA,NA,NA,NA,NA,pleasant,unpleasant,NA,NA,NA,NA,NA,right,1067,true,NA,NA,NA,NA,NA,NA,NA,NA
Svia5127,3z33ic0jd3zsmh7cb6nqm2m9m84v9l,3uxuoq9okia63uefcg3c13diakha78,Svia5127,2020-0188,2021-10-31,00:29:18,01:52:19,NA,incomplete,false,true,NA,NA,3,35,NA,yellow,n_s_064.jpg,NA,NA,NA,NA,NA,pleasant,unpleasant,NA,NA,NA,NA,NA,right,1608.69999999553,true,NA,NA,NA,NA,NA,NA,NA,NA
Svia5127,3z33ic0jd3zsmh7cb6nqm2m9m84v9l,3uxuoq9okia63uefcg3c13diakha78,Svia5127,2020-0188,2021-10-31,00:29:18,01:52:19,NA,incomplete,false,NA,NA,true,3,0,NA,NA,NA,left,m_s_038.jpg,green,white,NA,NA,NA,NA,NA,NA,NA,NA,NA,NaN,NA,5126.60000000149,left,1,NA,NA,NA,NA,NA
Svia5127,3z33ic0jd3zsmh7cb6nqm2m9m84v9l,3uxuoq9okia63uefcg3c13diakha78,Svia5127,2020-0188,2021-10-31,00:29:18,01:52:19,NA,incomplete,false,NA,NA,true,3,1,NA,NA,NA,left,n_l_111.jpg,red,white,NA,NA,NA,NA,NA,NA,NA,NA,NA,NaN,NA,1759.3999999985099,left,1,NA,NA,NA,NA,NA
Svia5127,3z33ic0jd3zsmh7cb6nqm2m9m84v9l,3uxuoq9okia63uefcg3c13diakha78,Svia5127,2020-0188,2021-10-31,00:29:18,01:52:19,NA,incomplete,false,NA,NA,true,3,2,NA,NA,NA,right,n_s_064.jpg,orange,yellow,NA,NA,NA,NA,NA,NA,NA,NA,NA,NaN,NA,1671.3999999985099,right,1,NA,NA,NA,NA,NA
Svia5127,3z33ic0jd3zsmh7cb6nqm2m9m84v9l,3uxuoq9okia63uefcg3c13diakha78,Svia5127,2020-0188,2021-10-31,00:29:18,01:52:19,NA,incomplete,false,NA,NA,true,3,3,NA,NA,NA,left,m_s_081.jpg,orange,yellow,NA,NA,NA,NA,NA,NA,NA,NA,NA,NaN,NA,3406.6999999955297,left,1,NA,NA,NA,NA,NA
Svia5127,3z33ic0jd3zsmh7cb6nqm2m9m84v9l,3uxuoq9okia63uefcg3c13diakha78,Svia5127,2020-0188,2021-10-31,00:29:18,01:52:19,NA,incomplete,false,NA,NA,true,3,4,NA,NA,NA,right,m_s_041.jpg,blue,orange,NA,NA,NA,NA,NA,NA,NA,NA,NA,NaN,NA,10887.29999999702,right,1,NA,NA,NA,NA,NA
Svia5127,3z33ic0jd3zsmh7cb6nqm2m9m84v9l,3uxuoq9okia63uefcg3c13diakha78,Svia5127,2020-0188,2021-10-31,00:29:18,01:52:19,NA,incomplete,false,NA,NA,true,3,5,NA,NA,NA,left,m_l_106.jpg,red,white,NA,NA,NA,NA,NA,NA,NA,NA,NA,NaN,NA,1903.3999999985099,left,1,NA,NA,NA,NA,NA
Svia5127,3z33ic0jd3zsmh7cb6nqm2m9m84v9l,3uxuoq9okia63uefcg3c13diakha78,Svia5127,2020-0188,2021-10-31,00:29:18,01:52:19,NA,incomplete,false,NA,NA,true,3,6,NA,NA,NA,right,m_l_028.jpg,orange,blue,NA,NA,NA,NA,NA,NA,NA,NA,NA,NaN,NA,2575.89999999851,right,1,NA,NA,NA,NA,NA
Svia5127,3z33ic0jd3zsmh7cb6nqm2m9m84v9l,3uxuoq9okia63uefcg3c13diakha78,Svia5127,2020-0188,2021-10-31,00:29:18,01:52:19,NA,incomplete,false,NA,NA,true,3,7,NA,NA,NA,right,m_l_026.jpg,white,red,NA,NA,NA,NA,NA,NA,NA,NA,NA,NaN,NA,2102.89999999851,right,1,NA,NA,NA,NA,NA
Svia5127,3z33ic0jd3zsmh7cb6nqm2m9m84v9l,3uxuoq9okia63uefcg3c13diakha78,Svia5127,2020-0188,2021-10-31,00:29:18,01:52:19,NA,incomplete,false,NA,NA,true,3,8,NA,NA,NA,right,m_s_001.jpg,white,green,NA,NA,NA,NA,NA,NA,NA,NA,NA,NaN,NA,3255.5,left,0,NA,NA,NA,NA,NA
Svia5127,3z33ic0jd3zsmh7cb6nqm2m9m84v9l,3uxuoq9okia63uefcg3c13diakha78,Svia5127,2020-0188,2021-10-31,00:29:18,01:52:19,NA,incomplete,false,NA,NA,true,3,9,NA,NA,NA,left,m_l_116.jpg,blue,red,NA,NA,NA,NA,NA,NA,NA,NA,NA,NaN,NA,1791,right,0,NA,NA,NA,NA,NA
Svia5127,3z33ic0jd3zsmh7cb6nqm2m9m84v9l,3uxuoq9okia63uefcg3c13diakha78,Svia5127,2020-0188,2021-10-31,00:29:18,01:52:19,NA,incomplete,false,NA,NA,true,3,10,NA,NA,NA,right,m_s_060.jpg,white,green,NA,NA,NA,NA,NA,NA,NA,NA,NA,NaN,NA,1543.0999999940395,right,1,NA,NA,NA,NA,NA
Svia5127,3z33ic0jd3zsmh7cb6nqm2m9m84v9l,3uxuoq9okia63uefcg3c13diakha78,Svia5127,2020-0188,2021-10-31,00:29:18,01:52:19,NA,incomplete,false,NA,NA,true,3,11,NA,NA,NA,right,m_s_075.jpg,blue,orange,NA,NA,NA,NA,NA,NA,NA,NA,NA,NaN,NA,1399.8999999985099,right,1,NA,NA,NA,NA,NA
Svia5127,3z33ic0jd3zsmh7cb6nqm2m9m84v9l,3uxuoq9okia63uefcg3c13diakha78,Svia5127,2020-0188,2021-10-31,00:29:18,01:52:19,NA,incomplete,false,NA,NA,true,3,12,NA,NA,NA,right,n_s_110.jpg,orange,blue,NA,NA,NA,NA,NA,NA,NA,NA,NA,NaN,NA,5694.69999999553,right,1,NA,NA,NA,NA,NA
Svia5127,3z33ic0jd3zsmh7cb6nqm2m9m84v9l,3uxuoq9okia63uefcg3c13diakha78,Svia5127,2020-0188,2021-10-31,00:29:18,01:52:19,NA,incomplete,false,NA,NA,true,3,13,NA,NA,NA,right,n_s_018.jpg,green,white,NA,NA,NA,NA,NA,NA,NA,NA,NA,NaN,NA,2223.2999999970198,right,1,NA,NA,NA,NA,NA
Svia5127,3z33ic0jd3zsmh7cb6nqm2m9m84v9l,3uxuoq9okia63uefcg3c13diakha78,Svia5127,2020-0188,2021-10-31,00:29:18,01:52:19,NA,incomplete,false,NA,NA,true,3,14,NA,NA,NA,right,m_s_111.jpg,blue,red,NA,NA,NA,NA,NA,NA,NA,NA,NA,NaN,NA,1551.5,right,1,NA,NA,NA,NA,NA
Svia5127,3z33ic0jd3zsmh7cb6nqm2m9m84v9l,3uxuoq9okia63uefcg3c13diakha78,Svia5127,2020-0188,2021-10-31,00:29:18,01:52:19,NA,incomplete,false,NA,NA,true,3,15,NA,NA,NA,right,n_l_098.jpg,blue,orange,NA,NA,NA,NA,NA,NA,NA,NA,NA,NaN,NA,6519.60000000149,right,1,NA,NA,NA,NA,NA
Svia5127,3z33ic0jd3zsmh7cb6nqm2m9m84v9l,3uxuoq9okia63uefcg3c13diakha78,Svia5127,2020-0188,2021-10-31,00:29:18,01:52:19,NA,incomplete,false,NA,NA,true,3,16,NA,NA,NA,left,n_l_002.jpg,white,green,NA,NA,NA,NA,NA,NA,NA,NA,NA,NaN,NA,3655.2999999970198,left,1,NA,NA,NA,NA,NA
Svia5127,3z33ic0jd3zsmh7cb6nqm2m9m84v9l,3uxuoq9okia63uefcg3c13diakha78,Svia5127,2020-0188,2021-10-31,00:29:18,01:52:19,NA,incomplete,false,NA,NA,true,3,17,NA,NA,NA,right,n_s_031.jpg,red,white,NA,NA,NA,NA,NA,NA,NA,NA,NA,NaN,NA,2207.5,right,1,NA,NA,NA,NA,NA
Svia5127,3z33ic0jd3zsmh7cb6nqm2m9m84v9l,3uxuoq9okia63uefcg3c13diakha78,Svia5127,2020-0188,2021-10-31,00:29:18,01:52:19,NA,incomplete,false,NA,NA,true,3,18,NA,NA,NA,left,m_l_065.jpg,yellow,orange,NA,NA,NA,NA,NA,NA,NA,NA,NA,NaN,NA,2095.10000000149,left,1,NA,NA,NA,NA,NA
Svia5127,3z33ic0jd3zsmh7cb6nqm2m9m84v9l,3uxuoq9okia63uefcg3c13diakha78,Svia5127,2020-0188,2021-10-31,00:29:18,01:52:19,NA,incomplete,false,NA,NA,true,3,19,NA,NA,NA,right,n_l_052.jpg,green,white,NA,NA,NA,NA,NA,NA,NA,NA,NA,NaN,NA,2319.7999999970198,right,1,NA,NA,NA,NA,NA
Svia5127,3z33ic0jd3zsmh7cb6nqm2m9m84v9l,3uxuoq9okia63uefcg3c13diakha78,Svia5127,2020-0188,2021-10-31,00:29:18,01:52:19,NA,incomplete,false,NA,NA,true,3,20,NA,NA,NA,right,m_l_024.jpg,orange,blue,NA,NA,NA,NA,NA,NA,NA,NA,NA,NaN,NA,4935,left,0,NA,NA,NA,NA,NA
Svia5127,3z33ic0jd3zsmh7cb6nqm2m9m84v9l,3uxuoq9okia63uefcg3c13diakha78,Svia5127,2020-0188,2021-10-31,00:29:18,01:52:19,NA,incomplete,false,NA,NA,true,3,21,NA,NA,NA,right,m_l_096.jpg,orange,yellow,NA,NA,NA,NA,NA,NA,NA,NA,NA,NaN,NA,1527.5,right,1,NA,NA,NA,NA,NA
Svia5127,3z33ic0jd3zsmh7cb6nqm2m9m84v9l,3uxuoq9okia63uefcg3c13diakha78,Svia5127,2020-0188,2021-10-31,00:29:18,01:52:19,NA,incomplete,false,NA,true,NA,3,0,NA,NA,NA,left,NA,NA,NA,present,NA,NA,m_s_041.jpg,orange,m_s_081.jpg,orange,within,NA,NaN,NA,NA,NA,NA,left,7487.19999999553,1,1,1151.3999999985099
Svia5127,3z33ic0jd3zsmh7cb6nqm2m9m84v9l,3uxuoq9okia63uefcg3c13diakha78,Svia5127,2020-0188,2021-10-31,00:29:18,01:52:19,NA,incomplete,false,NA,true,NA,3,1,NA,NA,NA,right,NA,NA,NA,present,NA,NA,m_s_001.jpg,green,m_s_038.jpg,green,within,NA,NaN,NA,NA,NA,NA,left,3215,0,1,1423
Svia5127,3z33ic0jd3zsmh7cb6nqm2m9m84v9l,3uxuoq9okia63uefcg3c13diakha78,Svia5127,2020-0188,2021-10-31,00:29:18,01:52:19,NA,incomplete,false,NA,true,NA,3,2,NA,NA,NA,left,NA,NA,NA,present,NA,NA,n_s_018.jpg,white,n_s_031.jpg,white,within,NA,NaN,NA,NA,NA,NA,left,4543.60000000149,1,1,1919.2999999970198
Svia5127,3z33ic0jd3zsmh7cb6nqm2m9m84v9l,3uxuoq9okia63uefcg3c13diakha78,Svia5127,2020-0188,2021-10-31,00:29:18,01:52:19,NA,incomplete,false,NA,true,NA,3,3,NA,NA,NA,left,NA,NA,NA,present,NA,NA,n_l_098.jpg,orange,m_l_065.jpg,yellow,between,NA,NaN,NA,NA,NA,NA,left,4686.79999999702,1,2,1623
Svia5127,3z33ic0jd3zsmh7cb6nqm2m9m84v9l,3uxuoq9okia63uefcg3c13diakha78,Svia5127,2020-0188,2021-10-31,00:29:18,01:52:19,NA,incomplete,false,NA,true,NA,3,4,NA,NA,NA,left,NA,NA,NA,present,NA,NA,m_l_116.jpg,blue,n_s_110.jpg,blue,within,NA,NaN,NA,NA,NA,NA,right,2959,0,1,3071.39999999851
Svia5127,3z33ic0jd3zsmh7cb6nqm2m9m84v9l,3uxuoq9okia63uefcg3c13diakha78,Svia5127,2020-0188,2021-10-31,00:29:18,01:52:19,NA,incomplete,false,NA,true,NA,3,5,NA,NA,NA,right,NA,NA,NA,present,NA,NA,m_s_075.jpg,orange,m_l_028.jpg,blue,between,NA,NaN,NA,NA,NA,NA,right,4919.69999999553,1,2,1014.8999999985099
Svia5127,3z33ic0jd3zsmh7cb6nqm2m9m84v9l,3uxuoq9okia63uefcg3c13diakha78,Svia5127,2020-0188,2021-10-31,00:29:18,01:52:19,NA,incomplete,false,NA,true,NA,3,6,NA,NA,NA,left,NA,NA,NA,present,NA,NA,n_l_111.jpg,red,m_l_024.jpg,blue,between,NA,NaN,NA,NA,NA,NA,left,5223.19999999553,1,2,1751.2999999970198
Svia5127,3z33ic0jd3zsmh7cb6nqm2m9m84v9l,3uxuoq9okia63uefcg3c13diakha78,Svia5127,2020-0188,2021-10-31,00:29:18,01:52:19,NA,incomplete,false,NA,true,NA,3,7,NA,NA,NA,right,NA,NA,NA,present,NA,NA,n_s_064.jpg,yellow,m_l_096.jpg,yellow,within,NA,NaN,NA,NA,NA,NA,right,2974.89999999851,1,1,1455.6000000014901
Svia5127,3z33ic0jd3zsmh7cb6nqm2m9m84v9l,3uxuoq9okia63uefcg3c13diakha78,Svia5127,2020-0188,2021-10-31,00:29:18,01:52:19,NA,incomplete,false,NA,true,NA,3,8,NA,NA,NA,right,NA,NA,NA,present,NA,NA,n_l_052.jpg,white,m_s_060.jpg,green,between,NA,NaN,NA,NA,NA,NA,right,5350.89999999851,1,2,2479.2999999970198
Svia5127,3z33ic0jd3zsmh7cb6nqm2m9m84v9l,3uxuoq9okia63uefcg3c13diakha78,Svia5127,2020-0188,2021-10-31,00:29:18,01:52:19,NA,incomplete,false,NA,true,NA,3,9,NA,NA,NA,left,NA,NA,NA,present,NA,NA,n_l_002.jpg,white,m_l_106.jpg,red,between,NA,NaN,NA,NA,NA,NA,left,4127.70000000298,1,2,1895.7000000029802
Svia5127,3z33ic0jd3zsmh7cb6nqm2m9m84v9l,3uxuoq9okia63uefcg3c13diakha78,Svia5127,2020-0188,2021-10-31,00:29:18,01:52:19,NA,incomplete,false,NA,true,NA,3,10,NA,NA,NA,right,NA,NA,NA,present,NA,NA,m_l_026.jpg,red,m_s_111.jpg,red,within,NA,NaN,NA,NA,NA,NA,right,2479.5,1,1,1598.8999999985099
Svia5127,3z33ic0jd3zsmh7cb6nqm2m9m84v9l,3uxuoq9okia63uefcg3c13diakha78,Svia5127,2020-0188,2021-10-31,00:29:18,01:52:19,NA,incomplete,false,true,NA,NA,4,0,NA,brown,m_l_062.jpg,NA,NA,NA,NA,NA,pleasant,unpleasant,NA,NA,NA,NA,NA,left,1958,true,NA,NA,NA,NA,NA,NA,NA,NA
Svia5127,3z33ic0jd3zsmh7cb6nqm2m9m84v9l,3uxuoq9okia63uefcg3c13diakha78,Svia5127,2020-0188,2021-10-31,00:29:18,01:52:19,NA,incomplete,false,true,NA,NA,4,1,NA,brown,n_s_076.jpg,NA,NA,NA,NA,NA,pleasant,unpleasant,NA,NA,NA,NA,NA,left,1939.40000000596,true,NA,NA,NA,NA,NA,NA,NA,NA
Svia5127,3z33ic0jd3zsmh7cb6nqm2m9m84v9l,3uxuoq9okia63uefcg3c13diakha78,Svia5127,2020-0188,2021-10-31,00:29:18,01:52:19,NA,incomplete,false,true,NA,NA,4,2,NA,brown,m_s_091.jpg,NA,NA,NA,NA,NA,unpleasant,pleasant,NA,NA,NA,NA,NA,right,2335.89999999851,true,NA,NA,NA,NA,NA,NA,NA,NA
Svia5127,3z33ic0jd3zsmh7cb6nqm2m9m84v9l,3uxuoq9okia63uefcg3c13diakha78,Svia5127,2020-0188,2021-10-31,00:29:18,01:52:19,NA,incomplete,false,true,NA,NA,4,3,NA,brown,n_l_061.jpg,NA,NA,NA,NA,NA,unpleasant,pleasant,NA,NA,NA,NA,NA,right,2042.60000000149,true,NA,NA,NA,NA,NA,NA,NA,NA
Svia5127,3z33ic0jd3zsmh7cb6nqm2m9m84v9l,3uxuoq9okia63uefcg3c13diakha78,Svia5127,2020-0188,2021-10-31,00:29:18,01:52:19,NA,incomplete,false,true,NA,NA,4,4,NA,brown,m_l_007.jpg,NA,NA,NA,NA,NA,pleasant,unpleasant,NA,NA,NA,NA,NA,left,1633.10000000149,true,NA,NA,NA,NA,NA,NA,NA,NA
Svia5127,3z33ic0jd3zsmh7cb6nqm2m9m84v9l,3uxuoq9okia63uefcg3c13diakha78,Svia5127,2020-0188,2021-10-31,00:29:18,01:52:19,NA,incomplete,false,true,NA,NA,4,5,NA,brown,n_l_014.jpg,NA,NA,NA,NA,NA,unpleasant,pleasant,NA,NA,NA,NA,NA,right,1360.10000000149,true,NA,NA,NA,NA,NA,NA,NA,NA
Svia5127,3z33ic0jd3zsmh7cb6nqm2m9m84v9l,3uxuoq9okia63uefcg3c13diakha78,Svia5127,2020-0188,2021-10-31,00:29:18,01:52:19,NA,incomplete,false,true,NA,NA,4,6,NA,yellow,n_s_058.jpg,NA,NA,NA,NA,NA,pleasant,unpleasant,NA,NA,NA,NA,NA,left,1281.10000000149,true,NA,NA,NA,NA,NA,NA,NA,NA
Svia5127,3z33ic0jd3zsmh7cb6nqm2m9m84v9l,3uxuoq9okia63uefcg3c13diakha78,Svia5127,2020-0188,2021-10-31,00:29:18,01:52:19,NA,incomplete,false,true,NA,NA,4,7,NA,yellow,m_l_036.jpg,NA,NA,NA,NA,NA,unpleasant,pleasant,NA,NA,NA,NA,NA,left,1235,true,NA,NA,NA,NA,NA,NA,NA,NA
Svia5127,3z33ic0jd3zsmh7cb6nqm2m9m84v9l,3uxuoq9okia63uefcg3c13diakha78,Svia5127,2020-0188,2021-10-31,00:29:18,01:52:19,NA,incomplete,false,true,NA,NA,4,8,NA,yellow,n_l_099.jpg,NA,NA,NA,NA,NA,unpleasant,pleasant,NA,NA,NA,NA,NA,left,1558.5,true,NA,NA,NA,NA,NA,NA,NA,NA
Svia5127,3z33ic0jd3zsmh7cb6nqm2m9m84v9l,3uxuoq9okia63uefcg3c13diakha78,Svia5127,2020-0188,2021-10-31,00:29:18,01:52:19,NA,incomplete,false,true,NA,NA,4,9,NA,yellow,n_s_012.jpg,NA,NA,NA,NA,NA,unpleasant,pleasant,NA,NA,NA,NA,NA,right,1377.19999999553,true,NA,NA,NA,NA,NA,NA,NA,NA
Svia5127,3z33ic0jd3zsmh7cb6nqm2m9m84v9l,3uxuoq9okia63uefcg3c13diakha78,Svia5127,2020-0188,2021-10-31,00:29:18,01:52:19,NA,incomplete,false,true,NA,NA,4,10,NA,yellow,n_l_078.jpg,NA,NA,NA,NA,NA,pleasant,unpleasant,NA,NA,NA,NA,NA,left,1066,true,NA,NA,NA,NA,NA,NA,NA,NA
Svia5127,3z33ic0jd3zsmh7cb6nqm2m9m84v9l,3uxuoq9okia63uefcg3c13diakha78,Svia5127,2020-0188,2021-10-31,00:29:18,01:52:19,NA,incomplete,false,true,NA,NA,4,11,NA,yellow,n_s_055.jpg,NA,NA,NA,NA,NA,unpleasant,pleasant,NA,NA,NA,NA,NA,left,2241.20000000298,true,NA,NA,NA,NA,NA,NA,NA,NA
Svia5127,3z33ic0jd3zsmh7cb6nqm2m9m84v9l,3uxuoq9okia63uefcg3c13diakha78,Svia5127,2020-0188,2021-10-31,00:29:18,01:52:19,NA,incomplete,false,true,NA,NA,4,12,NA,gray,n_l_069.jpg,NA,NA,NA,NA,NA,unpleasant,pleasant,NA,NA,NA,NA,NA,left,2232.19999999553,true,NA,NA,NA,NA,NA,NA,NA,NA
Svia5127,3z33ic0jd3zsmh7cb6nqm2m9m84v9l,3uxuoq9okia63uefcg3c13diakha78,Svia5127,2020-0188,2021-10-31,00:29:18,01:52:19,NA,incomplete,false,true,NA,NA,4,13,NA,gray,m_l_070.jpg,NA,NA,NA,NA,NA,unpleasant,pleasant,NA,NA,NA,NA,NA,left,1993,true,NA,NA,NA,NA,NA,NA,NA,NA
Svia5127,3z33ic0jd3zsmh7cb6nqm2m9m84v9l,3uxuoq9okia63uefcg3c13diakha78,Svia5127,2020-0188,2021-10-31,00:29:18,01:52:19,NA,incomplete,false,true,NA,NA,4,14,NA,gray,m_l_079.jpg,NA,NA,NA,NA,NA,pleasant,unpleasant,NA,NA,NA,NA,NA,right,1252.29999999702,true,NA,NA,NA,NA,NA,NA,NA,NA
Svia5127,3z33ic0jd3zsmh7cb6nqm2m9m84v9l,3uxuoq9okia63uefcg3c13diakha78,Svia5127,2020-0188,2021-10-31,00:29:18,01:52:19,NA,incomplete,false,true,NA,NA,4,15,NA,gray,n_s_026.jpg,NA,NA,NA,NA,NA,pleasant,unpleasant,NA,NA,NA,NA,NA,left,1556.39999999851,true,NA,NA,NA,NA,NA,NA,NA,NA
Svia5127,3z33ic0jd3zsmh7cb6nqm2m9m84v9l,3uxuoq9okia63uefcg3c13diakha78,Svia5127,2020-0188,2021-10-31,00:29:18,01:52:19,NA,incomplete,false,true,NA,NA,4,16,NA,gray,n_s_010.jpg,NA,NA,NA,NA,NA,unpleasant,pleasant,NA,NA,NA,NA,NA,left,1539.69999999553,true,NA,NA,NA,NA,NA,NA,NA,NA
Svia5127,3z33ic0jd3zsmh7cb6nqm2m9m84v9l,3uxuoq9okia63uefcg3c13diakha78,Svia5127,2020-0188,2021-10-31,00:29:18,01:52:19,NA,incomplete,false,true,NA,NA,4,17,NA,gray,m_s_003.jpg,NA,NA,NA,NA,NA,pleasant,unpleasant,NA,NA,NA,NA,NA,right,1324.5,true,NA,NA,NA,NA,NA,NA,NA,NA
Svia5127,3z33ic0jd3zsmh7cb6nqm2m9m84v9l,3uxuoq9okia63uefcg3c13diakha78,Svia5127,2020-0188,2021-10-31,00:29:18,01:52:19,NA,incomplete,false,true,NA,NA,4,18,NA,green,m_l_001.jpg,NA,NA,NA,NA,NA,pleasant,unpleasant,NA,NA,NA,NA,NA,right,1158.39999999851,true,NA,NA,NA,NA,NA,NA,NA,NA
Svia5127,3z33ic0jd3zsmh7cb6nqm2m9m84v9l,3uxuoq9okia63uefcg3c13diakha78,Svia5127,2020-0188,2021-10-31,00:29:18,01:52:19,NA,incomplete,false,true,NA,NA,4,19,NA,green,n_l_105.jpg,NA,NA,NA,NA,NA,pleasant,unpleasant,NA,NA,NA,NA,NA,left,1285.19999999553,true,NA,NA,NA,NA,NA,NA,NA,NA
Svia5127,3z33ic0jd3zsmh7cb6nqm2m9m84v9l,3uxuoq9okia63uefcg3c13diakha78,Svia5127,2020-0188,2021-10-31,00:29:18,01:52:19,NA,incomplete,false,true,NA,NA,4,20,NA,green,n_s_080.jpg,NA,NA,NA,NA,NA,unpleasant,pleasant,NA,NA,NA,NA,NA,left,1687.39999999851,true,NA,NA,NA,NA,NA,NA,NA,NA
Svia5127,3z33ic0jd3zsmh7cb6nqm2m9m84v9l,3uxuoq9okia63uefcg3c13diakha78,Svia5127,2020-0188,2021-10-31,00:29:18,01:52:19,NA,incomplete,false,true,NA,NA,4,21,NA,green,m_s_107.jpg,NA,NA,NA,NA,NA,unpleasant,pleasant,NA,NA,NA,NA,NA,left,2256,true,NA,NA,NA,NA,NA,NA,NA,NA
Svia5127,3z33ic0jd3zsmh7cb6nqm2m9m84v9l,3uxuoq9okia63uefcg3c13diakha78,Svia5127,2020-0188,2021-10-31,00:29:18,01:52:19,NA,incomplete,false,true,NA,NA,4,22,NA,green,m_l_039.jpg,NA,NA,NA,NA,NA,unpleasant,pleasant,NA,NA,NA,NA,NA,right,1804,true,NA,NA,NA,NA,NA,NA,NA,NA
Svia5127,3z33ic0jd3zsmh7cb6nqm2m9m84v9l,3uxuoq9okia63uefcg3c13diakha78,Svia5127,2020-0188,2021-10-31,00:29:18,01:52:19,NA,incomplete,false,true,NA,NA,4,23,NA,green,m_l_011.jpg,NA,NA,NA,NA,NA,unpleasant,pleasant,NA,NA,NA,NA,NA,left,1375.20000000298,true,NA,NA,NA,NA,NA,NA,NA,NA
Svia5127,3z33ic0jd3zsmh7cb6nqm2m9m84v9l,3uxuoq9okia63uefcg3c13diakha78,Svia5127,2020-0188,2021-10-31,00:29:18,01:52:19,NA,incomplete,false,true,NA,NA,4,24,NA,white,n_s_056.jpg,NA,NA,NA,NA,NA,pleasant,unpleasant,NA,NA,NA,NA,NA,left,1686.29999999702,true,NA,NA,NA,NA,NA,NA,NA,NA
Svia5127,3z33ic0jd3zsmh7cb6nqm2m9m84v9l,3uxuoq9okia63uefcg3c13diakha78,Svia5127,2020-0188,2021-10-31,00:29:18,01:52:19,NA,incomplete,false,true,NA,NA,4,25,NA,white,n_s_099.jpg,NA,NA,NA,NA,NA,pleasant,unpleasant,NA,NA,NA,NA,NA,left,1127.90000000596,true,NA,NA,NA,NA,NA,NA,NA,NA
Svia5127,3z33ic0jd3zsmh7cb6nqm2m9m84v9l,3uxuoq9okia63uefcg3c13diakha78,Svia5127,2020-0188,2021-10-31,00:29:18,01:52:19,NA,incomplete,false,true,NA,NA,4,26,NA,white,m_s_039.jpg,NA,NA,NA,NA,NA,pleasant,unpleasant,NA,NA,NA,NA,NA,left,1705.59999999404,true,NA,NA,NA,NA,NA,NA,NA,NA
Svia5127,3z33ic0jd3zsmh7cb6nqm2m9m84v9l,3uxuoq9okia63uefcg3c13diakha78,Svia5127,2020-0188,2021-10-31,00:29:18,01:52:19,NA,incomplete,false,true,NA,NA,4,27,NA,white,m_s_099.jpg,NA,NA,NA,NA,NA,unpleasant,pleasant,NA,NA,NA,NA,NA,right,1537.39999999851,true,NA,NA,NA,NA,NA,NA,NA,NA
Svia5127,3z33ic0jd3zsmh7cb6nqm2m9m84v9l,3uxuoq9okia63uefcg3c13diakha78,Svia5127,2020-0188,2021-10-31,00:29:18,01:52:19,NA,incomplete,false,true,NA,NA,4,28,NA,white,n_s_082.jpg,NA,NA,NA,NA,NA,unpleasant,pleasant,NA,NA,NA,NA,NA,right,1649,true,NA,NA,NA,NA,NA,NA,NA,NA
Svia5127,3z33ic0jd3zsmh7cb6nqm2m9m84v9l,3uxuoq9okia63uefcg3c13diakha78,Svia5127,2020-0188,2021-10-31,00:29:18,01:52:19,NA,incomplete,false,true,NA,NA,4,29,NA,white,n_s_050.jpg,NA,NA,NA,NA,NA,pleasant,unpleasant,NA,NA,NA,NA,NA,right,1216.30000000447,true,NA,NA,NA,NA,NA,NA,NA,NA
Svia5127,3z33ic0jd3zsmh7cb6nqm2m9m84v9l,3uxuoq9okia63uefcg3c13diakha78,Svia5127,2020-0188,2021-10-31,00:29:18,01:52:19,NA,incomplete,false,true,NA,NA,4,30,NA,orange,n_l_028.jpg,NA,NA,NA,NA,NA,pleasant,unpleasant,NA,NA,NA,NA,NA,left,1491,true,NA,NA,NA,NA,NA,NA,NA,NA
Svia5127,3z33ic0jd3zsmh7cb6nqm2m9m84v9l,3uxuoq9okia63uefcg3c13diakha78,Svia5127,2020-0188,2021-10-31,00:29:18,01:52:19,NA,incomplete,false,true,NA,NA,4,31,NA,orange,m_s_066.jpg,NA,NA,NA,NA,NA,pleasant,unpleasant,NA,NA,NA,NA,NA,right,1002.19999999553,true,NA,NA,NA,NA,NA,NA,NA,NA
Svia5127,3z33ic0jd3zsmh7cb6nqm2m9m84v9l,3uxuoq9okia63uefcg3c13diakha78,Svia5127,2020-0188,2021-10-31,00:29:18,01:52:19,NA,incomplete,false,true,NA,NA,4,32,NA,orange,m_s_058.jpg,NA,NA,NA,NA,NA,pleasant,unpleasant,NA,NA,NA,NA,NA,right,2155.29999999702,true,NA,NA,NA,NA,NA,NA,NA,NA
Svia5127,3z33ic0jd3zsmh7cb6nqm2m9m84v9l,3uxuoq9okia63uefcg3c13diakha78,Svia5127,2020-0188,2021-10-31,00:29:18,01:52:19,NA,incomplete,false,true,NA,NA,4,33,NA,orange,m_l_099.jpg,NA,NA,NA,NA,NA,unpleasant,pleasant,NA,NA,NA,NA,NA,left,1778.5,true,NA,NA,NA,NA,NA,NA,NA,NA
Svia5127,3z33ic0jd3zsmh7cb6nqm2m9m84v9l,3uxuoq9okia63uefcg3c13diakha78,Svia5127,2020-0188,2021-10-31,00:29:18,01:52:19,NA,incomplete,false,true,NA,NA,4,34,NA,orange,m_l_043.jpg,NA,NA,NA,NA,NA,pleasant,unpleasant,NA,NA,NA,NA,NA,left,1771.29999999702,true,NA,NA,NA,NA,NA,NA,NA,NA
Svia5127,3z33ic0jd3zsmh7cb6nqm2m9m84v9l,3uxuoq9okia63uefcg3c13diakha78,Svia5127,2020-0188,2021-10-31,00:29:18,01:52:19,NA,incomplete,false,true,NA,NA,4,35,NA,orange,m_s_005.jpg,NA,NA,NA,NA,NA,unpleasant,pleasant,NA,NA,NA,NA,NA,right,1833.89999999851,true,NA,NA,NA,NA,NA,NA,NA,NA
Svia5127,3z33ic0jd3zsmh7cb6nqm2m9m84v9l,3uxuoq9okia63uefcg3c13diakha78,Svia5127,2020-0188,2021-10-31,00:29:18,01:52:19,NA,incomplete,false,NA,NA,true,4,0,NA,NA,NA,right,n_s_010.jpg,yellow,gray,NA,NA,NA,NA,NA,NA,NA,NA,NA,NaN,NA,3991.5,right,1,NA,NA,NA,NA,NA
Svia5127,3z33ic0jd3zsmh7cb6nqm2m9m84v9l,3uxuoq9okia63uefcg3c13diakha78,Svia5127,2020-0188,2021-10-31,00:29:18,01:52:19,NA,incomplete,false,NA,NA,true,4,1,NA,NA,NA,right,m_s_058.jpg,white,orange,NA,NA,NA,NA,NA,NA,NA,NA,NA,NaN,NA,1479.7000000029802,right,1,NA,NA,NA,NA,NA
Svia5127,3z33ic0jd3zsmh7cb6nqm2m9m84v9l,3uxuoq9okia63uefcg3c13diakha78,Svia5127,2020-0188,2021-10-31,00:29:18,01:52:19,NA,incomplete,false,NA,NA,true,4,2,NA,NA,NA,left,m_s_066.jpg,orange,white,NA,NA,NA,NA,NA,NA,NA,NA,NA,NaN,NA,4823.20000000298,left,1,NA,NA,NA,NA,NA
Svia5127,3z33ic0jd3zsmh7cb6nqm2m9m84v9l,3uxuoq9okia63uefcg3c13diakha78,Svia5127,2020-0188,2021-10-31,00:29:18,01:52:19,NA,incomplete,false,NA,NA,true,4,3,NA,NA,NA,left,n_s_082.jpg,white,orange,NA,NA,NA,NA,NA,NA,NA,NA,NA,NaN,NA,2295.39999999851,left,1,NA,NA,NA,NA,NA
Svia5127,3z33ic0jd3zsmh7cb6nqm2m9m84v9l,3uxuoq9okia63uefcg3c13diakha78,Svia5127,2020-0188,2021-10-31,00:29:18,01:52:19,NA,incomplete,false,NA,NA,true,4,4,NA,NA,NA,right,n_s_050.jpg,green,white,NA,NA,NA,NA,NA,NA,NA,NA,NA,NaN,NA,2967.5,right,1,NA,NA,NA,NA,NA
Svia5127,3z33ic0jd3zsmh7cb6nqm2m9m84v9l,3uxuoq9okia63uefcg3c13diakha78,Svia5127,2020-0188,2021-10-31,00:29:18,01:52:19,NA,incomplete,false,NA,NA,true,4,5,NA,NA,NA,right,n_l_014.jpg,yellow,brown,NA,NA,NA,NA,NA,NA,NA,NA,NA,NaN,NA,1503.1999999955297,right,1,NA,NA,NA,NA,NA
Svia5127,3z33ic0jd3zsmh7cb6nqm2m9m84v9l,3uxuoq9okia63uefcg3c13diakha78,Svia5127,2020-0188,2021-10-31,00:29:18,01:52:19,NA,incomplete,false,NA,NA,true,4,6,NA,NA,NA,right,m_s_003.jpg,green,gray,NA,NA,NA,NA,NA,NA,NA,NA,NA,NaN,NA,1399.6999999955297,right,1,NA,NA,NA,NA,NA
Svia5127,3z33ic0jd3zsmh7cb6nqm2m9m84v9l,3uxuoq9okia63uefcg3c13diakha78,Svia5127,2020-0188,2021-10-31,00:29:18,01:52:19,NA,incomplete,false,NA,NA,true,4,7,NA,NA,NA,right,m_l_079.jpg,yellow,gray,NA,NA,NA,NA,NA,NA,NA,NA,NA,NaN,NA,5311.89999999851,left,0,NA,NA,NA,NA,NA
Svia5127,3z33ic0jd3zsmh7cb6nqm2m9m84v9l,3uxuoq9okia63uefcg3c13diakha78,Svia5127,2020-0188,2021-10-31,00:29:18,01:52:19,NA,incomplete,false,NA,NA,true,4,8,NA,NA,NA,right,m_l_011.jpg,gray,green,NA,NA,NA,NA,NA,NA,NA,NA,NA,NaN,NA,2543.4000000059605,right,1,NA,NA,NA,NA,NA
Svia5127,3z33ic0jd3zsmh7cb6nqm2m9m84v9l,3uxuoq9okia63uefcg3c13diakha78,Svia5127,2020-0188,2021-10-31,00:29:18,01:52:19,NA,incomplete,false,NA,NA,true,4,9,NA,NA,NA,left,n_s_076.jpg,brown,yellow,NA,NA,NA,NA,NA,NA,NA,NA,NA,NaN,NA,2319.7999999970198,left,1,NA,NA,NA,NA,NA
Svia5127,3z33ic0jd3zsmh7cb6nqm2m9m84v9l,3uxuoq9okia63uefcg3c13diakha78,Svia5127,2020-0188,2021-10-31,00:29:18,01:52:19,NA,incomplete,false,NA,NA,true,4,10,NA,NA,NA,left,n_l_099.jpg,yellow,brown,NA,NA,NA,NA,NA,NA,NA,NA,NA,NaN,NA,1615.5,left,1,NA,NA,NA,NA,NA
Svia5127,3z33ic0jd3zsmh7cb6nqm2m9m84v9l,3uxuoq9okia63uefcg3c13diakha78,Svia5127,2020-0188,2021-10-31,00:29:18,01:52:19,NA,incomplete,false,NA,NA,true,4,11,NA,NA,NA,right,n_s_055.jpg,brown,yellow,NA,NA,NA,NA,NA,NA,NA,NA,NA,NaN,NA,1662.6000000014901,right,1,NA,NA,NA,NA,NA
Svia5127,3z33ic0jd3zsmh7cb6nqm2m9m84v9l,3uxuoq9okia63uefcg3c13diakha78,Svia5127,2020-0188,2021-10-31,00:29:18,01:52:19,NA,incomplete,false,NA,NA,true,4,12,NA,NA,NA,right,n_s_099.jpg,orange,white,NA,NA,NA,NA,NA,NA,NA,NA,NA,NaN,NA,1759.3000000044703,right,1,NA,NA,NA,NA,NA
Svia5127,3z33ic0jd3zsmh7cb6nqm2m9m84v9l,3uxuoq9okia63uefcg3c13diakha78,Svia5127,2020-0188,2021-10-31,00:29:18,01:52:19,NA,incomplete,false,NA,NA,true,4,13,NA,NA,NA,right,m_l_007.jpg,yellow,brown,NA,NA,NA,NA,NA,NA,NA,NA,NA,NaN,NA,5815.30000000447,right,1,NA,NA,NA,NA,NA
Svia5127,3z33ic0jd3zsmh7cb6nqm2m9m84v9l,3uxuoq9okia63uefcg3c13diakha78,Svia5127,2020-0188,2021-10-31,00:29:18,01:52:19,NA,incomplete,false,NA,NA,true,4,14,NA,NA,NA,left,m_l_070.jpg,gray,green,NA,NA,NA,NA,NA,NA,NA,NA,NA,NaN,NA,2599.8000000044703,left,1,NA,NA,NA,NA,NA
Svia5127,3z33ic0jd3zsmh7cb6nqm2m9m84v9l,3uxuoq9okia63uefcg3c13diakha78,Svia5127,2020-0188,2021-10-31,00:29:18,01:52:19,NA,incomplete,false,NA,NA,true,4,15,NA,NA,NA,left,m_l_039.jpg,green,white,NA,NA,NA,NA,NA,NA,NA,NA,NA,NaN,NA,2046.8999999985099,left,1,NA,NA,NA,NA,NA
Svia5127,3z33ic0jd3zsmh7cb6nqm2m9m84v9l,3uxuoq9okia63uefcg3c13diakha78,Svia5127,2020-0188,2021-10-31,00:29:18,01:52:19,NA,incomplete,false,NA,NA,true,4,16,NA,NA,NA,left,m_s_005.jpg,orange,white,NA,NA,NA,NA,NA,NA,NA,NA,NA,NaN,NA,1967.5,left,1,NA,NA,NA,NA,NA
Svia5127,3z33ic0jd3zsmh7cb6nqm2m9m84v9l,3uxuoq9okia63uefcg3c13diakha78,Svia5127,2020-0188,2021-10-31,00:29:18,01:52:19,NA,incomplete,false,NA,NA,true,4,17,NA,NA,NA,right,m_s_039.jpg,orange,white,NA,NA,NA,NA,NA,NA,NA,NA,NA,NaN,NA,2863.10000000149,right,1,NA,NA,NA,NA,NA
Svia5127,3z33ic0jd3zsmh7cb6nqm2m9m84v9l,3uxuoq9okia63uefcg3c13diakha78,Svia5127,2020-0188,2021-10-31,00:29:18,01:52:19,NA,incomplete,false,NA,NA,true,4,18,NA,NA,NA,left,n_l_105.jpg,green,white,NA,NA,NA,NA,NA,NA,NA,NA,NA,NaN,NA,1847,left,1,NA,NA,NA,NA,NA
Svia5127,3z33ic0jd3zsmh7cb6nqm2m9m84v9l,3uxuoq9okia63uefcg3c13diakha78,Svia5127,2020-0188,2021-10-31,00:29:18,01:52:19,NA,incomplete,false,NA,NA,true,4,19,NA,NA,NA,left,n_l_078.jpg,yellow,brown,NA,NA,NA,NA,NA,NA,NA,NA,NA,NaN,NA,1911.4000000059605,left,1,NA,NA,NA,NA,NA
Svia5127,3z33ic0jd3zsmh7cb6nqm2m9m84v9l,3uxuoq9okia63uefcg3c13diakha78,Svia5127,2020-0188,2021-10-31,00:29:18,01:52:19,NA,incomplete,false,NA,NA,true,4,20,NA,NA,NA,right,n_s_080.jpg,gray,green,NA,NA,NA,NA,NA,NA,NA,NA,NA,NaN,NA,1536.0999999940395,right,1,NA,NA,NA,NA,NA
Svia5127,3z33ic0jd3zsmh7cb6nqm2m9m84v9l,3uxuoq9okia63uefcg3c13diakha78,Svia5127,2020-0188,2021-10-31,00:29:18,01:52:19,NA,incomplete,false,NA,NA,true,4,21,NA,NA,NA,left,m_l_036.jpg,yellow,brown,NA,NA,NA,NA,NA,NA,NA,NA,NA,NaN,NA,1790.8999999985099,left,1,NA,NA,NA,NA,NA
Svia5127,3z33ic0jd3zsmh7cb6nqm2m9m84v9l,3uxuoq9okia63uefcg3c13diakha78,Svia5127,2020-0188,2021-10-31,00:29:18,01:52:19,NA,incomplete,false,NA,true,NA,4,0,NA,NA,NA,right,NA,NA,NA,present,NA,NA,n_s_080.jpg,green,n_s_010.jpg,gray,between,NA,NaN,NA,NA,NA,NA,right,7886.89999999851,1,2,1798.7999999970198
Svia5127,3z33ic0jd3zsmh7cb6nqm2m9m84v9l,3uxuoq9okia63uefcg3c13diakha78,Svia5127,2020-0188,2021-10-31,00:29:18,01:52:19,NA,incomplete,false,NA,true,NA,4,1,NA,NA,NA,right,NA,NA,NA,present,NA,NA,n_l_099.jpg,yellow,m_l_007.jpg,brown,between,NA,NaN,NA,NA,NA,NA,right,4343.80000000447,1,2,1879.3999999985099
Svia5127,3z33ic0jd3zsmh7cb6nqm2m9m84v9l,3uxuoq9okia63uefcg3c13diakha78,Svia5127,2020-0188,2021-10-31,00:29:18,01:52:19,NA,incomplete,false,NA,true,NA,4,2,NA,NA,NA,right,NA,NA,NA,present,NA,NA,m_l_079.jpg,gray,n_l_078.jpg,yellow,between,NA,NaN,NA,NA,NA,NA,right,4886.69999999553,1,2,1742.9000000059605
Svia5127,3z33ic0jd3zsmh7cb6nqm2m9m84v9l,3uxuoq9okia63uefcg3c13diakha78,Svia5127,2020-0188,2021-10-31,00:29:18,01:52:19,NA,incomplete,false,NA,true,NA,4,3,NA,NA,NA,left,NA,NA,NA,present,NA,NA,n_s_076.jpg,brown,n_l_014.jpg,brown,within,NA,NaN,NA,NA,NA,NA,left,5334.89999999851,1,1,2071.39999999851
Svia5127,3z33ic0jd3zsmh7cb6nqm2m9m84v9l,3uxuoq9okia63uefcg3c13diakha78,Svia5127,2020-0188,2021-10-31,00:29:18,01:52:19,NA,incomplete,false,NA,true,NA,4,4,NA,NA,NA,left,NA,NA,NA,present,NA,NA,m_s_066.jpg,orange,m_s_005.jpg,orange,within,NA,NaN,NA,NA,NA,NA,right,3407.7999999970198,0,1,1271.1000000014901
Svia5127,3z33ic0jd3zsmh7cb6nqm2m9m84v9l,3uxuoq9okia63uefcg3c13diakha78,Svia5127,2020-0188,2021-10-31,00:29:18,01:52:19,NA,incomplete,false,NA,true,NA,4,5,NA,NA,NA,right,NA,NA,NA,present,NA,NA,m_l_011.jpg,green,n_l_105.jpg,green,within,NA,NaN,NA,NA,NA,NA,right,2647,1,1,2359.7999999970198
Svia5127,3z33ic0jd3zsmh7cb6nqm2m9m84v9l,3uxuoq9okia63uefcg3c13diakha78,Svia5127,2020-0188,2021-10-31,00:29:18,01:52:19,NA,incomplete,false,NA,true,NA,4,6,NA,NA,NA,left,NA,NA,NA,present,NA,NA,n_s_082.jpg,white,m_s_058.jpg,orange,between,NA,NaN,NA,NA,NA,NA,left,4367.19999999553,1,2,1887.3000000044703
Svia5127,3z33ic0jd3zsmh7cb6nqm2m9m84v9l,3uxuoq9okia63uefcg3c13diakha78,Svia5127,2020-0188,2021-10-31,00:29:18,01:52:19,NA,incomplete,false,NA,true,NA,4,7,NA,NA,NA,left,NA,NA,NA,present,NA,NA,m_l_039.jpg,green,m_s_039.jpg,white,between,NA,NaN,NA,NA,NA,NA,left,5063.70000000298,1,2,2119.60000000149
Svia5127,3z33ic0jd3zsmh7cb6nqm2m9m84v9l,3uxuoq9okia63uefcg3c13diakha78,Svia5127,2020-0188,2021-10-31,00:29:18,01:52:19,NA,incomplete,false,NA,true,NA,4,8,NA,NA,NA,left,NA,NA,NA,present,NA,NA,m_l_036.jpg,yellow,n_s_055.jpg,yellow,within,NA,NaN,NA,NA,NA,NA,right,2807.2000000029802,0,1,1215.6999999955297
Svia5127,3z33ic0jd3zsmh7cb6nqm2m9m84v9l,3uxuoq9okia63uefcg3c13diakha78,Svia5127,2020-0188,2021-10-31,00:29:18,01:52:19,NA,incomplete,false,NA,true,NA,4,9,NA,NA,NA,right,NA,NA,NA,present,NA,NA,m_s_003.jpg,gray,m_l_070.jpg,gray,within,NA,NaN,NA,NA,NA,NA,left,2535.10000000149,0,1,1703.1999999955297
Svia5127,3z33ic0jd3zsmh7cb6nqm2m9m84v9l,3uxuoq9okia63uefcg3c13diakha78,Svia5127,2020-0188,2021-10-31,00:29:18,01:52:19,NA,incomplete,false,NA,true,NA,4,10,NA,NA,NA,right,NA,NA,NA,present,NA,NA,n_s_050.jpg,white,n_s_099.jpg,white,within,NA,NaN,NA,NA,NA,NA,right,2839.5,1,1,3391.60000000149
Svia5127,3z33ic0jd3zsmh7cb6nqm2m9m84v9l,3uxuoq9okia63uefcg3c13diakha78,Svia5127,2020-0188,2021-10-31,00:29:18,01:52:19,NA,incomplete,false,true,NA,NA,5,0,NA,red,n_s_079.jpg,NA,NA,NA,NA,NA,unpleasant,pleasant,NA,NA,NA,NA,NA,left,1377.5,true,NA,NA,NA,NA,NA,NA,NA,NA
Svia5127,3z33ic0jd3zsmh7cb6nqm2m9m84v9l,3uxuoq9okia63uefcg3c13diakha78,Svia5127,2020-0188,2021-10-31,00:29:18,01:52:19,NA,incomplete,false,true,NA,NA,5,1,NA,red,m_l_016.jpg,NA,NA,NA,NA,NA,pleasant,unpleasant,NA,NA,NA,NA,NA,left,752.39999999851,true,NA,NA,NA,NA,NA,NA,NA,NA
Svia5127,3z33ic0jd3zsmh7cb6nqm2m9m84v9l,3uxuoq9okia63uefcg3c13diakha78,Svia5127,2020-0188,2021-10-31,00:29:18,01:52:19,NA,incomplete,false,true,NA,NA,5,2,NA,red,m_s_076.jpg,NA,NA,NA,NA,NA,pleasant,unpleasant,NA,NA,NA,NA,NA,left,1287.30000000447,true,NA,NA,NA,NA,NA,NA,NA,NA
Svia5127,3z33ic0jd3zsmh7cb6nqm2m9m84v9l,3uxuoq9okia63uefcg3c13diakha78,Svia5127,2020-0188,2021-10-31,00:29:18,01:52:19,NA,incomplete,false,true,NA,NA,5,3,NA,red,m_s_089.jpg,NA,NA,NA,NA,NA,unpleasant,pleasant,NA,NA,NA,NA,NA,right,1625.20000000298,true,NA,NA,NA,NA,NA,NA,NA,NA
Svia5127,3z33ic0jd3zsmh7cb6nqm2m9m84v9l,3uxuoq9okia63uefcg3c13diakha78,Svia5127,2020-0188,2021-10-31,00:29:18,01:52:19,NA,incomplete,false,true,NA,NA,5,4,NA,red,n_l_024.jpg,NA,NA,NA,NA,NA,pleasant,unpleasant,NA,NA,NA,NA,NA,left,1507.29999999702,true,NA,NA,NA,NA,NA,NA,NA,NA
Svia5127,3z33ic0jd3zsmh7cb6nqm2m9m84v9l,3uxuoq9okia63uefcg3c13diakha78,Svia5127,2020-0188,2021-10-31,00:29:18,01:52:19,NA,incomplete,false,true,NA,NA,5,5,NA,red,n_l_011.jpg,NA,NA,NA,NA,NA,unpleasant,pleasant,NA,NA,NA,NA,NA,right,1552.69999999553,true,NA,NA,NA,NA,NA,NA,NA,NA
Svia5127,3z33ic0jd3zsmh7cb6nqm2m9m84v9l,3uxuoq9okia63uefcg3c13diakha78,Svia5127,2020-0188,2021-10-31,00:29:18,01:52:19,NA,incomplete,false,true,NA,NA,5,6,NA,green,n_l_076.jpg,NA,NA,NA,NA,NA,unpleasant,pleasant,NA,NA,NA,NA,NA,left,1266.10000000149,true,NA,NA,NA,NA,NA,NA,NA,NA
Svia5127,3z33ic0jd3zsmh7cb6nqm2m9m84v9l,3uxuoq9okia63uefcg3c13diakha78,Svia5127,2020-0188,2021-10-31,00:29:18,01:52:19,NA,incomplete,false,true,NA,NA,5,7,NA,green,m_l_077.jpg,NA,NA,NA,NA,NA,pleasant,unpleasant,NA,NA,NA,NA,NA,right,1490.60000000149,true,NA,NA,NA,NA,NA,NA,NA,NA
Svia5127,3z33ic0jd3zsmh7cb6nqm2m9m84v9l,3uxuoq9okia63uefcg3c13diakha78,Svia5127,2020-0188,2021-10-31,00:29:18,01:52:19,NA,incomplete,false,true,NA,NA,5,8,NA,green,n_s_047.jpg,NA,NA,NA,NA,NA,unpleasant,pleasant,NA,NA,NA,NA,NA,left,2043.70000000298,true,NA,NA,NA,NA,NA,NA,NA,NA
Svia5127,3z33ic0jd3zsmh7cb6nqm2m9m84v9l,3uxuoq9okia63uefcg3c13diakha78,Svia5127,2020-0188,2021-10-31,00:29:18,01:52:19,NA,incomplete,false,true,NA,NA,5,9,NA,green,m_s_017.jpg,NA,NA,NA,NA,NA,pleasant,unpleasant,NA,NA,NA,NA,NA,right,1939.5,true,NA,NA,NA,NA,NA,NA,NA,NA
Svia5127,3z33ic0jd3zsmh7cb6nqm2m9m84v9l,3uxuoq9okia63uefcg3c13diakha78,Svia5127,2020-0188,2021-10-31,00:29:18,01:52:19,NA,incomplete,false,true,NA,NA,5,10,NA,green,m_s_056.jpg,NA,NA,NA,NA,NA,unpleasant,pleasant,NA,NA,NA,NA,NA,right,1075,true,NA,NA,NA,NA,NA,NA,NA,NA
Svia5127,3z33ic0jd3zsmh7cb6nqm2m9m84v9l,3uxuoq9okia63uefcg3c13diakha78,Svia5127,2020-0188,2021-10-31,00:29:18,01:52:19,NA,incomplete,false,true,NA,NA,5,11,NA,green,n_s_044.jpg,NA,NA,NA,NA,NA,unpleasant,pleasant,NA,NA,NA,NA,NA,left,1387.19999999553,true,NA,NA,NA,NA,NA,NA,NA,NA
Svia5127,3z33ic0jd3zsmh7cb6nqm2m9m84v9l,3uxuoq9okia63uefcg3c13diakha78,Svia5127,2020-0188,2021-10-31,00:29:18,01:52:19,NA,incomplete,false,true,NA,NA,5,12,NA,brown,n_s_112.jpg,NA,NA,NA,NA,NA,pleasant,unpleasant,NA,NA,NA,NA,NA,left,1333.20000000298,true,NA,NA,NA,NA,NA,NA,NA,NA
Svia5127,3z33ic0jd3zsmh7cb6nqm2m9m84v9l,3uxuoq9okia63uefcg3c13diakha78,Svia5127,2020-0188,2021-10-31,00:29:18,01:52:19,NA,incomplete,false,true,NA,NA,5,13,NA,brown,n_l_010.jpg,NA,NA,NA,NA,NA,pleasant,unpleasant,NA,NA,NA,NA,NA,left,1589.69999999553,true,NA,NA,NA,NA,NA,NA,NA,NA
Svia5127,3z33ic0jd3zsmh7cb6nqm2m9m84v9l,3uxuoq9okia63uefcg3c13diakha78,Svia5127,2020-0188,2021-10-31,00:29:18,01:52:19,NA,incomplete,false,true,NA,NA,5,14,NA,brown,m_s_069.jpg,NA,NA,NA,NA,NA,pleasant,unpleasant,NA,NA,NA,NA,NA,left,1269.20000000298,true,NA,NA,NA,NA,NA,NA,NA,NA
Svia5127,3z33ic0jd3zsmh7cb6nqm2m9m84v9l,3uxuoq9okia63uefcg3c13diakha78,Svia5127,2020-0188,2021-10-31,00:29:18,01:52:19,NA,incomplete,false,true,NA,NA,5,15,NA,brown,m_s_105.jpg,NA,NA,NA,NA,NA,unpleasant,pleasant,NA,NA,NA,NA,NA,right,1877.5,true,NA,NA,NA,NA,NA,NA,NA,NA
Svia5127,3z33ic0jd3zsmh7cb6nqm2m9m84v9l,3uxuoq9okia63uefcg3c13diakha78,Svia5127,2020-0188,2021-10-31,00:29:18,01:52:19,NA,incomplete,false,true,NA,NA,5,16,NA,brown,m_s_006.jpg,NA,NA,NA,NA,NA,unpleasant,pleasant,NA,NA,NA,NA,NA,right,1924,true,NA,NA,NA,NA,NA,NA,NA,NA
