workerId,hitId,assignmentId,subject,studyid,exp_date,exp_start,exp_end,time_start,time_end,practice,encoding,memory,association,block,trial,event_order,event,stim,answer,object,left_context,right_context,context_type,label_left,label_right,left_image,left_event,right_image,right_event,condition,response,response_time,response_acc,association_response_time,association_response,association_acc,order_response,order_response_time,order_acc,distance_response,distance_response_time
wx59rGwP,3bakuke4akpi45n0y93n6zfn3q3r1f,3wev0ko0oq5qkz1jktspmvhkj43dsj,wx59rGwP,2020-0188,2021-10-31,15:33:33,17:08:19,NA,incomplete,true,true,NA,NA,0,0,NA,green,n_s_070.jpg,NA,NA,NA,NA,NA,pleasant,unpleasant,NA,NA,NA,NA,NA,right,3471.39999999851,true,NA,NA,NA,NA,NA,NA,NA,NA
wx59rGwP,3bakuke4akpi45n0y93n6zfn3q3r1f,3wev0ko0oq5qkz1jktspmvhkj43dsj,wx59rGwP,2020-0188,2021-10-31,15:33:33,17:08:19,NA,incomplete,true,true,NA,NA,0,1,NA,green,m_s_046.jpg,NA,NA,NA,NA,NA,unpleasant,pleasant,NA,NA,NA,NA,NA,left,2996.59999999776,true,NA,NA,NA,NA,NA,NA,NA,NA
wx59rGwP,3bakuke4akpi45n0y93n6zfn3q3r1f,3wev0ko0oq5qkz1jktspmvhkj43dsj,wx59rGwP,2020-0188,2021-10-31,15:33:33,17:08:19,NA,incomplete,true,true,NA,NA,0,2,NA,green,n_l_081.jpg,NA,NA,NA,NA,NA,unpleasant,pleasant,NA,NA,NA,NA,NA,left,2346.69999999925,true,NA,NA,NA,NA,NA,NA,NA,NA
wx59rGwP,3bakuke4akpi45n0y93n6zfn3q3r1f,3wev0ko0oq5qkz1jktspmvhkj43dsj,wx59rGwP,2020-0188,2021-10-31,15:33:33,17:08:19,NA,incomplete,true,true,NA,NA,0,3,NA,green,n_l_027.jpg,NA,NA,NA,NA,NA,unpleasant,pleasant,NA,NA,NA,NA,NA,right,3087.90000000224,true,NA,NA,NA,NA,NA,NA,NA,NA
wx59rGwP,3bakuke4akpi45n0y93n6zfn3q3r1f,3wev0ko0oq5qkz1jktspmvhkj43dsj,wx59rGwP,2020-0188,2021-10-31,15:33:33,17:08:19,NA,incomplete,true,true,NA,NA,0,4,NA,green,n_s_079.jpg,NA,NA,NA,NA,NA,unpleasant,pleasant,NA,NA,NA,NA,NA,right,2293.19999999925,true,NA,NA,NA,NA,NA,NA,NA,NA
wx59rGwP,3bakuke4akpi45n0y93n6zfn3q3r1f,3wev0ko0oq5qkz1jktspmvhkj43dsj,wx59rGwP,2020-0188,2021-10-31,15:33:33,17:08:19,NA,incomplete,true,true,NA,NA,0,5,NA,green,n_l_105.jpg,NA,NA,NA,NA,NA,pleasant,unpleasant,NA,NA,NA,NA,NA,left,2793.10000000149,true,NA,NA,NA,NA,NA,NA,NA,NA
wx59rGwP,3bakuke4akpi45n0y93n6zfn3q3r1f,3wev0ko0oq5qkz1jktspmvhkj43dsj,wx59rGwP,2020-0188,2021-10-31,15:33:33,17:08:19,NA,incomplete,true,true,NA,NA,0,6,NA,orange,m_l_062.jpg,NA,NA,NA,NA,NA,unpleasant,pleasant,NA,NA,NA,NA,NA,left,2703.39999999851,true,NA,NA,NA,NA,NA,NA,NA,NA
wx59rGwP,3bakuke4akpi45n0y93n6zfn3q3r1f,3wev0ko0oq5qkz1jktspmvhkj43dsj,wx59rGwP,2020-0188,2021-10-31,15:33:33,17:08:19,NA,incomplete,true,true,NA,NA,0,7,NA,orange,m_s_028.jpg,NA,NA,NA,NA,NA,unpleasant,pleasant,NA,NA,NA,NA,NA,left,2252.19999999925,true,NA,NA,NA,NA,NA,NA,NA,NA
wx59rGwP,3bakuke4akpi45n0y93n6zfn3q3r1f,3wev0ko0oq5qkz1jktspmvhkj43dsj,wx59rGwP,2020-0188,2021-10-31,15:33:33,17:08:19,NA,incomplete,true,true,NA,NA,0,8,NA,orange,m_l_003.jpg,NA,NA,NA,NA,NA,pleasant,unpleasant,NA,NA,NA,NA,NA,right,2534.69999999925,true,NA,NA,NA,NA,NA,NA,NA,NA
wx59rGwP,3bakuke4akpi45n0y93n6zfn3q3r1f,3wev0ko0oq5qkz1jktspmvhkj43dsj,wx59rGwP,2020-0188,2021-10-31,15:33:33,17:08:19,NA,incomplete,true,true,NA,NA,0,9,NA,orange,m_s_049.jpg,NA,NA,NA,NA,NA,pleasant,unpleasant,NA,NA,NA,NA,NA,left,2007.5,true,NA,NA,NA,NA,NA,NA,NA,NA
wx59rGwP,3bakuke4akpi45n0y93n6zfn3q3r1f,3wev0ko0oq5qkz1jktspmvhkj43dsj,wx59rGwP,2020-0188,2021-10-31,15:33:33,17:08:19,NA,incomplete,true,true,NA,NA,0,10,NA,orange,n_l_014.jpg,NA,NA,NA,NA,NA,unpleasant,pleasant,NA,NA,NA,NA,NA,left,1321.30000000075,true,NA,NA,NA,NA,NA,NA,NA,NA
wx59rGwP,3bakuke4akpi45n0y93n6zfn3q3r1f,3wev0ko0oq5qkz1jktspmvhkj43dsj,wx59rGwP,2020-0188,2021-10-31,15:33:33,17:08:19,NA,incomplete,true,true,NA,NA,0,11,NA,orange,m_l_029.jpg,NA,NA,NA,NA,NA,unpleasant,pleasant,NA,NA,NA,NA,NA,left,2315.20000000298,true,NA,NA,NA,NA,NA,NA,NA,NA
wx59rGwP,3bakuke4akpi45n0y93n6zfn3q3r1f,3wev0ko0oq5qkz1jktspmvhkj43dsj,wx59rGwP,2020-0188,2021-10-31,15:33:33,17:08:19,NA,incomplete,true,true,NA,NA,0,12,NA,red,m_s_085.jpg,NA,NA,NA,NA,NA,unpleasant,pleasant,NA,NA,NA,NA,NA,right,2482.19999999925,true,NA,NA,NA,NA,NA,NA,NA,NA
wx59rGwP,3bakuke4akpi45n0y93n6zfn3q3r1f,3wev0ko0oq5qkz1jktspmvhkj43dsj,wx59rGwP,2020-0188,2021-10-31,15:33:33,17:08:19,NA,incomplete,true,true,NA,NA,0,13,NA,red,m_s_047.jpg,NA,NA,NA,NA,NA,unpleasant,pleasant,NA,NA,NA,NA,NA,left,2274,true,NA,NA,NA,NA,NA,NA,NA,NA
wx59rGwP,3bakuke4akpi45n0y93n6zfn3q3r1f,3wev0ko0oq5qkz1jktspmvhkj43dsj,wx59rGwP,2020-0188,2021-10-31,15:33:33,17:08:19,NA,incomplete,true,true,NA,NA,0,14,NA,red,m_l_075.jpg,NA,NA,NA,NA,NA,unpleasant,pleasant,NA,NA,NA,NA,NA,left,1369.30000000075,true,NA,NA,NA,NA,NA,NA,NA,NA
wx59rGwP,3bakuke4akpi45n0y93n6zfn3q3r1f,3wev0ko0oq5qkz1jktspmvhkj43dsj,wx59rGwP,2020-0188,2021-10-31,15:33:33,17:08:19,NA,incomplete,true,true,NA,NA,0,15,NA,red,n_l_083.jpg,NA,NA,NA,NA,NA,pleasant,unpleasant,NA,NA,NA,NA,NA,left,1824.39999999851,true,NA,NA,NA,NA,NA,NA,NA,NA
wx59rGwP,3bakuke4akpi45n0y93n6zfn3q3r1f,3wev0ko0oq5qkz1jktspmvhkj43dsj,wx59rGwP,2020-0188,2021-10-31,15:33:33,17:08:19,NA,incomplete,true,true,NA,NA,0,16,NA,red,m_l_049.jpg,NA,NA,NA,NA,NA,unpleasant,pleasant,NA,NA,NA,NA,NA,left,2709.40000000224,true,NA,NA,NA,NA,NA,NA,NA,NA
wx59rGwP,3bakuke4akpi45n0y93n6zfn3q3r1f,3wev0ko0oq5qkz1jktspmvhkj43dsj,wx59rGwP,2020-0188,2021-10-31,15:33:33,17:08:19,NA,incomplete,true,true,NA,NA,0,17,NA,red,n_l_108.jpg,NA,NA,NA,NA,NA,pleasant,unpleasant,NA,NA,NA,NA,NA,left,1869.59999999776,true,NA,NA,NA,NA,NA,NA,NA,NA
wx59rGwP,3bakuke4akpi45n0y93n6zfn3q3r1f,3wev0ko0oq5qkz1jktspmvhkj43dsj,wx59rGwP,2020-0188,2021-10-31,15:33:33,17:08:19,NA,incomplete,true,true,NA,NA,0,18,NA,black,m_s_027.jpg,NA,NA,NA,NA,NA,unpleasant,pleasant,NA,NA,NA,NA,NA,left,1685.69999999925,true,NA,NA,NA,NA,NA,NA,NA,NA
wx59rGwP,3bakuke4akpi45n0y93n6zfn3q3r1f,3wev0ko0oq5qkz1jktspmvhkj43dsj,wx59rGwP,2020-0188,2021-10-31,15:33:33,17:08:19,NA,incomplete,true,true,NA,NA,0,19,NA,black,m_s_029.jpg,NA,NA,NA,NA,NA,unpleasant,pleasant,NA,NA,NA,NA,NA,left,3410.80000000075,true,NA,NA,NA,NA,NA,NA,NA,NA
wx59rGwP,3bakuke4akpi45n0y93n6zfn3q3r1f,3wev0ko0oq5qkz1jktspmvhkj43dsj,wx59rGwP,2020-0188,2021-10-31,15:33:33,17:08:19,NA,incomplete,true,true,NA,NA,0,20,NA,black,n_l_095.jpg,NA,NA,NA,NA,NA,unpleasant,pleasant,NA,NA,NA,NA,NA,right,1181,true,NA,NA,NA,NA,NA,NA,NA,NA
wx59rGwP,3bakuke4akpi45n0y93n6zfn3q3r1f,3wev0ko0oq5qkz1jktspmvhkj43dsj,wx59rGwP,2020-0188,2021-10-31,15:33:33,17:08:19,NA,incomplete,true,true,NA,NA,0,21,NA,black,n_l_074.jpg,NA,NA,NA,NA,NA,pleasant,unpleasant,NA,NA,NA,NA,NA,left,1443.19999999925,true,NA,NA,NA,NA,NA,NA,NA,NA
wx59rGwP,3bakuke4akpi45n0y93n6zfn3q3r1f,3wev0ko0oq5qkz1jktspmvhkj43dsj,wx59rGwP,2020-0188,2021-10-31,15:33:33,17:08:19,NA,incomplete,true,true,NA,NA,0,22,NA,black,n_s_087.jpg,NA,NA,NA,NA,NA,pleasant,unpleasant,NA,NA,NA,NA,NA,right,2547.89999999851,true,NA,NA,NA,NA,NA,NA,NA,NA
wx59rGwP,3bakuke4akpi45n0y93n6zfn3q3r1f,3wev0ko0oq5qkz1jktspmvhkj43dsj,wx59rGwP,2020-0188,2021-10-31,15:33:33,17:08:19,NA,incomplete,true,true,NA,NA,0,23,NA,black,n_l_100.jpg,NA,NA,NA,NA,NA,pleasant,unpleasant,NA,NA,NA,NA,NA,left,1718.10000000149,true,NA,NA,NA,NA,NA,NA,NA,NA
wx59rGwP,3bakuke4akpi45n0y93n6zfn3q3r1f,3wev0ko0oq5qkz1jktspmvhkj43dsj,wx59rGwP,2020-0188,2021-10-31,15:33:33,17:08:19,NA,incomplete,true,true,NA,NA,0,24,NA,gray,m_s_051.jpg,NA,NA,NA,NA,NA,unpleasant,pleasant,NA,NA,NA,NA,NA,right,3024.69999999925,true,NA,NA,NA,NA,NA,NA,NA,NA
wx59rGwP,3bakuke4akpi45n0y93n6zfn3q3r1f,3wev0ko0oq5qkz1jktspmvhkj43dsj,wx59rGwP,2020-0188,2021-10-31,15:33:33,17:08:19,NA,incomplete,true,true,NA,NA,0,25,NA,gray,m_l_113.jpg,NA,NA,NA,NA,NA,unpleasant,pleasant,NA,NA,NA,NA,NA,left,1579.89999999851,true,NA,NA,NA,NA,NA,NA,NA,NA
wx59rGwP,3bakuke4akpi45n0y93n6zfn3q3r1f,3wev0ko0oq5qkz1jktspmvhkj43dsj,wx59rGwP,2020-0188,2021-10-31,15:33:33,17:08:19,NA,incomplete,true,true,NA,NA,0,26,NA,gray,m_s_058.jpg,NA,NA,NA,NA,NA,unpleasant,pleasant,NA,NA,NA,NA,NA,left,1337.30000000075,true,NA,NA,NA,NA,NA,NA,NA,NA
wx59rGwP,3bakuke4akpi45n0y93n6zfn3q3r1f,3wev0ko0oq5qkz1jktspmvhkj43dsj,wx59rGwP,2020-0188,2021-10-31,15:33:33,17:08:19,NA,incomplete,true,true,NA,NA,0,27,NA,gray,n_l_071.jpg,NA,NA,NA,NA,NA,unpleasant,pleasant,NA,NA,NA,NA,NA,right,1610.10000000149,true,NA,NA,NA,NA,NA,NA,NA,NA
wx59rGwP,3bakuke4akpi45n0y93n6zfn3q3r1f,3wev0ko0oq5qkz1jktspmvhkj43dsj,wx59rGwP,2020-0188,2021-10-31,15:33:33,17:08:19,NA,incomplete,true,true,NA,NA,0,28,NA,gray,m_l_022.jpg,NA,NA,NA,NA,NA,unpleasant,pleasant,NA,NA,NA,NA,NA,left,1132.40000000224,true,NA,NA,NA,NA,NA,NA,NA,NA
wx59rGwP,3bakuke4akpi45n0y93n6zfn3q3r1f,3wev0ko0oq5qkz1jktspmvhkj43dsj,wx59rGwP,2020-0188,2021-10-31,15:33:33,17:08:19,NA,incomplete,true,true,NA,NA,0,29,NA,gray,n_s_006.jpg,NA,NA,NA,NA,NA,pleasant,unpleasant,NA,NA,NA,NA,NA,left,2087.89999999851,true,NA,NA,NA,NA,NA,NA,NA,NA
wx59rGwP,3bakuke4akpi45n0y93n6zfn3q3r1f,3wev0ko0oq5qkz1jktspmvhkj43dsj,wx59rGwP,2020-0188,2021-10-31,15:33:33,17:08:19,NA,incomplete,true,true,NA,NA,0,30,NA,brown,n_s_004.jpg,NA,NA,NA,NA,NA,pleasant,unpleasant,NA,NA,NA,NA,NA,right,1470.19999999925,true,NA,NA,NA,NA,NA,NA,NA,NA
wx59rGwP,3bakuke4akpi45n0y93n6zfn3q3r1f,3wev0ko0oq5qkz1jktspmvhkj43dsj,wx59rGwP,2020-0188,2021-10-31,15:33:33,17:08:19,NA,incomplete,true,true,NA,NA,0,31,NA,brown,n_s_005.jpg,NA,NA,NA,NA,NA,pleasant,unpleasant,NA,NA,NA,NA,NA,left,1520.69999999925,true,NA,NA,NA,NA,NA,NA,NA,NA
wx59rGwP,3bakuke4akpi45n0y93n6zfn3q3r1f,3wev0ko0oq5qkz1jktspmvhkj43dsj,wx59rGwP,2020-0188,2021-10-31,15:33:33,17:08:19,NA,incomplete,true,true,NA,NA,0,32,NA,brown,n_l_086.jpg,NA,NA,NA,NA,NA,unpleasant,pleasant,NA,NA,NA,NA,NA,right,1482.10000000149,true,NA,NA,NA,NA,NA,NA,NA,NA
wx59rGwP,3bakuke4akpi45n0y93n6zfn3q3r1f,3wev0ko0oq5qkz1jktspmvhkj43dsj,wx59rGwP,2020-0188,2021-10-31,15:33:33,17:08:19,NA,incomplete,true,true,NA,NA,0,33,NA,brown,m_s_102.jpg,NA,NA,NA,NA,NA,pleasant,unpleasant,NA,NA,NA,NA,NA,right,2359.69999999925,true,NA,NA,NA,NA,NA,NA,NA,NA
wx59rGwP,3bakuke4akpi45n0y93n6zfn3q3r1f,3wev0ko0oq5qkz1jktspmvhkj43dsj,wx59rGwP,2020-0188,2021-10-31,15:33:33,17:08:19,NA,incomplete,true,true,NA,NA,0,34,NA,brown,m_s_003.jpg,NA,NA,NA,NA,NA,unpleasant,pleasant,NA,NA,NA,NA,NA,left,1313.69999999925,true,NA,NA,NA,NA,NA,NA,NA,NA
wx59rGwP,3bakuke4akpi45n0y93n6zfn3q3r1f,3wev0ko0oq5qkz1jktspmvhkj43dsj,wx59rGwP,2020-0188,2021-10-31,15:33:33,17:08:19,NA,incomplete,true,true,NA,NA,0,35,NA,brown,m_l_089.jpg,NA,NA,NA,NA,NA,unpleasant,pleasant,NA,NA,NA,NA,NA,right,2277.59999999776,true,NA,NA,NA,NA,NA,NA,NA,NA
wx59rGwP,3bakuke4akpi45n0y93n6zfn3q3r1f,3wev0ko0oq5qkz1jktspmvhkj43dsj,wx59rGwP,2020-0188,2021-10-31,15:33:33,17:08:19,NA,incomplete,true,NA,NA,true,0,0,NA,NA,NA,left,m_l_113.jpg,gray,black,NA,NA,NA,NA,NA,NA,NA,NA,NA,NaN,NA,4754.599999997765,left,1,NA,NA,NA,NA,NA
wx59rGwP,3bakuke4akpi45n0y93n6zfn3q3r1f,3wev0ko0oq5qkz1jktspmvhkj43dsj,wx59rGwP,2020-0188,2021-10-31,15:33:33,17:08:19,NA,incomplete,true,NA,NA,true,0,1,NA,NA,NA,left,m_s_029.jpg,black,red,NA,NA,NA,NA,NA,NA,NA,NA,NA,NaN,NA,6198.599999997765,left,1,NA,NA,NA,NA,NA
wx59rGwP,3bakuke4akpi45n0y93n6zfn3q3r1f,3wev0ko0oq5qkz1jktspmvhkj43dsj,wx59rGwP,2020-0188,2021-10-31,15:33:33,17:08:19,NA,incomplete,true,NA,NA,true,0,2,NA,NA,NA,left,n_s_005.jpg,brown,gray,NA,NA,NA,NA,NA,NA,NA,NA,NA,NaN,NA,3867,right,0,NA,NA,NA,NA,NA
wx59rGwP,3bakuke4akpi45n0y93n6zfn3q3r1f,3wev0ko0oq5qkz1jktspmvhkj43dsj,wx59rGwP,2020-0188,2021-10-31,15:33:33,17:08:19,NA,incomplete,true,NA,NA,true,0,3,NA,NA,NA,right,n_l_108.jpg,black,red,NA,NA,NA,NA,NA,NA,NA,NA,NA,NaN,NA,4807.10000000149,right,1,NA,NA,NA,NA,NA
wx59rGwP,3bakuke4akpi45n0y93n6zfn3q3r1f,3wev0ko0oq5qkz1jktspmvhkj43dsj,wx59rGwP,2020-0188,2021-10-31,15:33:33,17:08:19,NA,incomplete,true,NA,NA,true,0,4,NA,NA,NA,right,m_l_049.jpg,orange,red,NA,NA,NA,NA,NA,NA,NA,NA,NA,NaN,NA,4487.39999999851,left,0,NA,NA,NA,NA,NA
wx59rGwP,3bakuke4akpi45n0y93n6zfn3q3r1f,3wev0ko0oq5qkz1jktspmvhkj43dsj,wx59rGwP,2020-0188,2021-10-31,15:33:33,17:08:19,NA,incomplete,true,NA,NA,true,0,5,NA,NA,NA,right,m_s_047.jpg,black,red,NA,NA,NA,NA,NA,NA,NA,NA,NA,NaN,NA,4998.699999999255,left,0,NA,NA,NA,NA,NA
wx59rGwP,3bakuke4akpi45n0y93n6zfn3q3r1f,3wev0ko0oq5qkz1jktspmvhkj43dsj,wx59rGwP,2020-0188,2021-10-31,15:33:33,17:08:19,NA,incomplete,true,NA,NA,true,0,6,NA,NA,NA,left,n_l_014.jpg,orange,green,NA,NA,NA,NA,NA,NA,NA,NA,NA,NaN,NA,4198.89999999851,right,0,NA,NA,NA,NA,NA
wx59rGwP,3bakuke4akpi45n0y93n6zfn3q3r1f,3wev0ko0oq5qkz1jktspmvhkj43dsj,wx59rGwP,2020-0188,2021-10-31,15:33:33,17:08:19,NA,incomplete,true,NA,NA,true,0,7,NA,NA,NA,left,n_s_079.jpg,green,orange,NA,NA,NA,NA,NA,NA,NA,NA,NA,NaN,NA,5555,left,1,NA,NA,NA,NA,NA
wx59rGwP,3bakuke4akpi45n0y93n6zfn3q3r1f,3wev0ko0oq5qkz1jktspmvhkj43dsj,wx59rGwP,2020-0188,2021-10-31,15:33:33,17:08:19,NA,incomplete,true,NA,NA,true,0,8,NA,NA,NA,right,m_l_022.jpg,black,gray,NA,NA,NA,NA,NA,NA,NA,NA,NA,NaN,NA,4503,right,1,NA,NA,NA,NA,NA
wx59rGwP,3bakuke4akpi45n0y93n6zfn3q3r1f,3wev0ko0oq5qkz1jktspmvhkj43dsj,wx59rGwP,2020-0188,2021-10-31,15:33:33,17:08:19,NA,incomplete,true,NA,NA,true,0,9,NA,NA,NA,right,m_s_028.jpg,green,orange,NA,NA,NA,NA,NA,NA,NA,NA,NA,NaN,NA,3531.099999997765,right,1,NA,NA,NA,NA,NA
wx59rGwP,3bakuke4akpi45n0y93n6zfn3q3r1f,3wev0ko0oq5qkz1jktspmvhkj43dsj,wx59rGwP,2020-0188,2021-10-31,15:33:33,17:08:19,NA,incomplete,true,NA,NA,true,0,10,NA,NA,NA,right,m_s_058.jpg,brown,gray,NA,NA,NA,NA,NA,NA,NA,NA,NA,NaN,NA,4403.10000000149,right,1,NA,NA,NA,NA,NA
wx59rGwP,3bakuke4akpi45n0y93n6zfn3q3r1f,3wev0ko0oq5qkz1jktspmvhkj43dsj,wx59rGwP,2020-0188,2021-10-31,15:33:33,17:08:19,NA,incomplete,true,NA,NA,true,0,11,NA,NA,NA,right,n_l_105.jpg,orange,green,NA,NA,NA,NA,NA,NA,NA,NA,NA,NaN,NA,3659.199999999255,left,0,NA,NA,NA,NA,NA
wx59rGwP,3bakuke4akpi45n0y93n6zfn3q3r1f,3wev0ko0oq5qkz1jktspmvhkj43dsj,wx59rGwP,2020-0188,2021-10-31,15:33:33,17:08:19,NA,incomplete,true,NA,NA,true,0,12,NA,NA,NA,left,m_l_075.jpg,red,orange,NA,NA,NA,NA,NA,NA,NA,NA,NA,NaN,NA,2494.900000002235,left,1,NA,NA,NA,NA,NA
wx59rGwP,3bakuke4akpi45n0y93n6zfn3q3r1f,3wev0ko0oq5qkz1jktspmvhkj43dsj,wx59rGwP,2020-0188,2021-10-31,15:33:33,17:08:19,NA,incomplete,true,NA,NA,true,0,13,NA,NA,NA,left,m_s_046.jpg,green,orange,NA,NA,NA,NA,NA,NA,NA,NA,NA,NaN,NA,5158.60000000149,right,0,NA,NA,NA,NA,NA
wx59rGwP,3bakuke4akpi45n0y93n6zfn3q3r1f,3wev0ko0oq5qkz1jktspmvhkj43dsj,wx59rGwP,2020-0188,2021-10-31,15:33:33,17:08:19,NA,incomplete,true,NA,NA,true,0,14,NA,NA,NA,left,n_s_006.jpg,gray,black,NA,NA,NA,NA,NA,NA,NA,NA,NA,NaN,NA,3298.800000000745,left,1,NA,NA,NA,NA,NA
wx59rGwP,3bakuke4akpi45n0y93n6zfn3q3r1f,3wev0ko0oq5qkz1jktspmvhkj43dsj,wx59rGwP,2020-0188,2021-10-31,15:33:33,17:08:19,NA,incomplete,true,NA,NA,true,0,15,NA,NA,NA,left,m_l_029.jpg,orange,green,NA,NA,NA,NA,NA,NA,NA,NA,NA,NaN,NA,3140.2000000029802,left,1,NA,NA,NA,NA,NA
wx59rGwP,3bakuke4akpi45n0y93n6zfn3q3r1f,3wev0ko0oq5qkz1jktspmvhkj43dsj,wx59rGwP,2020-0188,2021-10-31,15:33:33,17:08:19,NA,incomplete,true,NA,NA,true,0,16,NA,NA,NA,left,m_l_089.jpg,brown,gray,NA,NA,NA,NA,NA,NA,NA,NA,NA,NaN,NA,2914.89999999851,right,0,NA,NA,NA,NA,NA
wx59rGwP,3bakuke4akpi45n0y93n6zfn3q3r1f,3wev0ko0oq5qkz1jktspmvhkj43dsj,wx59rGwP,2020-0188,2021-10-31,15:33:33,17:08:19,NA,incomplete,true,NA,NA,true,0,17,NA,NA,NA,left,n_s_087.jpg,black,gray,NA,NA,NA,NA,NA,NA,NA,NA,NA,NaN,NA,4283.10000000149,left,1,NA,NA,NA,NA,NA
wx59rGwP,3bakuke4akpi45n0y93n6zfn3q3r1f,3wev0ko0oq5qkz1jktspmvhkj43dsj,wx59rGwP,2020-0188,2021-10-31,15:33:33,17:08:19,NA,incomplete,true,NA,NA,true,0,18,NA,NA,NA,right,n_l_100.jpg,gray,black,NA,NA,NA,NA,NA,NA,NA,NA,NA,NaN,NA,4907.5,left,0,NA,NA,NA,NA,NA
wx59rGwP,3bakuke4akpi45n0y93n6zfn3q3r1f,3wev0ko0oq5qkz1jktspmvhkj43dsj,wx59rGwP,2020-0188,2021-10-31,15:33:33,17:08:19,NA,incomplete,true,NA,NA,true,0,19,NA,NA,NA,left,m_l_003.jpg,orange,green,NA,NA,NA,NA,NA,NA,NA,NA,NA,NaN,NA,14131.300000000745,right,0,NA,NA,NA,NA,NA
wx59rGwP,3bakuke4akpi45n0y93n6zfn3q3r1f,3wev0ko0oq5qkz1jktspmvhkj43dsj,wx59rGwP,2020-0188,2021-10-31,15:33:33,17:08:19,NA,incomplete,true,NA,NA,true,0,20,NA,NA,NA,left,n_l_095.jpg,black,gray,NA,NA,NA,NA,NA,NA,NA,NA,NA,NaN,NA,5223,left,1,NA,NA,NA,NA,NA
wx59rGwP,3bakuke4akpi45n0y93n6zfn3q3r1f,3wev0ko0oq5qkz1jktspmvhkj43dsj,wx59rGwP,2020-0188,2021-10-31,15:33:33,17:08:19,NA,incomplete,true,NA,NA,true,0,21,NA,NA,NA,left,n_l_086.jpg,brown,gray,NA,NA,NA,NA,NA,NA,NA,NA,NA,NaN,NA,3675.2000000029802,right,0,NA,NA,NA,NA,NA
wx59rGwP,3bakuke4akpi45n0y93n6zfn3q3r1f,3wev0ko0oq5qkz1jktspmvhkj43dsj,wx59rGwP,2020-0188,2021-10-31,15:33:33,17:08:19,NA,incomplete,true,NA,true,NA,0,0,NA,NA,NA,right,NA,NA,NA,present,NA,NA,n_l_108.jpg,red,m_s_047.jpg,red,within,NA,NaN,NA,NA,NA,NA,left,11048.5,0,2,7423.10000000149
wx59rGwP,3bakuke4akpi45n0y93n6zfn3q3r1f,3wev0ko0oq5qkz1jktspmvhkj43dsj,wx59rGwP,2020-0188,2021-10-31,15:33:33,17:08:19,NA,incomplete,true,NA,true,NA,0,1,NA,NA,NA,right,NA,NA,NA,present,NA,NA,n_l_105.jpg,green,m_s_046.jpg,green,within,NA,NaN,NA,NA,NA,NA,right,10367.099999997765,1,1,2931.5
wx59rGwP,3bakuke4akpi45n0y93n6zfn3q3r1f,3wev0ko0oq5qkz1jktspmvhkj43dsj,wx59rGwP,2020-0188,2021-10-31,15:33:33,17:08:19,NA,incomplete,true,NA,true,NA,0,2,NA,NA,NA,right,NA,NA,NA,present,NA,NA,n_s_006.jpg,gray,m_l_113.jpg,gray,within,NA,NaN,NA,NA,NA,NA,right,4487.300000000745,1,1,4271.199999999255
wx59rGwP,3bakuke4akpi45n0y93n6zfn3q3r1f,3wev0ko0oq5qkz1jktspmvhkj43dsj,wx59rGwP,2020-0188,2021-10-31,15:33:33,17:08:19,NA,incomplete,true,NA,true,NA,0,3,NA,NA,NA,left,NA,NA,NA,present,NA,NA,n_s_005.jpg,brown,m_l_089.jpg,brown,within,NA,NaN,NA,NA,NA,NA,left,5663.699999999255,1,0,2163
wx59rGwP,3bakuke4akpi45n0y93n6zfn3q3r1f,3wev0ko0oq5qkz1jktspmvhkj43dsj,wx59rGwP,2020-0188,2021-10-31,15:33:33,17:08:19,NA,incomplete,true,NA,true,NA,0,4,NA,NA,NA,right,NA,NA,NA,present,NA,NA,n_l_086.jpg,brown,m_l_022.jpg,gray,between,NA,NaN,NA,NA,NA,NA,left,7770.89999999851,0,1,2722.5
wx59rGwP,3bakuke4akpi45n0y93n6zfn3q3r1f,3wev0ko0oq5qkz1jktspmvhkj43dsj,wx59rGwP,2020-0188,2021-10-31,15:33:33,17:08:19,NA,incomplete,true,NA,true,NA,0,5,NA,NA,NA,right,NA,NA,NA,present,NA,NA,n_l_095.jpg,black,m_l_049.jpg,red,between,NA,NaN,NA,NA,NA,NA,right,3747.199999999255,1,1,1839
wx59rGwP,3bakuke4akpi45n0y93n6zfn3q3r1f,3wev0ko0oq5qkz1jktspmvhkj43dsj,wx59rGwP,2020-0188,2021-10-31,15:33:33,17:08:19,NA,incomplete,true,NA,true,NA,0,6,NA,NA,NA,left,NA,NA,NA,present,NA,NA,n_s_079.jpg,green,m_l_003.jpg,orange,between,NA,NaN,NA,NA,NA,NA,left,3123.300000000745,1,2,2647
wx59rGwP,3bakuke4akpi45n0y93n6zfn3q3r1f,3wev0ko0oq5qkz1jktspmvhkj43dsj,wx59rGwP,2020-0188,2021-10-31,15:33:33,17:08:19,NA,incomplete,true,NA,true,NA,0,7,NA,NA,NA,left,NA,NA,NA,present,NA,NA,m_s_028.jpg,orange,m_l_029.jpg,orange,within,NA,NaN,NA,NA,NA,NA,left,2932,1,2,3163
wx59rGwP,3bakuke4akpi45n0y93n6zfn3q3r1f,3wev0ko0oq5qkz1jktspmvhkj43dsj,wx59rGwP,2020-0188,2021-10-31,15:33:33,17:08:19,NA,incomplete,true,NA,true,NA,0,8,NA,NA,NA,left,NA,NA,NA,present,NA,NA,m_s_029.jpg,black,n_l_100.jpg,black,within,NA,NaN,NA,NA,NA,NA,left,6391.900000002235,1,1,5150.800000000745
wx59rGwP,3bakuke4akpi45n0y93n6zfn3q3r1f,3wev0ko0oq5qkz1jktspmvhkj43dsj,wx59rGwP,2020-0188,2021-10-31,15:33:33,17:08:19,NA,incomplete,true,NA,true,NA,0,9,NA,NA,NA,left,NA,NA,NA,present,NA,NA,n_s_087.jpg,black,m_s_058.jpg,gray,between,NA,NaN,NA,NA,NA,NA,right,4826.800000000745,0,2,3291
wx59rGwP,3bakuke4akpi45n0y93n6zfn3q3r1f,3wev0ko0oq5qkz1jktspmvhkj43dsj,wx59rGwP,2020-0188,2021-10-31,15:33:33,17:08:19,NA,incomplete,true,NA,true,NA,0,10,NA,NA,NA,right,NA,NA,NA,present,NA,NA,m_l_075.jpg,red,n_l_014.jpg,orange,between,NA,NaN,NA,NA,NA,NA,right,6262.39999999851,1,2,1967.1000000014901
wx59rGwP,3bakuke4akpi45n0y93n6zfn3q3r1f,3wev0ko0oq5qkz1jktspmvhkj43dsj,wx59rGwP,2020-0188,2021-10-31,15:33:33,17:08:19,NA,incomplete,false,true,NA,NA,1,0,NA,white,n_s_103.jpg,NA,NA,NA,NA,NA,pleasant,unpleasant,NA,NA,NA,NA,NA,none,0,false,NA,NA,NA,NA,NA,NA,NA,NA
wx59rGwP,3bakuke4akpi45n0y93n6zfn3q3r1f,3wev0ko0oq5qkz1jktspmvhkj43dsj,wx59rGwP,2020-0188,2021-10-31,15:33:33,17:08:19,NA,incomplete,false,true,NA,NA,1,1,NA,white,n_l_107.jpg,NA,NA,NA,NA,NA,unpleasant,pleasant,NA,NA,NA,NA,NA,right,1839.69999999925,true,NA,NA,NA,NA,NA,NA,NA,NA
wx59rGwP,3bakuke4akpi45n0y93n6zfn3q3r1f,3wev0ko0oq5qkz1jktspmvhkj43dsj,wx59rGwP,2020-0188,2021-10-31,15:33:33,17:08:19,NA,incomplete,false,true,NA,NA,1,2,NA,white,m_s_015.jpg,NA,NA,NA,NA,NA,pleasant,unpleasant,NA,NA,NA,NA,NA,left,2416.19999999925,true,NA,NA,NA,NA,NA,NA,NA,NA
wx59rGwP,3bakuke4akpi45n0y93n6zfn3q3r1f,3wev0ko0oq5qkz1jktspmvhkj43dsj,wx59rGwP,2020-0188,2021-10-31,15:33:33,17:08:19,NA,incomplete,false,true,NA,NA,1,3,NA,white,n_l_113.jpg,NA,NA,NA,NA,NA,pleasant,unpleasant,NA,NA,NA,NA,NA,right,2058.80000000075,true,NA,NA,NA,NA,NA,NA,NA,NA
wx59rGwP,3bakuke4akpi45n0y93n6zfn3q3r1f,3wev0ko0oq5qkz1jktspmvhkj43dsj,wx59rGwP,2020-0188,2021-10-31,15:33:33,17:08:19,NA,incomplete,false,true,NA,NA,1,4,NA,white,m_l_052.jpg,NA,NA,NA,NA,NA,pleasant,unpleasant,NA,NA,NA,NA,NA,right,3485.30000000075,true,NA,NA,NA,NA,NA,NA,NA,NA
wx59rGwP,3bakuke4akpi45n0y93n6zfn3q3r1f,3wev0ko0oq5qkz1jktspmvhkj43dsj,wx59rGwP,2020-0188,2021-10-31,15:33:33,17:08:19,NA,incomplete,false,true,NA,NA,1,5,NA,white,n_s_102.jpg,NA,NA,NA,NA,NA,unpleasant,pleasant,NA,NA,NA,NA,NA,right,2587.69999999925,true,NA,NA,NA,NA,NA,NA,NA,NA
wx59rGwP,3bakuke4akpi45n0y93n6zfn3q3r1f,3wev0ko0oq5qkz1jktspmvhkj43dsj,wx59rGwP,2020-0188,2021-10-31,15:33:33,17:08:19,NA,incomplete,false,true,NA,NA,1,6,NA,red,n_l_045.jpg,NA,NA,NA,NA,NA,pleasant,unpleasant,NA,NA,NA,NA,NA,left,1830.39999999851,true,NA,NA,NA,NA,NA,NA,NA,NA
wx59rGwP,3bakuke4akpi45n0y93n6zfn3q3r1f,3wev0ko0oq5qkz1jktspmvhkj43dsj,wx59rGwP,2020-0188,2021-10-31,15:33:33,17:08:19,NA,incomplete,false,true,NA,NA,1,7,NA,red,m_l_015.jpg,NA,NA,NA,NA,NA,pleasant,unpleasant,NA,NA,NA,NA,NA,right,2063.89999999851,true,NA,NA,NA,NA,NA,NA,NA,NA
wx59rGwP,3bakuke4akpi45n0y93n6zfn3q3r1f,3wev0ko0oq5qkz1jktspmvhkj43dsj,wx59rGwP,2020-0188,2021-10-31,15:33:33,17:08:19,NA,incomplete,false,true,NA,NA,1,8,NA,red,n_s_073.jpg,NA,NA,NA,NA,NA,pleasant,unpleasant,NA,NA,NA,NA,NA,left,1496.40000000224,true,NA,NA,NA,NA,NA,NA,NA,NA
wx59rGwP,3bakuke4akpi45n0y93n6zfn3q3r1f,3wev0ko0oq5qkz1jktspmvhkj43dsj,wx59rGwP,2020-0188,2021-10-31,15:33:33,17:08:19,NA,incomplete,false,true,NA,NA,1,9,NA,red,n_s_071.jpg,NA,NA,NA,NA,NA,unpleasant,pleasant,NA,NA,NA,NA,NA,right,1295,true,NA,NA,NA,NA,NA,NA,NA,NA
wx59rGwP,3bakuke4akpi45n0y93n6zfn3q3r1f,3wev0ko0oq5qkz1jktspmvhkj43dsj,wx59rGwP,2020-0188,2021-10-31,15:33:33,17:08:19,NA,incomplete,false,true,NA,NA,1,10,NA,red,n_l_101.jpg,NA,NA,NA,NA,NA,pleasant,unpleasant,NA,NA,NA,NA,NA,left,1750.89999999851,true,NA,NA,NA,NA,NA,NA,NA,NA
wx59rGwP,3bakuke4akpi45n0y93n6zfn3q3r1f,3wev0ko0oq5qkz1jktspmvhkj43dsj,wx59rGwP,2020-0188,2021-10-31,15:33:33,17:08:19,NA,incomplete,false,true,NA,NA,1,11,NA,red,m_l_005.jpg,NA,NA,NA,NA,NA,pleasant,unpleasant,NA,NA,NA,NA,NA,right,1340.69999999925,true,NA,NA,NA,NA,NA,NA,NA,NA
wx59rGwP,3bakuke4akpi45n0y93n6zfn3q3r1f,3wev0ko0oq5qkz1jktspmvhkj43dsj,wx59rGwP,2020-0188,2021-10-31,15:33:33,17:08:19,NA,incomplete,false,true,NA,NA,1,12,NA,orange,m_s_043.jpg,NA,NA,NA,NA,NA,pleasant,unpleasant,NA,NA,NA,NA,NA,right,2573,true,NA,NA,NA,NA,NA,NA,NA,NA
wx59rGwP,3bakuke4akpi45n0y93n6zfn3q3r1f,3wev0ko0oq5qkz1jktspmvhkj43dsj,wx59rGwP,2020-0188,2021-10-31,15:33:33,17:08:19,NA,incomplete,false,true,NA,NA,1,13,NA,orange,m_s_012.jpg,NA,NA,NA,NA,NA,unpleasant,pleasant,NA,NA,NA,NA,NA,left,1391.5,true,NA,NA,NA,NA,NA,NA,NA,NA
wx59rGwP,3bakuke4akpi45n0y93n6zfn3q3r1f,3wev0ko0oq5qkz1jktspmvhkj43dsj,wx59rGwP,2020-0188,2021-10-31,15:33:33,17:08:19,NA,incomplete,false,true,NA,NA,1,14,NA,orange,m_l_008.jpg,NA,NA,NA,NA,NA,unpleasant,pleasant,NA,NA,NA,NA,NA,left,1080,true,NA,NA,NA,NA,NA,NA,NA,NA
wx59rGwP,3bakuke4akpi45n0y93n6zfn3q3r1f,3wev0ko0oq5qkz1jktspmvhkj43dsj,wx59rGwP,2020-0188,2021-10-31,15:33:33,17:08:19,NA,incomplete,false,true,NA,NA,1,15,NA,orange,m_s_038.jpg,NA,NA,NA,NA,NA,pleasant,unpleasant,NA,NA,NA,NA,NA,right,1224.60000000149,true,NA,NA,NA,NA,NA,NA,NA,NA
wx59rGwP,3bakuke4akpi45n0y93n6zfn3q3r1f,3wev0ko0oq5qkz1jktspmvhkj43dsj,wx59rGwP,2020-0188,2021-10-31,15:33:33,17:08:19,NA,incomplete,false,true,NA,NA,1,16,NA,orange,m_s_074.jpg,NA,NA,NA,NA,NA,unpleasant,pleasant,NA,NA,NA,NA,NA,left,2746.59999999776,true,NA,NA,NA,NA,NA,NA,NA,NA
wx59rGwP,3bakuke4akpi45n0y93n6zfn3q3r1f,3wev0ko0oq5qkz1jktspmvhkj43dsj,wx59rGwP,2020-0188,2021-10-31,15:33:33,17:08:19,NA,incomplete,false,true,NA,NA,1,17,NA,orange,m_s_106.jpg,NA,NA,NA,NA,NA,unpleasant,pleasant,NA,NA,NA,NA,NA,left,1278.20000000298,true,NA,NA,NA,NA,NA,NA,NA,NA
wx59rGwP,3bakuke4akpi45n0y93n6zfn3q3r1f,3wev0ko0oq5qkz1jktspmvhkj43dsj,wx59rGwP,2020-0188,2021-10-31,15:33:33,17:08:19,NA,incomplete,false,true,NA,NA,1,18,NA,green,m_l_060.jpg,NA,NA,NA,NA,NA,unpleasant,pleasant,NA,NA,NA,NA,NA,left,1621.90000000224,true,NA,NA,NA,NA,NA,NA,NA,NA
wx59rGwP,3bakuke4akpi45n0y93n6zfn3q3r1f,3wev0ko0oq5qkz1jktspmvhkj43dsj,wx59rGwP,2020-0188,2021-10-31,15:33:33,17:08:19,NA,incomplete,false,true,NA,NA,1,19,NA,green,m_l_105.jpg,NA,NA,NA,NA,NA,unpleasant,pleasant,NA,NA,NA,NA,NA,left,908.199999999255,true,NA,NA,NA,NA,NA,NA,NA,NA
wx59rGwP,3bakuke4akpi45n0y93n6zfn3q3r1f,3wev0ko0oq5qkz1jktspmvhkj43dsj,wx59rGwP,2020-0188,2021-10-31,15:33:33,17:08:19,NA,incomplete,false,true,NA,NA,1,20,NA,green,m_s_075.jpg,NA,NA,NA,NA,NA,unpleasant,pleasant,NA,NA,NA,NA,NA,left,1417.5,true,NA,NA,NA,NA,NA,NA,NA,NA
wx59rGwP,3bakuke4akpi45n0y93n6zfn3q3r1f,3wev0ko0oq5qkz1jktspmvhkj43dsj,wx59rGwP,2020-0188,2021-10-31,15:33:33,17:08:19,NA,incomplete,false,true,NA,NA,1,21,NA,green,m_s_092.jpg,NA,NA,NA,NA,NA,unpleasant,pleasant,NA,NA,NA,NA,NA,left,3032.19999999925,true,NA,NA,NA,NA,NA,NA,NA,NA
wx59rGwP,3bakuke4akpi45n0y93n6zfn3q3r1f,3wev0ko0oq5qkz1jktspmvhkj43dsj,wx59rGwP,2020-0188,2021-10-31,15:33:33,17:08:19,NA,incomplete,false,true,NA,NA,1,22,NA,green,n_s_025.jpg,NA,NA,NA,NA,NA,unpleasant,pleasant,NA,NA,NA,NA,NA,right,1379.79999999702,true,NA,NA,NA,NA,NA,NA,NA,NA
wx59rGwP,3bakuke4akpi45n0y93n6zfn3q3r1f,3wev0ko0oq5qkz1jktspmvhkj43dsj,wx59rGwP,2020-0188,2021-10-31,15:33:33,17:08:19,NA,incomplete,false,true,NA,NA,1,23,NA,green,m_s_026.jpg,NA,NA,NA,NA,NA,unpleasant,pleasant,NA,NA,NA,NA,NA,left,1340.60000000149,true,NA,NA,NA,NA,NA,NA,NA,NA
wx59rGwP,3bakuke4akpi45n0y93n6zfn3q3r1f,3wev0ko0oq5qkz1jktspmvhkj43dsj,wx59rGwP,2020-0188,2021-10-31,15:33:33,17:08:19,NA,incomplete,false,true,NA,NA,1,24,NA,brown,m_s_089.jpg,NA,NA,NA,NA,NA,pleasant,unpleasant,NA,NA,NA,NA,NA,right,1250.59999999776,true,NA,NA,NA,NA,NA,NA,NA,NA
wx59rGwP,3bakuke4akpi45n0y93n6zfn3q3r1f,3wev0ko0oq5qkz1jktspmvhkj43dsj,wx59rGwP,2020-0188,2021-10-31,15:33:33,17:08:19,NA,incomplete,false,true,NA,NA,1,25,NA,brown,m_s_063.jpg,NA,NA,NA,NA,NA,unpleasant,pleasant,NA,NA,NA,NA,NA,left,1740.80000000075,true,NA,NA,NA,NA,NA,NA,NA,NA
wx59rGwP,3bakuke4akpi45n0y93n6zfn3q3r1f,3wev0ko0oq5qkz1jktspmvhkj43dsj,wx59rGwP,2020-0188,2021-10-31,15:33:33,17:08:19,NA,incomplete,false,true,NA,NA,1,26,NA,brown,m_l_043.jpg,NA,NA,NA,NA,NA,unpleasant,pleasant,NA,NA,NA,NA,NA,left,2216.30000000075,true,NA,NA,NA,NA,NA,NA,NA,NA
wx59rGwP,3bakuke4akpi45n0y93n6zfn3q3r1f,3wev0ko0oq5qkz1jktspmvhkj43dsj,wx59rGwP,2020-0188,2021-10-31,15:33:33,17:08:19,NA,incomplete,false,true,NA,NA,1,27,NA,brown,m_l_112.jpg,NA,NA,NA,NA,NA,pleasant,unpleasant,NA,NA,NA,NA,NA,left,2039.90000000224,true,NA,NA,NA,NA,NA,NA,NA,NA
wx59rGwP,3bakuke4akpi45n0y93n6zfn3q3r1f,3wev0ko0oq5qkz1jktspmvhkj43dsj,wx59rGwP,2020-0188,2021-10-31,15:33:33,17:08:19,NA,incomplete,false,true,NA,NA,1,28,NA,brown,m_l_068.jpg,NA,NA,NA,NA,NA,unpleasant,pleasant,NA,NA,NA,NA,NA,left,2205.69999999925,true,NA,NA,NA,NA,NA,NA,NA,NA
wx59rGwP,3bakuke4akpi45n0y93n6zfn3q3r1f,3wev0ko0oq5qkz1jktspmvhkj43dsj,wx59rGwP,2020-0188,2021-10-31,15:33:33,17:08:19,NA,incomplete,false,true,NA,NA,1,29,NA,brown,m_s_100.jpg,NA,NA,NA,NA,NA,unpleasant,pleasant,NA,NA,NA,NA,NA,left,1284.19999999925,true,NA,NA,NA,NA,NA,NA,NA,NA
wx59rGwP,3bakuke4akpi45n0y93n6zfn3q3r1f,3wev0ko0oq5qkz1jktspmvhkj43dsj,wx59rGwP,2020-0188,2021-10-31,15:33:33,17:08:19,NA,incomplete,false,true,NA,NA,1,30,NA,black,m_l_047.jpg,NA,NA,NA,NA,NA,unpleasant,pleasant,NA,NA,NA,NA,NA,left,1619.5,true,NA,NA,NA,NA,NA,NA,NA,NA
wx59rGwP,3bakuke4akpi45n0y93n6zfn3q3r1f,3wev0ko0oq5qkz1jktspmvhkj43dsj,wx59rGwP,2020-0188,2021-10-31,15:33:33,17:08:19,NA,incomplete,false,true,NA,NA,1,31,NA,black,m_s_052.jpg,NA,NA,NA,NA,NA,unpleasant,pleasant,NA,NA,NA,NA,NA,left,2381.30000000075,true,NA,NA,NA,NA,NA,NA,NA,NA
wx59rGwP,3bakuke4akpi45n0y93n6zfn3q3r1f,3wev0ko0oq5qkz1jktspmvhkj43dsj,wx59rGwP,2020-0188,2021-10-31,15:33:33,17:08:19,NA,incomplete,false,true,NA,NA,1,32,NA,black,m_s_077.jpg,NA,NA,NA,NA,NA,pleasant,unpleasant,NA,NA,NA,NA,NA,right,1398.89999999851,true,NA,NA,NA,NA,NA,NA,NA,NA
wx59rGwP,3bakuke4akpi45n0y93n6zfn3q3r1f,3wev0ko0oq5qkz1jktspmvhkj43dsj,wx59rGwP,2020-0188,2021-10-31,15:33:33,17:08:19,NA,incomplete,false,true,NA,NA,1,33,NA,black,m_s_025.jpg,NA,NA,NA,NA,NA,unpleasant,pleasant,NA,NA,NA,NA,NA,left,1863.80000000075,true,NA,NA,NA,NA,NA,NA,NA,NA
wx59rGwP,3bakuke4akpi45n0y93n6zfn3q3r1f,3wev0ko0oq5qkz1jktspmvhkj43dsj,wx59rGwP,2020-0188,2021-10-31,15:33:33,17:08:19,NA,incomplete,false,true,NA,NA,1,34,NA,black,m_l_012.jpg,NA,NA,NA,NA,NA,unpleasant,pleasant,NA,NA,NA,NA,NA,left,2191.80000000075,true,NA,NA,NA,NA,NA,NA,NA,NA
wx59rGwP,3bakuke4akpi45n0y93n6zfn3q3r1f,3wev0ko0oq5qkz1jktspmvhkj43dsj,wx59rGwP,2020-0188,2021-10-31,15:33:33,17:08:19,NA,incomplete,false,true,NA,NA,1,35,NA,black,n_l_039.jpg,NA,NA,NA,NA,NA,pleasant,unpleasant,NA,NA,NA,NA,NA,left,1742.79999999702,true,NA,NA,NA,NA,NA,NA,NA,NA
wx59rGwP,3bakuke4akpi45n0y93n6zfn3q3r1f,3wev0ko0oq5qkz1jktspmvhkj43dsj,wx59rGwP,2020-0188,2021-10-31,15:33:33,17:08:19,NA,incomplete,false,NA,NA,true,1,0,NA,NA,NA,left,m_s_075.jpg,green,brown,NA,NA,NA,NA,NA,NA,NA,NA,NA,NaN,NA,3651.599999997765,right,0,NA,NA,NA,NA,NA
wx59rGwP,3bakuke4akpi45n0y93n6zfn3q3r1f,3wev0ko0oq5qkz1jktspmvhkj43dsj,wx59rGwP,2020-0188,2021-10-31,15:33:33,17:08:19,NA,incomplete,false,NA,NA,true,1,1,NA,NA,NA,left,m_s_077.jpg,black,brown,NA,NA,NA,NA,NA,NA,NA,NA,NA,NaN,NA,4968.10000000149,right,0,NA,NA,NA,NA,NA
wx59rGwP,3bakuke4akpi45n0y93n6zfn3q3r1f,3wev0ko0oq5qkz1jktspmvhkj43dsj,wx59rGwP,2020-0188,2021-10-31,15:33:33,17:08:19,NA,incomplete,false,NA,NA,true,1,2,NA,NA,NA,left,m_s_074.jpg,orange,green,NA,NA,NA,NA,NA,NA,NA,NA,NA,NaN,NA,4750.900000002235,left,1,NA,NA,NA,NA,NA
wx59rGwP,3bakuke4akpi45n0y93n6zfn3q3r1f,3wev0ko0oq5qkz1jktspmvhkj43dsj,wx59rGwP,2020-0188,2021-10-31,15:33:33,17:08:19,NA,incomplete,false,NA,NA,true,1,3,NA,NA,NA,right,n_s_073.jpg,white,red,NA,NA,NA,NA,NA,NA,NA,NA,NA,NaN,NA,3451,right,1,NA,NA,NA,NA,NA
wx59rGwP,3bakuke4akpi45n0y93n6zfn3q3r1f,3wev0ko0oq5qkz1jktspmvhkj43dsj,wx59rGwP,2020-0188,2021-10-31,15:33:33,17:08:19,NA,incomplete,false,NA,NA,true,1,4,NA,NA,NA,left,m_s_052.jpg,black,brown,NA,NA,NA,NA,NA,NA,NA,NA,NA,NaN,NA,3243.099999997765,left,1,NA,NA,NA,NA,NA
wx59rGwP,3bakuke4akpi45n0y93n6zfn3q3r1f,3wev0ko0oq5qkz1jktspmvhkj43dsj,wx59rGwP,2020-0188,2021-10-31,15:33:33,17:08:19,NA,incomplete,false,NA,NA,true,1,5,NA,NA,NA,left,n_l_101.jpg,red,white,NA,NA,NA,NA,NA,NA,NA,NA,NA,NaN,NA,5331.20000000298,left,1,NA,NA,NA,NA,NA
wx59rGwP,3bakuke4akpi45n0y93n6zfn3q3r1f,3wev0ko0oq5qkz1jktspmvhkj43dsj,wx59rGwP,2020-0188,2021-10-31,15:33:33,17:08:19,NA,incomplete,false,NA,NA,true,1,6,NA,NA,NA,right,m_s_026.jpg,orange,green,NA,NA,NA,NA,NA,NA,NA,NA,NA,NaN,NA,2755.199999999255,left,0,NA,NA,NA,NA,NA
wx59rGwP,3bakuke4akpi45n0y93n6zfn3q3r1f,3wev0ko0oq5qkz1jktspmvhkj43dsj,wx59rGwP,2020-0188,2021-10-31,15:33:33,17:08:19,NA,incomplete,false,NA,NA,true,1,7,NA,NA,NA,left,n_s_102.jpg,white,red,NA,NA,NA,NA,NA,NA,NA,NA,NA,NaN,NA,6054.699999999255,right,0,NA,NA,NA,NA,NA
wx59rGwP,3bakuke4akpi45n0y93n6zfn3q3r1f,3wev0ko0oq5qkz1jktspmvhkj43dsj,wx59rGwP,2020-0188,2021-10-31,15:33:33,17:08:19,NA,incomplete,false,NA,NA,true,1,8,NA,NA,NA,left,m_s_100.jpg,brown,black,NA,NA,NA,NA,NA,NA,NA,NA,NA,NaN,NA,4123,right,0,NA,NA,NA,NA,NA
wx59rGwP,3bakuke4akpi45n0y93n6zfn3q3r1f,3wev0ko0oq5qkz1jktspmvhkj43dsj,wx59rGwP,2020-0188,2021-10-31,15:33:33,17:08:19,NA,incomplete,false,NA,NA,true,1,9,NA,NA,NA,right,m_l_008.jpg,green,orange,NA,NA,NA,NA,NA,NA,NA,NA,NA,NaN,NA,7763.300000000745,right,1,NA,NA,NA,NA,NA
wx59rGwP,3bakuke4akpi45n0y93n6zfn3q3r1f,3wev0ko0oq5qkz1jktspmvhkj43dsj,wx59rGwP,2020-0188,2021-10-31,15:33:33,17:08:19,NA,incomplete,false,NA,NA,true,1,10,NA,NA,NA,right,m_l_052.jpg,red,white,NA,NA,NA,NA,NA,NA,NA,NA,NA,NaN,NA,5031.199999999255,left,0,NA,NA,NA,NA,NA
wx59rGwP,3bakuke4akpi45n0y93n6zfn3q3r1f,3wev0ko0oq5qkz1jktspmvhkj43dsj,wx59rGwP,2020-0188,2021-10-31,15:33:33,17:08:19,NA,incomplete,false,NA,NA,true,1,11,NA,NA,NA,left,n_l_107.jpg,white,red,NA,NA,NA,NA,NA,NA,NA,NA,NA,NaN,NA,4254.89999999851,right,0,NA,NA,NA,NA,NA
wx59rGwP,3bakuke4akpi45n0y93n6zfn3q3r1f,3wev0ko0oq5qkz1jktspmvhkj43dsj,wx59rGwP,2020-0188,2021-10-31,15:33:33,17:08:19,NA,incomplete,false,NA,NA,true,1,12,NA,NA,NA,left,n_s_025.jpg,green,brown,NA,NA,NA,NA,NA,NA,NA,NA,NA,NaN,NA,5847.10000000149,left,1,NA,NA,NA,NA,NA
wx59rGwP,3bakuke4akpi45n0y93n6zfn3q3r1f,3wev0ko0oq5qkz1jktspmvhkj43dsj,wx59rGwP,2020-0188,2021-10-31,15:33:33,17:08:19,NA,incomplete,false,NA,NA,true,1,13,NA,NA,NA,right,m_l_068.jpg,black,brown,NA,NA,NA,NA,NA,NA,NA,NA,NA,NaN,NA,3691.10000000149,left,0,NA,NA,NA,NA,NA
wx59rGwP,3bakuke4akpi45n0y93n6zfn3q3r1f,3wev0ko0oq5qkz1jktspmvhkj43dsj,wx59rGwP,2020-0188,2021-10-31,15:33:33,17:08:19,NA,incomplete,false,NA,NA,true,1,14,NA,NA,NA,left,n_l_039.jpg,black,brown,NA,NA,NA,NA,NA,NA,NA,NA,NA,NaN,NA,4442.900000002235,left,1,NA,NA,NA,NA,NA
wx59rGwP,3bakuke4akpi45n0y93n6zfn3q3r1f,3wev0ko0oq5qkz1jktspmvhkj43dsj,wx59rGwP,2020-0188,2021-10-31,15:33:33,17:08:19,NA,incomplete,false,NA,NA,true,1,15,NA,NA,NA,left,m_s_063.jpg,brown,green,NA,NA,NA,NA,NA,NA,NA,NA,NA,NaN,NA,2642.699999999255,right,0,NA,NA,NA,NA,NA
wx59rGwP,3bakuke4akpi45n0y93n6zfn3q3r1f,3wev0ko0oq5qkz1jktspmvhkj43dsj,wx59rGwP,2020-0188,2021-10-31,15:33:33,17:08:19,NA,incomplete,false,NA,NA,true,1,16,NA,NA,NA,right,m_l_015.jpg,white,red,NA,NA,NA,NA,NA,NA,NA,NA,NA,NaN,NA,3562.699999999255,left,0,NA,NA,NA,NA,NA
wx59rGwP,3bakuke4akpi45n0y93n6zfn3q3r1f,3wev0ko0oq5qkz1jktspmvhkj43dsj,wx59rGwP,2020-0188,2021-10-31,15:33:33,17:08:19,NA,incomplete,false,NA,NA,true,1,17,NA,NA,NA,right,m_l_105.jpg,brown,green,NA,NA,NA,NA,NA,NA,NA,NA,NA,NaN,NA,3515.39999999851,left,0,NA,NA,NA,NA,NA
wx59rGwP,3bakuke4akpi45n0y93n6zfn3q3r1f,3wev0ko0oq5qkz1jktspmvhkj43dsj,wx59rGwP,2020-0188,2021-10-31,15:33:33,17:08:19,NA,incomplete,false,NA,NA,true,1,18,NA,NA,NA,right,m_s_012.jpg,green,orange,NA,NA,NA,NA,NA,NA,NA,NA,NA,NaN,NA,2839.599999997765,right,1,NA,NA,NA,NA,NA
wx59rGwP,3bakuke4akpi45n0y93n6zfn3q3r1f,3wev0ko0oq5qkz1jktspmvhkj43dsj,wx59rGwP,2020-0188,2021-10-31,15:33:33,17:08:19,NA,incomplete,false,NA,NA,true,1,19,NA,NA,NA,right,m_l_005.jpg,orange,red,NA,NA,NA,NA,NA,NA,NA,NA,NA,NaN,NA,3170.39999999851,right,1,NA,NA,NA,NA,NA
wx59rGwP,3bakuke4akpi45n0y93n6zfn3q3r1f,3wev0ko0oq5qkz1jktspmvhkj43dsj,wx59rGwP,2020-0188,2021-10-31,15:33:33,17:08:19,NA,incomplete,false,NA,NA,true,1,20,NA,NA,NA,right,m_s_106.jpg,green,orange,NA,NA,NA,NA,NA,NA,NA,NA,NA,NaN,NA,3282.89999999851,left,0,NA,NA,NA,NA,NA
wx59rGwP,3bakuke4akpi45n0y93n6zfn3q3r1f,3wev0ko0oq5qkz1jktspmvhkj43dsj,wx59rGwP,2020-0188,2021-10-31,15:33:33,17:08:19,NA,incomplete,false,NA,NA,true,1,21,NA,NA,NA,left,m_l_043.jpg,brown,black,NA,NA,NA,NA,NA,NA,NA,NA,NA,NaN,NA,3163,right,0,NA,NA,NA,NA,NA
wx59rGwP,3bakuke4akpi45n0y93n6zfn3q3r1f,3wev0ko0oq5qkz1jktspmvhkj43dsj,wx59rGwP,2020-0188,2021-10-31,15:33:33,17:08:19,NA,incomplete,false,NA,true,NA,1,0,NA,NA,NA,left,NA,NA,NA,present,NA,NA,m_s_012.jpg,orange,m_s_106.jpg,orange,within,NA,NaN,NA,NA,NA,NA,left,6701.900000002235,1,1,2455.60000000149
wx59rGwP,3bakuke4akpi45n0y93n6zfn3q3r1f,3wev0ko0oq5qkz1jktspmvhkj43dsj,wx59rGwP,2020-0188,2021-10-31,15:33:33,17:08:19,NA,incomplete,false,NA,true,NA,1,1,NA,NA,NA,left,NA,NA,NA,present,NA,NA,n_l_107.jpg,white,n_s_102.jpg,white,within,NA,NaN,NA,NA,NA,NA,right,5391,0,1,3131.400000002235
wx59rGwP,3bakuke4akpi45n0y93n6zfn3q3r1f,3wev0ko0oq5qkz1jktspmvhkj43dsj,wx59rGwP,2020-0188,2021-10-31,15:33:33,17:08:19,NA,incomplete,false,NA,true,NA,1,2,NA,NA,NA,right,NA,NA,NA,present,NA,NA,m_s_075.jpg,green,m_s_074.jpg,orange,between,NA,NaN,NA,NA,NA,NA,right,7518.10000000149,1,2,3783.5
wx59rGwP,3bakuke4akpi45n0y93n6zfn3q3r1f,3wev0ko0oq5qkz1jktspmvhkj43dsj,wx59rGwP,2020-0188,2021-10-31,15:33:33,17:08:19,NA,incomplete,false,NA,true,NA,1,3,NA,NA,NA,left,NA,NA,NA,present,NA,NA,m_s_052.jpg,black,n_l_039.jpg,black,within,NA,NaN,NA,NA,NA,NA,left,7032.199999999255,1,1,2370.5
wx59rGwP,3bakuke4akpi45n0y93n6zfn3q3r1f,3wev0ko0oq5qkz1jktspmvhkj43dsj,wx59rGwP,2020-0188,2021-10-31,15:33:33,17:08:19,NA,incomplete,false,NA,true,NA,1,4,NA,NA,NA,right,NA,NA,NA,present,NA,NA,m_s_077.jpg,black,m_l_068.jpg,brown,between,NA,NaN,NA,NA,NA,NA,left,3162.89999999851,0,2,2363.10000000149
wx59rGwP,3bakuke4akpi45n0y93n6zfn3q3r1f,3wev0ko0oq5qkz1jktspmvhkj43dsj,wx59rGwP,2020-0188,2021-10-31,15:33:33,17:08:19,NA,incomplete,false,NA,true,NA,1,5,NA,NA,NA,right,NA,NA,NA,present,NA,NA,n_s_073.jpg,red,m_l_052.jpg,white,between,NA,NaN,NA,NA,NA,NA,right,3554.2000000029802,1,1,3819
wx59rGwP,3bakuke4akpi45n0y93n6zfn3q3r1f,3wev0ko0oq5qkz1jktspmvhkj43dsj,wx59rGwP,2020-0188,2021-10-31,15:33:33,17:08:19,NA,incomplete,false,NA,true,NA,1,6,NA,NA,NA,right,NA,NA,NA,present,NA,NA,m_s_100.jpg,brown,m_s_063.jpg,brown,within,NA,NaN,NA,NA,NA,NA,left,5087.10000000149,0,1,5335.5
wx59rGwP,3bakuke4akpi45n0y93n6zfn3q3r1f,3wev0ko0oq5qkz1jktspmvhkj43dsj,wx59rGwP,2020-0188,2021-10-31,15:33:33,17:08:19,NA,incomplete,false,NA,true,NA,1,7,NA,NA,NA,right,NA,NA,NA,present,NA,NA,m_l_008.jpg,orange,n_l_101.jpg,red,between,NA,NaN,NA,NA,NA,NA,right,3722.89999999851,1,2,2594.89999999851
wx59rGwP,3bakuke4akpi45n0y93n6zfn3q3r1f,3wev0ko0oq5qkz1jktspmvhkj43dsj,wx59rGwP,2020-0188,2021-10-31,15:33:33,17:08:19,NA,incomplete,false,NA,true,NA,1,8,NA,NA,NA,right,NA,NA,NA,present,NA,NA,m_l_043.jpg,brown,n_s_025.jpg,green,between,NA,NaN,NA,NA,NA,NA,right,4730.900000002235,1,2,2451.400000002235
wx59rGwP,3bakuke4akpi45n0y93n6zfn3q3r1f,3wev0ko0oq5qkz1jktspmvhkj43dsj,wx59rGwP,2020-0188,2021-10-31,15:33:33,17:08:19,NA,incomplete,false,NA,true,NA,1,9,NA,NA,NA,right,NA,NA,NA,present,NA,NA,m_s_026.jpg,green,m_l_105.jpg,green,within,NA,NaN,NA,NA,NA,NA,right,5315.800000000745,1,2,3394.199999999255
wx59rGwP,3bakuke4akpi45n0y93n6zfn3q3r1f,3wev0ko0oq5qkz1jktspmvhkj43dsj,wx59rGwP,2020-0188,2021-10-31,15:33:33,17:08:19,NA,incomplete,false,NA,true,NA,1,10,NA,NA,NA,right,NA,NA,NA,present,NA,NA,m_l_005.jpg,red,m_l_015.jpg,red,within,NA,NaN,NA,NA,NA,NA,left,3146.60000000149,0,1,2324.300000000745
wx59rGwP,3bakuke4akpi45n0y93n6zfn3q3r1f,3wev0ko0oq5qkz1jktspmvhkj43dsj,wx59rGwP,2020-0188,2021-10-31,15:33:33,17:08:19,NA,incomplete,false,true,NA,NA,2,0,NA,red,n_s_098.jpg,NA,NA,NA,NA,NA,unpleasant,pleasant,NA,NA,NA,NA,NA,none,0,false,NA,NA,NA,NA,NA,NA,NA,NA
wx59rGwP,3bakuke4akpi45n0y93n6zfn3q3r1f,3wev0ko0oq5qkz1jktspmvhkj43dsj,wx59rGwP,2020-0188,2021-10-31,15:33:33,17:08:19,NA,incomplete,false,true,NA,NA,2,1,NA,red,n_s_108.jpg,NA,NA,NA,NA,NA,pleasant,unpleasant,NA,NA,NA,NA,NA,none,0,false,NA,NA,NA,NA,NA,NA,NA,NA
wx59rGwP,3bakuke4akpi45n0y93n6zfn3q3r1f,3wev0ko0oq5qkz1jktspmvhkj43dsj,wx59rGwP,2020-0188,2021-10-31,15:33:33,17:08:19,NA,incomplete,false,true,NA,NA,2,2,NA,red,n_l_077.jpg,NA,NA,NA,NA,NA,pleasant,unpleasant,NA,NA,NA,NA,NA,none,0,false,NA,NA,NA,NA,NA,NA,NA,NA
wx59rGwP,3bakuke4akpi45n0y93n6zfn3q3r1f,3wev0ko0oq5qkz1jktspmvhkj43dsj,wx59rGwP,2020-0188,2021-10-31,15:33:33,17:08:19,NA,incomplete,false,true,NA,NA,2,3,NA,red,m_l_017.jpg,NA,NA,NA,NA,NA,unpleasant,pleasant,NA,NA,NA,NA,NA,none,0,false,NA,NA,NA,NA,NA,NA,NA,NA
wx59rGwP,3bakuke4akpi45n0y93n6zfn3q3r1f,3wev0ko0oq5qkz1jktspmvhkj43dsj,wx59rGwP,2020-0188,2021-10-31,15:33:33,17:08:19,NA,incomplete,false,true,NA,NA,2,4,NA,red,n_l_099.jpg,NA,NA,NA,NA,NA,unpleasant,pleasant,NA,NA,NA,NA,NA,left,2280.5,true,NA,NA,NA,NA,NA,NA,NA,NA
wx59rGwP,3bakuke4akpi45n0y93n6zfn3q3r1f,3wev0ko0oq5qkz1jktspmvhkj43dsj,wx59rGwP,2020-0188,2021-10-31,15:33:33,17:08:19,NA,incomplete,false,true,NA,NA,2,5,NA,red,n_s_084.jpg,NA,NA,NA,NA,NA,unpleasant,pleasant,NA,NA,NA,NA,NA,left,3379.20000000298,true,NA,NA,NA,NA,NA,NA,NA,NA
wx59rGwP,3bakuke4akpi45n0y93n6zfn3q3r1f,3wev0ko0oq5qkz1jktspmvhkj43dsj,wx59rGwP,2020-0188,2021-10-31,15:33:33,17:08:19,NA,incomplete,false,true,NA,NA,2,6,NA,blue,n_s_027.jpg,NA,NA,NA,NA,NA,unpleasant,pleasant,NA,NA,NA,NA,NA,right,1557.69999999925,true,NA,NA,NA,NA,NA,NA,NA,NA
wx59rGwP,3bakuke4akpi45n0y93n6zfn3q3r1f,3wev0ko0oq5qkz1jktspmvhkj43dsj,wx59rGwP,2020-0188,2021-10-31,15:33:33,17:08:19,NA,incomplete,false,true,NA,NA,2,7,NA,blue,n_s_010.jpg,NA,NA,NA,NA,NA,pleasant,unpleasant,NA,NA,NA,NA,NA,left,3496.80000000075,true,NA,NA,NA,NA,NA,NA,NA,NA
wx59rGwP,3bakuke4akpi45n0y93n6zfn3q3r1f,3wev0ko0oq5qkz1jktspmvhkj43dsj,wx59rGwP,2020-0188,2021-10-31,15:33:33,17:08:19,NA,incomplete,false,true,NA,NA,2,8,NA,blue,n_s_053.jpg,NA,NA,NA,NA,NA,pleasant,unpleasant,NA,NA,NA,NA,NA,left,2642.60000000149,true,NA,NA,NA,NA,NA,NA,NA,NA
wx59rGwP,3bakuke4akpi45n0y93n6zfn3q3r1f,3wev0ko0oq5qkz1jktspmvhkj43dsj,wx59rGwP,2020-0188,2021-10-31,15:33:33,17:08:19,NA,incomplete,false,true,NA,NA,2,9,NA,blue,m_s_080.jpg,NA,NA,NA,NA,NA,unpleasant,pleasant,NA,NA,NA,NA,NA,left,2237.09999999776,true,NA,NA,NA,NA,NA,NA,NA,NA
wx59rGwP,3bakuke4akpi45n0y93n6zfn3q3r1f,3wev0ko0oq5qkz1jktspmvhkj43dsj,wx59rGwP,2020-0188,2021-10-31,15:33:33,17:08:19,NA,incomplete,false,true,NA,NA,2,10,NA,blue,m_l_067.jpg,NA,NA,NA,NA,NA,unpleasant,pleasant,NA,NA,NA,NA,NA,left,2197.59999999776,true,NA,NA,NA,NA,NA,NA,NA,NA
wx59rGwP,3bakuke4akpi45n0y93n6zfn3q3r1f,3wev0ko0oq5qkz1jktspmvhkj43dsj,wx59rGwP,2020-0188,2021-10-31,15:33:33,17:08:19,NA,incomplete,false,true,NA,NA,2,11,NA,blue,n_l_030.jpg,NA,NA,NA,NA,NA,pleasant,unpleasant,NA,NA,NA,NA,NA,left,3168.60000000149,true,NA,NA,NA,NA,NA,NA,NA,NA
wx59rGwP,3bakuke4akpi45n0y93n6zfn3q3r1f,3wev0ko0oq5qkz1jktspmvhkj43dsj,wx59rGwP,2020-0188,2021-10-31,15:33:33,17:08:19,NA,incomplete,false,true,NA,NA,2,12,NA,brown,n_s_019.jpg,NA,NA,NA,NA,NA,pleasant,unpleasant,NA,NA,NA,NA,NA,left,1186.30000000075,true,NA,NA,NA,NA,NA,NA,NA,NA
wx59rGwP,3bakuke4akpi45n0y93n6zfn3q3r1f,3wev0ko0oq5qkz1jktspmvhkj43dsj,wx59rGwP,2020-0188,2021-10-31,15:33:33,17:08:19,NA,incomplete,false,true,NA,NA,2,13,NA,brown,n_s_018.jpg,NA,NA,NA,NA,NA,unpleasant,pleasant,NA,NA,NA,NA,NA,right,2207.29999999702,true,NA,NA,NA,NA,NA,NA,NA,NA
wx59rGwP,3bakuke4akpi45n0y93n6zfn3q3r1f,3wev0ko0oq5qkz1jktspmvhkj43dsj,wx59rGwP,2020-0188,2021-10-31,15:33:33,17:08:19,NA,incomplete,false,true,NA,NA,2,14,NA,brown,n_s_088.jpg,NA,NA,NA,NA,NA,unpleasant,pleasant,NA,NA,NA,NA,NA,right,916.699999999255,true,NA,NA,NA,NA,NA,NA,NA,NA
wx59rGwP,3bakuke4akpi45n0y93n6zfn3q3r1f,3wev0ko0oq5qkz1jktspmvhkj43dsj,wx59rGwP,2020-0188,2021-10-31,15:33:33,17:08:19,NA,incomplete,false,true,NA,NA,2,15,NA,brown,m_l_059.jpg,NA,NA,NA,NA,NA,unpleasant,pleasant,NA,NA,NA,NA,NA,right,2054.90000000224,true,NA,NA,NA,NA,NA,NA,NA,NA
wx59rGwP,3bakuke4akpi45n0y93n6zfn3q3r1f,3wev0ko0oq5qkz1jktspmvhkj43dsj,wx59rGwP,2020-0188,2021-10-31,15:33:33,17:08:19,NA,incomplete,false,true,NA,NA,2,16,NA,brown,m_l_097.jpg,NA,NA,NA,NA,NA,pleasant,unpleasant,NA,NA,NA,NA,NA,right,1412.5,true,NA,NA,NA,NA,NA,NA,NA,NA
wx59rGwP,3bakuke4akpi45n0y93n6zfn3q3r1f,3wev0ko0oq5qkz1jktspmvhkj43dsj,wx59rGwP,2020-0188,2021-10-31,15:33:33,17:08:19,NA,incomplete,false,true,NA,NA,2,17,NA,brown,m_l_102.jpg,NA,NA,NA,NA,NA,pleasant,unpleasant,NA,NA,NA,NA,NA,right,1249.30000000075,true,NA,NA,NA,NA,NA,NA,NA,NA
wx59rGwP,3bakuke4akpi45n0y93n6zfn3q3r1f,3wev0ko0oq5qkz1jktspmvhkj43dsj,wx59rGwP,2020-0188,2021-10-31,15:33:33,17:08:19,NA,incomplete,false,true,NA,NA,2,18,NA,yellow,n_s_112.jpg,NA,NA,NA,NA,NA,unpleasant,pleasant,NA,NA,NA,NA,NA,right,2381,true,NA,NA,NA,NA,NA,NA,NA,NA
wx59rGwP,3bakuke4akpi45n0y93n6zfn3q3r1f,3wev0ko0oq5qkz1jktspmvhkj43dsj,wx59rGwP,2020-0188,2021-10-31,15:33:33,17:08:19,NA,incomplete,false,true,NA,NA,2,19,NA,yellow,n_l_111.jpg,NA,NA,NA,NA,NA,pleasant,unpleasant,NA,NA,NA,NA,NA,left,2659,true,NA,NA,NA,NA,NA,NA,NA,NA
wx59rGwP,3bakuke4akpi45n0y93n6zfn3q3r1f,3wev0ko0oq5qkz1jktspmvhkj43dsj,wx59rGwP,2020-0188,2021-10-31,15:33:33,17:08:19,NA,incomplete,false,true,NA,NA,2,20,NA,yellow,n_l_057.jpg,NA,NA,NA,NA,NA,pleasant,unpleasant,NA,NA,NA,NA,NA,left,2315.89999999851,true,NA,NA,NA,NA,NA,NA,NA,NA
wx59rGwP,3bakuke4akpi45n0y93n6zfn3q3r1f,3wev0ko0oq5qkz1jktspmvhkj43dsj,wx59rGwP,2020-0188,2021-10-31,15:33:33,17:08:19,NA,incomplete,false,true,NA,NA,2,21,NA,yellow,n_l_093.jpg,NA,NA,NA,NA,NA,unpleasant,pleasant,NA,NA,NA,NA,NA,right,1642.09999999776,true,NA,NA,NA,NA,NA,NA,NA,NA
wx59rGwP,3bakuke4akpi45n0y93n6zfn3q3r1f,3wev0ko0oq5qkz1jktspmvhkj43dsj,wx59rGwP,2020-0188,2021-10-31,15:33:33,17:08:19,NA,incomplete,false,true,NA,NA,2,22,NA,yellow,m_s_002.jpg,NA,NA,NA,NA,NA,pleasant,unpleasant,NA,NA,NA,NA,NA,right,2157.19999999925,true,NA,NA,NA,NA,NA,NA,NA,NA
wx59rGwP,3bakuke4akpi45n0y93n6zfn3q3r1f,3wev0ko0oq5qkz1jktspmvhkj43dsj,wx59rGwP,2020-0188,2021-10-31,15:33:33,17:08:19,NA,incomplete,false,true,NA,NA,2,23,NA,yellow,m_l_036.jpg,NA,NA,NA,NA,NA,unpleasant,pleasant,NA,NA,NA,NA,NA,left,2802.79999999702,true,NA,NA,NA,NA,NA,NA,NA,NA
wx59rGwP,3bakuke4akpi45n0y93n6zfn3q3r1f,3wev0ko0oq5qkz1jktspmvhkj43dsj,wx59rGwP,2020-0188,2021-10-31,15:33:33,17:08:19,NA,incomplete,false,true,NA,NA,2,24,NA,green,n_s_044.jpg,NA,NA,NA,NA,NA,unpleasant,pleasant,NA,NA,NA,NA,NA,right,1353.80000000075,true,NA,NA,NA,NA,NA,NA,NA,NA
wx59rGwP,3bakuke4akpi45n0y93n6zfn3q3r1f,3wev0ko0oq5qkz1jktspmvhkj43dsj,wx59rGwP,2020-0188,2021-10-31,15:33:33,17:08:19,NA,incomplete,false,true,NA,NA,2,25,NA,green,n_s_104.jpg,NA,NA,NA,NA,NA,unpleasant,pleasant,NA,NA,NA,NA,NA,right,1227.29999999702,true,NA,NA,NA,NA,NA,NA,NA,NA
wx59rGwP,3bakuke4akpi45n0y93n6zfn3q3r1f,3wev0ko0oq5qkz1jktspmvhkj43dsj,wx59rGwP,2020-0188,2021-10-31,15:33:33,17:08:19,NA,incomplete,false,true,NA,NA,2,26,NA,green,m_s_050.jpg,NA,NA,NA,NA,NA,unpleasant,pleasant,NA,NA,NA,NA,NA,left,1532.39999999851,true,NA,NA,NA,NA,NA,NA,NA,NA
wx59rGwP,3bakuke4akpi45n0y93n6zfn3q3r1f,3wev0ko0oq5qkz1jktspmvhkj43dsj,wx59rGwP,2020-0188,2021-10-31,15:33:33,17:08:19,NA,incomplete,false,true,NA,NA,2,27,NA,green,n_s_107.jpg,NA,NA,NA,NA,NA,unpleasant,pleasant,NA,NA,NA,NA,NA,right,2004.30000000075,true,NA,NA,NA,NA,NA,NA,NA,NA
wx59rGwP,3bakuke4akpi45n0y93n6zfn3q3r1f,3wev0ko0oq5qkz1jktspmvhkj43dsj,wx59rGwP,2020-0188,2021-10-31,15:33:33,17:08:19,NA,incomplete,false,true,NA,NA,2,28,NA,green,m_l_041.jpg,NA,NA,NA,NA,NA,pleasant,unpleasant,NA,NA,NA,NA,NA,right,2945.09999999776,true,NA,NA,NA,NA,NA,NA,NA,NA
wx59rGwP,3bakuke4akpi45n0y93n6zfn3q3r1f,3wev0ko0oq5qkz1jktspmvhkj43dsj,wx59rGwP,2020-0188,2021-10-31,15:33:33,17:08:19,NA,incomplete,false,true,NA,NA,2,29,NA,green,m_s_115.jpg,NA,NA,NA,NA,NA,pleasant,unpleasant,NA,NA,NA,NA,NA,right,1544.39999999851,true,NA,NA,NA,NA,NA,NA,NA,NA
wx59rGwP,3bakuke4akpi45n0y93n6zfn3q3r1f,3wev0ko0oq5qkz1jktspmvhkj43dsj,wx59rGwP,2020-0188,2021-10-31,15:33:33,17:08:19,NA,incomplete,false,true,NA,NA,2,30,NA,white,m_l_046.jpg,NA,NA,NA,NA,NA,pleasant,unpleasant,NA,NA,NA,NA,NA,right,1835.90000000224,true,NA,NA,NA,NA,NA,NA,NA,NA
wx59rGwP,3bakuke4akpi45n0y93n6zfn3q3r1f,3wev0ko0oq5qkz1jktspmvhkj43dsj,wx59rGwP,2020-0188,2021-10-31,15:33:33,17:08:19,NA,incomplete,false,true,NA,NA,2,31,NA,white,m_s_056.jpg,NA,NA,NA,NA,NA,pleasant,unpleasant,NA,NA,NA,NA,NA,right,1121.5,true,NA,NA,NA,NA,NA,NA,NA,NA
wx59rGwP,3bakuke4akpi45n0y93n6zfn3q3r1f,3wev0ko0oq5qkz1jktspmvhkj43dsj,wx59rGwP,2020-0188,2021-10-31,15:33:33,17:08:19,NA,incomplete,false,true,NA,NA,2,32,NA,white,m_s_037.jpg,NA,NA,NA,NA,NA,unpleasant,pleasant,NA,NA,NA,NA,NA,left,1889.80000000075,true,NA,NA,NA,NA,NA,NA,NA,NA
wx59rGwP,3bakuke4akpi45n0y93n6zfn3q3r1f,3wev0ko0oq5qkz1jktspmvhkj43dsj,wx59rGwP,2020-0188,2021-10-31,15:33:33,17:08:19,NA,incomplete,false,true,NA,NA,2,33,NA,white,m_s_093.jpg,NA,NA,NA,NA,NA,unpleasant,pleasant,NA,NA,NA,NA,NA,left,1060.5,true,NA,NA,NA,NA,NA,NA,NA,NA
wx59rGwP,3bakuke4akpi45n0y93n6zfn3q3r1f,3wev0ko0oq5qkz1jktspmvhkj43dsj,wx59rGwP,2020-0188,2021-10-31,15:33:33,17:08:19,NA,incomplete,false,true,NA,NA,2,34,NA,white,n_s_052.jpg,NA,NA,NA,NA,NA,unpleasant,pleasant,NA,NA,NA,NA,NA,left,1760,true,NA,NA,NA,NA,NA,NA,NA,NA
wx59rGwP,3bakuke4akpi45n0y93n6zfn3q3r1f,3wev0ko0oq5qkz1jktspmvhkj43dsj,wx59rGwP,2020-0188,2021-10-31,15:33:33,17:08:19,NA,incomplete,false,true,NA,NA,2,35,NA,white,n_s_039.jpg,NA,NA,NA,NA,NA,unpleasant,pleasant,NA,NA,NA,NA,NA,right,3170.30000000075,true,NA,NA,NA,NA,NA,NA,NA,NA
wx59rGwP,3bakuke4akpi45n0y93n6zfn3q3r1f,3wev0ko0oq5qkz1jktspmvhkj43dsj,wx59rGwP,2020-0188,2021-10-31,15:33:33,17:08:19,NA,incomplete,false,NA,NA,true,2,0,NA,NA,NA,left,n_s_039.jpg,white,green,NA,NA,NA,NA,NA,NA,NA,NA,NA,NaN,NA,4291.099999997765,right,0,NA,NA,NA,NA,NA
wx59rGwP,3bakuke4akpi45n0y93n6zfn3q3r1f,3wev0ko0oq5qkz1jktspmvhkj43dsj,wx59rGwP,2020-0188,2021-10-31,15:33:33,17:08:19,NA,incomplete,false,NA,NA,true,2,1,NA,NA,NA,right,n_s_010.jpg,red,blue,NA,NA,NA,NA,NA,NA,NA,NA,NA,NaN,NA,4378.79999999702,left,0,NA,NA,NA,NA,NA
wx59rGwP,3bakuke4akpi45n0y93n6zfn3q3r1f,3wev0ko0oq5qkz1jktspmvhkj43dsj,wx59rGwP,2020-0188,2021-10-31,15:33:33,17:08:19,NA,incomplete,false,NA,NA,true,2,2,NA,NA,NA,right,n_s_018.jpg,yellow,brown,NA,NA,NA,NA,NA,NA,NA,NA,NA,NaN,NA,2475.199999999255,right,1,NA,NA,NA,NA,NA
wx59rGwP,3bakuke4akpi45n0y93n6zfn3q3r1f,3wev0ko0oq5qkz1jktspmvhkj43dsj,wx59rGwP,2020-0188,2021-10-31,15:33:33,17:08:19,NA,incomplete,false,NA,NA,true,2,3,NA,NA,NA,right,n_l_099.jpg,blue,red,NA,NA,NA,NA,NA,NA,NA,NA,NA,NaN,NA,4058.699999999255,left,0,NA,NA,NA,NA,NA
wx59rGwP,3bakuke4akpi45n0y93n6zfn3q3r1f,3wev0ko0oq5qkz1jktspmvhkj43dsj,wx59rGwP,2020-0188,2021-10-31,15:33:33,17:08:19,NA,incomplete,false,NA,NA,true,2,4,NA,NA,NA,right,n_l_057.jpg,brown,yellow,NA,NA,NA,NA,NA,NA,NA,NA,NA,NaN,NA,2546.60000000149,left,0,NA,NA,NA,NA,NA
wx59rGwP,3bakuke4akpi45n0y93n6zfn3q3r1f,3wev0ko0oq5qkz1jktspmvhkj43dsj,wx59rGwP,2020-0188,2021-10-31,15:33:33,17:08:19,NA,incomplete,false,NA,NA,true,2,5,NA,NA,NA,right,m_s_056.jpg,green,white,NA,NA,NA,NA,NA,NA,NA,NA,NA,NaN,NA,2658.699999999255,left,0,NA,NA,NA,NA,NA
wx59rGwP,3bakuke4akpi45n0y93n6zfn3q3r1f,3wev0ko0oq5qkz1jktspmvhkj43dsj,wx59rGwP,2020-0188,2021-10-31,15:33:33,17:08:19,NA,incomplete,false,NA,NA,true,2,6,NA,NA,NA,right,n_l_111.jpg,green,yellow,NA,NA,NA,NA,NA,NA,NA,NA,NA,NaN,NA,3642.800000000745,left,0,NA,NA,NA,NA,NA
wx59rGwP,3bakuke4akpi45n0y93n6zfn3q3r1f,3wev0ko0oq5qkz1jktspmvhkj43dsj,wx59rGwP,2020-0188,2021-10-31,15:33:33,17:08:19,NA,incomplete,false,NA,NA,true,2,7,NA,NA,NA,left,n_l_030.jpg,blue,brown,NA,NA,NA,NA,NA,NA,NA,NA,NA,NaN,NA,3771.10000000149,right,0,NA,NA,NA,NA,NA
wx59rGwP,3bakuke4akpi45n0y93n6zfn3q3r1f,3wev0ko0oq5qkz1jktspmvhkj43dsj,wx59rGwP,2020-0188,2021-10-31,15:33:33,17:08:19,NA,incomplete,false,NA,NA,true,2,8,NA,NA,NA,left,m_l_067.jpg,blue,red,NA,NA,NA,NA,NA,NA,NA,NA,NA,NaN,NA,5758.89999999851,left,1,NA,NA,NA,NA,NA
wx59rGwP,3bakuke4akpi45n0y93n6zfn3q3r1f,3wev0ko0oq5qkz1jktspmvhkj43dsj,wx59rGwP,2020-0188,2021-10-31,15:33:33,17:08:19,NA,incomplete,false,NA,NA,true,2,9,NA,NA,NA,right,m_l_102.jpg,blue,brown,NA,NA,NA,NA,NA,NA,NA,NA,NA,NaN,NA,4438.699999999255,right,1,NA,NA,NA,NA,NA
wx59rGwP,3bakuke4akpi45n0y93n6zfn3q3r1f,3wev0ko0oq5qkz1jktspmvhkj43dsj,wx59rGwP,2020-0188,2021-10-31,15:33:33,17:08:19,NA,incomplete,false,NA,NA,true,2,10,NA,NA,NA,left,n_s_084.jpg,red,blue,NA,NA,NA,NA,NA,NA,NA,NA,NA,NaN,NA,5983.099999997765,right,0,NA,NA,NA,NA,NA
wx59rGwP,3bakuke4akpi45n0y93n6zfn3q3r1f,3wev0ko0oq5qkz1jktspmvhkj43dsj,wx59rGwP,2020-0188,2021-10-31,15:33:33,17:08:19,NA,incomplete,false,NA,NA,true,2,11,NA,NA,NA,right,m_l_097.jpg,yellow,brown,NA,NA,NA,NA,NA,NA,NA,NA,NA,NaN,NA,2714.89999999851,left,0,NA,NA,NA,NA,NA
wx59rGwP,3bakuke4akpi45n0y93n6zfn3q3r1f,3wev0ko0oq5qkz1jktspmvhkj43dsj,wx59rGwP,2020-0188,2021-10-31,15:33:33,17:08:19,NA,incomplete,false,NA,NA,true,2,12,NA,NA,NA,right,m_s_050.jpg,white,green,NA,NA,NA,NA,NA,NA,NA,NA,NA,NaN,NA,7151.300000000745,left,0,NA,NA,NA,NA,NA
wx59rGwP,3bakuke4akpi45n0y93n6zfn3q3r1f,3wev0ko0oq5qkz1jktspmvhkj43dsj,wx59rGwP,2020-0188,2021-10-31,15:33:33,17:08:19,NA,incomplete,false,NA,NA,true,2,13,NA,NA,NA,right,m_l_036.jpg,green,yellow,NA,NA,NA,NA,NA,NA,NA,NA,NA,NaN,NA,4490.60000000149,right,1,NA,NA,NA,NA,NA
wx59rGwP,3bakuke4akpi45n0y93n6zfn3q3r1f,3wev0ko0oq5qkz1jktspmvhkj43dsj,wx59rGwP,2020-0188,2021-10-31,15:33:33,17:08:19,NA,incomplete,false,NA,NA,true,2,14,NA,NA,NA,left,m_l_041.jpg,green,yellow,NA,NA,NA,NA,NA,NA,NA,NA,NA,NaN,NA,2755,left,1,NA,NA,NA,NA,NA
wx59rGwP,3bakuke4akpi45n0y93n6zfn3q3r1f,3wev0ko0oq5qkz1jktspmvhkj43dsj,wx59rGwP,2020-0188,2021-10-31,15:33:33,17:08:19,NA,incomplete,false,NA,NA,true,2,15,NA,NA,NA,left,m_s_037.jpg,white,green,NA,NA,NA,NA,NA,NA,NA,NA,NA,NaN,NA,3611.300000000745,left,1,NA,NA,NA,NA,NA
wx59rGwP,3bakuke4akpi45n0y93n6zfn3q3r1f,3wev0ko0oq5qkz1jktspmvhkj43dsj,wx59rGwP,2020-0188,2021-10-31,15:33:33,17:08:19,NA,incomplete,false,NA,NA,true,2,16,NA,NA,NA,right,n_s_108.jpg,blue,red,NA,NA,NA,NA,NA,NA,NA,NA,NA,NaN,NA,6959.199999999255,right,1,NA,NA,NA,NA,NA
wx59rGwP,3bakuke4akpi45n0y93n6zfn3q3r1f,3wev0ko0oq5qkz1jktspmvhkj43dsj,wx59rGwP,2020-0188,2021-10-31,15:33:33,17:08:19,NA,incomplete,false,NA,NA,true,2,17,NA,NA,NA,left,m_s_002.jpg,yellow,brown,NA,NA,NA,NA,NA,NA,NA,NA,NA,NaN,NA,3299.300000000745,right,0,NA,NA,NA,NA,NA
wx59rGwP,3bakuke4akpi45n0y93n6zfn3q3r1f,3wev0ko0oq5qkz1jktspmvhkj43dsj,wx59rGwP,2020-0188,2021-10-31,15:33:33,17:08:19,NA,incomplete,false,NA,NA,true,2,18,NA,NA,NA,left,n_s_088.jpg,brown,blue,NA,NA,NA,NA,NA,NA,NA,NA,NA,NaN,NA,3547.10000000149,left,1,NA,NA,NA,NA,NA
wx59rGwP,3bakuke4akpi45n0y93n6zfn3q3r1f,3wev0ko0oq5qkz1jktspmvhkj43dsj,wx59rGwP,2020-0188,2021-10-31,15:33:33,17:08:19,NA,incomplete,false,NA,NA,true,2,19,NA,NA,NA,right,m_s_115.jpg,white,green,NA,NA,NA,NA,NA,NA,NA,NA,NA,NaN,NA,4870.900000002235,right,1,NA,NA,NA,NA,NA
wx59rGwP,3bakuke4akpi45n0y93n6zfn3q3r1f,3wev0ko0oq5qkz1jktspmvhkj43dsj,wx59rGwP,2020-0188,2021-10-31,15:33:33,17:08:19,NA,incomplete,false,NA,NA,true,2,20,NA,NA,NA,right,n_s_104.jpg,yellow,green,NA,NA,NA,NA,NA,NA,NA,NA,NA,NaN,NA,4187,right,1,NA,NA,NA,NA,NA
wx59rGwP,3bakuke4akpi45n0y93n6zfn3q3r1f,3wev0ko0oq5qkz1jktspmvhkj43dsj,wx59rGwP,2020-0188,2021-10-31,15:33:33,17:08:19,NA,incomplete,false,NA,NA,true,2,21,NA,NA,NA,right,n_s_053.jpg,brown,blue,NA,NA,NA,NA,NA,NA,NA,NA,NA,NaN,NA,3187.400000002235,left,0,NA,NA,NA,NA,NA
wx59rGwP,3bakuke4akpi45n0y93n6zfn3q3r1f,3wev0ko0oq5qkz1jktspmvhkj43dsj,wx59rGwP,2020-0188,2021-10-31,15:33:33,17:08:19,NA,incomplete,false,NA,true,NA,2,0,NA,NA,NA,left,NA,NA,NA,present,NA,NA,n_s_018.jpg,brown,m_l_102.jpg,brown,within,NA,NaN,NA,NA,NA,NA,left,4053.800000000745,1,1,3410
wx59rGwP,3bakuke4akpi45n0y93n6zfn3q3r1f,3wev0ko0oq5qkz1jktspmvhkj43dsj,wx59rGwP,2020-0188,2021-10-31,15:33:33,17:08:19,NA,incomplete,false,NA,true,NA,2,1,NA,NA,NA,right,NA,NA,NA,present,NA,NA,m_s_115.jpg,green,n_s_104.jpg,green,within,NA,NaN,NA,NA,NA,NA,left,5397.699999999255,0,2,2803.199999999255
wx59rGwP,3bakuke4akpi45n0y93n6zfn3q3r1f,3wev0ko0oq5qkz1jktspmvhkj43dsj,wx59rGwP,2020-0188,2021-10-31,15:33:33,17:08:19,NA,incomplete,false,NA,true,NA,2,2,NA,NA,NA,right,NA,NA,NA,present,NA,NA,m_s_050.jpg,green,m_s_002.jpg,yellow,between,NA,NaN,NA,NA,NA,NA,right,9607,1,2,2963.199999999255
wx59rGwP,3bakuke4akpi45n0y93n6zfn3q3r1f,3wev0ko0oq5qkz1jktspmvhkj43dsj,wx59rGwP,2020-0188,2021-10-31,15:33:33,17:08:19,NA,incomplete,false,NA,true,NA,2,3,NA,NA,NA,left,NA,NA,NA,present,NA,NA,n_s_108.jpg,red,n_s_084.jpg,red,within,NA,NaN,NA,NA,NA,NA,left,6934.900000002235,1,1,2394.800000000745
wx59rGwP,3bakuke4akpi45n0y93n6zfn3q3r1f,3wev0ko0oq5qkz1jktspmvhkj43dsj,wx59rGwP,2020-0188,2021-10-31,15:33:33,17:08:19,NA,incomplete,false,NA,true,NA,2,4,NA,NA,NA,left,NA,NA,NA,present,NA,NA,m_l_041.jpg,green,m_s_037.jpg,white,between,NA,NaN,NA,NA,NA,NA,left,3082.800000000745,1,1,2307.10000000149
wx59rGwP,3bakuke4akpi45n0y93n6zfn3q3r1f,3wev0ko0oq5qkz1jktspmvhkj43dsj,wx59rGwP,2020-0188,2021-10-31,15:33:33,17:08:19,NA,incomplete,false,NA,true,NA,2,5,NA,NA,NA,right,NA,NA,NA,present,NA,NA,n_s_039.jpg,white,m_s_056.jpg,white,within,NA,NaN,NA,NA,NA,NA,left,4527.39999999851,0,1,3350.900000002235
wx59rGwP,3bakuke4akpi45n0y93n6zfn3q3r1f,3wev0ko0oq5qkz1jktspmvhkj43dsj,wx59rGwP,2020-0188,2021-10-31,15:33:33,17:08:19,NA,incomplete,false,NA,true,NA,2,6,NA,NA,NA,right,NA,NA,NA,present,NA,NA,n_s_053.jpg,blue,n_l_099.jpg,red,between,NA,NaN,NA,NA,NA,NA,right,5735,1,1,2739.699999999255
wx59rGwP,3bakuke4akpi45n0y93n6zfn3q3r1f,3wev0ko0oq5qkz1jktspmvhkj43dsj,wx59rGwP,2020-0188,2021-10-31,15:33:33,17:08:19,NA,incomplete,false,NA,true,NA,2,7,NA,NA,NA,right,NA,NA,NA,present,NA,NA,n_l_057.jpg,yellow,m_l_097.jpg,brown,between,NA,NaN,NA,NA,NA,NA,left,3122.5,0,1,2939.699999999255
wx59rGwP,3bakuke4akpi45n0y93n6zfn3q3r1f,3wev0ko0oq5qkz1jktspmvhkj43dsj,wx59rGwP,2020-0188,2021-10-31,15:33:33,17:08:19,NA,incomplete,false,NA,true,NA,2,8,NA,NA,NA,right,NA,NA,NA,present,NA,NA,m_l_036.jpg,yellow,n_l_111.jpg,yellow,within,NA,NaN,NA,NA,NA,NA,right,3555.300000000745,1,1,2619.199999999255
wx59rGwP,3bakuke4akpi45n0y93n6zfn3q3r1f,3wev0ko0oq5qkz1jktspmvhkj43dsj,wx59rGwP,2020-0188,2021-10-31,15:33:33,17:08:19,NA,incomplete,false,NA,true,NA,2,9,NA,NA,NA,right,NA,NA,NA,present,NA,NA,n_s_088.jpg,brown,m_l_067.jpg,blue,between,NA,NaN,NA,NA,NA,NA,left,2643.10000000149,0,1,1691
wx59rGwP,3bakuke4akpi45n0y93n6zfn3q3r1f,3wev0ko0oq5qkz1jktspmvhkj43dsj,wx59rGwP,2020-0188,2021-10-31,15:33:33,17:08:19,NA,incomplete,false,NA,true,NA,2,10,NA,NA,NA,left,NA,NA,NA,present,NA,NA,n_s_010.jpg,blue,n_l_030.jpg,blue,within,NA,NaN,NA,NA,NA,NA,right,3687.39999999851,0,2,1710.199999999255
wx59rGwP,3bakuke4akpi45n0y93n6zfn3q3r1f,3wev0ko0oq5qkz1jktspmvhkj43dsj,wx59rGwP,2020-0188,2021-10-31,15:33:33,17:08:19,NA,incomplete,false,true,NA,NA,3,0,NA,green,m_l_114.jpg,NA,NA,NA,NA,NA,unpleasant,pleasant,NA,NA,NA,NA,NA,none,0,false,NA,NA,NA,NA,NA,NA,NA,NA
wx59rGwP,3bakuke4akpi45n0y93n6zfn3q3r1f,3wev0ko0oq5qkz1jktspmvhkj43dsj,wx59rGwP,2020-0188,2021-10-31,15:33:33,17:08:19,NA,incomplete,false,true,NA,NA,3,1,NA,green,n_l_096.jpg,NA,NA,NA,NA,NA,pleasant,unpleasant,NA,NA,NA,NA,NA,left,2720.59999999776,true,NA,NA,NA,NA,NA,NA,NA,NA
wx59rGwP,3bakuke4akpi45n0y93n6zfn3q3r1f,3wev0ko0oq5qkz1jktspmvhkj43dsj,wx59rGwP,2020-0188,2021-10-31,15:33:33,17:08:19,NA,incomplete,false,true,NA,NA,3,2,NA,green,m_l_044.jpg,NA,NA,NA,NA,NA,unpleasant,pleasant,NA,NA,NA,NA,NA,left,1526.90000000224,true,NA,NA,NA,NA,NA,NA,NA,NA
wx59rGwP,3bakuke4akpi45n0y93n6zfn3q3r1f,3wev0ko0oq5qkz1jktspmvhkj43dsj,wx59rGwP,2020-0188,2021-10-31,15:33:33,17:08:19,NA,incomplete,false,true,NA,NA,3,3,NA,green,n_s_068.jpg,NA,NA,NA,NA,NA,pleasant,unpleasant,NA,NA,NA,NA,NA,left,1839,true,NA,NA,NA,NA,NA,NA,NA,NA
wx59rGwP,3bakuke4akpi45n0y93n6zfn3q3r1f,3wev0ko0oq5qkz1jktspmvhkj43dsj,wx59rGwP,2020-0188,2021-10-31,15:33:33,17:08:19,NA,incomplete,false,true,NA,NA,3,4,NA,green,m_l_037.jpg,NA,NA,NA,NA,NA,pleasant,unpleasant,NA,NA,NA,NA,NA,right,1640.80000000075,true,NA,NA,NA,NA,NA,NA,NA,NA
wx59rGwP,3bakuke4akpi45n0y93n6zfn3q3r1f,3wev0ko0oq5qkz1jktspmvhkj43dsj,wx59rGwP,2020-0188,2021-10-31,15:33:33,17:08:19,NA,incomplete,false,true,NA,NA,3,5,NA,green,m_l_010.jpg,NA,NA,NA,NA,NA,unpleasant,pleasant,NA,NA,NA,NA,NA,left,1226.40000000224,true,NA,NA,NA,NA,NA,NA,NA,NA
wx59rGwP,3bakuke4akpi45n0y93n6zfn3q3r1f,3wev0ko0oq5qkz1jktspmvhkj43dsj,wx59rGwP,2020-0188,2021-10-31,15:33:33,17:08:19,NA,incomplete,false,true,NA,NA,3,6,NA,purple,m_s_116.jpg,NA,NA,NA,NA,NA,pleasant,unpleasant,NA,NA,NA,NA,NA,right,2889.30000000075,true,NA,NA,NA,NA,NA,NA,NA,NA
wx59rGwP,3bakuke4akpi45n0y93n6zfn3q3r1f,3wev0ko0oq5qkz1jktspmvhkj43dsj,wx59rGwP,2020-0188,2021-10-31,15:33:33,17:08:19,NA,incomplete,false,true,NA,NA,3,7,NA,purple,n_l_079.jpg,NA,NA,NA,NA,NA,unpleasant,pleasant,NA,NA,NA,NA,NA,right,3423.40000000224,true,NA,NA,NA,NA,NA,NA,NA,NA
wx59rGwP,3bakuke4akpi45n0y93n6zfn3q3r1f,3wev0ko0oq5qkz1jktspmvhkj43dsj,wx59rGwP,2020-0188,2021-10-31,15:33:33,17:08:19,NA,incomplete,false,true,NA,NA,3,8,NA,purple,n_s_024.jpg,NA,NA,NA,NA,NA,unpleasant,pleasant,NA,NA,NA,NA,NA,right,1193.5,true,NA,NA,NA,NA,NA,NA,NA,NA
wx59rGwP,3bakuke4akpi45n0y93n6zfn3q3r1f,3wev0ko0oq5qkz1jktspmvhkj43dsj,wx59rGwP,2020-0188,2021-10-31,15:33:33,17:08:19,NA,incomplete,false,true,NA,NA,3,9,NA,purple,n_l_067.jpg,NA,NA,NA,NA,NA,pleasant,unpleasant,NA,NA,NA,NA,NA,left,2572.19999999925,true,NA,NA,NA,NA,NA,NA,NA,NA
wx59rGwP,3bakuke4akpi45n0y93n6zfn3q3r1f,3wev0ko0oq5qkz1jktspmvhkj43dsj,wx59rGwP,2020-0188,2021-10-31,15:33:33,17:08:19,NA,incomplete,false,true,NA,NA,3,10,NA,purple,n_s_086.jpg,NA,NA,NA,NA,NA,pleasant,unpleasant,NA,NA,NA,NA,NA,left,1851.10000000149,true,NA,NA,NA,NA,NA,NA,NA,NA
wx59rGwP,3bakuke4akpi45n0y93n6zfn3q3r1f,3wev0ko0oq5qkz1jktspmvhkj43dsj,wx59rGwP,2020-0188,2021-10-31,15:33:33,17:08:19,NA,incomplete,false,true,NA,NA,3,11,NA,purple,n_s_083.jpg,NA,NA,NA,NA,NA,unpleasant,pleasant,NA,NA,NA,NA,NA,right,1673.59999999776,true,NA,NA,NA,NA,NA,NA,NA,NA
wx59rGwP,3bakuke4akpi45n0y93n6zfn3q3r1f,3wev0ko0oq5qkz1jktspmvhkj43dsj,wx59rGwP,2020-0188,2021-10-31,15:33:33,17:08:19,NA,incomplete,false,true,NA,NA,3,12,NA,red,m_l_064.jpg,NA,NA,NA,NA,NA,pleasant,unpleasant,NA,NA,NA,NA,NA,right,2050.89999999851,true,NA,NA,NA,NA,NA,NA,NA,NA
wx59rGwP,3bakuke4akpi45n0y93n6zfn3q3r1f,3wev0ko0oq5qkz1jktspmvhkj43dsj,wx59rGwP,2020-0188,2021-10-31,15:33:33,17:08:19,NA,incomplete,false,true,NA,NA,3,13,NA,red,m_s_107.jpg,NA,NA,NA,NA,NA,unpleasant,pleasant,NA,NA,NA,NA,NA,left,2103,true,NA,NA,NA,NA,NA,NA,NA,NA
wx59rGwP,3bakuke4akpi45n0y93n6zfn3q3r1f,3wev0ko0oq5qkz1jktspmvhkj43dsj,wx59rGwP,2020-0188,2021-10-31,15:33:33,17:08:19,NA,incomplete,false,true,NA,NA,3,14,NA,red,m_s_005.jpg,NA,NA,NA,NA,NA,unpleasant,pleasant,NA,NA,NA,NA,NA,left,2943,true,NA,NA,NA,NA,NA,NA,NA,NA
wx59rGwP,3bakuke4akpi45n0y93n6zfn3q3r1f,3wev0ko0oq5qkz1jktspmvhkj43dsj,wx59rGwP,2020-0188,2021-10-31,15:33:33,17:08:19,NA,incomplete,false,true,NA,NA,3,15,NA,red,n_s_065.jpg,NA,NA,NA,NA,NA,pleasant,unpleasant,NA,NA,NA,NA,NA,right,2743.79999999702,true,NA,NA,NA,NA,NA,NA,NA,NA
wx59rGwP,3bakuke4akpi45n0y93n6zfn3q3r1f,3wev0ko0oq5qkz1jktspmvhkj43dsj,wx59rGwP,2020-0188,2021-10-31,15:33:33,17:08:19,NA,incomplete,false,true,NA,NA,3,16,NA,red,n_s_061.jpg,NA,NA,NA,NA,NA,pleasant,unpleasant,NA,NA,NA,NA,NA,left,2058.79999999702,true,NA,NA,NA,NA,NA,NA,NA,NA
wx59rGwP,3bakuke4akpi45n0y93n6zfn3q3r1f,3wev0ko0oq5qkz1jktspmvhkj43dsj,wx59rGwP,2020-0188,2021-10-31,15:33:33,17:08:19,NA,incomplete,false,true,NA,NA,3,17,NA,red,n_l_047.jpg,NA,NA,NA,NA,NA,unpleasant,pleasant,NA,NA,NA,NA,NA,right,2447.60000000149,true,NA,NA,NA,NA,NA,NA,NA,NA
wx59rGwP,3bakuke4akpi45n0y93n6zfn3q3r1f,3wev0ko0oq5qkz1jktspmvhkj43dsj,wx59rGwP,2020-0188,2021-10-31,15:33:33,17:08:19,NA,incomplete,false,true,NA,NA,3,18,NA,black,n_s_074.jpg,NA,NA,NA,NA,NA,pleasant,unpleasant,NA,NA,NA,NA,NA,left,2060.5,true,NA,NA,NA,NA,NA,NA,NA,NA
wx59rGwP,3bakuke4akpi45n0y93n6zfn3q3r1f,3wev0ko0oq5qkz1jktspmvhkj43dsj,wx59rGwP,2020-0188,2021-10-31,15:33:33,17:08:19,NA,incomplete,false,true,NA,NA,3,19,NA,black,m_s_082.jpg,NA,NA,NA,NA,NA,unpleasant,pleasant,NA,NA,NA,NA,NA,left,1151.59999999776,true,NA,NA,NA,NA,NA,NA,NA,NA
wx59rGwP,3bakuke4akpi45n0y93n6zfn3q3r1f,3wev0ko0oq5qkz1jktspmvhkj43dsj,wx59rGwP,2020-0188,2021-10-31,15:33:33,17:08:19,NA,incomplete,false,true,NA,NA,3,20,NA,black,m_s_101.jpg,NA,NA,NA,NA,NA,pleasant,unpleasant,NA,NA,NA,NA,NA,right,2227,true,NA,NA,NA,NA,NA,NA,NA,NA
wx59rGwP,3bakuke4akpi45n0y93n6zfn3q3r1f,3wev0ko0oq5qkz1jktspmvhkj43dsj,wx59rGwP,2020-0188,2021-10-31,15:33:33,17:08:19,NA,incomplete,false,true,NA,NA,3,21,NA,black,m_l_087.jpg,NA,NA,NA,NA,NA,pleasant,unpleasant,NA,NA,NA,NA,NA,right,1524.5,true,NA,NA,NA,NA,NA,NA,NA,NA
wx59rGwP,3bakuke4akpi45n0y93n6zfn3q3r1f,3wev0ko0oq5qkz1jktspmvhkj43dsj,wx59rGwP,2020-0188,2021-10-31,15:33:33,17:08:19,NA,incomplete,false,true,NA,NA,3,22,NA,black,n_l_044.jpg,NA,NA,NA,NA,NA,unpleasant,pleasant,NA,NA,NA,NA,NA,right,2514.89999999851,true,NA,NA,NA,NA,NA,NA,NA,NA
wx59rGwP,3bakuke4akpi45n0y93n6zfn3q3r1f,3wev0ko0oq5qkz1jktspmvhkj43dsj,wx59rGwP,2020-0188,2021-10-31,15:33:33,17:08:19,NA,incomplete,false,true,NA,NA,3,23,NA,black,m_s_054.jpg,NA,NA,NA,NA,NA,pleasant,unpleasant,NA,NA,NA,NA,NA,right,1944.5,true,NA,NA,NA,NA,NA,NA,NA,NA
wx59rGwP,3bakuke4akpi45n0y93n6zfn3q3r1f,3wev0ko0oq5qkz1jktspmvhkj43dsj,wx59rGwP,2020-0188,2021-10-31,15:33:33,17:08:19,NA,incomplete,false,true,NA,NA,3,24,NA,orange,m_l_035.jpg,NA,NA,NA,NA,NA,unpleasant,pleasant,NA,NA,NA,NA,NA,right,3001.19999999925,true,NA,NA,NA,NA,NA,NA,NA,NA
wx59rGwP,3bakuke4akpi45n0y93n6zfn3q3r1f,3wev0ko0oq5qkz1jktspmvhkj43dsj,wx59rGwP,2020-0188,2021-10-31,15:33:33,17:08:19,NA,incomplete,false,true,NA,NA,3,25,NA,orange,m_l_085.jpg,NA,NA,NA,NA,NA,pleasant,unpleasant,NA,NA,NA,NA,NA,left,3350.80000000075,true,NA,NA,NA,NA,NA,NA,NA,NA
wx59rGwP,3bakuke4akpi45n0y93n6zfn3q3r1f,3wev0ko0oq5qkz1jktspmvhkj43dsj,wx59rGwP,2020-0188,2021-10-31,15:33:33,17:08:19,NA,incomplete,false,true,NA,NA,3,26,NA,orange,n_l_109.jpg,NA,NA,NA,NA,NA,unpleasant,pleasant,NA,NA,NA,NA,NA,right,1384.20000000298,true,NA,NA,NA,NA,NA,NA,NA,NA
wx59rGwP,3bakuke4akpi45n0y93n6zfn3q3r1f,3wev0ko0oq5qkz1jktspmvhkj43dsj,wx59rGwP,2020-0188,2021-10-31,15:33:33,17:08:19,NA,incomplete,false,true,NA,NA,3,27,NA,orange,m_l_092.jpg,NA,NA,NA,NA,NA,unpleasant,pleasant,NA,NA,NA,NA,NA,left,3272.89999999851,true,NA,NA,NA,NA,NA,NA,NA,NA
wx59rGwP,3bakuke4akpi45n0y93n6zfn3q3r1f,3wev0ko0oq5qkz1jktspmvhkj43dsj,wx59rGwP,2020-0188,2021-10-31,15:33:33,17:08:19,NA,incomplete,false,true,NA,NA,3,28,NA,orange,m_s_114.jpg,NA,NA,NA,NA,NA,pleasant,unpleasant,NA,NA,NA,NA,NA,right,2586.90000000224,true,NA,NA,NA,NA,NA,NA,NA,NA
wx59rGwP,3bakuke4akpi45n0y93n6zfn3q3r1f,3wev0ko0oq5qkz1jktspmvhkj43dsj,wx59rGwP,2020-0188,2021-10-31,15:33:33,17:08:19,NA,incomplete,false,true,NA,NA,3,29,NA,orange,n_s_106.jpg,NA,NA,NA,NA,NA,unpleasant,pleasant,NA,NA,NA,NA,NA,right,1297.5,true,NA,NA,NA,NA,NA,NA,NA,NA
wx59rGwP,3bakuke4akpi45n0y93n6zfn3q3r1f,3wev0ko0oq5qkz1jktspmvhkj43dsj,wx59rGwP,2020-0188,2021-10-31,15:33:33,17:08:19,NA,incomplete,false,true,NA,NA,3,30,NA,brown,m_s_016.jpg,NA,NA,NA,NA,NA,pleasant,unpleasant,NA,NA,NA,NA,NA,right,1463.90000000224,true,NA,NA,NA,NA,NA,NA,NA,NA
wx59rGwP,3bakuke4akpi45n0y93n6zfn3q3r1f,3wev0ko0oq5qkz1jktspmvhkj43dsj,wx59rGwP,2020-0188,2021-10-31,15:33:33,17:08:19,NA,incomplete,false,true,NA,NA,3,31,NA,brown,m_s_108.jpg,NA,NA,NA,NA,NA,pleasant,unpleasant,NA,NA,NA,NA,NA,right,3161,true,NA,NA,NA,NA,NA,NA,NA,NA
wx59rGwP,3bakuke4akpi45n0y93n6zfn3q3r1f,3wev0ko0oq5qkz1jktspmvhkj43dsj,wx59rGwP,2020-0188,2021-10-31,15:33:33,17:08:19,NA,incomplete,false,true,NA,NA,3,32,NA,brown,m_l_110.jpg,NA,NA,NA,NA,NA,unpleasant,pleasant,NA,NA,NA,NA,NA,left,1439.89999999851,true,NA,NA,NA,NA,NA,NA,NA,NA
wx59rGwP,3bakuke4akpi45n0y93n6zfn3q3r1f,3wev0ko0oq5qkz1jktspmvhkj43dsj,wx59rGwP,2020-0188,2021-10-31,15:33:33,17:08:19,NA,incomplete,false,true,NA,NA,3,33,NA,brown,m_l_030.jpg,NA,NA,NA,NA,NA,unpleasant,pleasant,NA,NA,NA,NA,NA,left,2713.29999999702,true,NA,NA,NA,NA,NA,NA,NA,NA
wx59rGwP,3bakuke4akpi45n0y93n6zfn3q3r1f,3wev0ko0oq5qkz1jktspmvhkj43dsj,wx59rGwP,2020-0188,2021-10-31,15:33:33,17:08:19,NA,incomplete,false,true,NA,NA,3,34,NA,brown,n_l_082.jpg,NA,NA,NA,NA,NA,pleasant,unpleasant,NA,NA,NA,NA,NA,left,1187.19999999925,true,NA,NA,NA,NA,NA,NA,NA,NA
wx59rGwP,3bakuke4akpi45n0y93n6zfn3q3r1f,3wev0ko0oq5qkz1jktspmvhkj43dsj,wx59rGwP,2020-0188,2021-10-31,15:33:33,17:08:19,NA,incomplete,false,true,NA,NA,3,35,NA,brown,m_l_117.jpg,NA,NA,NA,NA,NA,pleasant,unpleasant,NA,NA,NA,NA,NA,right,1356.20000000298,true,NA,NA,NA,NA,NA,NA,NA,NA
wx59rGwP,3bakuke4akpi45n0y93n6zfn3q3r1f,3wev0ko0oq5qkz1jktspmvhkj43dsj,wx59rGwP,2020-0188,2021-10-31,15:33:33,17:08:19,NA,incomplete,false,NA,NA,true,3,0,NA,NA,NA,left,n_s_106.jpg,orange,black,NA,NA,NA,NA,NA,NA,NA,NA,NA,NaN,NA,3627.39999999851,right,0,NA,NA,NA,NA,NA
wx59rGwP,3bakuke4akpi45n0y93n6zfn3q3r1f,3wev0ko0oq5qkz1jktspmvhkj43dsj,wx59rGwP,2020-0188,2021-10-31,15:33:33,17:08:19,NA,incomplete,false,NA,NA,true,3,1,NA,NA,NA,left,m_s_101.jpg,black,red,NA,NA,NA,NA,NA,NA,NA,NA,NA,NaN,NA,2703.10000000149,left,1,NA,NA,NA,NA,NA
wx59rGwP,3bakuke4akpi45n0y93n6zfn3q3r1f,3wev0ko0oq5qkz1jktspmvhkj43dsj,wx59rGwP,2020-0188,2021-10-31,15:33:33,17:08:19,NA,incomplete,false,NA,NA,true,3,2,NA,NA,NA,right,n_s_083.jpg,red,purple,NA,NA,NA,NA,NA,NA,NA,NA,NA,NaN,NA,4162.800000000745,left,0,NA,NA,NA,NA,NA
wx59rGwP,3bakuke4akpi45n0y93n6zfn3q3r1f,3wev0ko0oq5qkz1jktspmvhkj43dsj,wx59rGwP,2020-0188,2021-10-31,15:33:33,17:08:19,NA,incomplete,false,NA,NA,true,3,3,NA,NA,NA,right,m_s_054.jpg,orange,black,NA,NA,NA,NA,NA,NA,NA,NA,NA,NaN,NA,2963,right,1,NA,NA,NA,NA,NA
wx59rGwP,3bakuke4akpi45n0y93n6zfn3q3r1f,3wev0ko0oq5qkz1jktspmvhkj43dsj,wx59rGwP,2020-0188,2021-10-31,15:33:33,17:08:19,NA,incomplete,false,NA,NA,true,3,4,NA,NA,NA,right,m_l_010.jpg,purple,green,NA,NA,NA,NA,NA,NA,NA,NA,NA,NaN,NA,3986.199999999255,right,1,NA,NA,NA,NA,NA
wx59rGwP,3bakuke4akpi45n0y93n6zfn3q3r1f,3wev0ko0oq5qkz1jktspmvhkj43dsj,wx59rGwP,2020-0188,2021-10-31,15:33:33,17:08:19,NA,incomplete,false,NA,NA,true,3,5,NA,NA,NA,right,n_s_024.jpg,green,purple,NA,NA,NA,NA,NA,NA,NA,NA,NA,NaN,NA,2738.89999999851,left,0,NA,NA,NA,NA,NA
wx59rGwP,3bakuke4akpi45n0y93n6zfn3q3r1f,3wev0ko0oq5qkz1jktspmvhkj43dsj,wx59rGwP,2020-0188,2021-10-31,15:33:33,17:08:19,NA,incomplete,false,NA,NA,true,3,6,NA,NA,NA,right,m_l_110.jpg,orange,brown,NA,NA,NA,NA,NA,NA,NA,NA,NA,NaN,NA,2419,right,1,NA,NA,NA,NA,NA
wx59rGwP,3bakuke4akpi45n0y93n6zfn3q3r1f,3wev0ko0oq5qkz1jktspmvhkj43dsj,wx59rGwP,2020-0188,2021-10-31,15:33:33,17:08:19,NA,incomplete,false,NA,NA,true,3,7,NA,NA,NA,right,m_s_114.jpg,black,orange,NA,NA,NA,NA,NA,NA,NA,NA,NA,NaN,NA,3422.199999999255,left,0,NA,NA,NA,NA,NA
wx59rGwP,3bakuke4akpi45n0y93n6zfn3q3r1f,3wev0ko0oq5qkz1jktspmvhkj43dsj,wx59rGwP,2020-0188,2021-10-31,15:33:33,17:08:19,NA,incomplete,false,NA,NA,true,3,8,NA,NA,NA,left,n_s_061.jpg,red,purple,NA,NA,NA,NA,NA,NA,NA,NA,NA,NaN,NA,4102.800000000745,left,1,NA,NA,NA,NA,NA
wx59rGwP,3bakuke4akpi45n0y93n6zfn3q3r1f,3wev0ko0oq5qkz1jktspmvhkj43dsj,wx59rGwP,2020-0188,2021-10-31,15:33:33,17:08:19,NA,incomplete,false,NA,NA,true,3,9,NA,NA,NA,left,m_l_117.jpg,brown,orange,NA,NA,NA,NA,NA,NA,NA,NA,NA,NaN,NA,4254.699999999255,right,0,NA,NA,NA,NA,NA
wx59rGwP,3bakuke4akpi45n0y93n6zfn3q3r1f,3wev0ko0oq5qkz1jktspmvhkj43dsj,wx59rGwP,2020-0188,2021-10-31,15:33:33,17:08:19,NA,incomplete,false,NA,NA,true,3,10,NA,NA,NA,right,n_l_047.jpg,black,red,NA,NA,NA,NA,NA,NA,NA,NA,NA,NaN,NA,9298.89999999851,left,0,NA,NA,NA,NA,NA
wx59rGwP,3bakuke4akpi45n0y93n6zfn3q3r1f,3wev0ko0oq5qkz1jktspmvhkj43dsj,wx59rGwP,2020-0188,2021-10-31,15:33:33,17:08:19,NA,incomplete,false,NA,NA,true,3,11,NA,NA,NA,right,m_s_005.jpg,purple,red,NA,NA,NA,NA,NA,NA,NA,NA,NA,NaN,NA,6135,right,1,NA,NA,NA,NA,NA
wx59rGwP,3bakuke4akpi45n0y93n6zfn3q3r1f,3wev0ko0oq5qkz1jktspmvhkj43dsj,wx59rGwP,2020-0188,2021-10-31,15:33:33,17:08:19,NA,incomplete,false,NA,NA,true,3,12,NA,NA,NA,right,n_l_044.jpg,red,black,NA,NA,NA,NA,NA,NA,NA,NA,NA,NaN,NA,2714.89999999851,right,1,NA,NA,NA,NA,NA
wx59rGwP,3bakuke4akpi45n0y93n6zfn3q3r1f,3wev0ko0oq5qkz1jktspmvhkj43dsj,wx59rGwP,2020-0188,2021-10-31,15:33:33,17:08:19,NA,incomplete,false,NA,NA,true,3,13,NA,NA,NA,left,m_l_085.jpg,orange,black,NA,NA,NA,NA,NA,NA,NA,NA,NA,NaN,NA,3730.699999999255,right,0,NA,NA,NA,NA,NA
wx59rGwP,3bakuke4akpi45n0y93n6zfn3q3r1f,3wev0ko0oq5qkz1jktspmvhkj43dsj,wx59rGwP,2020-0188,2021-10-31,15:33:33,17:08:19,NA,incomplete,false,NA,NA,true,3,14,NA,NA,NA,left,n_l_096.jpg,green,purple,NA,NA,NA,NA,NA,NA,NA,NA,NA,NaN,NA,4982.89999999851,left,1,NA,NA,NA,NA,NA
wx59rGwP,3bakuke4akpi45n0y93n6zfn3q3r1f,3wev0ko0oq5qkz1jktspmvhkj43dsj,wx59rGwP,2020-0188,2021-10-31,15:33:33,17:08:19,NA,incomplete,false,NA,NA,true,3,15,NA,NA,NA,right,m_l_037.jpg,purple,green,NA,NA,NA,NA,NA,NA,NA,NA,NA,NaN,NA,4595,right,1,NA,NA,NA,NA,NA
wx59rGwP,3bakuke4akpi45n0y93n6zfn3q3r1f,3wev0ko0oq5qkz1jktspmvhkj43dsj,wx59rGwP,2020-0188,2021-10-31,15:33:33,17:08:19,NA,incomplete,false,NA,NA,true,3,16,NA,NA,NA,right,n_s_086.jpg,green,purple,NA,NA,NA,NA,NA,NA,NA,NA,NA,NaN,NA,3482.89999999851,left,0,NA,NA,NA,NA,NA
wx59rGwP,3bakuke4akpi45n0y93n6zfn3q3r1f,3wev0ko0oq5qkz1jktspmvhkj43dsj,wx59rGwP,2020-0188,2021-10-31,15:33:33,17:08:19,NA,incomplete,false,NA,NA,true,3,17,NA,NA,NA,right,n_l_079.jpg,green,purple,NA,NA,NA,NA,NA,NA,NA,NA,NA,NaN,NA,4607.199999999255,left,0,NA,NA,NA,NA,NA
wx59rGwP,3bakuke4akpi45n0y93n6zfn3q3r1f,3wev0ko0oq5qkz1jktspmvhkj43dsj,wx59rGwP,2020-0188,2021-10-31,15:33:33,17:08:19,NA,incomplete,false,NA,NA,true,3,18,NA,NA,NA,left,m_s_082.jpg,black,red,NA,NA,NA,NA,NA,NA,NA,NA,NA,NaN,NA,2987,left,1,NA,NA,NA,NA,NA
wx59rGwP,3bakuke4akpi45n0y93n6zfn3q3r1f,3wev0ko0oq5qkz1jktspmvhkj43dsj,wx59rGwP,2020-0188,2021-10-31,15:33:33,17:08:19,NA,incomplete,false,NA,NA,true,3,19,NA,NA,NA,left,m_s_107.jpg,red,purple,NA,NA,NA,NA,NA,NA,NA,NA,NA,NaN,NA,3123,left,1,NA,NA,NA,NA,NA
wx59rGwP,3bakuke4akpi45n0y93n6zfn3q3r1f,3wev0ko0oq5qkz1jktspmvhkj43dsj,wx59rGwP,2020-0188,2021-10-31,15:33:33,17:08:19,NA,incomplete,false,NA,NA,true,3,20,NA,NA,NA,right,n_l_109.jpg,brown,orange,NA,NA,NA,NA,NA,NA,NA,NA,NA,NaN,NA,4615.5,right,1,NA,NA,NA,NA,NA
wx59rGwP,3bakuke4akpi45n0y93n6zfn3q3r1f,3wev0ko0oq5qkz1jktspmvhkj43dsj,wx59rGwP,2020-0188,2021-10-31,15:33:33,17:08:19,NA,incomplete,false,NA,NA,true,3,21,NA,NA,NA,right,m_s_108.jpg,orange,brown,NA,NA,NA,NA,NA,NA,NA,NA,NA,NaN,NA,4943.099999997765,left,0,NA,NA,NA,NA,NA
wx59rGwP,3bakuke4akpi45n0y93n6zfn3q3r1f,3wev0ko0oq5qkz1jktspmvhkj43dsj,wx59rGwP,2020-0188,2021-10-31,15:33:33,17:08:19,NA,incomplete,false,NA,true,NA,3,0,NA,NA,NA,left,NA,NA,NA,present,NA,NA,n_s_086.jpg,purple,m_s_005.jpg,red,between,NA,NaN,NA,NA,NA,NA,left,6518.900000002235,1,1,2515.5
wx59rGwP,3bakuke4akpi45n0y93n6zfn3q3r1f,3wev0ko0oq5qkz1jktspmvhkj43dsj,wx59rGwP,2020-0188,2021-10-31,15:33:33,17:08:19,NA,incomplete,false,NA,true,NA,3,1,NA,NA,NA,left,NA,NA,NA,present,NA,NA,m_s_108.jpg,brown,m_l_117.jpg,brown,within,NA,NaN,NA,NA,NA,NA,right,2723.300000000745,0,1,2003.5
wx59rGwP,3bakuke4akpi45n0y93n6zfn3q3r1f,3wev0ko0oq5qkz1jktspmvhkj43dsj,wx59rGwP,2020-0188,2021-10-31,15:33:33,17:08:19,NA,incomplete,false,NA,true,NA,3,2,NA,NA,NA,left,NA,NA,NA,present,NA,NA,m_l_085.jpg,orange,n_s_106.jpg,orange,within,NA,NaN,NA,NA,NA,NA,left,4855.300000000745,1,0,5583.5
wx59rGwP,3bakuke4akpi45n0y93n6zfn3q3r1f,3wev0ko0oq5qkz1jktspmvhkj43dsj,wx59rGwP,2020-0188,2021-10-31,15:33:33,17:08:19,NA,incomplete,false,NA,true,NA,3,3,NA,NA,NA,left,NA,NA,NA,present,NA,NA,n_l_079.jpg,purple,n_s_083.jpg,purple,within,NA,NaN,NA,NA,NA,NA,right,2553.699999999255,0,1,4967.20000000298
wx59rGwP,3bakuke4akpi45n0y93n6zfn3q3r1f,3wev0ko0oq5qkz1jktspmvhkj43dsj,wx59rGwP,2020-0188,2021-10-31,15:33:33,17:08:19,NA,incomplete,false,NA,true,NA,3,4,NA,NA,NA,right,NA,NA,NA,present,NA,NA,m_s_054.jpg,black,m_s_082.jpg,black,within,NA,NaN,NA,NA,NA,NA,right,3898.900000002235,1,2,1978.800000000745
wx59rGwP,3bakuke4akpi45n0y93n6zfn3q3r1f,3wev0ko0oq5qkz1jktspmvhkj43dsj,wx59rGwP,2020-0188,2021-10-31,15:33:33,17:08:19,NA,incomplete,false,NA,true,NA,3,5,NA,NA,NA,left,NA,NA,NA,present,NA,NA,m_s_107.jpg,red,n_l_047.jpg,red,within,NA,NaN,NA,NA,NA,NA,right,3083.199999999255,0,2,1758.5999999977648
wx59rGwP,3bakuke4akpi45n0y93n6zfn3q3r1f,3wev0ko0oq5qkz1jktspmvhkj43dsj,wx59rGwP,2020-0188,2021-10-31,15:33:33,17:08:19,NA,incomplete,false,NA,true,NA,3,6,NA,NA,NA,right,NA,NA,NA,present,NA,NA,n_l_109.jpg,orange,n_l_044.jpg,black,between,NA,NaN,NA,NA,NA,NA,right,3923.300000000745,1,2,1602.800000000745
wx59rGwP,3bakuke4akpi45n0y93n6zfn3q3r1f,3wev0ko0oq5qkz1jktspmvhkj43dsj,wx59rGwP,2020-0188,2021-10-31,15:33:33,17:08:19,NA,incomplete,false,NA,true,NA,3,7,NA,NA,NA,left,NA,NA,NA,present,NA,NA,m_s_114.jpg,orange,m_l_110.jpg,brown,between,NA,NaN,NA,NA,NA,NA,right,2739.10000000149,0,1,3530.7000000029802
wx59rGwP,3bakuke4akpi45n0y93n6zfn3q3r1f,3wev0ko0oq5qkz1jktspmvhkj43dsj,wx59rGwP,2020-0188,2021-10-31,15:33:33,17:08:19,NA,incomplete,false,NA,true,NA,3,8,NA,NA,NA,left,NA,NA,NA,present,NA,NA,n_l_096.jpg,green,m_l_010.jpg,green,within,NA,NaN,NA,NA,NA,NA,left,7115,1,2,1826.8999999985099
wx59rGwP,3bakuke4akpi45n0y93n6zfn3q3r1f,3wev0ko0oq5qkz1jktspmvhkj43dsj,wx59rGwP,2020-0188,2021-10-31,15:33:33,17:08:19,NA,incomplete,false,NA,true,NA,3,9,NA,NA,NA,left,NA,NA,NA,present,NA,NA,m_l_037.jpg,green,n_s_024.jpg,purple,between,NA,NaN,NA,NA,NA,NA,right,4494.699999999255,0,2,1690.8999999985099
wx59rGwP,3bakuke4akpi45n0y93n6zfn3q3r1f,3wev0ko0oq5qkz1jktspmvhkj43dsj,wx59rGwP,2020-0188,2021-10-31,15:33:33,17:08:19,NA,incomplete,false,NA,true,NA,3,10,NA,NA,NA,right,NA,NA,NA,present,NA,NA,m_s_101.jpg,black,n_s_061.jpg,red,between,NA,NaN,NA,NA,NA,NA,right,2523,1,1,3042.39999999851
wx59rGwP,3bakuke4akpi45n0y93n6zfn3q3r1f,3wev0ko0oq5qkz1jktspmvhkj43dsj,wx59rGwP,2020-0188,2021-10-31,15:33:33,17:08:19,NA,incomplete,false,true,NA,NA,4,0,NA,purple,m_l_090.jpg,NA,NA,NA,NA,NA,unpleasant,pleasant,NA,NA,NA,NA,NA,none,0,false,NA,NA,NA,NA,NA,NA,NA,NA
wx59rGwP,3bakuke4akpi45n0y93n6zfn3q3r1f,3wev0ko0oq5qkz1jktspmvhkj43dsj,wx59rGwP,2020-0188,2021-10-31,15:33:33,17:08:19,NA,incomplete,false,true,NA,NA,4,1,NA,purple,n_s_117.jpg,NA,NA,NA,NA,NA,unpleasant,pleasant,NA,NA,NA,NA,NA,right,3406.40000000224,true,NA,NA,NA,NA,NA,NA,NA,NA
wx59rGwP,3bakuke4akpi45n0y93n6zfn3q3r1f,3wev0ko0oq5qkz1jktspmvhkj43dsj,wx59rGwP,2020-0188,2021-10-31,15:33:33,17:08:19,NA,incomplete,false,true,NA,NA,4,2,NA,purple,m_l_054.jpg,NA,NA,NA,NA,NA,unpleasant,pleasant,NA,NA,NA,NA,NA,left,2189.19999999925,true,NA,NA,NA,NA,NA,NA,NA,NA
wx59rGwP,3bakuke4akpi45n0y93n6zfn3q3r1f,3wev0ko0oq5qkz1jktspmvhkj43dsj,wx59rGwP,2020-0188,2021-10-31,15:33:33,17:08:19,NA,incomplete,false,true,NA,NA,4,3,NA,purple,n_l_103.jpg,NA,NA,NA,NA,NA,unpleasant,pleasant,NA,NA,NA,NA,NA,right,2187.60000000149,true,NA,NA,NA,NA,NA,NA,NA,NA
wx59rGwP,3bakuke4akpi45n0y93n6zfn3q3r1f,3wev0ko0oq5qkz1jktspmvhkj43dsj,wx59rGwP,2020-0188,2021-10-31,15:33:33,17:08:19,NA,incomplete,false,true,NA,NA,4,4,NA,purple,m_s_044.jpg,NA,NA,NA,NA,NA,pleasant,unpleasant,NA,NA,NA,NA,NA,right,3282.30000000075,true,NA,NA,NA,NA,NA,NA,NA,NA
wx59rGwP,3bakuke4akpi45n0y93n6zfn3q3r1f,3wev0ko0oq5qkz1jktspmvhkj43dsj,wx59rGwP,2020-0188,2021-10-31,15:33:33,17:08:19,NA,incomplete,false,true,NA,NA,4,5,NA,purple,n_s_100.jpg,NA,NA,NA,NA,NA,unpleasant,pleasant,NA,NA,NA,NA,NA,none,0,false,NA,NA,NA,NA,NA,NA,NA,NA
wx59rGwP,3bakuke4akpi45n0y93n6zfn3q3r1f,3wev0ko0oq5qkz1jktspmvhkj43dsj,wx59rGwP,2020-0188,2021-10-31,15:33:33,17:08:19,NA,incomplete,false,true,NA,NA,4,6,NA,yellow,n_s_043.jpg,NA,NA,NA,NA,NA,unpleasant,pleasant,NA,NA,NA,NA,NA,right,2300.10000000149,true,NA,NA,NA,NA,NA,NA,NA,NA
wx59rGwP,3bakuke4akpi45n0y93n6zfn3q3r1f,3wev0ko0oq5qkz1jktspmvhkj43dsj,wx59rGwP,2020-0188,2021-10-31,15:33:33,17:08:19,NA,incomplete,false,true,NA,NA,4,7,NA,yellow,n_s_031.jpg,NA,NA,NA,NA,NA,unpleasant,pleasant,NA,NA,NA,NA,NA,right,1212.29999999702,true,NA,NA,NA,NA,NA,NA,NA,NA
wx59rGwP,3bakuke4akpi45n0y93n6zfn3q3r1f,3wev0ko0oq5qkz1jktspmvhkj43dsj,wx59rGwP,2020-0188,2021-10-31,15:33:33,17:08:19,NA,incomplete,false,true,NA,NA,4,8,NA,yellow,m_s_079.jpg,NA,NA,NA,NA,NA,pleasant,unpleasant,NA,NA,NA,NA,NA,left,2629.09999999776,true,NA,NA,NA,NA,NA,NA,NA,NA
wx59rGwP,3bakuke4akpi45n0y93n6zfn3q3r1f,3wev0ko0oq5qkz1jktspmvhkj43dsj,wx59rGwP,2020-0188,2021-10-31,15:33:33,17:08:19,NA,incomplete,false,true,NA,NA,4,9,NA,yellow,n_s_101.jpg,NA,NA,NA,NA,NA,unpleasant,pleasant,NA,NA,NA,NA,NA,right,2046.39999999851,true,NA,NA,NA,NA,NA,NA,NA,NA
wx59rGwP,3bakuke4akpi45n0y93n6zfn3q3r1f,3wev0ko0oq5qkz1jktspmvhkj43dsj,wx59rGwP,2020-0188,2021-10-31,15:33:33,17:08:19,NA,incomplete,false,true,NA,NA,4,10,NA,yellow,m_s_097.jpg,NA,NA,NA,NA,NA,unpleasant,pleasant,NA,NA,NA,NA,NA,left,3360.80000000075,true,NA,NA,NA,NA,NA,NA,NA,NA
wx59rGwP,3bakuke4akpi45n0y93n6zfn3q3r1f,3wev0ko0oq5qkz1jktspmvhkj43dsj,wx59rGwP,2020-0188,2021-10-31,15:33:33,17:08:19,NA,incomplete,false,true,NA,NA,4,11,NA,yellow,n_s_116.jpg,NA,NA,NA,NA,NA,pleasant,unpleasant,NA,NA,NA,NA,NA,left,3462.09999999776,true,NA,NA,NA,NA,NA,NA,NA,NA
wx59rGwP,3bakuke4akpi45n0y93n6zfn3q3r1f,3wev0ko0oq5qkz1jktspmvhkj43dsj,wx59rGwP,2020-0188,2021-10-31,15:33:33,17:08:19,NA,incomplete,false,true,NA,NA,4,12,NA,white,m_s_078.jpg,NA,NA,NA,NA,NA,unpleasant,pleasant,NA,NA,NA,NA,NA,none,0,false,NA,NA,NA,NA,NA,NA,NA,NA
wx59rGwP,3bakuke4akpi45n0y93n6zfn3q3r1f,3wev0ko0oq5qkz1jktspmvhkj43dsj,wx59rGwP,2020-0188,2021-10-31,15:33:33,17:08:19,NA,incomplete,false,true,NA,NA,4,13,NA,white,n_l_024.jpg,NA,NA,NA,NA,NA,unpleasant,pleasant,NA,NA,NA,NA,NA,right,2762.09999999776,true,NA,NA,NA,NA,NA,NA,NA,NA
wx59rGwP,3bakuke4akpi45n0y93n6zfn3q3r1f,3wev0ko0oq5qkz1jktspmvhkj43dsj,wx59rGwP,2020-0188,2021-10-31,15:33:33,17:08:19,NA,incomplete,false,true,NA,NA,4,14,NA,white,n_l_017.jpg,NA,NA,NA,NA,NA,pleasant,unpleasant,NA,NA,NA,NA,NA,left,2092,true,NA,NA,NA,NA,NA,NA,NA,NA
wx59rGwP,3bakuke4akpi45n0y93n6zfn3q3r1f,3wev0ko0oq5qkz1jktspmvhkj43dsj,wx59rGwP,2020-0188,2021-10-31,15:33:33,17:08:19,NA,incomplete,false,true,NA,NA,4,15,NA,white,n_s_026.jpg,NA,NA,NA,NA,NA,unpleasant,pleasant,NA,NA,NA,NA,NA,right,3289.19999999925,true,NA,NA,NA,NA,NA,NA,NA,NA
wx59rGwP,3bakuke4akpi45n0y93n6zfn3q3r1f,3wev0ko0oq5qkz1jktspmvhkj43dsj,wx59rGwP,2020-0188,2021-10-31,15:33:33,17:08:19,NA,incomplete,false,true,NA,NA,4,16,NA,white,m_s_004.jpg,NA,NA,NA,NA,NA,pleasant,unpleasant,NA,NA,NA,NA,NA,left,1414.10000000149,true,NA,NA,NA,NA,NA,NA,NA,NA
wx59rGwP,3bakuke4akpi45n0y93n6zfn3q3r1f,3wev0ko0oq5qkz1jktspmvhkj43dsj,wx59rGwP,2020-0188,2021-10-31,15:33:33,17:08:19,NA,incomplete,false,true,NA,NA,4,17,NA,white,m_s_084.jpg,NA,NA,NA,NA,NA,pleasant,unpleasant,NA,NA,NA,NA,NA,right,3119,true,NA,NA,NA,NA,NA,NA,NA,NA
wx59rGwP,3bakuke4akpi45n0y93n6zfn3q3r1f,3wev0ko0oq5qkz1jktspmvhkj43dsj,wx59rGwP,2020-0188,2021-10-31,15:33:33,17:08:19,NA,incomplete,false,true,NA,NA,4,18,NA,green,m_s_013.jpg,NA,NA,NA,NA,NA,pleasant,unpleasant,NA,NA,NA,NA,NA,right,2673.30000000075,true,NA,NA,NA,NA,NA,NA,NA,NA
wx59rGwP,3bakuke4akpi45n0y93n6zfn3q3r1f,3wev0ko0oq5qkz1jktspmvhkj43dsj,wx59rGwP,2020-0188,2021-10-31,15:33:33,17:08:19,NA,incomplete,false,true,NA,NA,4,19,NA,green,m_l_042.jpg,NA,NA,NA,NA,NA,pleasant,unpleasant,NA,NA,NA,NA,NA,right,2789.5,true,NA,NA,NA,NA,NA,NA,NA,NA
wx59rGwP,3bakuke4akpi45n0y93n6zfn3q3r1f,3wev0ko0oq5qkz1jktspmvhkj43dsj,wx59rGwP,2020-0188,2021-10-31,15:33:33,17:08:19,NA,incomplete,false,true,NA,NA,4,20,NA,green,n_l_062.jpg,NA,NA,NA,NA,NA,unpleasant,pleasant,NA,NA,NA,NA,NA,right,1759.30000000075,true,NA,NA,NA,NA,NA,NA,NA,NA
wx59rGwP,3bakuke4akpi45n0y93n6zfn3q3r1f,3wev0ko0oq5qkz1jktspmvhkj43dsj,wx59rGwP,2020-0188,2021-10-31,15:33:33,17:08:19,NA,incomplete,false,true,NA,NA,4,21,NA,green,n_s_085.jpg,NA,NA,NA,NA,NA,pleasant,unpleasant,NA,NA,NA,NA,NA,left,1971.60000000149,true,NA,NA,NA,NA,NA,NA,NA,NA
wx59rGwP,3bakuke4akpi45n0y93n6zfn3q3r1f,3wev0ko0oq5qkz1jktspmvhkj43dsj,wx59rGwP,2020-0188,2021-10-31,15:33:33,17:08:19,NA,incomplete,false,true,NA,NA,4,22,NA,green,m_l_053.jpg,NA,NA,NA,NA,NA,pleasant,unpleasant,NA,NA,NA,NA,NA,right,2719.5,true,NA,NA,NA,NA,NA,NA,NA,NA
wx59rGwP,3bakuke4akpi45n0y93n6zfn3q3r1f,3wev0ko0oq5qkz1jktspmvhkj43dsj,wx59rGwP,2020-0188,2021-10-31,15:33:33,17:08:19,NA,incomplete,false,true,NA,NA,4,23,NA,green,m_s_062.jpg,NA,NA,NA,NA,NA,unpleasant,pleasant,NA,NA,NA,NA,NA,left,2905,true,NA,NA,NA,NA,NA,NA,NA,NA
wx59rGwP,3bakuke4akpi45n0y93n6zfn3q3r1f,3wev0ko0oq5qkz1jktspmvhkj43dsj,wx59rGwP,2020-0188,2021-10-31,15:33:33,17:08:19,NA,incomplete,false,true,NA,NA,4,24,NA,gray,m_s_040.jpg,NA,NA,NA,NA,NA,pleasant,unpleasant,NA,NA,NA,NA,NA,left,3189.39999999851,true,NA,NA,NA,NA,NA,NA,NA,NA
wx59rGwP,3bakuke4akpi45n0y93n6zfn3q3r1f,3wev0ko0oq5qkz1jktspmvhkj43dsj,wx59rGwP,2020-0188,2021-10-31,15:33:33,17:08:19,NA,incomplete,false,true,NA,NA,4,25,NA,gray,n_l_080.jpg,NA,NA,NA,NA,NA,unpleasant,pleasant,NA,NA,NA,NA,NA,right,2107.90000000224,true,NA,NA,NA,NA,NA,NA,NA,NA
wx59rGwP,3bakuke4akpi45n0y93n6zfn3q3r1f,3wev0ko0oq5qkz1jktspmvhkj43dsj,wx59rGwP,2020-0188,2021-10-31,15:33:33,17:08:19,NA,incomplete,false,true,NA,NA,4,26,NA,gray,n_s_041.jpg,NA,NA,NA,NA,NA,unpleasant,pleasant,NA,NA,NA,NA,NA,right,1177.30000000075,true,NA,NA,NA,NA,NA,NA,NA,NA
wx59rGwP,3bakuke4akpi45n0y93n6zfn3q3r1f,3wev0ko0oq5qkz1jktspmvhkj43dsj,wx59rGwP,2020-0188,2021-10-31,15:33:33,17:08:19,NA,incomplete,false,true,NA,NA,4,27,NA,gray,m_l_055.jpg,NA,NA,NA,NA,NA,unpleasant,pleasant,NA,NA,NA,NA,NA,right,3169.39999999851,true,NA,NA,NA,NA,NA,NA,NA,NA
wx59rGwP,3bakuke4akpi45n0y93n6zfn3q3r1f,3wev0ko0oq5qkz1jktspmvhkj43dsj,wx59rGwP,2020-0188,2021-10-31,15:33:33,17:08:19,NA,incomplete,false,true,NA,NA,4,28,NA,gray,m_s_007.jpg,NA,NA,NA,NA,NA,pleasant,unpleasant,NA,NA,NA,NA,NA,right,2124.19999999925,true,NA,NA,NA,NA,NA,NA,NA,NA
wx59rGwP,3bakuke4akpi45n0y93n6zfn3q3r1f,3wev0ko0oq5qkz1jktspmvhkj43dsj,wx59rGwP,2020-0188,2021-10-31,15:33:33,17:08:19,NA,incomplete,false,true,NA,NA,4,29,NA,gray,n_l_117.jpg,NA,NA,NA,NA,NA,unpleasant,pleasant,NA,NA,NA,NA,NA,right,1932.60000000149,true,NA,NA,NA,NA,NA,NA,NA,NA
wx59rGwP,3bakuke4akpi45n0y93n6zfn3q3r1f,3wev0ko0oq5qkz1jktspmvhkj43dsj,wx59rGwP,2020-0188,2021-10-31,15:33:33,17:08:19,NA,incomplete,false,true,NA,NA,4,30,NA,blue,m_s_067.jpg,NA,NA,NA,NA,NA,unpleasant,pleasant,NA,NA,NA,NA,NA,right,3286.69999999925,true,NA,NA,NA,NA,NA,NA,NA,NA
wx59rGwP,3bakuke4akpi45n0y93n6zfn3q3r1f,3wev0ko0oq5qkz1jktspmvhkj43dsj,wx59rGwP,2020-0188,2021-10-31,15:33:33,17:08:19,NA,incomplete,false,true,NA,NA,4,31,NA,blue,m_s_018.jpg,NA,NA,NA,NA,NA,pleasant,unpleasant,NA,NA,NA,NA,NA,left,2035,true,NA,NA,NA,NA,NA,NA,NA,NA
wx59rGwP,3bakuke4akpi45n0y93n6zfn3q3r1f,3wev0ko0oq5qkz1jktspmvhkj43dsj,wx59rGwP,2020-0188,2021-10-31,15:33:33,17:08:19,NA,incomplete,false,true,NA,NA,4,32,NA,blue,n_l_058.jpg,NA,NA,NA,NA,NA,unpleasant,pleasant,NA,NA,NA,NA,NA,right,2669.30000000075,true,NA,NA,NA,NA,NA,NA,NA,NA
wx59rGwP,3bakuke4akpi45n0y93n6zfn3q3r1f,3wev0ko0oq5qkz1jktspmvhkj43dsj,wx59rGwP,2020-0188,2021-10-31,15:33:33,17:08:19,NA,incomplete,false,true,NA,NA,4,33,NA,blue,n_s_056.jpg,NA,NA,NA,NA,NA,unpleasant,pleasant,NA,NA,NA,NA,NA,left,1935.10000000149,true,NA,NA,NA,NA,NA,NA,NA,NA
wx59rGwP,3bakuke4akpi45n0y93n6zfn3q3r1f,3wev0ko0oq5qkz1jktspmvhkj43dsj,wx59rGwP,2020-0188,2021-10-31,15:33:33,17:08:19,NA,incomplete,false,true,NA,NA,4,34,NA,blue,m_l_028.jpg,NA,NA,NA,NA,NA,pleasant,unpleasant,NA,NA,NA,NA,NA,right,3216.80000000075,true,NA,NA,NA,NA,NA,NA,NA,NA
wx59rGwP,3bakuke4akpi45n0y93n6zfn3q3r1f,3wev0ko0oq5qkz1jktspmvhkj43dsj,wx59rGwP,2020-0188,2021-10-31,15:33:33,17:08:19,NA,incomplete,false,true,NA,NA,4,35,NA,blue,m_s_110.jpg,NA,NA,NA,NA,NA,pleasant,unpleasant,NA,NA,NA,NA,NA,left,3497.70000000298,true,NA,NA,NA,NA,NA,NA,NA,NA
wx59rGwP,3bakuke4akpi45n0y93n6zfn3q3r1f,3wev0ko0oq5qkz1jktspmvhkj43dsj,wx59rGwP,2020-0188,2021-10-31,15:33:33,17:08:19,NA,incomplete,false,NA,NA,true,4,0,NA,NA,NA,right,m_s_084.jpg,yellow,white,NA,NA,NA,NA,NA,NA,NA,NA,NA,NaN,NA,4591,right,1,NA,NA,NA,NA,NA
wx59rGwP,3bakuke4akpi45n0y93n6zfn3q3r1f,3wev0ko0oq5qkz1jktspmvhkj43dsj,wx59rGwP,2020-0188,2021-10-31,15:33:33,17:08:19,NA,incomplete,false,NA,NA,true,4,1,NA,NA,NA,left,m_s_110.jpg,blue,gray,NA,NA,NA,NA,NA,NA,NA,NA,NA,NaN,NA,2690.800000000745,right,0,NA,NA,NA,NA,NA
wx59rGwP,3bakuke4akpi45n0y93n6zfn3q3r1f,3wev0ko0oq5qkz1jktspmvhkj43dsj,wx59rGwP,2020-0188,2021-10-31,15:33:33,17:08:19,NA,incomplete,false,NA,NA,true,4,2,NA,NA,NA,left,m_l_053.jpg,green,gray,NA,NA,NA,NA,NA,NA,NA,NA,NA,NaN,NA,3510.800000000745,left,1,NA,NA,NA,NA,NA
wx59rGwP,3bakuke4akpi45n0y93n6zfn3q3r1f,3wev0ko0oq5qkz1jktspmvhkj43dsj,wx59rGwP,2020-0188,2021-10-31,15:33:33,17:08:19,NA,incomplete,false,NA,NA,true,4,3,NA,NA,NA,right,m_s_044.jpg,yellow,purple,NA,NA,NA,NA,NA,NA,NA,NA,NA,NaN,NA,3378.5,right,1,NA,NA,NA,NA,NA
wx59rGwP,3bakuke4akpi45n0y93n6zfn3q3r1f,3wev0ko0oq5qkz1jktspmvhkj43dsj,wx59rGwP,2020-0188,2021-10-31,15:33:33,17:08:19,NA,incomplete,false,NA,NA,true,4,4,NA,NA,NA,left,n_l_117.jpg,gray,green,NA,NA,NA,NA,NA,NA,NA,NA,NA,NaN,NA,3554.300000000745,left,1,NA,NA,NA,NA,NA
wx59rGwP,3bakuke4akpi45n0y93n6zfn3q3r1f,3wev0ko0oq5qkz1jktspmvhkj43dsj,wx59rGwP,2020-0188,2021-10-31,15:33:33,17:08:19,NA,incomplete,false,NA,NA,true,4,5,NA,NA,NA,right,n_s_117.jpg,yellow,purple,NA,NA,NA,NA,NA,NA,NA,NA,NA,NaN,NA,5630.900000002235,right,1,NA,NA,NA,NA,NA
wx59rGwP,3bakuke4akpi45n0y93n6zfn3q3r1f,3wev0ko0oq5qkz1jktspmvhkj43dsj,wx59rGwP,2020-0188,2021-10-31,15:33:33,17:08:19,NA,incomplete,false,NA,NA,true,4,6,NA,NA,NA,right,m_s_062.jpg,gray,green,NA,NA,NA,NA,NA,NA,NA,NA,NA,NaN,NA,5518.900000002235,left,0,NA,NA,NA,NA,NA
wx59rGwP,3bakuke4akpi45n0y93n6zfn3q3r1f,3wev0ko0oq5qkz1jktspmvhkj43dsj,wx59rGwP,2020-0188,2021-10-31,15:33:33,17:08:19,NA,incomplete,false,NA,NA,true,4,7,NA,NA,NA,right,n_s_100.jpg,yellow,purple,NA,NA,NA,NA,NA,NA,NA,NA,NA,NaN,NA,2738.800000000745,left,0,NA,NA,NA,NA,NA
wx59rGwP,3bakuke4akpi45n0y93n6zfn3q3r1f,3wev0ko0oq5qkz1jktspmvhkj43dsj,wx59rGwP,2020-0188,2021-10-31,15:33:33,17:08:19,NA,incomplete,false,NA,NA,true,4,8,NA,NA,NA,right,n_s_031.jpg,white,yellow,NA,NA,NA,NA,NA,NA,NA,NA,NA,NaN,NA,2738.300000000745,left,0,NA,NA,NA,NA,NA
wx59rGwP,3bakuke4akpi45n0y93n6zfn3q3r1f,3wev0ko0oq5qkz1jktspmvhkj43dsj,wx59rGwP,2020-0188,2021-10-31,15:33:33,17:08:19,NA,incomplete,false,NA,NA,true,4,9,NA,NA,NA,left,n_s_116.jpg,yellow,purple,NA,NA,NA,NA,NA,NA,NA,NA,NA,NaN,NA,6470.300000000745,left,1,NA,NA,NA,NA,NA
wx59rGwP,3bakuke4akpi45n0y93n6zfn3q3r1f,3wev0ko0oq5qkz1jktspmvhkj43dsj,wx59rGwP,2020-0188,2021-10-31,15:33:33,17:08:19,NA,incomplete,false,NA,NA,true,4,10,NA,NA,NA,left,n_l_062.jpg,green,white,NA,NA,NA,NA,NA,NA,NA,NA,NA,NaN,NA,4067.199999999255,left,1,NA,NA,NA,NA,NA
wx59rGwP,3bakuke4akpi45n0y93n6zfn3q3r1f,3wev0ko0oq5qkz1jktspmvhkj43dsj,wx59rGwP,2020-0188,2021-10-31,15:33:33,17:08:19,NA,incomplete,false,NA,NA,true,4,11,NA,NA,NA,left,m_s_018.jpg,blue,gray,NA,NA,NA,NA,NA,NA,NA,NA,NA,NaN,NA,2803.300000000745,right,0,NA,NA,NA,NA,NA
wx59rGwP,3bakuke4akpi45n0y93n6zfn3q3r1f,3wev0ko0oq5qkz1jktspmvhkj43dsj,wx59rGwP,2020-0188,2021-10-31,15:33:33,17:08:19,NA,incomplete,false,NA,NA,true,4,12,NA,NA,NA,right,m_l_042.jpg,gray,green,NA,NA,NA,NA,NA,NA,NA,NA,NA,NaN,NA,2475.39999999851,left,0,NA,NA,NA,NA,NA
wx59rGwP,3bakuke4akpi45n0y93n6zfn3q3r1f,3wev0ko0oq5qkz1jktspmvhkj43dsj,wx59rGwP,2020-0188,2021-10-31,15:33:33,17:08:19,NA,incomplete,false,NA,NA,true,4,13,NA,NA,NA,right,n_l_080.jpg,green,gray,NA,NA,NA,NA,NA,NA,NA,NA,NA,NaN,NA,3010.800000000745,right,1,NA,NA,NA,NA,NA
wx59rGwP,3bakuke4akpi45n0y93n6zfn3q3r1f,3wev0ko0oq5qkz1jktspmvhkj43dsj,wx59rGwP,2020-0188,2021-10-31,15:33:33,17:08:19,NA,incomplete,false,NA,NA,true,4,14,NA,NA,NA,left,m_s_007.jpg,gray,blue,NA,NA,NA,NA,NA,NA,NA,NA,NA,NaN,NA,2674.800000000745,left,1,NA,NA,NA,NA,NA
wx59rGwP,3bakuke4akpi45n0y93n6zfn3q3r1f,3wev0ko0oq5qkz1jktspmvhkj43dsj,wx59rGwP,2020-0188,2021-10-31,15:33:33,17:08:19,NA,incomplete,false,NA,NA,true,4,15,NA,NA,NA,left,m_s_097.jpg,yellow,white,NA,NA,NA,NA,NA,NA,NA,NA,NA,NaN,NA,2634.900000002235,right,0,NA,NA,NA,NA,NA
wx59rGwP,3bakuke4akpi45n0y93n6zfn3q3r1f,3wev0ko0oq5qkz1jktspmvhkj43dsj,wx59rGwP,2020-0188,2021-10-31,15:33:33,17:08:19,NA,incomplete,false,NA,NA,true,4,16,NA,NA,NA,right,m_s_004.jpg,yellow,white,NA,NA,NA,NA,NA,NA,NA,NA,NA,NaN,NA,2587,right,1,NA,NA,NA,NA,NA
wx59rGwP,3bakuke4akpi45n0y93n6zfn3q3r1f,3wev0ko0oq5qkz1jktspmvhkj43dsj,wx59rGwP,2020-0188,2021-10-31,15:33:33,17:08:19,NA,incomplete,false,NA,NA,true,4,17,NA,NA,NA,left,n_s_041.jpg,gray,blue,NA,NA,NA,NA,NA,NA,NA,NA,NA,NaN,NA,3427.099999997765,left,1,NA,NA,NA,NA,NA
wx59rGwP,3bakuke4akpi45n0y93n6zfn3q3r1f,3wev0ko0oq5qkz1jktspmvhkj43dsj,wx59rGwP,2020-0188,2021-10-31,15:33:33,17:08:19,NA,incomplete,false,NA,NA,true,4,18,NA,NA,NA,right,n_l_058.jpg,gray,blue,NA,NA,NA,NA,NA,NA,NA,NA,NA,NaN,NA,3668.10000000149,left,0,NA,NA,NA,NA,NA
wx59rGwP,3bakuke4akpi45n0y93n6zfn3q3r1f,3wev0ko0oq5qkz1jktspmvhkj43dsj,wx59rGwP,2020-0188,2021-10-31,15:33:33,17:08:19,NA,incomplete,false,NA,NA,true,4,19,NA,NA,NA,left,m_s_079.jpg,yellow,purple,NA,NA,NA,NA,NA,NA,NA,NA,NA,NaN,NA,6939,right,0,NA,NA,NA,NA,NA
wx59rGwP,3bakuke4akpi45n0y93n6zfn3q3r1f,3wev0ko0oq5qkz1jktspmvhkj43dsj,wx59rGwP,2020-0188,2021-10-31,15:33:33,17:08:19,NA,incomplete,false,NA,NA,true,4,20,NA,NA,NA,left,n_l_017.jpg,white,yellow,NA,NA,NA,NA,NA,NA,NA,NA,NA,NaN,NA,7094.199999999255,left,1,NA,NA,NA,NA,NA
wx59rGwP,3bakuke4akpi45n0y93n6zfn3q3r1f,3wev0ko0oq5qkz1jktspmvhkj43dsj,wx59rGwP,2020-0188,2021-10-31,15:33:33,17:08:19,NA,incomplete,false,NA,NA,true,4,21,NA,NA,NA,left,n_l_024.jpg,white,yellow,NA,NA,NA,NA,NA,NA,NA,NA,NA,NaN,NA,2226.199999999255,left,1,NA,NA,NA,NA,NA
wx59rGwP,3bakuke4akpi45n0y93n6zfn3q3r1f,3wev0ko0oq5qkz1jktspmvhkj43dsj,wx59rGwP,2020-0188,2021-10-31,15:33:33,17:08:19,NA,incomplete,false,NA,true,NA,4,0,NA,NA,NA,right,NA,NA,NA,present,NA,NA,n_l_062.jpg,green,m_s_004.jpg,white,between,NA,NaN,NA,NA,NA,NA,left,8754.599999997765,0,2,2882.699999999255
wx59rGwP,3bakuke4akpi45n0y93n6zfn3q3r1f,3wev0ko0oq5qkz1jktspmvhkj43dsj,wx59rGwP,2020-0188,2021-10-31,15:33:33,17:08:19,NA,incomplete,false,NA,true,NA,4,1,NA,NA,NA,left,NA,NA,NA,present,NA,NA,m_s_018.jpg,blue,m_s_110.jpg,blue,within,NA,NaN,NA,NA,NA,NA,left,4934.5,1,1,3731.199999999255
wx59rGwP,3bakuke4akpi45n0y93n6zfn3q3r1f,3wev0ko0oq5qkz1jktspmvhkj43dsj,wx59rGwP,2020-0188,2021-10-31,15:33:33,17:08:19,NA,incomplete,false,NA,true,NA,4,2,NA,NA,NA,left,NA,NA,NA,present,NA,NA,n_l_080.jpg,gray,n_l_117.jpg,gray,within,NA,NaN,NA,NA,NA,NA,left,1838.6000000014901,1,1,1654.2000000029802
wx59rGwP,3bakuke4akpi45n0y93n6zfn3q3r1f,3wev0ko0oq5qkz1jktspmvhkj43dsj,wx59rGwP,2020-0188,2021-10-31,15:33:33,17:08:19,NA,incomplete,false,NA,true,NA,4,3,NA,NA,NA,left,NA,NA,NA,present,NA,NA,m_l_042.jpg,green,m_s_062.jpg,green,within,NA,NaN,NA,NA,NA,NA,left,2562.5,1,2,2394.199999999255
wx59rGwP,3bakuke4akpi45n0y93n6zfn3q3r1f,3wev0ko0oq5qkz1jktspmvhkj43dsj,wx59rGwP,2020-0188,2021-10-31,15:33:33,17:08:19,NA,incomplete,false,NA,true,NA,4,4,NA,NA,NA,right,NA,NA,NA,present,NA,NA,n_s_041.jpg,gray,m_l_053.jpg,green,between,NA,NaN,NA,NA,NA,NA,left,2307,0,2,4703.199999999255
wx59rGwP,3bakuke4akpi45n0y93n6zfn3q3r1f,3wev0ko0oq5qkz1jktspmvhkj43dsj,wx59rGwP,2020-0188,2021-10-31,15:33:33,17:08:19,NA,incomplete,false,NA,true,NA,4,5,NA,NA,NA,right,NA,NA,NA,present,NA,NA,n_l_058.jpg,blue,m_s_007.jpg,gray,between,NA,NaN,NA,NA,NA,NA,left,2506.5,0,1,9138.699999999255
wx59rGwP,3bakuke4akpi45n0y93n6zfn3q3r1f,3wev0ko0oq5qkz1jktspmvhkj43dsj,wx59rGwP,2020-0188,2021-10-31,15:33:33,17:08:19,NA,incomplete,false,NA,true,NA,4,6,NA,NA,NA,right,NA,NA,NA,present,NA,NA,n_l_017.jpg,white,m_s_097.jpg,yellow,between,NA,NaN,NA,NA,NA,NA,left,4543.699999999255,0,2,2451
wx59rGwP,3bakuke4akpi45n0y93n6zfn3q3r1f,3wev0ko0oq5qkz1jktspmvhkj43dsj,wx59rGwP,2020-0188,2021-10-31,15:33:33,17:08:19,NA,incomplete,false,NA,true,NA,4,7,NA,NA,NA,right,NA,NA,NA,present,NA,NA,n_s_100.jpg,purple,n_s_117.jpg,purple,within,NA,NaN,NA,NA,NA,NA,left,5181.699999999255,0,1,2314.60000000149
wx59rGwP,3bakuke4akpi45n0y93n6zfn3q3r1f,3wev0ko0oq5qkz1jktspmvhkj43dsj,wx59rGwP,2020-0188,2021-10-31,15:33:33,17:08:19,NA,incomplete,false,NA,true,NA,4,8,NA,NA,NA,right,NA,NA,NA,present,NA,NA,m_s_084.jpg,white,n_l_024.jpg,white,within,NA,NaN,NA,NA,NA,NA,right,3555.099999997765,1,2,6731.300000000745
wx59rGwP,3bakuke4akpi45n0y93n6zfn3q3r1f,3wev0ko0oq5qkz1jktspmvhkj43dsj,wx59rGwP,2020-0188,2021-10-31,15:33:33,17:08:19,NA,incomplete,false,NA,true,NA,4,9,NA,NA,NA,left,NA,NA,NA,present,NA,NA,m_s_044.jpg,purple,m_s_079.jpg,yellow,between,NA,NaN,NA,NA,NA,NA,left,3634.60000000149,1,2,2406.89999999851
wx59rGwP,3bakuke4akpi45n0y93n6zfn3q3r1f,3wev0ko0oq5qkz1jktspmvhkj43dsj,wx59rGwP,2020-0188,2021-10-31,15:33:33,17:08:19,NA,incomplete,false,NA,true,NA,4,10,NA,NA,NA,right,NA,NA,NA,present,NA,NA,n_s_116.jpg,yellow,n_s_031.jpg,yellow,within,NA,NaN,NA,NA,NA,NA,right,5630.699999999255,1,3,1827
wx59rGwP,3bakuke4akpi45n0y93n6zfn3q3r1f,3wev0ko0oq5qkz1jktspmvhkj43dsj,wx59rGwP,2020-0188,2021-10-31,15:33:33,17:08:19,NA,incomplete,false,true,NA,NA,5,0,NA,white,n_l_032.jpg,NA,NA,NA,NA,NA,pleasant,unpleasant,NA,NA,NA,NA,NA,none,0,false,NA,NA,NA,NA,NA,NA,NA,NA
wx59rGwP,3bakuke4akpi45n0y93n6zfn3q3r1f,3wev0ko0oq5qkz1jktspmvhkj43dsj,wx59rGwP,2020-0188,2021-10-31,15:33:33,17:08:19,NA,incomplete,false,true,NA,NA,5,1,NA,white,m_s_081.jpg,NA,NA,NA,NA,NA,pleasant,unpleasant,NA,NA,NA,NA,NA,none,0,false,NA,NA,NA,NA,NA,NA,NA,NA
wx59rGwP,3bakuke4akpi45n0y93n6zfn3q3r1f,3wev0ko0oq5qkz1jktspmvhkj43dsj,wx59rGwP,2020-0188,2021-10-31,15:33:33,17:08:19,NA,incomplete,false,true,NA,NA,5,2,NA,white,m_l_021.jpg,NA,NA,NA,NA,NA,pleasant,unpleasant,NA,NA,NA,NA,NA,none,0,false,NA,NA,NA,NA,NA,NA,NA,NA
wx59rGwP,3bakuke4akpi45n0y93n6zfn3q3r1f,3wev0ko0oq5qkz1jktspmvhkj43dsj,wx59rGwP,2020-0188,2021-10-31,15:33:33,17:08:19,NA,incomplete,false,true,NA,NA,5,3,NA,white,n_l_033.jpg,NA,NA,NA,NA,NA,unpleasant,pleasant,NA,NA,NA,NA,NA,left,2567.19999999925,true,NA,NA,NA,NA,NA,NA,NA,NA
wx59rGwP,3bakuke4akpi45n0y93n6zfn3q3r1f,3wev0ko0oq5qkz1jktspmvhkj43dsj,wx59rGwP,2020-0188,2021-10-31,15:33:33,17:08:19,NA,incomplete,false,true,NA,NA,5,4,NA,white,n_s_063.jpg,NA,NA,NA,NA,NA,unpleasant,pleasant,NA,NA,NA,NA,NA,left,1485.30000000075,true,NA,NA,NA,NA,NA,NA,NA,NA
wx59rGwP,3bakuke4akpi45n0y93n6zfn3q3r1f,3wev0ko0oq5qkz1jktspmvhkj43dsj,wx59rGwP,2020-0188,2021-10-31,15:33:33,17:08:19,NA,incomplete,false,true,NA,NA,5,5,NA,white,m_l_099.jpg,NA,NA,NA,NA,NA,pleasant,unpleasant,NA,NA,NA,NA,NA,right,2936.19999999925,true,NA,NA,NA,NA,NA,NA,NA,NA
wx59rGwP,3bakuke4akpi45n0y93n6zfn3q3r1f,3wev0ko0oq5qkz1jktspmvhkj43dsj,wx59rGwP,2020-0188,2021-10-31,15:33:33,17:08:19,NA,incomplete,false,true,NA,NA,5,6,NA,red,n_s_067.jpg,NA,NA,NA,NA,NA,pleasant,unpleasant,NA,NA,NA,NA,NA,right,2553.30000000075,true,NA,NA,NA,NA,NA,NA,NA,NA
wx59rGwP,3bakuke4akpi45n0y93n6zfn3q3r1f,3wev0ko0oq5qkz1jktspmvhkj43dsj,wx59rGwP,2020-0188,2021-10-31,15:33:33,17:08:19,NA,incomplete,false,true,NA,NA,5,7,NA,red,m_s_010.jpg,NA,NA,NA,NA,NA,pleasant,unpleasant,NA,NA,NA,NA,NA,right,3338.5,true,NA,NA,NA,NA,NA,NA,NA,NA
wx59rGwP,3bakuke4akpi45n0y93n6zfn3q3r1f,3wev0ko0oq5qkz1jktspmvhkj43dsj,wx59rGwP,2020-0188,2021-10-31,15:33:33,17:08:19,NA,incomplete,false,true,NA,NA,5,8,NA,red,m_l_077.jpg,NA,NA,NA,NA,NA,pleasant,unpleasant,NA,NA,NA,NA,NA,right,1975,true,NA,NA,NA,NA,NA,NA,NA,NA
wx59rGwP,3bakuke4akpi45n0y93n6zfn3q3r1f,3wev0ko0oq5qkz1jktspmvhkj43dsj,wx59rGwP,2020-0188,2021-10-31,15:33:33,17:08:19,NA,incomplete,false,true,NA,NA,5,9,NA,red,m_l_107.jpg,NA,NA,NA,NA,NA,pleasant,unpleasant,NA,NA,NA,NA,NA,right,1976.30000000075,true,NA,NA,NA,NA,NA,NA,NA,NA
wx59rGwP,3bakuke4akpi45n0y93n6zfn3q3r1f,3wev0ko0oq5qkz1jktspmvhkj43dsj,wx59rGwP,2020-0188,2021-10-31,15:33:33,17:08:19,NA,incomplete,false,true,NA,NA,5,10,NA,red,n_l_061.jpg,NA,NA,NA,NA,NA,unpleasant,pleasant,NA,NA,NA,NA,NA,left,3202.90000000224,true,NA,NA,NA,NA,NA,NA,NA,NA
wx59rGwP,3bakuke4akpi45n0y93n6zfn3q3r1f,3wev0ko0oq5qkz1jktspmvhkj43dsj,wx59rGwP,2020-0188,2021-10-31,15:33:33,17:08:19,NA,incomplete,false,true,NA,NA,5,11,NA,red,m_l_094.jpg,NA,NA,NA,NA,NA,pleasant,unpleasant,NA,NA,NA,NA,NA,left,2531.09999999776,true,NA,NA,NA,NA,NA,NA,NA,NA
wx59rGwP,3bakuke4akpi45n0y93n6zfn3q3r1f,3wev0ko0oq5qkz1jktspmvhkj43dsj,wx59rGwP,2020-0188,2021-10-31,15:33:33,17:08:19,NA,incomplete,false,true,NA,NA,5,12,NA,yellow,n_l_063.jpg,NA,NA,NA,NA,NA,pleasant,unpleasant,NA,NA,NA,NA,NA,right,2304.89999999851,true,NA,NA,NA,NA,NA,NA,NA,NA
wx59rGwP,3bakuke4akpi45n0y93n6zfn3q3r1f,3wev0ko0oq5qkz1jktspmvhkj43dsj,wx59rGwP,2020-0188,2021-10-31,15:33:33,17:08:19,NA,incomplete,false,true,NA,NA,5,13,NA,yellow,m_l_088.jpg,NA,NA,NA,NA,NA,unpleasant,pleasant,NA,NA,NA,NA,NA,left,3114.39999999851,true,NA,NA,NA,NA,NA,NA,NA,NA
wx59rGwP,3bakuke4akpi45n0y93n6zfn3q3r1f,3wev0ko0oq5qkz1jktspmvhkj43dsj,wx59rGwP,2020-0188,2021-10-31,15:33:33,17:08:19,NA,incomplete,false,true,NA,NA,5,14,NA,yellow,n_l_025.jpg,NA,NA,NA,NA,NA,unpleasant,pleasant,NA,NA,NA,NA,NA,left,1769.70000000298,true,NA,NA,NA,NA,NA,NA,NA,NA
wx59rGwP,3bakuke4akpi45n0y93n6zfn3q3r1f,3wev0ko0oq5qkz1jktspmvhkj43dsj,wx59rGwP,2020-0188,2021-10-31,15:33:33,17:08:19,NA,incomplete,false,true,NA,NA,5,15,NA,yellow,m_s_104.jpg,NA,NA,NA,NA,NA,pleasant,unpleasant,NA,NA,NA,NA,NA,left,1567.59999999776,true,NA,NA,NA,NA,NA,NA,NA,NA
wx59rGwP,3bakuke4akpi45n0y93n6zfn3q3r1f,3wev0ko0oq5qkz1jktspmvhkj43dsj,wx59rGwP,2020-0188,2021-10-31,15:33:33,17:08:19,NA,incomplete,false,true,NA,NA,5,16,NA,yellow,m_s_059.jpg,NA,NA,NA,NA,NA,pleasant,unpleasant,NA,NA,NA,NA,NA,right,1969.60000000149,true,NA,NA,NA,NA,NA,NA,NA,NA
wx59rGwP,3bakuke4akpi45n0y93n6zfn3q3r1f,3wev0ko0oq5qkz1jktspmvhkj43dsj,wx59rGwP,2020-0188,2021-10-31,15:33:33,17:08:19,NA,incomplete,false,true,NA,NA,5,17,NA,yellow,m_l_109.jpg,NA,NA,NA,NA,NA,pleasant,unpleasant,NA,NA,NA,NA,NA,right,1947.90000000224,true,NA,NA,NA,NA,NA,NA,NA,NA
