workerId,hitId,assignmentId,subject,studyid,exp_date,exp_start,exp_end,time_start,time_end,practice,encoding,memory,association,block,trial,event_order,event,stim,answer,object,left_context,right_context,context_type,label_left,label_right,left_image,left_event,right_image,right_event,condition,response,response_time,response_acc,association_response_time,association_response,association_acc,order_response,order_response_time,order_acc,distance_response,distance_response_time
rKCiAFGQ,3icohx7eofotocxdgkfntnxuj980e9,3wt783ctpfuhyle39bbjc0p2tdsbcw,rKCiAFGQ,2020-0188,2021-10-30,23:37:37,01:09:48,NA,incomplete,true,true,NA,NA,0,0,NA,orange,m_s_105.jpg,NA,NA,NA,NA,NA,unpleasant,pleasant,NA,NA,NA,NA,NA,left,2170,true,NA,NA,NA,NA,NA,NA,NA,NA
rKCiAFGQ,3icohx7eofotocxdgkfntnxuj980e9,3wt783ctpfuhyle39bbjc0p2tdsbcw,rKCiAFGQ,2020-0188,2021-10-30,23:37:37,01:09:48,NA,incomplete,true,true,NA,NA,0,1,NA,orange,n_l_107.jpg,NA,NA,NA,NA,NA,unpleasant,pleasant,NA,NA,NA,NA,NA,right,2028.79999995232,true,NA,NA,NA,NA,NA,NA,NA,NA
rKCiAFGQ,3icohx7eofotocxdgkfntnxuj980e9,3wt783ctpfuhyle39bbjc0p2tdsbcw,rKCiAFGQ,2020-0188,2021-10-30,23:37:37,01:09:48,NA,incomplete,true,true,NA,NA,0,2,NA,orange,n_l_053.jpg,NA,NA,NA,NA,NA,pleasant,unpleasant,NA,NA,NA,NA,NA,right,3138.90000009537,true,NA,NA,NA,NA,NA,NA,NA,NA
rKCiAFGQ,3icohx7eofotocxdgkfntnxuj980e9,3wt783ctpfuhyle39bbjc0p2tdsbcw,rKCiAFGQ,2020-0188,2021-10-30,23:37:37,01:09:48,NA,incomplete,true,true,NA,NA,0,3,NA,orange,m_s_093.jpg,NA,NA,NA,NA,NA,pleasant,unpleasant,NA,NA,NA,NA,NA,right,1910.09999990463,true,NA,NA,NA,NA,NA,NA,NA,NA
rKCiAFGQ,3icohx7eofotocxdgkfntnxuj980e9,3wt783ctpfuhyle39bbjc0p2tdsbcw,rKCiAFGQ,2020-0188,2021-10-30,23:37:37,01:09:48,NA,incomplete,true,true,NA,NA,0,4,NA,orange,m_l_018.jpg,NA,NA,NA,NA,NA,unpleasant,pleasant,NA,NA,NA,NA,NA,right,1746.59999990463,true,NA,NA,NA,NA,NA,NA,NA,NA
rKCiAFGQ,3icohx7eofotocxdgkfntnxuj980e9,3wt783ctpfuhyle39bbjc0p2tdsbcw,rKCiAFGQ,2020-0188,2021-10-30,23:37:37,01:09:48,NA,incomplete,true,true,NA,NA,0,5,NA,orange,n_s_020.jpg,NA,NA,NA,NA,NA,unpleasant,pleasant,NA,NA,NA,NA,NA,left,1583.70000004768,true,NA,NA,NA,NA,NA,NA,NA,NA
rKCiAFGQ,3icohx7eofotocxdgkfntnxuj980e9,3wt783ctpfuhyle39bbjc0p2tdsbcw,rKCiAFGQ,2020-0188,2021-10-30,23:37:37,01:09:48,NA,incomplete,true,true,NA,NA,0,6,NA,green,m_s_002.jpg,NA,NA,NA,NA,NA,pleasant,unpleasant,NA,NA,NA,NA,NA,right,2050.90000009537,true,NA,NA,NA,NA,NA,NA,NA,NA
rKCiAFGQ,3icohx7eofotocxdgkfntnxuj980e9,3wt783ctpfuhyle39bbjc0p2tdsbcw,rKCiAFGQ,2020-0188,2021-10-30,23:37:37,01:09:48,NA,incomplete,true,true,NA,NA,0,7,NA,green,m_s_023.jpg,NA,NA,NA,NA,NA,pleasant,unpleasant,NA,NA,NA,NA,NA,left,1672.20000004768,true,NA,NA,NA,NA,NA,NA,NA,NA
rKCiAFGQ,3icohx7eofotocxdgkfntnxuj980e9,3wt783ctpfuhyle39bbjc0p2tdsbcw,rKCiAFGQ,2020-0188,2021-10-30,23:37:37,01:09:48,NA,incomplete,true,true,NA,NA,0,8,NA,green,n_l_101.jpg,NA,NA,NA,NA,NA,unpleasant,pleasant,NA,NA,NA,NA,NA,right,1683.80000019073,true,NA,NA,NA,NA,NA,NA,NA,NA
rKCiAFGQ,3icohx7eofotocxdgkfntnxuj980e9,3wt783ctpfuhyle39bbjc0p2tdsbcw,rKCiAFGQ,2020-0188,2021-10-30,23:37:37,01:09:48,NA,incomplete,true,true,NA,NA,0,9,NA,green,n_s_059.jpg,NA,NA,NA,NA,NA,pleasant,unpleasant,NA,NA,NA,NA,NA,right,2102.90000009537,true,NA,NA,NA,NA,NA,NA,NA,NA
rKCiAFGQ,3icohx7eofotocxdgkfntnxuj980e9,3wt783ctpfuhyle39bbjc0p2tdsbcw,rKCiAFGQ,2020-0188,2021-10-30,23:37:37,01:09:48,NA,incomplete,true,true,NA,NA,0,10,NA,green,n_s_017.jpg,NA,NA,NA,NA,NA,unpleasant,pleasant,NA,NA,NA,NA,NA,left,2875.5,true,NA,NA,NA,NA,NA,NA,NA,NA
rKCiAFGQ,3icohx7eofotocxdgkfntnxuj980e9,3wt783ctpfuhyle39bbjc0p2tdsbcw,rKCiAFGQ,2020-0188,2021-10-30,23:37:37,01:09:48,NA,incomplete,true,true,NA,NA,0,11,NA,green,m_l_067.jpg,NA,NA,NA,NA,NA,pleasant,unpleasant,NA,NA,NA,NA,NA,right,1296.09999990463,true,NA,NA,NA,NA,NA,NA,NA,NA
rKCiAFGQ,3icohx7eofotocxdgkfntnxuj980e9,3wt783ctpfuhyle39bbjc0p2tdsbcw,rKCiAFGQ,2020-0188,2021-10-30,23:37:37,01:09:48,NA,incomplete,true,true,NA,NA,0,12,NA,gray,n_s_106.jpg,NA,NA,NA,NA,NA,unpleasant,pleasant,NA,NA,NA,NA,NA,left,1301.5,true,NA,NA,NA,NA,NA,NA,NA,NA
rKCiAFGQ,3icohx7eofotocxdgkfntnxuj980e9,3wt783ctpfuhyle39bbjc0p2tdsbcw,rKCiAFGQ,2020-0188,2021-10-30,23:37:37,01:09:48,NA,incomplete,true,true,NA,NA,0,13,NA,gray,m_l_005.jpg,NA,NA,NA,NA,NA,pleasant,unpleasant,NA,NA,NA,NA,NA,right,745.899999856949,true,NA,NA,NA,NA,NA,NA,NA,NA
rKCiAFGQ,3icohx7eofotocxdgkfntnxuj980e9,3wt783ctpfuhyle39bbjc0p2tdsbcw,rKCiAFGQ,2020-0188,2021-10-30,23:37:37,01:09:48,NA,incomplete,true,true,NA,NA,0,14,NA,gray,n_l_088.jpg,NA,NA,NA,NA,NA,unpleasant,pleasant,NA,NA,NA,NA,NA,left,1853.90000009537,true,NA,NA,NA,NA,NA,NA,NA,NA
rKCiAFGQ,3icohx7eofotocxdgkfntnxuj980e9,3wt783ctpfuhyle39bbjc0p2tdsbcw,rKCiAFGQ,2020-0188,2021-10-30,23:37:37,01:09:48,NA,incomplete,true,true,NA,NA,0,15,NA,gray,m_l_081.jpg,NA,NA,NA,NA,NA,pleasant,unpleasant,NA,NA,NA,NA,NA,left,2185.10000014305,true,NA,NA,NA,NA,NA,NA,NA,NA
rKCiAFGQ,3icohx7eofotocxdgkfntnxuj980e9,3wt783ctpfuhyle39bbjc0p2tdsbcw,rKCiAFGQ,2020-0188,2021-10-30,23:37:37,01:09:48,NA,incomplete,true,true,NA,NA,0,16,NA,gray,m_s_004.jpg,NA,NA,NA,NA,NA,pleasant,unpleasant,NA,NA,NA,NA,NA,left,1526.5,true,NA,NA,NA,NA,NA,NA,NA,NA
rKCiAFGQ,3icohx7eofotocxdgkfntnxuj980e9,3wt783ctpfuhyle39bbjc0p2tdsbcw,rKCiAFGQ,2020-0188,2021-10-30,23:37:37,01:09:48,NA,incomplete,true,true,NA,NA,0,17,NA,gray,m_l_033.jpg,NA,NA,NA,NA,NA,pleasant,unpleasant,NA,NA,NA,NA,NA,left,2274.59999990463,true,NA,NA,NA,NA,NA,NA,NA,NA
rKCiAFGQ,3icohx7eofotocxdgkfntnxuj980e9,3wt783ctpfuhyle39bbjc0p2tdsbcw,rKCiAFGQ,2020-0188,2021-10-30,23:37:37,01:09:48,NA,incomplete,true,true,NA,NA,0,18,NA,yellow,n_s_037.jpg,NA,NA,NA,NA,NA,unpleasant,pleasant,NA,NA,NA,NA,NA,right,1430.79999995232,true,NA,NA,NA,NA,NA,NA,NA,NA
rKCiAFGQ,3icohx7eofotocxdgkfntnxuj980e9,3wt783ctpfuhyle39bbjc0p2tdsbcw,rKCiAFGQ,2020-0188,2021-10-30,23:37:37,01:09:48,NA,incomplete,true,true,NA,NA,0,19,NA,yellow,m_l_030.jpg,NA,NA,NA,NA,NA,pleasant,unpleasant,NA,NA,NA,NA,NA,left,2107.20000004768,true,NA,NA,NA,NA,NA,NA,NA,NA
rKCiAFGQ,3icohx7eofotocxdgkfntnxuj980e9,3wt783ctpfuhyle39bbjc0p2tdsbcw,rKCiAFGQ,2020-0188,2021-10-30,23:37:37,01:09:48,NA,incomplete,true,true,NA,NA,0,20,NA,yellow,n_l_081.jpg,NA,NA,NA,NA,NA,unpleasant,pleasant,NA,NA,NA,NA,NA,right,1399.60000014305,true,NA,NA,NA,NA,NA,NA,NA,NA
rKCiAFGQ,3icohx7eofotocxdgkfntnxuj980e9,3wt783ctpfuhyle39bbjc0p2tdsbcw,rKCiAFGQ,2020-0188,2021-10-30,23:37:37,01:09:48,NA,incomplete,true,true,NA,NA,0,21,NA,yellow,m_s_029.jpg,NA,NA,NA,NA,NA,pleasant,unpleasant,NA,NA,NA,NA,NA,right,1643.60000014305,true,NA,NA,NA,NA,NA,NA,NA,NA
rKCiAFGQ,3icohx7eofotocxdgkfntnxuj980e9,3wt783ctpfuhyle39bbjc0p2tdsbcw,rKCiAFGQ,2020-0188,2021-10-30,23:37:37,01:09:48,NA,incomplete,true,true,NA,NA,0,22,NA,yellow,m_l_049.jpg,NA,NA,NA,NA,NA,unpleasant,pleasant,NA,NA,NA,NA,NA,left,1688.5,true,NA,NA,NA,NA,NA,NA,NA,NA
rKCiAFGQ,3icohx7eofotocxdgkfntnxuj980e9,3wt783ctpfuhyle39bbjc0p2tdsbcw,rKCiAFGQ,2020-0188,2021-10-30,23:37:37,01:09:48,NA,incomplete,true,true,NA,NA,0,23,NA,yellow,n_s_074.jpg,NA,NA,NA,NA,NA,pleasant,unpleasant,NA,NA,NA,NA,NA,left,1389.29999995232,true,NA,NA,NA,NA,NA,NA,NA,NA
rKCiAFGQ,3icohx7eofotocxdgkfntnxuj980e9,3wt783ctpfuhyle39bbjc0p2tdsbcw,rKCiAFGQ,2020-0188,2021-10-30,23:37:37,01:09:48,NA,incomplete,true,true,NA,NA,0,24,NA,white,n_s_029.jpg,NA,NA,NA,NA,NA,pleasant,unpleasant,NA,NA,NA,NA,NA,right,2289.09999990463,true,NA,NA,NA,NA,NA,NA,NA,NA
rKCiAFGQ,3icohx7eofotocxdgkfntnxuj980e9,3wt783ctpfuhyle39bbjc0p2tdsbcw,rKCiAFGQ,2020-0188,2021-10-30,23:37:37,01:09:48,NA,incomplete,true,true,NA,NA,0,25,NA,white,n_l_066.jpg,NA,NA,NA,NA,NA,unpleasant,pleasant,NA,NA,NA,NA,NA,right,1644.79999995232,true,NA,NA,NA,NA,NA,NA,NA,NA
rKCiAFGQ,3icohx7eofotocxdgkfntnxuj980e9,3wt783ctpfuhyle39bbjc0p2tdsbcw,rKCiAFGQ,2020-0188,2021-10-30,23:37:37,01:09:48,NA,incomplete,true,true,NA,NA,0,26,NA,white,n_s_088.jpg,NA,NA,NA,NA,NA,pleasant,unpleasant,NA,NA,NA,NA,NA,right,2297.39999985695,true,NA,NA,NA,NA,NA,NA,NA,NA
rKCiAFGQ,3icohx7eofotocxdgkfntnxuj980e9,3wt783ctpfuhyle39bbjc0p2tdsbcw,rKCiAFGQ,2020-0188,2021-10-30,23:37:37,01:09:48,NA,incomplete,true,true,NA,NA,0,27,NA,white,n_l_057.jpg,NA,NA,NA,NA,NA,unpleasant,pleasant,NA,NA,NA,NA,NA,right,1518.09999990463,true,NA,NA,NA,NA,NA,NA,NA,NA
rKCiAFGQ,3icohx7eofotocxdgkfntnxuj980e9,3wt783ctpfuhyle39bbjc0p2tdsbcw,rKCiAFGQ,2020-0188,2021-10-30,23:37:37,01:09:48,NA,incomplete,true,true,NA,NA,0,28,NA,white,m_l_089.jpg,NA,NA,NA,NA,NA,unpleasant,pleasant,NA,NA,NA,NA,NA,right,1538,true,NA,NA,NA,NA,NA,NA,NA,NA
rKCiAFGQ,3icohx7eofotocxdgkfntnxuj980e9,3wt783ctpfuhyle39bbjc0p2tdsbcw,rKCiAFGQ,2020-0188,2021-10-30,23:37:37,01:09:48,NA,incomplete,true,true,NA,NA,0,29,NA,white,n_s_015.jpg,NA,NA,NA,NA,NA,unpleasant,pleasant,NA,NA,NA,NA,NA,right,1391.59999990463,true,NA,NA,NA,NA,NA,NA,NA,NA
rKCiAFGQ,3icohx7eofotocxdgkfntnxuj980e9,3wt783ctpfuhyle39bbjc0p2tdsbcw,rKCiAFGQ,2020-0188,2021-10-30,23:37:37,01:09:48,NA,incomplete,true,true,NA,NA,0,30,NA,black,m_s_072.jpg,NA,NA,NA,NA,NA,pleasant,unpleasant,NA,NA,NA,NA,NA,left,1306.39999985695,true,NA,NA,NA,NA,NA,NA,NA,NA
rKCiAFGQ,3icohx7eofotocxdgkfntnxuj980e9,3wt783ctpfuhyle39bbjc0p2tdsbcw,rKCiAFGQ,2020-0188,2021-10-30,23:37:37,01:09:48,NA,incomplete,true,true,NA,NA,0,31,NA,black,m_l_094.jpg,NA,NA,NA,NA,NA,unpleasant,pleasant,NA,NA,NA,NA,NA,right,2294.40000009537,true,NA,NA,NA,NA,NA,NA,NA,NA
rKCiAFGQ,3icohx7eofotocxdgkfntnxuj980e9,3wt783ctpfuhyle39bbjc0p2tdsbcw,rKCiAFGQ,2020-0188,2021-10-30,23:37:37,01:09:48,NA,incomplete,true,true,NA,NA,0,32,NA,black,m_l_088.jpg,NA,NA,NA,NA,NA,unpleasant,pleasant,NA,NA,NA,NA,NA,right,1354.29999995232,true,NA,NA,NA,NA,NA,NA,NA,NA
rKCiAFGQ,3icohx7eofotocxdgkfntnxuj980e9,3wt783ctpfuhyle39bbjc0p2tdsbcw,rKCiAFGQ,2020-0188,2021-10-30,23:37:37,01:09:48,NA,incomplete,true,true,NA,NA,0,33,NA,black,n_s_034.jpg,NA,NA,NA,NA,NA,pleasant,unpleasant,NA,NA,NA,NA,NA,left,1167,true,NA,NA,NA,NA,NA,NA,NA,NA
rKCiAFGQ,3icohx7eofotocxdgkfntnxuj980e9,3wt783ctpfuhyle39bbjc0p2tdsbcw,rKCiAFGQ,2020-0188,2021-10-30,23:37:37,01:09:48,NA,incomplete,true,true,NA,NA,0,34,NA,black,n_l_074.jpg,NA,NA,NA,NA,NA,pleasant,unpleasant,NA,NA,NA,NA,NA,left,1715,true,NA,NA,NA,NA,NA,NA,NA,NA
rKCiAFGQ,3icohx7eofotocxdgkfntnxuj980e9,3wt783ctpfuhyle39bbjc0p2tdsbcw,rKCiAFGQ,2020-0188,2021-10-30,23:37:37,01:09:48,NA,incomplete,true,true,NA,NA,0,35,NA,black,n_s_104.jpg,NA,NA,NA,NA,NA,unpleasant,pleasant,NA,NA,NA,NA,NA,left,1248.29999995232,true,NA,NA,NA,NA,NA,NA,NA,NA
rKCiAFGQ,3icohx7eofotocxdgkfntnxuj980e9,3wt783ctpfuhyle39bbjc0p2tdsbcw,rKCiAFGQ,2020-0188,2021-10-30,23:37:37,01:09:48,NA,incomplete,true,NA,NA,true,0,0,NA,NA,NA,left,m_l_030.jpg,yellow,gray,NA,NA,NA,NA,NA,NA,NA,NA,NA,NaN,NA,3874.5,right,0,NA,NA,NA,NA,NA
rKCiAFGQ,3icohx7eofotocxdgkfntnxuj980e9,3wt783ctpfuhyle39bbjc0p2tdsbcw,rKCiAFGQ,2020-0188,2021-10-30,23:37:37,01:09:48,NA,incomplete,true,NA,NA,true,0,1,NA,NA,NA,right,n_l_081.jpg,gray,yellow,NA,NA,NA,NA,NA,NA,NA,NA,NA,NaN,NA,2175.5,left,0,NA,NA,NA,NA,NA
rKCiAFGQ,3icohx7eofotocxdgkfntnxuj980e9,3wt783ctpfuhyle39bbjc0p2tdsbcw,rKCiAFGQ,2020-0188,2021-10-30,23:37:37,01:09:48,NA,incomplete,true,NA,NA,true,0,2,NA,NA,NA,right,m_s_004.jpg,yellow,gray,NA,NA,NA,NA,NA,NA,NA,NA,NA,NaN,NA,2232.5,right,1,NA,NA,NA,NA,NA
rKCiAFGQ,3icohx7eofotocxdgkfntnxuj980e9,3wt783ctpfuhyle39bbjc0p2tdsbcw,rKCiAFGQ,2020-0188,2021-10-30,23:37:37,01:09:48,NA,incomplete,true,NA,NA,true,0,3,NA,NA,NA,right,n_l_101.jpg,orange,green,NA,NA,NA,NA,NA,NA,NA,NA,NA,NaN,NA,1598.5,right,1,NA,NA,NA,NA,NA
rKCiAFGQ,3icohx7eofotocxdgkfntnxuj980e9,3wt783ctpfuhyle39bbjc0p2tdsbcw,rKCiAFGQ,2020-0188,2021-10-30,23:37:37,01:09:48,NA,incomplete,true,NA,NA,true,0,4,NA,NA,NA,right,m_l_089.jpg,black,white,NA,NA,NA,NA,NA,NA,NA,NA,NA,NaN,NA,2528.199999809265,left,0,NA,NA,NA,NA,NA
rKCiAFGQ,3icohx7eofotocxdgkfntnxuj980e9,3wt783ctpfuhyle39bbjc0p2tdsbcw,rKCiAFGQ,2020-0188,2021-10-30,23:37:37,01:09:48,NA,incomplete,true,NA,NA,true,0,5,NA,NA,NA,left,m_s_023.jpg,green,orange,NA,NA,NA,NA,NA,NA,NA,NA,NA,NaN,NA,2596.899999856949,left,1,NA,NA,NA,NA,NA
rKCiAFGQ,3icohx7eofotocxdgkfntnxuj980e9,3wt783ctpfuhyle39bbjc0p2tdsbcw,rKCiAFGQ,2020-0188,2021-10-30,23:37:37,01:09:48,NA,incomplete,true,NA,NA,true,0,6,NA,NA,NA,right,m_l_088.jpg,white,black,NA,NA,NA,NA,NA,NA,NA,NA,NA,NaN,NA,1535.4000000953674,right,1,NA,NA,NA,NA,NA
rKCiAFGQ,3icohx7eofotocxdgkfntnxuj980e9,3wt783ctpfuhyle39bbjc0p2tdsbcw,rKCiAFGQ,2020-0188,2021-10-30,23:37:37,01:09:48,NA,incomplete,true,NA,NA,true,0,7,NA,NA,NA,left,m_l_094.jpg,black,white,NA,NA,NA,NA,NA,NA,NA,NA,NA,NaN,NA,2188.7000000476837,left,1,NA,NA,NA,NA,NA
rKCiAFGQ,3icohx7eofotocxdgkfntnxuj980e9,3wt783ctpfuhyle39bbjc0p2tdsbcw,rKCiAFGQ,2020-0188,2021-10-30,23:37:37,01:09:48,NA,incomplete,true,NA,NA,true,0,8,NA,NA,NA,left,m_l_005.jpg,gray,yellow,NA,NA,NA,NA,NA,NA,NA,NA,NA,NaN,NA,1693,right,0,NA,NA,NA,NA,NA
rKCiAFGQ,3icohx7eofotocxdgkfntnxuj980e9,3wt783ctpfuhyle39bbjc0p2tdsbcw,rKCiAFGQ,2020-0188,2021-10-30,23:37:37,01:09:48,NA,incomplete,true,NA,NA,true,0,9,NA,NA,NA,left,m_l_033.jpg,gray,yellow,NA,NA,NA,NA,NA,NA,NA,NA,NA,NaN,NA,3332.5999999046326,right,0,NA,NA,NA,NA,NA
rKCiAFGQ,3icohx7eofotocxdgkfntnxuj980e9,3wt783ctpfuhyle39bbjc0p2tdsbcw,rKCiAFGQ,2020-0188,2021-10-30,23:37:37,01:09:48,NA,incomplete,true,NA,NA,true,0,10,NA,NA,NA,right,n_l_088.jpg,yellow,gray,NA,NA,NA,NA,NA,NA,NA,NA,NA,NaN,NA,1770.7999999523163,right,1,NA,NA,NA,NA,NA
rKCiAFGQ,3icohx7eofotocxdgkfntnxuj980e9,3wt783ctpfuhyle39bbjc0p2tdsbcw,rKCiAFGQ,2020-0188,2021-10-30,23:37:37,01:09:48,NA,incomplete,true,NA,NA,true,0,11,NA,NA,NA,right,n_s_104.jpg,white,black,NA,NA,NA,NA,NA,NA,NA,NA,NA,NaN,NA,5489,right,1,NA,NA,NA,NA,NA
rKCiAFGQ,3icohx7eofotocxdgkfntnxuj980e9,3wt783ctpfuhyle39bbjc0p2tdsbcw,rKCiAFGQ,2020-0188,2021-10-30,23:37:37,01:09:48,NA,incomplete,true,NA,NA,true,0,12,NA,NA,NA,right,n_s_074.jpg,gray,yellow,NA,NA,NA,NA,NA,NA,NA,NA,NA,NaN,NA,2055.100000143051,right,1,NA,NA,NA,NA,NA
rKCiAFGQ,3icohx7eofotocxdgkfntnxuj980e9,3wt783ctpfuhyle39bbjc0p2tdsbcw,rKCiAFGQ,2020-0188,2021-10-30,23:37:37,01:09:48,NA,incomplete,true,NA,NA,true,0,13,NA,NA,NA,right,m_l_018.jpg,green,orange,NA,NA,NA,NA,NA,NA,NA,NA,NA,NaN,NA,2664.5,right,1,NA,NA,NA,NA,NA
rKCiAFGQ,3icohx7eofotocxdgkfntnxuj980e9,3wt783ctpfuhyle39bbjc0p2tdsbcw,rKCiAFGQ,2020-0188,2021-10-30,23:37:37,01:09:48,NA,incomplete,true,NA,NA,true,0,14,NA,NA,NA,left,n_l_066.jpg,white,black,NA,NA,NA,NA,NA,NA,NA,NA,NA,NaN,NA,1773.0999999046326,right,0,NA,NA,NA,NA,NA
rKCiAFGQ,3icohx7eofotocxdgkfntnxuj980e9,3wt783ctpfuhyle39bbjc0p2tdsbcw,rKCiAFGQ,2020-0188,2021-10-30,23:37:37,01:09:48,NA,incomplete,true,NA,NA,true,0,15,NA,NA,NA,right,m_l_049.jpg,gray,yellow,NA,NA,NA,NA,NA,NA,NA,NA,NA,NaN,NA,1853.2999999523163,left,0,NA,NA,NA,NA,NA
rKCiAFGQ,3icohx7eofotocxdgkfntnxuj980e9,3wt783ctpfuhyle39bbjc0p2tdsbcw,rKCiAFGQ,2020-0188,2021-10-30,23:37:37,01:09:48,NA,incomplete,true,NA,NA,true,0,16,NA,NA,NA,right,m_l_067.jpg,orange,green,NA,NA,NA,NA,NA,NA,NA,NA,NA,NaN,NA,1530,right,1,NA,NA,NA,NA,NA
rKCiAFGQ,3icohx7eofotocxdgkfntnxuj980e9,3wt783ctpfuhyle39bbjc0p2tdsbcw,rKCiAFGQ,2020-0188,2021-10-30,23:37:37,01:09:48,NA,incomplete,true,NA,NA,true,0,17,NA,NA,NA,right,n_l_107.jpg,green,orange,NA,NA,NA,NA,NA,NA,NA,NA,NA,NaN,NA,3055.4000000953674,right,1,NA,NA,NA,NA,NA
rKCiAFGQ,3icohx7eofotocxdgkfntnxuj980e9,3wt783ctpfuhyle39bbjc0p2tdsbcw,rKCiAFGQ,2020-0188,2021-10-30,23:37:37,01:09:48,NA,incomplete,true,NA,NA,true,0,18,NA,NA,NA,left,n_s_020.jpg,orange,green,NA,NA,NA,NA,NA,NA,NA,NA,NA,NaN,NA,1895.2999999523163,left,1,NA,NA,NA,NA,NA
rKCiAFGQ,3icohx7eofotocxdgkfntnxuj980e9,3wt783ctpfuhyle39bbjc0p2tdsbcw,rKCiAFGQ,2020-0188,2021-10-30,23:37:37,01:09:48,NA,incomplete,true,NA,NA,true,0,19,NA,NA,NA,right,n_s_088.jpg,yellow,white,NA,NA,NA,NA,NA,NA,NA,NA,NA,NaN,NA,1694.5,left,0,NA,NA,NA,NA,NA
rKCiAFGQ,3icohx7eofotocxdgkfntnxuj980e9,3wt783ctpfuhyle39bbjc0p2tdsbcw,rKCiAFGQ,2020-0188,2021-10-30,23:37:37,01:09:48,NA,incomplete,true,NA,NA,true,0,20,NA,NA,NA,right,n_s_017.jpg,gray,green,NA,NA,NA,NA,NA,NA,NA,NA,NA,NaN,NA,2295,left,0,NA,NA,NA,NA,NA
rKCiAFGQ,3icohx7eofotocxdgkfntnxuj980e9,3wt783ctpfuhyle39bbjc0p2tdsbcw,rKCiAFGQ,2020-0188,2021-10-30,23:37:37,01:09:48,NA,incomplete,true,NA,NA,true,0,21,NA,NA,NA,right,n_s_015.jpg,yellow,white,NA,NA,NA,NA,NA,NA,NA,NA,NA,NaN,NA,2308.5,right,1,NA,NA,NA,NA,NA
rKCiAFGQ,3icohx7eofotocxdgkfntnxuj980e9,3wt783ctpfuhyle39bbjc0p2tdsbcw,rKCiAFGQ,2020-0188,2021-10-30,23:37:37,01:09:48,NA,incomplete,true,NA,true,NA,0,0,NA,NA,NA,right,NA,NA,NA,absent,NA,NA,n_l_088.jpg,gray,n_s_017.jpg,green,between,NA,NaN,NA,NA,NA,NA,right,5917,1,2,4713.799999952316
rKCiAFGQ,3icohx7eofotocxdgkfntnxuj980e9,3wt783ctpfuhyle39bbjc0p2tdsbcw,rKCiAFGQ,2020-0188,2021-10-30,23:37:37,01:09:48,NA,incomplete,true,NA,true,NA,0,1,NA,NA,NA,left,NA,NA,NA,absent,NA,NA,m_s_023.jpg,green,m_l_067.jpg,green,within,NA,NaN,NA,NA,NA,NA,left,4518.400000095367,1,1,2879.2000000476837
rKCiAFGQ,3icohx7eofotocxdgkfntnxuj980e9,3wt783ctpfuhyle39bbjc0p2tdsbcw,rKCiAFGQ,2020-0188,2021-10-30,23:37:37,01:09:48,NA,incomplete,true,NA,true,NA,0,2,NA,NA,NA,right,NA,NA,NA,absent,NA,NA,n_l_101.jpg,green,m_l_018.jpg,orange,between,NA,NaN,NA,NA,NA,NA,left,2885.399999856949,0,2,2937.100000143051
rKCiAFGQ,3icohx7eofotocxdgkfntnxuj980e9,3wt783ctpfuhyle39bbjc0p2tdsbcw,rKCiAFGQ,2020-0188,2021-10-30,23:37:37,01:09:48,NA,incomplete,true,NA,true,NA,0,3,NA,NA,NA,right,NA,NA,NA,absent,NA,NA,m_l_033.jpg,gray,m_l_005.jpg,gray,within,NA,NaN,NA,NA,NA,NA,left,5539.199999809265,0,2,3179.5
rKCiAFGQ,3icohx7eofotocxdgkfntnxuj980e9,3wt783ctpfuhyle39bbjc0p2tdsbcw,rKCiAFGQ,2020-0188,2021-10-30,23:37:37,01:09:48,NA,incomplete,true,NA,true,NA,0,4,NA,NA,NA,left,NA,NA,NA,absent,NA,NA,m_l_089.jpg,white,m_l_088.jpg,black,between,NA,NaN,NA,NA,NA,NA,left,6143.200000047684,1,0,1763.0999999046326
rKCiAFGQ,3icohx7eofotocxdgkfntnxuj980e9,3wt783ctpfuhyle39bbjc0p2tdsbcw,rKCiAFGQ,2020-0188,2021-10-30,23:37:37,01:09:48,NA,incomplete,true,NA,true,NA,0,5,NA,NA,NA,right,NA,NA,NA,absent,NA,NA,n_s_015.jpg,white,n_l_066.jpg,white,within,NA,NaN,NA,NA,NA,NA,right,6143.5,1,2,1767.5
rKCiAFGQ,3icohx7eofotocxdgkfntnxuj980e9,3wt783ctpfuhyle39bbjc0p2tdsbcw,rKCiAFGQ,2020-0188,2021-10-30,23:37:37,01:09:48,NA,incomplete,true,NA,true,NA,0,6,NA,NA,NA,right,NA,NA,NA,absent,NA,NA,n_s_088.jpg,white,m_l_049.jpg,yellow,between,NA,NaN,NA,NA,NA,NA,right,2767.9000000953674,1,2,1453.3000001907349
rKCiAFGQ,3icohx7eofotocxdgkfntnxuj980e9,3wt783ctpfuhyle39bbjc0p2tdsbcw,rKCiAFGQ,2020-0188,2021-10-30,23:37:37,01:09:48,NA,incomplete,true,NA,true,NA,0,7,NA,NA,NA,right,NA,NA,NA,absent,NA,NA,n_s_020.jpg,orange,n_l_107.jpg,orange,within,NA,NaN,NA,NA,NA,NA,left,2464.5999999046326,0,3,1563.3999998569489
rKCiAFGQ,3icohx7eofotocxdgkfntnxuj980e9,3wt783ctpfuhyle39bbjc0p2tdsbcw,rKCiAFGQ,2020-0188,2021-10-30,23:37:37,01:09:48,NA,incomplete,true,NA,true,NA,0,8,NA,NA,NA,left,NA,NA,NA,absent,NA,NA,m_l_030.jpg,yellow,n_s_074.jpg,yellow,within,NA,NaN,NA,NA,NA,NA,right,5797.099999904633,0,1,1845.0999999046326
rKCiAFGQ,3icohx7eofotocxdgkfntnxuj980e9,3wt783ctpfuhyle39bbjc0p2tdsbcw,rKCiAFGQ,2020-0188,2021-10-30,23:37:37,01:09:48,NA,incomplete,true,NA,true,NA,0,9,NA,NA,NA,left,NA,NA,NA,absent,NA,NA,m_l_094.jpg,black,n_s_104.jpg,black,within,NA,NaN,NA,NA,NA,NA,left,3276.0999999046326,1,2,3456.5999999046326
rKCiAFGQ,3icohx7eofotocxdgkfntnxuj980e9,3wt783ctpfuhyle39bbjc0p2tdsbcw,rKCiAFGQ,2020-0188,2021-10-30,23:37:37,01:09:48,NA,incomplete,true,NA,true,NA,0,10,NA,NA,NA,right,NA,NA,NA,absent,NA,NA,n_l_081.jpg,yellow,m_s_004.jpg,gray,between,NA,NaN,NA,NA,NA,NA,right,6383.5,1,1,1281
rKCiAFGQ,3icohx7eofotocxdgkfntnxuj980e9,3wt783ctpfuhyle39bbjc0p2tdsbcw,rKCiAFGQ,2020-0188,2021-10-30,23:37:37,01:09:48,NA,incomplete,false,true,NA,NA,1,0,NA,white,m_s_086.jpg,NA,NA,NA,NA,NA,unpleasant,pleasant,NA,NA,NA,NA,NA,none,0,false,NA,NA,NA,NA,NA,NA,NA,NA
rKCiAFGQ,3icohx7eofotocxdgkfntnxuj980e9,3wt783ctpfuhyle39bbjc0p2tdsbcw,rKCiAFGQ,2020-0188,2021-10-30,23:37:37,01:09:48,NA,incomplete,false,true,NA,NA,1,1,NA,white,n_s_057.jpg,NA,NA,NA,NA,NA,pleasant,unpleasant,NA,NA,NA,NA,NA,right,2310.70000004768,true,NA,NA,NA,NA,NA,NA,NA,NA
rKCiAFGQ,3icohx7eofotocxdgkfntnxuj980e9,3wt783ctpfuhyle39bbjc0p2tdsbcw,rKCiAFGQ,2020-0188,2021-10-30,23:37:37,01:09:48,NA,incomplete,false,true,NA,NA,1,2,NA,white,m_s_028.jpg,NA,NA,NA,NA,NA,unpleasant,pleasant,NA,NA,NA,NA,NA,right,2202.89999985695,true,NA,NA,NA,NA,NA,NA,NA,NA
rKCiAFGQ,3icohx7eofotocxdgkfntnxuj980e9,3wt783ctpfuhyle39bbjc0p2tdsbcw,rKCiAFGQ,2020-0188,2021-10-30,23:37:37,01:09:48,NA,incomplete,false,true,NA,NA,1,3,NA,white,m_l_090.jpg,NA,NA,NA,NA,NA,unpleasant,pleasant,NA,NA,NA,NA,NA,right,1767.79999995232,true,NA,NA,NA,NA,NA,NA,NA,NA
rKCiAFGQ,3icohx7eofotocxdgkfntnxuj980e9,3wt783ctpfuhyle39bbjc0p2tdsbcw,rKCiAFGQ,2020-0188,2021-10-30,23:37:37,01:09:48,NA,incomplete,false,true,NA,NA,1,4,NA,white,m_l_054.jpg,NA,NA,NA,NA,NA,pleasant,unpleasant,NA,NA,NA,NA,NA,left,1379.5,true,NA,NA,NA,NA,NA,NA,NA,NA
rKCiAFGQ,3icohx7eofotocxdgkfntnxuj980e9,3wt783ctpfuhyle39bbjc0p2tdsbcw,rKCiAFGQ,2020-0188,2021-10-30,23:37:37,01:09:48,NA,incomplete,false,true,NA,NA,1,5,NA,white,m_s_015.jpg,NA,NA,NA,NA,NA,unpleasant,pleasant,NA,NA,NA,NA,NA,right,1791.5,true,NA,NA,NA,NA,NA,NA,NA,NA
rKCiAFGQ,3icohx7eofotocxdgkfntnxuj980e9,3wt783ctpfuhyle39bbjc0p2tdsbcw,rKCiAFGQ,2020-0188,2021-10-30,23:37:37,01:09:48,NA,incomplete,false,true,NA,NA,1,6,NA,purple,m_s_021.jpg,NA,NA,NA,NA,NA,pleasant,unpleasant,NA,NA,NA,NA,NA,right,2060.40000009537,true,NA,NA,NA,NA,NA,NA,NA,NA
rKCiAFGQ,3icohx7eofotocxdgkfntnxuj980e9,3wt783ctpfuhyle39bbjc0p2tdsbcw,rKCiAFGQ,2020-0188,2021-10-30,23:37:37,01:09:48,NA,incomplete,false,true,NA,NA,1,7,NA,purple,n_s_089.jpg,NA,NA,NA,NA,NA,unpleasant,pleasant,NA,NA,NA,NA,NA,left,1408.59999990463,true,NA,NA,NA,NA,NA,NA,NA,NA
rKCiAFGQ,3icohx7eofotocxdgkfntnxuj980e9,3wt783ctpfuhyle39bbjc0p2tdsbcw,rKCiAFGQ,2020-0188,2021-10-30,23:37:37,01:09:48,NA,incomplete,false,true,NA,NA,1,8,NA,purple,m_l_071.jpg,NA,NA,NA,NA,NA,pleasant,unpleasant,NA,NA,NA,NA,NA,left,1500.40000009537,true,NA,NA,NA,NA,NA,NA,NA,NA
rKCiAFGQ,3icohx7eofotocxdgkfntnxuj980e9,3wt783ctpfuhyle39bbjc0p2tdsbcw,rKCiAFGQ,2020-0188,2021-10-30,23:37:37,01:09:48,NA,incomplete,false,true,NA,NA,1,9,NA,purple,n_s_077.jpg,NA,NA,NA,NA,NA,pleasant,unpleasant,NA,NA,NA,NA,NA,right,1265.40000009537,true,NA,NA,NA,NA,NA,NA,NA,NA
rKCiAFGQ,3icohx7eofotocxdgkfntnxuj980e9,3wt783ctpfuhyle39bbjc0p2tdsbcw,rKCiAFGQ,2020-0188,2021-10-30,23:37:37,01:09:48,NA,incomplete,false,true,NA,NA,1,10,NA,purple,m_s_009.jpg,NA,NA,NA,NA,NA,unpleasant,pleasant,NA,NA,NA,NA,NA,right,1798.80000019073,true,NA,NA,NA,NA,NA,NA,NA,NA
rKCiAFGQ,3icohx7eofotocxdgkfntnxuj980e9,3wt783ctpfuhyle39bbjc0p2tdsbcw,rKCiAFGQ,2020-0188,2021-10-30,23:37:37,01:09:48,NA,incomplete,false,true,NA,NA,1,11,NA,purple,m_s_033.jpg,NA,NA,NA,NA,NA,pleasant,unpleasant,NA,NA,NA,NA,NA,left,2362.79999995232,true,NA,NA,NA,NA,NA,NA,NA,NA
rKCiAFGQ,3icohx7eofotocxdgkfntnxuj980e9,3wt783ctpfuhyle39bbjc0p2tdsbcw,rKCiAFGQ,2020-0188,2021-10-30,23:37:37,01:09:48,NA,incomplete,false,true,NA,NA,1,12,NA,orange,n_s_105.jpg,NA,NA,NA,NA,NA,pleasant,unpleasant,NA,NA,NA,NA,NA,left,1343.19999980927,true,NA,NA,NA,NA,NA,NA,NA,NA
rKCiAFGQ,3icohx7eofotocxdgkfntnxuj980e9,3wt783ctpfuhyle39bbjc0p2tdsbcw,rKCiAFGQ,2020-0188,2021-10-30,23:37:37,01:09:48,NA,incomplete,false,true,NA,NA,1,13,NA,orange,n_l_046.jpg,NA,NA,NA,NA,NA,pleasant,unpleasant,NA,NA,NA,NA,NA,left,1307.70000004768,true,NA,NA,NA,NA,NA,NA,NA,NA
rKCiAFGQ,3icohx7eofotocxdgkfntnxuj980e9,3wt783ctpfuhyle39bbjc0p2tdsbcw,rKCiAFGQ,2020-0188,2021-10-30,23:37:37,01:09:48,NA,incomplete,false,true,NA,NA,1,14,NA,orange,n_s_108.jpg,NA,NA,NA,NA,NA,pleasant,unpleasant,NA,NA,NA,NA,NA,right,1671,true,NA,NA,NA,NA,NA,NA,NA,NA
rKCiAFGQ,3icohx7eofotocxdgkfntnxuj980e9,3wt783ctpfuhyle39bbjc0p2tdsbcw,rKCiAFGQ,2020-0188,2021-10-30,23:37:37,01:09:48,NA,incomplete,false,true,NA,NA,1,15,NA,orange,m_l_105.jpg,NA,NA,NA,NA,NA,pleasant,unpleasant,NA,NA,NA,NA,NA,right,1547.79999995232,true,NA,NA,NA,NA,NA,NA,NA,NA
rKCiAFGQ,3icohx7eofotocxdgkfntnxuj980e9,3wt783ctpfuhyle39bbjc0p2tdsbcw,rKCiAFGQ,2020-0188,2021-10-30,23:37:37,01:09:48,NA,incomplete,false,true,NA,NA,1,16,NA,orange,m_s_006.jpg,NA,NA,NA,NA,NA,unpleasant,pleasant,NA,NA,NA,NA,NA,left,1632.20000004768,true,NA,NA,NA,NA,NA,NA,NA,NA
rKCiAFGQ,3icohx7eofotocxdgkfntnxuj980e9,3wt783ctpfuhyle39bbjc0p2tdsbcw,rKCiAFGQ,2020-0188,2021-10-30,23:37:37,01:09:48,NA,incomplete,false,true,NA,NA,1,17,NA,orange,n_l_002.jpg,NA,NA,NA,NA,NA,pleasant,unpleasant,NA,NA,NA,NA,NA,left,1445.59999990463,true,NA,NA,NA,NA,NA,NA,NA,NA
rKCiAFGQ,3icohx7eofotocxdgkfntnxuj980e9,3wt783ctpfuhyle39bbjc0p2tdsbcw,rKCiAFGQ,2020-0188,2021-10-30,23:37:37,01:09:48,NA,incomplete,false,true,NA,NA,1,18,NA,blue,m_s_077.jpg,NA,NA,NA,NA,NA,unpleasant,pleasant,NA,NA,NA,NA,NA,right,1458.10000014305,true,NA,NA,NA,NA,NA,NA,NA,NA
rKCiAFGQ,3icohx7eofotocxdgkfntnxuj980e9,3wt783ctpfuhyle39bbjc0p2tdsbcw,rKCiAFGQ,2020-0188,2021-10-30,23:37:37,01:09:48,NA,incomplete,false,true,NA,NA,1,19,NA,blue,m_s_092.jpg,NA,NA,NA,NA,NA,unpleasant,pleasant,NA,NA,NA,NA,NA,right,1518.10000014305,true,NA,NA,NA,NA,NA,NA,NA,NA
rKCiAFGQ,3icohx7eofotocxdgkfntnxuj980e9,3wt783ctpfuhyle39bbjc0p2tdsbcw,rKCiAFGQ,2020-0188,2021-10-30,23:37:37,01:09:48,NA,incomplete,false,true,NA,NA,1,20,NA,blue,n_l_091.jpg,NA,NA,NA,NA,NA,pleasant,unpleasant,NA,NA,NA,NA,NA,left,1474.5,true,NA,NA,NA,NA,NA,NA,NA,NA
rKCiAFGQ,3icohx7eofotocxdgkfntnxuj980e9,3wt783ctpfuhyle39bbjc0p2tdsbcw,rKCiAFGQ,2020-0188,2021-10-30,23:37:37,01:09:48,NA,incomplete,false,true,NA,NA,1,21,NA,blue,n_l_044.jpg,NA,NA,NA,NA,NA,unpleasant,pleasant,NA,NA,NA,NA,NA,right,1389.90000009537,true,NA,NA,NA,NA,NA,NA,NA,NA
rKCiAFGQ,3icohx7eofotocxdgkfntnxuj980e9,3wt783ctpfuhyle39bbjc0p2tdsbcw,rKCiAFGQ,2020-0188,2021-10-30,23:37:37,01:09:48,NA,incomplete,false,true,NA,NA,1,22,NA,blue,m_s_081.jpg,NA,NA,NA,NA,NA,unpleasant,pleasant,NA,NA,NA,NA,NA,right,2105.70000004768,true,NA,NA,NA,NA,NA,NA,NA,NA
rKCiAFGQ,3icohx7eofotocxdgkfntnxuj980e9,3wt783ctpfuhyle39bbjc0p2tdsbcw,rKCiAFGQ,2020-0188,2021-10-30,23:37:37,01:09:48,NA,incomplete,false,true,NA,NA,1,23,NA,blue,n_l_075.jpg,NA,NA,NA,NA,NA,pleasant,unpleasant,NA,NA,NA,NA,NA,right,1421.79999995232,true,NA,NA,NA,NA,NA,NA,NA,NA
rKCiAFGQ,3icohx7eofotocxdgkfntnxuj980e9,3wt783ctpfuhyle39bbjc0p2tdsbcw,rKCiAFGQ,2020-0188,2021-10-30,23:37:37,01:09:48,NA,incomplete,false,true,NA,NA,1,24,NA,red,m_s_016.jpg,NA,NA,NA,NA,NA,pleasant,unpleasant,NA,NA,NA,NA,NA,right,1641.40000009537,true,NA,NA,NA,NA,NA,NA,NA,NA
rKCiAFGQ,3icohx7eofotocxdgkfntnxuj980e9,3wt783ctpfuhyle39bbjc0p2tdsbcw,rKCiAFGQ,2020-0188,2021-10-30,23:37:37,01:09:48,NA,incomplete,false,true,NA,NA,1,25,NA,red,m_l_087.jpg,NA,NA,NA,NA,NA,pleasant,unpleasant,NA,NA,NA,NA,NA,left,1295.09999990463,true,NA,NA,NA,NA,NA,NA,NA,NA
rKCiAFGQ,3icohx7eofotocxdgkfntnxuj980e9,3wt783ctpfuhyle39bbjc0p2tdsbcw,rKCiAFGQ,2020-0188,2021-10-30,23:37:37,01:09:48,NA,incomplete,false,true,NA,NA,1,26,NA,red,m_l_076.jpg,NA,NA,NA,NA,NA,pleasant,unpleasant,NA,NA,NA,NA,NA,left,1603.40000009537,true,NA,NA,NA,NA,NA,NA,NA,NA
rKCiAFGQ,3icohx7eofotocxdgkfntnxuj980e9,3wt783ctpfuhyle39bbjc0p2tdsbcw,rKCiAFGQ,2020-0188,2021-10-30,23:37:37,01:09:48,NA,incomplete,false,true,NA,NA,1,27,NA,red,n_l_086.jpg,NA,NA,NA,NA,NA,pleasant,unpleasant,NA,NA,NA,NA,NA,left,1319.09999990463,true,NA,NA,NA,NA,NA,NA,NA,NA
rKCiAFGQ,3icohx7eofotocxdgkfntnxuj980e9,3wt783ctpfuhyle39bbjc0p2tdsbcw,rKCiAFGQ,2020-0188,2021-10-30,23:37:37,01:09:48,NA,incomplete,false,true,NA,NA,1,28,NA,red,n_l_095.jpg,NA,NA,NA,NA,NA,unpleasant,pleasant,NA,NA,NA,NA,NA,right,1427.20000004768,true,NA,NA,NA,NA,NA,NA,NA,NA
rKCiAFGQ,3icohx7eofotocxdgkfntnxuj980e9,3wt783ctpfuhyle39bbjc0p2tdsbcw,rKCiAFGQ,2020-0188,2021-10-30,23:37:37,01:09:48,NA,incomplete,false,true,NA,NA,1,29,NA,red,m_s_019.jpg,NA,NA,NA,NA,NA,pleasant,unpleasant,NA,NA,NA,NA,NA,left,1183.89999985695,true,NA,NA,NA,NA,NA,NA,NA,NA
rKCiAFGQ,3icohx7eofotocxdgkfntnxuj980e9,3wt783ctpfuhyle39bbjc0p2tdsbcw,rKCiAFGQ,2020-0188,2021-10-30,23:37:37,01:09:48,NA,incomplete,false,true,NA,NA,1,30,NA,gray,m_l_056.jpg,NA,NA,NA,NA,NA,pleasant,unpleasant,NA,NA,NA,NA,NA,right,2531.79999995232,true,NA,NA,NA,NA,NA,NA,NA,NA
rKCiAFGQ,3icohx7eofotocxdgkfntnxuj980e9,3wt783ctpfuhyle39bbjc0p2tdsbcw,rKCiAFGQ,2020-0188,2021-10-30,23:37:37,01:09:48,NA,incomplete,false,true,NA,NA,1,31,NA,gray,m_l_101.jpg,NA,NA,NA,NA,NA,unpleasant,pleasant,NA,NA,NA,NA,NA,right,1511.5,true,NA,NA,NA,NA,NA,NA,NA,NA
rKCiAFGQ,3icohx7eofotocxdgkfntnxuj980e9,3wt783ctpfuhyle39bbjc0p2tdsbcw,rKCiAFGQ,2020-0188,2021-10-30,23:37:37,01:09:48,NA,incomplete,false,true,NA,NA,1,32,NA,gray,n_l_016.jpg,NA,NA,NA,NA,NA,pleasant,unpleasant,NA,NA,NA,NA,NA,none,0,false,NA,NA,NA,NA,NA,NA,NA,NA
rKCiAFGQ,3icohx7eofotocxdgkfntnxuj980e9,3wt783ctpfuhyle39bbjc0p2tdsbcw,rKCiAFGQ,2020-0188,2021-10-30,23:37:37,01:09:48,NA,incomplete,false,true,NA,NA,1,33,NA,gray,n_l_049.jpg,NA,NA,NA,NA,NA,unpleasant,pleasant,NA,NA,NA,NA,NA,right,2320.29999995232,true,NA,NA,NA,NA,NA,NA,NA,NA
rKCiAFGQ,3icohx7eofotocxdgkfntnxuj980e9,3wt783ctpfuhyle39bbjc0p2tdsbcw,rKCiAFGQ,2020-0188,2021-10-30,23:37:37,01:09:48,NA,incomplete,false,true,NA,NA,1,34,NA,gray,n_s_091.jpg,NA,NA,NA,NA,NA,pleasant,unpleasant,NA,NA,NA,NA,NA,right,1621.20000004768,true,NA,NA,NA,NA,NA,NA,NA,NA
rKCiAFGQ,3icohx7eofotocxdgkfntnxuj980e9,3wt783ctpfuhyle39bbjc0p2tdsbcw,rKCiAFGQ,2020-0188,2021-10-30,23:37:37,01:09:48,NA,incomplete,false,true,NA,NA,1,35,NA,gray,n_l_079.jpg,NA,NA,NA,NA,NA,pleasant,unpleasant,NA,NA,NA,NA,NA,left,1153.20000004768,true,NA,NA,NA,NA,NA,NA,NA,NA
rKCiAFGQ,3icohx7eofotocxdgkfntnxuj980e9,3wt783ctpfuhyle39bbjc0p2tdsbcw,rKCiAFGQ,2020-0188,2021-10-30,23:37:37,01:09:48,NA,incomplete,false,NA,NA,true,1,0,NA,NA,NA,left,m_l_076.jpg,red,blue,NA,NA,NA,NA,NA,NA,NA,NA,NA,NaN,NA,3819.2000000476837,right,0,NA,NA,NA,NA,NA
rKCiAFGQ,3icohx7eofotocxdgkfntnxuj980e9,3wt783ctpfuhyle39bbjc0p2tdsbcw,rKCiAFGQ,2020-0188,2021-10-30,23:37:37,01:09:48,NA,incomplete,false,NA,NA,true,1,1,NA,NA,NA,left,n_l_095.jpg,red,blue,NA,NA,NA,NA,NA,NA,NA,NA,NA,NaN,NA,2213.5999999046326,left,1,NA,NA,NA,NA,NA
rKCiAFGQ,3icohx7eofotocxdgkfntnxuj980e9,3wt783ctpfuhyle39bbjc0p2tdsbcw,rKCiAFGQ,2020-0188,2021-10-30,23:37:37,01:09:48,NA,incomplete,false,NA,NA,true,1,2,NA,NA,NA,left,n_l_016.jpg,gray,red,NA,NA,NA,NA,NA,NA,NA,NA,NA,NaN,NA,2849.399999856949,left,1,NA,NA,NA,NA,NA
rKCiAFGQ,3icohx7eofotocxdgkfntnxuj980e9,3wt783ctpfuhyle39bbjc0p2tdsbcw,rKCiAFGQ,2020-0188,2021-10-30,23:37:37,01:09:48,NA,incomplete,false,NA,NA,true,1,3,NA,NA,NA,left,n_s_089.jpg,purple,orange,NA,NA,NA,NA,NA,NA,NA,NA,NA,NaN,NA,1799.8000001907349,left,1,NA,NA,NA,NA,NA
rKCiAFGQ,3icohx7eofotocxdgkfntnxuj980e9,3wt783ctpfuhyle39bbjc0p2tdsbcw,rKCiAFGQ,2020-0188,2021-10-30,23:37:37,01:09:48,NA,incomplete,false,NA,NA,true,1,4,NA,NA,NA,left,m_l_054.jpg,white,purple,NA,NA,NA,NA,NA,NA,NA,NA,NA,NaN,NA,4563.5,right,0,NA,NA,NA,NA,NA
rKCiAFGQ,3icohx7eofotocxdgkfntnxuj980e9,3wt783ctpfuhyle39bbjc0p2tdsbcw,rKCiAFGQ,2020-0188,2021-10-30,23:37:37,01:09:48,NA,incomplete,false,NA,NA,true,1,5,NA,NA,NA,right,n_l_002.jpg,blue,orange,NA,NA,NA,NA,NA,NA,NA,NA,NA,NaN,NA,2808.600000143051,right,1,NA,NA,NA,NA,NA
rKCiAFGQ,3icohx7eofotocxdgkfntnxuj980e9,3wt783ctpfuhyle39bbjc0p2tdsbcw,rKCiAFGQ,2020-0188,2021-10-30,23:37:37,01:09:48,NA,incomplete,false,NA,NA,true,1,6,NA,NA,NA,right,m_l_071.jpg,white,purple,NA,NA,NA,NA,NA,NA,NA,NA,NA,NaN,NA,2237.7000000476837,right,1,NA,NA,NA,NA,NA
rKCiAFGQ,3icohx7eofotocxdgkfntnxuj980e9,3wt783ctpfuhyle39bbjc0p2tdsbcw,rKCiAFGQ,2020-0188,2021-10-30,23:37:37,01:09:48,NA,incomplete,false,NA,NA,true,1,7,NA,NA,NA,right,n_s_108.jpg,blue,orange,NA,NA,NA,NA,NA,NA,NA,NA,NA,NaN,NA,4233,right,1,NA,NA,NA,NA,NA
rKCiAFGQ,3icohx7eofotocxdgkfntnxuj980e9,3wt783ctpfuhyle39bbjc0p2tdsbcw,rKCiAFGQ,2020-0188,2021-10-30,23:37:37,01:09:48,NA,incomplete,false,NA,NA,true,1,8,NA,NA,NA,right,n_l_079.jpg,red,gray,NA,NA,NA,NA,NA,NA,NA,NA,NA,NaN,NA,3267,right,1,NA,NA,NA,NA,NA
rKCiAFGQ,3icohx7eofotocxdgkfntnxuj980e9,3wt783ctpfuhyle39bbjc0p2tdsbcw,rKCiAFGQ,2020-0188,2021-10-30,23:37:37,01:09:48,NA,incomplete,false,NA,NA,true,1,9,NA,NA,NA,right,n_l_046.jpg,purple,orange,NA,NA,NA,NA,NA,NA,NA,NA,NA,NaN,NA,2745.5,left,0,NA,NA,NA,NA,NA
rKCiAFGQ,3icohx7eofotocxdgkfntnxuj980e9,3wt783ctpfuhyle39bbjc0p2tdsbcw,rKCiAFGQ,2020-0188,2021-10-30,23:37:37,01:09:48,NA,incomplete,false,NA,NA,true,1,10,NA,NA,NA,right,m_s_033.jpg,orange,purple,NA,NA,NA,NA,NA,NA,NA,NA,NA,NaN,NA,2217.4000000953674,right,1,NA,NA,NA,NA,NA
rKCiAFGQ,3icohx7eofotocxdgkfntnxuj980e9,3wt783ctpfuhyle39bbjc0p2tdsbcw,rKCiAFGQ,2020-0188,2021-10-30,23:37:37,01:09:48,NA,incomplete,false,NA,NA,true,1,11,NA,NA,NA,right,m_s_019.jpg,blue,red,NA,NA,NA,NA,NA,NA,NA,NA,NA,NaN,NA,2040.7000000476837,left,0,NA,NA,NA,NA,NA
rKCiAFGQ,3icohx7eofotocxdgkfntnxuj980e9,3wt783ctpfuhyle39bbjc0p2tdsbcw,rKCiAFGQ,2020-0188,2021-10-30,23:37:37,01:09:48,NA,incomplete,false,NA,NA,true,1,12,NA,NA,NA,left,m_s_006.jpg,orange,blue,NA,NA,NA,NA,NA,NA,NA,NA,NA,NaN,NA,2313.800000190735,left,1,NA,NA,NA,NA,NA
rKCiAFGQ,3icohx7eofotocxdgkfntnxuj980e9,3wt783ctpfuhyle39bbjc0p2tdsbcw,rKCiAFGQ,2020-0188,2021-10-30,23:37:37,01:09:48,NA,incomplete,false,NA,NA,true,1,13,NA,NA,NA,left,n_s_057.jpg,white,purple,NA,NA,NA,NA,NA,NA,NA,NA,NA,NaN,NA,1780.0999999046326,right,0,NA,NA,NA,NA,NA
rKCiAFGQ,3icohx7eofotocxdgkfntnxuj980e9,3wt783ctpfuhyle39bbjc0p2tdsbcw,rKCiAFGQ,2020-0188,2021-10-30,23:37:37,01:09:48,NA,incomplete,false,NA,NA,true,1,14,NA,NA,NA,right,m_l_087.jpg,blue,red,NA,NA,NA,NA,NA,NA,NA,NA,NA,NaN,NA,2811.0999999046326,left,0,NA,NA,NA,NA,NA
rKCiAFGQ,3icohx7eofotocxdgkfntnxuj980e9,3wt783ctpfuhyle39bbjc0p2tdsbcw,rKCiAFGQ,2020-0188,2021-10-30,23:37:37,01:09:48,NA,incomplete,false,NA,NA,true,1,15,NA,NA,NA,right,m_s_015.jpg,purple,white,NA,NA,NA,NA,NA,NA,NA,NA,NA,NaN,NA,3154.899999856949,left,0,NA,NA,NA,NA,NA
rKCiAFGQ,3icohx7eofotocxdgkfntnxuj980e9,3wt783ctpfuhyle39bbjc0p2tdsbcw,rKCiAFGQ,2020-0188,2021-10-30,23:37:37,01:09:48,NA,incomplete,false,NA,NA,true,1,16,NA,NA,NA,right,n_l_091.jpg,red,blue,NA,NA,NA,NA,NA,NA,NA,NA,NA,NaN,NA,1991.4000000953674,right,1,NA,NA,NA,NA,NA
rKCiAFGQ,3icohx7eofotocxdgkfntnxuj980e9,3wt783ctpfuhyle39bbjc0p2tdsbcw,rKCiAFGQ,2020-0188,2021-10-30,23:37:37,01:09:48,NA,incomplete,false,NA,NA,true,1,17,NA,NA,NA,right,n_l_075.jpg,orange,blue,NA,NA,NA,NA,NA,NA,NA,NA,NA,NaN,NA,2107.2000000476837,right,1,NA,NA,NA,NA,NA
rKCiAFGQ,3icohx7eofotocxdgkfntnxuj980e9,3wt783ctpfuhyle39bbjc0p2tdsbcw,rKCiAFGQ,2020-0188,2021-10-30,23:37:37,01:09:48,NA,incomplete,false,NA,NA,true,1,18,NA,NA,NA,right,m_l_101.jpg,red,gray,NA,NA,NA,NA,NA,NA,NA,NA,NA,NaN,NA,1990,right,1,NA,NA,NA,NA,NA
rKCiAFGQ,3icohx7eofotocxdgkfntnxuj980e9,3wt783ctpfuhyle39bbjc0p2tdsbcw,rKCiAFGQ,2020-0188,2021-10-30,23:37:37,01:09:48,NA,incomplete,false,NA,NA,true,1,19,NA,NA,NA,left,m_s_009.jpg,purple,white,NA,NA,NA,NA,NA,NA,NA,NA,NA,NaN,NA,2296.7000000476837,left,1,NA,NA,NA,NA,NA
rKCiAFGQ,3icohx7eofotocxdgkfntnxuj980e9,3wt783ctpfuhyle39bbjc0p2tdsbcw,rKCiAFGQ,2020-0188,2021-10-30,23:37:37,01:09:48,NA,incomplete,false,NA,NA,true,1,20,NA,NA,NA,right,m_s_092.jpg,red,blue,NA,NA,NA,NA,NA,NA,NA,NA,NA,NaN,NA,1742.5,right,1,NA,NA,NA,NA,NA
rKCiAFGQ,3icohx7eofotocxdgkfntnxuj980e9,3wt783ctpfuhyle39bbjc0p2tdsbcw,rKCiAFGQ,2020-0188,2021-10-30,23:37:37,01:09:48,NA,incomplete,false,NA,NA,true,1,21,NA,NA,NA,left,m_s_081.jpg,blue,orange,NA,NA,NA,NA,NA,NA,NA,NA,NA,NaN,NA,3206.800000190735,left,1,NA,NA,NA,NA,NA
rKCiAFGQ,3icohx7eofotocxdgkfntnxuj980e9,3wt783ctpfuhyle39bbjc0p2tdsbcw,rKCiAFGQ,2020-0188,2021-10-30,23:37:37,01:09:48,NA,incomplete,false,NA,true,NA,1,0,NA,NA,NA,left,NA,NA,NA,absent,NA,NA,m_l_101.jpg,gray,n_l_079.jpg,gray,within,NA,NaN,NA,NA,NA,NA,left,4195.700000047684,1,1,3564.7000000476837
rKCiAFGQ,3icohx7eofotocxdgkfntnxuj980e9,3wt783ctpfuhyle39bbjc0p2tdsbcw,rKCiAFGQ,2020-0188,2021-10-30,23:37:37,01:09:48,NA,incomplete,false,NA,true,NA,1,1,NA,NA,NA,right,NA,NA,NA,absent,NA,NA,n_s_108.jpg,orange,m_s_009.jpg,purple,between,NA,NaN,NA,NA,NA,NA,right,4699,1,0,1778.2999999523163
rKCiAFGQ,3icohx7eofotocxdgkfntnxuj980e9,3wt783ctpfuhyle39bbjc0p2tdsbcw,rKCiAFGQ,2020-0188,2021-10-30,23:37:37,01:09:48,NA,incomplete,false,NA,true,NA,1,2,NA,NA,NA,left,NA,NA,NA,absent,NA,NA,m_s_006.jpg,orange,n_l_091.jpg,blue,between,NA,NaN,NA,NA,NA,NA,left,7643.299999952316,1,2,2874.9000000953674
rKCiAFGQ,3icohx7eofotocxdgkfntnxuj980e9,3wt783ctpfuhyle39bbjc0p2tdsbcw,rKCiAFGQ,2020-0188,2021-10-30,23:37:37,01:09:48,NA,incomplete,false,NA,true,NA,1,3,NA,NA,NA,right,NA,NA,NA,absent,NA,NA,m_s_033.jpg,purple,n_s_089.jpg,purple,within,NA,NaN,NA,NA,NA,NA,right,6274.700000047684,1,0,1974.3999998569489
rKCiAFGQ,3icohx7eofotocxdgkfntnxuj980e9,3wt783ctpfuhyle39bbjc0p2tdsbcw,rKCiAFGQ,2020-0188,2021-10-30,23:37:37,01:09:48,NA,incomplete,false,NA,true,NA,1,4,NA,NA,NA,left,NA,NA,NA,absent,NA,NA,n_s_057.jpg,white,m_s_015.jpg,white,within,NA,NaN,NA,NA,NA,NA,left,2707.2000000476837,1,2,1589.2999999523163
rKCiAFGQ,3icohx7eofotocxdgkfntnxuj980e9,3wt783ctpfuhyle39bbjc0p2tdsbcw,rKCiAFGQ,2020-0188,2021-10-30,23:37:37,01:09:48,NA,incomplete,false,NA,true,NA,1,5,NA,NA,NA,right,NA,NA,NA,absent,NA,NA,n_l_002.jpg,orange,n_l_046.jpg,orange,within,NA,NaN,NA,NA,NA,NA,left,6427.099999904633,0,2,1179.2000000476837
rKCiAFGQ,3icohx7eofotocxdgkfntnxuj980e9,3wt783ctpfuhyle39bbjc0p2tdsbcw,rKCiAFGQ,2020-0188,2021-10-30,23:37:37,01:09:48,NA,incomplete,false,NA,true,NA,1,6,NA,NA,NA,left,NA,NA,NA,absent,NA,NA,m_s_081.jpg,blue,m_l_076.jpg,red,between,NA,NaN,NA,NA,NA,NA,right,4922.599999904633,0,3,1351.4000000953674
rKCiAFGQ,3icohx7eofotocxdgkfntnxuj980e9,3wt783ctpfuhyle39bbjc0p2tdsbcw,rKCiAFGQ,2020-0188,2021-10-30,23:37:37,01:09:48,NA,incomplete,false,NA,true,NA,1,7,NA,NA,NA,right,NA,NA,NA,absent,NA,NA,n_l_075.jpg,blue,m_s_092.jpg,blue,within,NA,NaN,NA,NA,NA,NA,left,6216.799999952316,0,2,2200.9000000953674
rKCiAFGQ,3icohx7eofotocxdgkfntnxuj980e9,3wt783ctpfuhyle39bbjc0p2tdsbcw,rKCiAFGQ,2020-0188,2021-10-30,23:37:37,01:09:48,NA,incomplete,false,NA,true,NA,1,8,NA,NA,NA,left,NA,NA,NA,absent,NA,NA,n_l_095.jpg,red,n_l_016.jpg,gray,between,NA,NaN,NA,NA,NA,NA,left,7865.100000143051,1,2,1616.4000000953674
rKCiAFGQ,3icohx7eofotocxdgkfntnxuj980e9,3wt783ctpfuhyle39bbjc0p2tdsbcw,rKCiAFGQ,2020-0188,2021-10-30,23:37:37,01:09:48,NA,incomplete,false,NA,true,NA,1,9,NA,NA,NA,right,NA,NA,NA,absent,NA,NA,m_s_019.jpg,red,m_l_087.jpg,red,within,NA,NaN,NA,NA,NA,NA,right,3772.2999999523163,1,2,1791.2000000476837
rKCiAFGQ,3icohx7eofotocxdgkfntnxuj980e9,3wt783ctpfuhyle39bbjc0p2tdsbcw,rKCiAFGQ,2020-0188,2021-10-30,23:37:37,01:09:48,NA,incomplete,false,NA,true,NA,1,10,NA,NA,NA,left,NA,NA,NA,absent,NA,NA,m_l_054.jpg,white,m_l_071.jpg,purple,between,NA,NaN,NA,NA,NA,NA,right,3284.9000000953674,0,1,1796.8999998569489
rKCiAFGQ,3icohx7eofotocxdgkfntnxuj980e9,3wt783ctpfuhyle39bbjc0p2tdsbcw,rKCiAFGQ,2020-0188,2021-10-30,23:37:37,01:09:48,NA,incomplete,false,true,NA,NA,2,0,NA,purple,m_l_052.jpg,NA,NA,NA,NA,NA,unpleasant,pleasant,NA,NA,NA,NA,NA,none,0,false,NA,NA,NA,NA,NA,NA,NA,NA
rKCiAFGQ,3icohx7eofotocxdgkfntnxuj980e9,3wt783ctpfuhyle39bbjc0p2tdsbcw,rKCiAFGQ,2020-0188,2021-10-30,23:37:37,01:09:48,NA,incomplete,false,true,NA,NA,2,1,NA,purple,n_s_101.jpg,NA,NA,NA,NA,NA,pleasant,unpleasant,NA,NA,NA,NA,NA,right,885.099999904633,true,NA,NA,NA,NA,NA,NA,NA,NA
rKCiAFGQ,3icohx7eofotocxdgkfntnxuj980e9,3wt783ctpfuhyle39bbjc0p2tdsbcw,rKCiAFGQ,2020-0188,2021-10-30,23:37:37,01:09:48,NA,incomplete,false,true,NA,NA,2,2,NA,purple,n_l_040.jpg,NA,NA,NA,NA,NA,unpleasant,pleasant,NA,NA,NA,NA,NA,right,1994.39999985695,true,NA,NA,NA,NA,NA,NA,NA,NA
rKCiAFGQ,3icohx7eofotocxdgkfntnxuj980e9,3wt783ctpfuhyle39bbjc0p2tdsbcw,rKCiAFGQ,2020-0188,2021-10-30,23:37:37,01:09:48,NA,incomplete,false,true,NA,NA,2,3,NA,purple,m_s_017.jpg,NA,NA,NA,NA,NA,unpleasant,pleasant,NA,NA,NA,NA,NA,right,1734.59999990463,true,NA,NA,NA,NA,NA,NA,NA,NA
rKCiAFGQ,3icohx7eofotocxdgkfntnxuj980e9,3wt783ctpfuhyle39bbjc0p2tdsbcw,rKCiAFGQ,2020-0188,2021-10-30,23:37:37,01:09:48,NA,incomplete,false,true,NA,NA,2,4,NA,purple,m_l_015.jpg,NA,NA,NA,NA,NA,pleasant,unpleasant,NA,NA,NA,NA,NA,left,1721.69999980927,true,NA,NA,NA,NA,NA,NA,NA,NA
rKCiAFGQ,3icohx7eofotocxdgkfntnxuj980e9,3wt783ctpfuhyle39bbjc0p2tdsbcw,rKCiAFGQ,2020-0188,2021-10-30,23:37:37,01:09:48,NA,incomplete,false,true,NA,NA,2,5,NA,purple,m_s_097.jpg,NA,NA,NA,NA,NA,unpleasant,pleasant,NA,NA,NA,NA,NA,right,1862.10000014305,true,NA,NA,NA,NA,NA,NA,NA,NA
rKCiAFGQ,3icohx7eofotocxdgkfntnxuj980e9,3wt783ctpfuhyle39bbjc0p2tdsbcw,rKCiAFGQ,2020-0188,2021-10-30,23:37:37,01:09:48,NA,incomplete,false,true,NA,NA,2,6,NA,white,m_s_026.jpg,NA,NA,NA,NA,NA,unpleasant,pleasant,NA,NA,NA,NA,NA,left,1658.29999995232,true,NA,NA,NA,NA,NA,NA,NA,NA
rKCiAFGQ,3icohx7eofotocxdgkfntnxuj980e9,3wt783ctpfuhyle39bbjc0p2tdsbcw,rKCiAFGQ,2020-0188,2021-10-30,23:37:37,01:09:48,NA,incomplete,false,true,NA,NA,2,7,NA,white,n_l_056.jpg,NA,NA,NA,NA,NA,unpleasant,pleasant,NA,NA,NA,NA,NA,right,1279,true,NA,NA,NA,NA,NA,NA,NA,NA
rKCiAFGQ,3icohx7eofotocxdgkfntnxuj980e9,3wt783ctpfuhyle39bbjc0p2tdsbcw,rKCiAFGQ,2020-0188,2021-10-30,23:37:37,01:09:48,NA,incomplete,false,true,NA,NA,2,8,NA,white,n_l_027.jpg,NA,NA,NA,NA,NA,unpleasant,pleasant,NA,NA,NA,NA,NA,right,1259.90000009537,true,NA,NA,NA,NA,NA,NA,NA,NA
rKCiAFGQ,3icohx7eofotocxdgkfntnxuj980e9,3wt783ctpfuhyle39bbjc0p2tdsbcw,rKCiAFGQ,2020-0188,2021-10-30,23:37:37,01:09:48,NA,incomplete,false,true,NA,NA,2,9,NA,white,n_l_089.jpg,NA,NA,NA,NA,NA,unpleasant,pleasant,NA,NA,NA,NA,NA,right,1552.70000004768,true,NA,NA,NA,NA,NA,NA,NA,NA
rKCiAFGQ,3icohx7eofotocxdgkfntnxuj980e9,3wt783ctpfuhyle39bbjc0p2tdsbcw,rKCiAFGQ,2020-0188,2021-10-30,23:37:37,01:09:48,NA,incomplete,false,true,NA,NA,2,10,NA,white,n_l_068.jpg,NA,NA,NA,NA,NA,unpleasant,pleasant,NA,NA,NA,NA,NA,left,1660.59999990463,true,NA,NA,NA,NA,NA,NA,NA,NA
rKCiAFGQ,3icohx7eofotocxdgkfntnxuj980e9,3wt783ctpfuhyle39bbjc0p2tdsbcw,rKCiAFGQ,2020-0188,2021-10-30,23:37:37,01:09:48,NA,incomplete,false,true,NA,NA,2,11,NA,white,m_l_072.jpg,NA,NA,NA,NA,NA,unpleasant,pleasant,NA,NA,NA,NA,NA,right,1449.90000009537,true,NA,NA,NA,NA,NA,NA,NA,NA
rKCiAFGQ,3icohx7eofotocxdgkfntnxuj980e9,3wt783ctpfuhyle39bbjc0p2tdsbcw,rKCiAFGQ,2020-0188,2021-10-30,23:37:37,01:09:48,NA,incomplete,false,true,NA,NA,2,12,NA,blue,m_s_083.jpg,NA,NA,NA,NA,NA,pleasant,unpleasant,NA,NA,NA,NA,NA,left,1309.40000009537,true,NA,NA,NA,NA,NA,NA,NA,NA
rKCiAFGQ,3icohx7eofotocxdgkfntnxuj980e9,3wt783ctpfuhyle39bbjc0p2tdsbcw,rKCiAFGQ,2020-0188,2021-10-30,23:37:37,01:09:48,NA,incomplete,false,true,NA,NA,2,13,NA,blue,n_l_105.jpg,NA,NA,NA,NA,NA,pleasant,unpleasant,NA,NA,NA,NA,NA,left,1210.5,true,NA,NA,NA,NA,NA,NA,NA,NA
rKCiAFGQ,3icohx7eofotocxdgkfntnxuj980e9,3wt783ctpfuhyle39bbjc0p2tdsbcw,rKCiAFGQ,2020-0188,2021-10-30,23:37:37,01:09:48,NA,incomplete,false,true,NA,NA,2,14,NA,blue,m_l_032.jpg,NA,NA,NA,NA,NA,pleasant,unpleasant,NA,NA,NA,NA,NA,left,1247.5,true,NA,NA,NA,NA,NA,NA,NA,NA
rKCiAFGQ,3icohx7eofotocxdgkfntnxuj980e9,3wt783ctpfuhyle39bbjc0p2tdsbcw,rKCiAFGQ,2020-0188,2021-10-30,23:37:37,01:09:48,NA,incomplete,false,true,NA,NA,2,15,NA,blue,n_l_026.jpg,NA,NA,NA,NA,NA,pleasant,unpleasant,NA,NA,NA,NA,NA,left,1370.19999980927,true,NA,NA,NA,NA,NA,NA,NA,NA
rKCiAFGQ,3icohx7eofotocxdgkfntnxuj980e9,3wt783ctpfuhyle39bbjc0p2tdsbcw,rKCiAFGQ,2020-0188,2021-10-30,23:37:37,01:09:48,NA,incomplete,false,true,NA,NA,2,16,NA,blue,m_l_046.jpg,NA,NA,NA,NA,NA,unpleasant,pleasant,NA,NA,NA,NA,NA,right,1502.70000004768,true,NA,NA,NA,NA,NA,NA,NA,NA
rKCiAFGQ,3icohx7eofotocxdgkfntnxuj980e9,3wt783ctpfuhyle39bbjc0p2tdsbcw,rKCiAFGQ,2020-0188,2021-10-30,23:37:37,01:09:48,NA,incomplete,false,true,NA,NA,2,17,NA,blue,n_s_047.jpg,NA,NA,NA,NA,NA,pleasant,unpleasant,NA,NA,NA,NA,NA,left,1380.20000004768,true,NA,NA,NA,NA,NA,NA,NA,NA
rKCiAFGQ,3icohx7eofotocxdgkfntnxuj980e9,3wt783ctpfuhyle39bbjc0p2tdsbcw,rKCiAFGQ,2020-0188,2021-10-30,23:37:37,01:09:48,NA,incomplete,false,true,NA,NA,2,18,NA,orange,n_s_097.jpg,NA,NA,NA,NA,NA,unpleasant,pleasant,NA,NA,NA,NA,NA,right,1168.5,true,NA,NA,NA,NA,NA,NA,NA,NA
rKCiAFGQ,3icohx7eofotocxdgkfntnxuj980e9,3wt783ctpfuhyle39bbjc0p2tdsbcw,rKCiAFGQ,2020-0188,2021-10-30,23:37:37,01:09:48,NA,incomplete,false,true,NA,NA,2,19,NA,orange,m_s_082.jpg,NA,NA,NA,NA,NA,unpleasant,pleasant,NA,NA,NA,NA,NA,right,1148.20000004768,true,NA,NA,NA,NA,NA,NA,NA,NA
rKCiAFGQ,3icohx7eofotocxdgkfntnxuj980e9,3wt783ctpfuhyle39bbjc0p2tdsbcw,rKCiAFGQ,2020-0188,2021-10-30,23:37:37,01:09:48,NA,incomplete,false,true,NA,NA,2,20,NA,orange,m_l_064.jpg,NA,NA,NA,NA,NA,pleasant,unpleasant,NA,NA,NA,NA,NA,left,1386.29999995232,true,NA,NA,NA,NA,NA,NA,NA,NA
rKCiAFGQ,3icohx7eofotocxdgkfntnxuj980e9,3wt783ctpfuhyle39bbjc0p2tdsbcw,rKCiAFGQ,2020-0188,2021-10-30,23:37:37,01:09:48,NA,incomplete,false,true,NA,NA,2,21,NA,orange,m_s_045.jpg,NA,NA,NA,NA,NA,pleasant,unpleasant,NA,NA,NA,NA,NA,left,1269.60000014305,true,NA,NA,NA,NA,NA,NA,NA,NA
rKCiAFGQ,3icohx7eofotocxdgkfntnxuj980e9,3wt783ctpfuhyle39bbjc0p2tdsbcw,rKCiAFGQ,2020-0188,2021-10-30,23:37:37,01:09:48,NA,incomplete,false,true,NA,NA,2,22,NA,orange,n_s_084.jpg,NA,NA,NA,NA,NA,pleasant,unpleasant,NA,NA,NA,NA,NA,right,1041,true,NA,NA,NA,NA,NA,NA,NA,NA
rKCiAFGQ,3icohx7eofotocxdgkfntnxuj980e9,3wt783ctpfuhyle39bbjc0p2tdsbcw,rKCiAFGQ,2020-0188,2021-10-30,23:37:37,01:09:48,NA,incomplete,false,true,NA,NA,2,23,NA,orange,m_l_037.jpg,NA,NA,NA,NA,NA,unpleasant,pleasant,NA,NA,NA,NA,NA,right,1125.5,true,NA,NA,NA,NA,NA,NA,NA,NA
rKCiAFGQ,3icohx7eofotocxdgkfntnxuj980e9,3wt783ctpfuhyle39bbjc0p2tdsbcw,rKCiAFGQ,2020-0188,2021-10-30,23:37:37,01:09:48,NA,incomplete,false,true,NA,NA,2,24,NA,brown,n_s_001.jpg,NA,NA,NA,NA,NA,unpleasant,pleasant,NA,NA,NA,NA,NA,right,1450.30000019073,true,NA,NA,NA,NA,NA,NA,NA,NA
rKCiAFGQ,3icohx7eofotocxdgkfntnxuj980e9,3wt783ctpfuhyle39bbjc0p2tdsbcw,rKCiAFGQ,2020-0188,2021-10-30,23:37:37,01:09:48,NA,incomplete,false,true,NA,NA,2,25,NA,brown,n_l_041.jpg,NA,NA,NA,NA,NA,pleasant,unpleasant,NA,NA,NA,NA,NA,left,1182.40000009537,true,NA,NA,NA,NA,NA,NA,NA,NA
rKCiAFGQ,3icohx7eofotocxdgkfntnxuj980e9,3wt783ctpfuhyle39bbjc0p2tdsbcw,rKCiAFGQ,2020-0188,2021-10-30,23:37:37,01:09:48,NA,incomplete,false,true,NA,NA,2,26,NA,brown,m_s_096.jpg,NA,NA,NA,NA,NA,unpleasant,pleasant,NA,NA,NA,NA,NA,right,1211.5,true,NA,NA,NA,NA,NA,NA,NA,NA
rKCiAFGQ,3icohx7eofotocxdgkfntnxuj980e9,3wt783ctpfuhyle39bbjc0p2tdsbcw,rKCiAFGQ,2020-0188,2021-10-30,23:37:37,01:09:48,NA,incomplete,false,true,NA,NA,2,27,NA,brown,m_s_034.jpg,NA,NA,NA,NA,NA,pleasant,unpleasant,NA,NA,NA,NA,NA,left,1063.5,true,NA,NA,NA,NA,NA,NA,NA,NA
rKCiAFGQ,3icohx7eofotocxdgkfntnxuj980e9,3wt783ctpfuhyle39bbjc0p2tdsbcw,rKCiAFGQ,2020-0188,2021-10-30,23:37:37,01:09:48,NA,incomplete,false,true,NA,NA,2,28,NA,brown,m_s_038.jpg,NA,NA,NA,NA,NA,unpleasant,pleasant,NA,NA,NA,NA,NA,right,1620.29999995232,true,NA,NA,NA,NA,NA,NA,NA,NA
rKCiAFGQ,3icohx7eofotocxdgkfntnxuj980e9,3wt783ctpfuhyle39bbjc0p2tdsbcw,rKCiAFGQ,2020-0188,2021-10-30,23:37:37,01:09:48,NA,incomplete,false,true,NA,NA,2,29,NA,brown,n_s_056.jpg,NA,NA,NA,NA,NA,pleasant,unpleasant,NA,NA,NA,NA,NA,left,3047.90000009537,true,NA,NA,NA,NA,NA,NA,NA,NA
rKCiAFGQ,3icohx7eofotocxdgkfntnxuj980e9,3wt783ctpfuhyle39bbjc0p2tdsbcw,rKCiAFGQ,2020-0188,2021-10-30,23:37:37,01:09:48,NA,incomplete,false,true,NA,NA,2,30,NA,black,n_s_024.jpg,NA,NA,NA,NA,NA,pleasant,unpleasant,NA,NA,NA,NA,NA,left,1197,true,NA,NA,NA,NA,NA,NA,NA,NA
rKCiAFGQ,3icohx7eofotocxdgkfntnxuj980e9,3wt783ctpfuhyle39bbjc0p2tdsbcw,rKCiAFGQ,2020-0188,2021-10-30,23:37:37,01:09:48,NA,incomplete,false,true,NA,NA,2,31,NA,black,m_s_054.jpg,NA,NA,NA,NA,NA,unpleasant,pleasant,NA,NA,NA,NA,NA,right,1050.29999995232,true,NA,NA,NA,NA,NA,NA,NA,NA
rKCiAFGQ,3icohx7eofotocxdgkfntnxuj980e9,3wt783ctpfuhyle39bbjc0p2tdsbcw,rKCiAFGQ,2020-0188,2021-10-30,23:37:37,01:09:48,NA,incomplete,false,true,NA,NA,2,32,NA,black,n_s_019.jpg,NA,NA,NA,NA,NA,unpleasant,pleasant,NA,NA,NA,NA,NA,right,1015.5,true,NA,NA,NA,NA,NA,NA,NA,NA
rKCiAFGQ,3icohx7eofotocxdgkfntnxuj980e9,3wt783ctpfuhyle39bbjc0p2tdsbcw,rKCiAFGQ,2020-0188,2021-10-30,23:37:37,01:09:48,NA,incomplete,false,true,NA,NA,2,33,NA,black,m_l_003.jpg,NA,NA,NA,NA,NA,unpleasant,pleasant,NA,NA,NA,NA,NA,right,1347.59999990463,true,NA,NA,NA,NA,NA,NA,NA,NA
rKCiAFGQ,3icohx7eofotocxdgkfntnxuj980e9,3wt783ctpfuhyle39bbjc0p2tdsbcw,rKCiAFGQ,2020-0188,2021-10-30,23:37:37,01:09:48,NA,incomplete,false,true,NA,NA,2,34,NA,black,n_s_111.jpg,NA,NA,NA,NA,NA,unpleasant,pleasant,NA,NA,NA,NA,NA,right,1295.59999990463,true,NA,NA,NA,NA,NA,NA,NA,NA
rKCiAFGQ,3icohx7eofotocxdgkfntnxuj980e9,3wt783ctpfuhyle39bbjc0p2tdsbcw,rKCiAFGQ,2020-0188,2021-10-30,23:37:37,01:09:48,NA,incomplete,false,true,NA,NA,2,35,NA,black,m_s_065.jpg,NA,NA,NA,NA,NA,unpleasant,pleasant,NA,NA,NA,NA,NA,right,1284,true,NA,NA,NA,NA,NA,NA,NA,NA
rKCiAFGQ,3icohx7eofotocxdgkfntnxuj980e9,3wt783ctpfuhyle39bbjc0p2tdsbcw,rKCiAFGQ,2020-0188,2021-10-30,23:37:37,01:09:48,NA,incomplete,false,NA,NA,true,2,0,NA,NA,NA,left,m_s_097.jpg,purple,white,NA,NA,NA,NA,NA,NA,NA,NA,NA,NaN,NA,2174.5999999046326,left,1,NA,NA,NA,NA,NA
rKCiAFGQ,3icohx7eofotocxdgkfntnxuj980e9,3wt783ctpfuhyle39bbjc0p2tdsbcw,rKCiAFGQ,2020-0188,2021-10-30,23:37:37,01:09:48,NA,incomplete,false,NA,NA,true,2,1,NA,NA,NA,left,m_l_032.jpg,blue,orange,NA,NA,NA,NA,NA,NA,NA,NA,NA,NaN,NA,4143.5,right,0,NA,NA,NA,NA,NA
rKCiAFGQ,3icohx7eofotocxdgkfntnxuj980e9,3wt783ctpfuhyle39bbjc0p2tdsbcw,rKCiAFGQ,2020-0188,2021-10-30,23:37:37,01:09:48,NA,incomplete,false,NA,NA,true,2,2,NA,NA,NA,left,m_s_065.jpg,black,brown,NA,NA,NA,NA,NA,NA,NA,NA,NA,NaN,NA,2474.899999856949,right,0,NA,NA,NA,NA,NA
rKCiAFGQ,3icohx7eofotocxdgkfntnxuj980e9,3wt783ctpfuhyle39bbjc0p2tdsbcw,rKCiAFGQ,2020-0188,2021-10-30,23:37:37,01:09:48,NA,incomplete,false,NA,NA,true,2,3,NA,NA,NA,left,m_s_082.jpg,orange,brown,NA,NA,NA,NA,NA,NA,NA,NA,NA,NaN,NA,2021,right,0,NA,NA,NA,NA,NA
rKCiAFGQ,3icohx7eofotocxdgkfntnxuj980e9,3wt783ctpfuhyle39bbjc0p2tdsbcw,rKCiAFGQ,2020-0188,2021-10-30,23:37:37,01:09:48,NA,incomplete,false,NA,NA,true,2,4,NA,NA,NA,left,m_l_064.jpg,orange,brown,NA,NA,NA,NA,NA,NA,NA,NA,NA,NaN,NA,2252.7999999523163,left,1,NA,NA,NA,NA,NA
rKCiAFGQ,3icohx7eofotocxdgkfntnxuj980e9,3wt783ctpfuhyle39bbjc0p2tdsbcw,rKCiAFGQ,2020-0188,2021-10-30,23:37:37,01:09:48,NA,incomplete,false,NA,NA,true,2,5,NA,NA,NA,right,n_l_056.jpg,blue,white,NA,NA,NA,NA,NA,NA,NA,NA,NA,NaN,NA,2641.5999999046326,right,1,NA,NA,NA,NA,NA
rKCiAFGQ,3icohx7eofotocxdgkfntnxuj980e9,3wt783ctpfuhyle39bbjc0p2tdsbcw,rKCiAFGQ,2020-0188,2021-10-30,23:37:37,01:09:48,NA,incomplete,false,NA,NA,true,2,6,NA,NA,NA,left,m_l_037.jpg,orange,brown,NA,NA,NA,NA,NA,NA,NA,NA,NA,NaN,NA,2688.2999999523163,right,0,NA,NA,NA,NA,NA
rKCiAFGQ,3icohx7eofotocxdgkfntnxuj980e9,3wt783ctpfuhyle39bbjc0p2tdsbcw,rKCiAFGQ,2020-0188,2021-10-30,23:37:37,01:09:48,NA,incomplete,false,NA,NA,true,2,7,NA,NA,NA,right,n_l_068.jpg,purple,white,NA,NA,NA,NA,NA,NA,NA,NA,NA,NaN,NA,3478.5,right,1,NA,NA,NA,NA,NA
rKCiAFGQ,3icohx7eofotocxdgkfntnxuj980e9,3wt783ctpfuhyle39bbjc0p2tdsbcw,rKCiAFGQ,2020-0188,2021-10-30,23:37:37,01:09:48,NA,incomplete,false,NA,NA,true,2,8,NA,NA,NA,left,n_s_084.jpg,orange,brown,NA,NA,NA,NA,NA,NA,NA,NA,NA,NaN,NA,2361.2999999523163,left,1,NA,NA,NA,NA,NA
rKCiAFGQ,3icohx7eofotocxdgkfntnxuj980e9,3wt783ctpfuhyle39bbjc0p2tdsbcw,rKCiAFGQ,2020-0188,2021-10-30,23:37:37,01:09:48,NA,incomplete,false,NA,NA,true,2,9,NA,NA,NA,right,n_s_101.jpg,white,purple,NA,NA,NA,NA,NA,NA,NA,NA,NA,NaN,NA,1955.2000000476837,right,1,NA,NA,NA,NA,NA
rKCiAFGQ,3icohx7eofotocxdgkfntnxuj980e9,3wt783ctpfuhyle39bbjc0p2tdsbcw,rKCiAFGQ,2020-0188,2021-10-30,23:37:37,01:09:48,NA,incomplete,false,NA,NA,true,2,10,NA,NA,NA,left,m_s_038.jpg,brown,black,NA,NA,NA,NA,NA,NA,NA,NA,NA,NaN,NA,2012.6000001430511,left,1,NA,NA,NA,NA,NA
rKCiAFGQ,3icohx7eofotocxdgkfntnxuj980e9,3wt783ctpfuhyle39bbjc0p2tdsbcw,rKCiAFGQ,2020-0188,2021-10-30,23:37:37,01:09:48,NA,incomplete,false,NA,NA,true,2,11,NA,NA,NA,left,n_s_047.jpg,blue,orange,NA,NA,NA,NA,NA,NA,NA,NA,NA,NaN,NA,1833.1000001430511,right,0,NA,NA,NA,NA,NA
rKCiAFGQ,3icohx7eofotocxdgkfntnxuj980e9,3wt783ctpfuhyle39bbjc0p2tdsbcw,rKCiAFGQ,2020-0188,2021-10-30,23:37:37,01:09:48,NA,incomplete,false,NA,NA,true,2,12,NA,NA,NA,left,m_l_046.jpg,blue,white,NA,NA,NA,NA,NA,NA,NA,NA,NA,NaN,NA,1867,left,1,NA,NA,NA,NA,NA
rKCiAFGQ,3icohx7eofotocxdgkfntnxuj980e9,3wt783ctpfuhyle39bbjc0p2tdsbcw,rKCiAFGQ,2020-0188,2021-10-30,23:37:37,01:09:48,NA,incomplete,false,NA,NA,true,2,13,NA,NA,NA,right,n_l_105.jpg,orange,blue,NA,NA,NA,NA,NA,NA,NA,NA,NA,NaN,NA,3760.5999999046326,right,1,NA,NA,NA,NA,NA
rKCiAFGQ,3icohx7eofotocxdgkfntnxuj980e9,3wt783ctpfuhyle39bbjc0p2tdsbcw,rKCiAFGQ,2020-0188,2021-10-30,23:37:37,01:09:48,NA,incomplete,false,NA,NA,true,2,14,NA,NA,NA,right,m_s_054.jpg,brown,black,NA,NA,NA,NA,NA,NA,NA,NA,NA,NaN,NA,2530.5,right,1,NA,NA,NA,NA,NA
rKCiAFGQ,3icohx7eofotocxdgkfntnxuj980e9,3wt783ctpfuhyle39bbjc0p2tdsbcw,rKCiAFGQ,2020-0188,2021-10-30,23:37:37,01:09:48,NA,incomplete,false,NA,NA,true,2,15,NA,NA,NA,left,m_l_015.jpg,purple,white,NA,NA,NA,NA,NA,NA,NA,NA,NA,NaN,NA,2835.5,right,0,NA,NA,NA,NA,NA
rKCiAFGQ,3icohx7eofotocxdgkfntnxuj980e9,3wt783ctpfuhyle39bbjc0p2tdsbcw,rKCiAFGQ,2020-0188,2021-10-30,23:37:37,01:09:48,NA,incomplete,false,NA,NA,true,2,16,NA,NA,NA,left,n_l_027.jpg,white,purple,NA,NA,NA,NA,NA,NA,NA,NA,NA,NaN,NA,1999.7999999523163,left,1,NA,NA,NA,NA,NA
rKCiAFGQ,3icohx7eofotocxdgkfntnxuj980e9,3wt783ctpfuhyle39bbjc0p2tdsbcw,rKCiAFGQ,2020-0188,2021-10-30,23:37:37,01:09:48,NA,incomplete,false,NA,NA,true,2,17,NA,NA,NA,left,n_l_041.jpg,brown,orange,NA,NA,NA,NA,NA,NA,NA,NA,NA,NaN,NA,2302.899999856949,left,1,NA,NA,NA,NA,NA
rKCiAFGQ,3icohx7eofotocxdgkfntnxuj980e9,3wt783ctpfuhyle39bbjc0p2tdsbcw,rKCiAFGQ,2020-0188,2021-10-30,23:37:37,01:09:48,NA,incomplete,false,NA,NA,true,2,18,NA,NA,NA,left,n_s_019.jpg,black,brown,NA,NA,NA,NA,NA,NA,NA,NA,NA,NaN,NA,2132.2000000476837,left,1,NA,NA,NA,NA,NA
rKCiAFGQ,3icohx7eofotocxdgkfntnxuj980e9,3wt783ctpfuhyle39bbjc0p2tdsbcw,rKCiAFGQ,2020-0188,2021-10-30,23:37:37,01:09:48,NA,incomplete,false,NA,NA,true,2,19,NA,NA,NA,right,n_s_056.jpg,orange,brown,NA,NA,NA,NA,NA,NA,NA,NA,NA,NaN,NA,2125.7999999523163,right,1,NA,NA,NA,NA,NA
rKCiAFGQ,3icohx7eofotocxdgkfntnxuj980e9,3wt783ctpfuhyle39bbjc0p2tdsbcw,rKCiAFGQ,2020-0188,2021-10-30,23:37:37,01:09:48,NA,incomplete,false,NA,NA,true,2,20,NA,NA,NA,left,m_l_072.jpg,white,blue,NA,NA,NA,NA,NA,NA,NA,NA,NA,NaN,NA,1808.4000000953674,left,1,NA,NA,NA,NA,NA
rKCiAFGQ,3icohx7eofotocxdgkfntnxuj980e9,3wt783ctpfuhyle39bbjc0p2tdsbcw,rKCiAFGQ,2020-0188,2021-10-30,23:37:37,01:09:48,NA,incomplete,false,NA,NA,true,2,21,NA,NA,NA,right,m_s_096.jpg,orange,brown,NA,NA,NA,NA,NA,NA,NA,NA,NA,NaN,NA,1853.6000001430511,right,1,NA,NA,NA,NA,NA
rKCiAFGQ,3icohx7eofotocxdgkfntnxuj980e9,3wt783ctpfuhyle39bbjc0p2tdsbcw,rKCiAFGQ,2020-0188,2021-10-30,23:37:37,01:09:48,NA,incomplete,false,NA,true,NA,2,0,NA,NA,NA,left,NA,NA,NA,absent,NA,NA,n_l_056.jpg,white,m_l_072.jpg,white,within,NA,NaN,NA,NA,NA,NA,left,3672.7000000476837,1,1,2688.4000000953674
rKCiAFGQ,3icohx7eofotocxdgkfntnxuj980e9,3wt783ctpfuhyle39bbjc0p2tdsbcw,rKCiAFGQ,2020-0188,2021-10-30,23:37:37,01:09:48,NA,incomplete,false,NA,true,NA,2,1,NA,NA,NA,left,NA,NA,NA,absent,NA,NA,n_s_084.jpg,orange,m_s_096.jpg,brown,between,NA,NaN,NA,NA,NA,NA,right,4014.4000000953674,0,0,2719.600000143051
rKCiAFGQ,3icohx7eofotocxdgkfntnxuj980e9,3wt783ctpfuhyle39bbjc0p2tdsbcw,rKCiAFGQ,2020-0188,2021-10-30,23:37:37,01:09:48,NA,incomplete,false,NA,true,NA,2,2,NA,NA,NA,left,NA,NA,NA,absent,NA,NA,n_l_105.jpg,blue,n_s_047.jpg,blue,within,NA,NaN,NA,NA,NA,NA,left,2396.5999999046326,1,2,1531.5
rKCiAFGQ,3icohx7eofotocxdgkfntnxuj980e9,3wt783ctpfuhyle39bbjc0p2tdsbcw,rKCiAFGQ,2020-0188,2021-10-30,23:37:37,01:09:48,NA,incomplete,false,NA,true,NA,2,3,NA,NA,NA,left,NA,NA,NA,absent,NA,NA,m_l_046.jpg,blue,m_l_064.jpg,orange,between,NA,NaN,NA,NA,NA,NA,left,2903,1,1,1575.2000000476837
rKCiAFGQ,3icohx7eofotocxdgkfntnxuj980e9,3wt783ctpfuhyle39bbjc0p2tdsbcw,rKCiAFGQ,2020-0188,2021-10-30,23:37:37,01:09:48,NA,incomplete,false,NA,true,NA,2,4,NA,NA,NA,right,NA,NA,NA,absent,NA,NA,n_s_056.jpg,brown,n_l_041.jpg,brown,within,NA,NaN,NA,NA,NA,NA,right,2475.2000000476837,1,2,2155
rKCiAFGQ,3icohx7eofotocxdgkfntnxuj980e9,3wt783ctpfuhyle39bbjc0p2tdsbcw,rKCiAFGQ,2020-0188,2021-10-30,23:37:37,01:09:48,NA,incomplete,false,NA,true,NA,2,5,NA,NA,NA,left,NA,NA,NA,absent,NA,NA,m_l_015.jpg,purple,n_l_027.jpg,white,between,NA,NaN,NA,NA,NA,NA,right,4542.799999952316,0,1,1417.2999999523163
rKCiAFGQ,3icohx7eofotocxdgkfntnxuj980e9,3wt783ctpfuhyle39bbjc0p2tdsbcw,rKCiAFGQ,2020-0188,2021-10-30,23:37:37,01:09:48,NA,incomplete,false,NA,true,NA,2,6,NA,NA,NA,left,NA,NA,NA,absent,NA,NA,n_s_101.jpg,purple,m_s_097.jpg,purple,within,NA,NaN,NA,NA,NA,NA,left,3967.0999999046326,1,2,1771
rKCiAFGQ,3icohx7eofotocxdgkfntnxuj980e9,3wt783ctpfuhyle39bbjc0p2tdsbcw,rKCiAFGQ,2020-0188,2021-10-30,23:37:37,01:09:48,NA,incomplete,false,NA,true,NA,2,7,NA,NA,NA,left,NA,NA,NA,absent,NA,NA,m_s_038.jpg,brown,n_s_019.jpg,black,between,NA,NaN,NA,NA,NA,NA,right,3723.2999999523163,0,0,2263.399999856949
rKCiAFGQ,3icohx7eofotocxdgkfntnxuj980e9,3wt783ctpfuhyle39bbjc0p2tdsbcw,rKCiAFGQ,2020-0188,2021-10-30,23:37:37,01:09:48,NA,incomplete,false,NA,true,NA,2,8,NA,NA,NA,left,NA,NA,NA,absent,NA,NA,m_s_082.jpg,orange,m_l_037.jpg,orange,within,NA,NaN,NA,NA,NA,NA,left,2401,1,1,1096.8999998569489
rKCiAFGQ,3icohx7eofotocxdgkfntnxuj980e9,3wt783ctpfuhyle39bbjc0p2tdsbcw,rKCiAFGQ,2020-0188,2021-10-30,23:37:37,01:09:48,NA,incomplete,false,NA,true,NA,2,9,NA,NA,NA,right,NA,NA,NA,absent,NA,NA,m_l_032.jpg,blue,n_l_068.jpg,white,between,NA,NaN,NA,NA,NA,NA,left,2425.5,0,0,1568.2999999523163
rKCiAFGQ,3icohx7eofotocxdgkfntnxuj980e9,3wt783ctpfuhyle39bbjc0p2tdsbcw,rKCiAFGQ,2020-0188,2021-10-30,23:37:37,01:09:48,NA,incomplete,false,NA,true,NA,2,10,NA,NA,NA,right,NA,NA,NA,absent,NA,NA,m_s_065.jpg,black,m_s_054.jpg,black,within,NA,NaN,NA,NA,NA,NA,right,2973.100000143051,1,1,1758.7000000476837
rKCiAFGQ,3icohx7eofotocxdgkfntnxuj980e9,3wt783ctpfuhyle39bbjc0p2tdsbcw,rKCiAFGQ,2020-0188,2021-10-30,23:37:37,01:09:48,NA,incomplete,false,true,NA,NA,3,0,NA,green,m_s_061.jpg,NA,NA,NA,NA,NA,unpleasant,pleasant,NA,NA,NA,NA,NA,right,1352.5,true,NA,NA,NA,NA,NA,NA,NA,NA
rKCiAFGQ,3icohx7eofotocxdgkfntnxuj980e9,3wt783ctpfuhyle39bbjc0p2tdsbcw,rKCiAFGQ,2020-0188,2021-10-30,23:37:37,01:09:48,NA,incomplete,false,true,NA,NA,3,1,NA,green,m_l_070.jpg,NA,NA,NA,NA,NA,unpleasant,pleasant,NA,NA,NA,NA,NA,right,1019.59999990463,true,NA,NA,NA,NA,NA,NA,NA,NA
rKCiAFGQ,3icohx7eofotocxdgkfntnxuj980e9,3wt783ctpfuhyle39bbjc0p2tdsbcw,rKCiAFGQ,2020-0188,2021-10-30,23:37:37,01:09:48,NA,incomplete,false,true,NA,NA,3,2,NA,green,m_l_058.jpg,NA,NA,NA,NA,NA,unpleasant,pleasant,NA,NA,NA,NA,NA,right,1624.29999995232,true,NA,NA,NA,NA,NA,NA,NA,NA
rKCiAFGQ,3icohx7eofotocxdgkfntnxuj980e9,3wt783ctpfuhyle39bbjc0p2tdsbcw,rKCiAFGQ,2020-0188,2021-10-30,23:37:37,01:09:48,NA,incomplete,false,true,NA,NA,3,3,NA,green,n_s_090.jpg,NA,NA,NA,NA,NA,pleasant,unpleasant,NA,NA,NA,NA,NA,right,1780.90000009537,true,NA,NA,NA,NA,NA,NA,NA,NA
rKCiAFGQ,3icohx7eofotocxdgkfntnxuj980e9,3wt783ctpfuhyle39bbjc0p2tdsbcw,rKCiAFGQ,2020-0188,2021-10-30,23:37:37,01:09:48,NA,incomplete,false,true,NA,NA,3,4,NA,green,n_s_046.jpg,NA,NA,NA,NA,NA,pleasant,unpleasant,NA,NA,NA,NA,NA,left,1497.90000009537,true,NA,NA,NA,NA,NA,NA,NA,NA
rKCiAFGQ,3icohx7eofotocxdgkfntnxuj980e9,3wt783ctpfuhyle39bbjc0p2tdsbcw,rKCiAFGQ,2020-0188,2021-10-30,23:37:37,01:09:48,NA,incomplete,false,true,NA,NA,3,5,NA,green,m_l_002.jpg,NA,NA,NA,NA,NA,pleasant,unpleasant,NA,NA,NA,NA,NA,right,1974.39999985695,true,NA,NA,NA,NA,NA,NA,NA,NA
rKCiAFGQ,3icohx7eofotocxdgkfntnxuj980e9,3wt783ctpfuhyle39bbjc0p2tdsbcw,rKCiAFGQ,2020-0188,2021-10-30,23:37:37,01:09:48,NA,incomplete,false,true,NA,NA,3,6,NA,red,n_s_073.jpg,NA,NA,NA,NA,NA,unpleasant,pleasant,NA,NA,NA,NA,NA,right,1514.10000014305,true,NA,NA,NA,NA,NA,NA,NA,NA
rKCiAFGQ,3icohx7eofotocxdgkfntnxuj980e9,3wt783ctpfuhyle39bbjc0p2tdsbcw,rKCiAFGQ,2020-0188,2021-10-30,23:37:37,01:09:48,NA,incomplete,false,true,NA,NA,3,7,NA,red,n_l_013.jpg,NA,NA,NA,NA,NA,pleasant,unpleasant,NA,NA,NA,NA,NA,left,1301.29999995232,true,NA,NA,NA,NA,NA,NA,NA,NA
rKCiAFGQ,3icohx7eofotocxdgkfntnxuj980e9,3wt783ctpfuhyle39bbjc0p2tdsbcw,rKCiAFGQ,2020-0188,2021-10-30,23:37:37,01:09:48,NA,incomplete,false,true,NA,NA,3,8,NA,red,n_l_007.jpg,NA,NA,NA,NA,NA,unpleasant,pleasant,NA,NA,NA,NA,NA,left,1962.5,true,NA,NA,NA,NA,NA,NA,NA,NA
rKCiAFGQ,3icohx7eofotocxdgkfntnxuj980e9,3wt783ctpfuhyle39bbjc0p2tdsbcw,rKCiAFGQ,2020-0188,2021-10-30,23:37:37,01:09:48,NA,incomplete,false,true,NA,NA,3,9,NA,red,n_l_067.jpg,NA,NA,NA,NA,NA,pleasant,unpleasant,NA,NA,NA,NA,NA,left,1295.29999995232,true,NA,NA,NA,NA,NA,NA,NA,NA
rKCiAFGQ,3icohx7eofotocxdgkfntnxuj980e9,3wt783ctpfuhyle39bbjc0p2tdsbcw,rKCiAFGQ,2020-0188,2021-10-30,23:37:37,01:09:48,NA,incomplete,false,true,NA,NA,3,10,NA,red,m_l_073.jpg,NA,NA,NA,NA,NA,unpleasant,pleasant,NA,NA,NA,NA,NA,right,1075.90000009537,true,NA,NA,NA,NA,NA,NA,NA,NA
rKCiAFGQ,3icohx7eofotocxdgkfntnxuj980e9,3wt783ctpfuhyle39bbjc0p2tdsbcw,rKCiAFGQ,2020-0188,2021-10-30,23:37:37,01:09:48,NA,incomplete,false,true,NA,NA,3,11,NA,red,n_s_075.jpg,NA,NA,NA,NA,NA,unpleasant,pleasant,NA,NA,NA,NA,NA,right,983.599999904633,true,NA,NA,NA,NA,NA,NA,NA,NA
rKCiAFGQ,3icohx7eofotocxdgkfntnxuj980e9,3wt783ctpfuhyle39bbjc0p2tdsbcw,rKCiAFGQ,2020-0188,2021-10-30,23:37:37,01:09:48,NA,incomplete,false,true,NA,NA,3,12,NA,yellow,n_s_096.jpg,NA,NA,NA,NA,NA,pleasant,unpleasant,NA,NA,NA,NA,NA,left,1108.70000004768,true,NA,NA,NA,NA,NA,NA,NA,NA
rKCiAFGQ,3icohx7eofotocxdgkfntnxuj980e9,3wt783ctpfuhyle39bbjc0p2tdsbcw,rKCiAFGQ,2020-0188,2021-10-30,23:37:37,01:09:48,NA,incomplete,false,true,NA,NA,3,13,NA,yellow,n_l_054.jpg,NA,NA,NA,NA,NA,unpleasant,pleasant,NA,NA,NA,NA,NA,right,1289,true,NA,NA,NA,NA,NA,NA,NA,NA
rKCiAFGQ,3icohx7eofotocxdgkfntnxuj980e9,3wt783ctpfuhyle39bbjc0p2tdsbcw,rKCiAFGQ,2020-0188,2021-10-30,23:37:37,01:09:48,NA,incomplete,false,true,NA,NA,3,14,NA,yellow,m_l_078.jpg,NA,NA,NA,NA,NA,pleasant,unpleasant,NA,NA,NA,NA,NA,left,1197.59999990463,true,NA,NA,NA,NA,NA,NA,NA,NA
rKCiAFGQ,3icohx7eofotocxdgkfntnxuj980e9,3wt783ctpfuhyle39bbjc0p2tdsbcw,rKCiAFGQ,2020-0188,2021-10-30,23:37:37,01:09:48,NA,incomplete,false,true,NA,NA,3,15,NA,yellow,m_s_049.jpg,NA,NA,NA,NA,NA,unpleasant,pleasant,NA,NA,NA,NA,NA,right,1018,true,NA,NA,NA,NA,NA,NA,NA,NA
rKCiAFGQ,3icohx7eofotocxdgkfntnxuj980e9,3wt783ctpfuhyle39bbjc0p2tdsbcw,rKCiAFGQ,2020-0188,2021-10-30,23:37:37,01:09:48,NA,incomplete,false,true,NA,NA,3,16,NA,yellow,n_s_035.jpg,NA,NA,NA,NA,NA,unpleasant,pleasant,NA,NA,NA,NA,NA,right,1389.70000004768,true,NA,NA,NA,NA,NA,NA,NA,NA
rKCiAFGQ,3icohx7eofotocxdgkfntnxuj980e9,3wt783ctpfuhyle39bbjc0p2tdsbcw,rKCiAFGQ,2020-0188,2021-10-30,23:37:37,01:09:48,NA,incomplete,false,true,NA,NA,3,17,NA,yellow,m_s_117.jpg,NA,NA,NA,NA,NA,pleasant,unpleasant,NA,NA,NA,NA,NA,left,1393.90000009537,true,NA,NA,NA,NA,NA,NA,NA,NA
rKCiAFGQ,3icohx7eofotocxdgkfntnxuj980e9,3wt783ctpfuhyle39bbjc0p2tdsbcw,rKCiAFGQ,2020-0188,2021-10-30,23:37:37,01:09:48,NA,incomplete,false,true,NA,NA,3,18,NA,brown,m_s_008.jpg,NA,NA,NA,NA,NA,unpleasant,pleasant,NA,NA,NA,NA,NA,right,1758.60000014305,true,NA,NA,NA,NA,NA,NA,NA,NA
rKCiAFGQ,3icohx7eofotocxdgkfntnxuj980e9,3wt783ctpfuhyle39bbjc0p2tdsbcw,rKCiAFGQ,2020-0188,2021-10-30,23:37:37,01:09:48,NA,incomplete,false,true,NA,NA,3,19,NA,brown,m_l_024.jpg,NA,NA,NA,NA,NA,unpleasant,pleasant,NA,NA,NA,NA,NA,right,1178.70000004768,true,NA,NA,NA,NA,NA,NA,NA,NA
rKCiAFGQ,3icohx7eofotocxdgkfntnxuj980e9,3wt783ctpfuhyle39bbjc0p2tdsbcw,rKCiAFGQ,2020-0188,2021-10-30,23:37:37,01:09:48,NA,incomplete,false,true,NA,NA,3,20,NA,brown,m_s_095.jpg,NA,NA,NA,NA,NA,pleasant,unpleasant,NA,NA,NA,NA,NA,left,1455.5,true,NA,NA,NA,NA,NA,NA,NA,NA
rKCiAFGQ,3icohx7eofotocxdgkfntnxuj980e9,3wt783ctpfuhyle39bbjc0p2tdsbcw,rKCiAFGQ,2020-0188,2021-10-30,23:37:37,01:09:48,NA,incomplete,false,true,NA,NA,3,21,NA,brown,m_l_096.jpg,NA,NA,NA,NA,NA,unpleasant,pleasant,NA,NA,NA,NA,NA,right,1370.59999990463,true,NA,NA,NA,NA,NA,NA,NA,NA
rKCiAFGQ,3icohx7eofotocxdgkfntnxuj980e9,3wt783ctpfuhyle39bbjc0p2tdsbcw,rKCiAFGQ,2020-0188,2021-10-30,23:37:37,01:09:48,NA,incomplete,false,true,NA,NA,3,22,NA,brown,m_l_097.jpg,NA,NA,NA,NA,NA,pleasant,unpleasant,NA,NA,NA,NA,NA,left,1047.70000004768,true,NA,NA,NA,NA,NA,NA,NA,NA
rKCiAFGQ,3icohx7eofotocxdgkfntnxuj980e9,3wt783ctpfuhyle39bbjc0p2tdsbcw,rKCiAFGQ,2020-0188,2021-10-30,23:37:37,01:09:48,NA,incomplete,false,true,NA,NA,3,23,NA,brown,n_s_044.jpg,NA,NA,NA,NA,NA,pleasant,unpleasant,NA,NA,NA,NA,NA,left,1149.40000009537,true,NA,NA,NA,NA,NA,NA,NA,NA
rKCiAFGQ,3icohx7eofotocxdgkfntnxuj980e9,3wt783ctpfuhyle39bbjc0p2tdsbcw,rKCiAFGQ,2020-0188,2021-10-30,23:37:37,01:09:48,NA,incomplete,false,true,NA,NA,3,24,NA,purple,m_s_060.jpg,NA,NA,NA,NA,NA,pleasant,unpleasant,NA,NA,NA,NA,NA,left,1153.59999990463,true,NA,NA,NA,NA,NA,NA,NA,NA
rKCiAFGQ,3icohx7eofotocxdgkfntnxuj980e9,3wt783ctpfuhyle39bbjc0p2tdsbcw,rKCiAFGQ,2020-0188,2021-10-30,23:37:37,01:09:48,NA,incomplete,false,true,NA,NA,3,25,NA,purple,n_l_108.jpg,NA,NA,NA,NA,NA,unpleasant,pleasant,NA,NA,NA,NA,NA,right,1133.79999995232,true,NA,NA,NA,NA,NA,NA,NA,NA
rKCiAFGQ,3icohx7eofotocxdgkfntnxuj980e9,3wt783ctpfuhyle39bbjc0p2tdsbcw,rKCiAFGQ,2020-0188,2021-10-30,23:37:37,01:09:48,NA,incomplete,false,true,NA,NA,3,26,NA,purple,m_s_014.jpg,NA,NA,NA,NA,NA,pleasant,unpleasant,NA,NA,NA,NA,NA,left,1008.70000004768,true,NA,NA,NA,NA,NA,NA,NA,NA
rKCiAFGQ,3icohx7eofotocxdgkfntnxuj980e9,3wt783ctpfuhyle39bbjc0p2tdsbcw,rKCiAFGQ,2020-0188,2021-10-30,23:37:37,01:09:48,NA,incomplete,false,true,NA,NA,3,27,NA,purple,m_s_041.jpg,NA,NA,NA,NA,NA,pleasant,unpleasant,NA,NA,NA,NA,NA,left,1030.5,true,NA,NA,NA,NA,NA,NA,NA,NA
rKCiAFGQ,3icohx7eofotocxdgkfntnxuj980e9,3wt783ctpfuhyle39bbjc0p2tdsbcw,rKCiAFGQ,2020-0188,2021-10-30,23:37:37,01:09:48,NA,incomplete,false,true,NA,NA,3,28,NA,purple,n_s_013.jpg,NA,NA,NA,NA,NA,unpleasant,pleasant,NA,NA,NA,NA,NA,left,1834.89999985695,true,NA,NA,NA,NA,NA,NA,NA,NA
rKCiAFGQ,3icohx7eofotocxdgkfntnxuj980e9,3wt783ctpfuhyle39bbjc0p2tdsbcw,rKCiAFGQ,2020-0188,2021-10-30,23:37:37,01:09:48,NA,incomplete,false,true,NA,NA,3,29,NA,purple,n_l_025.jpg,NA,NA,NA,NA,NA,pleasant,unpleasant,NA,NA,NA,NA,NA,left,1566.89999985695,true,NA,NA,NA,NA,NA,NA,NA,NA
rKCiAFGQ,3icohx7eofotocxdgkfntnxuj980e9,3wt783ctpfuhyle39bbjc0p2tdsbcw,rKCiAFGQ,2020-0188,2021-10-30,23:37:37,01:09:48,NA,incomplete,false,true,NA,NA,3,30,NA,black,n_s_063.jpg,NA,NA,NA,NA,NA,pleasant,unpleasant,NA,NA,NA,NA,NA,right,2059.5,true,NA,NA,NA,NA,NA,NA,NA,NA
rKCiAFGQ,3icohx7eofotocxdgkfntnxuj980e9,3wt783ctpfuhyle39bbjc0p2tdsbcw,rKCiAFGQ,2020-0188,2021-10-30,23:37:37,01:09:48,NA,incomplete,false,true,NA,NA,3,31,NA,black,m_s_109.jpg,NA,NA,NA,NA,NA,pleasant,unpleasant,NA,NA,NA,NA,NA,left,1103.20000004768,true,NA,NA,NA,NA,NA,NA,NA,NA
rKCiAFGQ,3icohx7eofotocxdgkfntnxuj980e9,3wt783ctpfuhyle39bbjc0p2tdsbcw,rKCiAFGQ,2020-0188,2021-10-30,23:37:37,01:09:48,NA,incomplete,false,true,NA,NA,3,32,NA,black,m_l_057.jpg,NA,NA,NA,NA,NA,pleasant,unpleasant,NA,NA,NA,NA,NA,right,1468.59999990463,true,NA,NA,NA,NA,NA,NA,NA,NA
rKCiAFGQ,3icohx7eofotocxdgkfntnxuj980e9,3wt783ctpfuhyle39bbjc0p2tdsbcw,rKCiAFGQ,2020-0188,2021-10-30,23:37:37,01:09:48,NA,incomplete,false,true,NA,NA,3,33,NA,black,n_l_015.jpg,NA,NA,NA,NA,NA,pleasant,unpleasant,NA,NA,NA,NA,NA,left,984.700000047684,true,NA,NA,NA,NA,NA,NA,NA,NA
rKCiAFGQ,3icohx7eofotocxdgkfntnxuj980e9,3wt783ctpfuhyle39bbjc0p2tdsbcw,rKCiAFGQ,2020-0188,2021-10-30,23:37:37,01:09:48,NA,incomplete,false,true,NA,NA,3,34,NA,black,m_s_053.jpg,NA,NA,NA,NA,NA,unpleasant,pleasant,NA,NA,NA,NA,NA,right,1755.90000009537,true,NA,NA,NA,NA,NA,NA,NA,NA
rKCiAFGQ,3icohx7eofotocxdgkfntnxuj980e9,3wt783ctpfuhyle39bbjc0p2tdsbcw,rKCiAFGQ,2020-0188,2021-10-30,23:37:37,01:09:48,NA,incomplete,false,true,NA,NA,3,35,NA,black,n_s_085.jpg,NA,NA,NA,NA,NA,pleasant,unpleasant,NA,NA,NA,NA,NA,right,1584.10000014305,true,NA,NA,NA,NA,NA,NA,NA,NA
rKCiAFGQ,3icohx7eofotocxdgkfntnxuj980e9,3wt783ctpfuhyle39bbjc0p2tdsbcw,rKCiAFGQ,2020-0188,2021-10-30,23:37:37,01:09:48,NA,incomplete,false,NA,NA,true,3,0,NA,NA,NA,right,n_s_044.jpg,yellow,brown,NA,NA,NA,NA,NA,NA,NA,NA,NA,NaN,NA,2470.7999999523163,left,0,NA,NA,NA,NA,NA
rKCiAFGQ,3icohx7eofotocxdgkfntnxuj980e9,3wt783ctpfuhyle39bbjc0p2tdsbcw,rKCiAFGQ,2020-0188,2021-10-30,23:37:37,01:09:48,NA,incomplete,false,NA,NA,true,3,1,NA,NA,NA,left,m_l_097.jpg,brown,purple,NA,NA,NA,NA,NA,NA,NA,NA,NA,NaN,NA,2206.5,left,1,NA,NA,NA,NA,NA
rKCiAFGQ,3icohx7eofotocxdgkfntnxuj980e9,3wt783ctpfuhyle39bbjc0p2tdsbcw,rKCiAFGQ,2020-0188,2021-10-30,23:37:37,01:09:48,NA,incomplete,false,NA,NA,true,3,2,NA,NA,NA,right,n_l_007.jpg,green,red,NA,NA,NA,NA,NA,NA,NA,NA,NA,NaN,NA,1859.0999999046326,right,1,NA,NA,NA,NA,NA
rKCiAFGQ,3icohx7eofotocxdgkfntnxuj980e9,3wt783ctpfuhyle39bbjc0p2tdsbcw,rKCiAFGQ,2020-0188,2021-10-30,23:37:37,01:09:48,NA,incomplete,false,NA,NA,true,3,3,NA,NA,NA,left,n_l_054.jpg,yellow,red,NA,NA,NA,NA,NA,NA,NA,NA,NA,NaN,NA,6622.299999952316,right,0,NA,NA,NA,NA,NA
rKCiAFGQ,3icohx7eofotocxdgkfntnxuj980e9,3wt783ctpfuhyle39bbjc0p2tdsbcw,rKCiAFGQ,2020-0188,2021-10-30,23:37:37,01:09:48,NA,incomplete,false,NA,NA,true,3,4,NA,NA,NA,left,n_l_013.jpg,red,yellow,NA,NA,NA,NA,NA,NA,NA,NA,NA,NaN,NA,2936.399999856949,right,0,NA,NA,NA,NA,NA
rKCiAFGQ,3icohx7eofotocxdgkfntnxuj980e9,3wt783ctpfuhyle39bbjc0p2tdsbcw,rKCiAFGQ,2020-0188,2021-10-30,23:37:37,01:09:48,NA,incomplete,false,NA,NA,true,3,5,NA,NA,NA,left,n_s_075.jpg,red,green,NA,NA,NA,NA,NA,NA,NA,NA,NA,NaN,NA,1684.2999999523163,left,1,NA,NA,NA,NA,NA
rKCiAFGQ,3icohx7eofotocxdgkfntnxuj980e9,3wt783ctpfuhyle39bbjc0p2tdsbcw,rKCiAFGQ,2020-0188,2021-10-30,23:37:37,01:09:48,NA,incomplete,false,NA,NA,true,3,6,NA,NA,NA,right,m_l_002.jpg,red,green,NA,NA,NA,NA,NA,NA,NA,NA,NA,NaN,NA,1956.1000001430511,right,1,NA,NA,NA,NA,NA
rKCiAFGQ,3icohx7eofotocxdgkfntnxuj980e9,3wt783ctpfuhyle39bbjc0p2tdsbcw,rKCiAFGQ,2020-0188,2021-10-30,23:37:37,01:09:48,NA,incomplete,false,NA,NA,true,3,7,NA,NA,NA,left,m_l_057.jpg,black,purple,NA,NA,NA,NA,NA,NA,NA,NA,NA,NaN,NA,2008.0999999046326,left,1,NA,NA,NA,NA,NA
rKCiAFGQ,3icohx7eofotocxdgkfntnxuj980e9,3wt783ctpfuhyle39bbjc0p2tdsbcw,rKCiAFGQ,2020-0188,2021-10-30,23:37:37,01:09:48,NA,incomplete,false,NA,NA,true,3,8,NA,NA,NA,left,m_s_095.jpg,brown,purple,NA,NA,NA,NA,NA,NA,NA,NA,NA,NaN,NA,2395.399999856949,left,1,NA,NA,NA,NA,NA
rKCiAFGQ,3icohx7eofotocxdgkfntnxuj980e9,3wt783ctpfuhyle39bbjc0p2tdsbcw,rKCiAFGQ,2020-0188,2021-10-30,23:37:37,01:09:48,NA,incomplete,false,NA,NA,true,3,9,NA,NA,NA,right,n_l_025.jpg,brown,purple,NA,NA,NA,NA,NA,NA,NA,NA,NA,NaN,NA,1724.8999998569489,right,1,NA,NA,NA,NA,NA
rKCiAFGQ,3icohx7eofotocxdgkfntnxuj980e9,3wt783ctpfuhyle39bbjc0p2tdsbcw,rKCiAFGQ,2020-0188,2021-10-30,23:37:37,01:09:48,NA,incomplete,false,NA,NA,true,3,10,NA,NA,NA,left,m_l_024.jpg,brown,purple,NA,NA,NA,NA,NA,NA,NA,NA,NA,NaN,NA,1835.1000001430511,left,1,NA,NA,NA,NA,NA
rKCiAFGQ,3icohx7eofotocxdgkfntnxuj980e9,3wt783ctpfuhyle39bbjc0p2tdsbcw,rKCiAFGQ,2020-0188,2021-10-30,23:37:37,01:09:48,NA,incomplete,false,NA,NA,true,3,11,NA,NA,NA,left,n_l_108.jpg,purple,black,NA,NA,NA,NA,NA,NA,NA,NA,NA,NaN,NA,3089.5,left,1,NA,NA,NA,NA,NA
rKCiAFGQ,3icohx7eofotocxdgkfntnxuj980e9,3wt783ctpfuhyle39bbjc0p2tdsbcw,rKCiAFGQ,2020-0188,2021-10-30,23:37:37,01:09:48,NA,incomplete,false,NA,NA,true,3,12,NA,NA,NA,right,n_s_085.jpg,purple,black,NA,NA,NA,NA,NA,NA,NA,NA,NA,NaN,NA,1686.7000000476837,right,1,NA,NA,NA,NA,NA
rKCiAFGQ,3icohx7eofotocxdgkfntnxuj980e9,3wt783ctpfuhyle39bbjc0p2tdsbcw,rKCiAFGQ,2020-0188,2021-10-30,23:37:37,01:09:48,NA,incomplete,false,NA,NA,true,3,13,NA,NA,NA,right,m_s_014.jpg,brown,purple,NA,NA,NA,NA,NA,NA,NA,NA,NA,NaN,NA,1742.5999999046326,left,0,NA,NA,NA,NA,NA
rKCiAFGQ,3icohx7eofotocxdgkfntnxuj980e9,3wt783ctpfuhyle39bbjc0p2tdsbcw,rKCiAFGQ,2020-0188,2021-10-30,23:37:37,01:09:48,NA,incomplete,false,NA,NA,true,3,14,NA,NA,NA,left,n_s_046.jpg,green,red,NA,NA,NA,NA,NA,NA,NA,NA,NA,NaN,NA,2300.7000000476837,left,1,NA,NA,NA,NA,NA
rKCiAFGQ,3icohx7eofotocxdgkfntnxuj980e9,3wt783ctpfuhyle39bbjc0p2tdsbcw,rKCiAFGQ,2020-0188,2021-10-30,23:37:37,01:09:48,NA,incomplete,false,NA,NA,true,3,15,NA,NA,NA,left,m_s_109.jpg,black,purple,NA,NA,NA,NA,NA,NA,NA,NA,NA,NaN,NA,2045.7000000476837,left,1,NA,NA,NA,NA,NA
rKCiAFGQ,3icohx7eofotocxdgkfntnxuj980e9,3wt783ctpfuhyle39bbjc0p2tdsbcw,rKCiAFGQ,2020-0188,2021-10-30,23:37:37,01:09:48,NA,incomplete,false,NA,NA,true,3,16,NA,NA,NA,right,m_l_070.jpg,red,green,NA,NA,NA,NA,NA,NA,NA,NA,NA,NaN,NA,1946.7000000476837,right,1,NA,NA,NA,NA,NA
rKCiAFGQ,3icohx7eofotocxdgkfntnxuj980e9,3wt783ctpfuhyle39bbjc0p2tdsbcw,rKCiAFGQ,2020-0188,2021-10-30,23:37:37,01:09:48,NA,incomplete,false,NA,NA,true,3,17,NA,NA,NA,left,m_l_073.jpg,red,green,NA,NA,NA,NA,NA,NA,NA,NA,NA,NaN,NA,3426,left,1,NA,NA,NA,NA,NA
rKCiAFGQ,3icohx7eofotocxdgkfntnxuj980e9,3wt783ctpfuhyle39bbjc0p2tdsbcw,rKCiAFGQ,2020-0188,2021-10-30,23:37:37,01:09:48,NA,incomplete,false,NA,NA,true,3,18,NA,NA,NA,right,m_s_117.jpg,brown,yellow,NA,NA,NA,NA,NA,NA,NA,NA,NA,NaN,NA,2020.2999999523163,left,0,NA,NA,NA,NA,NA
rKCiAFGQ,3icohx7eofotocxdgkfntnxuj980e9,3wt783ctpfuhyle39bbjc0p2tdsbcw,rKCiAFGQ,2020-0188,2021-10-30,23:37:37,01:09:48,NA,incomplete,false,NA,NA,true,3,19,NA,NA,NA,right,m_l_078.jpg,brown,yellow,NA,NA,NA,NA,NA,NA,NA,NA,NA,NaN,NA,1897.0999999046326,right,1,NA,NA,NA,NA,NA
rKCiAFGQ,3icohx7eofotocxdgkfntnxuj980e9,3wt783ctpfuhyle39bbjc0p2tdsbcw,rKCiAFGQ,2020-0188,2021-10-30,23:37:37,01:09:48,NA,incomplete,false,NA,NA,true,3,20,NA,NA,NA,right,n_s_013.jpg,black,purple,NA,NA,NA,NA,NA,NA,NA,NA,NA,NaN,NA,1350.2999999523163,right,1,NA,NA,NA,NA,NA
rKCiAFGQ,3icohx7eofotocxdgkfntnxuj980e9,3wt783ctpfuhyle39bbjc0p2tdsbcw,rKCiAFGQ,2020-0188,2021-10-30,23:37:37,01:09:48,NA,incomplete,false,NA,NA,true,3,21,NA,NA,NA,left,n_s_035.jpg,yellow,brown,NA,NA,NA,NA,NA,NA,NA,NA,NA,NaN,NA,2171.5999999046326,left,1,NA,NA,NA,NA,NA
rKCiAFGQ,3icohx7eofotocxdgkfntnxuj980e9,3wt783ctpfuhyle39bbjc0p2tdsbcw,rKCiAFGQ,2020-0188,2021-10-30,23:37:37,01:09:48,NA,incomplete,false,NA,true,NA,3,0,NA,NA,NA,right,NA,NA,NA,absent,NA,NA,n_s_075.jpg,red,n_l_013.jpg,red,within,NA,NaN,NA,NA,NA,NA,right,2573.300000190735,1,2,1903.0999999046326
rKCiAFGQ,3icohx7eofotocxdgkfntnxuj980e9,3wt783ctpfuhyle39bbjc0p2tdsbcw,rKCiAFGQ,2020-0188,2021-10-30,23:37:37,01:09:48,NA,incomplete,false,NA,true,NA,3,1,NA,NA,NA,right,NA,NA,NA,absent,NA,NA,n_l_025.jpg,purple,n_l_108.jpg,purple,within,NA,NaN,NA,NA,NA,NA,right,3818.399999856949,1,1,2458.7999999523163
rKCiAFGQ,3icohx7eofotocxdgkfntnxuj980e9,3wt783ctpfuhyle39bbjc0p2tdsbcw,rKCiAFGQ,2020-0188,2021-10-30,23:37:37,01:09:48,NA,incomplete,false,NA,true,NA,3,2,NA,NA,NA,left,NA,NA,NA,absent,NA,NA,n_s_046.jpg,green,n_l_007.jpg,red,between,NA,NaN,NA,NA,NA,NA,left,2177.2999999523163,1,1,3991.0999999046326
rKCiAFGQ,3icohx7eofotocxdgkfntnxuj980e9,3wt783ctpfuhyle39bbjc0p2tdsbcw,rKCiAFGQ,2020-0188,2021-10-30,23:37:37,01:09:48,NA,incomplete,false,NA,true,NA,3,3,NA,NA,NA,left,NA,NA,NA,absent,NA,NA,m_s_109.jpg,black,n_s_085.jpg,black,within,NA,NaN,NA,NA,NA,NA,right,5779.599999904633,0,0,2071
rKCiAFGQ,3icohx7eofotocxdgkfntnxuj980e9,3wt783ctpfuhyle39bbjc0p2tdsbcw,rKCiAFGQ,2020-0188,2021-10-30,23:37:37,01:09:48,NA,incomplete,false,NA,true,NA,3,4,NA,NA,NA,right,NA,NA,NA,absent,NA,NA,m_s_117.jpg,yellow,n_l_054.jpg,yellow,within,NA,NaN,NA,NA,NA,NA,right,3068.7999999523163,1,2,1636.4000000953674
rKCiAFGQ,3icohx7eofotocxdgkfntnxuj980e9,3wt783ctpfuhyle39bbjc0p2tdsbcw,rKCiAFGQ,2020-0188,2021-10-30,23:37:37,01:09:48,NA,incomplete,false,NA,true,NA,3,5,NA,NA,NA,left,NA,NA,NA,absent,NA,NA,m_l_024.jpg,brown,n_s_044.jpg,brown,within,NA,NaN,NA,NA,NA,NA,right,3422.9000000953674,0,3,1599.1000001430511
rKCiAFGQ,3icohx7eofotocxdgkfntnxuj980e9,3wt783ctpfuhyle39bbjc0p2tdsbcw,rKCiAFGQ,2020-0188,2021-10-30,23:37:37,01:09:48,NA,incomplete,false,NA,true,NA,3,6,NA,NA,NA,left,NA,NA,NA,absent,NA,NA,n_s_013.jpg,purple,m_l_057.jpg,black,between,NA,NaN,NA,NA,NA,NA,left,3430.7999999523163,1,1,1795.0999999046326
rKCiAFGQ,3icohx7eofotocxdgkfntnxuj980e9,3wt783ctpfuhyle39bbjc0p2tdsbcw,rKCiAFGQ,2020-0188,2021-10-30,23:37:37,01:09:48,NA,incomplete,false,NA,true,NA,3,7,NA,NA,NA,right,NA,NA,NA,absent,NA,NA,m_s_095.jpg,brown,n_s_035.jpg,yellow,between,NA,NaN,NA,NA,NA,NA,right,2345,1,3,1237.7000000476837
rKCiAFGQ,3icohx7eofotocxdgkfntnxuj980e9,3wt783ctpfuhyle39bbjc0p2tdsbcw,rKCiAFGQ,2020-0188,2021-10-30,23:37:37,01:09:48,NA,incomplete,false,NA,true,NA,3,8,NA,NA,NA,left,NA,NA,NA,absent,NA,NA,m_l_073.jpg,red,m_l_078.jpg,yellow,between,NA,NaN,NA,NA,NA,NA,right,6975,0,1,2009.6999998092651
rKCiAFGQ,3icohx7eofotocxdgkfntnxuj980e9,3wt783ctpfuhyle39bbjc0p2tdsbcw,rKCiAFGQ,2020-0188,2021-10-30,23:37:37,01:09:48,NA,incomplete,false,NA,true,NA,3,9,NA,NA,NA,left,NA,NA,NA,absent,NA,NA,m_l_070.jpg,green,m_l_002.jpg,green,within,NA,NaN,NA,NA,NA,NA,left,3317.2999999523163,1,1,2539.9000000953674
rKCiAFGQ,3icohx7eofotocxdgkfntnxuj980e9,3wt783ctpfuhyle39bbjc0p2tdsbcw,rKCiAFGQ,2020-0188,2021-10-30,23:37:37,01:09:48,NA,incomplete,false,NA,true,NA,3,10,NA,NA,NA,right,NA,NA,NA,absent,NA,NA,m_s_014.jpg,purple,m_l_097.jpg,brown,between,NA,NaN,NA,NA,NA,NA,left,4103.100000143051,0,3,1416.5999999046326
rKCiAFGQ,3icohx7eofotocxdgkfntnxuj980e9,3wt783ctpfuhyle39bbjc0p2tdsbcw,rKCiAFGQ,2020-0188,2021-10-30,23:37:37,01:09:48,NA,incomplete,false,true,NA,NA,4,0,NA,red,m_s_069.jpg,NA,NA,NA,NA,NA,pleasant,unpleasant,NA,NA,NA,NA,NA,right,1848.79999995232,true,NA,NA,NA,NA,NA,NA,NA,NA
rKCiAFGQ,3icohx7eofotocxdgkfntnxuj980e9,3wt783ctpfuhyle39bbjc0p2tdsbcw,rKCiAFGQ,2020-0188,2021-10-30,23:37:37,01:09:48,NA,incomplete,false,true,NA,NA,4,1,NA,red,n_l_077.jpg,NA,NA,NA,NA,NA,unpleasant,pleasant,NA,NA,NA,NA,NA,right,2069.39999985695,true,NA,NA,NA,NA,NA,NA,NA,NA
rKCiAFGQ,3icohx7eofotocxdgkfntnxuj980e9,3wt783ctpfuhyle39bbjc0p2tdsbcw,rKCiAFGQ,2020-0188,2021-10-30,23:37:37,01:09:48,NA,incomplete,false,true,NA,NA,4,2,NA,red,m_s_100.jpg,NA,NA,NA,NA,NA,pleasant,unpleasant,NA,NA,NA,NA,NA,left,1192.79999995232,true,NA,NA,NA,NA,NA,NA,NA,NA
rKCiAFGQ,3icohx7eofotocxdgkfntnxuj980e9,3wt783ctpfuhyle39bbjc0p2tdsbcw,rKCiAFGQ,2020-0188,2021-10-30,23:37:37,01:09:48,NA,incomplete,false,true,NA,NA,4,3,NA,red,n_s_109.jpg,NA,NA,NA,NA,NA,unpleasant,pleasant,NA,NA,NA,NA,NA,left,1334.19999980927,true,NA,NA,NA,NA,NA,NA,NA,NA
rKCiAFGQ,3icohx7eofotocxdgkfntnxuj980e9,3wt783ctpfuhyle39bbjc0p2tdsbcw,rKCiAFGQ,2020-0188,2021-10-30,23:37:37,01:09:48,NA,incomplete,false,true,NA,NA,4,4,NA,red,m_l_098.jpg,NA,NA,NA,NA,NA,unpleasant,pleasant,NA,NA,NA,NA,NA,right,1522,true,NA,NA,NA,NA,NA,NA,NA,NA
rKCiAFGQ,3icohx7eofotocxdgkfntnxuj980e9,3wt783ctpfuhyle39bbjc0p2tdsbcw,rKCiAFGQ,2020-0188,2021-10-30,23:37:37,01:09:48,NA,incomplete,false,true,NA,NA,4,5,NA,red,m_s_032.jpg,NA,NA,NA,NA,NA,unpleasant,pleasant,NA,NA,NA,NA,NA,right,1423,true,NA,NA,NA,NA,NA,NA,NA,NA
rKCiAFGQ,3icohx7eofotocxdgkfntnxuj980e9,3wt783ctpfuhyle39bbjc0p2tdsbcw,rKCiAFGQ,2020-0188,2021-10-30,23:37:37,01:09:48,NA,incomplete,false,true,NA,NA,4,6,NA,yellow,n_s_050.jpg,NA,NA,NA,NA,NA,unpleasant,pleasant,NA,NA,NA,NA,NA,right,1235.20000004768,true,NA,NA,NA,NA,NA,NA,NA,NA
rKCiAFGQ,3icohx7eofotocxdgkfntnxuj980e9,3wt783ctpfuhyle39bbjc0p2tdsbcw,rKCiAFGQ,2020-0188,2021-10-30,23:37:37,01:09:48,NA,incomplete,false,true,NA,NA,4,7,NA,yellow,m_l_104.jpg,NA,NA,NA,NA,NA,unpleasant,pleasant,NA,NA,NA,NA,NA,right,2030.70000004768,true,NA,NA,NA,NA,NA,NA,NA,NA
rKCiAFGQ,3icohx7eofotocxdgkfntnxuj980e9,3wt783ctpfuhyle39bbjc0p2tdsbcw,rKCiAFGQ,2020-0188,2021-10-30,23:37:37,01:09:48,NA,incomplete,false,true,NA,NA,4,8,NA,yellow,n_s_010.jpg,NA,NA,NA,NA,NA,unpleasant,pleasant,NA,NA,NA,NA,NA,left,1259.39999985695,true,NA,NA,NA,NA,NA,NA,NA,NA
rKCiAFGQ,3icohx7eofotocxdgkfntnxuj980e9,3wt783ctpfuhyle39bbjc0p2tdsbcw,rKCiAFGQ,2020-0188,2021-10-30,23:37:37,01:09:48,NA,incomplete,false,true,NA,NA,4,9,NA,yellow,n_s_064.jpg,NA,NA,NA,NA,NA,pleasant,unpleasant,NA,NA,NA,NA,NA,right,887.900000095367,true,NA,NA,NA,NA,NA,NA,NA,NA
rKCiAFGQ,3icohx7eofotocxdgkfntnxuj980e9,3wt783ctpfuhyle39bbjc0p2tdsbcw,rKCiAFGQ,2020-0188,2021-10-30,23:37:37,01:09:48,NA,incomplete,false,true,NA,NA,4,10,NA,yellow,m_s_107.jpg,NA,NA,NA,NA,NA,pleasant,unpleasant,NA,NA,NA,NA,NA,right,1364.20000004768,true,NA,NA,NA,NA,NA,NA,NA,NA
rKCiAFGQ,3icohx7eofotocxdgkfntnxuj980e9,3wt783ctpfuhyle39bbjc0p2tdsbcw,rKCiAFGQ,2020-0188,2021-10-30,23:37:37,01:09:48,NA,incomplete,false,true,NA,NA,4,11,NA,yellow,m_s_056.jpg,NA,NA,NA,NA,NA,unpleasant,pleasant,NA,NA,NA,NA,NA,left,1664.70000004768,true,NA,NA,NA,NA,NA,NA,NA,NA
rKCiAFGQ,3icohx7eofotocxdgkfntnxuj980e9,3wt783ctpfuhyle39bbjc0p2tdsbcw,rKCiAFGQ,2020-0188,2021-10-30,23:37:37,01:09:48,NA,incomplete,false,true,NA,NA,4,12,NA,gray,n_l_073.jpg,NA,NA,NA,NA,NA,pleasant,unpleasant,NA,NA,NA,NA,NA,right,1389.20000004768,true,NA,NA,NA,NA,NA,NA,NA,NA
rKCiAFGQ,3icohx7eofotocxdgkfntnxuj980e9,3wt783ctpfuhyle39bbjc0p2tdsbcw,rKCiAFGQ,2020-0188,2021-10-30,23:37:37,01:09:48,NA,incomplete,false,true,NA,NA,4,13,NA,gray,m_l_060.jpg,NA,NA,NA,NA,NA,pleasant,unpleasant,NA,NA,NA,NA,NA,right,1489.20000004768,true,NA,NA,NA,NA,NA,NA,NA,NA
rKCiAFGQ,3icohx7eofotocxdgkfntnxuj980e9,3wt783ctpfuhyle39bbjc0p2tdsbcw,rKCiAFGQ,2020-0188,2021-10-30,23:37:37,01:09:48,NA,incomplete,false,true,NA,NA,4,14,NA,gray,m_l_092.jpg,NA,NA,NA,NA,NA,pleasant,unpleasant,NA,NA,NA,NA,NA,left,1013.80000019073,true,NA,NA,NA,NA,NA,NA,NA,NA
rKCiAFGQ,3icohx7eofotocxdgkfntnxuj980e9,3wt783ctpfuhyle39bbjc0p2tdsbcw,rKCiAFGQ,2020-0188,2021-10-30,23:37:37,01:09:48,NA,incomplete,false,true,NA,NA,4,15,NA,gray,m_s_076.jpg,NA,NA,NA,NA,NA,pleasant,unpleasant,NA,NA,NA,NA,NA,left,1145.80000019073,true,NA,NA,NA,NA,NA,NA,NA,NA
rKCiAFGQ,3icohx7eofotocxdgkfntnxuj980e9,3wt783ctpfuhyle39bbjc0p2tdsbcw,rKCiAFGQ,2020-0188,2021-10-30,23:37:37,01:09:48,NA,incomplete,false,true,NA,NA,4,16,NA,gray,n_s_072.jpg,NA,NA,NA,NA,NA,unpleasant,pleasant,NA,NA,NA,NA,NA,right,998.100000143051,true,NA,NA,NA,NA,NA,NA,NA,NA
rKCiAFGQ,3icohx7eofotocxdgkfntnxuj980e9,3wt783ctpfuhyle39bbjc0p2tdsbcw,rKCiAFGQ,2020-0188,2021-10-30,23:37:37,01:09:48,NA,incomplete,false,true,NA,NA,4,17,NA,gray,m_s_046.jpg,NA,NA,NA,NA,NA,pleasant,unpleasant,NA,NA,NA,NA,NA,right,1394.89999985695,true,NA,NA,NA,NA,NA,NA,NA,NA
rKCiAFGQ,3icohx7eofotocxdgkfntnxuj980e9,3wt783ctpfuhyle39bbjc0p2tdsbcw,rKCiAFGQ,2020-0188,2021-10-30,23:37:37,01:09:48,NA,incomplete,false,true,NA,NA,4,18,NA,white,m_l_055.jpg,NA,NA,NA,NA,NA,pleasant,unpleasant,NA,NA,NA,NA,NA,right,1384.29999995232,true,NA,NA,NA,NA,NA,NA,NA,NA
rKCiAFGQ,3icohx7eofotocxdgkfntnxuj980e9,3wt783ctpfuhyle39bbjc0p2tdsbcw,rKCiAFGQ,2020-0188,2021-10-30,23:37:37,01:09:48,NA,incomplete,false,true,NA,NA,4,19,NA,white,m_s_115.jpg,NA,NA,NA,NA,NA,pleasant,unpleasant,NA,NA,NA,NA,NA,right,2357.29999995232,true,NA,NA,NA,NA,NA,NA,NA,NA
rKCiAFGQ,3icohx7eofotocxdgkfntnxuj980e9,3wt783ctpfuhyle39bbjc0p2tdsbcw,rKCiAFGQ,2020-0188,2021-10-30,23:37:37,01:09:48,NA,incomplete,false,true,NA,NA,4,20,NA,white,n_l_033.jpg,NA,NA,NA,NA,NA,pleasant,unpleasant,NA,NA,NA,NA,NA,left,1057.20000004768,true,NA,NA,NA,NA,NA,NA,NA,NA
rKCiAFGQ,3icohx7eofotocxdgkfntnxuj980e9,3wt783ctpfuhyle39bbjc0p2tdsbcw,rKCiAFGQ,2020-0188,2021-10-30,23:37:37,01:09:48,NA,incomplete,false,true,NA,NA,4,21,NA,white,m_l_069.jpg,NA,NA,NA,NA,NA,pleasant,unpleasant,NA,NA,NA,NA,NA,right,1067.59999990463,true,NA,NA,NA,NA,NA,NA,NA,NA
rKCiAFGQ,3icohx7eofotocxdgkfntnxuj980e9,3wt783ctpfuhyle39bbjc0p2tdsbcw,rKCiAFGQ,2020-0188,2021-10-30,23:37:37,01:09:48,NA,incomplete,false,true,NA,NA,4,22,NA,white,n_l_063.jpg,NA,NA,NA,NA,NA,unpleasant,pleasant,NA,NA,NA,NA,NA,left,1472.79999995232,true,NA,NA,NA,NA,NA,NA,NA,NA
rKCiAFGQ,3icohx7eofotocxdgkfntnxuj980e9,3wt783ctpfuhyle39bbjc0p2tdsbcw,rKCiAFGQ,2020-0188,2021-10-30,23:37:37,01:09:48,NA,incomplete,false,true,NA,NA,4,23,NA,white,m_l_034.jpg,NA,NA,NA,NA,NA,pleasant,unpleasant,NA,NA,NA,NA,NA,right,2028.69999980927,true,NA,NA,NA,NA,NA,NA,NA,NA
rKCiAFGQ,3icohx7eofotocxdgkfntnxuj980e9,3wt783ctpfuhyle39bbjc0p2tdsbcw,rKCiAFGQ,2020-0188,2021-10-30,23:37:37,01:09:48,NA,incomplete,false,true,NA,NA,4,24,NA,black,m_l_009.jpg,NA,NA,NA,NA,NA,unpleasant,pleasant,NA,NA,NA,NA,NA,right,1495.89999985695,true,NA,NA,NA,NA,NA,NA,NA,NA
rKCiAFGQ,3icohx7eofotocxdgkfntnxuj980e9,3wt783ctpfuhyle39bbjc0p2tdsbcw,rKCiAFGQ,2020-0188,2021-10-30,23:37:37,01:09:48,NA,incomplete,false,true,NA,NA,4,25,NA,black,m_s_104.jpg,NA,NA,NA,NA,NA,pleasant,unpleasant,NA,NA,NA,NA,NA,left,1621.19999980927,true,NA,NA,NA,NA,NA,NA,NA,NA
rKCiAFGQ,3icohx7eofotocxdgkfntnxuj980e9,3wt783ctpfuhyle39bbjc0p2tdsbcw,rKCiAFGQ,2020-0188,2021-10-30,23:37:37,01:09:48,NA,incomplete,false,true,NA,NA,4,26,NA,black,n_l_048.jpg,NA,NA,NA,NA,NA,pleasant,unpleasant,NA,NA,NA,NA,NA,left,1266.30000019073,true,NA,NA,NA,NA,NA,NA,NA,NA
rKCiAFGQ,3icohx7eofotocxdgkfntnxuj980e9,3wt783ctpfuhyle39bbjc0p2tdsbcw,rKCiAFGQ,2020-0188,2021-10-30,23:37:37,01:09:48,NA,incomplete,false,true,NA,NA,4,27,NA,black,m_l_039.jpg,NA,NA,NA,NA,NA,unpleasant,pleasant,NA,NA,NA,NA,NA,right,1310.70000004768,true,NA,NA,NA,NA,NA,NA,NA,NA
rKCiAFGQ,3icohx7eofotocxdgkfntnxuj980e9,3wt783ctpfuhyle39bbjc0p2tdsbcw,rKCiAFGQ,2020-0188,2021-10-30,23:37:37,01:09:48,NA,incomplete,false,true,NA,NA,4,28,NA,black,n_s_061.jpg,NA,NA,NA,NA,NA,unpleasant,pleasant,NA,NA,NA,NA,NA,right,1786.89999985695,true,NA,NA,NA,NA,NA,NA,NA,NA
rKCiAFGQ,3icohx7eofotocxdgkfntnxuj980e9,3wt783ctpfuhyle39bbjc0p2tdsbcw,rKCiAFGQ,2020-0188,2021-10-30,23:37:37,01:09:48,NA,incomplete,false,true,NA,NA,4,29,NA,black,m_s_043.jpg,NA,NA,NA,NA,NA,pleasant,unpleasant,NA,NA,NA,NA,NA,left,1688,true,NA,NA,NA,NA,NA,NA,NA,NA
rKCiAFGQ,3icohx7eofotocxdgkfntnxuj980e9,3wt783ctpfuhyle39bbjc0p2tdsbcw,rKCiAFGQ,2020-0188,2021-10-30,23:37:37,01:09:48,NA,incomplete,false,true,NA,NA,4,30,NA,brown,m_l_116.jpg,NA,NA,NA,NA,NA,pleasant,unpleasant,NA,NA,NA,NA,NA,right,1210.90000009537,true,NA,NA,NA,NA,NA,NA,NA,NA
rKCiAFGQ,3icohx7eofotocxdgkfntnxuj980e9,3wt783ctpfuhyle39bbjc0p2tdsbcw,rKCiAFGQ,2020-0188,2021-10-30,23:37:37,01:09:48,NA,incomplete,false,true,NA,NA,4,31,NA,brown,n_l_042.jpg,NA,NA,NA,NA,NA,pleasant,unpleasant,NA,NA,NA,NA,NA,left,1080,true,NA,NA,NA,NA,NA,NA,NA,NA
rKCiAFGQ,3icohx7eofotocxdgkfntnxuj980e9,3wt783ctpfuhyle39bbjc0p2tdsbcw,rKCiAFGQ,2020-0188,2021-10-30,23:37:37,01:09:48,NA,incomplete,false,true,NA,NA,4,32,NA,brown,n_s_055.jpg,NA,NA,NA,NA,NA,unpleasant,pleasant,NA,NA,NA,NA,NA,right,1133.5,true,NA,NA,NA,NA,NA,NA,NA,NA
rKCiAFGQ,3icohx7eofotocxdgkfntnxuj980e9,3wt783ctpfuhyle39bbjc0p2tdsbcw,rKCiAFGQ,2020-0188,2021-10-30,23:37:37,01:09:48,NA,incomplete,false,true,NA,NA,4,33,NA,brown,n_s_066.jpg,NA,NA,NA,NA,NA,unpleasant,pleasant,NA,NA,NA,NA,NA,right,1409.5,true,NA,NA,NA,NA,NA,NA,NA,NA
rKCiAFGQ,3icohx7eofotocxdgkfntnxuj980e9,3wt783ctpfuhyle39bbjc0p2tdsbcw,rKCiAFGQ,2020-0188,2021-10-30,23:37:37,01:09:48,NA,incomplete,false,true,NA,NA,4,34,NA,brown,m_s_114.jpg,NA,NA,NA,NA,NA,pleasant,unpleasant,NA,NA,NA,NA,NA,left,1310.20000004768,true,NA,NA,NA,NA,NA,NA,NA,NA
rKCiAFGQ,3icohx7eofotocxdgkfntnxuj980e9,3wt783ctpfuhyle39bbjc0p2tdsbcw,rKCiAFGQ,2020-0188,2021-10-30,23:37:37,01:09:48,NA,incomplete,false,true,NA,NA,4,35,NA,brown,m_l_044.jpg,NA,NA,NA,NA,NA,pleasant,unpleasant,NA,NA,NA,NA,NA,left,1065.5,true,NA,NA,NA,NA,NA,NA,NA,NA
rKCiAFGQ,3icohx7eofotocxdgkfntnxuj980e9,3wt783ctpfuhyle39bbjc0p2tdsbcw,rKCiAFGQ,2020-0188,2021-10-30,23:37:37,01:09:48,NA,incomplete,false,NA,NA,true,4,0,NA,NA,NA,right,m_s_043.jpg,brown,black,NA,NA,NA,NA,NA,NA,NA,NA,NA,NaN,NA,3099.7000000476837,right,1,NA,NA,NA,NA,NA
rKCiAFGQ,3icohx7eofotocxdgkfntnxuj980e9,3wt783ctpfuhyle39bbjc0p2tdsbcw,rKCiAFGQ,2020-0188,2021-10-30,23:37:37,01:09:48,NA,incomplete,false,NA,NA,true,4,1,NA,NA,NA,left,n_s_072.jpg,gray,yellow,NA,NA,NA,NA,NA,NA,NA,NA,NA,NaN,NA,2880.4000000953674,left,1,NA,NA,NA,NA,NA
rKCiAFGQ,3icohx7eofotocxdgkfntnxuj980e9,3wt783ctpfuhyle39bbjc0p2tdsbcw,rKCiAFGQ,2020-0188,2021-10-30,23:37:37,01:09:48,NA,incomplete,false,NA,NA,true,4,2,NA,NA,NA,left,m_s_056.jpg,yellow,gray,NA,NA,NA,NA,NA,NA,NA,NA,NA,NaN,NA,3495.100000143051,left,1,NA,NA,NA,NA,NA
rKCiAFGQ,3icohx7eofotocxdgkfntnxuj980e9,3wt783ctpfuhyle39bbjc0p2tdsbcw,rKCiAFGQ,2020-0188,2021-10-30,23:37:37,01:09:48,NA,incomplete,false,NA,NA,true,4,3,NA,NA,NA,left,m_s_115.jpg,white,gray,NA,NA,NA,NA,NA,NA,NA,NA,NA,NaN,NA,2907.600000143051,left,1,NA,NA,NA,NA,NA
rKCiAFGQ,3icohx7eofotocxdgkfntnxuj980e9,3wt783ctpfuhyle39bbjc0p2tdsbcw,rKCiAFGQ,2020-0188,2021-10-30,23:37:37,01:09:48,NA,incomplete,false,NA,NA,true,4,4,NA,NA,NA,right,n_l_077.jpg,yellow,red,NA,NA,NA,NA,NA,NA,NA,NA,NA,NaN,NA,2525.899999856949,right,1,NA,NA,NA,NA,NA
rKCiAFGQ,3icohx7eofotocxdgkfntnxuj980e9,3wt783ctpfuhyle39bbjc0p2tdsbcw,rKCiAFGQ,2020-0188,2021-10-30,23:37:37,01:09:48,NA,incomplete,false,NA,NA,true,4,5,NA,NA,NA,left,n_s_061.jpg,black,brown,NA,NA,NA,NA,NA,NA,NA,NA,NA,NaN,NA,2235.800000190735,left,1,NA,NA,NA,NA,NA
rKCiAFGQ,3icohx7eofotocxdgkfntnxuj980e9,3wt783ctpfuhyle39bbjc0p2tdsbcw,rKCiAFGQ,2020-0188,2021-10-30,23:37:37,01:09:48,NA,incomplete,false,NA,NA,true,4,6,NA,NA,NA,left,m_s_104.jpg,black,white,NA,NA,NA,NA,NA,NA,NA,NA,NA,NaN,NA,3762.7999999523163,right,0,NA,NA,NA,NA,NA
rKCiAFGQ,3icohx7eofotocxdgkfntnxuj980e9,3wt783ctpfuhyle39bbjc0p2tdsbcw,rKCiAFGQ,2020-0188,2021-10-30,23:37:37,01:09:48,NA,incomplete,false,NA,NA,true,4,7,NA,NA,NA,right,m_s_046.jpg,yellow,gray,NA,NA,NA,NA,NA,NA,NA,NA,NA,NaN,NA,3350.899999856949,right,1,NA,NA,NA,NA,NA
rKCiAFGQ,3icohx7eofotocxdgkfntnxuj980e9,3wt783ctpfuhyle39bbjc0p2tdsbcw,rKCiAFGQ,2020-0188,2021-10-30,23:37:37,01:09:48,NA,incomplete,false,NA,NA,true,4,8,NA,NA,NA,right,m_l_044.jpg,black,brown,NA,NA,NA,NA,NA,NA,NA,NA,NA,NaN,NA,2279.0999999046326,right,1,NA,NA,NA,NA,NA
rKCiAFGQ,3icohx7eofotocxdgkfntnxuj980e9,3wt783ctpfuhyle39bbjc0p2tdsbcw,rKCiAFGQ,2020-0188,2021-10-30,23:37:37,01:09:48,NA,incomplete,false,NA,NA,true,4,9,NA,NA,NA,right,n_l_042.jpg,black,brown,NA,NA,NA,NA,NA,NA,NA,NA,NA,NaN,NA,3044.2999999523163,left,0,NA,NA,NA,NA,NA
rKCiAFGQ,3icohx7eofotocxdgkfntnxuj980e9,3wt783ctpfuhyle39bbjc0p2tdsbcw,rKCiAFGQ,2020-0188,2021-10-30,23:37:37,01:09:48,NA,incomplete,false,NA,NA,true,4,10,NA,NA,NA,right,m_s_032.jpg,yellow,red,NA,NA,NA,NA,NA,NA,NA,NA,NA,NaN,NA,3625.5999999046326,right,1,NA,NA,NA,NA,NA
rKCiAFGQ,3icohx7eofotocxdgkfntnxuj980e9,3wt783ctpfuhyle39bbjc0p2tdsbcw,rKCiAFGQ,2020-0188,2021-10-30,23:37:37,01:09:48,NA,incomplete,false,NA,NA,true,4,11,NA,NA,NA,left,n_l_033.jpg,white,gray,NA,NA,NA,NA,NA,NA,NA,NA,NA,NaN,NA,6055.600000143051,right,0,NA,NA,NA,NA,NA
rKCiAFGQ,3icohx7eofotocxdgkfntnxuj980e9,3wt783ctpfuhyle39bbjc0p2tdsbcw,rKCiAFGQ,2020-0188,2021-10-30,23:37:37,01:09:48,NA,incomplete,false,NA,NA,true,4,12,NA,NA,NA,right,n_l_048.jpg,brown,black,NA,NA,NA,NA,NA,NA,NA,NA,NA,NaN,NA,1800.5999999046326,right,1,NA,NA,NA,NA,NA
rKCiAFGQ,3icohx7eofotocxdgkfntnxuj980e9,3wt783ctpfuhyle39bbjc0p2tdsbcw,rKCiAFGQ,2020-0188,2021-10-30,23:37:37,01:09:48,NA,incomplete,false,NA,NA,true,4,13,NA,NA,NA,right,n_s_010.jpg,red,yellow,NA,NA,NA,NA,NA,NA,NA,NA,NA,NaN,NA,1863.8999998569489,left,0,NA,NA,NA,NA,NA
rKCiAFGQ,3icohx7eofotocxdgkfntnxuj980e9,3wt783ctpfuhyle39bbjc0p2tdsbcw,rKCiAFGQ,2020-0188,2021-10-30,23:37:37,01:09:48,NA,incomplete,false,NA,NA,true,4,14,NA,NA,NA,left,m_l_060.jpg,gray,yellow,NA,NA,NA,NA,NA,NA,NA,NA,NA,NaN,NA,2256.9000000953674,left,1,NA,NA,NA,NA,NA
rKCiAFGQ,3icohx7eofotocxdgkfntnxuj980e9,3wt783ctpfuhyle39bbjc0p2tdsbcw,rKCiAFGQ,2020-0188,2021-10-30,23:37:37,01:09:48,NA,incomplete,false,NA,NA,true,4,15,NA,NA,NA,right,m_l_092.jpg,white,gray,NA,NA,NA,NA,NA,NA,NA,NA,NA,NaN,NA,1765,right,1,NA,NA,NA,NA,NA
rKCiAFGQ,3icohx7eofotocxdgkfntnxuj980e9,3wt783ctpfuhyle39bbjc0p2tdsbcw,rKCiAFGQ,2020-0188,2021-10-30,23:37:37,01:09:48,NA,incomplete,false,NA,NA,true,4,16,NA,NA,NA,left,n_s_055.jpg,brown,black,NA,NA,NA,NA,NA,NA,NA,NA,NA,NaN,NA,2830.5,left,1,NA,NA,NA,NA,NA
rKCiAFGQ,3icohx7eofotocxdgkfntnxuj980e9,3wt783ctpfuhyle39bbjc0p2tdsbcw,rKCiAFGQ,2020-0188,2021-10-30,23:37:37,01:09:48,NA,incomplete,false,NA,NA,true,4,17,NA,NA,NA,right,m_l_098.jpg,yellow,red,NA,NA,NA,NA,NA,NA,NA,NA,NA,NaN,NA,1729,right,1,NA,NA,NA,NA,NA
rKCiAFGQ,3icohx7eofotocxdgkfntnxuj980e9,3wt783ctpfuhyle39bbjc0p2tdsbcw,rKCiAFGQ,2020-0188,2021-10-30,23:37:37,01:09:48,NA,incomplete,false,NA,NA,true,4,18,NA,NA,NA,left,n_l_063.jpg,white,gray,NA,NA,NA,NA,NA,NA,NA,NA,NA,NaN,NA,3104.399999856949,left,1,NA,NA,NA,NA,NA
rKCiAFGQ,3icohx7eofotocxdgkfntnxuj980e9,3wt783ctpfuhyle39bbjc0p2tdsbcw,rKCiAFGQ,2020-0188,2021-10-30,23:37:37,01:09:48,NA,incomplete,false,NA,NA,true,4,19,NA,NA,NA,left,m_l_034.jpg,white,black,NA,NA,NA,NA,NA,NA,NA,NA,NA,NaN,NA,1523,right,0,NA,NA,NA,NA,NA
rKCiAFGQ,3icohx7eofotocxdgkfntnxuj980e9,3wt783ctpfuhyle39bbjc0p2tdsbcw,rKCiAFGQ,2020-0188,2021-10-30,23:37:37,01:09:48,NA,incomplete,false,NA,NA,true,4,20,NA,NA,NA,right,m_l_104.jpg,gray,yellow,NA,NA,NA,NA,NA,NA,NA,NA,NA,NaN,NA,4205.299999952316,right,1,NA,NA,NA,NA,NA
rKCiAFGQ,3icohx7eofotocxdgkfntnxuj980e9,3wt783ctpfuhyle39bbjc0p2tdsbcw,rKCiAFGQ,2020-0188,2021-10-30,23:37:37,01:09:48,NA,incomplete,false,NA,NA,true,4,21,NA,NA,NA,left,m_s_107.jpg,yellow,red,NA,NA,NA,NA,NA,NA,NA,NA,NA,NaN,NA,2963.2000000476837,right,0,NA,NA,NA,NA,NA
rKCiAFGQ,3icohx7eofotocxdgkfntnxuj980e9,3wt783ctpfuhyle39bbjc0p2tdsbcw,rKCiAFGQ,2020-0188,2021-10-30,23:37:37,01:09:48,NA,incomplete,false,NA,true,NA,4,0,NA,NA,NA,left,NA,NA,NA,absent,NA,NA,m_l_104.jpg,yellow,m_s_056.jpg,yellow,within,NA,NaN,NA,NA,NA,NA,right,3535.100000143051,0,1,2863
rKCiAFGQ,3icohx7eofotocxdgkfntnxuj980e9,3wt783ctpfuhyle39bbjc0p2tdsbcw,rKCiAFGQ,2020-0188,2021-10-30,23:37:37,01:09:48,NA,incomplete,false,NA,true,NA,4,1,NA,NA,NA,left,NA,NA,NA,absent,NA,NA,m_l_060.jpg,gray,m_s_046.jpg,gray,within,NA,NaN,NA,NA,NA,NA,left,2912.7999999523163,1,2,2319
rKCiAFGQ,3icohx7eofotocxdgkfntnxuj980e9,3wt783ctpfuhyle39bbjc0p2tdsbcw,rKCiAFGQ,2020-0188,2021-10-30,23:37:37,01:09:48,NA,incomplete,false,NA,true,NA,4,2,NA,NA,NA,right,NA,NA,NA,absent,NA,NA,n_s_055.jpg,brown,n_s_061.jpg,black,between,NA,NaN,NA,NA,NA,NA,right,4020.5999999046326,1,0,1608
rKCiAFGQ,3icohx7eofotocxdgkfntnxuj980e9,3wt783ctpfuhyle39bbjc0p2tdsbcw,rKCiAFGQ,2020-0188,2021-10-30,23:37:37,01:09:48,NA,incomplete,false,NA,true,NA,4,3,NA,NA,NA,left,NA,NA,NA,absent,NA,NA,n_l_063.jpg,white,n_l_048.jpg,black,between,NA,NaN,NA,NA,NA,NA,left,4025.2999999523163,1,1,1359.6000001430511
rKCiAFGQ,3icohx7eofotocxdgkfntnxuj980e9,3wt783ctpfuhyle39bbjc0p2tdsbcw,rKCiAFGQ,2020-0188,2021-10-30,23:37:37,01:09:48,NA,incomplete,false,NA,true,NA,4,4,NA,NA,NA,left,NA,NA,NA,absent,NA,NA,m_s_115.jpg,white,m_l_034.jpg,white,within,NA,NaN,NA,NA,NA,NA,left,2368.4000000953674,1,1,1468.0999999046326
rKCiAFGQ,3icohx7eofotocxdgkfntnxuj980e9,3wt783ctpfuhyle39bbjc0p2tdsbcw,rKCiAFGQ,2020-0188,2021-10-30,23:37:37,01:09:48,NA,incomplete,false,NA,true,NA,4,5,NA,NA,NA,right,NA,NA,NA,absent,NA,NA,n_l_033.jpg,white,n_s_072.jpg,gray,between,NA,NaN,NA,NA,NA,NA,right,8521.599999904633,1,0,6583.800000190735
rKCiAFGQ,3icohx7eofotocxdgkfntnxuj980e9,3wt783ctpfuhyle39bbjc0p2tdsbcw,rKCiAFGQ,2020-0188,2021-10-30,23:37:37,01:09:48,NA,incomplete,false,NA,true,NA,4,6,NA,NA,NA,right,NA,NA,NA,absent,NA,NA,m_l_092.jpg,gray,m_s_107.jpg,yellow,between,NA,NaN,NA,NA,NA,NA,right,5058.800000190735,1,2,1167.2000000476837
rKCiAFGQ,3icohx7eofotocxdgkfntnxuj980e9,3wt783ctpfuhyle39bbjc0p2tdsbcw,rKCiAFGQ,2020-0188,2021-10-30,23:37:37,01:09:48,NA,incomplete,false,NA,true,NA,4,7,NA,NA,NA,left,NA,NA,NA,absent,NA,NA,m_l_098.jpg,red,n_s_010.jpg,yellow,between,NA,NaN,NA,NA,NA,NA,left,4141.100000143051,1,3,1149.0999999046326
rKCiAFGQ,3icohx7eofotocxdgkfntnxuj980e9,3wt783ctpfuhyle39bbjc0p2tdsbcw,rKCiAFGQ,2020-0188,2021-10-30,23:37:37,01:09:48,NA,incomplete,false,NA,true,NA,4,8,NA,NA,NA,right,NA,NA,NA,absent,NA,NA,m_l_044.jpg,brown,n_l_042.jpg,brown,within,NA,NaN,NA,NA,NA,NA,right,2677.699999809265,1,2,918.5
rKCiAFGQ,3icohx7eofotocxdgkfntnxuj980e9,3wt783ctpfuhyle39bbjc0p2tdsbcw,rKCiAFGQ,2020-0188,2021-10-30,23:37:37,01:09:48,NA,incomplete,false,NA,true,NA,4,9,NA,NA,NA,left,NA,NA,NA,absent,NA,NA,n_l_077.jpg,red,m_s_032.jpg,red,within,NA,NaN,NA,NA,NA,NA,left,2627.199999809265,1,1,1763.2999999523163
rKCiAFGQ,3icohx7eofotocxdgkfntnxuj980e9,3wt783ctpfuhyle39bbjc0p2tdsbcw,rKCiAFGQ,2020-0188,2021-10-30,23:37:37,01:09:48,NA,incomplete,false,NA,true,NA,4,10,NA,NA,NA,left,NA,NA,NA,absent,NA,NA,m_s_104.jpg,black,m_s_043.jpg,black,within,NA,NaN,NA,NA,NA,NA,right,2475.7000000476837,0,3,1408.2000000476837
rKCiAFGQ,3icohx7eofotocxdgkfntnxuj980e9,3wt783ctpfuhyle39bbjc0p2tdsbcw,rKCiAFGQ,2020-0188,2021-10-30,23:37:37,01:09:48,NA,incomplete,false,true,NA,NA,5,0,NA,black,n_l_106.jpg,NA,NA,NA,NA,NA,pleasant,unpleasant,NA,NA,NA,NA,NA,left,1449.09999990463,true,NA,NA,NA,NA,NA,NA,NA,NA
rKCiAFGQ,3icohx7eofotocxdgkfntnxuj980e9,3wt783ctpfuhyle39bbjc0p2tdsbcw,rKCiAFGQ,2020-0188,2021-10-30,23:37:37,01:09:48,NA,incomplete,false,true,NA,NA,5,1,NA,black,n_l_028.jpg,NA,NA,NA,NA,NA,unpleasant,pleasant,NA,NA,NA,NA,NA,right,1342,true,NA,NA,NA,NA,NA,NA,NA,NA
rKCiAFGQ,3icohx7eofotocxdgkfntnxuj980e9,3wt783ctpfuhyle39bbjc0p2tdsbcw,rKCiAFGQ,2020-0188,2021-10-30,23:37:37,01:09:48,NA,incomplete,false,true,NA,NA,5,2,NA,black,m_l_035.jpg,NA,NA,NA,NA,NA,unpleasant,pleasant,NA,NA,NA,NA,NA,right,1026.90000009537,true,NA,NA,NA,NA,NA,NA,NA,NA
rKCiAFGQ,3icohx7eofotocxdgkfntnxuj980e9,3wt783ctpfuhyle39bbjc0p2tdsbcw,rKCiAFGQ,2020-0188,2021-10-30,23:37:37,01:09:48,NA,incomplete,false,true,NA,NA,5,3,NA,black,m_l_004.jpg,NA,NA,NA,NA,NA,unpleasant,pleasant,NA,NA,NA,NA,NA,right,1758.40000009537,true,NA,NA,NA,NA,NA,NA,NA,NA
rKCiAFGQ,3icohx7eofotocxdgkfntnxuj980e9,3wt783ctpfuhyle39bbjc0p2tdsbcw,rKCiAFGQ,2020-0188,2021-10-30,23:37:37,01:09:48,NA,incomplete,false,true,NA,NA,5,4,NA,black,n_l_065.jpg,NA,NA,NA,NA,NA,unpleasant,pleasant,NA,NA,NA,NA,NA,right,2276.20000004768,true,NA,NA,NA,NA,NA,NA,NA,NA
rKCiAFGQ,3icohx7eofotocxdgkfntnxuj980e9,3wt783ctpfuhyle39bbjc0p2tdsbcw,rKCiAFGQ,2020-0188,2021-10-30,23:37:37,01:09:48,NA,incomplete,false,true,NA,NA,5,5,NA,black,m_s_085.jpg,NA,NA,NA,NA,NA,unpleasant,pleasant,NA,NA,NA,NA,NA,right,1584.39999985695,true,NA,NA,NA,NA,NA,NA,NA,NA
rKCiAFGQ,3icohx7eofotocxdgkfntnxuj980e9,3wt783ctpfuhyle39bbjc0p2tdsbcw,rKCiAFGQ,2020-0188,2021-10-30,23:37:37,01:09:48,NA,incomplete,false,true,NA,NA,5,6,NA,yellow,n_l_003.jpg,NA,NA,NA,NA,NA,unpleasant,pleasant,NA,NA,NA,NA,NA,right,1388.40000009537,true,NA,NA,NA,NA,NA,NA,NA,NA
rKCiAFGQ,3icohx7eofotocxdgkfntnxuj980e9,3wt783ctpfuhyle39bbjc0p2tdsbcw,rKCiAFGQ,2020-0188,2021-10-30,23:37:37,01:09:48,NA,incomplete,false,true,NA,NA,5,7,NA,yellow,n_s_058.jpg,NA,NA,NA,NA,NA,unpleasant,pleasant,NA,NA,NA,NA,NA,left,1385.20000004768,true,NA,NA,NA,NA,NA,NA,NA,NA
rKCiAFGQ,3icohx7eofotocxdgkfntnxuj980e9,3wt783ctpfuhyle39bbjc0p2tdsbcw,rKCiAFGQ,2020-0188,2021-10-30,23:37:37,01:09:48,NA,incomplete,false,true,NA,NA,5,8,NA,yellow,n_l_010.jpg,NA,NA,NA,NA,NA,unpleasant,pleasant,NA,NA,NA,NA,NA,right,1188.40000009537,true,NA,NA,NA,NA,NA,NA,NA,NA
rKCiAFGQ,3icohx7eofotocxdgkfntnxuj980e9,3wt783ctpfuhyle39bbjc0p2tdsbcw,rKCiAFGQ,2020-0188,2021-10-30,23:37:37,01:09:48,NA,incomplete,false,true,NA,NA,5,9,NA,yellow,m_l_043.jpg,NA,NA,NA,NA,NA,unpleasant,pleasant,NA,NA,NA,NA,NA,right,1240.59999990463,true,NA,NA,NA,NA,NA,NA,NA,NA
rKCiAFGQ,3icohx7eofotocxdgkfntnxuj980e9,3wt783ctpfuhyle39bbjc0p2tdsbcw,rKCiAFGQ,2020-0188,2021-10-30,23:37:37,01:09:48,NA,incomplete,false,true,NA,NA,5,10,NA,yellow,n_s_071.jpg,NA,NA,NA,NA,NA,pleasant,unpleasant,NA,NA,NA,NA,NA,right,1420.70000004768,true,NA,NA,NA,NA,NA,NA,NA,NA
rKCiAFGQ,3icohx7eofotocxdgkfntnxuj980e9,3wt783ctpfuhyle39bbjc0p2tdsbcw,rKCiAFGQ,2020-0188,2021-10-30,23:37:37,01:09:48,NA,incomplete,false,true,NA,NA,5,11,NA,yellow,m_s_044.jpg,NA,NA,NA,NA,NA,unpleasant,pleasant,NA,NA,NA,NA,NA,left,1680.70000004768,true,NA,NA,NA,NA,NA,NA,NA,NA
rKCiAFGQ,3icohx7eofotocxdgkfntnxuj980e9,3wt783ctpfuhyle39bbjc0p2tdsbcw,rKCiAFGQ,2020-0188,2021-10-30,23:37:37,01:09:48,NA,incomplete,false,true,NA,NA,5,12,NA,blue,m_l_063.jpg,NA,NA,NA,NA,NA,unpleasant,pleasant,NA,NA,NA,NA,NA,right,1101,true,NA,NA,NA,NA,NA,NA,NA,NA
rKCiAFGQ,3icohx7eofotocxdgkfntnxuj980e9,3wt783ctpfuhyle39bbjc0p2tdsbcw,rKCiAFGQ,2020-0188,2021-10-30,23:37:37,01:09:48,NA,incomplete,false,true,NA,NA,5,13,NA,blue,n_l_019.jpg,NA,NA,NA,NA,NA,pleasant,unpleasant,NA,NA,NA,NA,NA,left,2257.40000009537,true,NA,NA,NA,NA,NA,NA,NA,NA
rKCiAFGQ,3icohx7eofotocxdgkfntnxuj980e9,3wt783ctpfuhyle39bbjc0p2tdsbcw,rKCiAFGQ,2020-0188,2021-10-30,23:37:37,01:09:48,NA,incomplete,false,true,NA,NA,5,14,NA,blue,n_s_087.jpg,NA,NA,NA,NA,NA,unpleasant,pleasant,NA,NA,NA,NA,NA,right,1173.40000009537,true,NA,NA,NA,NA,NA,NA,NA,NA
rKCiAFGQ,3icohx7eofotocxdgkfntnxuj980e9,3wt783ctpfuhyle39bbjc0p2tdsbcw,rKCiAFGQ,2020-0188,2021-10-30,23:37:37,01:09:48,NA,incomplete,false,true,NA,NA,5,15,NA,blue,m_s_039.jpg,NA,NA,NA,NA,NA,unpleasant,pleasant,NA,NA,NA,NA,NA,right,1897.40000009537,true,NA,NA,NA,NA,NA,NA,NA,NA
rKCiAFGQ,3icohx7eofotocxdgkfntnxuj980e9,3wt783ctpfuhyle39bbjc0p2tdsbcw,rKCiAFGQ,2020-0188,2021-10-30,23:37:37,01:09:48,NA,incomplete,false,true,NA,NA,5,16,NA,blue,n_l_097.jpg,NA,NA,NA,NA,NA,unpleasant,pleasant,NA,NA,NA,NA,NA,right,1318.40000009537,true,NA,NA,NA,NA,NA,NA,NA,NA
