workerId,hitId,assignmentId,subject,studyid,exp_date,exp_start,exp_end,time_start,time_end,practice,encoding,memory,association,block,trial,event_order,event,stim,answer,object,left_context,right_context,context_type,label_left,label_right,left_image,left_event,right_image,right_event,condition,response,response_time,response_acc,association_response_time,association_response,association_acc,order_response,order_response_time,order_acc,distance_response,distance_response_time
83VTy1PC,375vsr8fwzmfz1886kcfytzzg59zr5,3x0h8uuit51pt51a1oxfej65piqswj,83VTy1PC,2020-0188,2021-10-31,12:37:34,14:05:51,NA,incomplete,true,true,NA,NA,0,0,NA,red,m_l_040.jpg,NA,NA,NA,NA,NA,unpleasant,pleasant,NA,NA,NA,NA,NA,left,1586.62499999627,true,NA,NA,NA,NA,NA,NA,NA,NA
83VTy1PC,375vsr8fwzmfz1886kcfytzzg59zr5,3x0h8uuit51pt51a1oxfej65piqswj,83VTy1PC,2020-0188,2021-10-31,12:37:34,14:05:51,NA,incomplete,true,true,NA,NA,0,1,NA,red,m_s_094.jpg,NA,NA,NA,NA,NA,pleasant,unpleasant,NA,NA,NA,NA,NA,right,2328.90999992378,true,NA,NA,NA,NA,NA,NA,NA,NA
83VTy1PC,375vsr8fwzmfz1886kcfytzzg59zr5,3x0h8uuit51pt51a1oxfej65piqswj,83VTy1PC,2020-0188,2021-10-31,12:37:34,14:05:51,NA,incomplete,true,true,NA,NA,0,2,NA,red,n_l_078.jpg,NA,NA,NA,NA,NA,unpleasant,pleasant,NA,NA,NA,NA,NA,left,2214.5849999506,true,NA,NA,NA,NA,NA,NA,NA,NA
83VTy1PC,375vsr8fwzmfz1886kcfytzzg59zr5,3x0h8uuit51pt51a1oxfej65piqswj,83VTy1PC,2020-0188,2021-10-31,12:37:34,14:05:51,NA,incomplete,true,true,NA,NA,0,3,NA,red,n_s_085.jpg,NA,NA,NA,NA,NA,pleasant,unpleasant,NA,NA,NA,NA,NA,left,2344.57499999553,true,NA,NA,NA,NA,NA,NA,NA,NA
83VTy1PC,375vsr8fwzmfz1886kcfytzzg59zr5,3x0h8uuit51pt51a1oxfej65piqswj,83VTy1PC,2020-0188,2021-10-31,12:37:34,14:05:51,NA,incomplete,true,true,NA,NA,0,4,NA,red,n_l_035.jpg,NA,NA,NA,NA,NA,pleasant,unpleasant,NA,NA,NA,NA,NA,left,2661.25499992631,true,NA,NA,NA,NA,NA,NA,NA,NA
83VTy1PC,375vsr8fwzmfz1886kcfytzzg59zr5,3x0h8uuit51pt51a1oxfej65piqswj,83VTy1PC,2020-0188,2021-10-31,12:37:34,14:05:51,NA,incomplete,true,true,NA,NA,0,5,NA,red,n_s_044.jpg,NA,NA,NA,NA,NA,pleasant,unpleasant,NA,NA,NA,NA,NA,left,2494.74999983795,true,NA,NA,NA,NA,NA,NA,NA,NA
83VTy1PC,375vsr8fwzmfz1886kcfytzzg59zr5,3x0h8uuit51pt51a1oxfej65piqswj,83VTy1PC,2020-0188,2021-10-31,12:37:34,14:05:51,NA,incomplete,true,true,NA,NA,0,6,NA,white,n_l_046.jpg,NA,NA,NA,NA,NA,pleasant,unpleasant,NA,NA,NA,NA,NA,left,2442.96499993652,true,NA,NA,NA,NA,NA,NA,NA,NA
83VTy1PC,375vsr8fwzmfz1886kcfytzzg59zr5,3x0h8uuit51pt51a1oxfej65piqswj,83VTy1PC,2020-0188,2021-10-31,12:37:34,14:05:51,NA,incomplete,true,true,NA,NA,0,7,NA,white,n_s_081.jpg,NA,NA,NA,NA,NA,unpleasant,pleasant,NA,NA,NA,NA,NA,right,3002.55999993533,true,NA,NA,NA,NA,NA,NA,NA,NA
83VTy1PC,375vsr8fwzmfz1886kcfytzzg59zr5,3x0h8uuit51pt51a1oxfej65piqswj,83VTy1PC,2020-0188,2021-10-31,12:37:34,14:05:51,NA,incomplete,true,true,NA,NA,0,8,NA,white,n_l_070.jpg,NA,NA,NA,NA,NA,pleasant,unpleasant,NA,NA,NA,NA,NA,right,1813.45500005409,true,NA,NA,NA,NA,NA,NA,NA,NA
83VTy1PC,375vsr8fwzmfz1886kcfytzzg59zr5,3x0h8uuit51pt51a1oxfej65piqswj,83VTy1PC,2020-0188,2021-10-31,12:37:34,14:05:51,NA,incomplete,true,true,NA,NA,0,9,NA,white,n_s_041.jpg,NA,NA,NA,NA,NA,unpleasant,pleasant,NA,NA,NA,NA,NA,right,3165.8349998761,true,NA,NA,NA,NA,NA,NA,NA,NA
83VTy1PC,375vsr8fwzmfz1886kcfytzzg59zr5,3x0h8uuit51pt51a1oxfej65piqswj,83VTy1PC,2020-0188,2021-10-31,12:37:34,14:05:51,NA,incomplete,true,true,NA,NA,0,10,NA,white,n_s_098.jpg,NA,NA,NA,NA,NA,pleasant,unpleasant,NA,NA,NA,NA,NA,right,2061.33499997668,true,NA,NA,NA,NA,NA,NA,NA,NA
83VTy1PC,375vsr8fwzmfz1886kcfytzzg59zr5,3x0h8uuit51pt51a1oxfej65piqswj,83VTy1PC,2020-0188,2021-10-31,12:37:34,14:05:51,NA,incomplete,true,true,NA,NA,0,11,NA,white,m_l_019.jpg,NA,NA,NA,NA,NA,unpleasant,pleasant,NA,NA,NA,NA,NA,left,2288.68999984115,true,NA,NA,NA,NA,NA,NA,NA,NA
83VTy1PC,375vsr8fwzmfz1886kcfytzzg59zr5,3x0h8uuit51pt51a1oxfej65piqswj,83VTy1PC,2020-0188,2021-10-31,12:37:34,14:05:51,NA,incomplete,true,true,NA,NA,0,12,NA,black,n_s_067.jpg,NA,NA,NA,NA,NA,unpleasant,pleasant,NA,NA,NA,NA,NA,right,2234.55499997362,true,NA,NA,NA,NA,NA,NA,NA,NA
83VTy1PC,375vsr8fwzmfz1886kcfytzzg59zr5,3x0h8uuit51pt51a1oxfej65piqswj,83VTy1PC,2020-0188,2021-10-31,12:37:34,14:05:51,NA,incomplete,true,true,NA,NA,0,13,NA,black,n_l_093.jpg,NA,NA,NA,NA,NA,unpleasant,pleasant,NA,NA,NA,NA,NA,left,3017.89000001736,true,NA,NA,NA,NA,NA,NA,NA,NA
83VTy1PC,375vsr8fwzmfz1886kcfytzzg59zr5,3x0h8uuit51pt51a1oxfej65piqswj,83VTy1PC,2020-0188,2021-10-31,12:37:34,14:05:51,NA,incomplete,true,true,NA,NA,0,14,NA,black,n_s_089.jpg,NA,NA,NA,NA,NA,unpleasant,pleasant,NA,NA,NA,NA,NA,left,1783.37000007741,true,NA,NA,NA,NA,NA,NA,NA,NA
83VTy1PC,375vsr8fwzmfz1886kcfytzzg59zr5,3x0h8uuit51pt51a1oxfej65piqswj,83VTy1PC,2020-0188,2021-10-31,12:37:34,14:05:51,NA,incomplete,true,true,NA,NA,0,15,NA,black,n_s_021.jpg,NA,NA,NA,NA,NA,pleasant,unpleasant,NA,NA,NA,NA,NA,right,1867.41000018083,true,NA,NA,NA,NA,NA,NA,NA,NA
83VTy1PC,375vsr8fwzmfz1886kcfytzzg59zr5,3x0h8uuit51pt51a1oxfej65piqswj,83VTy1PC,2020-0188,2021-10-31,12:37:34,14:05:51,NA,incomplete,true,true,NA,NA,0,16,NA,black,m_l_092.jpg,NA,NA,NA,NA,NA,unpleasant,pleasant,NA,NA,NA,NA,NA,left,2532.47500001453,true,NA,NA,NA,NA,NA,NA,NA,NA
83VTy1PC,375vsr8fwzmfz1886kcfytzzg59zr5,3x0h8uuit51pt51a1oxfej65piqswj,83VTy1PC,2020-0188,2021-10-31,12:37:34,14:05:51,NA,incomplete,true,true,NA,NA,0,17,NA,black,m_l_008.jpg,NA,NA,NA,NA,NA,pleasant,unpleasant,NA,NA,NA,NA,NA,right,2291.33500019088,true,NA,NA,NA,NA,NA,NA,NA,NA
83VTy1PC,375vsr8fwzmfz1886kcfytzzg59zr5,3x0h8uuit51pt51a1oxfej65piqswj,83VTy1PC,2020-0188,2021-10-31,12:37:34,14:05:51,NA,incomplete,true,true,NA,NA,0,18,NA,blue,m_s_015.jpg,NA,NA,NA,NA,NA,pleasant,unpleasant,NA,NA,NA,NA,NA,left,3132.13500007987,true,NA,NA,NA,NA,NA,NA,NA,NA
83VTy1PC,375vsr8fwzmfz1886kcfytzzg59zr5,3x0h8uuit51pt51a1oxfej65piqswj,83VTy1PC,2020-0188,2021-10-31,12:37:34,14:05:51,NA,incomplete,true,true,NA,NA,0,19,NA,blue,m_l_042.jpg,NA,NA,NA,NA,NA,unpleasant,pleasant,NA,NA,NA,NA,NA,left,1555.30499992892,true,NA,NA,NA,NA,NA,NA,NA,NA
83VTy1PC,375vsr8fwzmfz1886kcfytzzg59zr5,3x0h8uuit51pt51a1oxfej65piqswj,83VTy1PC,2020-0188,2021-10-31,12:37:34,14:05:51,NA,incomplete,true,true,NA,NA,0,20,NA,blue,m_s_062.jpg,NA,NA,NA,NA,NA,unpleasant,pleasant,NA,NA,NA,NA,NA,right,1600.27000005357,true,NA,NA,NA,NA,NA,NA,NA,NA
83VTy1PC,375vsr8fwzmfz1886kcfytzzg59zr5,3x0h8uuit51pt51a1oxfej65piqswj,83VTy1PC,2020-0188,2021-10-31,12:37:34,14:05:51,NA,incomplete,true,true,NA,NA,0,21,NA,blue,n_s_103.jpg,NA,NA,NA,NA,NA,pleasant,unpleasant,NA,NA,NA,NA,NA,left,2186.299999943,true,NA,NA,NA,NA,NA,NA,NA,NA
83VTy1PC,375vsr8fwzmfz1886kcfytzzg59zr5,3x0h8uuit51pt51a1oxfej65piqswj,83VTy1PC,2020-0188,2021-10-31,12:37:34,14:05:51,NA,incomplete,true,true,NA,NA,0,22,NA,blue,m_l_035.jpg,NA,NA,NA,NA,NA,unpleasant,pleasant,NA,NA,NA,NA,NA,right,2426.74499982968,true,NA,NA,NA,NA,NA,NA,NA,NA
83VTy1PC,375vsr8fwzmfz1886kcfytzzg59zr5,3x0h8uuit51pt51a1oxfej65piqswj,83VTy1PC,2020-0188,2021-10-31,12:37:34,14:05:51,NA,incomplete,true,true,NA,NA,0,23,NA,blue,n_l_076.jpg,NA,NA,NA,NA,NA,unpleasant,pleasant,NA,NA,NA,NA,NA,left,1244.32999989949,true,NA,NA,NA,NA,NA,NA,NA,NA
83VTy1PC,375vsr8fwzmfz1886kcfytzzg59zr5,3x0h8uuit51pt51a1oxfej65piqswj,83VTy1PC,2020-0188,2021-10-31,12:37:34,14:05:51,NA,incomplete,true,true,NA,NA,0,24,NA,gray,n_l_079.jpg,NA,NA,NA,NA,NA,unpleasant,pleasant,NA,NA,NA,NA,NA,left,2187.14999989606,true,NA,NA,NA,NA,NA,NA,NA,NA
83VTy1PC,375vsr8fwzmfz1886kcfytzzg59zr5,3x0h8uuit51pt51a1oxfej65piqswj,83VTy1PC,2020-0188,2021-10-31,12:37:34,14:05:51,NA,incomplete,true,true,NA,NA,0,25,NA,gray,m_s_065.jpg,NA,NA,NA,NA,NA,pleasant,unpleasant,NA,NA,NA,NA,NA,right,2404.79499986395,true,NA,NA,NA,NA,NA,NA,NA,NA
83VTy1PC,375vsr8fwzmfz1886kcfytzzg59zr5,3x0h8uuit51pt51a1oxfej65piqswj,83VTy1PC,2020-0188,2021-10-31,12:37:34,14:05:51,NA,incomplete,true,true,NA,NA,0,26,NA,gray,m_s_030.jpg,NA,NA,NA,NA,NA,pleasant,unpleasant,NA,NA,NA,NA,NA,left,2095.16000002623,true,NA,NA,NA,NA,NA,NA,NA,NA
83VTy1PC,375vsr8fwzmfz1886kcfytzzg59zr5,3x0h8uuit51pt51a1oxfej65piqswj,83VTy1PC,2020-0188,2021-10-31,12:37:34,14:05:51,NA,incomplete,true,true,NA,NA,0,27,NA,gray,n_l_062.jpg,NA,NA,NA,NA,NA,unpleasant,pleasant,NA,NA,NA,NA,NA,right,2815.22500002757,true,NA,NA,NA,NA,NA,NA,NA,NA
83VTy1PC,375vsr8fwzmfz1886kcfytzzg59zr5,3x0h8uuit51pt51a1oxfej65piqswj,83VTy1PC,2020-0188,2021-10-31,12:37:34,14:05:51,NA,incomplete,true,true,NA,NA,0,28,NA,gray,m_s_044.jpg,NA,NA,NA,NA,NA,unpleasant,pleasant,NA,NA,NA,NA,NA,left,2130.65000018105,true,NA,NA,NA,NA,NA,NA,NA,NA
83VTy1PC,375vsr8fwzmfz1886kcfytzzg59zr5,3x0h8uuit51pt51a1oxfej65piqswj,83VTy1PC,2020-0188,2021-10-31,12:37:34,14:05:51,NA,incomplete,true,true,NA,NA,0,29,NA,gray,n_l_029.jpg,NA,NA,NA,NA,NA,unpleasant,pleasant,NA,NA,NA,NA,NA,left,1179.35500014573,true,NA,NA,NA,NA,NA,NA,NA,NA
83VTy1PC,375vsr8fwzmfz1886kcfytzzg59zr5,3x0h8uuit51pt51a1oxfej65piqswj,83VTy1PC,2020-0188,2021-10-31,12:37:34,14:05:51,NA,incomplete,true,true,NA,NA,0,30,NA,yellow,n_l_081.jpg,NA,NA,NA,NA,NA,unpleasant,pleasant,NA,NA,NA,NA,NA,right,1604.87499996088,true,NA,NA,NA,NA,NA,NA,NA,NA
83VTy1PC,375vsr8fwzmfz1886kcfytzzg59zr5,3x0h8uuit51pt51a1oxfej65piqswj,83VTy1PC,2020-0188,2021-10-31,12:37:34,14:05:51,NA,incomplete,true,true,NA,NA,0,31,NA,yellow,m_l_079.jpg,NA,NA,NA,NA,NA,unpleasant,pleasant,NA,NA,NA,NA,NA,left,2537.56000008434,true,NA,NA,NA,NA,NA,NA,NA,NA
83VTy1PC,375vsr8fwzmfz1886kcfytzzg59zr5,3x0h8uuit51pt51a1oxfej65piqswj,83VTy1PC,2020-0188,2021-10-31,12:37:34,14:05:51,NA,incomplete,true,true,NA,NA,0,32,NA,yellow,m_s_110.jpg,NA,NA,NA,NA,NA,pleasant,unpleasant,NA,NA,NA,NA,NA,left,1857.11000021547,true,NA,NA,NA,NA,NA,NA,NA,NA
83VTy1PC,375vsr8fwzmfz1886kcfytzzg59zr5,3x0h8uuit51pt51a1oxfej65piqswj,83VTy1PC,2020-0188,2021-10-31,12:37:34,14:05:51,NA,incomplete,true,true,NA,NA,0,33,NA,yellow,m_l_114.jpg,NA,NA,NA,NA,NA,pleasant,unpleasant,NA,NA,NA,NA,NA,left,2081.62999991328,true,NA,NA,NA,NA,NA,NA,NA,NA
83VTy1PC,375vsr8fwzmfz1886kcfytzzg59zr5,3x0h8uuit51pt51a1oxfej65piqswj,83VTy1PC,2020-0188,2021-10-31,12:37:34,14:05:51,NA,incomplete,true,true,NA,NA,0,34,NA,yellow,n_s_101.jpg,NA,NA,NA,NA,NA,pleasant,unpleasant,NA,NA,NA,NA,NA,right,2574.58500005305,true,NA,NA,NA,NA,NA,NA,NA,NA
83VTy1PC,375vsr8fwzmfz1886kcfytzzg59zr5,3x0h8uuit51pt51a1oxfej65piqswj,83VTy1PC,2020-0188,2021-10-31,12:37:34,14:05:51,NA,incomplete,true,true,NA,NA,0,35,NA,yellow,n_l_102.jpg,NA,NA,NA,NA,NA,pleasant,unpleasant,NA,NA,NA,NA,NA,left,1608.62000007182,true,NA,NA,NA,NA,NA,NA,NA,NA
83VTy1PC,375vsr8fwzmfz1886kcfytzzg59zr5,3x0h8uuit51pt51a1oxfej65piqswj,83VTy1PC,2020-0188,2021-10-31,12:37:34,14:05:51,NA,incomplete,true,NA,NA,true,0,0,NA,NA,NA,right,m_l_008.jpg,white,black,NA,NA,NA,NA,NA,NA,NA,NA,NA,NaN,NA,12086.180000100285,right,1,NA,NA,NA,NA,NA
83VTy1PC,375vsr8fwzmfz1886kcfytzzg59zr5,3x0h8uuit51pt51a1oxfej65piqswj,83VTy1PC,2020-0188,2021-10-31,12:37:34,14:05:51,NA,incomplete,true,NA,NA,true,0,1,NA,NA,NA,right,n_l_093.jpg,blue,black,NA,NA,NA,NA,NA,NA,NA,NA,NA,NaN,NA,3259.5049999654293,left,0,NA,NA,NA,NA,NA
83VTy1PC,375vsr8fwzmfz1886kcfytzzg59zr5,3x0h8uuit51pt51a1oxfej65piqswj,83VTy1PC,2020-0188,2021-10-31,12:37:34,14:05:51,NA,incomplete,true,NA,NA,true,0,2,NA,NA,NA,right,n_l_076.jpg,black,blue,NA,NA,NA,NA,NA,NA,NA,NA,NA,NaN,NA,1941.2299999967217,right,1,NA,NA,NA,NA,NA
83VTy1PC,375vsr8fwzmfz1886kcfytzzg59zr5,3x0h8uuit51pt51a1oxfej65piqswj,83VTy1PC,2020-0188,2021-10-31,12:37:34,14:05:51,NA,incomplete,true,NA,NA,true,0,3,NA,NA,NA,left,m_s_094.jpg,red,white,NA,NA,NA,NA,NA,NA,NA,NA,NA,NaN,NA,2460.3399999905378,left,1,NA,NA,NA,NA,NA
83VTy1PC,375vsr8fwzmfz1886kcfytzzg59zr5,3x0h8uuit51pt51a1oxfej65piqswj,83VTy1PC,2020-0188,2021-10-31,12:37:34,14:05:51,NA,incomplete,true,NA,NA,true,0,4,NA,NA,NA,left,m_s_044.jpg,gray,yellow,NA,NA,NA,NA,NA,NA,NA,NA,NA,NaN,NA,2886.519999941811,left,1,NA,NA,NA,NA,NA
83VTy1PC,375vsr8fwzmfz1886kcfytzzg59zr5,3x0h8uuit51pt51a1oxfej65piqswj,83VTy1PC,2020-0188,2021-10-31,12:37:34,14:05:51,NA,incomplete,true,NA,NA,true,0,5,NA,NA,NA,right,n_l_070.jpg,red,white,NA,NA,NA,NA,NA,NA,NA,NA,NA,NaN,NA,2212.5600001309067,right,1,NA,NA,NA,NA,NA
83VTy1PC,375vsr8fwzmfz1886kcfytzzg59zr5,3x0h8uuit51pt51a1oxfej65piqswj,83VTy1PC,2020-0188,2021-10-31,12:37:34,14:05:51,NA,incomplete,true,NA,NA,true,0,6,NA,NA,NA,right,m_l_092.jpg,blue,black,NA,NA,NA,NA,NA,NA,NA,NA,NA,NaN,NA,1719.1850000526756,left,0,NA,NA,NA,NA,NA
83VTy1PC,375vsr8fwzmfz1886kcfytzzg59zr5,3x0h8uuit51pt51a1oxfej65piqswj,83VTy1PC,2020-0188,2021-10-31,12:37:34,14:05:51,NA,incomplete,true,NA,NA,true,0,7,NA,NA,NA,right,m_l_079.jpg,gray,yellow,NA,NA,NA,NA,NA,NA,NA,NA,NA,NaN,NA,3286.324999993667,left,0,NA,NA,NA,NA,NA
83VTy1PC,375vsr8fwzmfz1886kcfytzzg59zr5,3x0h8uuit51pt51a1oxfej65piqswj,83VTy1PC,2020-0188,2021-10-31,12:37:34,14:05:51,NA,incomplete,true,NA,NA,true,0,8,NA,NA,NA,right,n_s_089.jpg,white,black,NA,NA,NA,NA,NA,NA,NA,NA,NA,NaN,NA,2503.0050000641495,right,1,NA,NA,NA,NA,NA
83VTy1PC,375vsr8fwzmfz1886kcfytzzg59zr5,3x0h8uuit51pt51a1oxfej65piqswj,83VTy1PC,2020-0188,2021-10-31,12:37:34,14:05:51,NA,incomplete,true,NA,NA,true,0,9,NA,NA,NA,left,n_s_098.jpg,white,black,NA,NA,NA,NA,NA,NA,NA,NA,NA,NaN,NA,3020.509999943897,left,1,NA,NA,NA,NA,NA
83VTy1PC,375vsr8fwzmfz1886kcfytzzg59zr5,3x0h8uuit51pt51a1oxfej65piqswj,83VTy1PC,2020-0188,2021-10-31,12:37:34,14:05:51,NA,incomplete,true,NA,NA,true,0,10,NA,NA,NA,left,n_s_044.jpg,red,white,NA,NA,NA,NA,NA,NA,NA,NA,NA,NaN,NA,1871.0900000296533,left,1,NA,NA,NA,NA,NA
83VTy1PC,375vsr8fwzmfz1886kcfytzzg59zr5,3x0h8uuit51pt51a1oxfej65piqswj,83VTy1PC,2020-0188,2021-10-31,12:37:34,14:05:51,NA,incomplete,true,NA,NA,true,0,11,NA,NA,NA,left,m_s_065.jpg,gray,yellow,NA,NA,NA,NA,NA,NA,NA,NA,NA,NaN,NA,1612.9600000567734,left,1,NA,NA,NA,NA,NA
83VTy1PC,375vsr8fwzmfz1886kcfytzzg59zr5,3x0h8uuit51pt51a1oxfej65piqswj,83VTy1PC,2020-0188,2021-10-31,12:37:34,14:05:51,NA,incomplete,true,NA,NA,true,0,12,NA,NA,NA,right,m_s_062.jpg,black,blue,NA,NA,NA,NA,NA,NA,NA,NA,NA,NaN,NA,2213.515000184998,right,1,NA,NA,NA,NA,NA
83VTy1PC,375vsr8fwzmfz1886kcfytzzg59zr5,3x0h8uuit51pt51a1oxfej65piqswj,83VTy1PC,2020-0188,2021-10-31,12:37:34,14:05:51,NA,incomplete,true,NA,NA,true,0,13,NA,NA,NA,left,n_l_102.jpg,yellow,gray,NA,NA,NA,NA,NA,NA,NA,NA,NA,NaN,NA,4710.855000186712,left,1,NA,NA,NA,NA,NA
83VTy1PC,375vsr8fwzmfz1886kcfytzzg59zr5,3x0h8uuit51pt51a1oxfej65piqswj,83VTy1PC,2020-0188,2021-10-31,12:37:34,14:05:51,NA,incomplete,true,NA,NA,true,0,14,NA,NA,NA,right,m_l_042.jpg,black,blue,NA,NA,NA,NA,NA,NA,NA,NA,NA,NaN,NA,1966.234999941662,right,1,NA,NA,NA,NA,NA
83VTy1PC,375vsr8fwzmfz1886kcfytzzg59zr5,3x0h8uuit51pt51a1oxfej65piqswj,83VTy1PC,2020-0188,2021-10-31,12:37:34,14:05:51,NA,incomplete,true,NA,NA,true,0,15,NA,NA,NA,right,m_s_110.jpg,gray,yellow,NA,NA,NA,NA,NA,NA,NA,NA,NA,NaN,NA,1630.8399999979883,right,1,NA,NA,NA,NA,NA
83VTy1PC,375vsr8fwzmfz1886kcfytzzg59zr5,3x0h8uuit51pt51a1oxfej65piqswj,83VTy1PC,2020-0188,2021-10-31,12:37:34,14:05:51,NA,incomplete,true,NA,NA,true,0,16,NA,NA,NA,right,m_l_035.jpg,black,blue,NA,NA,NA,NA,NA,NA,NA,NA,NA,NaN,NA,4334.559999871999,right,1,NA,NA,NA,NA,NA
83VTy1PC,375vsr8fwzmfz1886kcfytzzg59zr5,3x0h8uuit51pt51a1oxfej65piqswj,83VTy1PC,2020-0188,2021-10-31,12:37:34,14:05:51,NA,incomplete,true,NA,NA,true,0,17,NA,NA,NA,right,m_s_030.jpg,blue,gray,NA,NA,NA,NA,NA,NA,NA,NA,NA,NaN,NA,2725.9850001428276,right,1,NA,NA,NA,NA,NA
83VTy1PC,375vsr8fwzmfz1886kcfytzzg59zr5,3x0h8uuit51pt51a1oxfej65piqswj,83VTy1PC,2020-0188,2021-10-31,12:37:34,14:05:51,NA,incomplete,true,NA,NA,true,0,18,NA,NA,NA,left,n_l_029.jpg,gray,yellow,NA,NA,NA,NA,NA,NA,NA,NA,NA,NaN,NA,2350.275000091642,left,1,NA,NA,NA,NA,NA
83VTy1PC,375vsr8fwzmfz1886kcfytzzg59zr5,3x0h8uuit51pt51a1oxfej65piqswj,83VTy1PC,2020-0188,2021-10-31,12:37:34,14:05:51,NA,incomplete,true,NA,NA,true,0,19,NA,NA,NA,left,n_l_035.jpg,red,white,NA,NA,NA,NA,NA,NA,NA,NA,NA,NaN,NA,1886.949999956414,left,1,NA,NA,NA,NA,NA
83VTy1PC,375vsr8fwzmfz1886kcfytzzg59zr5,3x0h8uuit51pt51a1oxfej65piqswj,83VTy1PC,2020-0188,2021-10-31,12:37:34,14:05:51,NA,incomplete,true,NA,NA,true,0,20,NA,NA,NA,right,m_l_019.jpg,black,white,NA,NA,NA,NA,NA,NA,NA,NA,NA,NaN,NA,1918.5299999080598,right,1,NA,NA,NA,NA,NA
83VTy1PC,375vsr8fwzmfz1886kcfytzzg59zr5,3x0h8uuit51pt51a1oxfej65piqswj,83VTy1PC,2020-0188,2021-10-31,12:37:34,14:05:51,NA,incomplete,true,NA,NA,true,0,21,NA,NA,NA,left,n_s_081.jpg,white,black,NA,NA,NA,NA,NA,NA,NA,NA,NA,NaN,NA,2014.1349998302758,left,1,NA,NA,NA,NA,NA
83VTy1PC,375vsr8fwzmfz1886kcfytzzg59zr5,3x0h8uuit51pt51a1oxfej65piqswj,83VTy1PC,2020-0188,2021-10-31,12:37:34,14:05:51,NA,incomplete,true,NA,true,NA,0,0,NA,NA,NA,left,NA,NA,NA,absent,NA,NA,m_l_092.jpg,black,m_s_062.jpg,blue,between,NA,NaN,NA,NA,NA,NA,left,4300.104999914765,1,2,5098.985000047833
83VTy1PC,375vsr8fwzmfz1886kcfytzzg59zr5,3x0h8uuit51pt51a1oxfej65piqswj,83VTy1PC,2020-0188,2021-10-31,12:37:34,14:05:51,NA,incomplete,true,NA,true,NA,0,1,NA,NA,NA,right,NA,NA,NA,absent,NA,NA,n_s_044.jpg,red,m_s_094.jpg,red,within,NA,NaN,NA,NA,NA,NA,right,4528.8650000002235,1,1,2304.854999994859
83VTy1PC,375vsr8fwzmfz1886kcfytzzg59zr5,3x0h8uuit51pt51a1oxfej65piqswj,83VTy1PC,2020-0188,2021-10-31,12:37:34,14:05:51,NA,incomplete,true,NA,true,NA,0,2,NA,NA,NA,right,NA,NA,NA,absent,NA,NA,n_l_102.jpg,yellow,m_l_079.jpg,yellow,within,NA,NaN,NA,NA,NA,NA,right,5976.79500002414,1,1,1829.9099998548627
83VTy1PC,375vsr8fwzmfz1886kcfytzzg59zr5,3x0h8uuit51pt51a1oxfej65piqswj,83VTy1PC,2020-0188,2021-10-31,12:37:34,14:05:51,NA,incomplete,true,NA,true,NA,0,3,NA,NA,NA,right,NA,NA,NA,absent,NA,NA,n_l_076.jpg,blue,m_l_042.jpg,blue,within,NA,NaN,NA,NA,NA,NA,right,2751.2600000482053,1,1,4110.81500002183
83VTy1PC,375vsr8fwzmfz1886kcfytzzg59zr5,3x0h8uuit51pt51a1oxfej65piqswj,83VTy1PC,2020-0188,2021-10-31,12:37:34,14:05:51,NA,incomplete,true,NA,true,NA,0,4,NA,NA,NA,left,NA,NA,NA,absent,NA,NA,n_l_035.jpg,red,n_l_070.jpg,white,between,NA,NaN,NA,NA,NA,NA,left,2494.615000206977,1,2,1581.2049999367446
83VTy1PC,375vsr8fwzmfz1886kcfytzzg59zr5,3x0h8uuit51pt51a1oxfej65piqswj,83VTy1PC,2020-0188,2021-10-31,12:37:34,14:05:51,NA,incomplete,true,NA,true,NA,0,5,NA,NA,NA,left,NA,NA,NA,absent,NA,NA,n_l_093.jpg,black,m_l_008.jpg,black,within,NA,NaN,NA,NA,NA,NA,right,2286.0750001855195,0,3,2647.194999968633
83VTy1PC,375vsr8fwzmfz1886kcfytzzg59zr5,3x0h8uuit51pt51a1oxfej65piqswj,83VTy1PC,2020-0188,2021-10-31,12:37:34,14:05:51,NA,incomplete,true,NA,true,NA,0,6,NA,NA,NA,left,NA,NA,NA,absent,NA,NA,n_s_098.jpg,white,n_s_089.jpg,black,between,NA,NaN,NA,NA,NA,NA,right,3317.595000145957,0,1,1326.4850000850856
83VTy1PC,375vsr8fwzmfz1886kcfytzzg59zr5,3x0h8uuit51pt51a1oxfej65piqswj,83VTy1PC,2020-0188,2021-10-31,12:37:34,14:05:51,NA,incomplete,true,NA,true,NA,0,7,NA,NA,NA,left,NA,NA,NA,absent,NA,NA,m_s_044.jpg,gray,m_s_110.jpg,yellow,between,NA,NaN,NA,NA,NA,NA,left,3348.710000049323,1,1,2237.670000176877
83VTy1PC,375vsr8fwzmfz1886kcfytzzg59zr5,3x0h8uuit51pt51a1oxfej65piqswj,83VTy1PC,2020-0188,2021-10-31,12:37:34,14:05:51,NA,incomplete,true,NA,true,NA,0,8,NA,NA,NA,left,NA,NA,NA,absent,NA,NA,m_l_035.jpg,blue,m_s_030.jpg,gray,between,NA,NaN,NA,NA,NA,NA,left,2525.3900000825524,1,1,1096.2900000158697
83VTy1PC,375vsr8fwzmfz1886kcfytzzg59zr5,3x0h8uuit51pt51a1oxfej65piqswj,83VTy1PC,2020-0188,2021-10-31,12:37:34,14:05:51,NA,incomplete,true,NA,true,NA,0,9,NA,NA,NA,left,NA,NA,NA,absent,NA,NA,m_s_065.jpg,gray,n_l_029.jpg,gray,within,NA,NaN,NA,NA,NA,NA,left,2389.9699999019504,1,2,1598.615000024438
83VTy1PC,375vsr8fwzmfz1886kcfytzzg59zr5,3x0h8uuit51pt51a1oxfej65piqswj,83VTy1PC,2020-0188,2021-10-31,12:37:34,14:05:51,NA,incomplete,true,NA,true,NA,0,10,NA,NA,NA,left,NA,NA,NA,absent,NA,NA,n_s_081.jpg,white,m_l_019.jpg,white,within,NA,NaN,NA,NA,NA,NA,left,6199.1600000765175,1,1,1671.3849999941885
83VTy1PC,375vsr8fwzmfz1886kcfytzzg59zr5,3x0h8uuit51pt51a1oxfej65piqswj,83VTy1PC,2020-0188,2021-10-31,12:37:34,14:05:51,NA,incomplete,false,true,NA,NA,1,0,NA,green,n_l_107.jpg,NA,NA,NA,NA,NA,unpleasant,pleasant,NA,NA,NA,NA,NA,left,1789.1800000798,true,NA,NA,NA,NA,NA,NA,NA,NA
83VTy1PC,375vsr8fwzmfz1886kcfytzzg59zr5,3x0h8uuit51pt51a1oxfej65piqswj,83VTy1PC,2020-0188,2021-10-31,12:37:34,14:05:51,NA,incomplete,false,true,NA,NA,1,1,NA,green,m_l_001.jpg,NA,NA,NA,NA,NA,unpleasant,pleasant,NA,NA,NA,NA,NA,left,2191.12499989569,true,NA,NA,NA,NA,NA,NA,NA,NA
83VTy1PC,375vsr8fwzmfz1886kcfytzzg59zr5,3x0h8uuit51pt51a1oxfej65piqswj,83VTy1PC,2020-0188,2021-10-31,12:37:34,14:05:51,NA,incomplete,false,true,NA,NA,1,2,NA,green,n_s_106.jpg,NA,NA,NA,NA,NA,unpleasant,pleasant,NA,NA,NA,NA,NA,right,1744.29999990389,true,NA,NA,NA,NA,NA,NA,NA,NA
83VTy1PC,375vsr8fwzmfz1886kcfytzzg59zr5,3x0h8uuit51pt51a1oxfej65piqswj,83VTy1PC,2020-0188,2021-10-31,12:37:34,14:05:51,NA,incomplete,false,true,NA,NA,1,3,NA,green,m_s_014.jpg,NA,NA,NA,NA,NA,unpleasant,pleasant,NA,NA,NA,NA,NA,right,2397.63500005938,true,NA,NA,NA,NA,NA,NA,NA,NA
83VTy1PC,375vsr8fwzmfz1886kcfytzzg59zr5,3x0h8uuit51pt51a1oxfej65piqswj,83VTy1PC,2020-0188,2021-10-31,12:37:34,14:05:51,NA,incomplete,false,true,NA,NA,1,4,NA,green,m_l_060.jpg,NA,NA,NA,NA,NA,unpleasant,pleasant,NA,NA,NA,NA,NA,right,2218.99500000291,true,NA,NA,NA,NA,NA,NA,NA,NA
83VTy1PC,375vsr8fwzmfz1886kcfytzzg59zr5,3x0h8uuit51pt51a1oxfej65piqswj,83VTy1PC,2020-0188,2021-10-31,12:37:34,14:05:51,NA,incomplete,false,true,NA,NA,1,5,NA,green,n_l_109.jpg,NA,NA,NA,NA,NA,unpleasant,pleasant,NA,NA,NA,NA,NA,left,2032.02500008047,true,NA,NA,NA,NA,NA,NA,NA,NA
83VTy1PC,375vsr8fwzmfz1886kcfytzzg59zr5,3x0h8uuit51pt51a1oxfej65piqswj,83VTy1PC,2020-0188,2021-10-31,12:37:34,14:05:51,NA,incomplete,false,true,NA,NA,1,6,NA,orange,m_l_064.jpg,NA,NA,NA,NA,NA,pleasant,unpleasant,NA,NA,NA,NA,NA,left,2595.05000011995,true,NA,NA,NA,NA,NA,NA,NA,NA
83VTy1PC,375vsr8fwzmfz1886kcfytzzg59zr5,3x0h8uuit51pt51a1oxfej65piqswj,83VTy1PC,2020-0188,2021-10-31,12:37:34,14:05:51,NA,incomplete,false,true,NA,NA,1,7,NA,orange,n_s_046.jpg,NA,NA,NA,NA,NA,pleasant,unpleasant,NA,NA,NA,NA,NA,left,1705.48000000417,true,NA,NA,NA,NA,NA,NA,NA,NA
83VTy1PC,375vsr8fwzmfz1886kcfytzzg59zr5,3x0h8uuit51pt51a1oxfej65piqswj,83VTy1PC,2020-0188,2021-10-31,12:37:34,14:05:51,NA,incomplete,false,true,NA,NA,1,8,NA,orange,n_l_031.jpg,NA,NA,NA,NA,NA,unpleasant,pleasant,NA,NA,NA,NA,NA,right,1825.83000021987,true,NA,NA,NA,NA,NA,NA,NA,NA
83VTy1PC,375vsr8fwzmfz1886kcfytzzg59zr5,3x0h8uuit51pt51a1oxfej65piqswj,83VTy1PC,2020-0188,2021-10-31,12:37:34,14:05:51,NA,incomplete,false,true,NA,NA,1,9,NA,orange,m_l_013.jpg,NA,NA,NA,NA,NA,pleasant,unpleasant,NA,NA,NA,NA,NA,right,1819.85499989241,true,NA,NA,NA,NA,NA,NA,NA,NA
83VTy1PC,375vsr8fwzmfz1886kcfytzzg59zr5,3x0h8uuit51pt51a1oxfej65piqswj,83VTy1PC,2020-0188,2021-10-31,12:37:34,14:05:51,NA,incomplete,false,true,NA,NA,1,10,NA,orange,m_s_005.jpg,NA,NA,NA,NA,NA,unpleasant,pleasant,NA,NA,NA,NA,NA,left,2046.65500018746,true,NA,NA,NA,NA,NA,NA,NA,NA
83VTy1PC,375vsr8fwzmfz1886kcfytzzg59zr5,3x0h8uuit51pt51a1oxfej65piqswj,83VTy1PC,2020-0188,2021-10-31,12:37:34,14:05:51,NA,incomplete,false,true,NA,NA,1,11,NA,orange,m_l_105.jpg,NA,NA,NA,NA,NA,unpleasant,pleasant,NA,NA,NA,NA,NA,right,1845.3800000716,true,NA,NA,NA,NA,NA,NA,NA,NA
83VTy1PC,375vsr8fwzmfz1886kcfytzzg59zr5,3x0h8uuit51pt51a1oxfej65piqswj,83VTy1PC,2020-0188,2021-10-31,12:37:34,14:05:51,NA,incomplete,false,true,NA,NA,1,12,NA,purple,n_l_066.jpg,NA,NA,NA,NA,NA,unpleasant,pleasant,NA,NA,NA,NA,NA,left,1932.53999995068,true,NA,NA,NA,NA,NA,NA,NA,NA
83VTy1PC,375vsr8fwzmfz1886kcfytzzg59zr5,3x0h8uuit51pt51a1oxfej65piqswj,83VTy1PC,2020-0188,2021-10-31,12:37:34,14:05:51,NA,incomplete,false,true,NA,NA,1,13,NA,purple,n_s_099.jpg,NA,NA,NA,NA,NA,pleasant,unpleasant,NA,NA,NA,NA,NA,right,2099.69000006095,true,NA,NA,NA,NA,NA,NA,NA,NA
83VTy1PC,375vsr8fwzmfz1886kcfytzzg59zr5,3x0h8uuit51pt51a1oxfej65piqswj,83VTy1PC,2020-0188,2021-10-31,12:37:34,14:05:51,NA,incomplete,false,true,NA,NA,1,14,NA,purple,n_s_079.jpg,NA,NA,NA,NA,NA,unpleasant,pleasant,NA,NA,NA,NA,NA,left,2064.90500015207,true,NA,NA,NA,NA,NA,NA,NA,NA
83VTy1PC,375vsr8fwzmfz1886kcfytzzg59zr5,3x0h8uuit51pt51a1oxfej65piqswj,83VTy1PC,2020-0188,2021-10-31,12:37:34,14:05:51,NA,incomplete,false,true,NA,NA,1,15,NA,purple,m_s_090.jpg,NA,NA,NA,NA,NA,pleasant,unpleasant,NA,NA,NA,NA,NA,right,2588.09500001371,true,NA,NA,NA,NA,NA,NA,NA,NA
83VTy1PC,375vsr8fwzmfz1886kcfytzzg59zr5,3x0h8uuit51pt51a1oxfej65piqswj,83VTy1PC,2020-0188,2021-10-31,12:37:34,14:05:51,NA,incomplete,false,true,NA,NA,1,16,NA,purple,n_l_025.jpg,NA,NA,NA,NA,NA,unpleasant,pleasant,NA,NA,NA,NA,NA,left,1755.86499995552,true,NA,NA,NA,NA,NA,NA,NA,NA
83VTy1PC,375vsr8fwzmfz1886kcfytzzg59zr5,3x0h8uuit51pt51a1oxfej65piqswj,83VTy1PC,2020-0188,2021-10-31,12:37:34,14:05:51,NA,incomplete,false,true,NA,NA,1,17,NA,purple,m_l_053.jpg,NA,NA,NA,NA,NA,pleasant,unpleasant,NA,NA,NA,NA,NA,right,1944.63999988511,true,NA,NA,NA,NA,NA,NA,NA,NA
83VTy1PC,375vsr8fwzmfz1886kcfytzzg59zr5,3x0h8uuit51pt51a1oxfej65piqswj,83VTy1PC,2020-0188,2021-10-31,12:37:34,14:05:51,NA,incomplete,false,true,NA,NA,1,18,NA,brown,m_s_066.jpg,NA,NA,NA,NA,NA,unpleasant,pleasant,NA,NA,NA,NA,NA,left,1926.62500008009,true,NA,NA,NA,NA,NA,NA,NA,NA
83VTy1PC,375vsr8fwzmfz1886kcfytzzg59zr5,3x0h8uuit51pt51a1oxfej65piqswj,83VTy1PC,2020-0188,2021-10-31,12:37:34,14:05:51,NA,incomplete,false,true,NA,NA,1,19,NA,brown,m_s_025.jpg,NA,NA,NA,NA,NA,pleasant,unpleasant,NA,NA,NA,NA,NA,left,1851.93999996409,true,NA,NA,NA,NA,NA,NA,NA,NA
83VTy1PC,375vsr8fwzmfz1886kcfytzzg59zr5,3x0h8uuit51pt51a1oxfej65piqswj,83VTy1PC,2020-0188,2021-10-31,12:37:34,14:05:51,NA,incomplete,false,true,NA,NA,1,20,NA,brown,m_s_046.jpg,NA,NA,NA,NA,NA,pleasant,unpleasant,NA,NA,NA,NA,NA,right,1968.83499994874,true,NA,NA,NA,NA,NA,NA,NA,NA
83VTy1PC,375vsr8fwzmfz1886kcfytzzg59zr5,3x0h8uuit51pt51a1oxfej65piqswj,83VTy1PC,2020-0188,2021-10-31,12:37:34,14:05:51,NA,incomplete,false,true,NA,NA,1,21,NA,brown,n_s_024.jpg,NA,NA,NA,NA,NA,pleasant,unpleasant,NA,NA,NA,NA,NA,left,2212.95999991708,true,NA,NA,NA,NA,NA,NA,NA,NA
83VTy1PC,375vsr8fwzmfz1886kcfytzzg59zr5,3x0h8uuit51pt51a1oxfej65piqswj,83VTy1PC,2020-0188,2021-10-31,12:37:34,14:05:51,NA,incomplete,false,true,NA,NA,1,22,NA,brown,n_l_015.jpg,NA,NA,NA,NA,NA,pleasant,unpleasant,NA,NA,NA,NA,NA,right,2091.4300000295,true,NA,NA,NA,NA,NA,NA,NA,NA
83VTy1PC,375vsr8fwzmfz1886kcfytzzg59zr5,3x0h8uuit51pt51a1oxfej65piqswj,83VTy1PC,2020-0188,2021-10-31,12:37:34,14:05:51,NA,incomplete,false,true,NA,NA,1,23,NA,brown,n_l_095.jpg,NA,NA,NA,NA,NA,unpleasant,pleasant,NA,NA,NA,NA,NA,right,2037.07499988377,true,NA,NA,NA,NA,NA,NA,NA,NA
83VTy1PC,375vsr8fwzmfz1886kcfytzzg59zr5,3x0h8uuit51pt51a1oxfej65piqswj,83VTy1PC,2020-0188,2021-10-31,12:37:34,14:05:51,NA,incomplete,false,true,NA,NA,1,24,NA,black,n_l_045.jpg,NA,NA,NA,NA,NA,pleasant,unpleasant,NA,NA,NA,NA,NA,right,1738.92499995418,true,NA,NA,NA,NA,NA,NA,NA,NA
83VTy1PC,375vsr8fwzmfz1886kcfytzzg59zr5,3x0h8uuit51pt51a1oxfej65piqswj,83VTy1PC,2020-0188,2021-10-31,12:37:34,14:05:51,NA,incomplete,false,true,NA,NA,1,25,NA,black,m_s_022.jpg,NA,NA,NA,NA,NA,unpleasant,pleasant,NA,NA,NA,NA,NA,left,2159.9349998869,true,NA,NA,NA,NA,NA,NA,NA,NA
83VTy1PC,375vsr8fwzmfz1886kcfytzzg59zr5,3x0h8uuit51pt51a1oxfej65piqswj,83VTy1PC,2020-0188,2021-10-31,12:37:34,14:05:51,NA,incomplete,false,true,NA,NA,1,26,NA,black,n_s_114.jpg,NA,NA,NA,NA,NA,pleasant,unpleasant,NA,NA,NA,NA,NA,left,1871.10999994911,true,NA,NA,NA,NA,NA,NA,NA,NA
83VTy1PC,375vsr8fwzmfz1886kcfytzzg59zr5,3x0h8uuit51pt51a1oxfej65piqswj,83VTy1PC,2020-0188,2021-10-31,12:37:34,14:05:51,NA,incomplete,false,true,NA,NA,1,27,NA,black,m_l_098.jpg,NA,NA,NA,NA,NA,pleasant,unpleasant,NA,NA,NA,NA,NA,right,2267.63999997638,true,NA,NA,NA,NA,NA,NA,NA,NA
83VTy1PC,375vsr8fwzmfz1886kcfytzzg59zr5,3x0h8uuit51pt51a1oxfej65piqswj,83VTy1PC,2020-0188,2021-10-31,12:37:34,14:05:51,NA,incomplete,false,true,NA,NA,1,28,NA,black,m_s_111.jpg,NA,NA,NA,NA,NA,pleasant,unpleasant,NA,NA,NA,NA,NA,right,1777.64999982901,true,NA,NA,NA,NA,NA,NA,NA,NA
83VTy1PC,375vsr8fwzmfz1886kcfytzzg59zr5,3x0h8uuit51pt51a1oxfej65piqswj,83VTy1PC,2020-0188,2021-10-31,12:37:34,14:05:51,NA,incomplete,false,true,NA,NA,1,29,NA,black,m_l_034.jpg,NA,NA,NA,NA,NA,pleasant,unpleasant,NA,NA,NA,NA,NA,right,1722.09000005387,true,NA,NA,NA,NA,NA,NA,NA,NA
83VTy1PC,375vsr8fwzmfz1886kcfytzzg59zr5,3x0h8uuit51pt51a1oxfej65piqswj,83VTy1PC,2020-0188,2021-10-31,12:37:34,14:05:51,NA,incomplete,false,true,NA,NA,1,30,NA,blue,n_s_100.jpg,NA,NA,NA,NA,NA,unpleasant,pleasant,NA,NA,NA,NA,NA,right,1885.40500006638,true,NA,NA,NA,NA,NA,NA,NA,NA
83VTy1PC,375vsr8fwzmfz1886kcfytzzg59zr5,3x0h8uuit51pt51a1oxfej65piqswj,83VTy1PC,2020-0188,2021-10-31,12:37:34,14:05:51,NA,incomplete,false,true,NA,NA,1,31,NA,blue,n_l_091.jpg,NA,NA,NA,NA,NA,pleasant,unpleasant,NA,NA,NA,NA,NA,right,1640.54000005126,true,NA,NA,NA,NA,NA,NA,NA,NA
83VTy1PC,375vsr8fwzmfz1886kcfytzzg59zr5,3x0h8uuit51pt51a1oxfej65piqswj,83VTy1PC,2020-0188,2021-10-31,12:37:34,14:05:51,NA,incomplete,false,true,NA,NA,1,32,NA,blue,n_s_095.jpg,NA,NA,NA,NA,NA,unpleasant,pleasant,NA,NA,NA,NA,NA,left,1834.90999997593,true,NA,NA,NA,NA,NA,NA,NA,NA
83VTy1PC,375vsr8fwzmfz1886kcfytzzg59zr5,3x0h8uuit51pt51a1oxfej65piqswj,83VTy1PC,2020-0188,2021-10-31,12:37:34,14:05:51,NA,incomplete,false,true,NA,NA,1,33,NA,blue,m_l_089.jpg,NA,NA,NA,NA,NA,unpleasant,pleasant,NA,NA,NA,NA,NA,right,1599.20000005513,true,NA,NA,NA,NA,NA,NA,NA,NA
83VTy1PC,375vsr8fwzmfz1886kcfytzzg59zr5,3x0h8uuit51pt51a1oxfej65piqswj,83VTy1PC,2020-0188,2021-10-31,12:37:34,14:05:51,NA,incomplete,false,true,NA,NA,1,34,NA,blue,m_s_049.jpg,NA,NA,NA,NA,NA,unpleasant,pleasant,NA,NA,NA,NA,NA,right,1865.79500022344,true,NA,NA,NA,NA,NA,NA,NA,NA
83VTy1PC,375vsr8fwzmfz1886kcfytzzg59zr5,3x0h8uuit51pt51a1oxfej65piqswj,83VTy1PC,2020-0188,2021-10-31,12:37:34,14:05:51,NA,incomplete,false,true,NA,NA,1,35,NA,blue,m_l_014.jpg,NA,NA,NA,NA,NA,unpleasant,pleasant,NA,NA,NA,NA,NA,left,2200.74000000022,true,NA,NA,NA,NA,NA,NA,NA,NA
83VTy1PC,375vsr8fwzmfz1886kcfytzzg59zr5,3x0h8uuit51pt51a1oxfej65piqswj,83VTy1PC,2020-0188,2021-10-31,12:37:34,14:05:51,NA,incomplete,false,NA,NA,true,1,0,NA,NA,NA,right,n_s_114.jpg,blue,black,NA,NA,NA,NA,NA,NA,NA,NA,NA,NaN,NA,5060.694999992847,left,0,NA,NA,NA,NA,NA
83VTy1PC,375vsr8fwzmfz1886kcfytzzg59zr5,3x0h8uuit51pt51a1oxfej65piqswj,83VTy1PC,2020-0188,2021-10-31,12:37:34,14:05:51,NA,incomplete,false,NA,NA,true,1,1,NA,NA,NA,right,n_l_095.jpg,black,brown,NA,NA,NA,NA,NA,NA,NA,NA,NA,NaN,NA,2373.6250000074506,right,1,NA,NA,NA,NA,NA
83VTy1PC,375vsr8fwzmfz1886kcfytzzg59zr5,3x0h8uuit51pt51a1oxfej65piqswj,83VTy1PC,2020-0188,2021-10-31,12:37:34,14:05:51,NA,incomplete,false,NA,NA,true,1,2,NA,NA,NA,left,m_l_105.jpg,orange,green,NA,NA,NA,NA,NA,NA,NA,NA,NA,NaN,NA,4045.0599999167025,left,1,NA,NA,NA,NA,NA
83VTy1PC,375vsr8fwzmfz1886kcfytzzg59zr5,3x0h8uuit51pt51a1oxfej65piqswj,83VTy1PC,2020-0188,2021-10-31,12:37:34,14:05:51,NA,incomplete,false,NA,NA,true,1,3,NA,NA,NA,right,n_l_109.jpg,orange,green,NA,NA,NA,NA,NA,NA,NA,NA,NA,NaN,NA,3454.6450001653284,left,0,NA,NA,NA,NA,NA
83VTy1PC,375vsr8fwzmfz1886kcfytzzg59zr5,3x0h8uuit51pt51a1oxfej65piqswj,83VTy1PC,2020-0188,2021-10-31,12:37:34,14:05:51,NA,incomplete,false,NA,NA,true,1,4,NA,NA,NA,left,n_l_015.jpg,brown,purple,NA,NA,NA,NA,NA,NA,NA,NA,NA,NaN,NA,2285.954999970272,left,1,NA,NA,NA,NA,NA
83VTy1PC,375vsr8fwzmfz1886kcfytzzg59zr5,3x0h8uuit51pt51a1oxfej65piqswj,83VTy1PC,2020-0188,2021-10-31,12:37:34,14:05:51,NA,incomplete,false,NA,NA,true,1,5,NA,NA,NA,right,m_s_025.jpg,black,brown,NA,NA,NA,NA,NA,NA,NA,NA,NA,NaN,NA,2246.8550000339746,right,1,NA,NA,NA,NA,NA
83VTy1PC,375vsr8fwzmfz1886kcfytzzg59zr5,3x0h8uuit51pt51a1oxfej65piqswj,83VTy1PC,2020-0188,2021-10-31,12:37:34,14:05:51,NA,incomplete,false,NA,NA,true,1,6,NA,NA,NA,right,n_s_099.jpg,brown,purple,NA,NA,NA,NA,NA,NA,NA,NA,NA,NaN,NA,2188.594999955967,right,1,NA,NA,NA,NA,NA
83VTy1PC,375vsr8fwzmfz1886kcfytzzg59zr5,3x0h8uuit51pt51a1oxfej65piqswj,83VTy1PC,2020-0188,2021-10-31,12:37:34,14:05:51,NA,incomplete,false,NA,NA,true,1,7,NA,NA,NA,left,m_l_034.jpg,black,blue,NA,NA,NA,NA,NA,NA,NA,NA,NA,NaN,NA,1694.9799999129027,right,0,NA,NA,NA,NA,NA
83VTy1PC,375vsr8fwzmfz1886kcfytzzg59zr5,3x0h8uuit51pt51a1oxfej65piqswj,83VTy1PC,2020-0188,2021-10-31,12:37:34,14:05:51,NA,incomplete,false,NA,NA,true,1,8,NA,NA,NA,left,m_l_060.jpg,green,orange,NA,NA,NA,NA,NA,NA,NA,NA,NA,NaN,NA,2877.979999873787,right,0,NA,NA,NA,NA,NA
83VTy1PC,375vsr8fwzmfz1886kcfytzzg59zr5,3x0h8uuit51pt51a1oxfej65piqswj,83VTy1PC,2020-0188,2021-10-31,12:37:34,14:05:51,NA,incomplete,false,NA,NA,true,1,9,NA,NA,NA,left,n_l_091.jpg,blue,black,NA,NA,NA,NA,NA,NA,NA,NA,NA,NaN,NA,1982.3400001041591,left,1,NA,NA,NA,NA,NA
83VTy1PC,375vsr8fwzmfz1886kcfytzzg59zr5,3x0h8uuit51pt51a1oxfej65piqswj,83VTy1PC,2020-0188,2021-10-31,12:37:34,14:05:51,NA,incomplete,false,NA,NA,true,1,10,NA,NA,NA,left,m_l_053.jpg,purple,orange,NA,NA,NA,NA,NA,NA,NA,NA,NA,NaN,NA,2799.1899999324232,left,1,NA,NA,NA,NA,NA
83VTy1PC,375vsr8fwzmfz1886kcfytzzg59zr5,3x0h8uuit51pt51a1oxfej65piqswj,83VTy1PC,2020-0188,2021-10-31,12:37:34,14:05:51,NA,incomplete,false,NA,NA,true,1,11,NA,NA,NA,left,m_l_014.jpg,blue,black,NA,NA,NA,NA,NA,NA,NA,NA,NA,NaN,NA,2004.1650000493973,left,1,NA,NA,NA,NA,NA
83VTy1PC,375vsr8fwzmfz1886kcfytzzg59zr5,3x0h8uuit51pt51a1oxfej65piqswj,83VTy1PC,2020-0188,2021-10-31,12:37:34,14:05:51,NA,incomplete,false,NA,NA,true,1,12,NA,NA,NA,left,n_s_079.jpg,purple,orange,NA,NA,NA,NA,NA,NA,NA,NA,NA,NaN,NA,1726.4650000724941,left,1,NA,NA,NA,NA,NA
83VTy1PC,375vsr8fwzmfz1886kcfytzzg59zr5,3x0h8uuit51pt51a1oxfej65piqswj,83VTy1PC,2020-0188,2021-10-31,12:37:34,14:05:51,NA,incomplete,false,NA,NA,true,1,13,NA,NA,NA,right,n_s_046.jpg,purple,orange,NA,NA,NA,NA,NA,NA,NA,NA,NA,NaN,NA,1829.9849999602884,right,1,NA,NA,NA,NA,NA
83VTy1PC,375vsr8fwzmfz1886kcfytzzg59zr5,3x0h8uuit51pt51a1oxfej65piqswj,83VTy1PC,2020-0188,2021-10-31,12:37:34,14:05:51,NA,incomplete,false,NA,NA,true,1,14,NA,NA,NA,left,m_s_111.jpg,black,brown,NA,NA,NA,NA,NA,NA,NA,NA,NA,NaN,NA,2157.290000002831,left,1,NA,NA,NA,NA,NA
83VTy1PC,375vsr8fwzmfz1886kcfytzzg59zr5,3x0h8uuit51pt51a1oxfej65piqswj,83VTy1PC,2020-0188,2021-10-31,12:37:34,14:05:51,NA,incomplete,false,NA,NA,true,1,15,NA,NA,NA,right,m_s_005.jpg,purple,orange,NA,NA,NA,NA,NA,NA,NA,NA,NA,NaN,NA,4340.714999940246,right,1,NA,NA,NA,NA,NA
83VTy1PC,375vsr8fwzmfz1886kcfytzzg59zr5,3x0h8uuit51pt51a1oxfej65piqswj,83VTy1PC,2020-0188,2021-10-31,12:37:34,14:05:51,NA,incomplete,false,NA,NA,true,1,16,NA,NA,NA,left,m_s_046.jpg,brown,purple,NA,NA,NA,NA,NA,NA,NA,NA,NA,NaN,NA,1332.2449999395758,left,1,NA,NA,NA,NA,NA
83VTy1PC,375vsr8fwzmfz1886kcfytzzg59zr5,3x0h8uuit51pt51a1oxfej65piqswj,83VTy1PC,2020-0188,2021-10-31,12:37:34,14:05:51,NA,incomplete,false,NA,NA,true,1,17,NA,NA,NA,right,n_l_031.jpg,green,orange,NA,NA,NA,NA,NA,NA,NA,NA,NA,NaN,NA,3894.3250000011176,left,0,NA,NA,NA,NA,NA
83VTy1PC,375vsr8fwzmfz1886kcfytzzg59zr5,3x0h8uuit51pt51a1oxfej65piqswj,83VTy1PC,2020-0188,2021-10-31,12:37:34,14:05:51,NA,incomplete,false,NA,NA,true,1,18,NA,NA,NA,right,n_l_025.jpg,brown,purple,NA,NA,NA,NA,NA,NA,NA,NA,NA,NaN,NA,1791.9899998232722,right,1,NA,NA,NA,NA,NA
83VTy1PC,375vsr8fwzmfz1886kcfytzzg59zr5,3x0h8uuit51pt51a1oxfej65piqswj,83VTy1PC,2020-0188,2021-10-31,12:37:34,14:05:51,NA,incomplete,false,NA,NA,true,1,19,NA,NA,NA,left,m_s_022.jpg,black,blue,NA,NA,NA,NA,NA,NA,NA,NA,NA,NaN,NA,1702.68000010401,left,1,NA,NA,NA,NA,NA
83VTy1PC,375vsr8fwzmfz1886kcfytzzg59zr5,3x0h8uuit51pt51a1oxfej65piqswj,83VTy1PC,2020-0188,2021-10-31,12:37:34,14:05:51,NA,incomplete,false,NA,NA,true,1,20,NA,NA,NA,left,m_l_001.jpg,green,orange,NA,NA,NA,NA,NA,NA,NA,NA,NA,NaN,NA,6413.734999950975,left,1,NA,NA,NA,NA,NA
83VTy1PC,375vsr8fwzmfz1886kcfytzzg59zr5,3x0h8uuit51pt51a1oxfej65piqswj,83VTy1PC,2020-0188,2021-10-31,12:37:34,14:05:51,NA,incomplete,false,NA,NA,true,1,21,NA,NA,NA,left,n_s_095.jpg,blue,black,NA,NA,NA,NA,NA,NA,NA,NA,NA,NaN,NA,1824.0549999754876,left,1,NA,NA,NA,NA,NA
83VTy1PC,375vsr8fwzmfz1886kcfytzzg59zr5,3x0h8uuit51pt51a1oxfej65piqswj,83VTy1PC,2020-0188,2021-10-31,12:37:34,14:05:51,NA,incomplete,false,NA,true,NA,1,0,NA,NA,NA,right,NA,NA,NA,absent,NA,NA,m_l_105.jpg,orange,n_s_046.jpg,orange,within,NA,NaN,NA,NA,NA,NA,right,5149.294999893755,1,0,10518.494999967515
83VTy1PC,375vsr8fwzmfz1886kcfytzzg59zr5,3x0h8uuit51pt51a1oxfej65piqswj,83VTy1PC,2020-0188,2021-10-31,12:37:34,14:05:51,NA,incomplete,false,NA,true,NA,1,1,NA,NA,NA,left,NA,NA,NA,absent,NA,NA,m_s_022.jpg,black,m_l_034.jpg,black,within,NA,NaN,NA,NA,NA,NA,right,4701.279999921098,0,2,3254.535000072792
83VTy1PC,375vsr8fwzmfz1886kcfytzzg59zr5,3x0h8uuit51pt51a1oxfej65piqswj,83VTy1PC,2020-0188,2021-10-31,12:37:34,14:05:51,NA,incomplete,false,NA,true,NA,1,2,NA,NA,NA,right,NA,NA,NA,absent,NA,NA,n_l_095.jpg,brown,m_s_025.jpg,brown,within,NA,NaN,NA,NA,NA,NA,left,2719.0900000277907,0,2,4070.0999998953193
83VTy1PC,375vsr8fwzmfz1886kcfytzzg59zr5,3x0h8uuit51pt51a1oxfej65piqswj,83VTy1PC,2020-0188,2021-10-31,12:37:34,14:05:51,NA,incomplete,false,NA,true,NA,1,3,NA,NA,NA,left,NA,NA,NA,absent,NA,NA,m_s_111.jpg,black,n_s_095.jpg,blue,between,NA,NaN,NA,NA,NA,NA,left,4718.985000159591,1,2,1886.1950000282377
83VTy1PC,375vsr8fwzmfz1886kcfytzzg59zr5,3x0h8uuit51pt51a1oxfej65piqswj,83VTy1PC,2020-0188,2021-10-31,12:37:34,14:05:51,NA,incomplete,false,NA,true,NA,1,4,NA,NA,NA,right,NA,NA,NA,absent,NA,NA,m_l_014.jpg,blue,n_l_091.jpg,blue,within,NA,NaN,NA,NA,NA,NA,right,3278.6300000734627,1,1,2255.6799999438226
83VTy1PC,375vsr8fwzmfz1886kcfytzzg59zr5,3x0h8uuit51pt51a1oxfej65piqswj,83VTy1PC,2020-0188,2021-10-31,12:37:34,14:05:51,NA,incomplete,false,NA,true,NA,1,5,NA,NA,NA,right,NA,NA,NA,absent,NA,NA,m_l_053.jpg,purple,n_s_099.jpg,purple,within,NA,NaN,NA,NA,NA,NA,left,2911.155000096187,0,2,1412.555000046268
83VTy1PC,375vsr8fwzmfz1886kcfytzzg59zr5,3x0h8uuit51pt51a1oxfej65piqswj,83VTy1PC,2020-0188,2021-10-31,12:37:34,14:05:51,NA,incomplete,false,NA,true,NA,1,6,NA,NA,NA,right,NA,NA,NA,absent,NA,NA,n_l_031.jpg,orange,m_l_060.jpg,green,between,NA,NaN,NA,NA,NA,NA,right,2310.090000042692,1,3,2085.5400001164526
83VTy1PC,375vsr8fwzmfz1886kcfytzzg59zr5,3x0h8uuit51pt51a1oxfej65piqswj,83VTy1PC,2020-0188,2021-10-31,12:37:34,14:05:51,NA,incomplete,false,NA,true,NA,1,7,NA,NA,NA,left,NA,NA,NA,absent,NA,NA,m_l_001.jpg,green,n_l_109.jpg,green,within,NA,NaN,NA,NA,NA,NA,left,1972.7249999996275,1,0,2069.9899999890476
83VTy1PC,375vsr8fwzmfz1886kcfytzzg59zr5,3x0h8uuit51pt51a1oxfej65piqswj,83VTy1PC,2020-0188,2021-10-31,12:37:34,14:05:51,NA,incomplete,false,NA,true,NA,1,8,NA,NA,NA,right,NA,NA,NA,absent,NA,NA,n_s_114.jpg,black,n_l_015.jpg,brown,between,NA,NaN,NA,NA,NA,NA,right,3533.2450000569224,1,2,1901.0199999902397
83VTy1PC,375vsr8fwzmfz1886kcfytzzg59zr5,3x0h8uuit51pt51a1oxfej65piqswj,83VTy1PC,2020-0188,2021-10-31,12:37:34,14:05:51,NA,incomplete,false,NA,true,NA,1,9,NA,NA,NA,left,NA,NA,NA,absent,NA,NA,n_l_025.jpg,purple,m_s_046.jpg,brown,between,NA,NaN,NA,NA,NA,NA,left,3152.0950000267476,1,3,1535.4499998502433
83VTy1PC,375vsr8fwzmfz1886kcfytzzg59zr5,3x0h8uuit51pt51a1oxfej65piqswj,83VTy1PC,2020-0188,2021-10-31,12:37:34,14:05:51,NA,incomplete,false,NA,true,NA,1,10,NA,NA,NA,right,NA,NA,NA,absent,NA,NA,n_s_079.jpg,purple,m_s_005.jpg,orange,between,NA,NaN,NA,NA,NA,NA,right,3486.2850001081824,1,2,1686.9600000791252
83VTy1PC,375vsr8fwzmfz1886kcfytzzg59zr5,3x0h8uuit51pt51a1oxfej65piqswj,83VTy1PC,2020-0188,2021-10-31,12:37:34,14:05:51,NA,incomplete,false,true,NA,NA,2,0,NA,purple,m_l_072.jpg,NA,NA,NA,NA,NA,unpleasant,pleasant,NA,NA,NA,NA,NA,right,2441.45500008017,true,NA,NA,NA,NA,NA,NA,NA,NA
83VTy1PC,375vsr8fwzmfz1886kcfytzzg59zr5,3x0h8uuit51pt51a1oxfej65piqswj,83VTy1PC,2020-0188,2021-10-31,12:37:34,14:05:51,NA,incomplete,false,true,NA,NA,2,1,NA,purple,m_s_012.jpg,NA,NA,NA,NA,NA,unpleasant,pleasant,NA,NA,NA,NA,NA,left,2283.85000000708,true,NA,NA,NA,NA,NA,NA,NA,NA
83VTy1PC,375vsr8fwzmfz1886kcfytzzg59zr5,3x0h8uuit51pt51a1oxfej65piqswj,83VTy1PC,2020-0188,2021-10-31,12:37:34,14:05:51,NA,incomplete,false,true,NA,NA,2,2,NA,purple,m_s_051.jpg,NA,NA,NA,NA,NA,pleasant,unpleasant,NA,NA,NA,NA,NA,left,1655.37000005133,true,NA,NA,NA,NA,NA,NA,NA,NA
83VTy1PC,375vsr8fwzmfz1886kcfytzzg59zr5,3x0h8uuit51pt51a1oxfej65piqswj,83VTy1PC,2020-0188,2021-10-31,12:37:34,14:05:51,NA,incomplete,false,true,NA,NA,2,3,NA,purple,n_l_086.jpg,NA,NA,NA,NA,NA,pleasant,unpleasant,NA,NA,NA,NA,NA,left,2788.4600001853,true,NA,NA,NA,NA,NA,NA,NA,NA
83VTy1PC,375vsr8fwzmfz1886kcfytzzg59zr5,3x0h8uuit51pt51a1oxfej65piqswj,83VTy1PC,2020-0188,2021-10-31,12:37:34,14:05:51,NA,incomplete,false,true,NA,NA,2,4,NA,purple,m_s_033.jpg,NA,NA,NA,NA,NA,pleasant,unpleasant,NA,NA,NA,NA,NA,left,2514.50999989174,true,NA,NA,NA,NA,NA,NA,NA,NA
83VTy1PC,375vsr8fwzmfz1886kcfytzzg59zr5,3x0h8uuit51pt51a1oxfej65piqswj,83VTy1PC,2020-0188,2021-10-31,12:37:34,14:05:51,NA,incomplete,false,true,NA,NA,2,5,NA,purple,n_l_014.jpg,NA,NA,NA,NA,NA,unpleasant,pleasant,NA,NA,NA,NA,NA,right,1829.2449999135,true,NA,NA,NA,NA,NA,NA,NA,NA
83VTy1PC,375vsr8fwzmfz1886kcfytzzg59zr5,3x0h8uuit51pt51a1oxfej65piqswj,83VTy1PC,2020-0188,2021-10-31,12:37:34,14:05:51,NA,incomplete,false,true,NA,NA,2,6,NA,blue,m_l_109.jpg,NA,NA,NA,NA,NA,unpleasant,pleasant,NA,NA,NA,NA,NA,right,1653.27500016429,true,NA,NA,NA,NA,NA,NA,NA,NA
83VTy1PC,375vsr8fwzmfz1886kcfytzzg59zr5,3x0h8uuit51pt51a1oxfej65piqswj,83VTy1PC,2020-0188,2021-10-31,12:37:34,14:05:51,NA,incomplete,false,true,NA,NA,2,7,NA,blue,n_l_060.jpg,NA,NA,NA,NA,NA,unpleasant,pleasant,NA,NA,NA,NA,NA,right,1509.40000009723,true,NA,NA,NA,NA,NA,NA,NA,NA
83VTy1PC,375vsr8fwzmfz1886kcfytzzg59zr5,3x0h8uuit51pt51a1oxfej65piqswj,83VTy1PC,2020-0188,2021-10-31,12:37:34,14:05:51,NA,incomplete,false,true,NA,NA,2,8,NA,blue,m_l_037.jpg,NA,NA,NA,NA,NA,unpleasant,pleasant,NA,NA,NA,NA,NA,left,2016.14500000142,true,NA,NA,NA,NA,NA,NA,NA,NA
83VTy1PC,375vsr8fwzmfz1886kcfytzzg59zr5,3x0h8uuit51pt51a1oxfej65piqswj,83VTy1PC,2020-0188,2021-10-31,12:37:34,14:05:51,NA,incomplete,false,true,NA,NA,2,9,NA,blue,m_s_078.jpg,NA,NA,NA,NA,NA,unpleasant,pleasant,NA,NA,NA,NA,NA,right,1573.51500005461,true,NA,NA,NA,NA,NA,NA,NA,NA
83VTy1PC,375vsr8fwzmfz1886kcfytzzg59zr5,3x0h8uuit51pt51a1oxfej65piqswj,83VTy1PC,2020-0188,2021-10-31,12:37:34,14:05:51,NA,incomplete,false,true,NA,NA,2,10,NA,blue,m_s_091.jpg,NA,NA,NA,NA,NA,unpleasant,pleasant,NA,NA,NA,NA,NA,right,1862.65500006266,true,NA,NA,NA,NA,NA,NA,NA,NA
83VTy1PC,375vsr8fwzmfz1886kcfytzzg59zr5,3x0h8uuit51pt51a1oxfej65piqswj,83VTy1PC,2020-0188,2021-10-31,12:37:34,14:05:51,NA,incomplete,false,true,NA,NA,2,11,NA,blue,m_s_060.jpg,NA,NA,NA,NA,NA,pleasant,unpleasant,NA,NA,NA,NA,NA,left,1719.27500003949,true,NA,NA,NA,NA,NA,NA,NA,NA
83VTy1PC,375vsr8fwzmfz1886kcfytzzg59zr5,3x0h8uuit51pt51a1oxfej65piqswj,83VTy1PC,2020-0188,2021-10-31,12:37:34,14:05:51,NA,incomplete,false,true,NA,NA,2,12,NA,black,n_s_002.jpg,NA,NA,NA,NA,NA,unpleasant,pleasant,NA,NA,NA,NA,NA,right,1690.97999995574,true,NA,NA,NA,NA,NA,NA,NA,NA
83VTy1PC,375vsr8fwzmfz1886kcfytzzg59zr5,3x0h8uuit51pt51a1oxfej65piqswj,83VTy1PC,2020-0188,2021-10-31,12:37:34,14:05:51,NA,incomplete,false,true,NA,NA,2,13,NA,black,m_l_070.jpg,NA,NA,NA,NA,NA,unpleasant,pleasant,NA,NA,NA,NA,NA,left,1535.39499989711,true,NA,NA,NA,NA,NA,NA,NA,NA
83VTy1PC,375vsr8fwzmfz1886kcfytzzg59zr5,3x0h8uuit51pt51a1oxfej65piqswj,83VTy1PC,2020-0188,2021-10-31,12:37:34,14:05:51,NA,incomplete,false,true,NA,NA,2,14,NA,black,n_l_052.jpg,NA,NA,NA,NA,NA,pleasant,unpleasant,NA,NA,NA,NA,NA,right,1983.23499993421,true,NA,NA,NA,NA,NA,NA,NA,NA
83VTy1PC,375vsr8fwzmfz1886kcfytzzg59zr5,3x0h8uuit51pt51a1oxfej65piqswj,83VTy1PC,2020-0188,2021-10-31,12:37:34,14:05:51,NA,incomplete,false,true,NA,NA,2,15,NA,black,m_l_004.jpg,NA,NA,NA,NA,NA,pleasant,unpleasant,NA,NA,NA,NA,NA,right,2001.11000007018,true,NA,NA,NA,NA,NA,NA,NA,NA
83VTy1PC,375vsr8fwzmfz1886kcfytzzg59zr5,3x0h8uuit51pt51a1oxfej65piqswj,83VTy1PC,2020-0188,2021-10-31,12:37:34,14:05:51,NA,incomplete,false,true,NA,NA,2,16,NA,black,n_l_033.jpg,NA,NA,NA,NA,NA,unpleasant,pleasant,NA,NA,NA,NA,NA,left,1432.98000004143,true,NA,NA,NA,NA,NA,NA,NA,NA
83VTy1PC,375vsr8fwzmfz1886kcfytzzg59zr5,3x0h8uuit51pt51a1oxfej65piqswj,83VTy1PC,2020-0188,2021-10-31,12:37:34,14:05:51,NA,incomplete,false,true,NA,NA,2,17,NA,black,m_s_042.jpg,NA,NA,NA,NA,NA,pleasant,unpleasant,NA,NA,NA,NA,NA,left,2120.50499999896,true,NA,NA,NA,NA,NA,NA,NA,NA
83VTy1PC,375vsr8fwzmfz1886kcfytzzg59zr5,3x0h8uuit51pt51a1oxfej65piqswj,83VTy1PC,2020-0188,2021-10-31,12:37:34,14:05:51,NA,incomplete,false,true,NA,NA,2,18,NA,orange,n_s_019.jpg,NA,NA,NA,NA,NA,pleasant,unpleasant,NA,NA,NA,NA,NA,left,2543.10499993153,true,NA,NA,NA,NA,NA,NA,NA,NA
83VTy1PC,375vsr8fwzmfz1886kcfytzzg59zr5,3x0h8uuit51pt51a1oxfej65piqswj,83VTy1PC,2020-0188,2021-10-31,12:37:34,14:05:51,NA,incomplete,false,true,NA,NA,2,19,NA,orange,n_l_022.jpg,NA,NA,NA,NA,NA,pleasant,unpleasant,NA,NA,NA,NA,NA,left,1901.53499995358,true,NA,NA,NA,NA,NA,NA,NA,NA
83VTy1PC,375vsr8fwzmfz1886kcfytzzg59zr5,3x0h8uuit51pt51a1oxfej65piqswj,83VTy1PC,2020-0188,2021-10-31,12:37:34,14:05:51,NA,incomplete,false,true,NA,NA,2,20,NA,orange,n_l_016.jpg,NA,NA,NA,NA,NA,unpleasant,pleasant,NA,NA,NA,NA,NA,left,1771.30499994382,true,NA,NA,NA,NA,NA,NA,NA,NA
83VTy1PC,375vsr8fwzmfz1886kcfytzzg59zr5,3x0h8uuit51pt51a1oxfej65piqswj,83VTy1PC,2020-0188,2021-10-31,12:37:34,14:05:51,NA,incomplete,false,true,NA,NA,2,21,NA,orange,m_l_020.jpg,NA,NA,NA,NA,NA,unpleasant,pleasant,NA,NA,NA,NA,NA,right,1841.87499992549,true,NA,NA,NA,NA,NA,NA,NA,NA
83VTy1PC,375vsr8fwzmfz1886kcfytzzg59zr5,3x0h8uuit51pt51a1oxfej65piqswj,83VTy1PC,2020-0188,2021-10-31,12:37:34,14:05:51,NA,incomplete,false,true,NA,NA,2,22,NA,orange,m_s_102.jpg,NA,NA,NA,NA,NA,unpleasant,pleasant,NA,NA,NA,NA,NA,right,1949.3599999696,true,NA,NA,NA,NA,NA,NA,NA,NA
83VTy1PC,375vsr8fwzmfz1886kcfytzzg59zr5,3x0h8uuit51pt51a1oxfej65piqswj,83VTy1PC,2020-0188,2021-10-31,12:37:34,14:05:51,NA,incomplete,false,true,NA,NA,2,23,NA,orange,n_l_084.jpg,NA,NA,NA,NA,NA,unpleasant,pleasant,NA,NA,NA,NA,NA,right,2420.18999997526,true,NA,NA,NA,NA,NA,NA,NA,NA
83VTy1PC,375vsr8fwzmfz1886kcfytzzg59zr5,3x0h8uuit51pt51a1oxfej65piqswj,83VTy1PC,2020-0188,2021-10-31,12:37:34,14:05:51,NA,incomplete,false,true,NA,NA,2,24,NA,brown,n_s_056.jpg,NA,NA,NA,NA,NA,pleasant,unpleasant,NA,NA,NA,NA,NA,right,2204.80499998666,true,NA,NA,NA,NA,NA,NA,NA,NA
83VTy1PC,375vsr8fwzmfz1886kcfytzzg59zr5,3x0h8uuit51pt51a1oxfej65piqswj,83VTy1PC,2020-0188,2021-10-31,12:37:34,14:05:51,NA,incomplete,false,true,NA,NA,2,25,NA,brown,n_s_025.jpg,NA,NA,NA,NA,NA,pleasant,unpleasant,NA,NA,NA,NA,NA,right,2458.45000003465,true,NA,NA,NA,NA,NA,NA,NA,NA
83VTy1PC,375vsr8fwzmfz1886kcfytzzg59zr5,3x0h8uuit51pt51a1oxfej65piqswj,83VTy1PC,2020-0188,2021-10-31,12:37:34,14:05:51,NA,incomplete,false,true,NA,NA,2,26,NA,brown,m_l_074.jpg,NA,NA,NA,NA,NA,pleasant,unpleasant,NA,NA,NA,NA,NA,left,1700.71499980986,true,NA,NA,NA,NA,NA,NA,NA,NA
83VTy1PC,375vsr8fwzmfz1886kcfytzzg59zr5,3x0h8uuit51pt51a1oxfej65piqswj,83VTy1PC,2020-0188,2021-10-31,12:37:34,14:05:51,NA,incomplete,false,true,NA,NA,2,27,NA,brown,n_l_064.jpg,NA,NA,NA,NA,NA,pleasant,unpleasant,NA,NA,NA,NA,NA,left,1565.58499997482,true,NA,NA,NA,NA,NA,NA,NA,NA
83VTy1PC,375vsr8fwzmfz1886kcfytzzg59zr5,3x0h8uuit51pt51a1oxfej65piqswj,83VTy1PC,2020-0188,2021-10-31,12:37:34,14:05:51,NA,incomplete,false,true,NA,NA,2,28,NA,brown,m_l_038.jpg,NA,NA,NA,NA,NA,unpleasant,pleasant,NA,NA,NA,NA,NA,right,1961.06500015594,true,NA,NA,NA,NA,NA,NA,NA,NA
83VTy1PC,375vsr8fwzmfz1886kcfytzzg59zr5,3x0h8uuit51pt51a1oxfej65piqswj,83VTy1PC,2020-0188,2021-10-31,12:37:34,14:05:51,NA,incomplete,false,true,NA,NA,2,29,NA,brown,n_l_112.jpg,NA,NA,NA,NA,NA,pleasant,unpleasant,NA,NA,NA,NA,NA,left,1698.75999982469,true,NA,NA,NA,NA,NA,NA,NA,NA
83VTy1PC,375vsr8fwzmfz1886kcfytzzg59zr5,3x0h8uuit51pt51a1oxfej65piqswj,83VTy1PC,2020-0188,2021-10-31,12:37:34,14:05:51,NA,incomplete,false,true,NA,NA,2,30,NA,white,m_l_045.jpg,NA,NA,NA,NA,NA,pleasant,unpleasant,NA,NA,NA,NA,NA,left,1902.71499985829,true,NA,NA,NA,NA,NA,NA,NA,NA
83VTy1PC,375vsr8fwzmfz1886kcfytzzg59zr5,3x0h8uuit51pt51a1oxfej65piqswj,83VTy1PC,2020-0188,2021-10-31,12:37:34,14:05:51,NA,incomplete,false,true,NA,NA,2,31,NA,white,n_s_018.jpg,NA,NA,NA,NA,NA,pleasant,unpleasant,NA,NA,NA,NA,NA,right,1685.00500009395,true,NA,NA,NA,NA,NA,NA,NA,NA
83VTy1PC,375vsr8fwzmfz1886kcfytzzg59zr5,3x0h8uuit51pt51a1oxfej65piqswj,83VTy1PC,2020-0188,2021-10-31,12:37:34,14:05:51,NA,incomplete,false,true,NA,NA,2,32,NA,white,m_s_041.jpg,NA,NA,NA,NA,NA,pleasant,unpleasant,NA,NA,NA,NA,NA,left,1990.41999992914,true,NA,NA,NA,NA,NA,NA,NA,NA
83VTy1PC,375vsr8fwzmfz1886kcfytzzg59zr5,3x0h8uuit51pt51a1oxfej65piqswj,83VTy1PC,2020-0188,2021-10-31,12:37:34,14:05:51,NA,incomplete,false,true,NA,NA,2,33,NA,white,n_l_005.jpg,NA,NA,NA,NA,NA,pleasant,unpleasant,NA,NA,NA,NA,NA,right,1689.1300000716,true,NA,NA,NA,NA,NA,NA,NA,NA
83VTy1PC,375vsr8fwzmfz1886kcfytzzg59zr5,3x0h8uuit51pt51a1oxfej65piqswj,83VTy1PC,2020-0188,2021-10-31,12:37:34,14:05:51,NA,incomplete,false,true,NA,NA,2,34,NA,white,n_s_022.jpg,NA,NA,NA,NA,NA,unpleasant,pleasant,NA,NA,NA,NA,NA,left,2152.89499983191,true,NA,NA,NA,NA,NA,NA,NA,NA
83VTy1PC,375vsr8fwzmfz1886kcfytzzg59zr5,3x0h8uuit51pt51a1oxfej65piqswj,83VTy1PC,2020-0188,2021-10-31,12:37:34,14:05:51,NA,incomplete,false,true,NA,NA,2,35,NA,white,n_l_103.jpg,NA,NA,NA,NA,NA,pleasant,unpleasant,NA,NA,NA,NA,NA,right,1385.93499991111,true,NA,NA,NA,NA,NA,NA,NA,NA
83VTy1PC,375vsr8fwzmfz1886kcfytzzg59zr5,3x0h8uuit51pt51a1oxfej65piqswj,83VTy1PC,2020-0188,2021-10-31,12:37:34,14:05:51,NA,incomplete,false,NA,NA,true,2,0,NA,NA,NA,right,n_l_022.jpg,black,orange,NA,NA,NA,NA,NA,NA,NA,NA,NA,NaN,NA,2453.579999972135,right,1,NA,NA,NA,NA,NA
83VTy1PC,375vsr8fwzmfz1886kcfytzzg59zr5,3x0h8uuit51pt51a1oxfej65piqswj,83VTy1PC,2020-0188,2021-10-31,12:37:34,14:05:51,NA,incomplete,false,NA,NA,true,2,1,NA,NA,NA,right,n_l_084.jpg,brown,orange,NA,NA,NA,NA,NA,NA,NA,NA,NA,NaN,NA,2789.070000173524,right,1,NA,NA,NA,NA,NA
83VTy1PC,375vsr8fwzmfz1886kcfytzzg59zr5,3x0h8uuit51pt51a1oxfej65piqswj,83VTy1PC,2020-0188,2021-10-31,12:37:34,14:05:51,NA,incomplete,false,NA,NA,true,2,2,NA,NA,NA,left,n_l_052.jpg,black,blue,NA,NA,NA,NA,NA,NA,NA,NA,NA,NaN,NA,1781.6800000146031,left,1,NA,NA,NA,NA,NA
83VTy1PC,375vsr8fwzmfz1886kcfytzzg59zr5,3x0h8uuit51pt51a1oxfej65piqswj,83VTy1PC,2020-0188,2021-10-31,12:37:34,14:05:51,NA,incomplete,false,NA,NA,true,2,3,NA,NA,NA,left,n_l_103.jpg,white,brown,NA,NA,NA,NA,NA,NA,NA,NA,NA,NaN,NA,2581.5449999645352,left,1,NA,NA,NA,NA,NA
83VTy1PC,375vsr8fwzmfz1886kcfytzzg59zr5,3x0h8uuit51pt51a1oxfej65piqswj,83VTy1PC,2020-0188,2021-10-31,12:37:34,14:05:51,NA,incomplete,false,NA,NA,true,2,4,NA,NA,NA,right,m_s_042.jpg,blue,black,NA,NA,NA,NA,NA,NA,NA,NA,NA,NaN,NA,2366.640000138432,right,1,NA,NA,NA,NA,NA
83VTy1PC,375vsr8fwzmfz1886kcfytzzg59zr5,3x0h8uuit51pt51a1oxfej65piqswj,83VTy1PC,2020-0188,2021-10-31,12:37:34,14:05:51,NA,incomplete,false,NA,NA,true,2,5,NA,NA,NA,right,m_s_012.jpg,blue,purple,NA,NA,NA,NA,NA,NA,NA,NA,NA,NaN,NA,3957.9950000625104,left,0,NA,NA,NA,NA,NA
83VTy1PC,375vsr8fwzmfz1886kcfytzzg59zr5,3x0h8uuit51pt51a1oxfej65piqswj,83VTy1PC,2020-0188,2021-10-31,12:37:34,14:05:51,NA,incomplete,false,NA,NA,true,2,6,NA,NA,NA,left,m_s_033.jpg,purple,blue,NA,NA,NA,NA,NA,NA,NA,NA,NA,NaN,NA,1742.7000000607222,right,0,NA,NA,NA,NA,NA
83VTy1PC,375vsr8fwzmfz1886kcfytzzg59zr5,3x0h8uuit51pt51a1oxfej65piqswj,83VTy1PC,2020-0188,2021-10-31,12:37:34,14:05:51,NA,incomplete,false,NA,NA,true,2,7,NA,NA,NA,left,n_l_112.jpg,brown,white,NA,NA,NA,NA,NA,NA,NA,NA,NA,NaN,NA,1845.2250000555068,left,1,NA,NA,NA,NA,NA
83VTy1PC,375vsr8fwzmfz1886kcfytzzg59zr5,3x0h8uuit51pt51a1oxfej65piqswj,83VTy1PC,2020-0188,2021-10-31,12:37:34,14:05:51,NA,incomplete,false,NA,NA,true,2,8,NA,NA,NA,left,n_l_014.jpg,purple,blue,NA,NA,NA,NA,NA,NA,NA,NA,NA,NaN,NA,2341.9899998698384,left,1,NA,NA,NA,NA,NA
83VTy1PC,375vsr8fwzmfz1886kcfytzzg59zr5,3x0h8uuit51pt51a1oxfej65piqswj,83VTy1PC,2020-0188,2021-10-31,12:37:34,14:05:51,NA,incomplete,false,NA,NA,true,2,9,NA,NA,NA,right,m_s_060.jpg,black,blue,NA,NA,NA,NA,NA,NA,NA,NA,NA,NaN,NA,1354.5750000048429,right,1,NA,NA,NA,NA,NA
83VTy1PC,375vsr8fwzmfz1886kcfytzzg59zr5,3x0h8uuit51pt51a1oxfej65piqswj,83VTy1PC,2020-0188,2021-10-31,12:37:34,14:05:51,NA,incomplete,false,NA,NA,true,2,10,NA,NA,NA,right,m_s_091.jpg,purple,blue,NA,NA,NA,NA,NA,NA,NA,NA,NA,NaN,NA,7558.510000118986,right,1,NA,NA,NA,NA,NA
83VTy1PC,375vsr8fwzmfz1886kcfytzzg59zr5,3x0h8uuit51pt51a1oxfej65piqswj,83VTy1PC,2020-0188,2021-10-31,12:37:34,14:05:51,NA,incomplete,false,NA,NA,true,2,11,NA,NA,NA,right,n_l_060.jpg,purple,blue,NA,NA,NA,NA,NA,NA,NA,NA,NA,NaN,NA,3302.499999990687,right,1,NA,NA,NA,NA,NA
83VTy1PC,375vsr8fwzmfz1886kcfytzzg59zr5,3x0h8uuit51pt51a1oxfej65piqswj,83VTy1PC,2020-0188,2021-10-31,12:37:34,14:05:51,NA,incomplete,false,NA,NA,true,2,12,NA,NA,NA,right,n_s_018.jpg,brown,white,NA,NA,NA,NA,NA,NA,NA,NA,NA,NaN,NA,1741.9050000607967,right,1,NA,NA,NA,NA,NA
83VTy1PC,375vsr8fwzmfz1886kcfytzzg59zr5,3x0h8uuit51pt51a1oxfej65piqswj,83VTy1PC,2020-0188,2021-10-31,12:37:34,14:05:51,NA,incomplete,false,NA,NA,true,2,13,NA,NA,NA,right,m_l_038.jpg,white,brown,NA,NA,NA,NA,NA,NA,NA,NA,NA,NaN,NA,1638.814999954775,right,1,NA,NA,NA,NA,NA
83VTy1PC,375vsr8fwzmfz1886kcfytzzg59zr5,3x0h8uuit51pt51a1oxfej65piqswj,83VTy1PC,2020-0188,2021-10-31,12:37:34,14:05:51,NA,incomplete,false,NA,NA,true,2,14,NA,NA,NA,left,n_l_016.jpg,orange,black,NA,NA,NA,NA,NA,NA,NA,NA,NA,NaN,NA,4935.384999960661,right,0,NA,NA,NA,NA,NA
83VTy1PC,375vsr8fwzmfz1886kcfytzzg59zr5,3x0h8uuit51pt51a1oxfej65piqswj,83VTy1PC,2020-0188,2021-10-31,12:37:34,14:05:51,NA,incomplete,false,NA,NA,true,2,15,NA,NA,NA,left,m_s_102.jpg,orange,black,NA,NA,NA,NA,NA,NA,NA,NA,NA,NaN,NA,2341.6999999899417,left,1,NA,NA,NA,NA,NA
83VTy1PC,375vsr8fwzmfz1886kcfytzzg59zr5,3x0h8uuit51pt51a1oxfej65piqswj,83VTy1PC,2020-0188,2021-10-31,12:37:34,14:05:51,NA,incomplete,false,NA,NA,true,2,16,NA,NA,NA,left,m_l_037.jpg,blue,black,NA,NA,NA,NA,NA,NA,NA,NA,NA,NaN,NA,1582.7099999878556,left,1,NA,NA,NA,NA,NA
83VTy1PC,375vsr8fwzmfz1886kcfytzzg59zr5,3x0h8uuit51pt51a1oxfej65piqswj,83VTy1PC,2020-0188,2021-10-31,12:37:34,14:05:51,NA,incomplete,false,NA,NA,true,2,17,NA,NA,NA,right,m_s_041.jpg,brown,white,NA,NA,NA,NA,NA,NA,NA,NA,NA,NaN,NA,1622.4799999035895,right,1,NA,NA,NA,NA,NA
83VTy1PC,375vsr8fwzmfz1886kcfytzzg59zr5,3x0h8uuit51pt51a1oxfej65piqswj,83VTy1PC,2020-0188,2021-10-31,12:37:34,14:05:51,NA,incomplete,false,NA,NA,true,2,18,NA,NA,NA,right,m_l_074.jpg,orange,brown,NA,NA,NA,NA,NA,NA,NA,NA,NA,NaN,NA,2910.080000059679,right,1,NA,NA,NA,NA,NA
83VTy1PC,375vsr8fwzmfz1886kcfytzzg59zr5,3x0h8uuit51pt51a1oxfej65piqswj,83VTy1PC,2020-0188,2021-10-31,12:37:34,14:05:51,NA,incomplete,false,NA,NA,true,2,19,NA,NA,NA,left,m_l_070.jpg,black,orange,NA,NA,NA,NA,NA,NA,NA,NA,NA,NaN,NA,1462.050000205636,left,1,NA,NA,NA,NA,NA
83VTy1PC,375vsr8fwzmfz1886kcfytzzg59zr5,3x0h8uuit51pt51a1oxfej65piqswj,83VTy1PC,2020-0188,2021-10-31,12:37:34,14:05:51,NA,incomplete,false,NA,NA,true,2,20,NA,NA,NA,right,n_l_033.jpg,orange,black,NA,NA,NA,NA,NA,NA,NA,NA,NA,NaN,NA,1549.3549997918308,right,1,NA,NA,NA,NA,NA
83VTy1PC,375vsr8fwzmfz1886kcfytzzg59zr5,3x0h8uuit51pt51a1oxfej65piqswj,83VTy1PC,2020-0188,2021-10-31,12:37:34,14:05:51,NA,incomplete,false,NA,NA,true,2,21,NA,NA,NA,right,n_s_025.jpg,orange,brown,NA,NA,NA,NA,NA,NA,NA,NA,NA,NaN,NA,2589.7450000047684,right,1,NA,NA,NA,NA,NA
83VTy1PC,375vsr8fwzmfz1886kcfytzzg59zr5,3x0h8uuit51pt51a1oxfej65piqswj,83VTy1PC,2020-0188,2021-10-31,12:37:34,14:05:51,NA,incomplete,false,NA,true,NA,2,0,NA,NA,NA,right,NA,NA,NA,absent,NA,NA,m_s_042.jpg,black,m_l_070.jpg,black,within,NA,NaN,NA,NA,NA,NA,left,3835.2250000461936,0,2,2678.849999792874
83VTy1PC,375vsr8fwzmfz1886kcfytzzg59zr5,3x0h8uuit51pt51a1oxfej65piqswj,83VTy1PC,2020-0188,2021-10-31,12:37:34,14:05:51,NA,incomplete,false,NA,true,NA,2,1,NA,NA,NA,left,NA,NA,NA,absent,NA,NA,n_l_022.jpg,orange,n_l_084.jpg,orange,within,NA,NaN,NA,NA,NA,NA,left,3525.3299998585135,1,3,4212.679999880493
83VTy1PC,375vsr8fwzmfz1886kcfytzzg59zr5,3x0h8uuit51pt51a1oxfej65piqswj,83VTy1PC,2020-0188,2021-10-31,12:37:34,14:05:51,NA,incomplete,false,NA,true,NA,2,2,NA,NA,NA,left,NA,NA,NA,absent,NA,NA,m_s_091.jpg,blue,n_l_052.jpg,black,between,NA,NaN,NA,NA,NA,NA,left,2310.880000004545,1,2,1118.165000109002
83VTy1PC,375vsr8fwzmfz1886kcfytzzg59zr5,3x0h8uuit51pt51a1oxfej65piqswj,83VTy1PC,2020-0188,2021-10-31,12:37:34,14:05:51,NA,incomplete,false,NA,true,NA,2,3,NA,NA,NA,left,NA,NA,NA,absent,NA,NA,m_l_038.jpg,brown,m_s_041.jpg,white,between,NA,NaN,NA,NA,NA,NA,left,2110.534999985248,1,1,1765.845000045374
83VTy1PC,375vsr8fwzmfz1886kcfytzzg59zr5,3x0h8uuit51pt51a1oxfej65piqswj,83VTy1PC,2020-0188,2021-10-31,12:37:34,14:05:51,NA,incomplete,false,NA,true,NA,2,4,NA,NA,NA,right,NA,NA,NA,absent,NA,NA,m_l_074.jpg,brown,m_s_102.jpg,orange,between,NA,NaN,NA,NA,NA,NA,left,2153.7600001320243,0,3,3268.1149998679757
83VTy1PC,375vsr8fwzmfz1886kcfytzzg59zr5,3x0h8uuit51pt51a1oxfej65piqswj,83VTy1PC,2020-0188,2021-10-31,12:37:34,14:05:51,NA,incomplete,false,NA,true,NA,2,5,NA,NA,NA,left,NA,NA,NA,absent,NA,NA,m_s_012.jpg,purple,n_l_014.jpg,purple,within,NA,NaN,NA,NA,NA,NA,right,6030.740000074729,0,1,1518.614999949932
83VTy1PC,375vsr8fwzmfz1886kcfytzzg59zr5,3x0h8uuit51pt51a1oxfej65piqswj,83VTy1PC,2020-0188,2021-10-31,12:37:34,14:05:51,NA,incomplete,false,NA,true,NA,2,6,NA,NA,NA,right,NA,NA,NA,absent,NA,NA,n_l_103.jpg,white,n_s_018.jpg,white,within,NA,NaN,NA,NA,NA,NA,left,1415.210000006482,0,2,2310.910000000149
83VTy1PC,375vsr8fwzmfz1886kcfytzzg59zr5,3x0h8uuit51pt51a1oxfej65piqswj,83VTy1PC,2020-0188,2021-10-31,12:37:34,14:05:51,NA,incomplete,false,NA,true,NA,2,7,NA,NA,NA,left,NA,NA,NA,absent,NA,NA,n_l_033.jpg,black,n_l_016.jpg,orange,between,NA,NaN,NA,NA,NA,NA,left,1901.784999994561,1,1,2741.629999829456
83VTy1PC,375vsr8fwzmfz1886kcfytzzg59zr5,3x0h8uuit51pt51a1oxfej65piqswj,83VTy1PC,2020-0188,2021-10-31,12:37:34,14:05:51,NA,incomplete,false,NA,true,NA,2,8,NA,NA,NA,left,NA,NA,NA,absent,NA,NA,m_s_033.jpg,purple,m_l_037.jpg,blue,between,NA,NaN,NA,NA,NA,NA,right,1766.7650000657886,0,2,1381.264999974519
83VTy1PC,375vsr8fwzmfz1886kcfytzzg59zr5,3x0h8uuit51pt51a1oxfej65piqswj,83VTy1PC,2020-0188,2021-10-31,12:37:34,14:05:51,NA,incomplete,false,NA,true,NA,2,9,NA,NA,NA,left,NA,NA,NA,absent,NA,NA,n_l_060.jpg,blue,m_s_060.jpg,blue,within,NA,NaN,NA,NA,NA,NA,right,1862.6149999909103,0,2,3710.0799998734146
83VTy1PC,375vsr8fwzmfz1886kcfytzzg59zr5,3x0h8uuit51pt51a1oxfej65piqswj,83VTy1PC,2020-0188,2021-10-31,12:37:34,14:05:51,NA,incomplete,false,NA,true,NA,2,10,NA,NA,NA,left,NA,NA,NA,absent,NA,NA,n_s_025.jpg,brown,n_l_112.jpg,brown,within,NA,NaN,NA,NA,NA,NA,right,1791.484999936074,0,3,886.7950001731515
83VTy1PC,375vsr8fwzmfz1886kcfytzzg59zr5,3x0h8uuit51pt51a1oxfej65piqswj,83VTy1PC,2020-0188,2021-10-31,12:37:34,14:05:51,NA,incomplete,false,true,NA,NA,3,0,NA,black,m_s_073.jpg,NA,NA,NA,NA,NA,pleasant,unpleasant,NA,NA,NA,NA,NA,right,2109.75000006147,true,NA,NA,NA,NA,NA,NA,NA,NA
83VTy1PC,375vsr8fwzmfz1886kcfytzzg59zr5,3x0h8uuit51pt51a1oxfej65piqswj,83VTy1PC,2020-0188,2021-10-31,12:37:34,14:05:51,NA,incomplete,false,true,NA,NA,3,1,NA,black,n_s_007.jpg,NA,NA,NA,NA,NA,pleasant,unpleasant,NA,NA,NA,NA,NA,right,2236.30500002764,true,NA,NA,NA,NA,NA,NA,NA,NA
83VTy1PC,375vsr8fwzmfz1886kcfytzzg59zr5,3x0h8uuit51pt51a1oxfej65piqswj,83VTy1PC,2020-0188,2021-10-31,12:37:34,14:05:51,NA,incomplete,false,true,NA,NA,3,2,NA,black,n_l_010.jpg,NA,NA,NA,NA,NA,unpleasant,pleasant,NA,NA,NA,NA,NA,left,1956.68999990448,true,NA,NA,NA,NA,NA,NA,NA,NA
83VTy1PC,375vsr8fwzmfz1886kcfytzzg59zr5,3x0h8uuit51pt51a1oxfej65piqswj,83VTy1PC,2020-0188,2021-10-31,12:37:34,14:05:51,NA,incomplete,false,true,NA,NA,3,3,NA,black,m_s_036.jpg,NA,NA,NA,NA,NA,pleasant,unpleasant,NA,NA,NA,NA,NA,left,1877.38499999978,true,NA,NA,NA,NA,NA,NA,NA,NA
83VTy1PC,375vsr8fwzmfz1886kcfytzzg59zr5,3x0h8uuit51pt51a1oxfej65piqswj,83VTy1PC,2020-0188,2021-10-31,12:37:34,14:05:51,NA,incomplete,false,true,NA,NA,3,4,NA,black,n_l_105.jpg,NA,NA,NA,NA,NA,pleasant,unpleasant,NA,NA,NA,NA,NA,right,1380.24500012398,true,NA,NA,NA,NA,NA,NA,NA,NA
83VTy1PC,375vsr8fwzmfz1886kcfytzzg59zr5,3x0h8uuit51pt51a1oxfej65piqswj,83VTy1PC,2020-0188,2021-10-31,12:37:34,14:05:51,NA,incomplete,false,true,NA,NA,3,5,NA,black,n_s_039.jpg,NA,NA,NA,NA,NA,pleasant,unpleasant,NA,NA,NA,NA,NA,right,1315.67000015639,true,NA,NA,NA,NA,NA,NA,NA,NA
83VTy1PC,375vsr8fwzmfz1886kcfytzzg59zr5,3x0h8uuit51pt51a1oxfej65piqswj,83VTy1PC,2020-0188,2021-10-31,12:37:34,14:05:51,NA,incomplete,false,true,NA,NA,3,6,NA,gray,n_s_008.jpg,NA,NA,NA,NA,NA,pleasant,unpleasant,NA,NA,NA,NA,NA,right,1536.88000002876,true,NA,NA,NA,NA,NA,NA,NA,NA
83VTy1PC,375vsr8fwzmfz1886kcfytzzg59zr5,3x0h8uuit51pt51a1oxfej65piqswj,83VTy1PC,2020-0188,2021-10-31,12:37:34,14:05:51,NA,incomplete,false,true,NA,NA,3,7,NA,gray,m_s_101.jpg,NA,NA,NA,NA,NA,unpleasant,pleasant,NA,NA,NA,NA,NA,left,2550.41999998502,true,NA,NA,NA,NA,NA,NA,NA,NA
83VTy1PC,375vsr8fwzmfz1886kcfytzzg59zr5,3x0h8uuit51pt51a1oxfej65piqswj,83VTy1PC,2020-0188,2021-10-31,12:37:34,14:05:51,NA,incomplete,false,true,NA,NA,3,8,NA,gray,n_s_053.jpg,NA,NA,NA,NA,NA,unpleasant,pleasant,NA,NA,NA,NA,NA,left,1594.16999993846,true,NA,NA,NA,NA,NA,NA,NA,NA
83VTy1PC,375vsr8fwzmfz1886kcfytzzg59zr5,3x0h8uuit51pt51a1oxfej65piqswj,83VTy1PC,2020-0188,2021-10-31,12:37:34,14:05:51,NA,incomplete,false,true,NA,NA,3,9,NA,gray,n_s_055.jpg,NA,NA,NA,NA,NA,pleasant,unpleasant,NA,NA,NA,NA,NA,left,2128.93999996595,true,NA,NA,NA,NA,NA,NA,NA,NA
83VTy1PC,375vsr8fwzmfz1886kcfytzzg59zr5,3x0h8uuit51pt51a1oxfej65piqswj,83VTy1PC,2020-0188,2021-10-31,12:37:34,14:05:51,NA,incomplete,false,true,NA,NA,3,10,NA,gray,m_l_094.jpg,NA,NA,NA,NA,NA,pleasant,unpleasant,NA,NA,NA,NA,NA,right,1802.87499981932,true,NA,NA,NA,NA,NA,NA,NA,NA
83VTy1PC,375vsr8fwzmfz1886kcfytzzg59zr5,3x0h8uuit51pt51a1oxfej65piqswj,83VTy1PC,2020-0188,2021-10-31,12:37:34,14:05:51,NA,incomplete,false,true,NA,NA,3,11,NA,gray,m_s_059.jpg,NA,NA,NA,NA,NA,pleasant,unpleasant,NA,NA,NA,NA,NA,left,1892.66999997199,true,NA,NA,NA,NA,NA,NA,NA,NA
83VTy1PC,375vsr8fwzmfz1886kcfytzzg59zr5,3x0h8uuit51pt51a1oxfej65piqswj,83VTy1PC,2020-0188,2021-10-31,12:37:34,14:05:51,NA,incomplete,false,true,NA,NA,3,12,NA,green,m_s_020.jpg,NA,NA,NA,NA,NA,unpleasant,pleasant,NA,NA,NA,NA,NA,left,2104.41499995068,true,NA,NA,NA,NA,NA,NA,NA,NA
83VTy1PC,375vsr8fwzmfz1886kcfytzzg59zr5,3x0h8uuit51pt51a1oxfej65piqswj,83VTy1PC,2020-0188,2021-10-31,12:37:34,14:05:51,NA,incomplete,false,true,NA,NA,3,13,NA,green,n_s_112.jpg,NA,NA,NA,NA,NA,pleasant,unpleasant,NA,NA,NA,NA,NA,left,1837.12000004016,true,NA,NA,NA,NA,NA,NA,NA,NA
83VTy1PC,375vsr8fwzmfz1886kcfytzzg59zr5,3x0h8uuit51pt51a1oxfej65piqswj,83VTy1PC,2020-0188,2021-10-31,12:37:34,14:05:51,NA,incomplete,false,true,NA,NA,3,14,NA,green,n_l_034.jpg,NA,NA,NA,NA,NA,pleasant,unpleasant,NA,NA,NA,NA,NA,left,1271.420000121,true,NA,NA,NA,NA,NA,NA,NA,NA
83VTy1PC,375vsr8fwzmfz1886kcfytzzg59zr5,3x0h8uuit51pt51a1oxfej65piqswj,83VTy1PC,2020-0188,2021-10-31,12:37:34,14:05:51,NA,incomplete,false,true,NA,NA,3,15,NA,green,m_s_070.jpg,NA,NA,NA,NA,NA,pleasant,unpleasant,NA,NA,NA,NA,NA,right,1639.9799999781,true,NA,NA,NA,NA,NA,NA,NA,NA
83VTy1PC,375vsr8fwzmfz1886kcfytzzg59zr5,3x0h8uuit51pt51a1oxfej65piqswj,83VTy1PC,2020-0188,2021-10-31,12:37:34,14:05:51,NA,incomplete,false,true,NA,NA,3,16,NA,green,n_s_102.jpg,NA,NA,NA,NA,NA,unpleasant,pleasant,NA,NA,NA,NA,NA,right,2031.10000002198,true,NA,NA,NA,NA,NA,NA,NA,NA
83VTy1PC,375vsr8fwzmfz1886kcfytzzg59zr5,3x0h8uuit51pt51a1oxfej65piqswj,83VTy1PC,2020-0188,2021-10-31,12:37:34,14:05:51,NA,incomplete,false,true,NA,NA,3,17,NA,green,m_s_071.jpg,NA,NA,NA,NA,NA,pleasant,unpleasant,NA,NA,NA,NA,NA,left,2006.02500000969,true,NA,NA,NA,NA,NA,NA,NA,NA
83VTy1PC,375vsr8fwzmfz1886kcfytzzg59zr5,3x0h8uuit51pt51a1oxfej65piqswj,83VTy1PC,2020-0188,2021-10-31,12:37:34,14:05:51,NA,incomplete,false,true,NA,NA,3,18,NA,orange,n_l_007.jpg,NA,NA,NA,NA,NA,pleasant,unpleasant,NA,NA,NA,NA,NA,left,1888.08499998413,true,NA,NA,NA,NA,NA,NA,NA,NA
83VTy1PC,375vsr8fwzmfz1886kcfytzzg59zr5,3x0h8uuit51pt51a1oxfej65piqswj,83VTy1PC,2020-0188,2021-10-31,12:37:34,14:05:51,NA,incomplete,false,true,NA,NA,3,19,NA,orange,n_s_111.jpg,NA,NA,NA,NA,NA,unpleasant,pleasant,NA,NA,NA,NA,NA,left,2455.4000000935,true,NA,NA,NA,NA,NA,NA,NA,NA
83VTy1PC,375vsr8fwzmfz1886kcfytzzg59zr5,3x0h8uuit51pt51a1oxfej65piqswj,83VTy1PC,2020-0188,2021-10-31,12:37:34,14:05:51,NA,incomplete,false,true,NA,NA,3,20,NA,orange,m_s_035.jpg,NA,NA,NA,NA,NA,pleasant,unpleasant,NA,NA,NA,NA,NA,right,2140.48999990337,true,NA,NA,NA,NA,NA,NA,NA,NA
83VTy1PC,375vsr8fwzmfz1886kcfytzzg59zr5,3x0h8uuit51pt51a1oxfej65piqswj,83VTy1PC,2020-0188,2021-10-31,12:37:34,14:05:51,NA,incomplete,false,true,NA,NA,3,21,NA,orange,n_l_041.jpg,NA,NA,NA,NA,NA,unpleasant,pleasant,NA,NA,NA,NA,NA,left,1740.11000012979,true,NA,NA,NA,NA,NA,NA,NA,NA
83VTy1PC,375vsr8fwzmfz1886kcfytzzg59zr5,3x0h8uuit51pt51a1oxfej65piqswj,83VTy1PC,2020-0188,2021-10-31,12:37:34,14:05:51,NA,incomplete,false,true,NA,NA,3,22,NA,orange,n_s_115.jpg,NA,NA,NA,NA,NA,pleasant,unpleasant,NA,NA,NA,NA,NA,right,1735.40000012144,true,NA,NA,NA,NA,NA,NA,NA,NA
83VTy1PC,375vsr8fwzmfz1886kcfytzzg59zr5,3x0h8uuit51pt51a1oxfej65piqswj,83VTy1PC,2020-0188,2021-10-31,12:37:34,14:05:51,NA,incomplete,false,true,NA,NA,3,23,NA,orange,n_s_029.jpg,NA,NA,NA,NA,NA,unpleasant,pleasant,NA,NA,NA,NA,NA,right,1957.81499985605,true,NA,NA,NA,NA,NA,NA,NA,NA
83VTy1PC,375vsr8fwzmfz1886kcfytzzg59zr5,3x0h8uuit51pt51a1oxfej65piqswj,83VTy1PC,2020-0188,2021-10-31,12:37:34,14:05:51,NA,incomplete,false,true,NA,NA,3,24,NA,blue,m_l_024.jpg,NA,NA,NA,NA,NA,unpleasant,pleasant,NA,NA,NA,NA,NA,right,1561.26499990933,true,NA,NA,NA,NA,NA,NA,NA,NA
83VTy1PC,375vsr8fwzmfz1886kcfytzzg59zr5,3x0h8uuit51pt51a1oxfej65piqswj,83VTy1PC,2020-0188,2021-10-31,12:37:34,14:05:51,NA,incomplete,false,true,NA,NA,3,25,NA,blue,m_l_108.jpg,NA,NA,NA,NA,NA,unpleasant,pleasant,NA,NA,NA,NA,NA,right,1733.7899999693,true,NA,NA,NA,NA,NA,NA,NA,NA
83VTy1PC,375vsr8fwzmfz1886kcfytzzg59zr5,3x0h8uuit51pt51a1oxfej65piqswj,83VTy1PC,2020-0188,2021-10-31,12:37:34,14:05:51,NA,incomplete,false,true,NA,NA,3,26,NA,blue,n_l_069.jpg,NA,NA,NA,NA,NA,unpleasant,pleasant,NA,NA,NA,NA,NA,left,973.930000094697,true,NA,NA,NA,NA,NA,NA,NA,NA
83VTy1PC,375vsr8fwzmfz1886kcfytzzg59zr5,3x0h8uuit51pt51a1oxfej65piqswj,83VTy1PC,2020-0188,2021-10-31,12:37:34,14:05:51,NA,incomplete,false,true,NA,NA,3,27,NA,blue,m_s_085.jpg,NA,NA,NA,NA,NA,pleasant,unpleasant,NA,NA,NA,NA,NA,left,1600.51999986172,true,NA,NA,NA,NA,NA,NA,NA,NA
83VTy1PC,375vsr8fwzmfz1886kcfytzzg59zr5,3x0h8uuit51pt51a1oxfej65piqswj,83VTy1PC,2020-0188,2021-10-31,12:37:34,14:05:51,NA,incomplete,false,true,NA,NA,3,28,NA,blue,n_l_077.jpg,NA,NA,NA,NA,NA,pleasant,unpleasant,NA,NA,NA,NA,NA,right,1343.61499990337,true,NA,NA,NA,NA,NA,NA,NA,NA
83VTy1PC,375vsr8fwzmfz1886kcfytzzg59zr5,3x0h8uuit51pt51a1oxfej65piqswj,83VTy1PC,2020-0188,2021-10-31,12:37:34,14:05:51,NA,incomplete,false,true,NA,NA,3,29,NA,blue,n_l_040.jpg,NA,NA,NA,NA,NA,unpleasant,pleasant,NA,NA,NA,NA,NA,left,1691.11999985762,true,NA,NA,NA,NA,NA,NA,NA,NA
83VTy1PC,375vsr8fwzmfz1886kcfytzzg59zr5,3x0h8uuit51pt51a1oxfej65piqswj,83VTy1PC,2020-0188,2021-10-31,12:37:34,14:05:51,NA,incomplete,false,true,NA,NA,3,30,NA,purple,m_s_032.jpg,NA,NA,NA,NA,NA,pleasant,unpleasant,NA,NA,NA,NA,NA,left,2314.05499996617,true,NA,NA,NA,NA,NA,NA,NA,NA
83VTy1PC,375vsr8fwzmfz1886kcfytzzg59zr5,3x0h8uuit51pt51a1oxfej65piqswj,83VTy1PC,2020-0188,2021-10-31,12:37:34,14:05:51,NA,incomplete,false,true,NA,NA,3,31,NA,purple,m_l_103.jpg,NA,NA,NA,NA,NA,pleasant,unpleasant,NA,NA,NA,NA,NA,left,1802.57500009611,true,NA,NA,NA,NA,NA,NA,NA,NA
83VTy1PC,375vsr8fwzmfz1886kcfytzzg59zr5,3x0h8uuit51pt51a1oxfej65piqswj,83VTy1PC,2020-0188,2021-10-31,12:37:34,14:05:51,NA,incomplete,false,true,NA,NA,3,32,NA,purple,m_l_090.jpg,NA,NA,NA,NA,NA,pleasant,unpleasant,NA,NA,NA,NA,NA,right,1937.08499986678,true,NA,NA,NA,NA,NA,NA,NA,NA
83VTy1PC,375vsr8fwzmfz1886kcfytzzg59zr5,3x0h8uuit51pt51a1oxfej65piqswj,83VTy1PC,2020-0188,2021-10-31,12:37:34,14:05:51,NA,incomplete,false,true,NA,NA,3,33,NA,purple,n_s_082.jpg,NA,NA,NA,NA,NA,pleasant,unpleasant,NA,NA,NA,NA,NA,left,1699.26499994472,true,NA,NA,NA,NA,NA,NA,NA,NA
83VTy1PC,375vsr8fwzmfz1886kcfytzzg59zr5,3x0h8uuit51pt51a1oxfej65piqswj,83VTy1PC,2020-0188,2021-10-31,12:37:34,14:05:51,NA,incomplete,false,true,NA,NA,3,34,NA,purple,m_l_063.jpg,NA,NA,NA,NA,NA,unpleasant,pleasant,NA,NA,NA,NA,NA,right,1667.49999998137,true,NA,NA,NA,NA,NA,NA,NA,NA
83VTy1PC,375vsr8fwzmfz1886kcfytzzg59zr5,3x0h8uuit51pt51a1oxfej65piqswj,83VTy1PC,2020-0188,2021-10-31,12:37:34,14:05:51,NA,incomplete,false,true,NA,NA,3,35,NA,purple,n_l_008.jpg,NA,NA,NA,NA,NA,unpleasant,pleasant,NA,NA,NA,NA,NA,left,1576.56000019051,true,NA,NA,NA,NA,NA,NA,NA,NA
83VTy1PC,375vsr8fwzmfz1886kcfytzzg59zr5,3x0h8uuit51pt51a1oxfej65piqswj,83VTy1PC,2020-0188,2021-10-31,12:37:34,14:05:51,NA,incomplete,false,NA,NA,true,3,0,NA,NA,NA,left,m_l_103.jpg,purple,blue,NA,NA,NA,NA,NA,NA,NA,NA,NA,NaN,NA,2256.3650000374764,left,1,NA,NA,NA,NA,NA
83VTy1PC,375vsr8fwzmfz1886kcfytzzg59zr5,3x0h8uuit51pt51a1oxfej65piqswj,83VTy1PC,2020-0188,2021-10-31,12:37:34,14:05:51,NA,incomplete,false,NA,NA,true,3,1,NA,NA,NA,left,m_s_035.jpg,orange,blue,NA,NA,NA,NA,NA,NA,NA,NA,NA,NaN,NA,3893.739999970421,left,1,NA,NA,NA,NA,NA
83VTy1PC,375vsr8fwzmfz1886kcfytzzg59zr5,3x0h8uuit51pt51a1oxfej65piqswj,83VTy1PC,2020-0188,2021-10-31,12:37:34,14:05:51,NA,incomplete,false,NA,NA,true,3,2,NA,NA,NA,left,n_s_102.jpg,green,gray,NA,NA,NA,NA,NA,NA,NA,NA,NA,NaN,NA,1702.064999844879,left,1,NA,NA,NA,NA,NA
83VTy1PC,375vsr8fwzmfz1886kcfytzzg59zr5,3x0h8uuit51pt51a1oxfej65piqswj,83VTy1PC,2020-0188,2021-10-31,12:37:34,14:05:51,NA,incomplete,false,NA,NA,true,3,3,NA,NA,NA,left,n_l_034.jpg,green,gray,NA,NA,NA,NA,NA,NA,NA,NA,NA,NaN,NA,2054.4050000607967,left,1,NA,NA,NA,NA,NA
83VTy1PC,375vsr8fwzmfz1886kcfytzzg59zr5,3x0h8uuit51pt51a1oxfej65piqswj,83VTy1PC,2020-0188,2021-10-31,12:37:34,14:05:51,NA,incomplete,false,NA,NA,true,3,4,NA,NA,NA,left,n_l_077.jpg,blue,orange,NA,NA,NA,NA,NA,NA,NA,NA,NA,NaN,NA,6261.754999868572,left,1,NA,NA,NA,NA,NA
83VTy1PC,375vsr8fwzmfz1886kcfytzzg59zr5,3x0h8uuit51pt51a1oxfej65piqswj,83VTy1PC,2020-0188,2021-10-31,12:37:34,14:05:51,NA,incomplete,false,NA,NA,true,3,5,NA,NA,NA,left,n_s_111.jpg,orange,green,NA,NA,NA,NA,NA,NA,NA,NA,NA,NaN,NA,2765.235000057146,right,0,NA,NA,NA,NA,NA
83VTy1PC,375vsr8fwzmfz1886kcfytzzg59zr5,3x0h8uuit51pt51a1oxfej65piqswj,83VTy1PC,2020-0188,2021-10-31,12:37:34,14:05:51,NA,incomplete,false,NA,NA,true,3,6,NA,NA,NA,left,n_s_029.jpg,orange,blue,NA,NA,NA,NA,NA,NA,NA,NA,NA,NaN,NA,2805.015000049025,left,1,NA,NA,NA,NA,NA
83VTy1PC,375vsr8fwzmfz1886kcfytzzg59zr5,3x0h8uuit51pt51a1oxfej65piqswj,83VTy1PC,2020-0188,2021-10-31,12:37:34,14:05:51,NA,incomplete,false,NA,NA,true,3,7,NA,NA,NA,left,n_l_105.jpg,black,gray,NA,NA,NA,NA,NA,NA,NA,NA,NA,NaN,NA,3830.485000042245,left,1,NA,NA,NA,NA,NA
83VTy1PC,375vsr8fwzmfz1886kcfytzzg59zr5,3x0h8uuit51pt51a1oxfej65piqswj,83VTy1PC,2020-0188,2021-10-31,12:37:34,14:05:51,NA,incomplete,false,NA,NA,true,3,8,NA,NA,NA,right,n_s_053.jpg,green,gray,NA,NA,NA,NA,NA,NA,NA,NA,NA,NaN,NA,3165.2699999976903,left,0,NA,NA,NA,NA,NA
83VTy1PC,375vsr8fwzmfz1886kcfytzzg59zr5,3x0h8uuit51pt51a1oxfej65piqswj,83VTy1PC,2020-0188,2021-10-31,12:37:34,14:05:51,NA,incomplete,false,NA,NA,true,3,9,NA,NA,NA,right,m_s_071.jpg,gray,green,NA,NA,NA,NA,NA,NA,NA,NA,NA,NaN,NA,1712.0099999010563,right,1,NA,NA,NA,NA,NA
83VTy1PC,375vsr8fwzmfz1886kcfytzzg59zr5,3x0h8uuit51pt51a1oxfej65piqswj,83VTy1PC,2020-0188,2021-10-31,12:37:34,14:05:51,NA,incomplete,false,NA,NA,true,3,10,NA,NA,NA,left,n_l_040.jpg,blue,purple,NA,NA,NA,NA,NA,NA,NA,NA,NA,NaN,NA,1838.3649999741465,left,1,NA,NA,NA,NA,NA
83VTy1PC,375vsr8fwzmfz1886kcfytzzg59zr5,3x0h8uuit51pt51a1oxfej65piqswj,83VTy1PC,2020-0188,2021-10-31,12:37:34,14:05:51,NA,incomplete,false,NA,NA,true,3,11,NA,NA,NA,left,m_s_101.jpg,gray,green,NA,NA,NA,NA,NA,NA,NA,NA,NA,NaN,NA,1478.110000025481,left,1,NA,NA,NA,NA,NA
83VTy1PC,375vsr8fwzmfz1886kcfytzzg59zr5,3x0h8uuit51pt51a1oxfej65piqswj,83VTy1PC,2020-0188,2021-10-31,12:37:34,14:05:51,NA,incomplete,false,NA,NA,true,3,12,NA,NA,NA,right,n_l_008.jpg,blue,purple,NA,NA,NA,NA,NA,NA,NA,NA,NA,NaN,NA,3134.3950000591576,right,1,NA,NA,NA,NA,NA
83VTy1PC,375vsr8fwzmfz1886kcfytzzg59zr5,3x0h8uuit51pt51a1oxfej65piqswj,83VTy1PC,2020-0188,2021-10-31,12:37:34,14:05:51,NA,incomplete,false,NA,NA,true,3,13,NA,NA,NA,right,n_s_115.jpg,green,orange,NA,NA,NA,NA,NA,NA,NA,NA,NA,NaN,NA,2166.579999960959,right,1,NA,NA,NA,NA,NA
83VTy1PC,375vsr8fwzmfz1886kcfytzzg59zr5,3x0h8uuit51pt51a1oxfej65piqswj,83VTy1PC,2020-0188,2021-10-31,12:37:34,14:05:51,NA,incomplete,false,NA,NA,true,3,14,NA,NA,NA,left,m_s_059.jpg,gray,green,NA,NA,NA,NA,NA,NA,NA,NA,NA,NaN,NA,1558.1549999769777,left,1,NA,NA,NA,NA,NA
83VTy1PC,375vsr8fwzmfz1886kcfytzzg59zr5,3x0h8uuit51pt51a1oxfej65piqswj,83VTy1PC,2020-0188,2021-10-31,12:37:34,14:05:51,NA,incomplete,false,NA,NA,true,3,15,NA,NA,NA,left,m_l_108.jpg,blue,orange,NA,NA,NA,NA,NA,NA,NA,NA,NA,NaN,NA,1924.7700001578778,left,1,NA,NA,NA,NA,NA
83VTy1PC,375vsr8fwzmfz1886kcfytzzg59zr5,3x0h8uuit51pt51a1oxfej65piqswj,83VTy1PC,2020-0188,2021-10-31,12:37:34,14:05:51,NA,incomplete,false,NA,NA,true,3,16,NA,NA,NA,right,n_s_112.jpg,orange,green,NA,NA,NA,NA,NA,NA,NA,NA,NA,NaN,NA,1623.0950001627207,right,1,NA,NA,NA,NA,NA
83VTy1PC,375vsr8fwzmfz1886kcfytzzg59zr5,3x0h8uuit51pt51a1oxfej65piqswj,83VTy1PC,2020-0188,2021-10-31,12:37:34,14:05:51,NA,incomplete,false,NA,NA,true,3,17,NA,NA,NA,left,n_l_069.jpg,blue,purple,NA,NA,NA,NA,NA,NA,NA,NA,NA,NaN,NA,4484.6000000834465,left,1,NA,NA,NA,NA,NA
83VTy1PC,375vsr8fwzmfz1886kcfytzzg59zr5,3x0h8uuit51pt51a1oxfej65piqswj,83VTy1PC,2020-0188,2021-10-31,12:37:34,14:05:51,NA,incomplete,false,NA,NA,true,3,18,NA,NA,NA,right,m_l_094.jpg,black,gray,NA,NA,NA,NA,NA,NA,NA,NA,NA,NaN,NA,1517.879999941215,right,1,NA,NA,NA,NA,NA
83VTy1PC,375vsr8fwzmfz1886kcfytzzg59zr5,3x0h8uuit51pt51a1oxfej65piqswj,83VTy1PC,2020-0188,2021-10-31,12:37:34,14:05:51,NA,incomplete,false,NA,NA,true,3,19,NA,NA,NA,right,m_l_090.jpg,blue,purple,NA,NA,NA,NA,NA,NA,NA,NA,NA,NaN,NA,2571.100000059232,right,1,NA,NA,NA,NA,NA
83VTy1PC,375vsr8fwzmfz1886kcfytzzg59zr5,3x0h8uuit51pt51a1oxfej65piqswj,83VTy1PC,2020-0188,2021-10-31,12:37:34,14:05:51,NA,incomplete,false,NA,NA,true,3,20,NA,NA,NA,right,n_s_039.jpg,gray,black,NA,NA,NA,NA,NA,NA,NA,NA,NA,NaN,NA,4848.230000119656,right,1,NA,NA,NA,NA,NA
83VTy1PC,375vsr8fwzmfz1886kcfytzzg59zr5,3x0h8uuit51pt51a1oxfej65piqswj,83VTy1PC,2020-0188,2021-10-31,12:37:34,14:05:51,NA,incomplete,false,NA,NA,true,3,21,NA,NA,NA,right,n_s_007.jpg,gray,black,NA,NA,NA,NA,NA,NA,NA,NA,NA,NaN,NA,1252.5400000158697,right,1,NA,NA,NA,NA,NA
83VTy1PC,375vsr8fwzmfz1886kcfytzzg59zr5,3x0h8uuit51pt51a1oxfej65piqswj,83VTy1PC,2020-0188,2021-10-31,12:37:34,14:05:51,NA,incomplete,false,NA,true,NA,3,0,NA,NA,NA,right,NA,NA,NA,absent,NA,NA,m_s_071.jpg,green,n_s_112.jpg,green,within,NA,NaN,NA,NA,NA,NA,right,3637.0900000911206,1,0,4246.479999972507
83VTy1PC,375vsr8fwzmfz1886kcfytzzg59zr5,3x0h8uuit51pt51a1oxfej65piqswj,83VTy1PC,2020-0188,2021-10-31,12:37:34,14:05:51,NA,incomplete,false,NA,true,NA,3,1,NA,NA,NA,left,NA,NA,NA,absent,NA,NA,n_s_007.jpg,black,n_s_039.jpg,black,within,NA,NaN,NA,NA,NA,NA,right,7612.870000069961,0,1,2390.6849999912083
83VTy1PC,375vsr8fwzmfz1886kcfytzzg59zr5,3x0h8uuit51pt51a1oxfej65piqswj,83VTy1PC,2020-0188,2021-10-31,12:37:34,14:05:51,NA,incomplete,false,NA,true,NA,3,2,NA,NA,NA,right,NA,NA,NA,absent,NA,NA,m_s_059.jpg,gray,m_s_101.jpg,gray,within,NA,NaN,NA,NA,NA,NA,left,2102.760000154376,0,2,2358.520000008866
83VTy1PC,375vsr8fwzmfz1886kcfytzzg59zr5,3x0h8uuit51pt51a1oxfej65piqswj,83VTy1PC,2020-0188,2021-10-31,12:37:34,14:05:51,NA,incomplete,false,NA,true,NA,3,3,NA,NA,NA,left,NA,NA,NA,absent,NA,NA,n_l_077.jpg,blue,m_l_090.jpg,purple,between,NA,NaN,NA,NA,NA,NA,left,3880.4599998984486,1,2,1566.829999908805
83VTy1PC,375vsr8fwzmfz1886kcfytzzg59zr5,3x0h8uuit51pt51a1oxfej65piqswj,83VTy1PC,2020-0188,2021-10-31,12:37:34,14:05:51,NA,incomplete,false,NA,true,NA,3,4,NA,NA,NA,right,NA,NA,NA,absent,NA,NA,n_s_029.jpg,orange,n_s_111.jpg,orange,within,NA,NaN,NA,NA,NA,NA,right,7054.435000056401,1,1,1716.2899998947978
83VTy1PC,375vsr8fwzmfz1886kcfytzzg59zr5,3x0h8uuit51pt51a1oxfej65piqswj,83VTy1PC,2020-0188,2021-10-31,12:37:34,14:05:51,NA,incomplete,false,NA,true,NA,3,5,NA,NA,NA,right,NA,NA,NA,absent,NA,NA,n_l_040.jpg,blue,m_l_108.jpg,blue,within,NA,NaN,NA,NA,NA,NA,right,2558.9050000999123,1,0,2262.559999944642
83VTy1PC,375vsr8fwzmfz1886kcfytzzg59zr5,3x0h8uuit51pt51a1oxfej65piqswj,83VTy1PC,2020-0188,2021-10-31,12:37:34,14:05:51,NA,incomplete,false,NA,true,NA,3,6,NA,NA,NA,left,NA,NA,NA,absent,NA,NA,m_l_103.jpg,purple,n_l_008.jpg,purple,within,NA,NaN,NA,NA,NA,NA,right,2966.580000007525,0,1,1749.040000140667
83VTy1PC,375vsr8fwzmfz1886kcfytzzg59zr5,3x0h8uuit51pt51a1oxfej65piqswj,83VTy1PC,2020-0188,2021-10-31,12:37:34,14:05:51,NA,incomplete,false,NA,true,NA,3,7,NA,NA,NA,left,NA,NA,NA,absent,NA,NA,n_s_115.jpg,orange,n_l_069.jpg,blue,between,NA,NaN,NA,NA,NA,NA,left,3142.415000125766,1,3,1317.5200000405312
83VTy1PC,375vsr8fwzmfz1886kcfytzzg59zr5,3x0h8uuit51pt51a1oxfej65piqswj,83VTy1PC,2020-0188,2021-10-31,12:37:34,14:05:51,NA,incomplete,false,NA,true,NA,3,8,NA,NA,NA,left,NA,NA,NA,absent,NA,NA,n_l_105.jpg,black,n_s_053.jpg,gray,between,NA,NaN,NA,NA,NA,NA,left,3845.6500000320375,1,2,2494.8549999389797
83VTy1PC,375vsr8fwzmfz1886kcfytzzg59zr5,3x0h8uuit51pt51a1oxfej65piqswj,83VTy1PC,2020-0188,2021-10-31,12:37:34,14:05:51,NA,incomplete,false,NA,true,NA,3,9,NA,NA,NA,right,NA,NA,NA,absent,NA,NA,n_l_034.jpg,green,m_l_094.jpg,gray,between,NA,NaN,NA,NA,NA,NA,right,5948.379999957979,1,2,1493.2200000621378
83VTy1PC,375vsr8fwzmfz1886kcfytzzg59zr5,3x0h8uuit51pt51a1oxfej65piqswj,83VTy1PC,2020-0188,2021-10-31,12:37:34,14:05:51,NA,incomplete,false,NA,true,NA,3,10,NA,NA,NA,left,NA,NA,NA,absent,NA,NA,n_s_102.jpg,green,m_s_035.jpg,orange,between,NA,NaN,NA,NA,NA,NA,left,1910.664999857545,1,1,2381.865000119433
83VTy1PC,375vsr8fwzmfz1886kcfytzzg59zr5,3x0h8uuit51pt51a1oxfej65piqswj,83VTy1PC,2020-0188,2021-10-31,12:37:34,14:05:51,NA,incomplete,false,true,NA,NA,4,0,NA,green,n_s_073.jpg,NA,NA,NA,NA,NA,unpleasant,pleasant,NA,NA,NA,NA,NA,left,2007.31000001542,true,NA,NA,NA,NA,NA,NA,NA,NA
83VTy1PC,375vsr8fwzmfz1886kcfytzzg59zr5,3x0h8uuit51pt51a1oxfej65piqswj,83VTy1PC,2020-0188,2021-10-31,12:37:34,14:05:51,NA,incomplete,false,true,NA,NA,4,1,NA,green,n_l_051.jpg,NA,NA,NA,NA,NA,pleasant,unpleasant,NA,NA,NA,NA,NA,right,2310.00499986112,true,NA,NA,NA,NA,NA,NA,NA,NA
83VTy1PC,375vsr8fwzmfz1886kcfytzzg59zr5,3x0h8uuit51pt51a1oxfej65piqswj,83VTy1PC,2020-0188,2021-10-31,12:37:34,14:05:51,NA,incomplete,false,true,NA,NA,4,2,NA,green,n_s_065.jpg,NA,NA,NA,NA,NA,unpleasant,pleasant,NA,NA,NA,NA,NA,left,2177.0049999468,true,NA,NA,NA,NA,NA,NA,NA,NA
83VTy1PC,375vsr8fwzmfz1886kcfytzzg59zr5,3x0h8uuit51pt51a1oxfej65piqswj,83VTy1PC,2020-0188,2021-10-31,12:37:34,14:05:51,NA,incomplete,false,true,NA,NA,4,3,NA,green,n_l_065.jpg,NA,NA,NA,NA,NA,unpleasant,pleasant,NA,NA,NA,NA,NA,left,2031.90499986522,true,NA,NA,NA,NA,NA,NA,NA,NA
83VTy1PC,375vsr8fwzmfz1886kcfytzzg59zr5,3x0h8uuit51pt51a1oxfej65piqswj,83VTy1PC,2020-0188,2021-10-31,12:37:34,14:05:51,NA,incomplete,false,true,NA,NA,4,4,NA,green,n_s_040.jpg,NA,NA,NA,NA,NA,unpleasant,pleasant,NA,NA,NA,NA,NA,left,2572.94999994338,true,NA,NA,NA,NA,NA,NA,NA,NA
83VTy1PC,375vsr8fwzmfz1886kcfytzzg59zr5,3x0h8uuit51pt51a1oxfej65piqswj,83VTy1PC,2020-0188,2021-10-31,12:37:34,14:05:51,NA,incomplete,false,true,NA,NA,4,5,NA,green,n_s_057.jpg,NA,NA,NA,NA,NA,unpleasant,pleasant,NA,NA,NA,NA,NA,left,1364.18000003323,true,NA,NA,NA,NA,NA,NA,NA,NA
83VTy1PC,375vsr8fwzmfz1886kcfytzzg59zr5,3x0h8uuit51pt51a1oxfej65piqswj,83VTy1PC,2020-0188,2021-10-31,12:37:34,14:05:51,NA,incomplete,false,true,NA,NA,4,6,NA,black,n_s_083.jpg,NA,NA,NA,NA,NA,pleasant,unpleasant,NA,NA,NA,NA,NA,left,1738.89499995857,true,NA,NA,NA,NA,NA,NA,NA,NA
83VTy1PC,375vsr8fwzmfz1886kcfytzzg59zr5,3x0h8uuit51pt51a1oxfej65piqswj,83VTy1PC,2020-0188,2021-10-31,12:37:34,14:05:51,NA,incomplete,false,true,NA,NA,4,7,NA,black,n_s_016.jpg,NA,NA,NA,NA,NA,pleasant,unpleasant,NA,NA,NA,NA,NA,left,1550.31000007875,true,NA,NA,NA,NA,NA,NA,NA,NA
83VTy1PC,375vsr8fwzmfz1886kcfytzzg59zr5,3x0h8uuit51pt51a1oxfej65piqswj,83VTy1PC,2020-0188,2021-10-31,12:37:34,14:05:51,NA,incomplete,false,true,NA,NA,4,8,NA,black,n_l_097.jpg,NA,NA,NA,NA,NA,pleasant,unpleasant,NA,NA,NA,NA,NA,left,1248.2950000558,true,NA,NA,NA,NA,NA,NA,NA,NA
83VTy1PC,375vsr8fwzmfz1886kcfytzzg59zr5,3x0h8uuit51pt51a1oxfej65piqswj,83VTy1PC,2020-0188,2021-10-31,12:37:34,14:05:51,NA,incomplete,false,true,NA,NA,4,9,NA,black,n_s_075.jpg,NA,NA,NA,NA,NA,unpleasant,pleasant,NA,NA,NA,NA,NA,left,2333.09499989264,true,NA,NA,NA,NA,NA,NA,NA,NA
83VTy1PC,375vsr8fwzmfz1886kcfytzzg59zr5,3x0h8uuit51pt51a1oxfej65piqswj,83VTy1PC,2020-0188,2021-10-31,12:37:34,14:05:51,NA,incomplete,false,true,NA,NA,4,10,NA,black,n_s_013.jpg,NA,NA,NA,NA,NA,unpleasant,pleasant,NA,NA,NA,NA,NA,left,1405.09999985807,true,NA,NA,NA,NA,NA,NA,NA,NA
83VTy1PC,375vsr8fwzmfz1886kcfytzzg59zr5,3x0h8uuit51pt51a1oxfej65piqswj,83VTy1PC,2020-0188,2021-10-31,12:37:34,14:05:51,NA,incomplete,false,true,NA,NA,4,11,NA,black,n_s_017.jpg,NA,NA,NA,NA,NA,unpleasant,pleasant,NA,NA,NA,NA,NA,left,2042.99500002526,true,NA,NA,NA,NA,NA,NA,NA,NA
83VTy1PC,375vsr8fwzmfz1886kcfytzzg59zr5,3x0h8uuit51pt51a1oxfej65piqswj,83VTy1PC,2020-0188,2021-10-31,12:37:34,14:05:51,NA,incomplete,false,true,NA,NA,4,12,NA,blue,m_s_043.jpg,NA,NA,NA,NA,NA,pleasant,unpleasant,NA,NA,NA,NA,NA,left,1435.27500005439,true,NA,NA,NA,NA,NA,NA,NA,NA
83VTy1PC,375vsr8fwzmfz1886kcfytzzg59zr5,3x0h8uuit51pt51a1oxfej65piqswj,83VTy1PC,2020-0188,2021-10-31,12:37:34,14:05:51,NA,incomplete,false,true,NA,NA,4,13,NA,blue,n_s_097.jpg,NA,NA,NA,NA,NA,unpleasant,pleasant,NA,NA,NA,NA,NA,left,2212.95999991708,true,NA,NA,NA,NA,NA,NA,NA,NA
83VTy1PC,375vsr8fwzmfz1886kcfytzzg59zr5,3x0h8uuit51pt51a1oxfej65piqswj,83VTy1PC,2020-0188,2021-10-31,12:37:34,14:05:51,NA,incomplete,false,true,NA,NA,4,14,NA,blue,n_s_108.jpg,NA,NA,NA,NA,NA,unpleasant,pleasant,NA,NA,NA,NA,NA,left,1406.38999990188,true,NA,NA,NA,NA,NA,NA,NA,NA
83VTy1PC,375vsr8fwzmfz1886kcfytzzg59zr5,3x0h8uuit51pt51a1oxfej65piqswj,83VTy1PC,2020-0188,2021-10-31,12:37:34,14:05:51,NA,incomplete,false,true,NA,NA,4,15,NA,blue,m_l_016.jpg,NA,NA,NA,NA,NA,unpleasant,pleasant,NA,NA,NA,NA,NA,left,1880.05500007421,true,NA,NA,NA,NA,NA,NA,NA,NA
83VTy1PC,375vsr8fwzmfz1886kcfytzzg59zr5,3x0h8uuit51pt51a1oxfej65piqswj,83VTy1PC,2020-0188,2021-10-31,12:37:34,14:05:51,NA,incomplete,false,true,NA,NA,4,16,NA,blue,m_l_112.jpg,NA,NA,NA,NA,NA,pleasant,unpleasant,NA,NA,NA,NA,NA,right,1800.98000005819,true,NA,NA,NA,NA,NA,NA,NA,NA
83VTy1PC,375vsr8fwzmfz1886kcfytzzg59zr5,3x0h8uuit51pt51a1oxfej65piqswj,83VTy1PC,2020-0188,2021-10-31,12:37:34,14:05:51,NA,incomplete,false,true,NA,NA,4,17,NA,blue,n_s_088.jpg,NA,NA,NA,NA,NA,pleasant,unpleasant,NA,NA,NA,NA,NA,right,1519.27000004798,true,NA,NA,NA,NA,NA,NA,NA,NA
83VTy1PC,375vsr8fwzmfz1886kcfytzzg59zr5,3x0h8uuit51pt51a1oxfej65piqswj,83VTy1PC,2020-0188,2021-10-31,12:37:34,14:05:51,NA,incomplete,false,true,NA,NA,4,18,NA,red,m_s_079.jpg,NA,NA,NA,NA,NA,pleasant,unpleasant,NA,NA,NA,NA,NA,left,1817.87999998778,true,NA,NA,NA,NA,NA,NA,NA,NA
83VTy1PC,375vsr8fwzmfz1886kcfytzzg59zr5,3x0h8uuit51pt51a1oxfej65piqswj,83VTy1PC,2020-0188,2021-10-31,12:37:34,14:05:51,NA,incomplete,false,true,NA,NA,4,19,NA,red,m_s_047.jpg,NA,NA,NA,NA,NA,pleasant,unpleasant,NA,NA,NA,NA,NA,left,2257.14499992318,true,NA,NA,NA,NA,NA,NA,NA,NA
83VTy1PC,375vsr8fwzmfz1886kcfytzzg59zr5,3x0h8uuit51pt51a1oxfej65piqswj,83VTy1PC,2020-0188,2021-10-31,12:37:34,14:05:51,NA,incomplete,false,true,NA,NA,4,20,NA,red,m_l_117.jpg,NA,NA,NA,NA,NA,unpleasant,pleasant,NA,NA,NA,NA,NA,right,2359.83500001021,true,NA,NA,NA,NA,NA,NA,NA,NA
83VTy1PC,375vsr8fwzmfz1886kcfytzzg59zr5,3x0h8uuit51pt51a1oxfej65piqswj,83VTy1PC,2020-0188,2021-10-31,12:37:34,14:05:51,NA,incomplete,false,true,NA,NA,4,21,NA,red,n_s_091.jpg,NA,NA,NA,NA,NA,pleasant,unpleasant,NA,NA,NA,NA,NA,left,2137.63999985531,true,NA,NA,NA,NA,NA,NA,NA,NA
83VTy1PC,375vsr8fwzmfz1886kcfytzzg59zr5,3x0h8uuit51pt51a1oxfej65piqswj,83VTy1PC,2020-0188,2021-10-31,12:37:34,14:05:51,NA,incomplete,false,true,NA,NA,4,22,NA,red,n_l_028.jpg,NA,NA,NA,NA,NA,unpleasant,pleasant,NA,NA,NA,NA,NA,right,2002.48999986798,true,NA,NA,NA,NA,NA,NA,NA,NA
83VTy1PC,375vsr8fwzmfz1886kcfytzzg59zr5,3x0h8uuit51pt51a1oxfej65piqswj,83VTy1PC,2020-0188,2021-10-31,12:37:34,14:05:51,NA,incomplete,false,true,NA,NA,4,23,NA,red,n_s_084.jpg,NA,NA,NA,NA,NA,unpleasant,pleasant,NA,NA,NA,NA,NA,right,2669.02999999002,true,NA,NA,NA,NA,NA,NA,NA,NA
83VTy1PC,375vsr8fwzmfz1886kcfytzzg59zr5,3x0h8uuit51pt51a1oxfej65piqswj,83VTy1PC,2020-0188,2021-10-31,12:37:34,14:05:51,NA,incomplete,false,true,NA,NA,4,24,NA,white,m_s_056.jpg,NA,NA,NA,NA,NA,pleasant,unpleasant,NA,NA,NA,NA,NA,right,1879.79999999516,true,NA,NA,NA,NA,NA,NA,NA,NA
83VTy1PC,375vsr8fwzmfz1886kcfytzzg59zr5,3x0h8uuit51pt51a1oxfej65piqswj,83VTy1PC,2020-0188,2021-10-31,12:37:34,14:05:51,NA,incomplete,false,true,NA,NA,4,25,NA,white,n_s_062.jpg,NA,NA,NA,NA,NA,unpleasant,pleasant,NA,NA,NA,NA,NA,right,1797.43000003509,true,NA,NA,NA,NA,NA,NA,NA,NA
83VTy1PC,375vsr8fwzmfz1886kcfytzzg59zr5,3x0h8uuit51pt51a1oxfej65piqswj,83VTy1PC,2020-0188,2021-10-31,12:37:34,14:05:51,NA,incomplete,false,true,NA,NA,4,26,NA,white,m_l_055.jpg,NA,NA,NA,NA,NA,unpleasant,pleasant,NA,NA,NA,NA,NA,left,1683.37500002235,true,NA,NA,NA,NA,NA,NA,NA,NA
83VTy1PC,375vsr8fwzmfz1886kcfytzzg59zr5,3x0h8uuit51pt51a1oxfej65piqswj,83VTy1PC,2020-0188,2021-10-31,12:37:34,14:05:51,NA,incomplete,false,true,NA,NA,4,27,NA,white,m_s_028.jpg,NA,NA,NA,NA,NA,pleasant,unpleasant,NA,NA,NA,NA,NA,left,2222.00000006706,true,NA,NA,NA,NA,NA,NA,NA,NA
83VTy1PC,375vsr8fwzmfz1886kcfytzzg59zr5,3x0h8uuit51pt51a1oxfej65piqswj,83VTy1PC,2020-0188,2021-10-31,12:37:34,14:05:51,NA,incomplete,false,true,NA,NA,4,28,NA,white,m_l_046.jpg,NA,NA,NA,NA,NA,pleasant,unpleasant,NA,NA,NA,NA,NA,right,1855.21999979392,true,NA,NA,NA,NA,NA,NA,NA,NA
83VTy1PC,375vsr8fwzmfz1886kcfytzzg59zr5,3x0h8uuit51pt51a1oxfej65piqswj,83VTy1PC,2020-0188,2021-10-31,12:37:34,14:05:51,NA,incomplete,false,true,NA,NA,4,29,NA,white,m_l_005.jpg,NA,NA,NA,NA,NA,unpleasant,pleasant,NA,NA,NA,NA,NA,right,1387.68500019796,true,NA,NA,NA,NA,NA,NA,NA,NA
83VTy1PC,375vsr8fwzmfz1886kcfytzzg59zr5,3x0h8uuit51pt51a1oxfej65piqswj,83VTy1PC,2020-0188,2021-10-31,12:37:34,14:05:51,NA,incomplete,false,true,NA,NA,4,30,NA,orange,n_l_068.jpg,NA,NA,NA,NA,NA,unpleasant,pleasant,NA,NA,NA,NA,NA,right,1978.76999992877,true,NA,NA,NA,NA,NA,NA,NA,NA
83VTy1PC,375vsr8fwzmfz1886kcfytzzg59zr5,3x0h8uuit51pt51a1oxfej65piqswj,83VTy1PC,2020-0188,2021-10-31,12:37:34,14:05:51,NA,incomplete,false,true,NA,NA,4,31,NA,orange,m_l_076.jpg,NA,NA,NA,NA,NA,unpleasant,pleasant,NA,NA,NA,NA,NA,right,1663.55499997735,true,NA,NA,NA,NA,NA,NA,NA,NA
83VTy1PC,375vsr8fwzmfz1886kcfytzzg59zr5,3x0h8uuit51pt51a1oxfej65piqswj,83VTy1PC,2020-0188,2021-10-31,12:37:34,14:05:51,NA,incomplete,false,true,NA,NA,4,32,NA,orange,m_l_091.jpg,NA,NA,NA,NA,NA,pleasant,unpleasant,NA,NA,NA,NA,NA,left,2451.30000007339,true,NA,NA,NA,NA,NA,NA,NA,NA
83VTy1PC,375vsr8fwzmfz1886kcfytzzg59zr5,3x0h8uuit51pt51a1oxfej65piqswj,83VTy1PC,2020-0188,2021-10-31,12:37:34,14:05:51,NA,incomplete,false,true,NA,NA,4,33,NA,orange,m_s_040.jpg,NA,NA,NA,NA,NA,unpleasant,pleasant,NA,NA,NA,NA,NA,right,2206.25500008464,true,NA,NA,NA,NA,NA,NA,NA,NA
83VTy1PC,375vsr8fwzmfz1886kcfytzzg59zr5,3x0h8uuit51pt51a1oxfej65piqswj,83VTy1PC,2020-0188,2021-10-31,12:37:34,14:05:51,NA,incomplete,false,true,NA,NA,4,34,NA,orange,m_l_066.jpg,NA,NA,NA,NA,NA,unpleasant,pleasant,NA,NA,NA,NA,NA,right,2245.89499994181,true,NA,NA,NA,NA,NA,NA,NA,NA
83VTy1PC,375vsr8fwzmfz1886kcfytzzg59zr5,3x0h8uuit51pt51a1oxfej65piqswj,83VTy1PC,2020-0188,2021-10-31,12:37:34,14:05:51,NA,incomplete,false,true,NA,NA,4,35,NA,orange,m_s_072.jpg,NA,NA,NA,NA,NA,unpleasant,pleasant,NA,NA,NA,NA,NA,right,2356.88499989919,true,NA,NA,NA,NA,NA,NA,NA,NA
83VTy1PC,375vsr8fwzmfz1886kcfytzzg59zr5,3x0h8uuit51pt51a1oxfej65piqswj,83VTy1PC,2020-0188,2021-10-31,12:37:34,14:05:51,NA,incomplete,false,NA,NA,true,4,0,NA,NA,NA,right,n_s_040.jpg,black,green,NA,NA,NA,NA,NA,NA,NA,NA,NA,NaN,NA,2127.070000162348,left,0,NA,NA,NA,NA,NA
83VTy1PC,375vsr8fwzmfz1886kcfytzzg59zr5,3x0h8uuit51pt51a1oxfej65piqswj,83VTy1PC,2020-0188,2021-10-31,12:37:34,14:05:51,NA,incomplete,false,NA,NA,true,4,1,NA,NA,NA,right,m_l_005.jpg,red,white,NA,NA,NA,NA,NA,NA,NA,NA,NA,NaN,NA,1487.080000108108,right,1,NA,NA,NA,NA,NA
83VTy1PC,375vsr8fwzmfz1886kcfytzzg59zr5,3x0h8uuit51pt51a1oxfej65piqswj,83VTy1PC,2020-0188,2021-10-31,12:37:34,14:05:51,NA,incomplete,false,NA,NA,true,4,2,NA,NA,NA,right,m_l_076.jpg,white,orange,NA,NA,NA,NA,NA,NA,NA,NA,NA,NaN,NA,1677.0200000610203,right,1,NA,NA,NA,NA,NA
83VTy1PC,375vsr8fwzmfz1886kcfytzzg59zr5,3x0h8uuit51pt51a1oxfej65piqswj,83VTy1PC,2020-0188,2021-10-31,12:37:34,14:05:51,NA,incomplete,false,NA,NA,true,4,3,NA,NA,NA,left,m_s_047.jpg,red,white,NA,NA,NA,NA,NA,NA,NA,NA,NA,NaN,NA,1613.9800001401454,left,1,NA,NA,NA,NA,NA
83VTy1PC,375vsr8fwzmfz1886kcfytzzg59zr5,3x0h8uuit51pt51a1oxfej65piqswj,83VTy1PC,2020-0188,2021-10-31,12:37:34,14:05:51,NA,incomplete,false,NA,NA,true,4,4,NA,NA,NA,left,n_l_097.jpg,black,blue,NA,NA,NA,NA,NA,NA,NA,NA,NA,NaN,NA,1782.7400001697242,left,1,NA,NA,NA,NA,NA
83VTy1PC,375vsr8fwzmfz1886kcfytzzg59zr5,3x0h8uuit51pt51a1oxfej65piqswj,83VTy1PC,2020-0188,2021-10-31,12:37:34,14:05:51,NA,incomplete,false,NA,NA,true,4,5,NA,NA,NA,right,m_l_091.jpg,white,orange,NA,NA,NA,NA,NA,NA,NA,NA,NA,NaN,NA,1461.3999999128282,right,1,NA,NA,NA,NA,NA
83VTy1PC,375vsr8fwzmfz1886kcfytzzg59zr5,3x0h8uuit51pt51a1oxfej65piqswj,83VTy1PC,2020-0188,2021-10-31,12:37:34,14:05:51,NA,incomplete,false,NA,NA,true,4,6,NA,NA,NA,right,n_s_084.jpg,blue,red,NA,NA,NA,NA,NA,NA,NA,NA,NA,NaN,NA,4685.144999995828,right,1,NA,NA,NA,NA,NA
83VTy1PC,375vsr8fwzmfz1886kcfytzzg59zr5,3x0h8uuit51pt51a1oxfej65piqswj,83VTy1PC,2020-0188,2021-10-31,12:37:34,14:05:51,NA,incomplete,false,NA,NA,true,4,7,NA,NA,NA,left,n_s_013.jpg,black,green,NA,NA,NA,NA,NA,NA,NA,NA,NA,NaN,NA,1814.0400000847876,left,1,NA,NA,NA,NA,NA
83VTy1PC,375vsr8fwzmfz1886kcfytzzg59zr5,3x0h8uuit51pt51a1oxfej65piqswj,83VTy1PC,2020-0188,2021-10-31,12:37:34,14:05:51,NA,incomplete,false,NA,NA,true,4,8,NA,NA,NA,right,n_l_028.jpg,blue,red,NA,NA,NA,NA,NA,NA,NA,NA,NA,NaN,NA,2733.005000045523,right,1,NA,NA,NA,NA,NA
83VTy1PC,375vsr8fwzmfz1886kcfytzzg59zr5,3x0h8uuit51pt51a1oxfej65piqswj,83VTy1PC,2020-0188,2021-10-31,12:37:34,14:05:51,NA,incomplete,false,NA,NA,true,4,9,NA,NA,NA,left,m_l_117.jpg,red,blue,NA,NA,NA,NA,NA,NA,NA,NA,NA,NaN,NA,3371.9500000588596,left,1,NA,NA,NA,NA,NA
83VTy1PC,375vsr8fwzmfz1886kcfytzzg59zr5,3x0h8uuit51pt51a1oxfej65piqswj,83VTy1PC,2020-0188,2021-10-31,12:37:34,14:05:51,NA,incomplete,false,NA,NA,true,4,10,NA,NA,NA,right,m_s_072.jpg,white,orange,NA,NA,NA,NA,NA,NA,NA,NA,NA,NaN,NA,1812.6900000497699,right,1,NA,NA,NA,NA,NA
83VTy1PC,375vsr8fwzmfz1886kcfytzzg59zr5,3x0h8uuit51pt51a1oxfej65piqswj,83VTy1PC,2020-0188,2021-10-31,12:37:34,14:05:51,NA,incomplete,false,NA,NA,true,4,11,NA,NA,NA,right,n_s_088.jpg,red,blue,NA,NA,NA,NA,NA,NA,NA,NA,NA,NaN,NA,2526.039999909699,right,1,NA,NA,NA,NA,NA
83VTy1PC,375vsr8fwzmfz1886kcfytzzg59zr5,3x0h8uuit51pt51a1oxfej65piqswj,83VTy1PC,2020-0188,2021-10-31,12:37:34,14:05:51,NA,incomplete,false,NA,NA,true,4,12,NA,NA,NA,right,n_s_108.jpg,red,blue,NA,NA,NA,NA,NA,NA,NA,NA,NA,NaN,NA,1997.3949999548495,right,1,NA,NA,NA,NA,NA
83VTy1PC,375vsr8fwzmfz1886kcfytzzg59zr5,3x0h8uuit51pt51a1oxfej65piqswj,83VTy1PC,2020-0188,2021-10-31,12:37:34,14:05:51,NA,incomplete,false,NA,NA,true,4,13,NA,NA,NA,left,n_s_017.jpg,black,green,NA,NA,NA,NA,NA,NA,NA,NA,NA,NaN,NA,1484.0249998960644,left,1,NA,NA,NA,NA,NA
83VTy1PC,375vsr8fwzmfz1886kcfytzzg59zr5,3x0h8uuit51pt51a1oxfej65piqswj,83VTy1PC,2020-0188,2021-10-31,12:37:34,14:05:51,NA,incomplete,false,NA,NA,true,4,14,NA,NA,NA,left,n_s_057.jpg,green,black,NA,NA,NA,NA,NA,NA,NA,NA,NA,NaN,NA,4643.50500004366,left,1,NA,NA,NA,NA,NA
83VTy1PC,375vsr8fwzmfz1886kcfytzzg59zr5,3x0h8uuit51pt51a1oxfej65piqswj,83VTy1PC,2020-0188,2021-10-31,12:37:34,14:05:51,NA,incomplete,false,NA,NA,true,4,15,NA,NA,NA,left,n_l_051.jpg,green,black,NA,NA,NA,NA,NA,NA,NA,NA,NA,NaN,NA,1438.8850000686944,left,1,NA,NA,NA,NA,NA
83VTy1PC,375vsr8fwzmfz1886kcfytzzg59zr5,3x0h8uuit51pt51a1oxfej65piqswj,83VTy1PC,2020-0188,2021-10-31,12:37:34,14:05:51,NA,incomplete,false,NA,NA,true,4,16,NA,NA,NA,right,m_l_112.jpg,black,blue,NA,NA,NA,NA,NA,NA,NA,NA,NA,NaN,NA,1486.4300000481308,right,1,NA,NA,NA,NA,NA
83VTy1PC,375vsr8fwzmfz1886kcfytzzg59zr5,3x0h8uuit51pt51a1oxfej65piqswj,83VTy1PC,2020-0188,2021-10-31,12:37:34,14:05:51,NA,incomplete,false,NA,NA,true,4,17,NA,NA,NA,right,n_s_016.jpg,blue,black,NA,NA,NA,NA,NA,NA,NA,NA,NA,NaN,NA,1517.3549999017268,right,1,NA,NA,NA,NA,NA
83VTy1PC,375vsr8fwzmfz1886kcfytzzg59zr5,3x0h8uuit51pt51a1oxfej65piqswj,83VTy1PC,2020-0188,2021-10-31,12:37:34,14:05:51,NA,incomplete,false,NA,NA,true,4,18,NA,NA,NA,left,m_l_046.jpg,white,orange,NA,NA,NA,NA,NA,NA,NA,NA,NA,NaN,NA,2828.8150001317263,left,1,NA,NA,NA,NA,NA
83VTy1PC,375vsr8fwzmfz1886kcfytzzg59zr5,3x0h8uuit51pt51a1oxfej65piqswj,83VTy1PC,2020-0188,2021-10-31,12:37:34,14:05:51,NA,incomplete,false,NA,NA,true,4,19,NA,NA,NA,left,n_s_097.jpg,blue,red,NA,NA,NA,NA,NA,NA,NA,NA,NA,NaN,NA,7277.424999978393,left,1,NA,NA,NA,NA,NA
83VTy1PC,375vsr8fwzmfz1886kcfytzzg59zr5,3x0h8uuit51pt51a1oxfej65piqswj,83VTy1PC,2020-0188,2021-10-31,12:37:34,14:05:51,NA,incomplete,false,NA,NA,true,4,20,NA,NA,NA,right,m_l_055.jpg,red,white,NA,NA,NA,NA,NA,NA,NA,NA,NA,NaN,NA,3429.784999927506,right,1,NA,NA,NA,NA,NA
83VTy1PC,375vsr8fwzmfz1886kcfytzzg59zr5,3x0h8uuit51pt51a1oxfej65piqswj,83VTy1PC,2020-0188,2021-10-31,12:37:34,14:05:51,NA,incomplete,false,NA,NA,true,4,21,NA,NA,NA,right,n_s_062.jpg,red,white,NA,NA,NA,NA,NA,NA,NA,NA,NA,NaN,NA,1636.0700000077486,right,1,NA,NA,NA,NA,NA
83VTy1PC,375vsr8fwzmfz1886kcfytzzg59zr5,3x0h8uuit51pt51a1oxfej65piqswj,83VTy1PC,2020-0188,2021-10-31,12:37:34,14:05:51,NA,incomplete,false,NA,true,NA,4,0,NA,NA,NA,right,NA,NA,NA,absent,NA,NA,m_l_005.jpg,white,n_s_062.jpg,white,within,NA,NaN,NA,NA,NA,NA,left,4254.9000000581145,0,0,5006.790000014007
83VTy1PC,375vsr8fwzmfz1886kcfytzzg59zr5,3x0h8uuit51pt51a1oxfej65piqswj,83VTy1PC,2020-0188,2021-10-31,12:37:34,14:05:51,NA,incomplete,false,NA,true,NA,4,1,NA,NA,NA,left,NA,NA,NA,absent,NA,NA,n_l_051.jpg,green,n_s_057.jpg,green,within,NA,NaN,NA,NA,NA,NA,left,3413.189999992028,1,1,1102.699999930337
83VTy1PC,375vsr8fwzmfz1886kcfytzzg59zr5,3x0h8uuit51pt51a1oxfej65piqswj,83VTy1PC,2020-0188,2021-10-31,12:37:34,14:05:51,NA,incomplete,false,NA,true,NA,4,2,NA,NA,NA,left,NA,NA,NA,absent,NA,NA,n_l_028.jpg,red,m_l_055.jpg,white,between,NA,NaN,NA,NA,NA,NA,left,4782.024999847636,1,3,2165.6249999068677
83VTy1PC,375vsr8fwzmfz1886kcfytzzg59zr5,3x0h8uuit51pt51a1oxfej65piqswj,83VTy1PC,2020-0188,2021-10-31,12:37:34,14:05:51,NA,incomplete,false,NA,true,NA,4,3,NA,NA,NA,left,NA,NA,NA,absent,NA,NA,m_l_046.jpg,white,m_l_091.jpg,orange,between,NA,NaN,NA,NA,NA,NA,left,7038.509999867529,1,2,2485.389999812469
83VTy1PC,375vsr8fwzmfz1886kcfytzzg59zr5,3x0h8uuit51pt51a1oxfej65piqswj,83VTy1PC,2020-0188,2021-10-31,12:37:34,14:05:51,NA,incomplete,false,NA,true,NA,4,4,NA,NA,NA,right,NA,NA,NA,absent,NA,NA,n_l_097.jpg,black,n_s_040.jpg,green,between,NA,NaN,NA,NA,NA,NA,left,5254.454999929294,0,0,2638.700000010431
83VTy1PC,375vsr8fwzmfz1886kcfytzzg59zr5,3x0h8uuit51pt51a1oxfej65piqswj,83VTy1PC,2020-0188,2021-10-31,12:37:34,14:05:51,NA,incomplete,false,NA,true,NA,4,5,NA,NA,NA,right,NA,NA,NA,absent,NA,NA,n_s_108.jpg,blue,n_s_013.jpg,black,between,NA,NaN,NA,NA,NA,NA,right,3270.4949998296797,1,3,1983.4249999839813
83VTy1PC,375vsr8fwzmfz1886kcfytzzg59zr5,3x0h8uuit51pt51a1oxfej65piqswj,83VTy1PC,2020-0188,2021-10-31,12:37:34,14:05:51,NA,incomplete,false,NA,true,NA,4,6,NA,NA,NA,left,NA,NA,NA,absent,NA,NA,m_l_076.jpg,orange,m_s_072.jpg,orange,within,NA,NaN,NA,NA,NA,NA,left,5621.709999861196,1,0,2652.9399999417365
83VTy1PC,375vsr8fwzmfz1886kcfytzzg59zr5,3x0h8uuit51pt51a1oxfej65piqswj,83VTy1PC,2020-0188,2021-10-31,12:37:34,14:05:51,NA,incomplete,false,NA,true,NA,4,7,NA,NA,NA,right,NA,NA,NA,absent,NA,NA,n_s_017.jpg,black,n_s_016.jpg,black,within,NA,NaN,NA,NA,NA,NA,left,5069.015000015497,0,0,1484.8249999340624
83VTy1PC,375vsr8fwzmfz1886kcfytzzg59zr5,3x0h8uuit51pt51a1oxfej65piqswj,83VTy1PC,2020-0188,2021-10-31,12:37:34,14:05:51,NA,incomplete,false,NA,true,NA,4,8,NA,NA,NA,right,NA,NA,NA,absent,NA,NA,m_l_117.jpg,red,m_l_112.jpg,blue,between,NA,NaN,NA,NA,NA,NA,left,9823.060000082478,0,2,3878.264999948442
83VTy1PC,375vsr8fwzmfz1886kcfytzzg59zr5,3x0h8uuit51pt51a1oxfej65piqswj,83VTy1PC,2020-0188,2021-10-31,12:37:34,14:05:51,NA,incomplete,false,NA,true,NA,4,9,NA,NA,NA,left,NA,NA,NA,absent,NA,NA,m_s_047.jpg,red,n_s_084.jpg,red,within,NA,NaN,NA,NA,NA,NA,left,2764.045000076294,1,0,2262.994999997318
83VTy1PC,375vsr8fwzmfz1886kcfytzzg59zr5,3x0h8uuit51pt51a1oxfej65piqswj,83VTy1PC,2020-0188,2021-10-31,12:37:34,14:05:51,NA,incomplete,false,NA,true,NA,4,10,NA,NA,NA,right,NA,NA,NA,absent,NA,NA,n_s_088.jpg,blue,n_s_097.jpg,blue,within,NA,NaN,NA,NA,NA,NA,left,1607.0149999577552,0,2,2415.260000154376
83VTy1PC,375vsr8fwzmfz1886kcfytzzg59zr5,3x0h8uuit51pt51a1oxfej65piqswj,83VTy1PC,2020-0188,2021-10-31,12:37:34,14:05:51,NA,incomplete,false,true,NA,NA,5,0,NA,black,n_l_063.jpg,NA,NA,NA,NA,NA,unpleasant,pleasant,NA,NA,NA,NA,NA,left,1753.40500008315,true,NA,NA,NA,NA,NA,NA,NA,NA
83VTy1PC,375vsr8fwzmfz1886kcfytzzg59zr5,3x0h8uuit51pt51a1oxfej65piqswj,83VTy1PC,2020-0188,2021-10-31,12:37:34,14:05:51,NA,incomplete,false,true,NA,NA,5,1,NA,black,n_l_080.jpg,NA,NA,NA,NA,NA,pleasant,unpleasant,NA,NA,NA,NA,NA,right,2597.09000005387,true,NA,NA,NA,NA,NA,NA,NA,NA
83VTy1PC,375vsr8fwzmfz1886kcfytzzg59zr5,3x0h8uuit51pt51a1oxfej65piqswj,83VTy1PC,2020-0188,2021-10-31,12:37:34,14:05:51,NA,incomplete,false,true,NA,NA,5,2,NA,black,m_s_076.jpg,NA,NA,NA,NA,NA,pleasant,unpleasant,NA,NA,NA,NA,NA,left,2338.35500013083,true,NA,NA,NA,NA,NA,NA,NA,NA
83VTy1PC,375vsr8fwzmfz1886kcfytzzg59zr5,3x0h8uuit51pt51a1oxfej65piqswj,83VTy1PC,2020-0188,2021-10-31,12:37:34,14:05:51,NA,incomplete,false,true,NA,NA,5,3,NA,black,m_s_034.jpg,NA,NA,NA,NA,NA,pleasant,unpleasant,NA,NA,NA,NA,NA,right,2238.66499983706,true,NA,NA,NA,NA,NA,NA,NA,NA
83VTy1PC,375vsr8fwzmfz1886kcfytzzg59zr5,3x0h8uuit51pt51a1oxfej65piqswj,83VTy1PC,2020-0188,2021-10-31,12:37:34,14:05:51,NA,incomplete,false,true,NA,NA,5,4,NA,black,m_l_030.jpg,NA,NA,NA,NA,NA,unpleasant,pleasant,NA,NA,NA,NA,NA,right,2480.16000003554,true,NA,NA,NA,NA,NA,NA,NA,NA
83VTy1PC,375vsr8fwzmfz1886kcfytzzg59zr5,3x0h8uuit51pt51a1oxfej65piqswj,83VTy1PC,2020-0188,2021-10-31,12:37:34,14:05:51,NA,incomplete,false,true,NA,NA,5,5,NA,black,m_s_048.jpg,NA,NA,NA,NA,NA,unpleasant,pleasant,NA,NA,NA,NA,NA,right,1770.7549999468,true,NA,NA,NA,NA,NA,NA,NA,NA
83VTy1PC,375vsr8fwzmfz1886kcfytzzg59zr5,3x0h8uuit51pt51a1oxfej65piqswj,83VTy1PC,2020-0188,2021-10-31,12:37:34,14:05:51,NA,incomplete,false,true,NA,NA,5,6,NA,green,n_l_006.jpg,NA,NA,NA,NA,NA,unpleasant,pleasant,NA,NA,NA,NA,NA,right,2023.65999994799,true,NA,NA,NA,NA,NA,NA,NA,NA
83VTy1PC,375vsr8fwzmfz1886kcfytzzg59zr5,3x0h8uuit51pt51a1oxfej65piqswj,83VTy1PC,2020-0188,2021-10-31,12:37:34,14:05:51,NA,incomplete,false,true,NA,NA,5,7,NA,green,m_s_037.jpg,NA,NA,NA,NA,NA,pleasant,unpleasant,NA,NA,NA,NA,NA,left,1476.64000000805,true,NA,NA,NA,NA,NA,NA,NA,NA
83VTy1PC,375vsr8fwzmfz1886kcfytzzg59zr5,3x0h8uuit51pt51a1oxfej65piqswj,83VTy1PC,2020-0188,2021-10-31,12:37:34,14:05:51,NA,incomplete,false,true,NA,NA,5,8,NA,green,m_s_077.jpg,NA,NA,NA,NA,NA,unpleasant,pleasant,NA,NA,NA,NA,NA,left,2145.99500014447,true,NA,NA,NA,NA,NA,NA,NA,NA
83VTy1PC,375vsr8fwzmfz1886kcfytzzg59zr5,3x0h8uuit51pt51a1oxfej65piqswj,83VTy1PC,2020-0188,2021-10-31,12:37:34,14:05:51,NA,incomplete,false,true,NA,NA,5,9,NA,green,m_l_050.jpg,NA,NA,NA,NA,NA,pleasant,unpleasant,NA,NA,NA,NA,NA,right,1375.95499982126,true,NA,NA,NA,NA,NA,NA,NA,NA
83VTy1PC,375vsr8fwzmfz1886kcfytzzg59zr5,3x0h8uuit51pt51a1oxfej65piqswj,83VTy1PC,2020-0188,2021-10-31,12:37:34,14:05:51,NA,incomplete,false,true,NA,NA,5,10,NA,green,n_l_030.jpg,NA,NA,NA,NA,NA,unpleasant,pleasant,NA,NA,NA,NA,NA,right,1820.36000001244,true,NA,NA,NA,NA,NA,NA,NA,NA
83VTy1PC,375vsr8fwzmfz1886kcfytzzg59zr5,3x0h8uuit51pt51a1oxfej65piqswj,83VTy1PC,2020-0188,2021-10-31,12:37:34,14:05:51,NA,incomplete,false,true,NA,NA,5,11,NA,green,m_l_100.jpg,NA,NA,NA,NA,NA,pleasant,unpleasant,NA,NA,NA,NA,NA,left,2159.89000000991,true,NA,NA,NA,NA,NA,NA,NA,NA
83VTy1PC,375vsr8fwzmfz1886kcfytzzg59zr5,3x0h8uuit51pt51a1oxfej65piqswj,83VTy1PC,2020-0188,2021-10-31,12:37:34,14:05:51,NA,incomplete,false,true,NA,NA,5,12,NA,blue,n_l_050.jpg,NA,NA,NA,NA,NA,pleasant,unpleasant,NA,NA,NA,NA,NA,left,2181.40500015579,true,NA,NA,NA,NA,NA,NA,NA,NA
