workerId,hitId,assignmentId,subject,studyid,exp_date,exp_start,exp_end,time_start,time_end,practice,encoding,memory,association,block,trial,event_order,event,stim,answer,object,left_context,right_context,context_type,label_left,label_right,left_image,left_event,right_image,right_event,condition,response,response_time,response_acc,association_response_time,association_response,association_acc,order_response,order_response_time,order_acc,distance_response,distance_response_time
shiNED7e,3icohx7eofotocxdgkfntnxuj980e9,3x1fv8s5j149obsegey2334ouyovgm,shiNED7e,2020-0188,2021-10-31,12:05:55,13:29:39,NA,incomplete,true,true,NA,NA,0,0,NA,yellow,m_l_104.jpg,NA,NA,NA,NA,NA,unpleasant,pleasant,NA,NA,NA,NA,NA,left,1396,true,NA,NA,NA,NA,NA,NA,NA,NA
shiNED7e,3icohx7eofotocxdgkfntnxuj980e9,3x1fv8s5j149obsegey2334ouyovgm,shiNED7e,2020-0188,2021-10-31,12:05:55,13:29:39,NA,incomplete,true,true,NA,NA,0,1,NA,yellow,m_s_098.jpg,NA,NA,NA,NA,NA,unpleasant,pleasant,NA,NA,NA,NA,NA,right,1662,true,NA,NA,NA,NA,NA,NA,NA,NA
shiNED7e,3icohx7eofotocxdgkfntnxuj980e9,3x1fv8s5j149obsegey2334ouyovgm,shiNED7e,2020-0188,2021-10-31,12:05:55,13:29:39,NA,incomplete,true,true,NA,NA,0,2,NA,yellow,m_l_059.jpg,NA,NA,NA,NA,NA,unpleasant,pleasant,NA,NA,NA,NA,NA,left,1610,true,NA,NA,NA,NA,NA,NA,NA,NA
shiNED7e,3icohx7eofotocxdgkfntnxuj980e9,3x1fv8s5j149obsegey2334ouyovgm,shiNED7e,2020-0188,2021-10-31,12:05:55,13:29:39,NA,incomplete,true,true,NA,NA,0,3,NA,yellow,n_l_024.jpg,NA,NA,NA,NA,NA,unpleasant,pleasant,NA,NA,NA,NA,NA,left,1268,true,NA,NA,NA,NA,NA,NA,NA,NA
shiNED7e,3icohx7eofotocxdgkfntnxuj980e9,3x1fv8s5j149obsegey2334ouyovgm,shiNED7e,2020-0188,2021-10-31,12:05:55,13:29:39,NA,incomplete,true,true,NA,NA,0,4,NA,yellow,n_s_043.jpg,NA,NA,NA,NA,NA,unpleasant,pleasant,NA,NA,NA,NA,NA,right,1836,true,NA,NA,NA,NA,NA,NA,NA,NA
shiNED7e,3icohx7eofotocxdgkfntnxuj980e9,3x1fv8s5j149obsegey2334ouyovgm,shiNED7e,2020-0188,2021-10-31,12:05:55,13:29:39,NA,incomplete,true,true,NA,NA,0,5,NA,yellow,n_s_103.jpg,NA,NA,NA,NA,NA,unpleasant,pleasant,NA,NA,NA,NA,NA,right,1429,true,NA,NA,NA,NA,NA,NA,NA,NA
shiNED7e,3icohx7eofotocxdgkfntnxuj980e9,3x1fv8s5j149obsegey2334ouyovgm,shiNED7e,2020-0188,2021-10-31,12:05:55,13:29:39,NA,incomplete,true,true,NA,NA,0,6,NA,purple,n_l_028.jpg,NA,NA,NA,NA,NA,pleasant,unpleasant,NA,NA,NA,NA,NA,left,1425,true,NA,NA,NA,NA,NA,NA,NA,NA
shiNED7e,3icohx7eofotocxdgkfntnxuj980e9,3x1fv8s5j149obsegey2334ouyovgm,shiNED7e,2020-0188,2021-10-31,12:05:55,13:29:39,NA,incomplete,true,true,NA,NA,0,7,NA,purple,n_l_090.jpg,NA,NA,NA,NA,NA,unpleasant,pleasant,NA,NA,NA,NA,NA,left,1625,true,NA,NA,NA,NA,NA,NA,NA,NA
shiNED7e,3icohx7eofotocxdgkfntnxuj980e9,3x1fv8s5j149obsegey2334ouyovgm,shiNED7e,2020-0188,2021-10-31,12:05:55,13:29:39,NA,incomplete,true,true,NA,NA,0,8,NA,purple,m_s_103.jpg,NA,NA,NA,NA,NA,unpleasant,pleasant,NA,NA,NA,NA,NA,right,1683,true,NA,NA,NA,NA,NA,NA,NA,NA
shiNED7e,3icohx7eofotocxdgkfntnxuj980e9,3x1fv8s5j149obsegey2334ouyovgm,shiNED7e,2020-0188,2021-10-31,12:05:55,13:29:39,NA,incomplete,true,true,NA,NA,0,9,NA,purple,n_l_052.jpg,NA,NA,NA,NA,NA,pleasant,unpleasant,NA,NA,NA,NA,NA,left,1625,true,NA,NA,NA,NA,NA,NA,NA,NA
shiNED7e,3icohx7eofotocxdgkfntnxuj980e9,3x1fv8s5j149obsegey2334ouyovgm,shiNED7e,2020-0188,2021-10-31,12:05:55,13:29:39,NA,incomplete,true,true,NA,NA,0,10,NA,purple,n_l_017.jpg,NA,NA,NA,NA,NA,pleasant,unpleasant,NA,NA,NA,NA,NA,right,1337,true,NA,NA,NA,NA,NA,NA,NA,NA
shiNED7e,3icohx7eofotocxdgkfntnxuj980e9,3x1fv8s5j149obsegey2334ouyovgm,shiNED7e,2020-0188,2021-10-31,12:05:55,13:29:39,NA,incomplete,true,true,NA,NA,0,11,NA,purple,m_s_017.jpg,NA,NA,NA,NA,NA,unpleasant,pleasant,NA,NA,NA,NA,NA,left,1682,true,NA,NA,NA,NA,NA,NA,NA,NA
shiNED7e,3icohx7eofotocxdgkfntnxuj980e9,3x1fv8s5j149obsegey2334ouyovgm,shiNED7e,2020-0188,2021-10-31,12:05:55,13:29:39,NA,incomplete,true,true,NA,NA,0,12,NA,blue,m_s_005.jpg,NA,NA,NA,NA,NA,unpleasant,pleasant,NA,NA,NA,NA,NA,right,2116,true,NA,NA,NA,NA,NA,NA,NA,NA
shiNED7e,3icohx7eofotocxdgkfntnxuj980e9,3x1fv8s5j149obsegey2334ouyovgm,shiNED7e,2020-0188,2021-10-31,12:05:55,13:29:39,NA,incomplete,true,true,NA,NA,0,13,NA,blue,n_l_010.jpg,NA,NA,NA,NA,NA,unpleasant,pleasant,NA,NA,NA,NA,NA,right,2123,true,NA,NA,NA,NA,NA,NA,NA,NA
shiNED7e,3icohx7eofotocxdgkfntnxuj980e9,3x1fv8s5j149obsegey2334ouyovgm,shiNED7e,2020-0188,2021-10-31,12:05:55,13:29:39,NA,incomplete,true,true,NA,NA,0,14,NA,blue,n_s_009.jpg,NA,NA,NA,NA,NA,pleasant,unpleasant,NA,NA,NA,NA,NA,right,2519,true,NA,NA,NA,NA,NA,NA,NA,NA
shiNED7e,3icohx7eofotocxdgkfntnxuj980e9,3x1fv8s5j149obsegey2334ouyovgm,shiNED7e,2020-0188,2021-10-31,12:05:55,13:29:39,NA,incomplete,true,true,NA,NA,0,15,NA,blue,n_s_061.jpg,NA,NA,NA,NA,NA,pleasant,unpleasant,NA,NA,NA,NA,NA,left,2043,true,NA,NA,NA,NA,NA,NA,NA,NA
shiNED7e,3icohx7eofotocxdgkfntnxuj980e9,3x1fv8s5j149obsegey2334ouyovgm,shiNED7e,2020-0188,2021-10-31,12:05:55,13:29:39,NA,incomplete,true,true,NA,NA,0,16,NA,blue,m_s_039.jpg,NA,NA,NA,NA,NA,unpleasant,pleasant,NA,NA,NA,NA,NA,right,1875,true,NA,NA,NA,NA,NA,NA,NA,NA
shiNED7e,3icohx7eofotocxdgkfntnxuj980e9,3x1fv8s5j149obsegey2334ouyovgm,shiNED7e,2020-0188,2021-10-31,12:05:55,13:29:39,NA,incomplete,true,true,NA,NA,0,17,NA,blue,n_s_008.jpg,NA,NA,NA,NA,NA,unpleasant,pleasant,NA,NA,NA,NA,NA,left,2138,true,NA,NA,NA,NA,NA,NA,NA,NA
shiNED7e,3icohx7eofotocxdgkfntnxuj980e9,3x1fv8s5j149obsegey2334ouyovgm,shiNED7e,2020-0188,2021-10-31,12:05:55,13:29:39,NA,incomplete,true,true,NA,NA,0,18,NA,green,n_l_038.jpg,NA,NA,NA,NA,NA,unpleasant,pleasant,NA,NA,NA,NA,NA,left,1716,true,NA,NA,NA,NA,NA,NA,NA,NA
shiNED7e,3icohx7eofotocxdgkfntnxuj980e9,3x1fv8s5j149obsegey2334ouyovgm,shiNED7e,2020-0188,2021-10-31,12:05:55,13:29:39,NA,incomplete,true,true,NA,NA,0,19,NA,green,n_l_051.jpg,NA,NA,NA,NA,NA,pleasant,unpleasant,NA,NA,NA,NA,NA,left,1011,true,NA,NA,NA,NA,NA,NA,NA,NA
shiNED7e,3icohx7eofotocxdgkfntnxuj980e9,3x1fv8s5j149obsegey2334ouyovgm,shiNED7e,2020-0188,2021-10-31,12:05:55,13:29:39,NA,incomplete,true,true,NA,NA,0,20,NA,green,m_s_021.jpg,NA,NA,NA,NA,NA,pleasant,unpleasant,NA,NA,NA,NA,NA,left,1802,true,NA,NA,NA,NA,NA,NA,NA,NA
shiNED7e,3icohx7eofotocxdgkfntnxuj980e9,3x1fv8s5j149obsegey2334ouyovgm,shiNED7e,2020-0188,2021-10-31,12:05:55,13:29:39,NA,incomplete,true,true,NA,NA,0,21,NA,green,n_l_080.jpg,NA,NA,NA,NA,NA,unpleasant,pleasant,NA,NA,NA,NA,NA,right,1570,true,NA,NA,NA,NA,NA,NA,NA,NA
shiNED7e,3icohx7eofotocxdgkfntnxuj980e9,3x1fv8s5j149obsegey2334ouyovgm,shiNED7e,2020-0188,2021-10-31,12:05:55,13:29:39,NA,incomplete,true,true,NA,NA,0,22,NA,green,n_s_096.jpg,NA,NA,NA,NA,NA,pleasant,unpleasant,NA,NA,NA,NA,NA,left,1666,true,NA,NA,NA,NA,NA,NA,NA,NA
shiNED7e,3icohx7eofotocxdgkfntnxuj980e9,3x1fv8s5j149obsegey2334ouyovgm,shiNED7e,2020-0188,2021-10-31,12:05:55,13:29:39,NA,incomplete,true,true,NA,NA,0,23,NA,green,n_s_060.jpg,NA,NA,NA,NA,NA,unpleasant,pleasant,NA,NA,NA,NA,NA,right,1972,true,NA,NA,NA,NA,NA,NA,NA,NA
shiNED7e,3icohx7eofotocxdgkfntnxuj980e9,3x1fv8s5j149obsegey2334ouyovgm,shiNED7e,2020-0188,2021-10-31,12:05:55,13:29:39,NA,incomplete,true,true,NA,NA,0,24,NA,brown,m_l_085.jpg,NA,NA,NA,NA,NA,unpleasant,pleasant,NA,NA,NA,NA,NA,left,1425,true,NA,NA,NA,NA,NA,NA,NA,NA
shiNED7e,3icohx7eofotocxdgkfntnxuj980e9,3x1fv8s5j149obsegey2334ouyovgm,shiNED7e,2020-0188,2021-10-31,12:05:55,13:29:39,NA,incomplete,true,true,NA,NA,0,25,NA,brown,n_l_057.jpg,NA,NA,NA,NA,NA,pleasant,unpleasant,NA,NA,NA,NA,NA,left,1589,true,NA,NA,NA,NA,NA,NA,NA,NA
shiNED7e,3icohx7eofotocxdgkfntnxuj980e9,3x1fv8s5j149obsegey2334ouyovgm,shiNED7e,2020-0188,2021-10-31,12:05:55,13:29:39,NA,incomplete,true,true,NA,NA,0,26,NA,brown,m_s_082.jpg,NA,NA,NA,NA,NA,unpleasant,pleasant,NA,NA,NA,NA,NA,right,1739,true,NA,NA,NA,NA,NA,NA,NA,NA
shiNED7e,3icohx7eofotocxdgkfntnxuj980e9,3x1fv8s5j149obsegey2334ouyovgm,shiNED7e,2020-0188,2021-10-31,12:05:55,13:29:39,NA,incomplete,true,true,NA,NA,0,27,NA,brown,n_l_032.jpg,NA,NA,NA,NA,NA,unpleasant,pleasant,NA,NA,NA,NA,NA,right,1625,true,NA,NA,NA,NA,NA,NA,NA,NA
shiNED7e,3icohx7eofotocxdgkfntnxuj980e9,3x1fv8s5j149obsegey2334ouyovgm,shiNED7e,2020-0188,2021-10-31,12:05:55,13:29:39,NA,incomplete,true,true,NA,NA,0,28,NA,brown,n_l_092.jpg,NA,NA,NA,NA,NA,pleasant,unpleasant,NA,NA,NA,NA,NA,right,1850,true,NA,NA,NA,NA,NA,NA,NA,NA
shiNED7e,3icohx7eofotocxdgkfntnxuj980e9,3x1fv8s5j149obsegey2334ouyovgm,shiNED7e,2020-0188,2021-10-31,12:05:55,13:29:39,NA,incomplete,true,true,NA,NA,0,29,NA,brown,m_s_095.jpg,NA,NA,NA,NA,NA,unpleasant,pleasant,NA,NA,NA,NA,NA,right,1831,true,NA,NA,NA,NA,NA,NA,NA,NA
shiNED7e,3icohx7eofotocxdgkfntnxuj980e9,3x1fv8s5j149obsegey2334ouyovgm,shiNED7e,2020-0188,2021-10-31,12:05:55,13:29:39,NA,incomplete,true,true,NA,NA,0,30,NA,black,m_l_004.jpg,NA,NA,NA,NA,NA,pleasant,unpleasant,NA,NA,NA,NA,NA,left,1517,true,NA,NA,NA,NA,NA,NA,NA,NA
shiNED7e,3icohx7eofotocxdgkfntnxuj980e9,3x1fv8s5j149obsegey2334ouyovgm,shiNED7e,2020-0188,2021-10-31,12:05:55,13:29:39,NA,incomplete,true,true,NA,NA,0,31,NA,black,n_s_099.jpg,NA,NA,NA,NA,NA,unpleasant,pleasant,NA,NA,NA,NA,NA,right,1742,true,NA,NA,NA,NA,NA,NA,NA,NA
shiNED7e,3icohx7eofotocxdgkfntnxuj980e9,3x1fv8s5j149obsegey2334ouyovgm,shiNED7e,2020-0188,2021-10-31,12:05:55,13:29:39,NA,incomplete,true,true,NA,NA,0,32,NA,black,n_s_018.jpg,NA,NA,NA,NA,NA,unpleasant,pleasant,NA,NA,NA,NA,NA,left,1946,true,NA,NA,NA,NA,NA,NA,NA,NA
shiNED7e,3icohx7eofotocxdgkfntnxuj980e9,3x1fv8s5j149obsegey2334ouyovgm,shiNED7e,2020-0188,2021-10-31,12:05:55,13:29:39,NA,incomplete,true,true,NA,NA,0,33,NA,black,m_l_025.jpg,NA,NA,NA,NA,NA,pleasant,unpleasant,NA,NA,NA,NA,NA,right,1165,true,NA,NA,NA,NA,NA,NA,NA,NA
shiNED7e,3icohx7eofotocxdgkfntnxuj980e9,3x1fv8s5j149obsegey2334ouyovgm,shiNED7e,2020-0188,2021-10-31,12:05:55,13:29:39,NA,incomplete,true,true,NA,NA,0,34,NA,black,n_l_069.jpg,NA,NA,NA,NA,NA,unpleasant,pleasant,NA,NA,NA,NA,NA,left,514,true,NA,NA,NA,NA,NA,NA,NA,NA
shiNED7e,3icohx7eofotocxdgkfntnxuj980e9,3x1fv8s5j149obsegey2334ouyovgm,shiNED7e,2020-0188,2021-10-31,12:05:55,13:29:39,NA,incomplete,true,true,NA,NA,0,35,NA,black,m_l_017.jpg,NA,NA,NA,NA,NA,unpleasant,pleasant,NA,NA,NA,NA,NA,right,2405,true,NA,NA,NA,NA,NA,NA,NA,NA
shiNED7e,3icohx7eofotocxdgkfntnxuj980e9,3x1fv8s5j149obsegey2334ouyovgm,shiNED7e,2020-0188,2021-10-31,12:05:55,13:29:39,NA,incomplete,true,NA,NA,true,0,0,NA,NA,NA,right,n_s_103.jpg,purple,yellow,NA,NA,NA,NA,NA,NA,NA,NA,NA,NaN,NA,5073,left,0,NA,NA,NA,NA,NA
shiNED7e,3icohx7eofotocxdgkfntnxuj980e9,3x1fv8s5j149obsegey2334ouyovgm,shiNED7e,2020-0188,2021-10-31,12:05:55,13:29:39,NA,incomplete,true,NA,NA,true,0,1,NA,NA,NA,left,m_s_098.jpg,yellow,purple,NA,NA,NA,NA,NA,NA,NA,NA,NA,NaN,NA,1868,right,0,NA,NA,NA,NA,NA
shiNED7e,3icohx7eofotocxdgkfntnxuj980e9,3x1fv8s5j149obsegey2334ouyovgm,shiNED7e,2020-0188,2021-10-31,12:05:55,13:29:39,NA,incomplete,true,NA,NA,true,0,2,NA,NA,NA,right,n_s_096.jpg,brown,green,NA,NA,NA,NA,NA,NA,NA,NA,NA,NaN,NA,2307,left,0,NA,NA,NA,NA,NA
shiNED7e,3icohx7eofotocxdgkfntnxuj980e9,3x1fv8s5j149obsegey2334ouyovgm,shiNED7e,2020-0188,2021-10-31,12:05:55,13:29:39,NA,incomplete,true,NA,NA,true,0,3,NA,NA,NA,left,n_l_092.jpg,brown,black,NA,NA,NA,NA,NA,NA,NA,NA,NA,NaN,NA,2331,left,1,NA,NA,NA,NA,NA
shiNED7e,3icohx7eofotocxdgkfntnxuj980e9,3x1fv8s5j149obsegey2334ouyovgm,shiNED7e,2020-0188,2021-10-31,12:05:55,13:29:39,NA,incomplete,true,NA,NA,true,0,4,NA,NA,NA,right,n_s_099.jpg,brown,black,NA,NA,NA,NA,NA,NA,NA,NA,NA,NaN,NA,3119,right,1,NA,NA,NA,NA,NA
shiNED7e,3icohx7eofotocxdgkfntnxuj980e9,3x1fv8s5j149obsegey2334ouyovgm,shiNED7e,2020-0188,2021-10-31,12:05:55,13:29:39,NA,incomplete,true,NA,NA,true,0,5,NA,NA,NA,right,n_s_018.jpg,brown,black,NA,NA,NA,NA,NA,NA,NA,NA,NA,NaN,NA,5638,left,0,NA,NA,NA,NA,NA
shiNED7e,3icohx7eofotocxdgkfntnxuj980e9,3x1fv8s5j149obsegey2334ouyovgm,shiNED7e,2020-0188,2021-10-31,12:05:55,13:29:39,NA,incomplete,true,NA,NA,true,0,6,NA,NA,NA,right,m_s_095.jpg,green,brown,NA,NA,NA,NA,NA,NA,NA,NA,NA,NaN,NA,1816,right,1,NA,NA,NA,NA,NA
shiNED7e,3icohx7eofotocxdgkfntnxuj980e9,3x1fv8s5j149obsegey2334ouyovgm,shiNED7e,2020-0188,2021-10-31,12:05:55,13:29:39,NA,incomplete,true,NA,NA,true,0,7,NA,NA,NA,right,m_s_039.jpg,purple,blue,NA,NA,NA,NA,NA,NA,NA,NA,NA,NaN,NA,2030,left,0,NA,NA,NA,NA,NA
shiNED7e,3icohx7eofotocxdgkfntnxuj980e9,3x1fv8s5j149obsegey2334ouyovgm,shiNED7e,2020-0188,2021-10-31,12:05:55,13:29:39,NA,incomplete,true,NA,NA,true,0,8,NA,NA,NA,right,n_s_009.jpg,purple,blue,NA,NA,NA,NA,NA,NA,NA,NA,NA,NaN,NA,1469,right,1,NA,NA,NA,NA,NA
shiNED7e,3icohx7eofotocxdgkfntnxuj980e9,3x1fv8s5j149obsegey2334ouyovgm,shiNED7e,2020-0188,2021-10-31,12:05:55,13:29:39,NA,incomplete,true,NA,NA,true,0,9,NA,NA,NA,left,m_l_017.jpg,black,brown,NA,NA,NA,NA,NA,NA,NA,NA,NA,NaN,NA,2334,left,1,NA,NA,NA,NA,NA
shiNED7e,3icohx7eofotocxdgkfntnxuj980e9,3x1fv8s5j149obsegey2334ouyovgm,shiNED7e,2020-0188,2021-10-31,12:05:55,13:29:39,NA,incomplete,true,NA,NA,true,0,10,NA,NA,NA,right,m_s_017.jpg,blue,purple,NA,NA,NA,NA,NA,NA,NA,NA,NA,NaN,NA,5177,right,1,NA,NA,NA,NA,NA
shiNED7e,3icohx7eofotocxdgkfntnxuj980e9,3x1fv8s5j149obsegey2334ouyovgm,shiNED7e,2020-0188,2021-10-31,12:05:55,13:29:39,NA,incomplete,true,NA,NA,true,0,11,NA,NA,NA,left,n_l_051.jpg,green,blue,NA,NA,NA,NA,NA,NA,NA,NA,NA,NaN,NA,4208,left,1,NA,NA,NA,NA,NA
shiNED7e,3icohx7eofotocxdgkfntnxuj980e9,3x1fv8s5j149obsegey2334ouyovgm,shiNED7e,2020-0188,2021-10-31,12:05:55,13:29:39,NA,incomplete,true,NA,NA,true,0,12,NA,NA,NA,left,n_l_017.jpg,purple,yellow,NA,NA,NA,NA,NA,NA,NA,NA,NA,NaN,NA,8102,left,1,NA,NA,NA,NA,NA
shiNED7e,3icohx7eofotocxdgkfntnxuj980e9,3x1fv8s5j149obsegey2334ouyovgm,shiNED7e,2020-0188,2021-10-31,12:05:55,13:29:39,NA,incomplete,true,NA,NA,true,0,13,NA,NA,NA,right,n_l_090.jpg,yellow,purple,NA,NA,NA,NA,NA,NA,NA,NA,NA,NaN,NA,6289,right,1,NA,NA,NA,NA,NA
shiNED7e,3icohx7eofotocxdgkfntnxuj980e9,3x1fv8s5j149obsegey2334ouyovgm,shiNED7e,2020-0188,2021-10-31,12:05:55,13:29:39,NA,incomplete,true,NA,NA,true,0,14,NA,NA,NA,left,n_l_057.jpg,brown,black,NA,NA,NA,NA,NA,NA,NA,NA,NA,NaN,NA,12360,right,0,NA,NA,NA,NA,NA
shiNED7e,3icohx7eofotocxdgkfntnxuj980e9,3x1fv8s5j149obsegey2334ouyovgm,shiNED7e,2020-0188,2021-10-31,12:05:55,13:29:39,NA,incomplete,true,NA,NA,true,0,15,NA,NA,NA,right,m_s_082.jpg,black,brown,NA,NA,NA,NA,NA,NA,NA,NA,NA,NaN,NA,6059,left,0,NA,NA,NA,NA,NA
shiNED7e,3icohx7eofotocxdgkfntnxuj980e9,3x1fv8s5j149obsegey2334ouyovgm,shiNED7e,2020-0188,2021-10-31,12:05:55,13:29:39,NA,incomplete,true,NA,NA,true,0,16,NA,NA,NA,left,n_l_010.jpg,blue,purple,NA,NA,NA,NA,NA,NA,NA,NA,NA,NaN,NA,5677,left,1,NA,NA,NA,NA,NA
shiNED7e,3icohx7eofotocxdgkfntnxuj980e9,3x1fv8s5j149obsegey2334ouyovgm,shiNED7e,2020-0188,2021-10-31,12:05:55,13:29:39,NA,incomplete,true,NA,NA,true,0,17,NA,NA,NA,right,m_s_103.jpg,blue,purple,NA,NA,NA,NA,NA,NA,NA,NA,NA,NaN,NA,3423,right,1,NA,NA,NA,NA,NA
shiNED7e,3icohx7eofotocxdgkfntnxuj980e9,3x1fv8s5j149obsegey2334ouyovgm,shiNED7e,2020-0188,2021-10-31,12:05:55,13:29:39,NA,incomplete,true,NA,NA,true,0,18,NA,NA,NA,left,n_s_043.jpg,yellow,purple,NA,NA,NA,NA,NA,NA,NA,NA,NA,NaN,NA,2173,left,1,NA,NA,NA,NA,NA
shiNED7e,3icohx7eofotocxdgkfntnxuj980e9,3x1fv8s5j149obsegey2334ouyovgm,shiNED7e,2020-0188,2021-10-31,12:05:55,13:29:39,NA,incomplete,true,NA,NA,true,0,19,NA,NA,NA,right,m_s_021.jpg,brown,green,NA,NA,NA,NA,NA,NA,NA,NA,NA,NaN,NA,1353,right,1,NA,NA,NA,NA,NA
shiNED7e,3icohx7eofotocxdgkfntnxuj980e9,3x1fv8s5j149obsegey2334ouyovgm,shiNED7e,2020-0188,2021-10-31,12:05:55,13:29:39,NA,incomplete,true,NA,NA,true,0,20,NA,NA,NA,left,n_s_060.jpg,green,brown,NA,NA,NA,NA,NA,NA,NA,NA,NA,NaN,NA,1575,left,1,NA,NA,NA,NA,NA
shiNED7e,3icohx7eofotocxdgkfntnxuj980e9,3x1fv8s5j149obsegey2334ouyovgm,shiNED7e,2020-0188,2021-10-31,12:05:55,13:29:39,NA,incomplete,true,NA,NA,true,0,21,NA,NA,NA,right,n_s_008.jpg,purple,blue,NA,NA,NA,NA,NA,NA,NA,NA,NA,NaN,NA,1636,right,1,NA,NA,NA,NA,NA
shiNED7e,3icohx7eofotocxdgkfntnxuj980e9,3x1fv8s5j149obsegey2334ouyovgm,shiNED7e,2020-0188,2021-10-31,12:05:55,13:29:39,NA,incomplete,true,NA,true,NA,0,0,NA,NA,NA,right,NA,NA,NA,present,NA,NA,n_s_008.jpg,blue,n_l_010.jpg,blue,within,NA,NaN,NA,NA,NA,NA,right,3287,1,1,7303
shiNED7e,3icohx7eofotocxdgkfntnxuj980e9,3x1fv8s5j149obsegey2334ouyovgm,shiNED7e,2020-0188,2021-10-31,12:05:55,13:29:39,NA,incomplete,true,NA,true,NA,0,1,NA,NA,NA,left,NA,NA,NA,present,NA,NA,m_s_098.jpg,yellow,n_s_103.jpg,yellow,within,NA,NaN,NA,NA,NA,NA,left,2305,1,0,2203
shiNED7e,3icohx7eofotocxdgkfntnxuj980e9,3x1fv8s5j149obsegey2334ouyovgm,shiNED7e,2020-0188,2021-10-31,12:05:55,13:29:39,NA,incomplete,true,NA,true,NA,0,2,NA,NA,NA,left,NA,NA,NA,present,NA,NA,n_s_099.jpg,black,m_l_017.jpg,black,within,NA,NaN,NA,NA,NA,NA,right,2558,0,1,2174
shiNED7e,3icohx7eofotocxdgkfntnxuj980e9,3x1fv8s5j149obsegey2334ouyovgm,shiNED7e,2020-0188,2021-10-31,12:05:55,13:29:39,NA,incomplete,true,NA,true,NA,0,3,NA,NA,NA,left,NA,NA,NA,present,NA,NA,m_s_039.jpg,blue,m_s_021.jpg,green,between,NA,NaN,NA,NA,NA,NA,right,2543,0,2,2164
shiNED7e,3icohx7eofotocxdgkfntnxuj980e9,3x1fv8s5j149obsegey2334ouyovgm,shiNED7e,2020-0188,2021-10-31,12:05:55,13:29:39,NA,incomplete,true,NA,true,NA,0,4,NA,NA,NA,right,NA,NA,NA,present,NA,NA,n_s_060.jpg,green,n_l_051.jpg,green,within,NA,NaN,NA,NA,NA,NA,right,4298,1,1,4894
shiNED7e,3icohx7eofotocxdgkfntnxuj980e9,3x1fv8s5j149obsegey2334ouyovgm,shiNED7e,2020-0188,2021-10-31,12:05:55,13:29:39,NA,incomplete,true,NA,true,NA,0,5,NA,NA,NA,right,NA,NA,NA,present,NA,NA,m_s_082.jpg,brown,n_s_096.jpg,green,between,NA,NaN,NA,NA,NA,NA,right,3708,1,2,6687
shiNED7e,3icohx7eofotocxdgkfntnxuj980e9,3x1fv8s5j149obsegey2334ouyovgm,shiNED7e,2020-0188,2021-10-31,12:05:55,13:29:39,NA,incomplete,true,NA,true,NA,0,6,NA,NA,NA,right,NA,NA,NA,present,NA,NA,n_s_009.jpg,blue,n_l_017.jpg,purple,between,NA,NaN,NA,NA,NA,NA,right,3719,1,1,6192
shiNED7e,3icohx7eofotocxdgkfntnxuj980e9,3x1fv8s5j149obsegey2334ouyovgm,shiNED7e,2020-0188,2021-10-31,12:05:55,13:29:39,NA,incomplete,true,NA,true,NA,0,7,NA,NA,NA,right,NA,NA,NA,present,NA,NA,m_s_017.jpg,purple,n_l_090.jpg,purple,within,NA,NaN,NA,NA,NA,NA,right,3701,1,2,6647
shiNED7e,3icohx7eofotocxdgkfntnxuj980e9,3x1fv8s5j149obsegey2334ouyovgm,shiNED7e,2020-0188,2021-10-31,12:05:55,13:29:39,NA,incomplete,true,NA,true,NA,0,8,NA,NA,NA,right,NA,NA,NA,present,NA,NA,m_s_095.jpg,brown,n_l_057.jpg,brown,within,NA,NaN,NA,NA,NA,NA,right,4885,1,3,5393
shiNED7e,3icohx7eofotocxdgkfntnxuj980e9,3x1fv8s5j149obsegey2334ouyovgm,shiNED7e,2020-0188,2021-10-31,12:05:55,13:29:39,NA,incomplete,true,NA,true,NA,0,9,NA,NA,NA,left,NA,NA,NA,present,NA,NA,n_l_092.jpg,brown,n_s_018.jpg,black,between,NA,NaN,NA,NA,NA,NA,right,8476,0,2,5039
shiNED7e,3icohx7eofotocxdgkfntnxuj980e9,3x1fv8s5j149obsegey2334ouyovgm,shiNED7e,2020-0188,2021-10-31,12:05:55,13:29:39,NA,incomplete,true,NA,true,NA,0,10,NA,NA,NA,left,NA,NA,NA,present,NA,NA,n_s_043.jpg,yellow,m_s_103.jpg,purple,between,NA,NaN,NA,NA,NA,NA,left,6487,1,2,7606
shiNED7e,3icohx7eofotocxdgkfntnxuj980e9,3x1fv8s5j149obsegey2334ouyovgm,shiNED7e,2020-0188,2021-10-31,12:05:55,13:29:39,NA,incomplete,false,true,NA,NA,1,0,NA,orange,n_l_095.jpg,NA,NA,NA,NA,NA,pleasant,unpleasant,NA,NA,NA,NA,NA,left,2072,true,NA,NA,NA,NA,NA,NA,NA,NA
shiNED7e,3icohx7eofotocxdgkfntnxuj980e9,3x1fv8s5j149obsegey2334ouyovgm,shiNED7e,2020-0188,2021-10-31,12:05:55,13:29:39,NA,incomplete,false,true,NA,NA,1,1,NA,orange,n_l_053.jpg,NA,NA,NA,NA,NA,unpleasant,pleasant,NA,NA,NA,NA,NA,right,1679,true,NA,NA,NA,NA,NA,NA,NA,NA
shiNED7e,3icohx7eofotocxdgkfntnxuj980e9,3x1fv8s5j149obsegey2334ouyovgm,shiNED7e,2020-0188,2021-10-31,12:05:55,13:29:39,NA,incomplete,false,true,NA,NA,1,2,NA,orange,m_l_045.jpg,NA,NA,NA,NA,NA,pleasant,unpleasant,NA,NA,NA,NA,NA,left,1465,true,NA,NA,NA,NA,NA,NA,NA,NA
shiNED7e,3icohx7eofotocxdgkfntnxuj980e9,3x1fv8s5j149obsegey2334ouyovgm,shiNED7e,2020-0188,2021-10-31,12:05:55,13:29:39,NA,incomplete,false,true,NA,NA,1,3,NA,orange,m_s_025.jpg,NA,NA,NA,NA,NA,pleasant,unpleasant,NA,NA,NA,NA,NA,left,1786,true,NA,NA,NA,NA,NA,NA,NA,NA
shiNED7e,3icohx7eofotocxdgkfntnxuj980e9,3x1fv8s5j149obsegey2334ouyovgm,shiNED7e,2020-0188,2021-10-31,12:05:55,13:29:39,NA,incomplete,false,true,NA,NA,1,4,NA,orange,n_s_004.jpg,NA,NA,NA,NA,NA,pleasant,unpleasant,NA,NA,NA,NA,NA,right,1689,true,NA,NA,NA,NA,NA,NA,NA,NA
shiNED7e,3icohx7eofotocxdgkfntnxuj980e9,3x1fv8s5j149obsegey2334ouyovgm,shiNED7e,2020-0188,2021-10-31,12:05:55,13:29:39,NA,incomplete,false,true,NA,NA,1,5,NA,orange,n_s_057.jpg,NA,NA,NA,NA,NA,unpleasant,pleasant,NA,NA,NA,NA,NA,right,2262,true,NA,NA,NA,NA,NA,NA,NA,NA
shiNED7e,3icohx7eofotocxdgkfntnxuj980e9,3x1fv8s5j149obsegey2334ouyovgm,shiNED7e,2020-0188,2021-10-31,12:05:55,13:29:39,NA,incomplete,false,true,NA,NA,1,6,NA,purple,n_l_088.jpg,NA,NA,NA,NA,NA,pleasant,unpleasant,NA,NA,NA,NA,NA,right,1931,true,NA,NA,NA,NA,NA,NA,NA,NA
shiNED7e,3icohx7eofotocxdgkfntnxuj980e9,3x1fv8s5j149obsegey2334ouyovgm,shiNED7e,2020-0188,2021-10-31,12:05:55,13:29:39,NA,incomplete,false,true,NA,NA,1,7,NA,purple,n_l_107.jpg,NA,NA,NA,NA,NA,unpleasant,pleasant,NA,NA,NA,NA,NA,left,2018,true,NA,NA,NA,NA,NA,NA,NA,NA
shiNED7e,3icohx7eofotocxdgkfntnxuj980e9,3x1fv8s5j149obsegey2334ouyovgm,shiNED7e,2020-0188,2021-10-31,12:05:55,13:29:39,NA,incomplete,false,true,NA,NA,1,8,NA,purple,m_l_001.jpg,NA,NA,NA,NA,NA,pleasant,unpleasant,NA,NA,NA,NA,NA,left,2100,true,NA,NA,NA,NA,NA,NA,NA,NA
shiNED7e,3icohx7eofotocxdgkfntnxuj980e9,3x1fv8s5j149obsegey2334ouyovgm,shiNED7e,2020-0188,2021-10-31,12:05:55,13:29:39,NA,incomplete,false,true,NA,NA,1,9,NA,purple,m_s_024.jpg,NA,NA,NA,NA,NA,unpleasant,pleasant,NA,NA,NA,NA,NA,left,1467,true,NA,NA,NA,NA,NA,NA,NA,NA
shiNED7e,3icohx7eofotocxdgkfntnxuj980e9,3x1fv8s5j149obsegey2334ouyovgm,shiNED7e,2020-0188,2021-10-31,12:05:55,13:29:39,NA,incomplete,false,true,NA,NA,1,10,NA,purple,n_l_091.jpg,NA,NA,NA,NA,NA,unpleasant,pleasant,NA,NA,NA,NA,NA,right,1480,true,NA,NA,NA,NA,NA,NA,NA,NA
shiNED7e,3icohx7eofotocxdgkfntnxuj980e9,3x1fv8s5j149obsegey2334ouyovgm,shiNED7e,2020-0188,2021-10-31,12:05:55,13:29:39,NA,incomplete,false,true,NA,NA,1,11,NA,purple,m_s_061.jpg,NA,NA,NA,NA,NA,pleasant,unpleasant,NA,NA,NA,NA,NA,left,2091,true,NA,NA,NA,NA,NA,NA,NA,NA
shiNED7e,3icohx7eofotocxdgkfntnxuj980e9,3x1fv8s5j149obsegey2334ouyovgm,shiNED7e,2020-0188,2021-10-31,12:05:55,13:29:39,NA,incomplete,false,true,NA,NA,1,12,NA,white,m_l_024.jpg,NA,NA,NA,NA,NA,unpleasant,pleasant,NA,NA,NA,NA,NA,right,2731,true,NA,NA,NA,NA,NA,NA,NA,NA
shiNED7e,3icohx7eofotocxdgkfntnxuj980e9,3x1fv8s5j149obsegey2334ouyovgm,shiNED7e,2020-0188,2021-10-31,12:05:55,13:29:39,NA,incomplete,false,true,NA,NA,1,13,NA,white,n_l_101.jpg,NA,NA,NA,NA,NA,pleasant,unpleasant,NA,NA,NA,NA,NA,right,1877,true,NA,NA,NA,NA,NA,NA,NA,NA
shiNED7e,3icohx7eofotocxdgkfntnxuj980e9,3x1fv8s5j149obsegey2334ouyovgm,shiNED7e,2020-0188,2021-10-31,12:05:55,13:29:39,NA,incomplete,false,true,NA,NA,1,14,NA,white,n_l_117.jpg,NA,NA,NA,NA,NA,unpleasant,pleasant,NA,NA,NA,NA,NA,right,2150,true,NA,NA,NA,NA,NA,NA,NA,NA
shiNED7e,3icohx7eofotocxdgkfntnxuj980e9,3x1fv8s5j149obsegey2334ouyovgm,shiNED7e,2020-0188,2021-10-31,12:05:55,13:29:39,NA,incomplete,false,true,NA,NA,1,15,NA,white,m_s_042.jpg,NA,NA,NA,NA,NA,pleasant,unpleasant,NA,NA,NA,NA,NA,left,2420,true,NA,NA,NA,NA,NA,NA,NA,NA
shiNED7e,3icohx7eofotocxdgkfntnxuj980e9,3x1fv8s5j149obsegey2334ouyovgm,shiNED7e,2020-0188,2021-10-31,12:05:55,13:29:39,NA,incomplete,false,true,NA,NA,1,16,NA,white,m_l_084.jpg,NA,NA,NA,NA,NA,pleasant,unpleasant,NA,NA,NA,NA,NA,left,2294,true,NA,NA,NA,NA,NA,NA,NA,NA
shiNED7e,3icohx7eofotocxdgkfntnxuj980e9,3x1fv8s5j149obsegey2334ouyovgm,shiNED7e,2020-0188,2021-10-31,12:05:55,13:29:39,NA,incomplete,false,true,NA,NA,1,17,NA,white,n_s_005.jpg,NA,NA,NA,NA,NA,unpleasant,pleasant,NA,NA,NA,NA,NA,right,2620,true,NA,NA,NA,NA,NA,NA,NA,NA
shiNED7e,3icohx7eofotocxdgkfntnxuj980e9,3x1fv8s5j149obsegey2334ouyovgm,shiNED7e,2020-0188,2021-10-31,12:05:55,13:29:39,NA,incomplete,false,true,NA,NA,1,18,NA,green,n_s_087.jpg,NA,NA,NA,NA,NA,pleasant,unpleasant,NA,NA,NA,NA,NA,right,3210,true,NA,NA,NA,NA,NA,NA,NA,NA
shiNED7e,3icohx7eofotocxdgkfntnxuj980e9,3x1fv8s5j149obsegey2334ouyovgm,shiNED7e,2020-0188,2021-10-31,12:05:55,13:29:39,NA,incomplete,false,true,NA,NA,1,19,NA,green,m_s_020.jpg,NA,NA,NA,NA,NA,pleasant,unpleasant,NA,NA,NA,NA,NA,left,2167,true,NA,NA,NA,NA,NA,NA,NA,NA
shiNED7e,3icohx7eofotocxdgkfntnxuj980e9,3x1fv8s5j149obsegey2334ouyovgm,shiNED7e,2020-0188,2021-10-31,12:05:55,13:29:39,NA,incomplete,false,true,NA,NA,1,20,NA,green,n_s_050.jpg,NA,NA,NA,NA,NA,pleasant,unpleasant,NA,NA,NA,NA,NA,left,1915,true,NA,NA,NA,NA,NA,NA,NA,NA
shiNED7e,3icohx7eofotocxdgkfntnxuj980e9,3x1fv8s5j149obsegey2334ouyovgm,shiNED7e,2020-0188,2021-10-31,12:05:55,13:29:39,NA,incomplete,false,true,NA,NA,1,21,NA,green,m_l_046.jpg,NA,NA,NA,NA,NA,unpleasant,pleasant,NA,NA,NA,NA,NA,right,2262,true,NA,NA,NA,NA,NA,NA,NA,NA
shiNED7e,3icohx7eofotocxdgkfntnxuj980e9,3x1fv8s5j149obsegey2334ouyovgm,shiNED7e,2020-0188,2021-10-31,12:05:55,13:29:39,NA,incomplete,false,true,NA,NA,1,22,NA,green,n_s_028.jpg,NA,NA,NA,NA,NA,unpleasant,pleasant,NA,NA,NA,NA,NA,right,1674,true,NA,NA,NA,NA,NA,NA,NA,NA
shiNED7e,3icohx7eofotocxdgkfntnxuj980e9,3x1fv8s5j149obsegey2334ouyovgm,shiNED7e,2020-0188,2021-10-31,12:05:55,13:29:39,NA,incomplete,false,true,NA,NA,1,23,NA,green,m_s_071.jpg,NA,NA,NA,NA,NA,pleasant,unpleasant,NA,NA,NA,NA,NA,right,1622,true,NA,NA,NA,NA,NA,NA,NA,NA
shiNED7e,3icohx7eofotocxdgkfntnxuj980e9,3x1fv8s5j149obsegey2334ouyovgm,shiNED7e,2020-0188,2021-10-31,12:05:55,13:29:39,NA,incomplete,false,true,NA,NA,1,24,NA,brown,n_l_082.jpg,NA,NA,NA,NA,NA,pleasant,unpleasant,NA,NA,NA,NA,NA,right,2155,true,NA,NA,NA,NA,NA,NA,NA,NA
shiNED7e,3icohx7eofotocxdgkfntnxuj980e9,3x1fv8s5j149obsegey2334ouyovgm,shiNED7e,2020-0188,2021-10-31,12:05:55,13:29:39,NA,incomplete,false,true,NA,NA,1,25,NA,brown,m_s_027.jpg,NA,NA,NA,NA,NA,unpleasant,pleasant,NA,NA,NA,NA,NA,right,1803,true,NA,NA,NA,NA,NA,NA,NA,NA
shiNED7e,3icohx7eofotocxdgkfntnxuj980e9,3x1fv8s5j149obsegey2334ouyovgm,shiNED7e,2020-0188,2021-10-31,12:05:55,13:29:39,NA,incomplete,false,true,NA,NA,1,26,NA,brown,m_l_080.jpg,NA,NA,NA,NA,NA,pleasant,unpleasant,NA,NA,NA,NA,NA,left,1814,true,NA,NA,NA,NA,NA,NA,NA,NA
shiNED7e,3icohx7eofotocxdgkfntnxuj980e9,3x1fv8s5j149obsegey2334ouyovgm,shiNED7e,2020-0188,2021-10-31,12:05:55,13:29:39,NA,incomplete,false,true,NA,NA,1,27,NA,brown,n_l_027.jpg,NA,NA,NA,NA,NA,unpleasant,pleasant,NA,NA,NA,NA,NA,right,3047,true,NA,NA,NA,NA,NA,NA,NA,NA
shiNED7e,3icohx7eofotocxdgkfntnxuj980e9,3x1fv8s5j149obsegey2334ouyovgm,shiNED7e,2020-0188,2021-10-31,12:05:55,13:29:39,NA,incomplete,false,true,NA,NA,1,28,NA,brown,m_s_022.jpg,NA,NA,NA,NA,NA,pleasant,unpleasant,NA,NA,NA,NA,NA,left,1796,true,NA,NA,NA,NA,NA,NA,NA,NA
shiNED7e,3icohx7eofotocxdgkfntnxuj980e9,3x1fv8s5j149obsegey2334ouyovgm,shiNED7e,2020-0188,2021-10-31,12:05:55,13:29:39,NA,incomplete,false,true,NA,NA,1,29,NA,brown,m_s_092.jpg,NA,NA,NA,NA,NA,pleasant,unpleasant,NA,NA,NA,NA,NA,left,1449,true,NA,NA,NA,NA,NA,NA,NA,NA
shiNED7e,3icohx7eofotocxdgkfntnxuj980e9,3x1fv8s5j149obsegey2334ouyovgm,shiNED7e,2020-0188,2021-10-31,12:05:55,13:29:39,NA,incomplete,false,true,NA,NA,1,30,NA,black,n_l_022.jpg,NA,NA,NA,NA,NA,unpleasant,pleasant,NA,NA,NA,NA,NA,right,2187,true,NA,NA,NA,NA,NA,NA,NA,NA
shiNED7e,3icohx7eofotocxdgkfntnxuj980e9,3x1fv8s5j149obsegey2334ouyovgm,shiNED7e,2020-0188,2021-10-31,12:05:55,13:29:39,NA,incomplete,false,true,NA,NA,1,31,NA,black,m_s_007.jpg,NA,NA,NA,NA,NA,unpleasant,pleasant,NA,NA,NA,NA,NA,right,2528,true,NA,NA,NA,NA,NA,NA,NA,NA
shiNED7e,3icohx7eofotocxdgkfntnxuj980e9,3x1fv8s5j149obsegey2334ouyovgm,shiNED7e,2020-0188,2021-10-31,12:05:55,13:29:39,NA,incomplete,false,true,NA,NA,1,32,NA,black,m_l_097.jpg,NA,NA,NA,NA,NA,pleasant,unpleasant,NA,NA,NA,NA,NA,left,2795,true,NA,NA,NA,NA,NA,NA,NA,NA
shiNED7e,3icohx7eofotocxdgkfntnxuj980e9,3x1fv8s5j149obsegey2334ouyovgm,shiNED7e,2020-0188,2021-10-31,12:05:55,13:29:39,NA,incomplete,false,true,NA,NA,1,33,NA,black,n_l_083.jpg,NA,NA,NA,NA,NA,pleasant,unpleasant,NA,NA,NA,NA,NA,right,1831,true,NA,NA,NA,NA,NA,NA,NA,NA
shiNED7e,3icohx7eofotocxdgkfntnxuj980e9,3x1fv8s5j149obsegey2334ouyovgm,shiNED7e,2020-0188,2021-10-31,12:05:55,13:29:39,NA,incomplete,false,true,NA,NA,1,34,NA,black,n_s_083.jpg,NA,NA,NA,NA,NA,unpleasant,pleasant,NA,NA,NA,NA,NA,right,1463,true,NA,NA,NA,NA,NA,NA,NA,NA
shiNED7e,3icohx7eofotocxdgkfntnxuj980e9,3x1fv8s5j149obsegey2334ouyovgm,shiNED7e,2020-0188,2021-10-31,12:05:55,13:29:39,NA,incomplete,false,true,NA,NA,1,35,NA,black,m_l_051.jpg,NA,NA,NA,NA,NA,pleasant,unpleasant,NA,NA,NA,NA,NA,left,2388,true,NA,NA,NA,NA,NA,NA,NA,NA
shiNED7e,3icohx7eofotocxdgkfntnxuj980e9,3x1fv8s5j149obsegey2334ouyovgm,shiNED7e,2020-0188,2021-10-31,12:05:55,13:29:39,NA,incomplete,false,NA,NA,true,1,0,NA,NA,NA,right,n_l_117.jpg,purple,white,NA,NA,NA,NA,NA,NA,NA,NA,NA,NaN,NA,5558,right,1,NA,NA,NA,NA,NA
shiNED7e,3icohx7eofotocxdgkfntnxuj980e9,3x1fv8s5j149obsegey2334ouyovgm,shiNED7e,2020-0188,2021-10-31,12:05:55,13:29:39,NA,incomplete,false,NA,NA,true,1,1,NA,NA,NA,right,n_s_050.jpg,brown,green,NA,NA,NA,NA,NA,NA,NA,NA,NA,NaN,NA,5018,left,0,NA,NA,NA,NA,NA
shiNED7e,3icohx7eofotocxdgkfntnxuj980e9,3x1fv8s5j149obsegey2334ouyovgm,shiNED7e,2020-0188,2021-10-31,12:05:55,13:29:39,NA,incomplete,false,NA,NA,true,1,2,NA,NA,NA,left,n_s_005.jpg,white,purple,NA,NA,NA,NA,NA,NA,NA,NA,NA,NaN,NA,2778,right,0,NA,NA,NA,NA,NA
shiNED7e,3icohx7eofotocxdgkfntnxuj980e9,3x1fv8s5j149obsegey2334ouyovgm,shiNED7e,2020-0188,2021-10-31,12:05:55,13:29:39,NA,incomplete,false,NA,NA,true,1,3,NA,NA,NA,right,m_s_027.jpg,green,brown,NA,NA,NA,NA,NA,NA,NA,NA,NA,NaN,NA,3091,right,1,NA,NA,NA,NA,NA
shiNED7e,3icohx7eofotocxdgkfntnxuj980e9,3x1fv8s5j149obsegey2334ouyovgm,shiNED7e,2020-0188,2021-10-31,12:05:55,13:29:39,NA,incomplete,false,NA,NA,true,1,4,NA,NA,NA,left,m_s_020.jpg,green,brown,NA,NA,NA,NA,NA,NA,NA,NA,NA,NaN,NA,2835,right,0,NA,NA,NA,NA,NA
shiNED7e,3icohx7eofotocxdgkfntnxuj980e9,3x1fv8s5j149obsegey2334ouyovgm,shiNED7e,2020-0188,2021-10-31,12:05:55,13:29:39,NA,incomplete,false,NA,NA,true,1,5,NA,NA,NA,right,n_l_101.jpg,green,white,NA,NA,NA,NA,NA,NA,NA,NA,NA,NaN,NA,4558,right,1,NA,NA,NA,NA,NA
shiNED7e,3icohx7eofotocxdgkfntnxuj980e9,3x1fv8s5j149obsegey2334ouyovgm,shiNED7e,2020-0188,2021-10-31,12:05:55,13:29:39,NA,incomplete,false,NA,NA,true,1,6,NA,NA,NA,left,n_l_107.jpg,purple,white,NA,NA,NA,NA,NA,NA,NA,NA,NA,NaN,NA,2095,left,1,NA,NA,NA,NA,NA
shiNED7e,3icohx7eofotocxdgkfntnxuj980e9,3x1fv8s5j149obsegey2334ouyovgm,shiNED7e,2020-0188,2021-10-31,12:05:55,13:29:39,NA,incomplete,false,NA,NA,true,1,7,NA,NA,NA,right,m_s_092.jpg,black,brown,NA,NA,NA,NA,NA,NA,NA,NA,NA,NaN,NA,3416,right,1,NA,NA,NA,NA,NA
shiNED7e,3icohx7eofotocxdgkfntnxuj980e9,3x1fv8s5j149obsegey2334ouyovgm,shiNED7e,2020-0188,2021-10-31,12:05:55,13:29:39,NA,incomplete,false,NA,NA,true,1,8,NA,NA,NA,left,n_s_028.jpg,green,brown,NA,NA,NA,NA,NA,NA,NA,NA,NA,NaN,NA,2054,right,0,NA,NA,NA,NA,NA
shiNED7e,3icohx7eofotocxdgkfntnxuj980e9,3x1fv8s5j149obsegey2334ouyovgm,shiNED7e,2020-0188,2021-10-31,12:05:55,13:29:39,NA,incomplete,false,NA,NA,true,1,9,NA,NA,NA,right,n_s_004.jpg,purple,orange,NA,NA,NA,NA,NA,NA,NA,NA,NA,NaN,NA,3766,left,0,NA,NA,NA,NA,NA
shiNED7e,3icohx7eofotocxdgkfntnxuj980e9,3x1fv8s5j149obsegey2334ouyovgm,shiNED7e,2020-0188,2021-10-31,12:05:55,13:29:39,NA,incomplete,false,NA,NA,true,1,10,NA,NA,NA,left,m_s_007.jpg,black,brown,NA,NA,NA,NA,NA,NA,NA,NA,NA,NaN,NA,5004,right,0,NA,NA,NA,NA,NA
shiNED7e,3icohx7eofotocxdgkfntnxuj980e9,3x1fv8s5j149obsegey2334ouyovgm,shiNED7e,2020-0188,2021-10-31,12:05:55,13:29:39,NA,incomplete,false,NA,NA,true,1,11,NA,NA,NA,right,m_l_084.jpg,purple,white,NA,NA,NA,NA,NA,NA,NA,NA,NA,NaN,NA,5335,left,0,NA,NA,NA,NA,NA
shiNED7e,3icohx7eofotocxdgkfntnxuj980e9,3x1fv8s5j149obsegey2334ouyovgm,shiNED7e,2020-0188,2021-10-31,12:05:55,13:29:39,NA,incomplete,false,NA,NA,true,1,12,NA,NA,NA,right,m_s_071.jpg,brown,green,NA,NA,NA,NA,NA,NA,NA,NA,NA,NaN,NA,2984,right,1,NA,NA,NA,NA,NA
shiNED7e,3icohx7eofotocxdgkfntnxuj980e9,3x1fv8s5j149obsegey2334ouyovgm,shiNED7e,2020-0188,2021-10-31,12:05:55,13:29:39,NA,incomplete,false,NA,NA,true,1,13,NA,NA,NA,right,m_l_097.jpg,brown,black,NA,NA,NA,NA,NA,NA,NA,NA,NA,NaN,NA,1821,left,0,NA,NA,NA,NA,NA
shiNED7e,3icohx7eofotocxdgkfntnxuj980e9,3x1fv8s5j149obsegey2334ouyovgm,shiNED7e,2020-0188,2021-10-31,12:05:55,13:29:39,NA,incomplete,false,NA,NA,true,1,14,NA,NA,NA,left,m_l_080.jpg,brown,black,NA,NA,NA,NA,NA,NA,NA,NA,NA,NaN,NA,2231,left,1,NA,NA,NA,NA,NA
shiNED7e,3icohx7eofotocxdgkfntnxuj980e9,3x1fv8s5j149obsegey2334ouyovgm,shiNED7e,2020-0188,2021-10-31,12:05:55,13:29:39,NA,incomplete,false,NA,NA,true,1,15,NA,NA,NA,left,m_l_051.jpg,black,brown,NA,NA,NA,NA,NA,NA,NA,NA,NA,NaN,NA,2751,left,1,NA,NA,NA,NA,NA
shiNED7e,3icohx7eofotocxdgkfntnxuj980e9,3x1fv8s5j149obsegey2334ouyovgm,shiNED7e,2020-0188,2021-10-31,12:05:55,13:29:39,NA,incomplete,false,NA,NA,true,1,16,NA,NA,NA,left,m_s_061.jpg,purple,white,NA,NA,NA,NA,NA,NA,NA,NA,NA,NaN,NA,3576,right,0,NA,NA,NA,NA,NA
shiNED7e,3icohx7eofotocxdgkfntnxuj980e9,3x1fv8s5j149obsegey2334ouyovgm,shiNED7e,2020-0188,2021-10-31,12:05:55,13:29:39,NA,incomplete,false,NA,NA,true,1,17,NA,NA,NA,left,m_s_022.jpg,brown,black,NA,NA,NA,NA,NA,NA,NA,NA,NA,NaN,NA,1994,left,1,NA,NA,NA,NA,NA
shiNED7e,3icohx7eofotocxdgkfntnxuj980e9,3x1fv8s5j149obsegey2334ouyovgm,shiNED7e,2020-0188,2021-10-31,12:05:55,13:29:39,NA,incomplete,false,NA,NA,true,1,18,NA,NA,NA,left,n_s_057.jpg,orange,purple,NA,NA,NA,NA,NA,NA,NA,NA,NA,NaN,NA,1685,right,0,NA,NA,NA,NA,NA
shiNED7e,3icohx7eofotocxdgkfntnxuj980e9,3x1fv8s5j149obsegey2334ouyovgm,shiNED7e,2020-0188,2021-10-31,12:05:55,13:29:39,NA,incomplete,false,NA,NA,true,1,19,NA,NA,NA,right,n_l_053.jpg,purple,orange,NA,NA,NA,NA,NA,NA,NA,NA,NA,NaN,NA,7136,left,0,NA,NA,NA,NA,NA
shiNED7e,3icohx7eofotocxdgkfntnxuj980e9,3x1fv8s5j149obsegey2334ouyovgm,shiNED7e,2020-0188,2021-10-31,12:05:55,13:29:39,NA,incomplete,false,NA,NA,true,1,20,NA,NA,NA,left,m_l_001.jpg,purple,white,NA,NA,NA,NA,NA,NA,NA,NA,NA,NaN,NA,4627,left,1,NA,NA,NA,NA,NA
shiNED7e,3icohx7eofotocxdgkfntnxuj980e9,3x1fv8s5j149obsegey2334ouyovgm,shiNED7e,2020-0188,2021-10-31,12:05:55,13:29:39,NA,incomplete,false,NA,NA,true,1,21,NA,NA,NA,right,n_l_091.jpg,orange,purple,NA,NA,NA,NA,NA,NA,NA,NA,NA,NaN,NA,2598,right,1,NA,NA,NA,NA,NA
shiNED7e,3icohx7eofotocxdgkfntnxuj980e9,3x1fv8s5j149obsegey2334ouyovgm,shiNED7e,2020-0188,2021-10-31,12:05:55,13:29:39,NA,incomplete,false,NA,true,NA,1,0,NA,NA,NA,right,NA,NA,NA,present,NA,NA,n_s_057.jpg,orange,n_l_053.jpg,orange,within,NA,NaN,NA,NA,NA,NA,right,8636,1,1,3622
shiNED7e,3icohx7eofotocxdgkfntnxuj980e9,3x1fv8s5j149obsegey2334ouyovgm,shiNED7e,2020-0188,2021-10-31,12:05:55,13:29:39,NA,incomplete,false,NA,true,NA,1,1,NA,NA,NA,right,NA,NA,NA,present,NA,NA,m_l_001.jpg,purple,n_s_004.jpg,orange,between,NA,NaN,NA,NA,NA,NA,right,5940,1,2,2653
shiNED7e,3icohx7eofotocxdgkfntnxuj980e9,3x1fv8s5j149obsegey2334ouyovgm,shiNED7e,2020-0188,2021-10-31,12:05:55,13:29:39,NA,incomplete,false,NA,true,NA,1,2,NA,NA,NA,left,NA,NA,NA,present,NA,NA,n_l_107.jpg,purple,m_s_061.jpg,purple,within,NA,NaN,NA,NA,NA,NA,left,2737,1,0,3079
shiNED7e,3icohx7eofotocxdgkfntnxuj980e9,3x1fv8s5j149obsegey2334ouyovgm,shiNED7e,2020-0188,2021-10-31,12:05:55,13:29:39,NA,incomplete,false,NA,true,NA,1,3,NA,NA,NA,right,NA,NA,NA,present,NA,NA,m_l_051.jpg,black,m_s_007.jpg,black,within,NA,NaN,NA,NA,NA,NA,left,4976,0,2,1996
shiNED7e,3icohx7eofotocxdgkfntnxuj980e9,3x1fv8s5j149obsegey2334ouyovgm,shiNED7e,2020-0188,2021-10-31,12:05:55,13:29:39,NA,incomplete,false,NA,true,NA,1,4,NA,NA,NA,right,NA,NA,NA,present,NA,NA,n_s_050.jpg,green,m_l_084.jpg,white,between,NA,NaN,NA,NA,NA,NA,left,3769,0,3,2568
shiNED7e,3icohx7eofotocxdgkfntnxuj980e9,3x1fv8s5j149obsegey2334ouyovgm,shiNED7e,2020-0188,2021-10-31,12:05:55,13:29:39,NA,incomplete,false,NA,true,NA,1,5,NA,NA,NA,right,NA,NA,NA,present,NA,NA,m_l_080.jpg,brown,n_s_028.jpg,green,between,NA,NaN,NA,NA,NA,NA,right,2806,1,1,1530
shiNED7e,3icohx7eofotocxdgkfntnxuj980e9,3x1fv8s5j149obsegey2334ouyovgm,shiNED7e,2020-0188,2021-10-31,12:05:55,13:29:39,NA,incomplete,false,NA,true,NA,1,6,NA,NA,NA,left,NA,NA,NA,present,NA,NA,m_s_027.jpg,brown,m_s_092.jpg,brown,within,NA,NaN,NA,NA,NA,NA,left,9125,1,1,1774
shiNED7e,3icohx7eofotocxdgkfntnxuj980e9,3x1fv8s5j149obsegey2334ouyovgm,shiNED7e,2020-0188,2021-10-31,12:05:55,13:29:39,NA,incomplete,false,NA,true,NA,1,7,NA,NA,NA,left,NA,NA,NA,present,NA,NA,m_s_020.jpg,green,m_s_071.jpg,green,within,NA,NaN,NA,NA,NA,NA,right,4711,0,2,2652
shiNED7e,3icohx7eofotocxdgkfntnxuj980e9,3x1fv8s5j149obsegey2334ouyovgm,shiNED7e,2020-0188,2021-10-31,12:05:55,13:29:39,NA,incomplete,false,NA,true,NA,1,8,NA,NA,NA,right,NA,NA,NA,present,NA,NA,n_s_005.jpg,white,n_l_101.jpg,white,within,NA,NaN,NA,NA,NA,NA,right,3087,1,0,2839
shiNED7e,3icohx7eofotocxdgkfntnxuj980e9,3x1fv8s5j149obsegey2334ouyovgm,shiNED7e,2020-0188,2021-10-31,12:05:55,13:29:39,NA,incomplete,false,NA,true,NA,1,9,NA,NA,NA,right,NA,NA,NA,present,NA,NA,m_l_097.jpg,black,m_s_022.jpg,brown,between,NA,NaN,NA,NA,NA,NA,right,5102,1,1,4838
shiNED7e,3icohx7eofotocxdgkfntnxuj980e9,3x1fv8s5j149obsegey2334ouyovgm,shiNED7e,2020-0188,2021-10-31,12:05:55,13:29:39,NA,incomplete,false,NA,true,NA,1,10,NA,NA,NA,right,NA,NA,NA,present,NA,NA,n_l_117.jpg,white,n_l_091.jpg,purple,between,NA,NaN,NA,NA,NA,NA,left,3716,0,0,1852
shiNED7e,3icohx7eofotocxdgkfntnxuj980e9,3x1fv8s5j149obsegey2334ouyovgm,shiNED7e,2020-0188,2021-10-31,12:05:55,13:29:39,NA,incomplete,false,true,NA,NA,2,0,NA,orange,m_l_030.jpg,NA,NA,NA,NA,NA,unpleasant,pleasant,NA,NA,NA,NA,NA,none,0,false,NA,NA,NA,NA,NA,NA,NA,NA
shiNED7e,3icohx7eofotocxdgkfntnxuj980e9,3x1fv8s5j149obsegey2334ouyovgm,shiNED7e,2020-0188,2021-10-31,12:05:55,13:29:39,NA,incomplete,false,true,NA,NA,2,1,NA,orange,m_l_041.jpg,NA,NA,NA,NA,NA,unpleasant,pleasant,NA,NA,NA,NA,NA,right,1761,true,NA,NA,NA,NA,NA,NA,NA,NA
shiNED7e,3icohx7eofotocxdgkfntnxuj980e9,3x1fv8s5j149obsegey2334ouyovgm,shiNED7e,2020-0188,2021-10-31,12:05:55,13:29:39,NA,incomplete,false,true,NA,NA,2,2,NA,orange,n_l_034.jpg,NA,NA,NA,NA,NA,unpleasant,pleasant,NA,NA,NA,NA,NA,right,1646,true,NA,NA,NA,NA,NA,NA,NA,NA
shiNED7e,3icohx7eofotocxdgkfntnxuj980e9,3x1fv8s5j149obsegey2334ouyovgm,shiNED7e,2020-0188,2021-10-31,12:05:55,13:29:39,NA,incomplete,false,true,NA,NA,2,3,NA,orange,n_s_084.jpg,NA,NA,NA,NA,NA,unpleasant,pleasant,NA,NA,NA,NA,NA,left,2152,true,NA,NA,NA,NA,NA,NA,NA,NA
shiNED7e,3icohx7eofotocxdgkfntnxuj980e9,3x1fv8s5j149obsegey2334ouyovgm,shiNED7e,2020-0188,2021-10-31,12:05:55,13:29:39,NA,incomplete,false,true,NA,NA,2,4,NA,orange,n_s_036.jpg,NA,NA,NA,NA,NA,unpleasant,pleasant,NA,NA,NA,NA,NA,right,1641,true,NA,NA,NA,NA,NA,NA,NA,NA
shiNED7e,3icohx7eofotocxdgkfntnxuj980e9,3x1fv8s5j149obsegey2334ouyovgm,shiNED7e,2020-0188,2021-10-31,12:05:55,13:29:39,NA,incomplete,false,true,NA,NA,2,5,NA,orange,m_l_006.jpg,NA,NA,NA,NA,NA,pleasant,unpleasant,NA,NA,NA,NA,NA,left,1683,true,NA,NA,NA,NA,NA,NA,NA,NA
shiNED7e,3icohx7eofotocxdgkfntnxuj980e9,3x1fv8s5j149obsegey2334ouyovgm,shiNED7e,2020-0188,2021-10-31,12:05:55,13:29:39,NA,incomplete,false,true,NA,NA,2,6,NA,yellow,m_s_101.jpg,NA,NA,NA,NA,NA,unpleasant,pleasant,NA,NA,NA,NA,NA,left,1625,true,NA,NA,NA,NA,NA,NA,NA,NA
shiNED7e,3icohx7eofotocxdgkfntnxuj980e9,3x1fv8s5j149obsegey2334ouyovgm,shiNED7e,2020-0188,2021-10-31,12:05:55,13:29:39,NA,incomplete,false,true,NA,NA,2,7,NA,yellow,n_s_062.jpg,NA,NA,NA,NA,NA,pleasant,unpleasant,NA,NA,NA,NA,NA,left,1517,true,NA,NA,NA,NA,NA,NA,NA,NA
shiNED7e,3icohx7eofotocxdgkfntnxuj980e9,3x1fv8s5j149obsegey2334ouyovgm,shiNED7e,2020-0188,2021-10-31,12:05:55,13:29:39,NA,incomplete,false,true,NA,NA,2,8,NA,yellow,n_l_055.jpg,NA,NA,NA,NA,NA,unpleasant,pleasant,NA,NA,NA,NA,NA,left,1623,true,NA,NA,NA,NA,NA,NA,NA,NA
shiNED7e,3icohx7eofotocxdgkfntnxuj980e9,3x1fv8s5j149obsegey2334ouyovgm,shiNED7e,2020-0188,2021-10-31,12:05:55,13:29:39,NA,incomplete,false,true,NA,NA,2,9,NA,yellow,m_l_065.jpg,NA,NA,NA,NA,NA,pleasant,unpleasant,NA,NA,NA,NA,NA,left,1738,true,NA,NA,NA,NA,NA,NA,NA,NA
shiNED7e,3icohx7eofotocxdgkfntnxuj980e9,3x1fv8s5j149obsegey2334ouyovgm,shiNED7e,2020-0188,2021-10-31,12:05:55,13:29:39,NA,incomplete,false,true,NA,NA,2,10,NA,yellow,m_s_054.jpg,NA,NA,NA,NA,NA,unpleasant,pleasant,NA,NA,NA,NA,NA,left,1571,true,NA,NA,NA,NA,NA,NA,NA,NA
shiNED7e,3icohx7eofotocxdgkfntnxuj980e9,3x1fv8s5j149obsegey2334ouyovgm,shiNED7e,2020-0188,2021-10-31,12:05:55,13:29:39,NA,incomplete,false,true,NA,NA,2,11,NA,yellow,n_s_112.jpg,NA,NA,NA,NA,NA,pleasant,unpleasant,NA,NA,NA,NA,NA,left,1442,true,NA,NA,NA,NA,NA,NA,NA,NA
shiNED7e,3icohx7eofotocxdgkfntnxuj980e9,3x1fv8s5j149obsegey2334ouyovgm,shiNED7e,2020-0188,2021-10-31,12:05:55,13:29:39,NA,incomplete,false,true,NA,NA,2,12,NA,purple,m_s_035.jpg,NA,NA,NA,NA,NA,pleasant,unpleasant,NA,NA,NA,NA,NA,left,1260,true,NA,NA,NA,NA,NA,NA,NA,NA
shiNED7e,3icohx7eofotocxdgkfntnxuj980e9,3x1fv8s5j149obsegey2334ouyovgm,shiNED7e,2020-0188,2021-10-31,12:05:55,13:29:39,NA,incomplete,false,true,NA,NA,2,13,NA,purple,m_l_081.jpg,NA,NA,NA,NA,NA,unpleasant,pleasant,NA,NA,NA,NA,NA,right,1528,true,NA,NA,NA,NA,NA,NA,NA,NA
shiNED7e,3icohx7eofotocxdgkfntnxuj980e9,3x1fv8s5j149obsegey2334ouyovgm,shiNED7e,2020-0188,2021-10-31,12:05:55,13:29:39,NA,incomplete,false,true,NA,NA,2,14,NA,purple,m_l_116.jpg,NA,NA,NA,NA,NA,pleasant,unpleasant,NA,NA,NA,NA,NA,left,1785,true,NA,NA,NA,NA,NA,NA,NA,NA
shiNED7e,3icohx7eofotocxdgkfntnxuj980e9,3x1fv8s5j149obsegey2334ouyovgm,shiNED7e,2020-0188,2021-10-31,12:05:55,13:29:39,NA,incomplete,false,true,NA,NA,2,15,NA,purple,m_l_063.jpg,NA,NA,NA,NA,NA,unpleasant,pleasant,NA,NA,NA,NA,NA,right,1399,true,NA,NA,NA,NA,NA,NA,NA,NA
shiNED7e,3icohx7eofotocxdgkfntnxuj980e9,3x1fv8s5j149obsegey2334ouyovgm,shiNED7e,2020-0188,2021-10-31,12:05:55,13:29:39,NA,incomplete,false,true,NA,NA,2,16,NA,purple,n_l_098.jpg,NA,NA,NA,NA,NA,pleasant,unpleasant,NA,NA,NA,NA,NA,right,2478,true,NA,NA,NA,NA,NA,NA,NA,NA
shiNED7e,3icohx7eofotocxdgkfntnxuj980e9,3x1fv8s5j149obsegey2334ouyovgm,shiNED7e,2020-0188,2021-10-31,12:05:55,13:29:39,NA,incomplete,false,true,NA,NA,2,17,NA,purple,m_s_070.jpg,NA,NA,NA,NA,NA,unpleasant,pleasant,NA,NA,NA,NA,NA,left,1514,true,NA,NA,NA,NA,NA,NA,NA,NA
shiNED7e,3icohx7eofotocxdgkfntnxuj980e9,3x1fv8s5j149obsegey2334ouyovgm,shiNED7e,2020-0188,2021-10-31,12:05:55,13:29:39,NA,incomplete,false,true,NA,NA,2,18,NA,black,m_s_111.jpg,NA,NA,NA,NA,NA,pleasant,unpleasant,NA,NA,NA,NA,NA,right,1472,true,NA,NA,NA,NA,NA,NA,NA,NA
shiNED7e,3icohx7eofotocxdgkfntnxuj980e9,3x1fv8s5j149obsegey2334ouyovgm,shiNED7e,2020-0188,2021-10-31,12:05:55,13:29:39,NA,incomplete,false,true,NA,NA,2,19,NA,black,n_s_042.jpg,NA,NA,NA,NA,NA,unpleasant,pleasant,NA,NA,NA,NA,NA,left,1888,true,NA,NA,NA,NA,NA,NA,NA,NA
shiNED7e,3icohx7eofotocxdgkfntnxuj980e9,3x1fv8s5j149obsegey2334ouyovgm,shiNED7e,2020-0188,2021-10-31,12:05:55,13:29:39,NA,incomplete,false,true,NA,NA,2,20,NA,black,m_s_066.jpg,NA,NA,NA,NA,NA,unpleasant,pleasant,NA,NA,NA,NA,NA,left,2060,true,NA,NA,NA,NA,NA,NA,NA,NA
shiNED7e,3icohx7eofotocxdgkfntnxuj980e9,3x1fv8s5j149obsegey2334ouyovgm,shiNED7e,2020-0188,2021-10-31,12:05:55,13:29:39,NA,incomplete,false,true,NA,NA,2,21,NA,black,n_s_052.jpg,NA,NA,NA,NA,NA,pleasant,unpleasant,NA,NA,NA,NA,NA,left,1769,true,NA,NA,NA,NA,NA,NA,NA,NA
shiNED7e,3icohx7eofotocxdgkfntnxuj980e9,3x1fv8s5j149obsegey2334ouyovgm,shiNED7e,2020-0188,2021-10-31,12:05:55,13:29:39,NA,incomplete,false,true,NA,NA,2,22,NA,black,n_l_116.jpg,NA,NA,NA,NA,NA,unpleasant,pleasant,NA,NA,NA,NA,NA,right,1661,true,NA,NA,NA,NA,NA,NA,NA,NA
shiNED7e,3icohx7eofotocxdgkfntnxuj980e9,3x1fv8s5j149obsegey2334ouyovgm,shiNED7e,2020-0188,2021-10-31,12:05:55,13:29:39,NA,incomplete,false,true,NA,NA,2,23,NA,black,n_l_104.jpg,NA,NA,NA,NA,NA,unpleasant,pleasant,NA,NA,NA,NA,NA,left,1406,true,NA,NA,NA,NA,NA,NA,NA,NA
shiNED7e,3icohx7eofotocxdgkfntnxuj980e9,3x1fv8s5j149obsegey2334ouyovgm,shiNED7e,2020-0188,2021-10-31,12:05:55,13:29:39,NA,incomplete,false,true,NA,NA,2,24,NA,brown,m_l_106.jpg,NA,NA,NA,NA,NA,pleasant,unpleasant,NA,NA,NA,NA,NA,right,2597,true,NA,NA,NA,NA,NA,NA,NA,NA
shiNED7e,3icohx7eofotocxdgkfntnxuj980e9,3x1fv8s5j149obsegey2334ouyovgm,shiNED7e,2020-0188,2021-10-31,12:05:55,13:29:39,NA,incomplete,false,true,NA,NA,2,25,NA,brown,n_s_090.jpg,NA,NA,NA,NA,NA,unpleasant,pleasant,NA,NA,NA,NA,NA,right,2209,true,NA,NA,NA,NA,NA,NA,NA,NA
shiNED7e,3icohx7eofotocxdgkfntnxuj980e9,3x1fv8s5j149obsegey2334ouyovgm,shiNED7e,2020-0188,2021-10-31,12:05:55,13:29:39,NA,incomplete,false,true,NA,NA,2,26,NA,brown,m_s_106.jpg,NA,NA,NA,NA,NA,unpleasant,pleasant,NA,NA,NA,NA,NA,right,1796,true,NA,NA,NA,NA,NA,NA,NA,NA
shiNED7e,3icohx7eofotocxdgkfntnxuj980e9,3x1fv8s5j149obsegey2334ouyovgm,shiNED7e,2020-0188,2021-10-31,12:05:55,13:29:39,NA,incomplete,false,true,NA,NA,2,27,NA,brown,m_s_088.jpg,NA,NA,NA,NA,NA,pleasant,unpleasant,NA,NA,NA,NA,NA,right,1920,true,NA,NA,NA,NA,NA,NA,NA,NA
shiNED7e,3icohx7eofotocxdgkfntnxuj980e9,3x1fv8s5j149obsegey2334ouyovgm,shiNED7e,2020-0188,2021-10-31,12:05:55,13:29:39,NA,incomplete,false,true,NA,NA,2,28,NA,brown,m_l_064.jpg,NA,NA,NA,NA,NA,unpleasant,pleasant,NA,NA,NA,NA,NA,right,1947,true,NA,NA,NA,NA,NA,NA,NA,NA
shiNED7e,3icohx7eofotocxdgkfntnxuj980e9,3x1fv8s5j149obsegey2334ouyovgm,shiNED7e,2020-0188,2021-10-31,12:05:55,13:29:39,NA,incomplete,false,true,NA,NA,2,29,NA,brown,m_s_058.jpg,NA,NA,NA,NA,NA,pleasant,unpleasant,NA,NA,NA,NA,NA,left,2296,true,NA,NA,NA,NA,NA,NA,NA,NA
shiNED7e,3icohx7eofotocxdgkfntnxuj980e9,3x1fv8s5j149obsegey2334ouyovgm,shiNED7e,2020-0188,2021-10-31,12:05:55,13:29:39,NA,incomplete,false,true,NA,NA,2,30,NA,blue,n_s_053.jpg,NA,NA,NA,NA,NA,unpleasant,pleasant,NA,NA,NA,NA,NA,right,2202,true,NA,NA,NA,NA,NA,NA,NA,NA
shiNED7e,3icohx7eofotocxdgkfntnxuj980e9,3x1fv8s5j149obsegey2334ouyovgm,shiNED7e,2020-0188,2021-10-31,12:05:55,13:29:39,NA,incomplete,false,true,NA,NA,2,31,NA,blue,m_s_093.jpg,NA,NA,NA,NA,NA,unpleasant,pleasant,NA,NA,NA,NA,NA,right,2520,true,NA,NA,NA,NA,NA,NA,NA,NA
shiNED7e,3icohx7eofotocxdgkfntnxuj980e9,3x1fv8s5j149obsegey2334ouyovgm,shiNED7e,2020-0188,2021-10-31,12:05:55,13:29:39,NA,incomplete,false,true,NA,NA,2,32,NA,blue,n_s_056.jpg,NA,NA,NA,NA,NA,pleasant,unpleasant,NA,NA,NA,NA,NA,left,2825,true,NA,NA,NA,NA,NA,NA,NA,NA
shiNED7e,3icohx7eofotocxdgkfntnxuj980e9,3x1fv8s5j149obsegey2334ouyovgm,shiNED7e,2020-0188,2021-10-31,12:05:55,13:29:39,NA,incomplete,false,true,NA,NA,2,33,NA,blue,m_l_049.jpg,NA,NA,NA,NA,NA,pleasant,unpleasant,NA,NA,NA,NA,NA,right,2098,true,NA,NA,NA,NA,NA,NA,NA,NA
shiNED7e,3icohx7eofotocxdgkfntnxuj980e9,3x1fv8s5j149obsegey2334ouyovgm,shiNED7e,2020-0188,2021-10-31,12:05:55,13:29:39,NA,incomplete,false,true,NA,NA,2,34,NA,blue,m_l_033.jpg,NA,NA,NA,NA,NA,pleasant,unpleasant,NA,NA,NA,NA,NA,left,2413,true,NA,NA,NA,NA,NA,NA,NA,NA
shiNED7e,3icohx7eofotocxdgkfntnxuj980e9,3x1fv8s5j149obsegey2334ouyovgm,shiNED7e,2020-0188,2021-10-31,12:05:55,13:29:39,NA,incomplete,false,true,NA,NA,2,35,NA,blue,m_s_094.jpg,NA,NA,NA,NA,NA,pleasant,unpleasant,NA,NA,NA,NA,NA,left,1654,true,NA,NA,NA,NA,NA,NA,NA,NA
shiNED7e,3icohx7eofotocxdgkfntnxuj980e9,3x1fv8s5j149obsegey2334ouyovgm,shiNED7e,2020-0188,2021-10-31,12:05:55,13:29:39,NA,incomplete,false,NA,NA,true,2,0,NA,NA,NA,right,m_l_116.jpg,yellow,purple,NA,NA,NA,NA,NA,NA,NA,NA,NA,NaN,NA,3551,right,1,NA,NA,NA,NA,NA
shiNED7e,3icohx7eofotocxdgkfntnxuj980e9,3x1fv8s5j149obsegey2334ouyovgm,shiNED7e,2020-0188,2021-10-31,12:05:55,13:29:39,NA,incomplete,false,NA,NA,true,2,1,NA,NA,NA,right,n_s_036.jpg,yellow,orange,NA,NA,NA,NA,NA,NA,NA,NA,NA,NaN,NA,2287,left,0,NA,NA,NA,NA,NA
shiNED7e,3icohx7eofotocxdgkfntnxuj980e9,3x1fv8s5j149obsegey2334ouyovgm,shiNED7e,2020-0188,2021-10-31,12:05:55,13:29:39,NA,incomplete,false,NA,NA,true,2,2,NA,NA,NA,right,n_s_056.jpg,brown,blue,NA,NA,NA,NA,NA,NA,NA,NA,NA,NaN,NA,2707,left,0,NA,NA,NA,NA,NA
shiNED7e,3icohx7eofotocxdgkfntnxuj980e9,3x1fv8s5j149obsegey2334ouyovgm,shiNED7e,2020-0188,2021-10-31,12:05:55,13:29:39,NA,incomplete,false,NA,NA,true,2,3,NA,NA,NA,left,m_s_094.jpg,blue,brown,NA,NA,NA,NA,NA,NA,NA,NA,NA,NaN,NA,2187,right,0,NA,NA,NA,NA,NA
shiNED7e,3icohx7eofotocxdgkfntnxuj980e9,3x1fv8s5j149obsegey2334ouyovgm,shiNED7e,2020-0188,2021-10-31,12:05:55,13:29:39,NA,incomplete,false,NA,NA,true,2,4,NA,NA,NA,right,m_s_058.jpg,blue,brown,NA,NA,NA,NA,NA,NA,NA,NA,NA,NaN,NA,1816,left,0,NA,NA,NA,NA,NA
shiNED7e,3icohx7eofotocxdgkfntnxuj980e9,3x1fv8s5j149obsegey2334ouyovgm,shiNED7e,2020-0188,2021-10-31,12:05:55,13:29:39,NA,incomplete,false,NA,NA,true,2,5,NA,NA,NA,right,m_s_066.jpg,purple,black,NA,NA,NA,NA,NA,NA,NA,NA,NA,NaN,NA,1296,right,1,NA,NA,NA,NA,NA
shiNED7e,3icohx7eofotocxdgkfntnxuj980e9,3x1fv8s5j149obsegey2334ouyovgm,shiNED7e,2020-0188,2021-10-31,12:05:55,13:29:39,NA,incomplete,false,NA,NA,true,2,6,NA,NA,NA,right,n_s_112.jpg,orange,yellow,NA,NA,NA,NA,NA,NA,NA,NA,NA,NaN,NA,1254,left,0,NA,NA,NA,NA,NA
shiNED7e,3icohx7eofotocxdgkfntnxuj980e9,3x1fv8s5j149obsegey2334ouyovgm,shiNED7e,2020-0188,2021-10-31,12:05:55,13:29:39,NA,incomplete,false,NA,NA,true,2,7,NA,NA,NA,right,m_s_106.jpg,black,brown,NA,NA,NA,NA,NA,NA,NA,NA,NA,NaN,NA,1552,right,1,NA,NA,NA,NA,NA
shiNED7e,3icohx7eofotocxdgkfntnxuj980e9,3x1fv8s5j149obsegey2334ouyovgm,shiNED7e,2020-0188,2021-10-31,12:05:55,13:29:39,NA,incomplete,false,NA,NA,true,2,8,NA,NA,NA,left,n_s_062.jpg,yellow,orange,NA,NA,NA,NA,NA,NA,NA,NA,NA,NaN,NA,1710,left,1,NA,NA,NA,NA,NA
shiNED7e,3icohx7eofotocxdgkfntnxuj980e9,3x1fv8s5j149obsegey2334ouyovgm,shiNED7e,2020-0188,2021-10-31,12:05:55,13:29:39,NA,incomplete,false,NA,NA,true,2,9,NA,NA,NA,right,n_s_042.jpg,purple,black,NA,NA,NA,NA,NA,NA,NA,NA,NA,NaN,NA,1249,left,0,NA,NA,NA,NA,NA
shiNED7e,3icohx7eofotocxdgkfntnxuj980e9,3x1fv8s5j149obsegey2334ouyovgm,shiNED7e,2020-0188,2021-10-31,12:05:55,13:29:39,NA,incomplete,false,NA,NA,true,2,10,NA,NA,NA,left,n_l_098.jpg,purple,black,NA,NA,NA,NA,NA,NA,NA,NA,NA,NaN,NA,1122,right,0,NA,NA,NA,NA,NA
shiNED7e,3icohx7eofotocxdgkfntnxuj980e9,3x1fv8s5j149obsegey2334ouyovgm,shiNED7e,2020-0188,2021-10-31,12:05:55,13:29:39,NA,incomplete,false,NA,NA,true,2,11,NA,NA,NA,right,m_l_081.jpg,yellow,purple,NA,NA,NA,NA,NA,NA,NA,NA,NA,NaN,NA,2754,left,0,NA,NA,NA,NA,NA
shiNED7e,3icohx7eofotocxdgkfntnxuj980e9,3x1fv8s5j149obsegey2334ouyovgm,shiNED7e,2020-0188,2021-10-31,12:05:55,13:29:39,NA,incomplete,false,NA,NA,true,2,12,NA,NA,NA,left,n_s_090.jpg,brown,blue,NA,NA,NA,NA,NA,NA,NA,NA,NA,NaN,NA,3535,left,1,NA,NA,NA,NA,NA
shiNED7e,3icohx7eofotocxdgkfntnxuj980e9,3x1fv8s5j149obsegey2334ouyovgm,shiNED7e,2020-0188,2021-10-31,12:05:55,13:29:39,NA,incomplete,false,NA,NA,true,2,13,NA,NA,NA,right,n_l_116.jpg,purple,black,NA,NA,NA,NA,NA,NA,NA,NA,NA,NaN,NA,2723,left,0,NA,NA,NA,NA,NA
shiNED7e,3icohx7eofotocxdgkfntnxuj980e9,3x1fv8s5j149obsegey2334ouyovgm,shiNED7e,2020-0188,2021-10-31,12:05:55,13:29:39,NA,incomplete,false,NA,NA,true,2,14,NA,NA,NA,left,m_s_070.jpg,purple,yellow,NA,NA,NA,NA,NA,NA,NA,NA,NA,NaN,NA,2280,right,0,NA,NA,NA,NA,NA
shiNED7e,3icohx7eofotocxdgkfntnxuj980e9,3x1fv8s5j149obsegey2334ouyovgm,shiNED7e,2020-0188,2021-10-31,12:05:55,13:29:39,NA,incomplete,false,NA,NA,true,2,15,NA,NA,NA,right,n_l_055.jpg,orange,yellow,NA,NA,NA,NA,NA,NA,NA,NA,NA,NaN,NA,2232,left,0,NA,NA,NA,NA,NA
shiNED7e,3icohx7eofotocxdgkfntnxuj980e9,3x1fv8s5j149obsegey2334ouyovgm,shiNED7e,2020-0188,2021-10-31,12:05:55,13:29:39,NA,incomplete,false,NA,NA,true,2,16,NA,NA,NA,right,m_l_006.jpg,yellow,orange,NA,NA,NA,NA,NA,NA,NA,NA,NA,NaN,NA,3267,right,1,NA,NA,NA,NA,NA
shiNED7e,3icohx7eofotocxdgkfntnxuj980e9,3x1fv8s5j149obsegey2334ouyovgm,shiNED7e,2020-0188,2021-10-31,12:05:55,13:29:39,NA,incomplete,false,NA,NA,true,2,17,NA,NA,NA,right,m_l_041.jpg,yellow,orange,NA,NA,NA,NA,NA,NA,NA,NA,NA,NaN,NA,1677,left,0,NA,NA,NA,NA,NA
shiNED7e,3icohx7eofotocxdgkfntnxuj980e9,3x1fv8s5j149obsegey2334ouyovgm,shiNED7e,2020-0188,2021-10-31,12:05:55,13:29:39,NA,incomplete,false,NA,NA,true,2,18,NA,NA,NA,left,m_l_064.jpg,brown,black,NA,NA,NA,NA,NA,NA,NA,NA,NA,NaN,NA,3359,left,1,NA,NA,NA,NA,NA
shiNED7e,3icohx7eofotocxdgkfntnxuj980e9,3x1fv8s5j149obsegey2334ouyovgm,shiNED7e,2020-0188,2021-10-31,12:05:55,13:29:39,NA,incomplete,false,NA,NA,true,2,19,NA,NA,NA,left,m_s_093.jpg,blue,brown,NA,NA,NA,NA,NA,NA,NA,NA,NA,NaN,NA,1879,right,0,NA,NA,NA,NA,NA
shiNED7e,3icohx7eofotocxdgkfntnxuj980e9,3x1fv8s5j149obsegey2334ouyovgm,shiNED7e,2020-0188,2021-10-31,12:05:55,13:29:39,NA,incomplete,false,NA,NA,true,2,20,NA,NA,NA,left,n_l_104.jpg,black,purple,NA,NA,NA,NA,NA,NA,NA,NA,NA,NaN,NA,1546,left,1,NA,NA,NA,NA,NA
shiNED7e,3icohx7eofotocxdgkfntnxuj980e9,3x1fv8s5j149obsegey2334ouyovgm,shiNED7e,2020-0188,2021-10-31,12:05:55,13:29:39,NA,incomplete,false,NA,NA,true,2,21,NA,NA,NA,right,m_s_054.jpg,purple,yellow,NA,NA,NA,NA,NA,NA,NA,NA,NA,NaN,NA,3223,right,1,NA,NA,NA,NA,NA
shiNED7e,3icohx7eofotocxdgkfntnxuj980e9,3x1fv8s5j149obsegey2334ouyovgm,shiNED7e,2020-0188,2021-10-31,12:05:55,13:29:39,NA,incomplete,false,NA,true,NA,2,0,NA,NA,NA,right,NA,NA,NA,present,NA,NA,m_s_058.jpg,brown,n_s_090.jpg,brown,within,NA,NaN,NA,NA,NA,NA,left,6784,0,2,2982
shiNED7e,3icohx7eofotocxdgkfntnxuj980e9,3x1fv8s5j149obsegey2334ouyovgm,shiNED7e,2020-0188,2021-10-31,12:05:55,13:29:39,NA,incomplete,false,NA,true,NA,2,1,NA,NA,NA,right,NA,NA,NA,present,NA,NA,m_l_006.jpg,orange,m_l_041.jpg,orange,within,NA,NaN,NA,NA,NA,NA,left,3083,0,1,2566
shiNED7e,3icohx7eofotocxdgkfntnxuj980e9,3x1fv8s5j149obsegey2334ouyovgm,shiNED7e,2020-0188,2021-10-31,12:05:55,13:29:39,NA,incomplete,false,NA,true,NA,2,2,NA,NA,NA,right,NA,NA,NA,present,NA,NA,n_s_056.jpg,blue,m_l_064.jpg,brown,between,NA,NaN,NA,NA,NA,NA,right,3503,1,1,2528
shiNED7e,3icohx7eofotocxdgkfntnxuj980e9,3x1fv8s5j149obsegey2334ouyovgm,shiNED7e,2020-0188,2021-10-31,12:05:55,13:29:39,NA,incomplete,false,NA,true,NA,2,3,NA,NA,NA,left,NA,NA,NA,present,NA,NA,n_l_116.jpg,black,m_s_106.jpg,brown,between,NA,NaN,NA,NA,NA,NA,right,4764,0,0,2349
shiNED7e,3icohx7eofotocxdgkfntnxuj980e9,3x1fv8s5j149obsegey2334ouyovgm,shiNED7e,2020-0188,2021-10-31,12:05:55,13:29:39,NA,incomplete,false,NA,true,NA,2,4,NA,NA,NA,left,NA,NA,NA,present,NA,NA,n_s_042.jpg,black,n_l_104.jpg,black,within,NA,NaN,NA,NA,NA,NA,left,4701,1,2,3303
shiNED7e,3icohx7eofotocxdgkfntnxuj980e9,3x1fv8s5j149obsegey2334ouyovgm,shiNED7e,2020-0188,2021-10-31,12:05:55,13:29:39,NA,incomplete,false,NA,true,NA,2,5,NA,NA,NA,right,NA,NA,NA,present,NA,NA,m_l_116.jpg,purple,m_s_054.jpg,yellow,between,NA,NaN,NA,NA,NA,NA,left,6496,0,1,1431
shiNED7e,3icohx7eofotocxdgkfntnxuj980e9,3x1fv8s5j149obsegey2334ouyovgm,shiNED7e,2020-0188,2021-10-31,12:05:55,13:29:39,NA,incomplete,false,NA,true,NA,2,6,NA,NA,NA,right,NA,NA,NA,present,NA,NA,m_s_094.jpg,blue,m_s_093.jpg,blue,within,NA,NaN,NA,NA,NA,NA,left,6600,0,1,1901
shiNED7e,3icohx7eofotocxdgkfntnxuj980e9,3x1fv8s5j149obsegey2334ouyovgm,shiNED7e,2020-0188,2021-10-31,12:05:55,13:29:39,NA,incomplete,false,NA,true,NA,2,7,NA,NA,NA,right,NA,NA,NA,present,NA,NA,n_l_055.jpg,yellow,n_s_036.jpg,orange,between,NA,NaN,NA,NA,NA,NA,left,34127,0,1,1869
shiNED7e,3icohx7eofotocxdgkfntnxuj980e9,3x1fv8s5j149obsegey2334ouyovgm,shiNED7e,2020-0188,2021-10-31,12:05:55,13:29:39,NA,incomplete,false,NA,true,NA,2,8,NA,NA,NA,right,NA,NA,NA,present,NA,NA,m_s_070.jpg,purple,m_l_081.jpg,purple,within,NA,NaN,NA,NA,NA,NA,left,1927,0,2,1390
shiNED7e,3icohx7eofotocxdgkfntnxuj980e9,3x1fv8s5j149obsegey2334ouyovgm,shiNED7e,2020-0188,2021-10-31,12:05:55,13:29:39,NA,incomplete,false,NA,true,NA,2,9,NA,NA,NA,right,NA,NA,NA,present,NA,NA,m_s_066.jpg,black,n_l_098.jpg,purple,between,NA,NaN,NA,NA,NA,NA,right,3850,1,1,7168
shiNED7e,3icohx7eofotocxdgkfntnxuj980e9,3x1fv8s5j149obsegey2334ouyovgm,shiNED7e,2020-0188,2021-10-31,12:05:55,13:29:39,NA,incomplete,false,NA,true,NA,2,10,NA,NA,NA,left,NA,NA,NA,present,NA,NA,n_s_062.jpg,yellow,n_s_112.jpg,yellow,within,NA,NaN,NA,NA,NA,NA,left,2168,1,2,1225
shiNED7e,3icohx7eofotocxdgkfntnxuj980e9,3x1fv8s5j149obsegey2334ouyovgm,shiNED7e,2020-0188,2021-10-31,12:05:55,13:29:39,NA,incomplete,false,true,NA,NA,3,0,NA,blue,n_s_019.jpg,NA,NA,NA,NA,NA,unpleasant,pleasant,NA,NA,NA,NA,NA,none,0,false,NA,NA,NA,NA,NA,NA,NA,NA
shiNED7e,3icohx7eofotocxdgkfntnxuj980e9,3x1fv8s5j149obsegey2334ouyovgm,shiNED7e,2020-0188,2021-10-31,12:05:55,13:29:39,NA,incomplete,false,true,NA,NA,3,1,NA,blue,n_s_114.jpg,NA,NA,NA,NA,NA,pleasant,unpleasant,NA,NA,NA,NA,NA,none,0,false,NA,NA,NA,NA,NA,NA,NA,NA
shiNED7e,3icohx7eofotocxdgkfntnxuj980e9,3x1fv8s5j149obsegey2334ouyovgm,shiNED7e,2020-0188,2021-10-31,12:05:55,13:29:39,NA,incomplete,false,true,NA,NA,3,2,NA,blue,m_l_034.jpg,NA,NA,NA,NA,NA,pleasant,unpleasant,NA,NA,NA,NA,NA,left,1657,true,NA,NA,NA,NA,NA,NA,NA,NA
shiNED7e,3icohx7eofotocxdgkfntnxuj980e9,3x1fv8s5j149obsegey2334ouyovgm,shiNED7e,2020-0188,2021-10-31,12:05:55,13:29:39,NA,incomplete,false,true,NA,NA,3,3,NA,blue,n_s_071.jpg,NA,NA,NA,NA,NA,pleasant,unpleasant,NA,NA,NA,NA,NA,left,1399,true,NA,NA,NA,NA,NA,NA,NA,NA
shiNED7e,3icohx7eofotocxdgkfntnxuj980e9,3x1fv8s5j149obsegey2334ouyovgm,shiNED7e,2020-0188,2021-10-31,12:05:55,13:29:39,NA,incomplete,false,true,NA,NA,3,4,NA,blue,n_s_041.jpg,NA,NA,NA,NA,NA,pleasant,unpleasant,NA,NA,NA,NA,NA,right,1423,true,NA,NA,NA,NA,NA,NA,NA,NA
shiNED7e,3icohx7eofotocxdgkfntnxuj980e9,3x1fv8s5j149obsegey2334ouyovgm,shiNED7e,2020-0188,2021-10-31,12:05:55,13:29:39,NA,incomplete,false,true,NA,NA,3,5,NA,blue,m_s_073.jpg,NA,NA,NA,NA,NA,pleasant,unpleasant,NA,NA,NA,NA,NA,left,1266,true,NA,NA,NA,NA,NA,NA,NA,NA
shiNED7e,3icohx7eofotocxdgkfntnxuj980e9,3x1fv8s5j149obsegey2334ouyovgm,shiNED7e,2020-0188,2021-10-31,12:05:55,13:29:39,NA,incomplete,false,true,NA,NA,3,6,NA,yellow,n_l_094.jpg,NA,NA,NA,NA,NA,unpleasant,pleasant,NA,NA,NA,NA,NA,left,1752,true,NA,NA,NA,NA,NA,NA,NA,NA
shiNED7e,3icohx7eofotocxdgkfntnxuj980e9,3x1fv8s5j149obsegey2334ouyovgm,shiNED7e,2020-0188,2021-10-31,12:05:55,13:29:39,NA,incomplete,false,true,NA,NA,3,7,NA,yellow,m_l_026.jpg,NA,NA,NA,NA,NA,pleasant,unpleasant,NA,NA,NA,NA,NA,left,1377,true,NA,NA,NA,NA,NA,NA,NA,NA
shiNED7e,3icohx7eofotocxdgkfntnxuj980e9,3x1fv8s5j149obsegey2334ouyovgm,shiNED7e,2020-0188,2021-10-31,12:05:55,13:29:39,NA,incomplete,false,true,NA,NA,3,8,NA,yellow,n_l_097.jpg,NA,NA,NA,NA,NA,unpleasant,pleasant,NA,NA,NA,NA,NA,left,2212,true,NA,NA,NA,NA,NA,NA,NA,NA
shiNED7e,3icohx7eofotocxdgkfntnxuj980e9,3x1fv8s5j149obsegey2334ouyovgm,shiNED7e,2020-0188,2021-10-31,12:05:55,13:29:39,NA,incomplete,false,true,NA,NA,3,9,NA,yellow,n_s_022.jpg,NA,NA,NA,NA,NA,unpleasant,pleasant,NA,NA,NA,NA,NA,right,1442,true,NA,NA,NA,NA,NA,NA,NA,NA
shiNED7e,3icohx7eofotocxdgkfntnxuj980e9,3x1fv8s5j149obsegey2334ouyovgm,shiNED7e,2020-0188,2021-10-31,12:05:55,13:29:39,NA,incomplete,false,true,NA,NA,3,10,NA,yellow,n_s_100.jpg,NA,NA,NA,NA,NA,unpleasant,pleasant,NA,NA,NA,NA,NA,right,1981,true,NA,NA,NA,NA,NA,NA,NA,NA
shiNED7e,3icohx7eofotocxdgkfntnxuj980e9,3x1fv8s5j149obsegey2334ouyovgm,shiNED7e,2020-0188,2021-10-31,12:05:55,13:29:39,NA,incomplete,false,true,NA,NA,3,11,NA,yellow,m_l_082.jpg,NA,NA,NA,NA,NA,pleasant,unpleasant,NA,NA,NA,NA,NA,left,1706,true,NA,NA,NA,NA,NA,NA,NA,NA
shiNED7e,3icohx7eofotocxdgkfntnxuj980e9,3x1fv8s5j149obsegey2334ouyovgm,shiNED7e,2020-0188,2021-10-31,12:05:55,13:29:39,NA,incomplete,false,true,NA,NA,3,12,NA,purple,n_l_047.jpg,NA,NA,NA,NA,NA,pleasant,unpleasant,NA,NA,NA,NA,NA,left,3404,true,NA,NA,NA,NA,NA,NA,NA,NA
shiNED7e,3icohx7eofotocxdgkfntnxuj980e9,3x1fv8s5j149obsegey2334ouyovgm,shiNED7e,2020-0188,2021-10-31,12:05:55,13:29:39,NA,incomplete,false,true,NA,NA,3,13,NA,purple,m_l_014.jpg,NA,NA,NA,NA,NA,pleasant,unpleasant,NA,NA,NA,NA,NA,left,1169,true,NA,NA,NA,NA,NA,NA,NA,NA
shiNED7e,3icohx7eofotocxdgkfntnxuj980e9,3x1fv8s5j149obsegey2334ouyovgm,shiNED7e,2020-0188,2021-10-31,12:05:55,13:29:39,NA,incomplete,false,true,NA,NA,3,14,NA,purple,n_s_038.jpg,NA,NA,NA,NA,NA,unpleasant,pleasant,NA,NA,NA,NA,NA,left,1782,true,NA,NA,NA,NA,NA,NA,NA,NA
shiNED7e,3icohx7eofotocxdgkfntnxuj980e9,3x1fv8s5j149obsegey2334ouyovgm,shiNED7e,2020-0188,2021-10-31,12:05:55,13:29:39,NA,incomplete,false,true,NA,NA,3,15,NA,purple,m_s_029.jpg,NA,NA,NA,NA,NA,pleasant,unpleasant,NA,NA,NA,NA,NA,left,1211,true,NA,NA,NA,NA,NA,NA,NA,NA
shiNED7e,3icohx7eofotocxdgkfntnxuj980e9,3x1fv8s5j149obsegey2334ouyovgm,shiNED7e,2020-0188,2021-10-31,12:05:55,13:29:39,NA,incomplete,false,true,NA,NA,3,16,NA,purple,m_l_091.jpg,NA,NA,NA,NA,NA,unpleasant,pleasant,NA,NA,NA,NA,NA,left,1411,true,NA,NA,NA,NA,NA,NA,NA,NA
shiNED7e,3icohx7eofotocxdgkfntnxuj980e9,3x1fv8s5j149obsegey2334ouyovgm,shiNED7e,2020-0188,2021-10-31,12:05:55,13:29:39,NA,incomplete,false,true,NA,NA,3,17,NA,purple,m_s_117.jpg,NA,NA,NA,NA,NA,unpleasant,pleasant,NA,NA,NA,NA,NA,right,1716,true,NA,NA,NA,NA,NA,NA,NA,NA
shiNED7e,3icohx7eofotocxdgkfntnxuj980e9,3x1fv8s5j149obsegey2334ouyovgm,shiNED7e,2020-0188,2021-10-31,12:05:55,13:29:39,NA,incomplete,false,true,NA,NA,3,18,NA,red,m_s_033.jpg,NA,NA,NA,NA,NA,unpleasant,pleasant,NA,NA,NA,NA,NA,right,2132,true,NA,NA,NA,NA,NA,NA,NA,NA
shiNED7e,3icohx7eofotocxdgkfntnxuj980e9,3x1fv8s5j149obsegey2334ouyovgm,shiNED7e,2020-0188,2021-10-31,12:05:55,13:29:39,NA,incomplete,false,true,NA,NA,3,19,NA,red,m_l_048.jpg,NA,NA,NA,NA,NA,unpleasant,pleasant,NA,NA,NA,NA,NA,right,1498,true,NA,NA,NA,NA,NA,NA,NA,NA
shiNED7e,3icohx7eofotocxdgkfntnxuj980e9,3x1fv8s5j149obsegey2334ouyovgm,shiNED7e,2020-0188,2021-10-31,12:05:55,13:29:39,NA,incomplete,false,true,NA,NA,3,20,NA,red,n_l_030.jpg,NA,NA,NA,NA,NA,unpleasant,pleasant,NA,NA,NA,NA,NA,left,1292,true,NA,NA,NA,NA,NA,NA,NA,NA
shiNED7e,3icohx7eofotocxdgkfntnxuj980e9,3x1fv8s5j149obsegey2334ouyovgm,shiNED7e,2020-0188,2021-10-31,12:05:55,13:29:39,NA,incomplete,false,true,NA,NA,3,21,NA,red,n_s_002.jpg,NA,NA,NA,NA,NA,pleasant,unpleasant,NA,NA,NA,NA,NA,left,1639,true,NA,NA,NA,NA,NA,NA,NA,NA
shiNED7e,3icohx7eofotocxdgkfntnxuj980e9,3x1fv8s5j149obsegey2334ouyovgm,shiNED7e,2020-0188,2021-10-31,12:05:55,13:29:39,NA,incomplete,false,true,NA,NA,3,22,NA,red,m_s_084.jpg,NA,NA,NA,NA,NA,unpleasant,pleasant,NA,NA,NA,NA,NA,right,1740,true,NA,NA,NA,NA,NA,NA,NA,NA
shiNED7e,3icohx7eofotocxdgkfntnxuj980e9,3x1fv8s5j149obsegey2334ouyovgm,shiNED7e,2020-0188,2021-10-31,12:05:55,13:29:39,NA,incomplete,false,true,NA,NA,3,23,NA,red,m_s_016.jpg,NA,NA,NA,NA,NA,unpleasant,pleasant,NA,NA,NA,NA,NA,right,1548,true,NA,NA,NA,NA,NA,NA,NA,NA
shiNED7e,3icohx7eofotocxdgkfntnxuj980e9,3x1fv8s5j149obsegey2334ouyovgm,shiNED7e,2020-0188,2021-10-31,12:05:55,13:29:39,NA,incomplete,false,true,NA,NA,3,24,NA,gray,m_l_013.jpg,NA,NA,NA,NA,NA,pleasant,unpleasant,NA,NA,NA,NA,NA,left,2087,true,NA,NA,NA,NA,NA,NA,NA,NA
shiNED7e,3icohx7eofotocxdgkfntnxuj980e9,3x1fv8s5j149obsegey2334ouyovgm,shiNED7e,2020-0188,2021-10-31,12:05:55,13:29:39,NA,incomplete,false,true,NA,NA,3,25,NA,gray,n_l_043.jpg,NA,NA,NA,NA,NA,unpleasant,pleasant,NA,NA,NA,NA,NA,left,1553,true,NA,NA,NA,NA,NA,NA,NA,NA
shiNED7e,3icohx7eofotocxdgkfntnxuj980e9,3x1fv8s5j149obsegey2334ouyovgm,shiNED7e,2020-0188,2021-10-31,12:05:55,13:29:39,NA,incomplete,false,true,NA,NA,3,26,NA,gray,m_s_041.jpg,NA,NA,NA,NA,NA,unpleasant,pleasant,NA,NA,NA,NA,NA,right,1626,true,NA,NA,NA,NA,NA,NA,NA,NA
shiNED7e,3icohx7eofotocxdgkfntnxuj980e9,3x1fv8s5j149obsegey2334ouyovgm,shiNED7e,2020-0188,2021-10-31,12:05:55,13:29:39,NA,incomplete,false,true,NA,NA,3,27,NA,gray,n_s_003.jpg,NA,NA,NA,NA,NA,unpleasant,pleasant,NA,NA,NA,NA,NA,right,2714,true,NA,NA,NA,NA,NA,NA,NA,NA
shiNED7e,3icohx7eofotocxdgkfntnxuj980e9,3x1fv8s5j149obsegey2334ouyovgm,shiNED7e,2020-0188,2021-10-31,12:05:55,13:29:39,NA,incomplete,false,true,NA,NA,3,28,NA,gray,n_s_014.jpg,NA,NA,NA,NA,NA,unpleasant,pleasant,NA,NA,NA,NA,NA,right,3222,true,NA,NA,NA,NA,NA,NA,NA,NA
shiNED7e,3icohx7eofotocxdgkfntnxuj980e9,3x1fv8s5j149obsegey2334ouyovgm,shiNED7e,2020-0188,2021-10-31,12:05:55,13:29:39,NA,incomplete,false,true,NA,NA,3,29,NA,gray,m_s_116.jpg,NA,NA,NA,NA,NA,pleasant,unpleasant,NA,NA,NA,NA,NA,right,3461,true,NA,NA,NA,NA,NA,NA,NA,NA
shiNED7e,3icohx7eofotocxdgkfntnxuj980e9,3x1fv8s5j149obsegey2334ouyovgm,shiNED7e,2020-0188,2021-10-31,12:05:55,13:29:39,NA,incomplete,false,true,NA,NA,3,30,NA,white,m_s_072.jpg,NA,NA,NA,NA,NA,unpleasant,pleasant,NA,NA,NA,NA,NA,right,2327,true,NA,NA,NA,NA,NA,NA,NA,NA
shiNED7e,3icohx7eofotocxdgkfntnxuj980e9,3x1fv8s5j149obsegey2334ouyovgm,shiNED7e,2020-0188,2021-10-31,12:05:55,13:29:39,NA,incomplete,false,true,NA,NA,3,31,NA,white,m_l_079.jpg,NA,NA,NA,NA,NA,unpleasant,pleasant,NA,NA,NA,NA,NA,left,2504,true,NA,NA,NA,NA,NA,NA,NA,NA
shiNED7e,3icohx7eofotocxdgkfntnxuj980e9,3x1fv8s5j149obsegey2334ouyovgm,shiNED7e,2020-0188,2021-10-31,12:05:55,13:29:39,NA,incomplete,false,true,NA,NA,3,32,NA,white,n_s_006.jpg,NA,NA,NA,NA,NA,unpleasant,pleasant,NA,NA,NA,NA,NA,right,2738,true,NA,NA,NA,NA,NA,NA,NA,NA
shiNED7e,3icohx7eofotocxdgkfntnxuj980e9,3x1fv8s5j149obsegey2334ouyovgm,shiNED7e,2020-0188,2021-10-31,12:05:55,13:29:39,NA,incomplete,false,true,NA,NA,3,33,NA,white,m_l_094.jpg,NA,NA,NA,NA,NA,pleasant,unpleasant,NA,NA,NA,NA,NA,left,2514,true,NA,NA,NA,NA,NA,NA,NA,NA
shiNED7e,3icohx7eofotocxdgkfntnxuj980e9,3x1fv8s5j149obsegey2334ouyovgm,shiNED7e,2020-0188,2021-10-31,12:05:55,13:29:39,NA,incomplete,false,true,NA,NA,3,34,NA,white,m_s_037.jpg,NA,NA,NA,NA,NA,unpleasant,pleasant,NA,NA,NA,NA,NA,right,2977,true,NA,NA,NA,NA,NA,NA,NA,NA
shiNED7e,3icohx7eofotocxdgkfntnxuj980e9,3x1fv8s5j149obsegey2334ouyovgm,shiNED7e,2020-0188,2021-10-31,12:05:55,13:29:39,NA,incomplete,false,true,NA,NA,3,35,NA,white,m_l_073.jpg,NA,NA,NA,NA,NA,pleasant,unpleasant,NA,NA,NA,NA,NA,right,1967,true,NA,NA,NA,NA,NA,NA,NA,NA
shiNED7e,3icohx7eofotocxdgkfntnxuj980e9,3x1fv8s5j149obsegey2334ouyovgm,shiNED7e,2020-0188,2021-10-31,12:05:55,13:29:39,NA,incomplete,false,NA,NA,true,3,0,NA,NA,NA,right,m_s_016.jpg,gray,red,NA,NA,NA,NA,NA,NA,NA,NA,NA,NaN,NA,2904,left,0,NA,NA,NA,NA,NA
shiNED7e,3icohx7eofotocxdgkfntnxuj980e9,3x1fv8s5j149obsegey2334ouyovgm,shiNED7e,2020-0188,2021-10-31,12:05:55,13:29:39,NA,incomplete,false,NA,NA,true,3,1,NA,NA,NA,right,m_s_073.jpg,yellow,blue,NA,NA,NA,NA,NA,NA,NA,NA,NA,NaN,NA,1884,left,0,NA,NA,NA,NA,NA
shiNED7e,3icohx7eofotocxdgkfntnxuj980e9,3x1fv8s5j149obsegey2334ouyovgm,shiNED7e,2020-0188,2021-10-31,12:05:55,13:29:39,NA,incomplete,false,NA,NA,true,3,2,NA,NA,NA,right,m_s_117.jpg,red,purple,NA,NA,NA,NA,NA,NA,NA,NA,NA,NaN,NA,1299,right,1,NA,NA,NA,NA,NA
shiNED7e,3icohx7eofotocxdgkfntnxuj980e9,3x1fv8s5j149obsegey2334ouyovgm,shiNED7e,2020-0188,2021-10-31,12:05:55,13:29:39,NA,incomplete,false,NA,NA,true,3,3,NA,NA,NA,left,m_l_082.jpg,yellow,purple,NA,NA,NA,NA,NA,NA,NA,NA,NA,NaN,NA,1768,left,1,NA,NA,NA,NA,NA
shiNED7e,3icohx7eofotocxdgkfntnxuj980e9,3x1fv8s5j149obsegey2334ouyovgm,shiNED7e,2020-0188,2021-10-31,12:05:55,13:29:39,NA,incomplete,false,NA,NA,true,3,4,NA,NA,NA,left,m_l_073.jpg,white,gray,NA,NA,NA,NA,NA,NA,NA,NA,NA,NaN,NA,3111,right,0,NA,NA,NA,NA,NA
shiNED7e,3icohx7eofotocxdgkfntnxuj980e9,3x1fv8s5j149obsegey2334ouyovgm,shiNED7e,2020-0188,2021-10-31,12:05:55,13:29:39,NA,incomplete,false,NA,NA,true,3,5,NA,NA,NA,right,n_s_006.jpg,gray,white,NA,NA,NA,NA,NA,NA,NA,NA,NA,NaN,NA,3851,right,1,NA,NA,NA,NA,NA
shiNED7e,3icohx7eofotocxdgkfntnxuj980e9,3x1fv8s5j149obsegey2334ouyovgm,shiNED7e,2020-0188,2021-10-31,12:05:55,13:29:39,NA,incomplete,false,NA,NA,true,3,6,NA,NA,NA,right,n_s_041.jpg,yellow,blue,NA,NA,NA,NA,NA,NA,NA,NA,NA,NaN,NA,1708,left,0,NA,NA,NA,NA,NA
shiNED7e,3icohx7eofotocxdgkfntnxuj980e9,3x1fv8s5j149obsegey2334ouyovgm,shiNED7e,2020-0188,2021-10-31,12:05:55,13:29:39,NA,incomplete,false,NA,NA,true,3,7,NA,NA,NA,left,n_s_014.jpg,gray,white,NA,NA,NA,NA,NA,NA,NA,NA,NA,NaN,NA,4179,right,0,NA,NA,NA,NA,NA
shiNED7e,3icohx7eofotocxdgkfntnxuj980e9,3x1fv8s5j149obsegey2334ouyovgm,shiNED7e,2020-0188,2021-10-31,12:05:55,13:29:39,NA,incomplete,false,NA,NA,true,3,8,NA,NA,NA,right,m_l_026.jpg,blue,yellow,NA,NA,NA,NA,NA,NA,NA,NA,NA,NaN,NA,2199,right,1,NA,NA,NA,NA,NA
shiNED7e,3icohx7eofotocxdgkfntnxuj980e9,3x1fv8s5j149obsegey2334ouyovgm,shiNED7e,2020-0188,2021-10-31,12:05:55,13:29:39,NA,incomplete,false,NA,NA,true,3,9,NA,NA,NA,right,n_l_030.jpg,purple,red,NA,NA,NA,NA,NA,NA,NA,NA,NA,NaN,NA,2082,left,0,NA,NA,NA,NA,NA
shiNED7e,3icohx7eofotocxdgkfntnxuj980e9,3x1fv8s5j149obsegey2334ouyovgm,shiNED7e,2020-0188,2021-10-31,12:05:55,13:29:39,NA,incomplete,false,NA,NA,true,3,10,NA,NA,NA,right,m_l_079.jpg,gray,white,NA,NA,NA,NA,NA,NA,NA,NA,NA,NaN,NA,4673,left,0,NA,NA,NA,NA,NA
shiNED7e,3icohx7eofotocxdgkfntnxuj980e9,3x1fv8s5j149obsegey2334ouyovgm,shiNED7e,2020-0188,2021-10-31,12:05:55,13:29:39,NA,incomplete,false,NA,NA,true,3,11,NA,NA,NA,right,n_s_114.jpg,yellow,blue,NA,NA,NA,NA,NA,NA,NA,NA,NA,NaN,NA,4641,right,1,NA,NA,NA,NA,NA
shiNED7e,3icohx7eofotocxdgkfntnxuj980e9,3x1fv8s5j149obsegey2334ouyovgm,shiNED7e,2020-0188,2021-10-31,12:05:55,13:29:39,NA,incomplete,false,NA,NA,true,3,12,NA,NA,NA,left,m_s_041.jpg,gray,white,NA,NA,NA,NA,NA,NA,NA,NA,NA,NaN,NA,3566,left,1,NA,NA,NA,NA,NA
shiNED7e,3icohx7eofotocxdgkfntnxuj980e9,3x1fv8s5j149obsegey2334ouyovgm,shiNED7e,2020-0188,2021-10-31,12:05:55,13:29:39,NA,incomplete,false,NA,NA,true,3,13,NA,NA,NA,left,m_s_116.jpg,gray,red,NA,NA,NA,NA,NA,NA,NA,NA,NA,NaN,NA,7846,left,1,NA,NA,NA,NA,NA
shiNED7e,3icohx7eofotocxdgkfntnxuj980e9,3x1fv8s5j149obsegey2334ouyovgm,shiNED7e,2020-0188,2021-10-31,12:05:55,13:29:39,NA,incomplete,false,NA,NA,true,3,14,NA,NA,NA,right,n_s_038.jpg,red,purple,NA,NA,NA,NA,NA,NA,NA,NA,NA,NaN,NA,6308,right,1,NA,NA,NA,NA,NA
shiNED7e,3icohx7eofotocxdgkfntnxuj980e9,3x1fv8s5j149obsegey2334ouyovgm,shiNED7e,2020-0188,2021-10-31,12:05:55,13:29:39,NA,incomplete,false,NA,NA,true,3,15,NA,NA,NA,left,m_s_084.jpg,red,gray,NA,NA,NA,NA,NA,NA,NA,NA,NA,NaN,NA,3871,left,1,NA,NA,NA,NA,NA
shiNED7e,3icohx7eofotocxdgkfntnxuj980e9,3x1fv8s5j149obsegey2334ouyovgm,shiNED7e,2020-0188,2021-10-31,12:05:55,13:29:39,NA,incomplete,false,NA,NA,true,3,16,NA,NA,NA,right,n_s_100.jpg,blue,yellow,NA,NA,NA,NA,NA,NA,NA,NA,NA,NaN,NA,2823,right,1,NA,NA,NA,NA,NA
shiNED7e,3icohx7eofotocxdgkfntnxuj980e9,3x1fv8s5j149obsegey2334ouyovgm,shiNED7e,2020-0188,2021-10-31,12:05:55,13:29:39,NA,incomplete,false,NA,NA,true,3,17,NA,NA,NA,left,m_l_091.jpg,purple,yellow,NA,NA,NA,NA,NA,NA,NA,NA,NA,NaN,NA,5545,right,0,NA,NA,NA,NA,NA
shiNED7e,3icohx7eofotocxdgkfntnxuj980e9,3x1fv8s5j149obsegey2334ouyovgm,shiNED7e,2020-0188,2021-10-31,12:05:55,13:29:39,NA,incomplete,false,NA,NA,true,3,18,NA,NA,NA,left,n_l_097.jpg,yellow,purple,NA,NA,NA,NA,NA,NA,NA,NA,NA,NaN,NA,3795,right,0,NA,NA,NA,NA,NA
shiNED7e,3icohx7eofotocxdgkfntnxuj980e9,3x1fv8s5j149obsegey2334ouyovgm,shiNED7e,2020-0188,2021-10-31,12:05:55,13:29:39,NA,incomplete,false,NA,NA,true,3,19,NA,NA,NA,left,m_l_048.jpg,red,purple,NA,NA,NA,NA,NA,NA,NA,NA,NA,NaN,NA,1679,left,1,NA,NA,NA,NA,NA
shiNED7e,3icohx7eofotocxdgkfntnxuj980e9,3x1fv8s5j149obsegey2334ouyovgm,shiNED7e,2020-0188,2021-10-31,12:05:55,13:29:39,NA,incomplete,false,NA,NA,true,3,20,NA,NA,NA,left,n_l_043.jpg,gray,white,NA,NA,NA,NA,NA,NA,NA,NA,NA,NaN,NA,2119,right,0,NA,NA,NA,NA,NA
shiNED7e,3icohx7eofotocxdgkfntnxuj980e9,3x1fv8s5j149obsegey2334ouyovgm,shiNED7e,2020-0188,2021-10-31,12:05:55,13:29:39,NA,incomplete,false,NA,NA,true,3,21,NA,NA,NA,left,m_l_014.jpg,purple,red,NA,NA,NA,NA,NA,NA,NA,NA,NA,NaN,NA,2423,left,1,NA,NA,NA,NA,NA
shiNED7e,3icohx7eofotocxdgkfntnxuj980e9,3x1fv8s5j149obsegey2334ouyovgm,shiNED7e,2020-0188,2021-10-31,12:05:55,13:29:39,NA,incomplete,false,NA,true,NA,3,0,NA,NA,NA,right,NA,NA,NA,present,NA,NA,m_s_073.jpg,blue,n_s_114.jpg,blue,within,NA,NaN,NA,NA,NA,NA,left,3329,0,2,2732
shiNED7e,3icohx7eofotocxdgkfntnxuj980e9,3x1fv8s5j149obsegey2334ouyovgm,shiNED7e,2020-0188,2021-10-31,12:05:55,13:29:39,NA,incomplete,false,NA,true,NA,3,1,NA,NA,NA,right,NA,NA,NA,present,NA,NA,m_s_117.jpg,purple,m_l_014.jpg,purple,within,NA,NaN,NA,NA,NA,NA,right,2775,1,1,2998
shiNED7e,3icohx7eofotocxdgkfntnxuj980e9,3x1fv8s5j149obsegey2334ouyovgm,shiNED7e,2020-0188,2021-10-31,12:05:55,13:29:39,NA,incomplete,false,NA,true,NA,3,2,NA,NA,NA,left,NA,NA,NA,present,NA,NA,n_s_041.jpg,blue,n_l_097.jpg,yellow,between,NA,NaN,NA,NA,NA,NA,left,3237,1,1,1983
shiNED7e,3icohx7eofotocxdgkfntnxuj980e9,3x1fv8s5j149obsegey2334ouyovgm,shiNED7e,2020-0188,2021-10-31,12:05:55,13:29:39,NA,incomplete,false,NA,true,NA,3,3,NA,NA,NA,right,NA,NA,NA,present,NA,NA,m_l_082.jpg,yellow,m_l_026.jpg,yellow,within,NA,NaN,NA,NA,NA,NA,left,8123,0,2,3129
shiNED7e,3icohx7eofotocxdgkfntnxuj980e9,3x1fv8s5j149obsegey2334ouyovgm,shiNED7e,2020-0188,2021-10-31,12:05:55,13:29:39,NA,incomplete,false,NA,true,NA,3,4,NA,NA,NA,left,NA,NA,NA,present,NA,NA,m_l_091.jpg,purple,n_l_030.jpg,red,between,NA,NaN,NA,NA,NA,NA,left,6743,1,1,1830
shiNED7e,3icohx7eofotocxdgkfntnxuj980e9,3x1fv8s5j149obsegey2334ouyovgm,shiNED7e,2020-0188,2021-10-31,12:05:55,13:29:39,NA,incomplete,false,NA,true,NA,3,5,NA,NA,NA,left,NA,NA,NA,present,NA,NA,n_s_100.jpg,yellow,n_s_038.jpg,purple,between,NA,NaN,NA,NA,NA,NA,right,5239,0,3,7259
shiNED7e,3icohx7eofotocxdgkfntnxuj980e9,3x1fv8s5j149obsegey2334ouyovgm,shiNED7e,2020-0188,2021-10-31,12:05:55,13:29:39,NA,incomplete,false,NA,true,NA,3,6,NA,NA,NA,right,NA,NA,NA,present,NA,NA,m_s_116.jpg,gray,n_l_043.jpg,gray,within,NA,NaN,NA,NA,NA,NA,right,5880,1,1,6559
shiNED7e,3icohx7eofotocxdgkfntnxuj980e9,3x1fv8s5j149obsegey2334ouyovgm,shiNED7e,2020-0188,2021-10-31,12:05:55,13:29:39,NA,incomplete,false,NA,true,NA,3,7,NA,NA,NA,left,NA,NA,NA,present,NA,NA,m_l_048.jpg,red,m_s_016.jpg,red,within,NA,NaN,NA,NA,NA,NA,right,6318,0,1,1401
shiNED7e,3icohx7eofotocxdgkfntnxuj980e9,3x1fv8s5j149obsegey2334ouyovgm,shiNED7e,2020-0188,2021-10-31,12:05:55,13:29:39,NA,incomplete,false,NA,true,NA,3,8,NA,NA,NA,left,NA,NA,NA,present,NA,NA,n_s_014.jpg,gray,n_s_006.jpg,white,between,NA,NaN,NA,NA,NA,NA,left,2818,1,0,2147
shiNED7e,3icohx7eofotocxdgkfntnxuj980e9,3x1fv8s5j149obsegey2334ouyovgm,shiNED7e,2020-0188,2021-10-31,12:05:55,13:29:39,NA,incomplete,false,NA,true,NA,3,9,NA,NA,NA,left,NA,NA,NA,present,NA,NA,m_l_079.jpg,white,m_l_073.jpg,white,within,NA,NaN,NA,NA,NA,NA,right,2550,0,3,1511
shiNED7e,3icohx7eofotocxdgkfntnxuj980e9,3x1fv8s5j149obsegey2334ouyovgm,shiNED7e,2020-0188,2021-10-31,12:05:55,13:29:39,NA,incomplete,false,NA,true,NA,3,10,NA,NA,NA,left,NA,NA,NA,present,NA,NA,m_s_084.jpg,red,m_s_041.jpg,gray,between,NA,NaN,NA,NA,NA,NA,left,3440,1,2,1057
shiNED7e,3icohx7eofotocxdgkfntnxuj980e9,3x1fv8s5j149obsegey2334ouyovgm,shiNED7e,2020-0188,2021-10-31,12:05:55,13:29:39,NA,incomplete,false,true,NA,NA,4,0,NA,purple,m_s_059.jpg,NA,NA,NA,NA,NA,pleasant,unpleasant,NA,NA,NA,NA,NA,left,2261,true,NA,NA,NA,NA,NA,NA,NA,NA
shiNED7e,3icohx7eofotocxdgkfntnxuj980e9,3x1fv8s5j149obsegey2334ouyovgm,shiNED7e,2020-0188,2021-10-31,12:05:55,13:29:39,NA,incomplete,false,true,NA,NA,4,1,NA,purple,m_l_002.jpg,NA,NA,NA,NA,NA,unpleasant,pleasant,NA,NA,NA,NA,NA,right,1749,true,NA,NA,NA,NA,NA,NA,NA,NA
shiNED7e,3icohx7eofotocxdgkfntnxuj980e9,3x1fv8s5j149obsegey2334ouyovgm,shiNED7e,2020-0188,2021-10-31,12:05:55,13:29:39,NA,incomplete,false,true,NA,NA,4,2,NA,purple,m_s_110.jpg,NA,NA,NA,NA,NA,unpleasant,pleasant,NA,NA,NA,NA,NA,right,1530,true,NA,NA,NA,NA,NA,NA,NA,NA
shiNED7e,3icohx7eofotocxdgkfntnxuj980e9,3x1fv8s5j149obsegey2334ouyovgm,shiNED7e,2020-0188,2021-10-31,12:05:55,13:29:39,NA,incomplete,false,true,NA,NA,4,3,NA,purple,n_s_066.jpg,NA,NA,NA,NA,NA,unpleasant,pleasant,NA,NA,NA,NA,NA,right,1467,true,NA,NA,NA,NA,NA,NA,NA,NA
shiNED7e,3icohx7eofotocxdgkfntnxuj980e9,3x1fv8s5j149obsegey2334ouyovgm,shiNED7e,2020-0188,2021-10-31,12:05:55,13:29:39,NA,incomplete,false,true,NA,NA,4,4,NA,purple,m_s_008.jpg,NA,NA,NA,NA,NA,unpleasant,pleasant,NA,NA,NA,NA,NA,right,1233,true,NA,NA,NA,NA,NA,NA,NA,NA
shiNED7e,3icohx7eofotocxdgkfntnxuj980e9,3x1fv8s5j149obsegey2334ouyovgm,shiNED7e,2020-0188,2021-10-31,12:05:55,13:29:39,NA,incomplete,false,true,NA,NA,4,5,NA,purple,n_s_106.jpg,NA,NA,NA,NA,NA,unpleasant,pleasant,NA,NA,NA,NA,NA,right,1401,true,NA,NA,NA,NA,NA,NA,NA,NA
shiNED7e,3icohx7eofotocxdgkfntnxuj980e9,3x1fv8s5j149obsegey2334ouyovgm,shiNED7e,2020-0188,2021-10-31,12:05:55,13:29:39,NA,incomplete,false,true,NA,NA,4,6,NA,red,n_s_029.jpg,NA,NA,NA,NA,NA,unpleasant,pleasant,NA,NA,NA,NA,NA,right,1370,true,NA,NA,NA,NA,NA,NA,NA,NA
shiNED7e,3icohx7eofotocxdgkfntnxuj980e9,3x1fv8s5j149obsegey2334ouyovgm,shiNED7e,2020-0188,2021-10-31,12:05:55,13:29:39,NA,incomplete,false,true,NA,NA,4,7,NA,red,n_l_066.jpg,NA,NA,NA,NA,NA,unpleasant,pleasant,NA,NA,NA,NA,NA,left,1381,true,NA,NA,NA,NA,NA,NA,NA,NA
shiNED7e,3icohx7eofotocxdgkfntnxuj980e9,3x1fv8s5j149obsegey2334ouyovgm,shiNED7e,2020-0188,2021-10-31,12:05:55,13:29:39,NA,incomplete,false,true,NA,NA,4,8,NA,red,n_s_023.jpg,NA,NA,NA,NA,NA,pleasant,unpleasant,NA,NA,NA,NA,NA,right,1430,true,NA,NA,NA,NA,NA,NA,NA,NA
shiNED7e,3icohx7eofotocxdgkfntnxuj980e9,3x1fv8s5j149obsegey2334ouyovgm,shiNED7e,2020-0188,2021-10-31,12:05:55,13:29:39,NA,incomplete,false,true,NA,NA,4,9,NA,red,n_l_056.jpg,NA,NA,NA,NA,NA,unpleasant,pleasant,NA,NA,NA,NA,NA,left,2158,true,NA,NA,NA,NA,NA,NA,NA,NA
shiNED7e,3icohx7eofotocxdgkfntnxuj980e9,3x1fv8s5j149obsegey2334ouyovgm,shiNED7e,2020-0188,2021-10-31,12:05:55,13:29:39,NA,incomplete,false,true,NA,NA,4,10,NA,red,m_s_015.jpg,NA,NA,NA,NA,NA,pleasant,unpleasant,NA,NA,NA,NA,NA,left,1216,true,NA,NA,NA,NA,NA,NA,NA,NA
shiNED7e,3icohx7eofotocxdgkfntnxuj980e9,3x1fv8s5j149obsegey2334ouyovgm,shiNED7e,2020-0188,2021-10-31,12:05:55,13:29:39,NA,incomplete,false,true,NA,NA,4,11,NA,red,m_s_031.jpg,NA,NA,NA,NA,NA,unpleasant,pleasant,NA,NA,NA,NA,NA,right,1737,true,NA,NA,NA,NA,NA,NA,NA,NA
shiNED7e,3icohx7eofotocxdgkfntnxuj980e9,3x1fv8s5j149obsegey2334ouyovgm,shiNED7e,2020-0188,2021-10-31,12:05:55,13:29:39,NA,incomplete,false,true,NA,NA,4,12,NA,brown,n_s_086.jpg,NA,NA,NA,NA,NA,pleasant,unpleasant,NA,NA,NA,NA,NA,left,1976,true,NA,NA,NA,NA,NA,NA,NA,NA
shiNED7e,3icohx7eofotocxdgkfntnxuj980e9,3x1fv8s5j149obsegey2334ouyovgm,shiNED7e,2020-0188,2021-10-31,12:05:55,13:29:39,NA,incomplete,false,true,NA,NA,4,13,NA,brown,n_l_035.jpg,NA,NA,NA,NA,NA,unpleasant,pleasant,NA,NA,NA,NA,NA,right,1738,true,NA,NA,NA,NA,NA,NA,NA,NA
shiNED7e,3icohx7eofotocxdgkfntnxuj980e9,3x1fv8s5j149obsegey2334ouyovgm,shiNED7e,2020-0188,2021-10-31,12:05:55,13:29:39,NA,incomplete,false,true,NA,NA,4,14,NA,brown,n_l_009.jpg,NA,NA,NA,NA,NA,pleasant,unpleasant,NA,NA,NA,NA,NA,right,2360,true,NA,NA,NA,NA,NA,NA,NA,NA
shiNED7e,3icohx7eofotocxdgkfntnxuj980e9,3x1fv8s5j149obsegey2334ouyovgm,shiNED7e,2020-0188,2021-10-31,12:05:55,13:29:39,NA,incomplete,false,true,NA,NA,4,15,NA,brown,n_s_017.jpg,NA,NA,NA,NA,NA,pleasant,unpleasant,NA,NA,NA,NA,NA,left,1726,true,NA,NA,NA,NA,NA,NA,NA,NA
shiNED7e,3icohx7eofotocxdgkfntnxuj980e9,3x1fv8s5j149obsegey2334ouyovgm,shiNED7e,2020-0188,2021-10-31,12:05:55,13:29:39,NA,incomplete,false,true,NA,NA,4,16,NA,brown,m_l_044.jpg,NA,NA,NA,NA,NA,unpleasant,pleasant,NA,NA,NA,NA,NA,right,2315,true,NA,NA,NA,NA,NA,NA,NA,NA
shiNED7e,3icohx7eofotocxdgkfntnxuj980e9,3x1fv8s5j149obsegey2334ouyovgm,shiNED7e,2020-0188,2021-10-31,12:05:55,13:29:39,NA,incomplete,false,true,NA,NA,4,17,NA,brown,m_l_027.jpg,NA,NA,NA,NA,NA,unpleasant,pleasant,NA,NA,NA,NA,NA,right,1214,true,NA,NA,NA,NA,NA,NA,NA,NA
shiNED7e,3icohx7eofotocxdgkfntnxuj980e9,3x1fv8s5j149obsegey2334ouyovgm,shiNED7e,2020-0188,2021-10-31,12:05:55,13:29:39,NA,incomplete,false,true,NA,NA,4,18,NA,blue,m_s_043.jpg,NA,NA,NA,NA,NA,pleasant,unpleasant,NA,NA,NA,NA,NA,right,2200,true,NA,NA,NA,NA,NA,NA,NA,NA
shiNED7e,3icohx7eofotocxdgkfntnxuj980e9,3x1fv8s5j149obsegey2334ouyovgm,shiNED7e,2020-0188,2021-10-31,12:05:55,13:29:39,NA,incomplete,false,true,NA,NA,4,19,NA,blue,m_s_046.jpg,NA,NA,NA,NA,NA,pleasant,unpleasant,NA,NA,NA,NA,NA,none,0,false,NA,NA,NA,NA,NA,NA,NA,NA
shiNED7e,3icohx7eofotocxdgkfntnxuj980e9,3x1fv8s5j149obsegey2334ouyovgm,shiNED7e,2020-0188,2021-10-31,12:05:55,13:29:39,NA,incomplete,false,true,NA,NA,4,20,NA,blue,m_s_026.jpg,NA,NA,NA,NA,NA,unpleasant,pleasant,NA,NA,NA,NA,NA,none,0,false,NA,NA,NA,NA,NA,NA,NA,NA
shiNED7e,3icohx7eofotocxdgkfntnxuj980e9,3x1fv8s5j149obsegey2334ouyovgm,shiNED7e,2020-0188,2021-10-31,12:05:55,13:29:39,NA,incomplete,false,true,NA,NA,4,21,NA,blue,n_s_081.jpg,NA,NA,NA,NA,NA,unpleasant,pleasant,NA,NA,NA,NA,NA,left,1603,true,NA,NA,NA,NA,NA,NA,NA,NA
shiNED7e,3icohx7eofotocxdgkfntnxuj980e9,3x1fv8s5j149obsegey2334ouyovgm,shiNED7e,2020-0188,2021-10-31,12:05:55,13:29:39,NA,incomplete,false,true,NA,NA,4,22,NA,blue,m_l_093.jpg,NA,NA,NA,NA,NA,unpleasant,pleasant,NA,NA,NA,NA,NA,left,1076,true,NA,NA,NA,NA,NA,NA,NA,NA
shiNED7e,3icohx7eofotocxdgkfntnxuj980e9,3x1fv8s5j149obsegey2334ouyovgm,shiNED7e,2020-0188,2021-10-31,12:05:55,13:29:39,NA,incomplete,false,true,NA,NA,4,23,NA,blue,n_s_035.jpg,NA,NA,NA,NA,NA,pleasant,unpleasant,NA,NA,NA,NA,NA,right,1402,true,NA,NA,NA,NA,NA,NA,NA,NA
shiNED7e,3icohx7eofotocxdgkfntnxuj980e9,3x1fv8s5j149obsegey2334ouyovgm,shiNED7e,2020-0188,2021-10-31,12:05:55,13:29:39,NA,incomplete,false,true,NA,NA,4,24,NA,black,n_s_070.jpg,NA,NA,NA,NA,NA,pleasant,unpleasant,NA,NA,NA,NA,NA,left,1218,true,NA,NA,NA,NA,NA,NA,NA,NA
shiNED7e,3icohx7eofotocxdgkfntnxuj980e9,3x1fv8s5j149obsegey2334ouyovgm,shiNED7e,2020-0188,2021-10-31,12:05:55,13:29:39,NA,incomplete,false,true,NA,NA,4,25,NA,black,n_s_091.jpg,NA,NA,NA,NA,NA,unpleasant,pleasant,NA,NA,NA,NA,NA,left,2098,true,NA,NA,NA,NA,NA,NA,NA,NA
shiNED7e,3icohx7eofotocxdgkfntnxuj980e9,3x1fv8s5j149obsegey2334ouyovgm,shiNED7e,2020-0188,2021-10-31,12:05:55,13:29:39,NA,incomplete,false,true,NA,NA,4,26,NA,black,n_s_115.jpg,NA,NA,NA,NA,NA,pleasant,unpleasant,NA,NA,NA,NA,NA,left,1894,true,NA,NA,NA,NA,NA,NA,NA,NA
shiNED7e,3icohx7eofotocxdgkfntnxuj980e9,3x1fv8s5j149obsegey2334ouyovgm,shiNED7e,2020-0188,2021-10-31,12:05:55,13:29:39,NA,incomplete,false,true,NA,NA,4,27,NA,black,m_l_095.jpg,NA,NA,NA,NA,NA,unpleasant,pleasant,NA,NA,NA,NA,NA,right,2698,true,NA,NA,NA,NA,NA,NA,NA,NA
shiNED7e,3icohx7eofotocxdgkfntnxuj980e9,3x1fv8s5j149obsegey2334ouyovgm,shiNED7e,2020-0188,2021-10-31,12:05:55,13:29:39,NA,incomplete,false,true,NA,NA,4,28,NA,black,m_s_112.jpg,NA,NA,NA,NA,NA,unpleasant,pleasant,NA,NA,NA,NA,NA,right,1572,true,NA,NA,NA,NA,NA,NA,NA,NA
shiNED7e,3icohx7eofotocxdgkfntnxuj980e9,3x1fv8s5j149obsegey2334ouyovgm,shiNED7e,2020-0188,2021-10-31,12:05:55,13:29:39,NA,incomplete,false,true,NA,NA,4,29,NA,black,n_s_001.jpg,NA,NA,NA,NA,NA,unpleasant,pleasant,NA,NA,NA,NA,NA,right,1630,true,NA,NA,NA,NA,NA,NA,NA,NA
shiNED7e,3icohx7eofotocxdgkfntnxuj980e9,3x1fv8s5j149obsegey2334ouyovgm,shiNED7e,2020-0188,2021-10-31,12:05:55,13:29:39,NA,incomplete,false,true,NA,NA,4,30,NA,green,n_s_010.jpg,NA,NA,NA,NA,NA,unpleasant,pleasant,NA,NA,NA,NA,NA,left,1658,true,NA,NA,NA,NA,NA,NA,NA,NA
shiNED7e,3icohx7eofotocxdgkfntnxuj980e9,3x1fv8s5j149obsegey2334ouyovgm,shiNED7e,2020-0188,2021-10-31,12:05:55,13:29:39,NA,incomplete,false,true,NA,NA,4,31,NA,green,m_s_052.jpg,NA,NA,NA,NA,NA,unpleasant,pleasant,NA,NA,NA,NA,NA,right,2110,true,NA,NA,NA,NA,NA,NA,NA,NA
shiNED7e,3icohx7eofotocxdgkfntnxuj980e9,3x1fv8s5j149obsegey2334ouyovgm,shiNED7e,2020-0188,2021-10-31,12:05:55,13:29:39,NA,incomplete,false,true,NA,NA,4,32,NA,green,m_l_028.jpg,NA,NA,NA,NA,NA,pleasant,unpleasant,NA,NA,NA,NA,NA,left,2187,true,NA,NA,NA,NA,NA,NA,NA,NA
shiNED7e,3icohx7eofotocxdgkfntnxuj980e9,3x1fv8s5j149obsegey2334ouyovgm,shiNED7e,2020-0188,2021-10-31,12:05:55,13:29:39,NA,incomplete,false,true,NA,NA,4,33,NA,green,m_s_100.jpg,NA,NA,NA,NA,NA,pleasant,unpleasant,NA,NA,NA,NA,NA,left,1425,true,NA,NA,NA,NA,NA,NA,NA,NA
shiNED7e,3icohx7eofotocxdgkfntnxuj980e9,3x1fv8s5j149obsegey2334ouyovgm,shiNED7e,2020-0188,2021-10-31,12:05:55,13:29:39,NA,incomplete,false,true,NA,NA,4,34,NA,green,m_s_065.jpg,NA,NA,NA,NA,NA,pleasant,unpleasant,NA,NA,NA,NA,NA,left,3086,true,NA,NA,NA,NA,NA,NA,NA,NA
shiNED7e,3icohx7eofotocxdgkfntnxuj980e9,3x1fv8s5j149obsegey2334ouyovgm,shiNED7e,2020-0188,2021-10-31,12:05:55,13:29:39,NA,incomplete,false,true,NA,NA,4,35,NA,green,m_l_098.jpg,NA,NA,NA,NA,NA,unpleasant,pleasant,NA,NA,NA,NA,NA,left,3031,true,NA,NA,NA,NA,NA,NA,NA,NA
shiNED7e,3icohx7eofotocxdgkfntnxuj980e9,3x1fv8s5j149obsegey2334ouyovgm,shiNED7e,2020-0188,2021-10-31,12:05:55,13:29:39,NA,incomplete,false,NA,NA,true,4,0,NA,NA,NA,right,m_s_046.jpg,brown,blue,NA,NA,NA,NA,NA,NA,NA,NA,NA,NaN,NA,4336,left,0,NA,NA,NA,NA,NA
shiNED7e,3icohx7eofotocxdgkfntnxuj980e9,3x1fv8s5j149obsegey2334ouyovgm,shiNED7e,2020-0188,2021-10-31,12:05:55,13:29:39,NA,incomplete,false,NA,NA,true,4,1,NA,NA,NA,left,n_s_091.jpg,black,green,NA,NA,NA,NA,NA,NA,NA,NA,NA,NaN,NA,10485,right,0,NA,NA,NA,NA,NA
shiNED7e,3icohx7eofotocxdgkfntnxuj980e9,3x1fv8s5j149obsegey2334ouyovgm,shiNED7e,2020-0188,2021-10-31,12:05:55,13:29:39,NA,incomplete,false,NA,NA,true,4,2,NA,NA,NA,left,n_s_115.jpg,black,green,NA,NA,NA,NA,NA,NA,NA,NA,NA,NaN,NA,4854,right,0,NA,NA,NA,NA,NA
shiNED7e,3icohx7eofotocxdgkfntnxuj980e9,3x1fv8s5j149obsegey2334ouyovgm,shiNED7e,2020-0188,2021-10-31,12:05:55,13:29:39,NA,incomplete,false,NA,NA,true,4,3,NA,NA,NA,left,n_s_106.jpg,purple,red,NA,NA,NA,NA,NA,NA,NA,NA,NA,NaN,NA,3767,left,1,NA,NA,NA,NA,NA
shiNED7e,3icohx7eofotocxdgkfntnxuj980e9,3x1fv8s5j149obsegey2334ouyovgm,shiNED7e,2020-0188,2021-10-31,12:05:55,13:29:39,NA,incomplete,false,NA,NA,true,4,4,NA,NA,NA,right,m_l_098.jpg,black,green,NA,NA,NA,NA,NA,NA,NA,NA,NA,NaN,NA,2894,right,1,NA,NA,NA,NA,NA
shiNED7e,3icohx7eofotocxdgkfntnxuj980e9,3x1fv8s5j149obsegey2334ouyovgm,shiNED7e,2020-0188,2021-10-31,12:05:55,13:29:39,NA,incomplete,false,NA,NA,true,4,5,NA,NA,NA,right,m_s_008.jpg,red,purple,NA,NA,NA,NA,NA,NA,NA,NA,NA,NaN,NA,8176,right,1,NA,NA,NA,NA,NA
shiNED7e,3icohx7eofotocxdgkfntnxuj980e9,3x1fv8s5j149obsegey2334ouyovgm,shiNED7e,2020-0188,2021-10-31,12:05:55,13:29:39,NA,incomplete,false,NA,NA,true,4,6,NA,NA,NA,right,n_l_035.jpg,red,brown,NA,NA,NA,NA,NA,NA,NA,NA,NA,NaN,NA,5135,right,1,NA,NA,NA,NA,NA
shiNED7e,3icohx7eofotocxdgkfntnxuj980e9,3x1fv8s5j149obsegey2334ouyovgm,shiNED7e,2020-0188,2021-10-31,12:05:55,13:29:39,NA,incomplete,false,NA,NA,true,4,7,NA,NA,NA,left,m_l_027.jpg,brown,blue,NA,NA,NA,NA,NA,NA,NA,NA,NA,NaN,NA,7925,right,0,NA,NA,NA,NA,NA
shiNED7e,3icohx7eofotocxdgkfntnxuj980e9,3x1fv8s5j149obsegey2334ouyovgm,shiNED7e,2020-0188,2021-10-31,12:05:55,13:29:39,NA,incomplete,false,NA,NA,true,4,8,NA,NA,NA,left,m_s_031.jpg,red,brown,NA,NA,NA,NA,NA,NA,NA,NA,NA,NaN,NA,6733,left,1,NA,NA,NA,NA,NA
shiNED7e,3icohx7eofotocxdgkfntnxuj980e9,3x1fv8s5j149obsegey2334ouyovgm,shiNED7e,2020-0188,2021-10-31,12:05:55,13:29:39,NA,incomplete,false,NA,NA,true,4,9,NA,NA,NA,left,n_l_066.jpg,red,brown,NA,NA,NA,NA,NA,NA,NA,NA,NA,NaN,NA,9672,right,0,NA,NA,NA,NA,NA
shiNED7e,3icohx7eofotocxdgkfntnxuj980e9,3x1fv8s5j149obsegey2334ouyovgm,shiNED7e,2020-0188,2021-10-31,12:05:55,13:29:39,NA,incomplete,false,NA,NA,true,4,10,NA,NA,NA,right,m_l_044.jpg,blue,brown,NA,NA,NA,NA,NA,NA,NA,NA,NA,NaN,NA,12886,left,0,NA,NA,NA,NA,NA
shiNED7e,3icohx7eofotocxdgkfntnxuj980e9,3x1fv8s5j149obsegey2334ouyovgm,shiNED7e,2020-0188,2021-10-31,12:05:55,13:29:39,NA,incomplete,false,NA,NA,true,4,11,NA,NA,NA,right,n_l_009.jpg,blue,brown,NA,NA,NA,NA,NA,NA,NA,NA,NA,NaN,NA,8791,right,1,NA,NA,NA,NA,NA
shiNED7e,3icohx7eofotocxdgkfntnxuj980e9,3x1fv8s5j149obsegey2334ouyovgm,shiNED7e,2020-0188,2021-10-31,12:05:55,13:29:39,NA,incomplete,false,NA,NA,true,4,12,NA,NA,NA,left,n_s_001.jpg,black,blue,NA,NA,NA,NA,NA,NA,NA,NA,NA,NaN,NA,2581,right,0,NA,NA,NA,NA,NA
shiNED7e,3icohx7eofotocxdgkfntnxuj980e9,3x1fv8s5j149obsegey2334ouyovgm,shiNED7e,2020-0188,2021-10-31,12:05:55,13:29:39,NA,incomplete,false,NA,NA,true,4,13,NA,NA,NA,left,m_l_028.jpg,green,black,NA,NA,NA,NA,NA,NA,NA,NA,NA,NaN,NA,7028,left,1,NA,NA,NA,NA,NA
shiNED7e,3icohx7eofotocxdgkfntnxuj980e9,3x1fv8s5j149obsegey2334ouyovgm,shiNED7e,2020-0188,2021-10-31,12:05:55,13:29:39,NA,incomplete,false,NA,NA,true,4,14,NA,NA,NA,left,n_s_035.jpg,blue,black,NA,NA,NA,NA,NA,NA,NA,NA,NA,NaN,NA,3558,right,0,NA,NA,NA,NA,NA
shiNED7e,3icohx7eofotocxdgkfntnxuj980e9,3x1fv8s5j149obsegey2334ouyovgm,shiNED7e,2020-0188,2021-10-31,12:05:55,13:29:39,NA,incomplete,false,NA,NA,true,4,15,NA,NA,NA,right,m_l_002.jpg,red,purple,NA,NA,NA,NA,NA,NA,NA,NA,NA,NaN,NA,2276,right,1,NA,NA,NA,NA,NA
shiNED7e,3icohx7eofotocxdgkfntnxuj980e9,3x1fv8s5j149obsegey2334ouyovgm,shiNED7e,2020-0188,2021-10-31,12:05:55,13:29:39,NA,incomplete,false,NA,NA,true,4,16,NA,NA,NA,left,m_s_026.jpg,blue,brown,NA,NA,NA,NA,NA,NA,NA,NA,NA,NaN,NA,2237,left,1,NA,NA,NA,NA,NA
shiNED7e,3icohx7eofotocxdgkfntnxuj980e9,3x1fv8s5j149obsegey2334ouyovgm,shiNED7e,2020-0188,2021-10-31,12:05:55,13:29:39,NA,incomplete,false,NA,NA,true,4,17,NA,NA,NA,right,m_s_052.jpg,black,green,NA,NA,NA,NA,NA,NA,NA,NA,NA,NaN,NA,2494,right,1,NA,NA,NA,NA,NA
shiNED7e,3icohx7eofotocxdgkfntnxuj980e9,3x1fv8s5j149obsegey2334ouyovgm,shiNED7e,2020-0188,2021-10-31,12:05:55,13:29:39,NA,incomplete,false,NA,NA,true,4,18,NA,NA,NA,right,m_l_093.jpg,black,blue,NA,NA,NA,NA,NA,NA,NA,NA,NA,NaN,NA,2825,right,1,NA,NA,NA,NA,NA
shiNED7e,3icohx7eofotocxdgkfntnxuj980e9,3x1fv8s5j149obsegey2334ouyovgm,shiNED7e,2020-0188,2021-10-31,12:05:55,13:29:39,NA,incomplete,false,NA,NA,true,4,19,NA,NA,NA,left,n_s_023.jpg,red,brown,NA,NA,NA,NA,NA,NA,NA,NA,NA,NaN,NA,3115,left,1,NA,NA,NA,NA,NA
shiNED7e,3icohx7eofotocxdgkfntnxuj980e9,3x1fv8s5j149obsegey2334ouyovgm,shiNED7e,2020-0188,2021-10-31,12:05:55,13:29:39,NA,incomplete,false,NA,NA,true,4,20,NA,NA,NA,right,m_s_015.jpg,purple,red,NA,NA,NA,NA,NA,NA,NA,NA,NA,NaN,NA,2566,right,1,NA,NA,NA,NA,NA
shiNED7e,3icohx7eofotocxdgkfntnxuj980e9,3x1fv8s5j149obsegey2334ouyovgm,shiNED7e,2020-0188,2021-10-31,12:05:55,13:29:39,NA,incomplete,false,NA,NA,true,4,21,NA,NA,NA,right,m_s_112.jpg,blue,black,NA,NA,NA,NA,NA,NA,NA,NA,NA,NaN,NA,2750,left,0,NA,NA,NA,NA,NA
shiNED7e,3icohx7eofotocxdgkfntnxuj980e9,3x1fv8s5j149obsegey2334ouyovgm,shiNED7e,2020-0188,2021-10-31,12:05:55,13:29:39,NA,incomplete,false,NA,true,NA,4,0,NA,NA,NA,left,NA,NA,NA,present,NA,NA,m_s_112.jpg,black,m_l_028.jpg,green,between,NA,NaN,NA,NA,NA,NA,right,7098,0,1,2833
shiNED7e,3icohx7eofotocxdgkfntnxuj980e9,3x1fv8s5j149obsegey2334ouyovgm,shiNED7e,2020-0188,2021-10-31,12:05:55,13:29:39,NA,incomplete,false,NA,true,NA,4,1,NA,NA,NA,right,NA,NA,NA,present,NA,NA,n_l_009.jpg,brown,m_s_015.jpg,red,between,NA,NaN,NA,NA,NA,NA,right,4105,1,1,2626
shiNED7e,3icohx7eofotocxdgkfntnxuj980e9,3x1fv8s5j149obsegey2334ouyovgm,shiNED7e,2020-0188,2021-10-31,12:05:55,13:29:39,NA,incomplete,false,NA,true,NA,4,2,NA,NA,NA,left,NA,NA,NA,present,NA,NA,n_s_091.jpg,black,n_s_001.jpg,black,within,NA,NaN,NA,NA,NA,NA,left,4423,1,2,3834
shiNED7e,3icohx7eofotocxdgkfntnxuj980e9,3x1fv8s5j149obsegey2334ouyovgm,shiNED7e,2020-0188,2021-10-31,12:05:55,13:29:39,NA,incomplete,false,NA,true,NA,4,3,NA,NA,NA,left,NA,NA,NA,present,NA,NA,m_l_044.jpg,brown,m_s_026.jpg,blue,between,NA,NaN,NA,NA,NA,NA,left,3293,1,2,2039
shiNED7e,3icohx7eofotocxdgkfntnxuj980e9,3x1fv8s5j149obsegey2334ouyovgm,shiNED7e,2020-0188,2021-10-31,12:05:55,13:29:39,NA,incomplete,false,NA,true,NA,4,4,NA,NA,NA,left,NA,NA,NA,present,NA,NA,m_s_046.jpg,blue,n_s_035.jpg,blue,within,NA,NaN,NA,NA,NA,NA,left,3230,1,1,1806
shiNED7e,3icohx7eofotocxdgkfntnxuj980e9,3x1fv8s5j149obsegey2334ouyovgm,shiNED7e,2020-0188,2021-10-31,12:05:55,13:29:39,NA,incomplete,false,NA,true,NA,4,5,NA,NA,NA,right,NA,NA,NA,present,NA,NA,m_l_098.jpg,green,m_s_052.jpg,green,within,NA,NaN,NA,NA,NA,NA,right,3824,1,3,1959
shiNED7e,3icohx7eofotocxdgkfntnxuj980e9,3x1fv8s5j149obsegey2334ouyovgm,shiNED7e,2020-0188,2021-10-31,12:05:55,13:29:39,NA,incomplete,false,NA,true,NA,4,6,NA,NA,NA,right,NA,NA,NA,present,NA,NA,m_s_031.jpg,red,n_l_066.jpg,red,within,NA,NaN,NA,NA,NA,NA,right,2585,1,1,1995
shiNED7e,3icohx7eofotocxdgkfntnxuj980e9,3x1fv8s5j149obsegey2334ouyovgm,shiNED7e,2020-0188,2021-10-31,12:05:55,13:29:39,NA,incomplete,false,NA,true,NA,4,7,NA,NA,NA,left,NA,NA,NA,present,NA,NA,m_s_008.jpg,purple,n_s_023.jpg,red,between,NA,NaN,NA,NA,NA,NA,left,3600,1,3,2614
shiNED7e,3icohx7eofotocxdgkfntnxuj980e9,3x1fv8s5j149obsegey2334ouyovgm,shiNED7e,2020-0188,2021-10-31,12:05:55,13:29:39,NA,incomplete,false,NA,true,NA,4,8,NA,NA,NA,right,NA,NA,NA,present,NA,NA,n_s_115.jpg,black,m_l_093.jpg,blue,between,NA,NaN,NA,NA,NA,NA,left,2231,0,2,2084
shiNED7e,3icohx7eofotocxdgkfntnxuj980e9,3x1fv8s5j149obsegey2334ouyovgm,shiNED7e,2020-0188,2021-10-31,12:05:55,13:29:39,NA,incomplete,false,NA,true,NA,4,9,NA,NA,NA,left,NA,NA,NA,present,NA,NA,m_l_002.jpg,purple,n_s_106.jpg,purple,within,NA,NaN,NA,NA,NA,NA,right,3364,0,1,2076
shiNED7e,3icohx7eofotocxdgkfntnxuj980e9,3x1fv8s5j149obsegey2334ouyovgm,shiNED7e,2020-0188,2021-10-31,12:05:55,13:29:39,NA,incomplete,false,NA,true,NA,4,10,NA,NA,NA,left,NA,NA,NA,present,NA,NA,n_l_035.jpg,brown,m_l_027.jpg,brown,within,NA,NaN,NA,NA,NA,NA,right,2421,0,1,1505
shiNED7e,3icohx7eofotocxdgkfntnxuj980e9,3x1fv8s5j149obsegey2334ouyovgm,shiNED7e,2020-0188,2021-10-31,12:05:55,13:29:39,NA,incomplete,false,true,NA,NA,5,0,NA,blue,m_s_099.jpg,NA,NA,NA,NA,NA,pleasant,unpleasant,NA,NA,NA,NA,NA,left,1790,true,NA,NA,NA,NA,NA,NA,NA,NA
shiNED7e,3icohx7eofotocxdgkfntnxuj980e9,3x1fv8s5j149obsegey2334ouyovgm,shiNED7e,2020-0188,2021-10-31,12:05:55,13:29:39,NA,incomplete,false,true,NA,NA,5,1,NA,blue,m_l_117.jpg,NA,NA,NA,NA,NA,unpleasant,pleasant,NA,NA,NA,NA,NA,right,1821,true,NA,NA,NA,NA,NA,NA,NA,NA
shiNED7e,3icohx7eofotocxdgkfntnxuj980e9,3x1fv8s5j149obsegey2334ouyovgm,shiNED7e,2020-0188,2021-10-31,12:05:55,13:29:39,NA,incomplete,false,true,NA,NA,5,2,NA,blue,m_s_102.jpg,NA,NA,NA,NA,NA,pleasant,unpleasant,NA,NA,NA,NA,NA,left,3307,true,NA,NA,NA,NA,NA,NA,NA,NA
shiNED7e,3icohx7eofotocxdgkfntnxuj980e9,3x1fv8s5j149obsegey2334ouyovgm,shiNED7e,2020-0188,2021-10-31,12:05:55,13:29:39,NA,incomplete,false,true,NA,NA,5,3,NA,blue,m_s_079.jpg,NA,NA,NA,NA,NA,unpleasant,pleasant,NA,NA,NA,NA,NA,right,2718,true,NA,NA,NA,NA,NA,NA,NA,NA
shiNED7e,3icohx7eofotocxdgkfntnxuj980e9,3x1fv8s5j149obsegey2334ouyovgm,shiNED7e,2020-0188,2021-10-31,12:05:55,13:29:39,NA,incomplete,false,true,NA,NA,5,4,NA,blue,n_l_037.jpg,NA,NA,NA,NA,NA,pleasant,unpleasant,NA,NA,NA,NA,NA,right,1456,true,NA,NA,NA,NA,NA,NA,NA,NA
shiNED7e,3icohx7eofotocxdgkfntnxuj980e9,3x1fv8s5j149obsegey2334ouyovgm,shiNED7e,2020-0188,2021-10-31,12:05:55,13:29:39,NA,incomplete,false,true,NA,NA,5,5,NA,blue,m_s_011.jpg,NA,NA,NA,NA,NA,pleasant,unpleasant,NA,NA,NA,NA,NA,left,2566,true,NA,NA,NA,NA,NA,NA,NA,NA
shiNED7e,3icohx7eofotocxdgkfntnxuj980e9,3x1fv8s5j149obsegey2334ouyovgm,shiNED7e,2020-0188,2021-10-31,12:05:55,13:29:39,NA,incomplete,false,true,NA,NA,5,6,NA,white,n_s_033.jpg,NA,NA,NA,NA,NA,pleasant,unpleasant,NA,NA,NA,NA,NA,left,1354,true,NA,NA,NA,NA,NA,NA,NA,NA
shiNED7e,3icohx7eofotocxdgkfntnxuj980e9,3x1fv8s5j149obsegey2334ouyovgm,shiNED7e,2020-0188,2021-10-31,12:05:55,13:29:39,NA,incomplete,false,true,NA,NA,5,7,NA,white,n_l_015.jpg,NA,NA,NA,NA,NA,pleasant,unpleasant,NA,NA,NA,NA,NA,right,1638,true,NA,NA,NA,NA,NA,NA,NA,NA
shiNED7e,3icohx7eofotocxdgkfntnxuj980e9,3x1fv8s5j149obsegey2334ouyovgm,shiNED7e,2020-0188,2021-10-31,12:05:55,13:29:39,NA,incomplete,false,true,NA,NA,5,8,NA,white,n_l_029.jpg,NA,NA,NA,NA,NA,pleasant,unpleasant,NA,NA,NA,NA,NA,right,1490,true,NA,NA,NA,NA,NA,NA,NA,NA
shiNED7e,3icohx7eofotocxdgkfntnxuj980e9,3x1fv8s5j149obsegey2334ouyovgm,shiNED7e,2020-0188,2021-10-31,12:05:55,13:29:39,NA,incomplete,false,true,NA,NA,5,9,NA,white,m_l_016.jpg,NA,NA,NA,NA,NA,unpleasant,pleasant,NA,NA,NA,NA,NA,right,2100,true,NA,NA,NA,NA,NA,NA,NA,NA
shiNED7e,3icohx7eofotocxdgkfntnxuj980e9,3x1fv8s5j149obsegey2334ouyovgm,shiNED7e,2020-0188,2021-10-31,12:05:55,13:29:39,NA,incomplete,false,true,NA,NA,5,10,NA,white,m_l_076.jpg,NA,NA,NA,NA,NA,unpleasant,pleasant,NA,NA,NA,NA,NA,right,1754,true,NA,NA,NA,NA,NA,NA,NA,NA
shiNED7e,3icohx7eofotocxdgkfntnxuj980e9,3x1fv8s5j149obsegey2334ouyovgm,shiNED7e,2020-0188,2021-10-31,12:05:55,13:29:39,NA,incomplete,false,true,NA,NA,5,11,NA,white,m_s_032.jpg,NA,NA,NA,NA,NA,pleasant,unpleasant,NA,NA,NA,NA,NA,right,1472,true,NA,NA,NA,NA,NA,NA,NA,NA
shiNED7e,3icohx7eofotocxdgkfntnxuj980e9,3x1fv8s5j149obsegey2334ouyovgm,shiNED7e,2020-0188,2021-10-31,12:05:55,13:29:39,NA,incomplete,false,true,NA,NA,5,12,NA,brown,m_s_040.jpg,NA,NA,NA,NA,NA,unpleasant,pleasant,NA,NA,NA,NA,NA,right,1514,true,NA,NA,NA,NA,NA,NA,NA,NA
shiNED7e,3icohx7eofotocxdgkfntnxuj980e9,3x1fv8s5j149obsegey2334ouyovgm,shiNED7e,2020-0188,2021-10-31,12:05:55,13:29:39,NA,incomplete,false,true,NA,NA,5,13,NA,brown,m_s_009.jpg,NA,NA,NA,NA,NA,unpleasant,pleasant,NA,NA,NA,NA,NA,right,1227,true,NA,NA,NA,NA,NA,NA,NA,NA
shiNED7e,3icohx7eofotocxdgkfntnxuj980e9,3x1fv8s5j149obsegey2334ouyovgm,shiNED7e,2020-0188,2021-10-31,12:05:55,13:29:39,NA,incomplete,false,true,NA,NA,5,14,NA,brown,n_s_101.jpg,NA,NA,NA,NA,NA,pleasant,unpleasant,NA,NA,NA,NA,NA,right,1647,true,NA,NA,NA,NA,NA,NA,NA,NA
shiNED7e,3icohx7eofotocxdgkfntnxuj980e9,3x1fv8s5j149obsegey2334ouyovgm,shiNED7e,2020-0188,2021-10-31,12:05:55,13:29:39,NA,incomplete,false,true,NA,NA,5,15,NA,brown,m_l_069.jpg,NA,NA,NA,NA,NA,unpleasant,pleasant,NA,NA,NA,NA,NA,right,2002,true,NA,NA,NA,NA,NA,NA,NA,NA
shiNED7e,3icohx7eofotocxdgkfntnxuj980e9,3x1fv8s5j149obsegey2334ouyovgm,shiNED7e,2020-0188,2021-10-31,12:05:55,13:29:39,NA,incomplete,false,true,NA,NA,5,16,NA,brown,n_l_046.jpg,NA,NA,NA,NA,NA,unpleasant,pleasant,NA,NA,NA,NA,NA,right,2357,true,NA,NA,NA,NA,NA,NA,NA,NA
shiNED7e,3icohx7eofotocxdgkfntnxuj980e9,3x1fv8s5j149obsegey2334ouyovgm,shiNED7e,2020-0188,2021-10-31,12:05:55,13:29:39,NA,incomplete,false,true,NA,NA,5,17,NA,brown,m_s_006.jpg,NA,NA,NA,NA,NA,pleasant,unpleasant,NA,NA,NA,NA,NA,left,2089,true,NA,NA,NA,NA,NA,NA,NA,NA
shiNED7e,3icohx7eofotocxdgkfntnxuj980e9,3x1fv8s5j149obsegey2334ouyovgm,shiNED7e,2020-0188,2021-10-31,12:05:55,13:29:39,NA,incomplete,false,true,NA,NA,5,18,NA,red,n_l_093.jpg,NA,NA,NA,NA,NA,unpleasant,pleasant,NA,NA,NA,NA,NA,left,1764,true,NA,NA,NA,NA,NA,NA,NA,NA
shiNED7e,3icohx7eofotocxdgkfntnxuj980e9,3x1fv8s5j149obsegey2334ouyovgm,shiNED7e,2020-0188,2021-10-31,12:05:55,13:29:39,NA,incomplete,false,true,NA,NA,5,19,NA,red,m_l_070.jpg,NA,NA,NA,NA,NA,pleasant,unpleasant,NA,NA,NA,NA,NA,left,1714,true,NA,NA,NA,NA,NA,NA,NA,NA
shiNED7e,3icohx7eofotocxdgkfntnxuj980e9,3x1fv8s5j149obsegey2334ouyovgm,shiNED7e,2020-0188,2021-10-31,12:05:55,13:29:39,NA,incomplete,false,true,NA,NA,5,20,NA,red,n_s_116.jpg,NA,NA,NA,NA,NA,unpleasant,pleasant,NA,NA,NA,NA,NA,right,1475,true,NA,NA,NA,NA,NA,NA,NA,NA
shiNED7e,3icohx7eofotocxdgkfntnxuj980e9,3x1fv8s5j149obsegey2334ouyovgm,shiNED7e,2020-0188,2021-10-31,12:05:55,13:29:39,NA,incomplete,false,true,NA,NA,5,21,NA,red,n_s_048.jpg,NA,NA,NA,NA,NA,pleasant,unpleasant,NA,NA,NA,NA,NA,left,2608,true,NA,NA,NA,NA,NA,NA,NA,NA
shiNED7e,3icohx7eofotocxdgkfntnxuj980e9,3x1fv8s5j149obsegey2334ouyovgm,shiNED7e,2020-0188,2021-10-31,12:05:55,13:29:39,NA,incomplete,false,true,NA,NA,5,22,NA,red,n_l_061.jpg,NA,NA,NA,NA,NA,unpleasant,pleasant,NA,NA,NA,NA,NA,left,1193,true,NA,NA,NA,NA,NA,NA,NA,NA
shiNED7e,3icohx7eofotocxdgkfntnxuj980e9,3x1fv8s5j149obsegey2334ouyovgm,shiNED7e,2020-0188,2021-10-31,12:05:55,13:29:39,NA,incomplete,false,true,NA,NA,5,23,NA,red,m_l_112.jpg,NA,NA,NA,NA,NA,pleasant,unpleasant,NA,NA,NA,NA,NA,right,1167,true,NA,NA,NA,NA,NA,NA,NA,NA
shiNED7e,3icohx7eofotocxdgkfntnxuj980e9,3x1fv8s5j149obsegey2334ouyovgm,shiNED7e,2020-0188,2021-10-31,12:05:55,13:29:39,NA,incomplete,false,true,NA,NA,5,24,NA,black,n_l_059.jpg,NA,NA,NA,NA,NA,pleasant,unpleasant,NA,NA,NA,NA,NA,right,1570,true,NA,NA,NA,NA,NA,NA,NA,NA
shiNED7e,3icohx7eofotocxdgkfntnxuj980e9,3x1fv8s5j149obsegey2334ouyovgm,shiNED7e,2020-0188,2021-10-31,12:05:55,13:29:39,NA,incomplete,false,true,NA,NA,5,25,NA,black,m_s_062.jpg,NA,NA,NA,NA,NA,pleasant,unpleasant,NA,NA,NA,NA,NA,left,1185,true,NA,NA,NA,NA,NA,NA,NA,NA
shiNED7e,3icohx7eofotocxdgkfntnxuj980e9,3x1fv8s5j149obsegey2334ouyovgm,shiNED7e,2020-0188,2021-10-31,12:05:55,13:29:39,NA,incomplete,false,true,NA,NA,5,26,NA,black,n_l_020.jpg,NA,NA,NA,NA,NA,pleasant,unpleasant,NA,NA,NA,NA,NA,right,3113,true,NA,NA,NA,NA,NA,NA,NA,NA
shiNED7e,3icohx7eofotocxdgkfntnxuj980e9,3x1fv8s5j149obsegey2334ouyovgm,shiNED7e,2020-0188,2021-10-31,12:05:55,13:29:39,NA,incomplete,false,true,NA,NA,5,27,NA,black,n_s_088.jpg,NA,NA,NA,NA,NA,unpleasant,pleasant,NA,NA,NA,NA,NA,right,1767,true,NA,NA,NA,NA,NA,NA,NA,NA
shiNED7e,3icohx7eofotocxdgkfntnxuj980e9,3x1fv8s5j149obsegey2334ouyovgm,shiNED7e,2020-0188,2021-10-31,12:05:55,13:29:39,NA,incomplete,false,true,NA,NA,5,28,NA,black,m_s_078.jpg,NA,NA,NA,NA,NA,unpleasant,pleasant,NA,NA,NA,NA,NA,right,1333,true,NA,NA,NA,NA,NA,NA,NA,NA
shiNED7e,3icohx7eofotocxdgkfntnxuj980e9,3x1fv8s5j149obsegey2334ouyovgm,shiNED7e,2020-0188,2021-10-31,12:05:55,13:29:39,NA,incomplete,false,true,NA,NA,5,29,NA,black,n_l_110.jpg,NA,NA,NA,NA,NA,unpleasant,pleasant,NA,NA,NA,NA,NA,right,1270,true,NA,NA,NA,NA,NA,NA,NA,NA
shiNED7e,3icohx7eofotocxdgkfntnxuj980e9,3x1fv8s5j149obsegey2334ouyovgm,shiNED7e,2020-0188,2021-10-31,12:05:55,13:29:39,NA,incomplete,false,true,NA,NA,5,30,NA,gray,n_s_068.jpg,NA,NA,NA,NA,NA,unpleasant,pleasant,NA,NA,NA,NA,NA,right,1719,true,NA,NA,NA,NA,NA,NA,NA,NA
shiNED7e,3icohx7eofotocxdgkfntnxuj980e9,3x1fv8s5j149obsegey2334ouyovgm,shiNED7e,2020-0188,2021-10-31,12:05:55,13:29:39,NA,incomplete,false,true,NA,NA,5,31,NA,gray,n_l_048.jpg,NA,NA,NA,NA,NA,pleasant,unpleasant,NA,NA,NA,NA,NA,right,1840,true,NA,NA,NA,NA,NA,NA,NA,NA
shiNED7e,3icohx7eofotocxdgkfntnxuj980e9,3x1fv8s5j149obsegey2334ouyovgm,shiNED7e,2020-0188,2021-10-31,12:05:55,13:29:39,NA,incomplete,false,true,NA,NA,5,32,NA,gray,n_l_019.jpg,NA,NA,NA,NA,NA,unpleasant,pleasant,NA,NA,NA,NA,NA,right,1657,true,NA,NA,NA,NA,NA,NA,NA,NA
