workerId,hitId,assignmentId,subject,studyid,exp_date,exp_start,exp_end,time_start,time_end,practice,encoding,memory,association,block,trial,event_order,event,stim,answer,object,left_context,right_context,context_type,label_left,label_right,left_image,left_event,right_image,right_event,condition,response,response_time,response_acc,association_response_time,association_response,association_acc,order_response,order_response_time,order_acc,distance_response,distance_response_time
J8uozT9e,3fk4g712o0duz4m7qhicsa7sfszsso,3x31tumd71z9orqhkrbt972g1bpl1f,J8uozT9e,2020-0188,2021-10-31,11:02:04,19:59:48,NA,incomplete,true,true,NA,NA,0,0,NA,orange,n_s_056.jpg,NA,NA,NA,NA,NA,pleasant,unpleasant,NA,NA,NA,NA,NA,left,3115.80000000075,true,NA,NA,NA,NA,NA,NA,NA,NA
J8uozT9e,3fk4g712o0duz4m7qhicsa7sfszsso,3x31tumd71z9orqhkrbt972g1bpl1f,J8uozT9e,2020-0188,2021-10-31,11:02:04,19:59:48,NA,incomplete,true,true,NA,NA,0,1,NA,orange,m_s_015.jpg,NA,NA,NA,NA,NA,pleasant,unpleasant,NA,NA,NA,NA,NA,none,0,false,NA,NA,NA,NA,NA,NA,NA,NA
J8uozT9e,3fk4g712o0duz4m7qhicsa7sfszsso,3x31tumd71z9orqhkrbt972g1bpl1f,J8uozT9e,2020-0188,2021-10-31,11:02:04,19:59:48,NA,incomplete,true,true,NA,NA,0,2,NA,orange,m_s_043.jpg,NA,NA,NA,NA,NA,unpleasant,pleasant,NA,NA,NA,NA,NA,none,0,false,NA,NA,NA,NA,NA,NA,NA,NA
J8uozT9e,3fk4g712o0duz4m7qhicsa7sfszsso,3x31tumd71z9orqhkrbt972g1bpl1f,J8uozT9e,2020-0188,2021-10-31,11:02:04,19:59:48,NA,incomplete,true,true,NA,NA,0,3,NA,orange,n_s_095.jpg,NA,NA,NA,NA,NA,unpleasant,pleasant,NA,NA,NA,NA,NA,right,39.5999999996275,true,NA,NA,NA,NA,NA,NA,NA,NA
J8uozT9e,3fk4g712o0duz4m7qhicsa7sfszsso,3x31tumd71z9orqhkrbt972g1bpl1f,J8uozT9e,2020-0188,2021-10-31,11:02:04,19:59:48,NA,incomplete,true,true,NA,NA,0,4,NA,orange,n_s_105.jpg,NA,NA,NA,NA,NA,pleasant,unpleasant,NA,NA,NA,NA,NA,left,2410.80000000075,true,NA,NA,NA,NA,NA,NA,NA,NA
J8uozT9e,3fk4g712o0duz4m7qhicsa7sfszsso,3x31tumd71z9orqhkrbt972g1bpl1f,J8uozT9e,2020-0188,2021-10-31,11:02:04,19:59:48,NA,incomplete,true,true,NA,NA,0,5,NA,orange,m_l_091.jpg,NA,NA,NA,NA,NA,unpleasant,pleasant,NA,NA,NA,NA,NA,right,2879.90000000037,true,NA,NA,NA,NA,NA,NA,NA,NA
J8uozT9e,3fk4g712o0duz4m7qhicsa7sfszsso,3x31tumd71z9orqhkrbt972g1bpl1f,J8uozT9e,2020-0188,2021-10-31,11:02:04,19:59:48,NA,incomplete,true,true,NA,NA,0,6,NA,green,m_s_103.jpg,NA,NA,NA,NA,NA,pleasant,unpleasant,NA,NA,NA,NA,NA,none,0,false,NA,NA,NA,NA,NA,NA,NA,NA
J8uozT9e,3fk4g712o0duz4m7qhicsa7sfszsso,3x31tumd71z9orqhkrbt972g1bpl1f,J8uozT9e,2020-0188,2021-10-31,11:02:04,19:59:48,NA,incomplete,true,true,NA,NA,0,7,NA,green,n_l_076.jpg,NA,NA,NA,NA,NA,pleasant,unpleasant,NA,NA,NA,NA,NA,right,2531,true,NA,NA,NA,NA,NA,NA,NA,NA
J8uozT9e,3fk4g712o0duz4m7qhicsa7sfszsso,3x31tumd71z9orqhkrbt972g1bpl1f,J8uozT9e,2020-0188,2021-10-31,11:02:04,19:59:48,NA,incomplete,true,true,NA,NA,0,8,NA,green,m_l_079.jpg,NA,NA,NA,NA,NA,unpleasant,pleasant,NA,NA,NA,NA,NA,left,2588.90000000037,true,NA,NA,NA,NA,NA,NA,NA,NA
J8uozT9e,3fk4g712o0duz4m7qhicsa7sfszsso,3x31tumd71z9orqhkrbt972g1bpl1f,J8uozT9e,2020-0188,2021-10-31,11:02:04,19:59:48,NA,incomplete,true,true,NA,NA,0,9,NA,green,n_l_027.jpg,NA,NA,NA,NA,NA,pleasant,unpleasant,NA,NA,NA,NA,NA,right,2040.59999999963,true,NA,NA,NA,NA,NA,NA,NA,NA
J8uozT9e,3fk4g712o0duz4m7qhicsa7sfszsso,3x31tumd71z9orqhkrbt972g1bpl1f,J8uozT9e,2020-0188,2021-10-31,11:02:04,19:59:48,NA,incomplete,true,true,NA,NA,0,10,NA,green,n_l_097.jpg,NA,NA,NA,NA,NA,unpleasant,pleasant,NA,NA,NA,NA,NA,left,2432.59999999963,true,NA,NA,NA,NA,NA,NA,NA,NA
J8uozT9e,3fk4g712o0duz4m7qhicsa7sfszsso,3x31tumd71z9orqhkrbt972g1bpl1f,J8uozT9e,2020-0188,2021-10-31,11:02:04,19:59:48,NA,incomplete,true,true,NA,NA,0,11,NA,green,n_s_093.jpg,NA,NA,NA,NA,NA,unpleasant,pleasant,NA,NA,NA,NA,NA,left,2524,true,NA,NA,NA,NA,NA,NA,NA,NA
J8uozT9e,3fk4g712o0duz4m7qhicsa7sfszsso,3x31tumd71z9orqhkrbt972g1bpl1f,J8uozT9e,2020-0188,2021-10-31,11:02:04,19:59:48,NA,incomplete,true,true,NA,NA,0,12,NA,red,n_l_019.jpg,NA,NA,NA,NA,NA,unpleasant,pleasant,NA,NA,NA,NA,NA,right,2286.09999999963,true,NA,NA,NA,NA,NA,NA,NA,NA
J8uozT9e,3fk4g712o0duz4m7qhicsa7sfszsso,3x31tumd71z9orqhkrbt972g1bpl1f,J8uozT9e,2020-0188,2021-10-31,11:02:04,19:59:48,NA,incomplete,true,true,NA,NA,0,13,NA,red,m_l_037.jpg,NA,NA,NA,NA,NA,unpleasant,pleasant,NA,NA,NA,NA,NA,right,2238.79999999888,true,NA,NA,NA,NA,NA,NA,NA,NA
J8uozT9e,3fk4g712o0duz4m7qhicsa7sfszsso,3x31tumd71z9orqhkrbt972g1bpl1f,J8uozT9e,2020-0188,2021-10-31,11:02:04,19:59:48,NA,incomplete,true,true,NA,NA,0,14,NA,red,m_s_041.jpg,NA,NA,NA,NA,NA,unpleasant,pleasant,NA,NA,NA,NA,NA,right,2250.89999999851,true,NA,NA,NA,NA,NA,NA,NA,NA
J8uozT9e,3fk4g712o0duz4m7qhicsa7sfszsso,3x31tumd71z9orqhkrbt972g1bpl1f,J8uozT9e,2020-0188,2021-10-31,11:02:04,19:59:48,NA,incomplete,true,true,NA,NA,0,15,NA,red,n_l_045.jpg,NA,NA,NA,NA,NA,unpleasant,pleasant,NA,NA,NA,NA,NA,left,2223.40000000037,true,NA,NA,NA,NA,NA,NA,NA,NA
J8uozT9e,3fk4g712o0duz4m7qhicsa7sfszsso,3x31tumd71z9orqhkrbt972g1bpl1f,J8uozT9e,2020-0188,2021-10-31,11:02:04,19:59:48,NA,incomplete,true,true,NA,NA,0,16,NA,red,n_l_080.jpg,NA,NA,NA,NA,NA,unpleasant,pleasant,NA,NA,NA,NA,NA,right,2335.20000000112,true,NA,NA,NA,NA,NA,NA,NA,NA
J8uozT9e,3fk4g712o0duz4m7qhicsa7sfszsso,3x31tumd71z9orqhkrbt972g1bpl1f,J8uozT9e,2020-0188,2021-10-31,11:02:04,19:59:48,NA,incomplete,true,true,NA,NA,0,17,NA,red,n_l_116.jpg,NA,NA,NA,NA,NA,pleasant,unpleasant,NA,NA,NA,NA,NA,right,2445.5,true,NA,NA,NA,NA,NA,NA,NA,NA
J8uozT9e,3fk4g712o0duz4m7qhicsa7sfszsso,3x31tumd71z9orqhkrbt972g1bpl1f,J8uozT9e,2020-0188,2021-10-31,11:02:04,19:59:48,NA,incomplete,true,true,NA,NA,0,18,NA,yellow,n_l_031.jpg,NA,NA,NA,NA,NA,unpleasant,pleasant,NA,NA,NA,NA,NA,left,2555.79999999888,true,NA,NA,NA,NA,NA,NA,NA,NA
J8uozT9e,3fk4g712o0duz4m7qhicsa7sfszsso,3x31tumd71z9orqhkrbt972g1bpl1f,J8uozT9e,2020-0188,2021-10-31,11:02:04,19:59:48,NA,incomplete,true,true,NA,NA,0,19,NA,yellow,n_s_068.jpg,NA,NA,NA,NA,NA,unpleasant,pleasant,NA,NA,NA,NA,NA,left,3237.5,true,NA,NA,NA,NA,NA,NA,NA,NA
J8uozT9e,3fk4g712o0duz4m7qhicsa7sfszsso,3x31tumd71z9orqhkrbt972g1bpl1f,J8uozT9e,2020-0188,2021-10-31,11:02:04,19:59:48,NA,incomplete,true,true,NA,NA,0,20,NA,yellow,n_s_103.jpg,NA,NA,NA,NA,NA,unpleasant,pleasant,NA,NA,NA,NA,NA,left,3449.29999999888,true,NA,NA,NA,NA,NA,NA,NA,NA
J8uozT9e,3fk4g712o0duz4m7qhicsa7sfszsso,3x31tumd71z9orqhkrbt972g1bpl1f,J8uozT9e,2020-0188,2021-10-31,11:02:04,19:59:48,NA,incomplete,true,true,NA,NA,0,21,NA,yellow,m_s_031.jpg,NA,NA,NA,NA,NA,pleasant,unpleasant,NA,NA,NA,NA,NA,left,2482.40000000037,true,NA,NA,NA,NA,NA,NA,NA,NA
J8uozT9e,3fk4g712o0duz4m7qhicsa7sfszsso,3x31tumd71z9orqhkrbt972g1bpl1f,J8uozT9e,2020-0188,2021-10-31,11:02:04,19:59:48,NA,incomplete,true,true,NA,NA,0,22,NA,yellow,n_s_036.jpg,NA,NA,NA,NA,NA,pleasant,unpleasant,NA,NA,NA,NA,NA,left,1980.10000000149,true,NA,NA,NA,NA,NA,NA,NA,NA
J8uozT9e,3fk4g712o0duz4m7qhicsa7sfszsso,3x31tumd71z9orqhkrbt972g1bpl1f,J8uozT9e,2020-0188,2021-10-31,11:02:04,19:59:48,NA,incomplete,true,true,NA,NA,0,23,NA,yellow,m_s_046.jpg,NA,NA,NA,NA,NA,pleasant,unpleasant,NA,NA,NA,NA,NA,left,2049.30000000075,true,NA,NA,NA,NA,NA,NA,NA,NA
J8uozT9e,3fk4g712o0duz4m7qhicsa7sfszsso,3x31tumd71z9orqhkrbt972g1bpl1f,J8uozT9e,2020-0188,2021-10-31,11:02:04,19:59:48,NA,incomplete,true,true,NA,NA,0,24,NA,gray,m_l_031.jpg,NA,NA,NA,NA,NA,pleasant,unpleasant,NA,NA,NA,NA,NA,right,2836.60000000149,true,NA,NA,NA,NA,NA,NA,NA,NA
J8uozT9e,3fk4g712o0duz4m7qhicsa7sfszsso,3x31tumd71z9orqhkrbt972g1bpl1f,J8uozT9e,2020-0188,2021-10-31,11:02:04,19:59:48,NA,incomplete,true,true,NA,NA,0,25,NA,gray,n_l_024.jpg,NA,NA,NA,NA,NA,unpleasant,pleasant,NA,NA,NA,NA,NA,none,0,false,NA,NA,NA,NA,NA,NA,NA,NA
J8uozT9e,3fk4g712o0duz4m7qhicsa7sfszsso,3x31tumd71z9orqhkrbt972g1bpl1f,J8uozT9e,2020-0188,2021-10-31,11:02:04,19:59:48,NA,incomplete,true,true,NA,NA,0,26,NA,gray,m_l_093.jpg,NA,NA,NA,NA,NA,pleasant,unpleasant,NA,NA,NA,NA,NA,right,91.8000000007451,true,NA,NA,NA,NA,NA,NA,NA,NA
J8uozT9e,3fk4g712o0duz4m7qhicsa7sfszsso,3x31tumd71z9orqhkrbt972g1bpl1f,J8uozT9e,2020-0188,2021-10-31,11:02:04,19:59:48,NA,incomplete,true,true,NA,NA,0,27,NA,gray,n_s_079.jpg,NA,NA,NA,NA,NA,unpleasant,pleasant,NA,NA,NA,NA,NA,right,1613.10000000149,true,NA,NA,NA,NA,NA,NA,NA,NA
J8uozT9e,3fk4g712o0duz4m7qhicsa7sfszsso,3x31tumd71z9orqhkrbt972g1bpl1f,J8uozT9e,2020-0188,2021-10-31,11:02:04,19:59:48,NA,incomplete,true,true,NA,NA,0,28,NA,gray,n_s_001.jpg,NA,NA,NA,NA,NA,pleasant,unpleasant,NA,NA,NA,NA,NA,right,2672.40000000037,true,NA,NA,NA,NA,NA,NA,NA,NA
J8uozT9e,3fk4g712o0duz4m7qhicsa7sfszsso,3x31tumd71z9orqhkrbt972g1bpl1f,J8uozT9e,2020-0188,2021-10-31,11:02:04,19:59:48,NA,incomplete,true,true,NA,NA,0,29,NA,gray,m_s_083.jpg,NA,NA,NA,NA,NA,unpleasant,pleasant,NA,NA,NA,NA,NA,right,2220.19999999925,true,NA,NA,NA,NA,NA,NA,NA,NA
J8uozT9e,3fk4g712o0duz4m7qhicsa7sfszsso,3x31tumd71z9orqhkrbt972g1bpl1f,J8uozT9e,2020-0188,2021-10-31,11:02:04,19:59:48,NA,incomplete,true,true,NA,NA,0,30,NA,black,m_l_004.jpg,NA,NA,NA,NA,NA,pleasant,unpleasant,NA,NA,NA,NA,NA,right,2145.40000000037,true,NA,NA,NA,NA,NA,NA,NA,NA
J8uozT9e,3fk4g712o0duz4m7qhicsa7sfszsso,3x31tumd71z9orqhkrbt972g1bpl1f,J8uozT9e,2020-0188,2021-10-31,11:02:04,19:59:48,NA,incomplete,true,true,NA,NA,0,31,NA,black,m_s_081.jpg,NA,NA,NA,NA,NA,pleasant,unpleasant,NA,NA,NA,NA,NA,right,2164.90000000037,true,NA,NA,NA,NA,NA,NA,NA,NA
J8uozT9e,3fk4g712o0duz4m7qhicsa7sfszsso,3x31tumd71z9orqhkrbt972g1bpl1f,J8uozT9e,2020-0188,2021-10-31,11:02:04,19:59:48,NA,incomplete,true,true,NA,NA,0,32,NA,black,m_s_069.jpg,NA,NA,NA,NA,NA,unpleasant,pleasant,NA,NA,NA,NA,NA,right,2203.59999999963,true,NA,NA,NA,NA,NA,NA,NA,NA
J8uozT9e,3fk4g712o0duz4m7qhicsa7sfszsso,3x31tumd71z9orqhkrbt972g1bpl1f,J8uozT9e,2020-0188,2021-10-31,11:02:04,19:59:48,NA,incomplete,true,true,NA,NA,0,33,NA,black,m_s_073.jpg,NA,NA,NA,NA,NA,pleasant,unpleasant,NA,NA,NA,NA,NA,right,2278,true,NA,NA,NA,NA,NA,NA,NA,NA
J8uozT9e,3fk4g712o0duz4m7qhicsa7sfszsso,3x31tumd71z9orqhkrbt972g1bpl1f,J8uozT9e,2020-0188,2021-10-31,11:02:04,19:59:48,NA,incomplete,true,true,NA,NA,0,34,NA,black,n_s_109.jpg,NA,NA,NA,NA,NA,unpleasant,pleasant,NA,NA,NA,NA,NA,right,2066.79999999888,true,NA,NA,NA,NA,NA,NA,NA,NA
J8uozT9e,3fk4g712o0duz4m7qhicsa7sfszsso,3x31tumd71z9orqhkrbt972g1bpl1f,J8uozT9e,2020-0188,2021-10-31,11:02:04,19:59:48,NA,incomplete,true,true,NA,NA,0,35,NA,black,n_l_047.jpg,NA,NA,NA,NA,NA,unpleasant,pleasant,NA,NA,NA,NA,NA,left,3406.60000000149,true,NA,NA,NA,NA,NA,NA,NA,NA
J8uozT9e,3fk4g712o0duz4m7qhicsa7sfszsso,3x31tumd71z9orqhkrbt972g1bpl1f,J8uozT9e,2020-0188,2021-10-31,11:02:04,19:59:48,NA,incomplete,true,NA,NA,true,0,0,NA,NA,NA,right,m_l_091.jpg,green,orange,NA,NA,NA,NA,NA,NA,NA,NA,NA,NaN,NA,19058.5,right,1,NA,NA,NA,NA,NA
J8uozT9e,3fk4g712o0duz4m7qhicsa7sfszsso,3x31tumd71z9orqhkrbt972g1bpl1f,J8uozT9e,2020-0188,2021-10-31,11:02:04,19:59:48,NA,incomplete,true,NA,NA,true,0,1,NA,NA,NA,left,m_s_083.jpg,gray,yellow,NA,NA,NA,NA,NA,NA,NA,NA,NA,NaN,NA,16198.799999998882,left,1,NA,NA,NA,NA,NA
J8uozT9e,3fk4g712o0duz4m7qhicsa7sfszsso,3x31tumd71z9orqhkrbt972g1bpl1f,J8uozT9e,2020-0188,2021-10-31,11:02:04,19:59:48,NA,incomplete,true,NA,NA,true,0,2,NA,NA,NA,left,n_l_116.jpg,red,yellow,NA,NA,NA,NA,NA,NA,NA,NA,NA,NaN,NA,9528.39999999851,left,1,NA,NA,NA,NA,NA
J8uozT9e,3fk4g712o0duz4m7qhicsa7sfszsso,3x31tumd71z9orqhkrbt972g1bpl1f,J8uozT9e,2020-0188,2021-10-31,11:02:04,19:59:48,NA,incomplete,true,NA,NA,true,0,3,NA,NA,NA,right,n_s_093.jpg,orange,green,NA,NA,NA,NA,NA,NA,NA,NA,NA,NaN,NA,4476.800000000745,right,1,NA,NA,NA,NA,NA
J8uozT9e,3fk4g712o0duz4m7qhicsa7sfszsso,3x31tumd71z9orqhkrbt972g1bpl1f,J8uozT9e,2020-0188,2021-10-31,11:02:04,19:59:48,NA,incomplete,true,NA,NA,true,0,4,NA,NA,NA,left,n_l_076.jpg,green,orange,NA,NA,NA,NA,NA,NA,NA,NA,NA,NaN,NA,5007.299999998882,left,1,NA,NA,NA,NA,NA
J8uozT9e,3fk4g712o0duz4m7qhicsa7sfszsso,3x31tumd71z9orqhkrbt972g1bpl1f,J8uozT9e,2020-0188,2021-10-31,11:02:04,19:59:48,NA,incomplete,true,NA,NA,true,0,5,NA,NA,NA,right,n_s_001.jpg,yellow,gray,NA,NA,NA,NA,NA,NA,NA,NA,NA,NaN,NA,8499.099999999627,right,1,NA,NA,NA,NA,NA
J8uozT9e,3fk4g712o0duz4m7qhicsa7sfszsso,3x31tumd71z9orqhkrbt972g1bpl1f,J8uozT9e,2020-0188,2021-10-31,11:02:04,19:59:48,NA,incomplete,true,NA,NA,true,0,6,NA,NA,NA,right,n_l_024.jpg,black,gray,NA,NA,NA,NA,NA,NA,NA,NA,NA,NaN,NA,9579.599999999627,right,1,NA,NA,NA,NA,NA
J8uozT9e,3fk4g712o0duz4m7qhicsa7sfszsso,3x31tumd71z9orqhkrbt972g1bpl1f,J8uozT9e,2020-0188,2021-10-31,11:02:04,19:59:48,NA,incomplete,true,NA,NA,true,0,7,NA,NA,NA,right,m_s_081.jpg,gray,black,NA,NA,NA,NA,NA,NA,NA,NA,NA,NaN,NA,5557.800000000745,right,1,NA,NA,NA,NA,NA
J8uozT9e,3fk4g712o0duz4m7qhicsa7sfszsso,3x31tumd71z9orqhkrbt972g1bpl1f,J8uozT9e,2020-0188,2021-10-31,11:02:04,19:59:48,NA,incomplete,true,NA,NA,true,0,8,NA,NA,NA,right,m_s_041.jpg,green,red,NA,NA,NA,NA,NA,NA,NA,NA,NA,NaN,NA,25020,right,1,NA,NA,NA,NA,NA
J8uozT9e,3fk4g712o0duz4m7qhicsa7sfszsso,3x31tumd71z9orqhkrbt972g1bpl1f,J8uozT9e,2020-0188,2021-10-31,11:02:04,19:59:48,NA,incomplete,true,NA,NA,true,0,9,NA,NA,NA,right,n_s_103.jpg,gray,yellow,NA,NA,NA,NA,NA,NA,NA,NA,NA,NaN,NA,28129.5,right,1,NA,NA,NA,NA,NA
J8uozT9e,3fk4g712o0duz4m7qhicsa7sfszsso,3x31tumd71z9orqhkrbt972g1bpl1f,J8uozT9e,2020-0188,2021-10-31,11:02:04,19:59:48,NA,incomplete,true,NA,NA,true,0,10,NA,NA,NA,right,m_l_093.jpg,black,gray,NA,NA,NA,NA,NA,NA,NA,NA,NA,NaN,NA,10157.099999999627,right,1,NA,NA,NA,NA,NA
J8uozT9e,3fk4g712o0duz4m7qhicsa7sfszsso,3x31tumd71z9orqhkrbt972g1bpl1f,J8uozT9e,2020-0188,2021-10-31,11:02:04,19:59:48,NA,incomplete,true,NA,NA,true,0,11,NA,NA,NA,left,n_l_047.jpg,black,gray,NA,NA,NA,NA,NA,NA,NA,NA,NA,NaN,NA,8258.89999999851,left,1,NA,NA,NA,NA,NA
J8uozT9e,3fk4g712o0duz4m7qhicsa7sfszsso,3x31tumd71z9orqhkrbt972g1bpl1f,J8uozT9e,2020-0188,2021-10-31,11:02:04,19:59:48,NA,incomplete,true,NA,NA,true,0,12,NA,NA,NA,left,n_s_036.jpg,yellow,red,NA,NA,NA,NA,NA,NA,NA,NA,NA,NaN,NA,10172.599999999627,left,1,NA,NA,NA,NA,NA
J8uozT9e,3fk4g712o0duz4m7qhicsa7sfszsso,3x31tumd71z9orqhkrbt972g1bpl1f,J8uozT9e,2020-0188,2021-10-31,11:02:04,19:59:48,NA,incomplete,true,NA,NA,true,0,13,NA,NA,NA,left,m_l_079.jpg,green,red,NA,NA,NA,NA,NA,NA,NA,NA,NA,NaN,NA,7609.5,left,1,NA,NA,NA,NA,NA
J8uozT9e,3fk4g712o0duz4m7qhicsa7sfszsso,3x31tumd71z9orqhkrbt972g1bpl1f,J8uozT9e,2020-0188,2021-10-31,11:02:04,19:59:48,NA,incomplete,true,NA,NA,true,0,14,NA,NA,NA,right,m_s_069.jpg,gray,black,NA,NA,NA,NA,NA,NA,NA,NA,NA,NaN,NA,9821.900000000373,right,1,NA,NA,NA,NA,NA
J8uozT9e,3fk4g712o0duz4m7qhicsa7sfszsso,3x31tumd71z9orqhkrbt972g1bpl1f,J8uozT9e,2020-0188,2021-10-31,11:02:04,19:59:48,NA,incomplete,true,NA,NA,true,0,15,NA,NA,NA,left,m_s_015.jpg,orange,green,NA,NA,NA,NA,NA,NA,NA,NA,NA,NaN,NA,8399.199999999255,left,1,NA,NA,NA,NA,NA
J8uozT9e,3fk4g712o0duz4m7qhicsa7sfszsso,3x31tumd71z9orqhkrbt972g1bpl1f,J8uozT9e,2020-0188,2021-10-31,11:02:04,19:59:48,NA,incomplete,true,NA,NA,true,0,16,NA,NA,NA,right,n_s_068.jpg,red,yellow,NA,NA,NA,NA,NA,NA,NA,NA,NA,NaN,NA,9094.800000000745,right,1,NA,NA,NA,NA,NA
J8uozT9e,3fk4g712o0duz4m7qhicsa7sfszsso,3x31tumd71z9orqhkrbt972g1bpl1f,J8uozT9e,2020-0188,2021-10-31,11:02:04,19:59:48,NA,incomplete,true,NA,NA,true,0,17,NA,NA,NA,left,m_l_037.jpg,red,yellow,NA,NA,NA,NA,NA,NA,NA,NA,NA,NaN,NA,7519.10000000149,left,1,NA,NA,NA,NA,NA
J8uozT9e,3fk4g712o0duz4m7qhicsa7sfszsso,3x31tumd71z9orqhkrbt972g1bpl1f,J8uozT9e,2020-0188,2021-10-31,11:02:04,19:59:48,NA,incomplete,true,NA,NA,true,0,18,NA,NA,NA,right,n_s_105.jpg,green,orange,NA,NA,NA,NA,NA,NA,NA,NA,NA,NaN,NA,6200,right,1,NA,NA,NA,NA,NA
J8uozT9e,3fk4g712o0duz4m7qhicsa7sfszsso,3x31tumd71z9orqhkrbt972g1bpl1f,J8uozT9e,2020-0188,2021-10-31,11:02:04,19:59:48,NA,incomplete,true,NA,NA,true,0,19,NA,NA,NA,left,n_l_097.jpg,green,orange,NA,NA,NA,NA,NA,NA,NA,NA,NA,NaN,NA,19016.799999998882,left,1,NA,NA,NA,NA,NA
J8uozT9e,3fk4g712o0duz4m7qhicsa7sfszsso,3x31tumd71z9orqhkrbt972g1bpl1f,J8uozT9e,2020-0188,2021-10-31,11:02:04,19:59:48,NA,incomplete,true,NA,NA,true,0,20,NA,NA,NA,right,m_s_046.jpg,gray,yellow,NA,NA,NA,NA,NA,NA,NA,NA,NA,NaN,NA,10366.799999998882,right,1,NA,NA,NA,NA,NA
J8uozT9e,3fk4g712o0duz4m7qhicsa7sfszsso,3x31tumd71z9orqhkrbt972g1bpl1f,J8uozT9e,2020-0188,2021-10-31,11:02:04,19:59:48,NA,incomplete,true,NA,NA,true,0,21,NA,NA,NA,right,n_l_080.jpg,green,red,NA,NA,NA,NA,NA,NA,NA,NA,NA,NaN,NA,13878.89999999851,right,1,NA,NA,NA,NA,NA
J8uozT9e,3fk4g712o0duz4m7qhicsa7sfszsso,3x31tumd71z9orqhkrbt972g1bpl1f,J8uozT9e,2020-0188,2021-10-31,11:02:04,19:59:48,NA,incomplete,true,NA,true,NA,0,0,NA,NA,NA,left,NA,NA,NA,present,NA,NA,n_l_024.jpg,gray,m_s_083.jpg,gray,within,NA,NaN,NA,NA,NA,NA,left,42172.90000000037,1,1,9589.199999999255
J8uozT9e,3fk4g712o0duz4m7qhicsa7sfszsso,3x31tumd71z9orqhkrbt972g1bpl1f,J8uozT9e,2020-0188,2021-10-31,11:02:04,19:59:48,NA,incomplete,true,NA,true,NA,0,1,NA,NA,NA,right,NA,NA,NA,present,NA,NA,n_s_103.jpg,yellow,n_l_080.jpg,red,between,NA,NaN,NA,NA,NA,NA,right,17909.900000000373,1,2,8429.299999998882
J8uozT9e,3fk4g712o0duz4m7qhicsa7sfszsso,3x31tumd71z9orqhkrbt972g1bpl1f,J8uozT9e,2020-0188,2021-10-31,11:02:04,19:59:48,NA,incomplete,true,NA,true,NA,0,2,NA,NA,NA,right,NA,NA,NA,present,NA,NA,m_l_079.jpg,green,n_s_105.jpg,orange,between,NA,NaN,NA,NA,NA,NA,right,8238.300000000745,1,1,6258.199999999255
J8uozT9e,3fk4g712o0duz4m7qhicsa7sfszsso,3x31tumd71z9orqhkrbt972g1bpl1f,J8uozT9e,2020-0188,2021-10-31,11:02:04,19:59:48,NA,incomplete,true,NA,true,NA,0,3,NA,NA,NA,left,NA,NA,NA,present,NA,NA,m_l_037.jpg,red,n_l_116.jpg,red,within,NA,NaN,NA,NA,NA,NA,left,7429.800000000745,1,1,6471.0999999996275
J8uozT9e,3fk4g712o0duz4m7qhicsa7sfszsso,3x31tumd71z9orqhkrbt972g1bpl1f,J8uozT9e,2020-0188,2021-10-31,11:02:04,19:59:48,NA,incomplete,true,NA,true,NA,0,4,NA,NA,NA,left,NA,NA,NA,present,NA,NA,n_s_068.jpg,yellow,m_s_046.jpg,yellow,within,NA,NaN,NA,NA,NA,NA,left,9709.900000000373,1,1,2941.800000000745
J8uozT9e,3fk4g712o0duz4m7qhicsa7sfszsso,3x31tumd71z9orqhkrbt972g1bpl1f,J8uozT9e,2020-0188,2021-10-31,11:02:04,19:59:48,NA,incomplete,true,NA,true,NA,0,5,NA,NA,NA,left,NA,NA,NA,present,NA,NA,n_l_097.jpg,green,m_s_041.jpg,red,between,NA,NaN,NA,NA,NA,NA,left,10355.599999999627,1,1,2928.2000000011176
J8uozT9e,3fk4g712o0duz4m7qhicsa7sfszsso,3x31tumd71z9orqhkrbt972g1bpl1f,J8uozT9e,2020-0188,2021-10-31,11:02:04,19:59:48,NA,incomplete,true,NA,true,NA,0,6,NA,NA,NA,right,NA,NA,NA,present,NA,NA,m_l_093.jpg,gray,n_s_036.jpg,yellow,between,NA,NaN,NA,NA,NA,NA,right,15968.300000000745,1,1,9950.299999998882
J8uozT9e,3fk4g712o0duz4m7qhicsa7sfszsso,3x31tumd71z9orqhkrbt972g1bpl1f,J8uozT9e,2020-0188,2021-10-31,11:02:04,19:59:48,NA,incomplete,true,NA,true,NA,0,7,NA,NA,NA,left,NA,NA,NA,present,NA,NA,m_s_015.jpg,orange,m_l_091.jpg,orange,within,NA,NaN,NA,NA,NA,NA,left,11749.5,1,1,5782.199999999255
J8uozT9e,3fk4g712o0duz4m7qhicsa7sfszsso,3x31tumd71z9orqhkrbt972g1bpl1f,J8uozT9e,2020-0188,2021-10-31,11:02:04,19:59:48,NA,incomplete,true,NA,true,NA,0,8,NA,NA,NA,right,NA,NA,NA,present,NA,NA,m_s_069.jpg,black,n_s_001.jpg,gray,between,NA,NaN,NA,NA,NA,NA,right,18261.900000000373,1,1,4659.39999999851
J8uozT9e,3fk4g712o0duz4m7qhicsa7sfszsso,3x31tumd71z9orqhkrbt972g1bpl1f,J8uozT9e,2020-0188,2021-10-31,11:02:04,19:59:48,NA,incomplete,true,NA,true,NA,0,9,NA,NA,NA,right,NA,NA,NA,present,NA,NA,n_s_093.jpg,green,n_l_076.jpg,green,within,NA,NaN,NA,NA,NA,NA,right,11266.300000000745,1,1,2587.4000000003725
J8uozT9e,3fk4g712o0duz4m7qhicsa7sfszsso,3x31tumd71z9orqhkrbt972g1bpl1f,J8uozT9e,2020-0188,2021-10-31,11:02:04,19:59:48,NA,incomplete,true,NA,true,NA,0,10,NA,NA,NA,left,NA,NA,NA,present,NA,NA,m_s_081.jpg,black,n_l_047.jpg,black,within,NA,NaN,NA,NA,NA,NA,left,10631.5,1,1,3030.0999999996275
J8uozT9e,3fk4g712o0duz4m7qhicsa7sfszsso,3x31tumd71z9orqhkrbt972g1bpl1f,J8uozT9e,2020-0188,2021-10-31,11:02:04,19:59:48,NA,incomplete,false,true,NA,NA,1,0,NA,white,n_l_092.jpg,NA,NA,NA,NA,NA,unpleasant,pleasant,NA,NA,NA,NA,NA,right,3199.29999999888,true,NA,NA,NA,NA,NA,NA,NA,NA
J8uozT9e,3fk4g712o0duz4m7qhicsa7sfszsso,3x31tumd71z9orqhkrbt972g1bpl1f,J8uozT9e,2020-0188,2021-10-31,11:02:04,19:59:48,NA,incomplete,false,true,NA,NA,1,1,NA,white,n_s_081.jpg,NA,NA,NA,NA,NA,pleasant,unpleasant,NA,NA,NA,NA,NA,right,2751.29999999888,true,NA,NA,NA,NA,NA,NA,NA,NA
J8uozT9e,3fk4g712o0duz4m7qhicsa7sfszsso,3x31tumd71z9orqhkrbt972g1bpl1f,J8uozT9e,2020-0188,2021-10-31,11:02:04,19:59:48,NA,incomplete,false,true,NA,NA,1,2,NA,white,m_s_040.jpg,NA,NA,NA,NA,NA,pleasant,unpleasant,NA,NA,NA,NA,NA,right,2522.90000000037,true,NA,NA,NA,NA,NA,NA,NA,NA
J8uozT9e,3fk4g712o0duz4m7qhicsa7sfszsso,3x31tumd71z9orqhkrbt972g1bpl1f,J8uozT9e,2020-0188,2021-10-31,11:02:04,19:59:48,NA,incomplete,false,true,NA,NA,1,3,NA,white,n_l_017.jpg,NA,NA,NA,NA,NA,unpleasant,pleasant,NA,NA,NA,NA,NA,right,2454.29999999888,true,NA,NA,NA,NA,NA,NA,NA,NA
J8uozT9e,3fk4g712o0duz4m7qhicsa7sfszsso,3x31tumd71z9orqhkrbt972g1bpl1f,J8uozT9e,2020-0188,2021-10-31,11:02:04,19:59:48,NA,incomplete,false,true,NA,NA,1,4,NA,white,m_l_038.jpg,NA,NA,NA,NA,NA,pleasant,unpleasant,NA,NA,NA,NA,NA,right,2147.5,true,NA,NA,NA,NA,NA,NA,NA,NA
J8uozT9e,3fk4g712o0duz4m7qhicsa7sfszsso,3x31tumd71z9orqhkrbt972g1bpl1f,J8uozT9e,2020-0188,2021-10-31,11:02:04,19:59:48,NA,incomplete,false,true,NA,NA,1,5,NA,white,n_l_008.jpg,NA,NA,NA,NA,NA,pleasant,unpleasant,NA,NA,NA,NA,NA,right,2255.70000000112,true,NA,NA,NA,NA,NA,NA,NA,NA
J8uozT9e,3fk4g712o0duz4m7qhicsa7sfszsso,3x31tumd71z9orqhkrbt972g1bpl1f,J8uozT9e,2020-0188,2021-10-31,11:02:04,19:59:48,NA,incomplete,false,true,NA,NA,1,6,NA,blue,n_l_075.jpg,NA,NA,NA,NA,NA,unpleasant,pleasant,NA,NA,NA,NA,NA,left,2338,true,NA,NA,NA,NA,NA,NA,NA,NA
J8uozT9e,3fk4g712o0duz4m7qhicsa7sfszsso,3x31tumd71z9orqhkrbt972g1bpl1f,J8uozT9e,2020-0188,2021-10-31,11:02:04,19:59:48,NA,incomplete,false,true,NA,NA,1,7,NA,blue,m_l_011.jpg,NA,NA,NA,NA,NA,unpleasant,pleasant,NA,NA,NA,NA,NA,left,2740.40000000037,true,NA,NA,NA,NA,NA,NA,NA,NA
J8uozT9e,3fk4g712o0duz4m7qhicsa7sfszsso,3x31tumd71z9orqhkrbt972g1bpl1f,J8uozT9e,2020-0188,2021-10-31,11:02:04,19:59:48,NA,incomplete,false,true,NA,NA,1,8,NA,blue,m_s_082.jpg,NA,NA,NA,NA,NA,unpleasant,pleasant,NA,NA,NA,NA,NA,left,3434.19999999925,true,NA,NA,NA,NA,NA,NA,NA,NA
J8uozT9e,3fk4g712o0duz4m7qhicsa7sfszsso,3x31tumd71z9orqhkrbt972g1bpl1f,J8uozT9e,2020-0188,2021-10-31,11:02:04,19:59:48,NA,incomplete,false,true,NA,NA,1,9,NA,blue,n_s_013.jpg,NA,NA,NA,NA,NA,pleasant,unpleasant,NA,NA,NA,NA,NA,left,3096.79999999888,true,NA,NA,NA,NA,NA,NA,NA,NA
J8uozT9e,3fk4g712o0duz4m7qhicsa7sfszsso,3x31tumd71z9orqhkrbt972g1bpl1f,J8uozT9e,2020-0188,2021-10-31,11:02:04,19:59:48,NA,incomplete,false,true,NA,NA,1,10,NA,blue,n_l_032.jpg,NA,NA,NA,NA,NA,pleasant,unpleasant,NA,NA,NA,NA,NA,left,2262.20000000112,true,NA,NA,NA,NA,NA,NA,NA,NA
J8uozT9e,3fk4g712o0duz4m7qhicsa7sfszsso,3x31tumd71z9orqhkrbt972g1bpl1f,J8uozT9e,2020-0188,2021-10-31,11:02:04,19:59:48,NA,incomplete,false,true,NA,NA,1,11,NA,blue,m_l_035.jpg,NA,NA,NA,NA,NA,pleasant,unpleasant,NA,NA,NA,NA,NA,left,2192.5,true,NA,NA,NA,NA,NA,NA,NA,NA
J8uozT9e,3fk4g712o0duz4m7qhicsa7sfszsso,3x31tumd71z9orqhkrbt972g1bpl1f,J8uozT9e,2020-0188,2021-10-31,11:02:04,19:59:48,NA,incomplete,false,true,NA,NA,1,12,NA,brown,n_s_099.jpg,NA,NA,NA,NA,NA,unpleasant,pleasant,NA,NA,NA,NA,NA,right,3240.09999999963,true,NA,NA,NA,NA,NA,NA,NA,NA
J8uozT9e,3fk4g712o0duz4m7qhicsa7sfszsso,3x31tumd71z9orqhkrbt972g1bpl1f,J8uozT9e,2020-0188,2021-10-31,11:02:04,19:59:48,NA,incomplete,false,true,NA,NA,1,13,NA,brown,m_s_116.jpg,NA,NA,NA,NA,NA,pleasant,unpleasant,NA,NA,NA,NA,NA,none,0,false,NA,NA,NA,NA,NA,NA,NA,NA
J8uozT9e,3fk4g712o0duz4m7qhicsa7sfszsso,3x31tumd71z9orqhkrbt972g1bpl1f,J8uozT9e,2020-0188,2021-10-31,11:02:04,19:59:48,NA,incomplete,false,true,NA,NA,1,14,NA,brown,m_l_042.jpg,NA,NA,NA,NA,NA,unpleasant,pleasant,NA,NA,NA,NA,NA,right,2253.90000000037,true,NA,NA,NA,NA,NA,NA,NA,NA
J8uozT9e,3fk4g712o0duz4m7qhicsa7sfszsso,3x31tumd71z9orqhkrbt972g1bpl1f,J8uozT9e,2020-0188,2021-10-31,11:02:04,19:59:48,NA,incomplete,false,true,NA,NA,1,15,NA,brown,m_s_007.jpg,NA,NA,NA,NA,NA,unpleasant,pleasant,NA,NA,NA,NA,NA,right,2266.09999999963,true,NA,NA,NA,NA,NA,NA,NA,NA
J8uozT9e,3fk4g712o0duz4m7qhicsa7sfszsso,3x31tumd71z9orqhkrbt972g1bpl1f,J8uozT9e,2020-0188,2021-10-31,11:02:04,19:59:48,NA,incomplete,false,true,NA,NA,1,16,NA,brown,m_l_117.jpg,NA,NA,NA,NA,NA,pleasant,unpleasant,NA,NA,NA,NA,NA,right,2467.90000000037,true,NA,NA,NA,NA,NA,NA,NA,NA
J8uozT9e,3fk4g712o0duz4m7qhicsa7sfszsso,3x31tumd71z9orqhkrbt972g1bpl1f,J8uozT9e,2020-0188,2021-10-31,11:02:04,19:59:48,NA,incomplete,false,true,NA,NA,1,17,NA,brown,n_l_079.jpg,NA,NA,NA,NA,NA,pleasant,unpleasant,NA,NA,NA,NA,NA,right,2062.20000000112,true,NA,NA,NA,NA,NA,NA,NA,NA
J8uozT9e,3fk4g712o0duz4m7qhicsa7sfszsso,3x31tumd71z9orqhkrbt972g1bpl1f,J8uozT9e,2020-0188,2021-10-31,11:02:04,19:59:48,NA,incomplete,false,true,NA,NA,1,18,NA,black,n_s_012.jpg,NA,NA,NA,NA,NA,unpleasant,pleasant,NA,NA,NA,NA,NA,left,2107.79999999888,true,NA,NA,NA,NA,NA,NA,NA,NA
J8uozT9e,3fk4g712o0duz4m7qhicsa7sfszsso,3x31tumd71z9orqhkrbt972g1bpl1f,J8uozT9e,2020-0188,2021-10-31,11:02:04,19:59:48,NA,incomplete,false,true,NA,NA,1,19,NA,black,n_s_034.jpg,NA,NA,NA,NA,NA,pleasant,unpleasant,NA,NA,NA,NA,NA,left,2001.79999999888,true,NA,NA,NA,NA,NA,NA,NA,NA
J8uozT9e,3fk4g712o0duz4m7qhicsa7sfszsso,3x31tumd71z9orqhkrbt972g1bpl1f,J8uozT9e,2020-0188,2021-10-31,11:02:04,19:59:48,NA,incomplete,false,true,NA,NA,1,20,NA,black,m_s_088.jpg,NA,NA,NA,NA,NA,pleasant,unpleasant,NA,NA,NA,NA,NA,left,1936.80000000075,true,NA,NA,NA,NA,NA,NA,NA,NA
J8uozT9e,3fk4g712o0duz4m7qhicsa7sfszsso,3x31tumd71z9orqhkrbt972g1bpl1f,J8uozT9e,2020-0188,2021-10-31,11:02:04,19:59:48,NA,incomplete,false,true,NA,NA,1,21,NA,black,m_s_115.jpg,NA,NA,NA,NA,NA,pleasant,unpleasant,NA,NA,NA,NA,NA,left,1974.39999999851,true,NA,NA,NA,NA,NA,NA,NA,NA
J8uozT9e,3fk4g712o0duz4m7qhicsa7sfszsso,3x31tumd71z9orqhkrbt972g1bpl1f,J8uozT9e,2020-0188,2021-10-31,11:02:04,19:59:48,NA,incomplete,false,true,NA,NA,1,22,NA,black,n_l_102.jpg,NA,NA,NA,NA,NA,unpleasant,pleasant,NA,NA,NA,NA,NA,left,1936.79999999888,true,NA,NA,NA,NA,NA,NA,NA,NA
J8uozT9e,3fk4g712o0duz4m7qhicsa7sfszsso,3x31tumd71z9orqhkrbt972g1bpl1f,J8uozT9e,2020-0188,2021-10-31,11:02:04,19:59:48,NA,incomplete,false,true,NA,NA,1,23,NA,black,n_l_001.jpg,NA,NA,NA,NA,NA,pleasant,unpleasant,NA,NA,NA,NA,NA,left,2178.69999999925,true,NA,NA,NA,NA,NA,NA,NA,NA
J8uozT9e,3fk4g712o0duz4m7qhicsa7sfszsso,3x31tumd71z9orqhkrbt972g1bpl1f,J8uozT9e,2020-0188,2021-10-31,11:02:04,19:59:48,NA,incomplete,false,true,NA,NA,1,24,NA,red,m_s_001.jpg,NA,NA,NA,NA,NA,unpleasant,pleasant,NA,NA,NA,NA,NA,right,2416.19999999925,true,NA,NA,NA,NA,NA,NA,NA,NA
J8uozT9e,3fk4g712o0duz4m7qhicsa7sfszsso,3x31tumd71z9orqhkrbt972g1bpl1f,J8uozT9e,2020-0188,2021-10-31,11:02:04,19:59:48,NA,incomplete,false,true,NA,NA,1,25,NA,red,m_l_071.jpg,NA,NA,NA,NA,NA,unpleasant,pleasant,NA,NA,NA,NA,NA,right,2049.09999999963,true,NA,NA,NA,NA,NA,NA,NA,NA
J8uozT9e,3fk4g712o0duz4m7qhicsa7sfszsso,3x31tumd71z9orqhkrbt972g1bpl1f,J8uozT9e,2020-0188,2021-10-31,11:02:04,19:59:48,NA,incomplete,false,true,NA,NA,1,26,NA,red,n_l_003.jpg,NA,NA,NA,NA,NA,unpleasant,pleasant,NA,NA,NA,NA,NA,right,2014.60000000149,true,NA,NA,NA,NA,NA,NA,NA,NA
J8uozT9e,3fk4g712o0duz4m7qhicsa7sfszsso,3x31tumd71z9orqhkrbt972g1bpl1f,J8uozT9e,2020-0188,2021-10-31,11:02:04,19:59:48,NA,incomplete,false,true,NA,NA,1,27,NA,red,n_s_021.jpg,NA,NA,NA,NA,NA,pleasant,unpleasant,NA,NA,NA,NA,NA,right,1956.19999999925,true,NA,NA,NA,NA,NA,NA,NA,NA
J8uozT9e,3fk4g712o0duz4m7qhicsa7sfszsso,3x31tumd71z9orqhkrbt972g1bpl1f,J8uozT9e,2020-0188,2021-10-31,11:02:04,19:59:48,NA,incomplete,false,true,NA,NA,1,28,NA,red,m_s_100.jpg,NA,NA,NA,NA,NA,pleasant,unpleasant,NA,NA,NA,NA,NA,right,2125.69999999925,true,NA,NA,NA,NA,NA,NA,NA,NA
J8uozT9e,3fk4g712o0duz4m7qhicsa7sfszsso,3x31tumd71z9orqhkrbt972g1bpl1f,J8uozT9e,2020-0188,2021-10-31,11:02:04,19:59:48,NA,incomplete,false,true,NA,NA,1,29,NA,red,m_l_029.jpg,NA,NA,NA,NA,NA,unpleasant,pleasant,NA,NA,NA,NA,NA,right,2264.30000000075,true,NA,NA,NA,NA,NA,NA,NA,NA
J8uozT9e,3fk4g712o0duz4m7qhicsa7sfszsso,3x31tumd71z9orqhkrbt972g1bpl1f,J8uozT9e,2020-0188,2021-10-31,11:02:04,19:59:48,NA,incomplete,false,true,NA,NA,1,30,NA,green,m_l_116.jpg,NA,NA,NA,NA,NA,unpleasant,pleasant,NA,NA,NA,NA,NA,left,2213,true,NA,NA,NA,NA,NA,NA,NA,NA
J8uozT9e,3fk4g712o0duz4m7qhicsa7sfszsso,3x31tumd71z9orqhkrbt972g1bpl1f,J8uozT9e,2020-0188,2021-10-31,11:02:04,19:59:48,NA,incomplete,false,true,NA,NA,1,31,NA,green,m_l_096.jpg,NA,NA,NA,NA,NA,pleasant,unpleasant,NA,NA,NA,NA,NA,left,2392.09999999963,true,NA,NA,NA,NA,NA,NA,NA,NA
J8uozT9e,3fk4g712o0duz4m7qhicsa7sfszsso,3x31tumd71z9orqhkrbt972g1bpl1f,J8uozT9e,2020-0188,2021-10-31,11:02:04,19:59:48,NA,incomplete,false,true,NA,NA,1,32,NA,green,n_s_010.jpg,NA,NA,NA,NA,NA,pleasant,unpleasant,NA,NA,NA,NA,NA,left,2333.5,true,NA,NA,NA,NA,NA,NA,NA,NA
J8uozT9e,3fk4g712o0duz4m7qhicsa7sfszsso,3x31tumd71z9orqhkrbt972g1bpl1f,J8uozT9e,2020-0188,2021-10-31,11:02:04,19:59:48,NA,incomplete,false,true,NA,NA,1,33,NA,green,n_l_055.jpg,NA,NA,NA,NA,NA,unpleasant,pleasant,NA,NA,NA,NA,NA,left,2469.70000000112,true,NA,NA,NA,NA,NA,NA,NA,NA
J8uozT9e,3fk4g712o0duz4m7qhicsa7sfszsso,3x31tumd71z9orqhkrbt972g1bpl1f,J8uozT9e,2020-0188,2021-10-31,11:02:04,19:59:48,NA,incomplete,false,true,NA,NA,1,34,NA,green,n_s_106.jpg,NA,NA,NA,NA,NA,unpleasant,pleasant,NA,NA,NA,NA,NA,left,2268.79999999888,true,NA,NA,NA,NA,NA,NA,NA,NA
J8uozT9e,3fk4g712o0duz4m7qhicsa7sfszsso,3x31tumd71z9orqhkrbt972g1bpl1f,J8uozT9e,2020-0188,2021-10-31,11:02:04,19:59:48,NA,incomplete,false,true,NA,NA,1,35,NA,green,n_s_007.jpg,NA,NA,NA,NA,NA,pleasant,unpleasant,NA,NA,NA,NA,NA,left,2029.5,true,NA,NA,NA,NA,NA,NA,NA,NA
J8uozT9e,3fk4g712o0duz4m7qhicsa7sfszsso,3x31tumd71z9orqhkrbt972g1bpl1f,J8uozT9e,2020-0188,2021-10-31,11:02:04,19:59:48,NA,incomplete,false,NA,NA,true,1,0,NA,NA,NA,right,m_l_042.jpg,black,brown,NA,NA,NA,NA,NA,NA,NA,NA,NA,NaN,NA,25988.699999999255,right,1,NA,NA,NA,NA,NA
J8uozT9e,3fk4g712o0duz4m7qhicsa7sfszsso,3x31tumd71z9orqhkrbt972g1bpl1f,J8uozT9e,2020-0188,2021-10-31,11:02:04,19:59:48,NA,incomplete,false,NA,NA,true,1,1,NA,NA,NA,left,n_s_007.jpg,green,red,NA,NA,NA,NA,NA,NA,NA,NA,NA,NaN,NA,10386.300000000745,left,1,NA,NA,NA,NA,NA
J8uozT9e,3fk4g712o0duz4m7qhicsa7sfszsso,3x31tumd71z9orqhkrbt972g1bpl1f,J8uozT9e,2020-0188,2021-10-31,11:02:04,19:59:48,NA,incomplete,false,NA,NA,true,1,2,NA,NA,NA,right,n_l_032.jpg,white,blue,NA,NA,NA,NA,NA,NA,NA,NA,NA,NaN,NA,14009.5,right,1,NA,NA,NA,NA,NA
J8uozT9e,3fk4g712o0duz4m7qhicsa7sfszsso,3x31tumd71z9orqhkrbt972g1bpl1f,J8uozT9e,2020-0188,2021-10-31,11:02:04,19:59:48,NA,incomplete,false,NA,NA,true,1,3,NA,NA,NA,right,m_s_088.jpg,red,black,NA,NA,NA,NA,NA,NA,NA,NA,NA,NaN,NA,6807.700000001118,right,1,NA,NA,NA,NA,NA
J8uozT9e,3fk4g712o0duz4m7qhicsa7sfszsso,3x31tumd71z9orqhkrbt972g1bpl1f,J8uozT9e,2020-0188,2021-10-31,11:02:04,19:59:48,NA,incomplete,false,NA,NA,true,1,4,NA,NA,NA,left,m_s_082.jpg,blue,white,NA,NA,NA,NA,NA,NA,NA,NA,NA,NaN,NA,13817.39999999851,left,1,NA,NA,NA,NA,NA
J8uozT9e,3fk4g712o0duz4m7qhicsa7sfszsso,3x31tumd71z9orqhkrbt972g1bpl1f,J8uozT9e,2020-0188,2021-10-31,11:02:04,19:59:48,NA,incomplete,false,NA,NA,true,1,5,NA,NA,NA,right,m_l_038.jpg,blue,white,NA,NA,NA,NA,NA,NA,NA,NA,NA,NaN,NA,6379.300000000745,right,1,NA,NA,NA,NA,NA
J8uozT9e,3fk4g712o0duz4m7qhicsa7sfszsso,3x31tumd71z9orqhkrbt972g1bpl1f,J8uozT9e,2020-0188,2021-10-31,11:02:04,19:59:48,NA,incomplete,false,NA,NA,true,1,6,NA,NA,NA,left,n_s_010.jpg,green,red,NA,NA,NA,NA,NA,NA,NA,NA,NA,NaN,NA,14589,left,1,NA,NA,NA,NA,NA
J8uozT9e,3fk4g712o0duz4m7qhicsa7sfszsso,3x31tumd71z9orqhkrbt972g1bpl1f,J8uozT9e,2020-0188,2021-10-31,11:02:04,19:59:48,NA,incomplete,false,NA,NA,true,1,7,NA,NA,NA,right,m_l_071.jpg,green,red,NA,NA,NA,NA,NA,NA,NA,NA,NA,NaN,NA,6028.300000000745,right,1,NA,NA,NA,NA,NA
J8uozT9e,3fk4g712o0duz4m7qhicsa7sfszsso,3x31tumd71z9orqhkrbt972g1bpl1f,J8uozT9e,2020-0188,2021-10-31,11:02:04,19:59:48,NA,incomplete,false,NA,NA,true,1,8,NA,NA,NA,left,m_l_096.jpg,green,red,NA,NA,NA,NA,NA,NA,NA,NA,NA,NaN,NA,7042,left,1,NA,NA,NA,NA,NA
J8uozT9e,3fk4g712o0duz4m7qhicsa7sfszsso,3x31tumd71z9orqhkrbt972g1bpl1f,J8uozT9e,2020-0188,2021-10-31,11:02:04,19:59:48,NA,incomplete,false,NA,NA,true,1,9,NA,NA,NA,left,m_l_011.jpg,blue,brown,NA,NA,NA,NA,NA,NA,NA,NA,NA,NaN,NA,11387.60000000149,left,1,NA,NA,NA,NA,NA
J8uozT9e,3fk4g712o0duz4m7qhicsa7sfszsso,3x31tumd71z9orqhkrbt972g1bpl1f,J8uozT9e,2020-0188,2021-10-31,11:02:04,19:59:48,NA,incomplete,false,NA,NA,true,1,10,NA,NA,NA,right,m_l_035.jpg,brown,blue,NA,NA,NA,NA,NA,NA,NA,NA,NA,NaN,NA,8887,right,1,NA,NA,NA,NA,NA
J8uozT9e,3fk4g712o0duz4m7qhicsa7sfszsso,3x31tumd71z9orqhkrbt972g1bpl1f,J8uozT9e,2020-0188,2021-10-31,11:02:04,19:59:48,NA,incomplete,false,NA,NA,true,1,11,NA,NA,NA,right,n_l_079.jpg,blue,brown,NA,NA,NA,NA,NA,NA,NA,NA,NA,NaN,NA,6772.0999999996275,right,1,NA,NA,NA,NA,NA
J8uozT9e,3fk4g712o0duz4m7qhicsa7sfszsso,3x31tumd71z9orqhkrbt972g1bpl1f,J8uozT9e,2020-0188,2021-10-31,11:02:04,19:59:48,NA,incomplete,false,NA,NA,true,1,12,NA,NA,NA,left,m_s_116.jpg,brown,blue,NA,NA,NA,NA,NA,NA,NA,NA,NA,NaN,NA,23993,left,1,NA,NA,NA,NA,NA
J8uozT9e,3fk4g712o0duz4m7qhicsa7sfszsso,3x31tumd71z9orqhkrbt972g1bpl1f,J8uozT9e,2020-0188,2021-10-31,11:02:04,19:59:48,NA,incomplete,false,NA,NA,true,1,13,NA,NA,NA,right,n_l_003.jpg,green,red,NA,NA,NA,NA,NA,NA,NA,NA,NA,NaN,NA,8959,right,1,NA,NA,NA,NA,NA
J8uozT9e,3fk4g712o0duz4m7qhicsa7sfszsso,3x31tumd71z9orqhkrbt972g1bpl1f,J8uozT9e,2020-0188,2021-10-31,11:02:04,19:59:48,NA,incomplete,false,NA,NA,true,1,14,NA,NA,NA,left,n_l_102.jpg,black,red,NA,NA,NA,NA,NA,NA,NA,NA,NA,NaN,NA,6604.199999999255,left,1,NA,NA,NA,NA,NA
J8uozT9e,3fk4g712o0duz4m7qhicsa7sfszsso,3x31tumd71z9orqhkrbt972g1bpl1f,J8uozT9e,2020-0188,2021-10-31,11:02:04,19:59:48,NA,incomplete,false,NA,NA,true,1,15,NA,NA,NA,left,n_s_081.jpg,white,blue,NA,NA,NA,NA,NA,NA,NA,NA,NA,NaN,NA,13666.900000000373,left,1,NA,NA,NA,NA,NA
J8uozT9e,3fk4g712o0duz4m7qhicsa7sfszsso,3x31tumd71z9orqhkrbt972g1bpl1f,J8uozT9e,2020-0188,2021-10-31,11:02:04,19:59:48,NA,incomplete,false,NA,NA,true,1,16,NA,NA,NA,left,n_l_008.jpg,white,blue,NA,NA,NA,NA,NA,NA,NA,NA,NA,NaN,NA,5040.60000000149,left,1,NA,NA,NA,NA,NA
J8uozT9e,3fk4g712o0duz4m7qhicsa7sfszsso,3x31tumd71z9orqhkrbt972g1bpl1f,J8uozT9e,2020-0188,2021-10-31,11:02:04,19:59:48,NA,incomplete,false,NA,NA,true,1,17,NA,NA,NA,left,n_l_001.jpg,black,red,NA,NA,NA,NA,NA,NA,NA,NA,NA,NaN,NA,8076.9000000003725,left,1,NA,NA,NA,NA,NA
J8uozT9e,3fk4g712o0duz4m7qhicsa7sfszsso,3x31tumd71z9orqhkrbt972g1bpl1f,J8uozT9e,2020-0188,2021-10-31,11:02:04,19:59:48,NA,incomplete,false,NA,NA,true,1,18,NA,NA,NA,right,m_l_117.jpg,blue,brown,NA,NA,NA,NA,NA,NA,NA,NA,NA,NaN,NA,4865.200000001118,right,1,NA,NA,NA,NA,NA
J8uozT9e,3fk4g712o0duz4m7qhicsa7sfszsso,3x31tumd71z9orqhkrbt972g1bpl1f,J8uozT9e,2020-0188,2021-10-31,11:02:04,19:59:48,NA,incomplete,false,NA,NA,true,1,19,NA,NA,NA,left,n_s_034.jpg,black,brown,NA,NA,NA,NA,NA,NA,NA,NA,NA,NaN,NA,9268.400000000373,left,1,NA,NA,NA,NA,NA
J8uozT9e,3fk4g712o0duz4m7qhicsa7sfszsso,3x31tumd71z9orqhkrbt972g1bpl1f,J8uozT9e,2020-0188,2021-10-31,11:02:04,19:59:48,NA,incomplete,false,NA,NA,true,1,20,NA,NA,NA,right,m_s_100.jpg,green,red,NA,NA,NA,NA,NA,NA,NA,NA,NA,NaN,NA,4426.4000000003725,right,1,NA,NA,NA,NA,NA
J8uozT9e,3fk4g712o0duz4m7qhicsa7sfszsso,3x31tumd71z9orqhkrbt972g1bpl1f,J8uozT9e,2020-0188,2021-10-31,11:02:04,19:59:48,NA,incomplete,false,NA,NA,true,1,21,NA,NA,NA,right,m_l_029.jpg,green,red,NA,NA,NA,NA,NA,NA,NA,NA,NA,NaN,NA,8048.5,right,1,NA,NA,NA,NA,NA
J8uozT9e,3fk4g712o0duz4m7qhicsa7sfszsso,3x31tumd71z9orqhkrbt972g1bpl1f,J8uozT9e,2020-0188,2021-10-31,11:02:04,19:59:48,NA,incomplete,false,NA,true,NA,1,0,NA,NA,NA,left,NA,NA,NA,present,NA,NA,m_l_071.jpg,red,m_l_029.jpg,red,within,NA,NaN,NA,NA,NA,NA,left,8947.699999999255,1,1,2578.4000000003725
J8uozT9e,3fk4g712o0duz4m7qhicsa7sfszsso,3x31tumd71z9orqhkrbt972g1bpl1f,J8uozT9e,2020-0188,2021-10-31,11:02:04,19:59:48,NA,incomplete,false,NA,true,NA,1,1,NA,NA,NA,right,NA,NA,NA,present,NA,NA,n_l_079.jpg,brown,m_s_116.jpg,brown,within,NA,NaN,NA,NA,NA,NA,right,8461.200000001118,1,1,3948.9000000003725
J8uozT9e,3fk4g712o0duz4m7qhicsa7sfszsso,3x31tumd71z9orqhkrbt972g1bpl1f,J8uozT9e,2020-0188,2021-10-31,11:02:04,19:59:48,NA,incomplete,false,NA,true,NA,1,2,NA,NA,NA,left,NA,NA,NA,present,NA,NA,m_l_117.jpg,brown,m_s_088.jpg,black,between,NA,NaN,NA,NA,NA,NA,left,9551.10000000149,1,1,5527.9000000003725
J8uozT9e,3fk4g712o0duz4m7qhicsa7sfszsso,3x31tumd71z9orqhkrbt972g1bpl1f,J8uozT9e,2020-0188,2021-10-31,11:02:04,19:59:48,NA,incomplete,false,NA,true,NA,1,3,NA,NA,NA,left,NA,NA,NA,present,NA,NA,n_s_034.jpg,black,n_l_001.jpg,black,within,NA,NaN,NA,NA,NA,NA,left,6256.89999999851,1,2,4031.5
J8uozT9e,3fk4g712o0duz4m7qhicsa7sfszsso,3x31tumd71z9orqhkrbt972g1bpl1f,J8uozT9e,2020-0188,2021-10-31,11:02:04,19:59:48,NA,incomplete,false,NA,true,NA,1,4,NA,NA,NA,right,NA,NA,NA,present,NA,NA,m_s_082.jpg,blue,m_l_038.jpg,white,between,NA,NaN,NA,NA,NA,NA,right,8127.799999998882,1,1,6406.699999999255
J8uozT9e,3fk4g712o0duz4m7qhicsa7sfszsso,3x31tumd71z9orqhkrbt972g1bpl1f,J8uozT9e,2020-0188,2021-10-31,11:02:04,19:59:48,NA,incomplete,false,NA,true,NA,1,5,NA,NA,NA,left,NA,NA,NA,present,NA,NA,n_l_032.jpg,blue,m_l_042.jpg,brown,between,NA,NaN,NA,NA,NA,NA,left,5378.5999999996275,1,1,4467.5999999996275
J8uozT9e,3fk4g712o0duz4m7qhicsa7sfszsso,3x31tumd71z9orqhkrbt972g1bpl1f,J8uozT9e,2020-0188,2021-10-31,11:02:04,19:59:48,NA,incomplete,false,NA,true,NA,1,6,NA,NA,NA,left,NA,NA,NA,present,NA,NA,m_l_096.jpg,green,n_s_007.jpg,green,within,NA,NaN,NA,NA,NA,NA,left,8709.799999998882,1,1,4343.4000000003725
J8uozT9e,3fk4g712o0duz4m7qhicsa7sfszsso,3x31tumd71z9orqhkrbt972g1bpl1f,J8uozT9e,2020-0188,2021-10-31,11:02:04,19:59:48,NA,incomplete,false,NA,true,NA,1,7,NA,NA,NA,right,NA,NA,NA,present,NA,NA,n_l_008.jpg,white,n_s_081.jpg,white,within,NA,NaN,NA,NA,NA,NA,right,88554.30000000075,1,1,3459.699999999255
J8uozT9e,3fk4g712o0duz4m7qhicsa7sfszsso,3x31tumd71z9orqhkrbt972g1bpl1f,J8uozT9e,2020-0188,2021-10-31,11:02:04,19:59:48,NA,incomplete,false,NA,true,NA,1,8,NA,NA,NA,left,NA,NA,NA,present,NA,NA,n_l_102.jpg,black,n_l_003.jpg,red,between,NA,NaN,NA,NA,NA,NA,left,14208.699999999255,1,1,3159.5999999996275
J8uozT9e,3fk4g712o0duz4m7qhicsa7sfszsso,3x31tumd71z9orqhkrbt972g1bpl1f,J8uozT9e,2020-0188,2021-10-31,11:02:04,19:59:48,NA,incomplete,false,NA,true,NA,1,9,NA,NA,NA,left,NA,NA,NA,present,NA,NA,m_s_100.jpg,red,n_s_010.jpg,green,between,NA,NaN,NA,NA,NA,NA,left,8221.300000000745,1,1,11260.099999999627
J8uozT9e,3fk4g712o0duz4m7qhicsa7sfszsso,3x31tumd71z9orqhkrbt972g1bpl1f,J8uozT9e,2020-0188,2021-10-31,11:02:04,19:59:48,NA,incomplete,false,NA,true,NA,1,10,NA,NA,NA,left,NA,NA,NA,present,NA,NA,m_l_011.jpg,blue,m_l_035.jpg,blue,within,NA,NaN,NA,NA,NA,NA,left,9963,1,1,3758.0999999996275
J8uozT9e,3fk4g712o0duz4m7qhicsa7sfszsso,3x31tumd71z9orqhkrbt972g1bpl1f,J8uozT9e,2020-0188,2021-10-31,11:02:04,19:59:48,NA,incomplete,false,true,NA,NA,2,0,NA,brown,m_l_021.jpg,NA,NA,NA,NA,NA,pleasant,unpleasant,NA,NA,NA,NA,NA,left,3181,true,NA,NA,NA,NA,NA,NA,NA,NA
J8uozT9e,3fk4g712o0duz4m7qhicsa7sfszsso,3x31tumd71z9orqhkrbt972g1bpl1f,J8uozT9e,2020-0188,2021-10-31,11:02:04,19:59:48,NA,incomplete,false,true,NA,NA,2,1,NA,brown,m_l_082.jpg,NA,NA,NA,NA,NA,pleasant,unpleasant,NA,NA,NA,NA,NA,left,2149.40000000037,true,NA,NA,NA,NA,NA,NA,NA,NA
J8uozT9e,3fk4g712o0duz4m7qhicsa7sfszsso,3x31tumd71z9orqhkrbt972g1bpl1f,J8uozT9e,2020-0188,2021-10-31,11:02:04,19:59:48,NA,incomplete,false,true,NA,NA,2,2,NA,brown,m_l_060.jpg,NA,NA,NA,NA,NA,pleasant,unpleasant,NA,NA,NA,NA,NA,left,1981.40000000037,true,NA,NA,NA,NA,NA,NA,NA,NA
J8uozT9e,3fk4g712o0duz4m7qhicsa7sfszsso,3x31tumd71z9orqhkrbt972g1bpl1f,J8uozT9e,2020-0188,2021-10-31,11:02:04,19:59:48,NA,incomplete,false,true,NA,NA,2,3,NA,brown,m_l_047.jpg,NA,NA,NA,NA,NA,unpleasant,pleasant,NA,NA,NA,NA,NA,left,2231.30000000075,true,NA,NA,NA,NA,NA,NA,NA,NA
J8uozT9e,3fk4g712o0duz4m7qhicsa7sfszsso,3x31tumd71z9orqhkrbt972g1bpl1f,J8uozT9e,2020-0188,2021-10-31,11:02:04,19:59:48,NA,incomplete,false,true,NA,NA,2,4,NA,brown,n_s_008.jpg,NA,NA,NA,NA,NA,unpleasant,pleasant,NA,NA,NA,NA,NA,left,1946.30000000075,true,NA,NA,NA,NA,NA,NA,NA,NA
J8uozT9e,3fk4g712o0duz4m7qhicsa7sfszsso,3x31tumd71z9orqhkrbt972g1bpl1f,J8uozT9e,2020-0188,2021-10-31,11:02:04,19:59:48,NA,incomplete,false,true,NA,NA,2,5,NA,brown,m_s_039.jpg,NA,NA,NA,NA,NA,pleasant,unpleasant,NA,NA,NA,NA,NA,left,2277.09999999963,true,NA,NA,NA,NA,NA,NA,NA,NA
J8uozT9e,3fk4g712o0duz4m7qhicsa7sfszsso,3x31tumd71z9orqhkrbt972g1bpl1f,J8uozT9e,2020-0188,2021-10-31,11:02:04,19:59:48,NA,incomplete,false,true,NA,NA,2,6,NA,gray,n_s_041.jpg,NA,NA,NA,NA,NA,unpleasant,pleasant,NA,NA,NA,NA,NA,right,1966,true,NA,NA,NA,NA,NA,NA,NA,NA
J8uozT9e,3fk4g712o0duz4m7qhicsa7sfszsso,3x31tumd71z9orqhkrbt972g1bpl1f,J8uozT9e,2020-0188,2021-10-31,11:02:04,19:59:48,NA,incomplete,false,true,NA,NA,2,7,NA,gray,n_l_112.jpg,NA,NA,NA,NA,NA,unpleasant,pleasant,NA,NA,NA,NA,NA,right,2724.30000000075,true,NA,NA,NA,NA,NA,NA,NA,NA
J8uozT9e,3fk4g712o0duz4m7qhicsa7sfszsso,3x31tumd71z9orqhkrbt972g1bpl1f,J8uozT9e,2020-0188,2021-10-31,11:02:04,19:59:48,NA,incomplete,false,true,NA,NA,2,8,NA,gray,n_s_060.jpg,NA,NA,NA,NA,NA,unpleasant,pleasant,NA,NA,NA,NA,NA,right,1858,true,NA,NA,NA,NA,NA,NA,NA,NA
J8uozT9e,3fk4g712o0duz4m7qhicsa7sfszsso,3x31tumd71z9orqhkrbt972g1bpl1f,J8uozT9e,2020-0188,2021-10-31,11:02:04,19:59:48,NA,incomplete,false,true,NA,NA,2,9,NA,gray,n_l_069.jpg,NA,NA,NA,NA,NA,unpleasant,pleasant,NA,NA,NA,NA,NA,right,1918.19999999925,true,NA,NA,NA,NA,NA,NA,NA,NA
J8uozT9e,3fk4g712o0duz4m7qhicsa7sfszsso,3x31tumd71z9orqhkrbt972g1bpl1f,J8uozT9e,2020-0188,2021-10-31,11:02:04,19:59:48,NA,incomplete,false,true,NA,NA,2,10,NA,gray,m_s_017.jpg,NA,NA,NA,NA,NA,unpleasant,pleasant,NA,NA,NA,NA,NA,right,1900.90000000037,true,NA,NA,NA,NA,NA,NA,NA,NA
J8uozT9e,3fk4g712o0duz4m7qhicsa7sfszsso,3x31tumd71z9orqhkrbt972g1bpl1f,J8uozT9e,2020-0188,2021-10-31,11:02:04,19:59:48,NA,incomplete,false,true,NA,NA,2,11,NA,gray,m_l_109.jpg,NA,NA,NA,NA,NA,unpleasant,pleasant,NA,NA,NA,NA,NA,right,1923.40000000037,true,NA,NA,NA,NA,NA,NA,NA,NA
J8uozT9e,3fk4g712o0duz4m7qhicsa7sfszsso,3x31tumd71z9orqhkrbt972g1bpl1f,J8uozT9e,2020-0188,2021-10-31,11:02:04,19:59:48,NA,incomplete,false,true,NA,NA,2,12,NA,red,n_l_062.jpg,NA,NA,NA,NA,NA,unpleasant,pleasant,NA,NA,NA,NA,NA,left,2003.79999999888,true,NA,NA,NA,NA,NA,NA,NA,NA
J8uozT9e,3fk4g712o0duz4m7qhicsa7sfszsso,3x31tumd71z9orqhkrbt972g1bpl1f,J8uozT9e,2020-0188,2021-10-31,11:02:04,19:59:48,NA,incomplete,false,true,NA,NA,2,13,NA,red,m_s_020.jpg,NA,NA,NA,NA,NA,unpleasant,pleasant,NA,NA,NA,NA,NA,left,1818.59999999963,true,NA,NA,NA,NA,NA,NA,NA,NA
J8uozT9e,3fk4g712o0duz4m7qhicsa7sfszsso,3x31tumd71z9orqhkrbt972g1bpl1f,J8uozT9e,2020-0188,2021-10-31,11:02:04,19:59:48,NA,incomplete,false,true,NA,NA,2,14,NA,red,m_s_109.jpg,NA,NA,NA,NA,NA,unpleasant,pleasant,NA,NA,NA,NA,NA,left,2084.40000000037,true,NA,NA,NA,NA,NA,NA,NA,NA
J8uozT9e,3fk4g712o0duz4m7qhicsa7sfszsso,3x31tumd71z9orqhkrbt972g1bpl1f,J8uozT9e,2020-0188,2021-10-31,11:02:04,19:59:48,NA,incomplete,false,true,NA,NA,2,15,NA,red,n_l_090.jpg,NA,NA,NA,NA,NA,unpleasant,pleasant,NA,NA,NA,NA,NA,left,2190.90000000037,true,NA,NA,NA,NA,NA,NA,NA,NA
J8uozT9e,3fk4g712o0duz4m7qhicsa7sfszsso,3x31tumd71z9orqhkrbt972g1bpl1f,J8uozT9e,2020-0188,2021-10-31,11:02:04,19:59:48,NA,incomplete,false,true,NA,NA,2,16,NA,red,m_s_052.jpg,NA,NA,NA,NA,NA,pleasant,unpleasant,NA,NA,NA,NA,NA,left,2242.79999999888,true,NA,NA,NA,NA,NA,NA,NA,NA
J8uozT9e,3fk4g712o0duz4m7qhicsa7sfszsso,3x31tumd71z9orqhkrbt972g1bpl1f,J8uozT9e,2020-0188,2021-10-31,11:02:04,19:59:48,NA,incomplete,false,true,NA,NA,2,17,NA,red,m_l_080.jpg,NA,NA,NA,NA,NA,unpleasant,pleasant,NA,NA,NA,NA,NA,left,2221.09999999963,true,NA,NA,NA,NA,NA,NA,NA,NA
J8uozT9e,3fk4g712o0duz4m7qhicsa7sfszsso,3x31tumd71z9orqhkrbt972g1bpl1f,J8uozT9e,2020-0188,2021-10-31,11:02:04,19:59:48,NA,incomplete,false,true,NA,NA,2,18,NA,purple,n_l_085.jpg,NA,NA,NA,NA,NA,pleasant,unpleasant,NA,NA,NA,NA,NA,right,2203.30000000075,true,NA,NA,NA,NA,NA,NA,NA,NA
J8uozT9e,3fk4g712o0duz4m7qhicsa7sfszsso,3x31tumd71z9orqhkrbt972g1bpl1f,J8uozT9e,2020-0188,2021-10-31,11:02:04,19:59:48,NA,incomplete,false,true,NA,NA,2,19,NA,purple,m_s_071.jpg,NA,NA,NA,NA,NA,pleasant,unpleasant,NA,NA,NA,NA,NA,right,2016,true,NA,NA,NA,NA,NA,NA,NA,NA
J8uozT9e,3fk4g712o0duz4m7qhicsa7sfszsso,3x31tumd71z9orqhkrbt972g1bpl1f,J8uozT9e,2020-0188,2021-10-31,11:02:04,19:59:48,NA,incomplete,false,true,NA,NA,2,20,NA,purple,n_s_076.jpg,NA,NA,NA,NA,NA,pleasant,unpleasant,NA,NA,NA,NA,NA,right,1955.40000000037,true,NA,NA,NA,NA,NA,NA,NA,NA
J8uozT9e,3fk4g712o0duz4m7qhicsa7sfszsso,3x31tumd71z9orqhkrbt972g1bpl1f,J8uozT9e,2020-0188,2021-10-31,11:02:04,19:59:48,NA,incomplete,false,true,NA,NA,2,21,NA,purple,n_s_080.jpg,NA,NA,NA,NA,NA,pleasant,unpleasant,NA,NA,NA,NA,NA,right,1982.30000000075,true,NA,NA,NA,NA,NA,NA,NA,NA
J8uozT9e,3fk4g712o0duz4m7qhicsa7sfszsso,3x31tumd71z9orqhkrbt972g1bpl1f,J8uozT9e,2020-0188,2021-10-31,11:02:04,19:59:48,NA,incomplete,false,true,NA,NA,2,22,NA,purple,n_l_022.jpg,NA,NA,NA,NA,NA,pleasant,unpleasant,NA,NA,NA,NA,NA,right,2091.90000000037,true,NA,NA,NA,NA,NA,NA,NA,NA
J8uozT9e,3fk4g712o0duz4m7qhicsa7sfszsso,3x31tumd71z9orqhkrbt972g1bpl1f,J8uozT9e,2020-0188,2021-10-31,11:02:04,19:59:48,NA,incomplete,false,true,NA,NA,2,23,NA,purple,m_s_033.jpg,NA,NA,NA,NA,NA,unpleasant,pleasant,NA,NA,NA,NA,NA,right,2245,true,NA,NA,NA,NA,NA,NA,NA,NA
J8uozT9e,3fk4g712o0duz4m7qhicsa7sfszsso,3x31tumd71z9orqhkrbt972g1bpl1f,J8uozT9e,2020-0188,2021-10-31,11:02:04,19:59:48,NA,incomplete,false,true,NA,NA,2,24,NA,white,n_l_018.jpg,NA,NA,NA,NA,NA,pleasant,unpleasant,NA,NA,NA,NA,NA,left,2235.09999999963,true,NA,NA,NA,NA,NA,NA,NA,NA
J8uozT9e,3fk4g712o0duz4m7qhicsa7sfszsso,3x31tumd71z9orqhkrbt972g1bpl1f,J8uozT9e,2020-0188,2021-10-31,11:02:04,19:59:48,NA,incomplete,false,true,NA,NA,2,25,NA,white,m_l_033.jpg,NA,NA,NA,NA,NA,pleasant,unpleasant,NA,NA,NA,NA,NA,left,2208.19999999925,true,NA,NA,NA,NA,NA,NA,NA,NA
J8uozT9e,3fk4g712o0duz4m7qhicsa7sfszsso,3x31tumd71z9orqhkrbt972g1bpl1f,J8uozT9e,2020-0188,2021-10-31,11:02:04,19:59:48,NA,incomplete,false,true,NA,NA,2,26,NA,white,n_l_095.jpg,NA,NA,NA,NA,NA,pleasant,unpleasant,NA,NA,NA,NA,NA,left,1939.80000000075,true,NA,NA,NA,NA,NA,NA,NA,NA
J8uozT9e,3fk4g712o0duz4m7qhicsa7sfszsso,3x31tumd71z9orqhkrbt972g1bpl1f,J8uozT9e,2020-0188,2021-10-31,11:02:04,19:59:48,NA,incomplete,false,true,NA,NA,2,27,NA,white,n_s_020.jpg,NA,NA,NA,NA,NA,pleasant,unpleasant,NA,NA,NA,NA,NA,left,2021.5,true,NA,NA,NA,NA,NA,NA,NA,NA
J8uozT9e,3fk4g712o0duz4m7qhicsa7sfszsso,3x31tumd71z9orqhkrbt972g1bpl1f,J8uozT9e,2020-0188,2021-10-31,11:02:04,19:59:48,NA,incomplete,false,true,NA,NA,2,28,NA,white,m_l_040.jpg,NA,NA,NA,NA,NA,pleasant,unpleasant,NA,NA,NA,NA,NA,left,1893.60000000149,true,NA,NA,NA,NA,NA,NA,NA,NA
J8uozT9e,3fk4g712o0duz4m7qhicsa7sfszsso,3x31tumd71z9orqhkrbt972g1bpl1f,J8uozT9e,2020-0188,2021-10-31,11:02:04,19:59:48,NA,incomplete,false,true,NA,NA,2,29,NA,white,n_l_071.jpg,NA,NA,NA,NA,NA,unpleasant,pleasant,NA,NA,NA,NA,NA,left,1870.19999999925,true,NA,NA,NA,NA,NA,NA,NA,NA
J8uozT9e,3fk4g712o0duz4m7qhicsa7sfszsso,3x31tumd71z9orqhkrbt972g1bpl1f,J8uozT9e,2020-0188,2021-10-31,11:02:04,19:59:48,NA,incomplete,false,true,NA,NA,2,30,NA,green,m_s_038.jpg,NA,NA,NA,NA,NA,pleasant,unpleasant,NA,NA,NA,NA,NA,right,2124.79999999888,true,NA,NA,NA,NA,NA,NA,NA,NA
J8uozT9e,3fk4g712o0duz4m7qhicsa7sfszsso,3x31tumd71z9orqhkrbt972g1bpl1f,J8uozT9e,2020-0188,2021-10-31,11:02:04,19:59:48,NA,incomplete,false,true,NA,NA,2,31,NA,green,n_l_064.jpg,NA,NA,NA,NA,NA,unpleasant,pleasant,NA,NA,NA,NA,NA,right,1906.59999999963,true,NA,NA,NA,NA,NA,NA,NA,NA
J8uozT9e,3fk4g712o0duz4m7qhicsa7sfszsso,3x31tumd71z9orqhkrbt972g1bpl1f,J8uozT9e,2020-0188,2021-10-31,11:02:04,19:59:48,NA,incomplete,false,true,NA,NA,2,32,NA,green,m_s_092.jpg,NA,NA,NA,NA,NA,unpleasant,pleasant,NA,NA,NA,NA,NA,right,1868.19999999925,true,NA,NA,NA,NA,NA,NA,NA,NA
J8uozT9e,3fk4g712o0duz4m7qhicsa7sfszsso,3x31tumd71z9orqhkrbt972g1bpl1f,J8uozT9e,2020-0188,2021-10-31,11:02:04,19:59:48,NA,incomplete,false,true,NA,NA,2,33,NA,green,m_s_065.jpg,NA,NA,NA,NA,NA,unpleasant,pleasant,NA,NA,NA,NA,NA,right,1930.59999999963,true,NA,NA,NA,NA,NA,NA,NA,NA
J8uozT9e,3fk4g712o0duz4m7qhicsa7sfszsso,3x31tumd71z9orqhkrbt972g1bpl1f,J8uozT9e,2020-0188,2021-10-31,11:02:04,19:59:48,NA,incomplete,false,true,NA,NA,2,34,NA,green,m_s_078.jpg,NA,NA,NA,NA,NA,pleasant,unpleasant,NA,NA,NA,NA,NA,right,1857.20000000112,true,NA,NA,NA,NA,NA,NA,NA,NA
J8uozT9e,3fk4g712o0duz4m7qhicsa7sfszsso,3x31tumd71z9orqhkrbt972g1bpl1f,J8uozT9e,2020-0188,2021-10-31,11:02:04,19:59:48,NA,incomplete,false,true,NA,NA,2,35,NA,green,n_s_114.jpg,NA,NA,NA,NA,NA,unpleasant,pleasant,NA,NA,NA,NA,NA,right,1882.69999999925,true,NA,NA,NA,NA,NA,NA,NA,NA
J8uozT9e,3fk4g712o0duz4m7qhicsa7sfszsso,3x31tumd71z9orqhkrbt972g1bpl1f,J8uozT9e,2020-0188,2021-10-31,11:02:04,19:59:48,NA,incomplete,false,NA,NA,true,2,0,NA,NA,NA,right,m_l_040.jpg,green,white,NA,NA,NA,NA,NA,NA,NA,NA,NA,NaN,NA,9317.900000000373,right,1,NA,NA,NA,NA,NA
J8uozT9e,3fk4g712o0duz4m7qhicsa7sfszsso,3x31tumd71z9orqhkrbt972g1bpl1f,J8uozT9e,2020-0188,2021-10-31,11:02:04,19:59:48,NA,incomplete,false,NA,NA,true,2,1,NA,NA,NA,left,n_s_060.jpg,gray,red,NA,NA,NA,NA,NA,NA,NA,NA,NA,NaN,NA,4998.200000001118,left,1,NA,NA,NA,NA,NA
J8uozT9e,3fk4g712o0duz4m7qhicsa7sfszsso,3x31tumd71z9orqhkrbt972g1bpl1f,J8uozT9e,2020-0188,2021-10-31,11:02:04,19:59:48,NA,incomplete,false,NA,NA,true,2,2,NA,NA,NA,right,n_l_095.jpg,green,white,NA,NA,NA,NA,NA,NA,NA,NA,NA,NaN,NA,8873.200000001118,right,1,NA,NA,NA,NA,NA
J8uozT9e,3fk4g712o0duz4m7qhicsa7sfszsso,3x31tumd71z9orqhkrbt972g1bpl1f,J8uozT9e,2020-0188,2021-10-31,11:02:04,19:59:48,NA,incomplete,false,NA,NA,true,2,3,NA,NA,NA,left,n_l_112.jpg,gray,brown,NA,NA,NA,NA,NA,NA,NA,NA,NA,NaN,NA,8669.200000001118,left,1,NA,NA,NA,NA,NA
J8uozT9e,3fk4g712o0duz4m7qhicsa7sfszsso,3x31tumd71z9orqhkrbt972g1bpl1f,J8uozT9e,2020-0188,2021-10-31,11:02:04,19:59:48,NA,incomplete,false,NA,NA,true,2,4,NA,NA,NA,left,n_l_064.jpg,green,white,NA,NA,NA,NA,NA,NA,NA,NA,NA,NaN,NA,8440.099999999627,left,1,NA,NA,NA,NA,NA
J8uozT9e,3fk4g712o0duz4m7qhicsa7sfszsso,3x31tumd71z9orqhkrbt972g1bpl1f,J8uozT9e,2020-0188,2021-10-31,11:02:04,19:59:48,NA,incomplete,false,NA,NA,true,2,5,NA,NA,NA,right,m_l_033.jpg,green,white,NA,NA,NA,NA,NA,NA,NA,NA,NA,NaN,NA,21469.39999999851,right,1,NA,NA,NA,NA,NA
J8uozT9e,3fk4g712o0duz4m7qhicsa7sfszsso,3x31tumd71z9orqhkrbt972g1bpl1f,J8uozT9e,2020-0188,2021-10-31,11:02:04,19:59:48,NA,incomplete,false,NA,NA,true,2,6,NA,NA,NA,left,m_s_092.jpg,green,white,NA,NA,NA,NA,NA,NA,NA,NA,NA,NaN,NA,134257.5,left,1,NA,NA,NA,NA,NA
J8uozT9e,3fk4g712o0duz4m7qhicsa7sfszsso,3x31tumd71z9orqhkrbt972g1bpl1f,J8uozT9e,2020-0188,2021-10-31,11:02:04,19:59:48,NA,incomplete,false,NA,NA,true,2,7,NA,NA,NA,left,m_s_020.jpg,red,purple,NA,NA,NA,NA,NA,NA,NA,NA,NA,NaN,NA,11147.60000000149,left,1,NA,NA,NA,NA,NA
J8uozT9e,3fk4g712o0duz4m7qhicsa7sfszsso,3x31tumd71z9orqhkrbt972g1bpl1f,J8uozT9e,2020-0188,2021-10-31,11:02:04,19:59:48,NA,incomplete,false,NA,NA,true,2,8,NA,NA,NA,left,m_s_071.jpg,purple,red,NA,NA,NA,NA,NA,NA,NA,NA,NA,NaN,NA,8159.799999998882,left,1,NA,NA,NA,NA,NA
J8uozT9e,3fk4g712o0duz4m7qhicsa7sfszsso,3x31tumd71z9orqhkrbt972g1bpl1f,J8uozT9e,2020-0188,2021-10-31,11:02:04,19:59:48,NA,incomplete,false,NA,NA,true,2,9,NA,NA,NA,left,n_s_008.jpg,brown,gray,NA,NA,NA,NA,NA,NA,NA,NA,NA,NaN,NA,14919,left,1,NA,NA,NA,NA,NA
J8uozT9e,3fk4g712o0duz4m7qhicsa7sfszsso,3x31tumd71z9orqhkrbt972g1bpl1f,J8uozT9e,2020-0188,2021-10-31,11:02:04,19:59:48,NA,incomplete,false,NA,NA,true,2,10,NA,NA,NA,left,m_l_080.jpg,red,gray,NA,NA,NA,NA,NA,NA,NA,NA,NA,NaN,NA,62789.300000000745,left,1,NA,NA,NA,NA,NA
J8uozT9e,3fk4g712o0duz4m7qhicsa7sfszsso,3x31tumd71z9orqhkrbt972g1bpl1f,J8uozT9e,2020-0188,2021-10-31,11:02:04,19:59:48,NA,incomplete,false,NA,NA,true,2,11,NA,NA,NA,right,n_l_022.jpg,red,purple,NA,NA,NA,NA,NA,NA,NA,NA,NA,NaN,NA,23028.10000000149,right,1,NA,NA,NA,NA,NA
J8uozT9e,3fk4g712o0duz4m7qhicsa7sfszsso,3x31tumd71z9orqhkrbt972g1bpl1f,J8uozT9e,2020-0188,2021-10-31,11:02:04,19:59:48,NA,incomplete,false,NA,NA,true,2,12,NA,NA,NA,right,m_s_052.jpg,gray,red,NA,NA,NA,NA,NA,NA,NA,NA,NA,NaN,NA,6079,right,1,NA,NA,NA,NA,NA
J8uozT9e,3fk4g712o0duz4m7qhicsa7sfszsso,3x31tumd71z9orqhkrbt972g1bpl1f,J8uozT9e,2020-0188,2021-10-31,11:02:04,19:59:48,NA,incomplete,false,NA,NA,true,2,13,NA,NA,NA,left,n_s_076.jpg,purple,white,NA,NA,NA,NA,NA,NA,NA,NA,NA,NaN,NA,24701.900000000373,right,0,NA,NA,NA,NA,NA
J8uozT9e,3fk4g712o0duz4m7qhicsa7sfszsso,3x31tumd71z9orqhkrbt972g1bpl1f,J8uozT9e,2020-0188,2021-10-31,11:02:04,19:59:48,NA,incomplete,false,NA,NA,true,2,14,NA,NA,NA,right,m_s_109.jpg,purple,red,NA,NA,NA,NA,NA,NA,NA,NA,NA,NaN,NA,6526.700000001118,right,1,NA,NA,NA,NA,NA
J8uozT9e,3fk4g712o0duz4m7qhicsa7sfszsso,3x31tumd71z9orqhkrbt972g1bpl1f,J8uozT9e,2020-0188,2021-10-31,11:02:04,19:59:48,NA,incomplete,false,NA,NA,true,2,15,NA,NA,NA,left,n_l_071.jpg,white,purple,NA,NA,NA,NA,NA,NA,NA,NA,NA,NaN,NA,11160.099999999627,left,1,NA,NA,NA,NA,NA
J8uozT9e,3fk4g712o0duz4m7qhicsa7sfszsso,3x31tumd71z9orqhkrbt972g1bpl1f,J8uozT9e,2020-0188,2021-10-31,11:02:04,19:59:48,NA,incomplete,false,NA,NA,true,2,16,NA,NA,NA,right,m_s_017.jpg,brown,gray,NA,NA,NA,NA,NA,NA,NA,NA,NA,NaN,NA,6289.9000000003725,right,1,NA,NA,NA,NA,NA
J8uozT9e,3fk4g712o0duz4m7qhicsa7sfszsso,3x31tumd71z9orqhkrbt972g1bpl1f,J8uozT9e,2020-0188,2021-10-31,11:02:04,19:59:48,NA,incomplete,false,NA,NA,true,2,17,NA,NA,NA,right,n_s_114.jpg,white,green,NA,NA,NA,NA,NA,NA,NA,NA,NA,NaN,NA,13765.800000000745,right,1,NA,NA,NA,NA,NA
J8uozT9e,3fk4g712o0duz4m7qhicsa7sfszsso,3x31tumd71z9orqhkrbt972g1bpl1f,J8uozT9e,2020-0188,2021-10-31,11:02:04,19:59:48,NA,incomplete,false,NA,NA,true,2,18,NA,NA,NA,left,m_l_109.jpg,gray,brown,NA,NA,NA,NA,NA,NA,NA,NA,NA,NaN,NA,15334.89999999851,left,1,NA,NA,NA,NA,NA
J8uozT9e,3fk4g712o0duz4m7qhicsa7sfszsso,3x31tumd71z9orqhkrbt972g1bpl1f,J8uozT9e,2020-0188,2021-10-31,11:02:04,19:59:48,NA,incomplete,false,NA,NA,true,2,19,NA,NA,NA,left,m_l_082.jpg,brown,gray,NA,NA,NA,NA,NA,NA,NA,NA,NA,NaN,NA,8952.5,left,1,NA,NA,NA,NA,NA
J8uozT9e,3fk4g712o0duz4m7qhicsa7sfszsso,3x31tumd71z9orqhkrbt972g1bpl1f,J8uozT9e,2020-0188,2021-10-31,11:02:04,19:59:48,NA,incomplete,false,NA,NA,true,2,20,NA,NA,NA,left,m_s_039.jpg,brown,gray,NA,NA,NA,NA,NA,NA,NA,NA,NA,NaN,NA,4270.699999999255,left,1,NA,NA,NA,NA,NA
J8uozT9e,3fk4g712o0duz4m7qhicsa7sfszsso,3x31tumd71z9orqhkrbt972g1bpl1f,J8uozT9e,2020-0188,2021-10-31,11:02:04,19:59:48,NA,incomplete,false,NA,NA,true,2,21,NA,NA,NA,left,m_s_033.jpg,purple,white,NA,NA,NA,NA,NA,NA,NA,NA,NA,NaN,NA,6468.800000000745,left,1,NA,NA,NA,NA,NA
J8uozT9e,3fk4g712o0duz4m7qhicsa7sfszsso,3x31tumd71z9orqhkrbt972g1bpl1f,J8uozT9e,2020-0188,2021-10-31,11:02:04,19:59:48,NA,incomplete,false,NA,true,NA,2,0,NA,NA,NA,right,NA,NA,NA,present,NA,NA,n_s_114.jpg,green,n_l_064.jpg,green,within,NA,NaN,NA,NA,NA,NA,right,25246.900000000373,1,1,2029.5999999996275
J8uozT9e,3fk4g712o0duz4m7qhicsa7sfszsso,3x31tumd71z9orqhkrbt972g1bpl1f,J8uozT9e,2020-0188,2021-10-31,11:02:04,19:59:48,NA,incomplete,false,NA,true,NA,2,1,NA,NA,NA,right,NA,NA,NA,present,NA,NA,n_l_071.jpg,white,m_l_033.jpg,white,within,NA,NaN,NA,NA,NA,NA,right,18310.900000000373,1,1,1678.7999999988824
J8uozT9e,3fk4g712o0duz4m7qhicsa7sfszsso,3x31tumd71z9orqhkrbt972g1bpl1f,J8uozT9e,2020-0188,2021-10-31,11:02:04,19:59:48,NA,incomplete,false,NA,true,NA,2,2,NA,NA,NA,right,NA,NA,NA,present,NA,NA,m_s_092.jpg,green,m_l_040.jpg,white,between,NA,NaN,NA,NA,NA,NA,right,4538.5,1,1,12507.60000000149
J8uozT9e,3fk4g712o0duz4m7qhicsa7sfszsso,3x31tumd71z9orqhkrbt972g1bpl1f,J8uozT9e,2020-0188,2021-10-31,11:02:04,19:59:48,NA,incomplete,false,NA,true,NA,2,3,NA,NA,NA,right,NA,NA,NA,present,NA,NA,n_l_095.jpg,white,n_l_022.jpg,purple,between,NA,NaN,NA,NA,NA,NA,right,4298.200000001118,1,1,1870.2000000011176
J8uozT9e,3fk4g712o0duz4m7qhicsa7sfszsso,3x31tumd71z9orqhkrbt972g1bpl1f,J8uozT9e,2020-0188,2021-10-31,11:02:04,19:59:48,NA,incomplete,false,NA,true,NA,2,4,NA,NA,NA,left,NA,NA,NA,present,NA,NA,m_s_071.jpg,purple,m_s_033.jpg,purple,within,NA,NaN,NA,NA,NA,NA,left,10779.200000001118,1,1,2434.60000000149
J8uozT9e,3fk4g712o0duz4m7qhicsa7sfszsso,3x31tumd71z9orqhkrbt972g1bpl1f,J8uozT9e,2020-0188,2021-10-31,11:02:04,19:59:48,NA,incomplete,false,NA,true,NA,2,5,NA,NA,NA,left,NA,NA,NA,present,NA,NA,m_l_082.jpg,brown,m_s_039.jpg,brown,within,NA,NaN,NA,NA,NA,NA,left,9221.5,1,1,3205.800000000745
J8uozT9e,3fk4g712o0duz4m7qhicsa7sfszsso,3x31tumd71z9orqhkrbt972g1bpl1f,J8uozT9e,2020-0188,2021-10-31,11:02:04,19:59:48,NA,incomplete,false,NA,true,NA,2,6,NA,NA,NA,left,NA,NA,NA,present,NA,NA,n_s_008.jpg,brown,n_s_060.jpg,gray,between,NA,NaN,NA,NA,NA,NA,left,6389.0999999996275,1,1,2409.5
J8uozT9e,3fk4g712o0duz4m7qhicsa7sfszsso,3x31tumd71z9orqhkrbt972g1bpl1f,J8uozT9e,2020-0188,2021-10-31,11:02:04,19:59:48,NA,incomplete,false,NA,true,NA,2,7,NA,NA,NA,left,NA,NA,NA,present,NA,NA,n_l_112.jpg,gray,m_l_109.jpg,gray,within,NA,NaN,NA,NA,NA,NA,left,8377.199999999255,1,1,2530
J8uozT9e,3fk4g712o0duz4m7qhicsa7sfszsso,3x31tumd71z9orqhkrbt972g1bpl1f,J8uozT9e,2020-0188,2021-10-31,11:02:04,19:59:48,NA,incomplete,false,NA,true,NA,2,8,NA,NA,NA,left,NA,NA,NA,present,NA,NA,m_s_020.jpg,red,m_l_080.jpg,red,within,NA,NaN,NA,NA,NA,NA,left,7029.700000001118,1,1,2519.2000000011176
J8uozT9e,3fk4g712o0duz4m7qhicsa7sfszsso,3x31tumd71z9orqhkrbt972g1bpl1f,J8uozT9e,2020-0188,2021-10-31,11:02:04,19:59:48,NA,incomplete,false,NA,true,NA,2,9,NA,NA,NA,left,NA,NA,NA,present,NA,NA,m_s_052.jpg,red,n_s_076.jpg,purple,between,NA,NaN,NA,NA,NA,NA,left,6258.300000000745,1,1,1577.699999999255
J8uozT9e,3fk4g712o0duz4m7qhicsa7sfszsso,3x31tumd71z9orqhkrbt972g1bpl1f,J8uozT9e,2020-0188,2021-10-31,11:02:04,19:59:48,NA,incomplete,false,NA,true,NA,2,10,NA,NA,NA,right,NA,NA,NA,present,NA,NA,m_s_109.jpg,red,m_s_017.jpg,gray,between,NA,NaN,NA,NA,NA,NA,right,6169.300000000745,1,1,4301.4000000003725
J8uozT9e,3fk4g712o0duz4m7qhicsa7sfszsso,3x31tumd71z9orqhkrbt972g1bpl1f,J8uozT9e,2020-0188,2021-10-31,11:02:04,19:59:48,NA,incomplete,false,true,NA,NA,3,0,NA,orange,n_s_024.jpg,NA,NA,NA,NA,NA,pleasant,unpleasant,NA,NA,NA,NA,NA,right,2949,true,NA,NA,NA,NA,NA,NA,NA,NA
J8uozT9e,3fk4g712o0duz4m7qhicsa7sfszsso,3x31tumd71z9orqhkrbt972g1bpl1f,J8uozT9e,2020-0188,2021-10-31,11:02:04,19:59:48,NA,incomplete,false,true,NA,NA,3,1,NA,orange,m_s_112.jpg,NA,NA,NA,NA,NA,pleasant,unpleasant,NA,NA,NA,NA,NA,right,2320,true,NA,NA,NA,NA,NA,NA,NA,NA
J8uozT9e,3fk4g712o0duz4m7qhicsa7sfszsso,3x31tumd71z9orqhkrbt972g1bpl1f,J8uozT9e,2020-0188,2021-10-31,11:02:04,19:59:48,NA,incomplete,false,true,NA,NA,3,2,NA,orange,n_s_111.jpg,NA,NA,NA,NA,NA,pleasant,unpleasant,NA,NA,NA,NA,NA,right,2071.89999999851,true,NA,NA,NA,NA,NA,NA,NA,NA
J8uozT9e,3fk4g712o0duz4m7qhicsa7sfszsso,3x31tumd71z9orqhkrbt972g1bpl1f,J8uozT9e,2020-0188,2021-10-31,11:02:04,19:59:48,NA,incomplete,false,true,NA,NA,3,3,NA,orange,m_s_117.jpg,NA,NA,NA,NA,NA,pleasant,unpleasant,NA,NA,NA,NA,NA,right,1986.90000000224,true,NA,NA,NA,NA,NA,NA,NA,NA
J8uozT9e,3fk4g712o0duz4m7qhicsa7sfszsso,3x31tumd71z9orqhkrbt972g1bpl1f,J8uozT9e,2020-0188,2021-10-31,11:02:04,19:59:48,NA,incomplete,false,true,NA,NA,3,4,NA,orange,n_s_033.jpg,NA,NA,NA,NA,NA,unpleasant,pleasant,NA,NA,NA,NA,NA,right,1876.89999999851,true,NA,NA,NA,NA,NA,NA,NA,NA
J8uozT9e,3fk4g712o0duz4m7qhicsa7sfszsso,3x31tumd71z9orqhkrbt972g1bpl1f,J8uozT9e,2020-0188,2021-10-31,11:02:04,19:59:48,NA,incomplete,false,true,NA,NA,3,5,NA,orange,n_s_087.jpg,NA,NA,NA,NA,NA,pleasant,unpleasant,NA,NA,NA,NA,NA,right,2016.40000000224,true,NA,NA,NA,NA,NA,NA,NA,NA
J8uozT9e,3fk4g712o0duz4m7qhicsa7sfszsso,3x31tumd71z9orqhkrbt972g1bpl1f,J8uozT9e,2020-0188,2021-10-31,11:02:04,19:59:48,NA,incomplete,false,true,NA,NA,3,6,NA,purple,n_s_040.jpg,NA,NA,NA,NA,NA,unpleasant,pleasant,NA,NA,NA,NA,NA,left,2036.80000000075,true,NA,NA,NA,NA,NA,NA,NA,NA
J8uozT9e,3fk4g712o0duz4m7qhicsa7sfszsso,3x31tumd71z9orqhkrbt972g1bpl1f,J8uozT9e,2020-0188,2021-10-31,11:02:04,19:59:48,NA,incomplete,false,true,NA,NA,3,7,NA,purple,n_s_094.jpg,NA,NA,NA,NA,NA,unpleasant,pleasant,NA,NA,NA,NA,NA,left,1888.80000000075,true,NA,NA,NA,NA,NA,NA,NA,NA
J8uozT9e,3fk4g712o0duz4m7qhicsa7sfszsso,3x31tumd71z9orqhkrbt972g1bpl1f,J8uozT9e,2020-0188,2021-10-31,11:02:04,19:59:48,NA,incomplete,false,true,NA,NA,3,8,NA,purple,m_l_023.jpg,NA,NA,NA,NA,NA,pleasant,unpleasant,NA,NA,NA,NA,NA,left,1790.69999999925,true,NA,NA,NA,NA,NA,NA,NA,NA
J8uozT9e,3fk4g712o0duz4m7qhicsa7sfszsso,3x31tumd71z9orqhkrbt972g1bpl1f,J8uozT9e,2020-0188,2021-10-31,11:02:04,19:59:48,NA,incomplete,false,true,NA,NA,3,9,NA,purple,n_s_092.jpg,NA,NA,NA,NA,NA,pleasant,unpleasant,NA,NA,NA,NA,NA,left,1873.69999999925,true,NA,NA,NA,NA,NA,NA,NA,NA
J8uozT9e,3fk4g712o0duz4m7qhicsa7sfszsso,3x31tumd71z9orqhkrbt972g1bpl1f,J8uozT9e,2020-0188,2021-10-31,11:02:04,19:59:48,NA,incomplete,false,true,NA,NA,3,10,NA,purple,n_s_086.jpg,NA,NA,NA,NA,NA,pleasant,unpleasant,NA,NA,NA,NA,NA,left,1925.80000000075,true,NA,NA,NA,NA,NA,NA,NA,NA
J8uozT9e,3fk4g712o0duz4m7qhicsa7sfszsso,3x31tumd71z9orqhkrbt972g1bpl1f,J8uozT9e,2020-0188,2021-10-31,11:02:04,19:59:48,NA,incomplete,false,true,NA,NA,3,11,NA,purple,m_s_055.jpg,NA,NA,NA,NA,NA,pleasant,unpleasant,NA,NA,NA,NA,NA,left,1916.19999999925,true,NA,NA,NA,NA,NA,NA,NA,NA
J8uozT9e,3fk4g712o0duz4m7qhicsa7sfszsso,3x31tumd71z9orqhkrbt972g1bpl1f,J8uozT9e,2020-0188,2021-10-31,11:02:04,19:59:48,NA,incomplete,false,true,NA,NA,3,12,NA,blue,m_s_048.jpg,NA,NA,NA,NA,NA,pleasant,unpleasant,NA,NA,NA,NA,NA,right,1973.5,true,NA,NA,NA,NA,NA,NA,NA,NA
J8uozT9e,3fk4g712o0duz4m7qhicsa7sfszsso,3x31tumd71z9orqhkrbt972g1bpl1f,J8uozT9e,2020-0188,2021-10-31,11:02:04,19:59:48,NA,incomplete,false,true,NA,NA,3,13,NA,blue,m_s_008.jpg,NA,NA,NA,NA,NA,unpleasant,pleasant,NA,NA,NA,NA,NA,right,1834.30000000075,true,NA,NA,NA,NA,NA,NA,NA,NA
J8uozT9e,3fk4g712o0duz4m7qhicsa7sfszsso,3x31tumd71z9orqhkrbt972g1bpl1f,J8uozT9e,2020-0188,2021-10-31,11:02:04,19:59:48,NA,incomplete,false,true,NA,NA,3,14,NA,blue,n_s_002.jpg,NA,NA,NA,NA,NA,pleasant,unpleasant,NA,NA,NA,NA,NA,right,1949.10000000149,true,NA,NA,NA,NA,NA,NA,NA,NA
J8uozT9e,3fk4g712o0duz4m7qhicsa7sfszsso,3x31tumd71z9orqhkrbt972g1bpl1f,J8uozT9e,2020-0188,2021-10-31,11:02:04,19:59:48,NA,incomplete,false,true,NA,NA,3,15,NA,blue,n_s_065.jpg,NA,NA,NA,NA,NA,unpleasant,pleasant,NA,NA,NA,NA,NA,right,1799.5,true,NA,NA,NA,NA,NA,NA,NA,NA
J8uozT9e,3fk4g712o0duz4m7qhicsa7sfszsso,3x31tumd71z9orqhkrbt972g1bpl1f,J8uozT9e,2020-0188,2021-10-31,11:02:04,19:59:48,NA,incomplete,false,true,NA,NA,3,16,NA,blue,n_l_036.jpg,NA,NA,NA,NA,NA,pleasant,unpleasant,NA,NA,NA,NA,NA,right,1893.09999999776,true,NA,NA,NA,NA,NA,NA,NA,NA
J8uozT9e,3fk4g712o0duz4m7qhicsa7sfszsso,3x31tumd71z9orqhkrbt972g1bpl1f,J8uozT9e,2020-0188,2021-10-31,11:02:04,19:59:48,NA,incomplete,false,true,NA,NA,3,17,NA,blue,n_s_039.jpg,NA,NA,NA,NA,NA,unpleasant,pleasant,NA,NA,NA,NA,NA,right,1784.19999999925,true,NA,NA,NA,NA,NA,NA,NA,NA
J8uozT9e,3fk4g712o0duz4m7qhicsa7sfszsso,3x31tumd71z9orqhkrbt972g1bpl1f,J8uozT9e,2020-0188,2021-10-31,11:02:04,19:59:48,NA,incomplete,false,true,NA,NA,3,18,NA,red,n_l_013.jpg,NA,NA,NA,NA,NA,unpleasant,pleasant,NA,NA,NA,NA,NA,left,1855.39999999851,true,NA,NA,NA,NA,NA,NA,NA,NA
J8uozT9e,3fk4g712o0duz4m7qhicsa7sfszsso,3x31tumd71z9orqhkrbt972g1bpl1f,J8uozT9e,2020-0188,2021-10-31,11:02:04,19:59:48,NA,incomplete,false,true,NA,NA,3,19,NA,red,m_l_090.jpg,NA,NA,NA,NA,NA,pleasant,unpleasant,NA,NA,NA,NA,NA,left,1806.5,true,NA,NA,NA,NA,NA,NA,NA,NA
J8uozT9e,3fk4g712o0duz4m7qhicsa7sfszsso,3x31tumd71z9orqhkrbt972g1bpl1f,J8uozT9e,2020-0188,2021-10-31,11:02:04,19:59:48,NA,incomplete,false,true,NA,NA,3,20,NA,red,m_l_094.jpg,NA,NA,NA,NA,NA,unpleasant,pleasant,NA,NA,NA,NA,NA,left,1849.30000000075,true,NA,NA,NA,NA,NA,NA,NA,NA
J8uozT9e,3fk4g712o0duz4m7qhicsa7sfszsso,3x31tumd71z9orqhkrbt972g1bpl1f,J8uozT9e,2020-0188,2021-10-31,11:02:04,19:59:48,NA,incomplete,false,true,NA,NA,3,21,NA,red,m_s_114.jpg,NA,NA,NA,NA,NA,pleasant,unpleasant,NA,NA,NA,NA,NA,left,1907.10000000149,true,NA,NA,NA,NA,NA,NA,NA,NA
J8uozT9e,3fk4g712o0duz4m7qhicsa7sfszsso,3x31tumd71z9orqhkrbt972g1bpl1f,J8uozT9e,2020-0188,2021-10-31,11:02:04,19:59:48,NA,incomplete,false,true,NA,NA,3,22,NA,red,n_l_028.jpg,NA,NA,NA,NA,NA,unpleasant,pleasant,NA,NA,NA,NA,NA,left,2079.40000000224,true,NA,NA,NA,NA,NA,NA,NA,NA
J8uozT9e,3fk4g712o0duz4m7qhicsa7sfszsso,3x31tumd71z9orqhkrbt972g1bpl1f,J8uozT9e,2020-0188,2021-10-31,11:02:04,19:59:48,NA,incomplete,false,true,NA,NA,3,23,NA,red,m_s_098.jpg,NA,NA,NA,NA,NA,unpleasant,pleasant,NA,NA,NA,NA,NA,left,1821.70000000298,true,NA,NA,NA,NA,NA,NA,NA,NA
J8uozT9e,3fk4g712o0duz4m7qhicsa7sfszsso,3x31tumd71z9orqhkrbt972g1bpl1f,J8uozT9e,2020-0188,2021-10-31,11:02:04,19:59:48,NA,incomplete,false,true,NA,NA,3,24,NA,white,m_s_003.jpg,NA,NA,NA,NA,NA,unpleasant,pleasant,NA,NA,NA,NA,NA,right,1769.60000000149,true,NA,NA,NA,NA,NA,NA,NA,NA
J8uozT9e,3fk4g712o0duz4m7qhicsa7sfszsso,3x31tumd71z9orqhkrbt972g1bpl1f,J8uozT9e,2020-0188,2021-10-31,11:02:04,19:59:48,NA,incomplete,false,true,NA,NA,3,25,NA,white,n_l_061.jpg,NA,NA,NA,NA,NA,unpleasant,pleasant,NA,NA,NA,NA,NA,right,1981.39999999851,true,NA,NA,NA,NA,NA,NA,NA,NA
J8uozT9e,3fk4g712o0duz4m7qhicsa7sfszsso,3x31tumd71z9orqhkrbt972g1bpl1f,J8uozT9e,2020-0188,2021-10-31,11:02:04,19:59:48,NA,incomplete,false,true,NA,NA,3,26,NA,white,m_s_050.jpg,NA,NA,NA,NA,NA,pleasant,unpleasant,NA,NA,NA,NA,NA,right,2002.30000000075,true,NA,NA,NA,NA,NA,NA,NA,NA
J8uozT9e,3fk4g712o0duz4m7qhicsa7sfszsso,3x31tumd71z9orqhkrbt972g1bpl1f,J8uozT9e,2020-0188,2021-10-31,11:02:04,19:59:48,NA,incomplete,false,true,NA,NA,3,27,NA,white,m_s_029.jpg,NA,NA,NA,NA,NA,pleasant,unpleasant,NA,NA,NA,NA,NA,right,2042.90000000224,true,NA,NA,NA,NA,NA,NA,NA,NA
J8uozT9e,3fk4g712o0duz4m7qhicsa7sfszsso,3x31tumd71z9orqhkrbt972g1bpl1f,J8uozT9e,2020-0188,2021-10-31,11:02:04,19:59:48,NA,incomplete,false,true,NA,NA,3,28,NA,white,m_l_063.jpg,NA,NA,NA,NA,NA,unpleasant,pleasant,NA,NA,NA,NA,NA,right,2051.39999999851,true,NA,NA,NA,NA,NA,NA,NA,NA
J8uozT9e,3fk4g712o0duz4m7qhicsa7sfszsso,3x31tumd71z9orqhkrbt972g1bpl1f,J8uozT9e,2020-0188,2021-10-31,11:02:04,19:59:48,NA,incomplete,false,true,NA,NA,3,29,NA,white,n_l_041.jpg,NA,NA,NA,NA,NA,pleasant,unpleasant,NA,NA,NA,NA,NA,right,1744.80000000075,true,NA,NA,NA,NA,NA,NA,NA,NA
J8uozT9e,3fk4g712o0duz4m7qhicsa7sfszsso,3x31tumd71z9orqhkrbt972g1bpl1f,J8uozT9e,2020-0188,2021-10-31,11:02:04,19:59:48,NA,incomplete,false,true,NA,NA,3,30,NA,brown,m_l_041.jpg,NA,NA,NA,NA,NA,unpleasant,pleasant,NA,NA,NA,NA,NA,left,1956.19999999925,true,NA,NA,NA,NA,NA,NA,NA,NA
J8uozT9e,3fk4g712o0duz4m7qhicsa7sfszsso,3x31tumd71z9orqhkrbt972g1bpl1f,J8uozT9e,2020-0188,2021-10-31,11:02:04,19:59:48,NA,incomplete,false,true,NA,NA,3,31,NA,brown,n_s_102.jpg,NA,NA,NA,NA,NA,pleasant,unpleasant,NA,NA,NA,NA,NA,left,1795.19999999925,true,NA,NA,NA,NA,NA,NA,NA,NA
J8uozT9e,3fk4g712o0duz4m7qhicsa7sfszsso,3x31tumd71z9orqhkrbt972g1bpl1f,J8uozT9e,2020-0188,2021-10-31,11:02:04,19:59:48,NA,incomplete,false,true,NA,NA,3,32,NA,brown,n_l_002.jpg,NA,NA,NA,NA,NA,pleasant,unpleasant,NA,NA,NA,NA,NA,left,1823.89999999851,true,NA,NA,NA,NA,NA,NA,NA,NA
J8uozT9e,3fk4g712o0duz4m7qhicsa7sfszsso,3x31tumd71z9orqhkrbt972g1bpl1f,J8uozT9e,2020-0188,2021-10-31,11:02:04,19:59:48,NA,incomplete,false,true,NA,NA,3,33,NA,brown,n_l_082.jpg,NA,NA,NA,NA,NA,unpleasant,pleasant,NA,NA,NA,NA,NA,left,2074.30000000075,true,NA,NA,NA,NA,NA,NA,NA,NA
J8uozT9e,3fk4g712o0duz4m7qhicsa7sfszsso,3x31tumd71z9orqhkrbt972g1bpl1f,J8uozT9e,2020-0188,2021-10-31,11:02:04,19:59:48,NA,incomplete,false,true,NA,NA,3,34,NA,brown,n_s_108.jpg,NA,NA,NA,NA,NA,pleasant,unpleasant,NA,NA,NA,NA,NA,left,1866.39999999851,true,NA,NA,NA,NA,NA,NA,NA,NA
J8uozT9e,3fk4g712o0duz4m7qhicsa7sfszsso,3x31tumd71z9orqhkrbt972g1bpl1f,J8uozT9e,2020-0188,2021-10-31,11:02:04,19:59:48,NA,incomplete,false,true,NA,NA,3,35,NA,brown,n_l_054.jpg,NA,NA,NA,NA,NA,pleasant,unpleasant,NA,NA,NA,NA,NA,left,1961.30000000075,true,NA,NA,NA,NA,NA,NA,NA,NA
J8uozT9e,3fk4g712o0duz4m7qhicsa7sfszsso,3x31tumd71z9orqhkrbt972g1bpl1f,J8uozT9e,2020-0188,2021-10-31,11:02:04,19:59:48,NA,incomplete,false,NA,NA,true,3,0,NA,NA,NA,right,n_s_094.jpg,blue,purple,NA,NA,NA,NA,NA,NA,NA,NA,NA,NaN,NA,9320.20000000298,right,1,NA,NA,NA,NA,NA
J8uozT9e,3fk4g712o0duz4m7qhicsa7sfszsso,3x31tumd71z9orqhkrbt972g1bpl1f,J8uozT9e,2020-0188,2021-10-31,11:02:04,19:59:48,NA,incomplete,false,NA,NA,true,3,1,NA,NA,NA,left,n_l_002.jpg,brown,white,NA,NA,NA,NA,NA,NA,NA,NA,NA,NaN,NA,9208.39999999851,left,1,NA,NA,NA,NA,NA
J8uozT9e,3fk4g712o0duz4m7qhicsa7sfszsso,3x31tumd71z9orqhkrbt972g1bpl1f,J8uozT9e,2020-0188,2021-10-31,11:02:04,19:59:48,NA,incomplete,false,NA,NA,true,3,2,NA,NA,NA,left,n_l_054.jpg,brown,white,NA,NA,NA,NA,NA,NA,NA,NA,NA,NaN,NA,11569.5,left,1,NA,NA,NA,NA,NA
J8uozT9e,3fk4g712o0duz4m7qhicsa7sfszsso,3x31tumd71z9orqhkrbt972g1bpl1f,J8uozT9e,2020-0188,2021-10-31,11:02:04,19:59:48,NA,incomplete,false,NA,NA,true,3,3,NA,NA,NA,left,m_l_023.jpg,purple,orange,NA,NA,NA,NA,NA,NA,NA,NA,NA,NaN,NA,9260.20000000298,left,1,NA,NA,NA,NA,NA
J8uozT9e,3fk4g712o0duz4m7qhicsa7sfszsso,3x31tumd71z9orqhkrbt972g1bpl1f,J8uozT9e,2020-0188,2021-10-31,11:02:04,19:59:48,NA,incomplete,false,NA,NA,true,3,4,NA,NA,NA,left,m_s_008.jpg,blue,purple,NA,NA,NA,NA,NA,NA,NA,NA,NA,NaN,NA,6441.10000000149,left,1,NA,NA,NA,NA,NA
J8uozT9e,3fk4g712o0duz4m7qhicsa7sfszsso,3x31tumd71z9orqhkrbt972g1bpl1f,J8uozT9e,2020-0188,2021-10-31,11:02:04,19:59:48,NA,incomplete,false,NA,NA,true,3,5,NA,NA,NA,left,m_s_112.jpg,orange,purple,NA,NA,NA,NA,NA,NA,NA,NA,NA,NaN,NA,4324.5,left,1,NA,NA,NA,NA,NA
J8uozT9e,3fk4g712o0duz4m7qhicsa7sfszsso,3x31tumd71z9orqhkrbt972g1bpl1f,J8uozT9e,2020-0188,2021-10-31,11:02:04,19:59:48,NA,incomplete,false,NA,NA,true,3,6,NA,NA,NA,left,m_s_055.jpg,purple,orange,NA,NA,NA,NA,NA,NA,NA,NA,NA,NaN,NA,5452.900000002235,left,1,NA,NA,NA,NA,NA
J8uozT9e,3fk4g712o0duz4m7qhicsa7sfszsso,3x31tumd71z9orqhkrbt972g1bpl1f,J8uozT9e,2020-0188,2021-10-31,11:02:04,19:59:48,NA,incomplete,false,NA,NA,true,3,7,NA,NA,NA,right,m_s_098.jpg,blue,red,NA,NA,NA,NA,NA,NA,NA,NA,NA,NaN,NA,9610.199999999255,right,1,NA,NA,NA,NA,NA
J8uozT9e,3fk4g712o0duz4m7qhicsa7sfszsso,3x31tumd71z9orqhkrbt972g1bpl1f,J8uozT9e,2020-0188,2021-10-31,11:02:04,19:59:48,NA,incomplete,false,NA,NA,true,3,8,NA,NA,NA,right,n_s_087.jpg,purple,orange,NA,NA,NA,NA,NA,NA,NA,NA,NA,NaN,NA,10390.5,right,1,NA,NA,NA,NA,NA
J8uozT9e,3fk4g712o0duz4m7qhicsa7sfszsso,3x31tumd71z9orqhkrbt972g1bpl1f,J8uozT9e,2020-0188,2021-10-31,11:02:04,19:59:48,NA,incomplete,false,NA,NA,true,3,9,NA,NA,NA,left,n_s_033.jpg,orange,purple,NA,NA,NA,NA,NA,NA,NA,NA,NA,NaN,NA,4299.10000000149,left,1,NA,NA,NA,NA,NA
J8uozT9e,3fk4g712o0duz4m7qhicsa7sfszsso,3x31tumd71z9orqhkrbt972g1bpl1f,J8uozT9e,2020-0188,2021-10-31,11:02:04,19:59:48,NA,incomplete,false,NA,NA,true,3,10,NA,NA,NA,left,n_l_028.jpg,red,white,NA,NA,NA,NA,NA,NA,NA,NA,NA,NaN,NA,10899.5,left,1,NA,NA,NA,NA,NA
J8uozT9e,3fk4g712o0duz4m7qhicsa7sfszsso,3x31tumd71z9orqhkrbt972g1bpl1f,J8uozT9e,2020-0188,2021-10-31,11:02:04,19:59:48,NA,incomplete,false,NA,NA,true,3,11,NA,NA,NA,right,n_s_039.jpg,purple,blue,NA,NA,NA,NA,NA,NA,NA,NA,NA,NaN,NA,4899,right,1,NA,NA,NA,NA,NA
J8uozT9e,3fk4g712o0duz4m7qhicsa7sfszsso,3x31tumd71z9orqhkrbt972g1bpl1f,J8uozT9e,2020-0188,2021-10-31,11:02:04,19:59:48,NA,incomplete,false,NA,NA,true,3,12,NA,NA,NA,right,m_l_090.jpg,white,red,NA,NA,NA,NA,NA,NA,NA,NA,NA,NaN,NA,6988.10000000149,right,1,NA,NA,NA,NA,NA
J8uozT9e,3fk4g712o0duz4m7qhicsa7sfszsso,3x31tumd71z9orqhkrbt972g1bpl1f,J8uozT9e,2020-0188,2021-10-31,11:02:04,19:59:48,NA,incomplete,false,NA,NA,true,3,13,NA,NA,NA,left,n_s_002.jpg,blue,purple,NA,NA,NA,NA,NA,NA,NA,NA,NA,NaN,NA,12229.300000000745,left,1,NA,NA,NA,NA,NA
J8uozT9e,3fk4g712o0duz4m7qhicsa7sfszsso,3x31tumd71z9orqhkrbt972g1bpl1f,J8uozT9e,2020-0188,2021-10-31,11:02:04,19:59:48,NA,incomplete,false,NA,NA,true,3,14,NA,NA,NA,left,n_s_086.jpg,purple,orange,NA,NA,NA,NA,NA,NA,NA,NA,NA,NaN,NA,15870.89999999851,left,1,NA,NA,NA,NA,NA
J8uozT9e,3fk4g712o0duz4m7qhicsa7sfszsso,3x31tumd71z9orqhkrbt972g1bpl1f,J8uozT9e,2020-0188,2021-10-31,11:02:04,19:59:48,NA,incomplete,false,NA,NA,true,3,15,NA,NA,NA,right,m_l_094.jpg,blue,red,NA,NA,NA,NA,NA,NA,NA,NA,NA,NaN,NA,6620,right,1,NA,NA,NA,NA,NA
J8uozT9e,3fk4g712o0duz4m7qhicsa7sfszsso,3x31tumd71z9orqhkrbt972g1bpl1f,J8uozT9e,2020-0188,2021-10-31,11:02:04,19:59:48,NA,incomplete,false,NA,NA,true,3,16,NA,NA,NA,right,n_l_036.jpg,purple,blue,NA,NA,NA,NA,NA,NA,NA,NA,NA,NaN,NA,9369.300000000745,right,1,NA,NA,NA,NA,NA
J8uozT9e,3fk4g712o0duz4m7qhicsa7sfszsso,3x31tumd71z9orqhkrbt972g1bpl1f,J8uozT9e,2020-0188,2021-10-31,11:02:04,19:59:48,NA,incomplete,false,NA,NA,true,3,17,NA,NA,NA,right,m_s_050.jpg,brown,white,NA,NA,NA,NA,NA,NA,NA,NA,NA,NaN,NA,9590.89999999851,right,1,NA,NA,NA,NA,NA
J8uozT9e,3fk4g712o0duz4m7qhicsa7sfszsso,3x31tumd71z9orqhkrbt972g1bpl1f,J8uozT9e,2020-0188,2021-10-31,11:02:04,19:59:48,NA,incomplete,false,NA,NA,true,3,18,NA,NA,NA,left,n_l_041.jpg,white,red,NA,NA,NA,NA,NA,NA,NA,NA,NA,NaN,NA,8668.599999997765,left,1,NA,NA,NA,NA,NA
J8uozT9e,3fk4g712o0duz4m7qhicsa7sfszsso,3x31tumd71z9orqhkrbt972g1bpl1f,J8uozT9e,2020-0188,2021-10-31,11:02:04,19:59:48,NA,incomplete,false,NA,NA,true,3,19,NA,NA,NA,right,n_l_061.jpg,red,white,NA,NA,NA,NA,NA,NA,NA,NA,NA,NaN,NA,13559.39999999851,right,1,NA,NA,NA,NA,NA
J8uozT9e,3fk4g712o0duz4m7qhicsa7sfszsso,3x31tumd71z9orqhkrbt972g1bpl1f,J8uozT9e,2020-0188,2021-10-31,11:02:04,19:59:48,NA,incomplete,false,NA,NA,true,3,20,NA,NA,NA,left,n_s_102.jpg,brown,white,NA,NA,NA,NA,NA,NA,NA,NA,NA,NaN,NA,8710.89999999851,left,1,NA,NA,NA,NA,NA
J8uozT9e,3fk4g712o0duz4m7qhicsa7sfszsso,3x31tumd71z9orqhkrbt972g1bpl1f,J8uozT9e,2020-0188,2021-10-31,11:02:04,19:59:48,NA,incomplete,false,NA,NA,true,3,21,NA,NA,NA,right,m_l_063.jpg,red,white,NA,NA,NA,NA,NA,NA,NA,NA,NA,NaN,NA,5820.60000000149,right,1,NA,NA,NA,NA,NA
J8uozT9e,3fk4g712o0duz4m7qhicsa7sfszsso,3x31tumd71z9orqhkrbt972g1bpl1f,J8uozT9e,2020-0188,2021-10-31,11:02:04,19:59:48,NA,incomplete,false,NA,true,NA,3,0,NA,NA,NA,left,NA,NA,NA,present,NA,NA,n_l_036.jpg,blue,m_l_094.jpg,red,between,NA,NaN,NA,NA,NA,NA,left,10999.60000000149,1,1,6337.70000000298
J8uozT9e,3fk4g712o0duz4m7qhicsa7sfszsso,3x31tumd71z9orqhkrbt972g1bpl1f,J8uozT9e,2020-0188,2021-10-31,11:02:04,19:59:48,NA,incomplete,false,NA,true,NA,3,1,NA,NA,NA,right,NA,NA,NA,present,NA,NA,n_l_054.jpg,brown,n_s_102.jpg,brown,within,NA,NaN,NA,NA,NA,NA,left,11788.900000002235,0,1,5109.599999997765
J8uozT9e,3fk4g712o0duz4m7qhicsa7sfszsso,3x31tumd71z9orqhkrbt972g1bpl1f,J8uozT9e,2020-0188,2021-10-31,11:02:04,19:59:48,NA,incomplete,false,NA,true,NA,3,2,NA,NA,NA,right,NA,NA,NA,present,NA,NA,m_s_055.jpg,purple,n_s_094.jpg,purple,within,NA,NaN,NA,NA,NA,NA,right,11258,1,1,4430.10000000149
J8uozT9e,3fk4g712o0duz4m7qhicsa7sfszsso,3x31tumd71z9orqhkrbt972g1bpl1f,J8uozT9e,2020-0188,2021-10-31,11:02:04,19:59:48,NA,incomplete,false,NA,true,NA,3,3,NA,NA,NA,right,NA,NA,NA,present,NA,NA,m_s_098.jpg,red,m_l_090.jpg,red,within,NA,NaN,NA,NA,NA,NA,right,10273.5,1,1,4094.199999999255
J8uozT9e,3fk4g712o0duz4m7qhicsa7sfszsso,3x31tumd71z9orqhkrbt972g1bpl1f,J8uozT9e,2020-0188,2021-10-31,11:02:04,19:59:48,NA,incomplete,false,NA,true,NA,3,4,NA,NA,NA,right,NA,NA,NA,present,NA,NA,n_l_002.jpg,brown,m_l_063.jpg,white,between,NA,NaN,NA,NA,NA,NA,right,8648,1,1,2478.5
J8uozT9e,3fk4g712o0duz4m7qhicsa7sfszsso,3x31tumd71z9orqhkrbt972g1bpl1f,J8uozT9e,2020-0188,2021-10-31,11:02:04,19:59:48,NA,incomplete,false,NA,true,NA,3,5,NA,NA,NA,left,NA,NA,NA,present,NA,NA,m_s_112.jpg,orange,n_s_087.jpg,orange,within,NA,NaN,NA,NA,NA,NA,left,15170.10000000149,1,1,4581.199999999255
J8uozT9e,3fk4g712o0duz4m7qhicsa7sfszsso,3x31tumd71z9orqhkrbt972g1bpl1f,J8uozT9e,2020-0188,2021-10-31,11:02:04,19:59:48,NA,incomplete,false,NA,true,NA,3,6,NA,NA,NA,left,NA,NA,NA,present,NA,NA,m_s_008.jpg,blue,n_s_039.jpg,blue,within,NA,NaN,NA,NA,NA,NA,left,12743.699999999255,1,1,2417.599999997765
J8uozT9e,3fk4g712o0duz4m7qhicsa7sfszsso,3x31tumd71z9orqhkrbt972g1bpl1f,J8uozT9e,2020-0188,2021-10-31,11:02:04,19:59:48,NA,incomplete,false,NA,true,NA,3,7,NA,NA,NA,left,NA,NA,NA,present,NA,NA,n_l_028.jpg,red,m_s_050.jpg,white,between,NA,NaN,NA,NA,NA,NA,left,22142.60000000149,1,1,2609.10000000149
J8uozT9e,3fk4g712o0duz4m7qhicsa7sfszsso,3x31tumd71z9orqhkrbt972g1bpl1f,J8uozT9e,2020-0188,2021-10-31,11:02:04,19:59:48,NA,incomplete,false,NA,true,NA,3,8,NA,NA,NA,left,NA,NA,NA,present,NA,NA,n_l_061.jpg,white,n_l_041.jpg,white,within,NA,NaN,NA,NA,NA,NA,left,6804.300000000745,1,1,2780
J8uozT9e,3fk4g712o0duz4m7qhicsa7sfszsso,3x31tumd71z9orqhkrbt972g1bpl1f,J8uozT9e,2020-0188,2021-10-31,11:02:04,19:59:48,NA,incomplete,false,NA,true,NA,3,9,NA,NA,NA,right,NA,NA,NA,present,NA,NA,n_s_002.jpg,blue,n_s_086.jpg,purple,between,NA,NaN,NA,NA,NA,NA,right,22304.900000002235,1,1,2777
J8uozT9e,3fk4g712o0duz4m7qhicsa7sfszsso,3x31tumd71z9orqhkrbt972g1bpl1f,J8uozT9e,2020-0188,2021-10-31,11:02:04,19:59:48,NA,incomplete,false,NA,true,NA,3,10,NA,NA,NA,left,NA,NA,NA,present,NA,NA,n_s_033.jpg,orange,m_l_023.jpg,purple,between,NA,NaN,NA,NA,NA,NA,left,12076.300000000745,1,1,2217.699999999255
J8uozT9e,3fk4g712o0duz4m7qhicsa7sfszsso,3x31tumd71z9orqhkrbt972g1bpl1f,J8uozT9e,2020-0188,2021-10-31,11:02:04,19:59:48,NA,incomplete,false,true,NA,NA,4,0,NA,orange,m_s_066.jpg,NA,NA,NA,NA,NA,pleasant,unpleasant,NA,NA,NA,NA,NA,left,2965.60000000149,true,NA,NA,NA,NA,NA,NA,NA,NA
J8uozT9e,3fk4g712o0duz4m7qhicsa7sfszsso,3x31tumd71z9orqhkrbt972g1bpl1f,J8uozT9e,2020-0188,2021-10-31,11:02:04,19:59:48,NA,incomplete,false,true,NA,NA,4,1,NA,orange,n_l_073.jpg,NA,NA,NA,NA,NA,pleasant,unpleasant,NA,NA,NA,NA,NA,left,3486.30000000075,true,NA,NA,NA,NA,NA,NA,NA,NA
J8uozT9e,3fk4g712o0duz4m7qhicsa7sfszsso,3x31tumd71z9orqhkrbt972g1bpl1f,J8uozT9e,2020-0188,2021-10-31,11:02:04,19:59:48,NA,incomplete,false,true,NA,NA,4,2,NA,orange,m_s_107.jpg,NA,NA,NA,NA,NA,pleasant,unpleasant,NA,NA,NA,NA,NA,none,0,false,NA,NA,NA,NA,NA,NA,NA,NA
J8uozT9e,3fk4g712o0duz4m7qhicsa7sfszsso,3x31tumd71z9orqhkrbt972g1bpl1f,J8uozT9e,2020-0188,2021-10-31,11:02:04,19:59:48,NA,incomplete,false,true,NA,NA,4,3,NA,orange,m_l_068.jpg,NA,NA,NA,NA,NA,unpleasant,pleasant,NA,NA,NA,NA,NA,left,2469.30000000075,true,NA,NA,NA,NA,NA,NA,NA,NA
J8uozT9e,3fk4g712o0duz4m7qhicsa7sfszsso,3x31tumd71z9orqhkrbt972g1bpl1f,J8uozT9e,2020-0188,2021-10-31,11:02:04,19:59:48,NA,incomplete,false,true,NA,NA,4,4,NA,orange,m_l_106.jpg,NA,NA,NA,NA,NA,unpleasant,pleasant,NA,NA,NA,NA,NA,left,1993.30000000075,true,NA,NA,NA,NA,NA,NA,NA,NA
J8uozT9e,3fk4g712o0duz4m7qhicsa7sfszsso,3x31tumd71z9orqhkrbt972g1bpl1f,J8uozT9e,2020-0188,2021-10-31,11:02:04,19:59:48,NA,incomplete,false,true,NA,NA,4,5,NA,orange,n_s_074.jpg,NA,NA,NA,NA,NA,pleasant,unpleasant,NA,NA,NA,NA,NA,left,1922.30000000075,true,NA,NA,NA,NA,NA,NA,NA,NA
J8uozT9e,3fk4g712o0duz4m7qhicsa7sfszsso,3x31tumd71z9orqhkrbt972g1bpl1f,J8uozT9e,2020-0188,2021-10-31,11:02:04,19:59:48,NA,incomplete,false,true,NA,NA,4,6,NA,gray,m_s_060.jpg,NA,NA,NA,NA,NA,unpleasant,pleasant,NA,NA,NA,NA,NA,right,1912.30000000075,true,NA,NA,NA,NA,NA,NA,NA,NA
J8uozT9e,3fk4g712o0duz4m7qhicsa7sfszsso,3x31tumd71z9orqhkrbt972g1bpl1f,J8uozT9e,2020-0188,2021-10-31,11:02:04,19:59:48,NA,incomplete,false,true,NA,NA,4,7,NA,gray,n_s_090.jpg,NA,NA,NA,NA,NA,pleasant,unpleasant,NA,NA,NA,NA,NA,right,1883.10000000149,true,NA,NA,NA,NA,NA,NA,NA,NA
J8uozT9e,3fk4g712o0duz4m7qhicsa7sfszsso,3x31tumd71z9orqhkrbt972g1bpl1f,J8uozT9e,2020-0188,2021-10-31,11:02:04,19:59:48,NA,incomplete,false,true,NA,NA,4,8,NA,gray,m_s_030.jpg,NA,NA,NA,NA,NA,unpleasant,pleasant,NA,NA,NA,NA,NA,right,1897.59999999776,true,NA,NA,NA,NA,NA,NA,NA,NA
J8uozT9e,3fk4g712o0duz4m7qhicsa7sfszsso,3x31tumd71z9orqhkrbt972g1bpl1f,J8uozT9e,2020-0188,2021-10-31,11:02:04,19:59:48,NA,incomplete,false,true,NA,NA,4,9,NA,gray,m_l_102.jpg,NA,NA,NA,NA,NA,pleasant,unpleasant,NA,NA,NA,NA,NA,right,1935.29999999702,true,NA,NA,NA,NA,NA,NA,NA,NA
J8uozT9e,3fk4g712o0duz4m7qhicsa7sfszsso,3x31tumd71z9orqhkrbt972g1bpl1f,J8uozT9e,2020-0188,2021-10-31,11:02:04,19:59:48,NA,incomplete,false,true,NA,NA,4,10,NA,gray,n_l_117.jpg,NA,NA,NA,NA,NA,pleasant,unpleasant,NA,NA,NA,NA,NA,right,1903.60000000149,true,NA,NA,NA,NA,NA,NA,NA,NA
J8uozT9e,3fk4g712o0duz4m7qhicsa7sfszsso,3x31tumd71z9orqhkrbt972g1bpl1f,J8uozT9e,2020-0188,2021-10-31,11:02:04,19:59:48,NA,incomplete,false,true,NA,NA,4,11,NA,gray,m_s_056.jpg,NA,NA,NA,NA,NA,unpleasant,pleasant,NA,NA,NA,NA,NA,right,1947.89999999851,true,NA,NA,NA,NA,NA,NA,NA,NA
J8uozT9e,3fk4g712o0duz4m7qhicsa7sfszsso,3x31tumd71z9orqhkrbt972g1bpl1f,J8uozT9e,2020-0188,2021-10-31,11:02:04,19:59:48,NA,incomplete,false,true,NA,NA,4,12,NA,white,n_s_061.jpg,NA,NA,NA,NA,NA,pleasant,unpleasant,NA,NA,NA,NA,NA,left,2138.30000000075,true,NA,NA,NA,NA,NA,NA,NA,NA
J8uozT9e,3fk4g712o0duz4m7qhicsa7sfszsso,3x31tumd71z9orqhkrbt972g1bpl1f,J8uozT9e,2020-0188,2021-10-31,11:02:04,19:59:48,NA,incomplete,false,true,NA,NA,4,13,NA,white,m_s_059.jpg,NA,NA,NA,NA,NA,unpleasant,pleasant,NA,NA,NA,NA,NA,left,1824.5,true,NA,NA,NA,NA,NA,NA,NA,NA
J8uozT9e,3fk4g712o0duz4m7qhicsa7sfszsso,3x31tumd71z9orqhkrbt972g1bpl1f,J8uozT9e,2020-0188,2021-10-31,11:02:04,19:59:48,NA,incomplete,false,true,NA,NA,4,14,NA,white,n_l_035.jpg,NA,NA,NA,NA,NA,pleasant,unpleasant,NA,NA,NA,NA,NA,left,1920.39999999851,true,NA,NA,NA,NA,NA,NA,NA,NA
J8uozT9e,3fk4g712o0duz4m7qhicsa7sfszsso,3x31tumd71z9orqhkrbt972g1bpl1f,J8uozT9e,2020-0188,2021-10-31,11:02:04,19:59:48,NA,incomplete,false,true,NA,NA,4,15,NA,white,m_l_001.jpg,NA,NA,NA,NA,NA,pleasant,unpleasant,NA,NA,NA,NA,NA,left,1784.19999999925,true,NA,NA,NA,NA,NA,NA,NA,NA
J8uozT9e,3fk4g712o0duz4m7qhicsa7sfszsso,3x31tumd71z9orqhkrbt972g1bpl1f,J8uozT9e,2020-0188,2021-10-31,11:02:04,19:59:48,NA,incomplete,false,true,NA,NA,4,16,NA,white,m_s_084.jpg,NA,NA,NA,NA,NA,pleasant,unpleasant,NA,NA,NA,NA,NA,left,1834.39999999851,true,NA,NA,NA,NA,NA,NA,NA,NA
J8uozT9e,3fk4g712o0duz4m7qhicsa7sfszsso,3x31tumd71z9orqhkrbt972g1bpl1f,J8uozT9e,2020-0188,2021-10-31,11:02:04,19:59:48,NA,incomplete,false,true,NA,NA,4,17,NA,white,n_l_007.jpg,NA,NA,NA,NA,NA,unpleasant,pleasant,NA,NA,NA,NA,NA,left,1896.69999999925,true,NA,NA,NA,NA,NA,NA,NA,NA
J8uozT9e,3fk4g712o0duz4m7qhicsa7sfszsso,3x31tumd71z9orqhkrbt972g1bpl1f,J8uozT9e,2020-0188,2021-10-31,11:02:04,19:59:48,NA,incomplete,false,true,NA,NA,4,18,NA,blue,m_s_099.jpg,NA,NA,NA,NA,NA,pleasant,unpleasant,NA,NA,NA,NA,NA,right,1946.80000000075,true,NA,NA,NA,NA,NA,NA,NA,NA
J8uozT9e,3fk4g712o0duz4m7qhicsa7sfszsso,3x31tumd71z9orqhkrbt972g1bpl1f,J8uozT9e,2020-0188,2021-10-31,11:02:04,19:59:48,NA,incomplete,false,true,NA,NA,4,19,NA,blue,m_l_056.jpg,NA,NA,NA,NA,NA,pleasant,unpleasant,NA,NA,NA,NA,NA,right,2344.19999999925,true,NA,NA,NA,NA,NA,NA,NA,NA
J8uozT9e,3fk4g712o0duz4m7qhicsa7sfszsso,3x31tumd71z9orqhkrbt972g1bpl1f,J8uozT9e,2020-0188,2021-10-31,11:02:04,19:59:48,NA,incomplete,false,true,NA,NA,4,20,NA,blue,m_s_042.jpg,NA,NA,NA,NA,NA,unpleasant,pleasant,NA,NA,NA,NA,NA,right,1787.39999999851,true,NA,NA,NA,NA,NA,NA,NA,NA
J8uozT9e,3fk4g712o0duz4m7qhicsa7sfszsso,3x31tumd71z9orqhkrbt972g1bpl1f,J8uozT9e,2020-0188,2021-10-31,11:02:04,19:59:48,NA,incomplete,false,true,NA,NA,4,21,NA,blue,n_s_069.jpg,NA,NA,NA,NA,NA,pleasant,unpleasant,NA,NA,NA,NA,NA,right,1944.19999999925,true,NA,NA,NA,NA,NA,NA,NA,NA
J8uozT9e,3fk4g712o0duz4m7qhicsa7sfszsso,3x31tumd71z9orqhkrbt972g1bpl1f,J8uozT9e,2020-0188,2021-10-31,11:02:04,19:59:48,NA,incomplete,false,true,NA,NA,4,22,NA,blue,m_s_102.jpg,NA,NA,NA,NA,NA,pleasant,unpleasant,NA,NA,NA,NA,NA,right,1913.69999999925,true,NA,NA,NA,NA,NA,NA,NA,NA
J8uozT9e,3fk4g712o0duz4m7qhicsa7sfszsso,3x31tumd71z9orqhkrbt972g1bpl1f,J8uozT9e,2020-0188,2021-10-31,11:02:04,19:59:48,NA,incomplete,false,true,NA,NA,4,23,NA,blue,n_s_025.jpg,NA,NA,NA,NA,NA,unpleasant,pleasant,NA,NA,NA,NA,NA,right,1730,true,NA,NA,NA,NA,NA,NA,NA,NA
J8uozT9e,3fk4g712o0duz4m7qhicsa7sfszsso,3x31tumd71z9orqhkrbt972g1bpl1f,J8uozT9e,2020-0188,2021-10-31,11:02:04,19:59:48,NA,incomplete,false,true,NA,NA,4,24,NA,red,m_s_025.jpg,NA,NA,NA,NA,NA,unpleasant,pleasant,NA,NA,NA,NA,NA,left,1910.60000000149,true,NA,NA,NA,NA,NA,NA,NA,NA
J8uozT9e,3fk4g712o0duz4m7qhicsa7sfszsso,3x31tumd71z9orqhkrbt972g1bpl1f,J8uozT9e,2020-0188,2021-10-31,11:02:04,19:59:48,NA,incomplete,false,true,NA,NA,4,25,NA,red,m_s_054.jpg,NA,NA,NA,NA,NA,pleasant,unpleasant,NA,NA,NA,NA,NA,left,1858.10000000149,true,NA,NA,NA,NA,NA,NA,NA,NA
J8uozT9e,3fk4g712o0duz4m7qhicsa7sfszsso,3x31tumd71z9orqhkrbt972g1bpl1f,J8uozT9e,2020-0188,2021-10-31,11:02:04,19:59:48,NA,incomplete,false,true,NA,NA,4,26,NA,red,n_l_078.jpg,NA,NA,NA,NA,NA,pleasant,unpleasant,NA,NA,NA,NA,NA,left,1731.69999999925,true,NA,NA,NA,NA,NA,NA,NA,NA
J8uozT9e,3fk4g712o0duz4m7qhicsa7sfszsso,3x31tumd71z9orqhkrbt972g1bpl1f,J8uozT9e,2020-0188,2021-10-31,11:02:04,19:59:48,NA,incomplete,false,true,NA,NA,4,27,NA,red,n_s_112.jpg,NA,NA,NA,NA,NA,pleasant,unpleasant,NA,NA,NA,NA,NA,left,1758.80000000075,true,NA,NA,NA,NA,NA,NA,NA,NA
J8uozT9e,3fk4g712o0duz4m7qhicsa7sfszsso,3x31tumd71z9orqhkrbt972g1bpl1f,J8uozT9e,2020-0188,2021-10-31,11:02:04,19:59:48,NA,incomplete,false,true,NA,NA,4,28,NA,red,m_s_090.jpg,NA,NA,NA,NA,NA,pleasant,unpleasant,NA,NA,NA,NA,NA,left,2091,true,NA,NA,NA,NA,NA,NA,NA,NA
J8uozT9e,3fk4g712o0duz4m7qhicsa7sfszsso,3x31tumd71z9orqhkrbt972g1bpl1f,J8uozT9e,2020-0188,2021-10-31,11:02:04,19:59:48,NA,incomplete,false,true,NA,NA,4,29,NA,red,m_s_024.jpg,NA,NA,NA,NA,NA,pleasant,unpleasant,NA,NA,NA,NA,NA,left,1833.10000000149,true,NA,NA,NA,NA,NA,NA,NA,NA
J8uozT9e,3fk4g712o0duz4m7qhicsa7sfszsso,3x31tumd71z9orqhkrbt972g1bpl1f,J8uozT9e,2020-0188,2021-10-31,11:02:04,19:59:48,NA,incomplete,false,true,NA,NA,4,30,NA,brown,m_l_014.jpg,NA,NA,NA,NA,NA,pleasant,unpleasant,NA,NA,NA,NA,NA,right,1845.5,true,NA,NA,NA,NA,NA,NA,NA,NA
J8uozT9e,3fk4g712o0duz4m7qhicsa7sfszsso,3x31tumd71z9orqhkrbt972g1bpl1f,J8uozT9e,2020-0188,2021-10-31,11:02:04,19:59:48,NA,incomplete,false,true,NA,NA,4,31,NA,brown,n_l_065.jpg,NA,NA,NA,NA,NA,pleasant,unpleasant,NA,NA,NA,NA,NA,right,1817.5,true,NA,NA,NA,NA,NA,NA,NA,NA
J8uozT9e,3fk4g712o0duz4m7qhicsa7sfszsso,3x31tumd71z9orqhkrbt972g1bpl1f,J8uozT9e,2020-0188,2021-10-31,11:02:04,19:59:48,NA,incomplete,false,true,NA,NA,4,32,NA,brown,n_s_003.jpg,NA,NA,NA,NA,NA,pleasant,unpleasant,NA,NA,NA,NA,NA,right,1905.90000000224,true,NA,NA,NA,NA,NA,NA,NA,NA
J8uozT9e,3fk4g712o0duz4m7qhicsa7sfszsso,3x31tumd71z9orqhkrbt972g1bpl1f,J8uozT9e,2020-0188,2021-10-31,11:02:04,19:59:48,NA,incomplete,false,true,NA,NA,4,33,NA,brown,m_l_022.jpg,NA,NA,NA,NA,NA,pleasant,unpleasant,NA,NA,NA,NA,NA,right,1869.90000000224,true,NA,NA,NA,NA,NA,NA,NA,NA
J8uozT9e,3fk4g712o0duz4m7qhicsa7sfszsso,3x31tumd71z9orqhkrbt972g1bpl1f,J8uozT9e,2020-0188,2021-10-31,11:02:04,19:59:48,NA,incomplete,false,true,NA,NA,4,34,NA,brown,n_l_107.jpg,NA,NA,NA,NA,NA,unpleasant,pleasant,NA,NA,NA,NA,NA,right,1701.40000000224,true,NA,NA,NA,NA,NA,NA,NA,NA
J8uozT9e,3fk4g712o0duz4m7qhicsa7sfszsso,3x31tumd71z9orqhkrbt972g1bpl1f,J8uozT9e,2020-0188,2021-10-31,11:02:04,19:59:48,NA,incomplete,false,true,NA,NA,4,35,NA,brown,n_l_011.jpg,NA,NA,NA,NA,NA,pleasant,unpleasant,NA,NA,NA,NA,NA,right,1822,true,NA,NA,NA,NA,NA,NA,NA,NA
J8uozT9e,3fk4g712o0duz4m7qhicsa7sfszsso,3x31tumd71z9orqhkrbt972g1bpl1f,J8uozT9e,2020-0188,2021-10-31,11:02:04,19:59:48,NA,incomplete,false,NA,NA,true,4,0,NA,NA,NA,right,m_s_059.jpg,gray,white,NA,NA,NA,NA,NA,NA,NA,NA,NA,NaN,NA,8979.60000000149,right,1,NA,NA,NA,NA,NA
J8uozT9e,3fk4g712o0duz4m7qhicsa7sfszsso,3x31tumd71z9orqhkrbt972g1bpl1f,J8uozT9e,2020-0188,2021-10-31,11:02:04,19:59:48,NA,incomplete,false,NA,NA,true,4,1,NA,NA,NA,left,n_s_003.jpg,brown,red,NA,NA,NA,NA,NA,NA,NA,NA,NA,NaN,NA,10897.300000000745,left,1,NA,NA,NA,NA,NA
J8uozT9e,3fk4g712o0duz4m7qhicsa7sfszsso,3x31tumd71z9orqhkrbt972g1bpl1f,J8uozT9e,2020-0188,2021-10-31,11:02:04,19:59:48,NA,incomplete,false,NA,NA,true,4,2,NA,NA,NA,left,m_s_042.jpg,blue,red,NA,NA,NA,NA,NA,NA,NA,NA,NA,NaN,NA,6959.699999999255,left,1,NA,NA,NA,NA,NA
J8uozT9e,3fk4g712o0duz4m7qhicsa7sfszsso,3x31tumd71z9orqhkrbt972g1bpl1f,J8uozT9e,2020-0188,2021-10-31,11:02:04,19:59:48,NA,incomplete,false,NA,NA,true,4,3,NA,NA,NA,left,n_l_117.jpg,gray,white,NA,NA,NA,NA,NA,NA,NA,NA,NA,NaN,NA,5824.5,left,1,NA,NA,NA,NA,NA
J8uozT9e,3fk4g712o0duz4m7qhicsa7sfszsso,3x31tumd71z9orqhkrbt972g1bpl1f,J8uozT9e,2020-0188,2021-10-31,11:02:04,19:59:48,NA,incomplete,false,NA,NA,true,4,4,NA,NA,NA,left,n_l_078.jpg,red,brown,NA,NA,NA,NA,NA,NA,NA,NA,NA,NaN,NA,6487.79999999702,left,1,NA,NA,NA,NA,NA
J8uozT9e,3fk4g712o0duz4m7qhicsa7sfszsso,3x31tumd71z9orqhkrbt972g1bpl1f,J8uozT9e,2020-0188,2021-10-31,11:02:04,19:59:48,NA,incomplete,false,NA,NA,true,4,5,NA,NA,NA,left,n_s_074.jpg,orange,gray,NA,NA,NA,NA,NA,NA,NA,NA,NA,NaN,NA,8683,left,1,NA,NA,NA,NA,NA
J8uozT9e,3fk4g712o0duz4m7qhicsa7sfszsso,3x31tumd71z9orqhkrbt972g1bpl1f,J8uozT9e,2020-0188,2021-10-31,11:02:04,19:59:48,NA,incomplete,false,NA,NA,true,4,6,NA,NA,NA,left,m_l_056.jpg,blue,red,NA,NA,NA,NA,NA,NA,NA,NA,NA,NaN,NA,8429.300000000745,left,1,NA,NA,NA,NA,NA
J8uozT9e,3fk4g712o0duz4m7qhicsa7sfszsso,3x31tumd71z9orqhkrbt972g1bpl1f,J8uozT9e,2020-0188,2021-10-31,11:02:04,19:59:48,NA,incomplete,false,NA,NA,true,4,7,NA,NA,NA,left,n_l_065.jpg,brown,red,NA,NA,NA,NA,NA,NA,NA,NA,NA,NaN,NA,5207.199999999255,left,1,NA,NA,NA,NA,NA
J8uozT9e,3fk4g712o0duz4m7qhicsa7sfszsso,3x31tumd71z9orqhkrbt972g1bpl1f,J8uozT9e,2020-0188,2021-10-31,11:02:04,19:59:48,NA,incomplete,false,NA,NA,true,4,8,NA,NA,NA,right,n_l_035.jpg,gray,white,NA,NA,NA,NA,NA,NA,NA,NA,NA,NaN,NA,6830.10000000149,right,1,NA,NA,NA,NA,NA
J8uozT9e,3fk4g712o0duz4m7qhicsa7sfszsso,3x31tumd71z9orqhkrbt972g1bpl1f,J8uozT9e,2020-0188,2021-10-31,11:02:04,19:59:48,NA,incomplete,false,NA,NA,true,4,9,NA,NA,NA,right,m_l_106.jpg,gray,orange,NA,NA,NA,NA,NA,NA,NA,NA,NA,NaN,NA,7056.099999997765,right,1,NA,NA,NA,NA,NA
J8uozT9e,3fk4g712o0duz4m7qhicsa7sfszsso,3x31tumd71z9orqhkrbt972g1bpl1f,J8uozT9e,2020-0188,2021-10-31,11:02:04,19:59:48,NA,incomplete,false,NA,NA,true,4,10,NA,NA,NA,left,m_s_030.jpg,gray,white,NA,NA,NA,NA,NA,NA,NA,NA,NA,NaN,NA,7579.400000002235,left,1,NA,NA,NA,NA,NA
J8uozT9e,3fk4g712o0duz4m7qhicsa7sfszsso,3x31tumd71z9orqhkrbt972g1bpl1f,J8uozT9e,2020-0188,2021-10-31,11:02:04,19:59:48,NA,incomplete,false,NA,NA,true,4,11,NA,NA,NA,left,m_s_054.jpg,red,blue,NA,NA,NA,NA,NA,NA,NA,NA,NA,NaN,NA,7137.800000000745,left,1,NA,NA,NA,NA,NA
J8uozT9e,3fk4g712o0duz4m7qhicsa7sfszsso,3x31tumd71z9orqhkrbt972g1bpl1f,J8uozT9e,2020-0188,2021-10-31,11:02:04,19:59:48,NA,incomplete,false,NA,NA,true,4,12,NA,NA,NA,right,n_l_007.jpg,blue,white,NA,NA,NA,NA,NA,NA,NA,NA,NA,NaN,NA,7429.29999999702,right,1,NA,NA,NA,NA,NA
J8uozT9e,3fk4g712o0duz4m7qhicsa7sfszsso,3x31tumd71z9orqhkrbt972g1bpl1f,J8uozT9e,2020-0188,2021-10-31,11:02:04,19:59:48,NA,incomplete,false,NA,NA,true,4,13,NA,NA,NA,right,n_s_025.jpg,red,blue,NA,NA,NA,NA,NA,NA,NA,NA,NA,NaN,NA,9481.10000000149,right,1,NA,NA,NA,NA,NA
J8uozT9e,3fk4g712o0duz4m7qhicsa7sfszsso,3x31tumd71z9orqhkrbt972g1bpl1f,J8uozT9e,2020-0188,2021-10-31,11:02:04,19:59:48,NA,incomplete,false,NA,NA,true,4,14,NA,NA,NA,right,n_s_090.jpg,white,gray,NA,NA,NA,NA,NA,NA,NA,NA,NA,NaN,NA,8459.5,right,1,NA,NA,NA,NA,NA
J8uozT9e,3fk4g712o0duz4m7qhicsa7sfszsso,3x31tumd71z9orqhkrbt972g1bpl1f,J8uozT9e,2020-0188,2021-10-31,11:02:04,19:59:48,NA,incomplete,false,NA,NA,true,4,15,NA,NA,NA,right,m_s_084.jpg,blue,white,NA,NA,NA,NA,NA,NA,NA,NA,NA,NaN,NA,7880.599999997765,right,1,NA,NA,NA,NA,NA
J8uozT9e,3fk4g712o0duz4m7qhicsa7sfszsso,3x31tumd71z9orqhkrbt972g1bpl1f,J8uozT9e,2020-0188,2021-10-31,11:02:04,19:59:48,NA,incomplete,false,NA,NA,true,4,16,NA,NA,NA,right,n_l_073.jpg,gray,orange,NA,NA,NA,NA,NA,NA,NA,NA,NA,NaN,NA,8758.800000000745,right,1,NA,NA,NA,NA,NA
J8uozT9e,3fk4g712o0duz4m7qhicsa7sfszsso,3x31tumd71z9orqhkrbt972g1bpl1f,J8uozT9e,2020-0188,2021-10-31,11:02:04,19:59:48,NA,incomplete,false,NA,NA,true,4,17,NA,NA,NA,right,m_s_056.jpg,white,gray,NA,NA,NA,NA,NA,NA,NA,NA,NA,NaN,NA,6677.699999999255,right,1,NA,NA,NA,NA,NA
J8uozT9e,3fk4g712o0duz4m7qhicsa7sfszsso,3x31tumd71z9orqhkrbt972g1bpl1f,J8uozT9e,2020-0188,2021-10-31,11:02:04,19:59:48,NA,incomplete,false,NA,NA,true,4,18,NA,NA,NA,left,m_s_102.jpg,blue,white,NA,NA,NA,NA,NA,NA,NA,NA,NA,NaN,NA,11247.79999999702,left,1,NA,NA,NA,NA,NA
J8uozT9e,3fk4g712o0duz4m7qhicsa7sfszsso,3x31tumd71z9orqhkrbt972g1bpl1f,J8uozT9e,2020-0188,2021-10-31,11:02:04,19:59:48,NA,incomplete,false,NA,NA,true,4,19,NA,NA,NA,left,m_s_024.jpg,red,brown,NA,NA,NA,NA,NA,NA,NA,NA,NA,NaN,NA,10698.599999997765,left,1,NA,NA,NA,NA,NA
J8uozT9e,3fk4g712o0duz4m7qhicsa7sfszsso,3x31tumd71z9orqhkrbt972g1bpl1f,J8uozT9e,2020-0188,2021-10-31,11:02:04,19:59:48,NA,incomplete,false,NA,NA,true,4,20,NA,NA,NA,right,m_s_090.jpg,blue,red,NA,NA,NA,NA,NA,NA,NA,NA,NA,NaN,NA,7066.10000000149,right,1,NA,NA,NA,NA,NA
J8uozT9e,3fk4g712o0duz4m7qhicsa7sfszsso,3x31tumd71z9orqhkrbt972g1bpl1f,J8uozT9e,2020-0188,2021-10-31,11:02:04,19:59:48,NA,incomplete,false,NA,NA,true,4,21,NA,NA,NA,right,n_l_011.jpg,red,brown,NA,NA,NA,NA,NA,NA,NA,NA,NA,NaN,NA,7820.39999999851,right,1,NA,NA,NA,NA,NA
J8uozT9e,3fk4g712o0duz4m7qhicsa7sfszsso,3x31tumd71z9orqhkrbt972g1bpl1f,J8uozT9e,2020-0188,2021-10-31,11:02:04,19:59:48,NA,incomplete,false,NA,true,NA,4,0,NA,NA,NA,right,NA,NA,NA,present,NA,NA,n_l_035.jpg,white,n_l_117.jpg,gray,between,NA,NaN,NA,NA,NA,NA,right,17157,1,1,2204.699999999255
J8uozT9e,3fk4g712o0duz4m7qhicsa7sfszsso,3x31tumd71z9orqhkrbt972g1bpl1f,J8uozT9e,2020-0188,2021-10-31,11:02:04,19:59:48,NA,incomplete,false,NA,true,NA,4,1,NA,NA,NA,right,NA,NA,NA,present,NA,NA,m_s_042.jpg,blue,m_s_084.jpg,white,between,NA,NaN,NA,NA,NA,NA,right,12441.29999999702,1,1,1928.800000000745
J8uozT9e,3fk4g712o0duz4m7qhicsa7sfszsso,3x31tumd71z9orqhkrbt972g1bpl1f,J8uozT9e,2020-0188,2021-10-31,11:02:04,19:59:48,NA,incomplete,false,NA,true,NA,4,2,NA,NA,NA,left,NA,NA,NA,present,NA,NA,n_s_090.jpg,gray,m_s_056.jpg,gray,within,NA,NaN,NA,NA,NA,NA,left,12640.800000000745,1,1,2201.7999999970198
J8uozT9e,3fk4g712o0duz4m7qhicsa7sfszsso,3x31tumd71z9orqhkrbt972g1bpl1f,J8uozT9e,2020-0188,2021-10-31,11:02:04,19:59:48,NA,incomplete,false,NA,true,NA,4,3,NA,NA,NA,right,NA,NA,NA,present,NA,NA,n_l_078.jpg,red,m_s_102.jpg,blue,between,NA,NaN,NA,NA,NA,NA,right,10528.800000000745,1,1,2918.300000000745
J8uozT9e,3fk4g712o0duz4m7qhicsa7sfszsso,3x31tumd71z9orqhkrbt972g1bpl1f,J8uozT9e,2020-0188,2021-10-31,11:02:04,19:59:48,NA,incomplete,false,NA,true,NA,4,4,NA,NA,NA,left,NA,NA,NA,present,NA,NA,m_s_090.jpg,red,n_s_003.jpg,brown,between,NA,NaN,NA,NA,NA,NA,left,8129.199999999255,1,1,2572.39999999851
J8uozT9e,3fk4g712o0duz4m7qhicsa7sfszsso,3x31tumd71z9orqhkrbt972g1bpl1f,J8uozT9e,2020-0188,2021-10-31,11:02:04,19:59:48,NA,incomplete,false,NA,true,NA,4,5,NA,NA,NA,right,NA,NA,NA,present,NA,NA,n_s_025.jpg,blue,m_l_056.jpg,blue,within,NA,NaN,NA,NA,NA,NA,right,9578.599999997765,1,1,3837.900000002235
J8uozT9e,3fk4g712o0duz4m7qhicsa7sfszsso,3x31tumd71z9orqhkrbt972g1bpl1f,J8uozT9e,2020-0188,2021-10-31,11:02:04,19:59:48,NA,incomplete,false,NA,true,NA,4,6,NA,NA,NA,left,NA,NA,NA,present,NA,NA,n_l_065.jpg,brown,n_l_011.jpg,brown,within,NA,NaN,NA,NA,NA,NA,left,7852.5,1,1,2815.800000000745
J8uozT9e,3fk4g712o0duz4m7qhicsa7sfszsso,3x31tumd71z9orqhkrbt972g1bpl1f,J8uozT9e,2020-0188,2021-10-31,11:02:04,19:59:48,NA,incomplete,false,NA,true,NA,4,7,NA,NA,NA,right,NA,NA,NA,present,NA,NA,m_s_024.jpg,red,m_s_054.jpg,red,within,NA,NaN,NA,NA,NA,NA,right,8781.60000000149,1,1,3342.599999997765
J8uozT9e,3fk4g712o0duz4m7qhicsa7sfszsso,3x31tumd71z9orqhkrbt972g1bpl1f,J8uozT9e,2020-0188,2021-10-31,11:02:04,19:59:48,NA,incomplete,false,NA,true,NA,4,8,NA,NA,NA,right,NA,NA,NA,present,NA,NA,n_l_007.jpg,white,m_s_059.jpg,white,within,NA,NaN,NA,NA,NA,NA,right,13711.699999999255,1,1,3608.400000002235
J8uozT9e,3fk4g712o0duz4m7qhicsa7sfszsso,3x31tumd71z9orqhkrbt972g1bpl1f,J8uozT9e,2020-0188,2021-10-31,11:02:04,19:59:48,NA,incomplete,false,NA,true,NA,4,9,NA,NA,NA,left,NA,NA,NA,present,NA,NA,n_l_073.jpg,orange,n_s_074.jpg,orange,within,NA,NaN,NA,NA,NA,NA,left,7732.39999999851,1,1,5479.5
J8uozT9e,3fk4g712o0duz4m7qhicsa7sfszsso,3x31tumd71z9orqhkrbt972g1bpl1f,J8uozT9e,2020-0188,2021-10-31,11:02:04,19:59:48,NA,incomplete,false,NA,true,NA,4,10,NA,NA,NA,right,NA,NA,NA,present,NA,NA,m_s_030.jpg,gray,m_l_106.jpg,orange,between,NA,NaN,NA,NA,NA,NA,right,12299.699999999255,1,1,3260.199999999255
J8uozT9e,3fk4g712o0duz4m7qhicsa7sfszsso,3x31tumd71z9orqhkrbt972g1bpl1f,J8uozT9e,2020-0188,2021-10-31,11:02:04,19:59:48,NA,incomplete,false,true,NA,NA,5,0,NA,white,m_s_004.jpg,NA,NA,NA,NA,NA,unpleasant,pleasant,NA,NA,NA,NA,NA,left,2740.29999999702,true,NA,NA,NA,NA,NA,NA,NA,NA
J8uozT9e,3fk4g712o0duz4m7qhicsa7sfszsso,3x31tumd71z9orqhkrbt972g1bpl1f,J8uozT9e,2020-0188,2021-10-31,11:02:04,19:59:48,NA,incomplete,false,true,NA,NA,5,1,NA,white,m_l_003.jpg,NA,NA,NA,NA,NA,pleasant,unpleasant,NA,NA,NA,NA,NA,left,2507,true,NA,NA,NA,NA,NA,NA,NA,NA
J8uozT9e,3fk4g712o0duz4m7qhicsa7sfszsso,3x31tumd71z9orqhkrbt972g1bpl1f,J8uozT9e,2020-0188,2021-10-31,11:02:04,19:59:48,NA,incomplete,false,true,NA,NA,5,2,NA,white,n_l_023.jpg,NA,NA,NA,NA,NA,unpleasant,pleasant,NA,NA,NA,NA,NA,left,2512.79999999702,true,NA,NA,NA,NA,NA,NA,NA,NA
J8uozT9e,3fk4g712o0duz4m7qhicsa7sfszsso,3x31tumd71z9orqhkrbt972g1bpl1f,J8uozT9e,2020-0188,2021-10-31,11:02:04,19:59:48,NA,incomplete,false,true,NA,NA,5,3,NA,white,n_l_089.jpg,NA,NA,NA,NA,NA,pleasant,unpleasant,NA,NA,NA,NA,NA,left,2485.60000000149,true,NA,NA,NA,NA,NA,NA,NA,NA
J8uozT9e,3fk4g712o0duz4m7qhicsa7sfszsso,3x31tumd71z9orqhkrbt972g1bpl1f,J8uozT9e,2020-0188,2021-10-31,11:02:04,19:59:48,NA,incomplete,false,true,NA,NA,5,4,NA,white,m_l_062.jpg,NA,NA,NA,NA,NA,unpleasant,pleasant,NA,NA,NA,NA,NA,left,2640.20000000298,true,NA,NA,NA,NA,NA,NA,NA,NA
J8uozT9e,3fk4g712o0duz4m7qhicsa7sfszsso,3x31tumd71z9orqhkrbt972g1bpl1f,J8uozT9e,2020-0188,2021-10-31,11:02:04,19:59:48,NA,incomplete,false,true,NA,NA,5,5,NA,white,m_s_079.jpg,NA,NA,NA,NA,NA,pleasant,unpleasant,NA,NA,NA,NA,NA,left,2642.79999999702,true,NA,NA,NA,NA,NA,NA,NA,NA
J8uozT9e,3fk4g712o0duz4m7qhicsa7sfszsso,3x31tumd71z9orqhkrbt972g1bpl1f,J8uozT9e,2020-0188,2021-10-31,11:02:04,19:59:48,NA,incomplete,false,true,NA,NA,5,6,NA,brown,m_l_078.jpg,NA,NA,NA,NA,NA,unpleasant,pleasant,NA,NA,NA,NA,NA,right,2382.89999999851,true,NA,NA,NA,NA,NA,NA,NA,NA
J8uozT9e,3fk4g712o0duz4m7qhicsa7sfszsso,3x31tumd71z9orqhkrbt972g1bpl1f,J8uozT9e,2020-0188,2021-10-31,11:02:04,19:59:48,NA,incomplete,false,true,NA,NA,5,7,NA,brown,m_l_095.jpg,NA,NA,NA,NA,NA,pleasant,unpleasant,NA,NA,NA,NA,NA,right,2047.30000000447,true,NA,NA,NA,NA,NA,NA,NA,NA
J8uozT9e,3fk4g712o0duz4m7qhicsa7sfszsso,3x31tumd71z9orqhkrbt972g1bpl1f,J8uozT9e,2020-0188,2021-10-31,11:02:04,19:59:48,NA,incomplete,false,true,NA,NA,5,8,NA,brown,n_l_037.jpg,NA,NA,NA,NA,NA,unpleasant,pleasant,NA,NA,NA,NA,NA,right,2239.90000000596,true,NA,NA,NA,NA,NA,NA,NA,NA
J8uozT9e,3fk4g712o0duz4m7qhicsa7sfszsso,3x31tumd71z9orqhkrbt972g1bpl1f,J8uozT9e,2020-0188,2021-10-31,11:02:04,19:59:48,NA,incomplete,false,true,NA,NA,5,9,NA,brown,m_l_046.jpg,NA,NA,NA,NA,NA,unpleasant,pleasant,NA,NA,NA,NA,NA,right,2363,true,NA,NA,NA,NA,NA,NA,NA,NA
J8uozT9e,3fk4g712o0duz4m7qhicsa7sfszsso,3x31tumd71z9orqhkrbt972g1bpl1f,J8uozT9e,2020-0188,2021-10-31,11:02:04,19:59:48,NA,incomplete,false,true,NA,NA,5,10,NA,brown,m_l_019.jpg,NA,NA,NA,NA,NA,unpleasant,pleasant,NA,NA,NA,NA,NA,right,1910.60000000149,true,NA,NA,NA,NA,NA,NA,NA,NA
J8uozT9e,3fk4g712o0duz4m7qhicsa7sfszsso,3x31tumd71z9orqhkrbt972g1bpl1f,J8uozT9e,2020-0188,2021-10-31,11:02:04,19:59:48,NA,incomplete,false,true,NA,NA,5,11,NA,brown,m_l_099.jpg,NA,NA,NA,NA,NA,pleasant,unpleasant,NA,NA,NA,NA,NA,right,2182.90000000596,true,NA,NA,NA,NA,NA,NA,NA,NA
J8uozT9e,3fk4g712o0duz4m7qhicsa7sfszsso,3x31tumd71z9orqhkrbt972g1bpl1f,J8uozT9e,2020-0188,2021-10-31,11:02:04,19:59:48,NA,incomplete,false,true,NA,NA,5,12,NA,orange,n_l_096.jpg,NA,NA,NA,NA,NA,unpleasant,pleasant,NA,NA,NA,NA,NA,none,0,false,NA,NA,NA,NA,NA,NA,NA,NA
J8uozT9e,3fk4g712o0duz4m7qhicsa7sfszsso,3x31tumd71z9orqhkrbt972g1bpl1f,J8uozT9e,2020-0188,2021-10-31,11:02:04,19:59:48,NA,incomplete,false,true,NA,NA,5,13,NA,orange,n_s_044.jpg,NA,NA,NA,NA,NA,pleasant,unpleasant,NA,NA,NA,NA,NA,left,2465.60000000149,true,NA,NA,NA,NA,NA,NA,NA,NA
J8uozT9e,3fk4g712o0duz4m7qhicsa7sfszsso,3x31tumd71z9orqhkrbt972g1bpl1f,J8uozT9e,2020-0188,2021-10-31,11:02:04,19:59:48,NA,incomplete,false,true,NA,NA,5,14,NA,orange,n_l_100.jpg,NA,NA,NA,NA,NA,pleasant,unpleasant,NA,NA,NA,NA,NA,left,2285.10000000149,true,NA,NA,NA,NA,NA,NA,NA,NA
J8uozT9e,3fk4g712o0duz4m7qhicsa7sfszsso,3x31tumd71z9orqhkrbt972g1bpl1f,J8uozT9e,2020-0188,2021-10-31,11:02:04,19:59:48,NA,incomplete,false,true,NA,NA,5,15,NA,orange,m_l_112.jpg,NA,NA,NA,NA,NA,unpleasant,pleasant,NA,NA,NA,NA,NA,left,2147.69999999553,true,NA,NA,NA,NA,NA,NA,NA,NA
J8uozT9e,3fk4g712o0duz4m7qhicsa7sfszsso,3x31tumd71z9orqhkrbt972g1bpl1f,J8uozT9e,2020-0188,2021-10-31,11:02:04,19:59:48,NA,incomplete,false,true,NA,NA,5,16,NA,orange,m_l_108.jpg,NA,NA,NA,NA,NA,unpleasant,pleasant,NA,NA,NA,NA,NA,left,2154.60000000149,true,NA,NA,NA,NA,NA,NA,NA,NA
