workerId,hitId,assignmentId,subject,studyid,exp_date,exp_start,exp_end,time_start,time_end,practice,encoding,memory,association,block,trial,event_order,event,stim,answer,object,left_context,right_context,context_type,label_left,label_right,left_image,left_event,right_image,right_event,condition,response,response_time,response_acc,association_response_time,association_response,association_acc,order_response,order_response_time,order_acc,distance_response,distance_response_time
ZBA7SlVE,3z33ic0jd3zsmh7cb6nqm2m9m84v9l,3y4w8q93l3x6crineoxuxi1ri8qvdz,ZBA7SlVE,2020-0188,2021-10-31,21:20:46,22:57:55,NA,incomplete,true,true,NA,NA,0,0,NA,green,n_s_085.jpg,NA,NA,NA,NA,NA,unpleasant,pleasant,NA,NA,NA,NA,NA,right,2701,true,NA,NA,NA,NA,NA,NA,NA,NA
ZBA7SlVE,3z33ic0jd3zsmh7cb6nqm2m9m84v9l,3y4w8q93l3x6crineoxuxi1ri8qvdz,ZBA7SlVE,2020-0188,2021-10-31,21:20:46,22:57:55,NA,incomplete,true,true,NA,NA,0,1,NA,green,n_l_050.jpg,NA,NA,NA,NA,NA,pleasant,unpleasant,NA,NA,NA,NA,NA,left,2545,true,NA,NA,NA,NA,NA,NA,NA,NA
ZBA7SlVE,3z33ic0jd3zsmh7cb6nqm2m9m84v9l,3y4w8q93l3x6crineoxuxi1ri8qvdz,ZBA7SlVE,2020-0188,2021-10-31,21:20:46,22:57:55,NA,incomplete,true,true,NA,NA,0,2,NA,green,m_l_069.jpg,NA,NA,NA,NA,NA,pleasant,unpleasant,NA,NA,NA,NA,NA,left,2228,true,NA,NA,NA,NA,NA,NA,NA,NA
ZBA7SlVE,3z33ic0jd3zsmh7cb6nqm2m9m84v9l,3y4w8q93l3x6crineoxuxi1ri8qvdz,ZBA7SlVE,2020-0188,2021-10-31,21:20:46,22:57:55,NA,incomplete,true,true,NA,NA,0,3,NA,green,m_s_005.jpg,NA,NA,NA,NA,NA,pleasant,unpleasant,NA,NA,NA,NA,NA,left,2240,true,NA,NA,NA,NA,NA,NA,NA,NA
ZBA7SlVE,3z33ic0jd3zsmh7cb6nqm2m9m84v9l,3y4w8q93l3x6crineoxuxi1ri8qvdz,ZBA7SlVE,2020-0188,2021-10-31,21:20:46,22:57:55,NA,incomplete,true,true,NA,NA,0,4,NA,green,m_l_032.jpg,NA,NA,NA,NA,NA,pleasant,unpleasant,NA,NA,NA,NA,NA,none,0,false,NA,NA,NA,NA,NA,NA,NA,NA
ZBA7SlVE,3z33ic0jd3zsmh7cb6nqm2m9m84v9l,3y4w8q93l3x6crineoxuxi1ri8qvdz,ZBA7SlVE,2020-0188,2021-10-31,21:20:46,22:57:55,NA,incomplete,true,true,NA,NA,0,5,NA,green,m_l_109.jpg,NA,NA,NA,NA,NA,unpleasant,pleasant,NA,NA,NA,NA,NA,left,1439,true,NA,NA,NA,NA,NA,NA,NA,NA
ZBA7SlVE,3z33ic0jd3zsmh7cb6nqm2m9m84v9l,3y4w8q93l3x6crineoxuxi1ri8qvdz,ZBA7SlVE,2020-0188,2021-10-31,21:20:46,22:57:55,NA,incomplete,true,true,NA,NA,0,6,NA,yellow,m_l_097.jpg,NA,NA,NA,NA,NA,pleasant,unpleasant,NA,NA,NA,NA,NA,left,2411,true,NA,NA,NA,NA,NA,NA,NA,NA
ZBA7SlVE,3z33ic0jd3zsmh7cb6nqm2m9m84v9l,3y4w8q93l3x6crineoxuxi1ri8qvdz,ZBA7SlVE,2020-0188,2021-10-31,21:20:46,22:57:55,NA,incomplete,true,true,NA,NA,0,7,NA,yellow,n_s_020.jpg,NA,NA,NA,NA,NA,pleasant,unpleasant,NA,NA,NA,NA,NA,left,1672,true,NA,NA,NA,NA,NA,NA,NA,NA
ZBA7SlVE,3z33ic0jd3zsmh7cb6nqm2m9m84v9l,3y4w8q93l3x6crineoxuxi1ri8qvdz,ZBA7SlVE,2020-0188,2021-10-31,21:20:46,22:57:55,NA,incomplete,true,true,NA,NA,0,8,NA,yellow,m_l_068.jpg,NA,NA,NA,NA,NA,pleasant,unpleasant,NA,NA,NA,NA,NA,left,2370,true,NA,NA,NA,NA,NA,NA,NA,NA
ZBA7SlVE,3z33ic0jd3zsmh7cb6nqm2m9m84v9l,3y4w8q93l3x6crineoxuxi1ri8qvdz,ZBA7SlVE,2020-0188,2021-10-31,21:20:46,22:57:55,NA,incomplete,true,true,NA,NA,0,9,NA,yellow,n_l_030.jpg,NA,NA,NA,NA,NA,pleasant,unpleasant,NA,NA,NA,NA,NA,left,2022,true,NA,NA,NA,NA,NA,NA,NA,NA
ZBA7SlVE,3z33ic0jd3zsmh7cb6nqm2m9m84v9l,3y4w8q93l3x6crineoxuxi1ri8qvdz,ZBA7SlVE,2020-0188,2021-10-31,21:20:46,22:57:55,NA,incomplete,true,true,NA,NA,0,10,NA,yellow,n_l_023.jpg,NA,NA,NA,NA,NA,unpleasant,pleasant,NA,NA,NA,NA,NA,left,1272,true,NA,NA,NA,NA,NA,NA,NA,NA
ZBA7SlVE,3z33ic0jd3zsmh7cb6nqm2m9m84v9l,3y4w8q93l3x6crineoxuxi1ri8qvdz,ZBA7SlVE,2020-0188,2021-10-31,21:20:46,22:57:55,NA,incomplete,true,true,NA,NA,0,11,NA,yellow,m_l_049.jpg,NA,NA,NA,NA,NA,unpleasant,pleasant,NA,NA,NA,NA,NA,right,1324,true,NA,NA,NA,NA,NA,NA,NA,NA
ZBA7SlVE,3z33ic0jd3zsmh7cb6nqm2m9m84v9l,3y4w8q93l3x6crineoxuxi1ri8qvdz,ZBA7SlVE,2020-0188,2021-10-31,21:20:46,22:57:55,NA,incomplete,true,true,NA,NA,0,12,NA,white,m_l_078.jpg,NA,NA,NA,NA,NA,pleasant,unpleasant,NA,NA,NA,NA,NA,left,1896,true,NA,NA,NA,NA,NA,NA,NA,NA
ZBA7SlVE,3z33ic0jd3zsmh7cb6nqm2m9m84v9l,3y4w8q93l3x6crineoxuxi1ri8qvdz,ZBA7SlVE,2020-0188,2021-10-31,21:20:46,22:57:55,NA,incomplete,true,true,NA,NA,0,13,NA,white,n_l_090.jpg,NA,NA,NA,NA,NA,pleasant,unpleasant,NA,NA,NA,NA,NA,right,2763,true,NA,NA,NA,NA,NA,NA,NA,NA
ZBA7SlVE,3z33ic0jd3zsmh7cb6nqm2m9m84v9l,3y4w8q93l3x6crineoxuxi1ri8qvdz,ZBA7SlVE,2020-0188,2021-10-31,21:20:46,22:57:55,NA,incomplete,true,true,NA,NA,0,14,NA,white,n_s_117.jpg,NA,NA,NA,NA,NA,unpleasant,pleasant,NA,NA,NA,NA,NA,left,1607,true,NA,NA,NA,NA,NA,NA,NA,NA
ZBA7SlVE,3z33ic0jd3zsmh7cb6nqm2m9m84v9l,3y4w8q93l3x6crineoxuxi1ri8qvdz,ZBA7SlVE,2020-0188,2021-10-31,21:20:46,22:57:55,NA,incomplete,true,true,NA,NA,0,15,NA,white,m_s_068.jpg,NA,NA,NA,NA,NA,unpleasant,pleasant,NA,NA,NA,NA,NA,right,1387,true,NA,NA,NA,NA,NA,NA,NA,NA
ZBA7SlVE,3z33ic0jd3zsmh7cb6nqm2m9m84v9l,3y4w8q93l3x6crineoxuxi1ri8qvdz,ZBA7SlVE,2020-0188,2021-10-31,21:20:46,22:57:55,NA,incomplete,true,true,NA,NA,0,16,NA,white,m_s_111.jpg,NA,NA,NA,NA,NA,pleasant,unpleasant,NA,NA,NA,NA,NA,left,1848,true,NA,NA,NA,NA,NA,NA,NA,NA
ZBA7SlVE,3z33ic0jd3zsmh7cb6nqm2m9m84v9l,3y4w8q93l3x6crineoxuxi1ri8qvdz,ZBA7SlVE,2020-0188,2021-10-31,21:20:46,22:57:55,NA,incomplete,true,true,NA,NA,0,17,NA,white,n_s_013.jpg,NA,NA,NA,NA,NA,unpleasant,pleasant,NA,NA,NA,NA,NA,right,1315,true,NA,NA,NA,NA,NA,NA,NA,NA
ZBA7SlVE,3z33ic0jd3zsmh7cb6nqm2m9m84v9l,3y4w8q93l3x6crineoxuxi1ri8qvdz,ZBA7SlVE,2020-0188,2021-10-31,21:20:46,22:57:55,NA,incomplete,true,true,NA,NA,0,18,NA,gray,m_l_029.jpg,NA,NA,NA,NA,NA,pleasant,unpleasant,NA,NA,NA,NA,NA,left,1719,true,NA,NA,NA,NA,NA,NA,NA,NA
ZBA7SlVE,3z33ic0jd3zsmh7cb6nqm2m9m84v9l,3y4w8q93l3x6crineoxuxi1ri8qvdz,ZBA7SlVE,2020-0188,2021-10-31,21:20:46,22:57:55,NA,incomplete,true,true,NA,NA,0,19,NA,gray,n_l_051.jpg,NA,NA,NA,NA,NA,pleasant,unpleasant,NA,NA,NA,NA,NA,right,1460,true,NA,NA,NA,NA,NA,NA,NA,NA
ZBA7SlVE,3z33ic0jd3zsmh7cb6nqm2m9m84v9l,3y4w8q93l3x6crineoxuxi1ri8qvdz,ZBA7SlVE,2020-0188,2021-10-31,21:20:46,22:57:55,NA,incomplete,true,true,NA,NA,0,20,NA,gray,n_l_071.jpg,NA,NA,NA,NA,NA,pleasant,unpleasant,NA,NA,NA,NA,NA,left,1454,true,NA,NA,NA,NA,NA,NA,NA,NA
ZBA7SlVE,3z33ic0jd3zsmh7cb6nqm2m9m84v9l,3y4w8q93l3x6crineoxuxi1ri8qvdz,ZBA7SlVE,2020-0188,2021-10-31,21:20:46,22:57:55,NA,incomplete,true,true,NA,NA,0,21,NA,gray,n_s_060.jpg,NA,NA,NA,NA,NA,unpleasant,pleasant,NA,NA,NA,NA,NA,right,1321,true,NA,NA,NA,NA,NA,NA,NA,NA
ZBA7SlVE,3z33ic0jd3zsmh7cb6nqm2m9m84v9l,3y4w8q93l3x6crineoxuxi1ri8qvdz,ZBA7SlVE,2020-0188,2021-10-31,21:20:46,22:57:55,NA,incomplete,true,true,NA,NA,0,22,NA,gray,m_l_025.jpg,NA,NA,NA,NA,NA,unpleasant,pleasant,NA,NA,NA,NA,NA,right,1550,true,NA,NA,NA,NA,NA,NA,NA,NA
ZBA7SlVE,3z33ic0jd3zsmh7cb6nqm2m9m84v9l,3y4w8q93l3x6crineoxuxi1ri8qvdz,ZBA7SlVE,2020-0188,2021-10-31,21:20:46,22:57:55,NA,incomplete,true,true,NA,NA,0,23,NA,gray,m_s_064.jpg,NA,NA,NA,NA,NA,pleasant,unpleasant,NA,NA,NA,NA,NA,left,1408,true,NA,NA,NA,NA,NA,NA,NA,NA
ZBA7SlVE,3z33ic0jd3zsmh7cb6nqm2m9m84v9l,3y4w8q93l3x6crineoxuxi1ri8qvdz,ZBA7SlVE,2020-0188,2021-10-31,21:20:46,22:57:55,NA,incomplete,true,true,NA,NA,0,24,NA,black,m_s_097.jpg,NA,NA,NA,NA,NA,unpleasant,pleasant,NA,NA,NA,NA,NA,left,1740,true,NA,NA,NA,NA,NA,NA,NA,NA
ZBA7SlVE,3z33ic0jd3zsmh7cb6nqm2m9m84v9l,3y4w8q93l3x6crineoxuxi1ri8qvdz,ZBA7SlVE,2020-0188,2021-10-31,21:20:46,22:57:55,NA,incomplete,true,true,NA,NA,0,25,NA,black,m_l_084.jpg,NA,NA,NA,NA,NA,unpleasant,pleasant,NA,NA,NA,NA,NA,none,0,false,NA,NA,NA,NA,NA,NA,NA,NA
ZBA7SlVE,3z33ic0jd3zsmh7cb6nqm2m9m84v9l,3y4w8q93l3x6crineoxuxi1ri8qvdz,ZBA7SlVE,2020-0188,2021-10-31,21:20:46,22:57:55,NA,incomplete,true,true,NA,NA,0,26,NA,black,n_l_059.jpg,NA,NA,NA,NA,NA,unpleasant,pleasant,NA,NA,NA,NA,NA,left,1404,true,NA,NA,NA,NA,NA,NA,NA,NA
ZBA7SlVE,3z33ic0jd3zsmh7cb6nqm2m9m84v9l,3y4w8q93l3x6crineoxuxi1ri8qvdz,ZBA7SlVE,2020-0188,2021-10-31,21:20:46,22:57:55,NA,incomplete,true,true,NA,NA,0,27,NA,black,n_l_036.jpg,NA,NA,NA,NA,NA,unpleasant,pleasant,NA,NA,NA,NA,NA,left,1631,true,NA,NA,NA,NA,NA,NA,NA,NA
ZBA7SlVE,3z33ic0jd3zsmh7cb6nqm2m9m84v9l,3y4w8q93l3x6crineoxuxi1ri8qvdz,ZBA7SlVE,2020-0188,2021-10-31,21:20:46,22:57:55,NA,incomplete,true,true,NA,NA,0,28,NA,black,n_s_069.jpg,NA,NA,NA,NA,NA,pleasant,unpleasant,NA,NA,NA,NA,NA,right,2045,true,NA,NA,NA,NA,NA,NA,NA,NA
ZBA7SlVE,3z33ic0jd3zsmh7cb6nqm2m9m84v9l,3y4w8q93l3x6crineoxuxi1ri8qvdz,ZBA7SlVE,2020-0188,2021-10-31,21:20:46,22:57:55,NA,incomplete,true,true,NA,NA,0,29,NA,black,n_s_051.jpg,NA,NA,NA,NA,NA,unpleasant,pleasant,NA,NA,NA,NA,NA,right,1607,true,NA,NA,NA,NA,NA,NA,NA,NA
ZBA7SlVE,3z33ic0jd3zsmh7cb6nqm2m9m84v9l,3y4w8q93l3x6crineoxuxi1ri8qvdz,ZBA7SlVE,2020-0188,2021-10-31,21:20:46,22:57:55,NA,incomplete,true,true,NA,NA,0,30,NA,blue,m_l_010.jpg,NA,NA,NA,NA,NA,unpleasant,pleasant,NA,NA,NA,NA,NA,right,2163,true,NA,NA,NA,NA,NA,NA,NA,NA
ZBA7SlVE,3z33ic0jd3zsmh7cb6nqm2m9m84v9l,3y4w8q93l3x6crineoxuxi1ri8qvdz,ZBA7SlVE,2020-0188,2021-10-31,21:20:46,22:57:55,NA,incomplete,true,true,NA,NA,0,31,NA,blue,n_s_063.jpg,NA,NA,NA,NA,NA,pleasant,unpleasant,NA,NA,NA,NA,NA,left,1928,true,NA,NA,NA,NA,NA,NA,NA,NA
ZBA7SlVE,3z33ic0jd3zsmh7cb6nqm2m9m84v9l,3y4w8q93l3x6crineoxuxi1ri8qvdz,ZBA7SlVE,2020-0188,2021-10-31,21:20:46,22:57:55,NA,incomplete,true,true,NA,NA,0,32,NA,blue,n_s_102.jpg,NA,NA,NA,NA,NA,unpleasant,pleasant,NA,NA,NA,NA,NA,right,1714,true,NA,NA,NA,NA,NA,NA,NA,NA
ZBA7SlVE,3z33ic0jd3zsmh7cb6nqm2m9m84v9l,3y4w8q93l3x6crineoxuxi1ri8qvdz,ZBA7SlVE,2020-0188,2021-10-31,21:20:46,22:57:55,NA,incomplete,true,true,NA,NA,0,33,NA,blue,m_s_098.jpg,NA,NA,NA,NA,NA,unpleasant,pleasant,NA,NA,NA,NA,NA,right,1509,true,NA,NA,NA,NA,NA,NA,NA,NA
ZBA7SlVE,3z33ic0jd3zsmh7cb6nqm2m9m84v9l,3y4w8q93l3x6crineoxuxi1ri8qvdz,ZBA7SlVE,2020-0188,2021-10-31,21:20:46,22:57:55,NA,incomplete,true,true,NA,NA,0,34,NA,blue,m_s_100.jpg,NA,NA,NA,NA,NA,unpleasant,pleasant,NA,NA,NA,NA,NA,left,1402,true,NA,NA,NA,NA,NA,NA,NA,NA
ZBA7SlVE,3z33ic0jd3zsmh7cb6nqm2m9m84v9l,3y4w8q93l3x6crineoxuxi1ri8qvdz,ZBA7SlVE,2020-0188,2021-10-31,21:20:46,22:57:55,NA,incomplete,true,true,NA,NA,0,35,NA,blue,n_s_028.jpg,NA,NA,NA,NA,NA,pleasant,unpleasant,NA,NA,NA,NA,NA,right,1309,true,NA,NA,NA,NA,NA,NA,NA,NA
ZBA7SlVE,3z33ic0jd3zsmh7cb6nqm2m9m84v9l,3y4w8q93l3x6crineoxuxi1ri8qvdz,ZBA7SlVE,2020-0188,2021-10-31,21:20:46,22:57:55,NA,incomplete,true,NA,NA,true,0,0,NA,NA,NA,right,n_l_023.jpg,white,yellow,NA,NA,NA,NA,NA,NA,NA,NA,NA,NaN,NA,4134,left,0,NA,NA,NA,NA,NA
ZBA7SlVE,3z33ic0jd3zsmh7cb6nqm2m9m84v9l,3y4w8q93l3x6crineoxuxi1ri8qvdz,ZBA7SlVE,2020-0188,2021-10-31,21:20:46,22:57:55,NA,incomplete,true,NA,NA,true,0,1,NA,NA,NA,right,m_l_032.jpg,yellow,green,NA,NA,NA,NA,NA,NA,NA,NA,NA,NaN,NA,17661,right,1,NA,NA,NA,NA,NA
ZBA7SlVE,3z33ic0jd3zsmh7cb6nqm2m9m84v9l,3y4w8q93l3x6crineoxuxi1ri8qvdz,ZBA7SlVE,2020-0188,2021-10-31,21:20:46,22:57:55,NA,incomplete,true,NA,NA,true,0,2,NA,NA,NA,right,n_s_117.jpg,gray,white,NA,NA,NA,NA,NA,NA,NA,NA,NA,NaN,NA,3510,left,0,NA,NA,NA,NA,NA
ZBA7SlVE,3z33ic0jd3zsmh7cb6nqm2m9m84v9l,3y4w8q93l3x6crineoxuxi1ri8qvdz,ZBA7SlVE,2020-0188,2021-10-31,21:20:46,22:57:55,NA,incomplete,true,NA,NA,true,0,3,NA,NA,NA,left,n_s_102.jpg,blue,black,NA,NA,NA,NA,NA,NA,NA,NA,NA,NaN,NA,3965,right,0,NA,NA,NA,NA,NA
ZBA7SlVE,3z33ic0jd3zsmh7cb6nqm2m9m84v9l,3y4w8q93l3x6crineoxuxi1ri8qvdz,ZBA7SlVE,2020-0188,2021-10-31,21:20:46,22:57:55,NA,incomplete,true,NA,NA,true,0,4,NA,NA,NA,right,m_l_025.jpg,black,gray,NA,NA,NA,NA,NA,NA,NA,NA,NA,NaN,NA,8006,left,0,NA,NA,NA,NA,NA
ZBA7SlVE,3z33ic0jd3zsmh7cb6nqm2m9m84v9l,3y4w8q93l3x6crineoxuxi1ri8qvdz,ZBA7SlVE,2020-0188,2021-10-31,21:20:46,22:57:55,NA,incomplete,true,NA,NA,true,0,5,NA,NA,NA,left,n_s_051.jpg,black,blue,NA,NA,NA,NA,NA,NA,NA,NA,NA,NaN,NA,4271,right,0,NA,NA,NA,NA,NA
ZBA7SlVE,3z33ic0jd3zsmh7cb6nqm2m9m84v9l,3y4w8q93l3x6crineoxuxi1ri8qvdz,ZBA7SlVE,2020-0188,2021-10-31,21:20:46,22:57:55,NA,incomplete,true,NA,NA,true,0,6,NA,NA,NA,left,n_s_013.jpg,white,gray,NA,NA,NA,NA,NA,NA,NA,NA,NA,NaN,NA,7485,right,0,NA,NA,NA,NA,NA
ZBA7SlVE,3z33ic0jd3zsmh7cb6nqm2m9m84v9l,3y4w8q93l3x6crineoxuxi1ri8qvdz,ZBA7SlVE,2020-0188,2021-10-31,21:20:46,22:57:55,NA,incomplete,true,NA,NA,true,0,7,NA,NA,NA,left,m_l_068.jpg,yellow,white,NA,NA,NA,NA,NA,NA,NA,NA,NA,NaN,NA,2478,left,1,NA,NA,NA,NA,NA
ZBA7SlVE,3z33ic0jd3zsmh7cb6nqm2m9m84v9l,3y4w8q93l3x6crineoxuxi1ri8qvdz,ZBA7SlVE,2020-0188,2021-10-31,21:20:46,22:57:55,NA,incomplete,true,NA,NA,true,0,8,NA,NA,NA,left,n_l_051.jpg,gray,black,NA,NA,NA,NA,NA,NA,NA,NA,NA,NaN,NA,2403,left,1,NA,NA,NA,NA,NA
ZBA7SlVE,3z33ic0jd3zsmh7cb6nqm2m9m84v9l,3y4w8q93l3x6crineoxuxi1ri8qvdz,ZBA7SlVE,2020-0188,2021-10-31,21:20:46,22:57:55,NA,incomplete,true,NA,NA,true,0,9,NA,NA,NA,right,n_l_090.jpg,gray,white,NA,NA,NA,NA,NA,NA,NA,NA,NA,NaN,NA,2198,left,0,NA,NA,NA,NA,NA
ZBA7SlVE,3z33ic0jd3zsmh7cb6nqm2m9m84v9l,3y4w8q93l3x6crineoxuxi1ri8qvdz,ZBA7SlVE,2020-0188,2021-10-31,21:20:46,22:57:55,NA,incomplete,true,NA,NA,true,0,10,NA,NA,NA,left,n_s_069.jpg,black,blue,NA,NA,NA,NA,NA,NA,NA,NA,NA,NaN,NA,4461,left,1,NA,NA,NA,NA,NA
ZBA7SlVE,3z33ic0jd3zsmh7cb6nqm2m9m84v9l,3y4w8q93l3x6crineoxuxi1ri8qvdz,ZBA7SlVE,2020-0188,2021-10-31,21:20:46,22:57:55,NA,incomplete,true,NA,NA,true,0,11,NA,NA,NA,left,n_l_050.jpg,green,yellow,NA,NA,NA,NA,NA,NA,NA,NA,NA,NaN,NA,2790,right,0,NA,NA,NA,NA,NA
ZBA7SlVE,3z33ic0jd3zsmh7cb6nqm2m9m84v9l,3y4w8q93l3x6crineoxuxi1ri8qvdz,ZBA7SlVE,2020-0188,2021-10-31,21:20:46,22:57:55,NA,incomplete,true,NA,NA,true,0,12,NA,NA,NA,right,n_s_063.jpg,black,blue,NA,NA,NA,NA,NA,NA,NA,NA,NA,NaN,NA,2199,right,1,NA,NA,NA,NA,NA
ZBA7SlVE,3z33ic0jd3zsmh7cb6nqm2m9m84v9l,3y4w8q93l3x6crineoxuxi1ri8qvdz,ZBA7SlVE,2020-0188,2021-10-31,21:20:46,22:57:55,NA,incomplete,true,NA,NA,true,0,13,NA,NA,NA,left,n_l_071.jpg,gray,black,NA,NA,NA,NA,NA,NA,NA,NA,NA,NaN,NA,2560,left,1,NA,NA,NA,NA,NA
ZBA7SlVE,3z33ic0jd3zsmh7cb6nqm2m9m84v9l,3y4w8q93l3x6crineoxuxi1ri8qvdz,ZBA7SlVE,2020-0188,2021-10-31,21:20:46,22:57:55,NA,incomplete,true,NA,NA,true,0,14,NA,NA,NA,right,n_s_020.jpg,white,yellow,NA,NA,NA,NA,NA,NA,NA,NA,NA,NaN,NA,8045,right,1,NA,NA,NA,NA,NA
ZBA7SlVE,3z33ic0jd3zsmh7cb6nqm2m9m84v9l,3y4w8q93l3x6crineoxuxi1ri8qvdz,ZBA7SlVE,2020-0188,2021-10-31,21:20:46,22:57:55,NA,incomplete,true,NA,NA,true,0,15,NA,NA,NA,left,m_l_049.jpg,yellow,white,NA,NA,NA,NA,NA,NA,NA,NA,NA,NaN,NA,3128,right,0,NA,NA,NA,NA,NA
ZBA7SlVE,3z33ic0jd3zsmh7cb6nqm2m9m84v9l,3y4w8q93l3x6crineoxuxi1ri8qvdz,ZBA7SlVE,2020-0188,2021-10-31,21:20:46,22:57:55,NA,incomplete,true,NA,NA,true,0,16,NA,NA,NA,right,m_l_084.jpg,gray,black,NA,NA,NA,NA,NA,NA,NA,NA,NA,NaN,NA,2422,right,1,NA,NA,NA,NA,NA
ZBA7SlVE,3z33ic0jd3zsmh7cb6nqm2m9m84v9l,3y4w8q93l3x6crineoxuxi1ri8qvdz,ZBA7SlVE,2020-0188,2021-10-31,21:20:46,22:57:55,NA,incomplete,true,NA,NA,true,0,17,NA,NA,NA,left,n_l_059.jpg,black,blue,NA,NA,NA,NA,NA,NA,NA,NA,NA,NaN,NA,3230,left,1,NA,NA,NA,NA,NA
ZBA7SlVE,3z33ic0jd3zsmh7cb6nqm2m9m84v9l,3y4w8q93l3x6crineoxuxi1ri8qvdz,ZBA7SlVE,2020-0188,2021-10-31,21:20:46,22:57:55,NA,incomplete,true,NA,NA,true,0,18,NA,NA,NA,left,m_l_109.jpg,green,yellow,NA,NA,NA,NA,NA,NA,NA,NA,NA,NaN,NA,2347,right,0,NA,NA,NA,NA,NA
ZBA7SlVE,3z33ic0jd3zsmh7cb6nqm2m9m84v9l,3y4w8q93l3x6crineoxuxi1ri8qvdz,ZBA7SlVE,2020-0188,2021-10-31,21:20:46,22:57:55,NA,incomplete,true,NA,NA,true,0,19,NA,NA,NA,right,m_s_111.jpg,gray,white,NA,NA,NA,NA,NA,NA,NA,NA,NA,NaN,NA,2910,right,1,NA,NA,NA,NA,NA
ZBA7SlVE,3z33ic0jd3zsmh7cb6nqm2m9m84v9l,3y4w8q93l3x6crineoxuxi1ri8qvdz,ZBA7SlVE,2020-0188,2021-10-31,21:20:46,22:57:55,NA,incomplete,true,NA,NA,true,0,20,NA,NA,NA,left,m_s_064.jpg,gray,white,NA,NA,NA,NA,NA,NA,NA,NA,NA,NaN,NA,1951,left,1,NA,NA,NA,NA,NA
ZBA7SlVE,3z33ic0jd3zsmh7cb6nqm2m9m84v9l,3y4w8q93l3x6crineoxuxi1ri8qvdz,ZBA7SlVE,2020-0188,2021-10-31,21:20:46,22:57:55,NA,incomplete,true,NA,NA,true,0,21,NA,NA,NA,left,n_s_028.jpg,blue,black,NA,NA,NA,NA,NA,NA,NA,NA,NA,NaN,NA,4527,left,1,NA,NA,NA,NA,NA
ZBA7SlVE,3z33ic0jd3zsmh7cb6nqm2m9m84v9l,3y4w8q93l3x6crineoxuxi1ri8qvdz,ZBA7SlVE,2020-0188,2021-10-31,21:20:46,22:57:55,NA,incomplete,true,NA,true,NA,0,0,NA,NA,NA,right,NA,NA,NA,absent,NA,NA,m_l_068.jpg,yellow,m_l_032.jpg,green,between,NA,NaN,NA,NA,NA,NA,left,4583,0,1,5582
ZBA7SlVE,3z33ic0jd3zsmh7cb6nqm2m9m84v9l,3y4w8q93l3x6crineoxuxi1ri8qvdz,ZBA7SlVE,2020-0188,2021-10-31,21:20:46,22:57:55,NA,incomplete,true,NA,true,NA,0,1,NA,NA,NA,right,NA,NA,NA,absent,NA,NA,n_s_028.jpg,blue,n_s_063.jpg,blue,within,NA,NaN,NA,NA,NA,NA,right,2846,1,2,2254
ZBA7SlVE,3z33ic0jd3zsmh7cb6nqm2m9m84v9l,3y4w8q93l3x6crineoxuxi1ri8qvdz,ZBA7SlVE,2020-0188,2021-10-31,21:20:46,22:57:55,NA,incomplete,true,NA,true,NA,0,2,NA,NA,NA,left,NA,NA,NA,absent,NA,NA,n_l_050.jpg,green,m_l_109.jpg,green,within,NA,NaN,NA,NA,NA,NA,left,2886,1,1,2414
ZBA7SlVE,3z33ic0jd3zsmh7cb6nqm2m9m84v9l,3y4w8q93l3x6crineoxuxi1ri8qvdz,ZBA7SlVE,2020-0188,2021-10-31,21:20:46,22:57:55,NA,incomplete,true,NA,true,NA,0,3,NA,NA,NA,right,NA,NA,NA,absent,NA,NA,n_l_059.jpg,black,m_l_025.jpg,gray,between,NA,NaN,NA,NA,NA,NA,right,2509,1,1,2846
ZBA7SlVE,3z33ic0jd3zsmh7cb6nqm2m9m84v9l,3y4w8q93l3x6crineoxuxi1ri8qvdz,ZBA7SlVE,2020-0188,2021-10-31,21:20:46,22:57:55,NA,incomplete,true,NA,true,NA,0,4,NA,NA,NA,left,NA,NA,NA,absent,NA,NA,n_s_069.jpg,black,n_s_102.jpg,blue,between,NA,NaN,NA,NA,NA,NA,right,4701,0,1,1310
ZBA7SlVE,3z33ic0jd3zsmh7cb6nqm2m9m84v9l,3y4w8q93l3x6crineoxuxi1ri8qvdz,ZBA7SlVE,2020-0188,2021-10-31,21:20:46,22:57:55,NA,incomplete,true,NA,true,NA,0,5,NA,NA,NA,right,NA,NA,NA,absent,NA,NA,n_s_013.jpg,white,n_l_090.jpg,white,within,NA,NaN,NA,NA,NA,NA,right,2461,1,2,1390
ZBA7SlVE,3z33ic0jd3zsmh7cb6nqm2m9m84v9l,3y4w8q93l3x6crineoxuxi1ri8qvdz,ZBA7SlVE,2020-0188,2021-10-31,21:20:46,22:57:55,NA,incomplete,true,NA,true,NA,0,6,NA,NA,NA,left,NA,NA,NA,absent,NA,NA,n_l_023.jpg,yellow,n_s_117.jpg,white,between,NA,NaN,NA,NA,NA,NA,left,2984,1,1,1987
ZBA7SlVE,3z33ic0jd3zsmh7cb6nqm2m9m84v9l,3y4w8q93l3x6crineoxuxi1ri8qvdz,ZBA7SlVE,2020-0188,2021-10-31,21:20:46,22:57:55,NA,incomplete,true,NA,true,NA,0,7,NA,NA,NA,right,NA,NA,NA,absent,NA,NA,n_l_071.jpg,gray,m_s_111.jpg,white,between,NA,NaN,NA,NA,NA,NA,right,4453,1,1,16598
ZBA7SlVE,3z33ic0jd3zsmh7cb6nqm2m9m84v9l,3y4w8q93l3x6crineoxuxi1ri8qvdz,ZBA7SlVE,2020-0188,2021-10-31,21:20:46,22:57:55,NA,incomplete,true,NA,true,NA,0,8,NA,NA,NA,left,NA,NA,NA,absent,NA,NA,n_s_020.jpg,yellow,m_l_049.jpg,yellow,within,NA,NaN,NA,NA,NA,NA,left,3158,1,2,5174
ZBA7SlVE,3z33ic0jd3zsmh7cb6nqm2m9m84v9l,3y4w8q93l3x6crineoxuxi1ri8qvdz,ZBA7SlVE,2020-0188,2021-10-31,21:20:46,22:57:55,NA,incomplete,true,NA,true,NA,0,9,NA,NA,NA,right,NA,NA,NA,absent,NA,NA,m_s_064.jpg,gray,n_l_051.jpg,gray,within,NA,NaN,NA,NA,NA,NA,right,3917,1,0,2942
ZBA7SlVE,3z33ic0jd3zsmh7cb6nqm2m9m84v9l,3y4w8q93l3x6crineoxuxi1ri8qvdz,ZBA7SlVE,2020-0188,2021-10-31,21:20:46,22:57:55,NA,incomplete,true,NA,true,NA,0,10,NA,NA,NA,right,NA,NA,NA,absent,NA,NA,n_s_051.jpg,black,m_l_084.jpg,black,within,NA,NaN,NA,NA,NA,NA,right,3471,1,1,1360
ZBA7SlVE,3z33ic0jd3zsmh7cb6nqm2m9m84v9l,3y4w8q93l3x6crineoxuxi1ri8qvdz,ZBA7SlVE,2020-0188,2021-10-31,21:20:46,22:57:55,NA,incomplete,false,true,NA,NA,1,0,NA,purple,m_l_036.jpg,NA,NA,NA,NA,NA,pleasant,unpleasant,NA,NA,NA,NA,NA,none,0,false,NA,NA,NA,NA,NA,NA,NA,NA
ZBA7SlVE,3z33ic0jd3zsmh7cb6nqm2m9m84v9l,3y4w8q93l3x6crineoxuxi1ri8qvdz,ZBA7SlVE,2020-0188,2021-10-31,21:20:46,22:57:55,NA,incomplete,false,true,NA,NA,1,1,NA,purple,m_l_117.jpg,NA,NA,NA,NA,NA,unpleasant,pleasant,NA,NA,NA,NA,NA,right,1164,true,NA,NA,NA,NA,NA,NA,NA,NA
ZBA7SlVE,3z33ic0jd3zsmh7cb6nqm2m9m84v9l,3y4w8q93l3x6crineoxuxi1ri8qvdz,ZBA7SlVE,2020-0188,2021-10-31,21:20:46,22:57:55,NA,incomplete,false,true,NA,NA,1,2,NA,purple,m_l_038.jpg,NA,NA,NA,NA,NA,unpleasant,pleasant,NA,NA,NA,NA,NA,right,1223,true,NA,NA,NA,NA,NA,NA,NA,NA
ZBA7SlVE,3z33ic0jd3zsmh7cb6nqm2m9m84v9l,3y4w8q93l3x6crineoxuxi1ri8qvdz,ZBA7SlVE,2020-0188,2021-10-31,21:20:46,22:57:55,NA,incomplete,false,true,NA,NA,1,3,NA,purple,n_s_099.jpg,NA,NA,NA,NA,NA,unpleasant,pleasant,NA,NA,NA,NA,NA,right,2428,true,NA,NA,NA,NA,NA,NA,NA,NA
ZBA7SlVE,3z33ic0jd3zsmh7cb6nqm2m9m84v9l,3y4w8q93l3x6crineoxuxi1ri8qvdz,ZBA7SlVE,2020-0188,2021-10-31,21:20:46,22:57:55,NA,incomplete,false,true,NA,NA,1,4,NA,purple,m_s_063.jpg,NA,NA,NA,NA,NA,pleasant,unpleasant,NA,NA,NA,NA,NA,left,1295,true,NA,NA,NA,NA,NA,NA,NA,NA
ZBA7SlVE,3z33ic0jd3zsmh7cb6nqm2m9m84v9l,3y4w8q93l3x6crineoxuxi1ri8qvdz,ZBA7SlVE,2020-0188,2021-10-31,21:20:46,22:57:55,NA,incomplete,false,true,NA,NA,1,5,NA,purple,n_l_113.jpg,NA,NA,NA,NA,NA,unpleasant,pleasant,NA,NA,NA,NA,NA,right,2035,true,NA,NA,NA,NA,NA,NA,NA,NA
ZBA7SlVE,3z33ic0jd3zsmh7cb6nqm2m9m84v9l,3y4w8q93l3x6crineoxuxi1ri8qvdz,ZBA7SlVE,2020-0188,2021-10-31,21:20:46,22:57:55,NA,incomplete,false,true,NA,NA,1,6,NA,gray,n_s_056.jpg,NA,NA,NA,NA,NA,pleasant,unpleasant,NA,NA,NA,NA,NA,left,1368,true,NA,NA,NA,NA,NA,NA,NA,NA
ZBA7SlVE,3z33ic0jd3zsmh7cb6nqm2m9m84v9l,3y4w8q93l3x6crineoxuxi1ri8qvdz,ZBA7SlVE,2020-0188,2021-10-31,21:20:46,22:57:55,NA,incomplete,false,true,NA,NA,1,7,NA,gray,m_l_042.jpg,NA,NA,NA,NA,NA,unpleasant,pleasant,NA,NA,NA,NA,NA,right,1227,true,NA,NA,NA,NA,NA,NA,NA,NA
ZBA7SlVE,3z33ic0jd3zsmh7cb6nqm2m9m84v9l,3y4w8q93l3x6crineoxuxi1ri8qvdz,ZBA7SlVE,2020-0188,2021-10-31,21:20:46,22:57:55,NA,incomplete,false,true,NA,NA,1,8,NA,gray,m_s_002.jpg,NA,NA,NA,NA,NA,unpleasant,pleasant,NA,NA,NA,NA,NA,right,1518,true,NA,NA,NA,NA,NA,NA,NA,NA
ZBA7SlVE,3z33ic0jd3zsmh7cb6nqm2m9m84v9l,3y4w8q93l3x6crineoxuxi1ri8qvdz,ZBA7SlVE,2020-0188,2021-10-31,21:20:46,22:57:55,NA,incomplete,false,true,NA,NA,1,9,NA,gray,m_s_088.jpg,NA,NA,NA,NA,NA,pleasant,unpleasant,NA,NA,NA,NA,NA,left,1339,true,NA,NA,NA,NA,NA,NA,NA,NA
ZBA7SlVE,3z33ic0jd3zsmh7cb6nqm2m9m84v9l,3y4w8q93l3x6crineoxuxi1ri8qvdz,ZBA7SlVE,2020-0188,2021-10-31,21:20:46,22:57:55,NA,incomplete,false,true,NA,NA,1,10,NA,gray,m_s_056.jpg,NA,NA,NA,NA,NA,unpleasant,pleasant,NA,NA,NA,NA,NA,right,1189,true,NA,NA,NA,NA,NA,NA,NA,NA
ZBA7SlVE,3z33ic0jd3zsmh7cb6nqm2m9m84v9l,3y4w8q93l3x6crineoxuxi1ri8qvdz,ZBA7SlVE,2020-0188,2021-10-31,21:20:46,22:57:55,NA,incomplete,false,true,NA,NA,1,11,NA,gray,n_l_108.jpg,NA,NA,NA,NA,NA,pleasant,unpleasant,NA,NA,NA,NA,NA,left,1323,true,NA,NA,NA,NA,NA,NA,NA,NA
ZBA7SlVE,3z33ic0jd3zsmh7cb6nqm2m9m84v9l,3y4w8q93l3x6crineoxuxi1ri8qvdz,ZBA7SlVE,2020-0188,2021-10-31,21:20:46,22:57:55,NA,incomplete,false,true,NA,NA,1,12,NA,blue,n_l_081.jpg,NA,NA,NA,NA,NA,pleasant,unpleasant,NA,NA,NA,NA,NA,left,1237,true,NA,NA,NA,NA,NA,NA,NA,NA
ZBA7SlVE,3z33ic0jd3zsmh7cb6nqm2m9m84v9l,3y4w8q93l3x6crineoxuxi1ri8qvdz,ZBA7SlVE,2020-0188,2021-10-31,21:20:46,22:57:55,NA,incomplete,false,true,NA,NA,1,13,NA,blue,m_l_031.jpg,NA,NA,NA,NA,NA,pleasant,unpleasant,NA,NA,NA,NA,NA,left,1177,true,NA,NA,NA,NA,NA,NA,NA,NA
ZBA7SlVE,3z33ic0jd3zsmh7cb6nqm2m9m84v9l,3y4w8q93l3x6crineoxuxi1ri8qvdz,ZBA7SlVE,2020-0188,2021-10-31,21:20:46,22:57:55,NA,incomplete,false,true,NA,NA,1,14,NA,blue,n_l_047.jpg,NA,NA,NA,NA,NA,pleasant,unpleasant,NA,NA,NA,NA,NA,left,1260,true,NA,NA,NA,NA,NA,NA,NA,NA
ZBA7SlVE,3z33ic0jd3zsmh7cb6nqm2m9m84v9l,3y4w8q93l3x6crineoxuxi1ri8qvdz,ZBA7SlVE,2020-0188,2021-10-31,21:20:46,22:57:55,NA,incomplete,false,true,NA,NA,1,15,NA,blue,m_l_082.jpg,NA,NA,NA,NA,NA,pleasant,unpleasant,NA,NA,NA,NA,NA,left,1553,true,NA,NA,NA,NA,NA,NA,NA,NA
ZBA7SlVE,3z33ic0jd3zsmh7cb6nqm2m9m84v9l,3y4w8q93l3x6crineoxuxi1ri8qvdz,ZBA7SlVE,2020-0188,2021-10-31,21:20:46,22:57:55,NA,incomplete,false,true,NA,NA,1,16,NA,blue,n_s_022.jpg,NA,NA,NA,NA,NA,unpleasant,pleasant,NA,NA,NA,NA,NA,left,1323,true,NA,NA,NA,NA,NA,NA,NA,NA
ZBA7SlVE,3z33ic0jd3zsmh7cb6nqm2m9m84v9l,3y4w8q93l3x6crineoxuxi1ri8qvdz,ZBA7SlVE,2020-0188,2021-10-31,21:20:46,22:57:55,NA,incomplete,false,true,NA,NA,1,17,NA,blue,n_s_071.jpg,NA,NA,NA,NA,NA,unpleasant,pleasant,NA,NA,NA,NA,NA,right,1774,true,NA,NA,NA,NA,NA,NA,NA,NA
ZBA7SlVE,3z33ic0jd3zsmh7cb6nqm2m9m84v9l,3y4w8q93l3x6crineoxuxi1ri8qvdz,ZBA7SlVE,2020-0188,2021-10-31,21:20:46,22:57:55,NA,incomplete,false,true,NA,NA,1,18,NA,orange,n_l_067.jpg,NA,NA,NA,NA,NA,pleasant,unpleasant,NA,NA,NA,NA,NA,left,1227,true,NA,NA,NA,NA,NA,NA,NA,NA
ZBA7SlVE,3z33ic0jd3zsmh7cb6nqm2m9m84v9l,3y4w8q93l3x6crineoxuxi1ri8qvdz,ZBA7SlVE,2020-0188,2021-10-31,21:20:46,22:57:55,NA,incomplete,false,true,NA,NA,1,19,NA,orange,m_l_015.jpg,NA,NA,NA,NA,NA,pleasant,unpleasant,NA,NA,NA,NA,NA,left,1685,true,NA,NA,NA,NA,NA,NA,NA,NA
ZBA7SlVE,3z33ic0jd3zsmh7cb6nqm2m9m84v9l,3y4w8q93l3x6crineoxuxi1ri8qvdz,ZBA7SlVE,2020-0188,2021-10-31,21:20:46,22:57:55,NA,incomplete,false,true,NA,NA,1,20,NA,orange,n_l_083.jpg,NA,NA,NA,NA,NA,unpleasant,pleasant,NA,NA,NA,NA,NA,right,1330,true,NA,NA,NA,NA,NA,NA,NA,NA
ZBA7SlVE,3z33ic0jd3zsmh7cb6nqm2m9m84v9l,3y4w8q93l3x6crineoxuxi1ri8qvdz,ZBA7SlVE,2020-0188,2021-10-31,21:20:46,22:57:55,NA,incomplete,false,true,NA,NA,1,21,NA,orange,n_l_014.jpg,NA,NA,NA,NA,NA,pleasant,unpleasant,NA,NA,NA,NA,NA,left,2101,true,NA,NA,NA,NA,NA,NA,NA,NA
ZBA7SlVE,3z33ic0jd3zsmh7cb6nqm2m9m84v9l,3y4w8q93l3x6crineoxuxi1ri8qvdz,ZBA7SlVE,2020-0188,2021-10-31,21:20:46,22:57:55,NA,incomplete,false,true,NA,NA,1,22,NA,orange,n_l_006.jpg,NA,NA,NA,NA,NA,pleasant,unpleasant,NA,NA,NA,NA,NA,left,1561,true,NA,NA,NA,NA,NA,NA,NA,NA
ZBA7SlVE,3z33ic0jd3zsmh7cb6nqm2m9m84v9l,3y4w8q93l3x6crineoxuxi1ri8qvdz,ZBA7SlVE,2020-0188,2021-10-31,21:20:46,22:57:55,NA,incomplete,false,true,NA,NA,1,23,NA,orange,m_s_073.jpg,NA,NA,NA,NA,NA,unpleasant,pleasant,NA,NA,NA,NA,NA,right,1475,true,NA,NA,NA,NA,NA,NA,NA,NA
ZBA7SlVE,3z33ic0jd3zsmh7cb6nqm2m9m84v9l,3y4w8q93l3x6crineoxuxi1ri8qvdz,ZBA7SlVE,2020-0188,2021-10-31,21:20:46,22:57:55,NA,incomplete,false,true,NA,NA,1,24,NA,green,m_l_071.jpg,NA,NA,NA,NA,NA,pleasant,unpleasant,NA,NA,NA,NA,NA,left,1400,true,NA,NA,NA,NA,NA,NA,NA,NA
ZBA7SlVE,3z33ic0jd3zsmh7cb6nqm2m9m84v9l,3y4w8q93l3x6crineoxuxi1ri8qvdz,ZBA7SlVE,2020-0188,2021-10-31,21:20:46,22:57:55,NA,incomplete,false,true,NA,NA,1,25,NA,green,n_s_113.jpg,NA,NA,NA,NA,NA,pleasant,unpleasant,NA,NA,NA,NA,NA,left,1659,true,NA,NA,NA,NA,NA,NA,NA,NA
ZBA7SlVE,3z33ic0jd3zsmh7cb6nqm2m9m84v9l,3y4w8q93l3x6crineoxuxi1ri8qvdz,ZBA7SlVE,2020-0188,2021-10-31,21:20:46,22:57:55,NA,incomplete,false,true,NA,NA,1,26,NA,green,n_s_081.jpg,NA,NA,NA,NA,NA,pleasant,unpleasant,NA,NA,NA,NA,NA,left,1687,true,NA,NA,NA,NA,NA,NA,NA,NA
ZBA7SlVE,3z33ic0jd3zsmh7cb6nqm2m9m84v9l,3y4w8q93l3x6crineoxuxi1ri8qvdz,ZBA7SlVE,2020-0188,2021-10-31,21:20:46,22:57:55,NA,incomplete,false,true,NA,NA,1,27,NA,green,n_s_039.jpg,NA,NA,NA,NA,NA,pleasant,unpleasant,NA,NA,NA,NA,NA,left,1475,true,NA,NA,NA,NA,NA,NA,NA,NA
ZBA7SlVE,3z33ic0jd3zsmh7cb6nqm2m9m84v9l,3y4w8q93l3x6crineoxuxi1ri8qvdz,ZBA7SlVE,2020-0188,2021-10-31,21:20:46,22:57:55,NA,incomplete,false,true,NA,NA,1,28,NA,green,m_s_084.jpg,NA,NA,NA,NA,NA,pleasant,unpleasant,NA,NA,NA,NA,NA,left,1807,true,NA,NA,NA,NA,NA,NA,NA,NA
ZBA7SlVE,3z33ic0jd3zsmh7cb6nqm2m9m84v9l,3y4w8q93l3x6crineoxuxi1ri8qvdz,ZBA7SlVE,2020-0188,2021-10-31,21:20:46,22:57:55,NA,incomplete,false,true,NA,NA,1,29,NA,green,m_s_009.jpg,NA,NA,NA,NA,NA,pleasant,unpleasant,NA,NA,NA,NA,NA,right,1496,true,NA,NA,NA,NA,NA,NA,NA,NA
ZBA7SlVE,3z33ic0jd3zsmh7cb6nqm2m9m84v9l,3y4w8q93l3x6crineoxuxi1ri8qvdz,ZBA7SlVE,2020-0188,2021-10-31,21:20:46,22:57:55,NA,incomplete,false,true,NA,NA,1,30,NA,red,m_l_090.jpg,NA,NA,NA,NA,NA,unpleasant,pleasant,NA,NA,NA,NA,NA,left,1215,true,NA,NA,NA,NA,NA,NA,NA,NA
ZBA7SlVE,3z33ic0jd3zsmh7cb6nqm2m9m84v9l,3y4w8q93l3x6crineoxuxi1ri8qvdz,ZBA7SlVE,2020-0188,2021-10-31,21:20:46,22:57:55,NA,incomplete,false,true,NA,NA,1,31,NA,red,n_s_017.jpg,NA,NA,NA,NA,NA,pleasant,unpleasant,NA,NA,NA,NA,NA,right,2200,true,NA,NA,NA,NA,NA,NA,NA,NA
ZBA7SlVE,3z33ic0jd3zsmh7cb6nqm2m9m84v9l,3y4w8q93l3x6crineoxuxi1ri8qvdz,ZBA7SlVE,2020-0188,2021-10-31,21:20:46,22:57:55,NA,incomplete,false,true,NA,NA,1,32,NA,red,n_s_015.jpg,NA,NA,NA,NA,NA,unpleasant,pleasant,NA,NA,NA,NA,NA,right,1404,true,NA,NA,NA,NA,NA,NA,NA,NA
ZBA7SlVE,3z33ic0jd3zsmh7cb6nqm2m9m84v9l,3y4w8q93l3x6crineoxuxi1ri8qvdz,ZBA7SlVE,2020-0188,2021-10-31,21:20:46,22:57:55,NA,incomplete,false,true,NA,NA,1,33,NA,red,m_s_079.jpg,NA,NA,NA,NA,NA,pleasant,unpleasant,NA,NA,NA,NA,NA,left,1848,true,NA,NA,NA,NA,NA,NA,NA,NA
ZBA7SlVE,3z33ic0jd3zsmh7cb6nqm2m9m84v9l,3y4w8q93l3x6crineoxuxi1ri8qvdz,ZBA7SlVE,2020-0188,2021-10-31,21:20:46,22:57:55,NA,incomplete,false,true,NA,NA,1,34,NA,red,m_s_080.jpg,NA,NA,NA,NA,NA,pleasant,unpleasant,NA,NA,NA,NA,NA,right,3069,true,NA,NA,NA,NA,NA,NA,NA,NA
ZBA7SlVE,3z33ic0jd3zsmh7cb6nqm2m9m84v9l,3y4w8q93l3x6crineoxuxi1ri8qvdz,ZBA7SlVE,2020-0188,2021-10-31,21:20:46,22:57:55,NA,incomplete,false,true,NA,NA,1,35,NA,red,m_l_110.jpg,NA,NA,NA,NA,NA,pleasant,unpleasant,NA,NA,NA,NA,NA,left,1576,true,NA,NA,NA,NA,NA,NA,NA,NA
ZBA7SlVE,3z33ic0jd3zsmh7cb6nqm2m9m84v9l,3y4w8q93l3x6crineoxuxi1ri8qvdz,ZBA7SlVE,2020-0188,2021-10-31,21:20:46,22:57:55,NA,incomplete,false,NA,NA,true,1,0,NA,NA,NA,right,n_l_083.jpg,green,orange,NA,NA,NA,NA,NA,NA,NA,NA,NA,NaN,NA,2766,left,0,NA,NA,NA,NA,NA
ZBA7SlVE,3z33ic0jd3zsmh7cb6nqm2m9m84v9l,3y4w8q93l3x6crineoxuxi1ri8qvdz,ZBA7SlVE,2020-0188,2021-10-31,21:20:46,22:57:55,NA,incomplete,false,NA,NA,true,1,1,NA,NA,NA,right,n_s_015.jpg,green,red,NA,NA,NA,NA,NA,NA,NA,NA,NA,NaN,NA,2564,left,0,NA,NA,NA,NA,NA
ZBA7SlVE,3z33ic0jd3zsmh7cb6nqm2m9m84v9l,3y4w8q93l3x6crineoxuxi1ri8qvdz,ZBA7SlVE,2020-0188,2021-10-31,21:20:46,22:57:55,NA,incomplete,false,NA,NA,true,1,2,NA,NA,NA,left,n_s_081.jpg,green,orange,NA,NA,NA,NA,NA,NA,NA,NA,NA,NaN,NA,1438,right,0,NA,NA,NA,NA,NA
ZBA7SlVE,3z33ic0jd3zsmh7cb6nqm2m9m84v9l,3y4w8q93l3x6crineoxuxi1ri8qvdz,ZBA7SlVE,2020-0188,2021-10-31,21:20:46,22:57:55,NA,incomplete,false,NA,NA,true,1,3,NA,NA,NA,right,m_s_084.jpg,red,green,NA,NA,NA,NA,NA,NA,NA,NA,NA,NaN,NA,2391,right,1,NA,NA,NA,NA,NA
ZBA7SlVE,3z33ic0jd3zsmh7cb6nqm2m9m84v9l,3y4w8q93l3x6crineoxuxi1ri8qvdz,ZBA7SlVE,2020-0188,2021-10-31,21:20:46,22:57:55,NA,incomplete,false,NA,NA,true,1,4,NA,NA,NA,right,m_s_063.jpg,gray,purple,NA,NA,NA,NA,NA,NA,NA,NA,NA,NaN,NA,2687,left,0,NA,NA,NA,NA,NA
ZBA7SlVE,3z33ic0jd3zsmh7cb6nqm2m9m84v9l,3y4w8q93l3x6crineoxuxi1ri8qvdz,ZBA7SlVE,2020-0188,2021-10-31,21:20:46,22:57:55,NA,incomplete,false,NA,NA,true,1,5,NA,NA,NA,right,m_l_031.jpg,gray,blue,NA,NA,NA,NA,NA,NA,NA,NA,NA,NaN,NA,2130,right,1,NA,NA,NA,NA,NA
ZBA7SlVE,3z33ic0jd3zsmh7cb6nqm2m9m84v9l,3y4w8q93l3x6crineoxuxi1ri8qvdz,ZBA7SlVE,2020-0188,2021-10-31,21:20:46,22:57:55,NA,incomplete,false,NA,NA,true,1,6,NA,NA,NA,left,n_s_071.jpg,blue,orange,NA,NA,NA,NA,NA,NA,NA,NA,NA,NaN,NA,3118,left,1,NA,NA,NA,NA,NA
ZBA7SlVE,3z33ic0jd3zsmh7cb6nqm2m9m84v9l,3y4w8q93l3x6crineoxuxi1ri8qvdz,ZBA7SlVE,2020-0188,2021-10-31,21:20:46,22:57:55,NA,incomplete,false,NA,NA,true,1,7,NA,NA,NA,right,m_l_015.jpg,green,orange,NA,NA,NA,NA,NA,NA,NA,NA,NA,NaN,NA,8886,right,1,NA,NA,NA,NA,NA
ZBA7SlVE,3z33ic0jd3zsmh7cb6nqm2m9m84v9l,3y4w8q93l3x6crineoxuxi1ri8qvdz,ZBA7SlVE,2020-0188,2021-10-31,21:20:46,22:57:55,NA,incomplete,false,NA,NA,true,1,8,NA,NA,NA,right,m_l_042.jpg,purple,gray,NA,NA,NA,NA,NA,NA,NA,NA,NA,NaN,NA,3988,right,1,NA,NA,NA,NA,NA
ZBA7SlVE,3z33ic0jd3zsmh7cb6nqm2m9m84v9l,3y4w8q93l3x6crineoxuxi1ri8qvdz,ZBA7SlVE,2020-0188,2021-10-31,21:20:46,22:57:55,NA,incomplete,false,NA,NA,true,1,9,NA,NA,NA,right,m_s_056.jpg,purple,gray,NA,NA,NA,NA,NA,NA,NA,NA,NA,NaN,NA,2774,left,0,NA,NA,NA,NA,NA
ZBA7SlVE,3z33ic0jd3zsmh7cb6nqm2m9m84v9l,3y4w8q93l3x6crineoxuxi1ri8qvdz,ZBA7SlVE,2020-0188,2021-10-31,21:20:46,22:57:55,NA,incomplete,false,NA,NA,true,1,10,NA,NA,NA,left,n_s_113.jpg,green,red,NA,NA,NA,NA,NA,NA,NA,NA,NA,NaN,NA,4014,left,1,NA,NA,NA,NA,NA
ZBA7SlVE,3z33ic0jd3zsmh7cb6nqm2m9m84v9l,3y4w8q93l3x6crineoxuxi1ri8qvdz,ZBA7SlVE,2020-0188,2021-10-31,21:20:46,22:57:55,NA,incomplete,false,NA,NA,true,1,11,NA,NA,NA,left,m_l_110.jpg,red,green,NA,NA,NA,NA,NA,NA,NA,NA,NA,NaN,NA,2135,right,0,NA,NA,NA,NA,NA
ZBA7SlVE,3z33ic0jd3zsmh7cb6nqm2m9m84v9l,3y4w8q93l3x6crineoxuxi1ri8qvdz,ZBA7SlVE,2020-0188,2021-10-31,21:20:46,22:57:55,NA,incomplete,false,NA,NA,true,1,12,NA,NA,NA,right,n_l_047.jpg,orange,blue,NA,NA,NA,NA,NA,NA,NA,NA,NA,NaN,NA,3367,left,0,NA,NA,NA,NA,NA
ZBA7SlVE,3z33ic0jd3zsmh7cb6nqm2m9m84v9l,3y4w8q93l3x6crineoxuxi1ri8qvdz,ZBA7SlVE,2020-0188,2021-10-31,21:20:46,22:57:55,NA,incomplete,false,NA,NA,true,1,13,NA,NA,NA,right,n_s_022.jpg,gray,blue,NA,NA,NA,NA,NA,NA,NA,NA,NA,NaN,NA,2014,right,1,NA,NA,NA,NA,NA
ZBA7SlVE,3z33ic0jd3zsmh7cb6nqm2m9m84v9l,3y4w8q93l3x6crineoxuxi1ri8qvdz,ZBA7SlVE,2020-0188,2021-10-31,21:20:46,22:57:55,NA,incomplete,false,NA,NA,true,1,14,NA,NA,NA,left,m_s_009.jpg,green,orange,NA,NA,NA,NA,NA,NA,NA,NA,NA,NaN,NA,2277,left,1,NA,NA,NA,NA,NA
ZBA7SlVE,3z33ic0jd3zsmh7cb6nqm2m9m84v9l,3y4w8q93l3x6crineoxuxi1ri8qvdz,ZBA7SlVE,2020-0188,2021-10-31,21:20:46,22:57:55,NA,incomplete,false,NA,NA,true,1,15,NA,NA,NA,right,n_l_113.jpg,gray,purple,NA,NA,NA,NA,NA,NA,NA,NA,NA,NaN,NA,2629,left,0,NA,NA,NA,NA,NA
ZBA7SlVE,3z33ic0jd3zsmh7cb6nqm2m9m84v9l,3y4w8q93l3x6crineoxuxi1ri8qvdz,ZBA7SlVE,2020-0188,2021-10-31,21:20:46,22:57:55,NA,incomplete,false,NA,NA,true,1,16,NA,NA,NA,left,m_s_002.jpg,gray,purple,NA,NA,NA,NA,NA,NA,NA,NA,NA,NaN,NA,5438,right,0,NA,NA,NA,NA,NA
ZBA7SlVE,3z33ic0jd3zsmh7cb6nqm2m9m84v9l,3y4w8q93l3x6crineoxuxi1ri8qvdz,ZBA7SlVE,2020-0188,2021-10-31,21:20:46,22:57:55,NA,incomplete,false,NA,NA,true,1,17,NA,NA,NA,left,n_s_017.jpg,red,green,NA,NA,NA,NA,NA,NA,NA,NA,NA,NaN,NA,1542,left,1,NA,NA,NA,NA,NA
ZBA7SlVE,3z33ic0jd3zsmh7cb6nqm2m9m84v9l,3y4w8q93l3x6crineoxuxi1ri8qvdz,ZBA7SlVE,2020-0188,2021-10-31,21:20:46,22:57:55,NA,incomplete,false,NA,NA,true,1,18,NA,NA,NA,right,n_l_006.jpg,blue,orange,NA,NA,NA,NA,NA,NA,NA,NA,NA,NaN,NA,1526,right,1,NA,NA,NA,NA,NA
ZBA7SlVE,3z33ic0jd3zsmh7cb6nqm2m9m84v9l,3y4w8q93l3x6crineoxuxi1ri8qvdz,ZBA7SlVE,2020-0188,2021-10-31,21:20:46,22:57:55,NA,incomplete,false,NA,NA,true,1,19,NA,NA,NA,left,n_l_108.jpg,gray,blue,NA,NA,NA,NA,NA,NA,NA,NA,NA,NaN,NA,2055,left,1,NA,NA,NA,NA,NA
ZBA7SlVE,3z33ic0jd3zsmh7cb6nqm2m9m84v9l,3y4w8q93l3x6crineoxuxi1ri8qvdz,ZBA7SlVE,2020-0188,2021-10-31,21:20:46,22:57:55,NA,incomplete,false,NA,NA,true,1,20,NA,NA,NA,right,m_l_117.jpg,gray,purple,NA,NA,NA,NA,NA,NA,NA,NA,NA,NaN,NA,1766,right,1,NA,NA,NA,NA,NA
ZBA7SlVE,3z33ic0jd3zsmh7cb6nqm2m9m84v9l,3y4w8q93l3x6crineoxuxi1ri8qvdz,ZBA7SlVE,2020-0188,2021-10-31,21:20:46,22:57:55,NA,incomplete,false,NA,NA,true,1,21,NA,NA,NA,left,m_s_073.jpg,orange,green,NA,NA,NA,NA,NA,NA,NA,NA,NA,NaN,NA,2765,right,0,NA,NA,NA,NA,NA
ZBA7SlVE,3z33ic0jd3zsmh7cb6nqm2m9m84v9l,3y4w8q93l3x6crineoxuxi1ri8qvdz,ZBA7SlVE,2020-0188,2021-10-31,21:20:46,22:57:55,NA,incomplete,false,NA,true,NA,1,0,NA,NA,NA,right,NA,NA,NA,absent,NA,NA,n_l_108.jpg,gray,m_l_042.jpg,gray,within,NA,NaN,NA,NA,NA,NA,right,6220,1,1,4933
ZBA7SlVE,3z33ic0jd3zsmh7cb6nqm2m9m84v9l,3y4w8q93l3x6crineoxuxi1ri8qvdz,ZBA7SlVE,2020-0188,2021-10-31,21:20:46,22:57:55,NA,incomplete,false,NA,true,NA,1,1,NA,NA,NA,right,NA,NA,NA,absent,NA,NA,m_s_009.jpg,green,n_s_113.jpg,green,within,NA,NaN,NA,NA,NA,NA,left,3133,0,1,8556
ZBA7SlVE,3z33ic0jd3zsmh7cb6nqm2m9m84v9l,3y4w8q93l3x6crineoxuxi1ri8qvdz,ZBA7SlVE,2020-0188,2021-10-31,21:20:46,22:57:55,NA,incomplete,false,NA,true,NA,1,2,NA,NA,NA,left,NA,NA,NA,absent,NA,NA,m_l_117.jpg,purple,n_l_113.jpg,purple,within,NA,NaN,NA,NA,NA,NA,left,10628,1,2,3157
ZBA7SlVE,3z33ic0jd3zsmh7cb6nqm2m9m84v9l,3y4w8q93l3x6crineoxuxi1ri8qvdz,ZBA7SlVE,2020-0188,2021-10-31,21:20:46,22:57:55,NA,incomplete,false,NA,true,NA,1,3,NA,NA,NA,right,NA,NA,NA,absent,NA,NA,m_l_110.jpg,red,n_s_017.jpg,red,within,NA,NaN,NA,NA,NA,NA,right,3735,1,2,3470
ZBA7SlVE,3z33ic0jd3zsmh7cb6nqm2m9m84v9l,3y4w8q93l3x6crineoxuxi1ri8qvdz,ZBA7SlVE,2020-0188,2021-10-31,21:20:46,22:57:55,NA,incomplete,false,NA,true,NA,1,4,NA,NA,NA,right,NA,NA,NA,absent,NA,NA,n_s_015.jpg,red,m_s_084.jpg,green,between,NA,NaN,NA,NA,NA,NA,left,2846,0,1,1694
ZBA7SlVE,3z33ic0jd3zsmh7cb6nqm2m9m84v9l,3y4w8q93l3x6crineoxuxi1ri8qvdz,ZBA7SlVE,2020-0188,2021-10-31,21:20:46,22:57:55,NA,incomplete,false,NA,true,NA,1,5,NA,NA,NA,right,NA,NA,NA,absent,NA,NA,n_l_083.jpg,orange,n_s_022.jpg,blue,between,NA,NaN,NA,NA,NA,NA,right,3223,1,1,828130
ZBA7SlVE,3z33ic0jd3zsmh7cb6nqm2m9m84v9l,3y4w8q93l3x6crineoxuxi1ri8qvdz,ZBA7SlVE,2020-0188,2021-10-31,21:20:46,22:57:55,NA,incomplete,false,NA,true,NA,1,6,NA,NA,NA,right,NA,NA,NA,absent,NA,NA,n_s_081.jpg,green,n_l_006.jpg,orange,between,NA,NaN,NA,NA,NA,NA,left,2847,0,1,3799
ZBA7SlVE,3z33ic0jd3zsmh7cb6nqm2m9m84v9l,3y4w8q93l3x6crineoxuxi1ri8qvdz,ZBA7SlVE,2020-0188,2021-10-31,21:20:46,22:57:55,NA,incomplete,false,NA,true,NA,1,7,NA,NA,NA,left,NA,NA,NA,absent,NA,NA,m_l_031.jpg,blue,n_s_071.jpg,blue,within,NA,NaN,NA,NA,NA,NA,right,2575,0,2,2079
ZBA7SlVE,3z33ic0jd3zsmh7cb6nqm2m9m84v9l,3y4w8q93l3x6crineoxuxi1ri8qvdz,ZBA7SlVE,2020-0188,2021-10-31,21:20:46,22:57:55,NA,incomplete,false,NA,true,NA,1,8,NA,NA,NA,left,NA,NA,NA,absent,NA,NA,m_s_063.jpg,purple,m_s_002.jpg,gray,between,NA,NaN,NA,NA,NA,NA,right,5020,0,1,1605
ZBA7SlVE,3z33ic0jd3zsmh7cb6nqm2m9m84v9l,3y4w8q93l3x6crineoxuxi1ri8qvdz,ZBA7SlVE,2020-0188,2021-10-31,21:20:46,22:57:55,NA,incomplete,false,NA,true,NA,1,9,NA,NA,NA,right,NA,NA,NA,absent,NA,NA,m_s_073.jpg,orange,m_l_015.jpg,orange,within,NA,NaN,NA,NA,NA,NA,left,3733,0,1,1350
ZBA7SlVE,3z33ic0jd3zsmh7cb6nqm2m9m84v9l,3y4w8q93l3x6crineoxuxi1ri8qvdz,ZBA7SlVE,2020-0188,2021-10-31,21:20:46,22:57:55,NA,incomplete,false,NA,true,NA,1,10,NA,NA,NA,left,NA,NA,NA,absent,NA,NA,m_s_056.jpg,gray,n_l_047.jpg,blue,between,NA,NaN,NA,NA,NA,NA,left,2198,1,1,1614
ZBA7SlVE,3z33ic0jd3zsmh7cb6nqm2m9m84v9l,3y4w8q93l3x6crineoxuxi1ri8qvdz,ZBA7SlVE,2020-0188,2021-10-31,21:20:46,22:57:55,NA,incomplete,false,true,NA,NA,2,0,NA,red,n_l_043.jpg,NA,NA,NA,NA,NA,pleasant,unpleasant,NA,NA,NA,NA,NA,right,2279,true,NA,NA,NA,NA,NA,NA,NA,NA
ZBA7SlVE,3z33ic0jd3zsmh7cb6nqm2m9m84v9l,3y4w8q93l3x6crineoxuxi1ri8qvdz,ZBA7SlVE,2020-0188,2021-10-31,21:20:46,22:57:55,NA,incomplete,false,true,NA,NA,2,1,NA,red,m_s_099.jpg,NA,NA,NA,NA,NA,unpleasant,pleasant,NA,NA,NA,NA,NA,right,1386,true,NA,NA,NA,NA,NA,NA,NA,NA
ZBA7SlVE,3z33ic0jd3zsmh7cb6nqm2m9m84v9l,3y4w8q93l3x6crineoxuxi1ri8qvdz,ZBA7SlVE,2020-0188,2021-10-31,21:20:46,22:57:55,NA,incomplete,false,true,NA,NA,2,2,NA,red,n_s_042.jpg,NA,NA,NA,NA,NA,pleasant,unpleasant,NA,NA,NA,NA,NA,none,0,false,NA,NA,NA,NA,NA,NA,NA,NA
ZBA7SlVE,3z33ic0jd3zsmh7cb6nqm2m9m84v9l,3y4w8q93l3x6crineoxuxi1ri8qvdz,ZBA7SlVE,2020-0188,2021-10-31,21:20:46,22:57:55,NA,incomplete,false,true,NA,NA,2,3,NA,red,m_l_105.jpg,NA,NA,NA,NA,NA,pleasant,unpleasant,NA,NA,NA,NA,NA,left,1930,true,NA,NA,NA,NA,NA,NA,NA,NA
ZBA7SlVE,3z33ic0jd3zsmh7cb6nqm2m9m84v9l,3y4w8q93l3x6crineoxuxi1ri8qvdz,ZBA7SlVE,2020-0188,2021-10-31,21:20:46,22:57:55,NA,incomplete,false,true,NA,NA,2,4,NA,red,n_l_087.jpg,NA,NA,NA,NA,NA,pleasant,unpleasant,NA,NA,NA,NA,NA,left,1006,true,NA,NA,NA,NA,NA,NA,NA,NA
ZBA7SlVE,3z33ic0jd3zsmh7cb6nqm2m9m84v9l,3y4w8q93l3x6crineoxuxi1ri8qvdz,ZBA7SlVE,2020-0188,2021-10-31,21:20:46,22:57:55,NA,incomplete,false,true,NA,NA,2,5,NA,red,m_l_065.jpg,NA,NA,NA,NA,NA,pleasant,unpleasant,NA,NA,NA,NA,NA,left,1083,true,NA,NA,NA,NA,NA,NA,NA,NA
ZBA7SlVE,3z33ic0jd3zsmh7cb6nqm2m9m84v9l,3y4w8q93l3x6crineoxuxi1ri8qvdz,ZBA7SlVE,2020-0188,2021-10-31,21:20:46,22:57:55,NA,incomplete,false,true,NA,NA,2,6,NA,gray,n_l_005.jpg,NA,NA,NA,NA,NA,pleasant,unpleasant,NA,NA,NA,NA,NA,left,1028,true,NA,NA,NA,NA,NA,NA,NA,NA
ZBA7SlVE,3z33ic0jd3zsmh7cb6nqm2m9m84v9l,3y4w8q93l3x6crineoxuxi1ri8qvdz,ZBA7SlVE,2020-0188,2021-10-31,21:20:46,22:57:55,NA,incomplete,false,true,NA,NA,2,7,NA,gray,n_l_104.jpg,NA,NA,NA,NA,NA,pleasant,unpleasant,NA,NA,NA,NA,NA,right,1456,true,NA,NA,NA,NA,NA,NA,NA,NA
ZBA7SlVE,3z33ic0jd3zsmh7cb6nqm2m9m84v9l,3y4w8q93l3x6crineoxuxi1ri8qvdz,ZBA7SlVE,2020-0188,2021-10-31,21:20:46,22:57:55,NA,incomplete,false,true,NA,NA,2,8,NA,gray,m_s_081.jpg,NA,NA,NA,NA,NA,pleasant,unpleasant,NA,NA,NA,NA,NA,left,860,true,NA,NA,NA,NA,NA,NA,NA,NA
ZBA7SlVE,3z33ic0jd3zsmh7cb6nqm2m9m84v9l,3y4w8q93l3x6crineoxuxi1ri8qvdz,ZBA7SlVE,2020-0188,2021-10-31,21:20:46,22:57:55,NA,incomplete,false,true,NA,NA,2,9,NA,gray,m_l_045.jpg,NA,NA,NA,NA,NA,pleasant,unpleasant,NA,NA,NA,NA,NA,left,1038,true,NA,NA,NA,NA,NA,NA,NA,NA
ZBA7SlVE,3z33ic0jd3zsmh7cb6nqm2m9m84v9l,3y4w8q93l3x6crineoxuxi1ri8qvdz,ZBA7SlVE,2020-0188,2021-10-31,21:20:46,22:57:55,NA,incomplete,false,true,NA,NA,2,10,NA,gray,m_s_031.jpg,NA,NA,NA,NA,NA,pleasant,unpleasant,NA,NA,NA,NA,NA,left,1410,true,NA,NA,NA,NA,NA,NA,NA,NA
ZBA7SlVE,3z33ic0jd3zsmh7cb6nqm2m9m84v9l,3y4w8q93l3x6crineoxuxi1ri8qvdz,ZBA7SlVE,2020-0188,2021-10-31,21:20:46,22:57:55,NA,incomplete,false,true,NA,NA,2,11,NA,gray,n_l_040.jpg,NA,NA,NA,NA,NA,unpleasant,pleasant,NA,NA,NA,NA,NA,right,1223,true,NA,NA,NA,NA,NA,NA,NA,NA
ZBA7SlVE,3z33ic0jd3zsmh7cb6nqm2m9m84v9l,3y4w8q93l3x6crineoxuxi1ri8qvdz,ZBA7SlVE,2020-0188,2021-10-31,21:20:46,22:57:55,NA,incomplete,false,true,NA,NA,2,12,NA,blue,n_l_056.jpg,NA,NA,NA,NA,NA,pleasant,unpleasant,NA,NA,NA,NA,NA,left,1364,true,NA,NA,NA,NA,NA,NA,NA,NA
ZBA7SlVE,3z33ic0jd3zsmh7cb6nqm2m9m84v9l,3y4w8q93l3x6crineoxuxi1ri8qvdz,ZBA7SlVE,2020-0188,2021-10-31,21:20:46,22:57:55,NA,incomplete,false,true,NA,NA,2,13,NA,blue,n_l_110.jpg,NA,NA,NA,NA,NA,unpleasant,pleasant,NA,NA,NA,NA,NA,left,1398,true,NA,NA,NA,NA,NA,NA,NA,NA
ZBA7SlVE,3z33ic0jd3zsmh7cb6nqm2m9m84v9l,3y4w8q93l3x6crineoxuxi1ri8qvdz,ZBA7SlVE,2020-0188,2021-10-31,21:20:46,22:57:55,NA,incomplete,false,true,NA,NA,2,14,NA,blue,m_s_095.jpg,NA,NA,NA,NA,NA,unpleasant,pleasant,NA,NA,NA,NA,NA,right,1242,true,NA,NA,NA,NA,NA,NA,NA,NA
ZBA7SlVE,3z33ic0jd3zsmh7cb6nqm2m9m84v9l,3y4w8q93l3x6crineoxuxi1ri8qvdz,ZBA7SlVE,2020-0188,2021-10-31,21:20:46,22:57:55,NA,incomplete,false,true,NA,NA,2,15,NA,blue,m_l_057.jpg,NA,NA,NA,NA,NA,pleasant,unpleasant,NA,NA,NA,NA,NA,left,1444,true,NA,NA,NA,NA,NA,NA,NA,NA
ZBA7SlVE,3z33ic0jd3zsmh7cb6nqm2m9m84v9l,3y4w8q93l3x6crineoxuxi1ri8qvdz,ZBA7SlVE,2020-0188,2021-10-31,21:20:46,22:57:55,NA,incomplete,false,true,NA,NA,2,16,NA,blue,m_l_004.jpg,NA,NA,NA,NA,NA,unpleasant,pleasant,NA,NA,NA,NA,NA,right,1504,true,NA,NA,NA,NA,NA,NA,NA,NA
ZBA7SlVE,3z33ic0jd3zsmh7cb6nqm2m9m84v9l,3y4w8q93l3x6crineoxuxi1ri8qvdz,ZBA7SlVE,2020-0188,2021-10-31,21:20:46,22:57:55,NA,incomplete,false,true,NA,NA,2,17,NA,blue,m_l_048.jpg,NA,NA,NA,NA,NA,unpleasant,pleasant,NA,NA,NA,NA,NA,right,1188,true,NA,NA,NA,NA,NA,NA,NA,NA
ZBA7SlVE,3z33ic0jd3zsmh7cb6nqm2m9m84v9l,3y4w8q93l3x6crineoxuxi1ri8qvdz,ZBA7SlVE,2020-0188,2021-10-31,21:20:46,22:57:55,NA,incomplete,false,true,NA,NA,2,18,NA,green,n_l_019.jpg,NA,NA,NA,NA,NA,pleasant,unpleasant,NA,NA,NA,NA,NA,left,2201,true,NA,NA,NA,NA,NA,NA,NA,NA
ZBA7SlVE,3z33ic0jd3zsmh7cb6nqm2m9m84v9l,3y4w8q93l3x6crineoxuxi1ri8qvdz,ZBA7SlVE,2020-0188,2021-10-31,21:20:46,22:57:55,NA,incomplete,false,true,NA,NA,2,19,NA,green,n_s_062.jpg,NA,NA,NA,NA,NA,unpleasant,pleasant,NA,NA,NA,NA,NA,left,1252,true,NA,NA,NA,NA,NA,NA,NA,NA
ZBA7SlVE,3z33ic0jd3zsmh7cb6nqm2m9m84v9l,3y4w8q93l3x6crineoxuxi1ri8qvdz,ZBA7SlVE,2020-0188,2021-10-31,21:20:46,22:57:55,NA,incomplete,false,true,NA,NA,2,20,NA,green,m_s_071.jpg,NA,NA,NA,NA,NA,pleasant,unpleasant,NA,NA,NA,NA,NA,left,1464,true,NA,NA,NA,NA,NA,NA,NA,NA
ZBA7SlVE,3z33ic0jd3zsmh7cb6nqm2m9m84v9l,3y4w8q93l3x6crineoxuxi1ri8qvdz,ZBA7SlVE,2020-0188,2021-10-31,21:20:46,22:57:55,NA,incomplete,false,true,NA,NA,2,21,NA,green,n_s_108.jpg,NA,NA,NA,NA,NA,pleasant,unpleasant,NA,NA,NA,NA,NA,left,1244,true,NA,NA,NA,NA,NA,NA,NA,NA
ZBA7SlVE,3z33ic0jd3zsmh7cb6nqm2m9m84v9l,3y4w8q93l3x6crineoxuxi1ri8qvdz,ZBA7SlVE,2020-0188,2021-10-31,21:20:46,22:57:55,NA,incomplete,false,true,NA,NA,2,22,NA,green,m_l_073.jpg,NA,NA,NA,NA,NA,pleasant,unpleasant,NA,NA,NA,NA,NA,left,1110,true,NA,NA,NA,NA,NA,NA,NA,NA
ZBA7SlVE,3z33ic0jd3zsmh7cb6nqm2m9m84v9l,3y4w8q93l3x6crineoxuxi1ri8qvdz,ZBA7SlVE,2020-0188,2021-10-31,21:20:46,22:57:55,NA,incomplete,false,true,NA,NA,2,23,NA,green,n_l_054.jpg,NA,NA,NA,NA,NA,pleasant,unpleasant,NA,NA,NA,NA,NA,left,1097,true,NA,NA,NA,NA,NA,NA,NA,NA
ZBA7SlVE,3z33ic0jd3zsmh7cb6nqm2m9m84v9l,3y4w8q93l3x6crineoxuxi1ri8qvdz,ZBA7SlVE,2020-0188,2021-10-31,21:20:46,22:57:55,NA,incomplete,false,true,NA,NA,2,24,NA,black,n_l_076.jpg,NA,NA,NA,NA,NA,unpleasant,pleasant,NA,NA,NA,NA,NA,left,2805,true,NA,NA,NA,NA,NA,NA,NA,NA
ZBA7SlVE,3z33ic0jd3zsmh7cb6nqm2m9m84v9l,3y4w8q93l3x6crineoxuxi1ri8qvdz,ZBA7SlVE,2020-0188,2021-10-31,21:20:46,22:57:55,NA,incomplete,false,true,NA,NA,2,25,NA,black,n_s_084.jpg,NA,NA,NA,NA,NA,unpleasant,pleasant,NA,NA,NA,NA,NA,right,1729,true,NA,NA,NA,NA,NA,NA,NA,NA
ZBA7SlVE,3z33ic0jd3zsmh7cb6nqm2m9m84v9l,3y4w8q93l3x6crineoxuxi1ri8qvdz,ZBA7SlVE,2020-0188,2021-10-31,21:20:46,22:57:55,NA,incomplete,false,true,NA,NA,2,26,NA,black,m_s_026.jpg,NA,NA,NA,NA,NA,unpleasant,pleasant,NA,NA,NA,NA,NA,left,1366,true,NA,NA,NA,NA,NA,NA,NA,NA
ZBA7SlVE,3z33ic0jd3zsmh7cb6nqm2m9m84v9l,3y4w8q93l3x6crineoxuxi1ri8qvdz,ZBA7SlVE,2020-0188,2021-10-31,21:20:46,22:57:55,NA,incomplete,false,true,NA,NA,2,27,NA,black,n_s_105.jpg,NA,NA,NA,NA,NA,pleasant,unpleasant,NA,NA,NA,NA,NA,right,1344,true,NA,NA,NA,NA,NA,NA,NA,NA
ZBA7SlVE,3z33ic0jd3zsmh7cb6nqm2m9m84v9l,3y4w8q93l3x6crineoxuxi1ri8qvdz,ZBA7SlVE,2020-0188,2021-10-31,21:20:46,22:57:55,NA,incomplete,false,true,NA,NA,2,28,NA,black,m_l_054.jpg,NA,NA,NA,NA,NA,unpleasant,pleasant,NA,NA,NA,NA,NA,left,1219,true,NA,NA,NA,NA,NA,NA,NA,NA
ZBA7SlVE,3z33ic0jd3zsmh7cb6nqm2m9m84v9l,3y4w8q93l3x6crineoxuxi1ri8qvdz,ZBA7SlVE,2020-0188,2021-10-31,21:20:46,22:57:55,NA,incomplete,false,true,NA,NA,2,29,NA,black,n_l_034.jpg,NA,NA,NA,NA,NA,pleasant,unpleasant,NA,NA,NA,NA,NA,right,1327,true,NA,NA,NA,NA,NA,NA,NA,NA
ZBA7SlVE,3z33ic0jd3zsmh7cb6nqm2m9m84v9l,3y4w8q93l3x6crineoxuxi1ri8qvdz,ZBA7SlVE,2020-0188,2021-10-31,21:20:46,22:57:55,NA,incomplete,false,true,NA,NA,2,30,NA,yellow,m_l_039.jpg,NA,NA,NA,NA,NA,pleasant,unpleasant,NA,NA,NA,NA,NA,left,2714,true,NA,NA,NA,NA,NA,NA,NA,NA
ZBA7SlVE,3z33ic0jd3zsmh7cb6nqm2m9m84v9l,3y4w8q93l3x6crineoxuxi1ri8qvdz,ZBA7SlVE,2020-0188,2021-10-31,21:20:46,22:57:55,NA,incomplete,false,true,NA,NA,2,31,NA,yellow,m_s_045.jpg,NA,NA,NA,NA,NA,unpleasant,pleasant,NA,NA,NA,NA,NA,right,1646,true,NA,NA,NA,NA,NA,NA,NA,NA
ZBA7SlVE,3z33ic0jd3zsmh7cb6nqm2m9m84v9l,3y4w8q93l3x6crineoxuxi1ri8qvdz,ZBA7SlVE,2020-0188,2021-10-31,21:20:46,22:57:55,NA,incomplete,false,true,NA,NA,2,32,NA,yellow,n_l_055.jpg,NA,NA,NA,NA,NA,unpleasant,pleasant,NA,NA,NA,NA,NA,right,1338,true,NA,NA,NA,NA,NA,NA,NA,NA
ZBA7SlVE,3z33ic0jd3zsmh7cb6nqm2m9m84v9l,3y4w8q93l3x6crineoxuxi1ri8qvdz,ZBA7SlVE,2020-0188,2021-10-31,21:20:46,22:57:55,NA,incomplete,false,true,NA,NA,2,33,NA,yellow,m_s_067.jpg,NA,NA,NA,NA,NA,unpleasant,pleasant,NA,NA,NA,NA,NA,right,980,true,NA,NA,NA,NA,NA,NA,NA,NA
ZBA7SlVE,3z33ic0jd3zsmh7cb6nqm2m9m84v9l,3y4w8q93l3x6crineoxuxi1ri8qvdz,ZBA7SlVE,2020-0188,2021-10-31,21:20:46,22:57:55,NA,incomplete,false,true,NA,NA,2,34,NA,yellow,n_s_002.jpg,NA,NA,NA,NA,NA,pleasant,unpleasant,NA,NA,NA,NA,NA,left,840,true,NA,NA,NA,NA,NA,NA,NA,NA
ZBA7SlVE,3z33ic0jd3zsmh7cb6nqm2m9m84v9l,3y4w8q93l3x6crineoxuxi1ri8qvdz,ZBA7SlVE,2020-0188,2021-10-31,21:20:46,22:57:55,NA,incomplete,false,true,NA,NA,2,35,NA,yellow,n_s_030.jpg,NA,NA,NA,NA,NA,pleasant,unpleasant,NA,NA,NA,NA,NA,left,1324,true,NA,NA,NA,NA,NA,NA,NA,NA
ZBA7SlVE,3z33ic0jd3zsmh7cb6nqm2m9m84v9l,3y4w8q93l3x6crineoxuxi1ri8qvdz,ZBA7SlVE,2020-0188,2021-10-31,21:20:46,22:57:55,NA,incomplete,false,NA,NA,true,2,0,NA,NA,NA,left,m_s_095.jpg,blue,gray,NA,NA,NA,NA,NA,NA,NA,NA,NA,NaN,NA,2973,left,1,NA,NA,NA,NA,NA
ZBA7SlVE,3z33ic0jd3zsmh7cb6nqm2m9m84v9l,3y4w8q93l3x6crineoxuxi1ri8qvdz,ZBA7SlVE,2020-0188,2021-10-31,21:20:46,22:57:55,NA,incomplete,false,NA,NA,true,2,1,NA,NA,NA,left,m_s_081.jpg,gray,red,NA,NA,NA,NA,NA,NA,NA,NA,NA,NaN,NA,4070,left,1,NA,NA,NA,NA,NA
ZBA7SlVE,3z33ic0jd3zsmh7cb6nqm2m9m84v9l,3y4w8q93l3x6crineoxuxi1ri8qvdz,ZBA7SlVE,2020-0188,2021-10-31,21:20:46,22:57:55,NA,incomplete,false,NA,NA,true,2,2,NA,NA,NA,left,n_l_054.jpg,green,blue,NA,NA,NA,NA,NA,NA,NA,NA,NA,NaN,NA,2621,left,1,NA,NA,NA,NA,NA
ZBA7SlVE,3z33ic0jd3zsmh7cb6nqm2m9m84v9l,3y4w8q93l3x6crineoxuxi1ri8qvdz,ZBA7SlVE,2020-0188,2021-10-31,21:20:46,22:57:55,NA,incomplete,false,NA,NA,true,2,3,NA,NA,NA,left,m_l_073.jpg,green,blue,NA,NA,NA,NA,NA,NA,NA,NA,NA,NaN,NA,1911,right,0,NA,NA,NA,NA,NA
ZBA7SlVE,3z33ic0jd3zsmh7cb6nqm2m9m84v9l,3y4w8q93l3x6crineoxuxi1ri8qvdz,ZBA7SlVE,2020-0188,2021-10-31,21:20:46,22:57:55,NA,incomplete,false,NA,NA,true,2,4,NA,NA,NA,right,n_l_110.jpg,gray,blue,NA,NA,NA,NA,NA,NA,NA,NA,NA,NaN,NA,3703,right,1,NA,NA,NA,NA,NA
ZBA7SlVE,3z33ic0jd3zsmh7cb6nqm2m9m84v9l,3y4w8q93l3x6crineoxuxi1ri8qvdz,ZBA7SlVE,2020-0188,2021-10-31,21:20:46,22:57:55,NA,incomplete,false,NA,NA,true,2,5,NA,NA,NA,right,m_s_026.jpg,yellow,black,NA,NA,NA,NA,NA,NA,NA,NA,NA,NaN,NA,2215,left,0,NA,NA,NA,NA,NA
ZBA7SlVE,3z33ic0jd3zsmh7cb6nqm2m9m84v9l,3y4w8q93l3x6crineoxuxi1ri8qvdz,ZBA7SlVE,2020-0188,2021-10-31,21:20:46,22:57:55,NA,incomplete,false,NA,NA,true,2,6,NA,NA,NA,right,m_s_099.jpg,gray,red,NA,NA,NA,NA,NA,NA,NA,NA,NA,NaN,NA,3014,left,0,NA,NA,NA,NA,NA
ZBA7SlVE,3z33ic0jd3zsmh7cb6nqm2m9m84v9l,3y4w8q93l3x6crineoxuxi1ri8qvdz,ZBA7SlVE,2020-0188,2021-10-31,21:20:46,22:57:55,NA,incomplete,false,NA,NA,true,2,7,NA,NA,NA,right,n_l_034.jpg,yellow,black,NA,NA,NA,NA,NA,NA,NA,NA,NA,NaN,NA,3550,left,0,NA,NA,NA,NA,NA
ZBA7SlVE,3z33ic0jd3zsmh7cb6nqm2m9m84v9l,3y4w8q93l3x6crineoxuxi1ri8qvdz,ZBA7SlVE,2020-0188,2021-10-31,21:20:46,22:57:55,NA,incomplete,false,NA,NA,true,2,8,NA,NA,NA,right,m_s_071.jpg,blue,green,NA,NA,NA,NA,NA,NA,NA,NA,NA,NaN,NA,2326,right,1,NA,NA,NA,NA,NA
ZBA7SlVE,3z33ic0jd3zsmh7cb6nqm2m9m84v9l,3y4w8q93l3x6crineoxuxi1ri8qvdz,ZBA7SlVE,2020-0188,2021-10-31,21:20:46,22:57:55,NA,incomplete,false,NA,NA,true,2,9,NA,NA,NA,right,m_l_004.jpg,green,blue,NA,NA,NA,NA,NA,NA,NA,NA,NA,NaN,NA,3158,left,0,NA,NA,NA,NA,NA
ZBA7SlVE,3z33ic0jd3zsmh7cb6nqm2m9m84v9l,3y4w8q93l3x6crineoxuxi1ri8qvdz,ZBA7SlVE,2020-0188,2021-10-31,21:20:46,22:57:55,NA,incomplete,false,NA,NA,true,2,10,NA,NA,NA,right,m_s_031.jpg,blue,gray,NA,NA,NA,NA,NA,NA,NA,NA,NA,NaN,NA,3989,left,0,NA,NA,NA,NA,NA
ZBA7SlVE,3z33ic0jd3zsmh7cb6nqm2m9m84v9l,3y4w8q93l3x6crineoxuxi1ri8qvdz,ZBA7SlVE,2020-0188,2021-10-31,21:20:46,22:57:55,NA,incomplete,false,NA,NA,true,2,11,NA,NA,NA,left,n_s_030.jpg,yellow,black,NA,NA,NA,NA,NA,NA,NA,NA,NA,NaN,NA,6743,right,0,NA,NA,NA,NA,NA
ZBA7SlVE,3z33ic0jd3zsmh7cb6nqm2m9m84v9l,3y4w8q93l3x6crineoxuxi1ri8qvdz,ZBA7SlVE,2020-0188,2021-10-31,21:20:46,22:57:55,NA,incomplete,false,NA,NA,true,2,12,NA,NA,NA,right,n_l_040.jpg,blue,gray,NA,NA,NA,NA,NA,NA,NA,NA,NA,NaN,NA,4790,left,0,NA,NA,NA,NA,NA
ZBA7SlVE,3z33ic0jd3zsmh7cb6nqm2m9m84v9l,3y4w8q93l3x6crineoxuxi1ri8qvdz,ZBA7SlVE,2020-0188,2021-10-31,21:20:46,22:57:55,NA,incomplete,false,NA,NA,true,2,13,NA,NA,NA,right,m_l_054.jpg,green,black,NA,NA,NA,NA,NA,NA,NA,NA,NA,NaN,NA,3347,right,1,NA,NA,NA,NA,NA
ZBA7SlVE,3z33ic0jd3zsmh7cb6nqm2m9m84v9l,3y4w8q93l3x6crineoxuxi1ri8qvdz,ZBA7SlVE,2020-0188,2021-10-31,21:20:46,22:57:55,NA,incomplete,false,NA,NA,true,2,14,NA,NA,NA,right,m_s_045.jpg,black,yellow,NA,NA,NA,NA,NA,NA,NA,NA,NA,NaN,NA,2894,right,1,NA,NA,NA,NA,NA
ZBA7SlVE,3z33ic0jd3zsmh7cb6nqm2m9m84v9l,3y4w8q93l3x6crineoxuxi1ri8qvdz,ZBA7SlVE,2020-0188,2021-10-31,21:20:46,22:57:55,NA,incomplete,false,NA,NA,true,2,15,NA,NA,NA,right,n_l_055.jpg,black,yellow,NA,NA,NA,NA,NA,NA,NA,NA,NA,NaN,NA,4029,right,1,NA,NA,NA,NA,NA
ZBA7SlVE,3z33ic0jd3zsmh7cb6nqm2m9m84v9l,3y4w8q93l3x6crineoxuxi1ri8qvdz,ZBA7SlVE,2020-0188,2021-10-31,21:20:46,22:57:55,NA,incomplete,false,NA,NA,true,2,16,NA,NA,NA,right,n_s_084.jpg,green,black,NA,NA,NA,NA,NA,NA,NA,NA,NA,NaN,NA,1878,left,0,NA,NA,NA,NA,NA
ZBA7SlVE,3z33ic0jd3zsmh7cb6nqm2m9m84v9l,3y4w8q93l3x6crineoxuxi1ri8qvdz,ZBA7SlVE,2020-0188,2021-10-31,21:20:46,22:57:55,NA,incomplete,false,NA,NA,true,2,17,NA,NA,NA,left,m_l_065.jpg,red,gray,NA,NA,NA,NA,NA,NA,NA,NA,NA,NaN,NA,2447,left,1,NA,NA,NA,NA,NA
ZBA7SlVE,3z33ic0jd3zsmh7cb6nqm2m9m84v9l,3y4w8q93l3x6crineoxuxi1ri8qvdz,ZBA7SlVE,2020-0188,2021-10-31,21:20:46,22:57:55,NA,incomplete,false,NA,NA,true,2,18,NA,NA,NA,left,n_l_087.jpg,red,gray,NA,NA,NA,NA,NA,NA,NA,NA,NA,NaN,NA,3182,right,0,NA,NA,NA,NA,NA
ZBA7SlVE,3z33ic0jd3zsmh7cb6nqm2m9m84v9l,3y4w8q93l3x6crineoxuxi1ri8qvdz,ZBA7SlVE,2020-0188,2021-10-31,21:20:46,22:57:55,NA,incomplete,false,NA,NA,true,2,19,NA,NA,NA,right,n_s_062.jpg,black,green,NA,NA,NA,NA,NA,NA,NA,NA,NA,NaN,NA,2174,right,1,NA,NA,NA,NA,NA
ZBA7SlVE,3z33ic0jd3zsmh7cb6nqm2m9m84v9l,3y4w8q93l3x6crineoxuxi1ri8qvdz,ZBA7SlVE,2020-0188,2021-10-31,21:20:46,22:57:55,NA,incomplete,false,NA,NA,true,2,20,NA,NA,NA,right,n_l_104.jpg,red,gray,NA,NA,NA,NA,NA,NA,NA,NA,NA,NaN,NA,4414,right,1,NA,NA,NA,NA,NA
ZBA7SlVE,3z33ic0jd3zsmh7cb6nqm2m9m84v9l,3y4w8q93l3x6crineoxuxi1ri8qvdz,ZBA7SlVE,2020-0188,2021-10-31,21:20:46,22:57:55,NA,incomplete,false,NA,NA,true,2,21,NA,NA,NA,right,m_l_048.jpg,gray,blue,NA,NA,NA,NA,NA,NA,NA,NA,NA,NaN,NA,2175,right,1,NA,NA,NA,NA,NA
ZBA7SlVE,3z33ic0jd3zsmh7cb6nqm2m9m84v9l,3y4w8q93l3x6crineoxuxi1ri8qvdz,ZBA7SlVE,2020-0188,2021-10-31,21:20:46,22:57:55,NA,incomplete,false,NA,true,NA,2,0,NA,NA,NA,right,NA,NA,NA,absent,NA,NA,n_l_055.jpg,yellow,m_l_054.jpg,black,between,NA,NaN,NA,NA,NA,NA,left,2054,0,1,4301
ZBA7SlVE,3z33ic0jd3zsmh7cb6nqm2m9m84v9l,3y4w8q93l3x6crineoxuxi1ri8qvdz,ZBA7SlVE,2020-0188,2021-10-31,21:20:46,22:57:55,NA,incomplete,false,NA,true,NA,2,1,NA,NA,NA,left,NA,NA,NA,absent,NA,NA,n_l_104.jpg,gray,n_l_040.jpg,gray,within,NA,NaN,NA,NA,NA,NA,right,1926,0,1,5997
ZBA7SlVE,3z33ic0jd3zsmh7cb6nqm2m9m84v9l,3y4w8q93l3x6crineoxuxi1ri8qvdz,ZBA7SlVE,2020-0188,2021-10-31,21:20:46,22:57:55,NA,incomplete,false,NA,true,NA,2,2,NA,NA,NA,right,NA,NA,NA,absent,NA,NA,n_s_030.jpg,yellow,m_s_045.jpg,yellow,within,NA,NaN,NA,NA,NA,NA,left,1573,0,1,1566
ZBA7SlVE,3z33ic0jd3zsmh7cb6nqm2m9m84v9l,3y4w8q93l3x6crineoxuxi1ri8qvdz,ZBA7SlVE,2020-0188,2021-10-31,21:20:46,22:57:55,NA,incomplete,false,NA,true,NA,2,3,NA,NA,NA,right,NA,NA,NA,absent,NA,NA,m_s_026.jpg,black,m_l_073.jpg,green,between,NA,NaN,NA,NA,NA,NA,left,1693,0,2,1695
ZBA7SlVE,3z33ic0jd3zsmh7cb6nqm2m9m84v9l,3y4w8q93l3x6crineoxuxi1ri8qvdz,ZBA7SlVE,2020-0188,2021-10-31,21:20:46,22:57:55,NA,incomplete,false,NA,true,NA,2,4,NA,NA,NA,left,NA,NA,NA,absent,NA,NA,m_l_004.jpg,blue,m_s_071.jpg,green,between,NA,NaN,NA,NA,NA,NA,left,1533,1,2,2742
ZBA7SlVE,3z33ic0jd3zsmh7cb6nqm2m9m84v9l,3y4w8q93l3x6crineoxuxi1ri8qvdz,ZBA7SlVE,2020-0188,2021-10-31,21:20:46,22:57:55,NA,incomplete,false,NA,true,NA,2,5,NA,NA,NA,right,NA,NA,NA,absent,NA,NA,m_s_081.jpg,gray,n_l_087.jpg,red,between,NA,NaN,NA,NA,NA,NA,left,2623,0,1,1462
ZBA7SlVE,3z33ic0jd3zsmh7cb6nqm2m9m84v9l,3y4w8q93l3x6crineoxuxi1ri8qvdz,ZBA7SlVE,2020-0188,2021-10-31,21:20:46,22:57:55,NA,incomplete,false,NA,true,NA,2,6,NA,NA,NA,right,NA,NA,NA,absent,NA,NA,m_l_065.jpg,red,m_s_099.jpg,red,within,NA,NaN,NA,NA,NA,NA,right,1647,1,1,2390
ZBA7SlVE,3z33ic0jd3zsmh7cb6nqm2m9m84v9l,3y4w8q93l3x6crineoxuxi1ri8qvdz,ZBA7SlVE,2020-0188,2021-10-31,21:20:46,22:57:55,NA,incomplete,false,NA,true,NA,2,7,NA,NA,NA,right,NA,NA,NA,absent,NA,NA,n_l_034.jpg,black,n_s_084.jpg,black,within,NA,NaN,NA,NA,NA,NA,right,2421,1,0,14580
ZBA7SlVE,3z33ic0jd3zsmh7cb6nqm2m9m84v9l,3y4w8q93l3x6crineoxuxi1ri8qvdz,ZBA7SlVE,2020-0188,2021-10-31,21:20:46,22:57:55,NA,incomplete,false,NA,true,NA,2,8,NA,NA,NA,left,NA,NA,NA,absent,NA,NA,m_s_031.jpg,gray,m_s_095.jpg,blue,between,NA,NaN,NA,NA,NA,NA,left,3127,1,2,1399
ZBA7SlVE,3z33ic0jd3zsmh7cb6nqm2m9m84v9l,3y4w8q93l3x6crineoxuxi1ri8qvdz,ZBA7SlVE,2020-0188,2021-10-31,21:20:46,22:57:55,NA,incomplete,false,NA,true,NA,2,9,NA,NA,NA,left,NA,NA,NA,absent,NA,NA,n_s_062.jpg,green,n_l_054.jpg,green,within,NA,NaN,NA,NA,NA,NA,left,2623,1,1,1287
ZBA7SlVE,3z33ic0jd3zsmh7cb6nqm2m9m84v9l,3y4w8q93l3x6crineoxuxi1ri8qvdz,ZBA7SlVE,2020-0188,2021-10-31,21:20:46,22:57:55,NA,incomplete,false,NA,true,NA,2,10,NA,NA,NA,right,NA,NA,NA,absent,NA,NA,m_l_048.jpg,blue,n_l_110.jpg,blue,within,NA,NaN,NA,NA,NA,NA,right,2893,1,2,1551
ZBA7SlVE,3z33ic0jd3zsmh7cb6nqm2m9m84v9l,3y4w8q93l3x6crineoxuxi1ri8qvdz,ZBA7SlVE,2020-0188,2021-10-31,21:20:46,22:57:55,NA,incomplete,false,true,NA,NA,3,0,NA,green,n_s_083.jpg,NA,NA,NA,NA,NA,pleasant,unpleasant,NA,NA,NA,NA,NA,right,2012,true,NA,NA,NA,NA,NA,NA,NA,NA
ZBA7SlVE,3z33ic0jd3zsmh7cb6nqm2m9m84v9l,3y4w8q93l3x6crineoxuxi1ri8qvdz,ZBA7SlVE,2020-0188,2021-10-31,21:20:46,22:57:55,NA,incomplete,false,true,NA,NA,3,1,NA,green,m_l_014.jpg,NA,NA,NA,NA,NA,pleasant,unpleasant,NA,NA,NA,NA,NA,left,2120,true,NA,NA,NA,NA,NA,NA,NA,NA
ZBA7SlVE,3z33ic0jd3zsmh7cb6nqm2m9m84v9l,3y4w8q93l3x6crineoxuxi1ri8qvdz,ZBA7SlVE,2020-0188,2021-10-31,21:20:46,22:57:55,NA,incomplete,false,true,NA,NA,3,2,NA,green,n_l_033.jpg,NA,NA,NA,NA,NA,unpleasant,pleasant,NA,NA,NA,NA,NA,left,2204,true,NA,NA,NA,NA,NA,NA,NA,NA
ZBA7SlVE,3z33ic0jd3zsmh7cb6nqm2m9m84v9l,3y4w8q93l3x6crineoxuxi1ri8qvdz,ZBA7SlVE,2020-0188,2021-10-31,21:20:46,22:57:55,NA,incomplete,false,true,NA,NA,3,3,NA,green,n_s_050.jpg,NA,NA,NA,NA,NA,pleasant,unpleasant,NA,NA,NA,NA,NA,right,1255,true,NA,NA,NA,NA,NA,NA,NA,NA
ZBA7SlVE,3z33ic0jd3zsmh7cb6nqm2m9m84v9l,3y4w8q93l3x6crineoxuxi1ri8qvdz,ZBA7SlVE,2020-0188,2021-10-31,21:20:46,22:57:55,NA,incomplete,false,true,NA,NA,3,4,NA,green,n_l_088.jpg,NA,NA,NA,NA,NA,unpleasant,pleasant,NA,NA,NA,NA,NA,left,1699,true,NA,NA,NA,NA,NA,NA,NA,NA
ZBA7SlVE,3z33ic0jd3zsmh7cb6nqm2m9m84v9l,3y4w8q93l3x6crineoxuxi1ri8qvdz,ZBA7SlVE,2020-0188,2021-10-31,21:20:46,22:57:55,NA,incomplete,false,true,NA,NA,3,5,NA,green,n_l_106.jpg,NA,NA,NA,NA,NA,pleasant,unpleasant,NA,NA,NA,NA,NA,left,1743,true,NA,NA,NA,NA,NA,NA,NA,NA
ZBA7SlVE,3z33ic0jd3zsmh7cb6nqm2m9m84v9l,3y4w8q93l3x6crineoxuxi1ri8qvdz,ZBA7SlVE,2020-0188,2021-10-31,21:20:46,22:57:55,NA,incomplete,false,true,NA,NA,3,6,NA,purple,n_l_009.jpg,NA,NA,NA,NA,NA,unpleasant,pleasant,NA,NA,NA,NA,NA,left,2179,true,NA,NA,NA,NA,NA,NA,NA,NA
ZBA7SlVE,3z33ic0jd3zsmh7cb6nqm2m9m84v9l,3y4w8q93l3x6crineoxuxi1ri8qvdz,ZBA7SlVE,2020-0188,2021-10-31,21:20:46,22:57:55,NA,incomplete,false,true,NA,NA,3,7,NA,purple,m_s_036.jpg,NA,NA,NA,NA,NA,unpleasant,pleasant,NA,NA,NA,NA,NA,right,1805,true,NA,NA,NA,NA,NA,NA,NA,NA
ZBA7SlVE,3z33ic0jd3zsmh7cb6nqm2m9m84v9l,3y4w8q93l3x6crineoxuxi1ri8qvdz,ZBA7SlVE,2020-0188,2021-10-31,21:20:46,22:57:55,NA,incomplete,false,true,NA,NA,3,8,NA,purple,m_l_091.jpg,NA,NA,NA,NA,NA,pleasant,unpleasant,NA,NA,NA,NA,NA,left,2490,true,NA,NA,NA,NA,NA,NA,NA,NA
ZBA7SlVE,3z33ic0jd3zsmh7cb6nqm2m9m84v9l,3y4w8q93l3x6crineoxuxi1ri8qvdz,ZBA7SlVE,2020-0188,2021-10-31,21:20:46,22:57:55,NA,incomplete,false,true,NA,NA,3,9,NA,purple,n_s_067.jpg,NA,NA,NA,NA,NA,unpleasant,pleasant,NA,NA,NA,NA,NA,right,1748,true,NA,NA,NA,NA,NA,NA,NA,NA
ZBA7SlVE,3z33ic0jd3zsmh7cb6nqm2m9m84v9l,3y4w8q93l3x6crineoxuxi1ri8qvdz,ZBA7SlVE,2020-0188,2021-10-31,21:20:46,22:57:55,NA,incomplete,false,true,NA,NA,3,10,NA,purple,m_s_104.jpg,NA,NA,NA,NA,NA,pleasant,unpleasant,NA,NA,NA,NA,NA,left,1743,true,NA,NA,NA,NA,NA,NA,NA,NA
ZBA7SlVE,3z33ic0jd3zsmh7cb6nqm2m9m84v9l,3y4w8q93l3x6crineoxuxi1ri8qvdz,ZBA7SlVE,2020-0188,2021-10-31,21:20:46,22:57:55,NA,incomplete,false,true,NA,NA,3,11,NA,purple,m_s_051.jpg,NA,NA,NA,NA,NA,pleasant,unpleasant,NA,NA,NA,NA,NA,left,1450,true,NA,NA,NA,NA,NA,NA,NA,NA
ZBA7SlVE,3z33ic0jd3zsmh7cb6nqm2m9m84v9l,3y4w8q93l3x6crineoxuxi1ri8qvdz,ZBA7SlVE,2020-0188,2021-10-31,21:20:46,22:57:55,NA,incomplete,false,true,NA,NA,3,12,NA,red,m_s_070.jpg,NA,NA,NA,NA,NA,pleasant,unpleasant,NA,NA,NA,NA,NA,left,1575,true,NA,NA,NA,NA,NA,NA,NA,NA
ZBA7SlVE,3z33ic0jd3zsmh7cb6nqm2m9m84v9l,3y4w8q93l3x6crineoxuxi1ri8qvdz,ZBA7SlVE,2020-0188,2021-10-31,21:20:46,22:57:55,NA,incomplete,false,true,NA,NA,3,13,NA,red,n_l_048.jpg,NA,NA,NA,NA,NA,unpleasant,pleasant,NA,NA,NA,NA,NA,right,1171,true,NA,NA,NA,NA,NA,NA,NA,NA
ZBA7SlVE,3z33ic0jd3zsmh7cb6nqm2m9m84v9l,3y4w8q93l3x6crineoxuxi1ri8qvdz,ZBA7SlVE,2020-0188,2021-10-31,21:20:46,22:57:55,NA,incomplete,false,true,NA,NA,3,14,NA,red,m_l_058.jpg,NA,NA,NA,NA,NA,pleasant,unpleasant,NA,NA,NA,NA,NA,left,1344,true,NA,NA,NA,NA,NA,NA,NA,NA
ZBA7SlVE,3z33ic0jd3zsmh7cb6nqm2m9m84v9l,3y4w8q93l3x6crineoxuxi1ri8qvdz,ZBA7SlVE,2020-0188,2021-10-31,21:20:46,22:57:55,NA,incomplete,false,true,NA,NA,3,15,NA,red,m_s_011.jpg,NA,NA,NA,NA,NA,unpleasant,pleasant,NA,NA,NA,NA,NA,left,1642,true,NA,NA,NA,NA,NA,NA,NA,NA
ZBA7SlVE,3z33ic0jd3zsmh7cb6nqm2m9m84v9l,3y4w8q93l3x6crineoxuxi1ri8qvdz,ZBA7SlVE,2020-0188,2021-10-31,21:20:46,22:57:55,NA,incomplete,false,true,NA,NA,3,16,NA,red,n_l_060.jpg,NA,NA,NA,NA,NA,pleasant,unpleasant,NA,NA,NA,NA,NA,right,1638,true,NA,NA,NA,NA,NA,NA,NA,NA
ZBA7SlVE,3z33ic0jd3zsmh7cb6nqm2m9m84v9l,3y4w8q93l3x6crineoxuxi1ri8qvdz,ZBA7SlVE,2020-0188,2021-10-31,21:20:46,22:57:55,NA,incomplete,false,true,NA,NA,3,17,NA,red,n_l_107.jpg,NA,NA,NA,NA,NA,pleasant,unpleasant,NA,NA,NA,NA,NA,right,2002,true,NA,NA,NA,NA,NA,NA,NA,NA
ZBA7SlVE,3z33ic0jd3zsmh7cb6nqm2m9m84v9l,3y4w8q93l3x6crineoxuxi1ri8qvdz,ZBA7SlVE,2020-0188,2021-10-31,21:20:46,22:57:55,NA,incomplete,false,true,NA,NA,3,18,NA,gray,m_l_079.jpg,NA,NA,NA,NA,NA,pleasant,unpleasant,NA,NA,NA,NA,NA,right,1797,true,NA,NA,NA,NA,NA,NA,NA,NA
ZBA7SlVE,3z33ic0jd3zsmh7cb6nqm2m9m84v9l,3y4w8q93l3x6crineoxuxi1ri8qvdz,ZBA7SlVE,2020-0188,2021-10-31,21:20:46,22:57:55,NA,incomplete,false,true,NA,NA,3,19,NA,gray,n_l_052.jpg,NA,NA,NA,NA,NA,pleasant,unpleasant,NA,NA,NA,NA,NA,left,2351,true,NA,NA,NA,NA,NA,NA,NA,NA
ZBA7SlVE,3z33ic0jd3zsmh7cb6nqm2m9m84v9l,3y4w8q93l3x6crineoxuxi1ri8qvdz,ZBA7SlVE,2020-0188,2021-10-31,21:20:46,22:57:55,NA,incomplete,false,true,NA,NA,3,20,NA,gray,n_l_085.jpg,NA,NA,NA,NA,NA,unpleasant,pleasant,NA,NA,NA,NA,NA,left,2260,true,NA,NA,NA,NA,NA,NA,NA,NA
ZBA7SlVE,3z33ic0jd3zsmh7cb6nqm2m9m84v9l,3y4w8q93l3x6crineoxuxi1ri8qvdz,ZBA7SlVE,2020-0188,2021-10-31,21:20:46,22:57:55,NA,incomplete,false,true,NA,NA,3,21,NA,gray,n_l_029.jpg,NA,NA,NA,NA,NA,pleasant,unpleasant,NA,NA,NA,NA,NA,left,2191,true,NA,NA,NA,NA,NA,NA,NA,NA
ZBA7SlVE,3z33ic0jd3zsmh7cb6nqm2m9m84v9l,3y4w8q93l3x6crineoxuxi1ri8qvdz,ZBA7SlVE,2020-0188,2021-10-31,21:20:46,22:57:55,NA,incomplete,false,true,NA,NA,3,22,NA,gray,m_l_080.jpg,NA,NA,NA,NA,NA,pleasant,unpleasant,NA,NA,NA,NA,NA,left,1395,true,NA,NA,NA,NA,NA,NA,NA,NA
ZBA7SlVE,3z33ic0jd3zsmh7cb6nqm2m9m84v9l,3y4w8q93l3x6crineoxuxi1ri8qvdz,ZBA7SlVE,2020-0188,2021-10-31,21:20:46,22:57:55,NA,incomplete,false,true,NA,NA,3,23,NA,gray,m_l_013.jpg,NA,NA,NA,NA,NA,pleasant,unpleasant,NA,NA,NA,NA,NA,left,1576,true,NA,NA,NA,NA,NA,NA,NA,NA
ZBA7SlVE,3z33ic0jd3zsmh7cb6nqm2m9m84v9l,3y4w8q93l3x6crineoxuxi1ri8qvdz,ZBA7SlVE,2020-0188,2021-10-31,21:20:46,22:57:55,NA,incomplete,false,true,NA,NA,3,24,NA,black,m_l_083.jpg,NA,NA,NA,NA,NA,pleasant,unpleasant,NA,NA,NA,NA,NA,left,1315,true,NA,NA,NA,NA,NA,NA,NA,NA
ZBA7SlVE,3z33ic0jd3zsmh7cb6nqm2m9m84v9l,3y4w8q93l3x6crineoxuxi1ri8qvdz,ZBA7SlVE,2020-0188,2021-10-31,21:20:46,22:57:55,NA,incomplete,false,true,NA,NA,3,25,NA,black,n_s_106.jpg,NA,NA,NA,NA,NA,unpleasant,pleasant,NA,NA,NA,NA,NA,left,1598,true,NA,NA,NA,NA,NA,NA,NA,NA
ZBA7SlVE,3z33ic0jd3zsmh7cb6nqm2m9m84v9l,3y4w8q93l3x6crineoxuxi1ri8qvdz,ZBA7SlVE,2020-0188,2021-10-31,21:20:46,22:57:55,NA,incomplete,false,true,NA,NA,3,26,NA,black,m_l_003.jpg,NA,NA,NA,NA,NA,pleasant,unpleasant,NA,NA,NA,NA,NA,left,1547,true,NA,NA,NA,NA,NA,NA,NA,NA
ZBA7SlVE,3z33ic0jd3zsmh7cb6nqm2m9m84v9l,3y4w8q93l3x6crineoxuxi1ri8qvdz,ZBA7SlVE,2020-0188,2021-10-31,21:20:46,22:57:55,NA,incomplete,false,true,NA,NA,3,27,NA,black,n_l_092.jpg,NA,NA,NA,NA,NA,pleasant,unpleasant,NA,NA,NA,NA,NA,right,1223,true,NA,NA,NA,NA,NA,NA,NA,NA
ZBA7SlVE,3z33ic0jd3zsmh7cb6nqm2m9m84v9l,3y4w8q93l3x6crineoxuxi1ri8qvdz,ZBA7SlVE,2020-0188,2021-10-31,21:20:46,22:57:55,NA,incomplete,false,true,NA,NA,3,28,NA,black,n_s_036.jpg,NA,NA,NA,NA,NA,pleasant,unpleasant,NA,NA,NA,NA,NA,left,1139,true,NA,NA,NA,NA,NA,NA,NA,NA
ZBA7SlVE,3z33ic0jd3zsmh7cb6nqm2m9m84v9l,3y4w8q93l3x6crineoxuxi1ri8qvdz,ZBA7SlVE,2020-0188,2021-10-31,21:20:46,22:57:55,NA,incomplete,false,true,NA,NA,3,29,NA,black,n_l_100.jpg,NA,NA,NA,NA,NA,pleasant,unpleasant,NA,NA,NA,NA,NA,left,1230,true,NA,NA,NA,NA,NA,NA,NA,NA
ZBA7SlVE,3z33ic0jd3zsmh7cb6nqm2m9m84v9l,3y4w8q93l3x6crineoxuxi1ri8qvdz,ZBA7SlVE,2020-0188,2021-10-31,21:20:46,22:57:55,NA,incomplete,false,true,NA,NA,3,30,NA,white,m_l_005.jpg,NA,NA,NA,NA,NA,unpleasant,pleasant,NA,NA,NA,NA,NA,left,1339,true,NA,NA,NA,NA,NA,NA,NA,NA
ZBA7SlVE,3z33ic0jd3zsmh7cb6nqm2m9m84v9l,3y4w8q93l3x6crineoxuxi1ri8qvdz,ZBA7SlVE,2020-0188,2021-10-31,21:20:46,22:57:55,NA,incomplete,false,true,NA,NA,3,31,NA,white,m_l_102.jpg,NA,NA,NA,NA,NA,pleasant,unpleasant,NA,NA,NA,NA,NA,left,1263,true,NA,NA,NA,NA,NA,NA,NA,NA
ZBA7SlVE,3z33ic0jd3zsmh7cb6nqm2m9m84v9l,3y4w8q93l3x6crineoxuxi1ri8qvdz,ZBA7SlVE,2020-0188,2021-10-31,21:20:46,22:57:55,NA,incomplete,false,true,NA,NA,3,32,NA,white,n_l_074.jpg,NA,NA,NA,NA,NA,pleasant,unpleasant,NA,NA,NA,NA,NA,left,1104,true,NA,NA,NA,NA,NA,NA,NA,NA
ZBA7SlVE,3z33ic0jd3zsmh7cb6nqm2m9m84v9l,3y4w8q93l3x6crineoxuxi1ri8qvdz,ZBA7SlVE,2020-0188,2021-10-31,21:20:46,22:57:55,NA,incomplete,false,true,NA,NA,3,33,NA,white,n_s_025.jpg,NA,NA,NA,NA,NA,unpleasant,pleasant,NA,NA,NA,NA,NA,left,1422,true,NA,NA,NA,NA,NA,NA,NA,NA
ZBA7SlVE,3z33ic0jd3zsmh7cb6nqm2m9m84v9l,3y4w8q93l3x6crineoxuxi1ri8qvdz,ZBA7SlVE,2020-0188,2021-10-31,21:20:46,22:57:55,NA,incomplete,false,true,NA,NA,3,34,NA,white,m_s_085.jpg,NA,NA,NA,NA,NA,unpleasant,pleasant,NA,NA,NA,NA,NA,left,1377,true,NA,NA,NA,NA,NA,NA,NA,NA
ZBA7SlVE,3z33ic0jd3zsmh7cb6nqm2m9m84v9l,3y4w8q93l3x6crineoxuxi1ri8qvdz,ZBA7SlVE,2020-0188,2021-10-31,21:20:46,22:57:55,NA,incomplete,false,true,NA,NA,3,35,NA,white,m_s_047.jpg,NA,NA,NA,NA,NA,unpleasant,pleasant,NA,NA,NA,NA,NA,right,1005,true,NA,NA,NA,NA,NA,NA,NA,NA
ZBA7SlVE,3z33ic0jd3zsmh7cb6nqm2m9m84v9l,3y4w8q93l3x6crineoxuxi1ri8qvdz,ZBA7SlVE,2020-0188,2021-10-31,21:20:46,22:57:55,NA,incomplete,false,NA,NA,true,3,0,NA,NA,NA,right,n_l_052.jpg,black,gray,NA,NA,NA,NA,NA,NA,NA,NA,NA,NaN,NA,2925,left,0,NA,NA,NA,NA,NA
ZBA7SlVE,3z33ic0jd3zsmh7cb6nqm2m9m84v9l,3y4w8q93l3x6crineoxuxi1ri8qvdz,ZBA7SlVE,2020-0188,2021-10-31,21:20:46,22:57:55,NA,incomplete,false,NA,NA,true,3,1,NA,NA,NA,left,n_l_074.jpg,white,black,NA,NA,NA,NA,NA,NA,NA,NA,NA,NaN,NA,4629,left,1,NA,NA,NA,NA,NA
ZBA7SlVE,3z33ic0jd3zsmh7cb6nqm2m9m84v9l,3y4w8q93l3x6crineoxuxi1ri8qvdz,ZBA7SlVE,2020-0188,2021-10-31,21:20:46,22:57:55,NA,incomplete,false,NA,NA,true,3,2,NA,NA,NA,right,n_l_085.jpg,red,gray,NA,NA,NA,NA,NA,NA,NA,NA,NA,NaN,NA,3156,right,1,NA,NA,NA,NA,NA
ZBA7SlVE,3z33ic0jd3zsmh7cb6nqm2m9m84v9l,3y4w8q93l3x6crineoxuxi1ri8qvdz,ZBA7SlVE,2020-0188,2021-10-31,21:20:46,22:57:55,NA,incomplete,false,NA,NA,true,3,3,NA,NA,NA,left,m_l_091.jpg,purple,green,NA,NA,NA,NA,NA,NA,NA,NA,NA,NaN,NA,4054,right,0,NA,NA,NA,NA,NA
ZBA7SlVE,3z33ic0jd3zsmh7cb6nqm2m9m84v9l,3y4w8q93l3x6crineoxuxi1ri8qvdz,ZBA7SlVE,2020-0188,2021-10-31,21:20:46,22:57:55,NA,incomplete,false,NA,NA,true,3,4,NA,NA,NA,left,n_s_106.jpg,black,white,NA,NA,NA,NA,NA,NA,NA,NA,NA,NaN,NA,2534,left,1,NA,NA,NA,NA,NA
ZBA7SlVE,3z33ic0jd3zsmh7cb6nqm2m9m84v9l,3y4w8q93l3x6crineoxuxi1ri8qvdz,ZBA7SlVE,2020-0188,2021-10-31,21:20:46,22:57:55,NA,incomplete,false,NA,NA,true,3,5,NA,NA,NA,left,m_l_014.jpg,green,purple,NA,NA,NA,NA,NA,NA,NA,NA,NA,NaN,NA,5461,right,0,NA,NA,NA,NA,NA
ZBA7SlVE,3z33ic0jd3zsmh7cb6nqm2m9m84v9l,3y4w8q93l3x6crineoxuxi1ri8qvdz,ZBA7SlVE,2020-0188,2021-10-31,21:20:46,22:57:55,NA,incomplete,false,NA,NA,true,3,6,NA,NA,NA,right,m_l_058.jpg,gray,red,NA,NA,NA,NA,NA,NA,NA,NA,NA,NaN,NA,4860,left,0,NA,NA,NA,NA,NA
ZBA7SlVE,3z33ic0jd3zsmh7cb6nqm2m9m84v9l,3y4w8q93l3x6crineoxuxi1ri8qvdz,ZBA7SlVE,2020-0188,2021-10-31,21:20:46,22:57:55,NA,incomplete,false,NA,NA,true,3,7,NA,NA,NA,left,n_l_100.jpg,black,white,NA,NA,NA,NA,NA,NA,NA,NA,NA,NaN,NA,4260,right,0,NA,NA,NA,NA,NA
ZBA7SlVE,3z33ic0jd3zsmh7cb6nqm2m9m84v9l,3y4w8q93l3x6crineoxuxi1ri8qvdz,ZBA7SlVE,2020-0188,2021-10-31,21:20:46,22:57:55,NA,incomplete,false,NA,NA,true,3,8,NA,NA,NA,left,m_s_104.jpg,purple,green,NA,NA,NA,NA,NA,NA,NA,NA,NA,NaN,NA,2925,left,1,NA,NA,NA,NA,NA
ZBA7SlVE,3z33ic0jd3zsmh7cb6nqm2m9m84v9l,3y4w8q93l3x6crineoxuxi1ri8qvdz,ZBA7SlVE,2020-0188,2021-10-31,21:20:46,22:57:55,NA,incomplete,false,NA,NA,true,3,9,NA,NA,NA,right,m_s_047.jpg,black,white,NA,NA,NA,NA,NA,NA,NA,NA,NA,NaN,NA,2439,left,0,NA,NA,NA,NA,NA
ZBA7SlVE,3z33ic0jd3zsmh7cb6nqm2m9m84v9l,3y4w8q93l3x6crineoxuxi1ri8qvdz,ZBA7SlVE,2020-0188,2021-10-31,21:20:46,22:57:55,NA,incomplete,false,NA,NA,true,3,10,NA,NA,NA,left,m_l_080.jpg,gray,black,NA,NA,NA,NA,NA,NA,NA,NA,NA,NaN,NA,4621,left,1,NA,NA,NA,NA,NA
ZBA7SlVE,3z33ic0jd3zsmh7cb6nqm2m9m84v9l,3y4w8q93l3x6crineoxuxi1ri8qvdz,ZBA7SlVE,2020-0188,2021-10-31,21:20:46,22:57:55,NA,incomplete,false,NA,NA,true,3,11,NA,NA,NA,left,m_l_003.jpg,black,gray,NA,NA,NA,NA,NA,NA,NA,NA,NA,NaN,NA,3677,left,1,NA,NA,NA,NA,NA
ZBA7SlVE,3z33ic0jd3zsmh7cb6nqm2m9m84v9l,3y4w8q93l3x6crineoxuxi1ri8qvdz,ZBA7SlVE,2020-0188,2021-10-31,21:20:46,22:57:55,NA,incomplete,false,NA,NA,true,3,12,NA,NA,NA,left,n_l_048.jpg,red,gray,NA,NA,NA,NA,NA,NA,NA,NA,NA,NaN,NA,1837,left,1,NA,NA,NA,NA,NA
ZBA7SlVE,3z33ic0jd3zsmh7cb6nqm2m9m84v9l,3y4w8q93l3x6crineoxuxi1ri8qvdz,ZBA7SlVE,2020-0188,2021-10-31,21:20:46,22:57:55,NA,incomplete,false,NA,NA,true,3,13,NA,NA,NA,left,n_l_107.jpg,red,gray,NA,NA,NA,NA,NA,NA,NA,NA,NA,NaN,NA,4239,left,1,NA,NA,NA,NA,NA
ZBA7SlVE,3z33ic0jd3zsmh7cb6nqm2m9m84v9l,3y4w8q93l3x6crineoxuxi1ri8qvdz,ZBA7SlVE,2020-0188,2021-10-31,21:20:46,22:57:55,NA,incomplete,false,NA,NA,true,3,14,NA,NA,NA,left,m_l_102.jpg,white,black,NA,NA,NA,NA,NA,NA,NA,NA,NA,NaN,NA,4893,right,0,NA,NA,NA,NA,NA
ZBA7SlVE,3z33ic0jd3zsmh7cb6nqm2m9m84v9l,3y4w8q93l3x6crineoxuxi1ri8qvdz,ZBA7SlVE,2020-0188,2021-10-31,21:20:46,22:57:55,NA,incomplete,false,NA,NA,true,3,15,NA,NA,NA,right,n_l_106.jpg,purple,green,NA,NA,NA,NA,NA,NA,NA,NA,NA,NaN,NA,2391,left,0,NA,NA,NA,NA,NA
ZBA7SlVE,3z33ic0jd3zsmh7cb6nqm2m9m84v9l,3y4w8q93l3x6crineoxuxi1ri8qvdz,ZBA7SlVE,2020-0188,2021-10-31,21:20:46,22:57:55,NA,incomplete,false,NA,NA,true,3,16,NA,NA,NA,left,m_s_036.jpg,purple,red,NA,NA,NA,NA,NA,NA,NA,NA,NA,NaN,NA,1983,right,0,NA,NA,NA,NA,NA
ZBA7SlVE,3z33ic0jd3zsmh7cb6nqm2m9m84v9l,3y4w8q93l3x6crineoxuxi1ri8qvdz,ZBA7SlVE,2020-0188,2021-10-31,21:20:46,22:57:55,NA,incomplete,false,NA,NA,true,3,17,NA,NA,NA,right,m_s_051.jpg,red,purple,NA,NA,NA,NA,NA,NA,NA,NA,NA,NaN,NA,2376,left,0,NA,NA,NA,NA,NA
ZBA7SlVE,3z33ic0jd3zsmh7cb6nqm2m9m84v9l,3y4w8q93l3x6crineoxuxi1ri8qvdz,ZBA7SlVE,2020-0188,2021-10-31,21:20:46,22:57:55,NA,incomplete,false,NA,NA,true,3,18,NA,NA,NA,left,n_l_060.jpg,red,gray,NA,NA,NA,NA,NA,NA,NA,NA,NA,NaN,NA,5511,right,0,NA,NA,NA,NA,NA
ZBA7SlVE,3z33ic0jd3zsmh7cb6nqm2m9m84v9l,3y4w8q93l3x6crineoxuxi1ri8qvdz,ZBA7SlVE,2020-0188,2021-10-31,21:20:46,22:57:55,NA,incomplete,false,NA,NA,true,3,19,NA,NA,NA,left,m_l_013.jpg,gray,black,NA,NA,NA,NA,NA,NA,NA,NA,NA,NaN,NA,2014,left,1,NA,NA,NA,NA,NA
ZBA7SlVE,3z33ic0jd3zsmh7cb6nqm2m9m84v9l,3y4w8q93l3x6crineoxuxi1ri8qvdz,ZBA7SlVE,2020-0188,2021-10-31,21:20:46,22:57:55,NA,incomplete,false,NA,NA,true,3,20,NA,NA,NA,left,n_s_036.jpg,black,gray,NA,NA,NA,NA,NA,NA,NA,NA,NA,NaN,NA,1702,left,1,NA,NA,NA,NA,NA
ZBA7SlVE,3z33ic0jd3zsmh7cb6nqm2m9m84v9l,3y4w8q93l3x6crineoxuxi1ri8qvdz,ZBA7SlVE,2020-0188,2021-10-31,21:20:46,22:57:55,NA,incomplete,false,NA,NA,true,3,21,NA,NA,NA,right,n_l_088.jpg,purple,green,NA,NA,NA,NA,NA,NA,NA,NA,NA,NaN,NA,2796,right,1,NA,NA,NA,NA,NA
ZBA7SlVE,3z33ic0jd3zsmh7cb6nqm2m9m84v9l,3y4w8q93l3x6crineoxuxi1ri8qvdz,ZBA7SlVE,2020-0188,2021-10-31,21:20:46,22:57:55,NA,incomplete,false,NA,true,NA,3,0,NA,NA,NA,left,NA,NA,NA,absent,NA,NA,m_l_014.jpg,green,n_l_106.jpg,green,within,NA,NaN,NA,NA,NA,NA,left,3309,1,1,2492
ZBA7SlVE,3z33ic0jd3zsmh7cb6nqm2m9m84v9l,3y4w8q93l3x6crineoxuxi1ri8qvdz,ZBA7SlVE,2020-0188,2021-10-31,21:20:46,22:57:55,NA,incomplete,false,NA,true,NA,3,1,NA,NA,NA,right,NA,NA,NA,absent,NA,NA,m_l_003.jpg,black,m_l_080.jpg,gray,between,NA,NaN,NA,NA,NA,NA,left,2917,0,1,1813
ZBA7SlVE,3z33ic0jd3zsmh7cb6nqm2m9m84v9l,3y4w8q93l3x6crineoxuxi1ri8qvdz,ZBA7SlVE,2020-0188,2021-10-31,21:20:46,22:57:55,NA,incomplete,false,NA,true,NA,3,2,NA,NA,NA,right,NA,NA,NA,absent,NA,NA,m_l_058.jpg,red,m_s_104.jpg,purple,between,NA,NaN,NA,NA,NA,NA,right,1886,1,1,2598
ZBA7SlVE,3z33ic0jd3zsmh7cb6nqm2m9m84v9l,3y4w8q93l3x6crineoxuxi1ri8qvdz,ZBA7SlVE,2020-0188,2021-10-31,21:20:46,22:57:55,NA,incomplete,false,NA,true,NA,3,3,NA,NA,NA,left,NA,NA,NA,absent,NA,NA,m_l_102.jpg,white,m_s_047.jpg,white,within,NA,NaN,NA,NA,NA,NA,left,3400,1,2,2550
ZBA7SlVE,3z33ic0jd3zsmh7cb6nqm2m9m84v9l,3y4w8q93l3x6crineoxuxi1ri8qvdz,ZBA7SlVE,2020-0188,2021-10-31,21:20:46,22:57:55,NA,incomplete,false,NA,true,NA,3,4,NA,NA,NA,left,NA,NA,NA,absent,NA,NA,n_s_036.jpg,black,n_l_074.jpg,white,between,NA,NaN,NA,NA,NA,NA,left,4635,1,1,2295
ZBA7SlVE,3z33ic0jd3zsmh7cb6nqm2m9m84v9l,3y4w8q93l3x6crineoxuxi1ri8qvdz,ZBA7SlVE,2020-0188,2021-10-31,21:20:46,22:57:55,NA,incomplete,false,NA,true,NA,3,5,NA,NA,NA,left,NA,NA,NA,absent,NA,NA,n_l_048.jpg,red,n_l_107.jpg,red,within,NA,NaN,NA,NA,NA,NA,left,7341,1,2,2976
ZBA7SlVE,3z33ic0jd3zsmh7cb6nqm2m9m84v9l,3y4w8q93l3x6crineoxuxi1ri8qvdz,ZBA7SlVE,2020-0188,2021-10-31,21:20:46,22:57:55,NA,incomplete,false,NA,true,NA,3,6,NA,NA,NA,right,NA,NA,NA,absent,NA,NA,n_l_100.jpg,black,n_s_106.jpg,black,within,NA,NaN,NA,NA,NA,NA,right,2494,1,2,2384
ZBA7SlVE,3z33ic0jd3zsmh7cb6nqm2m9m84v9l,3y4w8q93l3x6crineoxuxi1ri8qvdz,ZBA7SlVE,2020-0188,2021-10-31,21:20:46,22:57:55,NA,incomplete,false,NA,true,NA,3,7,NA,NA,NA,right,NA,NA,NA,absent,NA,NA,n_l_085.jpg,gray,n_l_060.jpg,red,between,NA,NaN,NA,NA,NA,NA,right,2254,1,1,1918
ZBA7SlVE,3z33ic0jd3zsmh7cb6nqm2m9m84v9l,3y4w8q93l3x6crineoxuxi1ri8qvdz,ZBA7SlVE,2020-0188,2021-10-31,21:20:46,22:57:55,NA,incomplete,false,NA,true,NA,3,8,NA,NA,NA,right,NA,NA,NA,absent,NA,NA,m_l_091.jpg,purple,n_l_088.jpg,green,between,NA,NaN,NA,NA,NA,NA,left,4959,0,3,2831
ZBA7SlVE,3z33ic0jd3zsmh7cb6nqm2m9m84v9l,3y4w8q93l3x6crineoxuxi1ri8qvdz,ZBA7SlVE,2020-0188,2021-10-31,21:20:46,22:57:55,NA,incomplete,false,NA,true,NA,3,9,NA,NA,NA,left,NA,NA,NA,absent,NA,NA,n_l_052.jpg,gray,m_l_013.jpg,gray,within,NA,NaN,NA,NA,NA,NA,right,4604,0,1,2045
ZBA7SlVE,3z33ic0jd3zsmh7cb6nqm2m9m84v9l,3y4w8q93l3x6crineoxuxi1ri8qvdz,ZBA7SlVE,2020-0188,2021-10-31,21:20:46,22:57:55,NA,incomplete,false,NA,true,NA,3,10,NA,NA,NA,left,NA,NA,NA,absent,NA,NA,m_s_036.jpg,purple,m_s_051.jpg,purple,within,NA,NaN,NA,NA,NA,NA,left,2061,1,1,4956
ZBA7SlVE,3z33ic0jd3zsmh7cb6nqm2m9m84v9l,3y4w8q93l3x6crineoxuxi1ri8qvdz,ZBA7SlVE,2020-0188,2021-10-31,21:20:46,22:57:55,NA,incomplete,false,true,NA,NA,4,0,NA,red,m_l_033.jpg,NA,NA,NA,NA,NA,unpleasant,pleasant,NA,NA,NA,NA,NA,right,1587,true,NA,NA,NA,NA,NA,NA,NA,NA
ZBA7SlVE,3z33ic0jd3zsmh7cb6nqm2m9m84v9l,3y4w8q93l3x6crineoxuxi1ri8qvdz,ZBA7SlVE,2020-0188,2021-10-31,21:20:46,22:57:55,NA,incomplete,false,true,NA,NA,4,1,NA,red,n_s_024.jpg,NA,NA,NA,NA,NA,unpleasant,pleasant,NA,NA,NA,NA,NA,right,1590,true,NA,NA,NA,NA,NA,NA,NA,NA
ZBA7SlVE,3z33ic0jd3zsmh7cb6nqm2m9m84v9l,3y4w8q93l3x6crineoxuxi1ri8qvdz,ZBA7SlVE,2020-0188,2021-10-31,21:20:46,22:57:55,NA,incomplete,false,true,NA,NA,4,2,NA,red,m_s_006.jpg,NA,NA,NA,NA,NA,unpleasant,pleasant,NA,NA,NA,NA,NA,right,1202,true,NA,NA,NA,NA,NA,NA,NA,NA
ZBA7SlVE,3z33ic0jd3zsmh7cb6nqm2m9m84v9l,3y4w8q93l3x6crineoxuxi1ri8qvdz,ZBA7SlVE,2020-0188,2021-10-31,21:20:46,22:57:55,NA,incomplete,false,true,NA,NA,4,3,NA,red,m_s_102.jpg,NA,NA,NA,NA,NA,pleasant,unpleasant,NA,NA,NA,NA,NA,right,1614,true,NA,NA,NA,NA,NA,NA,NA,NA
ZBA7SlVE,3z33ic0jd3zsmh7cb6nqm2m9m84v9l,3y4w8q93l3x6crineoxuxi1ri8qvdz,ZBA7SlVE,2020-0188,2021-10-31,21:20:46,22:57:55,NA,incomplete,false,true,NA,NA,4,4,NA,red,m_s_116.jpg,NA,NA,NA,NA,NA,pleasant,unpleasant,NA,NA,NA,NA,NA,left,1162,true,NA,NA,NA,NA,NA,NA,NA,NA
ZBA7SlVE,3z33ic0jd3zsmh7cb6nqm2m9m84v9l,3y4w8q93l3x6crineoxuxi1ri8qvdz,ZBA7SlVE,2020-0188,2021-10-31,21:20:46,22:57:55,NA,incomplete,false,true,NA,NA,4,5,NA,red,m_l_081.jpg,NA,NA,NA,NA,NA,unpleasant,pleasant,NA,NA,NA,NA,NA,right,1125,true,NA,NA,NA,NA,NA,NA,NA,NA
ZBA7SlVE,3z33ic0jd3zsmh7cb6nqm2m9m84v9l,3y4w8q93l3x6crineoxuxi1ri8qvdz,ZBA7SlVE,2020-0188,2021-10-31,21:20:46,22:57:55,NA,incomplete,false,true,NA,NA,4,6,NA,yellow,n_s_098.jpg,NA,NA,NA,NA,NA,unpleasant,pleasant,NA,NA,NA,NA,NA,left,1128,true,NA,NA,NA,NA,NA,NA,NA,NA
ZBA7SlVE,3z33ic0jd3zsmh7cb6nqm2m9m84v9l,3y4w8q93l3x6crineoxuxi1ri8qvdz,ZBA7SlVE,2020-0188,2021-10-31,21:20:46,22:57:55,NA,incomplete,false,true,NA,NA,4,7,NA,yellow,n_l_001.jpg,NA,NA,NA,NA,NA,unpleasant,pleasant,NA,NA,NA,NA,NA,right,1493,true,NA,NA,NA,NA,NA,NA,NA,NA
ZBA7SlVE,3z33ic0jd3zsmh7cb6nqm2m9m84v9l,3y4w8q93l3x6crineoxuxi1ri8qvdz,ZBA7SlVE,2020-0188,2021-10-31,21:20:46,22:57:55,NA,incomplete,false,true,NA,NA,4,8,NA,yellow,n_s_095.jpg,NA,NA,NA,NA,NA,pleasant,unpleasant,NA,NA,NA,NA,NA,left,1359,true,NA,NA,NA,NA,NA,NA,NA,NA
ZBA7SlVE,3z33ic0jd3zsmh7cb6nqm2m9m84v9l,3y4w8q93l3x6crineoxuxi1ri8qvdz,ZBA7SlVE,2020-0188,2021-10-31,21:20:46,22:57:55,NA,incomplete,false,true,NA,NA,4,9,NA,yellow,m_s_058.jpg,NA,NA,NA,NA,NA,unpleasant,pleasant,NA,NA,NA,NA,NA,right,1835,true,NA,NA,NA,NA,NA,NA,NA,NA
ZBA7SlVE,3z33ic0jd3zsmh7cb6nqm2m9m84v9l,3y4w8q93l3x6crineoxuxi1ri8qvdz,ZBA7SlVE,2020-0188,2021-10-31,21:20:46,22:57:55,NA,incomplete,false,true,NA,NA,4,10,NA,yellow,n_l_070.jpg,NA,NA,NA,NA,NA,unpleasant,pleasant,NA,NA,NA,NA,NA,right,1312,true,NA,NA,NA,NA,NA,NA,NA,NA
ZBA7SlVE,3z33ic0jd3zsmh7cb6nqm2m9m84v9l,3y4w8q93l3x6crineoxuxi1ri8qvdz,ZBA7SlVE,2020-0188,2021-10-31,21:20:46,22:57:55,NA,incomplete,false,true,NA,NA,4,11,NA,yellow,m_s_062.jpg,NA,NA,NA,NA,NA,pleasant,unpleasant,NA,NA,NA,NA,NA,left,1642,true,NA,NA,NA,NA,NA,NA,NA,NA
ZBA7SlVE,3z33ic0jd3zsmh7cb6nqm2m9m84v9l,3y4w8q93l3x6crineoxuxi1ri8qvdz,ZBA7SlVE,2020-0188,2021-10-31,21:20:46,22:57:55,NA,incomplete,false,true,NA,NA,4,12,NA,orange,m_s_028.jpg,NA,NA,NA,NA,NA,pleasant,unpleasant,NA,NA,NA,NA,NA,left,1429,true,NA,NA,NA,NA,NA,NA,NA,NA
ZBA7SlVE,3z33ic0jd3zsmh7cb6nqm2m9m84v9l,3y4w8q93l3x6crineoxuxi1ri8qvdz,ZBA7SlVE,2020-0188,2021-10-31,21:20:46,22:57:55,NA,incomplete,false,true,NA,NA,4,13,NA,orange,m_l_115.jpg,NA,NA,NA,NA,NA,pleasant,unpleasant,NA,NA,NA,NA,NA,left,1209,true,NA,NA,NA,NA,NA,NA,NA,NA
ZBA7SlVE,3z33ic0jd3zsmh7cb6nqm2m9m84v9l,3y4w8q93l3x6crineoxuxi1ri8qvdz,ZBA7SlVE,2020-0188,2021-10-31,21:20:46,22:57:55,NA,incomplete,false,true,NA,NA,4,14,NA,orange,n_s_066.jpg,NA,NA,NA,NA,NA,pleasant,unpleasant,NA,NA,NA,NA,NA,left,1260,true,NA,NA,NA,NA,NA,NA,NA,NA
ZBA7SlVE,3z33ic0jd3zsmh7cb6nqm2m9m84v9l,3y4w8q93l3x6crineoxuxi1ri8qvdz,ZBA7SlVE,2020-0188,2021-10-31,21:20:46,22:57:55,NA,incomplete,false,true,NA,NA,4,15,NA,orange,n_l_017.jpg,NA,NA,NA,NA,NA,unpleasant,pleasant,NA,NA,NA,NA,NA,right,2865,true,NA,NA,NA,NA,NA,NA,NA,NA
ZBA7SlVE,3z33ic0jd3zsmh7cb6nqm2m9m84v9l,3y4w8q93l3x6crineoxuxi1ri8qvdz,ZBA7SlVE,2020-0188,2021-10-31,21:20:46,22:57:55,NA,incomplete,false,true,NA,NA,4,16,NA,orange,m_l_053.jpg,NA,NA,NA,NA,NA,pleasant,unpleasant,NA,NA,NA,NA,NA,none,0,false,NA,NA,NA,NA,NA,NA,NA,NA
ZBA7SlVE,3z33ic0jd3zsmh7cb6nqm2m9m84v9l,3y4w8q93l3x6crineoxuxi1ri8qvdz,ZBA7SlVE,2020-0188,2021-10-31,21:20:46,22:57:55,NA,incomplete,false,true,NA,NA,4,17,NA,orange,m_s_044.jpg,NA,NA,NA,NA,NA,pleasant,unpleasant,NA,NA,NA,NA,NA,none,0,false,NA,NA,NA,NA,NA,NA,NA,NA
ZBA7SlVE,3z33ic0jd3zsmh7cb6nqm2m9m84v9l,3y4w8q93l3x6crineoxuxi1ri8qvdz,ZBA7SlVE,2020-0188,2021-10-31,21:20:46,22:57:55,NA,incomplete,false,true,NA,NA,4,18,NA,black,n_l_063.jpg,NA,NA,NA,NA,NA,unpleasant,pleasant,NA,NA,NA,NA,NA,right,1587,true,NA,NA,NA,NA,NA,NA,NA,NA
ZBA7SlVE,3z33ic0jd3zsmh7cb6nqm2m9m84v9l,3y4w8q93l3x6crineoxuxi1ri8qvdz,ZBA7SlVE,2020-0188,2021-10-31,21:20:46,22:57:55,NA,incomplete,false,true,NA,NA,4,19,NA,black,n_l_091.jpg,NA,NA,NA,NA,NA,pleasant,unpleasant,NA,NA,NA,NA,NA,left,759,true,NA,NA,NA,NA,NA,NA,NA,NA
ZBA7SlVE,3z33ic0jd3zsmh7cb6nqm2m9m84v9l,3y4w8q93l3x6crineoxuxi1ri8qvdz,ZBA7SlVE,2020-0188,2021-10-31,21:20:46,22:57:55,NA,incomplete,false,true,NA,NA,4,20,NA,black,m_s_013.jpg,NA,NA,NA,NA,NA,pleasant,unpleasant,NA,NA,NA,NA,NA,left,1194,true,NA,NA,NA,NA,NA,NA,NA,NA
ZBA7SlVE,3z33ic0jd3zsmh7cb6nqm2m9m84v9l,3y4w8q93l3x6crineoxuxi1ri8qvdz,ZBA7SlVE,2020-0188,2021-10-31,21:20:46,22:57:55,NA,incomplete,false,true,NA,NA,4,21,NA,black,m_l_056.jpg,NA,NA,NA,NA,NA,pleasant,unpleasant,NA,NA,NA,NA,NA,left,950,true,NA,NA,NA,NA,NA,NA,NA,NA
ZBA7SlVE,3z33ic0jd3zsmh7cb6nqm2m9m84v9l,3y4w8q93l3x6crineoxuxi1ri8qvdz,ZBA7SlVE,2020-0188,2021-10-31,21:20:46,22:57:55,NA,incomplete,false,true,NA,NA,4,22,NA,black,m_s_087.jpg,NA,NA,NA,NA,NA,unpleasant,pleasant,NA,NA,NA,NA,NA,left,929,true,NA,NA,NA,NA,NA,NA,NA,NA
ZBA7SlVE,3z33ic0jd3zsmh7cb6nqm2m9m84v9l,3y4w8q93l3x6crineoxuxi1ri8qvdz,ZBA7SlVE,2020-0188,2021-10-31,21:20:46,22:57:55,NA,incomplete,false,true,NA,NA,4,23,NA,black,m_l_085.jpg,NA,NA,NA,NA,NA,pleasant,unpleasant,NA,NA,NA,NA,NA,left,1053,true,NA,NA,NA,NA,NA,NA,NA,NA
ZBA7SlVE,3z33ic0jd3zsmh7cb6nqm2m9m84v9l,3y4w8q93l3x6crineoxuxi1ri8qvdz,ZBA7SlVE,2020-0188,2021-10-31,21:20:46,22:57:55,NA,incomplete,false,true,NA,NA,4,24,NA,green,n_l_075.jpg,NA,NA,NA,NA,NA,unpleasant,pleasant,NA,NA,NA,NA,NA,right,1145,true,NA,NA,NA,NA,NA,NA,NA,NA
ZBA7SlVE,3z33ic0jd3zsmh7cb6nqm2m9m84v9l,3y4w8q93l3x6crineoxuxi1ri8qvdz,ZBA7SlVE,2020-0188,2021-10-31,21:20:46,22:57:55,NA,incomplete,false,true,NA,NA,4,25,NA,green,n_l_031.jpg,NA,NA,NA,NA,NA,pleasant,unpleasant,NA,NA,NA,NA,NA,left,1196,true,NA,NA,NA,NA,NA,NA,NA,NA
ZBA7SlVE,3z33ic0jd3zsmh7cb6nqm2m9m84v9l,3y4w8q93l3x6crineoxuxi1ri8qvdz,ZBA7SlVE,2020-0188,2021-10-31,21:20:46,22:57:55,NA,incomplete,false,true,NA,NA,4,26,NA,green,m_s_089.jpg,NA,NA,NA,NA,NA,pleasant,unpleasant,NA,NA,NA,NA,NA,none,0,false,NA,NA,NA,NA,NA,NA,NA,NA
ZBA7SlVE,3z33ic0jd3zsmh7cb6nqm2m9m84v9l,3y4w8q93l3x6crineoxuxi1ri8qvdz,ZBA7SlVE,2020-0188,2021-10-31,21:20:46,22:57:55,NA,incomplete,false,true,NA,NA,4,27,NA,green,n_l_024.jpg,NA,NA,NA,NA,NA,pleasant,unpleasant,NA,NA,NA,NA,NA,right,1180,true,NA,NA,NA,NA,NA,NA,NA,NA
ZBA7SlVE,3z33ic0jd3zsmh7cb6nqm2m9m84v9l,3y4w8q93l3x6crineoxuxi1ri8qvdz,ZBA7SlVE,2020-0188,2021-10-31,21:20:46,22:57:55,NA,incomplete,false,true,NA,NA,4,28,NA,green,n_s_089.jpg,NA,NA,NA,NA,NA,unpleasant,pleasant,NA,NA,NA,NA,NA,left,1632,true,NA,NA,NA,NA,NA,NA,NA,NA
ZBA7SlVE,3z33ic0jd3zsmh7cb6nqm2m9m84v9l,3y4w8q93l3x6crineoxuxi1ri8qvdz,ZBA7SlVE,2020-0188,2021-10-31,21:20:46,22:57:55,NA,incomplete,false,true,NA,NA,4,29,NA,green,m_l_046.jpg,NA,NA,NA,NA,NA,unpleasant,pleasant,NA,NA,NA,NA,NA,right,1227,true,NA,NA,NA,NA,NA,NA,NA,NA
ZBA7SlVE,3z33ic0jd3zsmh7cb6nqm2m9m84v9l,3y4w8q93l3x6crineoxuxi1ri8qvdz,ZBA7SlVE,2020-0188,2021-10-31,21:20:46,22:57:55,NA,incomplete,false,true,NA,NA,4,30,NA,blue,n_l_089.jpg,NA,NA,NA,NA,NA,pleasant,unpleasant,NA,NA,NA,NA,NA,left,1890,true,NA,NA,NA,NA,NA,NA,NA,NA
ZBA7SlVE,3z33ic0jd3zsmh7cb6nqm2m9m84v9l,3y4w8q93l3x6crineoxuxi1ri8qvdz,ZBA7SlVE,2020-0188,2021-10-31,21:20:46,22:57:55,NA,incomplete,false,true,NA,NA,4,31,NA,blue,m_s_004.jpg,NA,NA,NA,NA,NA,unpleasant,pleasant,NA,NA,NA,NA,NA,right,1716,true,NA,NA,NA,NA,NA,NA,NA,NA
ZBA7SlVE,3z33ic0jd3zsmh7cb6nqm2m9m84v9l,3y4w8q93l3x6crineoxuxi1ri8qvdz,ZBA7SlVE,2020-0188,2021-10-31,21:20:46,22:57:55,NA,incomplete,false,true,NA,NA,4,32,NA,blue,m_s_074.jpg,NA,NA,NA,NA,NA,pleasant,unpleasant,NA,NA,NA,NA,NA,left,1670,true,NA,NA,NA,NA,NA,NA,NA,NA
ZBA7SlVE,3z33ic0jd3zsmh7cb6nqm2m9m84v9l,3y4w8q93l3x6crineoxuxi1ri8qvdz,ZBA7SlVE,2020-0188,2021-10-31,21:20:46,22:57:55,NA,incomplete,false,true,NA,NA,4,33,NA,blue,n_s_074.jpg,NA,NA,NA,NA,NA,pleasant,unpleasant,NA,NA,NA,NA,NA,left,1114,true,NA,NA,NA,NA,NA,NA,NA,NA
ZBA7SlVE,3z33ic0jd3zsmh7cb6nqm2m9m84v9l,3y4w8q93l3x6crineoxuxi1ri8qvdz,ZBA7SlVE,2020-0188,2021-10-31,21:20:46,22:57:55,NA,incomplete,false,true,NA,NA,4,34,NA,blue,n_s_044.jpg,NA,NA,NA,NA,NA,unpleasant,pleasant,NA,NA,NA,NA,NA,right,1645,true,NA,NA,NA,NA,NA,NA,NA,NA
ZBA7SlVE,3z33ic0jd3zsmh7cb6nqm2m9m84v9l,3y4w8q93l3x6crineoxuxi1ri8qvdz,ZBA7SlVE,2020-0188,2021-10-31,21:20:46,22:57:55,NA,incomplete,false,true,NA,NA,4,35,NA,blue,m_s_091.jpg,NA,NA,NA,NA,NA,unpleasant,pleasant,NA,NA,NA,NA,NA,right,1465,true,NA,NA,NA,NA,NA,NA,NA,NA
ZBA7SlVE,3z33ic0jd3zsmh7cb6nqm2m9m84v9l,3y4w8q93l3x6crineoxuxi1ri8qvdz,ZBA7SlVE,2020-0188,2021-10-31,21:20:46,22:57:55,NA,incomplete,false,NA,NA,true,4,0,NA,NA,NA,left,m_l_085.jpg,black,orange,NA,NA,NA,NA,NA,NA,NA,NA,NA,NaN,NA,2583,right,0,NA,NA,NA,NA,NA
ZBA7SlVE,3z33ic0jd3zsmh7cb6nqm2m9m84v9l,3y4w8q93l3x6crineoxuxi1ri8qvdz,ZBA7SlVE,2020-0188,2021-10-31,21:20:46,22:57:55,NA,incomplete,false,NA,NA,true,4,1,NA,NA,NA,right,m_s_044.jpg,black,orange,NA,NA,NA,NA,NA,NA,NA,NA,NA,NaN,NA,1875,left,0,NA,NA,NA,NA,NA
ZBA7SlVE,3z33ic0jd3zsmh7cb6nqm2m9m84v9l,3y4w8q93l3x6crineoxuxi1ri8qvdz,ZBA7SlVE,2020-0188,2021-10-31,21:20:46,22:57:55,NA,incomplete,false,NA,NA,true,4,2,NA,NA,NA,right,m_s_116.jpg,yellow,red,NA,NA,NA,NA,NA,NA,NA,NA,NA,NaN,NA,2414,left,0,NA,NA,NA,NA,NA
ZBA7SlVE,3z33ic0jd3zsmh7cb6nqm2m9m84v9l,3y4w8q93l3x6crineoxuxi1ri8qvdz,ZBA7SlVE,2020-0188,2021-10-31,21:20:46,22:57:55,NA,incomplete,false,NA,NA,true,4,3,NA,NA,NA,right,n_s_095.jpg,orange,yellow,NA,NA,NA,NA,NA,NA,NA,NA,NA,NaN,NA,1230,right,1,NA,NA,NA,NA,NA
ZBA7SlVE,3z33ic0jd3zsmh7cb6nqm2m9m84v9l,3y4w8q93l3x6crineoxuxi1ri8qvdz,ZBA7SlVE,2020-0188,2021-10-31,21:20:46,22:57:55,NA,incomplete,false,NA,NA,true,4,4,NA,NA,NA,right,m_s_074.jpg,green,blue,NA,NA,NA,NA,NA,NA,NA,NA,NA,NaN,NA,1200,left,0,NA,NA,NA,NA,NA
ZBA7SlVE,3z33ic0jd3zsmh7cb6nqm2m9m84v9l,3y4w8q93l3x6crineoxuxi1ri8qvdz,ZBA7SlVE,2020-0188,2021-10-31,21:20:46,22:57:55,NA,incomplete,false,NA,NA,true,4,5,NA,NA,NA,left,m_s_087.jpg,black,green,NA,NA,NA,NA,NA,NA,NA,NA,NA,NaN,NA,1703,left,1,NA,NA,NA,NA,NA
ZBA7SlVE,3z33ic0jd3zsmh7cb6nqm2m9m84v9l,3y4w8q93l3x6crineoxuxi1ri8qvdz,ZBA7SlVE,2020-0188,2021-10-31,21:20:46,22:57:55,NA,incomplete,false,NA,NA,true,4,6,NA,NA,NA,right,n_l_031.jpg,blue,green,NA,NA,NA,NA,NA,NA,NA,NA,NA,NaN,NA,1447,right,1,NA,NA,NA,NA,NA
ZBA7SlVE,3z33ic0jd3zsmh7cb6nqm2m9m84v9l,3y4w8q93l3x6crineoxuxi1ri8qvdz,ZBA7SlVE,2020-0188,2021-10-31,21:20:46,22:57:55,NA,incomplete,false,NA,NA,true,4,7,NA,NA,NA,right,m_s_089.jpg,black,green,NA,NA,NA,NA,NA,NA,NA,NA,NA,NaN,NA,870,left,0,NA,NA,NA,NA,NA
ZBA7SlVE,3z33ic0jd3zsmh7cb6nqm2m9m84v9l,3y4w8q93l3x6crineoxuxi1ri8qvdz,ZBA7SlVE,2020-0188,2021-10-31,21:20:46,22:57:55,NA,incomplete,false,NA,NA,true,4,8,NA,NA,NA,right,n_l_001.jpg,orange,yellow,NA,NA,NA,NA,NA,NA,NA,NA,NA,NaN,NA,1287,left,0,NA,NA,NA,NA,NA
ZBA7SlVE,3z33ic0jd3zsmh7cb6nqm2m9m84v9l,3y4w8q93l3x6crineoxuxi1ri8qvdz,ZBA7SlVE,2020-0188,2021-10-31,21:20:46,22:57:55,NA,incomplete,false,NA,NA,true,4,9,NA,NA,NA,right,m_s_091.jpg,green,blue,NA,NA,NA,NA,NA,NA,NA,NA,NA,NaN,NA,1470,left,0,NA,NA,NA,NA,NA
ZBA7SlVE,3z33ic0jd3zsmh7cb6nqm2m9m84v9l,3y4w8q93l3x6crineoxuxi1ri8qvdz,ZBA7SlVE,2020-0188,2021-10-31,21:20:46,22:57:55,NA,incomplete,false,NA,NA,true,4,10,NA,NA,NA,left,n_l_091.jpg,black,green,NA,NA,NA,NA,NA,NA,NA,NA,NA,NaN,NA,2102,right,0,NA,NA,NA,NA,NA
ZBA7SlVE,3z33ic0jd3zsmh7cb6nqm2m9m84v9l,3y4w8q93l3x6crineoxuxi1ri8qvdz,ZBA7SlVE,2020-0188,2021-10-31,21:20:46,22:57:55,NA,incomplete,false,NA,NA,true,4,11,NA,NA,NA,right,n_s_089.jpg,black,green,NA,NA,NA,NA,NA,NA,NA,NA,NA,NaN,NA,2302,right,1,NA,NA,NA,NA,NA
ZBA7SlVE,3z33ic0jd3zsmh7cb6nqm2m9m84v9l,3y4w8q93l3x6crineoxuxi1ri8qvdz,ZBA7SlVE,2020-0188,2021-10-31,21:20:46,22:57:55,NA,incomplete,false,NA,NA,true,4,12,NA,NA,NA,right,m_l_053.jpg,yellow,orange,NA,NA,NA,NA,NA,NA,NA,NA,NA,NaN,NA,1342,left,0,NA,NA,NA,NA,NA
ZBA7SlVE,3z33ic0jd3zsmh7cb6nqm2m9m84v9l,3y4w8q93l3x6crineoxuxi1ri8qvdz,ZBA7SlVE,2020-0188,2021-10-31,21:20:46,22:57:55,NA,incomplete,false,NA,NA,true,4,13,NA,NA,NA,right,n_s_066.jpg,yellow,orange,NA,NA,NA,NA,NA,NA,NA,NA,NA,NaN,NA,1422,right,1,NA,NA,NA,NA,NA
ZBA7SlVE,3z33ic0jd3zsmh7cb6nqm2m9m84v9l,3y4w8q93l3x6crineoxuxi1ri8qvdz,ZBA7SlVE,2020-0188,2021-10-31,21:20:46,22:57:55,NA,incomplete,false,NA,NA,true,4,14,NA,NA,NA,left,m_l_081.jpg,red,yellow,NA,NA,NA,NA,NA,NA,NA,NA,NA,NaN,NA,2510,left,1,NA,NA,NA,NA,NA
ZBA7SlVE,3z33ic0jd3zsmh7cb6nqm2m9m84v9l,3y4w8q93l3x6crineoxuxi1ri8qvdz,ZBA7SlVE,2020-0188,2021-10-31,21:20:46,22:57:55,NA,incomplete,false,NA,NA,true,4,15,NA,NA,NA,left,m_l_115.jpg,orange,black,NA,NA,NA,NA,NA,NA,NA,NA,NA,NaN,NA,1391,right,0,NA,NA,NA,NA,NA
ZBA7SlVE,3z33ic0jd3zsmh7cb6nqm2m9m84v9l,3y4w8q93l3x6crineoxuxi1ri8qvdz,ZBA7SlVE,2020-0188,2021-10-31,21:20:46,22:57:55,NA,incomplete,false,NA,NA,true,4,16,NA,NA,NA,left,m_l_046.jpg,green,blue,NA,NA,NA,NA,NA,NA,NA,NA,NA,NaN,NA,1565,left,1,NA,NA,NA,NA,NA
ZBA7SlVE,3z33ic0jd3zsmh7cb6nqm2m9m84v9l,3y4w8q93l3x6crineoxuxi1ri8qvdz,ZBA7SlVE,2020-0188,2021-10-31,21:20:46,22:57:55,NA,incomplete,false,NA,NA,true,4,17,NA,NA,NA,left,n_l_070.jpg,yellow,orange,NA,NA,NA,NA,NA,NA,NA,NA,NA,NaN,NA,1214,right,0,NA,NA,NA,NA,NA
ZBA7SlVE,3z33ic0jd3zsmh7cb6nqm2m9m84v9l,3y4w8q93l3x6crineoxuxi1ri8qvdz,ZBA7SlVE,2020-0188,2021-10-31,21:20:46,22:57:55,NA,incomplete,false,NA,NA,true,4,18,NA,NA,NA,left,m_s_004.jpg,blue,green,NA,NA,NA,NA,NA,NA,NA,NA,NA,NaN,NA,1261,left,1,NA,NA,NA,NA,NA
ZBA7SlVE,3z33ic0jd3zsmh7cb6nqm2m9m84v9l,3y4w8q93l3x6crineoxuxi1ri8qvdz,ZBA7SlVE,2020-0188,2021-10-31,21:20:46,22:57:55,NA,incomplete,false,NA,NA,true,4,19,NA,NA,NA,right,m_s_013.jpg,green,black,NA,NA,NA,NA,NA,NA,NA,NA,NA,NaN,NA,1638,right,1,NA,NA,NA,NA,NA
ZBA7SlVE,3z33ic0jd3zsmh7cb6nqm2m9m84v9l,3y4w8q93l3x6crineoxuxi1ri8qvdz,ZBA7SlVE,2020-0188,2021-10-31,21:20:46,22:57:55,NA,incomplete,false,NA,NA,true,4,20,NA,NA,NA,left,m_s_062.jpg,yellow,orange,NA,NA,NA,NA,NA,NA,NA,NA,NA,NaN,NA,1183,left,1,NA,NA,NA,NA,NA
ZBA7SlVE,3z33ic0jd3zsmh7cb6nqm2m9m84v9l,3y4w8q93l3x6crineoxuxi1ri8qvdz,ZBA7SlVE,2020-0188,2021-10-31,21:20:46,22:57:55,NA,incomplete,false,NA,NA,true,4,21,NA,NA,NA,left,n_s_024.jpg,red,yellow,NA,NA,NA,NA,NA,NA,NA,NA,NA,NaN,NA,1718,right,0,NA,NA,NA,NA,NA
ZBA7SlVE,3z33ic0jd3zsmh7cb6nqm2m9m84v9l,3y4w8q93l3x6crineoxuxi1ri8qvdz,ZBA7SlVE,2020-0188,2021-10-31,21:20:46,22:57:55,NA,incomplete,false,NA,true,NA,4,0,NA,NA,NA,right,NA,NA,NA,absent,NA,NA,m_s_062.jpg,yellow,n_l_001.jpg,yellow,within,NA,NaN,NA,NA,NA,NA,left,1893,0,2,1664
ZBA7SlVE,3z33ic0jd3zsmh7cb6nqm2m9m84v9l,3y4w8q93l3x6crineoxuxi1ri8qvdz,ZBA7SlVE,2020-0188,2021-10-31,21:20:46,22:57:55,NA,incomplete,false,NA,true,NA,4,1,NA,NA,NA,left,NA,NA,NA,absent,NA,NA,m_l_053.jpg,orange,m_s_013.jpg,black,between,NA,NaN,NA,NA,NA,NA,right,3197,0,1,1606
ZBA7SlVE,3z33ic0jd3zsmh7cb6nqm2m9m84v9l,3y4w8q93l3x6crineoxuxi1ri8qvdz,ZBA7SlVE,2020-0188,2021-10-31,21:20:46,22:57:55,NA,incomplete,false,NA,true,NA,4,2,NA,NA,NA,left,NA,NA,NA,absent,NA,NA,n_s_024.jpg,red,m_l_081.jpg,red,within,NA,NaN,NA,NA,NA,NA,left,1447,1,1,1719
ZBA7SlVE,3z33ic0jd3zsmh7cb6nqm2m9m84v9l,3y4w8q93l3x6crineoxuxi1ri8qvdz,ZBA7SlVE,2020-0188,2021-10-31,21:20:46,22:57:55,NA,incomplete,false,NA,true,NA,4,3,NA,NA,NA,left,NA,NA,NA,absent,NA,NA,m_s_004.jpg,blue,m_s_091.jpg,blue,within,NA,NaN,NA,NA,NA,NA,left,2973,1,1,1575
ZBA7SlVE,3z33ic0jd3zsmh7cb6nqm2m9m84v9l,3y4w8q93l3x6crineoxuxi1ri8qvdz,ZBA7SlVE,2020-0188,2021-10-31,21:20:46,22:57:55,NA,incomplete,false,NA,true,NA,4,4,NA,NA,NA,right,NA,NA,NA,absent,NA,NA,m_s_044.jpg,orange,m_l_115.jpg,orange,within,NA,NaN,NA,NA,NA,NA,right,2534,1,1,1448
ZBA7SlVE,3z33ic0jd3zsmh7cb6nqm2m9m84v9l,3y4w8q93l3x6crineoxuxi1ri8qvdz,ZBA7SlVE,2020-0188,2021-10-31,21:20:46,22:57:55,NA,incomplete,false,NA,true,NA,4,5,NA,NA,NA,right,NA,NA,NA,absent,NA,NA,n_s_066.jpg,orange,n_l_070.jpg,yellow,between,NA,NaN,NA,NA,NA,NA,right,2870,1,1,1117
ZBA7SlVE,3z33ic0jd3zsmh7cb6nqm2m9m84v9l,3y4w8q93l3x6crineoxuxi1ri8qvdz,ZBA7SlVE,2020-0188,2021-10-31,21:20:46,22:57:55,NA,incomplete,false,NA,true,NA,4,6,NA,NA,NA,right,NA,NA,NA,absent,NA,NA,m_s_074.jpg,blue,n_s_089.jpg,green,between,NA,NaN,NA,NA,NA,NA,right,2838,1,1,1319
ZBA7SlVE,3z33ic0jd3zsmh7cb6nqm2m9m84v9l,3y4w8q93l3x6crineoxuxi1ri8qvdz,ZBA7SlVE,2020-0188,2021-10-31,21:20:46,22:57:55,NA,incomplete,false,NA,true,NA,4,7,NA,NA,NA,right,NA,NA,NA,absent,NA,NA,m_l_046.jpg,green,n_l_031.jpg,green,within,NA,NaN,NA,NA,NA,NA,right,2318,1,2,1191
ZBA7SlVE,3z33ic0jd3zsmh7cb6nqm2m9m84v9l,3y4w8q93l3x6crineoxuxi1ri8qvdz,ZBA7SlVE,2020-0188,2021-10-31,21:20:46,22:57:55,NA,incomplete,false,NA,true,NA,4,8,NA,NA,NA,left,NA,NA,NA,absent,NA,NA,m_s_087.jpg,black,m_s_089.jpg,green,between,NA,NaN,NA,NA,NA,NA,left,1853,1,1,1367
ZBA7SlVE,3z33ic0jd3zsmh7cb6nqm2m9m84v9l,3y4w8q93l3x6crineoxuxi1ri8qvdz,ZBA7SlVE,2020-0188,2021-10-31,21:20:46,22:57:55,NA,incomplete,false,NA,true,NA,4,9,NA,NA,NA,left,NA,NA,NA,absent,NA,NA,n_l_091.jpg,black,m_l_085.jpg,black,within,NA,NaN,NA,NA,NA,NA,right,2294,0,1,1614
ZBA7SlVE,3z33ic0jd3zsmh7cb6nqm2m9m84v9l,3y4w8q93l3x6crineoxuxi1ri8qvdz,ZBA7SlVE,2020-0188,2021-10-31,21:20:46,22:57:55,NA,incomplete,false,NA,true,NA,4,10,NA,NA,NA,right,NA,NA,NA,absent,NA,NA,n_s_095.jpg,yellow,m_s_116.jpg,red,between,NA,NaN,NA,NA,NA,NA,right,1951,1,1,1487
ZBA7SlVE,3z33ic0jd3zsmh7cb6nqm2m9m84v9l,3y4w8q93l3x6crineoxuxi1ri8qvdz,ZBA7SlVE,2020-0188,2021-10-31,21:20:46,22:57:55,NA,incomplete,false,true,NA,NA,5,0,NA,yellow,m_s_038.jpg,NA,NA,NA,NA,NA,unpleasant,pleasant,NA,NA,NA,NA,NA,right,1966,true,NA,NA,NA,NA,NA,NA,NA,NA
ZBA7SlVE,3z33ic0jd3zsmh7cb6nqm2m9m84v9l,3y4w8q93l3x6crineoxuxi1ri8qvdz,ZBA7SlVE,2020-0188,2021-10-31,21:20:46,22:57:55,NA,incomplete,false,true,NA,NA,5,1,NA,yellow,n_l_066.jpg,NA,NA,NA,NA,NA,pleasant,unpleasant,NA,NA,NA,NA,NA,left,834,true,NA,NA,NA,NA,NA,NA,NA,NA
ZBA7SlVE,3z33ic0jd3zsmh7cb6nqm2m9m84v9l,3y4w8q93l3x6crineoxuxi1ri8qvdz,ZBA7SlVE,2020-0188,2021-10-31,21:20:46,22:57:55,NA,incomplete,false,true,NA,NA,5,2,NA,yellow,m_l_106.jpg,NA,NA,NA,NA,NA,unpleasant,pleasant,NA,NA,NA,NA,NA,right,1301,true,NA,NA,NA,NA,NA,NA,NA,NA
ZBA7SlVE,3z33ic0jd3zsmh7cb6nqm2m9m84v9l,3y4w8q93l3x6crineoxuxi1ri8qvdz,ZBA7SlVE,2020-0188,2021-10-31,21:20:46,22:57:55,NA,incomplete,false,true,NA,NA,5,3,NA,yellow,m_s_114.jpg,NA,NA,NA,NA,NA,unpleasant,pleasant,NA,NA,NA,NA,NA,right,825,true,NA,NA,NA,NA,NA,NA,NA,NA
ZBA7SlVE,3z33ic0jd3zsmh7cb6nqm2m9m84v9l,3y4w8q93l3x6crineoxuxi1ri8qvdz,ZBA7SlVE,2020-0188,2021-10-31,21:20:46,22:57:55,NA,incomplete,false,true,NA,NA,5,4,NA,yellow,m_s_012.jpg,NA,NA,NA,NA,NA,unpleasant,pleasant,NA,NA,NA,NA,NA,right,884,true,NA,NA,NA,NA,NA,NA,NA,NA
ZBA7SlVE,3z33ic0jd3zsmh7cb6nqm2m9m84v9l,3y4w8q93l3x6crineoxuxi1ri8qvdz,ZBA7SlVE,2020-0188,2021-10-31,21:20:46,22:57:55,NA,incomplete,false,true,NA,NA,5,5,NA,yellow,m_s_042.jpg,NA,NA,NA,NA,NA,pleasant,unpleasant,NA,NA,NA,NA,NA,none,0,false,NA,NA,NA,NA,NA,NA,NA,NA
ZBA7SlVE,3z33ic0jd3zsmh7cb6nqm2m9m84v9l,3y4w8q93l3x6crineoxuxi1ri8qvdz,ZBA7SlVE,2020-0188,2021-10-31,21:20:46,22:57:55,NA,incomplete,false,true,NA,NA,5,6,NA,red,m_l_021.jpg,NA,NA,NA,NA,NA,pleasant,unpleasant,NA,NA,NA,NA,NA,left,1780,true,NA,NA,NA,NA,NA,NA,NA,NA
ZBA7SlVE,3z33ic0jd3zsmh7cb6nqm2m9m84v9l,3y4w8q93l3x6crineoxuxi1ri8qvdz,ZBA7SlVE,2020-0188,2021-10-31,21:20:46,22:57:55,NA,incomplete,false,true,NA,NA,5,7,NA,red,m_s_048.jpg,NA,NA,NA,NA,NA,unpleasant,pleasant,NA,NA,NA,NA,NA,right,1008,true,NA,NA,NA,NA,NA,NA,NA,NA
ZBA7SlVE,3z33ic0jd3zsmh7cb6nqm2m9m84v9l,3y4w8q93l3x6crineoxuxi1ri8qvdz,ZBA7SlVE,2020-0188,2021-10-31,21:20:46,22:57:55,NA,incomplete,false,true,NA,NA,5,8,NA,red,m_l_007.jpg,NA,NA,NA,NA,NA,unpleasant,pleasant,NA,NA,NA,NA,NA,left,851,true,NA,NA,NA,NA,NA,NA,NA,NA
ZBA7SlVE,3z33ic0jd3zsmh7cb6nqm2m9m84v9l,3y4w8q93l3x6crineoxuxi1ri8qvdz,ZBA7SlVE,2020-0188,2021-10-31,21:20:46,22:57:55,NA,incomplete,false,true,NA,NA,5,9,NA,red,n_l_111.jpg,NA,NA,NA,NA,NA,unpleasant,pleasant,NA,NA,NA,NA,NA,right,774,true,NA,NA,NA,NA,NA,NA,NA,NA
ZBA7SlVE,3z33ic0jd3zsmh7cb6nqm2m9m84v9l,3y4w8q93l3x6crineoxuxi1ri8qvdz,ZBA7SlVE,2020-0188,2021-10-31,21:20:46,22:57:55,NA,incomplete,false,true,NA,NA,5,10,NA,red,n_s_068.jpg,NA,NA,NA,NA,NA,pleasant,unpleasant,NA,NA,NA,NA,NA,left,1098,true,NA,NA,NA,NA,NA,NA,NA,NA
ZBA7SlVE,3z33ic0jd3zsmh7cb6nqm2m9m84v9l,3y4w8q93l3x6crineoxuxi1ri8qvdz,ZBA7SlVE,2020-0188,2021-10-31,21:20:46,22:57:55,NA,incomplete,false,true,NA,NA,5,11,NA,red,n_s_033.jpg,NA,NA,NA,NA,NA,pleasant,unpleasant,NA,NA,NA,NA,NA,right,783,true,NA,NA,NA,NA,NA,NA,NA,NA
ZBA7SlVE,3z33ic0jd3zsmh7cb6nqm2m9m84v9l,3y4w8q93l3x6crineoxuxi1ri8qvdz,ZBA7SlVE,2020-0188,2021-10-31,21:20:46,22:57:55,NA,incomplete,false,true,NA,NA,5,12,NA,blue,n_s_027.jpg,NA,NA,NA,NA,NA,unpleasant,pleasant,NA,NA,NA,NA,NA,left,1522,true,NA,NA,NA,NA,NA,NA,NA,NA
ZBA7SlVE,3z33ic0jd3zsmh7cb6nqm2m9m84v9l,3y4w8q93l3x6crineoxuxi1ri8qvdz,ZBA7SlVE,2020-0188,2021-10-31,21:20:46,22:57:55,NA,incomplete,false,true,NA,NA,5,13,NA,blue,n_s_019.jpg,NA,NA,NA,NA,NA,pleasant,unpleasant,NA,NA,NA,NA,NA,left,1190,true,NA,NA,NA,NA,NA,NA,NA,NA
ZBA7SlVE,3z33ic0jd3zsmh7cb6nqm2m9m84v9l,3y4w8q93l3x6crineoxuxi1ri8qvdz,ZBA7SlVE,2020-0188,2021-10-31,21:20:46,22:57:55,NA,incomplete,false,true,NA,NA,5,14,NA,blue,m_l_062.jpg,NA,NA,NA,NA,NA,unpleasant,pleasant,NA,NA,NA,NA,NA,right,1105,true,NA,NA,NA,NA,NA,NA,NA,NA
ZBA7SlVE,3z33ic0jd3zsmh7cb6nqm2m9m84v9l,3y4w8q93l3x6crineoxuxi1ri8qvdz,ZBA7SlVE,2020-0188,2021-10-31,21:20:46,22:57:55,NA,incomplete,false,true,NA,NA,5,15,NA,blue,n_s_011.jpg,NA,NA,NA,NA,NA,pleasant,unpleasant,NA,NA,NA,NA,NA,none,0,false,NA,NA,NA,NA,NA,NA,NA,NA
ZBA7SlVE,3z33ic0jd3zsmh7cb6nqm2m9m84v9l,3y4w8q93l3x6crineoxuxi1ri8qvdz,ZBA7SlVE,2020-0188,2021-10-31,21:20:46,22:57:55,NA,incomplete,false,true,NA,NA,5,16,NA,blue,n_l_032.jpg,NA,NA,NA,NA,NA,pleasant,unpleasant,NA,NA,NA,NA,NA,right,623,true,NA,NA,NA,NA,NA,NA,NA,NA
ZBA7SlVE,3z33ic0jd3zsmh7cb6nqm2m9m84v9l,3y4w8q93l3x6crineoxuxi1ri8qvdz,ZBA7SlVE,2020-0188,2021-10-31,21:20:46,22:57:55,NA,incomplete,false,true,NA,NA,5,17,NA,blue,m_s_110.jpg,NA,NA,NA,NA,NA,pleasant,unpleasant,NA,NA,NA,NA,NA,left,1696,true,NA,NA,NA,NA,NA,NA,NA,NA
ZBA7SlVE,3z33ic0jd3zsmh7cb6nqm2m9m84v9l,3y4w8q93l3x6crineoxuxi1ri8qvdz,ZBA7SlVE,2020-0188,2021-10-31,21:20:46,22:57:55,NA,incomplete,false,true,NA,NA,5,18,NA,black,n_s_049.jpg,NA,NA,NA,NA,NA,unpleasant,pleasant,NA,NA,NA,NA,NA,right,1101,true,NA,NA,NA,NA,NA,NA,NA,NA
ZBA7SlVE,3z33ic0jd3zsmh7cb6nqm2m9m84v9l,3y4w8q93l3x6crineoxuxi1ri8qvdz,ZBA7SlVE,2020-0188,2021-10-31,21:20:46,22:57:55,NA,incomplete,false,true,NA,NA,5,19,NA,black,n_s_078.jpg,NA,NA,NA,NA,NA,unpleasant,pleasant,NA,NA,NA,NA,NA,left,1256,true,NA,NA,NA,NA,NA,NA,NA,NA
ZBA7SlVE,3z33ic0jd3zsmh7cb6nqm2m9m84v9l,3y4w8q93l3x6crineoxuxi1ri8qvdz,ZBA7SlVE,2020-0188,2021-10-31,21:20:46,22:57:55,NA,incomplete,false,true,NA,NA,5,20,NA,black,m_l_024.jpg,NA,NA,NA,NA,NA,pleasant,unpleasant,NA,NA,NA,NA,NA,left,1485,true,NA,NA,NA,NA,NA,NA,NA,NA
ZBA7SlVE,3z33ic0jd3zsmh7cb6nqm2m9m84v9l,3y4w8q93l3x6crineoxuxi1ri8qvdz,ZBA7SlVE,2020-0188,2021-10-31,21:20:46,22:57:55,NA,incomplete,false,true,NA,NA,5,21,NA,black,n_l_116.jpg,NA,NA,NA,NA,NA,pleasant,unpleasant,NA,NA,NA,NA,NA,left,1358,true,NA,NA,NA,NA,NA,NA,NA,NA
ZBA7SlVE,3z33ic0jd3zsmh7cb6nqm2m9m84v9l,3y4w8q93l3x6crineoxuxi1ri8qvdz,ZBA7SlVE,2020-0188,2021-10-31,21:20:46,22:57:55,NA,incomplete,false,true,NA,NA,5,22,NA,black,n_l_022.jpg,NA,NA,NA,NA,NA,pleasant,unpleasant,NA,NA,NA,NA,NA,left,1219,true,NA,NA,NA,NA,NA,NA,NA,NA
ZBA7SlVE,3z33ic0jd3zsmh7cb6nqm2m9m84v9l,3y4w8q93l3x6crineoxuxi1ri8qvdz,ZBA7SlVE,2020-0188,2021-10-31,21:20:46,22:57:55,NA,incomplete,false,true,NA,NA,5,23,NA,black,m_s_041.jpg,NA,NA,NA,NA,NA,unpleasant,pleasant,NA,NA,NA,NA,NA,right,1358,true,NA,NA,NA,NA,NA,NA,NA,NA
ZBA7SlVE,3z33ic0jd3zsmh7cb6nqm2m9m84v9l,3y4w8q93l3x6crineoxuxi1ri8qvdz,ZBA7SlVE,2020-0188,2021-10-31,21:20:46,22:57:55,NA,incomplete,false,true,NA,NA,5,24,NA,green,m_s_032.jpg,NA,NA,NA,NA,NA,unpleasant,pleasant,NA,NA,NA,NA,NA,right,1411,true,NA,NA,NA,NA,NA,NA,NA,NA
ZBA7SlVE,3z33ic0jd3zsmh7cb6nqm2m9m84v9l,3y4w8q93l3x6crineoxuxi1ri8qvdz,ZBA7SlVE,2020-0188,2021-10-31,21:20:46,22:57:55,NA,incomplete,false,true,NA,NA,5,25,NA,green,n_s_055.jpg,NA,NA,NA,NA,NA,unpleasant,pleasant,NA,NA,NA,NA,NA,right,1350,true,NA,NA,NA,NA,NA,NA,NA,NA
ZBA7SlVE,3z33ic0jd3zsmh7cb6nqm2m9m84v9l,3y4w8q93l3x6crineoxuxi1ri8qvdz,ZBA7SlVE,2020-0188,2021-10-31,21:20:46,22:57:55,NA,incomplete,false,true,NA,NA,5,26,NA,green,n_s_064.jpg,NA,NA,NA,NA,NA,pleasant,unpleasant,NA,NA,NA,NA,NA,left,1482,true,NA,NA,NA,NA,NA,NA,NA,NA
ZBA7SlVE,3z33ic0jd3zsmh7cb6nqm2m9m84v9l,3y4w8q93l3x6crineoxuxi1ri8qvdz,ZBA7SlVE,2020-0188,2021-10-31,21:20:46,22:57:55,NA,incomplete,false,true,NA,NA,5,27,NA,green,n_s_058.jpg,NA,NA,NA,NA,NA,unpleasant,pleasant,NA,NA,NA,NA,NA,right,1054,true,NA,NA,NA,NA,NA,NA,NA,NA
ZBA7SlVE,3z33ic0jd3zsmh7cb6nqm2m9m84v9l,3y4w8q93l3x6crineoxuxi1ri8qvdz,ZBA7SlVE,2020-0188,2021-10-31,21:20:46,22:57:55,NA,incomplete,false,true,NA,NA,5,28,NA,green,n_l_061.jpg,NA,NA,NA,NA,NA,unpleasant,pleasant,NA,NA,NA,NA,NA,left,790,true,NA,NA,NA,NA,NA,NA,NA,NA
ZBA7SlVE,3z33ic0jd3zsmh7cb6nqm2m9m84v9l,3y4w8q93l3x6crineoxuxi1ri8qvdz,ZBA7SlVE,2020-0188,2021-10-31,21:20:46,22:57:55,NA,incomplete,false,true,NA,NA,5,29,NA,green,m_l_034.jpg,NA,NA,NA,NA,NA,unpleasant,pleasant,NA,NA,NA,NA,NA,right,1220,true,NA,NA,NA,NA,NA,NA,NA,NA
ZBA7SlVE,3z33ic0jd3zsmh7cb6nqm2m9m84v9l,3y4w8q93l3x6crineoxuxi1ri8qvdz,ZBA7SlVE,2020-0188,2021-10-31,21:20:46,22:57:55,NA,incomplete,false,true,NA,NA,5,30,NA,gray,m_l_052.jpg,NA,NA,NA,NA,NA,unpleasant,pleasant,NA,NA,NA,NA,NA,right,1026,true,NA,NA,NA,NA,NA,NA,NA,NA
ZBA7SlVE,3z33ic0jd3zsmh7cb6nqm2m9m84v9l,3y4w8q93l3x6crineoxuxi1ri8qvdz,ZBA7SlVE,2020-0188,2021-10-31,21:20:46,22:57:55,NA,incomplete,false,true,NA,NA,5,31,NA,gray,m_l_055.jpg,NA,NA,NA,NA,NA,unpleasant,pleasant,NA,NA,NA,NA,NA,right,1071,true,NA,NA,NA,NA,NA,NA,NA,NA
ZBA7SlVE,3z33ic0jd3zsmh7cb6nqm2m9m84v9l,3y4w8q93l3x6crineoxuxi1ri8qvdz,ZBA7SlVE,2020-0188,2021-10-31,21:20:46,22:57:55,NA,incomplete,false,true,NA,NA,5,32,NA,gray,n_s_111.jpg,NA,NA,NA,NA,NA,pleasant,unpleasant,NA,NA,NA,NA,NA,none,0,false,NA,NA,NA,NA,NA,NA,NA,NA
ZBA7SlVE,3z33ic0jd3zsmh7cb6nqm2m9m84v9l,3y4w8q93l3x6crineoxuxi1ri8qvdz,ZBA7SlVE,2020-0188,2021-10-31,21:20:46,22:57:55,NA,incomplete,false,true,NA,NA,5,33,NA,gray,n_s_080.jpg,NA,NA,NA,NA,NA,unpleasant,pleasant,NA,NA,NA,NA,NA,right,1141,true,NA,NA,NA,NA,NA,NA,NA,NA
