workerId,hitId,assignmentId,subject,studyid,exp_date,exp_start,exp_end,time_start,time_end,practice,encoding,memory,association,block,trial,event_order,event,stim,answer,object,left_context,right_context,context_type,label_left,label_right,left_image,left_event,right_image,right_event,condition,response,response_time,response_acc,association_response_time,association_response,association_acc,order_response,order_response_time,order_acc,distance_response,distance_response_time
xJrZbh1h,3bakuke4akpi45n0y93n6zfn3q3r1f,3y5140z9d1tafi1dkqp6insmnmqpiw,xJrZbh1h,2020-0188,2021-10-31,02:29:52,05:30:35,NA,incomplete,true,true,NA,NA,0,0,NA,green,n_s_031.jpg,NA,NA,NA,NA,NA,unpleasant,pleasant,NA,NA,NA,NA,NA,right,1408.30000019073,true,NA,NA,NA,NA,NA,NA,NA,NA
xJrZbh1h,3bakuke4akpi45n0y93n6zfn3q3r1f,3y5140z9d1tafi1dkqp6insmnmqpiw,xJrZbh1h,2020-0188,2021-10-31,02:29:52,05:30:35,NA,incomplete,true,true,NA,NA,0,1,NA,green,m_s_100.jpg,NA,NA,NA,NA,NA,unpleasant,pleasant,NA,NA,NA,NA,NA,left,1382,true,NA,NA,NA,NA,NA,NA,NA,NA
xJrZbh1h,3bakuke4akpi45n0y93n6zfn3q3r1f,3y5140z9d1tafi1dkqp6insmnmqpiw,xJrZbh1h,2020-0188,2021-10-31,02:29:52,05:30:35,NA,incomplete,true,true,NA,NA,0,2,NA,green,m_s_008.jpg,NA,NA,NA,NA,NA,pleasant,unpleasant,NA,NA,NA,NA,NA,right,1486.59999990463,true,NA,NA,NA,NA,NA,NA,NA,NA
xJrZbh1h,3bakuke4akpi45n0y93n6zfn3q3r1f,3y5140z9d1tafi1dkqp6insmnmqpiw,xJrZbh1h,2020-0188,2021-10-31,02:29:52,05:30:35,NA,incomplete,true,true,NA,NA,0,3,NA,green,m_l_074.jpg,NA,NA,NA,NA,NA,unpleasant,pleasant,NA,NA,NA,NA,NA,right,2922.5,true,NA,NA,NA,NA,NA,NA,NA,NA
xJrZbh1h,3bakuke4akpi45n0y93n6zfn3q3r1f,3y5140z9d1tafi1dkqp6insmnmqpiw,xJrZbh1h,2020-0188,2021-10-31,02:29:52,05:30:35,NA,incomplete,true,true,NA,NA,0,4,NA,green,m_s_062.jpg,NA,NA,NA,NA,NA,unpleasant,pleasant,NA,NA,NA,NA,NA,right,1902.29999995232,true,NA,NA,NA,NA,NA,NA,NA,NA
xJrZbh1h,3bakuke4akpi45n0y93n6zfn3q3r1f,3y5140z9d1tafi1dkqp6insmnmqpiw,xJrZbh1h,2020-0188,2021-10-31,02:29:52,05:30:35,NA,incomplete,true,true,NA,NA,0,5,NA,green,m_l_017.jpg,NA,NA,NA,NA,NA,pleasant,unpleasant,NA,NA,NA,NA,NA,left,1867.29999995232,true,NA,NA,NA,NA,NA,NA,NA,NA
xJrZbh1h,3bakuke4akpi45n0y93n6zfn3q3r1f,3y5140z9d1tafi1dkqp6insmnmqpiw,xJrZbh1h,2020-0188,2021-10-31,02:29:52,05:30:35,NA,incomplete,true,true,NA,NA,0,6,NA,yellow,n_s_107.jpg,NA,NA,NA,NA,NA,pleasant,unpleasant,NA,NA,NA,NA,NA,right,2325.29999995232,true,NA,NA,NA,NA,NA,NA,NA,NA
xJrZbh1h,3bakuke4akpi45n0y93n6zfn3q3r1f,3y5140z9d1tafi1dkqp6insmnmqpiw,xJrZbh1h,2020-0188,2021-10-31,02:29:52,05:30:35,NA,incomplete,true,true,NA,NA,0,7,NA,yellow,n_l_054.jpg,NA,NA,NA,NA,NA,pleasant,unpleasant,NA,NA,NA,NA,NA,left,1189.70000004768,true,NA,NA,NA,NA,NA,NA,NA,NA
xJrZbh1h,3bakuke4akpi45n0y93n6zfn3q3r1f,3y5140z9d1tafi1dkqp6insmnmqpiw,xJrZbh1h,2020-0188,2021-10-31,02:29:52,05:30:35,NA,incomplete,true,true,NA,NA,0,8,NA,yellow,n_s_106.jpg,NA,NA,NA,NA,NA,pleasant,unpleasant,NA,NA,NA,NA,NA,right,2214.19999980927,true,NA,NA,NA,NA,NA,NA,NA,NA
xJrZbh1h,3bakuke4akpi45n0y93n6zfn3q3r1f,3y5140z9d1tafi1dkqp6insmnmqpiw,xJrZbh1h,2020-0188,2021-10-31,02:29:52,05:30:35,NA,incomplete,true,true,NA,NA,0,9,NA,yellow,n_l_039.jpg,NA,NA,NA,NA,NA,unpleasant,pleasant,NA,NA,NA,NA,NA,right,1606.09999990463,true,NA,NA,NA,NA,NA,NA,NA,NA
xJrZbh1h,3bakuke4akpi45n0y93n6zfn3q3r1f,3y5140z9d1tafi1dkqp6insmnmqpiw,xJrZbh1h,2020-0188,2021-10-31,02:29:52,05:30:35,NA,incomplete,true,true,NA,NA,0,10,NA,yellow,m_s_063.jpg,NA,NA,NA,NA,NA,unpleasant,pleasant,NA,NA,NA,NA,NA,left,2040.29999995232,true,NA,NA,NA,NA,NA,NA,NA,NA
xJrZbh1h,3bakuke4akpi45n0y93n6zfn3q3r1f,3y5140z9d1tafi1dkqp6insmnmqpiw,xJrZbh1h,2020-0188,2021-10-31,02:29:52,05:30:35,NA,incomplete,true,true,NA,NA,0,11,NA,yellow,n_s_039.jpg,NA,NA,NA,NA,NA,unpleasant,pleasant,NA,NA,NA,NA,NA,right,2451.59999990463,true,NA,NA,NA,NA,NA,NA,NA,NA
xJrZbh1h,3bakuke4akpi45n0y93n6zfn3q3r1f,3y5140z9d1tafi1dkqp6insmnmqpiw,xJrZbh1h,2020-0188,2021-10-31,02:29:52,05:30:35,NA,incomplete,true,true,NA,NA,0,12,NA,blue,n_l_108.jpg,NA,NA,NA,NA,NA,pleasant,unpleasant,NA,NA,NA,NA,NA,right,1973.60000014305,true,NA,NA,NA,NA,NA,NA,NA,NA
xJrZbh1h,3bakuke4akpi45n0y93n6zfn3q3r1f,3y5140z9d1tafi1dkqp6insmnmqpiw,xJrZbh1h,2020-0188,2021-10-31,02:29:52,05:30:35,NA,incomplete,true,true,NA,NA,0,13,NA,blue,n_s_061.jpg,NA,NA,NA,NA,NA,pleasant,unpleasant,NA,NA,NA,NA,NA,right,1374.5,true,NA,NA,NA,NA,NA,NA,NA,NA
xJrZbh1h,3bakuke4akpi45n0y93n6zfn3q3r1f,3y5140z9d1tafi1dkqp6insmnmqpiw,xJrZbh1h,2020-0188,2021-10-31,02:29:52,05:30:35,NA,incomplete,true,true,NA,NA,0,14,NA,blue,m_s_085.jpg,NA,NA,NA,NA,NA,unpleasant,pleasant,NA,NA,NA,NA,NA,right,1731.40000009537,true,NA,NA,NA,NA,NA,NA,NA,NA
xJrZbh1h,3bakuke4akpi45n0y93n6zfn3q3r1f,3y5140z9d1tafi1dkqp6insmnmqpiw,xJrZbh1h,2020-0188,2021-10-31,02:29:52,05:30:35,NA,incomplete,true,true,NA,NA,0,15,NA,blue,n_s_017.jpg,NA,NA,NA,NA,NA,unpleasant,pleasant,NA,NA,NA,NA,NA,left,1145.79999995232,true,NA,NA,NA,NA,NA,NA,NA,NA
xJrZbh1h,3bakuke4akpi45n0y93n6zfn3q3r1f,3y5140z9d1tafi1dkqp6insmnmqpiw,xJrZbh1h,2020-0188,2021-10-31,02:29:52,05:30:35,NA,incomplete,true,true,NA,NA,0,16,NA,blue,n_l_009.jpg,NA,NA,NA,NA,NA,unpleasant,pleasant,NA,NA,NA,NA,NA,right,2016,true,NA,NA,NA,NA,NA,NA,NA,NA
xJrZbh1h,3bakuke4akpi45n0y93n6zfn3q3r1f,3y5140z9d1tafi1dkqp6insmnmqpiw,xJrZbh1h,2020-0188,2021-10-31,02:29:52,05:30:35,NA,incomplete,true,true,NA,NA,0,17,NA,blue,n_l_042.jpg,NA,NA,NA,NA,NA,unpleasant,pleasant,NA,NA,NA,NA,NA,right,1783.59999990463,true,NA,NA,NA,NA,NA,NA,NA,NA
xJrZbh1h,3bakuke4akpi45n0y93n6zfn3q3r1f,3y5140z9d1tafi1dkqp6insmnmqpiw,xJrZbh1h,2020-0188,2021-10-31,02:29:52,05:30:35,NA,incomplete,true,true,NA,NA,0,18,NA,purple,m_s_033.jpg,NA,NA,NA,NA,NA,pleasant,unpleasant,NA,NA,NA,NA,NA,right,2026.79999995232,true,NA,NA,NA,NA,NA,NA,NA,NA
xJrZbh1h,3bakuke4akpi45n0y93n6zfn3q3r1f,3y5140z9d1tafi1dkqp6insmnmqpiw,xJrZbh1h,2020-0188,2021-10-31,02:29:52,05:30:35,NA,incomplete,true,true,NA,NA,0,19,NA,purple,n_s_091.jpg,NA,NA,NA,NA,NA,pleasant,unpleasant,NA,NA,NA,NA,NA,left,1726.5,true,NA,NA,NA,NA,NA,NA,NA,NA
xJrZbh1h,3bakuke4akpi45n0y93n6zfn3q3r1f,3y5140z9d1tafi1dkqp6insmnmqpiw,xJrZbh1h,2020-0188,2021-10-31,02:29:52,05:30:35,NA,incomplete,true,true,NA,NA,0,20,NA,purple,n_l_003.jpg,NA,NA,NA,NA,NA,unpleasant,pleasant,NA,NA,NA,NA,NA,right,2299.69999980927,true,NA,NA,NA,NA,NA,NA,NA,NA
xJrZbh1h,3bakuke4akpi45n0y93n6zfn3q3r1f,3y5140z9d1tafi1dkqp6insmnmqpiw,xJrZbh1h,2020-0188,2021-10-31,02:29:52,05:30:35,NA,incomplete,true,true,NA,NA,0,21,NA,purple,m_l_086.jpg,NA,NA,NA,NA,NA,unpleasant,pleasant,NA,NA,NA,NA,NA,left,2178.20000004768,true,NA,NA,NA,NA,NA,NA,NA,NA
xJrZbh1h,3bakuke4akpi45n0y93n6zfn3q3r1f,3y5140z9d1tafi1dkqp6insmnmqpiw,xJrZbh1h,2020-0188,2021-10-31,02:29:52,05:30:35,NA,incomplete,true,true,NA,NA,0,22,NA,purple,n_l_114.jpg,NA,NA,NA,NA,NA,unpleasant,pleasant,NA,NA,NA,NA,NA,right,2115.80000019073,true,NA,NA,NA,NA,NA,NA,NA,NA
xJrZbh1h,3bakuke4akpi45n0y93n6zfn3q3r1f,3y5140z9d1tafi1dkqp6insmnmqpiw,xJrZbh1h,2020-0188,2021-10-31,02:29:52,05:30:35,NA,incomplete,true,true,NA,NA,0,23,NA,purple,n_s_052.jpg,NA,NA,NA,NA,NA,unpleasant,pleasant,NA,NA,NA,NA,NA,right,2419.70000004768,true,NA,NA,NA,NA,NA,NA,NA,NA
xJrZbh1h,3bakuke4akpi45n0y93n6zfn3q3r1f,3y5140z9d1tafi1dkqp6insmnmqpiw,xJrZbh1h,2020-0188,2021-10-31,02:29:52,05:30:35,NA,incomplete,true,true,NA,NA,0,24,NA,brown,m_l_009.jpg,NA,NA,NA,NA,NA,unpleasant,pleasant,NA,NA,NA,NA,NA,left,2056.10000014305,true,NA,NA,NA,NA,NA,NA,NA,NA
xJrZbh1h,3bakuke4akpi45n0y93n6zfn3q3r1f,3y5140z9d1tafi1dkqp6insmnmqpiw,xJrZbh1h,2020-0188,2021-10-31,02:29:52,05:30:35,NA,incomplete,true,true,NA,NA,0,25,NA,brown,n_l_068.jpg,NA,NA,NA,NA,NA,unpleasant,pleasant,NA,NA,NA,NA,NA,right,1903.40000009537,true,NA,NA,NA,NA,NA,NA,NA,NA
xJrZbh1h,3bakuke4akpi45n0y93n6zfn3q3r1f,3y5140z9d1tafi1dkqp6insmnmqpiw,xJrZbh1h,2020-0188,2021-10-31,02:29:52,05:30:35,NA,incomplete,true,true,NA,NA,0,26,NA,brown,n_s_042.jpg,NA,NA,NA,NA,NA,pleasant,unpleasant,NA,NA,NA,NA,NA,right,1438.5,true,NA,NA,NA,NA,NA,NA,NA,NA
xJrZbh1h,3bakuke4akpi45n0y93n6zfn3q3r1f,3y5140z9d1tafi1dkqp6insmnmqpiw,xJrZbh1h,2020-0188,2021-10-31,02:29:52,05:30:35,NA,incomplete,true,true,NA,NA,0,27,NA,brown,n_s_009.jpg,NA,NA,NA,NA,NA,unpleasant,pleasant,NA,NA,NA,NA,NA,right,2025.59999990463,true,NA,NA,NA,NA,NA,NA,NA,NA
xJrZbh1h,3bakuke4akpi45n0y93n6zfn3q3r1f,3y5140z9d1tafi1dkqp6insmnmqpiw,xJrZbh1h,2020-0188,2021-10-31,02:29:52,05:30:35,NA,incomplete,true,true,NA,NA,0,28,NA,brown,m_s_010.jpg,NA,NA,NA,NA,NA,unpleasant,pleasant,NA,NA,NA,NA,NA,left,1799.70000004768,true,NA,NA,NA,NA,NA,NA,NA,NA
xJrZbh1h,3bakuke4akpi45n0y93n6zfn3q3r1f,3y5140z9d1tafi1dkqp6insmnmqpiw,xJrZbh1h,2020-0188,2021-10-31,02:29:52,05:30:35,NA,incomplete,true,true,NA,NA,0,29,NA,brown,m_l_083.jpg,NA,NA,NA,NA,NA,pleasant,unpleasant,NA,NA,NA,NA,NA,left,1244.30000019073,true,NA,NA,NA,NA,NA,NA,NA,NA
xJrZbh1h,3bakuke4akpi45n0y93n6zfn3q3r1f,3y5140z9d1tafi1dkqp6insmnmqpiw,xJrZbh1h,2020-0188,2021-10-31,02:29:52,05:30:35,NA,incomplete,true,true,NA,NA,0,30,NA,white,n_s_048.jpg,NA,NA,NA,NA,NA,unpleasant,pleasant,NA,NA,NA,NA,NA,left,2046.39999985695,true,NA,NA,NA,NA,NA,NA,NA,NA
xJrZbh1h,3bakuke4akpi45n0y93n6zfn3q3r1f,3y5140z9d1tafi1dkqp6insmnmqpiw,xJrZbh1h,2020-0188,2021-10-31,02:29:52,05:30:35,NA,incomplete,true,true,NA,NA,0,31,NA,white,m_s_109.jpg,NA,NA,NA,NA,NA,unpleasant,pleasant,NA,NA,NA,NA,NA,right,1857.5,true,NA,NA,NA,NA,NA,NA,NA,NA
xJrZbh1h,3bakuke4akpi45n0y93n6zfn3q3r1f,3y5140z9d1tafi1dkqp6insmnmqpiw,xJrZbh1h,2020-0188,2021-10-31,02:29:52,05:30:35,NA,incomplete,true,true,NA,NA,0,32,NA,white,m_s_028.jpg,NA,NA,NA,NA,NA,unpleasant,pleasant,NA,NA,NA,NA,NA,left,1504.20000004768,true,NA,NA,NA,NA,NA,NA,NA,NA
xJrZbh1h,3bakuke4akpi45n0y93n6zfn3q3r1f,3y5140z9d1tafi1dkqp6insmnmqpiw,xJrZbh1h,2020-0188,2021-10-31,02:29:52,05:30:35,NA,incomplete,true,true,NA,NA,0,33,NA,white,n_s_029.jpg,NA,NA,NA,NA,NA,unpleasant,pleasant,NA,NA,NA,NA,NA,right,1555.69999980927,true,NA,NA,NA,NA,NA,NA,NA,NA
xJrZbh1h,3bakuke4akpi45n0y93n6zfn3q3r1f,3y5140z9d1tafi1dkqp6insmnmqpiw,xJrZbh1h,2020-0188,2021-10-31,02:29:52,05:30:35,NA,incomplete,true,true,NA,NA,0,34,NA,white,m_l_108.jpg,NA,NA,NA,NA,NA,pleasant,unpleasant,NA,NA,NA,NA,NA,left,1392.90000009537,true,NA,NA,NA,NA,NA,NA,NA,NA
xJrZbh1h,3bakuke4akpi45n0y93n6zfn3q3r1f,3y5140z9d1tafi1dkqp6insmnmqpiw,xJrZbh1h,2020-0188,2021-10-31,02:29:52,05:30:35,NA,incomplete,true,true,NA,NA,0,35,NA,white,m_l_101.jpg,NA,NA,NA,NA,NA,pleasant,unpleasant,NA,NA,NA,NA,NA,left,961.399999856949,true,NA,NA,NA,NA,NA,NA,NA,NA
xJrZbh1h,3bakuke4akpi45n0y93n6zfn3q3r1f,3y5140z9d1tafi1dkqp6insmnmqpiw,xJrZbh1h,2020-0188,2021-10-31,02:29:52,05:30:35,NA,incomplete,true,NA,NA,true,0,0,NA,NA,NA,left,n_s_052.jpg,purple,blue,NA,NA,NA,NA,NA,NA,NA,NA,NA,NaN,NA,5560.599999904633,right,0,NA,NA,NA,NA,NA
xJrZbh1h,3bakuke4akpi45n0y93n6zfn3q3r1f,3y5140z9d1tafi1dkqp6insmnmqpiw,xJrZbh1h,2020-0188,2021-10-31,02:29:52,05:30:35,NA,incomplete,true,NA,NA,true,0,1,NA,NA,NA,right,n_l_042.jpg,yellow,blue,NA,NA,NA,NA,NA,NA,NA,NA,NA,NaN,NA,6407.799999952316,right,1,NA,NA,NA,NA,NA
xJrZbh1h,3bakuke4akpi45n0y93n6zfn3q3r1f,3y5140z9d1tafi1dkqp6insmnmqpiw,xJrZbh1h,2020-0188,2021-10-31,02:29:52,05:30:35,NA,incomplete,true,NA,NA,true,0,2,NA,NA,NA,left,n_l_114.jpg,purple,brown,NA,NA,NA,NA,NA,NA,NA,NA,NA,NaN,NA,6514.799999952316,left,1,NA,NA,NA,NA,NA
xJrZbh1h,3bakuke4akpi45n0y93n6zfn3q3r1f,3y5140z9d1tafi1dkqp6insmnmqpiw,xJrZbh1h,2020-0188,2021-10-31,02:29:52,05:30:35,NA,incomplete,true,NA,NA,true,0,3,NA,NA,NA,right,m_l_101.jpg,brown,white,NA,NA,NA,NA,NA,NA,NA,NA,NA,NaN,NA,3056.7000000476837,right,1,NA,NA,NA,NA,NA
xJrZbh1h,3bakuke4akpi45n0y93n6zfn3q3r1f,3y5140z9d1tafi1dkqp6insmnmqpiw,xJrZbh1h,2020-0188,2021-10-31,02:29:52,05:30:35,NA,incomplete,true,NA,NA,true,0,4,NA,NA,NA,right,m_l_083.jpg,purple,brown,NA,NA,NA,NA,NA,NA,NA,NA,NA,NaN,NA,3265.300000190735,right,1,NA,NA,NA,NA,NA
xJrZbh1h,3bakuke4akpi45n0y93n6zfn3q3r1f,3y5140z9d1tafi1dkqp6insmnmqpiw,xJrZbh1h,2020-0188,2021-10-31,02:29:52,05:30:35,NA,incomplete,true,NA,NA,true,0,5,NA,NA,NA,right,n_s_039.jpg,blue,yellow,NA,NA,NA,NA,NA,NA,NA,NA,NA,NaN,NA,2713.2999999523163,right,1,NA,NA,NA,NA,NA
xJrZbh1h,3bakuke4akpi45n0y93n6zfn3q3r1f,3y5140z9d1tafi1dkqp6insmnmqpiw,xJrZbh1h,2020-0188,2021-10-31,02:29:52,05:30:35,NA,incomplete,true,NA,NA,true,0,6,NA,NA,NA,right,n_l_009.jpg,yellow,blue,NA,NA,NA,NA,NA,NA,NA,NA,NA,NaN,NA,2954,right,1,NA,NA,NA,NA,NA
xJrZbh1h,3bakuke4akpi45n0y93n6zfn3q3r1f,3y5140z9d1tafi1dkqp6insmnmqpiw,xJrZbh1h,2020-0188,2021-10-31,02:29:52,05:30:35,NA,incomplete,true,NA,NA,true,0,7,NA,NA,NA,left,n_s_106.jpg,yellow,blue,NA,NA,NA,NA,NA,NA,NA,NA,NA,NaN,NA,7489.100000143051,left,1,NA,NA,NA,NA,NA
xJrZbh1h,3bakuke4akpi45n0y93n6zfn3q3r1f,3y5140z9d1tafi1dkqp6insmnmqpiw,xJrZbh1h,2020-0188,2021-10-31,02:29:52,05:30:35,NA,incomplete,true,NA,NA,true,0,8,NA,NA,NA,right,m_s_010.jpg,white,brown,NA,NA,NA,NA,NA,NA,NA,NA,NA,NaN,NA,3173.5,right,1,NA,NA,NA,NA,NA
xJrZbh1h,3bakuke4akpi45n0y93n6zfn3q3r1f,3y5140z9d1tafi1dkqp6insmnmqpiw,xJrZbh1h,2020-0188,2021-10-31,02:29:52,05:30:35,NA,incomplete,true,NA,NA,true,0,9,NA,NA,NA,left,m_l_017.jpg,green,yellow,NA,NA,NA,NA,NA,NA,NA,NA,NA,NaN,NA,5633.600000143051,left,1,NA,NA,NA,NA,NA
xJrZbh1h,3bakuke4akpi45n0y93n6zfn3q3r1f,3y5140z9d1tafi1dkqp6insmnmqpiw,xJrZbh1h,2020-0188,2021-10-31,02:29:52,05:30:35,NA,incomplete,true,NA,NA,true,0,10,NA,NA,NA,left,n_l_054.jpg,yellow,blue,NA,NA,NA,NA,NA,NA,NA,NA,NA,NaN,NA,3712.199999809265,left,1,NA,NA,NA,NA,NA
xJrZbh1h,3bakuke4akpi45n0y93n6zfn3q3r1f,3y5140z9d1tafi1dkqp6insmnmqpiw,xJrZbh1h,2020-0188,2021-10-31,02:29:52,05:30:35,NA,incomplete,true,NA,NA,true,0,11,NA,NA,NA,right,n_l_068.jpg,purple,brown,NA,NA,NA,NA,NA,NA,NA,NA,NA,NaN,NA,5591.5,right,1,NA,NA,NA,NA,NA
xJrZbh1h,3bakuke4akpi45n0y93n6zfn3q3r1f,3y5140z9d1tafi1dkqp6insmnmqpiw,xJrZbh1h,2020-0188,2021-10-31,02:29:52,05:30:35,NA,incomplete,true,NA,NA,true,0,12,NA,NA,NA,left,m_s_100.jpg,green,yellow,NA,NA,NA,NA,NA,NA,NA,NA,NA,NaN,NA,3761.4000000953674,right,0,NA,NA,NA,NA,NA
xJrZbh1h,3bakuke4akpi45n0y93n6zfn3q3r1f,3y5140z9d1tafi1dkqp6insmnmqpiw,xJrZbh1h,2020-0188,2021-10-31,02:29:52,05:30:35,NA,incomplete,true,NA,NA,true,0,13,NA,NA,NA,left,n_s_042.jpg,brown,white,NA,NA,NA,NA,NA,NA,NA,NA,NA,NaN,NA,3106.7000000476837,left,1,NA,NA,NA,NA,NA
xJrZbh1h,3bakuke4akpi45n0y93n6zfn3q3r1f,3y5140z9d1tafi1dkqp6insmnmqpiw,xJrZbh1h,2020-0188,2021-10-31,02:29:52,05:30:35,NA,incomplete,true,NA,NA,true,0,14,NA,NA,NA,left,n_s_061.jpg,blue,yellow,NA,NA,NA,NA,NA,NA,NA,NA,NA,NaN,NA,3017.2000000476837,left,1,NA,NA,NA,NA,NA
xJrZbh1h,3bakuke4akpi45n0y93n6zfn3q3r1f,3y5140z9d1tafi1dkqp6insmnmqpiw,xJrZbh1h,2020-0188,2021-10-31,02:29:52,05:30:35,NA,incomplete,true,NA,NA,true,0,15,NA,NA,NA,left,n_s_091.jpg,purple,brown,NA,NA,NA,NA,NA,NA,NA,NA,NA,NaN,NA,11367.399999856949,left,1,NA,NA,NA,NA,NA
xJrZbh1h,3bakuke4akpi45n0y93n6zfn3q3r1f,3y5140z9d1tafi1dkqp6insmnmqpiw,xJrZbh1h,2020-0188,2021-10-31,02:29:52,05:30:35,NA,incomplete,true,NA,NA,true,0,16,NA,NA,NA,left,m_s_062.jpg,green,yellow,NA,NA,NA,NA,NA,NA,NA,NA,NA,NaN,NA,6591.5,right,0,NA,NA,NA,NA,NA
xJrZbh1h,3bakuke4akpi45n0y93n6zfn3q3r1f,3y5140z9d1tafi1dkqp6insmnmqpiw,xJrZbh1h,2020-0188,2021-10-31,02:29:52,05:30:35,NA,incomplete,true,NA,NA,true,0,17,NA,NA,NA,right,m_s_085.jpg,yellow,blue,NA,NA,NA,NA,NA,NA,NA,NA,NA,NaN,NA,5196.400000095367,right,1,NA,NA,NA,NA,NA
xJrZbh1h,3bakuke4akpi45n0y93n6zfn3q3r1f,3y5140z9d1tafi1dkqp6insmnmqpiw,xJrZbh1h,2020-0188,2021-10-31,02:29:52,05:30:35,NA,incomplete,true,NA,NA,true,0,18,NA,NA,NA,left,n_l_003.jpg,purple,brown,NA,NA,NA,NA,NA,NA,NA,NA,NA,NaN,NA,4055.0999999046326,left,1,NA,NA,NA,NA,NA
xJrZbh1h,3bakuke4akpi45n0y93n6zfn3q3r1f,3y5140z9d1tafi1dkqp6insmnmqpiw,xJrZbh1h,2020-0188,2021-10-31,02:29:52,05:30:35,NA,incomplete,true,NA,NA,true,0,19,NA,NA,NA,right,m_s_028.jpg,brown,white,NA,NA,NA,NA,NA,NA,NA,NA,NA,NaN,NA,3823.399999856949,right,1,NA,NA,NA,NA,NA
xJrZbh1h,3bakuke4akpi45n0y93n6zfn3q3r1f,3y5140z9d1tafi1dkqp6insmnmqpiw,xJrZbh1h,2020-0188,2021-10-31,02:29:52,05:30:35,NA,incomplete,true,NA,NA,true,0,20,NA,NA,NA,right,m_s_063.jpg,blue,yellow,NA,NA,NA,NA,NA,NA,NA,NA,NA,NaN,NA,6048.399999856949,left,0,NA,NA,NA,NA,NA
xJrZbh1h,3bakuke4akpi45n0y93n6zfn3q3r1f,3y5140z9d1tafi1dkqp6insmnmqpiw,xJrZbh1h,2020-0188,2021-10-31,02:29:52,05:30:35,NA,incomplete,true,NA,NA,true,0,21,NA,NA,NA,left,m_s_109.jpg,white,brown,NA,NA,NA,NA,NA,NA,NA,NA,NA,NaN,NA,4608.200000047684,left,1,NA,NA,NA,NA,NA
xJrZbh1h,3bakuke4akpi45n0y93n6zfn3q3r1f,3y5140z9d1tafi1dkqp6insmnmqpiw,xJrZbh1h,2020-0188,2021-10-31,02:29:52,05:30:35,NA,incomplete,true,NA,true,NA,0,0,NA,NA,NA,left,NA,NA,NA,present,NA,NA,m_s_062.jpg,green,n_s_106.jpg,yellow,between,NA,NaN,NA,NA,NA,NA,left,5120.799999952316,1,1,7927.700000047684
xJrZbh1h,3bakuke4akpi45n0y93n6zfn3q3r1f,3y5140z9d1tafi1dkqp6insmnmqpiw,xJrZbh1h,2020-0188,2021-10-31,02:29:52,05:30:35,NA,incomplete,true,NA,true,NA,0,1,NA,NA,NA,right,NA,NA,NA,present,NA,NA,m_l_101.jpg,white,m_s_109.jpg,white,within,NA,NaN,NA,NA,NA,NA,right,7267.5,1,1,3295.4000000953674
xJrZbh1h,3bakuke4akpi45n0y93n6zfn3q3r1f,3y5140z9d1tafi1dkqp6insmnmqpiw,xJrZbh1h,2020-0188,2021-10-31,02:29:52,05:30:35,NA,incomplete,true,NA,true,NA,0,2,NA,NA,NA,right,NA,NA,NA,present,NA,NA,m_s_028.jpg,white,m_s_010.jpg,brown,between,NA,NaN,NA,NA,NA,NA,right,8572.599999904633,1,2,2485.5
xJrZbh1h,3bakuke4akpi45n0y93n6zfn3q3r1f,3y5140z9d1tafi1dkqp6insmnmqpiw,xJrZbh1h,2020-0188,2021-10-31,02:29:52,05:30:35,NA,incomplete,true,NA,true,NA,0,3,NA,NA,NA,left,NA,NA,NA,present,NA,NA,n_s_091.jpg,purple,n_s_052.jpg,purple,within,NA,NaN,NA,NA,NA,NA,right,5174.900000095367,0,3,2736.7999999523163
xJrZbh1h,3bakuke4akpi45n0y93n6zfn3q3r1f,3y5140z9d1tafi1dkqp6insmnmqpiw,xJrZbh1h,2020-0188,2021-10-31,02:29:52,05:30:35,NA,incomplete,true,NA,true,NA,0,4,NA,NA,NA,left,NA,NA,NA,present,NA,NA,n_s_061.jpg,blue,n_l_042.jpg,blue,within,NA,NaN,NA,NA,NA,NA,left,3545.7999999523163,1,3,1927
xJrZbh1h,3bakuke4akpi45n0y93n6zfn3q3r1f,3y5140z9d1tafi1dkqp6insmnmqpiw,xJrZbh1h,2020-0188,2021-10-31,02:29:52,05:30:35,NA,incomplete,true,NA,true,NA,0,5,NA,NA,NA,right,NA,NA,NA,present,NA,NA,m_l_017.jpg,green,m_s_100.jpg,green,within,NA,NaN,NA,NA,NA,NA,left,3256.399999856949,0,2,3568.9000000953674
xJrZbh1h,3bakuke4akpi45n0y93n6zfn3q3r1f,3y5140z9d1tafi1dkqp6insmnmqpiw,xJrZbh1h,2020-0188,2021-10-31,02:29:52,05:30:35,NA,incomplete,true,NA,true,NA,0,6,NA,NA,NA,right,NA,NA,NA,present,NA,NA,m_s_085.jpg,blue,m_s_063.jpg,yellow,between,NA,NaN,NA,NA,NA,NA,right,5175.900000095367,1,1,4127.600000143051
xJrZbh1h,3bakuke4akpi45n0y93n6zfn3q3r1f,3y5140z9d1tafi1dkqp6insmnmqpiw,xJrZbh1h,2020-0188,2021-10-31,02:29:52,05:30:35,NA,incomplete,true,NA,true,NA,0,7,NA,NA,NA,left,NA,NA,NA,present,NA,NA,n_l_068.jpg,brown,m_l_083.jpg,brown,within,NA,NaN,NA,NA,NA,NA,left,4605.099999904633,1,2,1774.5
xJrZbh1h,3bakuke4akpi45n0y93n6zfn3q3r1f,3y5140z9d1tafi1dkqp6insmnmqpiw,xJrZbh1h,2020-0188,2021-10-31,02:29:52,05:30:35,NA,incomplete,true,NA,true,NA,0,8,NA,NA,NA,left,NA,NA,NA,present,NA,NA,n_l_114.jpg,purple,n_s_042.jpg,brown,between,NA,NaN,NA,NA,NA,NA,left,5883.299999952316,1,2,5124.199999809265
xJrZbh1h,3bakuke4akpi45n0y93n6zfn3q3r1f,3y5140z9d1tafi1dkqp6insmnmqpiw,xJrZbh1h,2020-0188,2021-10-31,02:29:52,05:30:35,NA,incomplete,true,NA,true,NA,0,9,NA,NA,NA,left,NA,NA,NA,present,NA,NA,n_l_054.jpg,yellow,n_s_039.jpg,yellow,within,NA,NaN,NA,NA,NA,NA,left,4565.299999952316,1,2,4814.699999809265
xJrZbh1h,3bakuke4akpi45n0y93n6zfn3q3r1f,3y5140z9d1tafi1dkqp6insmnmqpiw,xJrZbh1h,2020-0188,2021-10-31,02:29:52,05:30:35,NA,incomplete,true,NA,true,NA,0,10,NA,NA,NA,right,NA,NA,NA,present,NA,NA,n_l_003.jpg,purple,n_l_009.jpg,blue,between,NA,NaN,NA,NA,NA,NA,left,6233.5,0,2,3591.5
xJrZbh1h,3bakuke4akpi45n0y93n6zfn3q3r1f,3y5140z9d1tafi1dkqp6insmnmqpiw,xJrZbh1h,2020-0188,2021-10-31,02:29:52,05:30:35,NA,incomplete,false,true,NA,NA,1,0,NA,gray,n_l_099.jpg,NA,NA,NA,NA,NA,unpleasant,pleasant,NA,NA,NA,NA,NA,left,1983.20000004768,true,NA,NA,NA,NA,NA,NA,NA,NA
xJrZbh1h,3bakuke4akpi45n0y93n6zfn3q3r1f,3y5140z9d1tafi1dkqp6insmnmqpiw,xJrZbh1h,2020-0188,2021-10-31,02:29:52,05:30:35,NA,incomplete,false,true,NA,NA,1,1,NA,gray,m_l_001.jpg,NA,NA,NA,NA,NA,unpleasant,pleasant,NA,NA,NA,NA,NA,right,1859.5,true,NA,NA,NA,NA,NA,NA,NA,NA
xJrZbh1h,3bakuke4akpi45n0y93n6zfn3q3r1f,3y5140z9d1tafi1dkqp6insmnmqpiw,xJrZbh1h,2020-0188,2021-10-31,02:29:52,05:30:35,NA,incomplete,false,true,NA,NA,1,2,NA,gray,m_l_027.jpg,NA,NA,NA,NA,NA,unpleasant,pleasant,NA,NA,NA,NA,NA,left,2035.79999995232,true,NA,NA,NA,NA,NA,NA,NA,NA
xJrZbh1h,3bakuke4akpi45n0y93n6zfn3q3r1f,3y5140z9d1tafi1dkqp6insmnmqpiw,xJrZbh1h,2020-0188,2021-10-31,02:29:52,05:30:35,NA,incomplete,false,true,NA,NA,1,3,NA,gray,n_l_066.jpg,NA,NA,NA,NA,NA,pleasant,unpleasant,NA,NA,NA,NA,NA,right,1865.79999995232,true,NA,NA,NA,NA,NA,NA,NA,NA
xJrZbh1h,3bakuke4akpi45n0y93n6zfn3q3r1f,3y5140z9d1tafi1dkqp6insmnmqpiw,xJrZbh1h,2020-0188,2021-10-31,02:29:52,05:30:35,NA,incomplete,false,true,NA,NA,1,4,NA,gray,m_s_006.jpg,NA,NA,NA,NA,NA,pleasant,unpleasant,NA,NA,NA,NA,NA,right,1391.90000009537,true,NA,NA,NA,NA,NA,NA,NA,NA
xJrZbh1h,3bakuke4akpi45n0y93n6zfn3q3r1f,3y5140z9d1tafi1dkqp6insmnmqpiw,xJrZbh1h,2020-0188,2021-10-31,02:29:52,05:30:35,NA,incomplete,false,true,NA,NA,1,5,NA,gray,n_s_012.jpg,NA,NA,NA,NA,NA,pleasant,unpleasant,NA,NA,NA,NA,NA,left,1203.5,true,NA,NA,NA,NA,NA,NA,NA,NA
xJrZbh1h,3bakuke4akpi45n0y93n6zfn3q3r1f,3y5140z9d1tafi1dkqp6insmnmqpiw,xJrZbh1h,2020-0188,2021-10-31,02:29:52,05:30:35,NA,incomplete,false,true,NA,NA,1,6,NA,green,n_l_044.jpg,NA,NA,NA,NA,NA,pleasant,unpleasant,NA,NA,NA,NA,NA,left,1179.89999985695,true,NA,NA,NA,NA,NA,NA,NA,NA
xJrZbh1h,3bakuke4akpi45n0y93n6zfn3q3r1f,3y5140z9d1tafi1dkqp6insmnmqpiw,xJrZbh1h,2020-0188,2021-10-31,02:29:52,05:30:35,NA,incomplete,false,true,NA,NA,1,7,NA,green,n_l_059.jpg,NA,NA,NA,NA,NA,unpleasant,pleasant,NA,NA,NA,NA,NA,left,150.200000047684,true,NA,NA,NA,NA,NA,NA,NA,NA
xJrZbh1h,3bakuke4akpi45n0y93n6zfn3q3r1f,3y5140z9d1tafi1dkqp6insmnmqpiw,xJrZbh1h,2020-0188,2021-10-31,02:29:52,05:30:35,NA,incomplete,false,true,NA,NA,1,8,NA,green,n_s_109.jpg,NA,NA,NA,NA,NA,pleasant,unpleasant,NA,NA,NA,NA,NA,right,1366.20000004768,true,NA,NA,NA,NA,NA,NA,NA,NA
xJrZbh1h,3bakuke4akpi45n0y93n6zfn3q3r1f,3y5140z9d1tafi1dkqp6insmnmqpiw,xJrZbh1h,2020-0188,2021-10-31,02:29:52,05:30:35,NA,incomplete,false,true,NA,NA,1,9,NA,green,m_l_032.jpg,NA,NA,NA,NA,NA,unpleasant,pleasant,NA,NA,NA,NA,NA,right,1912.39999985695,true,NA,NA,NA,NA,NA,NA,NA,NA
xJrZbh1h,3bakuke4akpi45n0y93n6zfn3q3r1f,3y5140z9d1tafi1dkqp6insmnmqpiw,xJrZbh1h,2020-0188,2021-10-31,02:29:52,05:30:35,NA,incomplete,false,true,NA,NA,1,10,NA,green,n_l_103.jpg,NA,NA,NA,NA,NA,pleasant,unpleasant,NA,NA,NA,NA,NA,left,2119.20000004768,true,NA,NA,NA,NA,NA,NA,NA,NA
xJrZbh1h,3bakuke4akpi45n0y93n6zfn3q3r1f,3y5140z9d1tafi1dkqp6insmnmqpiw,xJrZbh1h,2020-0188,2021-10-31,02:29:52,05:30:35,NA,incomplete,false,true,NA,NA,1,11,NA,green,m_l_105.jpg,NA,NA,NA,NA,NA,unpleasant,pleasant,NA,NA,NA,NA,NA,right,1724.39999985695,true,NA,NA,NA,NA,NA,NA,NA,NA
xJrZbh1h,3bakuke4akpi45n0y93n6zfn3q3r1f,3y5140z9d1tafi1dkqp6insmnmqpiw,xJrZbh1h,2020-0188,2021-10-31,02:29:52,05:30:35,NA,incomplete,false,true,NA,NA,1,12,NA,brown,n_s_018.jpg,NA,NA,NA,NA,NA,unpleasant,pleasant,NA,NA,NA,NA,NA,left,2262.39999985695,true,NA,NA,NA,NA,NA,NA,NA,NA
xJrZbh1h,3bakuke4akpi45n0y93n6zfn3q3r1f,3y5140z9d1tafi1dkqp6insmnmqpiw,xJrZbh1h,2020-0188,2021-10-31,02:29:52,05:30:35,NA,incomplete,false,true,NA,NA,1,13,NA,brown,n_l_015.jpg,NA,NA,NA,NA,NA,pleasant,unpleasant,NA,NA,NA,NA,NA,left,1850.60000014305,true,NA,NA,NA,NA,NA,NA,NA,NA
xJrZbh1h,3bakuke4akpi45n0y93n6zfn3q3r1f,3y5140z9d1tafi1dkqp6insmnmqpiw,xJrZbh1h,2020-0188,2021-10-31,02:29:52,05:30:35,NA,incomplete,false,true,NA,NA,1,14,NA,brown,n_l_084.jpg,NA,NA,NA,NA,NA,unpleasant,pleasant,NA,NA,NA,NA,NA,right,1426.29999995232,true,NA,NA,NA,NA,NA,NA,NA,NA
xJrZbh1h,3bakuke4akpi45n0y93n6zfn3q3r1f,3y5140z9d1tafi1dkqp6insmnmqpiw,xJrZbh1h,2020-0188,2021-10-31,02:29:52,05:30:35,NA,incomplete,false,true,NA,NA,1,15,NA,brown,n_l_020.jpg,NA,NA,NA,NA,NA,unpleasant,pleasant,NA,NA,NA,NA,NA,left,1789.90000009537,true,NA,NA,NA,NA,NA,NA,NA,NA
xJrZbh1h,3bakuke4akpi45n0y93n6zfn3q3r1f,3y5140z9d1tafi1dkqp6insmnmqpiw,xJrZbh1h,2020-0188,2021-10-31,02:29:52,05:30:35,NA,incomplete,false,true,NA,NA,1,16,NA,brown,n_l_065.jpg,NA,NA,NA,NA,NA,unpleasant,pleasant,NA,NA,NA,NA,NA,left,1702.79999995232,true,NA,NA,NA,NA,NA,NA,NA,NA
xJrZbh1h,3bakuke4akpi45n0y93n6zfn3q3r1f,3y5140z9d1tafi1dkqp6insmnmqpiw,xJrZbh1h,2020-0188,2021-10-31,02:29:52,05:30:35,NA,incomplete,false,true,NA,NA,1,17,NA,brown,n_l_097.jpg,NA,NA,NA,NA,NA,unpleasant,pleasant,NA,NA,NA,NA,NA,left,1117.69999980927,true,NA,NA,NA,NA,NA,NA,NA,NA
xJrZbh1h,3bakuke4akpi45n0y93n6zfn3q3r1f,3y5140z9d1tafi1dkqp6insmnmqpiw,xJrZbh1h,2020-0188,2021-10-31,02:29:52,05:30:35,NA,incomplete,false,true,NA,NA,1,18,NA,red,n_l_027.jpg,NA,NA,NA,NA,NA,pleasant,unpleasant,NA,NA,NA,NA,NA,right,1737.29999995232,true,NA,NA,NA,NA,NA,NA,NA,NA
xJrZbh1h,3bakuke4akpi45n0y93n6zfn3q3r1f,3y5140z9d1tafi1dkqp6insmnmqpiw,xJrZbh1h,2020-0188,2021-10-31,02:29:52,05:30:35,NA,incomplete,false,true,NA,NA,1,19,NA,red,m_s_115.jpg,NA,NA,NA,NA,NA,pleasant,unpleasant,NA,NA,NA,NA,NA,right,1887.20000004768,true,NA,NA,NA,NA,NA,NA,NA,NA
xJrZbh1h,3bakuke4akpi45n0y93n6zfn3q3r1f,3y5140z9d1tafi1dkqp6insmnmqpiw,xJrZbh1h,2020-0188,2021-10-31,02:29:52,05:30:35,NA,incomplete,false,true,NA,NA,1,20,NA,red,m_l_055.jpg,NA,NA,NA,NA,NA,pleasant,unpleasant,NA,NA,NA,NA,NA,left,1240.19999980927,true,NA,NA,NA,NA,NA,NA,NA,NA
xJrZbh1h,3bakuke4akpi45n0y93n6zfn3q3r1f,3y5140z9d1tafi1dkqp6insmnmqpiw,xJrZbh1h,2020-0188,2021-10-31,02:29:52,05:30:35,NA,incomplete,false,true,NA,NA,1,21,NA,red,n_s_013.jpg,NA,NA,NA,NA,NA,unpleasant,pleasant,NA,NA,NA,NA,NA,left,946.200000047684,true,NA,NA,NA,NA,NA,NA,NA,NA
xJrZbh1h,3bakuke4akpi45n0y93n6zfn3q3r1f,3y5140z9d1tafi1dkqp6insmnmqpiw,xJrZbh1h,2020-0188,2021-10-31,02:29:52,05:30:35,NA,incomplete,false,true,NA,NA,1,22,NA,red,m_l_007.jpg,NA,NA,NA,NA,NA,unpleasant,pleasant,NA,NA,NA,NA,NA,left,2045.09999990463,true,NA,NA,NA,NA,NA,NA,NA,NA
xJrZbh1h,3bakuke4akpi45n0y93n6zfn3q3r1f,3y5140z9d1tafi1dkqp6insmnmqpiw,xJrZbh1h,2020-0188,2021-10-31,02:29:52,05:30:35,NA,incomplete,false,true,NA,NA,1,23,NA,red,m_l_061.jpg,NA,NA,NA,NA,NA,pleasant,unpleasant,NA,NA,NA,NA,NA,right,1769.29999995232,true,NA,NA,NA,NA,NA,NA,NA,NA
xJrZbh1h,3bakuke4akpi45n0y93n6zfn3q3r1f,3y5140z9d1tafi1dkqp6insmnmqpiw,xJrZbh1h,2020-0188,2021-10-31,02:29:52,05:30:35,NA,incomplete,false,true,NA,NA,1,24,NA,black,m_s_001.jpg,NA,NA,NA,NA,NA,unpleasant,pleasant,NA,NA,NA,NA,NA,left,1870.5,true,NA,NA,NA,NA,NA,NA,NA,NA
xJrZbh1h,3bakuke4akpi45n0y93n6zfn3q3r1f,3y5140z9d1tafi1dkqp6insmnmqpiw,xJrZbh1h,2020-0188,2021-10-31,02:29:52,05:30:35,NA,incomplete,false,true,NA,NA,1,25,NA,black,n_l_087.jpg,NA,NA,NA,NA,NA,pleasant,unpleasant,NA,NA,NA,NA,NA,left,1231.30000019073,true,NA,NA,NA,NA,NA,NA,NA,NA
xJrZbh1h,3bakuke4akpi45n0y93n6zfn3q3r1f,3y5140z9d1tafi1dkqp6insmnmqpiw,xJrZbh1h,2020-0188,2021-10-31,02:29:52,05:30:35,NA,incomplete,false,true,NA,NA,1,26,NA,black,m_l_089.jpg,NA,NA,NA,NA,NA,pleasant,unpleasant,NA,NA,NA,NA,NA,left,1048.20000004768,true,NA,NA,NA,NA,NA,NA,NA,NA
xJrZbh1h,3bakuke4akpi45n0y93n6zfn3q3r1f,3y5140z9d1tafi1dkqp6insmnmqpiw,xJrZbh1h,2020-0188,2021-10-31,02:29:52,05:30:35,NA,incomplete,false,true,NA,NA,1,27,NA,black,m_s_004.jpg,NA,NA,NA,NA,NA,pleasant,unpleasant,NA,NA,NA,NA,NA,left,1747.89999985695,true,NA,NA,NA,NA,NA,NA,NA,NA
xJrZbh1h,3bakuke4akpi45n0y93n6zfn3q3r1f,3y5140z9d1tafi1dkqp6insmnmqpiw,xJrZbh1h,2020-0188,2021-10-31,02:29:52,05:30:35,NA,incomplete,false,true,NA,NA,1,28,NA,black,m_s_111.jpg,NA,NA,NA,NA,NA,unpleasant,pleasant,NA,NA,NA,NA,NA,right,1726.70000004768,true,NA,NA,NA,NA,NA,NA,NA,NA
xJrZbh1h,3bakuke4akpi45n0y93n6zfn3q3r1f,3y5140z9d1tafi1dkqp6insmnmqpiw,xJrZbh1h,2020-0188,2021-10-31,02:29:52,05:30:35,NA,incomplete,false,true,NA,NA,1,29,NA,black,n_s_079.jpg,NA,NA,NA,NA,NA,pleasant,unpleasant,NA,NA,NA,NA,NA,right,1969.29999995232,true,NA,NA,NA,NA,NA,NA,NA,NA
xJrZbh1h,3bakuke4akpi45n0y93n6zfn3q3r1f,3y5140z9d1tafi1dkqp6insmnmqpiw,xJrZbh1h,2020-0188,2021-10-31,02:29:52,05:30:35,NA,incomplete,false,true,NA,NA,1,30,NA,purple,n_s_105.jpg,NA,NA,NA,NA,NA,unpleasant,pleasant,NA,NA,NA,NA,NA,left,1471.59999990463,true,NA,NA,NA,NA,NA,NA,NA,NA
xJrZbh1h,3bakuke4akpi45n0y93n6zfn3q3r1f,3y5140z9d1tafi1dkqp6insmnmqpiw,xJrZbh1h,2020-0188,2021-10-31,02:29:52,05:30:35,NA,incomplete,false,true,NA,NA,1,31,NA,purple,n_s_097.jpg,NA,NA,NA,NA,NA,pleasant,unpleasant,NA,NA,NA,NA,NA,left,1206.89999985695,true,NA,NA,NA,NA,NA,NA,NA,NA
xJrZbh1h,3bakuke4akpi45n0y93n6zfn3q3r1f,3y5140z9d1tafi1dkqp6insmnmqpiw,xJrZbh1h,2020-0188,2021-10-31,02:29:52,05:30:35,NA,incomplete,false,true,NA,NA,1,32,NA,purple,m_l_082.jpg,NA,NA,NA,NA,NA,pleasant,unpleasant,NA,NA,NA,NA,NA,right,1119.30000019073,true,NA,NA,NA,NA,NA,NA,NA,NA
xJrZbh1h,3bakuke4akpi45n0y93n6zfn3q3r1f,3y5140z9d1tafi1dkqp6insmnmqpiw,xJrZbh1h,2020-0188,2021-10-31,02:29:52,05:30:35,NA,incomplete,false,true,NA,NA,1,33,NA,purple,m_s_032.jpg,NA,NA,NA,NA,NA,pleasant,unpleasant,NA,NA,NA,NA,NA,left,1743.90000009537,true,NA,NA,NA,NA,NA,NA,NA,NA
xJrZbh1h,3bakuke4akpi45n0y93n6zfn3q3r1f,3y5140z9d1tafi1dkqp6insmnmqpiw,xJrZbh1h,2020-0188,2021-10-31,02:29:52,05:30:35,NA,incomplete,false,true,NA,NA,1,34,NA,purple,n_l_031.jpg,NA,NA,NA,NA,NA,unpleasant,pleasant,NA,NA,NA,NA,NA,left,1540.70000004768,true,NA,NA,NA,NA,NA,NA,NA,NA
xJrZbh1h,3bakuke4akpi45n0y93n6zfn3q3r1f,3y5140z9d1tafi1dkqp6insmnmqpiw,xJrZbh1h,2020-0188,2021-10-31,02:29:52,05:30:35,NA,incomplete,false,true,NA,NA,1,35,NA,purple,n_s_072.jpg,NA,NA,NA,NA,NA,unpleasant,pleasant,NA,NA,NA,NA,NA,right,2761,true,NA,NA,NA,NA,NA,NA,NA,NA
xJrZbh1h,3bakuke4akpi45n0y93n6zfn3q3r1f,3y5140z9d1tafi1dkqp6insmnmqpiw,xJrZbh1h,2020-0188,2021-10-31,02:29:52,05:30:35,NA,incomplete,false,NA,NA,true,1,0,NA,NA,NA,right,m_l_061.jpg,black,red,NA,NA,NA,NA,NA,NA,NA,NA,NA,NaN,NA,2825.4000000953674,right,1,NA,NA,NA,NA,NA
xJrZbh1h,3bakuke4akpi45n0y93n6zfn3q3r1f,3y5140z9d1tafi1dkqp6insmnmqpiw,xJrZbh1h,2020-0188,2021-10-31,02:29:52,05:30:35,NA,incomplete,false,NA,NA,true,1,1,NA,NA,NA,left,n_l_084.jpg,brown,red,NA,NA,NA,NA,NA,NA,NA,NA,NA,NaN,NA,4218.700000047684,left,1,NA,NA,NA,NA,NA
xJrZbh1h,3bakuke4akpi45n0y93n6zfn3q3r1f,3y5140z9d1tafi1dkqp6insmnmqpiw,xJrZbh1h,2020-0188,2021-10-31,02:29:52,05:30:35,NA,incomplete,false,NA,NA,true,1,2,NA,NA,NA,right,m_l_001.jpg,green,gray,NA,NA,NA,NA,NA,NA,NA,NA,NA,NaN,NA,3846.5999999046326,right,1,NA,NA,NA,NA,NA
xJrZbh1h,3bakuke4akpi45n0y93n6zfn3q3r1f,3y5140z9d1tafi1dkqp6insmnmqpiw,xJrZbh1h,2020-0188,2021-10-31,02:29:52,05:30:35,NA,incomplete,false,NA,NA,true,1,3,NA,NA,NA,right,n_s_072.jpg,black,purple,NA,NA,NA,NA,NA,NA,NA,NA,NA,NaN,NA,2211.7999999523163,right,1,NA,NA,NA,NA,NA
xJrZbh1h,3bakuke4akpi45n0y93n6zfn3q3r1f,3y5140z9d1tafi1dkqp6insmnmqpiw,xJrZbh1h,2020-0188,2021-10-31,02:29:52,05:30:35,NA,incomplete,false,NA,NA,true,1,4,NA,NA,NA,left,n_s_097.jpg,purple,black,NA,NA,NA,NA,NA,NA,NA,NA,NA,NaN,NA,3530.4000000953674,left,1,NA,NA,NA,NA,NA
xJrZbh1h,3bakuke4akpi45n0y93n6zfn3q3r1f,3y5140z9d1tafi1dkqp6insmnmqpiw,xJrZbh1h,2020-0188,2021-10-31,02:29:52,05:30:35,NA,incomplete,false,NA,NA,true,1,5,NA,NA,NA,right,n_s_012.jpg,green,gray,NA,NA,NA,NA,NA,NA,NA,NA,NA,NaN,NA,4107.099999904633,right,1,NA,NA,NA,NA,NA
xJrZbh1h,3bakuke4akpi45n0y93n6zfn3q3r1f,3y5140z9d1tafi1dkqp6insmnmqpiw,xJrZbh1h,2020-0188,2021-10-31,02:29:52,05:30:35,NA,incomplete,false,NA,NA,true,1,6,NA,NA,NA,left,m_l_007.jpg,red,brown,NA,NA,NA,NA,NA,NA,NA,NA,NA,NaN,NA,4270.399999856949,left,1,NA,NA,NA,NA,NA
xJrZbh1h,3bakuke4akpi45n0y93n6zfn3q3r1f,3y5140z9d1tafi1dkqp6insmnmqpiw,xJrZbh1h,2020-0188,2021-10-31,02:29:52,05:30:35,NA,incomplete,false,NA,NA,true,1,7,NA,NA,NA,right,m_s_111.jpg,red,black,NA,NA,NA,NA,NA,NA,NA,NA,NA,NaN,NA,5627.299999952316,right,1,NA,NA,NA,NA,NA
xJrZbh1h,3bakuke4akpi45n0y93n6zfn3q3r1f,3y5140z9d1tafi1dkqp6insmnmqpiw,xJrZbh1h,2020-0188,2021-10-31,02:29:52,05:30:35,NA,incomplete,false,NA,NA,true,1,8,NA,NA,NA,left,m_l_082.jpg,purple,black,NA,NA,NA,NA,NA,NA,NA,NA,NA,NaN,NA,2857.2999999523163,left,1,NA,NA,NA,NA,NA
xJrZbh1h,3bakuke4akpi45n0y93n6zfn3q3r1f,3y5140z9d1tafi1dkqp6insmnmqpiw,xJrZbh1h,2020-0188,2021-10-31,02:29:52,05:30:35,NA,incomplete,false,NA,NA,true,1,9,NA,NA,NA,left,n_s_079.jpg,black,purple,NA,NA,NA,NA,NA,NA,NA,NA,NA,NaN,NA,4094.0999999046326,left,1,NA,NA,NA,NA,NA
xJrZbh1h,3bakuke4akpi45n0y93n6zfn3q3r1f,3y5140z9d1tafi1dkqp6insmnmqpiw,xJrZbh1h,2020-0188,2021-10-31,02:29:52,05:30:35,NA,incomplete,false,NA,NA,true,1,10,NA,NA,NA,right,n_l_087.jpg,red,black,NA,NA,NA,NA,NA,NA,NA,NA,NA,NaN,NA,4379.900000095367,right,1,NA,NA,NA,NA,NA
xJrZbh1h,3bakuke4akpi45n0y93n6zfn3q3r1f,3y5140z9d1tafi1dkqp6insmnmqpiw,xJrZbh1h,2020-0188,2021-10-31,02:29:52,05:30:35,NA,incomplete,false,NA,NA,true,1,11,NA,NA,NA,left,m_s_115.jpg,red,brown,NA,NA,NA,NA,NA,NA,NA,NA,NA,NaN,NA,7307.700000047684,left,1,NA,NA,NA,NA,NA
xJrZbh1h,3bakuke4akpi45n0y93n6zfn3q3r1f,3y5140z9d1tafi1dkqp6insmnmqpiw,xJrZbh1h,2020-0188,2021-10-31,02:29:52,05:30:35,NA,incomplete,false,NA,NA,true,1,12,NA,NA,NA,right,n_l_015.jpg,red,brown,NA,NA,NA,NA,NA,NA,NA,NA,NA,NaN,NA,2911.2000000476837,right,1,NA,NA,NA,NA,NA
xJrZbh1h,3bakuke4akpi45n0y93n6zfn3q3r1f,3y5140z9d1tafi1dkqp6insmnmqpiw,xJrZbh1h,2020-0188,2021-10-31,02:29:52,05:30:35,NA,incomplete,false,NA,NA,true,1,13,NA,NA,NA,right,n_s_109.jpg,brown,green,NA,NA,NA,NA,NA,NA,NA,NA,NA,NaN,NA,4831.800000190735,right,1,NA,NA,NA,NA,NA
xJrZbh1h,3bakuke4akpi45n0y93n6zfn3q3r1f,3y5140z9d1tafi1dkqp6insmnmqpiw,xJrZbh1h,2020-0188,2021-10-31,02:29:52,05:30:35,NA,incomplete,false,NA,NA,true,1,14,NA,NA,NA,left,n_l_059.jpg,green,gray,NA,NA,NA,NA,NA,NA,NA,NA,NA,NaN,NA,4134.699999809265,left,1,NA,NA,NA,NA,NA
xJrZbh1h,3bakuke4akpi45n0y93n6zfn3q3r1f,3y5140z9d1tafi1dkqp6insmnmqpiw,xJrZbh1h,2020-0188,2021-10-31,02:29:52,05:30:35,NA,incomplete,false,NA,NA,true,1,15,NA,NA,NA,left,n_l_065.jpg,brown,green,NA,NA,NA,NA,NA,NA,NA,NA,NA,NaN,NA,3234.9000000953674,left,1,NA,NA,NA,NA,NA
xJrZbh1h,3bakuke4akpi45n0y93n6zfn3q3r1f,3y5140z9d1tafi1dkqp6insmnmqpiw,xJrZbh1h,2020-0188,2021-10-31,02:29:52,05:30:35,NA,incomplete,false,NA,NA,true,1,16,NA,NA,NA,right,m_l_105.jpg,gray,green,NA,NA,NA,NA,NA,NA,NA,NA,NA,NaN,NA,6558.799999952316,right,1,NA,NA,NA,NA,NA
xJrZbh1h,3bakuke4akpi45n0y93n6zfn3q3r1f,3y5140z9d1tafi1dkqp6insmnmqpiw,xJrZbh1h,2020-0188,2021-10-31,02:29:52,05:30:35,NA,incomplete,false,NA,NA,true,1,17,NA,NA,NA,left,m_l_089.jpg,black,red,NA,NA,NA,NA,NA,NA,NA,NA,NA,NaN,NA,6687.200000047684,left,1,NA,NA,NA,NA,NA
xJrZbh1h,3bakuke4akpi45n0y93n6zfn3q3r1f,3y5140z9d1tafi1dkqp6insmnmqpiw,xJrZbh1h,2020-0188,2021-10-31,02:29:52,05:30:35,NA,incomplete,false,NA,NA,true,1,18,NA,NA,NA,right,n_l_103.jpg,brown,green,NA,NA,NA,NA,NA,NA,NA,NA,NA,NaN,NA,3160.7999999523163,right,1,NA,NA,NA,NA,NA
xJrZbh1h,3bakuke4akpi45n0y93n6zfn3q3r1f,3y5140z9d1tafi1dkqp6insmnmqpiw,xJrZbh1h,2020-0188,2021-10-31,02:29:52,05:30:35,NA,incomplete,false,NA,NA,true,1,19,NA,NA,NA,left,m_s_006.jpg,gray,green,NA,NA,NA,NA,NA,NA,NA,NA,NA,NaN,NA,9062.899999856949,left,1,NA,NA,NA,NA,NA
xJrZbh1h,3bakuke4akpi45n0y93n6zfn3q3r1f,3y5140z9d1tafi1dkqp6insmnmqpiw,xJrZbh1h,2020-0188,2021-10-31,02:29:52,05:30:35,NA,incomplete,false,NA,NA,true,1,20,NA,NA,NA,right,m_l_055.jpg,brown,red,NA,NA,NA,NA,NA,NA,NA,NA,NA,NaN,NA,3309,right,1,NA,NA,NA,NA,NA
xJrZbh1h,3bakuke4akpi45n0y93n6zfn3q3r1f,3y5140z9d1tafi1dkqp6insmnmqpiw,xJrZbh1h,2020-0188,2021-10-31,02:29:52,05:30:35,NA,incomplete,false,NA,NA,true,1,21,NA,NA,NA,right,n_l_097.jpg,red,brown,NA,NA,NA,NA,NA,NA,NA,NA,NA,NaN,NA,2664.5,right,1,NA,NA,NA,NA,NA
xJrZbh1h,3bakuke4akpi45n0y93n6zfn3q3r1f,3y5140z9d1tafi1dkqp6insmnmqpiw,xJrZbh1h,2020-0188,2021-10-31,02:29:52,05:30:35,NA,incomplete,false,NA,true,NA,1,0,NA,NA,NA,left,NA,NA,NA,present,NA,NA,n_l_059.jpg,green,m_l_105.jpg,green,within,NA,NaN,NA,NA,NA,NA,left,4409,1,2,5305.799999952316
xJrZbh1h,3bakuke4akpi45n0y93n6zfn3q3r1f,3y5140z9d1tafi1dkqp6insmnmqpiw,xJrZbh1h,2020-0188,2021-10-31,02:29:52,05:30:35,NA,incomplete,false,NA,true,NA,1,1,NA,NA,NA,right,NA,NA,NA,present,NA,NA,n_s_109.jpg,green,m_s_006.jpg,gray,between,NA,NaN,NA,NA,NA,NA,right,6534.5,1,1,10171.099999904633
xJrZbh1h,3bakuke4akpi45n0y93n6zfn3q3r1f,3y5140z9d1tafi1dkqp6insmnmqpiw,xJrZbh1h,2020-0188,2021-10-31,02:29:52,05:30:35,NA,incomplete,false,NA,true,NA,1,2,NA,NA,NA,left,NA,NA,NA,present,NA,NA,n_l_065.jpg,brown,m_l_055.jpg,red,between,NA,NaN,NA,NA,NA,NA,left,6460.200000047684,1,2,2734.2000000476837
xJrZbh1h,3bakuke4akpi45n0y93n6zfn3q3r1f,3y5140z9d1tafi1dkqp6insmnmqpiw,xJrZbh1h,2020-0188,2021-10-31,02:29:52,05:30:35,NA,incomplete,false,NA,true,NA,1,3,NA,NA,NA,right,NA,NA,NA,present,NA,NA,n_s_012.jpg,gray,m_l_001.jpg,gray,within,NA,NaN,NA,NA,NA,NA,right,7108.700000047684,1,0,3432.4000000953674
xJrZbh1h,3bakuke4akpi45n0y93n6zfn3q3r1f,3y5140z9d1tafi1dkqp6insmnmqpiw,xJrZbh1h,2020-0188,2021-10-31,02:29:52,05:30:35,NA,incomplete,false,NA,true,NA,1,4,NA,NA,NA,left,NA,NA,NA,present,NA,NA,n_l_103.jpg,green,n_l_084.jpg,brown,between,NA,NaN,NA,NA,NA,NA,right,12774,0,3,3834.2000000476837
xJrZbh1h,3bakuke4akpi45n0y93n6zfn3q3r1f,3y5140z9d1tafi1dkqp6insmnmqpiw,xJrZbh1h,2020-0188,2021-10-31,02:29:52,05:30:35,NA,incomplete,false,NA,true,NA,1,5,NA,NA,NA,left,NA,NA,NA,present,NA,NA,m_l_007.jpg,red,m_l_089.jpg,black,between,NA,NaN,NA,NA,NA,NA,left,4818.099999904633,1,2,4891.699999809265
xJrZbh1h,3bakuke4akpi45n0y93n6zfn3q3r1f,3y5140z9d1tafi1dkqp6insmnmqpiw,xJrZbh1h,2020-0188,2021-10-31,02:29:52,05:30:35,NA,incomplete,false,NA,true,NA,1,6,NA,NA,NA,left,NA,NA,NA,present,NA,NA,n_l_015.jpg,brown,n_l_097.jpg,brown,within,NA,NaN,NA,NA,NA,NA,left,3867.399999856949,1,0,4565.799999952316
xJrZbh1h,3bakuke4akpi45n0y93n6zfn3q3r1f,3y5140z9d1tafi1dkqp6insmnmqpiw,xJrZbh1h,2020-0188,2021-10-31,02:29:52,05:30:35,NA,incomplete,false,NA,true,NA,1,7,NA,NA,NA,left,NA,NA,NA,present,NA,NA,m_s_115.jpg,red,m_l_061.jpg,red,within,NA,NaN,NA,NA,NA,NA,left,3209.0999999046326,1,0,2214
xJrZbh1h,3bakuke4akpi45n0y93n6zfn3q3r1f,3y5140z9d1tafi1dkqp6insmnmqpiw,xJrZbh1h,2020-0188,2021-10-31,02:29:52,05:30:35,NA,incomplete,false,NA,true,NA,1,8,NA,NA,NA,left,NA,NA,NA,present,NA,NA,m_s_111.jpg,black,m_l_082.jpg,purple,between,NA,NaN,NA,NA,NA,NA,right,8466.700000047684,0,2,1939.7000000476837
xJrZbh1h,3bakuke4akpi45n0y93n6zfn3q3r1f,3y5140z9d1tafi1dkqp6insmnmqpiw,xJrZbh1h,2020-0188,2021-10-31,02:29:52,05:30:35,NA,incomplete,false,NA,true,NA,1,9,NA,NA,NA,left,NA,NA,NA,present,NA,NA,n_l_087.jpg,black,n_s_079.jpg,black,within,NA,NaN,NA,NA,NA,NA,left,5650.400000095367,1,0,2363.7000000476837
xJrZbh1h,3bakuke4akpi45n0y93n6zfn3q3r1f,3y5140z9d1tafi1dkqp6insmnmqpiw,xJrZbh1h,2020-0188,2021-10-31,02:29:52,05:30:35,NA,incomplete,false,NA,true,NA,1,10,NA,NA,NA,right,NA,NA,NA,present,NA,NA,n_s_072.jpg,purple,n_s_097.jpg,purple,within,NA,NaN,NA,NA,NA,NA,left,4121.100000143051,0,2,4095.0999999046326
xJrZbh1h,3bakuke4akpi45n0y93n6zfn3q3r1f,3y5140z9d1tafi1dkqp6insmnmqpiw,xJrZbh1h,2020-0188,2021-10-31,02:29:52,05:30:35,NA,incomplete,false,true,NA,NA,2,0,NA,yellow,m_l_087.jpg,NA,NA,NA,NA,NA,unpleasant,pleasant,NA,NA,NA,NA,NA,left,2422,true,NA,NA,NA,NA,NA,NA,NA,NA
xJrZbh1h,3bakuke4akpi45n0y93n6zfn3q3r1f,3y5140z9d1tafi1dkqp6insmnmqpiw,xJrZbh1h,2020-0188,2021-10-31,02:29:52,05:30:35,NA,incomplete,false,true,NA,NA,2,1,NA,yellow,m_l_036.jpg,NA,NA,NA,NA,NA,pleasant,unpleasant,NA,NA,NA,NA,NA,left,1434.40000009537,true,NA,NA,NA,NA,NA,NA,NA,NA
xJrZbh1h,3bakuke4akpi45n0y93n6zfn3q3r1f,3y5140z9d1tafi1dkqp6insmnmqpiw,xJrZbh1h,2020-0188,2021-10-31,02:29:52,05:30:35,NA,incomplete,false,true,NA,NA,2,2,NA,yellow,n_l_032.jpg,NA,NA,NA,NA,NA,unpleasant,pleasant,NA,NA,NA,NA,NA,left,2411.59999990463,true,NA,NA,NA,NA,NA,NA,NA,NA
xJrZbh1h,3bakuke4akpi45n0y93n6zfn3q3r1f,3y5140z9d1tafi1dkqp6insmnmqpiw,xJrZbh1h,2020-0188,2021-10-31,02:29:52,05:30:35,NA,incomplete,false,true,NA,NA,2,3,NA,yellow,m_l_031.jpg,NA,NA,NA,NA,NA,unpleasant,pleasant,NA,NA,NA,NA,NA,right,1377.70000004768,true,NA,NA,NA,NA,NA,NA,NA,NA
xJrZbh1h,3bakuke4akpi45n0y93n6zfn3q3r1f,3y5140z9d1tafi1dkqp6insmnmqpiw,xJrZbh1h,2020-0188,2021-10-31,02:29:52,05:30:35,NA,incomplete,false,true,NA,NA,2,4,NA,yellow,n_s_005.jpg,NA,NA,NA,NA,NA,unpleasant,pleasant,NA,NA,NA,NA,NA,left,1432.60000014305,true,NA,NA,NA,NA,NA,NA,NA,NA
xJrZbh1h,3bakuke4akpi45n0y93n6zfn3q3r1f,3y5140z9d1tafi1dkqp6insmnmqpiw,xJrZbh1h,2020-0188,2021-10-31,02:29:52,05:30:35,NA,incomplete,false,true,NA,NA,2,5,NA,yellow,n_l_022.jpg,NA,NA,NA,NA,NA,pleasant,unpleasant,NA,NA,NA,NA,NA,right,1430.20000004768,true,NA,NA,NA,NA,NA,NA,NA,NA
xJrZbh1h,3bakuke4akpi45n0y93n6zfn3q3r1f,3y5140z9d1tafi1dkqp6insmnmqpiw,xJrZbh1h,2020-0188,2021-10-31,02:29:52,05:30:35,NA,incomplete,false,true,NA,NA,2,6,NA,green,m_s_031.jpg,NA,NA,NA,NA,NA,unpleasant,pleasant,NA,NA,NA,NA,NA,right,2100.10000014305,true,NA,NA,NA,NA,NA,NA,NA,NA
xJrZbh1h,3bakuke4akpi45n0y93n6zfn3q3r1f,3y5140z9d1tafi1dkqp6insmnmqpiw,xJrZbh1h,2020-0188,2021-10-31,02:29:52,05:30:35,NA,incomplete,false,true,NA,NA,2,7,NA,green,n_s_044.jpg,NA,NA,NA,NA,NA,pleasant,unpleasant,NA,NA,NA,NA,NA,right,1764.5,true,NA,NA,NA,NA,NA,NA,NA,NA
xJrZbh1h,3bakuke4akpi45n0y93n6zfn3q3r1f,3y5140z9d1tafi1dkqp6insmnmqpiw,xJrZbh1h,2020-0188,2021-10-31,02:29:52,05:30:35,NA,incomplete,false,true,NA,NA,2,8,NA,green,m_l_039.jpg,NA,NA,NA,NA,NA,unpleasant,pleasant,NA,NA,NA,NA,NA,right,964.600000143051,true,NA,NA,NA,NA,NA,NA,NA,NA
xJrZbh1h,3bakuke4akpi45n0y93n6zfn3q3r1f,3y5140z9d1tafi1dkqp6insmnmqpiw,xJrZbh1h,2020-0188,2021-10-31,02:29:52,05:30:35,NA,incomplete,false,true,NA,NA,2,9,NA,green,m_s_057.jpg,NA,NA,NA,NA,NA,unpleasant,pleasant,NA,NA,NA,NA,NA,right,1580.70000004768,true,NA,NA,NA,NA,NA,NA,NA,NA
xJrZbh1h,3bakuke4akpi45n0y93n6zfn3q3r1f,3y5140z9d1tafi1dkqp6insmnmqpiw,xJrZbh1h,2020-0188,2021-10-31,02:29:52,05:30:35,NA,incomplete,false,true,NA,NA,2,10,NA,green,m_s_049.jpg,NA,NA,NA,NA,NA,unpleasant,pleasant,NA,NA,NA,NA,NA,left,2164.40000009537,true,NA,NA,NA,NA,NA,NA,NA,NA
xJrZbh1h,3bakuke4akpi45n0y93n6zfn3q3r1f,3y5140z9d1tafi1dkqp6insmnmqpiw,xJrZbh1h,2020-0188,2021-10-31,02:29:52,05:30:35,NA,incomplete,false,true,NA,NA,2,11,NA,green,n_s_113.jpg,NA,NA,NA,NA,NA,unpleasant,pleasant,NA,NA,NA,NA,NA,right,828.700000047684,true,NA,NA,NA,NA,NA,NA,NA,NA
xJrZbh1h,3bakuke4akpi45n0y93n6zfn3q3r1f,3y5140z9d1tafi1dkqp6insmnmqpiw,xJrZbh1h,2020-0188,2021-10-31,02:29:52,05:30:35,NA,incomplete,false,true,NA,NA,2,12,NA,black,n_s_103.jpg,NA,NA,NA,NA,NA,unpleasant,pleasant,NA,NA,NA,NA,NA,right,1404.79999995232,true,NA,NA,NA,NA,NA,NA,NA,NA
xJrZbh1h,3bakuke4akpi45n0y93n6zfn3q3r1f,3y5140z9d1tafi1dkqp6insmnmqpiw,xJrZbh1h,2020-0188,2021-10-31,02:29:52,05:30:35,NA,incomplete,false,true,NA,NA,2,13,NA,black,m_s_061.jpg,NA,NA,NA,NA,NA,pleasant,unpleasant,NA,NA,NA,NA,NA,left,1469.59999990463,true,NA,NA,NA,NA,NA,NA,NA,NA
xJrZbh1h,3bakuke4akpi45n0y93n6zfn3q3r1f,3y5140z9d1tafi1dkqp6insmnmqpiw,xJrZbh1h,2020-0188,2021-10-31,02:29:52,05:30:35,NA,incomplete,false,true,NA,NA,2,14,NA,black,m_s_091.jpg,NA,NA,NA,NA,NA,unpleasant,pleasant,NA,NA,NA,NA,NA,right,1139.5,true,NA,NA,NA,NA,NA,NA,NA,NA
xJrZbh1h,3bakuke4akpi45n0y93n6zfn3q3r1f,3y5140z9d1tafi1dkqp6insmnmqpiw,xJrZbh1h,2020-0188,2021-10-31,02:29:52,05:30:35,NA,incomplete,false,true,NA,NA,2,15,NA,black,m_l_093.jpg,NA,NA,NA,NA,NA,pleasant,unpleasant,NA,NA,NA,NA,NA,right,1693.39999985695,true,NA,NA,NA,NA,NA,NA,NA,NA
xJrZbh1h,3bakuke4akpi45n0y93n6zfn3q3r1f,3y5140z9d1tafi1dkqp6insmnmqpiw,xJrZbh1h,2020-0188,2021-10-31,02:29:52,05:30:35,NA,incomplete,false,true,NA,NA,2,16,NA,black,n_s_067.jpg,NA,NA,NA,NA,NA,pleasant,unpleasant,NA,NA,NA,NA,NA,left,2711.40000009537,true,NA,NA,NA,NA,NA,NA,NA,NA
xJrZbh1h,3bakuke4akpi45n0y93n6zfn3q3r1f,3y5140z9d1tafi1dkqp6insmnmqpiw,xJrZbh1h,2020-0188,2021-10-31,02:29:52,05:30:35,NA,incomplete,false,true,NA,NA,2,17,NA,black,n_s_036.jpg,NA,NA,NA,NA,NA,pleasant,unpleasant,NA,NA,NA,NA,NA,right,1267.5,true,NA,NA,NA,NA,NA,NA,NA,NA
xJrZbh1h,3bakuke4akpi45n0y93n6zfn3q3r1f,3y5140z9d1tafi1dkqp6insmnmqpiw,xJrZbh1h,2020-0188,2021-10-31,02:29:52,05:30:35,NA,incomplete,false,true,NA,NA,2,18,NA,blue,n_l_017.jpg,NA,NA,NA,NA,NA,unpleasant,pleasant,NA,NA,NA,NA,NA,left,1876.20000004768,true,NA,NA,NA,NA,NA,NA,NA,NA
xJrZbh1h,3bakuke4akpi45n0y93n6zfn3q3r1f,3y5140z9d1tafi1dkqp6insmnmqpiw,xJrZbh1h,2020-0188,2021-10-31,02:29:52,05:30:35,NA,incomplete,false,true,NA,NA,2,19,NA,blue,n_l_111.jpg,NA,NA,NA,NA,NA,unpleasant,pleasant,NA,NA,NA,NA,NA,right,1000.5,true,NA,NA,NA,NA,NA,NA,NA,NA
xJrZbh1h,3bakuke4akpi45n0y93n6zfn3q3r1f,3y5140z9d1tafi1dkqp6insmnmqpiw,xJrZbh1h,2020-0188,2021-10-31,02:29:52,05:30:35,NA,incomplete,false,true,NA,NA,2,20,NA,blue,n_s_102.jpg,NA,NA,NA,NA,NA,unpleasant,pleasant,NA,NA,NA,NA,NA,right,998.900000095367,true,NA,NA,NA,NA,NA,NA,NA,NA
xJrZbh1h,3bakuke4akpi45n0y93n6zfn3q3r1f,3y5140z9d1tafi1dkqp6insmnmqpiw,xJrZbh1h,2020-0188,2021-10-31,02:29:52,05:30:35,NA,incomplete,false,true,NA,NA,2,21,NA,blue,n_l_025.jpg,NA,NA,NA,NA,NA,pleasant,unpleasant,NA,NA,NA,NA,NA,left,1133.39999985695,true,NA,NA,NA,NA,NA,NA,NA,NA
xJrZbh1h,3bakuke4akpi45n0y93n6zfn3q3r1f,3y5140z9d1tafi1dkqp6insmnmqpiw,xJrZbh1h,2020-0188,2021-10-31,02:29:52,05:30:35,NA,incomplete,false,true,NA,NA,2,22,NA,blue,n_s_050.jpg,NA,NA,NA,NA,NA,pleasant,unpleasant,NA,NA,NA,NA,NA,left,2255.20000004768,true,NA,NA,NA,NA,NA,NA,NA,NA
xJrZbh1h,3bakuke4akpi45n0y93n6zfn3q3r1f,3y5140z9d1tafi1dkqp6insmnmqpiw,xJrZbh1h,2020-0188,2021-10-31,02:29:52,05:30:35,NA,incomplete,false,true,NA,NA,2,23,NA,blue,m_s_043.jpg,NA,NA,NA,NA,NA,unpleasant,pleasant,NA,NA,NA,NA,NA,left,2700.5,true,NA,NA,NA,NA,NA,NA,NA,NA
xJrZbh1h,3bakuke4akpi45n0y93n6zfn3q3r1f,3y5140z9d1tafi1dkqp6insmnmqpiw,xJrZbh1h,2020-0188,2021-10-31,02:29:52,05:30:35,NA,incomplete,false,true,NA,NA,2,24,NA,purple,n_l_024.jpg,NA,NA,NA,NA,NA,unpleasant,pleasant,NA,NA,NA,NA,NA,left,1421.5,true,NA,NA,NA,NA,NA,NA,NA,NA
xJrZbh1h,3bakuke4akpi45n0y93n6zfn3q3r1f,3y5140z9d1tafi1dkqp6insmnmqpiw,xJrZbh1h,2020-0188,2021-10-31,02:29:52,05:30:35,NA,incomplete,false,true,NA,NA,2,25,NA,purple,n_l_018.jpg,NA,NA,NA,NA,NA,unpleasant,pleasant,NA,NA,NA,NA,NA,left,1153.20000004768,true,NA,NA,NA,NA,NA,NA,NA,NA
xJrZbh1h,3bakuke4akpi45n0y93n6zfn3q3r1f,3y5140z9d1tafi1dkqp6insmnmqpiw,xJrZbh1h,2020-0188,2021-10-31,02:29:52,05:30:35,NA,incomplete,false,true,NA,NA,2,26,NA,purple,n_l_008.jpg,NA,NA,NA,NA,NA,unpleasant,pleasant,NA,NA,NA,NA,NA,left,915.5,true,NA,NA,NA,NA,NA,NA,NA,NA
xJrZbh1h,3bakuke4akpi45n0y93n6zfn3q3r1f,3y5140z9d1tafi1dkqp6insmnmqpiw,xJrZbh1h,2020-0188,2021-10-31,02:29:52,05:30:35,NA,incomplete,false,true,NA,NA,2,27,NA,purple,m_s_041.jpg,NA,NA,NA,NA,NA,unpleasant,pleasant,NA,NA,NA,NA,NA,left,1290.80000019073,true,NA,NA,NA,NA,NA,NA,NA,NA
xJrZbh1h,3bakuke4akpi45n0y93n6zfn3q3r1f,3y5140z9d1tafi1dkqp6insmnmqpiw,xJrZbh1h,2020-0188,2021-10-31,02:29:52,05:30:35,NA,incomplete,false,true,NA,NA,2,28,NA,purple,m_l_078.jpg,NA,NA,NA,NA,NA,unpleasant,pleasant,NA,NA,NA,NA,NA,right,1898.70000004768,true,NA,NA,NA,NA,NA,NA,NA,NA
xJrZbh1h,3bakuke4akpi45n0y93n6zfn3q3r1f,3y5140z9d1tafi1dkqp6insmnmqpiw,xJrZbh1h,2020-0188,2021-10-31,02:29:52,05:30:35,NA,incomplete,false,true,NA,NA,2,29,NA,purple,n_l_038.jpg,NA,NA,NA,NA,NA,pleasant,unpleasant,NA,NA,NA,NA,NA,left,1904.5,true,NA,NA,NA,NA,NA,NA,NA,NA
xJrZbh1h,3bakuke4akpi45n0y93n6zfn3q3r1f,3y5140z9d1tafi1dkqp6insmnmqpiw,xJrZbh1h,2020-0188,2021-10-31,02:29:52,05:30:35,NA,incomplete,false,true,NA,NA,2,30,NA,red,m_s_029.jpg,NA,NA,NA,NA,NA,unpleasant,pleasant,NA,NA,NA,NA,NA,right,1976.79999995232,true,NA,NA,NA,NA,NA,NA,NA,NA
xJrZbh1h,3bakuke4akpi45n0y93n6zfn3q3r1f,3y5140z9d1tafi1dkqp6insmnmqpiw,xJrZbh1h,2020-0188,2021-10-31,02:29:52,05:30:35,NA,incomplete,false,true,NA,NA,2,31,NA,red,m_s_072.jpg,NA,NA,NA,NA,NA,pleasant,unpleasant,NA,NA,NA,NA,NA,right,2002.20000004768,true,NA,NA,NA,NA,NA,NA,NA,NA
xJrZbh1h,3bakuke4akpi45n0y93n6zfn3q3r1f,3y5140z9d1tafi1dkqp6insmnmqpiw,xJrZbh1h,2020-0188,2021-10-31,02:29:52,05:30:35,NA,incomplete,false,true,NA,NA,2,32,NA,red,m_s_106.jpg,NA,NA,NA,NA,NA,pleasant,unpleasant,NA,NA,NA,NA,NA,left,2630,true,NA,NA,NA,NA,NA,NA,NA,NA
xJrZbh1h,3bakuke4akpi45n0y93n6zfn3q3r1f,3y5140z9d1tafi1dkqp6insmnmqpiw,xJrZbh1h,2020-0188,2021-10-31,02:29:52,05:30:35,NA,incomplete,false,true,NA,NA,2,33,NA,red,n_s_068.jpg,NA,NA,NA,NA,NA,unpleasant,pleasant,NA,NA,NA,NA,NA,right,968.900000095367,true,NA,NA,NA,NA,NA,NA,NA,NA
xJrZbh1h,3bakuke4akpi45n0y93n6zfn3q3r1f,3y5140z9d1tafi1dkqp6insmnmqpiw,xJrZbh1h,2020-0188,2021-10-31,02:29:52,05:30:35,NA,incomplete,false,true,NA,NA,2,34,NA,red,m_s_054.jpg,NA,NA,NA,NA,NA,pleasant,unpleasant,NA,NA,NA,NA,NA,left,1293.89999985695,true,NA,NA,NA,NA,NA,NA,NA,NA
xJrZbh1h,3bakuke4akpi45n0y93n6zfn3q3r1f,3y5140z9d1tafi1dkqp6insmnmqpiw,xJrZbh1h,2020-0188,2021-10-31,02:29:52,05:30:35,NA,incomplete,false,true,NA,NA,2,35,NA,red,m_l_040.jpg,NA,NA,NA,NA,NA,pleasant,unpleasant,NA,NA,NA,NA,NA,right,1090.29999995232,true,NA,NA,NA,NA,NA,NA,NA,NA
xJrZbh1h,3bakuke4akpi45n0y93n6zfn3q3r1f,3y5140z9d1tafi1dkqp6insmnmqpiw,xJrZbh1h,2020-0188,2021-10-31,02:29:52,05:30:35,NA,incomplete,false,NA,NA,true,2,0,NA,NA,NA,left,m_l_036.jpg,yellow,green,NA,NA,NA,NA,NA,NA,NA,NA,NA,NaN,NA,1934.0999999046326,left,1,NA,NA,NA,NA,NA
xJrZbh1h,3bakuke4akpi45n0y93n6zfn3q3r1f,3y5140z9d1tafi1dkqp6insmnmqpiw,xJrZbh1h,2020-0188,2021-10-31,02:29:52,05:30:35,NA,incomplete,false,NA,NA,true,2,1,NA,NA,NA,right,m_s_043.jpg,purple,blue,NA,NA,NA,NA,NA,NA,NA,NA,NA,NaN,NA,4146.200000047684,right,1,NA,NA,NA,NA,NA
xJrZbh1h,3bakuke4akpi45n0y93n6zfn3q3r1f,3y5140z9d1tafi1dkqp6insmnmqpiw,xJrZbh1h,2020-0188,2021-10-31,02:29:52,05:30:35,NA,incomplete,false,NA,NA,true,2,2,NA,NA,NA,left,n_s_113.jpg,green,yellow,NA,NA,NA,NA,NA,NA,NA,NA,NA,NaN,NA,5111,left,1,NA,NA,NA,NA,NA
xJrZbh1h,3bakuke4akpi45n0y93n6zfn3q3r1f,3y5140z9d1tafi1dkqp6insmnmqpiw,xJrZbh1h,2020-0188,2021-10-31,02:29:52,05:30:35,NA,incomplete,false,NA,NA,true,2,3,NA,NA,NA,right,m_s_106.jpg,purple,red,NA,NA,NA,NA,NA,NA,NA,NA,NA,NaN,NA,2952.5,right,1,NA,NA,NA,NA,NA
xJrZbh1h,3bakuke4akpi45n0y93n6zfn3q3r1f,3y5140z9d1tafi1dkqp6insmnmqpiw,xJrZbh1h,2020-0188,2021-10-31,02:29:52,05:30:35,NA,incomplete,false,NA,NA,true,2,4,NA,NA,NA,left,n_s_036.jpg,black,green,NA,NA,NA,NA,NA,NA,NA,NA,NA,NaN,NA,3781.5999999046326,left,1,NA,NA,NA,NA,NA
xJrZbh1h,3bakuke4akpi45n0y93n6zfn3q3r1f,3y5140z9d1tafi1dkqp6insmnmqpiw,xJrZbh1h,2020-0188,2021-10-31,02:29:52,05:30:35,NA,incomplete,false,NA,NA,true,2,5,NA,NA,NA,left,n_s_050.jpg,blue,purple,NA,NA,NA,NA,NA,NA,NA,NA,NA,NaN,NA,3553.0999999046326,left,1,NA,NA,NA,NA,NA
xJrZbh1h,3bakuke4akpi45n0y93n6zfn3q3r1f,3y5140z9d1tafi1dkqp6insmnmqpiw,xJrZbh1h,2020-0188,2021-10-31,02:29:52,05:30:35,NA,incomplete,false,NA,NA,true,2,6,NA,NA,NA,right,m_s_049.jpg,yellow,green,NA,NA,NA,NA,NA,NA,NA,NA,NA,NaN,NA,3674.5,right,1,NA,NA,NA,NA,NA
xJrZbh1h,3bakuke4akpi45n0y93n6zfn3q3r1f,3y5140z9d1tafi1dkqp6insmnmqpiw,xJrZbh1h,2020-0188,2021-10-31,02:29:52,05:30:35,NA,incomplete,false,NA,NA,true,2,7,NA,NA,NA,left,m_s_061.jpg,black,green,NA,NA,NA,NA,NA,NA,NA,NA,NA,NaN,NA,3343,left,1,NA,NA,NA,NA,NA
xJrZbh1h,3bakuke4akpi45n0y93n6zfn3q3r1f,3y5140z9d1tafi1dkqp6insmnmqpiw,xJrZbh1h,2020-0188,2021-10-31,02:29:52,05:30:35,NA,incomplete,false,NA,NA,true,2,8,NA,NA,NA,right,n_s_044.jpg,yellow,green,NA,NA,NA,NA,NA,NA,NA,NA,NA,NaN,NA,5645.100000143051,right,1,NA,NA,NA,NA,NA
xJrZbh1h,3bakuke4akpi45n0y93n6zfn3q3r1f,3y5140z9d1tafi1dkqp6insmnmqpiw,xJrZbh1h,2020-0188,2021-10-31,02:29:52,05:30:35,NA,incomplete,false,NA,NA,true,2,9,NA,NA,NA,left,m_l_078.jpg,purple,red,NA,NA,NA,NA,NA,NA,NA,NA,NA,NaN,NA,3450.4000000953674,right,0,NA,NA,NA,NA,NA
xJrZbh1h,3bakuke4akpi45n0y93n6zfn3q3r1f,3y5140z9d1tafi1dkqp6insmnmqpiw,xJrZbh1h,2020-0188,2021-10-31,02:29:52,05:30:35,NA,incomplete,false,NA,NA,true,2,10,NA,NA,NA,left,m_l_039.jpg,green,yellow,NA,NA,NA,NA,NA,NA,NA,NA,NA,NaN,NA,4637.900000095367,left,1,NA,NA,NA,NA,NA
xJrZbh1h,3bakuke4akpi45n0y93n6zfn3q3r1f,3y5140z9d1tafi1dkqp6insmnmqpiw,xJrZbh1h,2020-0188,2021-10-31,02:29:52,05:30:35,NA,incomplete,false,NA,NA,true,2,11,NA,NA,NA,right,n_s_102.jpg,black,blue,NA,NA,NA,NA,NA,NA,NA,NA,NA,NaN,NA,3262.7999999523163,right,1,NA,NA,NA,NA,NA
xJrZbh1h,3bakuke4akpi45n0y93n6zfn3q3r1f,3y5140z9d1tafi1dkqp6insmnmqpiw,xJrZbh1h,2020-0188,2021-10-31,02:29:52,05:30:35,NA,incomplete,false,NA,NA,true,2,12,NA,NA,NA,right,n_l_111.jpg,black,blue,NA,NA,NA,NA,NA,NA,NA,NA,NA,NaN,NA,1803.7000000476837,right,1,NA,NA,NA,NA,NA
xJrZbh1h,3bakuke4akpi45n0y93n6zfn3q3r1f,3y5140z9d1tafi1dkqp6insmnmqpiw,xJrZbh1h,2020-0188,2021-10-31,02:29:52,05:30:35,NA,incomplete,false,NA,NA,true,2,13,NA,NA,NA,right,n_l_008.jpg,blue,purple,NA,NA,NA,NA,NA,NA,NA,NA,NA,NaN,NA,2464.2000000476837,right,1,NA,NA,NA,NA,NA
xJrZbh1h,3bakuke4akpi45n0y93n6zfn3q3r1f,3y5140z9d1tafi1dkqp6insmnmqpiw,xJrZbh1h,2020-0188,2021-10-31,02:29:52,05:30:35,NA,incomplete,false,NA,NA,true,2,14,NA,NA,NA,left,n_l_022.jpg,yellow,green,NA,NA,NA,NA,NA,NA,NA,NA,NA,NaN,NA,3869.5999999046326,left,1,NA,NA,NA,NA,NA
xJrZbh1h,3bakuke4akpi45n0y93n6zfn3q3r1f,3y5140z9d1tafi1dkqp6insmnmqpiw,xJrZbh1h,2020-0188,2021-10-31,02:29:52,05:30:35,NA,incomplete,false,NA,NA,true,2,15,NA,NA,NA,left,m_s_091.jpg,black,blue,NA,NA,NA,NA,NA,NA,NA,NA,NA,NaN,NA,4655.700000047684,left,1,NA,NA,NA,NA,NA
xJrZbh1h,3bakuke4akpi45n0y93n6zfn3q3r1f,3y5140z9d1tafi1dkqp6insmnmqpiw,xJrZbh1h,2020-0188,2021-10-31,02:29:52,05:30:35,NA,incomplete,false,NA,NA,true,2,16,NA,NA,NA,right,n_s_005.jpg,green,yellow,NA,NA,NA,NA,NA,NA,NA,NA,NA,NaN,NA,2061.7999999523163,right,1,NA,NA,NA,NA,NA
xJrZbh1h,3bakuke4akpi45n0y93n6zfn3q3r1f,3y5140z9d1tafi1dkqp6insmnmqpiw,xJrZbh1h,2020-0188,2021-10-31,02:29:52,05:30:35,NA,incomplete,false,NA,NA,true,2,17,NA,NA,NA,left,n_l_018.jpg,purple,red,NA,NA,NA,NA,NA,NA,NA,NA,NA,NaN,NA,2256.399999856949,left,1,NA,NA,NA,NA,NA
xJrZbh1h,3bakuke4akpi45n0y93n6zfn3q3r1f,3y5140z9d1tafi1dkqp6insmnmqpiw,xJrZbh1h,2020-0188,2021-10-31,02:29:52,05:30:35,NA,incomplete,false,NA,NA,true,2,18,NA,NA,NA,left,m_l_040.jpg,red,purple,NA,NA,NA,NA,NA,NA,NA,NA,NA,NaN,NA,1751.7000000476837,left,1,NA,NA,NA,NA,NA
xJrZbh1h,3bakuke4akpi45n0y93n6zfn3q3r1f,3y5140z9d1tafi1dkqp6insmnmqpiw,xJrZbh1h,2020-0188,2021-10-31,02:29:52,05:30:35,NA,incomplete,false,NA,NA,true,2,19,NA,NA,NA,left,n_l_038.jpg,purple,red,NA,NA,NA,NA,NA,NA,NA,NA,NA,NaN,NA,4768.799999952316,left,1,NA,NA,NA,NA,NA
xJrZbh1h,3bakuke4akpi45n0y93n6zfn3q3r1f,3y5140z9d1tafi1dkqp6insmnmqpiw,xJrZbh1h,2020-0188,2021-10-31,02:29:52,05:30:35,NA,incomplete,false,NA,NA,true,2,20,NA,NA,NA,left,m_s_072.jpg,red,purple,NA,NA,NA,NA,NA,NA,NA,NA,NA,NaN,NA,2622.9000000953674,left,1,NA,NA,NA,NA,NA
xJrZbh1h,3bakuke4akpi45n0y93n6zfn3q3r1f,3y5140z9d1tafi1dkqp6insmnmqpiw,xJrZbh1h,2020-0188,2021-10-31,02:29:52,05:30:35,NA,incomplete,false,NA,NA,true,2,21,NA,NA,NA,right,n_s_067.jpg,blue,black,NA,NA,NA,NA,NA,NA,NA,NA,NA,NaN,NA,3701.7999999523163,right,1,NA,NA,NA,NA,NA
xJrZbh1h,3bakuke4akpi45n0y93n6zfn3q3r1f,3y5140z9d1tafi1dkqp6insmnmqpiw,xJrZbh1h,2020-0188,2021-10-31,02:29:52,05:30:35,NA,incomplete,false,NA,true,NA,2,0,NA,NA,NA,left,NA,NA,NA,present,NA,NA,m_l_078.jpg,purple,m_s_106.jpg,red,between,NA,NaN,NA,NA,NA,NA,right,2384.399999856949,0,3,3915.2999999523163
xJrZbh1h,3bakuke4akpi45n0y93n6zfn3q3r1f,3y5140z9d1tafi1dkqp6insmnmqpiw,xJrZbh1h,2020-0188,2021-10-31,02:29:52,05:30:35,NA,incomplete,false,NA,true,NA,2,1,NA,NA,NA,right,NA,NA,NA,present,NA,NA,n_s_102.jpg,blue,n_s_067.jpg,black,between,NA,NaN,NA,NA,NA,NA,left,4340,0,2,2332.5
xJrZbh1h,3bakuke4akpi45n0y93n6zfn3q3r1f,3y5140z9d1tafi1dkqp6insmnmqpiw,xJrZbh1h,2020-0188,2021-10-31,02:29:52,05:30:35,NA,incomplete,false,NA,true,NA,2,2,NA,NA,NA,right,NA,NA,NA,present,NA,NA,n_s_036.jpg,black,m_s_061.jpg,black,within,NA,NaN,NA,NA,NA,NA,left,2829.2999999523163,0,1,2121.7000000476837
xJrZbh1h,3bakuke4akpi45n0y93n6zfn3q3r1f,3y5140z9d1tafi1dkqp6insmnmqpiw,xJrZbh1h,2020-0188,2021-10-31,02:29:52,05:30:35,NA,incomplete,false,NA,true,NA,2,3,NA,NA,NA,left,NA,NA,NA,present,NA,NA,n_s_050.jpg,blue,n_l_008.jpg,purple,between,NA,NaN,NA,NA,NA,NA,left,8615.700000047684,1,1,4061.7999999523163
xJrZbh1h,3bakuke4akpi45n0y93n6zfn3q3r1f,3y5140z9d1tafi1dkqp6insmnmqpiw,xJrZbh1h,2020-0188,2021-10-31,02:29:52,05:30:35,NA,incomplete,false,NA,true,NA,2,4,NA,NA,NA,left,NA,NA,NA,present,NA,NA,m_l_036.jpg,yellow,n_l_022.jpg,yellow,within,NA,NaN,NA,NA,NA,NA,right,4770.799999952316,0,0,3714.5
xJrZbh1h,3bakuke4akpi45n0y93n6zfn3q3r1f,3y5140z9d1tafi1dkqp6insmnmqpiw,xJrZbh1h,2020-0188,2021-10-31,02:29:52,05:30:35,NA,incomplete,false,NA,true,NA,2,5,NA,NA,NA,right,NA,NA,NA,present,NA,NA,n_l_038.jpg,purple,n_l_018.jpg,purple,within,NA,NaN,NA,NA,NA,NA,right,4349.5,1,1,2349.100000143051
xJrZbh1h,3bakuke4akpi45n0y93n6zfn3q3r1f,3y5140z9d1tafi1dkqp6insmnmqpiw,xJrZbh1h,2020-0188,2021-10-31,02:29:52,05:30:35,NA,incomplete,false,NA,true,NA,2,6,NA,NA,NA,left,NA,NA,NA,present,NA,NA,n_s_044.jpg,green,n_s_113.jpg,green,within,NA,NaN,NA,NA,NA,NA,left,2560.2000000476837,1,0,1340
xJrZbh1h,3bakuke4akpi45n0y93n6zfn3q3r1f,3y5140z9d1tafi1dkqp6insmnmqpiw,xJrZbh1h,2020-0188,2021-10-31,02:29:52,05:30:35,NA,incomplete,false,NA,true,NA,2,7,NA,NA,NA,right,NA,NA,NA,present,NA,NA,m_l_040.jpg,red,m_s_072.jpg,red,within,NA,NaN,NA,NA,NA,NA,right,7174.5,1,0,3067.2000000476837
xJrZbh1h,3bakuke4akpi45n0y93n6zfn3q3r1f,3y5140z9d1tafi1dkqp6insmnmqpiw,xJrZbh1h,2020-0188,2021-10-31,02:29:52,05:30:35,NA,incomplete,false,NA,true,NA,2,8,NA,NA,NA,left,NA,NA,NA,present,NA,NA,n_l_111.jpg,blue,m_s_043.jpg,blue,within,NA,NaN,NA,NA,NA,NA,left,3761,1,2,1656.3999998569489
xJrZbh1h,3bakuke4akpi45n0y93n6zfn3q3r1f,3y5140z9d1tafi1dkqp6insmnmqpiw,xJrZbh1h,2020-0188,2021-10-31,02:29:52,05:30:35,NA,incomplete,false,NA,true,NA,2,9,NA,NA,NA,left,NA,NA,NA,present,NA,NA,m_s_049.jpg,green,m_s_091.jpg,black,between,NA,NaN,NA,NA,NA,NA,right,12368,0,2,4877.199999809265
xJrZbh1h,3bakuke4akpi45n0y93n6zfn3q3r1f,3y5140z9d1tafi1dkqp6insmnmqpiw,xJrZbh1h,2020-0188,2021-10-31,02:29:52,05:30:35,NA,incomplete,false,NA,true,NA,2,10,NA,NA,NA,left,NA,NA,NA,present,NA,NA,n_s_005.jpg,yellow,m_l_039.jpg,green,between,NA,NaN,NA,NA,NA,NA,right,3485.7999999523163,0,3,1925.5
xJrZbh1h,3bakuke4akpi45n0y93n6zfn3q3r1f,3y5140z9d1tafi1dkqp6insmnmqpiw,xJrZbh1h,2020-0188,2021-10-31,02:29:52,05:30:35,NA,incomplete,false,true,NA,NA,3,0,NA,red,n_s_054.jpg,NA,NA,NA,NA,NA,unpleasant,pleasant,NA,NA,NA,NA,NA,left,2093.19999980927,true,NA,NA,NA,NA,NA,NA,NA,NA
xJrZbh1h,3bakuke4akpi45n0y93n6zfn3q3r1f,3y5140z9d1tafi1dkqp6insmnmqpiw,xJrZbh1h,2020-0188,2021-10-31,02:29:52,05:30:35,NA,incomplete,false,true,NA,NA,3,1,NA,red,n_s_055.jpg,NA,NA,NA,NA,NA,unpleasant,pleasant,NA,NA,NA,NA,NA,right,2305.79999995232,true,NA,NA,NA,NA,NA,NA,NA,NA
xJrZbh1h,3bakuke4akpi45n0y93n6zfn3q3r1f,3y5140z9d1tafi1dkqp6insmnmqpiw,xJrZbh1h,2020-0188,2021-10-31,02:29:52,05:30:35,NA,incomplete,false,true,NA,NA,3,2,NA,red,m_s_102.jpg,NA,NA,NA,NA,NA,unpleasant,pleasant,NA,NA,NA,NA,NA,right,1062.30000019073,true,NA,NA,NA,NA,NA,NA,NA,NA
xJrZbh1h,3bakuke4akpi45n0y93n6zfn3q3r1f,3y5140z9d1tafi1dkqp6insmnmqpiw,xJrZbh1h,2020-0188,2021-10-31,02:29:52,05:30:35,NA,incomplete,false,true,NA,NA,3,3,NA,red,m_l_047.jpg,NA,NA,NA,NA,NA,pleasant,unpleasant,NA,NA,NA,NA,NA,left,1820.79999995232,true,NA,NA,NA,NA,NA,NA,NA,NA
xJrZbh1h,3bakuke4akpi45n0y93n6zfn3q3r1f,3y5140z9d1tafi1dkqp6insmnmqpiw,xJrZbh1h,2020-0188,2021-10-31,02:29:52,05:30:35,NA,incomplete,false,true,NA,NA,3,4,NA,red,m_s_007.jpg,NA,NA,NA,NA,NA,unpleasant,pleasant,NA,NA,NA,NA,NA,left,989.200000047684,true,NA,NA,NA,NA,NA,NA,NA,NA
xJrZbh1h,3bakuke4akpi45n0y93n6zfn3q3r1f,3y5140z9d1tafi1dkqp6insmnmqpiw,xJrZbh1h,2020-0188,2021-10-31,02:29:52,05:30:35,NA,incomplete,false,true,NA,NA,3,5,NA,red,n_l_045.jpg,NA,NA,NA,NA,NA,pleasant,unpleasant,NA,NA,NA,NA,NA,left,1072,true,NA,NA,NA,NA,NA,NA,NA,NA
xJrZbh1h,3bakuke4akpi45n0y93n6zfn3q3r1f,3y5140z9d1tafi1dkqp6insmnmqpiw,xJrZbh1h,2020-0188,2021-10-31,02:29:52,05:30:35,NA,incomplete,false,true,NA,NA,3,6,NA,gray,m_s_070.jpg,NA,NA,NA,NA,NA,unpleasant,pleasant,NA,NA,NA,NA,NA,right,1108.29999995232,true,NA,NA,NA,NA,NA,NA,NA,NA
xJrZbh1h,3bakuke4akpi45n0y93n6zfn3q3r1f,3y5140z9d1tafi1dkqp6insmnmqpiw,xJrZbh1h,2020-0188,2021-10-31,02:29:52,05:30:35,NA,incomplete,false,true,NA,NA,3,7,NA,gray,n_l_051.jpg,NA,NA,NA,NA,NA,pleasant,unpleasant,NA,NA,NA,NA,NA,left,1701.20000004768,true,NA,NA,NA,NA,NA,NA,NA,NA
xJrZbh1h,3bakuke4akpi45n0y93n6zfn3q3r1f,3y5140z9d1tafi1dkqp6insmnmqpiw,xJrZbh1h,2020-0188,2021-10-31,02:29:52,05:30:35,NA,incomplete,false,true,NA,NA,3,8,NA,gray,n_l_074.jpg,NA,NA,NA,NA,NA,pleasant,unpleasant,NA,NA,NA,NA,NA,right,1352.09999990463,true,NA,NA,NA,NA,NA,NA,NA,NA
xJrZbh1h,3bakuke4akpi45n0y93n6zfn3q3r1f,3y5140z9d1tafi1dkqp6insmnmqpiw,xJrZbh1h,2020-0188,2021-10-31,02:29:52,05:30:35,NA,incomplete,false,true,NA,NA,3,9,NA,gray,m_s_090.jpg,NA,NA,NA,NA,NA,unpleasant,pleasant,NA,NA,NA,NA,NA,left,1931.79999995232,true,NA,NA,NA,NA,NA,NA,NA,NA
xJrZbh1h,3bakuke4akpi45n0y93n6zfn3q3r1f,3y5140z9d1tafi1dkqp6insmnmqpiw,xJrZbh1h,2020-0188,2021-10-31,02:29:52,05:30:35,NA,incomplete,false,true,NA,NA,3,10,NA,gray,n_s_096.jpg,NA,NA,NA,NA,NA,unpleasant,pleasant,NA,NA,NA,NA,NA,left,1367.59999990463,true,NA,NA,NA,NA,NA,NA,NA,NA
xJrZbh1h,3bakuke4akpi45n0y93n6zfn3q3r1f,3y5140z9d1tafi1dkqp6insmnmqpiw,xJrZbh1h,2020-0188,2021-10-31,02:29:52,05:30:35,NA,incomplete,false,true,NA,NA,3,11,NA,gray,n_l_071.jpg,NA,NA,NA,NA,NA,pleasant,unpleasant,NA,NA,NA,NA,NA,right,953,true,NA,NA,NA,NA,NA,NA,NA,NA
xJrZbh1h,3bakuke4akpi45n0y93n6zfn3q3r1f,3y5140z9d1tafi1dkqp6insmnmqpiw,xJrZbh1h,2020-0188,2021-10-31,02:29:52,05:30:35,NA,incomplete,false,true,NA,NA,3,12,NA,white,n_s_038.jpg,NA,NA,NA,NA,NA,unpleasant,pleasant,NA,NA,NA,NA,NA,right,2011.90000009537,true,NA,NA,NA,NA,NA,NA,NA,NA
xJrZbh1h,3bakuke4akpi45n0y93n6zfn3q3r1f,3y5140z9d1tafi1dkqp6insmnmqpiw,xJrZbh1h,2020-0188,2021-10-31,02:29:52,05:30:35,NA,incomplete,false,true,NA,NA,3,13,NA,white,m_s_105.jpg,NA,NA,NA,NA,NA,pleasant,unpleasant,NA,NA,NA,NA,NA,left,1586.40000009537,true,NA,NA,NA,NA,NA,NA,NA,NA
xJrZbh1h,3bakuke4akpi45n0y93n6zfn3q3r1f,3y5140z9d1tafi1dkqp6insmnmqpiw,xJrZbh1h,2020-0188,2021-10-31,02:29:52,05:30:35,NA,incomplete,false,true,NA,NA,3,14,NA,white,n_l_085.jpg,NA,NA,NA,NA,NA,unpleasant,pleasant,NA,NA,NA,NA,NA,left,1158.5,true,NA,NA,NA,NA,NA,NA,NA,NA
xJrZbh1h,3bakuke4akpi45n0y93n6zfn3q3r1f,3y5140z9d1tafi1dkqp6insmnmqpiw,xJrZbh1h,2020-0188,2021-10-31,02:29:52,05:30:35,NA,incomplete,false,true,NA,NA,3,15,NA,white,n_l_100.jpg,NA,NA,NA,NA,NA,unpleasant,pleasant,NA,NA,NA,NA,NA,left,867.799999952316,true,NA,NA,NA,NA,NA,NA,NA,NA
xJrZbh1h,3bakuke4akpi45n0y93n6zfn3q3r1f,3y5140z9d1tafi1dkqp6insmnmqpiw,xJrZbh1h,2020-0188,2021-10-31,02:29:52,05:30:35,NA,incomplete,false,true,NA,NA,3,16,NA,white,n_l_105.jpg,NA,NA,NA,NA,NA,pleasant,unpleasant,NA,NA,NA,NA,NA,right,975.200000047684,true,NA,NA,NA,NA,NA,NA,NA,NA
xJrZbh1h,3bakuke4akpi45n0y93n6zfn3q3r1f,3y5140z9d1tafi1dkqp6insmnmqpiw,xJrZbh1h,2020-0188,2021-10-31,02:29:52,05:30:35,NA,incomplete,false,true,NA,NA,3,17,NA,white,m_s_082.jpg,NA,NA,NA,NA,NA,pleasant,unpleasant,NA,NA,NA,NA,NA,left,2053.09999990463,true,NA,NA,NA,NA,NA,NA,NA,NA
xJrZbh1h,3bakuke4akpi45n0y93n6zfn3q3r1f,3y5140z9d1tafi1dkqp6insmnmqpiw,xJrZbh1h,2020-0188,2021-10-31,02:29:52,05:30:35,NA,incomplete,false,true,NA,NA,3,18,NA,green,m_l_021.jpg,NA,NA,NA,NA,NA,pleasant,unpleasant,NA,NA,NA,NA,NA,right,262,true,NA,NA,NA,NA,NA,NA,NA,NA
xJrZbh1h,3bakuke4akpi45n0y93n6zfn3q3r1f,3y5140z9d1tafi1dkqp6insmnmqpiw,xJrZbh1h,2020-0188,2021-10-31,02:29:52,05:30:35,NA,incomplete,false,true,NA,NA,3,19,NA,green,n_l_026.jpg,NA,NA,NA,NA,NA,pleasant,unpleasant,NA,NA,NA,NA,NA,left,1282.10000014305,true,NA,NA,NA,NA,NA,NA,NA,NA
xJrZbh1h,3bakuke4akpi45n0y93n6zfn3q3r1f,3y5140z9d1tafi1dkqp6insmnmqpiw,xJrZbh1h,2020-0188,2021-10-31,02:29:52,05:30:35,NA,incomplete,false,true,NA,NA,3,20,NA,green,m_s_078.jpg,NA,NA,NA,NA,NA,pleasant,unpleasant,NA,NA,NA,NA,NA,right,1569.60000014305,true,NA,NA,NA,NA,NA,NA,NA,NA
xJrZbh1h,3bakuke4akpi45n0y93n6zfn3q3r1f,3y5140z9d1tafi1dkqp6insmnmqpiw,xJrZbh1h,2020-0188,2021-10-31,02:29:52,05:30:35,NA,incomplete,false,true,NA,NA,3,21,NA,green,n_l_034.jpg,NA,NA,NA,NA,NA,pleasant,unpleasant,NA,NA,NA,NA,NA,left,1144.79999995232,true,NA,NA,NA,NA,NA,NA,NA,NA
xJrZbh1h,3bakuke4akpi45n0y93n6zfn3q3r1f,3y5140z9d1tafi1dkqp6insmnmqpiw,xJrZbh1h,2020-0188,2021-10-31,02:29:52,05:30:35,NA,incomplete,false,true,NA,NA,3,22,NA,green,n_s_063.jpg,NA,NA,NA,NA,NA,unpleasant,pleasant,NA,NA,NA,NA,NA,left,742.400000095367,true,NA,NA,NA,NA,NA,NA,NA,NA
xJrZbh1h,3bakuke4akpi45n0y93n6zfn3q3r1f,3y5140z9d1tafi1dkqp6insmnmqpiw,xJrZbh1h,2020-0188,2021-10-31,02:29:52,05:30:35,NA,incomplete,false,true,NA,NA,3,23,NA,green,n_s_085.jpg,NA,NA,NA,NA,NA,pleasant,unpleasant,NA,NA,NA,NA,NA,left,2793,true,NA,NA,NA,NA,NA,NA,NA,NA
xJrZbh1h,3bakuke4akpi45n0y93n6zfn3q3r1f,3y5140z9d1tafi1dkqp6insmnmqpiw,xJrZbh1h,2020-0188,2021-10-31,02:29:52,05:30:35,NA,incomplete,false,true,NA,NA,3,24,NA,brown,n_l_080.jpg,NA,NA,NA,NA,NA,pleasant,unpleasant,NA,NA,NA,NA,NA,left,1573.09999990463,true,NA,NA,NA,NA,NA,NA,NA,NA
xJrZbh1h,3bakuke4akpi45n0y93n6zfn3q3r1f,3y5140z9d1tafi1dkqp6insmnmqpiw,xJrZbh1h,2020-0188,2021-10-31,02:29:52,05:30:35,NA,incomplete,false,true,NA,NA,3,25,NA,brown,m_l_062.jpg,NA,NA,NA,NA,NA,pleasant,unpleasant,NA,NA,NA,NA,NA,right,1481.5,true,NA,NA,NA,NA,NA,NA,NA,NA
xJrZbh1h,3bakuke4akpi45n0y93n6zfn3q3r1f,3y5140z9d1tafi1dkqp6insmnmqpiw,xJrZbh1h,2020-0188,2021-10-31,02:29:52,05:30:35,NA,incomplete,false,true,NA,NA,3,26,NA,brown,m_s_083.jpg,NA,NA,NA,NA,NA,unpleasant,pleasant,NA,NA,NA,NA,NA,right,2629.29999995232,true,NA,NA,NA,NA,NA,NA,NA,NA
xJrZbh1h,3bakuke4akpi45n0y93n6zfn3q3r1f,3y5140z9d1tafi1dkqp6insmnmqpiw,xJrZbh1h,2020-0188,2021-10-31,02:29:52,05:30:35,NA,incomplete,false,true,NA,NA,3,27,NA,brown,m_l_080.jpg,NA,NA,NA,NA,NA,pleasant,unpleasant,NA,NA,NA,NA,NA,left,1313.20000004768,true,NA,NA,NA,NA,NA,NA,NA,NA
xJrZbh1h,3bakuke4akpi45n0y93n6zfn3q3r1f,3y5140z9d1tafi1dkqp6insmnmqpiw,xJrZbh1h,2020-0188,2021-10-31,02:29:52,05:30:35,NA,incomplete,false,true,NA,NA,3,28,NA,brown,n_s_080.jpg,NA,NA,NA,NA,NA,unpleasant,pleasant,NA,NA,NA,NA,NA,right,1499,true,NA,NA,NA,NA,NA,NA,NA,NA
xJrZbh1h,3bakuke4akpi45n0y93n6zfn3q3r1f,3y5140z9d1tafi1dkqp6insmnmqpiw,xJrZbh1h,2020-0188,2021-10-31,02:29:52,05:30:35,NA,incomplete,false,true,NA,NA,3,29,NA,brown,n_l_075.jpg,NA,NA,NA,NA,NA,unpleasant,pleasant,NA,NA,NA,NA,NA,right,1359.10000014305,true,NA,NA,NA,NA,NA,NA,NA,NA
xJrZbh1h,3bakuke4akpi45n0y93n6zfn3q3r1f,3y5140z9d1tafi1dkqp6insmnmqpiw,xJrZbh1h,2020-0188,2021-10-31,02:29:52,05:30:35,NA,incomplete,false,true,NA,NA,3,30,NA,orange,m_l_045.jpg,NA,NA,NA,NA,NA,unpleasant,pleasant,NA,NA,NA,NA,NA,right,1683.5,true,NA,NA,NA,NA,NA,NA,NA,NA
xJrZbh1h,3bakuke4akpi45n0y93n6zfn3q3r1f,3y5140z9d1tafi1dkqp6insmnmqpiw,xJrZbh1h,2020-0188,2021-10-31,02:29:52,05:30:35,NA,incomplete,false,true,NA,NA,3,31,NA,orange,n_l_060.jpg,NA,NA,NA,NA,NA,unpleasant,pleasant,NA,NA,NA,NA,NA,left,1149.5,true,NA,NA,NA,NA,NA,NA,NA,NA
xJrZbh1h,3bakuke4akpi45n0y93n6zfn3q3r1f,3y5140z9d1tafi1dkqp6insmnmqpiw,xJrZbh1h,2020-0188,2021-10-31,02:29:52,05:30:35,NA,incomplete,false,true,NA,NA,3,32,NA,orange,n_l_090.jpg,NA,NA,NA,NA,NA,pleasant,unpleasant,NA,NA,NA,NA,NA,right,1654.5,true,NA,NA,NA,NA,NA,NA,NA,NA
xJrZbh1h,3bakuke4akpi45n0y93n6zfn3q3r1f,3y5140z9d1tafi1dkqp6insmnmqpiw,xJrZbh1h,2020-0188,2021-10-31,02:29:52,05:30:35,NA,incomplete,false,true,NA,NA,3,33,NA,orange,n_s_053.jpg,NA,NA,NA,NA,NA,pleasant,unpleasant,NA,NA,NA,NA,NA,right,1467.59999990463,true,NA,NA,NA,NA,NA,NA,NA,NA
xJrZbh1h,3bakuke4akpi45n0y93n6zfn3q3r1f,3y5140z9d1tafi1dkqp6insmnmqpiw,xJrZbh1h,2020-0188,2021-10-31,02:29:52,05:30:35,NA,incomplete,false,true,NA,NA,3,34,NA,orange,n_s_007.jpg,NA,NA,NA,NA,NA,unpleasant,pleasant,NA,NA,NA,NA,NA,right,1975.10000014305,true,NA,NA,NA,NA,NA,NA,NA,NA
xJrZbh1h,3bakuke4akpi45n0y93n6zfn3q3r1f,3y5140z9d1tafi1dkqp6insmnmqpiw,xJrZbh1h,2020-0188,2021-10-31,02:29:52,05:30:35,NA,incomplete,false,true,NA,NA,3,35,NA,orange,m_l_042.jpg,NA,NA,NA,NA,NA,pleasant,unpleasant,NA,NA,NA,NA,NA,left,1208.29999995232,true,NA,NA,NA,NA,NA,NA,NA,NA
xJrZbh1h,3bakuke4akpi45n0y93n6zfn3q3r1f,3y5140z9d1tafi1dkqp6insmnmqpiw,xJrZbh1h,2020-0188,2021-10-31,02:29:52,05:30:35,NA,incomplete,false,NA,NA,true,3,0,NA,NA,NA,right,n_l_075.jpg,green,brown,NA,NA,NA,NA,NA,NA,NA,NA,NA,NaN,NA,5384.799999952316,right,1,NA,NA,NA,NA,NA
xJrZbh1h,3bakuke4akpi45n0y93n6zfn3q3r1f,3y5140z9d1tafi1dkqp6insmnmqpiw,xJrZbh1h,2020-0188,2021-10-31,02:29:52,05:30:35,NA,incomplete,false,NA,NA,true,3,1,NA,NA,NA,right,m_s_007.jpg,gray,red,NA,NA,NA,NA,NA,NA,NA,NA,NA,NaN,NA,2299.2999999523163,right,1,NA,NA,NA,NA,NA
xJrZbh1h,3bakuke4akpi45n0y93n6zfn3q3r1f,3y5140z9d1tafi1dkqp6insmnmqpiw,xJrZbh1h,2020-0188,2021-10-31,02:29:52,05:30:35,NA,incomplete,false,NA,NA,true,3,2,NA,NA,NA,right,n_s_085.jpg,brown,green,NA,NA,NA,NA,NA,NA,NA,NA,NA,NaN,NA,5513.599999904633,right,1,NA,NA,NA,NA,NA
xJrZbh1h,3bakuke4akpi45n0y93n6zfn3q3r1f,3y5140z9d1tafi1dkqp6insmnmqpiw,xJrZbh1h,2020-0188,2021-10-31,02:29:52,05:30:35,NA,incomplete,false,NA,NA,true,3,3,NA,NA,NA,left,m_s_078.jpg,green,white,NA,NA,NA,NA,NA,NA,NA,NA,NA,NaN,NA,2947.100000143051,left,1,NA,NA,NA,NA,NA
xJrZbh1h,3bakuke4akpi45n0y93n6zfn3q3r1f,3y5140z9d1tafi1dkqp6insmnmqpiw,xJrZbh1h,2020-0188,2021-10-31,02:29:52,05:30:35,NA,incomplete,false,NA,NA,true,3,4,NA,NA,NA,left,n_l_074.jpg,gray,white,NA,NA,NA,NA,NA,NA,NA,NA,NA,NaN,NA,2578,left,1,NA,NA,NA,NA,NA
xJrZbh1h,3bakuke4akpi45n0y93n6zfn3q3r1f,3y5140z9d1tafi1dkqp6insmnmqpiw,xJrZbh1h,2020-0188,2021-10-31,02:29:52,05:30:35,NA,incomplete,false,NA,NA,true,3,5,NA,NA,NA,right,n_l_051.jpg,red,gray,NA,NA,NA,NA,NA,NA,NA,NA,NA,NaN,NA,4389.599999904633,right,1,NA,NA,NA,NA,NA
xJrZbh1h,3bakuke4akpi45n0y93n6zfn3q3r1f,3y5140z9d1tafi1dkqp6insmnmqpiw,xJrZbh1h,2020-0188,2021-10-31,02:29:52,05:30:35,NA,incomplete,false,NA,NA,true,3,6,NA,NA,NA,right,n_l_105.jpg,green,white,NA,NA,NA,NA,NA,NA,NA,NA,NA,NaN,NA,3955.100000143051,left,0,NA,NA,NA,NA,NA
xJrZbh1h,3bakuke4akpi45n0y93n6zfn3q3r1f,3y5140z9d1tafi1dkqp6insmnmqpiw,xJrZbh1h,2020-0188,2021-10-31,02:29:52,05:30:35,NA,incomplete,false,NA,NA,true,3,7,NA,NA,NA,left,n_l_090.jpg,orange,brown,NA,NA,NA,NA,NA,NA,NA,NA,NA,NaN,NA,2285.2000000476837,left,1,NA,NA,NA,NA,NA
xJrZbh1h,3bakuke4akpi45n0y93n6zfn3q3r1f,3y5140z9d1tafi1dkqp6insmnmqpiw,xJrZbh1h,2020-0188,2021-10-31,02:29:52,05:30:35,NA,incomplete,false,NA,NA,true,3,8,NA,NA,NA,right,n_l_060.jpg,brown,orange,NA,NA,NA,NA,NA,NA,NA,NA,NA,NaN,NA,5855.5,right,1,NA,NA,NA,NA,NA
xJrZbh1h,3bakuke4akpi45n0y93n6zfn3q3r1f,3y5140z9d1tafi1dkqp6insmnmqpiw,xJrZbh1h,2020-0188,2021-10-31,02:29:52,05:30:35,NA,incomplete,false,NA,NA,true,3,9,NA,NA,NA,left,n_l_026.jpg,green,brown,NA,NA,NA,NA,NA,NA,NA,NA,NA,NaN,NA,2128.5,left,1,NA,NA,NA,NA,NA
xJrZbh1h,3bakuke4akpi45n0y93n6zfn3q3r1f,3y5140z9d1tafi1dkqp6insmnmqpiw,xJrZbh1h,2020-0188,2021-10-31,02:29:52,05:30:35,NA,incomplete,false,NA,NA,true,3,10,NA,NA,NA,left,n_l_085.jpg,white,green,NA,NA,NA,NA,NA,NA,NA,NA,NA,NaN,NA,3218,left,1,NA,NA,NA,NA,NA
xJrZbh1h,3bakuke4akpi45n0y93n6zfn3q3r1f,3y5140z9d1tafi1dkqp6insmnmqpiw,xJrZbh1h,2020-0188,2021-10-31,02:29:52,05:30:35,NA,incomplete,false,NA,NA,true,3,11,NA,NA,NA,left,n_s_063.jpg,green,white,NA,NA,NA,NA,NA,NA,NA,NA,NA,NaN,NA,3078.2000000476837,right,0,NA,NA,NA,NA,NA
xJrZbh1h,3bakuke4akpi45n0y93n6zfn3q3r1f,3y5140z9d1tafi1dkqp6insmnmqpiw,xJrZbh1h,2020-0188,2021-10-31,02:29:52,05:30:35,NA,incomplete,false,NA,NA,true,3,12,NA,NA,NA,left,m_l_042.jpg,orange,brown,NA,NA,NA,NA,NA,NA,NA,NA,NA,NaN,NA,2238.899999856949,left,1,NA,NA,NA,NA,NA
xJrZbh1h,3bakuke4akpi45n0y93n6zfn3q3r1f,3y5140z9d1tafi1dkqp6insmnmqpiw,xJrZbh1h,2020-0188,2021-10-31,02:29:52,05:30:35,NA,incomplete,false,NA,NA,true,3,13,NA,NA,NA,right,n_s_055.jpg,gray,red,NA,NA,NA,NA,NA,NA,NA,NA,NA,NaN,NA,3992.899999856949,right,1,NA,NA,NA,NA,NA
xJrZbh1h,3bakuke4akpi45n0y93n6zfn3q3r1f,3y5140z9d1tafi1dkqp6insmnmqpiw,xJrZbh1h,2020-0188,2021-10-31,02:29:52,05:30:35,NA,incomplete,false,NA,NA,true,3,14,NA,NA,NA,left,m_s_105.jpg,white,gray,NA,NA,NA,NA,NA,NA,NA,NA,NA,NaN,NA,3309.7999999523163,left,1,NA,NA,NA,NA,NA
xJrZbh1h,3bakuke4akpi45n0y93n6zfn3q3r1f,3y5140z9d1tafi1dkqp6insmnmqpiw,xJrZbh1h,2020-0188,2021-10-31,02:29:52,05:30:35,NA,incomplete,false,NA,NA,true,3,15,NA,NA,NA,left,n_l_045.jpg,red,gray,NA,NA,NA,NA,NA,NA,NA,NA,NA,NaN,NA,2413.800000190735,left,1,NA,NA,NA,NA,NA
xJrZbh1h,3bakuke4akpi45n0y93n6zfn3q3r1f,3y5140z9d1tafi1dkqp6insmnmqpiw,xJrZbh1h,2020-0188,2021-10-31,02:29:52,05:30:35,NA,incomplete,false,NA,NA,true,3,16,NA,NA,NA,left,m_s_083.jpg,brown,orange,NA,NA,NA,NA,NA,NA,NA,NA,NA,NaN,NA,4687.099999904633,left,1,NA,NA,NA,NA,NA
xJrZbh1h,3bakuke4akpi45n0y93n6zfn3q3r1f,3y5140z9d1tafi1dkqp6insmnmqpiw,xJrZbh1h,2020-0188,2021-10-31,02:29:52,05:30:35,NA,incomplete,false,NA,NA,true,3,17,NA,NA,NA,right,n_l_071.jpg,white,gray,NA,NA,NA,NA,NA,NA,NA,NA,NA,NaN,NA,2957.5999999046326,right,1,NA,NA,NA,NA,NA
xJrZbh1h,3bakuke4akpi45n0y93n6zfn3q3r1f,3y5140z9d1tafi1dkqp6insmnmqpiw,xJrZbh1h,2020-0188,2021-10-31,02:29:52,05:30:35,NA,incomplete,false,NA,NA,true,3,18,NA,NA,NA,left,n_s_096.jpg,gray,red,NA,NA,NA,NA,NA,NA,NA,NA,NA,NaN,NA,2083.4000000953674,right,0,NA,NA,NA,NA,NA
xJrZbh1h,3bakuke4akpi45n0y93n6zfn3q3r1f,3y5140z9d1tafi1dkqp6insmnmqpiw,xJrZbh1h,2020-0188,2021-10-31,02:29:52,05:30:35,NA,incomplete,false,NA,NA,true,3,19,NA,NA,NA,right,m_s_082.jpg,green,white,NA,NA,NA,NA,NA,NA,NA,NA,NA,NaN,NA,2315.5999999046326,right,1,NA,NA,NA,NA,NA
xJrZbh1h,3bakuke4akpi45n0y93n6zfn3q3r1f,3y5140z9d1tafi1dkqp6insmnmqpiw,xJrZbh1h,2020-0188,2021-10-31,02:29:52,05:30:35,NA,incomplete,false,NA,NA,true,3,20,NA,NA,NA,left,n_s_080.jpg,brown,green,NA,NA,NA,NA,NA,NA,NA,NA,NA,NaN,NA,2510.899999856949,left,1,NA,NA,NA,NA,NA
xJrZbh1h,3bakuke4akpi45n0y93n6zfn3q3r1f,3y5140z9d1tafi1dkqp6insmnmqpiw,xJrZbh1h,2020-0188,2021-10-31,02:29:52,05:30:35,NA,incomplete,false,NA,NA,true,3,21,NA,NA,NA,right,m_l_062.jpg,green,brown,NA,NA,NA,NA,NA,NA,NA,NA,NA,NaN,NA,3839.2000000476837,left,0,NA,NA,NA,NA,NA
xJrZbh1h,3bakuke4akpi45n0y93n6zfn3q3r1f,3y5140z9d1tafi1dkqp6insmnmqpiw,xJrZbh1h,2020-0188,2021-10-31,02:29:52,05:30:35,NA,incomplete,false,NA,true,NA,3,0,NA,NA,NA,left,NA,NA,NA,present,NA,NA,m_l_062.jpg,brown,n_l_075.jpg,brown,within,NA,NaN,NA,NA,NA,NA,left,3921.7999999523163,1,2,2013.7000000476837
xJrZbh1h,3bakuke4akpi45n0y93n6zfn3q3r1f,3y5140z9d1tafi1dkqp6insmnmqpiw,xJrZbh1h,2020-0188,2021-10-31,02:29:52,05:30:35,NA,incomplete,false,NA,true,NA,3,1,NA,NA,NA,right,NA,NA,NA,present,NA,NA,n_l_090.jpg,orange,n_s_080.jpg,brown,between,NA,NaN,NA,NA,NA,NA,right,4831.799999952316,1,2,2017.7000000476837
xJrZbh1h,3bakuke4akpi45n0y93n6zfn3q3r1f,3y5140z9d1tafi1dkqp6insmnmqpiw,xJrZbh1h,2020-0188,2021-10-31,02:29:52,05:30:35,NA,incomplete,false,NA,true,NA,3,2,NA,NA,NA,right,NA,NA,NA,present,NA,NA,n_l_045.jpg,red,n_s_055.jpg,red,within,NA,NaN,NA,NA,NA,NA,right,2762.5,1,1,2782.399999856949
xJrZbh1h,3bakuke4akpi45n0y93n6zfn3q3r1f,3y5140z9d1tafi1dkqp6insmnmqpiw,xJrZbh1h,2020-0188,2021-10-31,02:29:52,05:30:35,NA,incomplete,false,NA,true,NA,3,3,NA,NA,NA,left,NA,NA,NA,present,NA,NA,n_l_051.jpg,gray,n_l_071.jpg,gray,within,NA,NaN,NA,NA,NA,NA,left,2572.7999999523163,1,2,1306.1000001430511
xJrZbh1h,3bakuke4akpi45n0y93n6zfn3q3r1f,3y5140z9d1tafi1dkqp6insmnmqpiw,xJrZbh1h,2020-0188,2021-10-31,02:29:52,05:30:35,NA,incomplete,false,NA,true,NA,3,4,NA,NA,NA,right,NA,NA,NA,present,NA,NA,m_l_042.jpg,orange,n_l_060.jpg,orange,within,NA,NaN,NA,NA,NA,NA,right,3549.100000143051,1,1,8375.400000095367
xJrZbh1h,3bakuke4akpi45n0y93n6zfn3q3r1f,3y5140z9d1tafi1dkqp6insmnmqpiw,xJrZbh1h,2020-0188,2021-10-31,02:29:52,05:30:35,NA,incomplete,false,NA,true,NA,3,5,NA,NA,NA,left,NA,NA,NA,present,NA,NA,n_s_063.jpg,green,m_s_083.jpg,brown,between,NA,NaN,NA,NA,NA,NA,left,3155.0999999046326,1,0,2309
xJrZbh1h,3bakuke4akpi45n0y93n6zfn3q3r1f,3y5140z9d1tafi1dkqp6insmnmqpiw,xJrZbh1h,2020-0188,2021-10-31,02:29:52,05:30:35,NA,incomplete,false,NA,true,NA,3,6,NA,NA,NA,left,NA,NA,NA,present,NA,NA,n_l_105.jpg,white,m_s_078.jpg,green,between,NA,NaN,NA,NA,NA,NA,right,3620.7999999523163,0,2,1518
xJrZbh1h,3bakuke4akpi45n0y93n6zfn3q3r1f,3y5140z9d1tafi1dkqp6insmnmqpiw,xJrZbh1h,2020-0188,2021-10-31,02:29:52,05:30:35,NA,incomplete,false,NA,true,NA,3,7,NA,NA,NA,left,NA,NA,NA,present,NA,NA,m_s_105.jpg,white,m_s_082.jpg,white,within,NA,NaN,NA,NA,NA,NA,left,3845.0999999046326,1,2,1683.6000001430511
xJrZbh1h,3bakuke4akpi45n0y93n6zfn3q3r1f,3y5140z9d1tafi1dkqp6insmnmqpiw,xJrZbh1h,2020-0188,2021-10-31,02:29:52,05:30:35,NA,incomplete,false,NA,true,NA,3,8,NA,NA,NA,right,NA,NA,NA,present,NA,NA,n_l_085.jpg,white,n_s_096.jpg,gray,between,NA,NaN,NA,NA,NA,NA,right,5893.5,1,0,1230.5999999046326
xJrZbh1h,3bakuke4akpi45n0y93n6zfn3q3r1f,3y5140z9d1tafi1dkqp6insmnmqpiw,xJrZbh1h,2020-0188,2021-10-31,02:29:52,05:30:35,NA,incomplete,false,NA,true,NA,3,9,NA,NA,NA,left,NA,NA,NA,present,NA,NA,n_l_026.jpg,green,n_s_085.jpg,green,within,NA,NaN,NA,NA,NA,NA,left,4334.299999952316,1,0,1339.6000001430511
xJrZbh1h,3bakuke4akpi45n0y93n6zfn3q3r1f,3y5140z9d1tafi1dkqp6insmnmqpiw,xJrZbh1h,2020-0188,2021-10-31,02:29:52,05:30:35,NA,incomplete,false,NA,true,NA,3,10,NA,NA,NA,right,NA,NA,NA,present,NA,NA,n_l_074.jpg,gray,m_s_007.jpg,red,between,NA,NaN,NA,NA,NA,NA,left,5506.199999809265,0,2,5368.900000095367
xJrZbh1h,3bakuke4akpi45n0y93n6zfn3q3r1f,3y5140z9d1tafi1dkqp6insmnmqpiw,xJrZbh1h,2020-0188,2021-10-31,02:29:52,05:30:35,NA,incomplete,false,true,NA,NA,4,0,NA,orange,n_s_086.jpg,NA,NA,NA,NA,NA,pleasant,unpleasant,NA,NA,NA,NA,NA,right,2692.69999980927,true,NA,NA,NA,NA,NA,NA,NA,NA
xJrZbh1h,3bakuke4akpi45n0y93n6zfn3q3r1f,3y5140z9d1tafi1dkqp6insmnmqpiw,xJrZbh1h,2020-0188,2021-10-31,02:29:52,05:30:35,NA,incomplete,false,true,NA,NA,4,1,NA,orange,m_s_009.jpg,NA,NA,NA,NA,NA,pleasant,unpleasant,NA,NA,NA,NA,NA,right,2161.30000019073,true,NA,NA,NA,NA,NA,NA,NA,NA
xJrZbh1h,3bakuke4akpi45n0y93n6zfn3q3r1f,3y5140z9d1tafi1dkqp6insmnmqpiw,xJrZbh1h,2020-0188,2021-10-31,02:29:52,05:30:35,NA,incomplete,false,true,NA,NA,4,2,NA,orange,n_s_062.jpg,NA,NA,NA,NA,NA,unpleasant,pleasant,NA,NA,NA,NA,NA,right,1293,true,NA,NA,NA,NA,NA,NA,NA,NA
xJrZbh1h,3bakuke4akpi45n0y93n6zfn3q3r1f,3y5140z9d1tafi1dkqp6insmnmqpiw,xJrZbh1h,2020-0188,2021-10-31,02:29:52,05:30:35,NA,incomplete,false,true,NA,NA,4,3,NA,orange,n_s_002.jpg,NA,NA,NA,NA,NA,pleasant,unpleasant,NA,NA,NA,NA,NA,left,851,true,NA,NA,NA,NA,NA,NA,NA,NA
xJrZbh1h,3bakuke4akpi45n0y93n6zfn3q3r1f,3y5140z9d1tafi1dkqp6insmnmqpiw,xJrZbh1h,2020-0188,2021-10-31,02:29:52,05:30:35,NA,incomplete,false,true,NA,NA,4,4,NA,orange,m_s_098.jpg,NA,NA,NA,NA,NA,unpleasant,pleasant,NA,NA,NA,NA,NA,left,2052.40000009537,true,NA,NA,NA,NA,NA,NA,NA,NA
xJrZbh1h,3bakuke4akpi45n0y93n6zfn3q3r1f,3y5140z9d1tafi1dkqp6insmnmqpiw,xJrZbh1h,2020-0188,2021-10-31,02:29:52,05:30:35,NA,incomplete,false,true,NA,NA,4,5,NA,orange,n_l_013.jpg,NA,NA,NA,NA,NA,pleasant,unpleasant,NA,NA,NA,NA,NA,left,1396.5,true,NA,NA,NA,NA,NA,NA,NA,NA
xJrZbh1h,3bakuke4akpi45n0y93n6zfn3q3r1f,3y5140z9d1tafi1dkqp6insmnmqpiw,xJrZbh1h,2020-0188,2021-10-31,02:29:52,05:30:35,NA,incomplete,false,true,NA,NA,4,6,NA,purple,m_s_084.jpg,NA,NA,NA,NA,NA,pleasant,unpleasant,NA,NA,NA,NA,NA,left,1719.10000014305,true,NA,NA,NA,NA,NA,NA,NA,NA
xJrZbh1h,3bakuke4akpi45n0y93n6zfn3q3r1f,3y5140z9d1tafi1dkqp6insmnmqpiw,xJrZbh1h,2020-0188,2021-10-31,02:29:52,05:30:35,NA,incomplete,false,true,NA,NA,4,7,NA,purple,n_s_070.jpg,NA,NA,NA,NA,NA,pleasant,unpleasant,NA,NA,NA,NA,NA,right,1724.79999995232,true,NA,NA,NA,NA,NA,NA,NA,NA
xJrZbh1h,3bakuke4akpi45n0y93n6zfn3q3r1f,3y5140z9d1tafi1dkqp6insmnmqpiw,xJrZbh1h,2020-0188,2021-10-31,02:29:52,05:30:35,NA,incomplete,false,true,NA,NA,4,8,NA,purple,m_s_022.jpg,NA,NA,NA,NA,NA,unpleasant,pleasant,NA,NA,NA,NA,NA,right,2224.5,true,NA,NA,NA,NA,NA,NA,NA,NA
xJrZbh1h,3bakuke4akpi45n0y93n6zfn3q3r1f,3y5140z9d1tafi1dkqp6insmnmqpiw,xJrZbh1h,2020-0188,2021-10-31,02:29:52,05:30:35,NA,incomplete,false,true,NA,NA,4,9,NA,purple,n_l_096.jpg,NA,NA,NA,NA,NA,unpleasant,pleasant,NA,NA,NA,NA,NA,left,2281.40000009537,true,NA,NA,NA,NA,NA,NA,NA,NA
xJrZbh1h,3bakuke4akpi45n0y93n6zfn3q3r1f,3y5140z9d1tafi1dkqp6insmnmqpiw,xJrZbh1h,2020-0188,2021-10-31,02:29:52,05:30:35,NA,incomplete,false,true,NA,NA,4,10,NA,purple,m_l_044.jpg,NA,NA,NA,NA,NA,pleasant,unpleasant,NA,NA,NA,NA,NA,right,2073.79999995232,true,NA,NA,NA,NA,NA,NA,NA,NA
xJrZbh1h,3bakuke4akpi45n0y93n6zfn3q3r1f,3y5140z9d1tafi1dkqp6insmnmqpiw,xJrZbh1h,2020-0188,2021-10-31,02:29:52,05:30:35,NA,incomplete,false,true,NA,NA,4,11,NA,purple,m_s_071.jpg,NA,NA,NA,NA,NA,unpleasant,pleasant,NA,NA,NA,NA,NA,left,1785.10000014305,true,NA,NA,NA,NA,NA,NA,NA,NA
xJrZbh1h,3bakuke4akpi45n0y93n6zfn3q3r1f,3y5140z9d1tafi1dkqp6insmnmqpiw,xJrZbh1h,2020-0188,2021-10-31,02:29:52,05:30:35,NA,incomplete,false,true,NA,NA,4,12,NA,black,m_l_059.jpg,NA,NA,NA,NA,NA,unpleasant,pleasant,NA,NA,NA,NA,NA,right,2262.59999990463,true,NA,NA,NA,NA,NA,NA,NA,NA
xJrZbh1h,3bakuke4akpi45n0y93n6zfn3q3r1f,3y5140z9d1tafi1dkqp6insmnmqpiw,xJrZbh1h,2020-0188,2021-10-31,02:29:52,05:30:35,NA,incomplete,false,true,NA,NA,4,13,NA,black,n_l_058.jpg,NA,NA,NA,NA,NA,pleasant,unpleasant,NA,NA,NA,NA,NA,left,1834.09999990463,true,NA,NA,NA,NA,NA,NA,NA,NA
xJrZbh1h,3bakuke4akpi45n0y93n6zfn3q3r1f,3y5140z9d1tafi1dkqp6insmnmqpiw,xJrZbh1h,2020-0188,2021-10-31,02:29:52,05:30:35,NA,incomplete,false,true,NA,NA,4,14,NA,black,n_s_116.jpg,NA,NA,NA,NA,NA,unpleasant,pleasant,NA,NA,NA,NA,NA,right,1815.5,true,NA,NA,NA,NA,NA,NA,NA,NA
xJrZbh1h,3bakuke4akpi45n0y93n6zfn3q3r1f,3y5140z9d1tafi1dkqp6insmnmqpiw,xJrZbh1h,2020-0188,2021-10-31,02:29:52,05:30:35,NA,incomplete,false,true,NA,NA,4,15,NA,black,m_s_117.jpg,NA,NA,NA,NA,NA,pleasant,unpleasant,NA,NA,NA,NA,NA,left,2478.40000009537,true,NA,NA,NA,NA,NA,NA,NA,NA
xJrZbh1h,3bakuke4akpi45n0y93n6zfn3q3r1f,3y5140z9d1tafi1dkqp6insmnmqpiw,xJrZbh1h,2020-0188,2021-10-31,02:29:52,05:30:35,NA,incomplete,false,true,NA,NA,4,16,NA,black,m_l_085.jpg,NA,NA,NA,NA,NA,unpleasant,pleasant,NA,NA,NA,NA,NA,right,2123.5,true,NA,NA,NA,NA,NA,NA,NA,NA
xJrZbh1h,3bakuke4akpi45n0y93n6zfn3q3r1f,3y5140z9d1tafi1dkqp6insmnmqpiw,xJrZbh1h,2020-0188,2021-10-31,02:29:52,05:30:35,NA,incomplete,false,true,NA,NA,4,17,NA,black,n_s_022.jpg,NA,NA,NA,NA,NA,pleasant,unpleasant,NA,NA,NA,NA,NA,left,1194.29999995232,true,NA,NA,NA,NA,NA,NA,NA,NA
xJrZbh1h,3bakuke4akpi45n0y93n6zfn3q3r1f,3y5140z9d1tafi1dkqp6insmnmqpiw,xJrZbh1h,2020-0188,2021-10-31,02:29:52,05:30:35,NA,incomplete,false,true,NA,NA,4,18,NA,gray,m_s_065.jpg,NA,NA,NA,NA,NA,pleasant,unpleasant,NA,NA,NA,NA,NA,left,1979.40000009537,true,NA,NA,NA,NA,NA,NA,NA,NA
xJrZbh1h,3bakuke4akpi45n0y93n6zfn3q3r1f,3y5140z9d1tafi1dkqp6insmnmqpiw,xJrZbh1h,2020-0188,2021-10-31,02:29:52,05:30:35,NA,incomplete,false,true,NA,NA,4,19,NA,gray,m_l_094.jpg,NA,NA,NA,NA,NA,pleasant,unpleasant,NA,NA,NA,NA,NA,right,933.700000047684,true,NA,NA,NA,NA,NA,NA,NA,NA
xJrZbh1h,3bakuke4akpi45n0y93n6zfn3q3r1f,3y5140z9d1tafi1dkqp6insmnmqpiw,xJrZbh1h,2020-0188,2021-10-31,02:29:52,05:30:35,NA,incomplete,false,true,NA,NA,4,20,NA,gray,n_l_072.jpg,NA,NA,NA,NA,NA,pleasant,unpleasant,NA,NA,NA,NA,NA,left,1166,true,NA,NA,NA,NA,NA,NA,NA,NA
xJrZbh1h,3bakuke4akpi45n0y93n6zfn3q3r1f,3y5140z9d1tafi1dkqp6insmnmqpiw,xJrZbh1h,2020-0188,2021-10-31,02:29:52,05:30:35,NA,incomplete,false,true,NA,NA,4,21,NA,gray,m_l_090.jpg,NA,NA,NA,NA,NA,unpleasant,pleasant,NA,NA,NA,NA,NA,right,1965.79999995232,true,NA,NA,NA,NA,NA,NA,NA,NA
xJrZbh1h,3bakuke4akpi45n0y93n6zfn3q3r1f,3y5140z9d1tafi1dkqp6insmnmqpiw,xJrZbh1h,2020-0188,2021-10-31,02:29:52,05:30:35,NA,incomplete,false,true,NA,NA,4,22,NA,gray,m_s_016.jpg,NA,NA,NA,NA,NA,pleasant,unpleasant,NA,NA,NA,NA,NA,left,1351.59999990463,true,NA,NA,NA,NA,NA,NA,NA,NA
xJrZbh1h,3bakuke4akpi45n0y93n6zfn3q3r1f,3y5140z9d1tafi1dkqp6insmnmqpiw,xJrZbh1h,2020-0188,2021-10-31,02:29:52,05:30:35,NA,incomplete,false,true,NA,NA,4,23,NA,gray,m_s_034.jpg,NA,NA,NA,NA,NA,pleasant,unpleasant,NA,NA,NA,NA,NA,left,1944.70000004768,true,NA,NA,NA,NA,NA,NA,NA,NA
xJrZbh1h,3bakuke4akpi45n0y93n6zfn3q3r1f,3y5140z9d1tafi1dkqp6insmnmqpiw,xJrZbh1h,2020-0188,2021-10-31,02:29:52,05:30:35,NA,incomplete,false,true,NA,NA,4,24,NA,green,n_l_078.jpg,NA,NA,NA,NA,NA,pleasant,unpleasant,NA,NA,NA,NA,NA,right,2686.19999980927,true,NA,NA,NA,NA,NA,NA,NA,NA
xJrZbh1h,3bakuke4akpi45n0y93n6zfn3q3r1f,3y5140z9d1tafi1dkqp6insmnmqpiw,xJrZbh1h,2020-0188,2021-10-31,02:29:52,05:30:35,NA,incomplete,false,true,NA,NA,4,25,NA,green,n_l_021.jpg,NA,NA,NA,NA,NA,unpleasant,pleasant,NA,NA,NA,NA,NA,right,2164,true,NA,NA,NA,NA,NA,NA,NA,NA
xJrZbh1h,3bakuke4akpi45n0y93n6zfn3q3r1f,3y5140z9d1tafi1dkqp6insmnmqpiw,xJrZbh1h,2020-0188,2021-10-31,02:29:52,05:30:35,NA,incomplete,false,true,NA,NA,4,26,NA,green,m_s_066.jpg,NA,NA,NA,NA,NA,pleasant,unpleasant,NA,NA,NA,NA,NA,right,1306.79999995232,true,NA,NA,NA,NA,NA,NA,NA,NA
xJrZbh1h,3bakuke4akpi45n0y93n6zfn3q3r1f,3y5140z9d1tafi1dkqp6insmnmqpiw,xJrZbh1h,2020-0188,2021-10-31,02:29:52,05:30:35,NA,incomplete,false,true,NA,NA,4,27,NA,green,n_s_111.jpg,NA,NA,NA,NA,NA,pleasant,unpleasant,NA,NA,NA,NA,NA,right,1595.89999985695,true,NA,NA,NA,NA,NA,NA,NA,NA
xJrZbh1h,3bakuke4akpi45n0y93n6zfn3q3r1f,3y5140z9d1tafi1dkqp6insmnmqpiw,xJrZbh1h,2020-0188,2021-10-31,02:29:52,05:30:35,NA,incomplete,false,true,NA,NA,4,28,NA,green,n_l_048.jpg,NA,NA,NA,NA,NA,pleasant,unpleasant,NA,NA,NA,NA,NA,left,1230.20000004768,true,NA,NA,NA,NA,NA,NA,NA,NA
xJrZbh1h,3bakuke4akpi45n0y93n6zfn3q3r1f,3y5140z9d1tafi1dkqp6insmnmqpiw,xJrZbh1h,2020-0188,2021-10-31,02:29:52,05:30:35,NA,incomplete,false,true,NA,NA,4,29,NA,green,n_s_056.jpg,NA,NA,NA,NA,NA,unpleasant,pleasant,NA,NA,NA,NA,NA,left,1706.5,true,NA,NA,NA,NA,NA,NA,NA,NA
xJrZbh1h,3bakuke4akpi45n0y93n6zfn3q3r1f,3y5140z9d1tafi1dkqp6insmnmqpiw,xJrZbh1h,2020-0188,2021-10-31,02:29:52,05:30:35,NA,incomplete,false,true,NA,NA,4,30,NA,blue,n_l_061.jpg,NA,NA,NA,NA,NA,unpleasant,pleasant,NA,NA,NA,NA,NA,right,1370.59999990463,true,NA,NA,NA,NA,NA,NA,NA,NA
xJrZbh1h,3bakuke4akpi45n0y93n6zfn3q3r1f,3y5140z9d1tafi1dkqp6insmnmqpiw,xJrZbh1h,2020-0188,2021-10-31,02:29:52,05:30:35,NA,incomplete,false,true,NA,NA,4,31,NA,blue,m_l_006.jpg,NA,NA,NA,NA,NA,unpleasant,pleasant,NA,NA,NA,NA,NA,right,1081.09999990463,true,NA,NA,NA,NA,NA,NA,NA,NA
xJrZbh1h,3bakuke4akpi45n0y93n6zfn3q3r1f,3y5140z9d1tafi1dkqp6insmnmqpiw,xJrZbh1h,2020-0188,2021-10-31,02:29:52,05:30:35,NA,incomplete,false,true,NA,NA,4,32,NA,blue,n_l_069.jpg,NA,NA,NA,NA,NA,pleasant,unpleasant,NA,NA,NA,NA,NA,left,1245.5,true,NA,NA,NA,NA,NA,NA,NA,NA
xJrZbh1h,3bakuke4akpi45n0y93n6zfn3q3r1f,3y5140z9d1tafi1dkqp6insmnmqpiw,xJrZbh1h,2020-0188,2021-10-31,02:29:52,05:30:35,NA,incomplete,false,true,NA,NA,4,33,NA,blue,n_l_047.jpg,NA,NA,NA,NA,NA,pleasant,unpleasant,NA,NA,NA,NA,NA,left,1136.39999985695,true,NA,NA,NA,NA,NA,NA,NA,NA
xJrZbh1h,3bakuke4akpi45n0y93n6zfn3q3r1f,3y5140z9d1tafi1dkqp6insmnmqpiw,xJrZbh1h,2020-0188,2021-10-31,02:29:52,05:30:35,NA,incomplete,false,true,NA,NA,4,34,NA,blue,m_s_021.jpg,NA,NA,NA,NA,NA,unpleasant,pleasant,NA,NA,NA,NA,NA,right,2027.19999980927,true,NA,NA,NA,NA,NA,NA,NA,NA
xJrZbh1h,3bakuke4akpi45n0y93n6zfn3q3r1f,3y5140z9d1tafi1dkqp6insmnmqpiw,xJrZbh1h,2020-0188,2021-10-31,02:29:52,05:30:35,NA,incomplete,false,true,NA,NA,4,35,NA,blue,m_l_026.jpg,NA,NA,NA,NA,NA,pleasant,unpleasant,NA,NA,NA,NA,NA,right,1324.79999995232,true,NA,NA,NA,NA,NA,NA,NA,NA
xJrZbh1h,3bakuke4akpi45n0y93n6zfn3q3r1f,3y5140z9d1tafi1dkqp6insmnmqpiw,xJrZbh1h,2020-0188,2021-10-31,02:29:52,05:30:35,NA,incomplete,false,NA,NA,true,4,0,NA,NA,NA,left,n_s_056.jpg,green,blue,NA,NA,NA,NA,NA,NA,NA,NA,NA,NaN,NA,5211.799999952316,left,1,NA,NA,NA,NA,NA
xJrZbh1h,3bakuke4akpi45n0y93n6zfn3q3r1f,3y5140z9d1tafi1dkqp6insmnmqpiw,xJrZbh1h,2020-0188,2021-10-31,02:29:52,05:30:35,NA,incomplete,false,NA,NA,true,4,1,NA,NA,NA,left,n_l_048.jpg,green,blue,NA,NA,NA,NA,NA,NA,NA,NA,NA,NaN,NA,2644.7000000476837,left,1,NA,NA,NA,NA,NA
xJrZbh1h,3bakuke4akpi45n0y93n6zfn3q3r1f,3y5140z9d1tafi1dkqp6insmnmqpiw,xJrZbh1h,2020-0188,2021-10-31,02:29:52,05:30:35,NA,incomplete,false,NA,NA,true,4,2,NA,NA,NA,right,m_s_009.jpg,purple,orange,NA,NA,NA,NA,NA,NA,NA,NA,NA,NaN,NA,2619.300000190735,right,1,NA,NA,NA,NA,NA
xJrZbh1h,3bakuke4akpi45n0y93n6zfn3q3r1f,3y5140z9d1tafi1dkqp6insmnmqpiw,xJrZbh1h,2020-0188,2021-10-31,02:29:52,05:30:35,NA,incomplete,false,NA,NA,true,4,3,NA,NA,NA,left,m_s_098.jpg,orange,purple,NA,NA,NA,NA,NA,NA,NA,NA,NA,NaN,NA,2319.9000000953674,left,1,NA,NA,NA,NA,NA
xJrZbh1h,3bakuke4akpi45n0y93n6zfn3q3r1f,3y5140z9d1tafi1dkqp6insmnmqpiw,xJrZbh1h,2020-0188,2021-10-31,02:29:52,05:30:35,NA,incomplete,false,NA,NA,true,4,4,NA,NA,NA,left,n_l_069.jpg,blue,green,NA,NA,NA,NA,NA,NA,NA,NA,NA,NaN,NA,2904.7999999523163,left,1,NA,NA,NA,NA,NA
xJrZbh1h,3bakuke4akpi45n0y93n6zfn3q3r1f,3y5140z9d1tafi1dkqp6insmnmqpiw,xJrZbh1h,2020-0188,2021-10-31,02:29:52,05:30:35,NA,incomplete,false,NA,NA,true,4,5,NA,NA,NA,right,n_s_070.jpg,orange,purple,NA,NA,NA,NA,NA,NA,NA,NA,NA,NaN,NA,6140,right,1,NA,NA,NA,NA,NA
xJrZbh1h,3bakuke4akpi45n0y93n6zfn3q3r1f,3y5140z9d1tafi1dkqp6insmnmqpiw,xJrZbh1h,2020-0188,2021-10-31,02:29:52,05:30:35,NA,incomplete,false,NA,NA,true,4,6,NA,NA,NA,left,m_l_026.jpg,blue,green,NA,NA,NA,NA,NA,NA,NA,NA,NA,NaN,NA,3727.7999999523163,left,1,NA,NA,NA,NA,NA
xJrZbh1h,3bakuke4akpi45n0y93n6zfn3q3r1f,3y5140z9d1tafi1dkqp6insmnmqpiw,xJrZbh1h,2020-0188,2021-10-31,02:29:52,05:30:35,NA,incomplete,false,NA,NA,true,4,7,NA,NA,NA,left,n_s_022.jpg,black,gray,NA,NA,NA,NA,NA,NA,NA,NA,NA,NaN,NA,15055.900000095367,right,0,NA,NA,NA,NA,NA
xJrZbh1h,3bakuke4akpi45n0y93n6zfn3q3r1f,3y5140z9d1tafi1dkqp6insmnmqpiw,xJrZbh1h,2020-0188,2021-10-31,02:29:52,05:30:35,NA,incomplete,false,NA,NA,true,4,8,NA,NA,NA,left,m_s_022.jpg,purple,black,NA,NA,NA,NA,NA,NA,NA,NA,NA,NaN,NA,4898.599999904633,right,0,NA,NA,NA,NA,NA
xJrZbh1h,3bakuke4akpi45n0y93n6zfn3q3r1f,3y5140z9d1tafi1dkqp6insmnmqpiw,xJrZbh1h,2020-0188,2021-10-31,02:29:52,05:30:35,NA,incomplete,false,NA,NA,true,4,9,NA,NA,NA,right,m_l_006.jpg,green,blue,NA,NA,NA,NA,NA,NA,NA,NA,NA,NaN,NA,3408.2000000476837,right,1,NA,NA,NA,NA,NA
xJrZbh1h,3bakuke4akpi45n0y93n6zfn3q3r1f,3y5140z9d1tafi1dkqp6insmnmqpiw,xJrZbh1h,2020-0188,2021-10-31,02:29:52,05:30:35,NA,incomplete,false,NA,NA,true,4,10,NA,NA,NA,left,n_l_021.jpg,green,gray,NA,NA,NA,NA,NA,NA,NA,NA,NA,NaN,NA,2557.4000000953674,left,1,NA,NA,NA,NA,NA
xJrZbh1h,3bakuke4akpi45n0y93n6zfn3q3r1f,3y5140z9d1tafi1dkqp6insmnmqpiw,xJrZbh1h,2020-0188,2021-10-31,02:29:52,05:30:35,NA,incomplete,false,NA,NA,true,4,11,NA,NA,NA,right,m_l_044.jpg,black,purple,NA,NA,NA,NA,NA,NA,NA,NA,NA,NaN,NA,3098.699999809265,right,1,NA,NA,NA,NA,NA
xJrZbh1h,3bakuke4akpi45n0y93n6zfn3q3r1f,3y5140z9d1tafi1dkqp6insmnmqpiw,xJrZbh1h,2020-0188,2021-10-31,02:29:52,05:30:35,NA,incomplete,false,NA,NA,true,4,12,NA,NA,NA,left,m_s_034.jpg,gray,green,NA,NA,NA,NA,NA,NA,NA,NA,NA,NaN,NA,5628.099999904633,left,1,NA,NA,NA,NA,NA
xJrZbh1h,3bakuke4akpi45n0y93n6zfn3q3r1f,3y5140z9d1tafi1dkqp6insmnmqpiw,xJrZbh1h,2020-0188,2021-10-31,02:29:52,05:30:35,NA,incomplete,false,NA,NA,true,4,13,NA,NA,NA,right,m_s_066.jpg,blue,green,NA,NA,NA,NA,NA,NA,NA,NA,NA,NaN,NA,3457,right,1,NA,NA,NA,NA,NA
xJrZbh1h,3bakuke4akpi45n0y93n6zfn3q3r1f,3y5140z9d1tafi1dkqp6insmnmqpiw,xJrZbh1h,2020-0188,2021-10-31,02:29:52,05:30:35,NA,incomplete,false,NA,NA,true,4,14,NA,NA,NA,left,m_l_085.jpg,black,gray,NA,NA,NA,NA,NA,NA,NA,NA,NA,NaN,NA,2722.399999856949,left,1,NA,NA,NA,NA,NA
xJrZbh1h,3bakuke4akpi45n0y93n6zfn3q3r1f,3y5140z9d1tafi1dkqp6insmnmqpiw,xJrZbh1h,2020-0188,2021-10-31,02:29:52,05:30:35,NA,incomplete,false,NA,NA,true,4,15,NA,NA,NA,right,n_l_013.jpg,purple,orange,NA,NA,NA,NA,NA,NA,NA,NA,NA,NaN,NA,4993,right,1,NA,NA,NA,NA,NA
xJrZbh1h,3bakuke4akpi45n0y93n6zfn3q3r1f,3y5140z9d1tafi1dkqp6insmnmqpiw,xJrZbh1h,2020-0188,2021-10-31,02:29:52,05:30:35,NA,incomplete,false,NA,NA,true,4,16,NA,NA,NA,left,m_s_016.jpg,gray,green,NA,NA,NA,NA,NA,NA,NA,NA,NA,NaN,NA,3595.5999999046326,left,1,NA,NA,NA,NA,NA
xJrZbh1h,3bakuke4akpi45n0y93n6zfn3q3r1f,3y5140z9d1tafi1dkqp6insmnmqpiw,xJrZbh1h,2020-0188,2021-10-31,02:29:52,05:30:35,NA,incomplete,false,NA,NA,true,4,17,NA,NA,NA,right,m_s_071.jpg,orange,purple,NA,NA,NA,NA,NA,NA,NA,NA,NA,NaN,NA,3786.199999809265,right,1,NA,NA,NA,NA,NA
xJrZbh1h,3bakuke4akpi45n0y93n6zfn3q3r1f,3y5140z9d1tafi1dkqp6insmnmqpiw,xJrZbh1h,2020-0188,2021-10-31,02:29:52,05:30:35,NA,incomplete,false,NA,NA,true,4,18,NA,NA,NA,right,m_l_094.jpg,black,gray,NA,NA,NA,NA,NA,NA,NA,NA,NA,NaN,NA,4193.399999856949,left,0,NA,NA,NA,NA,NA
xJrZbh1h,3bakuke4akpi45n0y93n6zfn3q3r1f,3y5140z9d1tafi1dkqp6insmnmqpiw,xJrZbh1h,2020-0188,2021-10-31,02:29:52,05:30:35,NA,incomplete,false,NA,NA,true,4,19,NA,NA,NA,left,n_l_072.jpg,gray,green,NA,NA,NA,NA,NA,NA,NA,NA,NA,NaN,NA,4458.200000047684,left,1,NA,NA,NA,NA,NA
xJrZbh1h,3bakuke4akpi45n0y93n6zfn3q3r1f,3y5140z9d1tafi1dkqp6insmnmqpiw,xJrZbh1h,2020-0188,2021-10-31,02:29:52,05:30:35,NA,incomplete,false,NA,NA,true,4,20,NA,NA,NA,left,n_s_116.jpg,black,purple,NA,NA,NA,NA,NA,NA,NA,NA,NA,NaN,NA,2813.5999999046326,left,1,NA,NA,NA,NA,NA
xJrZbh1h,3bakuke4akpi45n0y93n6zfn3q3r1f,3y5140z9d1tafi1dkqp6insmnmqpiw,xJrZbh1h,2020-0188,2021-10-31,02:29:52,05:30:35,NA,incomplete,false,NA,NA,true,4,21,NA,NA,NA,right,n_l_058.jpg,purple,black,NA,NA,NA,NA,NA,NA,NA,NA,NA,NaN,NA,3576.5,left,0,NA,NA,NA,NA,NA
xJrZbh1h,3bakuke4akpi45n0y93n6zfn3q3r1f,3y5140z9d1tafi1dkqp6insmnmqpiw,xJrZbh1h,2020-0188,2021-10-31,02:29:52,05:30:35,NA,incomplete,false,NA,true,NA,4,0,NA,NA,NA,left,NA,NA,NA,present,NA,NA,n_l_021.jpg,green,n_s_056.jpg,green,within,NA,NaN,NA,NA,NA,NA,right,4145,0,3,6669.5
xJrZbh1h,3bakuke4akpi45n0y93n6zfn3q3r1f,3y5140z9d1tafi1dkqp6insmnmqpiw,xJrZbh1h,2020-0188,2021-10-31,02:29:52,05:30:35,NA,incomplete,false,NA,true,NA,4,1,NA,NA,NA,right,NA,NA,NA,present,NA,NA,n_s_022.jpg,black,n_l_058.jpg,black,within,NA,NaN,NA,NA,NA,NA,left,3993.5999999046326,0,2,7818.5
xJrZbh1h,3bakuke4akpi45n0y93n6zfn3q3r1f,3y5140z9d1tafi1dkqp6insmnmqpiw,xJrZbh1h,2020-0188,2021-10-31,02:29:52,05:30:35,NA,incomplete,false,NA,true,NA,4,2,NA,NA,NA,right,NA,NA,NA,present,NA,NA,m_s_034.jpg,gray,m_l_094.jpg,gray,within,NA,NaN,NA,NA,NA,NA,right,4132.5,1,1,6032.400000095367
xJrZbh1h,3bakuke4akpi45n0y93n6zfn3q3r1f,3y5140z9d1tafi1dkqp6insmnmqpiw,xJrZbh1h,2020-0188,2021-10-31,02:29:52,05:30:35,NA,incomplete,false,NA,true,NA,4,3,NA,NA,NA,left,NA,NA,NA,present,NA,NA,m_l_006.jpg,blue,m_l_026.jpg,blue,within,NA,NaN,NA,NA,NA,NA,right,2393.0999999046326,0,0,2370.7000000476837
xJrZbh1h,3bakuke4akpi45n0y93n6zfn3q3r1f,3y5140z9d1tafi1dkqp6insmnmqpiw,xJrZbh1h,2020-0188,2021-10-31,02:29:52,05:30:35,NA,incomplete,false,NA,true,NA,4,4,NA,NA,NA,right,NA,NA,NA,present,NA,NA,m_s_071.jpg,purple,n_s_070.jpg,purple,within,NA,NaN,NA,NA,NA,NA,right,6016.400000095367,1,3,6863.600000143051
xJrZbh1h,3bakuke4akpi45n0y93n6zfn3q3r1f,3y5140z9d1tafi1dkqp6insmnmqpiw,xJrZbh1h,2020-0188,2021-10-31,02:29:52,05:30:35,NA,incomplete,false,NA,true,NA,4,5,NA,NA,NA,left,NA,NA,NA,present,NA,NA,m_l_085.jpg,black,n_l_072.jpg,gray,between,NA,NaN,NA,NA,NA,NA,left,3978.7000000476837,1,2,5321.799999952316
xJrZbh1h,3bakuke4akpi45n0y93n6zfn3q3r1f,3y5140z9d1tafi1dkqp6insmnmqpiw,xJrZbh1h,2020-0188,2021-10-31,02:29:52,05:30:35,NA,incomplete,false,NA,true,NA,4,6,NA,NA,NA,right,NA,NA,NA,present,NA,NA,n_s_116.jpg,black,m_l_044.jpg,purple,between,NA,NaN,NA,NA,NA,NA,right,8514.199999809265,1,1,7303.399999856949
xJrZbh1h,3bakuke4akpi45n0y93n6zfn3q3r1f,3y5140z9d1tafi1dkqp6insmnmqpiw,xJrZbh1h,2020-0188,2021-10-31,02:29:52,05:30:35,NA,incomplete,false,NA,true,NA,4,7,NA,NA,NA,left,NA,NA,NA,present,NA,NA,m_s_016.jpg,gray,m_s_066.jpg,green,between,NA,NaN,NA,NA,NA,NA,right,3471.699999809265,0,3,1926.7999999523163
xJrZbh1h,3bakuke4akpi45n0y93n6zfn3q3r1f,3y5140z9d1tafi1dkqp6insmnmqpiw,xJrZbh1h,2020-0188,2021-10-31,02:29:52,05:30:35,NA,incomplete,false,NA,true,NA,4,8,NA,NA,NA,right,NA,NA,NA,present,NA,NA,n_l_069.jpg,blue,n_l_048.jpg,green,between,NA,NaN,NA,NA,NA,NA,left,3131.7000000476837,0,1,2865.2999999523163
xJrZbh1h,3bakuke4akpi45n0y93n6zfn3q3r1f,3y5140z9d1tafi1dkqp6insmnmqpiw,xJrZbh1h,2020-0188,2021-10-31,02:29:52,05:30:35,NA,incomplete,false,NA,true,NA,4,9,NA,NA,NA,right,NA,NA,NA,present,NA,NA,m_s_022.jpg,purple,m_s_098.jpg,orange,between,NA,NaN,NA,NA,NA,NA,right,8973.100000143051,1,0,3084.300000190735
xJrZbh1h,3bakuke4akpi45n0y93n6zfn3q3r1f,3y5140z9d1tafi1dkqp6insmnmqpiw,xJrZbh1h,2020-0188,2021-10-31,02:29:52,05:30:35,NA,incomplete,false,NA,true,NA,4,10,NA,NA,NA,left,NA,NA,NA,present,NA,NA,m_s_009.jpg,orange,n_l_013.jpg,orange,within,NA,NaN,NA,NA,NA,NA,left,7094.700000047684,1,0,1439.2999999523163
xJrZbh1h,3bakuke4akpi45n0y93n6zfn3q3r1f,3y5140z9d1tafi1dkqp6insmnmqpiw,xJrZbh1h,2020-0188,2021-10-31,02:29:52,05:30:35,NA,incomplete,false,true,NA,NA,5,0,NA,blue,n_s_008.jpg,NA,NA,NA,NA,NA,pleasant,unpleasant,NA,NA,NA,NA,NA,right,2302.19999980927,true,NA,NA,NA,NA,NA,NA,NA,NA
xJrZbh1h,3bakuke4akpi45n0y93n6zfn3q3r1f,3y5140z9d1tafi1dkqp6insmnmqpiw,xJrZbh1h,2020-0188,2021-10-31,02:29:52,05:30:35,NA,incomplete,false,true,NA,NA,5,1,NA,blue,m_l_050.jpg,NA,NA,NA,NA,NA,pleasant,unpleasant,NA,NA,NA,NA,NA,right,1418,true,NA,NA,NA,NA,NA,NA,NA,NA
xJrZbh1h,3bakuke4akpi45n0y93n6zfn3q3r1f,3y5140z9d1tafi1dkqp6insmnmqpiw,xJrZbh1h,2020-0188,2021-10-31,02:29:52,05:30:35,NA,incomplete,false,true,NA,NA,5,2,NA,blue,m_l_008.jpg,NA,NA,NA,NA,NA,unpleasant,pleasant,NA,NA,NA,NA,NA,right,1568.40000009537,true,NA,NA,NA,NA,NA,NA,NA,NA
xJrZbh1h,3bakuke4akpi45n0y93n6zfn3q3r1f,3y5140z9d1tafi1dkqp6insmnmqpiw,xJrZbh1h,2020-0188,2021-10-31,02:29:52,05:30:35,NA,incomplete,false,true,NA,NA,5,3,NA,blue,n_l_028.jpg,NA,NA,NA,NA,NA,pleasant,unpleasant,NA,NA,NA,NA,NA,left,1902.10000014305,true,NA,NA,NA,NA,NA,NA,NA,NA
xJrZbh1h,3bakuke4akpi45n0y93n6zfn3q3r1f,3y5140z9d1tafi1dkqp6insmnmqpiw,xJrZbh1h,2020-0188,2021-10-31,02:29:52,05:30:35,NA,incomplete,false,true,NA,NA,5,4,NA,blue,m_s_060.jpg,NA,NA,NA,NA,NA,unpleasant,pleasant,NA,NA,NA,NA,NA,right,1104.5,true,NA,NA,NA,NA,NA,NA,NA,NA
xJrZbh1h,3bakuke4akpi45n0y93n6zfn3q3r1f,3y5140z9d1tafi1dkqp6insmnmqpiw,xJrZbh1h,2020-0188,2021-10-31,02:29:52,05:30:35,NA,incomplete,false,true,NA,NA,5,5,NA,blue,n_l_007.jpg,NA,NA,NA,NA,NA,pleasant,unpleasant,NA,NA,NA,NA,NA,right,882.200000047684,true,NA,NA,NA,NA,NA,NA,NA,NA
xJrZbh1h,3bakuke4akpi45n0y93n6zfn3q3r1f,3y5140z9d1tafi1dkqp6insmnmqpiw,xJrZbh1h,2020-0188,2021-10-31,02:29:52,05:30:35,NA,incomplete,false,true,NA,NA,5,6,NA,white,n_l_004.jpg,NA,NA,NA,NA,NA,unpleasant,pleasant,NA,NA,NA,NA,NA,left,2301.79999995232,true,NA,NA,NA,NA,NA,NA,NA,NA
xJrZbh1h,3bakuke4akpi45n0y93n6zfn3q3r1f,3y5140z9d1tafi1dkqp6insmnmqpiw,xJrZbh1h,2020-0188,2021-10-31,02:29:52,05:30:35,NA,incomplete,false,true,NA,NA,5,7,NA,white,m_l_076.jpg,NA,NA,NA,NA,NA,pleasant,unpleasant,NA,NA,NA,NA,NA,left,1468.60000014305,true,NA,NA,NA,NA,NA,NA,NA,NA
xJrZbh1h,3bakuke4akpi45n0y93n6zfn3q3r1f,3y5140z9d1tafi1dkqp6insmnmqpiw,xJrZbh1h,2020-0188,2021-10-31,02:29:52,05:30:35,NA,incomplete,false,true,NA,NA,5,8,NA,white,m_s_042.jpg,NA,NA,NA,NA,NA,unpleasant,pleasant,NA,NA,NA,NA,NA,left,1555.29999995232,true,NA,NA,NA,NA,NA,NA,NA,NA
xJrZbh1h,3bakuke4akpi45n0y93n6zfn3q3r1f,3y5140z9d1tafi1dkqp6insmnmqpiw,xJrZbh1h,2020-0188,2021-10-31,02:29:52,05:30:35,NA,incomplete,false,true,NA,NA,5,9,NA,white,n_s_099.jpg,NA,NA,NA,NA,NA,unpleasant,pleasant,NA,NA,NA,NA,NA,left,2563.60000014305,true,NA,NA,NA,NA,NA,NA,NA,NA
xJrZbh1h,3bakuke4akpi45n0y93n6zfn3q3r1f,3y5140z9d1tafi1dkqp6insmnmqpiw,xJrZbh1h,2020-0188,2021-10-31,02:29:52,05:30:35,NA,incomplete,false,true,NA,NA,5,10,NA,white,n_l_019.jpg,NA,NA,NA,NA,NA,unpleasant,pleasant,NA,NA,NA,NA,NA,left,1086.70000004768,true,NA,NA,NA,NA,NA,NA,NA,NA
xJrZbh1h,3bakuke4akpi45n0y93n6zfn3q3r1f,3y5140z9d1tafi1dkqp6insmnmqpiw,xJrZbh1h,2020-0188,2021-10-31,02:29:52,05:30:35,NA,incomplete,false,true,NA,NA,5,11,NA,white,n_l_016.jpg,NA,NA,NA,NA,NA,pleasant,unpleasant,NA,NA,NA,NA,NA,left,1359.60000014305,true,NA,NA,NA,NA,NA,NA,NA,NA
xJrZbh1h,3bakuke4akpi45n0y93n6zfn3q3r1f,3y5140z9d1tafi1dkqp6insmnmqpiw,xJrZbh1h,2020-0188,2021-10-31,02:29:52,05:30:35,NA,incomplete,false,true,NA,NA,5,12,NA,yellow,m_s_011.jpg,NA,NA,NA,NA,NA,unpleasant,pleasant,NA,NA,NA,NA,NA,right,1075.5,true,NA,NA,NA,NA,NA,NA,NA,NA
xJrZbh1h,3bakuke4akpi45n0y93n6zfn3q3r1f,3y5140z9d1tafi1dkqp6insmnmqpiw,xJrZbh1h,2020-0188,2021-10-31,02:29:52,05:30:35,NA,incomplete,false,true,NA,NA,5,13,NA,yellow,n_s_110.jpg,NA,NA,NA,NA,NA,pleasant,unpleasant,NA,NA,NA,NA,NA,left,1400.39999985695,true,NA,NA,NA,NA,NA,NA,NA,NA
xJrZbh1h,3bakuke4akpi45n0y93n6zfn3q3r1f,3y5140z9d1tafi1dkqp6insmnmqpiw,xJrZbh1h,2020-0188,2021-10-31,02:29:52,05:30:35,NA,incomplete,false,true,NA,NA,5,14,NA,yellow,m_l_018.jpg,NA,NA,NA,NA,NA,unpleasant,pleasant,NA,NA,NA,NA,NA,right,897.299999952316,true,NA,NA,NA,NA,NA,NA,NA,NA
xJrZbh1h,3bakuke4akpi45n0y93n6zfn3q3r1f,3y5140z9d1tafi1dkqp6insmnmqpiw,xJrZbh1h,2020-0188,2021-10-31,02:29:52,05:30:35,NA,incomplete,false,true,NA,NA,5,15,NA,yellow,n_s_095.jpg,NA,NA,NA,NA,NA,pleasant,unpleasant,NA,NA,NA,NA,NA,left,1657.79999995232,true,NA,NA,NA,NA,NA,NA,NA,NA
xJrZbh1h,3bakuke4akpi45n0y93n6zfn3q3r1f,3y5140z9d1tafi1dkqp6insmnmqpiw,xJrZbh1h,2020-0188,2021-10-31,02:29:52,05:30:35,NA,incomplete,false,true,NA,NA,5,16,NA,yellow,n_s_082.jpg,NA,NA,NA,NA,NA,pleasant,unpleasant,NA,NA,NA,NA,NA,right,1657.29999995232,true,NA,NA,NA,NA,NA,NA,NA,NA
