workerId,hitId,assignmentId,subject,studyid,exp_date,exp_start,exp_end,time_start,time_end,practice,encoding,memory,association,block,trial,event_order,event,stim,answer,object,left_context,right_context,context_type,label_left,label_right,left_image,left_event,right_image,right_event,condition,response,response_time,response_acc,association_response_time,association_response,association_acc,order_response,order_response_time,order_acc,distance_response,distance_response_time
9I1JS1d8,3087lxlj7ptluqx9bvztb5iuvan0fr,3ydtzai2w1tdqjjwezccnq05fpv416,9I1JS1d8,2020-0188,2021-10-31,10:40:59,11:40:52,NA,incomplete,true,true,NA,NA,0,0,NA,purple,m_l_104.jpg,NA,NA,NA,NA,NA,unpleasant,pleasant,NA,NA,NA,NA,NA,right,1027.70000000298,true,NA,NA,NA,NA,NA,NA,NA,NA
9I1JS1d8,3087lxlj7ptluqx9bvztb5iuvan0fr,3ydtzai2w1tdqjjwezccnq05fpv416,9I1JS1d8,2020-0188,2021-10-31,10:40:59,11:40:52,NA,incomplete,true,true,NA,NA,0,1,NA,purple,m_l_028.jpg,NA,NA,NA,NA,NA,pleasant,unpleasant,NA,NA,NA,NA,NA,left,1168,true,NA,NA,NA,NA,NA,NA,NA,NA
9I1JS1d8,3087lxlj7ptluqx9bvztb5iuvan0fr,3ydtzai2w1tdqjjwezccnq05fpv416,9I1JS1d8,2020-0188,2021-10-31,10:40:59,11:40:52,NA,incomplete,true,true,NA,NA,0,2,NA,purple,n_s_043.jpg,NA,NA,NA,NA,NA,unpleasant,pleasant,NA,NA,NA,NA,NA,right,1277.5,true,NA,NA,NA,NA,NA,NA,NA,NA
9I1JS1d8,3087lxlj7ptluqx9bvztb5iuvan0fr,3ydtzai2w1tdqjjwezccnq05fpv416,9I1JS1d8,2020-0188,2021-10-31,10:40:59,11:40:52,NA,incomplete,true,true,NA,NA,0,3,NA,purple,n_l_020.jpg,NA,NA,NA,NA,NA,pleasant,unpleasant,NA,NA,NA,NA,NA,left,1094.19999999553,true,NA,NA,NA,NA,NA,NA,NA,NA
9I1JS1d8,3087lxlj7ptluqx9bvztb5iuvan0fr,3ydtzai2w1tdqjjwezccnq05fpv416,9I1JS1d8,2020-0188,2021-10-31,10:40:59,11:40:52,NA,incomplete,true,true,NA,NA,0,4,NA,purple,n_l_086.jpg,NA,NA,NA,NA,NA,pleasant,unpleasant,NA,NA,NA,NA,NA,left,1344.60000000149,true,NA,NA,NA,NA,NA,NA,NA,NA
9I1JS1d8,3087lxlj7ptluqx9bvztb5iuvan0fr,3ydtzai2w1tdqjjwezccnq05fpv416,9I1JS1d8,2020-0188,2021-10-31,10:40:59,11:40:52,NA,incomplete,true,true,NA,NA,0,5,NA,purple,m_l_007.jpg,NA,NA,NA,NA,NA,pleasant,unpleasant,NA,NA,NA,NA,NA,left,1403.70000000298,true,NA,NA,NA,NA,NA,NA,NA,NA
9I1JS1d8,3087lxlj7ptluqx9bvztb5iuvan0fr,3ydtzai2w1tdqjjwezccnq05fpv416,9I1JS1d8,2020-0188,2021-10-31,10:40:59,11:40:52,NA,incomplete,true,true,NA,NA,0,6,NA,white,m_l_061.jpg,NA,NA,NA,NA,NA,unpleasant,pleasant,NA,NA,NA,NA,NA,right,1241.40000000596,true,NA,NA,NA,NA,NA,NA,NA,NA
9I1JS1d8,3087lxlj7ptluqx9bvztb5iuvan0fr,3ydtzai2w1tdqjjwezccnq05fpv416,9I1JS1d8,2020-0188,2021-10-31,10:40:59,11:40:52,NA,incomplete,true,true,NA,NA,0,7,NA,white,m_l_084.jpg,NA,NA,NA,NA,NA,pleasant,unpleasant,NA,NA,NA,NA,NA,left,1182.09999999404,true,NA,NA,NA,NA,NA,NA,NA,NA
9I1JS1d8,3087lxlj7ptluqx9bvztb5iuvan0fr,3ydtzai2w1tdqjjwezccnq05fpv416,9I1JS1d8,2020-0188,2021-10-31,10:40:59,11:40:52,NA,incomplete,true,true,NA,NA,0,8,NA,white,n_s_094.jpg,NA,NA,NA,NA,NA,pleasant,unpleasant,NA,NA,NA,NA,NA,left,930.5,true,NA,NA,NA,NA,NA,NA,NA,NA
9I1JS1d8,3087lxlj7ptluqx9bvztb5iuvan0fr,3ydtzai2w1tdqjjwezccnq05fpv416,9I1JS1d8,2020-0188,2021-10-31,10:40:59,11:40:52,NA,incomplete,true,true,NA,NA,0,9,NA,white,n_l_009.jpg,NA,NA,NA,NA,NA,unpleasant,pleasant,NA,NA,NA,NA,NA,right,1178.19999999553,true,NA,NA,NA,NA,NA,NA,NA,NA
9I1JS1d8,3087lxlj7ptluqx9bvztb5iuvan0fr,3ydtzai2w1tdqjjwezccnq05fpv416,9I1JS1d8,2020-0188,2021-10-31,10:40:59,11:40:52,NA,incomplete,true,true,NA,NA,0,10,NA,white,m_l_059.jpg,NA,NA,NA,NA,NA,unpleasant,pleasant,NA,NA,NA,NA,NA,left,1492.30000000447,true,NA,NA,NA,NA,NA,NA,NA,NA
9I1JS1d8,3087lxlj7ptluqx9bvztb5iuvan0fr,3ydtzai2w1tdqjjwezccnq05fpv416,9I1JS1d8,2020-0188,2021-10-31,10:40:59,11:40:52,NA,incomplete,true,true,NA,NA,0,11,NA,white,n_s_113.jpg,NA,NA,NA,NA,NA,unpleasant,pleasant,NA,NA,NA,NA,NA,left,1163.09999999404,true,NA,NA,NA,NA,NA,NA,NA,NA
9I1JS1d8,3087lxlj7ptluqx9bvztb5iuvan0fr,3ydtzai2w1tdqjjwezccnq05fpv416,9I1JS1d8,2020-0188,2021-10-31,10:40:59,11:40:52,NA,incomplete,true,true,NA,NA,0,12,NA,gray,m_s_003.jpg,NA,NA,NA,NA,NA,pleasant,unpleasant,NA,NA,NA,NA,NA,left,1888.09999999404,true,NA,NA,NA,NA,NA,NA,NA,NA
9I1JS1d8,3087lxlj7ptluqx9bvztb5iuvan0fr,3ydtzai2w1tdqjjwezccnq05fpv416,9I1JS1d8,2020-0188,2021-10-31,10:40:59,11:40:52,NA,incomplete,true,true,NA,NA,0,13,NA,gray,n_l_040.jpg,NA,NA,NA,NA,NA,unpleasant,pleasant,NA,NA,NA,NA,NA,left,1080.20000000298,true,NA,NA,NA,NA,NA,NA,NA,NA
9I1JS1d8,3087lxlj7ptluqx9bvztb5iuvan0fr,3ydtzai2w1tdqjjwezccnq05fpv416,9I1JS1d8,2020-0188,2021-10-31,10:40:59,11:40:52,NA,incomplete,true,true,NA,NA,0,14,NA,gray,n_s_031.jpg,NA,NA,NA,NA,NA,pleasant,unpleasant,NA,NA,NA,NA,NA,right,1213.20000000298,true,NA,NA,NA,NA,NA,NA,NA,NA
9I1JS1d8,3087lxlj7ptluqx9bvztb5iuvan0fr,3ydtzai2w1tdqjjwezccnq05fpv416,9I1JS1d8,2020-0188,2021-10-31,10:40:59,11:40:52,NA,incomplete,true,true,NA,NA,0,15,NA,gray,n_s_066.jpg,NA,NA,NA,NA,NA,unpleasant,pleasant,NA,NA,NA,NA,NA,right,1204.80000000447,true,NA,NA,NA,NA,NA,NA,NA,NA
9I1JS1d8,3087lxlj7ptluqx9bvztb5iuvan0fr,3ydtzai2w1tdqjjwezccnq05fpv416,9I1JS1d8,2020-0188,2021-10-31,10:40:59,11:40:52,NA,incomplete,true,true,NA,NA,0,16,NA,gray,n_s_027.jpg,NA,NA,NA,NA,NA,pleasant,unpleasant,NA,NA,NA,NA,NA,right,1172.60000000149,true,NA,NA,NA,NA,NA,NA,NA,NA
9I1JS1d8,3087lxlj7ptluqx9bvztb5iuvan0fr,3ydtzai2w1tdqjjwezccnq05fpv416,9I1JS1d8,2020-0188,2021-10-31,10:40:59,11:40:52,NA,incomplete,true,true,NA,NA,0,17,NA,gray,m_s_037.jpg,NA,NA,NA,NA,NA,pleasant,unpleasant,NA,NA,NA,NA,NA,left,878.30000000447,true,NA,NA,NA,NA,NA,NA,NA,NA
9I1JS1d8,3087lxlj7ptluqx9bvztb5iuvan0fr,3ydtzai2w1tdqjjwezccnq05fpv416,9I1JS1d8,2020-0188,2021-10-31,10:40:59,11:40:52,NA,incomplete,true,true,NA,NA,0,18,NA,red,n_l_006.jpg,NA,NA,NA,NA,NA,pleasant,unpleasant,NA,NA,NA,NA,NA,left,1360.5,true,NA,NA,NA,NA,NA,NA,NA,NA
9I1JS1d8,3087lxlj7ptluqx9bvztb5iuvan0fr,3ydtzai2w1tdqjjwezccnq05fpv416,9I1JS1d8,2020-0188,2021-10-31,10:40:59,11:40:52,NA,incomplete,true,true,NA,NA,0,19,NA,red,m_s_041.jpg,NA,NA,NA,NA,NA,pleasant,unpleasant,NA,NA,NA,NA,NA,left,887.89999999851,true,NA,NA,NA,NA,NA,NA,NA,NA
9I1JS1d8,3087lxlj7ptluqx9bvztb5iuvan0fr,3ydtzai2w1tdqjjwezccnq05fpv416,9I1JS1d8,2020-0188,2021-10-31,10:40:59,11:40:52,NA,incomplete,true,true,NA,NA,0,20,NA,red,m_l_045.jpg,NA,NA,NA,NA,NA,unpleasant,pleasant,NA,NA,NA,NA,NA,left,1929.79999999702,true,NA,NA,NA,NA,NA,NA,NA,NA
9I1JS1d8,3087lxlj7ptluqx9bvztb5iuvan0fr,3ydtzai2w1tdqjjwezccnq05fpv416,9I1JS1d8,2020-0188,2021-10-31,10:40:59,11:40:52,NA,incomplete,true,true,NA,NA,0,21,NA,red,n_s_108.jpg,NA,NA,NA,NA,NA,unpleasant,pleasant,NA,NA,NA,NA,NA,left,919.39999999851,true,NA,NA,NA,NA,NA,NA,NA,NA
9I1JS1d8,3087lxlj7ptluqx9bvztb5iuvan0fr,3ydtzai2w1tdqjjwezccnq05fpv416,9I1JS1d8,2020-0188,2021-10-31,10:40:59,11:40:52,NA,incomplete,true,true,NA,NA,0,22,NA,red,m_s_063.jpg,NA,NA,NA,NA,NA,unpleasant,pleasant,NA,NA,NA,NA,NA,left,1319.89999999851,true,NA,NA,NA,NA,NA,NA,NA,NA
9I1JS1d8,3087lxlj7ptluqx9bvztb5iuvan0fr,3ydtzai2w1tdqjjwezccnq05fpv416,9I1JS1d8,2020-0188,2021-10-31,10:40:59,11:40:52,NA,incomplete,true,true,NA,NA,0,23,NA,red,m_l_064.jpg,NA,NA,NA,NA,NA,pleasant,unpleasant,NA,NA,NA,NA,NA,right,1373.39999999851,true,NA,NA,NA,NA,NA,NA,NA,NA
9I1JS1d8,3087lxlj7ptluqx9bvztb5iuvan0fr,3ydtzai2w1tdqjjwezccnq05fpv416,9I1JS1d8,2020-0188,2021-10-31,10:40:59,11:40:52,NA,incomplete,true,true,NA,NA,0,24,NA,black,n_s_063.jpg,NA,NA,NA,NA,NA,unpleasant,pleasant,NA,NA,NA,NA,NA,left,1565.39999999851,true,NA,NA,NA,NA,NA,NA,NA,NA
9I1JS1d8,3087lxlj7ptluqx9bvztb5iuvan0fr,3ydtzai2w1tdqjjwezccnq05fpv416,9I1JS1d8,2020-0188,2021-10-31,10:40:59,11:40:52,NA,incomplete,true,true,NA,NA,0,25,NA,black,m_s_093.jpg,NA,NA,NA,NA,NA,pleasant,unpleasant,NA,NA,NA,NA,NA,left,945.29999999702,true,NA,NA,NA,NA,NA,NA,NA,NA
9I1JS1d8,3087lxlj7ptluqx9bvztb5iuvan0fr,3ydtzai2w1tdqjjwezccnq05fpv416,9I1JS1d8,2020-0188,2021-10-31,10:40:59,11:40:52,NA,incomplete,true,true,NA,NA,0,26,NA,black,n_l_005.jpg,NA,NA,NA,NA,NA,unpleasant,pleasant,NA,NA,NA,NA,NA,right,1292.40000000596,true,NA,NA,NA,NA,NA,NA,NA,NA
9I1JS1d8,3087lxlj7ptluqx9bvztb5iuvan0fr,3ydtzai2w1tdqjjwezccnq05fpv416,9I1JS1d8,2020-0188,2021-10-31,10:40:59,11:40:52,NA,incomplete,true,true,NA,NA,0,27,NA,black,m_s_085.jpg,NA,NA,NA,NA,NA,pleasant,unpleasant,NA,NA,NA,NA,NA,right,1422.20000000298,true,NA,NA,NA,NA,NA,NA,NA,NA
9I1JS1d8,3087lxlj7ptluqx9bvztb5iuvan0fr,3ydtzai2w1tdqjjwezccnq05fpv416,9I1JS1d8,2020-0188,2021-10-31,10:40:59,11:40:52,NA,incomplete,true,true,NA,NA,0,28,NA,black,m_l_038.jpg,NA,NA,NA,NA,NA,unpleasant,pleasant,NA,NA,NA,NA,NA,left,1296.10000000149,true,NA,NA,NA,NA,NA,NA,NA,NA
9I1JS1d8,3087lxlj7ptluqx9bvztb5iuvan0fr,3ydtzai2w1tdqjjwezccnq05fpv416,9I1JS1d8,2020-0188,2021-10-31,10:40:59,11:40:52,NA,incomplete,true,true,NA,NA,0,29,NA,black,m_s_058.jpg,NA,NA,NA,NA,NA,unpleasant,pleasant,NA,NA,NA,NA,NA,right,1399.5,true,NA,NA,NA,NA,NA,NA,NA,NA
9I1JS1d8,3087lxlj7ptluqx9bvztb5iuvan0fr,3ydtzai2w1tdqjjwezccnq05fpv416,9I1JS1d8,2020-0188,2021-10-31,10:40:59,11:40:52,NA,incomplete,true,true,NA,NA,0,30,NA,yellow,m_l_041.jpg,NA,NA,NA,NA,NA,unpleasant,pleasant,NA,NA,NA,NA,NA,right,1356.69999999553,true,NA,NA,NA,NA,NA,NA,NA,NA
9I1JS1d8,3087lxlj7ptluqx9bvztb5iuvan0fr,3ydtzai2w1tdqjjwezccnq05fpv416,9I1JS1d8,2020-0188,2021-10-31,10:40:59,11:40:52,NA,incomplete,true,true,NA,NA,0,31,NA,yellow,m_s_067.jpg,NA,NA,NA,NA,NA,pleasant,unpleasant,NA,NA,NA,NA,NA,right,1447.89999999851,true,NA,NA,NA,NA,NA,NA,NA,NA
9I1JS1d8,3087lxlj7ptluqx9bvztb5iuvan0fr,3ydtzai2w1tdqjjwezccnq05fpv416,9I1JS1d8,2020-0188,2021-10-31,10:40:59,11:40:52,NA,incomplete,true,true,NA,NA,0,32,NA,yellow,n_s_085.jpg,NA,NA,NA,NA,NA,unpleasant,pleasant,NA,NA,NA,NA,NA,left,1675.5,true,NA,NA,NA,NA,NA,NA,NA,NA
9I1JS1d8,3087lxlj7ptluqx9bvztb5iuvan0fr,3ydtzai2w1tdqjjwezccnq05fpv416,9I1JS1d8,2020-0188,2021-10-31,10:40:59,11:40:52,NA,incomplete,true,true,NA,NA,0,33,NA,yellow,m_l_114.jpg,NA,NA,NA,NA,NA,pleasant,unpleasant,NA,NA,NA,NA,NA,left,868,true,NA,NA,NA,NA,NA,NA,NA,NA
9I1JS1d8,3087lxlj7ptluqx9bvztb5iuvan0fr,3ydtzai2w1tdqjjwezccnq05fpv416,9I1JS1d8,2020-0188,2021-10-31,10:40:59,11:40:52,NA,incomplete,true,true,NA,NA,0,34,NA,yellow,m_s_076.jpg,NA,NA,NA,NA,NA,unpleasant,pleasant,NA,NA,NA,NA,NA,right,1264.5,true,NA,NA,NA,NA,NA,NA,NA,NA
9I1JS1d8,3087lxlj7ptluqx9bvztb5iuvan0fr,3ydtzai2w1tdqjjwezccnq05fpv416,9I1JS1d8,2020-0188,2021-10-31,10:40:59,11:40:52,NA,incomplete,true,true,NA,NA,0,35,NA,yellow,m_l_014.jpg,NA,NA,NA,NA,NA,unpleasant,pleasant,NA,NA,NA,NA,NA,left,1465.79999999702,true,NA,NA,NA,NA,NA,NA,NA,NA
9I1JS1d8,3087lxlj7ptluqx9bvztb5iuvan0fr,3ydtzai2w1tdqjjwezccnq05fpv416,9I1JS1d8,2020-0188,2021-10-31,10:40:59,11:40:52,NA,incomplete,true,NA,NA,true,0,0,NA,NA,NA,right,m_l_014.jpg,black,yellow,NA,NA,NA,NA,NA,NA,NA,NA,NA,NaN,NA,3138.5,left,0,NA,NA,NA,NA,NA
9I1JS1d8,3087lxlj7ptluqx9bvztb5iuvan0fr,3ydtzai2w1tdqjjwezccnq05fpv416,9I1JS1d8,2020-0188,2021-10-31,10:40:59,11:40:52,NA,incomplete,true,NA,NA,true,0,1,NA,NA,NA,left,m_l_038.jpg,black,yellow,NA,NA,NA,NA,NA,NA,NA,NA,NA,NaN,NA,3628.2000000029802,left,1,NA,NA,NA,NA,NA
9I1JS1d8,3087lxlj7ptluqx9bvztb5iuvan0fr,3ydtzai2w1tdqjjwezccnq05fpv416,9I1JS1d8,2020-0188,2021-10-31,10:40:59,11:40:52,NA,incomplete,true,NA,NA,true,0,2,NA,NA,NA,right,n_l_005.jpg,yellow,black,NA,NA,NA,NA,NA,NA,NA,NA,NA,NaN,NA,2773.3000000044703,right,1,NA,NA,NA,NA,NA
9I1JS1d8,3087lxlj7ptluqx9bvztb5iuvan0fr,3ydtzai2w1tdqjjwezccnq05fpv416,9I1JS1d8,2020-0188,2021-10-31,10:40:59,11:40:52,NA,incomplete,true,NA,NA,true,0,3,NA,NA,NA,right,n_s_085.jpg,black,yellow,NA,NA,NA,NA,NA,NA,NA,NA,NA,NaN,NA,1405.5,right,1,NA,NA,NA,NA,NA
9I1JS1d8,3087lxlj7ptluqx9bvztb5iuvan0fr,3ydtzai2w1tdqjjwezccnq05fpv416,9I1JS1d8,2020-0188,2021-10-31,10:40:59,11:40:52,NA,incomplete,true,NA,NA,true,0,4,NA,NA,NA,right,m_s_067.jpg,black,yellow,NA,NA,NA,NA,NA,NA,NA,NA,NA,NaN,NA,1204.2999999970198,right,1,NA,NA,NA,NA,NA
9I1JS1d8,3087lxlj7ptluqx9bvztb5iuvan0fr,3ydtzai2w1tdqjjwezccnq05fpv416,9I1JS1d8,2020-0188,2021-10-31,10:40:59,11:40:52,NA,incomplete,true,NA,NA,true,0,5,NA,NA,NA,right,n_s_027.jpg,red,gray,NA,NA,NA,NA,NA,NA,NA,NA,NA,NaN,NA,1568.3999999985099,right,1,NA,NA,NA,NA,NA
9I1JS1d8,3087lxlj7ptluqx9bvztb5iuvan0fr,3ydtzai2w1tdqjjwezccnq05fpv416,9I1JS1d8,2020-0188,2021-10-31,10:40:59,11:40:52,NA,incomplete,true,NA,NA,true,0,6,NA,NA,NA,right,m_s_093.jpg,yellow,black,NA,NA,NA,NA,NA,NA,NA,NA,NA,NaN,NA,1469.2000000029802,right,1,NA,NA,NA,NA,NA
9I1JS1d8,3087lxlj7ptluqx9bvztb5iuvan0fr,3ydtzai2w1tdqjjwezccnq05fpv416,9I1JS1d8,2020-0188,2021-10-31,10:40:59,11:40:52,NA,incomplete,true,NA,NA,true,0,7,NA,NA,NA,right,m_s_037.jpg,white,gray,NA,NA,NA,NA,NA,NA,NA,NA,NA,NaN,NA,1719.6000000014901,right,1,NA,NA,NA,NA,NA
9I1JS1d8,3087lxlj7ptluqx9bvztb5iuvan0fr,3ydtzai2w1tdqjjwezccnq05fpv416,9I1JS1d8,2020-0188,2021-10-31,10:40:59,11:40:52,NA,incomplete,true,NA,NA,true,0,8,NA,NA,NA,left,m_l_028.jpg,purple,white,NA,NA,NA,NA,NA,NA,NA,NA,NA,NaN,NA,2557.5,left,1,NA,NA,NA,NA,NA
9I1JS1d8,3087lxlj7ptluqx9bvztb5iuvan0fr,3ydtzai2w1tdqjjwezccnq05fpv416,9I1JS1d8,2020-0188,2021-10-31,10:40:59,11:40:52,NA,incomplete,true,NA,NA,true,0,9,NA,NA,NA,left,m_l_007.jpg,purple,white,NA,NA,NA,NA,NA,NA,NA,NA,NA,NaN,NA,2098.1999999955297,left,1,NA,NA,NA,NA,NA
9I1JS1d8,3087lxlj7ptluqx9bvztb5iuvan0fr,3ydtzai2w1tdqjjwezccnq05fpv416,9I1JS1d8,2020-0188,2021-10-31,10:40:59,11:40:52,NA,incomplete,true,NA,NA,true,0,10,NA,NA,NA,right,n_s_094.jpg,purple,white,NA,NA,NA,NA,NA,NA,NA,NA,NA,NaN,NA,1937.5,left,0,NA,NA,NA,NA,NA
9I1JS1d8,3087lxlj7ptluqx9bvztb5iuvan0fr,3ydtzai2w1tdqjjwezccnq05fpv416,9I1JS1d8,2020-0188,2021-10-31,10:40:59,11:40:52,NA,incomplete,true,NA,NA,true,0,11,NA,NA,NA,left,n_l_040.jpg,gray,white,NA,NA,NA,NA,NA,NA,NA,NA,NA,NaN,NA,1800.3999999985099,left,1,NA,NA,NA,NA,NA
9I1JS1d8,3087lxlj7ptluqx9bvztb5iuvan0fr,3ydtzai2w1tdqjjwezccnq05fpv416,9I1JS1d8,2020-0188,2021-10-31,10:40:59,11:40:52,NA,incomplete,true,NA,NA,true,0,12,NA,NA,NA,left,m_l_045.jpg,red,gray,NA,NA,NA,NA,NA,NA,NA,NA,NA,NaN,NA,1941.2000000029802,left,1,NA,NA,NA,NA,NA
9I1JS1d8,3087lxlj7ptluqx9bvztb5iuvan0fr,3ydtzai2w1tdqjjwezccnq05fpv416,9I1JS1d8,2020-0188,2021-10-31,10:40:59,11:40:52,NA,incomplete,true,NA,NA,true,0,13,NA,NA,NA,left,n_s_113.jpg,white,gray,NA,NA,NA,NA,NA,NA,NA,NA,NA,NaN,NA,4134.70000000298,left,1,NA,NA,NA,NA,NA
9I1JS1d8,3087lxlj7ptluqx9bvztb5iuvan0fr,3ydtzai2w1tdqjjwezccnq05fpv416,9I1JS1d8,2020-0188,2021-10-31,10:40:59,11:40:52,NA,incomplete,true,NA,NA,true,0,14,NA,NA,NA,left,m_s_041.jpg,red,gray,NA,NA,NA,NA,NA,NA,NA,NA,NA,NaN,NA,1607.8000000044703,left,1,NA,NA,NA,NA,NA
9I1JS1d8,3087lxlj7ptluqx9bvztb5iuvan0fr,3ydtzai2w1tdqjjwezccnq05fpv416,9I1JS1d8,2020-0188,2021-10-31,10:40:59,11:40:52,NA,incomplete,true,NA,NA,true,0,15,NA,NA,NA,right,n_s_031.jpg,red,gray,NA,NA,NA,NA,NA,NA,NA,NA,NA,NaN,NA,2379.39999999851,right,1,NA,NA,NA,NA,NA
9I1JS1d8,3087lxlj7ptluqx9bvztb5iuvan0fr,3ydtzai2w1tdqjjwezccnq05fpv416,9I1JS1d8,2020-0188,2021-10-31,10:40:59,11:40:52,NA,incomplete,true,NA,NA,true,0,16,NA,NA,NA,left,m_s_058.jpg,black,red,NA,NA,NA,NA,NA,NA,NA,NA,NA,NaN,NA,1704.8000000044703,left,1,NA,NA,NA,NA,NA
9I1JS1d8,3087lxlj7ptluqx9bvztb5iuvan0fr,3ydtzai2w1tdqjjwezccnq05fpv416,9I1JS1d8,2020-0188,2021-10-31,10:40:59,11:40:52,NA,incomplete,true,NA,NA,true,0,17,NA,NA,NA,right,m_l_064.jpg,gray,red,NA,NA,NA,NA,NA,NA,NA,NA,NA,NaN,NA,1807,left,0,NA,NA,NA,NA,NA
9I1JS1d8,3087lxlj7ptluqx9bvztb5iuvan0fr,3ydtzai2w1tdqjjwezccnq05fpv416,9I1JS1d8,2020-0188,2021-10-31,10:40:59,11:40:52,NA,incomplete,true,NA,NA,true,0,18,NA,NA,NA,right,m_l_084.jpg,purple,white,NA,NA,NA,NA,NA,NA,NA,NA,NA,NaN,NA,2461.2000000029802,left,0,NA,NA,NA,NA,NA
9I1JS1d8,3087lxlj7ptluqx9bvztb5iuvan0fr,3ydtzai2w1tdqjjwezccnq05fpv416,9I1JS1d8,2020-0188,2021-10-31,10:40:59,11:40:52,NA,incomplete,true,NA,NA,true,0,19,NA,NA,NA,right,n_l_086.jpg,white,purple,NA,NA,NA,NA,NA,NA,NA,NA,NA,NaN,NA,1560.2000000029802,right,1,NA,NA,NA,NA,NA
9I1JS1d8,3087lxlj7ptluqx9bvztb5iuvan0fr,3ydtzai2w1tdqjjwezccnq05fpv416,9I1JS1d8,2020-0188,2021-10-31,10:40:59,11:40:52,NA,incomplete,true,NA,NA,true,0,20,NA,NA,NA,right,m_l_059.jpg,purple,white,NA,NA,NA,NA,NA,NA,NA,NA,NA,NaN,NA,2156.39999999851,right,1,NA,NA,NA,NA,NA
9I1JS1d8,3087lxlj7ptluqx9bvztb5iuvan0fr,3ydtzai2w1tdqjjwezccnq05fpv416,9I1JS1d8,2020-0188,2021-10-31,10:40:59,11:40:52,NA,incomplete,true,NA,NA,true,0,21,NA,NA,NA,left,m_s_063.jpg,red,gray,NA,NA,NA,NA,NA,NA,NA,NA,NA,NaN,NA,1591.7000000029802,right,0,NA,NA,NA,NA,NA
9I1JS1d8,3087lxlj7ptluqx9bvztb5iuvan0fr,3ydtzai2w1tdqjjwezccnq05fpv416,9I1JS1d8,2020-0188,2021-10-31,10:40:59,11:40:52,NA,incomplete,true,NA,true,NA,0,0,NA,NA,NA,left,NA,NA,NA,absent,NA,NA,m_l_028.jpg,purple,m_l_007.jpg,purple,within,NA,NaN,NA,NA,NA,NA,right,2999.7999999970198,0,2,3886.8000000044703
9I1JS1d8,3087lxlj7ptluqx9bvztb5iuvan0fr,3ydtzai2w1tdqjjwezccnq05fpv416,9I1JS1d8,2020-0188,2021-10-31,10:40:59,11:40:52,NA,incomplete,true,NA,true,NA,0,1,NA,NA,NA,right,NA,NA,NA,absent,NA,NA,m_l_014.jpg,yellow,m_s_067.jpg,yellow,within,NA,NaN,NA,NA,NA,NA,left,4119,0,1,1841
9I1JS1d8,3087lxlj7ptluqx9bvztb5iuvan0fr,3ydtzai2w1tdqjjwezccnq05fpv416,9I1JS1d8,2020-0188,2021-10-31,10:40:59,11:40:52,NA,incomplete,true,NA,true,NA,0,2,NA,NA,NA,right,NA,NA,NA,absent,NA,NA,n_l_005.jpg,black,m_s_063.jpg,red,between,NA,NaN,NA,NA,NA,NA,left,2586.9000000059605,0,1,2404.39999999851
9I1JS1d8,3087lxlj7ptluqx9bvztb5iuvan0fr,3ydtzai2w1tdqjjwezccnq05fpv416,9I1JS1d8,2020-0188,2021-10-31,10:40:59,11:40:52,NA,incomplete,true,NA,true,NA,0,3,NA,NA,NA,right,NA,NA,NA,absent,NA,NA,n_s_094.jpg,white,n_l_086.jpg,purple,between,NA,NaN,NA,NA,NA,NA,right,1705.7000000029802,1,1,1342.5
9I1JS1d8,3087lxlj7ptluqx9bvztb5iuvan0fr,3ydtzai2w1tdqjjwezccnq05fpv416,9I1JS1d8,2020-0188,2021-10-31,10:40:59,11:40:52,NA,incomplete,true,NA,true,NA,0,4,NA,NA,NA,left,NA,NA,NA,absent,NA,NA,m_s_041.jpg,red,m_l_064.jpg,red,within,NA,NaN,NA,NA,NA,NA,left,2042.5,1,1,1288.8000000044703
9I1JS1d8,3087lxlj7ptluqx9bvztb5iuvan0fr,3ydtzai2w1tdqjjwezccnq05fpv416,9I1JS1d8,2020-0188,2021-10-31,10:40:59,11:40:52,NA,incomplete,true,NA,true,NA,0,5,NA,NA,NA,left,NA,NA,NA,absent,NA,NA,n_l_040.jpg,gray,m_s_037.jpg,gray,within,NA,NaN,NA,NA,NA,NA,left,2148.7000000029802,1,1,1237.7000000029802
9I1JS1d8,3087lxlj7ptluqx9bvztb5iuvan0fr,3ydtzai2w1tdqjjwezccnq05fpv416,9I1JS1d8,2020-0188,2021-10-31,10:40:59,11:40:52,NA,incomplete,true,NA,true,NA,0,6,NA,NA,NA,right,NA,NA,NA,absent,NA,NA,m_s_058.jpg,black,m_s_093.jpg,black,within,NA,NaN,NA,NA,NA,NA,right,2743.9000000059605,1,1,1069
9I1JS1d8,3087lxlj7ptluqx9bvztb5iuvan0fr,3ydtzai2w1tdqjjwezccnq05fpv416,9I1JS1d8,2020-0188,2021-10-31,10:40:59,11:40:52,NA,incomplete,true,NA,true,NA,0,7,NA,NA,NA,left,NA,NA,NA,absent,NA,NA,m_l_038.jpg,black,n_s_085.jpg,yellow,between,NA,NaN,NA,NA,NA,NA,left,2011.5,1,1,1390.3000000044703
9I1JS1d8,3087lxlj7ptluqx9bvztb5iuvan0fr,3ydtzai2w1tdqjjwezccnq05fpv416,9I1JS1d8,2020-0188,2021-10-31,10:40:59,11:40:52,NA,incomplete,true,NA,true,NA,0,8,NA,NA,NA,left,NA,NA,NA,absent,NA,NA,m_l_059.jpg,white,n_s_031.jpg,gray,between,NA,NaN,NA,NA,NA,NA,left,1891.7000000029802,1,1,1300
9I1JS1d8,3087lxlj7ptluqx9bvztb5iuvan0fr,3ydtzai2w1tdqjjwezccnq05fpv416,9I1JS1d8,2020-0188,2021-10-31,10:40:59,11:40:52,NA,incomplete,true,NA,true,NA,0,9,NA,NA,NA,left,NA,NA,NA,absent,NA,NA,m_l_084.jpg,white,n_s_113.jpg,white,within,NA,NaN,NA,NA,NA,NA,left,1824.6999999955297,1,1,1247.8000000044703
9I1JS1d8,3087lxlj7ptluqx9bvztb5iuvan0fr,3ydtzai2w1tdqjjwezccnq05fpv416,9I1JS1d8,2020-0188,2021-10-31,10:40:59,11:40:52,NA,incomplete,true,NA,true,NA,0,10,NA,NA,NA,right,NA,NA,NA,absent,NA,NA,m_l_045.jpg,red,n_s_027.jpg,gray,between,NA,NaN,NA,NA,NA,NA,left,1736.5999999940395,0,1,1109.7000000029802
9I1JS1d8,3087lxlj7ptluqx9bvztb5iuvan0fr,3ydtzai2w1tdqjjwezccnq05fpv416,9I1JS1d8,2020-0188,2021-10-31,10:40:59,11:40:52,NA,incomplete,false,true,NA,NA,1,0,NA,green,n_l_095.jpg,NA,NA,NA,NA,NA,unpleasant,pleasant,NA,NA,NA,NA,NA,right,1588.40000000596,true,NA,NA,NA,NA,NA,NA,NA,NA
9I1JS1d8,3087lxlj7ptluqx9bvztb5iuvan0fr,3ydtzai2w1tdqjjwezccnq05fpv416,9I1JS1d8,2020-0188,2021-10-31,10:40:59,11:40:52,NA,incomplete,false,true,NA,NA,1,1,NA,green,n_s_082.jpg,NA,NA,NA,NA,NA,unpleasant,pleasant,NA,NA,NA,NA,NA,left,1786,true,NA,NA,NA,NA,NA,NA,NA,NA
9I1JS1d8,3087lxlj7ptluqx9bvztb5iuvan0fr,3ydtzai2w1tdqjjwezccnq05fpv416,9I1JS1d8,2020-0188,2021-10-31,10:40:59,11:40:52,NA,incomplete,false,true,NA,NA,1,2,NA,green,n_s_014.jpg,NA,NA,NA,NA,NA,unpleasant,pleasant,NA,NA,NA,NA,NA,right,1741.39999999851,true,NA,NA,NA,NA,NA,NA,NA,NA
9I1JS1d8,3087lxlj7ptluqx9bvztb5iuvan0fr,3ydtzai2w1tdqjjwezccnq05fpv416,9I1JS1d8,2020-0188,2021-10-31,10:40:59,11:40:52,NA,incomplete,false,true,NA,NA,1,3,NA,green,m_s_060.jpg,NA,NA,NA,NA,NA,pleasant,unpleasant,NA,NA,NA,NA,NA,left,1479,true,NA,NA,NA,NA,NA,NA,NA,NA
9I1JS1d8,3087lxlj7ptluqx9bvztb5iuvan0fr,3ydtzai2w1tdqjjwezccnq05fpv416,9I1JS1d8,2020-0188,2021-10-31,10:40:59,11:40:52,NA,incomplete,false,true,NA,NA,1,4,NA,green,m_s_052.jpg,NA,NA,NA,NA,NA,unpleasant,pleasant,NA,NA,NA,NA,NA,right,1308.69999999553,true,NA,NA,NA,NA,NA,NA,NA,NA
9I1JS1d8,3087lxlj7ptluqx9bvztb5iuvan0fr,3ydtzai2w1tdqjjwezccnq05fpv416,9I1JS1d8,2020-0188,2021-10-31,10:40:59,11:40:52,NA,incomplete,false,true,NA,NA,1,5,NA,green,n_s_077.jpg,NA,NA,NA,NA,NA,pleasant,unpleasant,NA,NA,NA,NA,NA,left,1414.89999999851,true,NA,NA,NA,NA,NA,NA,NA,NA
9I1JS1d8,3087lxlj7ptluqx9bvztb5iuvan0fr,3ydtzai2w1tdqjjwezccnq05fpv416,9I1JS1d8,2020-0188,2021-10-31,10:40:59,11:40:52,NA,incomplete,false,true,NA,NA,1,6,NA,black,m_s_033.jpg,NA,NA,NA,NA,NA,unpleasant,pleasant,NA,NA,NA,NA,NA,left,2123.60000000149,true,NA,NA,NA,NA,NA,NA,NA,NA
9I1JS1d8,3087lxlj7ptluqx9bvztb5iuvan0fr,3ydtzai2w1tdqjjwezccnq05fpv416,9I1JS1d8,2020-0188,2021-10-31,10:40:59,11:40:52,NA,incomplete,false,true,NA,NA,1,7,NA,black,n_s_032.jpg,NA,NA,NA,NA,NA,pleasant,unpleasant,NA,NA,NA,NA,NA,right,2261,true,NA,NA,NA,NA,NA,NA,NA,NA
9I1JS1d8,3087lxlj7ptluqx9bvztb5iuvan0fr,3ydtzai2w1tdqjjwezccnq05fpv416,9I1JS1d8,2020-0188,2021-10-31,10:40:59,11:40:52,NA,incomplete,false,true,NA,NA,1,8,NA,black,n_l_104.jpg,NA,NA,NA,NA,NA,unpleasant,pleasant,NA,NA,NA,NA,NA,left,1424.89999999851,true,NA,NA,NA,NA,NA,NA,NA,NA
9I1JS1d8,3087lxlj7ptluqx9bvztb5iuvan0fr,3ydtzai2w1tdqjjwezccnq05fpv416,9I1JS1d8,2020-0188,2021-10-31,10:40:59,11:40:52,NA,incomplete,false,true,NA,NA,1,9,NA,black,m_l_001.jpg,NA,NA,NA,NA,NA,pleasant,unpleasant,NA,NA,NA,NA,NA,right,1189.10000000149,true,NA,NA,NA,NA,NA,NA,NA,NA
9I1JS1d8,3087lxlj7ptluqx9bvztb5iuvan0fr,3ydtzai2w1tdqjjwezccnq05fpv416,9I1JS1d8,2020-0188,2021-10-31,10:40:59,11:40:52,NA,incomplete,false,true,NA,NA,1,10,NA,black,m_s_005.jpg,NA,NA,NA,NA,NA,pleasant,unpleasant,NA,NA,NA,NA,NA,left,1456.79999999702,true,NA,NA,NA,NA,NA,NA,NA,NA
9I1JS1d8,3087lxlj7ptluqx9bvztb5iuvan0fr,3ydtzai2w1tdqjjwezccnq05fpv416,9I1JS1d8,2020-0188,2021-10-31,10:40:59,11:40:52,NA,incomplete,false,true,NA,NA,1,11,NA,black,m_s_019.jpg,NA,NA,NA,NA,NA,pleasant,unpleasant,NA,NA,NA,NA,NA,left,1155.89999999851,true,NA,NA,NA,NA,NA,NA,NA,NA
9I1JS1d8,3087lxlj7ptluqx9bvztb5iuvan0fr,3ydtzai2w1tdqjjwezccnq05fpv416,9I1JS1d8,2020-0188,2021-10-31,10:40:59,11:40:52,NA,incomplete,false,true,NA,NA,1,12,NA,blue,m_l_081.jpg,NA,NA,NA,NA,NA,unpleasant,pleasant,NA,NA,NA,NA,NA,right,1229.40000000596,true,NA,NA,NA,NA,NA,NA,NA,NA
9I1JS1d8,3087lxlj7ptluqx9bvztb5iuvan0fr,3ydtzai2w1tdqjjwezccnq05fpv416,9I1JS1d8,2020-0188,2021-10-31,10:40:59,11:40:52,NA,incomplete,false,true,NA,NA,1,13,NA,blue,m_l_077.jpg,NA,NA,NA,NA,NA,unpleasant,pleasant,NA,NA,NA,NA,NA,right,1322.89999999851,true,NA,NA,NA,NA,NA,NA,NA,NA
9I1JS1d8,3087lxlj7ptluqx9bvztb5iuvan0fr,3ydtzai2w1tdqjjwezccnq05fpv416,9I1JS1d8,2020-0188,2021-10-31,10:40:59,11:40:52,NA,incomplete,false,true,NA,NA,1,14,NA,blue,n_s_096.jpg,NA,NA,NA,NA,NA,unpleasant,pleasant,NA,NA,NA,NA,NA,right,1631.70000000298,true,NA,NA,NA,NA,NA,NA,NA,NA
9I1JS1d8,3087lxlj7ptluqx9bvztb5iuvan0fr,3ydtzai2w1tdqjjwezccnq05fpv416,9I1JS1d8,2020-0188,2021-10-31,10:40:59,11:40:52,NA,incomplete,false,true,NA,NA,1,15,NA,blue,m_s_116.jpg,NA,NA,NA,NA,NA,unpleasant,pleasant,NA,NA,NA,NA,NA,right,1205.09999999404,true,NA,NA,NA,NA,NA,NA,NA,NA
9I1JS1d8,3087lxlj7ptluqx9bvztb5iuvan0fr,3ydtzai2w1tdqjjwezccnq05fpv416,9I1JS1d8,2020-0188,2021-10-31,10:40:59,11:40:52,NA,incomplete,false,true,NA,NA,1,16,NA,blue,n_s_060.jpg,NA,NA,NA,NA,NA,unpleasant,pleasant,NA,NA,NA,NA,NA,right,1072.10000000149,true,NA,NA,NA,NA,NA,NA,NA,NA
9I1JS1d8,3087lxlj7ptluqx9bvztb5iuvan0fr,3ydtzai2w1tdqjjwezccnq05fpv416,9I1JS1d8,2020-0188,2021-10-31,10:40:59,11:40:52,NA,incomplete,false,true,NA,NA,1,17,NA,blue,n_l_087.jpg,NA,NA,NA,NA,NA,unpleasant,pleasant,NA,NA,NA,NA,NA,right,1319.39999999851,true,NA,NA,NA,NA,NA,NA,NA,NA
9I1JS1d8,3087lxlj7ptluqx9bvztb5iuvan0fr,3ydtzai2w1tdqjjwezccnq05fpv416,9I1JS1d8,2020-0188,2021-10-31,10:40:59,11:40:52,NA,incomplete,false,true,NA,NA,1,18,NA,orange,m_s_055.jpg,NA,NA,NA,NA,NA,pleasant,unpleasant,NA,NA,NA,NA,NA,left,1738.70000000298,true,NA,NA,NA,NA,NA,NA,NA,NA
9I1JS1d8,3087lxlj7ptluqx9bvztb5iuvan0fr,3ydtzai2w1tdqjjwezccnq05fpv416,9I1JS1d8,2020-0188,2021-10-31,10:40:59,11:40:52,NA,incomplete,false,true,NA,NA,1,19,NA,orange,m_l_024.jpg,NA,NA,NA,NA,NA,pleasant,unpleasant,NA,NA,NA,NA,NA,left,1240.79999999702,true,NA,NA,NA,NA,NA,NA,NA,NA
9I1JS1d8,3087lxlj7ptluqx9bvztb5iuvan0fr,3ydtzai2w1tdqjjwezccnq05fpv416,9I1JS1d8,2020-0188,2021-10-31,10:40:59,11:40:52,NA,incomplete,false,true,NA,NA,1,20,NA,orange,m_s_079.jpg,NA,NA,NA,NA,NA,pleasant,unpleasant,NA,NA,NA,NA,NA,left,1036.39999999851,true,NA,NA,NA,NA,NA,NA,NA,NA
9I1JS1d8,3087lxlj7ptluqx9bvztb5iuvan0fr,3ydtzai2w1tdqjjwezccnq05fpv416,9I1JS1d8,2020-0188,2021-10-31,10:40:59,11:40:52,NA,incomplete,false,true,NA,NA,1,21,NA,orange,n_s_044.jpg,NA,NA,NA,NA,NA,unpleasant,pleasant,NA,NA,NA,NA,NA,right,1235.60000000149,true,NA,NA,NA,NA,NA,NA,NA,NA
9I1JS1d8,3087lxlj7ptluqx9bvztb5iuvan0fr,3ydtzai2w1tdqjjwezccnq05fpv416,9I1JS1d8,2020-0188,2021-10-31,10:40:59,11:40:52,NA,incomplete,false,true,NA,NA,1,22,NA,orange,n_s_034.jpg,NA,NA,NA,NA,NA,pleasant,unpleasant,NA,NA,NA,NA,NA,left,1834.60000000149,true,NA,NA,NA,NA,NA,NA,NA,NA
9I1JS1d8,3087lxlj7ptluqx9bvztb5iuvan0fr,3ydtzai2w1tdqjjwezccnq05fpv416,9I1JS1d8,2020-0188,2021-10-31,10:40:59,11:40:52,NA,incomplete,false,true,NA,NA,1,23,NA,orange,n_s_110.jpg,NA,NA,NA,NA,NA,unpleasant,pleasant,NA,NA,NA,NA,NA,left,1235.29999999702,true,NA,NA,NA,NA,NA,NA,NA,NA
9I1JS1d8,3087lxlj7ptluqx9bvztb5iuvan0fr,3ydtzai2w1tdqjjwezccnq05fpv416,9I1JS1d8,2020-0188,2021-10-31,10:40:59,11:40:52,NA,incomplete,false,true,NA,NA,1,24,NA,red,m_l_078.jpg,NA,NA,NA,NA,NA,pleasant,unpleasant,NA,NA,NA,NA,NA,right,1479.70000000298,true,NA,NA,NA,NA,NA,NA,NA,NA
9I1JS1d8,3087lxlj7ptluqx9bvztb5iuvan0fr,3ydtzai2w1tdqjjwezccnq05fpv416,9I1JS1d8,2020-0188,2021-10-31,10:40:59,11:40:52,NA,incomplete,false,true,NA,NA,1,25,NA,red,m_l_096.jpg,NA,NA,NA,NA,NA,pleasant,unpleasant,NA,NA,NA,NA,NA,left,1322.79999999702,true,NA,NA,NA,NA,NA,NA,NA,NA
9I1JS1d8,3087lxlj7ptluqx9bvztb5iuvan0fr,3ydtzai2w1tdqjjwezccnq05fpv416,9I1JS1d8,2020-0188,2021-10-31,10:40:59,11:40:52,NA,incomplete,false,true,NA,NA,1,26,NA,red,m_l_008.jpg,NA,NA,NA,NA,NA,unpleasant,pleasant,NA,NA,NA,NA,NA,right,2362.89999999851,true,NA,NA,NA,NA,NA,NA,NA,NA
9I1JS1d8,3087lxlj7ptluqx9bvztb5iuvan0fr,3ydtzai2w1tdqjjwezccnq05fpv416,9I1JS1d8,2020-0188,2021-10-31,10:40:59,11:40:52,NA,incomplete,false,true,NA,NA,1,27,NA,red,n_s_059.jpg,NA,NA,NA,NA,NA,unpleasant,pleasant,NA,NA,NA,NA,NA,left,1353,true,NA,NA,NA,NA,NA,NA,NA,NA
9I1JS1d8,3087lxlj7ptluqx9bvztb5iuvan0fr,3ydtzai2w1tdqjjwezccnq05fpv416,9I1JS1d8,2020-0188,2021-10-31,10:40:59,11:40:52,NA,incomplete,false,true,NA,NA,1,28,NA,red,m_s_006.jpg,NA,NA,NA,NA,NA,unpleasant,pleasant,NA,NA,NA,NA,NA,left,1360.69999999553,true,NA,NA,NA,NA,NA,NA,NA,NA
9I1JS1d8,3087lxlj7ptluqx9bvztb5iuvan0fr,3ydtzai2w1tdqjjwezccnq05fpv416,9I1JS1d8,2020-0188,2021-10-31,10:40:59,11:40:52,NA,incomplete,false,true,NA,NA,1,29,NA,red,n_s_101.jpg,NA,NA,NA,NA,NA,pleasant,unpleasant,NA,NA,NA,NA,NA,right,1136.59999999404,true,NA,NA,NA,NA,NA,NA,NA,NA
9I1JS1d8,3087lxlj7ptluqx9bvztb5iuvan0fr,3ydtzai2w1tdqjjwezccnq05fpv416,9I1JS1d8,2020-0188,2021-10-31,10:40:59,11:40:52,NA,incomplete,false,true,NA,NA,1,30,NA,yellow,m_s_043.jpg,NA,NA,NA,NA,NA,unpleasant,pleasant,NA,NA,NA,NA,NA,left,1359.60000000149,true,NA,NA,NA,NA,NA,NA,NA,NA
9I1JS1d8,3087lxlj7ptluqx9bvztb5iuvan0fr,3ydtzai2w1tdqjjwezccnq05fpv416,9I1JS1d8,2020-0188,2021-10-31,10:40:59,11:40:52,NA,incomplete,false,true,NA,NA,1,31,NA,yellow,m_s_062.jpg,NA,NA,NA,NA,NA,unpleasant,pleasant,NA,NA,NA,NA,NA,right,1046.79999999702,true,NA,NA,NA,NA,NA,NA,NA,NA
9I1JS1d8,3087lxlj7ptluqx9bvztb5iuvan0fr,3ydtzai2w1tdqjjwezccnq05fpv416,9I1JS1d8,2020-0188,2021-10-31,10:40:59,11:40:52,NA,incomplete,false,true,NA,NA,1,32,NA,yellow,n_l_021.jpg,NA,NA,NA,NA,NA,unpleasant,pleasant,NA,NA,NA,NA,NA,right,1147.39999999851,true,NA,NA,NA,NA,NA,NA,NA,NA
9I1JS1d8,3087lxlj7ptluqx9bvztb5iuvan0fr,3ydtzai2w1tdqjjwezccnq05fpv416,9I1JS1d8,2020-0188,2021-10-31,10:40:59,11:40:52,NA,incomplete,false,true,NA,NA,1,33,NA,yellow,m_l_088.jpg,NA,NA,NA,NA,NA,pleasant,unpleasant,NA,NA,NA,NA,NA,left,1297.39999999851,true,NA,NA,NA,NA,NA,NA,NA,NA
9I1JS1d8,3087lxlj7ptluqx9bvztb5iuvan0fr,3ydtzai2w1tdqjjwezccnq05fpv416,9I1JS1d8,2020-0188,2021-10-31,10:40:59,11:40:52,NA,incomplete,false,true,NA,NA,1,34,NA,yellow,n_l_031.jpg,NA,NA,NA,NA,NA,pleasant,unpleasant,NA,NA,NA,NA,NA,left,1146.29999999702,true,NA,NA,NA,NA,NA,NA,NA,NA
9I1JS1d8,3087lxlj7ptluqx9bvztb5iuvan0fr,3ydtzai2w1tdqjjwezccnq05fpv416,9I1JS1d8,2020-0188,2021-10-31,10:40:59,11:40:52,NA,incomplete,false,true,NA,NA,1,35,NA,yellow,m_s_064.jpg,NA,NA,NA,NA,NA,pleasant,unpleasant,NA,NA,NA,NA,NA,left,1798,true,NA,NA,NA,NA,NA,NA,NA,NA
9I1JS1d8,3087lxlj7ptluqx9bvztb5iuvan0fr,3ydtzai2w1tdqjjwezccnq05fpv416,9I1JS1d8,2020-0188,2021-10-31,10:40:59,11:40:52,NA,incomplete,false,NA,NA,true,1,0,NA,NA,NA,right,n_s_101.jpg,orange,red,NA,NA,NA,NA,NA,NA,NA,NA,NA,NaN,NA,2191,right,1,NA,NA,NA,NA,NA
9I1JS1d8,3087lxlj7ptluqx9bvztb5iuvan0fr,3ydtzai2w1tdqjjwezccnq05fpv416,9I1JS1d8,2020-0188,2021-10-31,10:40:59,11:40:52,NA,incomplete,false,NA,NA,true,1,1,NA,NA,NA,right,n_s_110.jpg,red,orange,NA,NA,NA,NA,NA,NA,NA,NA,NA,NaN,NA,3098.3000000044703,left,0,NA,NA,NA,NA,NA
9I1JS1d8,3087lxlj7ptluqx9bvztb5iuvan0fr,3ydtzai2w1tdqjjwezccnq05fpv416,9I1JS1d8,2020-0188,2021-10-31,10:40:59,11:40:52,NA,incomplete,false,NA,NA,true,1,2,NA,NA,NA,right,m_l_096.jpg,orange,red,NA,NA,NA,NA,NA,NA,NA,NA,NA,NaN,NA,1844.2999999970198,right,1,NA,NA,NA,NA,NA
9I1JS1d8,3087lxlj7ptluqx9bvztb5iuvan0fr,3ydtzai2w1tdqjjwezccnq05fpv416,9I1JS1d8,2020-0188,2021-10-31,10:40:59,11:40:52,NA,incomplete,false,NA,NA,true,1,3,NA,NA,NA,right,m_l_008.jpg,orange,red,NA,NA,NA,NA,NA,NA,NA,NA,NA,NaN,NA,1617.1000000014901,right,1,NA,NA,NA,NA,NA
9I1JS1d8,3087lxlj7ptluqx9bvztb5iuvan0fr,3ydtzai2w1tdqjjwezccnq05fpv416,9I1JS1d8,2020-0188,2021-10-31,10:40:59,11:40:52,NA,incomplete,false,NA,NA,true,1,4,NA,NA,NA,right,n_s_060.jpg,orange,blue,NA,NA,NA,NA,NA,NA,NA,NA,NA,NaN,NA,2283.2000000029802,left,0,NA,NA,NA,NA,NA
9I1JS1d8,3087lxlj7ptluqx9bvztb5iuvan0fr,3ydtzai2w1tdqjjwezccnq05fpv416,9I1JS1d8,2020-0188,2021-10-31,10:40:59,11:40:52,NA,incomplete,false,NA,NA,true,1,5,NA,NA,NA,right,n_s_082.jpg,black,green,NA,NA,NA,NA,NA,NA,NA,NA,NA,NaN,NA,2300.8000000044703,right,1,NA,NA,NA,NA,NA
9I1JS1d8,3087lxlj7ptluqx9bvztb5iuvan0fr,3ydtzai2w1tdqjjwezccnq05fpv416,9I1JS1d8,2020-0188,2021-10-31,10:40:59,11:40:52,NA,incomplete,false,NA,NA,true,1,6,NA,NA,NA,left,m_s_064.jpg,yellow,red,NA,NA,NA,NA,NA,NA,NA,NA,NA,NaN,NA,2348.7000000029802,left,1,NA,NA,NA,NA,NA
9I1JS1d8,3087lxlj7ptluqx9bvztb5iuvan0fr,3ydtzai2w1tdqjjwezccnq05fpv416,9I1JS1d8,2020-0188,2021-10-31,10:40:59,11:40:52,NA,incomplete,false,NA,NA,true,1,7,NA,NA,NA,left,m_s_079.jpg,orange,blue,NA,NA,NA,NA,NA,NA,NA,NA,NA,NaN,NA,2011,left,1,NA,NA,NA,NA,NA
9I1JS1d8,3087lxlj7ptluqx9bvztb5iuvan0fr,3ydtzai2w1tdqjjwezccnq05fpv416,9I1JS1d8,2020-0188,2021-10-31,10:40:59,11:40:52,NA,incomplete,false,NA,NA,true,1,8,NA,NA,NA,left,m_s_006.jpg,red,orange,NA,NA,NA,NA,NA,NA,NA,NA,NA,NaN,NA,2642.9000000059605,left,1,NA,NA,NA,NA,NA
9I1JS1d8,3087lxlj7ptluqx9bvztb5iuvan0fr,3ydtzai2w1tdqjjwezccnq05fpv416,9I1JS1d8,2020-0188,2021-10-31,10:40:59,11:40:52,NA,incomplete,false,NA,NA,true,1,9,NA,NA,NA,right,m_l_024.jpg,red,orange,NA,NA,NA,NA,NA,NA,NA,NA,NA,NaN,NA,2053,left,0,NA,NA,NA,NA,NA
9I1JS1d8,3087lxlj7ptluqx9bvztb5iuvan0fr,3ydtzai2w1tdqjjwezccnq05fpv416,9I1JS1d8,2020-0188,2021-10-31,10:40:59,11:40:52,NA,incomplete,false,NA,NA,true,1,10,NA,NA,NA,right,m_s_052.jpg,black,green,NA,NA,NA,NA,NA,NA,NA,NA,NA,NaN,NA,2037,right,1,NA,NA,NA,NA,NA
9I1JS1d8,3087lxlj7ptluqx9bvztb5iuvan0fr,3ydtzai2w1tdqjjwezccnq05fpv416,9I1JS1d8,2020-0188,2021-10-31,10:40:59,11:40:52,NA,incomplete,false,NA,NA,true,1,11,NA,NA,NA,right,m_l_077.jpg,black,blue,NA,NA,NA,NA,NA,NA,NA,NA,NA,NaN,NA,1295.1999999955297,right,1,NA,NA,NA,NA,NA
9I1JS1d8,3087lxlj7ptluqx9bvztb5iuvan0fr,3ydtzai2w1tdqjjwezccnq05fpv416,9I1JS1d8,2020-0188,2021-10-31,10:40:59,11:40:52,NA,incomplete,false,NA,NA,true,1,12,NA,NA,NA,left,n_s_032.jpg,black,green,NA,NA,NA,NA,NA,NA,NA,NA,NA,NaN,NA,1430.7999999970198,right,0,NA,NA,NA,NA,NA
9I1JS1d8,3087lxlj7ptluqx9bvztb5iuvan0fr,3ydtzai2w1tdqjjwezccnq05fpv416,9I1JS1d8,2020-0188,2021-10-31,10:40:59,11:40:52,NA,incomplete,false,NA,NA,true,1,13,NA,NA,NA,right,n_l_021.jpg,red,yellow,NA,NA,NA,NA,NA,NA,NA,NA,NA,NaN,NA,1873.5999999940395,right,1,NA,NA,NA,NA,NA
9I1JS1d8,3087lxlj7ptluqx9bvztb5iuvan0fr,3ydtzai2w1tdqjjwezccnq05fpv416,9I1JS1d8,2020-0188,2021-10-31,10:40:59,11:40:52,NA,incomplete,false,NA,NA,true,1,14,NA,NA,NA,left,n_s_077.jpg,green,black,NA,NA,NA,NA,NA,NA,NA,NA,NA,NaN,NA,2034.3000000044703,left,1,NA,NA,NA,NA,NA
9I1JS1d8,3087lxlj7ptluqx9bvztb5iuvan0fr,3ydtzai2w1tdqjjwezccnq05fpv416,9I1JS1d8,2020-0188,2021-10-31,10:40:59,11:40:52,NA,incomplete,false,NA,NA,true,1,15,NA,NA,NA,right,n_l_087.jpg,black,blue,NA,NA,NA,NA,NA,NA,NA,NA,NA,NaN,NA,1270.5,right,1,NA,NA,NA,NA,NA
9I1JS1d8,3087lxlj7ptluqx9bvztb5iuvan0fr,3ydtzai2w1tdqjjwezccnq05fpv416,9I1JS1d8,2020-0188,2021-10-31,10:40:59,11:40:52,NA,incomplete,false,NA,NA,true,1,16,NA,NA,NA,right,n_s_034.jpg,blue,orange,NA,NA,NA,NA,NA,NA,NA,NA,NA,NaN,NA,1704.2999999970198,right,1,NA,NA,NA,NA,NA
9I1JS1d8,3087lxlj7ptluqx9bvztb5iuvan0fr,3ydtzai2w1tdqjjwezccnq05fpv416,9I1JS1d8,2020-0188,2021-10-31,10:40:59,11:40:52,NA,incomplete,false,NA,NA,true,1,17,NA,NA,NA,right,m_s_019.jpg,blue,black,NA,NA,NA,NA,NA,NA,NA,NA,NA,NaN,NA,1816.7999999970198,left,0,NA,NA,NA,NA,NA
9I1JS1d8,3087lxlj7ptluqx9bvztb5iuvan0fr,3ydtzai2w1tdqjjwezccnq05fpv416,9I1JS1d8,2020-0188,2021-10-31,10:40:59,11:40:52,NA,incomplete,false,NA,NA,true,1,18,NA,NA,NA,right,m_s_005.jpg,green,black,NA,NA,NA,NA,NA,NA,NA,NA,NA,NaN,NA,2268.6999999955297,right,1,NA,NA,NA,NA,NA
9I1JS1d8,3087lxlj7ptluqx9bvztb5iuvan0fr,3ydtzai2w1tdqjjwezccnq05fpv416,9I1JS1d8,2020-0188,2021-10-31,10:40:59,11:40:52,NA,incomplete,false,NA,NA,true,1,19,NA,NA,NA,right,n_l_104.jpg,green,black,NA,NA,NA,NA,NA,NA,NA,NA,NA,NaN,NA,1318.5,right,1,NA,NA,NA,NA,NA
9I1JS1d8,3087lxlj7ptluqx9bvztb5iuvan0fr,3ydtzai2w1tdqjjwezccnq05fpv416,9I1JS1d8,2020-0188,2021-10-31,10:40:59,11:40:52,NA,incomplete,false,NA,NA,true,1,20,NA,NA,NA,left,n_s_096.jpg,blue,black,NA,NA,NA,NA,NA,NA,NA,NA,NA,NaN,NA,1758.2999999970198,left,1,NA,NA,NA,NA,NA
9I1JS1d8,3087lxlj7ptluqx9bvztb5iuvan0fr,3ydtzai2w1tdqjjwezccnq05fpv416,9I1JS1d8,2020-0188,2021-10-31,10:40:59,11:40:52,NA,incomplete,false,NA,NA,true,1,21,NA,NA,NA,left,m_s_062.jpg,yellow,red,NA,NA,NA,NA,NA,NA,NA,NA,NA,NaN,NA,3030.7999999970198,right,0,NA,NA,NA,NA,NA
9I1JS1d8,3087lxlj7ptluqx9bvztb5iuvan0fr,3ydtzai2w1tdqjjwezccnq05fpv416,9I1JS1d8,2020-0188,2021-10-31,10:40:59,11:40:52,NA,incomplete,false,NA,true,NA,1,0,NA,NA,NA,right,NA,NA,NA,absent,NA,NA,n_s_077.jpg,green,n_s_082.jpg,green,within,NA,NaN,NA,NA,NA,NA,right,3340.10000000149,1,0,1446.6000000014901
9I1JS1d8,3087lxlj7ptluqx9bvztb5iuvan0fr,3ydtzai2w1tdqjjwezccnq05fpv416,9I1JS1d8,2020-0188,2021-10-31,10:40:59,11:40:52,NA,incomplete,false,NA,true,NA,1,1,NA,NA,NA,right,NA,NA,NA,absent,NA,NA,m_s_064.jpg,yellow,m_s_062.jpg,yellow,within,NA,NaN,NA,NA,NA,NA,right,2258.5999999940395,1,1,1965.3999999985099
9I1JS1d8,3087lxlj7ptluqx9bvztb5iuvan0fr,3ydtzai2w1tdqjjwezccnq05fpv416,9I1JS1d8,2020-0188,2021-10-31,10:40:59,11:40:52,NA,incomplete,false,NA,true,NA,1,2,NA,NA,NA,right,NA,NA,NA,absent,NA,NA,n_s_096.jpg,blue,m_s_005.jpg,black,between,NA,NaN,NA,NA,NA,NA,right,1953.3999999985099,1,1,1421.7999999970198
9I1JS1d8,3087lxlj7ptluqx9bvztb5iuvan0fr,3ydtzai2w1tdqjjwezccnq05fpv416,9I1JS1d8,2020-0188,2021-10-31,10:40:59,11:40:52,NA,incomplete,false,NA,true,NA,1,3,NA,NA,NA,right,NA,NA,NA,absent,NA,NA,n_s_101.jpg,red,m_l_096.jpg,red,within,NA,NaN,NA,NA,NA,NA,left,3482.2999999970198,0,1,1793.6000000014901
9I1JS1d8,3087lxlj7ptluqx9bvztb5iuvan0fr,3ydtzai2w1tdqjjwezccnq05fpv416,9I1JS1d8,2020-0188,2021-10-31,10:40:59,11:40:52,NA,incomplete,false,NA,true,NA,1,4,NA,NA,NA,left,NA,NA,NA,absent,NA,NA,n_s_060.jpg,blue,m_s_079.jpg,orange,between,NA,NaN,NA,NA,NA,NA,right,2133,0,1,1262.2999999970198
9I1JS1d8,3087lxlj7ptluqx9bvztb5iuvan0fr,3ydtzai2w1tdqjjwezccnq05fpv416,9I1JS1d8,2020-0188,2021-10-31,10:40:59,11:40:52,NA,incomplete,false,NA,true,NA,1,5,NA,NA,NA,left,NA,NA,NA,absent,NA,NA,m_s_052.jpg,green,n_l_104.jpg,black,between,NA,NaN,NA,NA,NA,NA,left,2388.2999999970198,1,0,1344.6000000014901
9I1JS1d8,3087lxlj7ptluqx9bvztb5iuvan0fr,3ydtzai2w1tdqjjwezccnq05fpv416,9I1JS1d8,2020-0188,2021-10-31,10:40:59,11:40:52,NA,incomplete,false,NA,true,NA,1,6,NA,NA,NA,left,NA,NA,NA,absent,NA,NA,m_l_077.jpg,blue,n_l_087.jpg,blue,within,NA,NaN,NA,NA,NA,NA,left,2541,1,1,1160.7000000029802
9I1JS1d8,3087lxlj7ptluqx9bvztb5iuvan0fr,3ydtzai2w1tdqjjwezccnq05fpv416,9I1JS1d8,2020-0188,2021-10-31,10:40:59,11:40:52,NA,incomplete,false,NA,true,NA,1,7,NA,NA,NA,right,NA,NA,NA,absent,NA,NA,m_s_019.jpg,black,n_s_032.jpg,black,within,NA,NaN,NA,NA,NA,NA,left,2186,0,1,1255.8999999985099
9I1JS1d8,3087lxlj7ptluqx9bvztb5iuvan0fr,3ydtzai2w1tdqjjwezccnq05fpv416,9I1JS1d8,2020-0188,2021-10-31,10:40:59,11:40:52,NA,incomplete,false,NA,true,NA,1,8,NA,NA,NA,right,NA,NA,NA,absent,NA,NA,m_l_008.jpg,red,n_s_034.jpg,orange,between,NA,NaN,NA,NA,NA,NA,right,1936.7999999970198,1,0,1399
9I1JS1d8,3087lxlj7ptluqx9bvztb5iuvan0fr,3ydtzai2w1tdqjjwezccnq05fpv416,9I1JS1d8,2020-0188,2021-10-31,10:40:59,11:40:52,NA,incomplete,false,NA,true,NA,1,9,NA,NA,NA,right,NA,NA,NA,absent,NA,NA,n_s_110.jpg,orange,m_l_024.jpg,orange,within,NA,NaN,NA,NA,NA,NA,right,2149.5,1,1,1768.9000000059605
9I1JS1d8,3087lxlj7ptluqx9bvztb5iuvan0fr,3ydtzai2w1tdqjjwezccnq05fpv416,9I1JS1d8,2020-0188,2021-10-31,10:40:59,11:40:52,NA,incomplete,false,NA,true,NA,1,10,NA,NA,NA,right,NA,NA,NA,absent,NA,NA,n_l_021.jpg,yellow,m_s_006.jpg,red,between,NA,NaN,NA,NA,NA,NA,right,2569.60000000149,1,0,1641.6999999955297
9I1JS1d8,3087lxlj7ptluqx9bvztb5iuvan0fr,3ydtzai2w1tdqjjwezccnq05fpv416,9I1JS1d8,2020-0188,2021-10-31,10:40:59,11:40:52,NA,incomplete,false,true,NA,NA,2,0,NA,green,m_s_089.jpg,NA,NA,NA,NA,NA,pleasant,unpleasant,NA,NA,NA,NA,NA,left,1588.20000000298,true,NA,NA,NA,NA,NA,NA,NA,NA
9I1JS1d8,3087lxlj7ptluqx9bvztb5iuvan0fr,3ydtzai2w1tdqjjwezccnq05fpv416,9I1JS1d8,2020-0188,2021-10-31,10:40:59,11:40:52,NA,incomplete,false,true,NA,NA,2,1,NA,green,m_l_065.jpg,NA,NA,NA,NA,NA,pleasant,unpleasant,NA,NA,NA,NA,NA,left,836.5,true,NA,NA,NA,NA,NA,NA,NA,NA
9I1JS1d8,3087lxlj7ptluqx9bvztb5iuvan0fr,3ydtzai2w1tdqjjwezccnq05fpv416,9I1JS1d8,2020-0188,2021-10-31,10:40:59,11:40:52,NA,incomplete,false,true,NA,NA,2,2,NA,green,m_l_048.jpg,NA,NA,NA,NA,NA,pleasant,unpleasant,NA,NA,NA,NA,NA,left,1054.60000000149,true,NA,NA,NA,NA,NA,NA,NA,NA
9I1JS1d8,3087lxlj7ptluqx9bvztb5iuvan0fr,3ydtzai2w1tdqjjwezccnq05fpv416,9I1JS1d8,2020-0188,2021-10-31,10:40:59,11:40:52,NA,incomplete,false,true,NA,NA,2,3,NA,green,n_l_024.jpg,NA,NA,NA,NA,NA,unpleasant,pleasant,NA,NA,NA,NA,NA,left,1127.10000000149,true,NA,NA,NA,NA,NA,NA,NA,NA
9I1JS1d8,3087lxlj7ptluqx9bvztb5iuvan0fr,3ydtzai2w1tdqjjwezccnq05fpv416,9I1JS1d8,2020-0188,2021-10-31,10:40:59,11:40:52,NA,incomplete,false,true,NA,NA,2,4,NA,green,m_l_017.jpg,NA,NA,NA,NA,NA,unpleasant,pleasant,NA,NA,NA,NA,NA,right,1135.39999999851,true,NA,NA,NA,NA,NA,NA,NA,NA
9I1JS1d8,3087lxlj7ptluqx9bvztb5iuvan0fr,3ydtzai2w1tdqjjwezccnq05fpv416,9I1JS1d8,2020-0188,2021-10-31,10:40:59,11:40:52,NA,incomplete,false,true,NA,NA,2,5,NA,green,m_l_058.jpg,NA,NA,NA,NA,NA,pleasant,unpleasant,NA,NA,NA,NA,NA,right,1090.20000000298,true,NA,NA,NA,NA,NA,NA,NA,NA
9I1JS1d8,3087lxlj7ptluqx9bvztb5iuvan0fr,3ydtzai2w1tdqjjwezccnq05fpv416,9I1JS1d8,2020-0188,2021-10-31,10:40:59,11:40:52,NA,incomplete,false,true,NA,NA,2,6,NA,white,n_l_028.jpg,NA,NA,NA,NA,NA,unpleasant,pleasant,NA,NA,NA,NA,NA,right,1244.60000000149,true,NA,NA,NA,NA,NA,NA,NA,NA
9I1JS1d8,3087lxlj7ptluqx9bvztb5iuvan0fr,3ydtzai2w1tdqjjwezccnq05fpv416,9I1JS1d8,2020-0188,2021-10-31,10:40:59,11:40:52,NA,incomplete,false,true,NA,NA,2,7,NA,white,n_l_096.jpg,NA,NA,NA,NA,NA,pleasant,unpleasant,NA,NA,NA,NA,NA,left,1095.60000000149,true,NA,NA,NA,NA,NA,NA,NA,NA
9I1JS1d8,3087lxlj7ptluqx9bvztb5iuvan0fr,3ydtzai2w1tdqjjwezccnq05fpv416,9I1JS1d8,2020-0188,2021-10-31,10:40:59,11:40:52,NA,incomplete,false,true,NA,NA,2,8,NA,white,m_s_081.jpg,NA,NA,NA,NA,NA,unpleasant,pleasant,NA,NA,NA,NA,NA,right,1069.60000000149,true,NA,NA,NA,NA,NA,NA,NA,NA
9I1JS1d8,3087lxlj7ptluqx9bvztb5iuvan0fr,3ydtzai2w1tdqjjwezccnq05fpv416,9I1JS1d8,2020-0188,2021-10-31,10:40:59,11:40:52,NA,incomplete,false,true,NA,NA,2,9,NA,white,m_l_009.jpg,NA,NA,NA,NA,NA,unpleasant,pleasant,NA,NA,NA,NA,NA,right,1000.89999999851,true,NA,NA,NA,NA,NA,NA,NA,NA
9I1JS1d8,3087lxlj7ptluqx9bvztb5iuvan0fr,3ydtzai2w1tdqjjwezccnq05fpv416,9I1JS1d8,2020-0188,2021-10-31,10:40:59,11:40:52,NA,incomplete,false,true,NA,NA,2,10,NA,white,m_s_036.jpg,NA,NA,NA,NA,NA,unpleasant,pleasant,NA,NA,NA,NA,NA,right,833.30000000447,true,NA,NA,NA,NA,NA,NA,NA,NA
9I1JS1d8,3087lxlj7ptluqx9bvztb5iuvan0fr,3ydtzai2w1tdqjjwezccnq05fpv416,9I1JS1d8,2020-0188,2021-10-31,10:40:59,11:40:52,NA,incomplete,false,true,NA,NA,2,11,NA,white,n_s_040.jpg,NA,NA,NA,NA,NA,unpleasant,pleasant,NA,NA,NA,NA,NA,left,1084.89999999851,true,NA,NA,NA,NA,NA,NA,NA,NA
9I1JS1d8,3087lxlj7ptluqx9bvztb5iuvan0fr,3ydtzai2w1tdqjjwezccnq05fpv416,9I1JS1d8,2020-0188,2021-10-31,10:40:59,11:40:52,NA,incomplete,false,true,NA,NA,2,12,NA,orange,n_s_102.jpg,NA,NA,NA,NA,NA,pleasant,unpleasant,NA,NA,NA,NA,NA,left,1139.10000000149,true,NA,NA,NA,NA,NA,NA,NA,NA
9I1JS1d8,3087lxlj7ptluqx9bvztb5iuvan0fr,3ydtzai2w1tdqjjwezccnq05fpv416,9I1JS1d8,2020-0188,2021-10-31,10:40:59,11:40:52,NA,incomplete,false,true,NA,NA,2,13,NA,orange,n_l_012.jpg,NA,NA,NA,NA,NA,pleasant,unpleasant,NA,NA,NA,NA,NA,left,1002.5,true,NA,NA,NA,NA,NA,NA,NA,NA
9I1JS1d8,3087lxlj7ptluqx9bvztb5iuvan0fr,3ydtzai2w1tdqjjwezccnq05fpv416,9I1JS1d8,2020-0188,2021-10-31,10:40:59,11:40:52,NA,incomplete,false,true,NA,NA,2,14,NA,orange,n_l_023.jpg,NA,NA,NA,NA,NA,pleasant,unpleasant,NA,NA,NA,NA,NA,left,1175.70000000298,true,NA,NA,NA,NA,NA,NA,NA,NA
9I1JS1d8,3087lxlj7ptluqx9bvztb5iuvan0fr,3ydtzai2w1tdqjjwezccnq05fpv416,9I1JS1d8,2020-0188,2021-10-31,10:40:59,11:40:52,NA,incomplete,false,true,NA,NA,2,15,NA,orange,n_s_089.jpg,NA,NA,NA,NA,NA,pleasant,unpleasant,NA,NA,NA,NA,NA,left,828.60000000149,true,NA,NA,NA,NA,NA,NA,NA,NA
9I1JS1d8,3087lxlj7ptluqx9bvztb5iuvan0fr,3ydtzai2w1tdqjjwezccnq05fpv416,9I1JS1d8,2020-0188,2021-10-31,10:40:59,11:40:52,NA,incomplete,false,true,NA,NA,2,16,NA,orange,n_l_042.jpg,NA,NA,NA,NA,NA,unpleasant,pleasant,NA,NA,NA,NA,NA,right,1634.10000000149,true,NA,NA,NA,NA,NA,NA,NA,NA
9I1JS1d8,3087lxlj7ptluqx9bvztb5iuvan0fr,3ydtzai2w1tdqjjwezccnq05fpv416,9I1JS1d8,2020-0188,2021-10-31,10:40:59,11:40:52,NA,incomplete,false,true,NA,NA,2,17,NA,orange,n_l_053.jpg,NA,NA,NA,NA,NA,unpleasant,pleasant,NA,NA,NA,NA,NA,left,1766.5,true,NA,NA,NA,NA,NA,NA,NA,NA
9I1JS1d8,3087lxlj7ptluqx9bvztb5iuvan0fr,3ydtzai2w1tdqjjwezccnq05fpv416,9I1JS1d8,2020-0188,2021-10-31,10:40:59,11:40:52,NA,incomplete,false,true,NA,NA,2,18,NA,red,n_l_108.jpg,NA,NA,NA,NA,NA,unpleasant,pleasant,NA,NA,NA,NA,NA,right,1429.30000000447,true,NA,NA,NA,NA,NA,NA,NA,NA
9I1JS1d8,3087lxlj7ptluqx9bvztb5iuvan0fr,3ydtzai2w1tdqjjwezccnq05fpv416,9I1JS1d8,2020-0188,2021-10-31,10:40:59,11:40:52,NA,incomplete,false,true,NA,NA,2,19,NA,red,n_s_008.jpg,NA,NA,NA,NA,NA,pleasant,unpleasant,NA,NA,NA,NA,NA,right,1150.79999999702,true,NA,NA,NA,NA,NA,NA,NA,NA
9I1JS1d8,3087lxlj7ptluqx9bvztb5iuvan0fr,3ydtzai2w1tdqjjwezccnq05fpv416,9I1JS1d8,2020-0188,2021-10-31,10:40:59,11:40:52,NA,incomplete,false,true,NA,NA,2,20,NA,red,m_s_080.jpg,NA,NA,NA,NA,NA,unpleasant,pleasant,NA,NA,NA,NA,NA,right,2030.40000000596,true,NA,NA,NA,NA,NA,NA,NA,NA
9I1JS1d8,3087lxlj7ptluqx9bvztb5iuvan0fr,3ydtzai2w1tdqjjwezccnq05fpv416,9I1JS1d8,2020-0188,2021-10-31,10:40:59,11:40:52,NA,incomplete,false,true,NA,NA,2,21,NA,red,m_l_094.jpg,NA,NA,NA,NA,NA,unpleasant,pleasant,NA,NA,NA,NA,NA,left,1012,true,NA,NA,NA,NA,NA,NA,NA,NA
9I1JS1d8,3087lxlj7ptluqx9bvztb5iuvan0fr,3ydtzai2w1tdqjjwezccnq05fpv416,9I1JS1d8,2020-0188,2021-10-31,10:40:59,11:40:52,NA,incomplete,false,true,NA,NA,2,22,NA,red,m_l_030.jpg,NA,NA,NA,NA,NA,unpleasant,pleasant,NA,NA,NA,NA,NA,left,1030.19999999553,true,NA,NA,NA,NA,NA,NA,NA,NA
9I1JS1d8,3087lxlj7ptluqx9bvztb5iuvan0fr,3ydtzai2w1tdqjjwezccnq05fpv416,9I1JS1d8,2020-0188,2021-10-31,10:40:59,11:40:52,NA,incomplete,false,true,NA,NA,2,23,NA,red,n_s_009.jpg,NA,NA,NA,NA,NA,unpleasant,pleasant,NA,NA,NA,NA,NA,left,1146.60000000149,true,NA,NA,NA,NA,NA,NA,NA,NA
9I1JS1d8,3087lxlj7ptluqx9bvztb5iuvan0fr,3ydtzai2w1tdqjjwezccnq05fpv416,9I1JS1d8,2020-0188,2021-10-31,10:40:59,11:40:52,NA,incomplete,false,true,NA,NA,2,24,NA,yellow,n_s_116.jpg,NA,NA,NA,NA,NA,unpleasant,pleasant,NA,NA,NA,NA,NA,left,1735.69999999553,true,NA,NA,NA,NA,NA,NA,NA,NA
9I1JS1d8,3087lxlj7ptluqx9bvztb5iuvan0fr,3ydtzai2w1tdqjjwezccnq05fpv416,9I1JS1d8,2020-0188,2021-10-31,10:40:59,11:40:52,NA,incomplete,false,true,NA,NA,2,25,NA,yellow,m_s_112.jpg,NA,NA,NA,NA,NA,unpleasant,pleasant,NA,NA,NA,NA,NA,right,1689.60000000149,true,NA,NA,NA,NA,NA,NA,NA,NA
9I1JS1d8,3087lxlj7ptluqx9bvztb5iuvan0fr,3ydtzai2w1tdqjjwezccnq05fpv416,9I1JS1d8,2020-0188,2021-10-31,10:40:59,11:40:52,NA,incomplete,false,true,NA,NA,2,26,NA,yellow,n_l_085.jpg,NA,NA,NA,NA,NA,unpleasant,pleasant,NA,NA,NA,NA,NA,left,1543,true,NA,NA,NA,NA,NA,NA,NA,NA
9I1JS1d8,3087lxlj7ptluqx9bvztb5iuvan0fr,3ydtzai2w1tdqjjwezccnq05fpv416,9I1JS1d8,2020-0188,2021-10-31,10:40:59,11:40:52,NA,incomplete,false,true,NA,NA,2,27,NA,yellow,m_s_105.jpg,NA,NA,NA,NA,NA,unpleasant,pleasant,NA,NA,NA,NA,NA,right,1890.20000000298,true,NA,NA,NA,NA,NA,NA,NA,NA
9I1JS1d8,3087lxlj7ptluqx9bvztb5iuvan0fr,3ydtzai2w1tdqjjwezccnq05fpv416,9I1JS1d8,2020-0188,2021-10-31,10:40:59,11:40:52,NA,incomplete,false,true,NA,NA,2,28,NA,yellow,n_s_026.jpg,NA,NA,NA,NA,NA,pleasant,unpleasant,NA,NA,NA,NA,NA,right,1099.80000000447,true,NA,NA,NA,NA,NA,NA,NA,NA
9I1JS1d8,3087lxlj7ptluqx9bvztb5iuvan0fr,3ydtzai2w1tdqjjwezccnq05fpv416,9I1JS1d8,2020-0188,2021-10-31,10:40:59,11:40:52,NA,incomplete,false,true,NA,NA,2,29,NA,yellow,m_s_013.jpg,NA,NA,NA,NA,NA,unpleasant,pleasant,NA,NA,NA,NA,NA,right,921.90000000596,true,NA,NA,NA,NA,NA,NA,NA,NA
9I1JS1d8,3087lxlj7ptluqx9bvztb5iuvan0fr,3ydtzai2w1tdqjjwezccnq05fpv416,9I1JS1d8,2020-0188,2021-10-31,10:40:59,11:40:52,NA,incomplete,false,true,NA,NA,2,30,NA,blue,m_l_021.jpg,NA,NA,NA,NA,NA,unpleasant,pleasant,NA,NA,NA,NA,NA,right,1764.5,true,NA,NA,NA,NA,NA,NA,NA,NA
9I1JS1d8,3087lxlj7ptluqx9bvztb5iuvan0fr,3ydtzai2w1tdqjjwezccnq05fpv416,9I1JS1d8,2020-0188,2021-10-31,10:40:59,11:40:52,NA,incomplete,false,true,NA,NA,2,31,NA,blue,m_s_108.jpg,NA,NA,NA,NA,NA,pleasant,unpleasant,NA,NA,NA,NA,NA,left,2487,true,NA,NA,NA,NA,NA,NA,NA,NA
9I1JS1d8,3087lxlj7ptluqx9bvztb5iuvan0fr,3ydtzai2w1tdqjjwezccnq05fpv416,9I1JS1d8,2020-0188,2021-10-31,10:40:59,11:40:52,NA,incomplete,false,true,NA,NA,2,32,NA,blue,m_l_087.jpg,NA,NA,NA,NA,NA,unpleasant,pleasant,NA,NA,NA,NA,NA,right,1028.69999999553,true,NA,NA,NA,NA,NA,NA,NA,NA
9I1JS1d8,3087lxlj7ptluqx9bvztb5iuvan0fr,3ydtzai2w1tdqjjwezccnq05fpv416,9I1JS1d8,2020-0188,2021-10-31,10:40:59,11:40:52,NA,incomplete,false,true,NA,NA,2,33,NA,blue,n_l_070.jpg,NA,NA,NA,NA,NA,unpleasant,pleasant,NA,NA,NA,NA,NA,right,1437,true,NA,NA,NA,NA,NA,NA,NA,NA
9I1JS1d8,3087lxlj7ptluqx9bvztb5iuvan0fr,3ydtzai2w1tdqjjwezccnq05fpv416,9I1JS1d8,2020-0188,2021-10-31,10:40:59,11:40:52,NA,incomplete,false,true,NA,NA,2,34,NA,blue,m_l_080.jpg,NA,NA,NA,NA,NA,unpleasant,pleasant,NA,NA,NA,NA,NA,right,1169.80000000447,true,NA,NA,NA,NA,NA,NA,NA,NA
9I1JS1d8,3087lxlj7ptluqx9bvztb5iuvan0fr,3ydtzai2w1tdqjjwezccnq05fpv416,9I1JS1d8,2020-0188,2021-10-31,10:40:59,11:40:52,NA,incomplete,false,true,NA,NA,2,35,NA,blue,m_s_111.jpg,NA,NA,NA,NA,NA,unpleasant,pleasant,NA,NA,NA,NA,NA,right,1180.80000000447,true,NA,NA,NA,NA,NA,NA,NA,NA
9I1JS1d8,3087lxlj7ptluqx9bvztb5iuvan0fr,3ydtzai2w1tdqjjwezccnq05fpv416,9I1JS1d8,2020-0188,2021-10-31,10:40:59,11:40:52,NA,incomplete,false,NA,NA,true,2,0,NA,NA,NA,left,m_s_013.jpg,yellow,blue,NA,NA,NA,NA,NA,NA,NA,NA,NA,NaN,NA,1985.1000000014901,left,1,NA,NA,NA,NA,NA
9I1JS1d8,3087lxlj7ptluqx9bvztb5iuvan0fr,3ydtzai2w1tdqjjwezccnq05fpv416,9I1JS1d8,2020-0188,2021-10-31,10:40:59,11:40:52,NA,incomplete,false,NA,NA,true,2,1,NA,NA,NA,right,n_l_042.jpg,red,orange,NA,NA,NA,NA,NA,NA,NA,NA,NA,NaN,NA,1236.7999999970198,right,1,NA,NA,NA,NA,NA
9I1JS1d8,3087lxlj7ptluqx9bvztb5iuvan0fr,3ydtzai2w1tdqjjwezccnq05fpv416,9I1JS1d8,2020-0188,2021-10-31,10:40:59,11:40:52,NA,incomplete,false,NA,NA,true,2,2,NA,NA,NA,left,m_s_036.jpg,white,green,NA,NA,NA,NA,NA,NA,NA,NA,NA,NaN,NA,1941.0999999940395,left,1,NA,NA,NA,NA,NA
9I1JS1d8,3087lxlj7ptluqx9bvztb5iuvan0fr,3ydtzai2w1tdqjjwezccnq05fpv416,9I1JS1d8,2020-0188,2021-10-31,10:40:59,11:40:52,NA,incomplete,false,NA,NA,true,2,3,NA,NA,NA,right,m_s_080.jpg,yellow,red,NA,NA,NA,NA,NA,NA,NA,NA,NA,NaN,NA,662.8000000044703,right,1,NA,NA,NA,NA,NA
9I1JS1d8,3087lxlj7ptluqx9bvztb5iuvan0fr,3ydtzai2w1tdqjjwezccnq05fpv416,9I1JS1d8,2020-0188,2021-10-31,10:40:59,11:40:52,NA,incomplete,false,NA,NA,true,2,4,NA,NA,NA,left,m_s_111.jpg,blue,yellow,NA,NA,NA,NA,NA,NA,NA,NA,NA,NaN,NA,2847,left,1,NA,NA,NA,NA,NA
9I1JS1d8,3087lxlj7ptluqx9bvztb5iuvan0fr,3ydtzai2w1tdqjjwezccnq05fpv416,9I1JS1d8,2020-0188,2021-10-31,10:40:59,11:40:52,NA,incomplete,false,NA,NA,true,2,5,NA,NA,NA,left,m_s_108.jpg,blue,yellow,NA,NA,NA,NA,NA,NA,NA,NA,NA,NaN,NA,861.5999999940395,left,1,NA,NA,NA,NA,NA
9I1JS1d8,3087lxlj7ptluqx9bvztb5iuvan0fr,3ydtzai2w1tdqjjwezccnq05fpv416,9I1JS1d8,2020-0188,2021-10-31,10:40:59,11:40:52,NA,incomplete,false,NA,NA,true,2,6,NA,NA,NA,right,m_l_058.jpg,white,green,NA,NA,NA,NA,NA,NA,NA,NA,NA,NaN,NA,747.1000000014901,right,1,NA,NA,NA,NA,NA
9I1JS1d8,3087lxlj7ptluqx9bvztb5iuvan0fr,3ydtzai2w1tdqjjwezccnq05fpv416,9I1JS1d8,2020-0188,2021-10-31,10:40:59,11:40:52,NA,incomplete,false,NA,NA,true,2,7,NA,NA,NA,right,n_s_009.jpg,orange,red,NA,NA,NA,NA,NA,NA,NA,NA,NA,NaN,NA,832.1000000014901,right,1,NA,NA,NA,NA,NA
9I1JS1d8,3087lxlj7ptluqx9bvztb5iuvan0fr,3ydtzai2w1tdqjjwezccnq05fpv416,9I1JS1d8,2020-0188,2021-10-31,10:40:59,11:40:52,NA,incomplete,false,NA,NA,true,2,8,NA,NA,NA,left,n_l_023.jpg,orange,white,NA,NA,NA,NA,NA,NA,NA,NA,NA,NaN,NA,621,right,0,NA,NA,NA,NA,NA
9I1JS1d8,3087lxlj7ptluqx9bvztb5iuvan0fr,3ydtzai2w1tdqjjwezccnq05fpv416,9I1JS1d8,2020-0188,2021-10-31,10:40:59,11:40:52,NA,incomplete,false,NA,NA,true,2,9,NA,NA,NA,right,n_l_096.jpg,green,white,NA,NA,NA,NA,NA,NA,NA,NA,NA,NaN,NA,1105.6000000014901,left,0,NA,NA,NA,NA,NA
9I1JS1d8,3087lxlj7ptluqx9bvztb5iuvan0fr,3ydtzai2w1tdqjjwezccnq05fpv416,9I1JS1d8,2020-0188,2021-10-31,10:40:59,11:40:52,NA,incomplete,false,NA,NA,true,2,10,NA,NA,NA,left,m_s_112.jpg,yellow,red,NA,NA,NA,NA,NA,NA,NA,NA,NA,NaN,NA,658.1999999955297,right,0,NA,NA,NA,NA,NA
9I1JS1d8,3087lxlj7ptluqx9bvztb5iuvan0fr,3ydtzai2w1tdqjjwezccnq05fpv416,9I1JS1d8,2020-0188,2021-10-31,10:40:59,11:40:52,NA,incomplete,false,NA,NA,true,2,11,NA,NA,NA,left,m_l_065.jpg,green,white,NA,NA,NA,NA,NA,NA,NA,NA,NA,NaN,NA,1057.3000000044703,left,1,NA,NA,NA,NA,NA
9I1JS1d8,3087lxlj7ptluqx9bvztb5iuvan0fr,3ydtzai2w1tdqjjwezccnq05fpv416,9I1JS1d8,2020-0188,2021-10-31,10:40:59,11:40:52,NA,incomplete,false,NA,NA,true,2,12,NA,NA,NA,right,m_l_087.jpg,yellow,blue,NA,NA,NA,NA,NA,NA,NA,NA,NA,NaN,NA,2737,left,0,NA,NA,NA,NA,NA
9I1JS1d8,3087lxlj7ptluqx9bvztb5iuvan0fr,3ydtzai2w1tdqjjwezccnq05fpv416,9I1JS1d8,2020-0188,2021-10-31,10:40:59,11:40:52,NA,incomplete,false,NA,NA,true,2,13,NA,NA,NA,right,n_l_012.jpg,white,orange,NA,NA,NA,NA,NA,NA,NA,NA,NA,NaN,NA,596.5,right,1,NA,NA,NA,NA,NA
9I1JS1d8,3087lxlj7ptluqx9bvztb5iuvan0fr,3ydtzai2w1tdqjjwezccnq05fpv416,9I1JS1d8,2020-0188,2021-10-31,10:40:59,11:40:52,NA,incomplete,false,NA,NA,true,2,14,NA,NA,NA,right,n_s_040.jpg,green,white,NA,NA,NA,NA,NA,NA,NA,NA,NA,NaN,NA,1615.1999999955297,left,0,NA,NA,NA,NA,NA
9I1JS1d8,3087lxlj7ptluqx9bvztb5iuvan0fr,3ydtzai2w1tdqjjwezccnq05fpv416,9I1JS1d8,2020-0188,2021-10-31,10:40:59,11:40:52,NA,incomplete,false,NA,NA,true,2,15,NA,NA,NA,right,n_s_008.jpg,orange,red,NA,NA,NA,NA,NA,NA,NA,NA,NA,NaN,NA,643.7999999970198,right,1,NA,NA,NA,NA,NA
9I1JS1d8,3087lxlj7ptluqx9bvztb5iuvan0fr,3ydtzai2w1tdqjjwezccnq05fpv416,9I1JS1d8,2020-0188,2021-10-31,10:40:59,11:40:52,NA,incomplete,false,NA,NA,true,2,16,NA,NA,NA,left,m_l_030.jpg,red,orange,NA,NA,NA,NA,NA,NA,NA,NA,NA,NaN,NA,922.5,left,1,NA,NA,NA,NA,NA
9I1JS1d8,3087lxlj7ptluqx9bvztb5iuvan0fr,3ydtzai2w1tdqjjwezccnq05fpv416,9I1JS1d8,2020-0188,2021-10-31,10:40:59,11:40:52,NA,incomplete,false,NA,NA,true,2,17,NA,NA,NA,right,n_l_085.jpg,blue,yellow,NA,NA,NA,NA,NA,NA,NA,NA,NA,NaN,NA,701.3000000044703,right,1,NA,NA,NA,NA,NA
9I1JS1d8,3087lxlj7ptluqx9bvztb5iuvan0fr,3ydtzai2w1tdqjjwezccnq05fpv416,9I1JS1d8,2020-0188,2021-10-31,10:40:59,11:40:52,NA,incomplete,false,NA,NA,true,2,18,NA,NA,NA,right,n_l_053.jpg,white,orange,NA,NA,NA,NA,NA,NA,NA,NA,NA,NaN,NA,684.1999999955297,right,1,NA,NA,NA,NA,NA
9I1JS1d8,3087lxlj7ptluqx9bvztb5iuvan0fr,3ydtzai2w1tdqjjwezccnq05fpv416,9I1JS1d8,2020-0188,2021-10-31,10:40:59,11:40:52,NA,incomplete,false,NA,NA,true,2,19,NA,NA,NA,right,m_l_017.jpg,white,green,NA,NA,NA,NA,NA,NA,NA,NA,NA,NaN,NA,630.1999999955297,right,1,NA,NA,NA,NA,NA
9I1JS1d8,3087lxlj7ptluqx9bvztb5iuvan0fr,3ydtzai2w1tdqjjwezccnq05fpv416,9I1JS1d8,2020-0188,2021-10-31,10:40:59,11:40:52,NA,incomplete,false,NA,NA,true,2,20,NA,NA,NA,left,n_s_026.jpg,yellow,red,NA,NA,NA,NA,NA,NA,NA,NA,NA,NaN,NA,960,left,1,NA,NA,NA,NA,NA
9I1JS1d8,3087lxlj7ptluqx9bvztb5iuvan0fr,3ydtzai2w1tdqjjwezccnq05fpv416,9I1JS1d8,2020-0188,2021-10-31,10:40:59,11:40:52,NA,incomplete,false,NA,NA,true,2,21,NA,NA,NA,left,m_s_081.jpg,white,green,NA,NA,NA,NA,NA,NA,NA,NA,NA,NaN,NA,835.5,left,1,NA,NA,NA,NA,NA
9I1JS1d8,3087lxlj7ptluqx9bvztb5iuvan0fr,3ydtzai2w1tdqjjwezccnq05fpv416,9I1JS1d8,2020-0188,2021-10-31,10:40:59,11:40:52,NA,incomplete,false,NA,true,NA,2,0,NA,NA,NA,left,NA,NA,NA,absent,NA,NA,m_s_036.jpg,white,n_l_023.jpg,orange,between,NA,NaN,NA,NA,NA,NA,left,3089.2999999970198,1,1,817.1999999955297
9I1JS1d8,3087lxlj7ptluqx9bvztb5iuvan0fr,3ydtzai2w1tdqjjwezccnq05fpv416,9I1JS1d8,2020-0188,2021-10-31,10:40:59,11:40:52,NA,incomplete,false,NA,true,NA,2,1,NA,NA,NA,right,NA,NA,NA,absent,NA,NA,m_l_087.jpg,blue,n_s_026.jpg,yellow,between,NA,NaN,NA,NA,NA,NA,right,1580.1999999955297,1,1,630.2999999970198
9I1JS1d8,3087lxlj7ptluqx9bvztb5iuvan0fr,3ydtzai2w1tdqjjwezccnq05fpv416,9I1JS1d8,2020-0188,2021-10-31,10:40:59,11:40:52,NA,incomplete,false,NA,true,NA,2,2,NA,NA,NA,left,NA,NA,NA,absent,NA,NA,m_l_030.jpg,red,n_l_085.jpg,yellow,between,NA,NaN,NA,NA,NA,NA,right,1424,0,0,1374.7999999970198
9I1JS1d8,3087lxlj7ptluqx9bvztb5iuvan0fr,3ydtzai2w1tdqjjwezccnq05fpv416,9I1JS1d8,2020-0188,2021-10-31,10:40:59,11:40:52,NA,incomplete,false,NA,true,NA,2,3,NA,NA,NA,right,NA,NA,NA,absent,NA,NA,n_s_040.jpg,white,n_l_096.jpg,white,within,NA,NaN,NA,NA,NA,NA,right,941,1,1,529.8000000044703
9I1JS1d8,3087lxlj7ptluqx9bvztb5iuvan0fr,3ydtzai2w1tdqjjwezccnq05fpv416,9I1JS1d8,2020-0188,2021-10-31,10:40:59,11:40:52,NA,incomplete,false,NA,true,NA,2,4,NA,NA,NA,left,NA,NA,NA,absent,NA,NA,n_l_042.jpg,orange,m_s_080.jpg,red,between,NA,NaN,NA,NA,NA,NA,right,2945.39999999851,0,1,533.3999999985099
9I1JS1d8,3087lxlj7ptluqx9bvztb5iuvan0fr,3ydtzai2w1tdqjjwezccnq05fpv416,9I1JS1d8,2020-0188,2021-10-31,10:40:59,11:40:52,NA,incomplete,false,NA,true,NA,2,5,NA,NA,NA,right,NA,NA,NA,absent,NA,NA,m_s_013.jpg,yellow,m_s_112.jpg,yellow,within,NA,NaN,NA,NA,NA,NA,right,1255,1,1,460
9I1JS1d8,3087lxlj7ptluqx9bvztb5iuvan0fr,3ydtzai2w1tdqjjwezccnq05fpv416,9I1JS1d8,2020-0188,2021-10-31,10:40:59,11:40:52,NA,incomplete,false,NA,true,NA,2,6,NA,NA,NA,left,NA,NA,NA,absent,NA,NA,m_l_065.jpg,green,m_l_058.jpg,green,within,NA,NaN,NA,NA,NA,NA,right,1344.8999999985099,0,1,400.5
9I1JS1d8,3087lxlj7ptluqx9bvztb5iuvan0fr,3ydtzai2w1tdqjjwezccnq05fpv416,9I1JS1d8,2020-0188,2021-10-31,10:40:59,11:40:52,NA,incomplete,false,NA,true,NA,2,7,NA,NA,NA,right,NA,NA,NA,absent,NA,NA,n_s_009.jpg,red,n_s_008.jpg,red,within,NA,NaN,NA,NA,NA,NA,left,1328.3999999985099,0,2,677.7000000029802
9I1JS1d8,3087lxlj7ptluqx9bvztb5iuvan0fr,3ydtzai2w1tdqjjwezccnq05fpv416,9I1JS1d8,2020-0188,2021-10-31,10:40:59,11:40:52,NA,incomplete,false,NA,true,NA,2,8,NA,NA,NA,right,NA,NA,NA,absent,NA,NA,m_s_111.jpg,blue,m_s_108.jpg,blue,within,NA,NaN,NA,NA,NA,NA,left,1429.8999999985099,0,0,1094.6999999955297
9I1JS1d8,3087lxlj7ptluqx9bvztb5iuvan0fr,3ydtzai2w1tdqjjwezccnq05fpv416,9I1JS1d8,2020-0188,2021-10-31,10:40:59,11:40:52,NA,incomplete,false,NA,true,NA,2,9,NA,NA,NA,right,NA,NA,NA,absent,NA,NA,n_l_053.jpg,orange,n_l_012.jpg,orange,within,NA,NaN,NA,NA,NA,NA,right,1019.3999999985099,1,0,812.8999999985099
9I1JS1d8,3087lxlj7ptluqx9bvztb5iuvan0fr,3ydtzai2w1tdqjjwezccnq05fpv416,9I1JS1d8,2020-0188,2021-10-31,10:40:59,11:40:52,NA,incomplete,false,NA,true,NA,2,10,NA,NA,NA,left,NA,NA,NA,absent,NA,NA,m_l_017.jpg,green,m_s_081.jpg,white,between,NA,NaN,NA,NA,NA,NA,left,1324.7999999970198,1,1,515.7000000029802
9I1JS1d8,3087lxlj7ptluqx9bvztb5iuvan0fr,3ydtzai2w1tdqjjwezccnq05fpv416,9I1JS1d8,2020-0188,2021-10-31,10:40:59,11:40:52,NA,incomplete,false,true,NA,NA,3,0,NA,white,n_l_018.jpg,NA,NA,NA,NA,NA,pleasant,unpleasant,NA,NA,NA,NA,NA,left,2495.89999999851,true,NA,NA,NA,NA,NA,NA,NA,NA
9I1JS1d8,3087lxlj7ptluqx9bvztb5iuvan0fr,3ydtzai2w1tdqjjwezccnq05fpv416,9I1JS1d8,2020-0188,2021-10-31,10:40:59,11:40:52,NA,incomplete,false,true,NA,NA,3,1,NA,white,n_s_111.jpg,NA,NA,NA,NA,NA,pleasant,unpleasant,NA,NA,NA,NA,NA,right,1260.79999999702,true,NA,NA,NA,NA,NA,NA,NA,NA
9I1JS1d8,3087lxlj7ptluqx9bvztb5iuvan0fr,3ydtzai2w1tdqjjwezccnq05fpv416,9I1JS1d8,2020-0188,2021-10-31,10:40:59,11:40:52,NA,incomplete,false,true,NA,NA,3,2,NA,white,m_l_086.jpg,NA,NA,NA,NA,NA,pleasant,unpleasant,NA,NA,NA,NA,NA,left,1131.69999999553,true,NA,NA,NA,NA,NA,NA,NA,NA
9I1JS1d8,3087lxlj7ptluqx9bvztb5iuvan0fr,3ydtzai2w1tdqjjwezccnq05fpv416,9I1JS1d8,2020-0188,2021-10-31,10:40:59,11:40:52,NA,incomplete,false,true,NA,NA,3,3,NA,white,m_s_087.jpg,NA,NA,NA,NA,NA,pleasant,unpleasant,NA,NA,NA,NA,NA,left,1655.29999999702,true,NA,NA,NA,NA,NA,NA,NA,NA
9I1JS1d8,3087lxlj7ptluqx9bvztb5iuvan0fr,3ydtzai2w1tdqjjwezccnq05fpv416,9I1JS1d8,2020-0188,2021-10-31,10:40:59,11:40:52,NA,incomplete,false,true,NA,NA,3,4,NA,white,m_l_002.jpg,NA,NA,NA,NA,NA,unpleasant,pleasant,NA,NA,NA,NA,NA,right,1019.30000000447,true,NA,NA,NA,NA,NA,NA,NA,NA
9I1JS1d8,3087lxlj7ptluqx9bvztb5iuvan0fr,3ydtzai2w1tdqjjwezccnq05fpv416,9I1JS1d8,2020-0188,2021-10-31,10:40:59,11:40:52,NA,incomplete,false,true,NA,NA,3,5,NA,white,n_s_097.jpg,NA,NA,NA,NA,NA,unpleasant,pleasant,NA,NA,NA,NA,NA,right,1002.70000000298,true,NA,NA,NA,NA,NA,NA,NA,NA
9I1JS1d8,3087lxlj7ptluqx9bvztb5iuvan0fr,3ydtzai2w1tdqjjwezccnq05fpv416,9I1JS1d8,2020-0188,2021-10-31,10:40:59,11:40:52,NA,incomplete,false,true,NA,NA,3,6,NA,yellow,m_s_048.jpg,NA,NA,NA,NA,NA,unpleasant,pleasant,NA,NA,NA,NA,NA,right,1195.29999999702,true,NA,NA,NA,NA,NA,NA,NA,NA
9I1JS1d8,3087lxlj7ptluqx9bvztb5iuvan0fr,3ydtzai2w1tdqjjwezccnq05fpv416,9I1JS1d8,2020-0188,2021-10-31,10:40:59,11:40:52,NA,incomplete,false,true,NA,NA,3,7,NA,yellow,n_l_114.jpg,NA,NA,NA,NA,NA,pleasant,unpleasant,NA,NA,NA,NA,NA,right,1436.79999999702,true,NA,NA,NA,NA,NA,NA,NA,NA
9I1JS1d8,3087lxlj7ptluqx9bvztb5iuvan0fr,3ydtzai2w1tdqjjwezccnq05fpv416,9I1JS1d8,2020-0188,2021-10-31,10:40:59,11:40:52,NA,incomplete,false,true,NA,NA,3,8,NA,yellow,m_s_035.jpg,NA,NA,NA,NA,NA,unpleasant,pleasant,NA,NA,NA,NA,NA,right,1259.70000000298,true,NA,NA,NA,NA,NA,NA,NA,NA
9I1JS1d8,3087lxlj7ptluqx9bvztb5iuvan0fr,3ydtzai2w1tdqjjwezccnq05fpv416,9I1JS1d8,2020-0188,2021-10-31,10:40:59,11:40:52,NA,incomplete,false,true,NA,NA,3,9,NA,yellow,n_s_105.jpg,NA,NA,NA,NA,NA,unpleasant,pleasant,NA,NA,NA,NA,NA,right,1729.5,true,NA,NA,NA,NA,NA,NA,NA,NA
9I1JS1d8,3087lxlj7ptluqx9bvztb5iuvan0fr,3ydtzai2w1tdqjjwezccnq05fpv416,9I1JS1d8,2020-0188,2021-10-31,10:40:59,11:40:52,NA,incomplete,false,true,NA,NA,3,10,NA,yellow,n_s_004.jpg,NA,NA,NA,NA,NA,unpleasant,pleasant,NA,NA,NA,NA,NA,left,1418.20000000298,true,NA,NA,NA,NA,NA,NA,NA,NA
9I1JS1d8,3087lxlj7ptluqx9bvztb5iuvan0fr,3ydtzai2w1tdqjjwezccnq05fpv416,9I1JS1d8,2020-0188,2021-10-31,10:40:59,11:40:52,NA,incomplete,false,true,NA,NA,3,11,NA,yellow,m_l_115.jpg,NA,NA,NA,NA,NA,unpleasant,pleasant,NA,NA,NA,NA,NA,right,1243,true,NA,NA,NA,NA,NA,NA,NA,NA
9I1JS1d8,3087lxlj7ptluqx9bvztb5iuvan0fr,3ydtzai2w1tdqjjwezccnq05fpv416,9I1JS1d8,2020-0188,2021-10-31,10:40:59,11:40:52,NA,incomplete,false,true,NA,NA,3,12,NA,green,m_s_078.jpg,NA,NA,NA,NA,NA,pleasant,unpleasant,NA,NA,NA,NA,NA,left,1747.20000000298,true,NA,NA,NA,NA,NA,NA,NA,NA
9I1JS1d8,3087lxlj7ptluqx9bvztb5iuvan0fr,3ydtzai2w1tdqjjwezccnq05fpv416,9I1JS1d8,2020-0188,2021-10-31,10:40:59,11:40:52,NA,incomplete,false,true,NA,NA,3,13,NA,green,n_l_092.jpg,NA,NA,NA,NA,NA,unpleasant,pleasant,NA,NA,NA,NA,NA,right,1308.5,true,NA,NA,NA,NA,NA,NA,NA,NA
9I1JS1d8,3087lxlj7ptluqx9bvztb5iuvan0fr,3ydtzai2w1tdqjjwezccnq05fpv416,9I1JS1d8,2020-0188,2021-10-31,10:40:59,11:40:52,NA,incomplete,false,true,NA,NA,3,14,NA,green,m_s_001.jpg,NA,NA,NA,NA,NA,unpleasant,pleasant,NA,NA,NA,NA,NA,right,894.39999999851,true,NA,NA,NA,NA,NA,NA,NA,NA
9I1JS1d8,3087lxlj7ptluqx9bvztb5iuvan0fr,3ydtzai2w1tdqjjwezccnq05fpv416,9I1JS1d8,2020-0188,2021-10-31,10:40:59,11:40:52,NA,incomplete,false,true,NA,NA,3,15,NA,green,n_l_016.jpg,NA,NA,NA,NA,NA,pleasant,unpleasant,NA,NA,NA,NA,NA,left,1236.90000000596,true,NA,NA,NA,NA,NA,NA,NA,NA
9I1JS1d8,3087lxlj7ptluqx9bvztb5iuvan0fr,3ydtzai2w1tdqjjwezccnq05fpv416,9I1JS1d8,2020-0188,2021-10-31,10:40:59,11:40:52,NA,incomplete,false,true,NA,NA,3,16,NA,green,m_s_014.jpg,NA,NA,NA,NA,NA,unpleasant,pleasant,NA,NA,NA,NA,NA,right,725.5,true,NA,NA,NA,NA,NA,NA,NA,NA
9I1JS1d8,3087lxlj7ptluqx9bvztb5iuvan0fr,3ydtzai2w1tdqjjwezccnq05fpv416,9I1JS1d8,2020-0188,2021-10-31,10:40:59,11:40:52,NA,incomplete,false,true,NA,NA,3,17,NA,green,n_s_003.jpg,NA,NA,NA,NA,NA,pleasant,unpleasant,NA,NA,NA,NA,NA,right,1225.80000000447,true,NA,NA,NA,NA,NA,NA,NA,NA
9I1JS1d8,3087lxlj7ptluqx9bvztb5iuvan0fr,3ydtzai2w1tdqjjwezccnq05fpv416,9I1JS1d8,2020-0188,2021-10-31,10:40:59,11:40:52,NA,incomplete,false,true,NA,NA,3,18,NA,gray,n_l_049.jpg,NA,NA,NA,NA,NA,unpleasant,pleasant,NA,NA,NA,NA,NA,right,1398.89999999851,true,NA,NA,NA,NA,NA,NA,NA,NA
9I1JS1d8,3087lxlj7ptluqx9bvztb5iuvan0fr,3ydtzai2w1tdqjjwezccnq05fpv416,9I1JS1d8,2020-0188,2021-10-31,10:40:59,11:40:52,NA,incomplete,false,true,NA,NA,3,19,NA,gray,n_s_013.jpg,NA,NA,NA,NA,NA,unpleasant,pleasant,NA,NA,NA,NA,NA,right,796.89999999851,true,NA,NA,NA,NA,NA,NA,NA,NA
9I1JS1d8,3087lxlj7ptluqx9bvztb5iuvan0fr,3ydtzai2w1tdqjjwezccnq05fpv416,9I1JS1d8,2020-0188,2021-10-31,10:40:59,11:40:52,NA,incomplete,false,true,NA,NA,3,20,NA,gray,n_l_117.jpg,NA,NA,NA,NA,NA,unpleasant,pleasant,NA,NA,NA,NA,NA,left,1355.19999999553,true,NA,NA,NA,NA,NA,NA,NA,NA
9I1JS1d8,3087lxlj7ptluqx9bvztb5iuvan0fr,3ydtzai2w1tdqjjwezccnq05fpv416,9I1JS1d8,2020-0188,2021-10-31,10:40:59,11:40:52,NA,incomplete,false,true,NA,NA,3,21,NA,gray,m_l_113.jpg,NA,NA,NA,NA,NA,pleasant,unpleasant,NA,NA,NA,NA,NA,left,1340.5,true,NA,NA,NA,NA,NA,NA,NA,NA
9I1JS1d8,3087lxlj7ptluqx9bvztb5iuvan0fr,3ydtzai2w1tdqjjwezccnq05fpv416,9I1JS1d8,2020-0188,2021-10-31,10:40:59,11:40:52,NA,incomplete,false,true,NA,NA,3,22,NA,gray,n_l_007.jpg,NA,NA,NA,NA,NA,unpleasant,pleasant,NA,NA,NA,NA,NA,right,1243.10000000149,true,NA,NA,NA,NA,NA,NA,NA,NA
9I1JS1d8,3087lxlj7ptluqx9bvztb5iuvan0fr,3ydtzai2w1tdqjjwezccnq05fpv416,9I1JS1d8,2020-0188,2021-10-31,10:40:59,11:40:52,NA,incomplete,false,true,NA,NA,3,23,NA,gray,n_l_072.jpg,NA,NA,NA,NA,NA,unpleasant,pleasant,NA,NA,NA,NA,NA,left,1209,true,NA,NA,NA,NA,NA,NA,NA,NA
9I1JS1d8,3087lxlj7ptluqx9bvztb5iuvan0fr,3ydtzai2w1tdqjjwezccnq05fpv416,9I1JS1d8,2020-0188,2021-10-31,10:40:59,11:40:52,NA,incomplete,false,true,NA,NA,3,24,NA,brown,m_s_032.jpg,NA,NA,NA,NA,NA,pleasant,unpleasant,NA,NA,NA,NA,NA,left,1196.40000000596,true,NA,NA,NA,NA,NA,NA,NA,NA
9I1JS1d8,3087lxlj7ptluqx9bvztb5iuvan0fr,3ydtzai2w1tdqjjwezccnq05fpv416,9I1JS1d8,2020-0188,2021-10-31,10:40:59,11:40:52,NA,incomplete,false,true,NA,NA,3,25,NA,brown,n_s_061.jpg,NA,NA,NA,NA,NA,pleasant,unpleasant,NA,NA,NA,NA,NA,right,899.5,true,NA,NA,NA,NA,NA,NA,NA,NA
9I1JS1d8,3087lxlj7ptluqx9bvztb5iuvan0fr,3ydtzai2w1tdqjjwezccnq05fpv416,9I1JS1d8,2020-0188,2021-10-31,10:40:59,11:40:52,NA,incomplete,false,true,NA,NA,3,26,NA,brown,m_s_114.jpg,NA,NA,NA,NA,NA,unpleasant,pleasant,NA,NA,NA,NA,NA,right,1741.59999999404,true,NA,NA,NA,NA,NA,NA,NA,NA
9I1JS1d8,3087lxlj7ptluqx9bvztb5iuvan0fr,3ydtzai2w1tdqjjwezccnq05fpv416,9I1JS1d8,2020-0188,2021-10-31,10:40:59,11:40:52,NA,incomplete,false,true,NA,NA,3,27,NA,brown,n_l_015.jpg,NA,NA,NA,NA,NA,pleasant,unpleasant,NA,NA,NA,NA,NA,left,1726.59999999404,true,NA,NA,NA,NA,NA,NA,NA,NA
9I1JS1d8,3087lxlj7ptluqx9bvztb5iuvan0fr,3ydtzai2w1tdqjjwezccnq05fpv416,9I1JS1d8,2020-0188,2021-10-31,10:40:59,11:40:52,NA,incomplete,false,true,NA,NA,3,28,NA,brown,n_s_019.jpg,NA,NA,NA,NA,NA,pleasant,unpleasant,NA,NA,NA,NA,NA,left,1040.5,true,NA,NA,NA,NA,NA,NA,NA,NA
9I1JS1d8,3087lxlj7ptluqx9bvztb5iuvan0fr,3ydtzai2w1tdqjjwezccnq05fpv416,9I1JS1d8,2020-0188,2021-10-31,10:40:59,11:40:52,NA,incomplete,false,true,NA,NA,3,29,NA,brown,n_l_013.jpg,NA,NA,NA,NA,NA,unpleasant,pleasant,NA,NA,NA,NA,NA,left,2062.60000000149,true,NA,NA,NA,NA,NA,NA,NA,NA
9I1JS1d8,3087lxlj7ptluqx9bvztb5iuvan0fr,3ydtzai2w1tdqjjwezccnq05fpv416,9I1JS1d8,2020-0188,2021-10-31,10:40:59,11:40:52,NA,incomplete,false,true,NA,NA,3,30,NA,purple,m_s_066.jpg,NA,NA,NA,NA,NA,unpleasant,pleasant,NA,NA,NA,NA,NA,right,1717.89999999851,true,NA,NA,NA,NA,NA,NA,NA,NA
9I1JS1d8,3087lxlj7ptluqx9bvztb5iuvan0fr,3ydtzai2w1tdqjjwezccnq05fpv416,9I1JS1d8,2020-0188,2021-10-31,10:40:59,11:40:52,NA,incomplete,false,true,NA,NA,3,31,NA,purple,m_l_063.jpg,NA,NA,NA,NA,NA,unpleasant,pleasant,NA,NA,NA,NA,NA,right,1128.60000000149,true,NA,NA,NA,NA,NA,NA,NA,NA
9I1JS1d8,3087lxlj7ptluqx9bvztb5iuvan0fr,3ydtzai2w1tdqjjwezccnq05fpv416,9I1JS1d8,2020-0188,2021-10-31,10:40:59,11:40:52,NA,incomplete,false,true,NA,NA,3,32,NA,purple,m_l_108.jpg,NA,NA,NA,NA,NA,pleasant,unpleasant,NA,NA,NA,NA,NA,left,1268,true,NA,NA,NA,NA,NA,NA,NA,NA
9I1JS1d8,3087lxlj7ptluqx9bvztb5iuvan0fr,3ydtzai2w1tdqjjwezccnq05fpv416,9I1JS1d8,2020-0188,2021-10-31,10:40:59,11:40:52,NA,incomplete,false,true,NA,NA,3,33,NA,purple,m_s_113.jpg,NA,NA,NA,NA,NA,unpleasant,pleasant,NA,NA,NA,NA,NA,right,2207.80000000447,true,NA,NA,NA,NA,NA,NA,NA,NA
9I1JS1d8,3087lxlj7ptluqx9bvztb5iuvan0fr,3ydtzai2w1tdqjjwezccnq05fpv416,9I1JS1d8,2020-0188,2021-10-31,10:40:59,11:40:52,NA,incomplete,false,true,NA,NA,3,34,NA,purple,m_l_032.jpg,NA,NA,NA,NA,NA,pleasant,unpleasant,NA,NA,NA,NA,NA,left,935.79999999702,true,NA,NA,NA,NA,NA,NA,NA,NA
9I1JS1d8,3087lxlj7ptluqx9bvztb5iuvan0fr,3ydtzai2w1tdqjjwezccnq05fpv416,9I1JS1d8,2020-0188,2021-10-31,10:40:59,11:40:52,NA,incomplete,false,true,NA,NA,3,35,NA,purple,n_l_101.jpg,NA,NA,NA,NA,NA,pleasant,unpleasant,NA,NA,NA,NA,NA,left,1315.60000000149,true,NA,NA,NA,NA,NA,NA,NA,NA
9I1JS1d8,3087lxlj7ptluqx9bvztb5iuvan0fr,3ydtzai2w1tdqjjwezccnq05fpv416,9I1JS1d8,2020-0188,2021-10-31,10:40:59,11:40:52,NA,incomplete,false,NA,NA,true,3,0,NA,NA,NA,right,n_l_007.jpg,green,gray,NA,NA,NA,NA,NA,NA,NA,NA,NA,NaN,NA,1616.3999999985099,right,1,NA,NA,NA,NA,NA
9I1JS1d8,3087lxlj7ptluqx9bvztb5iuvan0fr,3ydtzai2w1tdqjjwezccnq05fpv416,9I1JS1d8,2020-0188,2021-10-31,10:40:59,11:40:52,NA,incomplete,false,NA,NA,true,3,1,NA,NA,NA,right,n_s_004.jpg,white,yellow,NA,NA,NA,NA,NA,NA,NA,NA,NA,NaN,NA,678.5,right,1,NA,NA,NA,NA,NA
9I1JS1d8,3087lxlj7ptluqx9bvztb5iuvan0fr,3ydtzai2w1tdqjjwezccnq05fpv416,9I1JS1d8,2020-0188,2021-10-31,10:40:59,11:40:52,NA,incomplete,false,NA,NA,true,3,2,NA,NA,NA,left,n_s_097.jpg,white,yellow,NA,NA,NA,NA,NA,NA,NA,NA,NA,NaN,NA,1609.2000000029802,left,1,NA,NA,NA,NA,NA
9I1JS1d8,3087lxlj7ptluqx9bvztb5iuvan0fr,3ydtzai2w1tdqjjwezccnq05fpv416,9I1JS1d8,2020-0188,2021-10-31,10:40:59,11:40:52,NA,incomplete,false,NA,NA,true,3,3,NA,NA,NA,right,n_s_019.jpg,gray,brown,NA,NA,NA,NA,NA,NA,NA,NA,NA,NaN,NA,1102.6000000014901,left,0,NA,NA,NA,NA,NA
9I1JS1d8,3087lxlj7ptluqx9bvztb5iuvan0fr,3ydtzai2w1tdqjjwezccnq05fpv416,9I1JS1d8,2020-0188,2021-10-31,10:40:59,11:40:52,NA,incomplete,false,NA,NA,true,3,4,NA,NA,NA,right,n_l_072.jpg,brown,gray,NA,NA,NA,NA,NA,NA,NA,NA,NA,NaN,NA,521.5,right,1,NA,NA,NA,NA,NA
9I1JS1d8,3087lxlj7ptluqx9bvztb5iuvan0fr,3ydtzai2w1tdqjjwezccnq05fpv416,9I1JS1d8,2020-0188,2021-10-31,10:40:59,11:40:52,NA,incomplete,false,NA,NA,true,3,5,NA,NA,NA,left,n_s_061.jpg,brown,purple,NA,NA,NA,NA,NA,NA,NA,NA,NA,NaN,NA,630.3999999985099,right,0,NA,NA,NA,NA,NA
9I1JS1d8,3087lxlj7ptluqx9bvztb5iuvan0fr,3ydtzai2w1tdqjjwezccnq05fpv416,9I1JS1d8,2020-0188,2021-10-31,10:40:59,11:40:52,NA,incomplete,false,NA,NA,true,3,6,NA,NA,NA,left,m_s_001.jpg,green,yellow,NA,NA,NA,NA,NA,NA,NA,NA,NA,NaN,NA,531.4000000059605,right,0,NA,NA,NA,NA,NA
9I1JS1d8,3087lxlj7ptluqx9bvztb5iuvan0fr,3ydtzai2w1tdqjjwezccnq05fpv416,9I1JS1d8,2020-0188,2021-10-31,10:40:59,11:40:52,NA,incomplete,false,NA,NA,true,3,7,NA,NA,NA,left,m_l_063.jpg,purple,brown,NA,NA,NA,NA,NA,NA,NA,NA,NA,NaN,NA,1638.7000000029802,left,1,NA,NA,NA,NA,NA
9I1JS1d8,3087lxlj7ptluqx9bvztb5iuvan0fr,3ydtzai2w1tdqjjwezccnq05fpv416,9I1JS1d8,2020-0188,2021-10-31,10:40:59,11:40:52,NA,incomplete,false,NA,NA,true,3,8,NA,NA,NA,right,m_l_115.jpg,white,yellow,NA,NA,NA,NA,NA,NA,NA,NA,NA,NaN,NA,549.3999999985099,right,1,NA,NA,NA,NA,NA
9I1JS1d8,3087lxlj7ptluqx9bvztb5iuvan0fr,3ydtzai2w1tdqjjwezccnq05fpv416,9I1JS1d8,2020-0188,2021-10-31,10:40:59,11:40:52,NA,incomplete,false,NA,NA,true,3,9,NA,NA,NA,right,n_s_003.jpg,yellow,green,NA,NA,NA,NA,NA,NA,NA,NA,NA,NaN,NA,573.3999999985099,right,1,NA,NA,NA,NA,NA
9I1JS1d8,3087lxlj7ptluqx9bvztb5iuvan0fr,3ydtzai2w1tdqjjwezccnq05fpv416,9I1JS1d8,2020-0188,2021-10-31,10:40:59,11:40:52,NA,incomplete,false,NA,NA,true,3,10,NA,NA,NA,right,n_s_111.jpg,yellow,white,NA,NA,NA,NA,NA,NA,NA,NA,NA,NaN,NA,632.6999999955297,right,1,NA,NA,NA,NA,NA
9I1JS1d8,3087lxlj7ptluqx9bvztb5iuvan0fr,3ydtzai2w1tdqjjwezccnq05fpv416,9I1JS1d8,2020-0188,2021-10-31,10:40:59,11:40:52,NA,incomplete,false,NA,NA,true,3,11,NA,NA,NA,right,n_s_013.jpg,brown,gray,NA,NA,NA,NA,NA,NA,NA,NA,NA,NaN,NA,592.5,right,1,NA,NA,NA,NA,NA
9I1JS1d8,3087lxlj7ptluqx9bvztb5iuvan0fr,3ydtzai2w1tdqjjwezccnq05fpv416,9I1JS1d8,2020-0188,2021-10-31,10:40:59,11:40:52,NA,incomplete,false,NA,NA,true,3,12,NA,NA,NA,left,m_l_108.jpg,purple,brown,NA,NA,NA,NA,NA,NA,NA,NA,NA,NaN,NA,850.5,left,1,NA,NA,NA,NA,NA
9I1JS1d8,3087lxlj7ptluqx9bvztb5iuvan0fr,3ydtzai2w1tdqjjwezccnq05fpv416,9I1JS1d8,2020-0188,2021-10-31,10:40:59,11:40:52,NA,incomplete,false,NA,NA,true,3,13,NA,NA,NA,right,m_s_014.jpg,yellow,green,NA,NA,NA,NA,NA,NA,NA,NA,NA,NaN,NA,616.7000000029802,right,1,NA,NA,NA,NA,NA
9I1JS1d8,3087lxlj7ptluqx9bvztb5iuvan0fr,3ydtzai2w1tdqjjwezccnq05fpv416,9I1JS1d8,2020-0188,2021-10-31,10:40:59,11:40:52,NA,incomplete,false,NA,NA,true,3,14,NA,NA,NA,left,n_l_117.jpg,gray,green,NA,NA,NA,NA,NA,NA,NA,NA,NA,NaN,NA,1260.5,left,1,NA,NA,NA,NA,NA
9I1JS1d8,3087lxlj7ptluqx9bvztb5iuvan0fr,3ydtzai2w1tdqjjwezccnq05fpv416,9I1JS1d8,2020-0188,2021-10-31,10:40:59,11:40:52,NA,incomplete,false,NA,NA,true,3,15,NA,NA,NA,right,m_l_002.jpg,yellow,white,NA,NA,NA,NA,NA,NA,NA,NA,NA,NaN,NA,2843.60000000149,left,0,NA,NA,NA,NA,NA
9I1JS1d8,3087lxlj7ptluqx9bvztb5iuvan0fr,3ydtzai2w1tdqjjwezccnq05fpv416,9I1JS1d8,2020-0188,2021-10-31,10:40:59,11:40:52,NA,incomplete,false,NA,NA,true,3,16,NA,NA,NA,left,n_l_114.jpg,yellow,green,NA,NA,NA,NA,NA,NA,NA,NA,NA,NaN,NA,517.6999999955297,right,0,NA,NA,NA,NA,NA
9I1JS1d8,3087lxlj7ptluqx9bvztb5iuvan0fr,3ydtzai2w1tdqjjwezccnq05fpv416,9I1JS1d8,2020-0188,2021-10-31,10:40:59,11:40:52,NA,incomplete,false,NA,NA,true,3,17,NA,NA,NA,right,n_l_092.jpg,gray,green,NA,NA,NA,NA,NA,NA,NA,NA,NA,NaN,NA,799.6000000014901,left,0,NA,NA,NA,NA,NA
9I1JS1d8,3087lxlj7ptluqx9bvztb5iuvan0fr,3ydtzai2w1tdqjjwezccnq05fpv416,9I1JS1d8,2020-0188,2021-10-31,10:40:59,11:40:52,NA,incomplete,false,NA,NA,true,3,18,NA,NA,NA,left,n_l_013.jpg,brown,purple,NA,NA,NA,NA,NA,NA,NA,NA,NA,NaN,NA,1726,left,1,NA,NA,NA,NA,NA
9I1JS1d8,3087lxlj7ptluqx9bvztb5iuvan0fr,3ydtzai2w1tdqjjwezccnq05fpv416,9I1JS1d8,2020-0188,2021-10-31,10:40:59,11:40:52,NA,incomplete,false,NA,NA,true,3,19,NA,NA,NA,left,m_s_035.jpg,yellow,white,NA,NA,NA,NA,NA,NA,NA,NA,NA,NaN,NA,988.2999999970198,left,1,NA,NA,NA,NA,NA
9I1JS1d8,3087lxlj7ptluqx9bvztb5iuvan0fr,3ydtzai2w1tdqjjwezccnq05fpv416,9I1JS1d8,2020-0188,2021-10-31,10:40:59,11:40:52,NA,incomplete,false,NA,NA,true,3,20,NA,NA,NA,right,m_s_114.jpg,gray,brown,NA,NA,NA,NA,NA,NA,NA,NA,NA,NaN,NA,673.4000000059605,right,1,NA,NA,NA,NA,NA
9I1JS1d8,3087lxlj7ptluqx9bvztb5iuvan0fr,3ydtzai2w1tdqjjwezccnq05fpv416,9I1JS1d8,2020-0188,2021-10-31,10:40:59,11:40:52,NA,incomplete,false,NA,NA,true,3,21,NA,NA,NA,left,n_l_101.jpg,purple,brown,NA,NA,NA,NA,NA,NA,NA,NA,NA,NaN,NA,1080.2999999970198,left,1,NA,NA,NA,NA,NA
9I1JS1d8,3087lxlj7ptluqx9bvztb5iuvan0fr,3ydtzai2w1tdqjjwezccnq05fpv416,9I1JS1d8,2020-0188,2021-10-31,10:40:59,11:40:52,NA,incomplete,false,NA,true,NA,3,0,NA,NA,NA,left,NA,NA,NA,absent,NA,NA,m_l_063.jpg,purple,n_l_101.jpg,purple,within,NA,NaN,NA,NA,NA,NA,left,3892,1,2,1207.5
9I1JS1d8,3087lxlj7ptluqx9bvztb5iuvan0fr,3ydtzai2w1tdqjjwezccnq05fpv416,9I1JS1d8,2020-0188,2021-10-31,10:40:59,11:40:52,NA,incomplete,false,NA,true,NA,3,1,NA,NA,NA,right,NA,NA,NA,absent,NA,NA,n_s_097.jpg,white,n_s_111.jpg,white,within,NA,NaN,NA,NA,NA,NA,right,1377.1999999955297,1,0,1085.5
9I1JS1d8,3087lxlj7ptluqx9bvztb5iuvan0fr,3ydtzai2w1tdqjjwezccnq05fpv416,9I1JS1d8,2020-0188,2021-10-31,10:40:59,11:40:52,NA,incomplete,false,NA,true,NA,3,2,NA,NA,NA,left,NA,NA,NA,absent,NA,NA,n_s_004.jpg,yellow,m_s_001.jpg,green,between,NA,NaN,NA,NA,NA,NA,left,1300,1,1,634.5999999940395
9I1JS1d8,3087lxlj7ptluqx9bvztb5iuvan0fr,3ydtzai2w1tdqjjwezccnq05fpv416,9I1JS1d8,2020-0188,2021-10-31,10:40:59,11:40:52,NA,incomplete,false,NA,true,NA,3,3,NA,NA,NA,left,NA,NA,NA,absent,NA,NA,n_s_061.jpg,brown,n_l_013.jpg,brown,within,NA,NaN,NA,NA,NA,NA,left,1176.4000000059605,1,2,922.9000000059605
9I1JS1d8,3087lxlj7ptluqx9bvztb5iuvan0fr,3ydtzai2w1tdqjjwezccnq05fpv416,9I1JS1d8,2020-0188,2021-10-31,10:40:59,11:40:52,NA,incomplete,false,NA,true,NA,3,4,NA,NA,NA,left,NA,NA,NA,absent,NA,NA,m_l_002.jpg,white,m_s_035.jpg,yellow,between,NA,NaN,NA,NA,NA,NA,left,1252.4000000059605,1,2,724.5
9I1JS1d8,3087lxlj7ptluqx9bvztb5iuvan0fr,3ydtzai2w1tdqjjwezccnq05fpv416,9I1JS1d8,2020-0188,2021-10-31,10:40:59,11:40:52,NA,incomplete,false,NA,true,NA,3,5,NA,NA,NA,left,NA,NA,NA,absent,NA,NA,n_l_092.jpg,green,n_s_003.jpg,green,within,NA,NaN,NA,NA,NA,NA,left,1517.6000000014901,1,1,478.79999999701977
9I1JS1d8,3087lxlj7ptluqx9bvztb5iuvan0fr,3ydtzai2w1tdqjjwezccnq05fpv416,9I1JS1d8,2020-0188,2021-10-31,10:40:59,11:40:52,NA,incomplete,false,NA,true,NA,3,6,NA,NA,NA,left,NA,NA,NA,absent,NA,NA,n_l_007.jpg,gray,m_s_114.jpg,brown,between,NA,NaN,NA,NA,NA,NA,right,822.1000000014901,0,1,524.8000000044703
9I1JS1d8,3087lxlj7ptluqx9bvztb5iuvan0fr,3ydtzai2w1tdqjjwezccnq05fpv416,9I1JS1d8,2020-0188,2021-10-31,10:40:59,11:40:52,NA,incomplete,false,NA,true,NA,3,7,NA,NA,NA,left,NA,NA,NA,absent,NA,NA,n_l_114.jpg,yellow,m_l_115.jpg,yellow,within,NA,NaN,NA,NA,NA,NA,left,1654.8000000044703,1,1,468.70000000298023
9I1JS1d8,3087lxlj7ptluqx9bvztb5iuvan0fr,3ydtzai2w1tdqjjwezccnq05fpv416,9I1JS1d8,2020-0188,2021-10-31,10:40:59,11:40:52,NA,incomplete,false,NA,true,NA,3,8,NA,NA,NA,left,NA,NA,NA,absent,NA,NA,m_s_014.jpg,green,n_l_117.jpg,gray,between,NA,NaN,NA,NA,NA,NA,left,2493.89999999851,1,1,575.2000000029802
9I1JS1d8,3087lxlj7ptluqx9bvztb5iuvan0fr,3ydtzai2w1tdqjjwezccnq05fpv416,9I1JS1d8,2020-0188,2021-10-31,10:40:59,11:40:52,NA,incomplete,false,NA,true,NA,3,9,NA,NA,NA,right,NA,NA,NA,absent,NA,NA,n_l_072.jpg,gray,n_s_013.jpg,gray,within,NA,NaN,NA,NA,NA,NA,left,1493.6999999955297,0,1,527.5
9I1JS1d8,3087lxlj7ptluqx9bvztb5iuvan0fr,3ydtzai2w1tdqjjwezccnq05fpv416,9I1JS1d8,2020-0188,2021-10-31,10:40:59,11:40:52,NA,incomplete,false,NA,true,NA,3,10,NA,NA,NA,right,NA,NA,NA,absent,NA,NA,m_l_108.jpg,purple,n_s_019.jpg,brown,between,NA,NaN,NA,NA,NA,NA,right,948.8999999985099,1,1,477.5
9I1JS1d8,3087lxlj7ptluqx9bvztb5iuvan0fr,3ydtzai2w1tdqjjwezccnq05fpv416,9I1JS1d8,2020-0188,2021-10-31,10:40:59,11:40:52,NA,incomplete,false,true,NA,NA,4,0,NA,brown,m_s_051.jpg,NA,NA,NA,NA,NA,pleasant,unpleasant,NA,NA,NA,NA,NA,left,1254.29999999702,true,NA,NA,NA,NA,NA,NA,NA,NA
9I1JS1d8,3087lxlj7ptluqx9bvztb5iuvan0fr,3ydtzai2w1tdqjjwezccnq05fpv416,9I1JS1d8,2020-0188,2021-10-31,10:40:59,11:40:52,NA,incomplete,false,true,NA,NA,4,1,NA,brown,n_l_080.jpg,NA,NA,NA,NA,NA,unpleasant,pleasant,NA,NA,NA,NA,NA,right,981.79999999702,true,NA,NA,NA,NA,NA,NA,NA,NA
9I1JS1d8,3087lxlj7ptluqx9bvztb5iuvan0fr,3ydtzai2w1tdqjjwezccnq05fpv416,9I1JS1d8,2020-0188,2021-10-31,10:40:59,11:40:52,NA,incomplete,false,true,NA,NA,4,2,NA,brown,m_l_073.jpg,NA,NA,NA,NA,NA,unpleasant,pleasant,NA,NA,NA,NA,NA,right,1175.90000000596,true,NA,NA,NA,NA,NA,NA,NA,NA
9I1JS1d8,3087lxlj7ptluqx9bvztb5iuvan0fr,3ydtzai2w1tdqjjwezccnq05fpv416,9I1JS1d8,2020-0188,2021-10-31,10:40:59,11:40:52,NA,incomplete,false,true,NA,NA,4,3,NA,brown,m_l_102.jpg,NA,NA,NA,NA,NA,unpleasant,pleasant,NA,NA,NA,NA,NA,right,989.10000000149,true,NA,NA,NA,NA,NA,NA,NA,NA
9I1JS1d8,3087lxlj7ptluqx9bvztb5iuvan0fr,3ydtzai2w1tdqjjwezccnq05fpv416,9I1JS1d8,2020-0188,2021-10-31,10:40:59,11:40:52,NA,incomplete,false,true,NA,NA,4,4,NA,brown,n_s_015.jpg,NA,NA,NA,NA,NA,pleasant,unpleasant,NA,NA,NA,NA,NA,left,1139.79999999702,true,NA,NA,NA,NA,NA,NA,NA,NA
9I1JS1d8,3087lxlj7ptluqx9bvztb5iuvan0fr,3ydtzai2w1tdqjjwezccnq05fpv416,9I1JS1d8,2020-0188,2021-10-31,10:40:59,11:40:52,NA,incomplete,false,true,NA,NA,4,5,NA,brown,n_l_003.jpg,NA,NA,NA,NA,NA,unpleasant,pleasant,NA,NA,NA,NA,NA,left,1313.89999999851,true,NA,NA,NA,NA,NA,NA,NA,NA
9I1JS1d8,3087lxlj7ptluqx9bvztb5iuvan0fr,3ydtzai2w1tdqjjwezccnq05fpv416,9I1JS1d8,2020-0188,2021-10-31,10:40:59,11:40:52,NA,incomplete,false,true,NA,NA,4,6,NA,purple,m_s_030.jpg,NA,NA,NA,NA,NA,pleasant,unpleasant,NA,NA,NA,NA,NA,left,1412.40000000596,true,NA,NA,NA,NA,NA,NA,NA,NA
9I1JS1d8,3087lxlj7ptluqx9bvztb5iuvan0fr,3ydtzai2w1tdqjjwezccnq05fpv416,9I1JS1d8,2020-0188,2021-10-31,10:40:59,11:40:52,NA,incomplete,false,true,NA,NA,4,7,NA,purple,n_l_035.jpg,NA,NA,NA,NA,NA,pleasant,unpleasant,NA,NA,NA,NA,NA,left,1300.60000000149,true,NA,NA,NA,NA,NA,NA,NA,NA
9I1JS1d8,3087lxlj7ptluqx9bvztb5iuvan0fr,3ydtzai2w1tdqjjwezccnq05fpv416,9I1JS1d8,2020-0188,2021-10-31,10:40:59,11:40:52,NA,incomplete,false,true,NA,NA,4,8,NA,purple,n_s_023.jpg,NA,NA,NA,NA,NA,unpleasant,pleasant,NA,NA,NA,NA,NA,right,1672.39999999851,true,NA,NA,NA,NA,NA,NA,NA,NA
9I1JS1d8,3087lxlj7ptluqx9bvztb5iuvan0fr,3ydtzai2w1tdqjjwezccnq05fpv416,9I1JS1d8,2020-0188,2021-10-31,10:40:59,11:40:52,NA,incomplete,false,true,NA,NA,4,9,NA,purple,m_s_022.jpg,NA,NA,NA,NA,NA,unpleasant,pleasant,NA,NA,NA,NA,NA,right,1429.30000000447,true,NA,NA,NA,NA,NA,NA,NA,NA
9I1JS1d8,3087lxlj7ptluqx9bvztb5iuvan0fr,3ydtzai2w1tdqjjwezccnq05fpv416,9I1JS1d8,2020-0188,2021-10-31,10:40:59,11:40:52,NA,incomplete,false,true,NA,NA,4,10,NA,purple,m_l_076.jpg,NA,NA,NA,NA,NA,unpleasant,pleasant,NA,NA,NA,NA,NA,right,1291.5,true,NA,NA,NA,NA,NA,NA,NA,NA
9I1JS1d8,3087lxlj7ptluqx9bvztb5iuvan0fr,3ydtzai2w1tdqjjwezccnq05fpv416,9I1JS1d8,2020-0188,2021-10-31,10:40:59,11:40:52,NA,incomplete,false,true,NA,NA,4,11,NA,purple,m_s_106.jpg,NA,NA,NA,NA,NA,pleasant,unpleasant,NA,NA,NA,NA,NA,left,1184.5,true,NA,NA,NA,NA,NA,NA,NA,NA
9I1JS1d8,3087lxlj7ptluqx9bvztb5iuvan0fr,3ydtzai2w1tdqjjwezccnq05fpv416,9I1JS1d8,2020-0188,2021-10-31,10:40:59,11:40:52,NA,incomplete,false,true,NA,NA,4,12,NA,red,m_l_003.jpg,NA,NA,NA,NA,NA,pleasant,unpleasant,NA,NA,NA,NA,NA,right,1343.70000000298,true,NA,NA,NA,NA,NA,NA,NA,NA
9I1JS1d8,3087lxlj7ptluqx9bvztb5iuvan0fr,3ydtzai2w1tdqjjwezccnq05fpv416,9I1JS1d8,2020-0188,2021-10-31,10:40:59,11:40:52,NA,incomplete,false,true,NA,NA,4,13,NA,red,n_l_073.jpg,NA,NA,NA,NA,NA,pleasant,unpleasant,NA,NA,NA,NA,NA,right,1033.29999999702,true,NA,NA,NA,NA,NA,NA,NA,NA
9I1JS1d8,3087lxlj7ptluqx9bvztb5iuvan0fr,3ydtzai2w1tdqjjwezccnq05fpv416,9I1JS1d8,2020-0188,2021-10-31,10:40:59,11:40:52,NA,incomplete,false,true,NA,NA,4,14,NA,red,m_l_049.jpg,NA,NA,NA,NA,NA,pleasant,unpleasant,NA,NA,NA,NA,NA,right,2293.70000000298,true,NA,NA,NA,NA,NA,NA,NA,NA
9I1JS1d8,3087lxlj7ptluqx9bvztb5iuvan0fr,3ydtzai2w1tdqjjwezccnq05fpv416,9I1JS1d8,2020-0188,2021-10-31,10:40:59,11:40:52,NA,incomplete,false,true,NA,NA,4,15,NA,red,m_l_082.jpg,NA,NA,NA,NA,NA,pleasant,unpleasant,NA,NA,NA,NA,NA,right,1104.39999999851,true,NA,NA,NA,NA,NA,NA,NA,NA
9I1JS1d8,3087lxlj7ptluqx9bvztb5iuvan0fr,3ydtzai2w1tdqjjwezccnq05fpv416,9I1JS1d8,2020-0188,2021-10-31,10:40:59,11:40:52,NA,incomplete,false,true,NA,NA,4,16,NA,red,n_s_033.jpg,NA,NA,NA,NA,NA,pleasant,unpleasant,NA,NA,NA,NA,NA,left,1472.29999999702,true,NA,NA,NA,NA,NA,NA,NA,NA
9I1JS1d8,3087lxlj7ptluqx9bvztb5iuvan0fr,3ydtzai2w1tdqjjwezccnq05fpv416,9I1JS1d8,2020-0188,2021-10-31,10:40:59,11:40:52,NA,incomplete,false,true,NA,NA,4,17,NA,red,m_s_103.jpg,NA,NA,NA,NA,NA,unpleasant,pleasant,NA,NA,NA,NA,NA,left,1514.70000000298,true,NA,NA,NA,NA,NA,NA,NA,NA
9I1JS1d8,3087lxlj7ptluqx9bvztb5iuvan0fr,3ydtzai2w1tdqjjwezccnq05fpv416,9I1JS1d8,2020-0188,2021-10-31,10:40:59,11:40:52,NA,incomplete,false,true,NA,NA,4,18,NA,blue,n_l_027.jpg,NA,NA,NA,NA,NA,unpleasant,pleasant,NA,NA,NA,NA,NA,right,2247.90000000596,true,NA,NA,NA,NA,NA,NA,NA,NA
9I1JS1d8,3087lxlj7ptluqx9bvztb5iuvan0fr,3ydtzai2w1tdqjjwezccnq05fpv416,9I1JS1d8,2020-0188,2021-10-31,10:40:59,11:40:52,NA,incomplete,false,true,NA,NA,4,19,NA,blue,n_s_030.jpg,NA,NA,NA,NA,NA,unpleasant,pleasant,NA,NA,NA,NA,NA,right,1188.30000000447,true,NA,NA,NA,NA,NA,NA,NA,NA
9I1JS1d8,3087lxlj7ptluqx9bvztb5iuvan0fr,3ydtzai2w1tdqjjwezccnq05fpv416,9I1JS1d8,2020-0188,2021-10-31,10:40:59,11:40:52,NA,incomplete,false,true,NA,NA,4,20,NA,blue,m_s_088.jpg,NA,NA,NA,NA,NA,unpleasant,pleasant,NA,NA,NA,NA,NA,left,1448.60000000149,true,NA,NA,NA,NA,NA,NA,NA,NA
9I1JS1d8,3087lxlj7ptluqx9bvztb5iuvan0fr,3ydtzai2w1tdqjjwezccnq05fpv416,9I1JS1d8,2020-0188,2021-10-31,10:40:59,11:40:52,NA,incomplete,false,true,NA,NA,4,21,NA,blue,n_s_002.jpg,NA,NA,NA,NA,NA,pleasant,unpleasant,NA,NA,NA,NA,NA,left,1032,true,NA,NA,NA,NA,NA,NA,NA,NA
9I1JS1d8,3087lxlj7ptluqx9bvztb5iuvan0fr,3ydtzai2w1tdqjjwezccnq05fpv416,9I1JS1d8,2020-0188,2021-10-31,10:40:59,11:40:52,NA,incomplete,false,true,NA,NA,4,22,NA,blue,m_s_100.jpg,NA,NA,NA,NA,NA,unpleasant,pleasant,NA,NA,NA,NA,NA,right,1701.79999999702,true,NA,NA,NA,NA,NA,NA,NA,NA
9I1JS1d8,3087lxlj7ptluqx9bvztb5iuvan0fr,3ydtzai2w1tdqjjwezccnq05fpv416,9I1JS1d8,2020-0188,2021-10-31,10:40:59,11:40:52,NA,incomplete,false,true,NA,NA,4,23,NA,blue,n_l_090.jpg,NA,NA,NA,NA,NA,unpleasant,pleasant,NA,NA,NA,NA,NA,left,1452.20000000298,true,NA,NA,NA,NA,NA,NA,NA,NA
9I1JS1d8,3087lxlj7ptluqx9bvztb5iuvan0fr,3ydtzai2w1tdqjjwezccnq05fpv416,9I1JS1d8,2020-0188,2021-10-31,10:40:59,11:40:52,NA,incomplete,false,true,NA,NA,4,24,NA,yellow,n_l_076.jpg,NA,NA,NA,NA,NA,pleasant,unpleasant,NA,NA,NA,NA,NA,right,1891.10000000149,true,NA,NA,NA,NA,NA,NA,NA,NA
9I1JS1d8,3087lxlj7ptluqx9bvztb5iuvan0fr,3ydtzai2w1tdqjjwezccnq05fpv416,9I1JS1d8,2020-0188,2021-10-31,10:40:59,11:40:52,NA,incomplete,false,true,NA,NA,4,25,NA,yellow,n_s_099.jpg,NA,NA,NA,NA,NA,pleasant,unpleasant,NA,NA,NA,NA,NA,left,1152.30000000447,true,NA,NA,NA,NA,NA,NA,NA,NA
9I1JS1d8,3087lxlj7ptluqx9bvztb5iuvan0fr,3ydtzai2w1tdqjjwezccnq05fpv416,9I1JS1d8,2020-0188,2021-10-31,10:40:59,11:40:52,NA,incomplete,false,true,NA,NA,4,26,NA,yellow,n_l_074.jpg,NA,NA,NA,NA,NA,unpleasant,pleasant,NA,NA,NA,NA,NA,left,1130.79999999702,true,NA,NA,NA,NA,NA,NA,NA,NA
9I1JS1d8,3087lxlj7ptluqx9bvztb5iuvan0fr,3ydtzai2w1tdqjjwezccnq05fpv416,9I1JS1d8,2020-0188,2021-10-31,10:40:59,11:40:52,NA,incomplete,false,true,NA,NA,4,27,NA,yellow,m_s_054.jpg,NA,NA,NA,NA,NA,unpleasant,pleasant,NA,NA,NA,NA,NA,left,1861.5,true,NA,NA,NA,NA,NA,NA,NA,NA
9I1JS1d8,3087lxlj7ptluqx9bvztb5iuvan0fr,3ydtzai2w1tdqjjwezccnq05fpv416,9I1JS1d8,2020-0188,2021-10-31,10:40:59,11:40:52,NA,incomplete,false,true,NA,NA,4,28,NA,yellow,n_s_020.jpg,NA,NA,NA,NA,NA,unpleasant,pleasant,NA,NA,NA,NA,NA,right,1335.40000000596,true,NA,NA,NA,NA,NA,NA,NA,NA
9I1JS1d8,3087lxlj7ptluqx9bvztb5iuvan0fr,3ydtzai2w1tdqjjwezccnq05fpv416,9I1JS1d8,2020-0188,2021-10-31,10:40:59,11:40:52,NA,incomplete,false,true,NA,NA,4,29,NA,yellow,m_l_023.jpg,NA,NA,NA,NA,NA,unpleasant,pleasant,NA,NA,NA,NA,NA,right,1215.19999999553,true,NA,NA,NA,NA,NA,NA,NA,NA
9I1JS1d8,3087lxlj7ptluqx9bvztb5iuvan0fr,3ydtzai2w1tdqjjwezccnq05fpv416,9I1JS1d8,2020-0188,2021-10-31,10:40:59,11:40:52,NA,incomplete,false,true,NA,NA,4,30,NA,white,n_s_088.jpg,NA,NA,NA,NA,NA,pleasant,unpleasant,NA,NA,NA,NA,NA,left,926.40000000596,true,NA,NA,NA,NA,NA,NA,NA,NA
9I1JS1d8,3087lxlj7ptluqx9bvztb5iuvan0fr,3ydtzai2w1tdqjjwezccnq05fpv416,9I1JS1d8,2020-0188,2021-10-31,10:40:59,11:40:52,NA,incomplete,false,true,NA,NA,4,31,NA,white,m_s_073.jpg,NA,NA,NA,NA,NA,pleasant,unpleasant,NA,NA,NA,NA,NA,left,968.60000000149,true,NA,NA,NA,NA,NA,NA,NA,NA
9I1JS1d8,3087lxlj7ptluqx9bvztb5iuvan0fr,3ydtzai2w1tdqjjwezccnq05fpv416,9I1JS1d8,2020-0188,2021-10-31,10:40:59,11:40:52,NA,incomplete,false,true,NA,NA,4,32,NA,white,n_l_081.jpg,NA,NA,NA,NA,NA,pleasant,unpleasant,NA,NA,NA,NA,NA,left,798.40000000596,true,NA,NA,NA,NA,NA,NA,NA,NA
9I1JS1d8,3087lxlj7ptluqx9bvztb5iuvan0fr,3ydtzai2w1tdqjjwezccnq05fpv416,9I1JS1d8,2020-0188,2021-10-31,10:40:59,11:40:52,NA,incomplete,false,true,NA,NA,4,33,NA,white,n_l_064.jpg,NA,NA,NA,NA,NA,unpleasant,pleasant,NA,NA,NA,NA,NA,right,1219.5,true,NA,NA,NA,NA,NA,NA,NA,NA
9I1JS1d8,3087lxlj7ptluqx9bvztb5iuvan0fr,3ydtzai2w1tdqjjwezccnq05fpv416,9I1JS1d8,2020-0188,2021-10-31,10:40:59,11:40:52,NA,incomplete,false,true,NA,NA,4,34,NA,white,n_l_036.jpg,NA,NA,NA,NA,NA,unpleasant,pleasant,NA,NA,NA,NA,NA,right,1133.09999999404,true,NA,NA,NA,NA,NA,NA,NA,NA
9I1JS1d8,3087lxlj7ptluqx9bvztb5iuvan0fr,3ydtzai2w1tdqjjwezccnq05fpv416,9I1JS1d8,2020-0188,2021-10-31,10:40:59,11:40:52,NA,incomplete,false,true,NA,NA,4,35,NA,white,m_l_026.jpg,NA,NA,NA,NA,NA,unpleasant,pleasant,NA,NA,NA,NA,NA,right,1857.29999999702,true,NA,NA,NA,NA,NA,NA,NA,NA
9I1JS1d8,3087lxlj7ptluqx9bvztb5iuvan0fr,3ydtzai2w1tdqjjwezccnq05fpv416,9I1JS1d8,2020-0188,2021-10-31,10:40:59,11:40:52,NA,incomplete,false,NA,NA,true,4,0,NA,NA,NA,right,m_s_106.jpg,red,purple,NA,NA,NA,NA,NA,NA,NA,NA,NA,NaN,NA,4930.0999999940395,left,0,NA,NA,NA,NA,NA
9I1JS1d8,3087lxlj7ptluqx9bvztb5iuvan0fr,3ydtzai2w1tdqjjwezccnq05fpv416,9I1JS1d8,2020-0188,2021-10-31,10:40:59,11:40:52,NA,incomplete,false,NA,NA,true,4,1,NA,NA,NA,left,m_s_100.jpg,blue,red,NA,NA,NA,NA,NA,NA,NA,NA,NA,NaN,NA,1516.2000000029802,left,1,NA,NA,NA,NA,NA
9I1JS1d8,3087lxlj7ptluqx9bvztb5iuvan0fr,3ydtzai2w1tdqjjwezccnq05fpv416,9I1JS1d8,2020-0188,2021-10-31,10:40:59,11:40:52,NA,incomplete,false,NA,NA,true,4,2,NA,NA,NA,right,m_s_103.jpg,purple,red,NA,NA,NA,NA,NA,NA,NA,NA,NA,NaN,NA,1744.5,right,1,NA,NA,NA,NA,NA
9I1JS1d8,3087lxlj7ptluqx9bvztb5iuvan0fr,3ydtzai2w1tdqjjwezccnq05fpv416,9I1JS1d8,2020-0188,2021-10-31,10:40:59,11:40:52,NA,incomplete,false,NA,NA,true,4,3,NA,NA,NA,right,n_s_015.jpg,purple,brown,NA,NA,NA,NA,NA,NA,NA,NA,NA,NaN,NA,3223.3000000044703,right,1,NA,NA,NA,NA,NA
9I1JS1d8,3087lxlj7ptluqx9bvztb5iuvan0fr,3ydtzai2w1tdqjjwezccnq05fpv416,9I1JS1d8,2020-0188,2021-10-31,10:40:59,11:40:52,NA,incomplete,false,NA,NA,true,4,4,NA,NA,NA,right,n_l_090.jpg,red,blue,NA,NA,NA,NA,NA,NA,NA,NA,NA,NaN,NA,771.2999999970198,right,1,NA,NA,NA,NA,NA
9I1JS1d8,3087lxlj7ptluqx9bvztb5iuvan0fr,3ydtzai2w1tdqjjwezccnq05fpv416,9I1JS1d8,2020-0188,2021-10-31,10:40:59,11:40:52,NA,incomplete,false,NA,NA,true,4,5,NA,NA,NA,right,n_l_081.jpg,yellow,white,NA,NA,NA,NA,NA,NA,NA,NA,NA,NaN,NA,1281.5,left,0,NA,NA,NA,NA,NA
9I1JS1d8,3087lxlj7ptluqx9bvztb5iuvan0fr,3ydtzai2w1tdqjjwezccnq05fpv416,9I1JS1d8,2020-0188,2021-10-31,10:40:59,11:40:52,NA,incomplete,false,NA,NA,true,4,6,NA,NA,NA,right,n_l_074.jpg,blue,yellow,NA,NA,NA,NA,NA,NA,NA,NA,NA,NaN,NA,699.6000000014901,right,1,NA,NA,NA,NA,NA
9I1JS1d8,3087lxlj7ptluqx9bvztb5iuvan0fr,3ydtzai2w1tdqjjwezccnq05fpv416,9I1JS1d8,2020-0188,2021-10-31,10:40:59,11:40:52,NA,incomplete,false,NA,NA,true,4,7,NA,NA,NA,right,n_l_035.jpg,red,purple,NA,NA,NA,NA,NA,NA,NA,NA,NA,NaN,NA,620.2999999970198,right,1,NA,NA,NA,NA,NA
9I1JS1d8,3087lxlj7ptluqx9bvztb5iuvan0fr,3ydtzai2w1tdqjjwezccnq05fpv416,9I1JS1d8,2020-0188,2021-10-31,10:40:59,11:40:52,NA,incomplete,false,NA,NA,true,4,8,NA,NA,NA,right,n_s_030.jpg,red,blue,NA,NA,NA,NA,NA,NA,NA,NA,NA,NaN,NA,560,right,1,NA,NA,NA,NA,NA
9I1JS1d8,3087lxlj7ptluqx9bvztb5iuvan0fr,3ydtzai2w1tdqjjwezccnq05fpv416,9I1JS1d8,2020-0188,2021-10-31,10:40:59,11:40:52,NA,incomplete,false,NA,NA,true,4,9,NA,NA,NA,right,n_l_073.jpg,blue,red,NA,NA,NA,NA,NA,NA,NA,NA,NA,NaN,NA,937.1000000014901,left,0,NA,NA,NA,NA,NA
9I1JS1d8,3087lxlj7ptluqx9bvztb5iuvan0fr,3ydtzai2w1tdqjjwezccnq05fpv416,9I1JS1d8,2020-0188,2021-10-31,10:40:59,11:40:52,NA,incomplete,false,NA,NA,true,4,10,NA,NA,NA,left,m_l_023.jpg,yellow,blue,NA,NA,NA,NA,NA,NA,NA,NA,NA,NaN,NA,943.8000000044703,left,1,NA,NA,NA,NA,NA
9I1JS1d8,3087lxlj7ptluqx9bvztb5iuvan0fr,3ydtzai2w1tdqjjwezccnq05fpv416,9I1JS1d8,2020-0188,2021-10-31,10:40:59,11:40:52,NA,incomplete,false,NA,NA,true,4,11,NA,NA,NA,left,m_l_076.jpg,purple,red,NA,NA,NA,NA,NA,NA,NA,NA,NA,NaN,NA,548,right,0,NA,NA,NA,NA,NA
9I1JS1d8,3087lxlj7ptluqx9bvztb5iuvan0fr,3ydtzai2w1tdqjjwezccnq05fpv416,9I1JS1d8,2020-0188,2021-10-31,10:40:59,11:40:52,NA,incomplete,false,NA,NA,true,4,12,NA,NA,NA,left,n_s_099.jpg,yellow,blue,NA,NA,NA,NA,NA,NA,NA,NA,NA,NaN,NA,1004.6999999955297,left,1,NA,NA,NA,NA,NA
9I1JS1d8,3087lxlj7ptluqx9bvztb5iuvan0fr,3ydtzai2w1tdqjjwezccnq05fpv416,9I1JS1d8,2020-0188,2021-10-31,10:40:59,11:40:52,NA,incomplete,false,NA,NA,true,4,13,NA,NA,NA,right,m_l_026.jpg,yellow,white,NA,NA,NA,NA,NA,NA,NA,NA,NA,NaN,NA,1690.3999999985099,right,1,NA,NA,NA,NA,NA
9I1JS1d8,3087lxlj7ptluqx9bvztb5iuvan0fr,3ydtzai2w1tdqjjwezccnq05fpv416,9I1JS1d8,2020-0188,2021-10-31,10:40:59,11:40:52,NA,incomplete,false,NA,NA,true,4,14,NA,NA,NA,right,n_s_033.jpg,purple,red,NA,NA,NA,NA,NA,NA,NA,NA,NA,NaN,NA,527.1000000014901,right,1,NA,NA,NA,NA,NA
9I1JS1d8,3087lxlj7ptluqx9bvztb5iuvan0fr,3ydtzai2w1tdqjjwezccnq05fpv416,9I1JS1d8,2020-0188,2021-10-31,10:40:59,11:40:52,NA,incomplete,false,NA,NA,true,4,15,NA,NA,NA,left,m_s_088.jpg,blue,yellow,NA,NA,NA,NA,NA,NA,NA,NA,NA,NaN,NA,827.2999999970198,left,1,NA,NA,NA,NA,NA
9I1JS1d8,3087lxlj7ptluqx9bvztb5iuvan0fr,3ydtzai2w1tdqjjwezccnq05fpv416,9I1JS1d8,2020-0188,2021-10-31,10:40:59,11:40:52,NA,incomplete,false,NA,NA,true,4,16,NA,NA,NA,left,n_l_080.jpg,brown,purple,NA,NA,NA,NA,NA,NA,NA,NA,NA,NaN,NA,966.5,left,1,NA,NA,NA,NA,NA
9I1JS1d8,3087lxlj7ptluqx9bvztb5iuvan0fr,3ydtzai2w1tdqjjwezccnq05fpv416,9I1JS1d8,2020-0188,2021-10-31,10:40:59,11:40:52,NA,incomplete,false,NA,NA,true,4,17,NA,NA,NA,left,m_s_073.jpg,white,yellow,NA,NA,NA,NA,NA,NA,NA,NA,NA,NaN,NA,645.2000000029802,right,0,NA,NA,NA,NA,NA
9I1JS1d8,3087lxlj7ptluqx9bvztb5iuvan0fr,3ydtzai2w1tdqjjwezccnq05fpv416,9I1JS1d8,2020-0188,2021-10-31,10:40:59,11:40:52,NA,incomplete,false,NA,NA,true,4,18,NA,NA,NA,left,m_l_049.jpg,red,purple,NA,NA,NA,NA,NA,NA,NA,NA,NA,NaN,NA,899.1999999955297,left,1,NA,NA,NA,NA,NA
9I1JS1d8,3087lxlj7ptluqx9bvztb5iuvan0fr,3ydtzai2w1tdqjjwezccnq05fpv416,9I1JS1d8,2020-0188,2021-10-31,10:40:59,11:40:52,NA,incomplete,false,NA,NA,true,4,19,NA,NA,NA,right,n_s_020.jpg,blue,yellow,NA,NA,NA,NA,NA,NA,NA,NA,NA,NaN,NA,2434.39999999851,left,0,NA,NA,NA,NA,NA
9I1JS1d8,3087lxlj7ptluqx9bvztb5iuvan0fr,3ydtzai2w1tdqjjwezccnq05fpv416,9I1JS1d8,2020-0188,2021-10-31,10:40:59,11:40:52,NA,incomplete,false,NA,NA,true,4,20,NA,NA,NA,left,n_l_003.jpg,brown,purple,NA,NA,NA,NA,NA,NA,NA,NA,NA,NaN,NA,1423.2999999970198,left,1,NA,NA,NA,NA,NA
9I1JS1d8,3087lxlj7ptluqx9bvztb5iuvan0fr,3ydtzai2w1tdqjjwezccnq05fpv416,9I1JS1d8,2020-0188,2021-10-31,10:40:59,11:40:52,NA,incomplete,false,NA,NA,true,4,21,NA,NA,NA,right,n_s_023.jpg,red,purple,NA,NA,NA,NA,NA,NA,NA,NA,NA,NaN,NA,2616.5,right,1,NA,NA,NA,NA,NA
9I1JS1d8,3087lxlj7ptluqx9bvztb5iuvan0fr,3ydtzai2w1tdqjjwezccnq05fpv416,9I1JS1d8,2020-0188,2021-10-31,10:40:59,11:40:52,NA,incomplete,false,NA,true,NA,4,0,NA,NA,NA,right,NA,NA,NA,absent,NA,NA,n_l_081.jpg,white,n_s_020.jpg,yellow,between,NA,NaN,NA,NA,NA,NA,right,1534.8999999985099,1,2,871.2000000029802
9I1JS1d8,3087lxlj7ptluqx9bvztb5iuvan0fr,3ydtzai2w1tdqjjwezccnq05fpv416,9I1JS1d8,2020-0188,2021-10-31,10:40:59,11:40:52,NA,incomplete,false,NA,true,NA,4,1,NA,NA,NA,left,NA,NA,NA,absent,NA,NA,n_l_073.jpg,red,m_s_103.jpg,red,within,NA,NaN,NA,NA,NA,NA,right,1069.3999999985099,0,2,1396.6000000014901
9I1JS1d8,3087lxlj7ptluqx9bvztb5iuvan0fr,3ydtzai2w1tdqjjwezccnq05fpv416,9I1JS1d8,2020-0188,2021-10-31,10:40:59,11:40:52,NA,incomplete,false,NA,true,NA,4,2,NA,NA,NA,left,NA,NA,NA,absent,NA,NA,n_s_099.jpg,yellow,m_l_023.jpg,yellow,within,NA,NaN,NA,NA,NA,NA,right,1226.5,0,1,449.90000000596046
9I1JS1d8,3087lxlj7ptluqx9bvztb5iuvan0fr,3ydtzai2w1tdqjjwezccnq05fpv416,9I1JS1d8,2020-0188,2021-10-31,10:40:59,11:40:52,NA,incomplete,false,NA,true,NA,4,3,NA,NA,NA,right,NA,NA,NA,absent,NA,NA,n_l_003.jpg,brown,n_l_080.jpg,brown,within,NA,NaN,NA,NA,NA,NA,right,1069,1,2,681.3999999985099
9I1JS1d8,3087lxlj7ptluqx9bvztb5iuvan0fr,3ydtzai2w1tdqjjwezccnq05fpv416,9I1JS1d8,2020-0188,2021-10-31,10:40:59,11:40:52,NA,incomplete,false,NA,true,NA,4,4,NA,NA,NA,right,NA,NA,NA,absent,NA,NA,m_s_088.jpg,blue,n_s_033.jpg,red,between,NA,NaN,NA,NA,NA,NA,left,1401.5,0,1,543.8999999985099
9I1JS1d8,3087lxlj7ptluqx9bvztb5iuvan0fr,3ydtzai2w1tdqjjwezccnq05fpv416,9I1JS1d8,2020-0188,2021-10-31,10:40:59,11:40:52,NA,incomplete,false,NA,true,NA,4,5,NA,NA,NA,left,NA,NA,NA,absent,NA,NA,n_s_015.jpg,brown,n_s_023.jpg,purple,between,NA,NaN,NA,NA,NA,NA,right,3539.39999999851,0,0,1157
9I1JS1d8,3087lxlj7ptluqx9bvztb5iuvan0fr,3ydtzai2w1tdqjjwezccnq05fpv416,9I1JS1d8,2020-0188,2021-10-31,10:40:59,11:40:52,NA,incomplete,false,NA,true,NA,4,6,NA,NA,NA,left,NA,NA,NA,absent,NA,NA,n_l_035.jpg,purple,m_s_106.jpg,purple,within,NA,NaN,NA,NA,NA,NA,right,836.7999999970198,0,2,1364.2999999970198
9I1JS1d8,3087lxlj7ptluqx9bvztb5iuvan0fr,3ydtzai2w1tdqjjwezccnq05fpv416,9I1JS1d8,2020-0188,2021-10-31,10:40:59,11:40:52,NA,incomplete,false,NA,true,NA,4,7,NA,NA,NA,right,NA,NA,NA,absent,NA,NA,n_l_090.jpg,blue,n_s_030.jpg,blue,within,NA,NaN,NA,NA,NA,NA,left,1804.8999999985099,0,1,420.19999999552965
9I1JS1d8,3087lxlj7ptluqx9bvztb5iuvan0fr,3ydtzai2w1tdqjjwezccnq05fpv416,9I1JS1d8,2020-0188,2021-10-31,10:40:59,11:40:52,NA,incomplete,false,NA,true,NA,4,8,NA,NA,NA,right,NA,NA,NA,absent,NA,NA,n_l_074.jpg,yellow,m_s_100.jpg,blue,between,NA,NaN,NA,NA,NA,NA,right,642,1,1,706.2999999970198
9I1JS1d8,3087lxlj7ptluqx9bvztb5iuvan0fr,3ydtzai2w1tdqjjwezccnq05fpv416,9I1JS1d8,2020-0188,2021-10-31,10:40:59,11:40:52,NA,incomplete,false,NA,true,NA,4,9,NA,NA,NA,left,NA,NA,NA,absent,NA,NA,m_s_073.jpg,white,m_l_026.jpg,white,within,NA,NaN,NA,NA,NA,NA,right,877.1000000014901,0,1,364.79999999701977
9I1JS1d8,3087lxlj7ptluqx9bvztb5iuvan0fr,3ydtzai2w1tdqjjwezccnq05fpv416,9I1JS1d8,2020-0188,2021-10-31,10:40:59,11:40:52,NA,incomplete,false,NA,true,NA,4,10,NA,NA,NA,left,NA,NA,NA,absent,NA,NA,m_l_076.jpg,purple,m_l_049.jpg,red,between,NA,NaN,NA,NA,NA,NA,right,1003,0,1,450.80000000447035
9I1JS1d8,3087lxlj7ptluqx9bvztb5iuvan0fr,3ydtzai2w1tdqjjwezccnq05fpv416,9I1JS1d8,2020-0188,2021-10-31,10:40:59,11:40:52,NA,incomplete,false,true,NA,NA,5,0,NA,orange,m_l_044.jpg,NA,NA,NA,NA,NA,unpleasant,pleasant,NA,NA,NA,NA,NA,right,1382.60000000149,true,NA,NA,NA,NA,NA,NA,NA,NA
9I1JS1d8,3087lxlj7ptluqx9bvztb5iuvan0fr,3ydtzai2w1tdqjjwezccnq05fpv416,9I1JS1d8,2020-0188,2021-10-31,10:40:59,11:40:52,NA,incomplete,false,true,NA,NA,5,1,NA,orange,n_s_080.jpg,NA,NA,NA,NA,NA,pleasant,unpleasant,NA,NA,NA,NA,NA,right,1797.60000000149,true,NA,NA,NA,NA,NA,NA,NA,NA
9I1JS1d8,3087lxlj7ptluqx9bvztb5iuvan0fr,3ydtzai2w1tdqjjwezccnq05fpv416,9I1JS1d8,2020-0188,2021-10-31,10:40:59,11:40:52,NA,incomplete,false,true,NA,NA,5,2,NA,orange,n_s_058.jpg,NA,NA,NA,NA,NA,unpleasant,pleasant,NA,NA,NA,NA,NA,left,1524.29999999702,true,NA,NA,NA,NA,NA,NA,NA,NA
9I1JS1d8,3087lxlj7ptluqx9bvztb5iuvan0fr,3ydtzai2w1tdqjjwezccnq05fpv416,9I1JS1d8,2020-0188,2021-10-31,10:40:59,11:40:52,NA,incomplete,false,true,NA,NA,5,3,NA,orange,m_s_097.jpg,NA,NA,NA,NA,NA,pleasant,unpleasant,NA,NA,NA,NA,NA,right,1112.20000000298,true,NA,NA,NA,NA,NA,NA,NA,NA
9I1JS1d8,3087lxlj7ptluqx9bvztb5iuvan0fr,3ydtzai2w1tdqjjwezccnq05fpv416,9I1JS1d8,2020-0188,2021-10-31,10:40:59,11:40:52,NA,incomplete,false,true,NA,NA,5,4,NA,orange,m_s_029.jpg,NA,NA,NA,NA,NA,pleasant,unpleasant,NA,NA,NA,NA,NA,left,1591.70000000298,true,NA,NA,NA,NA,NA,NA,NA,NA
9I1JS1d8,3087lxlj7ptluqx9bvztb5iuvan0fr,3ydtzai2w1tdqjjwezccnq05fpv416,9I1JS1d8,2020-0188,2021-10-31,10:40:59,11:40:52,NA,incomplete,false,true,NA,NA,5,5,NA,orange,n_s_068.jpg,NA,NA,NA,NA,NA,unpleasant,pleasant,NA,NA,NA,NA,NA,right,2029.39999999851,true,NA,NA,NA,NA,NA,NA,NA,NA
9I1JS1d8,3087lxlj7ptluqx9bvztb5iuvan0fr,3ydtzai2w1tdqjjwezccnq05fpv416,9I1JS1d8,2020-0188,2021-10-31,10:40:59,11:40:52,NA,incomplete,false,true,NA,NA,5,6,NA,purple,n_l_061.jpg,NA,NA,NA,NA,NA,unpleasant,pleasant,NA,NA,NA,NA,NA,right,1113.60000000149,true,NA,NA,NA,NA,NA,NA,NA,NA
9I1JS1d8,3087lxlj7ptluqx9bvztb5iuvan0fr,3ydtzai2w1tdqjjwezccnq05fpv416,9I1JS1d8,2020-0188,2021-10-31,10:40:59,11:40:52,NA,incomplete,false,true,NA,NA,5,7,NA,purple,n_s_115.jpg,NA,NA,NA,NA,NA,pleasant,unpleasant,NA,NA,NA,NA,NA,left,2383.10000000149,true,NA,NA,NA,NA,NA,NA,NA,NA
9I1JS1d8,3087lxlj7ptluqx9bvztb5iuvan0fr,3ydtzai2w1tdqjjwezccnq05fpv416,9I1JS1d8,2020-0188,2021-10-31,10:40:59,11:40:52,NA,incomplete,false,true,NA,NA,5,8,NA,purple,n_s_083.jpg,NA,NA,NA,NA,NA,unpleasant,pleasant,NA,NA,NA,NA,NA,left,1706.10000000149,true,NA,NA,NA,NA,NA,NA,NA,NA
9I1JS1d8,3087lxlj7ptluqx9bvztb5iuvan0fr,3ydtzai2w1tdqjjwezccnq05fpv416,9I1JS1d8,2020-0188,2021-10-31,10:40:59,11:40:52,NA,incomplete,false,true,NA,NA,5,9,NA,purple,m_s_082.jpg,NA,NA,NA,NA,NA,unpleasant,pleasant,NA,NA,NA,NA,NA,right,929,true,NA,NA,NA,NA,NA,NA,NA,NA
9I1JS1d8,3087lxlj7ptluqx9bvztb5iuvan0fr,3ydtzai2w1tdqjjwezccnq05fpv416,9I1JS1d8,2020-0188,2021-10-31,10:40:59,11:40:52,NA,incomplete,false,true,NA,NA,5,10,NA,purple,m_l_054.jpg,NA,NA,NA,NA,NA,unpleasant,pleasant,NA,NA,NA,NA,NA,right,1388.19999999553,true,NA,NA,NA,NA,NA,NA,NA,NA
9I1JS1d8,3087lxlj7ptluqx9bvztb5iuvan0fr,3ydtzai2w1tdqjjwezccnq05fpv416,9I1JS1d8,2020-0188,2021-10-31,10:40:59,11:40:52,NA,incomplete,false,true,NA,NA,5,11,NA,purple,n_s_084.jpg,NA,NA,NA,NA,NA,unpleasant,pleasant,NA,NA,NA,NA,NA,right,1055,true,NA,NA,NA,NA,NA,NA,NA,NA
9I1JS1d8,3087lxlj7ptluqx9bvztb5iuvan0fr,3ydtzai2w1tdqjjwezccnq05fpv416,9I1JS1d8,2020-0188,2021-10-31,10:40:59,11:40:52,NA,incomplete,false,true,NA,NA,5,12,NA,green,n_l_014.jpg,NA,NA,NA,NA,NA,pleasant,unpleasant,NA,NA,NA,NA,NA,left,1146,true,NA,NA,NA,NA,NA,NA,NA,NA
9I1JS1d8,3087lxlj7ptluqx9bvztb5iuvan0fr,3ydtzai2w1tdqjjwezccnq05fpv416,9I1JS1d8,2020-0188,2021-10-31,10:40:59,11:40:52,NA,incomplete,false,true,NA,NA,5,13,NA,green,n_s_109.jpg,NA,NA,NA,NA,NA,unpleasant,pleasant,NA,NA,NA,NA,NA,right,1130.10000000149,true,NA,NA,NA,NA,NA,NA,NA,NA
9I1JS1d8,3087lxlj7ptluqx9bvztb5iuvan0fr,3ydtzai2w1tdqjjwezccnq05fpv416,9I1JS1d8,2020-0188,2021-10-31,10:40:59,11:40:52,NA,incomplete,false,true,NA,NA,5,14,NA,green,n_l_010.jpg,NA,NA,NA,NA,NA,pleasant,unpleasant,NA,NA,NA,NA,NA,left,1018.70000000298,true,NA,NA,NA,NA,NA,NA,NA,NA
9I1JS1d8,3087lxlj7ptluqx9bvztb5iuvan0fr,3ydtzai2w1tdqjjwezccnq05fpv416,9I1JS1d8,2020-0188,2021-10-31,10:40:59,11:40:52,NA,incomplete,false,true,NA,NA,5,15,NA,green,m_s_061.jpg,NA,NA,NA,NA,NA,pleasant,unpleasant,NA,NA,NA,NA,NA,left,849.79999999702,true,NA,NA,NA,NA,NA,NA,NA,NA
9I1JS1d8,3087lxlj7ptluqx9bvztb5iuvan0fr,3ydtzai2w1tdqjjwezccnq05fpv416,9I1JS1d8,2020-0188,2021-10-31,10:40:59,11:40:52,NA,incomplete,false,true,NA,NA,5,16,NA,green,m_s_095.jpg,NA,NA,NA,NA,NA,pleasant,unpleasant,NA,NA,NA,NA,NA,left,1926.10000000149,true,NA,NA,NA,NA,NA,NA,NA,NA
