workerId,hitId,assignmentId,subject,studyid,exp_date,exp_start,exp_end,time_start,time_end,practice,encoding,memory,association,block,trial,event_order,event,stim,answer,object,left_context,right_context,context_type,label_left,label_right,left_image,left_event,right_image,right_event,condition,response,response_time,response_acc,association_response_time,association_response,association_acc,order_response,order_response_time,order_acc,distance_response,distance_response_time
vfH0RsU2,3z8ujejod2q8a85trwhk37uqvoc39x,3ymu66obirl46axubphyo2dfmipghr,vfH0RsU2,2020-0188,2021-10-31,02:35:36,04:08:08,NA,incomplete,true,true,NA,NA,0,0,NA,orange,n_s_009.jpg,NA,NA,NA,NA,NA,unpleasant,pleasant,NA,NA,NA,NA,NA,left,2901.90000000596,true,NA,NA,NA,NA,NA,NA,NA,NA
vfH0RsU2,3z8ujejod2q8a85trwhk37uqvoc39x,3ymu66obirl46axubphyo2dfmipghr,vfH0RsU2,2020-0188,2021-10-31,02:35:36,04:08:08,NA,incomplete,true,true,NA,NA,0,1,NA,orange,m_s_039.jpg,NA,NA,NA,NA,NA,pleasant,unpleasant,NA,NA,NA,NA,NA,left,2526.30000001192,true,NA,NA,NA,NA,NA,NA,NA,NA
vfH0RsU2,3z8ujejod2q8a85trwhk37uqvoc39x,3ymu66obirl46axubphyo2dfmipghr,vfH0RsU2,2020-0188,2021-10-31,02:35:36,04:08:08,NA,incomplete,true,true,NA,NA,0,2,NA,orange,n_l_036.jpg,NA,NA,NA,NA,NA,pleasant,unpleasant,NA,NA,NA,NA,NA,none,0,false,NA,NA,NA,NA,NA,NA,NA,NA
vfH0RsU2,3z8ujejod2q8a85trwhk37uqvoc39x,3ymu66obirl46axubphyo2dfmipghr,vfH0RsU2,2020-0188,2021-10-31,02:35:36,04:08:08,NA,incomplete,true,true,NA,NA,0,3,NA,orange,n_l_041.jpg,NA,NA,NA,NA,NA,unpleasant,pleasant,NA,NA,NA,NA,NA,right,259.59999999404,true,NA,NA,NA,NA,NA,NA,NA,NA
vfH0RsU2,3z8ujejod2q8a85trwhk37uqvoc39x,3ymu66obirl46axubphyo2dfmipghr,vfH0RsU2,2020-0188,2021-10-31,02:35:36,04:08:08,NA,incomplete,true,true,NA,NA,0,4,NA,orange,m_l_115.jpg,NA,NA,NA,NA,NA,unpleasant,pleasant,NA,NA,NA,NA,NA,right,2083.60000002384,true,NA,NA,NA,NA,NA,NA,NA,NA
vfH0RsU2,3z8ujejod2q8a85trwhk37uqvoc39x,3ymu66obirl46axubphyo2dfmipghr,vfH0RsU2,2020-0188,2021-10-31,02:35:36,04:08:08,NA,incomplete,true,true,NA,NA,0,5,NA,orange,n_l_092.jpg,NA,NA,NA,NA,NA,pleasant,unpleasant,NA,NA,NA,NA,NA,right,2181,true,NA,NA,NA,NA,NA,NA,NA,NA
vfH0RsU2,3z8ujejod2q8a85trwhk37uqvoc39x,3ymu66obirl46axubphyo2dfmipghr,vfH0RsU2,2020-0188,2021-10-31,02:35:36,04:08:08,NA,incomplete,true,true,NA,NA,0,6,NA,black,m_l_093.jpg,NA,NA,NA,NA,NA,pleasant,unpleasant,NA,NA,NA,NA,NA,right,3073.30000001192,true,NA,NA,NA,NA,NA,NA,NA,NA
vfH0RsU2,3z8ujejod2q8a85trwhk37uqvoc39x,3ymu66obirl46axubphyo2dfmipghr,vfH0RsU2,2020-0188,2021-10-31,02:35:36,04:08:08,NA,incomplete,true,true,NA,NA,0,7,NA,black,n_l_056.jpg,NA,NA,NA,NA,NA,pleasant,unpleasant,NA,NA,NA,NA,NA,right,2178.90000000596,true,NA,NA,NA,NA,NA,NA,NA,NA
vfH0RsU2,3z8ujejod2q8a85trwhk37uqvoc39x,3ymu66obirl46axubphyo2dfmipghr,vfH0RsU2,2020-0188,2021-10-31,02:35:36,04:08:08,NA,incomplete,true,true,NA,NA,0,8,NA,black,m_s_033.jpg,NA,NA,NA,NA,NA,unpleasant,pleasant,NA,NA,NA,NA,NA,right,2075.40000000596,true,NA,NA,NA,NA,NA,NA,NA,NA
vfH0RsU2,3z8ujejod2q8a85trwhk37uqvoc39x,3ymu66obirl46axubphyo2dfmipghr,vfH0RsU2,2020-0188,2021-10-31,02:35:36,04:08:08,NA,incomplete,true,true,NA,NA,0,9,NA,black,m_l_020.jpg,NA,NA,NA,NA,NA,pleasant,unpleasant,NA,NA,NA,NA,NA,left,2490,true,NA,NA,NA,NA,NA,NA,NA,NA
vfH0RsU2,3z8ujejod2q8a85trwhk37uqvoc39x,3ymu66obirl46axubphyo2dfmipghr,vfH0RsU2,2020-0188,2021-10-31,02:35:36,04:08:08,NA,incomplete,true,true,NA,NA,0,10,NA,black,m_l_109.jpg,NA,NA,NA,NA,NA,pleasant,unpleasant,NA,NA,NA,NA,NA,left,2194.69999998808,true,NA,NA,NA,NA,NA,NA,NA,NA
vfH0RsU2,3z8ujejod2q8a85trwhk37uqvoc39x,3ymu66obirl46axubphyo2dfmipghr,vfH0RsU2,2020-0188,2021-10-31,02:35:36,04:08:08,NA,incomplete,true,true,NA,NA,0,11,NA,black,n_l_034.jpg,NA,NA,NA,NA,NA,unpleasant,pleasant,NA,NA,NA,NA,NA,left,1739.79999998212,true,NA,NA,NA,NA,NA,NA,NA,NA
vfH0RsU2,3z8ujejod2q8a85trwhk37uqvoc39x,3ymu66obirl46axubphyo2dfmipghr,vfH0RsU2,2020-0188,2021-10-31,02:35:36,04:08:08,NA,incomplete,true,true,NA,NA,0,12,NA,yellow,n_s_115.jpg,NA,NA,NA,NA,NA,unpleasant,pleasant,NA,NA,NA,NA,NA,left,2189.69999998808,true,NA,NA,NA,NA,NA,NA,NA,NA
vfH0RsU2,3z8ujejod2q8a85trwhk37uqvoc39x,3ymu66obirl46axubphyo2dfmipghr,vfH0RsU2,2020-0188,2021-10-31,02:35:36,04:08:08,NA,incomplete,true,true,NA,NA,0,13,NA,yellow,n_s_096.jpg,NA,NA,NA,NA,NA,unpleasant,pleasant,NA,NA,NA,NA,NA,left,1398.40000000596,true,NA,NA,NA,NA,NA,NA,NA,NA
vfH0RsU2,3z8ujejod2q8a85trwhk37uqvoc39x,3ymu66obirl46axubphyo2dfmipghr,vfH0RsU2,2020-0188,2021-10-31,02:35:36,04:08:08,NA,incomplete,true,true,NA,NA,0,14,NA,yellow,n_s_066.jpg,NA,NA,NA,NA,NA,unpleasant,pleasant,NA,NA,NA,NA,NA,left,1368.29999998212,true,NA,NA,NA,NA,NA,NA,NA,NA
vfH0RsU2,3z8ujejod2q8a85trwhk37uqvoc39x,3ymu66obirl46axubphyo2dfmipghr,vfH0RsU2,2020-0188,2021-10-31,02:35:36,04:08:08,NA,incomplete,true,true,NA,NA,0,15,NA,yellow,n_s_030.jpg,NA,NA,NA,NA,NA,unpleasant,pleasant,NA,NA,NA,NA,NA,left,1672.90000000596,true,NA,NA,NA,NA,NA,NA,NA,NA
vfH0RsU2,3z8ujejod2q8a85trwhk37uqvoc39x,3ymu66obirl46axubphyo2dfmipghr,vfH0RsU2,2020-0188,2021-10-31,02:35:36,04:08:08,NA,incomplete,true,true,NA,NA,0,16,NA,yellow,n_s_067.jpg,NA,NA,NA,NA,NA,pleasant,unpleasant,NA,NA,NA,NA,NA,left,2293.29999998212,true,NA,NA,NA,NA,NA,NA,NA,NA
vfH0RsU2,3z8ujejod2q8a85trwhk37uqvoc39x,3ymu66obirl46axubphyo2dfmipghr,vfH0RsU2,2020-0188,2021-10-31,02:35:36,04:08:08,NA,incomplete,true,true,NA,NA,0,17,NA,yellow,n_s_059.jpg,NA,NA,NA,NA,NA,unpleasant,pleasant,NA,NA,NA,NA,NA,left,1784.20000001788,true,NA,NA,NA,NA,NA,NA,NA,NA
vfH0RsU2,3z8ujejod2q8a85trwhk37uqvoc39x,3ymu66obirl46axubphyo2dfmipghr,vfH0RsU2,2020-0188,2021-10-31,02:35:36,04:08:08,NA,incomplete,true,true,NA,NA,0,18,NA,purple,n_s_050.jpg,NA,NA,NA,NA,NA,pleasant,unpleasant,NA,NA,NA,NA,NA,right,2781.29999998212,true,NA,NA,NA,NA,NA,NA,NA,NA
vfH0RsU2,3z8ujejod2q8a85trwhk37uqvoc39x,3ymu66obirl46axubphyo2dfmipghr,vfH0RsU2,2020-0188,2021-10-31,02:35:36,04:08:08,NA,incomplete,true,true,NA,NA,0,19,NA,purple,m_s_057.jpg,NA,NA,NA,NA,NA,pleasant,unpleasant,NA,NA,NA,NA,NA,right,2378.19999998808,true,NA,NA,NA,NA,NA,NA,NA,NA
vfH0RsU2,3z8ujejod2q8a85trwhk37uqvoc39x,3ymu66obirl46axubphyo2dfmipghr,vfH0RsU2,2020-0188,2021-10-31,02:35:36,04:08:08,NA,incomplete,true,true,NA,NA,0,20,NA,purple,n_l_106.jpg,NA,NA,NA,NA,NA,pleasant,unpleasant,NA,NA,NA,NA,NA,right,1718.29999998212,true,NA,NA,NA,NA,NA,NA,NA,NA
vfH0RsU2,3z8ujejod2q8a85trwhk37uqvoc39x,3ymu66obirl46axubphyo2dfmipghr,vfH0RsU2,2020-0188,2021-10-31,02:35:36,04:08:08,NA,incomplete,true,true,NA,NA,0,21,NA,purple,m_s_019.jpg,NA,NA,NA,NA,NA,pleasant,unpleasant,NA,NA,NA,NA,NA,right,2199,true,NA,NA,NA,NA,NA,NA,NA,NA
vfH0RsU2,3z8ujejod2q8a85trwhk37uqvoc39x,3ymu66obirl46axubphyo2dfmipghr,vfH0RsU2,2020-0188,2021-10-31,02:35:36,04:08:08,NA,incomplete,true,true,NA,NA,0,22,NA,purple,n_l_045.jpg,NA,NA,NA,NA,NA,pleasant,unpleasant,NA,NA,NA,NA,NA,right,1314,true,NA,NA,NA,NA,NA,NA,NA,NA
vfH0RsU2,3z8ujejod2q8a85trwhk37uqvoc39x,3ymu66obirl46axubphyo2dfmipghr,vfH0RsU2,2020-0188,2021-10-31,02:35:36,04:08:08,NA,incomplete,true,true,NA,NA,0,23,NA,purple,n_s_013.jpg,NA,NA,NA,NA,NA,pleasant,unpleasant,NA,NA,NA,NA,NA,right,1154.90000000596,true,NA,NA,NA,NA,NA,NA,NA,NA
vfH0RsU2,3z8ujejod2q8a85trwhk37uqvoc39x,3ymu66obirl46axubphyo2dfmipghr,vfH0RsU2,2020-0188,2021-10-31,02:35:36,04:08:08,NA,incomplete,true,true,NA,NA,0,24,NA,blue,n_s_109.jpg,NA,NA,NA,NA,NA,pleasant,unpleasant,NA,NA,NA,NA,NA,right,1697.39999997616,true,NA,NA,NA,NA,NA,NA,NA,NA
vfH0RsU2,3z8ujejod2q8a85trwhk37uqvoc39x,3ymu66obirl46axubphyo2dfmipghr,vfH0RsU2,2020-0188,2021-10-31,02:35:36,04:08:08,NA,incomplete,true,true,NA,NA,0,25,NA,blue,n_s_046.jpg,NA,NA,NA,NA,NA,unpleasant,pleasant,NA,NA,NA,NA,NA,right,2772.70000001788,true,NA,NA,NA,NA,NA,NA,NA,NA
vfH0RsU2,3z8ujejod2q8a85trwhk37uqvoc39x,3ymu66obirl46axubphyo2dfmipghr,vfH0RsU2,2020-0188,2021-10-31,02:35:36,04:08:08,NA,incomplete,true,true,NA,NA,0,26,NA,blue,n_l_051.jpg,NA,NA,NA,NA,NA,unpleasant,pleasant,NA,NA,NA,NA,NA,left,1337.90000000596,true,NA,NA,NA,NA,NA,NA,NA,NA
vfH0RsU2,3z8ujejod2q8a85trwhk37uqvoc39x,3ymu66obirl46axubphyo2dfmipghr,vfH0RsU2,2020-0188,2021-10-31,02:35:36,04:08:08,NA,incomplete,true,true,NA,NA,0,27,NA,blue,m_l_079.jpg,NA,NA,NA,NA,NA,unpleasant,pleasant,NA,NA,NA,NA,NA,right,1444.5,true,NA,NA,NA,NA,NA,NA,NA,NA
vfH0RsU2,3z8ujejod2q8a85trwhk37uqvoc39x,3ymu66obirl46axubphyo2dfmipghr,vfH0RsU2,2020-0188,2021-10-31,02:35:36,04:08:08,NA,incomplete,true,true,NA,NA,0,28,NA,blue,n_l_090.jpg,NA,NA,NA,NA,NA,unpleasant,pleasant,NA,NA,NA,NA,NA,left,1705.90000000596,true,NA,NA,NA,NA,NA,NA,NA,NA
vfH0RsU2,3z8ujejod2q8a85trwhk37uqvoc39x,3ymu66obirl46axubphyo2dfmipghr,vfH0RsU2,2020-0188,2021-10-31,02:35:36,04:08:08,NA,incomplete,true,true,NA,NA,0,29,NA,blue,n_l_031.jpg,NA,NA,NA,NA,NA,unpleasant,pleasant,NA,NA,NA,NA,NA,left,1393,true,NA,NA,NA,NA,NA,NA,NA,NA
vfH0RsU2,3z8ujejod2q8a85trwhk37uqvoc39x,3ymu66obirl46axubphyo2dfmipghr,vfH0RsU2,2020-0188,2021-10-31,02:35:36,04:08:08,NA,incomplete,true,true,NA,NA,0,30,NA,white,n_l_017.jpg,NA,NA,NA,NA,NA,pleasant,unpleasant,NA,NA,NA,NA,NA,right,1554.30000001192,true,NA,NA,NA,NA,NA,NA,NA,NA
vfH0RsU2,3z8ujejod2q8a85trwhk37uqvoc39x,3ymu66obirl46axubphyo2dfmipghr,vfH0RsU2,2020-0188,2021-10-31,02:35:36,04:08:08,NA,incomplete,true,true,NA,NA,0,31,NA,white,m_l_031.jpg,NA,NA,NA,NA,NA,pleasant,unpleasant,NA,NA,NA,NA,NA,left,1508.79999998212,true,NA,NA,NA,NA,NA,NA,NA,NA
vfH0RsU2,3z8ujejod2q8a85trwhk37uqvoc39x,3ymu66obirl46axubphyo2dfmipghr,vfH0RsU2,2020-0188,2021-10-31,02:35:36,04:08:08,NA,incomplete,true,true,NA,NA,0,32,NA,white,m_l_084.jpg,NA,NA,NA,NA,NA,pleasant,unpleasant,NA,NA,NA,NA,NA,left,2050.09999999404,true,NA,NA,NA,NA,NA,NA,NA,NA
vfH0RsU2,3z8ujejod2q8a85trwhk37uqvoc39x,3ymu66obirl46axubphyo2dfmipghr,vfH0RsU2,2020-0188,2021-10-31,02:35:36,04:08:08,NA,incomplete,true,true,NA,NA,0,33,NA,white,n_s_006.jpg,NA,NA,NA,NA,NA,unpleasant,pleasant,NA,NA,NA,NA,NA,left,2053,true,NA,NA,NA,NA,NA,NA,NA,NA
vfH0RsU2,3z8ujejod2q8a85trwhk37uqvoc39x,3ymu66obirl46axubphyo2dfmipghr,vfH0RsU2,2020-0188,2021-10-31,02:35:36,04:08:08,NA,incomplete,true,true,NA,NA,0,34,NA,white,m_s_007.jpg,NA,NA,NA,NA,NA,pleasant,unpleasant,NA,NA,NA,NA,NA,left,2878.59999999404,true,NA,NA,NA,NA,NA,NA,NA,NA
vfH0RsU2,3z8ujejod2q8a85trwhk37uqvoc39x,3ymu66obirl46axubphyo2dfmipghr,vfH0RsU2,2020-0188,2021-10-31,02:35:36,04:08:08,NA,incomplete,true,true,NA,NA,0,35,NA,white,m_s_031.jpg,NA,NA,NA,NA,NA,pleasant,unpleasant,NA,NA,NA,NA,NA,left,2400.59999999404,true,NA,NA,NA,NA,NA,NA,NA,NA
vfH0RsU2,3z8ujejod2q8a85trwhk37uqvoc39x,3ymu66obirl46axubphyo2dfmipghr,vfH0RsU2,2020-0188,2021-10-31,02:35:36,04:08:08,NA,incomplete,true,NA,NA,true,0,0,NA,NA,NA,right,n_s_013.jpg,yellow,purple,NA,NA,NA,NA,NA,NA,NA,NA,NA,NaN,NA,10945.90000000596,right,1,NA,NA,NA,NA,NA
vfH0RsU2,3z8ujejod2q8a85trwhk37uqvoc39x,3ymu66obirl46axubphyo2dfmipghr,vfH0RsU2,2020-0188,2021-10-31,02:35:36,04:08:08,NA,incomplete,true,NA,NA,true,0,1,NA,NA,NA,left,n_l_034.jpg,black,orange,NA,NA,NA,NA,NA,NA,NA,NA,NA,NaN,NA,2717.7000000178814,left,1,NA,NA,NA,NA,NA
vfH0RsU2,3z8ujejod2q8a85trwhk37uqvoc39x,3ymu66obirl46axubphyo2dfmipghr,vfH0RsU2,2020-0188,2021-10-31,02:35:36,04:08:08,NA,incomplete,true,NA,NA,true,0,2,NA,NA,NA,right,m_l_109.jpg,orange,black,NA,NA,NA,NA,NA,NA,NA,NA,NA,NaN,NA,2928.199999988079,right,1,NA,NA,NA,NA,NA
vfH0RsU2,3z8ujejod2q8a85trwhk37uqvoc39x,3ymu66obirl46axubphyo2dfmipghr,vfH0RsU2,2020-0188,2021-10-31,02:35:36,04:08:08,NA,incomplete,true,NA,NA,true,0,3,NA,NA,NA,right,n_s_096.jpg,black,yellow,NA,NA,NA,NA,NA,NA,NA,NA,NA,NaN,NA,2561.5999999940395,right,1,NA,NA,NA,NA,NA
vfH0RsU2,3z8ujejod2q8a85trwhk37uqvoc39x,3ymu66obirl46axubphyo2dfmipghr,vfH0RsU2,2020-0188,2021-10-31,02:35:36,04:08:08,NA,incomplete,true,NA,NA,true,0,4,NA,NA,NA,left,n_l_106.jpg,purple,blue,NA,NA,NA,NA,NA,NA,NA,NA,NA,NaN,NA,4329.199999988079,left,1,NA,NA,NA,NA,NA
vfH0RsU2,3z8ujejod2q8a85trwhk37uqvoc39x,3ymu66obirl46axubphyo2dfmipghr,vfH0RsU2,2020-0188,2021-10-31,02:35:36,04:08:08,NA,incomplete,true,NA,NA,true,0,5,NA,NA,NA,right,n_l_092.jpg,black,orange,NA,NA,NA,NA,NA,NA,NA,NA,NA,NaN,NA,8310.5,left,0,NA,NA,NA,NA,NA
vfH0RsU2,3z8ujejod2q8a85trwhk37uqvoc39x,3ymu66obirl46axubphyo2dfmipghr,vfH0RsU2,2020-0188,2021-10-31,02:35:36,04:08:08,NA,incomplete,true,NA,NA,true,0,6,NA,NA,NA,left,m_s_033.jpg,black,yellow,NA,NA,NA,NA,NA,NA,NA,NA,NA,NaN,NA,2527,left,1,NA,NA,NA,NA,NA
vfH0RsU2,3z8ujejod2q8a85trwhk37uqvoc39x,3ymu66obirl46axubphyo2dfmipghr,vfH0RsU2,2020-0188,2021-10-31,02:35:36,04:08:08,NA,incomplete,true,NA,NA,true,0,7,NA,NA,NA,right,n_s_046.jpg,purple,blue,NA,NA,NA,NA,NA,NA,NA,NA,NA,NaN,NA,6865,right,1,NA,NA,NA,NA,NA
vfH0RsU2,3z8ujejod2q8a85trwhk37uqvoc39x,3ymu66obirl46axubphyo2dfmipghr,vfH0RsU2,2020-0188,2021-10-31,02:35:36,04:08:08,NA,incomplete,true,NA,NA,true,0,8,NA,NA,NA,left,m_s_031.jpg,white,blue,NA,NA,NA,NA,NA,NA,NA,NA,NA,NaN,NA,3064.800000011921,left,1,NA,NA,NA,NA,NA
vfH0RsU2,3z8ujejod2q8a85trwhk37uqvoc39x,3ymu66obirl46axubphyo2dfmipghr,vfH0RsU2,2020-0188,2021-10-31,02:35:36,04:08:08,NA,incomplete,true,NA,NA,true,0,9,NA,NA,NA,left,m_l_084.jpg,white,blue,NA,NA,NA,NA,NA,NA,NA,NA,NA,NaN,NA,2826,left,1,NA,NA,NA,NA,NA
vfH0RsU2,3z8ujejod2q8a85trwhk37uqvoc39x,3ymu66obirl46axubphyo2dfmipghr,vfH0RsU2,2020-0188,2021-10-31,02:35:36,04:08:08,NA,incomplete,true,NA,NA,true,0,10,NA,NA,NA,left,n_s_066.jpg,yellow,black,NA,NA,NA,NA,NA,NA,NA,NA,NA,NaN,NA,3058.699999988079,left,1,NA,NA,NA,NA,NA
vfH0RsU2,3z8ujejod2q8a85trwhk37uqvoc39x,3ymu66obirl46axubphyo2dfmipghr,vfH0RsU2,2020-0188,2021-10-31,02:35:36,04:08:08,NA,incomplete,true,NA,NA,true,0,11,NA,NA,NA,left,m_l_031.jpg,white,blue,NA,NA,NA,NA,NA,NA,NA,NA,NA,NaN,NA,8205.699999988079,right,0,NA,NA,NA,NA,NA
vfH0RsU2,3z8ujejod2q8a85trwhk37uqvoc39x,3ymu66obirl46axubphyo2dfmipghr,vfH0RsU2,2020-0188,2021-10-31,02:35:36,04:08:08,NA,incomplete,true,NA,NA,true,0,12,NA,NA,NA,right,m_s_039.jpg,black,orange,NA,NA,NA,NA,NA,NA,NA,NA,NA,NaN,NA,2814.399999976158,right,1,NA,NA,NA,NA,NA
vfH0RsU2,3z8ujejod2q8a85trwhk37uqvoc39x,3ymu66obirl46axubphyo2dfmipghr,vfH0RsU2,2020-0188,2021-10-31,02:35:36,04:08:08,NA,incomplete,true,NA,NA,true,0,13,NA,NA,NA,left,n_l_031.jpg,blue,purple,NA,NA,NA,NA,NA,NA,NA,NA,NA,NaN,NA,4767.0999999940395,left,1,NA,NA,NA,NA,NA
vfH0RsU2,3z8ujejod2q8a85trwhk37uqvoc39x,3ymu66obirl46axubphyo2dfmipghr,vfH0RsU2,2020-0188,2021-10-31,02:35:36,04:08:08,NA,incomplete,true,NA,NA,true,0,14,NA,NA,NA,left,n_l_056.jpg,black,yellow,NA,NA,NA,NA,NA,NA,NA,NA,NA,NaN,NA,4029.399999976158,left,1,NA,NA,NA,NA,NA
vfH0RsU2,3z8ujejod2q8a85trwhk37uqvoc39x,3ymu66obirl46axubphyo2dfmipghr,vfH0RsU2,2020-0188,2021-10-31,02:35:36,04:08:08,NA,incomplete,true,NA,NA,true,0,15,NA,NA,NA,left,m_s_057.jpg,purple,blue,NA,NA,NA,NA,NA,NA,NA,NA,NA,NaN,NA,3052.7000000178814,left,1,NA,NA,NA,NA,NA
vfH0RsU2,3z8ujejod2q8a85trwhk37uqvoc39x,3ymu66obirl46axubphyo2dfmipghr,vfH0RsU2,2020-0188,2021-10-31,02:35:36,04:08:08,NA,incomplete,true,NA,NA,true,0,16,NA,NA,NA,right,n_s_059.jpg,black,yellow,NA,NA,NA,NA,NA,NA,NA,NA,NA,NaN,NA,3120.9000000059605,right,1,NA,NA,NA,NA,NA
vfH0RsU2,3z8ujejod2q8a85trwhk37uqvoc39x,3ymu66obirl46axubphyo2dfmipghr,vfH0RsU2,2020-0188,2021-10-31,02:35:36,04:08:08,NA,incomplete,true,NA,NA,true,0,17,NA,NA,NA,right,n_l_045.jpg,blue,purple,NA,NA,NA,NA,NA,NA,NA,NA,NA,NaN,NA,2826.7000000178814,right,1,NA,NA,NA,NA,NA
vfH0RsU2,3z8ujejod2q8a85trwhk37uqvoc39x,3ymu66obirl46axubphyo2dfmipghr,vfH0RsU2,2020-0188,2021-10-31,02:35:36,04:08:08,NA,incomplete,true,NA,NA,true,0,18,NA,NA,NA,right,n_l_090.jpg,white,blue,NA,NA,NA,NA,NA,NA,NA,NA,NA,NaN,NA,2484.399999976158,right,1,NA,NA,NA,NA,NA
vfH0RsU2,3z8ujejod2q8a85trwhk37uqvoc39x,3ymu66obirl46axubphyo2dfmipghr,vfH0RsU2,2020-0188,2021-10-31,02:35:36,04:08:08,NA,incomplete,true,NA,NA,true,0,19,NA,NA,NA,right,n_s_067.jpg,black,yellow,NA,NA,NA,NA,NA,NA,NA,NA,NA,NaN,NA,2335.4000000059605,right,1,NA,NA,NA,NA,NA
vfH0RsU2,3z8ujejod2q8a85trwhk37uqvoc39x,3ymu66obirl46axubphyo2dfmipghr,vfH0RsU2,2020-0188,2021-10-31,02:35:36,04:08:08,NA,incomplete,true,NA,NA,true,0,20,NA,NA,NA,right,m_l_115.jpg,black,orange,NA,NA,NA,NA,NA,NA,NA,NA,NA,NaN,NA,2102.4000000059605,right,1,NA,NA,NA,NA,NA
vfH0RsU2,3z8ujejod2q8a85trwhk37uqvoc39x,3ymu66obirl46axubphyo2dfmipghr,vfH0RsU2,2020-0188,2021-10-31,02:35:36,04:08:08,NA,incomplete,true,NA,NA,true,0,21,NA,NA,NA,left,n_l_051.jpg,blue,white,NA,NA,NA,NA,NA,NA,NA,NA,NA,NaN,NA,3367.4000000059605,left,1,NA,NA,NA,NA,NA
vfH0RsU2,3z8ujejod2q8a85trwhk37uqvoc39x,3ymu66obirl46axubphyo2dfmipghr,vfH0RsU2,2020-0188,2021-10-31,02:35:36,04:08:08,NA,incomplete,true,NA,true,NA,0,0,NA,NA,NA,left,NA,NA,NA,present,NA,NA,m_s_039.jpg,orange,n_l_092.jpg,orange,within,NA,NaN,NA,NA,NA,NA,left,4842.700000017881,1,3,10034
vfH0RsU2,3z8ujejod2q8a85trwhk37uqvoc39x,3ymu66obirl46axubphyo2dfmipghr,vfH0RsU2,2020-0188,2021-10-31,02:35:36,04:08:08,NA,incomplete,true,NA,true,NA,0,1,NA,NA,NA,left,NA,NA,NA,present,NA,NA,n_s_067.jpg,yellow,n_l_106.jpg,purple,between,NA,NaN,NA,NA,NA,NA,left,4740,1,2,3444.5
vfH0RsU2,3z8ujejod2q8a85trwhk37uqvoc39x,3ymu66obirl46axubphyo2dfmipghr,vfH0RsU2,2020-0188,2021-10-31,02:35:36,04:08:08,NA,incomplete,true,NA,true,NA,0,2,NA,NA,NA,left,NA,NA,NA,present,NA,NA,m_l_031.jpg,white,m_s_031.jpg,white,within,NA,NaN,NA,NA,NA,NA,right,7058.9000000059605,0,1,2210.4000000059605
vfH0RsU2,3z8ujejod2q8a85trwhk37uqvoc39x,3ymu66obirl46axubphyo2dfmipghr,vfH0RsU2,2020-0188,2021-10-31,02:35:36,04:08:08,NA,incomplete,true,NA,true,NA,0,3,NA,NA,NA,right,NA,NA,NA,present,NA,NA,n_l_034.jpg,black,n_l_056.jpg,black,within,NA,NaN,NA,NA,NA,NA,left,9916.90000000596,0,3,2088.800000011921
vfH0RsU2,3z8ujejod2q8a85trwhk37uqvoc39x,3ymu66obirl46axubphyo2dfmipghr,vfH0RsU2,2020-0188,2021-10-31,02:35:36,04:08:08,NA,incomplete,true,NA,true,NA,0,4,NA,NA,NA,right,NA,NA,NA,present,NA,NA,n_s_059.jpg,yellow,n_s_096.jpg,yellow,within,NA,NaN,NA,NA,NA,NA,right,4709.200000017881,1,3,2933.5
vfH0RsU2,3z8ujejod2q8a85trwhk37uqvoc39x,3ymu66obirl46axubphyo2dfmipghr,vfH0RsU2,2020-0188,2021-10-31,02:35:36,04:08:08,NA,incomplete,true,NA,true,NA,0,5,NA,NA,NA,left,NA,NA,NA,present,NA,NA,n_s_046.jpg,blue,n_l_031.jpg,blue,within,NA,NaN,NA,NA,NA,NA,left,3965,1,1,3692.300000011921
vfH0RsU2,3z8ujejod2q8a85trwhk37uqvoc39x,3ymu66obirl46axubphyo2dfmipghr,vfH0RsU2,2020-0188,2021-10-31,02:35:36,04:08:08,NA,incomplete,true,NA,true,NA,0,6,NA,NA,NA,left,NA,NA,NA,present,NA,NA,n_l_090.jpg,blue,m_l_084.jpg,white,between,NA,NaN,NA,NA,NA,NA,left,6048.700000017881,1,1,8158.5999999940395
vfH0RsU2,3z8ujejod2q8a85trwhk37uqvoc39x,3ymu66obirl46axubphyo2dfmipghr,vfH0RsU2,2020-0188,2021-10-31,02:35:36,04:08:08,NA,incomplete,true,NA,true,NA,0,7,NA,NA,NA,left,NA,NA,NA,present,NA,NA,m_s_057.jpg,purple,n_s_013.jpg,purple,within,NA,NaN,NA,NA,NA,NA,left,5795.600000023842,1,2,2757.5
vfH0RsU2,3z8ujejod2q8a85trwhk37uqvoc39x,3ymu66obirl46axubphyo2dfmipghr,vfH0RsU2,2020-0188,2021-10-31,02:35:36,04:08:08,NA,incomplete,true,NA,true,NA,0,8,NA,NA,NA,right,NA,NA,NA,present,NA,NA,m_s_033.jpg,black,m_l_115.jpg,orange,between,NA,NaN,NA,NA,NA,NA,right,4620.199999988079,1,3,3776.9000000059605
vfH0RsU2,3z8ujejod2q8a85trwhk37uqvoc39x,3ymu66obirl46axubphyo2dfmipghr,vfH0RsU2,2020-0188,2021-10-31,02:35:36,04:08:08,NA,incomplete,true,NA,true,NA,0,9,NA,NA,NA,right,NA,NA,NA,present,NA,NA,n_s_066.jpg,yellow,m_l_109.jpg,black,between,NA,NaN,NA,NA,NA,NA,left,7183.600000023842,0,2,2525.899999976158
vfH0RsU2,3z8ujejod2q8a85trwhk37uqvoc39x,3ymu66obirl46axubphyo2dfmipghr,vfH0RsU2,2020-0188,2021-10-31,02:35:36,04:08:08,NA,incomplete,true,NA,true,NA,0,10,NA,NA,NA,left,NA,NA,NA,present,NA,NA,n_l_045.jpg,purple,n_l_051.jpg,blue,between,NA,NaN,NA,NA,NA,NA,right,7066.199999988079,0,2,2607.0999999940395
vfH0RsU2,3z8ujejod2q8a85trwhk37uqvoc39x,3ymu66obirl46axubphyo2dfmipghr,vfH0RsU2,2020-0188,2021-10-31,02:35:36,04:08:08,NA,incomplete,false,true,NA,NA,1,0,NA,purple,n_l_081.jpg,NA,NA,NA,NA,NA,unpleasant,pleasant,NA,NA,NA,NA,NA,right,3406.30000001192,true,NA,NA,NA,NA,NA,NA,NA,NA
vfH0RsU2,3z8ujejod2q8a85trwhk37uqvoc39x,3ymu66obirl46axubphyo2dfmipghr,vfH0RsU2,2020-0188,2021-10-31,02:35:36,04:08:08,NA,incomplete,false,true,NA,NA,1,1,NA,purple,m_s_071.jpg,NA,NA,NA,NA,NA,pleasant,unpleasant,NA,NA,NA,NA,NA,left,3097.29999998212,true,NA,NA,NA,NA,NA,NA,NA,NA
vfH0RsU2,3z8ujejod2q8a85trwhk37uqvoc39x,3ymu66obirl46axubphyo2dfmipghr,vfH0RsU2,2020-0188,2021-10-31,02:35:36,04:08:08,NA,incomplete,false,true,NA,NA,1,2,NA,purple,m_l_002.jpg,NA,NA,NA,NA,NA,unpleasant,pleasant,NA,NA,NA,NA,NA,right,2368.79999998212,true,NA,NA,NA,NA,NA,NA,NA,NA
vfH0RsU2,3z8ujejod2q8a85trwhk37uqvoc39x,3ymu66obirl46axubphyo2dfmipghr,vfH0RsU2,2020-0188,2021-10-31,02:35:36,04:08:08,NA,incomplete,false,true,NA,NA,1,3,NA,purple,n_l_103.jpg,NA,NA,NA,NA,NA,pleasant,unpleasant,NA,NA,NA,NA,NA,right,2002.69999998808,true,NA,NA,NA,NA,NA,NA,NA,NA
vfH0RsU2,3z8ujejod2q8a85trwhk37uqvoc39x,3ymu66obirl46axubphyo2dfmipghr,vfH0RsU2,2020-0188,2021-10-31,02:35:36,04:08:08,NA,incomplete,false,true,NA,NA,1,4,NA,purple,n_l_012.jpg,NA,NA,NA,NA,NA,pleasant,unpleasant,NA,NA,NA,NA,NA,right,1492.59999999404,true,NA,NA,NA,NA,NA,NA,NA,NA
vfH0RsU2,3z8ujejod2q8a85trwhk37uqvoc39x,3ymu66obirl46axubphyo2dfmipghr,vfH0RsU2,2020-0188,2021-10-31,02:35:36,04:08:08,NA,incomplete,false,true,NA,NA,1,5,NA,purple,n_l_046.jpg,NA,NA,NA,NA,NA,unpleasant,pleasant,NA,NA,NA,NA,NA,left,2895,true,NA,NA,NA,NA,NA,NA,NA,NA
vfH0RsU2,3z8ujejod2q8a85trwhk37uqvoc39x,3ymu66obirl46axubphyo2dfmipghr,vfH0RsU2,2020-0188,2021-10-31,02:35:36,04:08:08,NA,incomplete,false,true,NA,NA,1,6,NA,blue,m_s_009.jpg,NA,NA,NA,NA,NA,unpleasant,pleasant,NA,NA,NA,NA,NA,right,2053.70000001788,true,NA,NA,NA,NA,NA,NA,NA,NA
vfH0RsU2,3z8ujejod2q8a85trwhk37uqvoc39x,3ymu66obirl46axubphyo2dfmipghr,vfH0RsU2,2020-0188,2021-10-31,02:35:36,04:08:08,NA,incomplete,false,true,NA,NA,1,7,NA,blue,m_l_009.jpg,NA,NA,NA,NA,NA,pleasant,unpleasant,NA,NA,NA,NA,NA,left,1828.5,true,NA,NA,NA,NA,NA,NA,NA,NA
vfH0RsU2,3z8ujejod2q8a85trwhk37uqvoc39x,3ymu66obirl46axubphyo2dfmipghr,vfH0RsU2,2020-0188,2021-10-31,02:35:36,04:08:08,NA,incomplete,false,true,NA,NA,1,8,NA,blue,m_l_083.jpg,NA,NA,NA,NA,NA,unpleasant,pleasant,NA,NA,NA,NA,NA,right,2202.20000001788,true,NA,NA,NA,NA,NA,NA,NA,NA
vfH0RsU2,3z8ujejod2q8a85trwhk37uqvoc39x,3ymu66obirl46axubphyo2dfmipghr,vfH0RsU2,2020-0188,2021-10-31,02:35:36,04:08:08,NA,incomplete,false,true,NA,NA,1,9,NA,blue,n_l_010.jpg,NA,NA,NA,NA,NA,unpleasant,pleasant,NA,NA,NA,NA,NA,left,1414.80000001192,true,NA,NA,NA,NA,NA,NA,NA,NA
vfH0RsU2,3z8ujejod2q8a85trwhk37uqvoc39x,3ymu66obirl46axubphyo2dfmipghr,vfH0RsU2,2020-0188,2021-10-31,02:35:36,04:08:08,NA,incomplete,false,true,NA,NA,1,10,NA,blue,n_l_009.jpg,NA,NA,NA,NA,NA,pleasant,unpleasant,NA,NA,NA,NA,NA,right,1955.20000001788,true,NA,NA,NA,NA,NA,NA,NA,NA
vfH0RsU2,3z8ujejod2q8a85trwhk37uqvoc39x,3ymu66obirl46axubphyo2dfmipghr,vfH0RsU2,2020-0188,2021-10-31,02:35:36,04:08:08,NA,incomplete,false,true,NA,NA,1,11,NA,blue,m_s_094.jpg,NA,NA,NA,NA,NA,pleasant,unpleasant,NA,NA,NA,NA,NA,left,1827.5,true,NA,NA,NA,NA,NA,NA,NA,NA
vfH0RsU2,3z8ujejod2q8a85trwhk37uqvoc39x,3ymu66obirl46axubphyo2dfmipghr,vfH0RsU2,2020-0188,2021-10-31,02:35:36,04:08:08,NA,incomplete,false,true,NA,NA,1,12,NA,yellow,n_l_007.jpg,NA,NA,NA,NA,NA,pleasant,unpleasant,NA,NA,NA,NA,NA,none,0,false,NA,NA,NA,NA,NA,NA,NA,NA
vfH0RsU2,3z8ujejod2q8a85trwhk37uqvoc39x,3ymu66obirl46axubphyo2dfmipghr,vfH0RsU2,2020-0188,2021-10-31,02:35:36,04:08:08,NA,incomplete,false,true,NA,NA,1,13,NA,yellow,m_l_035.jpg,NA,NA,NA,NA,NA,unpleasant,pleasant,NA,NA,NA,NA,NA,right,1854.29999998212,true,NA,NA,NA,NA,NA,NA,NA,NA
vfH0RsU2,3z8ujejod2q8a85trwhk37uqvoc39x,3ymu66obirl46axubphyo2dfmipghr,vfH0RsU2,2020-0188,2021-10-31,02:35:36,04:08:08,NA,incomplete,false,true,NA,NA,1,14,NA,yellow,n_l_110.jpg,NA,NA,NA,NA,NA,unpleasant,pleasant,NA,NA,NA,NA,NA,left,1394.90000000596,true,NA,NA,NA,NA,NA,NA,NA,NA
vfH0RsU2,3z8ujejod2q8a85trwhk37uqvoc39x,3ymu66obirl46axubphyo2dfmipghr,vfH0RsU2,2020-0188,2021-10-31,02:35:36,04:08:08,NA,incomplete,false,true,NA,NA,1,15,NA,yellow,n_l_104.jpg,NA,NA,NA,NA,NA,pleasant,unpleasant,NA,NA,NA,NA,NA,left,1442.59999999404,true,NA,NA,NA,NA,NA,NA,NA,NA
vfH0RsU2,3z8ujejod2q8a85trwhk37uqvoc39x,3ymu66obirl46axubphyo2dfmipghr,vfH0RsU2,2020-0188,2021-10-31,02:35:36,04:08:08,NA,incomplete,false,true,NA,NA,1,16,NA,yellow,n_s_033.jpg,NA,NA,NA,NA,NA,unpleasant,pleasant,NA,NA,NA,NA,NA,left,1861.90000000596,true,NA,NA,NA,NA,NA,NA,NA,NA
vfH0RsU2,3z8ujejod2q8a85trwhk37uqvoc39x,3ymu66obirl46axubphyo2dfmipghr,vfH0RsU2,2020-0188,2021-10-31,02:35:36,04:08:08,NA,incomplete,false,true,NA,NA,1,17,NA,yellow,m_s_063.jpg,NA,NA,NA,NA,NA,unpleasant,pleasant,NA,NA,NA,NA,NA,right,1832.59999999404,true,NA,NA,NA,NA,NA,NA,NA,NA
vfH0RsU2,3z8ujejod2q8a85trwhk37uqvoc39x,3ymu66obirl46axubphyo2dfmipghr,vfH0RsU2,2020-0188,2021-10-31,02:35:36,04:08:08,NA,incomplete,false,true,NA,NA,1,18,NA,gray,n_s_099.jpg,NA,NA,NA,NA,NA,unpleasant,pleasant,NA,NA,NA,NA,NA,right,2567.90000000596,true,NA,NA,NA,NA,NA,NA,NA,NA
vfH0RsU2,3z8ujejod2q8a85trwhk37uqvoc39x,3ymu66obirl46axubphyo2dfmipghr,vfH0RsU2,2020-0188,2021-10-31,02:35:36,04:08:08,NA,incomplete,false,true,NA,NA,1,19,NA,gray,m_l_117.jpg,NA,NA,NA,NA,NA,pleasant,unpleasant,NA,NA,NA,NA,NA,right,1892.90000000596,true,NA,NA,NA,NA,NA,NA,NA,NA
vfH0RsU2,3z8ujejod2q8a85trwhk37uqvoc39x,3ymu66obirl46axubphyo2dfmipghr,vfH0RsU2,2020-0188,2021-10-31,02:35:36,04:08:08,NA,incomplete,false,true,NA,NA,1,20,NA,gray,n_s_071.jpg,NA,NA,NA,NA,NA,unpleasant,pleasant,NA,NA,NA,NA,NA,left,1632.70000001788,true,NA,NA,NA,NA,NA,NA,NA,NA
vfH0RsU2,3z8ujejod2q8a85trwhk37uqvoc39x,3ymu66obirl46axubphyo2dfmipghr,vfH0RsU2,2020-0188,2021-10-31,02:35:36,04:08:08,NA,incomplete,false,true,NA,NA,1,21,NA,gray,m_l_007.jpg,NA,NA,NA,NA,NA,unpleasant,pleasant,NA,NA,NA,NA,NA,left,2332.19999998808,true,NA,NA,NA,NA,NA,NA,NA,NA
vfH0RsU2,3z8ujejod2q8a85trwhk37uqvoc39x,3ymu66obirl46axubphyo2dfmipghr,vfH0RsU2,2020-0188,2021-10-31,02:35:36,04:08:08,NA,incomplete,false,true,NA,NA,1,22,NA,gray,n_s_056.jpg,NA,NA,NA,NA,NA,pleasant,unpleasant,NA,NA,NA,NA,NA,right,1366.09999999404,true,NA,NA,NA,NA,NA,NA,NA,NA
vfH0RsU2,3z8ujejod2q8a85trwhk37uqvoc39x,3ymu66obirl46axubphyo2dfmipghr,vfH0RsU2,2020-0188,2021-10-31,02:35:36,04:08:08,NA,incomplete,false,true,NA,NA,1,23,NA,gray,m_l_085.jpg,NA,NA,NA,NA,NA,pleasant,unpleasant,NA,NA,NA,NA,NA,left,2027.69999998808,true,NA,NA,NA,NA,NA,NA,NA,NA
vfH0RsU2,3z8ujejod2q8a85trwhk37uqvoc39x,3ymu66obirl46axubphyo2dfmipghr,vfH0RsU2,2020-0188,2021-10-31,02:35:36,04:08:08,NA,incomplete,false,true,NA,NA,1,24,NA,orange,m_s_013.jpg,NA,NA,NA,NA,NA,pleasant,unpleasant,NA,NA,NA,NA,NA,left,1573.69999998808,true,NA,NA,NA,NA,NA,NA,NA,NA
vfH0RsU2,3z8ujejod2q8a85trwhk37uqvoc39x,3ymu66obirl46axubphyo2dfmipghr,vfH0RsU2,2020-0188,2021-10-31,02:35:36,04:08:08,NA,incomplete,false,true,NA,NA,1,25,NA,orange,n_l_006.jpg,NA,NA,NA,NA,NA,pleasant,unpleasant,NA,NA,NA,NA,NA,right,1317.80000001192,true,NA,NA,NA,NA,NA,NA,NA,NA
vfH0RsU2,3z8ujejod2q8a85trwhk37uqvoc39x,3ymu66obirl46axubphyo2dfmipghr,vfH0RsU2,2020-0188,2021-10-31,02:35:36,04:08:08,NA,incomplete,false,true,NA,NA,1,26,NA,orange,m_l_040.jpg,NA,NA,NA,NA,NA,pleasant,unpleasant,NA,NA,NA,NA,NA,left,1350,true,NA,NA,NA,NA,NA,NA,NA,NA
vfH0RsU2,3z8ujejod2q8a85trwhk37uqvoc39x,3ymu66obirl46axubphyo2dfmipghr,vfH0RsU2,2020-0188,2021-10-31,02:35:36,04:08:08,NA,incomplete,false,true,NA,NA,1,27,NA,orange,n_l_068.jpg,NA,NA,NA,NA,NA,pleasant,unpleasant,NA,NA,NA,NA,NA,right,1495.19999998808,true,NA,NA,NA,NA,NA,NA,NA,NA
vfH0RsU2,3z8ujejod2q8a85trwhk37uqvoc39x,3ymu66obirl46axubphyo2dfmipghr,vfH0RsU2,2020-0188,2021-10-31,02:35:36,04:08:08,NA,incomplete,false,true,NA,NA,1,28,NA,orange,n_l_111.jpg,NA,NA,NA,NA,NA,unpleasant,pleasant,NA,NA,NA,NA,NA,left,1350.90000000596,true,NA,NA,NA,NA,NA,NA,NA,NA
vfH0RsU2,3z8ujejod2q8a85trwhk37uqvoc39x,3ymu66obirl46axubphyo2dfmipghr,vfH0RsU2,2020-0188,2021-10-31,02:35:36,04:08:08,NA,incomplete,false,true,NA,NA,1,29,NA,orange,n_l_117.jpg,NA,NA,NA,NA,NA,unpleasant,pleasant,NA,NA,NA,NA,NA,left,1575,true,NA,NA,NA,NA,NA,NA,NA,NA
vfH0RsU2,3z8ujejod2q8a85trwhk37uqvoc39x,3ymu66obirl46axubphyo2dfmipghr,vfH0RsU2,2020-0188,2021-10-31,02:35:36,04:08:08,NA,incomplete,false,true,NA,NA,1,30,NA,black,m_l_088.jpg,NA,NA,NA,NA,NA,pleasant,unpleasant,NA,NA,NA,NA,NA,left,2242.5,true,NA,NA,NA,NA,NA,NA,NA,NA
vfH0RsU2,3z8ujejod2q8a85trwhk37uqvoc39x,3ymu66obirl46axubphyo2dfmipghr,vfH0RsU2,2020-0188,2021-10-31,02:35:36,04:08:08,NA,incomplete,false,true,NA,NA,1,31,NA,black,m_l_015.jpg,NA,NA,NA,NA,NA,unpleasant,pleasant,NA,NA,NA,NA,NA,right,1645,true,NA,NA,NA,NA,NA,NA,NA,NA
vfH0RsU2,3z8ujejod2q8a85trwhk37uqvoc39x,3ymu66obirl46axubphyo2dfmipghr,vfH0RsU2,2020-0188,2021-10-31,02:35:36,04:08:08,NA,incomplete,false,true,NA,NA,1,32,NA,black,n_s_020.jpg,NA,NA,NA,NA,NA,unpleasant,pleasant,NA,NA,NA,NA,NA,left,1744.40000000596,true,NA,NA,NA,NA,NA,NA,NA,NA
vfH0RsU2,3z8ujejod2q8a85trwhk37uqvoc39x,3ymu66obirl46axubphyo2dfmipghr,vfH0RsU2,2020-0188,2021-10-31,02:35:36,04:08:08,NA,incomplete,false,true,NA,NA,1,33,NA,black,n_s_091.jpg,NA,NA,NA,NA,NA,pleasant,unpleasant,NA,NA,NA,NA,NA,right,1389.39999997616,true,NA,NA,NA,NA,NA,NA,NA,NA
vfH0RsU2,3z8ujejod2q8a85trwhk37uqvoc39x,3ymu66obirl46axubphyo2dfmipghr,vfH0RsU2,2020-0188,2021-10-31,02:35:36,04:08:08,NA,incomplete,false,true,NA,NA,1,34,NA,black,m_l_090.jpg,NA,NA,NA,NA,NA,pleasant,unpleasant,NA,NA,NA,NA,NA,left,1829.19999998808,true,NA,NA,NA,NA,NA,NA,NA,NA
vfH0RsU2,3z8ujejod2q8a85trwhk37uqvoc39x,3ymu66obirl46axubphyo2dfmipghr,vfH0RsU2,2020-0188,2021-10-31,02:35:36,04:08:08,NA,incomplete,false,true,NA,NA,1,35,NA,black,m_l_027.jpg,NA,NA,NA,NA,NA,unpleasant,pleasant,NA,NA,NA,NA,NA,right,2244.69999998808,true,NA,NA,NA,NA,NA,NA,NA,NA
vfH0RsU2,3z8ujejod2q8a85trwhk37uqvoc39x,3ymu66obirl46axubphyo2dfmipghr,vfH0RsU2,2020-0188,2021-10-31,02:35:36,04:08:08,NA,incomplete,false,NA,NA,true,1,0,NA,NA,NA,left,m_l_035.jpg,yellow,gray,NA,NA,NA,NA,NA,NA,NA,NA,NA,NaN,NA,2808.300000011921,left,1,NA,NA,NA,NA,NA
vfH0RsU2,3z8ujejod2q8a85trwhk37uqvoc39x,3ymu66obirl46axubphyo2dfmipghr,vfH0RsU2,2020-0188,2021-10-31,02:35:36,04:08:08,NA,incomplete,false,NA,NA,true,1,1,NA,NA,NA,left,m_l_117.jpg,gray,orange,NA,NA,NA,NA,NA,NA,NA,NA,NA,NaN,NA,2485.800000011921,left,1,NA,NA,NA,NA,NA
vfH0RsU2,3z8ujejod2q8a85trwhk37uqvoc39x,3ymu66obirl46axubphyo2dfmipghr,vfH0RsU2,2020-0188,2021-10-31,02:35:36,04:08:08,NA,incomplete,false,NA,NA,true,1,2,NA,NA,NA,right,n_s_020.jpg,orange,black,NA,NA,NA,NA,NA,NA,NA,NA,NA,NaN,NA,2466.5,right,1,NA,NA,NA,NA,NA
vfH0RsU2,3z8ujejod2q8a85trwhk37uqvoc39x,3ymu66obirl46axubphyo2dfmipghr,vfH0RsU2,2020-0188,2021-10-31,02:35:36,04:08:08,NA,incomplete,false,NA,NA,true,1,3,NA,NA,NA,left,m_s_094.jpg,blue,yellow,NA,NA,NA,NA,NA,NA,NA,NA,NA,NaN,NA,2601.4000000059605,left,1,NA,NA,NA,NA,NA
vfH0RsU2,3z8ujejod2q8a85trwhk37uqvoc39x,3ymu66obirl46axubphyo2dfmipghr,vfH0RsU2,2020-0188,2021-10-31,02:35:36,04:08:08,NA,incomplete,false,NA,NA,true,1,4,NA,NA,NA,left,m_l_085.jpg,gray,orange,NA,NA,NA,NA,NA,NA,NA,NA,NA,NaN,NA,2833.5999999940395,left,1,NA,NA,NA,NA,NA
vfH0RsU2,3z8ujejod2q8a85trwhk37uqvoc39x,3ymu66obirl46axubphyo2dfmipghr,vfH0RsU2,2020-0188,2021-10-31,02:35:36,04:08:08,NA,incomplete,false,NA,NA,true,1,5,NA,NA,NA,left,n_s_071.jpg,gray,yellow,NA,NA,NA,NA,NA,NA,NA,NA,NA,NaN,NA,4165.200000017881,left,1,NA,NA,NA,NA,NA
vfH0RsU2,3z8ujejod2q8a85trwhk37uqvoc39x,3ymu66obirl46axubphyo2dfmipghr,vfH0RsU2,2020-0188,2021-10-31,02:35:36,04:08:08,NA,incomplete,false,NA,NA,true,1,6,NA,NA,NA,left,n_l_012.jpg,purple,blue,NA,NA,NA,NA,NA,NA,NA,NA,NA,NaN,NA,2710.7000000178814,left,1,NA,NA,NA,NA,NA
vfH0RsU2,3z8ujejod2q8a85trwhk37uqvoc39x,3ymu66obirl46axubphyo2dfmipghr,vfH0RsU2,2020-0188,2021-10-31,02:35:36,04:08:08,NA,incomplete,false,NA,NA,true,1,7,NA,NA,NA,left,m_l_015.jpg,black,orange,NA,NA,NA,NA,NA,NA,NA,NA,NA,NaN,NA,2240.199999988079,left,1,NA,NA,NA,NA,NA
vfH0RsU2,3z8ujejod2q8a85trwhk37uqvoc39x,3ymu66obirl46axubphyo2dfmipghr,vfH0RsU2,2020-0188,2021-10-31,02:35:36,04:08:08,NA,incomplete,false,NA,NA,true,1,8,NA,NA,NA,left,m_l_027.jpg,black,orange,NA,NA,NA,NA,NA,NA,NA,NA,NA,NaN,NA,2452,left,1,NA,NA,NA,NA,NA
vfH0RsU2,3z8ujejod2q8a85trwhk37uqvoc39x,3ymu66obirl46axubphyo2dfmipghr,vfH0RsU2,2020-0188,2021-10-31,02:35:36,04:08:08,NA,incomplete,false,NA,NA,true,1,9,NA,NA,NA,left,n_l_046.jpg,purple,blue,NA,NA,NA,NA,NA,NA,NA,NA,NA,NaN,NA,3149.9000000059605,left,1,NA,NA,NA,NA,NA
vfH0RsU2,3z8ujejod2q8a85trwhk37uqvoc39x,3ymu66obirl46axubphyo2dfmipghr,vfH0RsU2,2020-0188,2021-10-31,02:35:36,04:08:08,NA,incomplete,false,NA,NA,true,1,10,NA,NA,NA,right,n_s_056.jpg,yellow,gray,NA,NA,NA,NA,NA,NA,NA,NA,NA,NaN,NA,2423.5999999940395,left,0,NA,NA,NA,NA,NA
vfH0RsU2,3z8ujejod2q8a85trwhk37uqvoc39x,3ymu66obirl46axubphyo2dfmipghr,vfH0RsU2,2020-0188,2021-10-31,02:35:36,04:08:08,NA,incomplete,false,NA,NA,true,1,11,NA,NA,NA,right,n_l_117.jpg,gray,orange,NA,NA,NA,NA,NA,NA,NA,NA,NA,NaN,NA,4152.9000000059605,right,1,NA,NA,NA,NA,NA
vfH0RsU2,3z8ujejod2q8a85trwhk37uqvoc39x,3ymu66obirl46axubphyo2dfmipghr,vfH0RsU2,2020-0188,2021-10-31,02:35:36,04:08:08,NA,incomplete,false,NA,NA,true,1,12,NA,NA,NA,left,m_s_071.jpg,purple,blue,NA,NA,NA,NA,NA,NA,NA,NA,NA,NaN,NA,2774.300000011921,left,1,NA,NA,NA,NA,NA
vfH0RsU2,3z8ujejod2q8a85trwhk37uqvoc39x,3ymu66obirl46axubphyo2dfmipghr,vfH0RsU2,2020-0188,2021-10-31,02:35:36,04:08:08,NA,incomplete,false,NA,NA,true,1,13,NA,NA,NA,left,m_l_083.jpg,blue,purple,NA,NA,NA,NA,NA,NA,NA,NA,NA,NaN,NA,2786.2000000178814,right,0,NA,NA,NA,NA,NA
vfH0RsU2,3z8ujejod2q8a85trwhk37uqvoc39x,3ymu66obirl46axubphyo2dfmipghr,vfH0RsU2,2020-0188,2021-10-31,02:35:36,04:08:08,NA,incomplete,false,NA,NA,true,1,14,NA,NA,NA,left,m_s_063.jpg,yellow,blue,NA,NA,NA,NA,NA,NA,NA,NA,NA,NaN,NA,2512.699999988079,left,1,NA,NA,NA,NA,NA
vfH0RsU2,3z8ujejod2q8a85trwhk37uqvoc39x,3ymu66obirl46axubphyo2dfmipghr,vfH0RsU2,2020-0188,2021-10-31,02:35:36,04:08:08,NA,incomplete,false,NA,NA,true,1,15,NA,NA,NA,left,n_l_006.jpg,orange,black,NA,NA,NA,NA,NA,NA,NA,NA,NA,NaN,NA,2410.0999999940395,left,1,NA,NA,NA,NA,NA
vfH0RsU2,3z8ujejod2q8a85trwhk37uqvoc39x,3ymu66obirl46axubphyo2dfmipghr,vfH0RsU2,2020-0188,2021-10-31,02:35:36,04:08:08,NA,incomplete,false,NA,NA,true,1,16,NA,NA,NA,right,n_l_111.jpg,black,orange,NA,NA,NA,NA,NA,NA,NA,NA,NA,NaN,NA,4548.199999988079,right,1,NA,NA,NA,NA,NA
vfH0RsU2,3z8ujejod2q8a85trwhk37uqvoc39x,3ymu66obirl46axubphyo2dfmipghr,vfH0RsU2,2020-0188,2021-10-31,02:35:36,04:08:08,NA,incomplete,false,NA,NA,true,1,17,NA,NA,NA,left,n_l_110.jpg,yellow,gray,NA,NA,NA,NA,NA,NA,NA,NA,NA,NaN,NA,2233.800000011921,left,1,NA,NA,NA,NA,NA
vfH0RsU2,3z8ujejod2q8a85trwhk37uqvoc39x,3ymu66obirl46axubphyo2dfmipghr,vfH0RsU2,2020-0188,2021-10-31,02:35:36,04:08:08,NA,incomplete,false,NA,NA,true,1,18,NA,NA,NA,left,m_l_040.jpg,orange,gray,NA,NA,NA,NA,NA,NA,NA,NA,NA,NaN,NA,2767.4000000059605,left,1,NA,NA,NA,NA,NA
vfH0RsU2,3z8ujejod2q8a85trwhk37uqvoc39x,3ymu66obirl46axubphyo2dfmipghr,vfH0RsU2,2020-0188,2021-10-31,02:35:36,04:08:08,NA,incomplete,false,NA,NA,true,1,19,NA,NA,NA,left,n_s_033.jpg,yellow,gray,NA,NA,NA,NA,NA,NA,NA,NA,NA,NaN,NA,2505.2000000178814,left,1,NA,NA,NA,NA,NA
vfH0RsU2,3z8ujejod2q8a85trwhk37uqvoc39x,3ymu66obirl46axubphyo2dfmipghr,vfH0RsU2,2020-0188,2021-10-31,02:35:36,04:08:08,NA,incomplete,false,NA,NA,true,1,20,NA,NA,NA,right,n_l_009.jpg,purple,blue,NA,NA,NA,NA,NA,NA,NA,NA,NA,NaN,NA,3312.5,left,0,NA,NA,NA,NA,NA
vfH0RsU2,3z8ujejod2q8a85trwhk37uqvoc39x,3ymu66obirl46axubphyo2dfmipghr,vfH0RsU2,2020-0188,2021-10-31,02:35:36,04:08:08,NA,incomplete,false,NA,NA,true,1,21,NA,NA,NA,right,m_l_009.jpg,purple,blue,NA,NA,NA,NA,NA,NA,NA,NA,NA,NaN,NA,3156.7999999821186,right,1,NA,NA,NA,NA,NA
vfH0RsU2,3z8ujejod2q8a85trwhk37uqvoc39x,3ymu66obirl46axubphyo2dfmipghr,vfH0RsU2,2020-0188,2021-10-31,02:35:36,04:08:08,NA,incomplete,false,NA,true,NA,1,0,NA,NA,NA,right,NA,NA,NA,present,NA,NA,n_l_117.jpg,orange,n_l_006.jpg,orange,within,NA,NaN,NA,NA,NA,NA,right,6191.9000000059605,1,0,2728.699999988079
vfH0RsU2,3z8ujejod2q8a85trwhk37uqvoc39x,3ymu66obirl46axubphyo2dfmipghr,vfH0RsU2,2020-0188,2021-10-31,02:35:36,04:08:08,NA,incomplete,false,NA,true,NA,1,1,NA,NA,NA,right,NA,NA,NA,present,NA,NA,m_l_027.jpg,black,m_l_015.jpg,black,within,NA,NaN,NA,NA,NA,NA,right,5782.5,1,1,3319
vfH0RsU2,3z8ujejod2q8a85trwhk37uqvoc39x,3ymu66obirl46axubphyo2dfmipghr,vfH0RsU2,2020-0188,2021-10-31,02:35:36,04:08:08,NA,incomplete,false,NA,true,NA,1,2,NA,NA,NA,left,NA,NA,NA,present,NA,NA,n_l_012.jpg,purple,m_l_083.jpg,blue,between,NA,NaN,NA,NA,NA,NA,left,3221.199999988079,1,2,2272.5
vfH0RsU2,3z8ujejod2q8a85trwhk37uqvoc39x,3ymu66obirl46axubphyo2dfmipghr,vfH0RsU2,2020-0188,2021-10-31,02:35:36,04:08:08,NA,incomplete,false,NA,true,NA,1,3,NA,NA,NA,left,NA,NA,NA,present,NA,NA,m_l_009.jpg,blue,m_s_094.jpg,blue,within,NA,NaN,NA,NA,NA,NA,left,5163.4000000059605,1,1,2773.699999988079
vfH0RsU2,3z8ujejod2q8a85trwhk37uqvoc39x,3ymu66obirl46axubphyo2dfmipghr,vfH0RsU2,2020-0188,2021-10-31,02:35:36,04:08:08,NA,incomplete,false,NA,true,NA,1,4,NA,NA,NA,right,NA,NA,NA,present,NA,NA,n_s_071.jpg,gray,n_s_033.jpg,yellow,between,NA,NaN,NA,NA,NA,NA,right,4262.5,1,2,1796.300000011921
vfH0RsU2,3z8ujejod2q8a85trwhk37uqvoc39x,3ymu66obirl46axubphyo2dfmipghr,vfH0RsU2,2020-0188,2021-10-31,02:35:36,04:08:08,NA,incomplete,false,NA,true,NA,1,5,NA,NA,NA,left,NA,NA,NA,present,NA,NA,n_s_056.jpg,gray,m_l_040.jpg,orange,between,NA,NaN,NA,NA,NA,NA,right,3161.600000023842,0,3,2213.199999988079
vfH0RsU2,3z8ujejod2q8a85trwhk37uqvoc39x,3ymu66obirl46axubphyo2dfmipghr,vfH0RsU2,2020-0188,2021-10-31,02:35:36,04:08:08,NA,incomplete,false,NA,true,NA,1,6,NA,NA,NA,left,NA,NA,NA,present,NA,NA,n_l_009.jpg,blue,n_l_110.jpg,yellow,between,NA,NaN,NA,NA,NA,NA,right,3584.0999999940395,0,2,1932.5
vfH0RsU2,3z8ujejod2q8a85trwhk37uqvoc39x,3ymu66obirl46axubphyo2dfmipghr,vfH0RsU2,2020-0188,2021-10-31,02:35:36,04:08:08,NA,incomplete,false,NA,true,NA,1,7,NA,NA,NA,left,NA,NA,NA,present,NA,NA,m_l_117.jpg,gray,m_l_085.jpg,gray,within,NA,NaN,NA,NA,NA,NA,left,5335.5999999940395,1,0,3941.9000000059605
vfH0RsU2,3z8ujejod2q8a85trwhk37uqvoc39x,3ymu66obirl46axubphyo2dfmipghr,vfH0RsU2,2020-0188,2021-10-31,02:35:36,04:08:08,NA,incomplete,false,NA,true,NA,1,8,NA,NA,NA,right,NA,NA,NA,present,NA,NA,n_l_046.jpg,purple,m_s_071.jpg,purple,within,NA,NaN,NA,NA,NA,NA,right,4671.600000023842,1,0,1829.5
vfH0RsU2,3z8ujejod2q8a85trwhk37uqvoc39x,3ymu66obirl46axubphyo2dfmipghr,vfH0RsU2,2020-0188,2021-10-31,02:35:36,04:08:08,NA,incomplete,false,NA,true,NA,1,9,NA,NA,NA,left,NA,NA,NA,present,NA,NA,n_l_111.jpg,orange,n_s_020.jpg,black,between,NA,NaN,NA,NA,NA,NA,left,4378.700000017881,1,3,1378.9000000059605
vfH0RsU2,3z8ujejod2q8a85trwhk37uqvoc39x,3ymu66obirl46axubphyo2dfmipghr,vfH0RsU2,2020-0188,2021-10-31,02:35:36,04:08:08,NA,incomplete,false,NA,true,NA,1,10,NA,NA,NA,left,NA,NA,NA,present,NA,NA,m_l_035.jpg,yellow,m_s_063.jpg,yellow,within,NA,NaN,NA,NA,NA,NA,left,4748.700000017881,1,0,2418.4000000059605
vfH0RsU2,3z8ujejod2q8a85trwhk37uqvoc39x,3ymu66obirl46axubphyo2dfmipghr,vfH0RsU2,2020-0188,2021-10-31,02:35:36,04:08:08,NA,incomplete,false,true,NA,NA,2,0,NA,green,n_l_069.jpg,NA,NA,NA,NA,NA,pleasant,unpleasant,NA,NA,NA,NA,NA,right,2815.40000000596,true,NA,NA,NA,NA,NA,NA,NA,NA
vfH0RsU2,3z8ujejod2q8a85trwhk37uqvoc39x,3ymu66obirl46axubphyo2dfmipghr,vfH0RsU2,2020-0188,2021-10-31,02:35:36,04:08:08,NA,incomplete,false,true,NA,NA,2,1,NA,green,n_s_026.jpg,NA,NA,NA,NA,NA,pleasant,unpleasant,NA,NA,NA,NA,NA,left,1906.80000001192,true,NA,NA,NA,NA,NA,NA,NA,NA
vfH0RsU2,3z8ujejod2q8a85trwhk37uqvoc39x,3ymu66obirl46axubphyo2dfmipghr,vfH0RsU2,2020-0188,2021-10-31,02:35:36,04:08:08,NA,incomplete,false,true,NA,NA,2,2,NA,green,m_s_025.jpg,NA,NA,NA,NA,NA,pleasant,unpleasant,NA,NA,NA,NA,NA,right,1267.80000001192,true,NA,NA,NA,NA,NA,NA,NA,NA
vfH0RsU2,3z8ujejod2q8a85trwhk37uqvoc39x,3ymu66obirl46axubphyo2dfmipghr,vfH0RsU2,2020-0188,2021-10-31,02:35:36,04:08:08,NA,incomplete,false,true,NA,NA,2,3,NA,green,n_s_053.jpg,NA,NA,NA,NA,NA,pleasant,unpleasant,NA,NA,NA,NA,NA,right,1661,true,NA,NA,NA,NA,NA,NA,NA,NA
vfH0RsU2,3z8ujejod2q8a85trwhk37uqvoc39x,3ymu66obirl46axubphyo2dfmipghr,vfH0RsU2,2020-0188,2021-10-31,02:35:36,04:08:08,NA,incomplete,false,true,NA,NA,2,4,NA,green,m_s_017.jpg,NA,NA,NA,NA,NA,pleasant,unpleasant,NA,NA,NA,NA,NA,left,1775.09999999404,true,NA,NA,NA,NA,NA,NA,NA,NA
vfH0RsU2,3z8ujejod2q8a85trwhk37uqvoc39x,3ymu66obirl46axubphyo2dfmipghr,vfH0RsU2,2020-0188,2021-10-31,02:35:36,04:08:08,NA,incomplete,false,true,NA,NA,2,5,NA,green,n_s_015.jpg,NA,NA,NA,NA,NA,pleasant,unpleasant,NA,NA,NA,NA,NA,right,1787.30000001192,true,NA,NA,NA,NA,NA,NA,NA,NA
vfH0RsU2,3z8ujejod2q8a85trwhk37uqvoc39x,3ymu66obirl46axubphyo2dfmipghr,vfH0RsU2,2020-0188,2021-10-31,02:35:36,04:08:08,NA,incomplete,false,true,NA,NA,2,6,NA,orange,n_l_065.jpg,NA,NA,NA,NA,NA,unpleasant,pleasant,NA,NA,NA,NA,NA,right,1180,true,NA,NA,NA,NA,NA,NA,NA,NA
vfH0RsU2,3z8ujejod2q8a85trwhk37uqvoc39x,3ymu66obirl46axubphyo2dfmipghr,vfH0RsU2,2020-0188,2021-10-31,02:35:36,04:08:08,NA,incomplete,false,true,NA,NA,2,7,NA,orange,m_l_099.jpg,NA,NA,NA,NA,NA,unpleasant,pleasant,NA,NA,NA,NA,NA,none,0,false,NA,NA,NA,NA,NA,NA,NA,NA
vfH0RsU2,3z8ujejod2q8a85trwhk37uqvoc39x,3ymu66obirl46axubphyo2dfmipghr,vfH0RsU2,2020-0188,2021-10-31,02:35:36,04:08:08,NA,incomplete,false,true,NA,NA,2,8,NA,orange,m_l_010.jpg,NA,NA,NA,NA,NA,pleasant,unpleasant,NA,NA,NA,NA,NA,right,2643.40000000596,true,NA,NA,NA,NA,NA,NA,NA,NA
vfH0RsU2,3z8ujejod2q8a85trwhk37uqvoc39x,3ymu66obirl46axubphyo2dfmipghr,vfH0RsU2,2020-0188,2021-10-31,02:35:36,04:08:08,NA,incomplete,false,true,NA,NA,2,9,NA,orange,n_l_060.jpg,NA,NA,NA,NA,NA,unpleasant,pleasant,NA,NA,NA,NA,NA,none,0,false,NA,NA,NA,NA,NA,NA,NA,NA
vfH0RsU2,3z8ujejod2q8a85trwhk37uqvoc39x,3ymu66obirl46axubphyo2dfmipghr,vfH0RsU2,2020-0188,2021-10-31,02:35:36,04:08:08,NA,incomplete,false,true,NA,NA,2,10,NA,orange,m_s_040.jpg,NA,NA,NA,NA,NA,pleasant,unpleasant,NA,NA,NA,NA,NA,none,0,false,NA,NA,NA,NA,NA,NA,NA,NA
vfH0RsU2,3z8ujejod2q8a85trwhk37uqvoc39x,3ymu66obirl46axubphyo2dfmipghr,vfH0RsU2,2020-0188,2021-10-31,02:35:36,04:08:08,NA,incomplete,false,true,NA,NA,2,11,NA,orange,n_s_010.jpg,NA,NA,NA,NA,NA,unpleasant,pleasant,NA,NA,NA,NA,NA,none,0,false,NA,NA,NA,NA,NA,NA,NA,NA
vfH0RsU2,3z8ujejod2q8a85trwhk37uqvoc39x,3ymu66obirl46axubphyo2dfmipghr,vfH0RsU2,2020-0188,2021-10-31,02:35:36,04:08:08,NA,incomplete,false,true,NA,NA,2,12,NA,red,m_l_048.jpg,NA,NA,NA,NA,NA,pleasant,unpleasant,NA,NA,NA,NA,NA,none,0,false,NA,NA,NA,NA,NA,NA,NA,NA
vfH0RsU2,3z8ujejod2q8a85trwhk37uqvoc39x,3ymu66obirl46axubphyo2dfmipghr,vfH0RsU2,2020-0188,2021-10-31,02:35:36,04:08:08,NA,incomplete,false,true,NA,NA,2,13,NA,red,m_l_098.jpg,NA,NA,NA,NA,NA,pleasant,unpleasant,NA,NA,NA,NA,NA,right,1609,true,NA,NA,NA,NA,NA,NA,NA,NA
vfH0RsU2,3z8ujejod2q8a85trwhk37uqvoc39x,3ymu66obirl46axubphyo2dfmipghr,vfH0RsU2,2020-0188,2021-10-31,02:35:36,04:08:08,NA,incomplete,false,true,NA,NA,2,14,NA,red,n_s_101.jpg,NA,NA,NA,NA,NA,pleasant,unpleasant,NA,NA,NA,NA,NA,right,1742.70000001788,true,NA,NA,NA,NA,NA,NA,NA,NA
vfH0RsU2,3z8ujejod2q8a85trwhk37uqvoc39x,3ymu66obirl46axubphyo2dfmipghr,vfH0RsU2,2020-0188,2021-10-31,02:35:36,04:08:08,NA,incomplete,false,true,NA,NA,2,15,NA,red,m_l_056.jpg,NA,NA,NA,NA,NA,unpleasant,pleasant,NA,NA,NA,NA,NA,right,2149.09999999404,true,NA,NA,NA,NA,NA,NA,NA,NA
vfH0RsU2,3z8ujejod2q8a85trwhk37uqvoc39x,3ymu66obirl46axubphyo2dfmipghr,vfH0RsU2,2020-0188,2021-10-31,02:35:36,04:08:08,NA,incomplete,false,true,NA,NA,2,16,NA,red,n_l_063.jpg,NA,NA,NA,NA,NA,pleasant,unpleasant,NA,NA,NA,NA,NA,right,2106.79999998212,true,NA,NA,NA,NA,NA,NA,NA,NA
vfH0RsU2,3z8ujejod2q8a85trwhk37uqvoc39x,3ymu66obirl46axubphyo2dfmipghr,vfH0RsU2,2020-0188,2021-10-31,02:35:36,04:08:08,NA,incomplete,false,true,NA,NA,2,17,NA,red,n_s_042.jpg,NA,NA,NA,NA,NA,unpleasant,pleasant,NA,NA,NA,NA,NA,none,0,false,NA,NA,NA,NA,NA,NA,NA,NA
vfH0RsU2,3z8ujejod2q8a85trwhk37uqvoc39x,3ymu66obirl46axubphyo2dfmipghr,vfH0RsU2,2020-0188,2021-10-31,02:35:36,04:08:08,NA,incomplete,false,true,NA,NA,2,18,NA,gray,m_l_064.jpg,NA,NA,NA,NA,NA,unpleasant,pleasant,NA,NA,NA,NA,NA,right,1881.59999999404,true,NA,NA,NA,NA,NA,NA,NA,NA
vfH0RsU2,3z8ujejod2q8a85trwhk37uqvoc39x,3ymu66obirl46axubphyo2dfmipghr,vfH0RsU2,2020-0188,2021-10-31,02:35:36,04:08:08,NA,incomplete,false,true,NA,NA,2,19,NA,gray,m_l_091.jpg,NA,NA,NA,NA,NA,unpleasant,pleasant,NA,NA,NA,NA,NA,right,2047.30000001192,true,NA,NA,NA,NA,NA,NA,NA,NA
vfH0RsU2,3z8ujejod2q8a85trwhk37uqvoc39x,3ymu66obirl46axubphyo2dfmipghr,vfH0RsU2,2020-0188,2021-10-31,02:35:36,04:08:08,NA,incomplete,false,true,NA,NA,2,20,NA,gray,n_s_025.jpg,NA,NA,NA,NA,NA,pleasant,unpleasant,NA,NA,NA,NA,NA,right,1905.69999998808,true,NA,NA,NA,NA,NA,NA,NA,NA
vfH0RsU2,3z8ujejod2q8a85trwhk37uqvoc39x,3ymu66obirl46axubphyo2dfmipghr,vfH0RsU2,2020-0188,2021-10-31,02:35:36,04:08:08,NA,incomplete,false,true,NA,NA,2,21,NA,gray,n_l_098.jpg,NA,NA,NA,NA,NA,unpleasant,pleasant,NA,NA,NA,NA,NA,none,0,false,NA,NA,NA,NA,NA,NA,NA,NA
vfH0RsU2,3z8ujejod2q8a85trwhk37uqvoc39x,3ymu66obirl46axubphyo2dfmipghr,vfH0RsU2,2020-0188,2021-10-31,02:35:36,04:08:08,NA,incomplete,false,true,NA,NA,2,22,NA,gray,n_s_041.jpg,NA,NA,NA,NA,NA,unpleasant,pleasant,NA,NA,NA,NA,NA,none,0,false,NA,NA,NA,NA,NA,NA,NA,NA
vfH0RsU2,3z8ujejod2q8a85trwhk37uqvoc39x,3ymu66obirl46axubphyo2dfmipghr,vfH0RsU2,2020-0188,2021-10-31,02:35:36,04:08:08,NA,incomplete,false,true,NA,NA,2,23,NA,gray,n_s_117.jpg,NA,NA,NA,NA,NA,pleasant,unpleasant,NA,NA,NA,NA,NA,right,2703.69999998808,true,NA,NA,NA,NA,NA,NA,NA,NA
vfH0RsU2,3z8ujejod2q8a85trwhk37uqvoc39x,3ymu66obirl46axubphyo2dfmipghr,vfH0RsU2,2020-0188,2021-10-31,02:35:36,04:08:08,NA,incomplete,false,true,NA,NA,2,24,NA,purple,m_l_112.jpg,NA,NA,NA,NA,NA,pleasant,unpleasant,NA,NA,NA,NA,NA,none,0,false,NA,NA,NA,NA,NA,NA,NA,NA
vfH0RsU2,3z8ujejod2q8a85trwhk37uqvoc39x,3ymu66obirl46axubphyo2dfmipghr,vfH0RsU2,2020-0188,2021-10-31,02:35:36,04:08:08,NA,incomplete,false,true,NA,NA,2,25,NA,purple,m_s_112.jpg,NA,NA,NA,NA,NA,unpleasant,pleasant,NA,NA,NA,NA,NA,right,2136.09999999404,true,NA,NA,NA,NA,NA,NA,NA,NA
vfH0RsU2,3z8ujejod2q8a85trwhk37uqvoc39x,3ymu66obirl46axubphyo2dfmipghr,vfH0RsU2,2020-0188,2021-10-31,02:35:36,04:08:08,NA,incomplete,false,true,NA,NA,2,26,NA,purple,n_s_035.jpg,NA,NA,NA,NA,NA,unpleasant,pleasant,NA,NA,NA,NA,NA,none,0,false,NA,NA,NA,NA,NA,NA,NA,NA
vfH0RsU2,3z8ujejod2q8a85trwhk37uqvoc39x,3ymu66obirl46axubphyo2dfmipghr,vfH0RsU2,2020-0188,2021-10-31,02:35:36,04:08:08,NA,incomplete,false,true,NA,NA,2,27,NA,purple,m_s_050.jpg,NA,NA,NA,NA,NA,pleasant,unpleasant,NA,NA,NA,NA,NA,none,0,false,NA,NA,NA,NA,NA,NA,NA,NA
vfH0RsU2,3z8ujejod2q8a85trwhk37uqvoc39x,3ymu66obirl46axubphyo2dfmipghr,vfH0RsU2,2020-0188,2021-10-31,02:35:36,04:08:08,NA,incomplete,false,true,NA,NA,2,28,NA,purple,m_l_034.jpg,NA,NA,NA,NA,NA,unpleasant,pleasant,NA,NA,NA,NA,NA,right,1437.19999998808,true,NA,NA,NA,NA,NA,NA,NA,NA
vfH0RsU2,3z8ujejod2q8a85trwhk37uqvoc39x,3ymu66obirl46axubphyo2dfmipghr,vfH0RsU2,2020-0188,2021-10-31,02:35:36,04:08:08,NA,incomplete,false,true,NA,NA,2,29,NA,purple,m_s_029.jpg,NA,NA,NA,NA,NA,unpleasant,pleasant,NA,NA,NA,NA,NA,right,2191,true,NA,NA,NA,NA,NA,NA,NA,NA
vfH0RsU2,3z8ujejod2q8a85trwhk37uqvoc39x,3ymu66obirl46axubphyo2dfmipghr,vfH0RsU2,2020-0188,2021-10-31,02:35:36,04:08:08,NA,incomplete,false,true,NA,NA,2,30,NA,blue,m_s_099.jpg,NA,NA,NA,NA,NA,unpleasant,pleasant,NA,NA,NA,NA,NA,right,2080.09999999404,true,NA,NA,NA,NA,NA,NA,NA,NA
vfH0RsU2,3z8ujejod2q8a85trwhk37uqvoc39x,3ymu66obirl46axubphyo2dfmipghr,vfH0RsU2,2020-0188,2021-10-31,02:35:36,04:08:08,NA,incomplete,false,true,NA,NA,2,31,NA,blue,m_l_106.jpg,NA,NA,NA,NA,NA,unpleasant,pleasant,NA,NA,NA,NA,NA,right,1350.59999999404,true,NA,NA,NA,NA,NA,NA,NA,NA
vfH0RsU2,3z8ujejod2q8a85trwhk37uqvoc39x,3ymu66obirl46axubphyo2dfmipghr,vfH0RsU2,2020-0188,2021-10-31,02:35:36,04:08:08,NA,incomplete,false,true,NA,NA,2,32,NA,blue,m_l_077.jpg,NA,NA,NA,NA,NA,pleasant,unpleasant,NA,NA,NA,NA,NA,none,0,false,NA,NA,NA,NA,NA,NA,NA,NA
vfH0RsU2,3z8ujejod2q8a85trwhk37uqvoc39x,3ymu66obirl46axubphyo2dfmipghr,vfH0RsU2,2020-0188,2021-10-31,02:35:36,04:08:08,NA,incomplete,false,true,NA,NA,2,33,NA,blue,n_s_090.jpg,NA,NA,NA,NA,NA,pleasant,unpleasant,NA,NA,NA,NA,NA,right,1538.5,true,NA,NA,NA,NA,NA,NA,NA,NA
vfH0RsU2,3z8ujejod2q8a85trwhk37uqvoc39x,3ymu66obirl46axubphyo2dfmipghr,vfH0RsU2,2020-0188,2021-10-31,02:35:36,04:08:08,NA,incomplete,false,true,NA,NA,2,34,NA,blue,n_s_005.jpg,NA,NA,NA,NA,NA,pleasant,unpleasant,NA,NA,NA,NA,NA,right,1263.30000001192,true,NA,NA,NA,NA,NA,NA,NA,NA
vfH0RsU2,3z8ujejod2q8a85trwhk37uqvoc39x,3ymu66obirl46axubphyo2dfmipghr,vfH0RsU2,2020-0188,2021-10-31,02:35:36,04:08:08,NA,incomplete,false,true,NA,NA,2,35,NA,blue,n_l_108.jpg,NA,NA,NA,NA,NA,unpleasant,pleasant,NA,NA,NA,NA,NA,none,0,false,NA,NA,NA,NA,NA,NA,NA,NA
vfH0RsU2,3z8ujejod2q8a85trwhk37uqvoc39x,3ymu66obirl46axubphyo2dfmipghr,vfH0RsU2,2020-0188,2021-10-31,02:35:36,04:08:08,NA,incomplete,false,NA,NA,true,2,0,NA,NA,NA,left,n_s_025.jpg,gray,red,NA,NA,NA,NA,NA,NA,NA,NA,NA,NaN,NA,10823.300000011921,left,1,NA,NA,NA,NA,NA
vfH0RsU2,3z8ujejod2q8a85trwhk37uqvoc39x,3ymu66obirl46axubphyo2dfmipghr,vfH0RsU2,2020-0188,2021-10-31,02:35:36,04:08:08,NA,incomplete,false,NA,NA,true,2,1,NA,NA,NA,left,m_s_040.jpg,orange,green,NA,NA,NA,NA,NA,NA,NA,NA,NA,NaN,NA,4201.199999988079,left,1,NA,NA,NA,NA,NA
vfH0RsU2,3z8ujejod2q8a85trwhk37uqvoc39x,3ymu66obirl46axubphyo2dfmipghr,vfH0RsU2,2020-0188,2021-10-31,02:35:36,04:08:08,NA,incomplete,false,NA,NA,true,2,2,NA,NA,NA,right,n_s_035.jpg,gray,purple,NA,NA,NA,NA,NA,NA,NA,NA,NA,NaN,NA,2798.9000000059605,right,1,NA,NA,NA,NA,NA
vfH0RsU2,3z8ujejod2q8a85trwhk37uqvoc39x,3ymu66obirl46axubphyo2dfmipghr,vfH0RsU2,2020-0188,2021-10-31,02:35:36,04:08:08,NA,incomplete,false,NA,NA,true,2,3,NA,NA,NA,left,n_l_108.jpg,blue,purple,NA,NA,NA,NA,NA,NA,NA,NA,NA,NaN,NA,2792.9000000059605,left,1,NA,NA,NA,NA,NA
vfH0RsU2,3z8ujejod2q8a85trwhk37uqvoc39x,3ymu66obirl46axubphyo2dfmipghr,vfH0RsU2,2020-0188,2021-10-31,02:35:36,04:08:08,NA,incomplete,false,NA,NA,true,2,4,NA,NA,NA,left,n_s_101.jpg,red,gray,NA,NA,NA,NA,NA,NA,NA,NA,NA,NaN,NA,3275.5,left,1,NA,NA,NA,NA,NA
vfH0RsU2,3z8ujejod2q8a85trwhk37uqvoc39x,3ymu66obirl46axubphyo2dfmipghr,vfH0RsU2,2020-0188,2021-10-31,02:35:36,04:08:08,NA,incomplete,false,NA,NA,true,2,5,NA,NA,NA,right,m_s_029.jpg,gray,purple,NA,NA,NA,NA,NA,NA,NA,NA,NA,NaN,NA,2806.5999999940395,right,1,NA,NA,NA,NA,NA
vfH0RsU2,3z8ujejod2q8a85trwhk37uqvoc39x,3ymu66obirl46axubphyo2dfmipghr,vfH0RsU2,2020-0188,2021-10-31,02:35:36,04:08:08,NA,incomplete,false,NA,NA,true,2,6,NA,NA,NA,right,m_l_010.jpg,red,orange,NA,NA,NA,NA,NA,NA,NA,NA,NA,NaN,NA,2074.9000000059605,right,1,NA,NA,NA,NA,NA
vfH0RsU2,3z8ujejod2q8a85trwhk37uqvoc39x,3ymu66obirl46axubphyo2dfmipghr,vfH0RsU2,2020-0188,2021-10-31,02:35:36,04:08:08,NA,incomplete,false,NA,NA,true,2,7,NA,NA,NA,left,m_l_099.jpg,orange,red,NA,NA,NA,NA,NA,NA,NA,NA,NA,NaN,NA,2746.2000000178814,left,1,NA,NA,NA,NA,NA
vfH0RsU2,3z8ujejod2q8a85trwhk37uqvoc39x,3ymu66obirl46axubphyo2dfmipghr,vfH0RsU2,2020-0188,2021-10-31,02:35:36,04:08:08,NA,incomplete,false,NA,NA,true,2,8,NA,NA,NA,right,n_s_026.jpg,orange,green,NA,NA,NA,NA,NA,NA,NA,NA,NA,NaN,NA,3278.7000000178814,right,1,NA,NA,NA,NA,NA
vfH0RsU2,3z8ujejod2q8a85trwhk37uqvoc39x,3ymu66obirl46axubphyo2dfmipghr,vfH0RsU2,2020-0188,2021-10-31,02:35:36,04:08:08,NA,incomplete,false,NA,NA,true,2,9,NA,NA,NA,right,m_s_017.jpg,orange,green,NA,NA,NA,NA,NA,NA,NA,NA,NA,NaN,NA,4632.5999999940395,right,1,NA,NA,NA,NA,NA
vfH0RsU2,3z8ujejod2q8a85trwhk37uqvoc39x,3ymu66obirl46axubphyo2dfmipghr,vfH0RsU2,2020-0188,2021-10-31,02:35:36,04:08:08,NA,incomplete,false,NA,NA,true,2,10,NA,NA,NA,left,m_l_091.jpg,gray,red,NA,NA,NA,NA,NA,NA,NA,NA,NA,NaN,NA,2663.5999999940395,left,1,NA,NA,NA,NA,NA
vfH0RsU2,3z8ujejod2q8a85trwhk37uqvoc39x,3ymu66obirl46axubphyo2dfmipghr,vfH0RsU2,2020-0188,2021-10-31,02:35:36,04:08:08,NA,incomplete,false,NA,NA,true,2,11,NA,NA,NA,left,n_s_041.jpg,gray,purple,NA,NA,NA,NA,NA,NA,NA,NA,NA,NaN,NA,5111.199999988079,left,1,NA,NA,NA,NA,NA
vfH0RsU2,3z8ujejod2q8a85trwhk37uqvoc39x,3ymu66obirl46axubphyo2dfmipghr,vfH0RsU2,2020-0188,2021-10-31,02:35:36,04:08:08,NA,incomplete,false,NA,NA,true,2,12,NA,NA,NA,left,m_l_106.jpg,blue,purple,NA,NA,NA,NA,NA,NA,NA,NA,NA,NaN,NA,2598,left,1,NA,NA,NA,NA,NA
vfH0RsU2,3z8ujejod2q8a85trwhk37uqvoc39x,3ymu66obirl46axubphyo2dfmipghr,vfH0RsU2,2020-0188,2021-10-31,02:35:36,04:08:08,NA,incomplete,false,NA,NA,true,2,13,NA,NA,NA,right,n_s_010.jpg,red,orange,NA,NA,NA,NA,NA,NA,NA,NA,NA,NaN,NA,2426,right,1,NA,NA,NA,NA,NA
vfH0RsU2,3z8ujejod2q8a85trwhk37uqvoc39x,3ymu66obirl46axubphyo2dfmipghr,vfH0RsU2,2020-0188,2021-10-31,02:35:36,04:08:08,NA,incomplete,false,NA,NA,true,2,14,NA,NA,NA,left,n_s_117.jpg,gray,red,NA,NA,NA,NA,NA,NA,NA,NA,NA,NaN,NA,3505.5,left,1,NA,NA,NA,NA,NA
vfH0RsU2,3z8ujejod2q8a85trwhk37uqvoc39x,3ymu66obirl46axubphyo2dfmipghr,vfH0RsU2,2020-0188,2021-10-31,02:35:36,04:08:08,NA,incomplete,false,NA,NA,true,2,15,NA,NA,NA,right,n_s_015.jpg,orange,green,NA,NA,NA,NA,NA,NA,NA,NA,NA,NaN,NA,5131.699999988079,right,1,NA,NA,NA,NA,NA
vfH0RsU2,3z8ujejod2q8a85trwhk37uqvoc39x,3ymu66obirl46axubphyo2dfmipghr,vfH0RsU2,2020-0188,2021-10-31,02:35:36,04:08:08,NA,incomplete,false,NA,NA,true,2,16,NA,NA,NA,left,m_l_034.jpg,purple,gray,NA,NA,NA,NA,NA,NA,NA,NA,NA,NaN,NA,2384.399999976158,left,1,NA,NA,NA,NA,NA
vfH0RsU2,3z8ujejod2q8a85trwhk37uqvoc39x,3ymu66obirl46axubphyo2dfmipghr,vfH0RsU2,2020-0188,2021-10-31,02:35:36,04:08:08,NA,incomplete,false,NA,NA,true,2,17,NA,NA,NA,right,m_l_098.jpg,orange,red,NA,NA,NA,NA,NA,NA,NA,NA,NA,NaN,NA,2931.4000000059605,right,1,NA,NA,NA,NA,NA
vfH0RsU2,3z8ujejod2q8a85trwhk37uqvoc39x,3ymu66obirl46axubphyo2dfmipghr,vfH0RsU2,2020-0188,2021-10-31,02:35:36,04:08:08,NA,incomplete,false,NA,NA,true,2,18,NA,NA,NA,left,n_s_042.jpg,red,orange,NA,NA,NA,NA,NA,NA,NA,NA,NA,NaN,NA,2930.699999988079,left,1,NA,NA,NA,NA,NA
vfH0RsU2,3z8ujejod2q8a85trwhk37uqvoc39x,3ymu66obirl46axubphyo2dfmipghr,vfH0RsU2,2020-0188,2021-10-31,02:35:36,04:08:08,NA,incomplete,false,NA,NA,true,2,19,NA,NA,NA,left,n_l_063.jpg,red,gray,NA,NA,NA,NA,NA,NA,NA,NA,NA,NaN,NA,5186.5,left,1,NA,NA,NA,NA,NA
vfH0RsU2,3z8ujejod2q8a85trwhk37uqvoc39x,3ymu66obirl46axubphyo2dfmipghr,vfH0RsU2,2020-0188,2021-10-31,02:35:36,04:08:08,NA,incomplete,false,NA,NA,true,2,20,NA,NA,NA,left,m_l_077.jpg,blue,purple,NA,NA,NA,NA,NA,NA,NA,NA,NA,NaN,NA,2939,left,1,NA,NA,NA,NA,NA
vfH0RsU2,3z8ujejod2q8a85trwhk37uqvoc39x,3ymu66obirl46axubphyo2dfmipghr,vfH0RsU2,2020-0188,2021-10-31,02:35:36,04:08:08,NA,incomplete,false,NA,NA,true,2,21,NA,NA,NA,right,m_s_112.jpg,blue,purple,NA,NA,NA,NA,NA,NA,NA,NA,NA,NaN,NA,2582.5999999940395,right,1,NA,NA,NA,NA,NA
vfH0RsU2,3z8ujejod2q8a85trwhk37uqvoc39x,3ymu66obirl46axubphyo2dfmipghr,vfH0RsU2,2020-0188,2021-10-31,02:35:36,04:08:08,NA,incomplete,false,NA,true,NA,2,0,NA,NA,NA,left,NA,NA,NA,present,NA,NA,n_l_063.jpg,red,n_s_025.jpg,gray,between,NA,NaN,NA,NA,NA,NA,left,4344.300000011921,1,2,2703.100000023842
vfH0RsU2,3z8ujejod2q8a85trwhk37uqvoc39x,3ymu66obirl46axubphyo2dfmipghr,vfH0RsU2,2020-0188,2021-10-31,02:35:36,04:08:08,NA,incomplete,false,NA,true,NA,2,1,NA,NA,NA,left,NA,NA,NA,present,NA,NA,n_s_041.jpg,gray,n_s_035.jpg,purple,between,NA,NaN,NA,NA,NA,NA,right,4034.5,0,2,2950.2000000178814
vfH0RsU2,3z8ujejod2q8a85trwhk37uqvoc39x,3ymu66obirl46axubphyo2dfmipghr,vfH0RsU2,2020-0188,2021-10-31,02:35:36,04:08:08,NA,incomplete,false,NA,true,NA,2,2,NA,NA,NA,right,NA,NA,NA,present,NA,NA,m_s_029.jpg,purple,m_s_112.jpg,purple,within,NA,NaN,NA,NA,NA,NA,left,3947.199999988079,0,0,3019.9000000059605
vfH0RsU2,3z8ujejod2q8a85trwhk37uqvoc39x,3ymu66obirl46axubphyo2dfmipghr,vfH0RsU2,2020-0188,2021-10-31,02:35:36,04:08:08,NA,incomplete,false,NA,true,NA,2,3,NA,NA,NA,right,NA,NA,NA,present,NA,NA,n_s_015.jpg,green,n_s_026.jpg,green,within,NA,NaN,NA,NA,NA,NA,right,6263.300000011921,1,0,1711.5
vfH0RsU2,3z8ujejod2q8a85trwhk37uqvoc39x,3ymu66obirl46axubphyo2dfmipghr,vfH0RsU2,2020-0188,2021-10-31,02:35:36,04:08:08,NA,incomplete,false,NA,true,NA,2,4,NA,NA,NA,left,NA,NA,NA,present,NA,NA,m_l_091.jpg,gray,n_s_117.jpg,gray,within,NA,NaN,NA,NA,NA,NA,left,4064.5999999940395,1,0,1932.7000000178814
vfH0RsU2,3z8ujejod2q8a85trwhk37uqvoc39x,3ymu66obirl46axubphyo2dfmipghr,vfH0RsU2,2020-0188,2021-10-31,02:35:36,04:08:08,NA,incomplete,false,NA,true,NA,2,5,NA,NA,NA,right,NA,NA,NA,present,NA,NA,n_s_010.jpg,orange,m_l_099.jpg,orange,within,NA,NaN,NA,NA,NA,NA,left,4870.699999988079,0,0,1700.300000011921
vfH0RsU2,3z8ujejod2q8a85trwhk37uqvoc39x,3ymu66obirl46axubphyo2dfmipghr,vfH0RsU2,2020-0188,2021-10-31,02:35:36,04:08:08,NA,incomplete,false,NA,true,NA,2,6,NA,NA,NA,left,NA,NA,NA,present,NA,NA,m_s_017.jpg,green,m_l_010.jpg,orange,between,NA,NaN,NA,NA,NA,NA,left,5786.5,1,2,1719.5999999940395
vfH0RsU2,3z8ujejod2q8a85trwhk37uqvoc39x,3ymu66obirl46axubphyo2dfmipghr,vfH0RsU2,2020-0188,2021-10-31,02:35:36,04:08:08,NA,incomplete,false,NA,true,NA,2,7,NA,NA,NA,right,NA,NA,NA,present,NA,NA,n_l_108.jpg,blue,m_l_106.jpg,blue,within,NA,NaN,NA,NA,NA,NA,right,4768.300000011921,1,0,1659.1000000238419
vfH0RsU2,3z8ujejod2q8a85trwhk37uqvoc39x,3ymu66obirl46axubphyo2dfmipghr,vfH0RsU2,2020-0188,2021-10-31,02:35:36,04:08:08,NA,incomplete,false,NA,true,NA,2,8,NA,NA,NA,left,NA,NA,NA,present,NA,NA,m_l_098.jpg,red,n_s_042.jpg,red,within,NA,NaN,NA,NA,NA,NA,left,7624.699999988079,1,0,1905.199999988079
vfH0RsU2,3z8ujejod2q8a85trwhk37uqvoc39x,3ymu66obirl46axubphyo2dfmipghr,vfH0RsU2,2020-0188,2021-10-31,02:35:36,04:08:08,NA,incomplete,false,NA,true,NA,2,9,NA,NA,NA,right,NA,NA,NA,present,NA,NA,m_l_077.jpg,blue,m_l_034.jpg,purple,between,NA,NaN,NA,NA,NA,NA,right,9550.5,1,2,1727.4000000059605
vfH0RsU2,3z8ujejod2q8a85trwhk37uqvoc39x,3ymu66obirl46axubphyo2dfmipghr,vfH0RsU2,2020-0188,2021-10-31,02:35:36,04:08:08,NA,incomplete,false,NA,true,NA,2,10,NA,NA,NA,left,NA,NA,NA,present,NA,NA,m_s_040.jpg,orange,n_s_101.jpg,red,between,NA,NaN,NA,NA,NA,NA,left,3580.4000000059605,1,2,8470.699999988079
vfH0RsU2,3z8ujejod2q8a85trwhk37uqvoc39x,3ymu66obirl46axubphyo2dfmipghr,vfH0RsU2,2020-0188,2021-10-31,02:35:36,04:08:08,NA,incomplete,false,true,NA,NA,3,0,NA,yellow,m_l_097.jpg,NA,NA,NA,NA,NA,pleasant,unpleasant,NA,NA,NA,NA,NA,right,2119.79999998212,true,NA,NA,NA,NA,NA,NA,NA,NA
vfH0RsU2,3z8ujejod2q8a85trwhk37uqvoc39x,3ymu66obirl46axubphyo2dfmipghr,vfH0RsU2,2020-0188,2021-10-31,02:35:36,04:08:08,NA,incomplete,false,true,NA,NA,3,1,NA,yellow,n_l_024.jpg,NA,NA,NA,NA,NA,unpleasant,pleasant,NA,NA,NA,NA,NA,left,1586.80000001192,true,NA,NA,NA,NA,NA,NA,NA,NA
vfH0RsU2,3z8ujejod2q8a85trwhk37uqvoc39x,3ymu66obirl46axubphyo2dfmipghr,vfH0RsU2,2020-0188,2021-10-31,02:35:36,04:08:08,NA,incomplete,false,true,NA,NA,3,2,NA,yellow,m_s_092.jpg,NA,NA,NA,NA,NA,pleasant,unpleasant,NA,NA,NA,NA,NA,left,1527.89999997616,true,NA,NA,NA,NA,NA,NA,NA,NA
vfH0RsU2,3z8ujejod2q8a85trwhk37uqvoc39x,3ymu66obirl46axubphyo2dfmipghr,vfH0RsU2,2020-0188,2021-10-31,02:35:36,04:08:08,NA,incomplete,false,true,NA,NA,3,3,NA,yellow,n_s_083.jpg,NA,NA,NA,NA,NA,unpleasant,pleasant,NA,NA,NA,NA,NA,left,1556.09999999404,true,NA,NA,NA,NA,NA,NA,NA,NA
vfH0RsU2,3z8ujejod2q8a85trwhk37uqvoc39x,3ymu66obirl46axubphyo2dfmipghr,vfH0RsU2,2020-0188,2021-10-31,02:35:36,04:08:08,NA,incomplete,false,true,NA,NA,3,4,NA,yellow,n_s_092.jpg,NA,NA,NA,NA,NA,unpleasant,pleasant,NA,NA,NA,NA,NA,left,1276,true,NA,NA,NA,NA,NA,NA,NA,NA
vfH0RsU2,3z8ujejod2q8a85trwhk37uqvoc39x,3ymu66obirl46axubphyo2dfmipghr,vfH0RsU2,2020-0188,2021-10-31,02:35:36,04:08:08,NA,incomplete,false,true,NA,NA,3,5,NA,yellow,m_s_102.jpg,NA,NA,NA,NA,NA,unpleasant,pleasant,NA,NA,NA,NA,NA,right,1515.5,true,NA,NA,NA,NA,NA,NA,NA,NA
vfH0RsU2,3z8ujejod2q8a85trwhk37uqvoc39x,3ymu66obirl46axubphyo2dfmipghr,vfH0RsU2,2020-0188,2021-10-31,02:35:36,04:08:08,NA,incomplete,false,true,NA,NA,3,6,NA,white,n_s_086.jpg,NA,NA,NA,NA,NA,pleasant,unpleasant,NA,NA,NA,NA,NA,right,2025.09999999404,true,NA,NA,NA,NA,NA,NA,NA,NA
vfH0RsU2,3z8ujejod2q8a85trwhk37uqvoc39x,3ymu66obirl46axubphyo2dfmipghr,vfH0RsU2,2020-0188,2021-10-31,02:35:36,04:08:08,NA,incomplete,false,true,NA,NA,3,7,NA,white,m_s_067.jpg,NA,NA,NA,NA,NA,unpleasant,pleasant,NA,NA,NA,NA,NA,left,1396.59999999404,true,NA,NA,NA,NA,NA,NA,NA,NA
vfH0RsU2,3z8ujejod2q8a85trwhk37uqvoc39x,3ymu66obirl46axubphyo2dfmipghr,vfH0RsU2,2020-0188,2021-10-31,02:35:36,04:08:08,NA,incomplete,false,true,NA,NA,3,8,NA,white,n_s_016.jpg,NA,NA,NA,NA,NA,unpleasant,pleasant,NA,NA,NA,NA,NA,right,1496.29999998212,true,NA,NA,NA,NA,NA,NA,NA,NA
vfH0RsU2,3z8ujejod2q8a85trwhk37uqvoc39x,3ymu66obirl46axubphyo2dfmipghr,vfH0RsU2,2020-0188,2021-10-31,02:35:36,04:08:08,NA,incomplete,false,true,NA,NA,3,9,NA,white,m_l_042.jpg,NA,NA,NA,NA,NA,pleasant,unpleasant,NA,NA,NA,NA,NA,left,1892.70000001788,true,NA,NA,NA,NA,NA,NA,NA,NA
vfH0RsU2,3z8ujejod2q8a85trwhk37uqvoc39x,3ymu66obirl46axubphyo2dfmipghr,vfH0RsU2,2020-0188,2021-10-31,02:35:36,04:08:08,NA,incomplete,false,true,NA,NA,3,10,NA,white,n_l_112.jpg,NA,NA,NA,NA,NA,unpleasant,pleasant,NA,NA,NA,NA,NA,left,1419.90000000596,true,NA,NA,NA,NA,NA,NA,NA,NA
vfH0RsU2,3z8ujejod2q8a85trwhk37uqvoc39x,3ymu66obirl46axubphyo2dfmipghr,vfH0RsU2,2020-0188,2021-10-31,02:35:36,04:08:08,NA,incomplete,false,true,NA,NA,3,11,NA,white,n_l_022.jpg,NA,NA,NA,NA,NA,unpleasant,pleasant,NA,NA,NA,NA,NA,left,1950.40000000596,true,NA,NA,NA,NA,NA,NA,NA,NA
vfH0RsU2,3z8ujejod2q8a85trwhk37uqvoc39x,3ymu66obirl46axubphyo2dfmipghr,vfH0RsU2,2020-0188,2021-10-31,02:35:36,04:08:08,NA,incomplete,false,true,NA,NA,3,12,NA,green,n_l_025.jpg,NA,NA,NA,NA,NA,unpleasant,pleasant,NA,NA,NA,NA,NA,right,2251.90000000596,true,NA,NA,NA,NA,NA,NA,NA,NA
vfH0RsU2,3z8ujejod2q8a85trwhk37uqvoc39x,3ymu66obirl46axubphyo2dfmipghr,vfH0RsU2,2020-0188,2021-10-31,02:35:36,04:08:08,NA,incomplete,false,true,NA,NA,3,13,NA,green,n_l_004.jpg,NA,NA,NA,NA,NA,pleasant,unpleasant,NA,NA,NA,NA,NA,left,1393.5,true,NA,NA,NA,NA,NA,NA,NA,NA
vfH0RsU2,3z8ujejod2q8a85trwhk37uqvoc39x,3ymu66obirl46axubphyo2dfmipghr,vfH0RsU2,2020-0188,2021-10-31,02:35:36,04:08:08,NA,incomplete,false,true,NA,NA,3,14,NA,green,m_l_025.jpg,NA,NA,NA,NA,NA,pleasant,unpleasant,NA,NA,NA,NA,NA,left,1420.20000001788,true,NA,NA,NA,NA,NA,NA,NA,NA
vfH0RsU2,3z8ujejod2q8a85trwhk37uqvoc39x,3ymu66obirl46axubphyo2dfmipghr,vfH0RsU2,2020-0188,2021-10-31,02:35:36,04:08:08,NA,incomplete,false,true,NA,NA,3,15,NA,green,m_s_005.jpg,NA,NA,NA,NA,NA,pleasant,unpleasant,NA,NA,NA,NA,NA,left,1805.09999999404,true,NA,NA,NA,NA,NA,NA,NA,NA
vfH0RsU2,3z8ujejod2q8a85trwhk37uqvoc39x,3ymu66obirl46axubphyo2dfmipghr,vfH0RsU2,2020-0188,2021-10-31,02:35:36,04:08:08,NA,incomplete,false,true,NA,NA,3,16,NA,green,m_s_079.jpg,NA,NA,NA,NA,NA,pleasant,unpleasant,NA,NA,NA,NA,NA,left,1523.19999998808,true,NA,NA,NA,NA,NA,NA,NA,NA
vfH0RsU2,3z8ujejod2q8a85trwhk37uqvoc39x,3ymu66obirl46axubphyo2dfmipghr,vfH0RsU2,2020-0188,2021-10-31,02:35:36,04:08:08,NA,incomplete,false,true,NA,NA,3,17,NA,green,n_l_096.jpg,NA,NA,NA,NA,NA,pleasant,unpleasant,NA,NA,NA,NA,NA,right,1139,true,NA,NA,NA,NA,NA,NA,NA,NA
vfH0RsU2,3z8ujejod2q8a85trwhk37uqvoc39x,3ymu66obirl46axubphyo2dfmipghr,vfH0RsU2,2020-0188,2021-10-31,02:35:36,04:08:08,NA,incomplete,false,true,NA,NA,3,18,NA,brown,n_s_104.jpg,NA,NA,NA,NA,NA,pleasant,unpleasant,NA,NA,NA,NA,NA,right,1974.20000001788,true,NA,NA,NA,NA,NA,NA,NA,NA
vfH0RsU2,3z8ujejod2q8a85trwhk37uqvoc39x,3ymu66obirl46axubphyo2dfmipghr,vfH0RsU2,2020-0188,2021-10-31,02:35:36,04:08:08,NA,incomplete,false,true,NA,NA,3,19,NA,brown,m_s_020.jpg,NA,NA,NA,NA,NA,unpleasant,pleasant,NA,NA,NA,NA,NA,right,2040.20000001788,true,NA,NA,NA,NA,NA,NA,NA,NA
vfH0RsU2,3z8ujejod2q8a85trwhk37uqvoc39x,3ymu66obirl46axubphyo2dfmipghr,vfH0RsU2,2020-0188,2021-10-31,02:35:36,04:08:08,NA,incomplete,false,true,NA,NA,3,20,NA,brown,n_l_050.jpg,NA,NA,NA,NA,NA,pleasant,unpleasant,NA,NA,NA,NA,NA,right,1273.89999997616,true,NA,NA,NA,NA,NA,NA,NA,NA
vfH0RsU2,3z8ujejod2q8a85trwhk37uqvoc39x,3ymu66obirl46axubphyo2dfmipghr,vfH0RsU2,2020-0188,2021-10-31,02:35:36,04:08:08,NA,incomplete,false,true,NA,NA,3,21,NA,brown,n_s_032.jpg,NA,NA,NA,NA,NA,pleasant,unpleasant,NA,NA,NA,NA,NA,left,1365.19999998808,true,NA,NA,NA,NA,NA,NA,NA,NA
vfH0RsU2,3z8ujejod2q8a85trwhk37uqvoc39x,3ymu66obirl46axubphyo2dfmipghr,vfH0RsU2,2020-0188,2021-10-31,02:35:36,04:08:08,NA,incomplete,false,true,NA,NA,3,22,NA,brown,m_l_059.jpg,NA,NA,NA,NA,NA,pleasant,unpleasant,NA,NA,NA,NA,NA,left,1544.69999998808,true,NA,NA,NA,NA,NA,NA,NA,NA
vfH0RsU2,3z8ujejod2q8a85trwhk37uqvoc39x,3ymu66obirl46axubphyo2dfmipghr,vfH0RsU2,2020-0188,2021-10-31,02:35:36,04:08:08,NA,incomplete,false,true,NA,NA,3,23,NA,brown,n_l_001.jpg,NA,NA,NA,NA,NA,pleasant,unpleasant,NA,NA,NA,NA,NA,left,1715.79999998212,true,NA,NA,NA,NA,NA,NA,NA,NA
vfH0RsU2,3z8ujejod2q8a85trwhk37uqvoc39x,3ymu66obirl46axubphyo2dfmipghr,vfH0RsU2,2020-0188,2021-10-31,02:35:36,04:08:08,NA,incomplete,false,true,NA,NA,3,24,NA,orange,m_l_016.jpg,NA,NA,NA,NA,NA,pleasant,unpleasant,NA,NA,NA,NA,NA,right,1626.59999999404,true,NA,NA,NA,NA,NA,NA,NA,NA
vfH0RsU2,3z8ujejod2q8a85trwhk37uqvoc39x,3ymu66obirl46axubphyo2dfmipghr,vfH0RsU2,2020-0188,2021-10-31,02:35:36,04:08:08,NA,incomplete,false,true,NA,NA,3,25,NA,orange,m_s_108.jpg,NA,NA,NA,NA,NA,unpleasant,pleasant,NA,NA,NA,NA,NA,right,2182.09999999404,true,NA,NA,NA,NA,NA,NA,NA,NA
vfH0RsU2,3z8ujejod2q8a85trwhk37uqvoc39x,3ymu66obirl46axubphyo2dfmipghr,vfH0RsU2,2020-0188,2021-10-31,02:35:36,04:08:08,NA,incomplete,false,true,NA,NA,3,26,NA,orange,n_l_064.jpg,NA,NA,NA,NA,NA,unpleasant,pleasant,NA,NA,NA,NA,NA,left,1892.80000001192,true,NA,NA,NA,NA,NA,NA,NA,NA
vfH0RsU2,3z8ujejod2q8a85trwhk37uqvoc39x,3ymu66obirl46axubphyo2dfmipghr,vfH0RsU2,2020-0188,2021-10-31,02:35:36,04:08:08,NA,incomplete,false,true,NA,NA,3,27,NA,orange,m_l_055.jpg,NA,NA,NA,NA,NA,pleasant,unpleasant,NA,NA,NA,NA,NA,right,1829.10000002384,true,NA,NA,NA,NA,NA,NA,NA,NA
vfH0RsU2,3z8ujejod2q8a85trwhk37uqvoc39x,3ymu66obirl46axubphyo2dfmipghr,vfH0RsU2,2020-0188,2021-10-31,02:35:36,04:08:08,NA,incomplete,false,true,NA,NA,3,28,NA,orange,m_l_063.jpg,NA,NA,NA,NA,NA,unpleasant,pleasant,NA,NA,NA,NA,NA,left,1513.80000001192,true,NA,NA,NA,NA,NA,NA,NA,NA
vfH0RsU2,3z8ujejod2q8a85trwhk37uqvoc39x,3ymu66obirl46axubphyo2dfmipghr,vfH0RsU2,2020-0188,2021-10-31,02:35:36,04:08:08,NA,incomplete,false,true,NA,NA,3,29,NA,orange,n_s_077.jpg,NA,NA,NA,NA,NA,unpleasant,pleasant,NA,NA,NA,NA,NA,right,1415.20000001788,true,NA,NA,NA,NA,NA,NA,NA,NA
vfH0RsU2,3z8ujejod2q8a85trwhk37uqvoc39x,3ymu66obirl46axubphyo2dfmipghr,vfH0RsU2,2020-0188,2021-10-31,02:35:36,04:08:08,NA,incomplete,false,true,NA,NA,3,30,NA,red,m_l_065.jpg,NA,NA,NA,NA,NA,pleasant,unpleasant,NA,NA,NA,NA,NA,right,1840.19999998808,true,NA,NA,NA,NA,NA,NA,NA,NA
vfH0RsU2,3z8ujejod2q8a85trwhk37uqvoc39x,3ymu66obirl46axubphyo2dfmipghr,vfH0RsU2,2020-0188,2021-10-31,02:35:36,04:08:08,NA,incomplete,false,true,NA,NA,3,31,NA,red,n_l_058.jpg,NA,NA,NA,NA,NA,unpleasant,pleasant,NA,NA,NA,NA,NA,left,1681,true,NA,NA,NA,NA,NA,NA,NA,NA
vfH0RsU2,3z8ujejod2q8a85trwhk37uqvoc39x,3ymu66obirl46axubphyo2dfmipghr,vfH0RsU2,2020-0188,2021-10-31,02:35:36,04:08:08,NA,incomplete,false,true,NA,NA,3,32,NA,red,n_s_072.jpg,NA,NA,NA,NA,NA,unpleasant,pleasant,NA,NA,NA,NA,NA,left,1364,true,NA,NA,NA,NA,NA,NA,NA,NA
vfH0RsU2,3z8ujejod2q8a85trwhk37uqvoc39x,3ymu66obirl46axubphyo2dfmipghr,vfH0RsU2,2020-0188,2021-10-31,02:35:36,04:08:08,NA,incomplete,false,true,NA,NA,3,33,NA,red,n_l_067.jpg,NA,NA,NA,NA,NA,unpleasant,pleasant,NA,NA,NA,NA,NA,left,1499.90000000596,true,NA,NA,NA,NA,NA,NA,NA,NA
vfH0RsU2,3z8ujejod2q8a85trwhk37uqvoc39x,3ymu66obirl46axubphyo2dfmipghr,vfH0RsU2,2020-0188,2021-10-31,02:35:36,04:08:08,NA,incomplete,false,true,NA,NA,3,34,NA,red,m_l_004.jpg,NA,NA,NA,NA,NA,unpleasant,pleasant,NA,NA,NA,NA,NA,left,1126.39999997616,true,NA,NA,NA,NA,NA,NA,NA,NA
vfH0RsU2,3z8ujejod2q8a85trwhk37uqvoc39x,3ymu66obirl46axubphyo2dfmipghr,vfH0RsU2,2020-0188,2021-10-31,02:35:36,04:08:08,NA,incomplete,false,true,NA,NA,3,35,NA,red,m_l_021.jpg,NA,NA,NA,NA,NA,pleasant,unpleasant,NA,NA,NA,NA,NA,right,1570,true,NA,NA,NA,NA,NA,NA,NA,NA
vfH0RsU2,3z8ujejod2q8a85trwhk37uqvoc39x,3ymu66obirl46axubphyo2dfmipghr,vfH0RsU2,2020-0188,2021-10-31,02:35:36,04:08:08,NA,incomplete,false,NA,NA,true,3,0,NA,NA,NA,left,m_l_063.jpg,orange,red,NA,NA,NA,NA,NA,NA,NA,NA,NA,NaN,NA,3157,left,1,NA,NA,NA,NA,NA
vfH0RsU2,3z8ujejod2q8a85trwhk37uqvoc39x,3ymu66obirl46axubphyo2dfmipghr,vfH0RsU2,2020-0188,2021-10-31,02:35:36,04:08:08,NA,incomplete,false,NA,NA,true,3,1,NA,NA,NA,right,n_l_058.jpg,orange,red,NA,NA,NA,NA,NA,NA,NA,NA,NA,NaN,NA,2508.7999999821186,right,1,NA,NA,NA,NA,NA
vfH0RsU2,3z8ujejod2q8a85trwhk37uqvoc39x,3ymu66obirl46axubphyo2dfmipghr,vfH0RsU2,2020-0188,2021-10-31,02:35:36,04:08:08,NA,incomplete,false,NA,NA,true,3,2,NA,NA,NA,right,n_l_001.jpg,green,brown,NA,NA,NA,NA,NA,NA,NA,NA,NA,NaN,NA,2022.2999999821186,right,1,NA,NA,NA,NA,NA
vfH0RsU2,3z8ujejod2q8a85trwhk37uqvoc39x,3ymu66obirl46axubphyo2dfmipghr,vfH0RsU2,2020-0188,2021-10-31,02:35:36,04:08:08,NA,incomplete,false,NA,NA,true,3,3,NA,NA,NA,right,n_l_004.jpg,brown,green,NA,NA,NA,NA,NA,NA,NA,NA,NA,NaN,NA,2787.9000000059605,right,1,NA,NA,NA,NA,NA
vfH0RsU2,3z8ujejod2q8a85trwhk37uqvoc39x,3ymu66obirl46axubphyo2dfmipghr,vfH0RsU2,2020-0188,2021-10-31,02:35:36,04:08:08,NA,incomplete,false,NA,NA,true,3,4,NA,NA,NA,right,n_l_050.jpg,green,brown,NA,NA,NA,NA,NA,NA,NA,NA,NA,NaN,NA,4551.700000017881,right,1,NA,NA,NA,NA,NA
vfH0RsU2,3z8ujejod2q8a85trwhk37uqvoc39x,3ymu66obirl46axubphyo2dfmipghr,vfH0RsU2,2020-0188,2021-10-31,02:35:36,04:08:08,NA,incomplete,false,NA,NA,true,3,5,NA,NA,NA,left,n_s_092.jpg,yellow,white,NA,NA,NA,NA,NA,NA,NA,NA,NA,NaN,NA,2643.0999999940395,left,1,NA,NA,NA,NA,NA
vfH0RsU2,3z8ujejod2q8a85trwhk37uqvoc39x,3ymu66obirl46axubphyo2dfmipghr,vfH0RsU2,2020-0188,2021-10-31,02:35:36,04:08:08,NA,incomplete,false,NA,NA,true,3,6,NA,NA,NA,right,m_l_025.jpg,white,green,NA,NA,NA,NA,NA,NA,NA,NA,NA,NaN,NA,6616.4000000059605,right,1,NA,NA,NA,NA,NA
vfH0RsU2,3z8ujejod2q8a85trwhk37uqvoc39x,3ymu66obirl46axubphyo2dfmipghr,vfH0RsU2,2020-0188,2021-10-31,02:35:36,04:08:08,NA,incomplete,false,NA,NA,true,3,7,NA,NA,NA,left,m_s_067.jpg,white,green,NA,NA,NA,NA,NA,NA,NA,NA,NA,NaN,NA,4321.5,left,1,NA,NA,NA,NA,NA
vfH0RsU2,3z8ujejod2q8a85trwhk37uqvoc39x,3ymu66obirl46axubphyo2dfmipghr,vfH0RsU2,2020-0188,2021-10-31,02:35:36,04:08:08,NA,incomplete,false,NA,NA,true,3,8,NA,NA,NA,left,n_s_016.jpg,white,green,NA,NA,NA,NA,NA,NA,NA,NA,NA,NaN,NA,2595.899999976158,left,1,NA,NA,NA,NA,NA
vfH0RsU2,3z8ujejod2q8a85trwhk37uqvoc39x,3ymu66obirl46axubphyo2dfmipghr,vfH0RsU2,2020-0188,2021-10-31,02:35:36,04:08:08,NA,incomplete,false,NA,NA,true,3,9,NA,NA,NA,left,m_s_108.jpg,orange,red,NA,NA,NA,NA,NA,NA,NA,NA,NA,NaN,NA,2337.7000000178814,left,1,NA,NA,NA,NA,NA
vfH0RsU2,3z8ujejod2q8a85trwhk37uqvoc39x,3ymu66obirl46axubphyo2dfmipghr,vfH0RsU2,2020-0188,2021-10-31,02:35:36,04:08:08,NA,incomplete,false,NA,NA,true,3,10,NA,NA,NA,right,m_s_020.jpg,green,brown,NA,NA,NA,NA,NA,NA,NA,NA,NA,NaN,NA,1795.300000011921,right,1,NA,NA,NA,NA,NA
vfH0RsU2,3z8ujejod2q8a85trwhk37uqvoc39x,3ymu66obirl46axubphyo2dfmipghr,vfH0RsU2,2020-0188,2021-10-31,02:35:36,04:08:08,NA,incomplete,false,NA,NA,true,3,11,NA,NA,NA,right,m_l_021.jpg,orange,red,NA,NA,NA,NA,NA,NA,NA,NA,NA,NaN,NA,2125,right,1,NA,NA,NA,NA,NA
vfH0RsU2,3z8ujejod2q8a85trwhk37uqvoc39x,3ymu66obirl46axubphyo2dfmipghr,vfH0RsU2,2020-0188,2021-10-31,02:35:36,04:08:08,NA,incomplete,false,NA,NA,true,3,12,NA,NA,NA,left,n_s_072.jpg,red,orange,NA,NA,NA,NA,NA,NA,NA,NA,NA,NaN,NA,4219.0999999940395,left,1,NA,NA,NA,NA,NA
vfH0RsU2,3z8ujejod2q8a85trwhk37uqvoc39x,3ymu66obirl46axubphyo2dfmipghr,vfH0RsU2,2020-0188,2021-10-31,02:35:36,04:08:08,NA,incomplete,false,NA,NA,true,3,13,NA,NA,NA,left,m_l_059.jpg,brown,green,NA,NA,NA,NA,NA,NA,NA,NA,NA,NaN,NA,2844.5999999940395,left,1,NA,NA,NA,NA,NA
vfH0RsU2,3z8ujejod2q8a85trwhk37uqvoc39x,3ymu66obirl46axubphyo2dfmipghr,vfH0RsU2,2020-0188,2021-10-31,02:35:36,04:08:08,NA,incomplete,false,NA,NA,true,3,14,NA,NA,NA,left,n_l_096.jpg,green,white,NA,NA,NA,NA,NA,NA,NA,NA,NA,NaN,NA,2787.800000011921,left,1,NA,NA,NA,NA,NA
vfH0RsU2,3z8ujejod2q8a85trwhk37uqvoc39x,3ymu66obirl46axubphyo2dfmipghr,vfH0RsU2,2020-0188,2021-10-31,02:35:36,04:08:08,NA,incomplete,false,NA,NA,true,3,15,NA,NA,NA,left,n_l_064.jpg,orange,red,NA,NA,NA,NA,NA,NA,NA,NA,NA,NaN,NA,2542.5,left,1,NA,NA,NA,NA,NA
vfH0RsU2,3z8ujejod2q8a85trwhk37uqvoc39x,3ymu66obirl46axubphyo2dfmipghr,vfH0RsU2,2020-0188,2021-10-31,02:35:36,04:08:08,NA,incomplete,false,NA,NA,true,3,16,NA,NA,NA,right,n_l_022.jpg,green,white,NA,NA,NA,NA,NA,NA,NA,NA,NA,NaN,NA,2104,right,1,NA,NA,NA,NA,NA
vfH0RsU2,3z8ujejod2q8a85trwhk37uqvoc39x,3ymu66obirl46axubphyo2dfmipghr,vfH0RsU2,2020-0188,2021-10-31,02:35:36,04:08:08,NA,incomplete,false,NA,NA,true,3,17,NA,NA,NA,left,n_l_112.jpg,white,yellow,NA,NA,NA,NA,NA,NA,NA,NA,NA,NaN,NA,2589.5,left,1,NA,NA,NA,NA,NA
vfH0RsU2,3z8ujejod2q8a85trwhk37uqvoc39x,3ymu66obirl46axubphyo2dfmipghr,vfH0RsU2,2020-0188,2021-10-31,02:35:36,04:08:08,NA,incomplete,false,NA,NA,true,3,18,NA,NA,NA,left,n_s_077.jpg,orange,red,NA,NA,NA,NA,NA,NA,NA,NA,NA,NaN,NA,2091.100000023842,left,1,NA,NA,NA,NA,NA
vfH0RsU2,3z8ujejod2q8a85trwhk37uqvoc39x,3ymu66obirl46axubphyo2dfmipghr,vfH0RsU2,2020-0188,2021-10-31,02:35:36,04:08:08,NA,incomplete,false,NA,NA,true,3,19,NA,NA,NA,right,m_s_079.jpg,white,green,NA,NA,NA,NA,NA,NA,NA,NA,NA,NaN,NA,1926.7999999821186,right,1,NA,NA,NA,NA,NA
vfH0RsU2,3z8ujejod2q8a85trwhk37uqvoc39x,3ymu66obirl46axubphyo2dfmipghr,vfH0RsU2,2020-0188,2021-10-31,02:35:36,04:08:08,NA,incomplete,false,NA,NA,true,3,20,NA,NA,NA,left,n_l_024.jpg,yellow,white,NA,NA,NA,NA,NA,NA,NA,NA,NA,NaN,NA,2377.100000023842,left,1,NA,NA,NA,NA,NA
vfH0RsU2,3z8ujejod2q8a85trwhk37uqvoc39x,3ymu66obirl46axubphyo2dfmipghr,vfH0RsU2,2020-0188,2021-10-31,02:35:36,04:08:08,NA,incomplete,false,NA,NA,true,3,21,NA,NA,NA,right,m_s_102.jpg,white,yellow,NA,NA,NA,NA,NA,NA,NA,NA,NA,NaN,NA,1919.300000011921,right,1,NA,NA,NA,NA,NA
vfH0RsU2,3z8ujejod2q8a85trwhk37uqvoc39x,3ymu66obirl46axubphyo2dfmipghr,vfH0RsU2,2020-0188,2021-10-31,02:35:36,04:08:08,NA,incomplete,false,NA,true,NA,3,0,NA,NA,NA,right,NA,NA,NA,present,NA,NA,n_l_050.jpg,brown,m_s_079.jpg,green,between,NA,NaN,NA,NA,NA,NA,left,7432.199999988079,0,2,2895.699999988079
vfH0RsU2,3z8ujejod2q8a85trwhk37uqvoc39x,3ymu66obirl46axubphyo2dfmipghr,vfH0RsU2,2020-0188,2021-10-31,02:35:36,04:08:08,NA,incomplete,false,NA,true,NA,3,1,NA,NA,NA,left,NA,NA,NA,present,NA,NA,n_l_058.jpg,red,m_l_021.jpg,red,within,NA,NaN,NA,NA,NA,NA,left,4206.9000000059605,1,0,3320.2999999821186
vfH0RsU2,3z8ujejod2q8a85trwhk37uqvoc39x,3ymu66obirl46axubphyo2dfmipghr,vfH0RsU2,2020-0188,2021-10-31,02:35:36,04:08:08,NA,incomplete,false,NA,true,NA,3,2,NA,NA,NA,left,NA,NA,NA,present,NA,NA,m_s_067.jpg,white,n_l_022.jpg,white,within,NA,NaN,NA,NA,NA,NA,right,3382.199999988079,0,0,2622.9000000059605
vfH0RsU2,3z8ujejod2q8a85trwhk37uqvoc39x,3ymu66obirl46axubphyo2dfmipghr,vfH0RsU2,2020-0188,2021-10-31,02:35:36,04:08:08,NA,incomplete,false,NA,true,NA,3,3,NA,NA,NA,right,NA,NA,NA,present,NA,NA,n_l_001.jpg,brown,m_s_020.jpg,brown,within,NA,NaN,NA,NA,NA,NA,right,3253.300000011921,1,0,1742.5
vfH0RsU2,3z8ujejod2q8a85trwhk37uqvoc39x,3ymu66obirl46axubphyo2dfmipghr,vfH0RsU2,2020-0188,2021-10-31,02:35:36,04:08:08,NA,incomplete,false,NA,true,NA,3,4,NA,NA,NA,left,NA,NA,NA,present,NA,NA,m_l_063.jpg,orange,n_s_072.jpg,red,between,NA,NaN,NA,NA,NA,NA,left,4976,1,2,2262.4000000059605
vfH0RsU2,3z8ujejod2q8a85trwhk37uqvoc39x,3ymu66obirl46axubphyo2dfmipghr,vfH0RsU2,2020-0188,2021-10-31,02:35:36,04:08:08,NA,incomplete,false,NA,true,NA,3,5,NA,NA,NA,left,NA,NA,NA,present,NA,NA,n_l_024.jpg,yellow,m_s_102.jpg,yellow,within,NA,NaN,NA,NA,NA,NA,left,3832.4000000059605,1,0,2725.300000011921
vfH0RsU2,3z8ujejod2q8a85trwhk37uqvoc39x,3ymu66obirl46axubphyo2dfmipghr,vfH0RsU2,2020-0188,2021-10-31,02:35:36,04:08:08,NA,incomplete,false,NA,true,NA,3,6,NA,NA,NA,left,NA,NA,NA,present,NA,NA,n_l_112.jpg,white,m_l_025.jpg,green,between,NA,NaN,NA,NA,NA,NA,left,3833.9000000059605,1,3,1928
vfH0RsU2,3z8ujejod2q8a85trwhk37uqvoc39x,3ymu66obirl46axubphyo2dfmipghr,vfH0RsU2,2020-0188,2021-10-31,02:35:36,04:08:08,NA,incomplete,false,NA,true,NA,3,7,NA,NA,NA,left,NA,NA,NA,present,NA,NA,n_l_004.jpg,green,n_l_096.jpg,green,within,NA,NaN,NA,NA,NA,NA,left,6701.5,1,0,3308.0999999940395
vfH0RsU2,3z8ujejod2q8a85trwhk37uqvoc39x,3ymu66obirl46axubphyo2dfmipghr,vfH0RsU2,2020-0188,2021-10-31,02:35:36,04:08:08,NA,incomplete,false,NA,true,NA,3,8,NA,NA,NA,left,NA,NA,NA,present,NA,NA,n_s_092.jpg,yellow,n_s_016.jpg,white,between,NA,NaN,NA,NA,NA,NA,left,6391.0999999940395,1,2,3034.800000011921
vfH0RsU2,3z8ujejod2q8a85trwhk37uqvoc39x,3ymu66obirl46axubphyo2dfmipghr,vfH0RsU2,2020-0188,2021-10-31,02:35:36,04:08:08,NA,incomplete,false,NA,true,NA,3,9,NA,NA,NA,right,NA,NA,NA,present,NA,NA,n_l_064.jpg,orange,m_l_059.jpg,brown,between,NA,NaN,NA,NA,NA,NA,left,4226.800000011921,0,2,1626
vfH0RsU2,3z8ujejod2q8a85trwhk37uqvoc39x,3ymu66obirl46axubphyo2dfmipghr,vfH0RsU2,2020-0188,2021-10-31,02:35:36,04:08:08,NA,incomplete,false,NA,true,NA,3,10,NA,NA,NA,right,NA,NA,NA,present,NA,NA,n_s_077.jpg,orange,m_s_108.jpg,orange,within,NA,NaN,NA,NA,NA,NA,right,7896.4000000059605,1,0,1443.0999999940395
vfH0RsU2,3z8ujejod2q8a85trwhk37uqvoc39x,3ymu66obirl46axubphyo2dfmipghr,vfH0RsU2,2020-0188,2021-10-31,02:35:36,04:08:08,NA,incomplete,false,true,NA,NA,4,0,NA,black,m_s_054.jpg,NA,NA,NA,NA,NA,unpleasant,pleasant,NA,NA,NA,NA,NA,left,1918.90000000596,true,NA,NA,NA,NA,NA,NA,NA,NA
vfH0RsU2,3z8ujejod2q8a85trwhk37uqvoc39x,3ymu66obirl46axubphyo2dfmipghr,vfH0RsU2,2020-0188,2021-10-31,02:35:36,04:08:08,NA,incomplete,false,true,NA,NA,4,1,NA,black,n_l_077.jpg,NA,NA,NA,NA,NA,pleasant,unpleasant,NA,NA,NA,NA,NA,right,1834.69999998808,true,NA,NA,NA,NA,NA,NA,NA,NA
vfH0RsU2,3z8ujejod2q8a85trwhk37uqvoc39x,3ymu66obirl46axubphyo2dfmipghr,vfH0RsU2,2020-0188,2021-10-31,02:35:36,04:08:08,NA,incomplete,false,true,NA,NA,4,2,NA,black,n_s_048.jpg,NA,NA,NA,NA,NA,unpleasant,pleasant,NA,NA,NA,NA,NA,left,1688.09999999404,true,NA,NA,NA,NA,NA,NA,NA,NA
vfH0RsU2,3z8ujejod2q8a85trwhk37uqvoc39x,3ymu66obirl46axubphyo2dfmipghr,vfH0RsU2,2020-0188,2021-10-31,02:35:36,04:08:08,NA,incomplete,false,true,NA,NA,4,3,NA,black,m_s_082.jpg,NA,NA,NA,NA,NA,pleasant,unpleasant,NA,NA,NA,NA,NA,left,1639.30000001192,true,NA,NA,NA,NA,NA,NA,NA,NA
vfH0RsU2,3z8ujejod2q8a85trwhk37uqvoc39x,3ymu66obirl46axubphyo2dfmipghr,vfH0RsU2,2020-0188,2021-10-31,02:35:36,04:08:08,NA,incomplete,false,true,NA,NA,4,4,NA,black,m_s_061.jpg,NA,NA,NA,NA,NA,pleasant,unpleasant,NA,NA,NA,NA,NA,right,1769.29999998212,true,NA,NA,NA,NA,NA,NA,NA,NA
vfH0RsU2,3z8ujejod2q8a85trwhk37uqvoc39x,3ymu66obirl46axubphyo2dfmipghr,vfH0RsU2,2020-0188,2021-10-31,02:35:36,04:08:08,NA,incomplete,false,true,NA,NA,4,5,NA,black,n_l_028.jpg,NA,NA,NA,NA,NA,pleasant,unpleasant,NA,NA,NA,NA,NA,right,1460.09999999404,true,NA,NA,NA,NA,NA,NA,NA,NA
vfH0RsU2,3z8ujejod2q8a85trwhk37uqvoc39x,3ymu66obirl46axubphyo2dfmipghr,vfH0RsU2,2020-0188,2021-10-31,02:35:36,04:08:08,NA,incomplete,false,true,NA,NA,4,6,NA,green,n_l_066.jpg,NA,NA,NA,NA,NA,pleasant,unpleasant,NA,NA,NA,NA,NA,right,2385.79999998212,true,NA,NA,NA,NA,NA,NA,NA,NA
vfH0RsU2,3z8ujejod2q8a85trwhk37uqvoc39x,3ymu66obirl46axubphyo2dfmipghr,vfH0RsU2,2020-0188,2021-10-31,02:35:36,04:08:08,NA,incomplete,false,true,NA,NA,4,7,NA,green,m_s_010.jpg,NA,NA,NA,NA,NA,pleasant,unpleasant,NA,NA,NA,NA,NA,left,1327.09999999404,true,NA,NA,NA,NA,NA,NA,NA,NA
vfH0RsU2,3z8ujejod2q8a85trwhk37uqvoc39x,3ymu66obirl46axubphyo2dfmipghr,vfH0RsU2,2020-0188,2021-10-31,02:35:36,04:08:08,NA,incomplete,false,true,NA,NA,4,8,NA,green,m_s_056.jpg,NA,NA,NA,NA,NA,pleasant,unpleasant,NA,NA,NA,NA,NA,left,1999.59999999404,true,NA,NA,NA,NA,NA,NA,NA,NA
vfH0RsU2,3z8ujejod2q8a85trwhk37uqvoc39x,3ymu66obirl46axubphyo2dfmipghr,vfH0RsU2,2020-0188,2021-10-31,02:35:36,04:08:08,NA,incomplete,false,true,NA,NA,4,9,NA,green,n_s_073.jpg,NA,NA,NA,NA,NA,pleasant,unpleasant,NA,NA,NA,NA,NA,right,1421.69999998808,true,NA,NA,NA,NA,NA,NA,NA,NA
vfH0RsU2,3z8ujejod2q8a85trwhk37uqvoc39x,3ymu66obirl46axubphyo2dfmipghr,vfH0RsU2,2020-0188,2021-10-31,02:35:36,04:08:08,NA,incomplete,false,true,NA,NA,4,10,NA,green,m_s_076.jpg,NA,NA,NA,NA,NA,unpleasant,pleasant,NA,NA,NA,NA,NA,right,1444,true,NA,NA,NA,NA,NA,NA,NA,NA
vfH0RsU2,3z8ujejod2q8a85trwhk37uqvoc39x,3ymu66obirl46axubphyo2dfmipghr,vfH0RsU2,2020-0188,2021-10-31,02:35:36,04:08:08,NA,incomplete,false,true,NA,NA,4,11,NA,green,n_s_051.jpg,NA,NA,NA,NA,NA,pleasant,unpleasant,NA,NA,NA,NA,NA,left,1196.59999999404,true,NA,NA,NA,NA,NA,NA,NA,NA
vfH0RsU2,3z8ujejod2q8a85trwhk37uqvoc39x,3ymu66obirl46axubphyo2dfmipghr,vfH0RsU2,2020-0188,2021-10-31,02:35:36,04:08:08,NA,incomplete,false,true,NA,NA,4,12,NA,brown,n_s_014.jpg,NA,NA,NA,NA,NA,unpleasant,pleasant,NA,NA,NA,NA,NA,left,969.90000000596,true,NA,NA,NA,NA,NA,NA,NA,NA
vfH0RsU2,3z8ujejod2q8a85trwhk37uqvoc39x,3ymu66obirl46axubphyo2dfmipghr,vfH0RsU2,2020-0188,2021-10-31,02:35:36,04:08:08,NA,incomplete,false,true,NA,NA,4,13,NA,brown,n_l_032.jpg,NA,NA,NA,NA,NA,unpleasant,pleasant,NA,NA,NA,NA,NA,right,1489.60000002384,true,NA,NA,NA,NA,NA,NA,NA,NA
vfH0RsU2,3z8ujejod2q8a85trwhk37uqvoc39x,3ymu66obirl46axubphyo2dfmipghr,vfH0RsU2,2020-0188,2021-10-31,02:35:36,04:08:08,NA,incomplete,false,true,NA,NA,4,14,NA,brown,n_s_063.jpg,NA,NA,NA,NA,NA,unpleasant,pleasant,NA,NA,NA,NA,NA,left,1936.60000002384,true,NA,NA,NA,NA,NA,NA,NA,NA
vfH0RsU2,3z8ujejod2q8a85trwhk37uqvoc39x,3ymu66obirl46axubphyo2dfmipghr,vfH0RsU2,2020-0188,2021-10-31,02:35:36,04:08:08,NA,incomplete,false,true,NA,NA,4,15,NA,brown,n_l_074.jpg,NA,NA,NA,NA,NA,pleasant,unpleasant,NA,NA,NA,NA,NA,right,1549.5,true,NA,NA,NA,NA,NA,NA,NA,NA
vfH0RsU2,3z8ujejod2q8a85trwhk37uqvoc39x,3ymu66obirl46axubphyo2dfmipghr,vfH0RsU2,2020-0188,2021-10-31,02:35:36,04:08:08,NA,incomplete,false,true,NA,NA,4,16,NA,brown,m_s_011.jpg,NA,NA,NA,NA,NA,pleasant,unpleasant,NA,NA,NA,NA,NA,left,1649.19999998808,true,NA,NA,NA,NA,NA,NA,NA,NA
vfH0RsU2,3z8ujejod2q8a85trwhk37uqvoc39x,3ymu66obirl46axubphyo2dfmipghr,vfH0RsU2,2020-0188,2021-10-31,02:35:36,04:08:08,NA,incomplete,false,true,NA,NA,4,17,NA,brown,m_s_087.jpg,NA,NA,NA,NA,NA,unpleasant,pleasant,NA,NA,NA,NA,NA,left,1750.69999998808,true,NA,NA,NA,NA,NA,NA,NA,NA
vfH0RsU2,3z8ujejod2q8a85trwhk37uqvoc39x,3ymu66obirl46axubphyo2dfmipghr,vfH0RsU2,2020-0188,2021-10-31,02:35:36,04:08:08,NA,incomplete,false,true,NA,NA,4,18,NA,blue,m_s_103.jpg,NA,NA,NA,NA,NA,unpleasant,pleasant,NA,NA,NA,NA,NA,right,1481,true,NA,NA,NA,NA,NA,NA,NA,NA
vfH0RsU2,3z8ujejod2q8a85trwhk37uqvoc39x,3ymu66obirl46axubphyo2dfmipghr,vfH0RsU2,2020-0188,2021-10-31,02:35:36,04:08:08,NA,incomplete,false,true,NA,NA,4,19,NA,blue,m_l_033.jpg,NA,NA,NA,NA,NA,pleasant,unpleasant,NA,NA,NA,NA,NA,left,1519.59999999404,true,NA,NA,NA,NA,NA,NA,NA,NA
vfH0RsU2,3z8ujejod2q8a85trwhk37uqvoc39x,3ymu66obirl46axubphyo2dfmipghr,vfH0RsU2,2020-0188,2021-10-31,02:35:36,04:08:08,NA,incomplete,false,true,NA,NA,4,20,NA,blue,n_l_113.jpg,NA,NA,NA,NA,NA,pleasant,unpleasant,NA,NA,NA,NA,NA,right,1219.59999999404,true,NA,NA,NA,NA,NA,NA,NA,NA
vfH0RsU2,3z8ujejod2q8a85trwhk37uqvoc39x,3ymu66obirl46axubphyo2dfmipghr,vfH0RsU2,2020-0188,2021-10-31,02:35:36,04:08:08,NA,incomplete,false,true,NA,NA,4,21,NA,blue,m_s_055.jpg,NA,NA,NA,NA,NA,unpleasant,pleasant,NA,NA,NA,NA,NA,right,1501.70000001788,true,NA,NA,NA,NA,NA,NA,NA,NA
vfH0RsU2,3z8ujejod2q8a85trwhk37uqvoc39x,3ymu66obirl46axubphyo2dfmipghr,vfH0RsU2,2020-0188,2021-10-31,02:35:36,04:08:08,NA,incomplete,false,true,NA,NA,4,22,NA,blue,n_l_035.jpg,NA,NA,NA,NA,NA,unpleasant,pleasant,NA,NA,NA,NA,NA,left,1163.79999998212,true,NA,NA,NA,NA,NA,NA,NA,NA
vfH0RsU2,3z8ujejod2q8a85trwhk37uqvoc39x,3ymu66obirl46axubphyo2dfmipghr,vfH0RsU2,2020-0188,2021-10-31,02:35:36,04:08:08,NA,incomplete,false,true,NA,NA,4,23,NA,blue,n_l_019.jpg,NA,NA,NA,NA,NA,unpleasant,pleasant,NA,NA,NA,NA,NA,left,1213.29999998212,true,NA,NA,NA,NA,NA,NA,NA,NA
vfH0RsU2,3z8ujejod2q8a85trwhk37uqvoc39x,3ymu66obirl46axubphyo2dfmipghr,vfH0RsU2,2020-0188,2021-10-31,02:35:36,04:08:08,NA,incomplete,false,true,NA,NA,4,24,NA,orange,m_l_047.jpg,NA,NA,NA,NA,NA,unpleasant,pleasant,NA,NA,NA,NA,NA,left,2268.29999998212,true,NA,NA,NA,NA,NA,NA,NA,NA
vfH0RsU2,3z8ujejod2q8a85trwhk37uqvoc39x,3ymu66obirl46axubphyo2dfmipghr,vfH0RsU2,2020-0188,2021-10-31,02:35:36,04:08:08,NA,incomplete,false,true,NA,NA,4,25,NA,orange,n_l_109.jpg,NA,NA,NA,NA,NA,unpleasant,pleasant,NA,NA,NA,NA,NA,left,1292.69999998808,true,NA,NA,NA,NA,NA,NA,NA,NA
vfH0RsU2,3z8ujejod2q8a85trwhk37uqvoc39x,3ymu66obirl46axubphyo2dfmipghr,vfH0RsU2,2020-0188,2021-10-31,02:35:36,04:08:08,NA,incomplete,false,true,NA,NA,4,26,NA,orange,n_s_024.jpg,NA,NA,NA,NA,NA,unpleasant,pleasant,NA,NA,NA,NA,NA,left,1349,true,NA,NA,NA,NA,NA,NA,NA,NA
vfH0RsU2,3z8ujejod2q8a85trwhk37uqvoc39x,3ymu66obirl46axubphyo2dfmipghr,vfH0RsU2,2020-0188,2021-10-31,02:35:36,04:08:08,NA,incomplete,false,true,NA,NA,4,27,NA,orange,m_s_074.jpg,NA,NA,NA,NA,NA,unpleasant,pleasant,NA,NA,NA,NA,NA,right,1412.19999998808,true,NA,NA,NA,NA,NA,NA,NA,NA
vfH0RsU2,3z8ujejod2q8a85trwhk37uqvoc39x,3ymu66obirl46axubphyo2dfmipghr,vfH0RsU2,2020-0188,2021-10-31,02:35:36,04:08:08,NA,incomplete,false,true,NA,NA,4,28,NA,orange,n_l_055.jpg,NA,NA,NA,NA,NA,unpleasant,pleasant,NA,NA,NA,NA,NA,left,1283.79999998212,true,NA,NA,NA,NA,NA,NA,NA,NA
vfH0RsU2,3z8ujejod2q8a85trwhk37uqvoc39x,3ymu66obirl46axubphyo2dfmipghr,vfH0RsU2,2020-0188,2021-10-31,02:35:36,04:08:08,NA,incomplete,false,true,NA,NA,4,29,NA,orange,m_s_080.jpg,NA,NA,NA,NA,NA,pleasant,unpleasant,NA,NA,NA,NA,NA,left,1682.80000001192,true,NA,NA,NA,NA,NA,NA,NA,NA
vfH0RsU2,3z8ujejod2q8a85trwhk37uqvoc39x,3ymu66obirl46axubphyo2dfmipghr,vfH0RsU2,2020-0188,2021-10-31,02:35:36,04:08:08,NA,incomplete,false,true,NA,NA,4,30,NA,gray,n_s_069.jpg,NA,NA,NA,NA,NA,pleasant,unpleasant,NA,NA,NA,NA,NA,right,1266.5,true,NA,NA,NA,NA,NA,NA,NA,NA
vfH0RsU2,3z8ujejod2q8a85trwhk37uqvoc39x,3ymu66obirl46axubphyo2dfmipghr,vfH0RsU2,2020-0188,2021-10-31,02:35:36,04:08:08,NA,incomplete,false,true,NA,NA,4,31,NA,gray,m_l_078.jpg,NA,NA,NA,NA,NA,unpleasant,pleasant,NA,NA,NA,NA,NA,left,1609.30000001192,true,NA,NA,NA,NA,NA,NA,NA,NA
vfH0RsU2,3z8ujejod2q8a85trwhk37uqvoc39x,3ymu66obirl46axubphyo2dfmipghr,vfH0RsU2,2020-0188,2021-10-31,02:35:36,04:08:08,NA,incomplete,false,true,NA,NA,4,32,NA,gray,n_l_071.jpg,NA,NA,NA,NA,NA,pleasant,unpleasant,NA,NA,NA,NA,NA,right,1284.59999999404,true,NA,NA,NA,NA,NA,NA,NA,NA
vfH0RsU2,3z8ujejod2q8a85trwhk37uqvoc39x,3ymu66obirl46axubphyo2dfmipghr,vfH0RsU2,2020-0188,2021-10-31,02:35:36,04:08:08,NA,incomplete,false,true,NA,NA,4,33,NA,gray,m_s_026.jpg,NA,NA,NA,NA,NA,pleasant,unpleasant,NA,NA,NA,NA,NA,right,1165,true,NA,NA,NA,NA,NA,NA,NA,NA
vfH0RsU2,3z8ujejod2q8a85trwhk37uqvoc39x,3ymu66obirl46axubphyo2dfmipghr,vfH0RsU2,2020-0188,2021-10-31,02:35:36,04:08:08,NA,incomplete,false,true,NA,NA,4,34,NA,gray,m_s_086.jpg,NA,NA,NA,NA,NA,pleasant,unpleasant,NA,NA,NA,NA,NA,right,1618.09999999404,true,NA,NA,NA,NA,NA,NA,NA,NA
vfH0RsU2,3z8ujejod2q8a85trwhk37uqvoc39x,3ymu66obirl46axubphyo2dfmipghr,vfH0RsU2,2020-0188,2021-10-31,02:35:36,04:08:08,NA,incomplete,false,true,NA,NA,4,35,NA,gray,n_l_091.jpg,NA,NA,NA,NA,NA,unpleasant,pleasant,NA,NA,NA,NA,NA,left,1867.09999999404,true,NA,NA,NA,NA,NA,NA,NA,NA
vfH0RsU2,3z8ujejod2q8a85trwhk37uqvoc39x,3ymu66obirl46axubphyo2dfmipghr,vfH0RsU2,2020-0188,2021-10-31,02:35:36,04:08:08,NA,incomplete,false,NA,NA,true,4,0,NA,NA,NA,right,m_s_087.jpg,green,brown,NA,NA,NA,NA,NA,NA,NA,NA,NA,NaN,NA,2659.2999999821186,right,1,NA,NA,NA,NA,NA
vfH0RsU2,3z8ujejod2q8a85trwhk37uqvoc39x,3ymu66obirl46axubphyo2dfmipghr,vfH0RsU2,2020-0188,2021-10-31,02:35:36,04:08:08,NA,incomplete,false,NA,NA,true,4,1,NA,NA,NA,right,n_l_032.jpg,green,brown,NA,NA,NA,NA,NA,NA,NA,NA,NA,NaN,NA,2051.199999988079,right,1,NA,NA,NA,NA,NA
vfH0RsU2,3z8ujejod2q8a85trwhk37uqvoc39x,3ymu66obirl46axubphyo2dfmipghr,vfH0RsU2,2020-0188,2021-10-31,02:35:36,04:08:08,NA,incomplete,false,NA,NA,true,4,2,NA,NA,NA,left,m_s_011.jpg,brown,blue,NA,NA,NA,NA,NA,NA,NA,NA,NA,NaN,NA,6120.5,right,0,NA,NA,NA,NA,NA
vfH0RsU2,3z8ujejod2q8a85trwhk37uqvoc39x,3ymu66obirl46axubphyo2dfmipghr,vfH0RsU2,2020-0188,2021-10-31,02:35:36,04:08:08,NA,incomplete,false,NA,NA,true,4,3,NA,NA,NA,left,n_s_051.jpg,green,brown,NA,NA,NA,NA,NA,NA,NA,NA,NA,NaN,NA,2152.5,left,1,NA,NA,NA,NA,NA
vfH0RsU2,3z8ujejod2q8a85trwhk37uqvoc39x,3ymu66obirl46axubphyo2dfmipghr,vfH0RsU2,2020-0188,2021-10-31,02:35:36,04:08:08,NA,incomplete,false,NA,NA,true,4,4,NA,NA,NA,right,n_s_024.jpg,blue,orange,NA,NA,NA,NA,NA,NA,NA,NA,NA,NaN,NA,2666.2000000178814,right,1,NA,NA,NA,NA,NA
vfH0RsU2,3z8ujejod2q8a85trwhk37uqvoc39x,3ymu66obirl46axubphyo2dfmipghr,vfH0RsU2,2020-0188,2021-10-31,02:35:36,04:08:08,NA,incomplete,false,NA,NA,true,4,5,NA,NA,NA,right,n_l_071.jpg,orange,gray,NA,NA,NA,NA,NA,NA,NA,NA,NA,NaN,NA,3184.5,right,1,NA,NA,NA,NA,NA
vfH0RsU2,3z8ujejod2q8a85trwhk37uqvoc39x,3ymu66obirl46axubphyo2dfmipghr,vfH0RsU2,2020-0188,2021-10-31,02:35:36,04:08:08,NA,incomplete,false,NA,NA,true,4,6,NA,NA,NA,left,n_l_113.jpg,blue,orange,NA,NA,NA,NA,NA,NA,NA,NA,NA,NaN,NA,2344.0999999940395,left,1,NA,NA,NA,NA,NA
vfH0RsU2,3z8ujejod2q8a85trwhk37uqvoc39x,3ymu66obirl46axubphyo2dfmipghr,vfH0RsU2,2020-0188,2021-10-31,02:35:36,04:08:08,NA,incomplete,false,NA,NA,true,4,7,NA,NA,NA,left,n_l_055.jpg,orange,blue,NA,NA,NA,NA,NA,NA,NA,NA,NA,NaN,NA,2363.4000000059605,left,1,NA,NA,NA,NA,NA
vfH0RsU2,3z8ujejod2q8a85trwhk37uqvoc39x,3ymu66obirl46axubphyo2dfmipghr,vfH0RsU2,2020-0188,2021-10-31,02:35:36,04:08:08,NA,incomplete,false,NA,NA,true,4,8,NA,NA,NA,right,m_s_061.jpg,green,black,NA,NA,NA,NA,NA,NA,NA,NA,NA,NaN,NA,1761.699999988079,right,1,NA,NA,NA,NA,NA
vfH0RsU2,3z8ujejod2q8a85trwhk37uqvoc39x,3ymu66obirl46axubphyo2dfmipghr,vfH0RsU2,2020-0188,2021-10-31,02:35:36,04:08:08,NA,incomplete,false,NA,NA,true,4,9,NA,NA,NA,right,n_l_019.jpg,brown,blue,NA,NA,NA,NA,NA,NA,NA,NA,NA,NaN,NA,2863.9000000059605,right,1,NA,NA,NA,NA,NA
vfH0RsU2,3z8ujejod2q8a85trwhk37uqvoc39x,3ymu66obirl46axubphyo2dfmipghr,vfH0RsU2,2020-0188,2021-10-31,02:35:36,04:08:08,NA,incomplete,false,NA,NA,true,4,10,NA,NA,NA,left,n_l_035.jpg,blue,brown,NA,NA,NA,NA,NA,NA,NA,NA,NA,NaN,NA,3260,left,1,NA,NA,NA,NA,NA
vfH0RsU2,3z8ujejod2q8a85trwhk37uqvoc39x,3ymu66obirl46axubphyo2dfmipghr,vfH0RsU2,2020-0188,2021-10-31,02:35:36,04:08:08,NA,incomplete,false,NA,NA,true,4,11,NA,NA,NA,left,n_l_077.jpg,black,green,NA,NA,NA,NA,NA,NA,NA,NA,NA,NaN,NA,3786.5999999940395,left,1,NA,NA,NA,NA,NA
vfH0RsU2,3z8ujejod2q8a85trwhk37uqvoc39x,3ymu66obirl46axubphyo2dfmipghr,vfH0RsU2,2020-0188,2021-10-31,02:35:36,04:08:08,NA,incomplete,false,NA,NA,true,4,12,NA,NA,NA,right,m_s_080.jpg,blue,orange,NA,NA,NA,NA,NA,NA,NA,NA,NA,NaN,NA,2153.300000011921,right,1,NA,NA,NA,NA,NA
vfH0RsU2,3z8ujejod2q8a85trwhk37uqvoc39x,3ymu66obirl46axubphyo2dfmipghr,vfH0RsU2,2020-0188,2021-10-31,02:35:36,04:08:08,NA,incomplete,false,NA,NA,true,4,13,NA,NA,NA,left,n_l_028.jpg,black,green,NA,NA,NA,NA,NA,NA,NA,NA,NA,NaN,NA,5142.700000017881,left,1,NA,NA,NA,NA,NA
vfH0RsU2,3z8ujejod2q8a85trwhk37uqvoc39x,3ymu66obirl46axubphyo2dfmipghr,vfH0RsU2,2020-0188,2021-10-31,02:35:36,04:08:08,NA,incomplete,false,NA,NA,true,4,14,NA,NA,NA,left,m_s_056.jpg,green,brown,NA,NA,NA,NA,NA,NA,NA,NA,NA,NaN,NA,2515.9000000059605,left,1,NA,NA,NA,NA,NA
vfH0RsU2,3z8ujejod2q8a85trwhk37uqvoc39x,3ymu66obirl46axubphyo2dfmipghr,vfH0RsU2,2020-0188,2021-10-31,02:35:36,04:08:08,NA,incomplete,false,NA,NA,true,4,15,NA,NA,NA,left,m_l_078.jpg,gray,orange,NA,NA,NA,NA,NA,NA,NA,NA,NA,NaN,NA,2830.300000011921,left,1,NA,NA,NA,NA,NA
vfH0RsU2,3z8ujejod2q8a85trwhk37uqvoc39x,3ymu66obirl46axubphyo2dfmipghr,vfH0RsU2,2020-0188,2021-10-31,02:35:36,04:08:08,NA,incomplete,false,NA,NA,true,4,16,NA,NA,NA,right,m_s_076.jpg,black,green,NA,NA,NA,NA,NA,NA,NA,NA,NA,NaN,NA,2159.800000011921,right,1,NA,NA,NA,NA,NA
vfH0RsU2,3z8ujejod2q8a85trwhk37uqvoc39x,3ymu66obirl46axubphyo2dfmipghr,vfH0RsU2,2020-0188,2021-10-31,02:35:36,04:08:08,NA,incomplete,false,NA,NA,true,4,17,NA,NA,NA,right,m_s_010.jpg,brown,green,NA,NA,NA,NA,NA,NA,NA,NA,NA,NaN,NA,3110.399999976158,right,1,NA,NA,NA,NA,NA
vfH0RsU2,3z8ujejod2q8a85trwhk37uqvoc39x,3ymu66obirl46axubphyo2dfmipghr,vfH0RsU2,2020-0188,2021-10-31,02:35:36,04:08:08,NA,incomplete,false,NA,NA,true,4,18,NA,NA,NA,left,m_l_033.jpg,blue,orange,NA,NA,NA,NA,NA,NA,NA,NA,NA,NaN,NA,2610.5,right,0,NA,NA,NA,NA,NA
vfH0RsU2,3z8ujejod2q8a85trwhk37uqvoc39x,3ymu66obirl46axubphyo2dfmipghr,vfH0RsU2,2020-0188,2021-10-31,02:35:36,04:08:08,NA,incomplete,false,NA,NA,true,4,19,NA,NA,NA,left,n_l_109.jpg,orange,blue,NA,NA,NA,NA,NA,NA,NA,NA,NA,NaN,NA,5157.100000023842,left,1,NA,NA,NA,NA,NA
vfH0RsU2,3z8ujejod2q8a85trwhk37uqvoc39x,3ymu66obirl46axubphyo2dfmipghr,vfH0RsU2,2020-0188,2021-10-31,02:35:36,04:08:08,NA,incomplete,false,NA,NA,true,4,20,NA,NA,NA,left,n_s_063.jpg,brown,green,NA,NA,NA,NA,NA,NA,NA,NA,NA,NaN,NA,3151.300000011921,left,1,NA,NA,NA,NA,NA
vfH0RsU2,3z8ujejod2q8a85trwhk37uqvoc39x,3ymu66obirl46axubphyo2dfmipghr,vfH0RsU2,2020-0188,2021-10-31,02:35:36,04:08:08,NA,incomplete,false,NA,NA,true,4,21,NA,NA,NA,right,n_l_091.jpg,orange,gray,NA,NA,NA,NA,NA,NA,NA,NA,NA,NaN,NA,3827.5999999940395,right,1,NA,NA,NA,NA,NA
vfH0RsU2,3z8ujejod2q8a85trwhk37uqvoc39x,3ymu66obirl46axubphyo2dfmipghr,vfH0RsU2,2020-0188,2021-10-31,02:35:36,04:08:08,NA,incomplete,false,NA,true,NA,4,0,NA,NA,NA,right,NA,NA,NA,present,NA,NA,n_s_024.jpg,orange,n_l_035.jpg,blue,between,NA,NaN,NA,NA,NA,NA,right,7524.199999988079,1,2,2587.699999988079
vfH0RsU2,3z8ujejod2q8a85trwhk37uqvoc39x,3ymu66obirl46axubphyo2dfmipghr,vfH0RsU2,2020-0188,2021-10-31,02:35:36,04:08:08,NA,incomplete,false,NA,true,NA,4,1,NA,NA,NA,right,NA,NA,NA,present,NA,NA,n_l_019.jpg,blue,m_l_033.jpg,blue,within,NA,NaN,NA,NA,NA,NA,right,7305.699999988079,1,0,2191.699999988079
vfH0RsU2,3z8ujejod2q8a85trwhk37uqvoc39x,3ymu66obirl46axubphyo2dfmipghr,vfH0RsU2,2020-0188,2021-10-31,02:35:36,04:08:08,NA,incomplete,false,NA,true,NA,4,2,NA,NA,NA,left,NA,NA,NA,present,NA,NA,n_l_077.jpg,black,n_l_028.jpg,black,within,NA,NaN,NA,NA,NA,NA,right,3971.800000011921,0,1,2849.7000000178814
vfH0RsU2,3z8ujejod2q8a85trwhk37uqvoc39x,3ymu66obirl46axubphyo2dfmipghr,vfH0RsU2,2020-0188,2021-10-31,02:35:36,04:08:08,NA,incomplete,false,NA,true,NA,4,3,NA,NA,NA,left,NA,NA,NA,present,NA,NA,m_s_010.jpg,green,n_s_051.jpg,green,within,NA,NaN,NA,NA,NA,NA,left,3513.300000011921,1,0,2473.4000000059605
vfH0RsU2,3z8ujejod2q8a85trwhk37uqvoc39x,3ymu66obirl46axubphyo2dfmipghr,vfH0RsU2,2020-0188,2021-10-31,02:35:36,04:08:08,NA,incomplete,false,NA,true,NA,4,4,NA,NA,NA,left,NA,NA,NA,present,NA,NA,m_s_061.jpg,black,m_s_056.jpg,green,between,NA,NaN,NA,NA,NA,NA,right,3877.5,0,2,2029.9000000059605
vfH0RsU2,3z8ujejod2q8a85trwhk37uqvoc39x,3ymu66obirl46axubphyo2dfmipghr,vfH0RsU2,2020-0188,2021-10-31,02:35:36,04:08:08,NA,incomplete,false,NA,true,NA,4,5,NA,NA,NA,left,NA,NA,NA,present,NA,NA,n_l_055.jpg,orange,n_l_071.jpg,gray,between,NA,NaN,NA,NA,NA,NA,right,11497,0,2,1839.2000000178814
vfH0RsU2,3z8ujejod2q8a85trwhk37uqvoc39x,3ymu66obirl46axubphyo2dfmipghr,vfH0RsU2,2020-0188,2021-10-31,02:35:36,04:08:08,NA,incomplete,false,NA,true,NA,4,6,NA,NA,NA,right,NA,NA,NA,present,NA,NA,n_l_091.jpg,gray,m_l_078.jpg,gray,within,NA,NaN,NA,NA,NA,NA,right,5092.600000023842,1,0,2181.0999999940395
vfH0RsU2,3z8ujejod2q8a85trwhk37uqvoc39x,3ymu66obirl46axubphyo2dfmipghr,vfH0RsU2,2020-0188,2021-10-31,02:35:36,04:08:08,NA,incomplete,false,NA,true,NA,4,7,NA,NA,NA,right,NA,NA,NA,present,NA,NA,m_s_080.jpg,orange,n_l_109.jpg,orange,within,NA,NaN,NA,NA,NA,NA,left,3152.300000011921,0,0,2064
vfH0RsU2,3z8ujejod2q8a85trwhk37uqvoc39x,3ymu66obirl46axubphyo2dfmipghr,vfH0RsU2,2020-0188,2021-10-31,02:35:36,04:08:08,NA,incomplete,false,NA,true,NA,4,8,NA,NA,NA,right,NA,NA,NA,present,NA,NA,n_l_113.jpg,blue,m_s_011.jpg,brown,between,NA,NaN,NA,NA,NA,NA,left,6050.5999999940395,0,3,1634.2000000178814
vfH0RsU2,3z8ujejod2q8a85trwhk37uqvoc39x,3ymu66obirl46axubphyo2dfmipghr,vfH0RsU2,2020-0188,2021-10-31,02:35:36,04:08:08,NA,incomplete,false,NA,true,NA,4,9,NA,NA,NA,left,NA,NA,NA,present,NA,NA,m_s_076.jpg,green,n_s_063.jpg,brown,between,NA,NaN,NA,NA,NA,NA,left,4684.899999976158,1,2,1647.0999999940395
vfH0RsU2,3z8ujejod2q8a85trwhk37uqvoc39x,3ymu66obirl46axubphyo2dfmipghr,vfH0RsU2,2020-0188,2021-10-31,02:35:36,04:08:08,NA,incomplete,false,NA,true,NA,4,10,NA,NA,NA,right,NA,NA,NA,present,NA,NA,m_s_087.jpg,brown,n_l_032.jpg,brown,within,NA,NaN,NA,NA,NA,NA,right,4158.5999999940395,1,0,1968.300000011921
vfH0RsU2,3z8ujejod2q8a85trwhk37uqvoc39x,3ymu66obirl46axubphyo2dfmipghr,vfH0RsU2,2020-0188,2021-10-31,02:35:36,04:08:08,NA,incomplete,false,true,NA,NA,5,0,NA,blue,m_l_100.jpg,NA,NA,NA,NA,NA,unpleasant,pleasant,NA,NA,NA,NA,NA,none,0,false,NA,NA,NA,NA,NA,NA,NA,NA
vfH0RsU2,3z8ujejod2q8a85trwhk37uqvoc39x,3ymu66obirl46axubphyo2dfmipghr,vfH0RsU2,2020-0188,2021-10-31,02:35:36,04:08:08,NA,incomplete,false,true,NA,NA,5,1,NA,blue,m_l_087.jpg,NA,NA,NA,NA,NA,unpleasant,pleasant,NA,NA,NA,NA,NA,right,1324.40000000596,true,NA,NA,NA,NA,NA,NA,NA,NA
vfH0RsU2,3z8ujejod2q8a85trwhk37uqvoc39x,3ymu66obirl46axubphyo2dfmipghr,vfH0RsU2,2020-0188,2021-10-31,02:35:36,04:08:08,NA,incomplete,false,true,NA,NA,5,2,NA,blue,n_l_013.jpg,NA,NA,NA,NA,NA,unpleasant,pleasant,NA,NA,NA,NA,NA,left,1144.80000001192,true,NA,NA,NA,NA,NA,NA,NA,NA
vfH0RsU2,3z8ujejod2q8a85trwhk37uqvoc39x,3ymu66obirl46axubphyo2dfmipghr,vfH0RsU2,2020-0188,2021-10-31,02:35:36,04:08:08,NA,incomplete,false,true,NA,NA,5,3,NA,blue,n_l_105.jpg,NA,NA,NA,NA,NA,pleasant,unpleasant,NA,NA,NA,NA,NA,right,1948.90000000596,true,NA,NA,NA,NA,NA,NA,NA,NA
vfH0RsU2,3z8ujejod2q8a85trwhk37uqvoc39x,3ymu66obirl46axubphyo2dfmipghr,vfH0RsU2,2020-0188,2021-10-31,02:35:36,04:08:08,NA,incomplete,false,true,NA,NA,5,4,NA,blue,m_l_081.jpg,NA,NA,NA,NA,NA,unpleasant,pleasant,NA,NA,NA,NA,NA,right,2145.19999998808,true,NA,NA,NA,NA,NA,NA,NA,NA
vfH0RsU2,3z8ujejod2q8a85trwhk37uqvoc39x,3ymu66obirl46axubphyo2dfmipghr,vfH0RsU2,2020-0188,2021-10-31,02:35:36,04:08:08,NA,incomplete,false,true,NA,NA,5,5,NA,blue,m_l_028.jpg,NA,NA,NA,NA,NA,pleasant,unpleasant,NA,NA,NA,NA,NA,left,1423.79999998212,true,NA,NA,NA,NA,NA,NA,NA,NA
vfH0RsU2,3z8ujejod2q8a85trwhk37uqvoc39x,3ymu66obirl46axubphyo2dfmipghr,vfH0RsU2,2020-0188,2021-10-31,02:35:36,04:08:08,NA,incomplete,false,true,NA,NA,5,6,NA,green,m_l_061.jpg,NA,NA,NA,NA,NA,unpleasant,pleasant,NA,NA,NA,NA,NA,right,1957.89999997616,true,NA,NA,NA,NA,NA,NA,NA,NA
vfH0RsU2,3z8ujejod2q8a85trwhk37uqvoc39x,3ymu66obirl46axubphyo2dfmipghr,vfH0RsU2,2020-0188,2021-10-31,02:35:36,04:08:08,NA,incomplete,false,true,NA,NA,5,7,NA,green,n_l_011.jpg,NA,NA,NA,NA,NA,unpleasant,pleasant,NA,NA,NA,NA,NA,left,1140.09999999404,true,NA,NA,NA,NA,NA,NA,NA,NA
vfH0RsU2,3z8ujejod2q8a85trwhk37uqvoc39x,3ymu66obirl46axubphyo2dfmipghr,vfH0RsU2,2020-0188,2021-10-31,02:35:36,04:08:08,NA,incomplete,false,true,NA,NA,5,8,NA,green,n_s_045.jpg,NA,NA,NA,NA,NA,pleasant,unpleasant,NA,NA,NA,NA,NA,right,2093.09999999404,true,NA,NA,NA,NA,NA,NA,NA,NA
vfH0RsU2,3z8ujejod2q8a85trwhk37uqvoc39x,3ymu66obirl46axubphyo2dfmipghr,vfH0RsU2,2020-0188,2021-10-31,02:35:36,04:08:08,NA,incomplete,false,true,NA,NA,5,9,NA,green,m_s_113.jpg,NA,NA,NA,NA,NA,unpleasant,pleasant,NA,NA,NA,NA,NA,right,1529.70000001788,true,NA,NA,NA,NA,NA,NA,NA,NA
vfH0RsU2,3z8ujejod2q8a85trwhk37uqvoc39x,3ymu66obirl46axubphyo2dfmipghr,vfH0RsU2,2020-0188,2021-10-31,02:35:36,04:08:08,NA,incomplete,false,true,NA,NA,5,10,NA,green,n_l_030.jpg,NA,NA,NA,NA,NA,pleasant,unpleasant,NA,NA,NA,NA,NA,left,2108.70000001788,true,NA,NA,NA,NA,NA,NA,NA,NA
vfH0RsU2,3z8ujejod2q8a85trwhk37uqvoc39x,3ymu66obirl46axubphyo2dfmipghr,vfH0RsU2,2020-0188,2021-10-31,02:35:36,04:08:08,NA,incomplete,false,true,NA,NA,5,11,NA,green,m_l_053.jpg,NA,NA,NA,NA,NA,unpleasant,pleasant,NA,NA,NA,NA,NA,right,1650.79999998212,true,NA,NA,NA,NA,NA,NA,NA,NA
vfH0RsU2,3z8ujejod2q8a85trwhk37uqvoc39x,3ymu66obirl46axubphyo2dfmipghr,vfH0RsU2,2020-0188,2021-10-31,02:35:36,04:08:08,NA,incomplete,false,true,NA,NA,5,12,NA,brown,n_s_093.jpg,NA,NA,NA,NA,NA,unpleasant,pleasant,NA,NA,NA,NA,NA,left,1590,true,NA,NA,NA,NA,NA,NA,NA,NA
vfH0RsU2,3z8ujejod2q8a85trwhk37uqvoc39x,3ymu66obirl46axubphyo2dfmipghr,vfH0RsU2,2020-0188,2021-10-31,02:35:36,04:08:08,NA,incomplete,false,true,NA,NA,5,13,NA,brown,m_l_116.jpg,NA,NA,NA,NA,NA,pleasant,unpleasant,NA,NA,NA,NA,NA,right,1555.09999999404,true,NA,NA,NA,NA,NA,NA,NA,NA
vfH0RsU2,3z8ujejod2q8a85trwhk37uqvoc39x,3ymu66obirl46axubphyo2dfmipghr,vfH0RsU2,2020-0188,2021-10-31,02:35:36,04:08:08,NA,incomplete,false,true,NA,NA,5,14,NA,brown,n_s_114.jpg,NA,NA,NA,NA,NA,pleasant,unpleasant,NA,NA,NA,NA,NA,right,1222.69999998808,true,NA,NA,NA,NA,NA,NA,NA,NA
vfH0RsU2,3z8ujejod2q8a85trwhk37uqvoc39x,3ymu66obirl46axubphyo2dfmipghr,vfH0RsU2,2020-0188,2021-10-31,02:35:36,04:08:08,NA,incomplete,false,true,NA,NA,5,15,NA,brown,m_s_073.jpg,NA,NA,NA,NA,NA,pleasant,unpleasant,NA,NA,NA,NA,NA,right,1556.80000001192,true,NA,NA,NA,NA,NA,NA,NA,NA
vfH0RsU2,3z8ujejod2q8a85trwhk37uqvoc39x,3ymu66obirl46axubphyo2dfmipghr,vfH0RsU2,2020-0188,2021-10-31,02:35:36,04:08:08,NA,incomplete,false,true,NA,NA,5,16,NA,brown,n_s_082.jpg,NA,NA,NA,NA,NA,pleasant,unpleasant,NA,NA,NA,NA,NA,right,1344.09999999404,true,NA,NA,NA,NA,NA,NA,NA,NA
