workerId,hitId,assignmentId,subject,studyid,exp_date,exp_start,exp_end,time_start,time_end,practice,encoding,memory,association,block,trial,event_order,event,stim,answer,object,left_context,right_context,context_type,label_left,label_right,left_image,left_event,right_image,right_event,condition,response,response_time,response_acc,association_response_time,association_response,association_acc,order_response,order_response_time,order_acc,distance_response,distance_response_time
aGIQgblM,3k2cedradeesg9mhvkrgq648pmomto,3zwfc4w1uykbh4f2wanaklf98bsrf3,aGIQgblM,2020-0188,2021-10-30,21:43:22,23:21:13,NA,incomplete,true,true,NA,NA,0,0,NA,white,n_s_116.jpg,NA,NA,NA,NA,NA,pleasant,unpleasant,NA,NA,NA,NA,NA,right,2163.39999997616,true,NA,NA,NA,NA,NA,NA,NA,NA
aGIQgblM,3k2cedradeesg9mhvkrgq648pmomto,3zwfc4w1uykbh4f2wanaklf98bsrf3,aGIQgblM,2020-0188,2021-10-30,21:43:22,23:21:13,NA,incomplete,true,true,NA,NA,0,1,NA,white,m_s_082.jpg,NA,NA,NA,NA,NA,unpleasant,pleasant,NA,NA,NA,NA,NA,left,2123.59999999404,true,NA,NA,NA,NA,NA,NA,NA,NA
aGIQgblM,3k2cedradeesg9mhvkrgq648pmomto,3zwfc4w1uykbh4f2wanaklf98bsrf3,aGIQgblM,2020-0188,2021-10-30,21:43:22,23:21:13,NA,incomplete,true,true,NA,NA,0,2,NA,white,n_l_022.jpg,NA,NA,NA,NA,NA,unpleasant,pleasant,NA,NA,NA,NA,NA,right,1052.59999999404,true,NA,NA,NA,NA,NA,NA,NA,NA
aGIQgblM,3k2cedradeesg9mhvkrgq648pmomto,3zwfc4w1uykbh4f2wanaklf98bsrf3,aGIQgblM,2020-0188,2021-10-30,21:43:22,23:21:13,NA,incomplete,true,true,NA,NA,0,3,NA,white,n_l_056.jpg,NA,NA,NA,NA,NA,pleasant,unpleasant,NA,NA,NA,NA,NA,left,1651.69999998808,true,NA,NA,NA,NA,NA,NA,NA,NA
aGIQgblM,3k2cedradeesg9mhvkrgq648pmomto,3zwfc4w1uykbh4f2wanaklf98bsrf3,aGIQgblM,2020-0188,2021-10-30,21:43:22,23:21:13,NA,incomplete,true,true,NA,NA,0,4,NA,white,n_l_046.jpg,NA,NA,NA,NA,NA,unpleasant,pleasant,NA,NA,NA,NA,NA,right,1172.69999998808,true,NA,NA,NA,NA,NA,NA,NA,NA
aGIQgblM,3k2cedradeesg9mhvkrgq648pmomto,3zwfc4w1uykbh4f2wanaklf98bsrf3,aGIQgblM,2020-0188,2021-10-30,21:43:22,23:21:13,NA,incomplete,true,true,NA,NA,0,5,NA,white,m_l_093.jpg,NA,NA,NA,NA,NA,pleasant,unpleasant,NA,NA,NA,NA,NA,left,1766.60000002384,true,NA,NA,NA,NA,NA,NA,NA,NA
aGIQgblM,3k2cedradeesg9mhvkrgq648pmomto,3zwfc4w1uykbh4f2wanaklf98bsrf3,aGIQgblM,2020-0188,2021-10-30,21:43:22,23:21:13,NA,incomplete,true,true,NA,NA,0,6,NA,black,n_l_108.jpg,NA,NA,NA,NA,NA,unpleasant,pleasant,NA,NA,NA,NA,NA,right,1267.59999999404,true,NA,NA,NA,NA,NA,NA,NA,NA
aGIQgblM,3k2cedradeesg9mhvkrgq648pmomto,3zwfc4w1uykbh4f2wanaklf98bsrf3,aGIQgblM,2020-0188,2021-10-30,21:43:22,23:21:13,NA,incomplete,true,true,NA,NA,0,7,NA,black,n_l_068.jpg,NA,NA,NA,NA,NA,pleasant,unpleasant,NA,NA,NA,NA,NA,left,1094.60000002384,true,NA,NA,NA,NA,NA,NA,NA,NA
aGIQgblM,3k2cedradeesg9mhvkrgq648pmomto,3zwfc4w1uykbh4f2wanaklf98bsrf3,aGIQgblM,2020-0188,2021-10-30,21:43:22,23:21:13,NA,incomplete,true,true,NA,NA,0,8,NA,black,m_s_063.jpg,NA,NA,NA,NA,NA,pleasant,unpleasant,NA,NA,NA,NA,NA,left,1222.80000001192,true,NA,NA,NA,NA,NA,NA,NA,NA
aGIQgblM,3k2cedradeesg9mhvkrgq648pmomto,3zwfc4w1uykbh4f2wanaklf98bsrf3,aGIQgblM,2020-0188,2021-10-30,21:43:22,23:21:13,NA,incomplete,true,true,NA,NA,0,9,NA,black,n_l_020.jpg,NA,NA,NA,NA,NA,pleasant,unpleasant,NA,NA,NA,NA,NA,left,1068.30000001192,true,NA,NA,NA,NA,NA,NA,NA,NA
aGIQgblM,3k2cedradeesg9mhvkrgq648pmomto,3zwfc4w1uykbh4f2wanaklf98bsrf3,aGIQgblM,2020-0188,2021-10-30,21:43:22,23:21:13,NA,incomplete,true,true,NA,NA,0,10,NA,black,m_s_074.jpg,NA,NA,NA,NA,NA,unpleasant,pleasant,NA,NA,NA,NA,NA,left,1529.80000001192,true,NA,NA,NA,NA,NA,NA,NA,NA
aGIQgblM,3k2cedradeesg9mhvkrgq648pmomto,3zwfc4w1uykbh4f2wanaklf98bsrf3,aGIQgblM,2020-0188,2021-10-30,21:43:22,23:21:13,NA,incomplete,true,true,NA,NA,0,11,NA,black,n_s_030.jpg,NA,NA,NA,NA,NA,unpleasant,pleasant,NA,NA,NA,NA,NA,right,1017.5,true,NA,NA,NA,NA,NA,NA,NA,NA
aGIQgblM,3k2cedradeesg9mhvkrgq648pmomto,3zwfc4w1uykbh4f2wanaklf98bsrf3,aGIQgblM,2020-0188,2021-10-30,21:43:22,23:21:13,NA,incomplete,true,true,NA,NA,0,12,NA,yellow,m_l_069.jpg,NA,NA,NA,NA,NA,unpleasant,pleasant,NA,NA,NA,NA,NA,left,1340.59999999404,true,NA,NA,NA,NA,NA,NA,NA,NA
aGIQgblM,3k2cedradeesg9mhvkrgq648pmomto,3zwfc4w1uykbh4f2wanaklf98bsrf3,aGIQgblM,2020-0188,2021-10-30,21:43:22,23:21:13,NA,incomplete,true,true,NA,NA,0,13,NA,yellow,n_s_099.jpg,NA,NA,NA,NA,NA,unpleasant,pleasant,NA,NA,NA,NA,NA,right,917.300000011921,true,NA,NA,NA,NA,NA,NA,NA,NA
aGIQgblM,3k2cedradeesg9mhvkrgq648pmomto,3zwfc4w1uykbh4f2wanaklf98bsrf3,aGIQgblM,2020-0188,2021-10-30,21:43:22,23:21:13,NA,incomplete,true,true,NA,NA,0,14,NA,yellow,n_s_014.jpg,NA,NA,NA,NA,NA,unpleasant,pleasant,NA,NA,NA,NA,NA,right,1319.30000001192,true,NA,NA,NA,NA,NA,NA,NA,NA
aGIQgblM,3k2cedradeesg9mhvkrgq648pmomto,3zwfc4w1uykbh4f2wanaklf98bsrf3,aGIQgblM,2020-0188,2021-10-30,21:43:22,23:21:13,NA,incomplete,true,true,NA,NA,0,15,NA,yellow,m_s_044.jpg,NA,NA,NA,NA,NA,unpleasant,pleasant,NA,NA,NA,NA,NA,right,862.300000011921,true,NA,NA,NA,NA,NA,NA,NA,NA
aGIQgblM,3k2cedradeesg9mhvkrgq648pmomto,3zwfc4w1uykbh4f2wanaklf98bsrf3,aGIQgblM,2020-0188,2021-10-30,21:43:22,23:21:13,NA,incomplete,true,true,NA,NA,0,16,NA,yellow,m_s_039.jpg,NA,NA,NA,NA,NA,pleasant,unpleasant,NA,NA,NA,NA,NA,right,996.800000011921,true,NA,NA,NA,NA,NA,NA,NA,NA
aGIQgblM,3k2cedradeesg9mhvkrgq648pmomto,3zwfc4w1uykbh4f2wanaklf98bsrf3,aGIQgblM,2020-0188,2021-10-30,21:43:22,23:21:13,NA,incomplete,true,true,NA,NA,0,17,NA,yellow,n_l_086.jpg,NA,NA,NA,NA,NA,unpleasant,pleasant,NA,NA,NA,NA,NA,right,1100.30000001192,true,NA,NA,NA,NA,NA,NA,NA,NA
aGIQgblM,3k2cedradeesg9mhvkrgq648pmomto,3zwfc4w1uykbh4f2wanaklf98bsrf3,aGIQgblM,2020-0188,2021-10-30,21:43:22,23:21:13,NA,incomplete,true,true,NA,NA,0,18,NA,purple,m_s_019.jpg,NA,NA,NA,NA,NA,pleasant,unpleasant,NA,NA,NA,NA,NA,left,1132.09999999404,true,NA,NA,NA,NA,NA,NA,NA,NA
aGIQgblM,3k2cedradeesg9mhvkrgq648pmomto,3zwfc4w1uykbh4f2wanaklf98bsrf3,aGIQgblM,2020-0188,2021-10-30,21:43:22,23:21:13,NA,incomplete,true,true,NA,NA,0,19,NA,purple,n_s_103.jpg,NA,NA,NA,NA,NA,pleasant,unpleasant,NA,NA,NA,NA,NA,left,944.200000017881,true,NA,NA,NA,NA,NA,NA,NA,NA
aGIQgblM,3k2cedradeesg9mhvkrgq648pmomto,3zwfc4w1uykbh4f2wanaklf98bsrf3,aGIQgblM,2020-0188,2021-10-30,21:43:22,23:21:13,NA,incomplete,true,true,NA,NA,0,20,NA,purple,n_s_078.jpg,NA,NA,NA,NA,NA,pleasant,unpleasant,NA,NA,NA,NA,NA,right,1236.30000001192,true,NA,NA,NA,NA,NA,NA,NA,NA
aGIQgblM,3k2cedradeesg9mhvkrgq648pmomto,3zwfc4w1uykbh4f2wanaklf98bsrf3,aGIQgblM,2020-0188,2021-10-30,21:43:22,23:21:13,NA,incomplete,true,true,NA,NA,0,21,NA,purple,m_l_111.jpg,NA,NA,NA,NA,NA,unpleasant,pleasant,NA,NA,NA,NA,NA,right,1085.20000001788,true,NA,NA,NA,NA,NA,NA,NA,NA
aGIQgblM,3k2cedradeesg9mhvkrgq648pmomto,3zwfc4w1uykbh4f2wanaklf98bsrf3,aGIQgblM,2020-0188,2021-10-30,21:43:22,23:21:13,NA,incomplete,true,true,NA,NA,0,22,NA,purple,m_s_051.jpg,NA,NA,NA,NA,NA,pleasant,unpleasant,NA,NA,NA,NA,NA,left,1319.89999997616,true,NA,NA,NA,NA,NA,NA,NA,NA
aGIQgblM,3k2cedradeesg9mhvkrgq648pmomto,3zwfc4w1uykbh4f2wanaklf98bsrf3,aGIQgblM,2020-0188,2021-10-30,21:43:22,23:21:13,NA,incomplete,true,true,NA,NA,0,23,NA,purple,m_l_015.jpg,NA,NA,NA,NA,NA,pleasant,unpleasant,NA,NA,NA,NA,NA,left,1116.40000000596,true,NA,NA,NA,NA,NA,NA,NA,NA
aGIQgblM,3k2cedradeesg9mhvkrgq648pmomto,3zwfc4w1uykbh4f2wanaklf98bsrf3,aGIQgblM,2020-0188,2021-10-30,21:43:22,23:21:13,NA,incomplete,true,true,NA,NA,0,24,NA,gray,n_s_039.jpg,NA,NA,NA,NA,NA,pleasant,unpleasant,NA,NA,NA,NA,NA,left,883.200000017881,true,NA,NA,NA,NA,NA,NA,NA,NA
aGIQgblM,3k2cedradeesg9mhvkrgq648pmomto,3zwfc4w1uykbh4f2wanaklf98bsrf3,aGIQgblM,2020-0188,2021-10-30,21:43:22,23:21:13,NA,incomplete,true,true,NA,NA,0,25,NA,gray,m_s_013.jpg,NA,NA,NA,NA,NA,pleasant,unpleasant,NA,NA,NA,NA,NA,left,816.200000017881,true,NA,NA,NA,NA,NA,NA,NA,NA
aGIQgblM,3k2cedradeesg9mhvkrgq648pmomto,3zwfc4w1uykbh4f2wanaklf98bsrf3,aGIQgblM,2020-0188,2021-10-30,21:43:22,23:21:13,NA,incomplete,true,true,NA,NA,0,26,NA,gray,n_l_093.jpg,NA,NA,NA,NA,NA,unpleasant,pleasant,NA,NA,NA,NA,NA,left,1233.20000001788,true,NA,NA,NA,NA,NA,NA,NA,NA
aGIQgblM,3k2cedradeesg9mhvkrgq648pmomto,3zwfc4w1uykbh4f2wanaklf98bsrf3,aGIQgblM,2020-0188,2021-10-30,21:43:22,23:21:13,NA,incomplete,true,true,NA,NA,0,27,NA,gray,m_l_080.jpg,NA,NA,NA,NA,NA,unpleasant,pleasant,NA,NA,NA,NA,NA,right,862.299999982119,true,NA,NA,NA,NA,NA,NA,NA,NA
aGIQgblM,3k2cedradeesg9mhvkrgq648pmomto,3zwfc4w1uykbh4f2wanaklf98bsrf3,aGIQgblM,2020-0188,2021-10-30,21:43:22,23:21:13,NA,incomplete,true,true,NA,NA,0,28,NA,gray,m_s_017.jpg,NA,NA,NA,NA,NA,pleasant,unpleasant,NA,NA,NA,NA,NA,left,1384.90000000596,true,NA,NA,NA,NA,NA,NA,NA,NA
aGIQgblM,3k2cedradeesg9mhvkrgq648pmomto,3zwfc4w1uykbh4f2wanaklf98bsrf3,aGIQgblM,2020-0188,2021-10-30,21:43:22,23:21:13,NA,incomplete,true,true,NA,NA,0,29,NA,gray,m_l_054.jpg,NA,NA,NA,NA,NA,unpleasant,pleasant,NA,NA,NA,NA,NA,right,1205.79999998212,true,NA,NA,NA,NA,NA,NA,NA,NA
aGIQgblM,3k2cedradeesg9mhvkrgq648pmomto,3zwfc4w1uykbh4f2wanaklf98bsrf3,aGIQgblM,2020-0188,2021-10-30,21:43:22,23:21:13,NA,incomplete,true,true,NA,NA,0,30,NA,red,m_l_037.jpg,NA,NA,NA,NA,NA,pleasant,unpleasant,NA,NA,NA,NA,NA,left,1120.69999998808,true,NA,NA,NA,NA,NA,NA,NA,NA
aGIQgblM,3k2cedradeesg9mhvkrgq648pmomto,3zwfc4w1uykbh4f2wanaklf98bsrf3,aGIQgblM,2020-0188,2021-10-30,21:43:22,23:21:13,NA,incomplete,true,true,NA,NA,0,31,NA,red,n_s_090.jpg,NA,NA,NA,NA,NA,unpleasant,pleasant,NA,NA,NA,NA,NA,right,1046.90000000596,true,NA,NA,NA,NA,NA,NA,NA,NA
aGIQgblM,3k2cedradeesg9mhvkrgq648pmomto,3zwfc4w1uykbh4f2wanaklf98bsrf3,aGIQgblM,2020-0188,2021-10-30,21:43:22,23:21:13,NA,incomplete,true,true,NA,NA,0,32,NA,red,m_s_084.jpg,NA,NA,NA,NA,NA,pleasant,unpleasant,NA,NA,NA,NA,NA,left,1041.09999999404,true,NA,NA,NA,NA,NA,NA,NA,NA
aGIQgblM,3k2cedradeesg9mhvkrgq648pmomto,3zwfc4w1uykbh4f2wanaklf98bsrf3,aGIQgblM,2020-0188,2021-10-30,21:43:22,23:21:13,NA,incomplete,true,true,NA,NA,0,33,NA,red,m_s_112.jpg,NA,NA,NA,NA,NA,pleasant,unpleasant,NA,NA,NA,NA,NA,left,1098.80000001192,true,NA,NA,NA,NA,NA,NA,NA,NA
aGIQgblM,3k2cedradeesg9mhvkrgq648pmomto,3zwfc4w1uykbh4f2wanaklf98bsrf3,aGIQgblM,2020-0188,2021-10-30,21:43:22,23:21:13,NA,incomplete,true,true,NA,NA,0,34,NA,red,m_l_018.jpg,NA,NA,NA,NA,NA,unpleasant,pleasant,NA,NA,NA,NA,NA,right,1050.40000000596,true,NA,NA,NA,NA,NA,NA,NA,NA
aGIQgblM,3k2cedradeesg9mhvkrgq648pmomto,3zwfc4w1uykbh4f2wanaklf98bsrf3,aGIQgblM,2020-0188,2021-10-30,21:43:22,23:21:13,NA,incomplete,true,true,NA,NA,0,35,NA,red,m_l_107.jpg,NA,NA,NA,NA,NA,pleasant,unpleasant,NA,NA,NA,NA,NA,right,1472,true,NA,NA,NA,NA,NA,NA,NA,NA
aGIQgblM,3k2cedradeesg9mhvkrgq648pmomto,3zwfc4w1uykbh4f2wanaklf98bsrf3,aGIQgblM,2020-0188,2021-10-30,21:43:22,23:21:13,NA,incomplete,true,NA,NA,true,0,0,NA,NA,NA,left,n_s_014.jpg,yellow,purple,NA,NA,NA,NA,NA,NA,NA,NA,NA,NaN,NA,2534.4000000059605,left,1,NA,NA,NA,NA,NA
aGIQgblM,3k2cedradeesg9mhvkrgq648pmomto,3zwfc4w1uykbh4f2wanaklf98bsrf3,aGIQgblM,2020-0188,2021-10-30,21:43:22,23:21:13,NA,incomplete,true,NA,NA,true,0,1,NA,NA,NA,left,m_s_039.jpg,yellow,purple,NA,NA,NA,NA,NA,NA,NA,NA,NA,NaN,NA,2822.800000011921,right,0,NA,NA,NA,NA,NA
aGIQgblM,3k2cedradeesg9mhvkrgq648pmomto,3zwfc4w1uykbh4f2wanaklf98bsrf3,aGIQgblM,2020-0188,2021-10-30,21:43:22,23:21:13,NA,incomplete,true,NA,NA,true,0,2,NA,NA,NA,right,m_s_017.jpg,purple,gray,NA,NA,NA,NA,NA,NA,NA,NA,NA,NaN,NA,2894.9000000059605,right,1,NA,NA,NA,NA,NA
aGIQgblM,3k2cedradeesg9mhvkrgq648pmomto,3zwfc4w1uykbh4f2wanaklf98bsrf3,aGIQgblM,2020-0188,2021-10-30,21:43:22,23:21:13,NA,incomplete,true,NA,NA,true,0,3,NA,NA,NA,left,m_s_074.jpg,black,yellow,NA,NA,NA,NA,NA,NA,NA,NA,NA,NaN,NA,2639.300000011921,left,1,NA,NA,NA,NA,NA
aGIQgblM,3k2cedradeesg9mhvkrgq648pmomto,3zwfc4w1uykbh4f2wanaklf98bsrf3,aGIQgblM,2020-0188,2021-10-30,21:43:22,23:21:13,NA,incomplete,true,NA,NA,true,0,4,NA,NA,NA,left,n_l_086.jpg,yellow,black,NA,NA,NA,NA,NA,NA,NA,NA,NA,NaN,NA,3438.800000011921,right,0,NA,NA,NA,NA,NA
aGIQgblM,3k2cedradeesg9mhvkrgq648pmomto,3zwfc4w1uykbh4f2wanaklf98bsrf3,aGIQgblM,2020-0188,2021-10-30,21:43:22,23:21:13,NA,incomplete,true,NA,NA,true,0,5,NA,NA,NA,right,m_s_082.jpg,black,white,NA,NA,NA,NA,NA,NA,NA,NA,NA,NaN,NA,4182.199999988079,left,0,NA,NA,NA,NA,NA
aGIQgblM,3k2cedradeesg9mhvkrgq648pmomto,3zwfc4w1uykbh4f2wanaklf98bsrf3,aGIQgblM,2020-0188,2021-10-30,21:43:22,23:21:13,NA,incomplete,true,NA,NA,true,0,6,NA,NA,NA,left,m_s_084.jpg,red,gray,NA,NA,NA,NA,NA,NA,NA,NA,NA,NaN,NA,3006.300000011921,left,1,NA,NA,NA,NA,NA
aGIQgblM,3k2cedradeesg9mhvkrgq648pmomto,3zwfc4w1uykbh4f2wanaklf98bsrf3,aGIQgblM,2020-0188,2021-10-30,21:43:22,23:21:13,NA,incomplete,true,NA,NA,true,0,7,NA,NA,NA,right,n_s_103.jpg,yellow,purple,NA,NA,NA,NA,NA,NA,NA,NA,NA,NaN,NA,2460.5,right,1,NA,NA,NA,NA,NA
aGIQgblM,3k2cedradeesg9mhvkrgq648pmomto,3zwfc4w1uykbh4f2wanaklf98bsrf3,aGIQgblM,2020-0188,2021-10-30,21:43:22,23:21:13,NA,incomplete,true,NA,NA,true,0,8,NA,NA,NA,right,n_l_046.jpg,black,white,NA,NA,NA,NA,NA,NA,NA,NA,NA,NaN,NA,2559.0999999940395,right,1,NA,NA,NA,NA,NA
aGIQgblM,3k2cedradeesg9mhvkrgq648pmomto,3zwfc4w1uykbh4f2wanaklf98bsrf3,aGIQgblM,2020-0188,2021-10-30,21:43:22,23:21:13,NA,incomplete,true,NA,NA,true,0,9,NA,NA,NA,left,n_s_090.jpg,red,gray,NA,NA,NA,NA,NA,NA,NA,NA,NA,NaN,NA,4246.5999999940395,right,0,NA,NA,NA,NA,NA
aGIQgblM,3k2cedradeesg9mhvkrgq648pmomto,3zwfc4w1uykbh4f2wanaklf98bsrf3,aGIQgblM,2020-0188,2021-10-30,21:43:22,23:21:13,NA,incomplete,true,NA,NA,true,0,10,NA,NA,NA,left,m_l_054.jpg,gray,purple,NA,NA,NA,NA,NA,NA,NA,NA,NA,NaN,NA,2551.7000000178814,left,1,NA,NA,NA,NA,NA
aGIQgblM,3k2cedradeesg9mhvkrgq648pmomto,3zwfc4w1uykbh4f2wanaklf98bsrf3,aGIQgblM,2020-0188,2021-10-30,21:43:22,23:21:13,NA,incomplete,true,NA,NA,true,0,11,NA,NA,NA,left,m_s_013.jpg,gray,red,NA,NA,NA,NA,NA,NA,NA,NA,NA,NaN,NA,2039.199999988079,right,0,NA,NA,NA,NA,NA
aGIQgblM,3k2cedradeesg9mhvkrgq648pmomto,3zwfc4w1uykbh4f2wanaklf98bsrf3,aGIQgblM,2020-0188,2021-10-30,21:43:22,23:21:13,NA,incomplete,true,NA,NA,true,0,12,NA,NA,NA,right,n_s_030.jpg,white,black,NA,NA,NA,NA,NA,NA,NA,NA,NA,NaN,NA,2951.0999999940395,right,1,NA,NA,NA,NA,NA
aGIQgblM,3k2cedradeesg9mhvkrgq648pmomto,3zwfc4w1uykbh4f2wanaklf98bsrf3,aGIQgblM,2020-0188,2021-10-30,21:43:22,23:21:13,NA,incomplete,true,NA,NA,true,0,13,NA,NA,NA,right,n_s_078.jpg,yellow,purple,NA,NA,NA,NA,NA,NA,NA,NA,NA,NaN,NA,9815.90000000596,left,0,NA,NA,NA,NA,NA
aGIQgblM,3k2cedradeesg9mhvkrgq648pmomto,3zwfc4w1uykbh4f2wanaklf98bsrf3,aGIQgblM,2020-0188,2021-10-30,21:43:22,23:21:13,NA,incomplete,true,NA,NA,true,0,14,NA,NA,NA,right,m_l_107.jpg,gray,red,NA,NA,NA,NA,NA,NA,NA,NA,NA,NaN,NA,3117.7000000178814,right,1,NA,NA,NA,NA,NA
aGIQgblM,3k2cedradeesg9mhvkrgq648pmomto,3zwfc4w1uykbh4f2wanaklf98bsrf3,aGIQgblM,2020-0188,2021-10-30,21:43:22,23:21:13,NA,incomplete,true,NA,NA,true,0,15,NA,NA,NA,right,n_l_068.jpg,yellow,black,NA,NA,NA,NA,NA,NA,NA,NA,NA,NaN,NA,10622.59999999404,left,0,NA,NA,NA,NA,NA
aGIQgblM,3k2cedradeesg9mhvkrgq648pmomto,3zwfc4w1uykbh4f2wanaklf98bsrf3,aGIQgblM,2020-0188,2021-10-30,21:43:22,23:21:13,NA,incomplete,true,NA,NA,true,0,16,NA,NA,NA,left,m_l_093.jpg,white,black,NA,NA,NA,NA,NA,NA,NA,NA,NA,NaN,NA,3337.7999999821186,left,1,NA,NA,NA,NA,NA
aGIQgblM,3k2cedradeesg9mhvkrgq648pmomto,3zwfc4w1uykbh4f2wanaklf98bsrf3,aGIQgblM,2020-0188,2021-10-30,21:43:22,23:21:13,NA,incomplete,true,NA,NA,true,0,17,NA,NA,NA,left,n_s_099.jpg,yellow,purple,NA,NA,NA,NA,NA,NA,NA,NA,NA,NaN,NA,2558.9000000059605,left,1,NA,NA,NA,NA,NA
aGIQgblM,3k2cedradeesg9mhvkrgq648pmomto,3zwfc4w1uykbh4f2wanaklf98bsrf3,aGIQgblM,2020-0188,2021-10-30,21:43:22,23:21:13,NA,incomplete,true,NA,NA,true,0,18,NA,NA,NA,right,n_l_093.jpg,purple,gray,NA,NA,NA,NA,NA,NA,NA,NA,NA,NaN,NA,2439.0999999940395,right,1,NA,NA,NA,NA,NA
aGIQgblM,3k2cedradeesg9mhvkrgq648pmomto,3zwfc4w1uykbh4f2wanaklf98bsrf3,aGIQgblM,2020-0188,2021-10-30,21:43:22,23:21:13,NA,incomplete,true,NA,NA,true,0,19,NA,NA,NA,left,m_l_015.jpg,purple,gray,NA,NA,NA,NA,NA,NA,NA,NA,NA,NaN,NA,2741.800000011921,right,0,NA,NA,NA,NA,NA
aGIQgblM,3k2cedradeesg9mhvkrgq648pmomto,3zwfc4w1uykbh4f2wanaklf98bsrf3,aGIQgblM,2020-0188,2021-10-30,21:43:22,23:21:13,NA,incomplete,true,NA,NA,true,0,20,NA,NA,NA,right,m_s_063.jpg,yellow,black,NA,NA,NA,NA,NA,NA,NA,NA,NA,NaN,NA,3830.399999976158,right,1,NA,NA,NA,NA,NA
aGIQgblM,3k2cedradeesg9mhvkrgq648pmomto,3zwfc4w1uykbh4f2wanaklf98bsrf3,aGIQgblM,2020-0188,2021-10-30,21:43:22,23:21:13,NA,incomplete,true,NA,NA,true,0,21,NA,NA,NA,left,m_s_051.jpg,purple,yellow,NA,NA,NA,NA,NA,NA,NA,NA,NA,NaN,NA,2823.2000000178814,left,1,NA,NA,NA,NA,NA
aGIQgblM,3k2cedradeesg9mhvkrgq648pmomto,3zwfc4w1uykbh4f2wanaklf98bsrf3,aGIQgblM,2020-0188,2021-10-30,21:43:22,23:21:13,NA,incomplete,true,NA,true,NA,0,0,NA,NA,NA,left,NA,NA,NA,absent,NA,NA,n_l_046.jpg,white,m_s_063.jpg,black,between,NA,NaN,NA,NA,NA,NA,left,4134.800000011921,1,2,3597.7999999821186
aGIQgblM,3k2cedradeesg9mhvkrgq648pmomto,3zwfc4w1uykbh4f2wanaklf98bsrf3,aGIQgblM,2020-0188,2021-10-30,21:43:22,23:21:13,NA,incomplete,true,NA,true,NA,0,1,NA,NA,NA,left,NA,NA,NA,absent,NA,NA,m_s_051.jpg,purple,n_l_093.jpg,gray,between,NA,NaN,NA,NA,NA,NA,right,3583.5,0,1,2055.199999988079
aGIQgblM,3k2cedradeesg9mhvkrgq648pmomto,3zwfc4w1uykbh4f2wanaklf98bsrf3,aGIQgblM,2020-0188,2021-10-30,21:43:22,23:21:13,NA,incomplete,true,NA,true,NA,0,2,NA,NA,NA,left,NA,NA,NA,absent,NA,NA,m_s_039.jpg,yellow,n_s_078.jpg,purple,between,NA,NaN,NA,NA,NA,NA,left,4486.9000000059605,1,2,2150.7999999821186
aGIQgblM,3k2cedradeesg9mhvkrgq648pmomto,3zwfc4w1uykbh4f2wanaklf98bsrf3,aGIQgblM,2020-0188,2021-10-30,21:43:22,23:21:13,NA,incomplete,true,NA,true,NA,0,3,NA,NA,NA,left,NA,NA,NA,absent,NA,NA,m_s_082.jpg,white,m_l_093.jpg,white,within,NA,NaN,NA,NA,NA,NA,left,2766.4000000059605,1,1,1902.8999999761581
aGIQgblM,3k2cedradeesg9mhvkrgq648pmomto,3zwfc4w1uykbh4f2wanaklf98bsrf3,aGIQgblM,2020-0188,2021-10-30,21:43:22,23:21:13,NA,incomplete,true,NA,true,NA,0,4,NA,NA,NA,right,NA,NA,NA,absent,NA,NA,m_s_084.jpg,red,m_s_017.jpg,gray,between,NA,NaN,NA,NA,NA,NA,right,2607.399999976158,1,2,1908.699999988079
aGIQgblM,3k2cedradeesg9mhvkrgq648pmomto,3zwfc4w1uykbh4f2wanaklf98bsrf3,aGIQgblM,2020-0188,2021-10-30,21:43:22,23:21:13,NA,incomplete,true,NA,true,NA,0,5,NA,NA,NA,left,NA,NA,NA,absent,NA,NA,n_s_099.jpg,yellow,n_l_086.jpg,yellow,within,NA,NaN,NA,NA,NA,NA,left,3190.800000011921,1,2,1799.4000000059605
aGIQgblM,3k2cedradeesg9mhvkrgq648pmomto,3zwfc4w1uykbh4f2wanaklf98bsrf3,aGIQgblM,2020-0188,2021-10-30,21:43:22,23:21:13,NA,incomplete,true,NA,true,NA,0,6,NA,NA,NA,left,NA,NA,NA,absent,NA,NA,m_s_013.jpg,gray,m_l_054.jpg,gray,within,NA,NaN,NA,NA,NA,NA,right,5959.199999988079,0,2,2063.2999999821186
aGIQgblM,3k2cedradeesg9mhvkrgq648pmomto,3zwfc4w1uykbh4f2wanaklf98bsrf3,aGIQgblM,2020-0188,2021-10-30,21:43:22,23:21:13,NA,incomplete,true,NA,true,NA,0,7,NA,NA,NA,right,NA,NA,NA,absent,NA,NA,m_l_107.jpg,red,n_s_090.jpg,red,within,NA,NaN,NA,NA,NA,NA,left,2662.7000000178814,0,1,1903.199999988079
aGIQgblM,3k2cedradeesg9mhvkrgq648pmomto,3zwfc4w1uykbh4f2wanaklf98bsrf3,aGIQgblM,2020-0188,2021-10-30,21:43:22,23:21:13,NA,incomplete,true,NA,true,NA,0,8,NA,NA,NA,right,NA,NA,NA,absent,NA,NA,n_s_030.jpg,black,n_l_068.jpg,black,within,NA,NaN,NA,NA,NA,NA,right,2564.5,1,2,1910.2999999821186
aGIQgblM,3k2cedradeesg9mhvkrgq648pmomto,3zwfc4w1uykbh4f2wanaklf98bsrf3,aGIQgblM,2020-0188,2021-10-30,21:43:22,23:21:13,NA,incomplete,true,NA,true,NA,0,9,NA,NA,NA,left,NA,NA,NA,absent,NA,NA,n_s_103.jpg,purple,m_l_015.jpg,purple,within,NA,NaN,NA,NA,NA,NA,right,1950.2999999821186,0,2,1983
aGIQgblM,3k2cedradeesg9mhvkrgq648pmomto,3zwfc4w1uykbh4f2wanaklf98bsrf3,aGIQgblM,2020-0188,2021-10-30,21:43:22,23:21:13,NA,incomplete,true,NA,true,NA,0,10,NA,NA,NA,right,NA,NA,NA,absent,NA,NA,n_s_014.jpg,yellow,m_s_074.jpg,black,between,NA,NaN,NA,NA,NA,NA,right,2031.5999999940395,1,2,1961
aGIQgblM,3k2cedradeesg9mhvkrgq648pmomto,3zwfc4w1uykbh4f2wanaklf98bsrf3,aGIQgblM,2020-0188,2021-10-30,21:43:22,23:21:13,NA,incomplete,false,true,NA,NA,1,0,NA,white,m_s_037.jpg,NA,NA,NA,NA,NA,pleasant,unpleasant,NA,NA,NA,NA,NA,left,2185.5,true,NA,NA,NA,NA,NA,NA,NA,NA
aGIQgblM,3k2cedradeesg9mhvkrgq648pmomto,3zwfc4w1uykbh4f2wanaklf98bsrf3,aGIQgblM,2020-0188,2021-10-30,21:43:22,23:21:13,NA,incomplete,false,true,NA,NA,1,1,NA,white,m_s_007.jpg,NA,NA,NA,NA,NA,pleasant,unpleasant,NA,NA,NA,NA,NA,left,2388.90000000596,true,NA,NA,NA,NA,NA,NA,NA,NA
aGIQgblM,3k2cedradeesg9mhvkrgq648pmomto,3zwfc4w1uykbh4f2wanaklf98bsrf3,aGIQgblM,2020-0188,2021-10-30,21:43:22,23:21:13,NA,incomplete,false,true,NA,NA,1,2,NA,white,n_l_015.jpg,NA,NA,NA,NA,NA,unpleasant,pleasant,NA,NA,NA,NA,NA,right,1987.80000001192,true,NA,NA,NA,NA,NA,NA,NA,NA
aGIQgblM,3k2cedradeesg9mhvkrgq648pmomto,3zwfc4w1uykbh4f2wanaklf98bsrf3,aGIQgblM,2020-0188,2021-10-30,21:43:22,23:21:13,NA,incomplete,false,true,NA,NA,1,3,NA,white,m_l_039.jpg,NA,NA,NA,NA,NA,pleasant,unpleasant,NA,NA,NA,NA,NA,left,2079.80000001192,true,NA,NA,NA,NA,NA,NA,NA,NA
aGIQgblM,3k2cedradeesg9mhvkrgq648pmomto,3zwfc4w1uykbh4f2wanaklf98bsrf3,aGIQgblM,2020-0188,2021-10-30,21:43:22,23:21:13,NA,incomplete,false,true,NA,NA,1,4,NA,white,m_s_033.jpg,NA,NA,NA,NA,NA,unpleasant,pleasant,NA,NA,NA,NA,NA,right,2462.5,true,NA,NA,NA,NA,NA,NA,NA,NA
aGIQgblM,3k2cedradeesg9mhvkrgq648pmomto,3zwfc4w1uykbh4f2wanaklf98bsrf3,aGIQgblM,2020-0188,2021-10-30,21:43:22,23:21:13,NA,incomplete,false,true,NA,NA,1,5,NA,white,m_s_075.jpg,NA,NA,NA,NA,NA,pleasant,unpleasant,NA,NA,NA,NA,NA,left,2562.10000002384,true,NA,NA,NA,NA,NA,NA,NA,NA
aGIQgblM,3k2cedradeesg9mhvkrgq648pmomto,3zwfc4w1uykbh4f2wanaklf98bsrf3,aGIQgblM,2020-0188,2021-10-30,21:43:22,23:21:13,NA,incomplete,false,true,NA,NA,1,6,NA,blue,m_l_108.jpg,NA,NA,NA,NA,NA,pleasant,unpleasant,NA,NA,NA,NA,NA,right,3411.80000001192,true,NA,NA,NA,NA,NA,NA,NA,NA
aGIQgblM,3k2cedradeesg9mhvkrgq648pmomto,3zwfc4w1uykbh4f2wanaklf98bsrf3,aGIQgblM,2020-0188,2021-10-30,21:43:22,23:21:13,NA,incomplete,false,true,NA,NA,1,7,NA,blue,m_s_067.jpg,NA,NA,NA,NA,NA,unpleasant,pleasant,NA,NA,NA,NA,NA,right,2457.09999999404,true,NA,NA,NA,NA,NA,NA,NA,NA
aGIQgblM,3k2cedradeesg9mhvkrgq648pmomto,3zwfc4w1uykbh4f2wanaklf98bsrf3,aGIQgblM,2020-0188,2021-10-30,21:43:22,23:21:13,NA,incomplete,false,true,NA,NA,1,8,NA,blue,m_s_091.jpg,NA,NA,NA,NA,NA,unpleasant,pleasant,NA,NA,NA,NA,NA,right,1609.30000001192,true,NA,NA,NA,NA,NA,NA,NA,NA
aGIQgblM,3k2cedradeesg9mhvkrgq648pmomto,3zwfc4w1uykbh4f2wanaklf98bsrf3,aGIQgblM,2020-0188,2021-10-30,21:43:22,23:21:13,NA,incomplete,false,true,NA,NA,1,9,NA,blue,m_s_001.jpg,NA,NA,NA,NA,NA,unpleasant,pleasant,NA,NA,NA,NA,NA,right,1157.39999997616,true,NA,NA,NA,NA,NA,NA,NA,NA
aGIQgblM,3k2cedradeesg9mhvkrgq648pmomto,3zwfc4w1uykbh4f2wanaklf98bsrf3,aGIQgblM,2020-0188,2021-10-30,21:43:22,23:21:13,NA,incomplete,false,true,NA,NA,1,10,NA,blue,n_l_009.jpg,NA,NA,NA,NA,NA,pleasant,unpleasant,NA,NA,NA,NA,NA,left,1314.59999999404,true,NA,NA,NA,NA,NA,NA,NA,NA
aGIQgblM,3k2cedradeesg9mhvkrgq648pmomto,3zwfc4w1uykbh4f2wanaklf98bsrf3,aGIQgblM,2020-0188,2021-10-30,21:43:22,23:21:13,NA,incomplete,false,true,NA,NA,1,11,NA,blue,n_s_060.jpg,NA,NA,NA,NA,NA,pleasant,unpleasant,NA,NA,NA,NA,NA,left,1455.09999999404,true,NA,NA,NA,NA,NA,NA,NA,NA
aGIQgblM,3k2cedradeesg9mhvkrgq648pmomto,3zwfc4w1uykbh4f2wanaklf98bsrf3,aGIQgblM,2020-0188,2021-10-30,21:43:22,23:21:13,NA,incomplete,false,true,NA,NA,1,12,NA,gray,n_l_060.jpg,NA,NA,NA,NA,NA,pleasant,unpleasant,NA,NA,NA,NA,NA,left,1579.80000001192,true,NA,NA,NA,NA,NA,NA,NA,NA
aGIQgblM,3k2cedradeesg9mhvkrgq648pmomto,3zwfc4w1uykbh4f2wanaklf98bsrf3,aGIQgblM,2020-0188,2021-10-30,21:43:22,23:21:13,NA,incomplete,false,true,NA,NA,1,13,NA,gray,m_s_105.jpg,NA,NA,NA,NA,NA,unpleasant,pleasant,NA,NA,NA,NA,NA,right,1884.5,true,NA,NA,NA,NA,NA,NA,NA,NA
aGIQgblM,3k2cedradeesg9mhvkrgq648pmomto,3zwfc4w1uykbh4f2wanaklf98bsrf3,aGIQgblM,2020-0188,2021-10-30,21:43:22,23:21:13,NA,incomplete,false,true,NA,NA,1,14,NA,gray,m_l_088.jpg,NA,NA,NA,NA,NA,pleasant,unpleasant,NA,NA,NA,NA,NA,left,2207.80000001192,true,NA,NA,NA,NA,NA,NA,NA,NA
aGIQgblM,3k2cedradeesg9mhvkrgq648pmomto,3zwfc4w1uykbh4f2wanaklf98bsrf3,aGIQgblM,2020-0188,2021-10-30,21:43:22,23:21:13,NA,incomplete,false,true,NA,NA,1,15,NA,gray,n_l_029.jpg,NA,NA,NA,NA,NA,pleasant,unpleasant,NA,NA,NA,NA,NA,left,2303.39999997616,true,NA,NA,NA,NA,NA,NA,NA,NA
aGIQgblM,3k2cedradeesg9mhvkrgq648pmomto,3zwfc4w1uykbh4f2wanaklf98bsrf3,aGIQgblM,2020-0188,2021-10-30,21:43:22,23:21:13,NA,incomplete,false,true,NA,NA,1,16,NA,gray,m_s_015.jpg,NA,NA,NA,NA,NA,pleasant,unpleasant,NA,NA,NA,NA,NA,left,1868.19999998808,true,NA,NA,NA,NA,NA,NA,NA,NA
aGIQgblM,3k2cedradeesg9mhvkrgq648pmomto,3zwfc4w1uykbh4f2wanaklf98bsrf3,aGIQgblM,2020-0188,2021-10-30,21:43:22,23:21:13,NA,incomplete,false,true,NA,NA,1,17,NA,gray,m_s_032.jpg,NA,NA,NA,NA,NA,pleasant,unpleasant,NA,NA,NA,NA,NA,left,2206.40000000596,true,NA,NA,NA,NA,NA,NA,NA,NA
aGIQgblM,3k2cedradeesg9mhvkrgq648pmomto,3zwfc4w1uykbh4f2wanaklf98bsrf3,aGIQgblM,2020-0188,2021-10-30,21:43:22,23:21:13,NA,incomplete,false,true,NA,NA,1,18,NA,orange,n_l_040.jpg,NA,NA,NA,NA,NA,unpleasant,pleasant,NA,NA,NA,NA,NA,right,2077.40000000596,true,NA,NA,NA,NA,NA,NA,NA,NA
aGIQgblM,3k2cedradeesg9mhvkrgq648pmomto,3zwfc4w1uykbh4f2wanaklf98bsrf3,aGIQgblM,2020-0188,2021-10-30,21:43:22,23:21:13,NA,incomplete,false,true,NA,NA,1,19,NA,orange,m_l_085.jpg,NA,NA,NA,NA,NA,unpleasant,pleasant,NA,NA,NA,NA,NA,right,1336.20000001788,true,NA,NA,NA,NA,NA,NA,NA,NA
aGIQgblM,3k2cedradeesg9mhvkrgq648pmomto,3zwfc4w1uykbh4f2wanaklf98bsrf3,aGIQgblM,2020-0188,2021-10-30,21:43:22,23:21:13,NA,incomplete,false,true,NA,NA,1,20,NA,orange,n_s_042.jpg,NA,NA,NA,NA,NA,unpleasant,pleasant,NA,NA,NA,NA,NA,right,2133,true,NA,NA,NA,NA,NA,NA,NA,NA
aGIQgblM,3k2cedradeesg9mhvkrgq648pmomto,3zwfc4w1uykbh4f2wanaklf98bsrf3,aGIQgblM,2020-0188,2021-10-30,21:43:22,23:21:13,NA,incomplete,false,true,NA,NA,1,21,NA,orange,m_s_065.jpg,NA,NA,NA,NA,NA,unpleasant,pleasant,NA,NA,NA,NA,NA,right,1527.40000000596,true,NA,NA,NA,NA,NA,NA,NA,NA
aGIQgblM,3k2cedradeesg9mhvkrgq648pmomto,3zwfc4w1uykbh4f2wanaklf98bsrf3,aGIQgblM,2020-0188,2021-10-30,21:43:22,23:21:13,NA,incomplete,false,true,NA,NA,1,22,NA,orange,n_s_025.jpg,NA,NA,NA,NA,NA,pleasant,unpleasant,NA,NA,NA,NA,NA,left,1986.80000001192,true,NA,NA,NA,NA,NA,NA,NA,NA
aGIQgblM,3k2cedradeesg9mhvkrgq648pmomto,3zwfc4w1uykbh4f2wanaklf98bsrf3,aGIQgblM,2020-0188,2021-10-30,21:43:22,23:21:13,NA,incomplete,false,true,NA,NA,1,23,NA,orange,m_l_112.jpg,NA,NA,NA,NA,NA,pleasant,unpleasant,NA,NA,NA,NA,NA,left,1351.30000001192,true,NA,NA,NA,NA,NA,NA,NA,NA
aGIQgblM,3k2cedradeesg9mhvkrgq648pmomto,3zwfc4w1uykbh4f2wanaklf98bsrf3,aGIQgblM,2020-0188,2021-10-30,21:43:22,23:21:13,NA,incomplete,false,true,NA,NA,1,24,NA,black,n_s_113.jpg,NA,NA,NA,NA,NA,pleasant,unpleasant,NA,NA,NA,NA,NA,left,1853.20000001788,true,NA,NA,NA,NA,NA,NA,NA,NA
aGIQgblM,3k2cedradeesg9mhvkrgq648pmomto,3zwfc4w1uykbh4f2wanaklf98bsrf3,aGIQgblM,2020-0188,2021-10-30,21:43:22,23:21:13,NA,incomplete,false,true,NA,NA,1,25,NA,black,n_s_079.jpg,NA,NA,NA,NA,NA,pleasant,unpleasant,NA,NA,NA,NA,NA,left,1724.5,true,NA,NA,NA,NA,NA,NA,NA,NA
aGIQgblM,3k2cedradeesg9mhvkrgq648pmomto,3zwfc4w1uykbh4f2wanaklf98bsrf3,aGIQgblM,2020-0188,2021-10-30,21:43:22,23:21:13,NA,incomplete,false,true,NA,NA,1,26,NA,black,m_s_096.jpg,NA,NA,NA,NA,NA,unpleasant,pleasant,NA,NA,NA,NA,NA,right,1661.79999998212,true,NA,NA,NA,NA,NA,NA,NA,NA
aGIQgblM,3k2cedradeesg9mhvkrgq648pmomto,3zwfc4w1uykbh4f2wanaklf98bsrf3,aGIQgblM,2020-0188,2021-10-30,21:43:22,23:21:13,NA,incomplete,false,true,NA,NA,1,27,NA,black,n_l_105.jpg,NA,NA,NA,NA,NA,unpleasant,pleasant,NA,NA,NA,NA,NA,right,2025.40000000596,true,NA,NA,NA,NA,NA,NA,NA,NA
aGIQgblM,3k2cedradeesg9mhvkrgq648pmomto,3zwfc4w1uykbh4f2wanaklf98bsrf3,aGIQgblM,2020-0188,2021-10-30,21:43:22,23:21:13,NA,incomplete,false,true,NA,NA,1,28,NA,black,n_s_109.jpg,NA,NA,NA,NA,NA,unpleasant,pleasant,NA,NA,NA,NA,NA,left,1727.80000001192,true,NA,NA,NA,NA,NA,NA,NA,NA
aGIQgblM,3k2cedradeesg9mhvkrgq648pmomto,3zwfc4w1uykbh4f2wanaklf98bsrf3,aGIQgblM,2020-0188,2021-10-30,21:43:22,23:21:13,NA,incomplete,false,true,NA,NA,1,29,NA,black,m_s_069.jpg,NA,NA,NA,NA,NA,unpleasant,pleasant,NA,NA,NA,NA,NA,right,1729.79999998212,true,NA,NA,NA,NA,NA,NA,NA,NA
aGIQgblM,3k2cedradeesg9mhvkrgq648pmomto,3zwfc4w1uykbh4f2wanaklf98bsrf3,aGIQgblM,2020-0188,2021-10-30,21:43:22,23:21:13,NA,incomplete,false,true,NA,NA,1,30,NA,brown,m_s_085.jpg,NA,NA,NA,NA,NA,pleasant,unpleasant,NA,NA,NA,NA,NA,left,2001.69999998808,true,NA,NA,NA,NA,NA,NA,NA,NA
aGIQgblM,3k2cedradeesg9mhvkrgq648pmomto,3zwfc4w1uykbh4f2wanaklf98bsrf3,aGIQgblM,2020-0188,2021-10-30,21:43:22,23:21:13,NA,incomplete,false,true,NA,NA,1,31,NA,brown,m_s_056.jpg,NA,NA,NA,NA,NA,unpleasant,pleasant,NA,NA,NA,NA,NA,right,1889.20000001788,true,NA,NA,NA,NA,NA,NA,NA,NA
aGIQgblM,3k2cedradeesg9mhvkrgq648pmomto,3zwfc4w1uykbh4f2wanaklf98bsrf3,aGIQgblM,2020-0188,2021-10-30,21:43:22,23:21:13,NA,incomplete,false,true,NA,NA,1,32,NA,brown,m_s_077.jpg,NA,NA,NA,NA,NA,pleasant,unpleasant,NA,NA,NA,NA,NA,left,1980,true,NA,NA,NA,NA,NA,NA,NA,NA
aGIQgblM,3k2cedradeesg9mhvkrgq648pmomto,3zwfc4w1uykbh4f2wanaklf98bsrf3,aGIQgblM,2020-0188,2021-10-30,21:43:22,23:21:13,NA,incomplete,false,true,NA,NA,1,33,NA,brown,n_s_069.jpg,NA,NA,NA,NA,NA,unpleasant,pleasant,NA,NA,NA,NA,NA,right,1659.70000001788,true,NA,NA,NA,NA,NA,NA,NA,NA
aGIQgblM,3k2cedradeesg9mhvkrgq648pmomto,3zwfc4w1uykbh4f2wanaklf98bsrf3,aGIQgblM,2020-0188,2021-10-30,21:43:22,23:21:13,NA,incomplete,false,true,NA,NA,1,34,NA,brown,m_s_010.jpg,NA,NA,NA,NA,NA,pleasant,unpleasant,NA,NA,NA,NA,NA,left,1596.69999998808,true,NA,NA,NA,NA,NA,NA,NA,NA
aGIQgblM,3k2cedradeesg9mhvkrgq648pmomto,3zwfc4w1uykbh4f2wanaklf98bsrf3,aGIQgblM,2020-0188,2021-10-30,21:43:22,23:21:13,NA,incomplete,false,true,NA,NA,1,35,NA,brown,m_l_079.jpg,NA,NA,NA,NA,NA,unpleasant,pleasant,NA,NA,NA,NA,NA,right,1862.40000000596,true,NA,NA,NA,NA,NA,NA,NA,NA
aGIQgblM,3k2cedradeesg9mhvkrgq648pmomto,3zwfc4w1uykbh4f2wanaklf98bsrf3,aGIQgblM,2020-0188,2021-10-30,21:43:22,23:21:13,NA,incomplete,false,NA,NA,true,1,0,NA,NA,NA,right,m_s_015.jpg,orange,gray,NA,NA,NA,NA,NA,NA,NA,NA,NA,NaN,NA,3535.699999988079,right,1,NA,NA,NA,NA,NA
aGIQgblM,3k2cedradeesg9mhvkrgq648pmomto,3zwfc4w1uykbh4f2wanaklf98bsrf3,aGIQgblM,2020-0188,2021-10-30,21:43:22,23:21:13,NA,incomplete,false,NA,NA,true,1,1,NA,NA,NA,right,m_s_067.jpg,gray,blue,NA,NA,NA,NA,NA,NA,NA,NA,NA,NaN,NA,1806.5999999940395,right,1,NA,NA,NA,NA,NA
aGIQgblM,3k2cedradeesg9mhvkrgq648pmomto,3zwfc4w1uykbh4f2wanaklf98bsrf3,aGIQgblM,2020-0188,2021-10-30,21:43:22,23:21:13,NA,incomplete,false,NA,NA,true,1,2,NA,NA,NA,right,n_s_042.jpg,black,orange,NA,NA,NA,NA,NA,NA,NA,NA,NA,NaN,NA,2678.399999976158,right,1,NA,NA,NA,NA,NA
aGIQgblM,3k2cedradeesg9mhvkrgq648pmomto,3zwfc4w1uykbh4f2wanaklf98bsrf3,aGIQgblM,2020-0188,2021-10-30,21:43:22,23:21:13,NA,incomplete,false,NA,NA,true,1,3,NA,NA,NA,left,n_s_109.jpg,black,brown,NA,NA,NA,NA,NA,NA,NA,NA,NA,NaN,NA,2215.199999988079,right,0,NA,NA,NA,NA,NA
aGIQgblM,3k2cedradeesg9mhvkrgq648pmomto,3zwfc4w1uykbh4f2wanaklf98bsrf3,aGIQgblM,2020-0188,2021-10-30,21:43:22,23:21:13,NA,incomplete,false,NA,NA,true,1,4,NA,NA,NA,right,m_l_085.jpg,gray,orange,NA,NA,NA,NA,NA,NA,NA,NA,NA,NaN,NA,1957.5999999940395,right,1,NA,NA,NA,NA,NA
aGIQgblM,3k2cedradeesg9mhvkrgq648pmomto,3zwfc4w1uykbh4f2wanaklf98bsrf3,aGIQgblM,2020-0188,2021-10-30,21:43:22,23:21:13,NA,incomplete,false,NA,NA,true,1,5,NA,NA,NA,left,m_l_088.jpg,gray,blue,NA,NA,NA,NA,NA,NA,NA,NA,NA,NaN,NA,3967,left,1,NA,NA,NA,NA,NA
aGIQgblM,3k2cedradeesg9mhvkrgq648pmomto,3zwfc4w1uykbh4f2wanaklf98bsrf3,aGIQgblM,2020-0188,2021-10-30,21:43:22,23:21:13,NA,incomplete,false,NA,NA,true,1,6,NA,NA,NA,left,n_s_079.jpg,black,orange,NA,NA,NA,NA,NA,NA,NA,NA,NA,NaN,NA,2806.9000000059605,left,1,NA,NA,NA,NA,NA
aGIQgblM,3k2cedradeesg9mhvkrgq648pmomto,3zwfc4w1uykbh4f2wanaklf98bsrf3,aGIQgblM,2020-0188,2021-10-30,21:43:22,23:21:13,NA,incomplete,false,NA,NA,true,1,7,NA,NA,NA,left,m_s_096.jpg,black,orange,NA,NA,NA,NA,NA,NA,NA,NA,NA,NaN,NA,3110.300000011921,left,1,NA,NA,NA,NA,NA
aGIQgblM,3k2cedradeesg9mhvkrgq648pmomto,3zwfc4w1uykbh4f2wanaklf98bsrf3,aGIQgblM,2020-0188,2021-10-30,21:43:22,23:21:13,NA,incomplete,false,NA,NA,true,1,8,NA,NA,NA,left,n_s_025.jpg,orange,black,NA,NA,NA,NA,NA,NA,NA,NA,NA,NaN,NA,2774.9000000059605,left,1,NA,NA,NA,NA,NA
aGIQgblM,3k2cedradeesg9mhvkrgq648pmomto,3zwfc4w1uykbh4f2wanaklf98bsrf3,aGIQgblM,2020-0188,2021-10-30,21:43:22,23:21:13,NA,incomplete,false,NA,NA,true,1,9,NA,NA,NA,left,m_s_091.jpg,blue,gray,NA,NA,NA,NA,NA,NA,NA,NA,NA,NaN,NA,2046.7000000178814,right,0,NA,NA,NA,NA,NA
aGIQgblM,3k2cedradeesg9mhvkrgq648pmomto,3zwfc4w1uykbh4f2wanaklf98bsrf3,aGIQgblM,2020-0188,2021-10-30,21:43:22,23:21:13,NA,incomplete,false,NA,NA,true,1,10,NA,NA,NA,left,m_s_075.jpg,white,blue,NA,NA,NA,NA,NA,NA,NA,NA,NA,NaN,NA,1911.0999999940395,left,1,NA,NA,NA,NA,NA
aGIQgblM,3k2cedradeesg9mhvkrgq648pmomto,3zwfc4w1uykbh4f2wanaklf98bsrf3,aGIQgblM,2020-0188,2021-10-30,21:43:22,23:21:13,NA,incomplete,false,NA,NA,true,1,11,NA,NA,NA,left,m_s_033.jpg,white,blue,NA,NA,NA,NA,NA,NA,NA,NA,NA,NaN,NA,1559,left,1,NA,NA,NA,NA,NA
aGIQgblM,3k2cedradeesg9mhvkrgq648pmomto,3zwfc4w1uykbh4f2wanaklf98bsrf3,aGIQgblM,2020-0188,2021-10-30,21:43:22,23:21:13,NA,incomplete,false,NA,NA,true,1,12,NA,NA,NA,left,m_s_007.jpg,white,blue,NA,NA,NA,NA,NA,NA,NA,NA,NA,NaN,NA,1878.5999999940395,left,1,NA,NA,NA,NA,NA
aGIQgblM,3k2cedradeesg9mhvkrgq648pmomto,3zwfc4w1uykbh4f2wanaklf98bsrf3,aGIQgblM,2020-0188,2021-10-30,21:43:22,23:21:13,NA,incomplete,false,NA,NA,true,1,13,NA,NA,NA,left,n_s_060.jpg,blue,gray,NA,NA,NA,NA,NA,NA,NA,NA,NA,NaN,NA,1847.0999999940395,left,1,NA,NA,NA,NA,NA
aGIQgblM,3k2cedradeesg9mhvkrgq648pmomto,3zwfc4w1uykbh4f2wanaklf98bsrf3,aGIQgblM,2020-0188,2021-10-30,21:43:22,23:21:13,NA,incomplete,false,NA,NA,true,1,14,NA,NA,NA,right,m_l_079.jpg,black,brown,NA,NA,NA,NA,NA,NA,NA,NA,NA,NaN,NA,1894.9000000059605,right,1,NA,NA,NA,NA,NA
aGIQgblM,3k2cedradeesg9mhvkrgq648pmomto,3zwfc4w1uykbh4f2wanaklf98bsrf3,aGIQgblM,2020-0188,2021-10-30,21:43:22,23:21:13,NA,incomplete,false,NA,NA,true,1,15,NA,NA,NA,right,m_s_077.jpg,black,brown,NA,NA,NA,NA,NA,NA,NA,NA,NA,NaN,NA,2495.100000023842,right,1,NA,NA,NA,NA,NA
aGIQgblM,3k2cedradeesg9mhvkrgq648pmomto,3zwfc4w1uykbh4f2wanaklf98bsrf3,aGIQgblM,2020-0188,2021-10-30,21:43:22,23:21:13,NA,incomplete,false,NA,NA,true,1,16,NA,NA,NA,right,n_l_009.jpg,gray,blue,NA,NA,NA,NA,NA,NA,NA,NA,NA,NaN,NA,2215,right,1,NA,NA,NA,NA,NA
aGIQgblM,3k2cedradeesg9mhvkrgq648pmomto,3zwfc4w1uykbh4f2wanaklf98bsrf3,aGIQgblM,2020-0188,2021-10-30,21:43:22,23:21:13,NA,incomplete,false,NA,NA,true,1,17,NA,NA,NA,left,m_s_032.jpg,gray,orange,NA,NA,NA,NA,NA,NA,NA,NA,NA,NaN,NA,2336.9000000059605,right,0,NA,NA,NA,NA,NA
aGIQgblM,3k2cedradeesg9mhvkrgq648pmomto,3zwfc4w1uykbh4f2wanaklf98bsrf3,aGIQgblM,2020-0188,2021-10-30,21:43:22,23:21:13,NA,incomplete,false,NA,NA,true,1,18,NA,NA,NA,left,m_s_105.jpg,gray,orange,NA,NA,NA,NA,NA,NA,NA,NA,NA,NaN,NA,2871.300000011921,left,1,NA,NA,NA,NA,NA
aGIQgblM,3k2cedradeesg9mhvkrgq648pmomto,3zwfc4w1uykbh4f2wanaklf98bsrf3,aGIQgblM,2020-0188,2021-10-30,21:43:22,23:21:13,NA,incomplete,false,NA,NA,true,1,19,NA,NA,NA,left,m_s_069.jpg,black,brown,NA,NA,NA,NA,NA,NA,NA,NA,NA,NaN,NA,1814.300000011921,right,0,NA,NA,NA,NA,NA
aGIQgblM,3k2cedradeesg9mhvkrgq648pmomto,3zwfc4w1uykbh4f2wanaklf98bsrf3,aGIQgblM,2020-0188,2021-10-30,21:43:22,23:21:13,NA,incomplete,false,NA,NA,true,1,20,NA,NA,NA,right,m_s_056.jpg,black,brown,NA,NA,NA,NA,NA,NA,NA,NA,NA,NaN,NA,1742.6000000238419,right,1,NA,NA,NA,NA,NA
aGIQgblM,3k2cedradeesg9mhvkrgq648pmomto,3zwfc4w1uykbh4f2wanaklf98bsrf3,aGIQgblM,2020-0188,2021-10-30,21:43:22,23:21:13,NA,incomplete,false,NA,NA,true,1,21,NA,NA,NA,left,m_l_112.jpg,orange,gray,NA,NA,NA,NA,NA,NA,NA,NA,NA,NaN,NA,5239,left,1,NA,NA,NA,NA,NA
aGIQgblM,3k2cedradeesg9mhvkrgq648pmomto,3zwfc4w1uykbh4f2wanaklf98bsrf3,aGIQgblM,2020-0188,2021-10-30,21:43:22,23:21:13,NA,incomplete,false,NA,true,NA,1,0,NA,NA,NA,right,NA,NA,NA,absent,NA,NA,m_l_112.jpg,orange,m_l_085.jpg,orange,within,NA,NaN,NA,NA,NA,NA,right,2758.5999999940395,1,2,2495
aGIQgblM,3k2cedradeesg9mhvkrgq648pmomto,3zwfc4w1uykbh4f2wanaklf98bsrf3,aGIQgblM,2020-0188,2021-10-30,21:43:22,23:21:13,NA,incomplete,false,NA,true,NA,1,1,NA,NA,NA,left,NA,NA,NA,absent,NA,NA,n_l_009.jpg,blue,m_l_088.jpg,gray,between,NA,NaN,NA,NA,NA,NA,left,2663.0999999940395,1,2,1478.5999999940395
aGIQgblM,3k2cedradeesg9mhvkrgq648pmomto,3zwfc4w1uykbh4f2wanaklf98bsrf3,aGIQgblM,2020-0188,2021-10-30,21:43:22,23:21:13,NA,incomplete,false,NA,true,NA,1,2,NA,NA,NA,right,NA,NA,NA,absent,NA,NA,n_s_042.jpg,orange,m_s_015.jpg,gray,between,NA,NaN,NA,NA,NA,NA,right,2127.4000000059605,1,2,1711.300000011921
aGIQgblM,3k2cedradeesg9mhvkrgq648pmomto,3zwfc4w1uykbh4f2wanaklf98bsrf3,aGIQgblM,2020-0188,2021-10-30,21:43:22,23:21:13,NA,incomplete,false,NA,true,NA,1,3,NA,NA,NA,left,NA,NA,NA,absent,NA,NA,m_s_056.jpg,brown,m_l_079.jpg,brown,within,NA,NaN,NA,NA,NA,NA,right,1878.699999988079,0,2,1895.2999999821186
aGIQgblM,3k2cedradeesg9mhvkrgq648pmomto,3zwfc4w1uykbh4f2wanaklf98bsrf3,aGIQgblM,2020-0188,2021-10-30,21:43:22,23:21:13,NA,incomplete,false,NA,true,NA,1,4,NA,NA,NA,left,NA,NA,NA,absent,NA,NA,n_s_109.jpg,black,m_s_077.jpg,brown,between,NA,NaN,NA,NA,NA,NA,right,2071.5,0,1,1935.4000000059605
aGIQgblM,3k2cedradeesg9mhvkrgq648pmomto,3zwfc4w1uykbh4f2wanaklf98bsrf3,aGIQgblM,2020-0188,2021-10-30,21:43:22,23:21:13,NA,incomplete,false,NA,true,NA,1,5,NA,NA,NA,right,NA,NA,NA,absent,NA,NA,m_s_032.jpg,gray,m_s_105.jpg,gray,within,NA,NaN,NA,NA,NA,NA,left,2048.2999999821186,0,1,2006.800000011921
aGIQgblM,3k2cedradeesg9mhvkrgq648pmomto,3zwfc4w1uykbh4f2wanaklf98bsrf3,aGIQgblM,2020-0188,2021-10-30,21:43:22,23:21:13,NA,incomplete,false,NA,true,NA,1,6,NA,NA,NA,left,NA,NA,NA,absent,NA,NA,m_s_033.jpg,white,m_s_091.jpg,blue,between,NA,NaN,NA,NA,NA,NA,right,2999.2999999821186,0,1,2237.9000000059605
aGIQgblM,3k2cedradeesg9mhvkrgq648pmomto,3zwfc4w1uykbh4f2wanaklf98bsrf3,aGIQgblM,2020-0188,2021-10-30,21:43:22,23:21:13,NA,incomplete,false,NA,true,NA,1,7,NA,NA,NA,left,NA,NA,NA,absent,NA,NA,n_s_025.jpg,orange,m_s_096.jpg,black,between,NA,NaN,NA,NA,NA,NA,right,2503.899999976158,0,1,2199.199999988079
aGIQgblM,3k2cedradeesg9mhvkrgq648pmomto,3zwfc4w1uykbh4f2wanaklf98bsrf3,aGIQgblM,2020-0188,2021-10-30,21:43:22,23:21:13,NA,incomplete,false,NA,true,NA,1,8,NA,NA,NA,left,NA,NA,NA,absent,NA,NA,m_s_067.jpg,blue,n_s_060.jpg,blue,within,NA,NaN,NA,NA,NA,NA,left,3439,1,2,1550.9000000059605
aGIQgblM,3k2cedradeesg9mhvkrgq648pmomto,3zwfc4w1uykbh4f2wanaklf98bsrf3,aGIQgblM,2020-0188,2021-10-30,21:43:22,23:21:13,NA,incomplete,false,NA,true,NA,1,9,NA,NA,NA,left,NA,NA,NA,absent,NA,NA,m_s_007.jpg,white,m_s_075.jpg,white,within,NA,NaN,NA,NA,NA,NA,left,2351.300000011921,1,2,1535.199999988079
aGIQgblM,3k2cedradeesg9mhvkrgq648pmomto,3zwfc4w1uykbh4f2wanaklf98bsrf3,aGIQgblM,2020-0188,2021-10-30,21:43:22,23:21:13,NA,incomplete,false,NA,true,NA,1,10,NA,NA,NA,left,NA,NA,NA,absent,NA,NA,n_s_079.jpg,black,m_s_069.jpg,black,within,NA,NaN,NA,NA,NA,NA,left,3343.2000000178814,1,2,2070.9000000059605
aGIQgblM,3k2cedradeesg9mhvkrgq648pmomto,3zwfc4w1uykbh4f2wanaklf98bsrf3,aGIQgblM,2020-0188,2021-10-30,21:43:22,23:21:13,NA,incomplete,false,true,NA,NA,2,0,NA,green,n_s_047.jpg,NA,NA,NA,NA,NA,unpleasant,pleasant,NA,NA,NA,NA,NA,none,0,false,NA,NA,NA,NA,NA,NA,NA,NA
aGIQgblM,3k2cedradeesg9mhvkrgq648pmomto,3zwfc4w1uykbh4f2wanaklf98bsrf3,aGIQgblM,2020-0188,2021-10-30,21:43:22,23:21:13,NA,incomplete,false,true,NA,NA,2,1,NA,green,n_s_024.jpg,NA,NA,NA,NA,NA,pleasant,unpleasant,NA,NA,NA,NA,NA,left,1843.90000000596,true,NA,NA,NA,NA,NA,NA,NA,NA
aGIQgblM,3k2cedradeesg9mhvkrgq648pmomto,3zwfc4w1uykbh4f2wanaklf98bsrf3,aGIQgblM,2020-0188,2021-10-30,21:43:22,23:21:13,NA,incomplete,false,true,NA,NA,2,2,NA,green,n_l_081.jpg,NA,NA,NA,NA,NA,unpleasant,pleasant,NA,NA,NA,NA,NA,right,1585.90000000596,true,NA,NA,NA,NA,NA,NA,NA,NA
aGIQgblM,3k2cedradeesg9mhvkrgq648pmomto,3zwfc4w1uykbh4f2wanaklf98bsrf3,aGIQgblM,2020-0188,2021-10-30,21:43:22,23:21:13,NA,incomplete,false,true,NA,NA,2,3,NA,green,m_s_107.jpg,NA,NA,NA,NA,NA,pleasant,unpleasant,NA,NA,NA,NA,NA,left,1713.90000000596,true,NA,NA,NA,NA,NA,NA,NA,NA
aGIQgblM,3k2cedradeesg9mhvkrgq648pmomto,3zwfc4w1uykbh4f2wanaklf98bsrf3,aGIQgblM,2020-0188,2021-10-30,21:43:22,23:21:13,NA,incomplete,false,true,NA,NA,2,4,NA,green,m_s_016.jpg,NA,NA,NA,NA,NA,unpleasant,pleasant,NA,NA,NA,NA,NA,right,1780.40000000596,true,NA,NA,NA,NA,NA,NA,NA,NA
aGIQgblM,3k2cedradeesg9mhvkrgq648pmomto,3zwfc4w1uykbh4f2wanaklf98bsrf3,aGIQgblM,2020-0188,2021-10-30,21:43:22,23:21:13,NA,incomplete,false,true,NA,NA,2,5,NA,green,n_l_112.jpg,NA,NA,NA,NA,NA,unpleasant,pleasant,NA,NA,NA,NA,NA,right,1547.79999998212,true,NA,NA,NA,NA,NA,NA,NA,NA
aGIQgblM,3k2cedradeesg9mhvkrgq648pmomto,3zwfc4w1uykbh4f2wanaklf98bsrf3,aGIQgblM,2020-0188,2021-10-30,21:43:22,23:21:13,NA,incomplete,false,true,NA,NA,2,6,NA,yellow,m_l_041.jpg,NA,NA,NA,NA,NA,unpleasant,pleasant,NA,NA,NA,NA,NA,right,2064.10000002384,true,NA,NA,NA,NA,NA,NA,NA,NA
aGIQgblM,3k2cedradeesg9mhvkrgq648pmomto,3zwfc4w1uykbh4f2wanaklf98bsrf3,aGIQgblM,2020-0188,2021-10-30,21:43:22,23:21:13,NA,incomplete,false,true,NA,NA,2,7,NA,yellow,m_s_092.jpg,NA,NA,NA,NA,NA,pleasant,unpleasant,NA,NA,NA,NA,NA,right,1064.60000002384,true,NA,NA,NA,NA,NA,NA,NA,NA
aGIQgblM,3k2cedradeesg9mhvkrgq648pmomto,3zwfc4w1uykbh4f2wanaklf98bsrf3,aGIQgblM,2020-0188,2021-10-30,21:43:22,23:21:13,NA,incomplete,false,true,NA,NA,2,8,NA,yellow,n_l_018.jpg,NA,NA,NA,NA,NA,unpleasant,pleasant,NA,NA,NA,NA,NA,right,1506.70000001788,true,NA,NA,NA,NA,NA,NA,NA,NA
aGIQgblM,3k2cedradeesg9mhvkrgq648pmomto,3zwfc4w1uykbh4f2wanaklf98bsrf3,aGIQgblM,2020-0188,2021-10-30,21:43:22,23:21:13,NA,incomplete,false,true,NA,NA,2,9,NA,yellow,n_s_115.jpg,NA,NA,NA,NA,NA,pleasant,unpleasant,NA,NA,NA,NA,NA,left,1885.40000000596,true,NA,NA,NA,NA,NA,NA,NA,NA
aGIQgblM,3k2cedradeesg9mhvkrgq648pmomto,3zwfc4w1uykbh4f2wanaklf98bsrf3,aGIQgblM,2020-0188,2021-10-30,21:43:22,23:21:13,NA,incomplete,false,true,NA,NA,2,10,NA,yellow,m_s_006.jpg,NA,NA,NA,NA,NA,pleasant,unpleasant,NA,NA,NA,NA,NA,left,1675.80000001192,true,NA,NA,NA,NA,NA,NA,NA,NA
aGIQgblM,3k2cedradeesg9mhvkrgq648pmomto,3zwfc4w1uykbh4f2wanaklf98bsrf3,aGIQgblM,2020-0188,2021-10-30,21:43:22,23:21:13,NA,incomplete,false,true,NA,NA,2,11,NA,yellow,m_s_083.jpg,NA,NA,NA,NA,NA,pleasant,unpleasant,NA,NA,NA,NA,NA,left,1439.59999999404,true,NA,NA,NA,NA,NA,NA,NA,NA
aGIQgblM,3k2cedradeesg9mhvkrgq648pmomto,3zwfc4w1uykbh4f2wanaklf98bsrf3,aGIQgblM,2020-0188,2021-10-30,21:43:22,23:21:13,NA,incomplete,false,true,NA,NA,2,12,NA,orange,n_l_087.jpg,NA,NA,NA,NA,NA,unpleasant,pleasant,NA,NA,NA,NA,NA,right,1557.20000001788,true,NA,NA,NA,NA,NA,NA,NA,NA
aGIQgblM,3k2cedradeesg9mhvkrgq648pmomto,3zwfc4w1uykbh4f2wanaklf98bsrf3,aGIQgblM,2020-0188,2021-10-30,21:43:22,23:21:13,NA,incomplete,false,true,NA,NA,2,13,NA,orange,n_l_077.jpg,NA,NA,NA,NA,NA,pleasant,unpleasant,NA,NA,NA,NA,NA,right,1888.5,true,NA,NA,NA,NA,NA,NA,NA,NA
aGIQgblM,3k2cedradeesg9mhvkrgq648pmomto,3zwfc4w1uykbh4f2wanaklf98bsrf3,aGIQgblM,2020-0188,2021-10-30,21:43:22,23:21:13,NA,incomplete,false,true,NA,NA,2,14,NA,orange,n_l_065.jpg,NA,NA,NA,NA,NA,pleasant,unpleasant,NA,NA,NA,NA,NA,left,1738.30000001192,true,NA,NA,NA,NA,NA,NA,NA,NA
aGIQgblM,3k2cedradeesg9mhvkrgq648pmomto,3zwfc4w1uykbh4f2wanaklf98bsrf3,aGIQgblM,2020-0188,2021-10-30,21:43:22,23:21:13,NA,incomplete,false,true,NA,NA,2,15,NA,orange,n_l_021.jpg,NA,NA,NA,NA,NA,pleasant,unpleasant,NA,NA,NA,NA,NA,left,1466.79999998212,true,NA,NA,NA,NA,NA,NA,NA,NA
aGIQgblM,3k2cedradeesg9mhvkrgq648pmomto,3zwfc4w1uykbh4f2wanaklf98bsrf3,aGIQgblM,2020-0188,2021-10-30,21:43:22,23:21:13,NA,incomplete,false,true,NA,NA,2,16,NA,orange,n_s_117.jpg,NA,NA,NA,NA,NA,pleasant,unpleasant,NA,NA,NA,NA,NA,right,2400.09999999404,true,NA,NA,NA,NA,NA,NA,NA,NA
aGIQgblM,3k2cedradeesg9mhvkrgq648pmomto,3zwfc4w1uykbh4f2wanaklf98bsrf3,aGIQgblM,2020-0188,2021-10-30,21:43:22,23:21:13,NA,incomplete,false,true,NA,NA,2,17,NA,orange,n_s_041.jpg,NA,NA,NA,NA,NA,pleasant,unpleasant,NA,NA,NA,NA,NA,left,1511.5,true,NA,NA,NA,NA,NA,NA,NA,NA
aGIQgblM,3k2cedradeesg9mhvkrgq648pmomto,3zwfc4w1uykbh4f2wanaklf98bsrf3,aGIQgblM,2020-0188,2021-10-30,21:43:22,23:21:13,NA,incomplete,false,true,NA,NA,2,18,NA,white,m_l_058.jpg,NA,NA,NA,NA,NA,pleasant,unpleasant,NA,NA,NA,NA,NA,left,1850.70000001788,true,NA,NA,NA,NA,NA,NA,NA,NA
aGIQgblM,3k2cedradeesg9mhvkrgq648pmomto,3zwfc4w1uykbh4f2wanaklf98bsrf3,aGIQgblM,2020-0188,2021-10-30,21:43:22,23:21:13,NA,incomplete,false,true,NA,NA,2,19,NA,white,n_l_028.jpg,NA,NA,NA,NA,NA,unpleasant,pleasant,NA,NA,NA,NA,NA,right,2043.59999999404,true,NA,NA,NA,NA,NA,NA,NA,NA
aGIQgblM,3k2cedradeesg9mhvkrgq648pmomto,3zwfc4w1uykbh4f2wanaklf98bsrf3,aGIQgblM,2020-0188,2021-10-30,21:43:22,23:21:13,NA,incomplete,false,true,NA,NA,2,20,NA,white,n_l_035.jpg,NA,NA,NA,NA,NA,pleasant,unpleasant,NA,NA,NA,NA,NA,left,1889.89999997616,true,NA,NA,NA,NA,NA,NA,NA,NA
aGIQgblM,3k2cedradeesg9mhvkrgq648pmomto,3zwfc4w1uykbh4f2wanaklf98bsrf3,aGIQgblM,2020-0188,2021-10-30,21:43:22,23:21:13,NA,incomplete,false,true,NA,NA,2,21,NA,white,n_s_050.jpg,NA,NA,NA,NA,NA,unpleasant,pleasant,NA,NA,NA,NA,NA,right,1904.5,true,NA,NA,NA,NA,NA,NA,NA,NA
aGIQgblM,3k2cedradeesg9mhvkrgq648pmomto,3zwfc4w1uykbh4f2wanaklf98bsrf3,aGIQgblM,2020-0188,2021-10-30,21:43:22,23:21:13,NA,incomplete,false,true,NA,NA,2,22,NA,white,m_l_062.jpg,NA,NA,NA,NA,NA,unpleasant,pleasant,NA,NA,NA,NA,NA,right,1702.40000000596,true,NA,NA,NA,NA,NA,NA,NA,NA
aGIQgblM,3k2cedradeesg9mhvkrgq648pmomto,3zwfc4w1uykbh4f2wanaklf98bsrf3,aGIQgblM,2020-0188,2021-10-30,21:43:22,23:21:13,NA,incomplete,false,true,NA,NA,2,23,NA,white,n_s_112.jpg,NA,NA,NA,NA,NA,unpleasant,pleasant,NA,NA,NA,NA,NA,right,1541.5,true,NA,NA,NA,NA,NA,NA,NA,NA
aGIQgblM,3k2cedradeesg9mhvkrgq648pmomto,3zwfc4w1uykbh4f2wanaklf98bsrf3,aGIQgblM,2020-0188,2021-10-30,21:43:22,23:21:13,NA,incomplete,false,true,NA,NA,2,24,NA,gray,n_s_084.jpg,NA,NA,NA,NA,NA,unpleasant,pleasant,NA,NA,NA,NA,NA,right,1730.59999999404,true,NA,NA,NA,NA,NA,NA,NA,NA
aGIQgblM,3k2cedradeesg9mhvkrgq648pmomto,3zwfc4w1uykbh4f2wanaklf98bsrf3,aGIQgblM,2020-0188,2021-10-30,21:43:22,23:21:13,NA,incomplete,false,true,NA,NA,2,25,NA,gray,m_s_095.jpg,NA,NA,NA,NA,NA,unpleasant,pleasant,NA,NA,NA,NA,NA,right,1627.80000001192,true,NA,NA,NA,NA,NA,NA,NA,NA
aGIQgblM,3k2cedradeesg9mhvkrgq648pmomto,3zwfc4w1uykbh4f2wanaklf98bsrf3,aGIQgblM,2020-0188,2021-10-30,21:43:22,23:21:13,NA,incomplete,false,true,NA,NA,2,26,NA,gray,n_s_052.jpg,NA,NA,NA,NA,NA,unpleasant,pleasant,NA,NA,NA,NA,NA,right,1371.40000000596,true,NA,NA,NA,NA,NA,NA,NA,NA
aGIQgblM,3k2cedradeesg9mhvkrgq648pmomto,3zwfc4w1uykbh4f2wanaklf98bsrf3,aGIQgblM,2020-0188,2021-10-30,21:43:22,23:21:13,NA,incomplete,false,true,NA,NA,2,27,NA,gray,m_s_117.jpg,NA,NA,NA,NA,NA,unpleasant,pleasant,NA,NA,NA,NA,NA,right,1881.29999998212,true,NA,NA,NA,NA,NA,NA,NA,NA
aGIQgblM,3k2cedradeesg9mhvkrgq648pmomto,3zwfc4w1uykbh4f2wanaklf98bsrf3,aGIQgblM,2020-0188,2021-10-30,21:43:22,23:21:13,NA,incomplete,false,true,NA,NA,2,28,NA,gray,n_l_070.jpg,NA,NA,NA,NA,NA,pleasant,unpleasant,NA,NA,NA,NA,NA,left,1775.80000001192,true,NA,NA,NA,NA,NA,NA,NA,NA
aGIQgblM,3k2cedradeesg9mhvkrgq648pmomto,3zwfc4w1uykbh4f2wanaklf98bsrf3,aGIQgblM,2020-0188,2021-10-30,21:43:22,23:21:13,NA,incomplete,false,true,NA,NA,2,29,NA,gray,n_l_001.jpg,NA,NA,NA,NA,NA,pleasant,unpleasant,NA,NA,NA,NA,NA,left,1659.40000000596,true,NA,NA,NA,NA,NA,NA,NA,NA
aGIQgblM,3k2cedradeesg9mhvkrgq648pmomto,3zwfc4w1uykbh4f2wanaklf98bsrf3,aGIQgblM,2020-0188,2021-10-30,21:43:22,23:21:13,NA,incomplete,false,true,NA,NA,2,30,NA,black,m_l_008.jpg,NA,NA,NA,NA,NA,pleasant,unpleasant,NA,NA,NA,NA,NA,left,1717.5,true,NA,NA,NA,NA,NA,NA,NA,NA
aGIQgblM,3k2cedradeesg9mhvkrgq648pmomto,3zwfc4w1uykbh4f2wanaklf98bsrf3,aGIQgblM,2020-0188,2021-10-30,21:43:22,23:21:13,NA,incomplete,false,true,NA,NA,2,31,NA,black,n_l_088.jpg,NA,NA,NA,NA,NA,unpleasant,pleasant,NA,NA,NA,NA,NA,right,1648,true,NA,NA,NA,NA,NA,NA,NA,NA
aGIQgblM,3k2cedradeesg9mhvkrgq648pmomto,3zwfc4w1uykbh4f2wanaklf98bsrf3,aGIQgblM,2020-0188,2021-10-30,21:43:22,23:21:13,NA,incomplete,false,true,NA,NA,2,32,NA,black,n_s_048.jpg,NA,NA,NA,NA,NA,pleasant,unpleasant,NA,NA,NA,NA,NA,left,2111.5,true,NA,NA,NA,NA,NA,NA,NA,NA
aGIQgblM,3k2cedradeesg9mhvkrgq648pmomto,3zwfc4w1uykbh4f2wanaklf98bsrf3,aGIQgblM,2020-0188,2021-10-30,21:43:22,23:21:13,NA,incomplete,false,true,NA,NA,2,33,NA,black,n_l_026.jpg,NA,NA,NA,NA,NA,pleasant,unpleasant,NA,NA,NA,NA,NA,left,2010.09999999404,true,NA,NA,NA,NA,NA,NA,NA,NA
aGIQgblM,3k2cedradeesg9mhvkrgq648pmomto,3zwfc4w1uykbh4f2wanaklf98bsrf3,aGIQgblM,2020-0188,2021-10-30,21:43:22,23:21:13,NA,incomplete,false,true,NA,NA,2,34,NA,black,n_l_073.jpg,NA,NA,NA,NA,NA,unpleasant,pleasant,NA,NA,NA,NA,NA,right,1801.70000001788,true,NA,NA,NA,NA,NA,NA,NA,NA
aGIQgblM,3k2cedradeesg9mhvkrgq648pmomto,3zwfc4w1uykbh4f2wanaklf98bsrf3,aGIQgblM,2020-0188,2021-10-30,21:43:22,23:21:13,NA,incomplete,false,true,NA,NA,2,35,NA,black,m_l_077.jpg,NA,NA,NA,NA,NA,pleasant,unpleasant,NA,NA,NA,NA,NA,left,1650.40000000596,true,NA,NA,NA,NA,NA,NA,NA,NA
aGIQgblM,3k2cedradeesg9mhvkrgq648pmomto,3zwfc4w1uykbh4f2wanaklf98bsrf3,aGIQgblM,2020-0188,2021-10-30,21:43:22,23:21:13,NA,incomplete,false,NA,NA,true,2,0,NA,NA,NA,left,n_s_052.jpg,gray,white,NA,NA,NA,NA,NA,NA,NA,NA,NA,NaN,NA,4030.7999999821186,left,1,NA,NA,NA,NA,NA
aGIQgblM,3k2cedradeesg9mhvkrgq648pmomto,3zwfc4w1uykbh4f2wanaklf98bsrf3,aGIQgblM,2020-0188,2021-10-30,21:43:22,23:21:13,NA,incomplete,false,NA,NA,true,2,1,NA,NA,NA,left,m_s_095.jpg,gray,white,NA,NA,NA,NA,NA,NA,NA,NA,NA,NaN,NA,2790.5999999940395,right,0,NA,NA,NA,NA,NA
aGIQgblM,3k2cedradeesg9mhvkrgq648pmomto,3zwfc4w1uykbh4f2wanaklf98bsrf3,aGIQgblM,2020-0188,2021-10-30,21:43:22,23:21:13,NA,incomplete,false,NA,NA,true,2,2,NA,NA,NA,left,m_s_016.jpg,green,yellow,NA,NA,NA,NA,NA,NA,NA,NA,NA,NaN,NA,2694.9000000059605,left,1,NA,NA,NA,NA,NA
aGIQgblM,3k2cedradeesg9mhvkrgq648pmomto,3zwfc4w1uykbh4f2wanaklf98bsrf3,aGIQgblM,2020-0188,2021-10-30,21:43:22,23:21:13,NA,incomplete,false,NA,NA,true,2,3,NA,NA,NA,left,m_s_083.jpg,yellow,orange,NA,NA,NA,NA,NA,NA,NA,NA,NA,NaN,NA,2686.899999976158,right,0,NA,NA,NA,NA,NA
aGIQgblM,3k2cedradeesg9mhvkrgq648pmomto,3zwfc4w1uykbh4f2wanaklf98bsrf3,aGIQgblM,2020-0188,2021-10-30,21:43:22,23:21:13,NA,incomplete,false,NA,NA,true,2,4,NA,NA,NA,right,n_l_018.jpg,green,yellow,NA,NA,NA,NA,NA,NA,NA,NA,NA,NaN,NA,2838.600000023842,left,0,NA,NA,NA,NA,NA
aGIQgblM,3k2cedradeesg9mhvkrgq648pmomto,3zwfc4w1uykbh4f2wanaklf98bsrf3,aGIQgblM,2020-0188,2021-10-30,21:43:22,23:21:13,NA,incomplete,false,NA,NA,true,2,5,NA,NA,NA,left,n_s_117.jpg,orange,yellow,NA,NA,NA,NA,NA,NA,NA,NA,NA,NaN,NA,3134.7999999821186,right,0,NA,NA,NA,NA,NA
aGIQgblM,3k2cedradeesg9mhvkrgq648pmomto,3zwfc4w1uykbh4f2wanaklf98bsrf3,aGIQgblM,2020-0188,2021-10-30,21:43:22,23:21:13,NA,incomplete,false,NA,NA,true,2,6,NA,NA,NA,left,n_l_065.jpg,orange,white,NA,NA,NA,NA,NA,NA,NA,NA,NA,NaN,NA,2214.7999999821186,right,0,NA,NA,NA,NA,NA
aGIQgblM,3k2cedradeesg9mhvkrgq648pmomto,3zwfc4w1uykbh4f2wanaklf98bsrf3,aGIQgblM,2020-0188,2021-10-30,21:43:22,23:21:13,NA,incomplete,false,NA,NA,true,2,7,NA,NA,NA,left,n_s_112.jpg,white,orange,NA,NA,NA,NA,NA,NA,NA,NA,NA,NaN,NA,2302.699999988079,left,1,NA,NA,NA,NA,NA
aGIQgblM,3k2cedradeesg9mhvkrgq648pmomto,3zwfc4w1uykbh4f2wanaklf98bsrf3,aGIQgblM,2020-0188,2021-10-30,21:43:22,23:21:13,NA,incomplete,false,NA,NA,true,2,8,NA,NA,NA,right,n_s_048.jpg,gray,black,NA,NA,NA,NA,NA,NA,NA,NA,NA,NaN,NA,2119.399999976158,right,1,NA,NA,NA,NA,NA
aGIQgblM,3k2cedradeesg9mhvkrgq648pmomto,3zwfc4w1uykbh4f2wanaklf98bsrf3,aGIQgblM,2020-0188,2021-10-30,21:43:22,23:21:13,NA,incomplete,false,NA,NA,true,2,9,NA,NA,NA,right,n_l_070.jpg,white,gray,NA,NA,NA,NA,NA,NA,NA,NA,NA,NaN,NA,2334.5,left,0,NA,NA,NA,NA,NA
aGIQgblM,3k2cedradeesg9mhvkrgq648pmomto,3zwfc4w1uykbh4f2wanaklf98bsrf3,aGIQgblM,2020-0188,2021-10-30,21:43:22,23:21:13,NA,incomplete,false,NA,NA,true,2,10,NA,NA,NA,left,m_l_077.jpg,black,gray,NA,NA,NA,NA,NA,NA,NA,NA,NA,NaN,NA,2478.5,left,1,NA,NA,NA,NA,NA
aGIQgblM,3k2cedradeesg9mhvkrgq648pmomto,3zwfc4w1uykbh4f2wanaklf98bsrf3,aGIQgblM,2020-0188,2021-10-30,21:43:22,23:21:13,NA,incomplete,false,NA,NA,true,2,11,NA,NA,NA,right,m_s_092.jpg,orange,yellow,NA,NA,NA,NA,NA,NA,NA,NA,NA,NaN,NA,3590.199999988079,right,1,NA,NA,NA,NA,NA
aGIQgblM,3k2cedradeesg9mhvkrgq648pmomto,3zwfc4w1uykbh4f2wanaklf98bsrf3,aGIQgblM,2020-0188,2021-10-30,21:43:22,23:21:13,NA,incomplete,false,NA,NA,true,2,12,NA,NA,NA,right,m_s_006.jpg,green,yellow,NA,NA,NA,NA,NA,NA,NA,NA,NA,NaN,NA,4199,right,1,NA,NA,NA,NA,NA
aGIQgblM,3k2cedradeesg9mhvkrgq648pmomto,3zwfc4w1uykbh4f2wanaklf98bsrf3,aGIQgblM,2020-0188,2021-10-30,21:43:22,23:21:13,NA,incomplete,false,NA,NA,true,2,13,NA,NA,NA,right,n_l_028.jpg,orange,white,NA,NA,NA,NA,NA,NA,NA,NA,NA,NaN,NA,3015,left,0,NA,NA,NA,NA,NA
aGIQgblM,3k2cedradeesg9mhvkrgq648pmomto,3zwfc4w1uykbh4f2wanaklf98bsrf3,aGIQgblM,2020-0188,2021-10-30,21:43:22,23:21:13,NA,incomplete,false,NA,NA,true,2,14,NA,NA,NA,right,n_s_041.jpg,white,orange,NA,NA,NA,NA,NA,NA,NA,NA,NA,NaN,NA,3230.9000000059605,right,1,NA,NA,NA,NA,NA
aGIQgblM,3k2cedradeesg9mhvkrgq648pmomto,3zwfc4w1uykbh4f2wanaklf98bsrf3,aGIQgblM,2020-0188,2021-10-30,21:43:22,23:21:13,NA,incomplete,false,NA,NA,true,2,15,NA,NA,NA,right,n_l_088.jpg,gray,black,NA,NA,NA,NA,NA,NA,NA,NA,NA,NaN,NA,3357.800000011921,left,0,NA,NA,NA,NA,NA
aGIQgblM,3k2cedradeesg9mhvkrgq648pmomto,3zwfc4w1uykbh4f2wanaklf98bsrf3,aGIQgblM,2020-0188,2021-10-30,21:43:22,23:21:13,NA,incomplete,false,NA,NA,true,2,16,NA,NA,NA,right,n_l_112.jpg,yellow,green,NA,NA,NA,NA,NA,NA,NA,NA,NA,NaN,NA,2373.4000000059605,right,1,NA,NA,NA,NA,NA
aGIQgblM,3k2cedradeesg9mhvkrgq648pmomto,3zwfc4w1uykbh4f2wanaklf98bsrf3,aGIQgblM,2020-0188,2021-10-30,21:43:22,23:21:13,NA,incomplete,false,NA,NA,true,2,17,NA,NA,NA,right,n_l_001.jpg,white,gray,NA,NA,NA,NA,NA,NA,NA,NA,NA,NaN,NA,3943,right,1,NA,NA,NA,NA,NA
aGIQgblM,3k2cedradeesg9mhvkrgq648pmomto,3zwfc4w1uykbh4f2wanaklf98bsrf3,aGIQgblM,2020-0188,2021-10-30,21:43:22,23:21:13,NA,incomplete,false,NA,NA,true,2,18,NA,NA,NA,left,n_l_035.jpg,white,gray,NA,NA,NA,NA,NA,NA,NA,NA,NA,NaN,NA,3782.9000000059605,left,1,NA,NA,NA,NA,NA
aGIQgblM,3k2cedradeesg9mhvkrgq648pmomto,3zwfc4w1uykbh4f2wanaklf98bsrf3,aGIQgblM,2020-0188,2021-10-30,21:43:22,23:21:13,NA,incomplete,false,NA,NA,true,2,19,NA,NA,NA,right,n_s_024.jpg,yellow,green,NA,NA,NA,NA,NA,NA,NA,NA,NA,NaN,NA,2319.4000000059605,right,1,NA,NA,NA,NA,NA
aGIQgblM,3k2cedradeesg9mhvkrgq648pmomto,3zwfc4w1uykbh4f2wanaklf98bsrf3,aGIQgblM,2020-0188,2021-10-30,21:43:22,23:21:13,NA,incomplete,false,NA,NA,true,2,20,NA,NA,NA,left,n_l_077.jpg,orange,white,NA,NA,NA,NA,NA,NA,NA,NA,NA,NaN,NA,2470.9000000059605,right,0,NA,NA,NA,NA,NA
aGIQgblM,3k2cedradeesg9mhvkrgq648pmomto,3zwfc4w1uykbh4f2wanaklf98bsrf3,aGIQgblM,2020-0188,2021-10-30,21:43:22,23:21:13,NA,incomplete,false,NA,NA,true,2,21,NA,NA,NA,left,m_l_062.jpg,white,gray,NA,NA,NA,NA,NA,NA,NA,NA,NA,NaN,NA,2511,left,1,NA,NA,NA,NA,NA
aGIQgblM,3k2cedradeesg9mhvkrgq648pmomto,3zwfc4w1uykbh4f2wanaklf98bsrf3,aGIQgblM,2020-0188,2021-10-30,21:43:22,23:21:13,NA,incomplete,false,NA,true,NA,2,0,NA,NA,NA,left,NA,NA,NA,absent,NA,NA,m_s_006.jpg,yellow,n_l_065.jpg,orange,between,NA,NaN,NA,NA,NA,NA,right,2495.399999976158,0,2,2150.600000023842
aGIQgblM,3k2cedradeesg9mhvkrgq648pmomto,3zwfc4w1uykbh4f2wanaklf98bsrf3,aGIQgblM,2020-0188,2021-10-30,21:43:22,23:21:13,NA,incomplete,false,NA,true,NA,2,1,NA,NA,NA,left,NA,NA,NA,absent,NA,NA,n_l_077.jpg,orange,n_s_041.jpg,orange,within,NA,NaN,NA,NA,NA,NA,right,3126.4000000059605,0,2,1887.300000011921
aGIQgblM,3k2cedradeesg9mhvkrgq648pmomto,3zwfc4w1uykbh4f2wanaklf98bsrf3,aGIQgblM,2020-0188,2021-10-30,21:43:22,23:21:13,NA,incomplete,false,NA,true,NA,2,2,NA,NA,NA,left,NA,NA,NA,absent,NA,NA,m_l_062.jpg,white,n_s_052.jpg,gray,between,NA,NaN,NA,NA,NA,NA,right,2319.4000000059605,0,2,1494.800000011921
aGIQgblM,3k2cedradeesg9mhvkrgq648pmomto,3zwfc4w1uykbh4f2wanaklf98bsrf3,aGIQgblM,2020-0188,2021-10-30,21:43:22,23:21:13,NA,incomplete,false,NA,true,NA,2,3,NA,NA,NA,left,NA,NA,NA,absent,NA,NA,m_s_016.jpg,green,n_l_018.jpg,yellow,between,NA,NaN,NA,NA,NA,NA,left,4911.300000011921,1,1,1647.2000000178814
aGIQgblM,3k2cedradeesg9mhvkrgq648pmomto,3zwfc4w1uykbh4f2wanaklf98bsrf3,aGIQgblM,2020-0188,2021-10-30,21:43:22,23:21:13,NA,incomplete,false,NA,true,NA,2,4,NA,NA,NA,left,NA,NA,NA,absent,NA,NA,m_s_092.jpg,yellow,m_s_083.jpg,yellow,within,NA,NaN,NA,NA,NA,NA,left,3660.2999999821186,1,2,1567.2000000178814
aGIQgblM,3k2cedradeesg9mhvkrgq648pmomto,3zwfc4w1uykbh4f2wanaklf98bsrf3,aGIQgblM,2020-0188,2021-10-30,21:43:22,23:21:13,NA,incomplete,false,NA,true,NA,2,5,NA,NA,NA,left,NA,NA,NA,absent,NA,NA,n_s_117.jpg,orange,n_l_035.jpg,white,between,NA,NaN,NA,NA,NA,NA,right,2558.7999999821186,0,2,1383.2000000178814
aGIQgblM,3k2cedradeesg9mhvkrgq648pmomto,3zwfc4w1uykbh4f2wanaklf98bsrf3,aGIQgblM,2020-0188,2021-10-30,21:43:22,23:21:13,NA,incomplete,false,NA,true,NA,2,6,NA,NA,NA,right,NA,NA,NA,absent,NA,NA,n_s_048.jpg,black,n_l_070.jpg,gray,between,NA,NaN,NA,NA,NA,NA,right,1734.800000011921,1,2,1535.1000000238419
aGIQgblM,3k2cedradeesg9mhvkrgq648pmomto,3zwfc4w1uykbh4f2wanaklf98bsrf3,aGIQgblM,2020-0188,2021-10-30,21:43:22,23:21:13,NA,incomplete,false,NA,true,NA,2,7,NA,NA,NA,right,NA,NA,NA,absent,NA,NA,n_l_001.jpg,gray,m_s_095.jpg,gray,within,NA,NaN,NA,NA,NA,NA,left,2487.100000023842,0,2,1407.4000000059605
aGIQgblM,3k2cedradeesg9mhvkrgq648pmomto,3zwfc4w1uykbh4f2wanaklf98bsrf3,aGIQgblM,2020-0188,2021-10-30,21:43:22,23:21:13,NA,incomplete,false,NA,true,NA,2,8,NA,NA,NA,left,NA,NA,NA,absent,NA,NA,n_l_088.jpg,black,m_l_077.jpg,black,within,NA,NaN,NA,NA,NA,NA,left,2110.0999999940395,1,2,2374.9000000059605
aGIQgblM,3k2cedradeesg9mhvkrgq648pmomto,3zwfc4w1uykbh4f2wanaklf98bsrf3,aGIQgblM,2020-0188,2021-10-30,21:43:22,23:21:13,NA,incomplete,false,NA,true,NA,2,9,NA,NA,NA,right,NA,NA,NA,absent,NA,NA,n_l_112.jpg,green,n_s_024.jpg,green,within,NA,NaN,NA,NA,NA,NA,right,1887.300000011921,1,2,1782.800000011921
aGIQgblM,3k2cedradeesg9mhvkrgq648pmomto,3zwfc4w1uykbh4f2wanaklf98bsrf3,aGIQgblM,2020-0188,2021-10-30,21:43:22,23:21:13,NA,incomplete,false,NA,true,NA,2,10,NA,NA,NA,left,NA,NA,NA,absent,NA,NA,n_l_028.jpg,white,n_s_112.jpg,white,within,NA,NaN,NA,NA,NA,NA,left,2263,1,2,1727.0999999940395
aGIQgblM,3k2cedradeesg9mhvkrgq648pmomto,3zwfc4w1uykbh4f2wanaklf98bsrf3,aGIQgblM,2020-0188,2021-10-30,21:43:22,23:21:13,NA,incomplete,false,true,NA,NA,3,0,NA,yellow,m_l_016.jpg,NA,NA,NA,NA,NA,unpleasant,pleasant,NA,NA,NA,NA,NA,right,1964.5,true,NA,NA,NA,NA,NA,NA,NA,NA
aGIQgblM,3k2cedradeesg9mhvkrgq648pmomto,3zwfc4w1uykbh4f2wanaklf98bsrf3,aGIQgblM,2020-0188,2021-10-30,21:43:22,23:21:13,NA,incomplete,false,true,NA,NA,3,1,NA,yellow,m_l_019.jpg,NA,NA,NA,NA,NA,unpleasant,pleasant,NA,NA,NA,NA,NA,right,2412.29999998212,true,NA,NA,NA,NA,NA,NA,NA,NA
aGIQgblM,3k2cedradeesg9mhvkrgq648pmomto,3zwfc4w1uykbh4f2wanaklf98bsrf3,aGIQgblM,2020-0188,2021-10-30,21:43:22,23:21:13,NA,incomplete,false,true,NA,NA,3,2,NA,yellow,n_s_046.jpg,NA,NA,NA,NA,NA,pleasant,unpleasant,NA,NA,NA,NA,NA,left,1626.89999997616,true,NA,NA,NA,NA,NA,NA,NA,NA
aGIQgblM,3k2cedradeesg9mhvkrgq648pmomto,3zwfc4w1uykbh4f2wanaklf98bsrf3,aGIQgblM,2020-0188,2021-10-30,21:43:22,23:21:13,NA,incomplete,false,true,NA,NA,3,3,NA,yellow,n_s_102.jpg,NA,NA,NA,NA,NA,pleasant,unpleasant,NA,NA,NA,NA,NA,left,1591.40000000596,true,NA,NA,NA,NA,NA,NA,NA,NA
aGIQgblM,3k2cedradeesg9mhvkrgq648pmomto,3zwfc4w1uykbh4f2wanaklf98bsrf3,aGIQgblM,2020-0188,2021-10-30,21:43:22,23:21:13,NA,incomplete,false,true,NA,NA,3,4,NA,yellow,m_l_024.jpg,NA,NA,NA,NA,NA,unpleasant,pleasant,NA,NA,NA,NA,NA,right,1947.59999999404,true,NA,NA,NA,NA,NA,NA,NA,NA
aGIQgblM,3k2cedradeesg9mhvkrgq648pmomto,3zwfc4w1uykbh4f2wanaklf98bsrf3,aGIQgblM,2020-0188,2021-10-30,21:43:22,23:21:13,NA,incomplete,false,true,NA,NA,3,5,NA,yellow,m_s_042.jpg,NA,NA,NA,NA,NA,pleasant,unpleasant,NA,NA,NA,NA,NA,left,1567.79999998212,true,NA,NA,NA,NA,NA,NA,NA,NA
aGIQgblM,3k2cedradeesg9mhvkrgq648pmomto,3zwfc4w1uykbh4f2wanaklf98bsrf3,aGIQgblM,2020-0188,2021-10-30,21:43:22,23:21:13,NA,incomplete,false,true,NA,NA,3,6,NA,purple,n_s_089.jpg,NA,NA,NA,NA,NA,pleasant,unpleasant,NA,NA,NA,NA,NA,left,2306.09999999404,true,NA,NA,NA,NA,NA,NA,NA,NA
aGIQgblM,3k2cedradeesg9mhvkrgq648pmomto,3zwfc4w1uykbh4f2wanaklf98bsrf3,aGIQgblM,2020-0188,2021-10-30,21:43:22,23:21:13,NA,incomplete,false,true,NA,NA,3,7,NA,purple,n_l_025.jpg,NA,NA,NA,NA,NA,unpleasant,pleasant,NA,NA,NA,NA,NA,right,1740.40000000596,true,NA,NA,NA,NA,NA,NA,NA,NA
aGIQgblM,3k2cedradeesg9mhvkrgq648pmomto,3zwfc4w1uykbh4f2wanaklf98bsrf3,aGIQgblM,2020-0188,2021-10-30,21:43:22,23:21:13,NA,incomplete,false,true,NA,NA,3,8,NA,purple,n_s_002.jpg,NA,NA,NA,NA,NA,pleasant,unpleasant,NA,NA,NA,NA,NA,left,1555.59999999404,true,NA,NA,NA,NA,NA,NA,NA,NA
aGIQgblM,3k2cedradeesg9mhvkrgq648pmomto,3zwfc4w1uykbh4f2wanaklf98bsrf3,aGIQgblM,2020-0188,2021-10-30,21:43:22,23:21:13,NA,incomplete,false,true,NA,NA,3,9,NA,purple,n_l_004.jpg,NA,NA,NA,NA,NA,unpleasant,pleasant,NA,NA,NA,NA,NA,right,1762.69999998808,true,NA,NA,NA,NA,NA,NA,NA,NA
aGIQgblM,3k2cedradeesg9mhvkrgq648pmomto,3zwfc4w1uykbh4f2wanaklf98bsrf3,aGIQgblM,2020-0188,2021-10-30,21:43:22,23:21:13,NA,incomplete,false,true,NA,NA,3,10,NA,purple,n_s_053.jpg,NA,NA,NA,NA,NA,pleasant,unpleasant,NA,NA,NA,NA,NA,left,2177.5,true,NA,NA,NA,NA,NA,NA,NA,NA
aGIQgblM,3k2cedradeesg9mhvkrgq648pmomto,3zwfc4w1uykbh4f2wanaklf98bsrf3,aGIQgblM,2020-0188,2021-10-30,21:43:22,23:21:13,NA,incomplete,false,true,NA,NA,3,11,NA,purple,m_s_004.jpg,NA,NA,NA,NA,NA,unpleasant,pleasant,NA,NA,NA,NA,NA,right,1687.59999999404,true,NA,NA,NA,NA,NA,NA,NA,NA
aGIQgblM,3k2cedradeesg9mhvkrgq648pmomto,3zwfc4w1uykbh4f2wanaklf98bsrf3,aGIQgblM,2020-0188,2021-10-30,21:43:22,23:21:13,NA,incomplete,false,true,NA,NA,3,12,NA,orange,m_l_105.jpg,NA,NA,NA,NA,NA,pleasant,unpleasant,NA,NA,NA,NA,NA,left,1607.19999998808,true,NA,NA,NA,NA,NA,NA,NA,NA
aGIQgblM,3k2cedradeesg9mhvkrgq648pmomto,3zwfc4w1uykbh4f2wanaklf98bsrf3,aGIQgblM,2020-0188,2021-10-30,21:43:22,23:21:13,NA,incomplete,false,true,NA,NA,3,13,NA,orange,m_l_051.jpg,NA,NA,NA,NA,NA,unpleasant,pleasant,NA,NA,NA,NA,NA,right,1752.09999999404,true,NA,NA,NA,NA,NA,NA,NA,NA
aGIQgblM,3k2cedradeesg9mhvkrgq648pmomto,3zwfc4w1uykbh4f2wanaklf98bsrf3,aGIQgblM,2020-0188,2021-10-30,21:43:22,23:21:13,NA,incomplete,false,true,NA,NA,3,14,NA,orange,m_s_114.jpg,NA,NA,NA,NA,NA,pleasant,unpleasant,NA,NA,NA,NA,NA,left,1641.90000000596,true,NA,NA,NA,NA,NA,NA,NA,NA
aGIQgblM,3k2cedradeesg9mhvkrgq648pmomto,3zwfc4w1uykbh4f2wanaklf98bsrf3,aGIQgblM,2020-0188,2021-10-30,21:43:22,23:21:13,NA,incomplete,false,true,NA,NA,3,15,NA,orange,m_l_036.jpg,NA,NA,NA,NA,NA,pleasant,unpleasant,NA,NA,NA,NA,NA,left,1532.5,true,NA,NA,NA,NA,NA,NA,NA,NA
aGIQgblM,3k2cedradeesg9mhvkrgq648pmomto,3zwfc4w1uykbh4f2wanaklf98bsrf3,aGIQgblM,2020-0188,2021-10-30,21:43:22,23:21:13,NA,incomplete,false,true,NA,NA,3,16,NA,orange,m_l_004.jpg,NA,NA,NA,NA,NA,unpleasant,pleasant,NA,NA,NA,NA,NA,right,1509.39999997616,true,NA,NA,NA,NA,NA,NA,NA,NA
aGIQgblM,3k2cedradeesg9mhvkrgq648pmomto,3zwfc4w1uykbh4f2wanaklf98bsrf3,aGIQgblM,2020-0188,2021-10-30,21:43:22,23:21:13,NA,incomplete,false,true,NA,NA,3,17,NA,orange,m_s_021.jpg,NA,NA,NA,NA,NA,pleasant,unpleasant,NA,NA,NA,NA,NA,left,1927.19999998808,true,NA,NA,NA,NA,NA,NA,NA,NA
aGIQgblM,3k2cedradeesg9mhvkrgq648pmomto,3zwfc4w1uykbh4f2wanaklf98bsrf3,aGIQgblM,2020-0188,2021-10-30,21:43:22,23:21:13,NA,incomplete,false,true,NA,NA,3,18,NA,white,n_s_008.jpg,NA,NA,NA,NA,NA,pleasant,unpleasant,NA,NA,NA,NA,NA,right,1754.5,true,NA,NA,NA,NA,NA,NA,NA,NA
aGIQgblM,3k2cedradeesg9mhvkrgq648pmomto,3zwfc4w1uykbh4f2wanaklf98bsrf3,aGIQgblM,2020-0188,2021-10-30,21:43:22,23:21:13,NA,incomplete,false,true,NA,NA,3,19,NA,white,n_l_038.jpg,NA,NA,NA,NA,NA,unpleasant,pleasant,NA,NA,NA,NA,NA,right,2458.79999998212,true,NA,NA,NA,NA,NA,NA,NA,NA
aGIQgblM,3k2cedradeesg9mhvkrgq648pmomto,3zwfc4w1uykbh4f2wanaklf98bsrf3,aGIQgblM,2020-0188,2021-10-30,21:43:22,23:21:13,NA,incomplete,false,true,NA,NA,3,20,NA,white,m_l_060.jpg,NA,NA,NA,NA,NA,unpleasant,pleasant,NA,NA,NA,NA,NA,right,1809,true,NA,NA,NA,NA,NA,NA,NA,NA
aGIQgblM,3k2cedradeesg9mhvkrgq648pmomto,3zwfc4w1uykbh4f2wanaklf98bsrf3,aGIQgblM,2020-0188,2021-10-30,21:43:22,23:21:13,NA,incomplete,false,true,NA,NA,3,21,NA,white,m_s_113.jpg,NA,NA,NA,NA,NA,unpleasant,pleasant,NA,NA,NA,NA,NA,right,2166.79999998212,true,NA,NA,NA,NA,NA,NA,NA,NA
aGIQgblM,3k2cedradeesg9mhvkrgq648pmomto,3zwfc4w1uykbh4f2wanaklf98bsrf3,aGIQgblM,2020-0188,2021-10-30,21:43:22,23:21:13,NA,incomplete,false,true,NA,NA,3,22,NA,white,n_s_105.jpg,NA,NA,NA,NA,NA,unpleasant,pleasant,NA,NA,NA,NA,NA,right,2178,true,NA,NA,NA,NA,NA,NA,NA,NA
aGIQgblM,3k2cedradeesg9mhvkrgq648pmomto,3zwfc4w1uykbh4f2wanaklf98bsrf3,aGIQgblM,2020-0188,2021-10-30,21:43:22,23:21:13,NA,incomplete,false,true,NA,NA,3,23,NA,white,n_s_018.jpg,NA,NA,NA,NA,NA,pleasant,unpleasant,NA,NA,NA,NA,NA,left,1820.29999998212,true,NA,NA,NA,NA,NA,NA,NA,NA
aGIQgblM,3k2cedradeesg9mhvkrgq648pmomto,3zwfc4w1uykbh4f2wanaklf98bsrf3,aGIQgblM,2020-0188,2021-10-30,21:43:22,23:21:13,NA,incomplete,false,true,NA,NA,3,24,NA,gray,m_l_009.jpg,NA,NA,NA,NA,NA,pleasant,unpleasant,NA,NA,NA,NA,NA,left,1732.80000001192,true,NA,NA,NA,NA,NA,NA,NA,NA
aGIQgblM,3k2cedradeesg9mhvkrgq648pmomto,3zwfc4w1uykbh4f2wanaklf98bsrf3,aGIQgblM,2020-0188,2021-10-30,21:43:22,23:21:13,NA,incomplete,false,true,NA,NA,3,25,NA,gray,m_l_038.jpg,NA,NA,NA,NA,NA,unpleasant,pleasant,NA,NA,NA,NA,NA,left,1651.90000000596,true,NA,NA,NA,NA,NA,NA,NA,NA
aGIQgblM,3k2cedradeesg9mhvkrgq648pmomto,3zwfc4w1uykbh4f2wanaklf98bsrf3,aGIQgblM,2020-0188,2021-10-30,21:43:22,23:21:13,NA,incomplete,false,true,NA,NA,3,26,NA,gray,n_l_097.jpg,NA,NA,NA,NA,NA,pleasant,unpleasant,NA,NA,NA,NA,NA,left,2072.90000000596,true,NA,NA,NA,NA,NA,NA,NA,NA
aGIQgblM,3k2cedradeesg9mhvkrgq648pmomto,3zwfc4w1uykbh4f2wanaklf98bsrf3,aGIQgblM,2020-0188,2021-10-30,21:43:22,23:21:13,NA,incomplete,false,true,NA,NA,3,27,NA,gray,m_l_103.jpg,NA,NA,NA,NA,NA,unpleasant,pleasant,NA,NA,NA,NA,NA,right,1592,true,NA,NA,NA,NA,NA,NA,NA,NA
aGIQgblM,3k2cedradeesg9mhvkrgq648pmomto,3zwfc4w1uykbh4f2wanaklf98bsrf3,aGIQgblM,2020-0188,2021-10-30,21:43:22,23:21:13,NA,incomplete,false,true,NA,NA,3,28,NA,gray,m_s_005.jpg,NA,NA,NA,NA,NA,unpleasant,pleasant,NA,NA,NA,NA,NA,right,2077.69999998808,true,NA,NA,NA,NA,NA,NA,NA,NA
aGIQgblM,3k2cedradeesg9mhvkrgq648pmomto,3zwfc4w1uykbh4f2wanaklf98bsrf3,aGIQgblM,2020-0188,2021-10-30,21:43:22,23:21:13,NA,incomplete,false,true,NA,NA,3,29,NA,gray,m_l_014.jpg,NA,NA,NA,NA,NA,pleasant,unpleasant,NA,NA,NA,NA,NA,left,2488.29999998212,true,NA,NA,NA,NA,NA,NA,NA,NA
aGIQgblM,3k2cedradeesg9mhvkrgq648pmomto,3zwfc4w1uykbh4f2wanaklf98bsrf3,aGIQgblM,2020-0188,2021-10-30,21:43:22,23:21:13,NA,incomplete,false,true,NA,NA,3,30,NA,green,m_s_064.jpg,NA,NA,NA,NA,NA,pleasant,unpleasant,NA,NA,NA,NA,NA,left,2459.40000000596,true,NA,NA,NA,NA,NA,NA,NA,NA
aGIQgblM,3k2cedradeesg9mhvkrgq648pmomto,3zwfc4w1uykbh4f2wanaklf98bsrf3,aGIQgblM,2020-0188,2021-10-30,21:43:22,23:21:13,NA,incomplete,false,true,NA,NA,3,31,NA,green,m_s_058.jpg,NA,NA,NA,NA,NA,pleasant,unpleasant,NA,NA,NA,NA,NA,left,2219.70000001788,true,NA,NA,NA,NA,NA,NA,NA,NA
aGIQgblM,3k2cedradeesg9mhvkrgq648pmomto,3zwfc4w1uykbh4f2wanaklf98bsrf3,aGIQgblM,2020-0188,2021-10-30,21:43:22,23:21:13,NA,incomplete,false,true,NA,NA,3,32,NA,green,m_l_056.jpg,NA,NA,NA,NA,NA,pleasant,unpleasant,NA,NA,NA,NA,NA,left,1812.20000001788,true,NA,NA,NA,NA,NA,NA,NA,NA
aGIQgblM,3k2cedradeesg9mhvkrgq648pmomto,3zwfc4w1uykbh4f2wanaklf98bsrf3,aGIQgblM,2020-0188,2021-10-30,21:43:22,23:21:13,NA,incomplete,false,true,NA,NA,3,33,NA,green,n_l_013.jpg,NA,NA,NA,NA,NA,unpleasant,pleasant,NA,NA,NA,NA,NA,right,1941.90000000596,true,NA,NA,NA,NA,NA,NA,NA,NA
aGIQgblM,3k2cedradeesg9mhvkrgq648pmomto,3zwfc4w1uykbh4f2wanaklf98bsrf3,aGIQgblM,2020-0188,2021-10-30,21:43:22,23:21:13,NA,incomplete,false,true,NA,NA,3,34,NA,green,n_l_101.jpg,NA,NA,NA,NA,NA,unpleasant,pleasant,NA,NA,NA,NA,NA,right,1582.59999999404,true,NA,NA,NA,NA,NA,NA,NA,NA
aGIQgblM,3k2cedradeesg9mhvkrgq648pmomto,3zwfc4w1uykbh4f2wanaklf98bsrf3,aGIQgblM,2020-0188,2021-10-30,21:43:22,23:21:13,NA,incomplete,false,true,NA,NA,3,35,NA,green,m_l_035.jpg,NA,NA,NA,NA,NA,unpleasant,pleasant,NA,NA,NA,NA,NA,right,2152.09999999404,true,NA,NA,NA,NA,NA,NA,NA,NA
aGIQgblM,3k2cedradeesg9mhvkrgq648pmomto,3zwfc4w1uykbh4f2wanaklf98bsrf3,aGIQgblM,2020-0188,2021-10-30,21:43:22,23:21:13,NA,incomplete,false,NA,NA,true,3,0,NA,NA,NA,left,n_l_025.jpg,purple,orange,NA,NA,NA,NA,NA,NA,NA,NA,NA,NaN,NA,3727.5,right,0,NA,NA,NA,NA,NA
aGIQgblM,3k2cedradeesg9mhvkrgq648pmomto,3zwfc4w1uykbh4f2wanaklf98bsrf3,aGIQgblM,2020-0188,2021-10-30,21:43:22,23:21:13,NA,incomplete,false,NA,NA,true,3,1,NA,NA,NA,left,m_l_051.jpg,orange,purple,NA,NA,NA,NA,NA,NA,NA,NA,NA,NaN,NA,3991,right,0,NA,NA,NA,NA,NA
aGIQgblM,3k2cedradeesg9mhvkrgq648pmomto,3zwfc4w1uykbh4f2wanaklf98bsrf3,aGIQgblM,2020-0188,2021-10-30,21:43:22,23:21:13,NA,incomplete,false,NA,NA,true,3,2,NA,NA,NA,left,m_l_004.jpg,orange,purple,NA,NA,NA,NA,NA,NA,NA,NA,NA,NaN,NA,2063,left,1,NA,NA,NA,NA,NA
aGIQgblM,3k2cedradeesg9mhvkrgq648pmomto,3zwfc4w1uykbh4f2wanaklf98bsrf3,aGIQgblM,2020-0188,2021-10-30,21:43:22,23:21:13,NA,incomplete,false,NA,NA,true,3,3,NA,NA,NA,right,m_s_005.jpg,white,gray,NA,NA,NA,NA,NA,NA,NA,NA,NA,NaN,NA,2782.899999976158,right,1,NA,NA,NA,NA,NA
aGIQgblM,3k2cedradeesg9mhvkrgq648pmomto,3zwfc4w1uykbh4f2wanaklf98bsrf3,aGIQgblM,2020-0188,2021-10-30,21:43:22,23:21:13,NA,incomplete,false,NA,NA,true,3,4,NA,NA,NA,left,m_l_056.jpg,green,gray,NA,NA,NA,NA,NA,NA,NA,NA,NA,NaN,NA,2030.9000000059605,left,1,NA,NA,NA,NA,NA
aGIQgblM,3k2cedradeesg9mhvkrgq648pmomto,3zwfc4w1uykbh4f2wanaklf98bsrf3,aGIQgblM,2020-0188,2021-10-30,21:43:22,23:21:13,NA,incomplete,false,NA,NA,true,3,5,NA,NA,NA,left,n_s_002.jpg,purple,orange,NA,NA,NA,NA,NA,NA,NA,NA,NA,NaN,NA,2134.9000000059605,right,0,NA,NA,NA,NA,NA
aGIQgblM,3k2cedradeesg9mhvkrgq648pmomto,3zwfc4w1uykbh4f2wanaklf98bsrf3,aGIQgblM,2020-0188,2021-10-30,21:43:22,23:21:13,NA,incomplete,false,NA,NA,true,3,6,NA,NA,NA,right,m_s_058.jpg,gray,green,NA,NA,NA,NA,NA,NA,NA,NA,NA,NaN,NA,3230.5999999940395,right,1,NA,NA,NA,NA,NA
aGIQgblM,3k2cedradeesg9mhvkrgq648pmomto,3zwfc4w1uykbh4f2wanaklf98bsrf3,aGIQgblM,2020-0188,2021-10-30,21:43:22,23:21:13,NA,incomplete,false,NA,NA,true,3,7,NA,NA,NA,left,n_s_018.jpg,white,gray,NA,NA,NA,NA,NA,NA,NA,NA,NA,NaN,NA,2974.800000011921,left,1,NA,NA,NA,NA,NA
aGIQgblM,3k2cedradeesg9mhvkrgq648pmomto,3zwfc4w1uykbh4f2wanaklf98bsrf3,aGIQgblM,2020-0188,2021-10-30,21:43:22,23:21:13,NA,incomplete,false,NA,NA,true,3,8,NA,NA,NA,left,n_s_105.jpg,white,orange,NA,NA,NA,NA,NA,NA,NA,NA,NA,NaN,NA,2727.100000023842,left,1,NA,NA,NA,NA,NA
aGIQgblM,3k2cedradeesg9mhvkrgq648pmomto,3zwfc4w1uykbh4f2wanaklf98bsrf3,aGIQgblM,2020-0188,2021-10-30,21:43:22,23:21:13,NA,incomplete,false,NA,NA,true,3,9,NA,NA,NA,left,n_s_053.jpg,purple,orange,NA,NA,NA,NA,NA,NA,NA,NA,NA,NaN,NA,4063.0999999940395,right,0,NA,NA,NA,NA,NA
aGIQgblM,3k2cedradeesg9mhvkrgq648pmomto,3zwfc4w1uykbh4f2wanaklf98bsrf3,aGIQgblM,2020-0188,2021-10-30,21:43:22,23:21:13,NA,incomplete,false,NA,NA,true,3,10,NA,NA,NA,left,m_s_004.jpg,purple,yellow,NA,NA,NA,NA,NA,NA,NA,NA,NA,NaN,NA,2655,right,0,NA,NA,NA,NA,NA
aGIQgblM,3k2cedradeesg9mhvkrgq648pmomto,3zwfc4w1uykbh4f2wanaklf98bsrf3,aGIQgblM,2020-0188,2021-10-30,21:43:22,23:21:13,NA,incomplete,false,NA,NA,true,3,11,NA,NA,NA,left,m_l_060.jpg,white,gray,NA,NA,NA,NA,NA,NA,NA,NA,NA,NaN,NA,2534.199999988079,left,1,NA,NA,NA,NA,NA
aGIQgblM,3k2cedradeesg9mhvkrgq648pmomto,3zwfc4w1uykbh4f2wanaklf98bsrf3,aGIQgblM,2020-0188,2021-10-30,21:43:22,23:21:13,NA,incomplete,false,NA,NA,true,3,12,NA,NA,NA,left,m_l_035.jpg,green,gray,NA,NA,NA,NA,NA,NA,NA,NA,NA,NaN,NA,2623,right,0,NA,NA,NA,NA,NA
aGIQgblM,3k2cedradeesg9mhvkrgq648pmomto,3zwfc4w1uykbh4f2wanaklf98bsrf3,aGIQgblM,2020-0188,2021-10-30,21:43:22,23:21:13,NA,incomplete,false,NA,NA,true,3,13,NA,NA,NA,left,n_l_097.jpg,gray,green,NA,NA,NA,NA,NA,NA,NA,NA,NA,NaN,NA,2206.4000000059605,right,0,NA,NA,NA,NA,NA
aGIQgblM,3k2cedradeesg9mhvkrgq648pmomto,3zwfc4w1uykbh4f2wanaklf98bsrf3,aGIQgblM,2020-0188,2021-10-30,21:43:22,23:21:13,NA,incomplete,false,NA,NA,true,3,14,NA,NA,NA,right,n_l_038.jpg,gray,white,NA,NA,NA,NA,NA,NA,NA,NA,NA,NaN,NA,3158.9000000059605,left,0,NA,NA,NA,NA,NA
aGIQgblM,3k2cedradeesg9mhvkrgq648pmomto,3zwfc4w1uykbh4f2wanaklf98bsrf3,aGIQgblM,2020-0188,2021-10-30,21:43:22,23:21:13,NA,incomplete,false,NA,NA,true,3,15,NA,NA,NA,left,m_s_021.jpg,orange,purple,NA,NA,NA,NA,NA,NA,NA,NA,NA,NaN,NA,2623.0999999940395,left,1,NA,NA,NA,NA,NA
aGIQgblM,3k2cedradeesg9mhvkrgq648pmomto,3zwfc4w1uykbh4f2wanaklf98bsrf3,aGIQgblM,2020-0188,2021-10-30,21:43:22,23:21:13,NA,incomplete,false,NA,NA,true,3,16,NA,NA,NA,left,m_s_042.jpg,yellow,purple,NA,NA,NA,NA,NA,NA,NA,NA,NA,NaN,NA,4926.9000000059605,right,0,NA,NA,NA,NA,NA
aGIQgblM,3k2cedradeesg9mhvkrgq648pmomto,3zwfc4w1uykbh4f2wanaklf98bsrf3,aGIQgblM,2020-0188,2021-10-30,21:43:22,23:21:13,NA,incomplete,false,NA,NA,true,3,17,NA,NA,NA,right,m_l_024.jpg,purple,yellow,NA,NA,NA,NA,NA,NA,NA,NA,NA,NaN,NA,3175,right,1,NA,NA,NA,NA,NA
aGIQgblM,3k2cedradeesg9mhvkrgq648pmomto,3zwfc4w1uykbh4f2wanaklf98bsrf3,aGIQgblM,2020-0188,2021-10-30,21:43:22,23:21:13,NA,incomplete,false,NA,NA,true,3,18,NA,NA,NA,left,m_l_019.jpg,yellow,purple,NA,NA,NA,NA,NA,NA,NA,NA,NA,NaN,NA,3046.9000000059605,right,0,NA,NA,NA,NA,NA
aGIQgblM,3k2cedradeesg9mhvkrgq648pmomto,3zwfc4w1uykbh4f2wanaklf98bsrf3,aGIQgblM,2020-0188,2021-10-30,21:43:22,23:21:13,NA,incomplete,false,NA,NA,true,3,19,NA,NA,NA,left,m_l_014.jpg,gray,green,NA,NA,NA,NA,NA,NA,NA,NA,NA,NaN,NA,2687.199999988079,right,0,NA,NA,NA,NA,NA
aGIQgblM,3k2cedradeesg9mhvkrgq648pmomto,3zwfc4w1uykbh4f2wanaklf98bsrf3,aGIQgblM,2020-0188,2021-10-30,21:43:22,23:21:13,NA,incomplete,false,NA,NA,true,3,20,NA,NA,NA,right,m_s_114.jpg,white,orange,NA,NA,NA,NA,NA,NA,NA,NA,NA,NaN,NA,2838.699999988079,left,0,NA,NA,NA,NA,NA
aGIQgblM,3k2cedradeesg9mhvkrgq648pmomto,3zwfc4w1uykbh4f2wanaklf98bsrf3,aGIQgblM,2020-0188,2021-10-30,21:43:22,23:21:13,NA,incomplete,false,NA,NA,true,3,21,NA,NA,NA,right,m_l_038.jpg,green,gray,NA,NA,NA,NA,NA,NA,NA,NA,NA,NaN,NA,2470.4000000059605,right,1,NA,NA,NA,NA,NA
aGIQgblM,3k2cedradeesg9mhvkrgq648pmomto,3zwfc4w1uykbh4f2wanaklf98bsrf3,aGIQgblM,2020-0188,2021-10-30,21:43:22,23:21:13,NA,incomplete,false,NA,true,NA,3,0,NA,NA,NA,right,NA,NA,NA,absent,NA,NA,m_s_114.jpg,orange,n_s_053.jpg,purple,between,NA,NaN,NA,NA,NA,NA,left,3670.4000000059605,0,2,2407.0999999940395
aGIQgblM,3k2cedradeesg9mhvkrgq648pmomto,3zwfc4w1uykbh4f2wanaklf98bsrf3,aGIQgblM,2020-0188,2021-10-30,21:43:22,23:21:13,NA,incomplete,false,NA,true,NA,3,1,NA,NA,NA,right,NA,NA,NA,absent,NA,NA,m_l_060.jpg,white,m_l_004.jpg,orange,between,NA,NaN,NA,NA,NA,NA,right,2999.0999999940395,1,2,1295.2999999821186
aGIQgblM,3k2cedradeesg9mhvkrgq648pmomto,3zwfc4w1uykbh4f2wanaklf98bsrf3,aGIQgblM,2020-0188,2021-10-30,21:43:22,23:21:13,NA,incomplete,false,NA,true,NA,3,2,NA,NA,NA,right,NA,NA,NA,absent,NA,NA,m_s_042.jpg,yellow,m_l_019.jpg,yellow,within,NA,NaN,NA,NA,NA,NA,left,3103.100000023842,0,1,1871.8999999761581
aGIQgblM,3k2cedradeesg9mhvkrgq648pmomto,3zwfc4w1uykbh4f2wanaklf98bsrf3,aGIQgblM,2020-0188,2021-10-30,21:43:22,23:21:13,NA,incomplete,false,NA,true,NA,3,3,NA,NA,NA,left,NA,NA,NA,absent,NA,NA,m_l_038.jpg,gray,m_l_014.jpg,gray,within,NA,NaN,NA,NA,NA,NA,left,2222.5,1,1,1935.300000011921
aGIQgblM,3k2cedradeesg9mhvkrgq648pmomto,3zwfc4w1uykbh4f2wanaklf98bsrf3,aGIQgblM,2020-0188,2021-10-30,21:43:22,23:21:13,NA,incomplete,false,NA,true,NA,3,4,NA,NA,NA,left,NA,NA,NA,absent,NA,NA,n_l_025.jpg,purple,m_s_004.jpg,purple,within,NA,NaN,NA,NA,NA,NA,right,3547.800000011921,0,2,1895.2000000178814
aGIQgblM,3k2cedradeesg9mhvkrgq648pmomto,3zwfc4w1uykbh4f2wanaklf98bsrf3,aGIQgblM,2020-0188,2021-10-30,21:43:22,23:21:13,NA,incomplete,false,NA,true,NA,3,5,NA,NA,NA,right,NA,NA,NA,absent,NA,NA,m_l_056.jpg,green,m_s_005.jpg,gray,between,NA,NaN,NA,NA,NA,NA,right,2599.399999976158,1,1,1807
aGIQgblM,3k2cedradeesg9mhvkrgq648pmomto,3zwfc4w1uykbh4f2wanaklf98bsrf3,aGIQgblM,2020-0188,2021-10-30,21:43:22,23:21:13,NA,incomplete,false,NA,true,NA,3,6,NA,NA,NA,left,NA,NA,NA,absent,NA,NA,n_l_038.jpg,white,n_s_018.jpg,white,within,NA,NaN,NA,NA,NA,NA,right,3263.300000011921,0,1,1934
aGIQgblM,3k2cedradeesg9mhvkrgq648pmomto,3zwfc4w1uykbh4f2wanaklf98bsrf3,aGIQgblM,2020-0188,2021-10-30,21:43:22,23:21:13,NA,incomplete,false,NA,true,NA,3,7,NA,NA,NA,left,NA,NA,NA,absent,NA,NA,m_s_058.jpg,green,m_l_035.jpg,green,within,NA,NaN,NA,NA,NA,NA,left,2918.7000000178814,1,1,1663.0999999940395
aGIQgblM,3k2cedradeesg9mhvkrgq648pmomto,3zwfc4w1uykbh4f2wanaklf98bsrf3,aGIQgblM,2020-0188,2021-10-30,21:43:22,23:21:13,NA,incomplete,false,NA,true,NA,3,8,NA,NA,NA,left,NA,NA,NA,absent,NA,NA,m_l_024.jpg,yellow,n_s_002.jpg,purple,between,NA,NaN,NA,NA,NA,NA,right,3624.300000011921,0,2,1407.1000000238419
aGIQgblM,3k2cedradeesg9mhvkrgq648pmomto,3zwfc4w1uykbh4f2wanaklf98bsrf3,aGIQgblM,2020-0188,2021-10-30,21:43:22,23:21:13,NA,incomplete,false,NA,true,NA,3,9,NA,NA,NA,right,NA,NA,NA,absent,NA,NA,n_l_097.jpg,gray,n_s_105.jpg,white,between,NA,NaN,NA,NA,NA,NA,left,3271.5,0,1,1924.0999999940395
aGIQgblM,3k2cedradeesg9mhvkrgq648pmomto,3zwfc4w1uykbh4f2wanaklf98bsrf3,aGIQgblM,2020-0188,2021-10-30,21:43:22,23:21:13,NA,incomplete,false,NA,true,NA,3,10,NA,NA,NA,left,NA,NA,NA,absent,NA,NA,m_l_051.jpg,orange,m_s_021.jpg,orange,within,NA,NaN,NA,NA,NA,NA,right,3159.5999999940395,0,1,2023.2000000178814
aGIQgblM,3k2cedradeesg9mhvkrgq648pmomto,3zwfc4w1uykbh4f2wanaklf98bsrf3,aGIQgblM,2020-0188,2021-10-30,21:43:22,23:21:13,NA,incomplete,false,true,NA,NA,4,0,NA,yellow,m_l_098.jpg,NA,NA,NA,NA,NA,unpleasant,pleasant,NA,NA,NA,NA,NA,right,2276.5,true,NA,NA,NA,NA,NA,NA,NA,NA
aGIQgblM,3k2cedradeesg9mhvkrgq648pmomto,3zwfc4w1uykbh4f2wanaklf98bsrf3,aGIQgblM,2020-0188,2021-10-30,21:43:22,23:21:13,NA,incomplete,false,true,NA,NA,4,1,NA,yellow,n_s_058.jpg,NA,NA,NA,NA,NA,pleasant,unpleasant,NA,NA,NA,NA,NA,left,1682.40000000596,true,NA,NA,NA,NA,NA,NA,NA,NA
aGIQgblM,3k2cedradeesg9mhvkrgq648pmomto,3zwfc4w1uykbh4f2wanaklf98bsrf3,aGIQgblM,2020-0188,2021-10-30,21:43:22,23:21:13,NA,incomplete,false,true,NA,NA,4,2,NA,yellow,n_s_086.jpg,NA,NA,NA,NA,NA,unpleasant,pleasant,NA,NA,NA,NA,NA,right,2377.39999997616,true,NA,NA,NA,NA,NA,NA,NA,NA
aGIQgblM,3k2cedradeesg9mhvkrgq648pmomto,3zwfc4w1uykbh4f2wanaklf98bsrf3,aGIQgblM,2020-0188,2021-10-30,21:43:22,23:21:13,NA,incomplete,false,true,NA,NA,4,3,NA,yellow,n_l_110.jpg,NA,NA,NA,NA,NA,pleasant,unpleasant,NA,NA,NA,NA,NA,left,1790.19999998808,true,NA,NA,NA,NA,NA,NA,NA,NA
aGIQgblM,3k2cedradeesg9mhvkrgq648pmomto,3zwfc4w1uykbh4f2wanaklf98bsrf3,aGIQgblM,2020-0188,2021-10-30,21:43:22,23:21:13,NA,incomplete,false,true,NA,NA,4,4,NA,yellow,m_s_094.jpg,NA,NA,NA,NA,NA,unpleasant,pleasant,NA,NA,NA,NA,NA,right,1833.70000001788,true,NA,NA,NA,NA,NA,NA,NA,NA
aGIQgblM,3k2cedradeesg9mhvkrgq648pmomto,3zwfc4w1uykbh4f2wanaklf98bsrf3,aGIQgblM,2020-0188,2021-10-30,21:43:22,23:21:13,NA,incomplete,false,true,NA,NA,4,5,NA,yellow,m_l_117.jpg,NA,NA,NA,NA,NA,pleasant,unpleasant,NA,NA,NA,NA,NA,left,1631.09999999404,true,NA,NA,NA,NA,NA,NA,NA,NA
aGIQgblM,3k2cedradeesg9mhvkrgq648pmomto,3zwfc4w1uykbh4f2wanaklf98bsrf3,aGIQgblM,2020-0188,2021-10-30,21:43:22,23:21:13,NA,incomplete,false,true,NA,NA,4,6,NA,red,n_s_097.jpg,NA,NA,NA,NA,NA,pleasant,unpleasant,NA,NA,NA,NA,NA,left,2412.30000001192,true,NA,NA,NA,NA,NA,NA,NA,NA
aGIQgblM,3k2cedradeesg9mhvkrgq648pmomto,3zwfc4w1uykbh4f2wanaklf98bsrf3,aGIQgblM,2020-0188,2021-10-30,21:43:22,23:21:13,NA,incomplete,false,true,NA,NA,4,7,NA,red,m_s_043.jpg,NA,NA,NA,NA,NA,unpleasant,pleasant,NA,NA,NA,NA,NA,right,1640.69999998808,true,NA,NA,NA,NA,NA,NA,NA,NA
aGIQgblM,3k2cedradeesg9mhvkrgq648pmomto,3zwfc4w1uykbh4f2wanaklf98bsrf3,aGIQgblM,2020-0188,2021-10-30,21:43:22,23:21:13,NA,incomplete,false,true,NA,NA,4,8,NA,red,m_l_010.jpg,NA,NA,NA,NA,NA,pleasant,unpleasant,NA,NA,NA,NA,NA,left,1689.20000001788,true,NA,NA,NA,NA,NA,NA,NA,NA
aGIQgblM,3k2cedradeesg9mhvkrgq648pmomto,3zwfc4w1uykbh4f2wanaklf98bsrf3,aGIQgblM,2020-0188,2021-10-30,21:43:22,23:21:13,NA,incomplete,false,true,NA,NA,4,9,NA,red,m_l_053.jpg,NA,NA,NA,NA,NA,unpleasant,pleasant,NA,NA,NA,NA,NA,right,1611.20000001788,true,NA,NA,NA,NA,NA,NA,NA,NA
aGIQgblM,3k2cedradeesg9mhvkrgq648pmomto,3zwfc4w1uykbh4f2wanaklf98bsrf3,aGIQgblM,2020-0188,2021-10-30,21:43:22,23:21:13,NA,incomplete,false,true,NA,NA,4,10,NA,red,m_l_045.jpg,NA,NA,NA,NA,NA,pleasant,unpleasant,NA,NA,NA,NA,NA,left,1907.80000001192,true,NA,NA,NA,NA,NA,NA,NA,NA
aGIQgblM,3k2cedradeesg9mhvkrgq648pmomto,3zwfc4w1uykbh4f2wanaklf98bsrf3,aGIQgblM,2020-0188,2021-10-30,21:43:22,23:21:13,NA,incomplete,false,true,NA,NA,4,11,NA,red,n_s_093.jpg,NA,NA,NA,NA,NA,unpleasant,pleasant,NA,NA,NA,NA,NA,right,2294.29999998212,true,NA,NA,NA,NA,NA,NA,NA,NA
aGIQgblM,3k2cedradeesg9mhvkrgq648pmomto,3zwfc4w1uykbh4f2wanaklf98bsrf3,aGIQgblM,2020-0188,2021-10-30,21:43:22,23:21:13,NA,incomplete,false,true,NA,NA,4,12,NA,purple,m_s_071.jpg,NA,NA,NA,NA,NA,unpleasant,pleasant,NA,NA,NA,NA,NA,right,2566.59999999404,true,NA,NA,NA,NA,NA,NA,NA,NA
aGIQgblM,3k2cedradeesg9mhvkrgq648pmomto,3zwfc4w1uykbh4f2wanaklf98bsrf3,aGIQgblM,2020-0188,2021-10-30,21:43:22,23:21:13,NA,incomplete,false,true,NA,NA,4,13,NA,purple,n_s_045.jpg,NA,NA,NA,NA,NA,unpleasant,pleasant,NA,NA,NA,NA,NA,right,1904.30000001192,true,NA,NA,NA,NA,NA,NA,NA,NA
aGIQgblM,3k2cedradeesg9mhvkrgq648pmomto,3zwfc4w1uykbh4f2wanaklf98bsrf3,aGIQgblM,2020-0188,2021-10-30,21:43:22,23:21:13,NA,incomplete,false,true,NA,NA,4,14,NA,purple,n_l_019.jpg,NA,NA,NA,NA,NA,unpleasant,pleasant,NA,NA,NA,NA,NA,right,1394.20000001788,true,NA,NA,NA,NA,NA,NA,NA,NA
aGIQgblM,3k2cedradeesg9mhvkrgq648pmomto,3zwfc4w1uykbh4f2wanaklf98bsrf3,aGIQgblM,2020-0188,2021-10-30,21:43:22,23:21:13,NA,incomplete,false,true,NA,NA,4,15,NA,purple,n_l_044.jpg,NA,NA,NA,NA,NA,pleasant,unpleasant,NA,NA,NA,NA,NA,left,1768.30000001192,true,NA,NA,NA,NA,NA,NA,NA,NA
aGIQgblM,3k2cedradeesg9mhvkrgq648pmomto,3zwfc4w1uykbh4f2wanaklf98bsrf3,aGIQgblM,2020-0188,2021-10-30,21:43:22,23:21:13,NA,incomplete,false,true,NA,NA,4,16,NA,purple,m_s_062.jpg,NA,NA,NA,NA,NA,pleasant,unpleasant,NA,NA,NA,NA,NA,left,1691.40000000596,true,NA,NA,NA,NA,NA,NA,NA,NA
aGIQgblM,3k2cedradeesg9mhvkrgq648pmomto,3zwfc4w1uykbh4f2wanaklf98bsrf3,aGIQgblM,2020-0188,2021-10-30,21:43:22,23:21:13,NA,incomplete,false,true,NA,NA,4,17,NA,purple,n_s_033.jpg,NA,NA,NA,NA,NA,unpleasant,pleasant,NA,NA,NA,NA,NA,right,1981.60000002384,true,NA,NA,NA,NA,NA,NA,NA,NA
aGIQgblM,3k2cedradeesg9mhvkrgq648pmomto,3zwfc4w1uykbh4f2wanaklf98bsrf3,aGIQgblM,2020-0188,2021-10-30,21:43:22,23:21:13,NA,incomplete,false,true,NA,NA,4,18,NA,gray,n_s_049.jpg,NA,NA,NA,NA,NA,unpleasant,pleasant,NA,NA,NA,NA,NA,left,1921.89999997616,true,NA,NA,NA,NA,NA,NA,NA,NA
aGIQgblM,3k2cedradeesg9mhvkrgq648pmomto,3zwfc4w1uykbh4f2wanaklf98bsrf3,aGIQgblM,2020-0188,2021-10-30,21:43:22,23:21:13,NA,incomplete,false,true,NA,NA,4,19,NA,gray,n_s_087.jpg,NA,NA,NA,NA,NA,unpleasant,pleasant,NA,NA,NA,NA,NA,right,1970.5,true,NA,NA,NA,NA,NA,NA,NA,NA
aGIQgblM,3k2cedradeesg9mhvkrgq648pmomto,3zwfc4w1uykbh4f2wanaklf98bsrf3,aGIQgblM,2020-0188,2021-10-30,21:43:22,23:21:13,NA,incomplete,false,true,NA,NA,4,20,NA,gray,m_l_099.jpg,NA,NA,NA,NA,NA,pleasant,unpleasant,NA,NA,NA,NA,NA,left,2209.80000001192,true,NA,NA,NA,NA,NA,NA,NA,NA
aGIQgblM,3k2cedradeesg9mhvkrgq648pmomto,3zwfc4w1uykbh4f2wanaklf98bsrf3,aGIQgblM,2020-0188,2021-10-30,21:43:22,23:21:13,NA,incomplete,false,true,NA,NA,4,21,NA,gray,n_s_016.jpg,NA,NA,NA,NA,NA,pleasant,unpleasant,NA,NA,NA,NA,NA,left,1418.30000001192,true,NA,NA,NA,NA,NA,NA,NA,NA
aGIQgblM,3k2cedradeesg9mhvkrgq648pmomto,3zwfc4w1uykbh4f2wanaklf98bsrf3,aGIQgblM,2020-0188,2021-10-30,21:43:22,23:21:13,NA,incomplete,false,true,NA,NA,4,22,NA,gray,m_l_003.jpg,NA,NA,NA,NA,NA,unpleasant,pleasant,NA,NA,NA,NA,NA,right,1967.70000001788,true,NA,NA,NA,NA,NA,NA,NA,NA
aGIQgblM,3k2cedradeesg9mhvkrgq648pmomto,3zwfc4w1uykbh4f2wanaklf98bsrf3,aGIQgblM,2020-0188,2021-10-30,21:43:22,23:21:13,NA,incomplete,false,true,NA,NA,4,23,NA,gray,n_l_027.jpg,NA,NA,NA,NA,NA,unpleasant,pleasant,NA,NA,NA,NA,NA,right,1620.40000000596,true,NA,NA,NA,NA,NA,NA,NA,NA
aGIQgblM,3k2cedradeesg9mhvkrgq648pmomto,3zwfc4w1uykbh4f2wanaklf98bsrf3,aGIQgblM,2020-0188,2021-10-30,21:43:22,23:21:13,NA,incomplete,false,true,NA,NA,4,24,NA,blue,m_l_047.jpg,NA,NA,NA,NA,NA,pleasant,unpleasant,NA,NA,NA,NA,NA,left,1986.69999998808,true,NA,NA,NA,NA,NA,NA,NA,NA
aGIQgblM,3k2cedradeesg9mhvkrgq648pmomto,3zwfc4w1uykbh4f2wanaklf98bsrf3,aGIQgblM,2020-0188,2021-10-30,21:43:22,23:21:13,NA,incomplete,false,true,NA,NA,4,25,NA,blue,m_s_052.jpg,NA,NA,NA,NA,NA,unpleasant,pleasant,NA,NA,NA,NA,NA,right,2135.19999998808,true,NA,NA,NA,NA,NA,NA,NA,NA
aGIQgblM,3k2cedradeesg9mhvkrgq648pmomto,3zwfc4w1uykbh4f2wanaklf98bsrf3,aGIQgblM,2020-0188,2021-10-30,21:43:22,23:21:13,NA,incomplete,false,true,NA,NA,4,26,NA,blue,n_l_098.jpg,NA,NA,NA,NA,NA,unpleasant,pleasant,NA,NA,NA,NA,NA,right,1393.20000001788,true,NA,NA,NA,NA,NA,NA,NA,NA
aGIQgblM,3k2cedradeesg9mhvkrgq648pmomto,3zwfc4w1uykbh4f2wanaklf98bsrf3,aGIQgblM,2020-0188,2021-10-30,21:43:22,23:21:13,NA,incomplete,false,true,NA,NA,4,27,NA,blue,m_l_074.jpg,NA,NA,NA,NA,NA,pleasant,unpleasant,NA,NA,NA,NA,NA,left,1588.79999998212,true,NA,NA,NA,NA,NA,NA,NA,NA
aGIQgblM,3k2cedradeesg9mhvkrgq648pmomto,3zwfc4w1uykbh4f2wanaklf98bsrf3,aGIQgblM,2020-0188,2021-10-30,21:43:22,23:21:13,NA,incomplete,false,true,NA,NA,4,28,NA,blue,m_s_030.jpg,NA,NA,NA,NA,NA,unpleasant,pleasant,NA,NA,NA,NA,NA,right,1903,true,NA,NA,NA,NA,NA,NA,NA,NA
aGIQgblM,3k2cedradeesg9mhvkrgq648pmomto,3zwfc4w1uykbh4f2wanaklf98bsrf3,aGIQgblM,2020-0188,2021-10-30,21:43:22,23:21:13,NA,incomplete,false,true,NA,NA,4,29,NA,blue,m_s_008.jpg,NA,NA,NA,NA,NA,pleasant,unpleasant,NA,NA,NA,NA,NA,left,1617.59999999404,true,NA,NA,NA,NA,NA,NA,NA,NA
aGIQgblM,3k2cedradeesg9mhvkrgq648pmomto,3zwfc4w1uykbh4f2wanaklf98bsrf3,aGIQgblM,2020-0188,2021-10-30,21:43:22,23:21:13,NA,incomplete,false,true,NA,NA,4,30,NA,green,n_s_022.jpg,NA,NA,NA,NA,NA,pleasant,unpleasant,NA,NA,NA,NA,NA,left,1781.5,true,NA,NA,NA,NA,NA,NA,NA,NA
aGIQgblM,3k2cedradeesg9mhvkrgq648pmomto,3zwfc4w1uykbh4f2wanaklf98bsrf3,aGIQgblM,2020-0188,2021-10-30,21:43:22,23:21:13,NA,incomplete,false,true,NA,NA,4,31,NA,green,n_l_008.jpg,NA,NA,NA,NA,NA,pleasant,unpleasant,NA,NA,NA,NA,NA,left,1683.90000000596,true,NA,NA,NA,NA,NA,NA,NA,NA
aGIQgblM,3k2cedradeesg9mhvkrgq648pmomto,3zwfc4w1uykbh4f2wanaklf98bsrf3,aGIQgblM,2020-0188,2021-10-30,21:43:22,23:21:13,NA,incomplete,false,true,NA,NA,4,32,NA,green,n_s_015.jpg,NA,NA,NA,NA,NA,unpleasant,pleasant,NA,NA,NA,NA,NA,right,1702.30000001192,true,NA,NA,NA,NA,NA,NA,NA,NA
aGIQgblM,3k2cedradeesg9mhvkrgq648pmomto,3zwfc4w1uykbh4f2wanaklf98bsrf3,aGIQgblM,2020-0188,2021-10-30,21:43:22,23:21:13,NA,incomplete,false,true,NA,NA,4,33,NA,green,n_l_106.jpg,NA,NA,NA,NA,NA,pleasant,unpleasant,NA,NA,NA,NA,NA,left,2290.39999997616,true,NA,NA,NA,NA,NA,NA,NA,NA
aGIQgblM,3k2cedradeesg9mhvkrgq648pmomto,3zwfc4w1uykbh4f2wanaklf98bsrf3,aGIQgblM,2020-0188,2021-10-30,21:43:22,23:21:13,NA,incomplete,false,true,NA,NA,4,34,NA,green,m_l_075.jpg,NA,NA,NA,NA,NA,unpleasant,pleasant,NA,NA,NA,NA,NA,right,2494.59999999404,true,NA,NA,NA,NA,NA,NA,NA,NA
aGIQgblM,3k2cedradeesg9mhvkrgq648pmomto,3zwfc4w1uykbh4f2wanaklf98bsrf3,aGIQgblM,2020-0188,2021-10-30,21:43:22,23:21:13,NA,incomplete,false,true,NA,NA,4,35,NA,green,m_l_049.jpg,NA,NA,NA,NA,NA,unpleasant,pleasant,NA,NA,NA,NA,NA,right,1865.90000000596,true,NA,NA,NA,NA,NA,NA,NA,NA
aGIQgblM,3k2cedradeesg9mhvkrgq648pmomto,3zwfc4w1uykbh4f2wanaklf98bsrf3,aGIQgblM,2020-0188,2021-10-30,21:43:22,23:21:13,NA,incomplete,false,NA,NA,true,4,0,NA,NA,NA,left,m_l_003.jpg,gray,purple,NA,NA,NA,NA,NA,NA,NA,NA,NA,NaN,NA,3373,right,0,NA,NA,NA,NA,NA
aGIQgblM,3k2cedradeesg9mhvkrgq648pmomto,3zwfc4w1uykbh4f2wanaklf98bsrf3,aGIQgblM,2020-0188,2021-10-30,21:43:22,23:21:13,NA,incomplete,false,NA,NA,true,4,1,NA,NA,NA,left,m_l_049.jpg,green,blue,NA,NA,NA,NA,NA,NA,NA,NA,NA,NaN,NA,3271,left,1,NA,NA,NA,NA,NA
aGIQgblM,3k2cedradeesg9mhvkrgq648pmomto,3zwfc4w1uykbh4f2wanaklf98bsrf3,aGIQgblM,2020-0188,2021-10-30,21:43:22,23:21:13,NA,incomplete,false,NA,NA,true,4,2,NA,NA,NA,right,n_s_045.jpg,red,purple,NA,NA,NA,NA,NA,NA,NA,NA,NA,NaN,NA,3919,left,0,NA,NA,NA,NA,NA
aGIQgblM,3k2cedradeesg9mhvkrgq648pmomto,3zwfc4w1uykbh4f2wanaklf98bsrf3,aGIQgblM,2020-0188,2021-10-30,21:43:22,23:21:13,NA,incomplete,false,NA,NA,true,4,3,NA,NA,NA,left,m_l_045.jpg,red,yellow,NA,NA,NA,NA,NA,NA,NA,NA,NA,NaN,NA,5298.0999999940395,right,0,NA,NA,NA,NA,NA
aGIQgblM,3k2cedradeesg9mhvkrgq648pmomto,3zwfc4w1uykbh4f2wanaklf98bsrf3,aGIQgblM,2020-0188,2021-10-30,21:43:22,23:21:13,NA,incomplete,false,NA,NA,true,4,4,NA,NA,NA,right,m_l_099.jpg,purple,gray,NA,NA,NA,NA,NA,NA,NA,NA,NA,NaN,NA,3656.2000000178814,right,1,NA,NA,NA,NA,NA
aGIQgblM,3k2cedradeesg9mhvkrgq648pmomto,3zwfc4w1uykbh4f2wanaklf98bsrf3,aGIQgblM,2020-0188,2021-10-30,21:43:22,23:21:13,NA,incomplete,false,NA,NA,true,4,5,NA,NA,NA,left,m_s_043.jpg,red,yellow,NA,NA,NA,NA,NA,NA,NA,NA,NA,NaN,NA,2366.800000011921,left,1,NA,NA,NA,NA,NA
aGIQgblM,3k2cedradeesg9mhvkrgq648pmomto,3zwfc4w1uykbh4f2wanaklf98bsrf3,aGIQgblM,2020-0188,2021-10-30,21:43:22,23:21:13,NA,incomplete,false,NA,NA,true,4,6,NA,NA,NA,left,m_s_052.jpg,blue,green,NA,NA,NA,NA,NA,NA,NA,NA,NA,NaN,NA,2990.0999999940395,left,1,NA,NA,NA,NA,NA
aGIQgblM,3k2cedradeesg9mhvkrgq648pmomto,3zwfc4w1uykbh4f2wanaklf98bsrf3,aGIQgblM,2020-0188,2021-10-30,21:43:22,23:21:13,NA,incomplete,false,NA,NA,true,4,7,NA,NA,NA,left,m_s_008.jpg,blue,gray,NA,NA,NA,NA,NA,NA,NA,NA,NA,NaN,NA,2262.7000000178814,left,1,NA,NA,NA,NA,NA
aGIQgblM,3k2cedradeesg9mhvkrgq648pmomto,3zwfc4w1uykbh4f2wanaklf98bsrf3,aGIQgblM,2020-0188,2021-10-30,21:43:22,23:21:13,NA,incomplete,false,NA,NA,true,4,8,NA,NA,NA,left,m_l_010.jpg,red,yellow,NA,NA,NA,NA,NA,NA,NA,NA,NA,NaN,NA,2630,right,0,NA,NA,NA,NA,NA
aGIQgblM,3k2cedradeesg9mhvkrgq648pmomto,3zwfc4w1uykbh4f2wanaklf98bsrf3,aGIQgblM,2020-0188,2021-10-30,21:43:22,23:21:13,NA,incomplete,false,NA,NA,true,4,9,NA,NA,NA,left,n_s_015.jpg,green,blue,NA,NA,NA,NA,NA,NA,NA,NA,NA,NaN,NA,2814.800000011921,left,1,NA,NA,NA,NA,NA
aGIQgblM,3k2cedradeesg9mhvkrgq648pmomto,3zwfc4w1uykbh4f2wanaklf98bsrf3,aGIQgblM,2020-0188,2021-10-30,21:43:22,23:21:13,NA,incomplete,false,NA,NA,true,4,10,NA,NA,NA,right,n_l_008.jpg,blue,green,NA,NA,NA,NA,NA,NA,NA,NA,NA,NaN,NA,2031.0999999940395,right,1,NA,NA,NA,NA,NA
aGIQgblM,3k2cedradeesg9mhvkrgq648pmomto,3zwfc4w1uykbh4f2wanaklf98bsrf3,aGIQgblM,2020-0188,2021-10-30,21:43:22,23:21:13,NA,incomplete,false,NA,NA,true,4,11,NA,NA,NA,left,n_s_087.jpg,gray,blue,NA,NA,NA,NA,NA,NA,NA,NA,NA,NaN,NA,2118.9000000059605,right,0,NA,NA,NA,NA,NA
aGIQgblM,3k2cedradeesg9mhvkrgq648pmomto,3zwfc4w1uykbh4f2wanaklf98bsrf3,aGIQgblM,2020-0188,2021-10-30,21:43:22,23:21:13,NA,incomplete,false,NA,NA,true,4,12,NA,NA,NA,right,m_s_062.jpg,red,purple,NA,NA,NA,NA,NA,NA,NA,NA,NA,NaN,NA,2159.0999999940395,left,0,NA,NA,NA,NA,NA
aGIQgblM,3k2cedradeesg9mhvkrgq648pmomto,3zwfc4w1uykbh4f2wanaklf98bsrf3,aGIQgblM,2020-0188,2021-10-30,21:43:22,23:21:13,NA,incomplete,false,NA,NA,true,4,13,NA,NA,NA,right,n_l_027.jpg,purple,gray,NA,NA,NA,NA,NA,NA,NA,NA,NA,NaN,NA,2006.3999999761581,right,1,NA,NA,NA,NA,NA
aGIQgblM,3k2cedradeesg9mhvkrgq648pmomto,3zwfc4w1uykbh4f2wanaklf98bsrf3,aGIQgblM,2020-0188,2021-10-30,21:43:22,23:21:13,NA,incomplete,false,NA,NA,true,4,14,NA,NA,NA,left,m_l_117.jpg,yellow,red,NA,NA,NA,NA,NA,NA,NA,NA,NA,NaN,NA,4110.699999988079,left,1,NA,NA,NA,NA,NA
aGIQgblM,3k2cedradeesg9mhvkrgq648pmomto,3zwfc4w1uykbh4f2wanaklf98bsrf3,aGIQgblM,2020-0188,2021-10-30,21:43:22,23:21:13,NA,incomplete,false,NA,NA,true,4,15,NA,NA,NA,right,n_l_019.jpg,red,purple,NA,NA,NA,NA,NA,NA,NA,NA,NA,NaN,NA,2463.0999999940395,right,1,NA,NA,NA,NA,NA
aGIQgblM,3k2cedradeesg9mhvkrgq648pmomto,3zwfc4w1uykbh4f2wanaklf98bsrf3,aGIQgblM,2020-0188,2021-10-30,21:43:22,23:21:13,NA,incomplete,false,NA,NA,true,4,16,NA,NA,NA,left,n_l_098.jpg,blue,gray,NA,NA,NA,NA,NA,NA,NA,NA,NA,NaN,NA,3487.2999999821186,left,1,NA,NA,NA,NA,NA
aGIQgblM,3k2cedradeesg9mhvkrgq648pmomto,3zwfc4w1uykbh4f2wanaklf98bsrf3,aGIQgblM,2020-0188,2021-10-30,21:43:22,23:21:13,NA,incomplete,false,NA,NA,true,4,17,NA,NA,NA,right,m_s_094.jpg,red,yellow,NA,NA,NA,NA,NA,NA,NA,NA,NA,NaN,NA,5550.800000011921,right,1,NA,NA,NA,NA,NA
aGIQgblM,3k2cedradeesg9mhvkrgq648pmomto,3zwfc4w1uykbh4f2wanaklf98bsrf3,aGIQgblM,2020-0188,2021-10-30,21:43:22,23:21:13,NA,incomplete,false,NA,NA,true,4,18,NA,NA,NA,left,n_s_033.jpg,purple,gray,NA,NA,NA,NA,NA,NA,NA,NA,NA,NaN,NA,2181.5,left,1,NA,NA,NA,NA,NA
aGIQgblM,3k2cedradeesg9mhvkrgq648pmomto,3zwfc4w1uykbh4f2wanaklf98bsrf3,aGIQgblM,2020-0188,2021-10-30,21:43:22,23:21:13,NA,incomplete,false,NA,NA,true,4,19,NA,NA,NA,left,n_s_058.jpg,yellow,red,NA,NA,NA,NA,NA,NA,NA,NA,NA,NaN,NA,2662.0999999940395,left,1,NA,NA,NA,NA,NA
aGIQgblM,3k2cedradeesg9mhvkrgq648pmomto,3zwfc4w1uykbh4f2wanaklf98bsrf3,aGIQgblM,2020-0188,2021-10-30,21:43:22,23:21:13,NA,incomplete,false,NA,NA,true,4,20,NA,NA,NA,right,n_s_093.jpg,yellow,red,NA,NA,NA,NA,NA,NA,NA,NA,NA,NaN,NA,3479,left,0,NA,NA,NA,NA,NA
aGIQgblM,3k2cedradeesg9mhvkrgq648pmomto,3zwfc4w1uykbh4f2wanaklf98bsrf3,aGIQgblM,2020-0188,2021-10-30,21:43:22,23:21:13,NA,incomplete,false,NA,NA,true,4,21,NA,NA,NA,left,m_s_030.jpg,blue,green,NA,NA,NA,NA,NA,NA,NA,NA,NA,NaN,NA,2391.300000011921,left,1,NA,NA,NA,NA,NA
aGIQgblM,3k2cedradeesg9mhvkrgq648pmomto,3zwfc4w1uykbh4f2wanaklf98bsrf3,aGIQgblM,2020-0188,2021-10-30,21:43:22,23:21:13,NA,incomplete,false,NA,true,NA,4,0,NA,NA,NA,right,NA,NA,NA,absent,NA,NA,m_l_099.jpg,gray,m_s_062.jpg,purple,between,NA,NaN,NA,NA,NA,NA,left,3879.5999999940395,0,1,1870.5
aGIQgblM,3k2cedradeesg9mhvkrgq648pmomto,3zwfc4w1uykbh4f2wanaklf98bsrf3,aGIQgblM,2020-0188,2021-10-30,21:43:22,23:21:13,NA,incomplete,false,NA,true,NA,4,1,NA,NA,NA,left,NA,NA,NA,absent,NA,NA,m_s_052.jpg,blue,m_s_008.jpg,blue,within,NA,NaN,NA,NA,NA,NA,left,2190.9000000059605,1,2,1614.5999999940395
aGIQgblM,3k2cedradeesg9mhvkrgq648pmomto,3zwfc4w1uykbh4f2wanaklf98bsrf3,aGIQgblM,2020-0188,2021-10-30,21:43:22,23:21:13,NA,incomplete,false,NA,true,NA,4,2,NA,NA,NA,left,NA,NA,NA,absent,NA,NA,n_s_045.jpg,purple,n_s_033.jpg,purple,within,NA,NaN,NA,NA,NA,NA,left,2519.5,1,2,1214.2999999821186
aGIQgblM,3k2cedradeesg9mhvkrgq648pmomto,3zwfc4w1uykbh4f2wanaklf98bsrf3,aGIQgblM,2020-0188,2021-10-30,21:43:22,23:21:13,NA,incomplete,false,NA,true,NA,4,3,NA,NA,NA,right,NA,NA,NA,absent,NA,NA,n_l_098.jpg,blue,m_l_003.jpg,gray,between,NA,NaN,NA,NA,NA,NA,left,4337.800000011921,0,1,1559
aGIQgblM,3k2cedradeesg9mhvkrgq648pmomto,3zwfc4w1uykbh4f2wanaklf98bsrf3,aGIQgblM,2020-0188,2021-10-30,21:43:22,23:21:13,NA,incomplete,false,NA,true,NA,4,4,NA,NA,NA,right,NA,NA,NA,absent,NA,NA,n_s_093.jpg,red,m_s_043.jpg,red,within,NA,NaN,NA,NA,NA,NA,right,2447.5,1,1,1359.2000000178814
aGIQgblM,3k2cedradeesg9mhvkrgq648pmomto,3zwfc4w1uykbh4f2wanaklf98bsrf3,aGIQgblM,2020-0188,2021-10-30,21:43:22,23:21:13,NA,incomplete,false,NA,true,NA,4,5,NA,NA,NA,left,NA,NA,NA,absent,NA,NA,n_s_058.jpg,yellow,m_l_117.jpg,yellow,within,NA,NaN,NA,NA,NA,NA,right,2286.300000011921,0,1,1815
aGIQgblM,3k2cedradeesg9mhvkrgq648pmomto,3zwfc4w1uykbh4f2wanaklf98bsrf3,aGIQgblM,2020-0188,2021-10-30,21:43:22,23:21:13,NA,incomplete,false,NA,true,NA,4,6,NA,NA,NA,left,NA,NA,NA,absent,NA,NA,n_l_008.jpg,green,m_l_049.jpg,green,within,NA,NaN,NA,NA,NA,NA,left,2166.7999999821186,1,2,1694.2999999821186
aGIQgblM,3k2cedradeesg9mhvkrgq648pmomto,3zwfc4w1uykbh4f2wanaklf98bsrf3,aGIQgblM,2020-0188,2021-10-30,21:43:22,23:21:13,NA,incomplete,false,NA,true,NA,4,7,NA,NA,NA,left,NA,NA,NA,absent,NA,NA,m_l_045.jpg,red,n_l_019.jpg,purple,between,NA,NaN,NA,NA,NA,NA,right,2182.7999999821186,0,2,1655.199999988079
aGIQgblM,3k2cedradeesg9mhvkrgq648pmomto,3zwfc4w1uykbh4f2wanaklf98bsrf3,aGIQgblM,2020-0188,2021-10-30,21:43:22,23:21:13,NA,incomplete,false,NA,true,NA,4,8,NA,NA,NA,right,NA,NA,NA,absent,NA,NA,n_s_015.jpg,green,m_s_030.jpg,blue,between,NA,NaN,NA,NA,NA,NA,left,3351.199999988079,0,2,1543.0999999940395
aGIQgblM,3k2cedradeesg9mhvkrgq648pmomto,3zwfc4w1uykbh4f2wanaklf98bsrf3,aGIQgblM,2020-0188,2021-10-30,21:43:22,23:21:13,NA,incomplete,false,NA,true,NA,4,9,NA,NA,NA,left,NA,NA,NA,absent,NA,NA,m_s_094.jpg,yellow,m_l_010.jpg,red,between,NA,NaN,NA,NA,NA,NA,left,2241.199999988079,1,1,1398.2999999821186
aGIQgblM,3k2cedradeesg9mhvkrgq648pmomto,3zwfc4w1uykbh4f2wanaklf98bsrf3,aGIQgblM,2020-0188,2021-10-30,21:43:22,23:21:13,NA,incomplete,false,NA,true,NA,4,10,NA,NA,NA,right,NA,NA,NA,absent,NA,NA,n_l_027.jpg,gray,n_s_087.jpg,gray,within,NA,NaN,NA,NA,NA,NA,right,2263.199999988079,1,2,1639
aGIQgblM,3k2cedradeesg9mhvkrgq648pmomto,3zwfc4w1uykbh4f2wanaklf98bsrf3,aGIQgblM,2020-0188,2021-10-30,21:43:22,23:21:13,NA,incomplete,false,true,NA,NA,5,0,NA,black,n_l_103.jpg,NA,NA,NA,NA,NA,pleasant,unpleasant,NA,NA,NA,NA,NA,left,1810.80000001192,true,NA,NA,NA,NA,NA,NA,NA,NA
aGIQgblM,3k2cedradeesg9mhvkrgq648pmomto,3zwfc4w1uykbh4f2wanaklf98bsrf3,aGIQgblM,2020-0188,2021-10-30,21:43:22,23:21:13,NA,incomplete,false,true,NA,NA,5,1,NA,black,n_l_047.jpg,NA,NA,NA,NA,NA,unpleasant,pleasant,NA,NA,NA,NA,NA,right,1637.29999998212,true,NA,NA,NA,NA,NA,NA,NA,NA
aGIQgblM,3k2cedradeesg9mhvkrgq648pmomto,3zwfc4w1uykbh4f2wanaklf98bsrf3,aGIQgblM,2020-0188,2021-10-30,21:43:22,23:21:13,NA,incomplete,false,true,NA,NA,5,2,NA,black,m_s_103.jpg,NA,NA,NA,NA,NA,unpleasant,pleasant,NA,NA,NA,NA,NA,right,1703.5,true,NA,NA,NA,NA,NA,NA,NA,NA
aGIQgblM,3k2cedradeesg9mhvkrgq648pmomto,3zwfc4w1uykbh4f2wanaklf98bsrf3,aGIQgblM,2020-0188,2021-10-30,21:43:22,23:21:13,NA,incomplete,false,true,NA,NA,5,3,NA,black,n_s_044.jpg,NA,NA,NA,NA,NA,unpleasant,pleasant,NA,NA,NA,NA,NA,right,1438.09999999404,true,NA,NA,NA,NA,NA,NA,NA,NA
aGIQgblM,3k2cedradeesg9mhvkrgq648pmomto,3zwfc4w1uykbh4f2wanaklf98bsrf3,aGIQgblM,2020-0188,2021-10-30,21:43:22,23:21:13,NA,incomplete,false,true,NA,NA,5,4,NA,black,n_s_029.jpg,NA,NA,NA,NA,NA,pleasant,unpleasant,NA,NA,NA,NA,NA,left,2249.89999997616,true,NA,NA,NA,NA,NA,NA,NA,NA
aGIQgblM,3k2cedradeesg9mhvkrgq648pmomto,3zwfc4w1uykbh4f2wanaklf98bsrf3,aGIQgblM,2020-0188,2021-10-30,21:43:22,23:21:13,NA,incomplete,false,true,NA,NA,5,5,NA,black,n_s_081.jpg,NA,NA,NA,NA,NA,unpleasant,pleasant,NA,NA,NA,NA,NA,right,1935.69999998808,true,NA,NA,NA,NA,NA,NA,NA,NA
aGIQgblM,3k2cedradeesg9mhvkrgq648pmomto,3zwfc4w1uykbh4f2wanaklf98bsrf3,aGIQgblM,2020-0188,2021-10-30,21:43:22,23:21:13,NA,incomplete,false,true,NA,NA,5,6,NA,orange,m_s_055.jpg,NA,NA,NA,NA,NA,pleasant,unpleasant,NA,NA,NA,NA,NA,left,2193.59999999404,true,NA,NA,NA,NA,NA,NA,NA,NA
aGIQgblM,3k2cedradeesg9mhvkrgq648pmomto,3zwfc4w1uykbh4f2wanaklf98bsrf3,aGIQgblM,2020-0188,2021-10-30,21:43:22,23:21:13,NA,incomplete,false,true,NA,NA,5,7,NA,orange,m_s_036.jpg,NA,NA,NA,NA,NA,unpleasant,pleasant,NA,NA,NA,NA,NA,right,1608.59999999404,true,NA,NA,NA,NA,NA,NA,NA,NA
aGIQgblM,3k2cedradeesg9mhvkrgq648pmomto,3zwfc4w1uykbh4f2wanaklf98bsrf3,aGIQgblM,2020-0188,2021-10-30,21:43:22,23:21:13,NA,incomplete,false,true,NA,NA,5,8,NA,orange,n_s_034.jpg,NA,NA,NA,NA,NA,unpleasant,pleasant,NA,NA,NA,NA,NA,right,2127,true,NA,NA,NA,NA,NA,NA,NA,NA
aGIQgblM,3k2cedradeesg9mhvkrgq648pmomto,3zwfc4w1uykbh4f2wanaklf98bsrf3,aGIQgblM,2020-0188,2021-10-30,21:43:22,23:21:13,NA,incomplete,false,true,NA,NA,5,9,NA,orange,n_l_092.jpg,NA,NA,NA,NA,NA,unpleasant,pleasant,NA,NA,NA,NA,NA,right,1989,true,NA,NA,NA,NA,NA,NA,NA,NA
aGIQgblM,3k2cedradeesg9mhvkrgq648pmomto,3zwfc4w1uykbh4f2wanaklf98bsrf3,aGIQgblM,2020-0188,2021-10-30,21:43:22,23:21:13,NA,incomplete,false,true,NA,NA,5,10,NA,orange,m_s_049.jpg,NA,NA,NA,NA,NA,pleasant,unpleasant,NA,NA,NA,NA,NA,left,1748.30000001192,true,NA,NA,NA,NA,NA,NA,NA,NA
aGIQgblM,3k2cedradeesg9mhvkrgq648pmomto,3zwfc4w1uykbh4f2wanaklf98bsrf3,aGIQgblM,2020-0188,2021-10-30,21:43:22,23:21:13,NA,incomplete,false,true,NA,NA,5,11,NA,orange,n_l_090.jpg,NA,NA,NA,NA,NA,unpleasant,pleasant,NA,NA,NA,NA,NA,right,1768.40000000596,true,NA,NA,NA,NA,NA,NA,NA,NA
aGIQgblM,3k2cedradeesg9mhvkrgq648pmomto,3zwfc4w1uykbh4f2wanaklf98bsrf3,aGIQgblM,2020-0188,2021-10-30,21:43:22,23:21:13,NA,incomplete,false,true,NA,NA,5,12,NA,green,m_s_078.jpg,NA,NA,NA,NA,NA,unpleasant,pleasant,NA,NA,NA,NA,NA,left,1927.29999998212,true,NA,NA,NA,NA,NA,NA,NA,NA
aGIQgblM,3k2cedradeesg9mhvkrgq648pmomto,3zwfc4w1uykbh4f2wanaklf98bsrf3,aGIQgblM,2020-0188,2021-10-30,21:43:22,23:21:13,NA,incomplete,false,true,NA,NA,5,13,NA,green,m_s_115.jpg,NA,NA,NA,NA,NA,pleasant,unpleasant,NA,NA,NA,NA,NA,left,1917.80000001192,true,NA,NA,NA,NA,NA,NA,NA,NA
aGIQgblM,3k2cedradeesg9mhvkrgq648pmomto,3zwfc4w1uykbh4f2wanaklf98bsrf3,aGIQgblM,2020-0188,2021-10-30,21:43:22,23:21:13,NA,incomplete,false,true,NA,NA,5,14,NA,green,n_l_113.jpg,NA,NA,NA,NA,NA,unpleasant,pleasant,NA,NA,NA,NA,NA,none,0,false,NA,NA,NA,NA,NA,NA,NA,NA
aGIQgblM,3k2cedradeesg9mhvkrgq648pmomto,3zwfc4w1uykbh4f2wanaklf98bsrf3,aGIQgblM,2020-0188,2021-10-30,21:43:22,23:21:13,NA,incomplete,false,true,NA,NA,5,15,NA,green,n_s_004.jpg,NA,NA,NA,NA,NA,unpleasant,pleasant,NA,NA,NA,NA,NA,right,2478.59999999404,true,NA,NA,NA,NA,NA,NA,NA,NA
